Audio_Only_Files,Video_Files,Original_Word_List,noiseLevelCode,conditionCodes,noiseLevelFile1,noiseLevelFile2,InstrTextVar,targetSpeakerName,targetSpeakerEccen,targetSpkrChannel,targetSpkrSound,targetVisualDegrees,visStimLoc,visStimLoc2,visStimW,visStimH,practiceTrials.thisRepN,practiceTrials.thisTrialN,practiceTrials.thisN,practiceTrials.thisIndex,trials.thisRepN,trials.thisTrialN,trials.thisN,trials.thisIndex,audLocalLoop.thisRepN,audLocalLoop.thisTrialN,audLocalLoop.thisN,audLocalLoop.thisIndex,letsGoAlready.keys,letsGoAlready.rt,letsGoAlready.started,letsGoAlready.stopped,text_2.started,text_2.stopped,text_3.started,text_3.stopped,key_resp_2.keys,key_resp_2.rt,key_resp_2.started,key_resp_2.stopped,text_5.started,text_5.stopped,fixCross.started,fixCross.stopped,fixCross2.started,fixCross2.stopped,answerPrompt.started,answerPrompt.stopped,getAnswer.text,getAnswer.started,getAnswer.stopped,goToNext.keys,goToNext.rt,goToNext.started,goToNext.stopped,stretchBreakTxrt.started,stretchBreakTxrt.stopped,key_resp_3.keys,key_resp_3.rt,key_resp_3.started,key_resp_3.stopped,letsGoLocal.keys,letsGoLocal.rt,letsGoLocal.started,letsGoLocal.stopped,text_4.started,text_4.stopped,prepFixTxt.started,prepFixTxt.stopped,prepFixTxt_2.started,prepFixTxt_2.stopped,respPromptLocal.started,respPromptLocal.stopped,slider.response,slider.rt,slider.started,slider.stopped,participant,session,date,expName,psychopyVersion,frameRate,
,,,,,,,,,,,,,,,,,,,,,,,,,,,,,space,1.3955489329528064,10.4493259890005,None,,,,,,,,,,,,,,,,,,,,,,,,,,,,,,,,,,,,,,,,,,,,,,0,001,2023_Oct_04_1838,SpeechDraft1Carolyn_lessNoise_locIncl_Mach2,2021.2.3,60.035571633600114,
,,,,,,,,,,,,,,,,,,,,,,,,,,,,,,,,,10.4493259890005,None,11.865789957111701,None,space,0.4124728429596871,12.032403507037088,None,,,,,,,,,,,,,,,,,,,,,,,,,,,,,,,,,,,,,,0,001,2023_Oct_04_1838,SpeechDraft1Carolyn_lessNoise_locIncl_Mach2,2021.2.3,60.035571633600114,
ash.wav,ash.mpg,ash,1,A,Pink_Noise_1_1.wav,Pink_Noise_1_2.wav,"This is an example of an

AUDIO trial",,,,,,,,,,0,0,0,0,,,,,,,,,,,,,,,,,,,,,12.499054722022265,None,13.482411416014656,None,15.582144380081445,None,16.9659250669647,None,sh,16.9659250669647,None,return,2.4276419628877193,17.049247328890488,None,,,,,,,,,,,,,,,,,,,,,,,0,001,2023_Oct_04_1838,SpeechDraft1Carolyn_lessNoise_locIncl_Mach2,2021.2.3,60.035571633600114,
ash.wav,ash.mpg,ash,1,AV,Pink_Noise_1_1.wav,Pink_Noise_1_2.wav,"This is an example of an

AUDIO + VIDEO  trial",,,,,,,,,,0,1,1,1,,,,,,,,,,,,,,,,,,,,,19.515660003060475,None,20.51598153798841,None,22.000707994913682,None,23.382429538993165,None,ash,23.382429538993165,None,return,1.3791168120224029,23.465777246048674,None,,,,,,,,,,,,,,,,,,,,,,,0,001,2023_Oct_04_1838,SpeechDraft1Carolyn_lessNoise_locIncl_Mach2,2021.2.3,60.035571633600114,
,,,,,,,,,,,,,,,,,,,,,,,,,,,,,,,,,,,,,,,,,,,,,,,,,,,,,,,,24.882137014064938,None,space,1.2590728618670255,25.065838382113725,None,,,,,,,,,,,,,,,,,0,001,2023_Oct_04_1838,SpeechDraft1Carolyn_lessNoise_locIncl_Mach2,2021.2.3,60.035571633600114,
,,,,,,,,,,,,,,,,,,,,,,,,,,,,,,,,,,,,,,,,,,,,,,,,,,,,,,,,,,,,,,space,0.8517212769947946,26.449144324986264,None,,,,,,,,,,,,,0,001,2023_Oct_04_1838,SpeechDraft1Carolyn_lessNoise_locIncl_Mach2,2021.2.3,60.035571633600114,
,,,,,,,,center,0.0,6,ch1Sound_localizationTask.wav,0.0,"(952, 878)","(-8,-202)",0,-338,,,,,,,,,0,0,0,3,,,,,,,,,,,,,,,,,,,,,,,,,,,,,,,,,,,,,,26.449144324986264,None,27.349016620079055,None,28.4489570830483,None,29.36696870997548,None,1.4857142857142858,2.3592299798037857,29.36696870997548,None,0,001,2023_Oct_04_1838,SpeechDraft1Carolyn_lessNoise_locIncl_Mach2,2021.2.3,60.035571633600114,
,,,,,,,,midRight,13.0,3,ch1Sound_localizationTask.wav,13.0,"(1142, 878)","(182, -202)",190,-338,,,,,,,,,0,1,1,5,,,,,,,,,,,,,,,,,,,,,,,,,,,,,,,,,,,,,,,,31.732538423035294,None,32.83217756310478,None,33.765701197087765,None,1.5820105820105819,0.9164052719715983,33.765701197087765,None,0,001,2023_Oct_04_1838,SpeechDraft1Carolyn_lessNoise_locIncl_Mach2,2021.2.3,60.035571633600114,
,,,,,,,,midRight,13.0,3,ch1Sound_localizationTask.wav,13.0,"(1142, 878)","(182, -202)",190,-338,,,,,,,,,0,2,2,5,,,,,,,,,,,,,,,,,,,,,,,,,,,,,,,,,,,,,,,,34.682595900958404,None,35.782413050998,None,36.71574495290406,None,1.5820105820105819,0.4499879770446569,36.71574495290406,None,0,001,2023_Oct_04_1838,SpeechDraft1Carolyn_lessNoise_locIncl_Mach2,2021.2.3,60.035571633600114,
,,,,,,,,farLeft,-19.1,5,ch1Sound_localizationTask.wav,-19.1,"(667, 878)","(-293,-202)",-285,-338,,,,,,,,,0,3,3,0,,,,,,,,,,,,,,,,,,,,,,,,,,,,,,,,,,,,,,,,37.16597727802582,None,38.2655593350064,None,39.198935182066634,None,1.3465608465608465,0.7822859128937125,39.198935182066634,None,0,001,2023_Oct_04_1838,SpeechDraft1Carolyn_lessNoise_locIncl_Mach2,2021.2.3,60.035571633600114,
,,,,,,,,farLeft,-19.1,5,ch1Sound_localizationTask.wav,-19.1,"(667, 878)","(-293,-202)",-285,-338,,,,,,,,,0,4,4,0,,,,,,,,,,,,,,,,,,,,,,,,,,,,,,,,,,,,,,,,39.98285171505995,None,41.08241730905138,None,42.015798531938344,None,1.3888888888888888,0.5658120578154922,42.015798531938344,None,0,001,2023_Oct_04_1838,SpeechDraft1Carolyn_lessNoise_locIncl_Mach2,2021.2.3,60.035571633600114,
,,,,,,,,center,0.0,6,ch1Sound_localizationTask.wav,0.0,"(952, 878)","(-8,-202)",0,-338,,,,,,,,,0,5,5,3,,,,,,,,,,,,,,,,,,,,,,,,,,,,,,,,,,,,,,,,42.58411556202918,None,43.69923221296631,None,44.61548875900917,None,1.5423280423280423,0.7999449318740517,44.61548875900917,None,0,001,2023_Oct_04_1838,SpeechDraft1Carolyn_lessNoise_locIncl_Mach2,2021.2.3,60.035571633600114,
,,,,,,,,midLeft,-13.0,2,ch1Sound_localizationTask.wav,-13.0,"(762, 878)","(-198,-202)",-190,-338,,,,,,,,,0,6,6,1,,,,,,,,,,,,,,,,,,,,,,,,,,,,,,,,,,,,,,,,45.432738452916965,None,46.53236116003245,None,47.465445519890636,None,1.391005291005291,0.466432711109519,47.465445519890636,None,0,001,2023_Oct_04_1838,SpeechDraft1Carolyn_lessNoise_locIncl_Mach2,2021.2.3,60.035571633600114,
,,,,,,,,nearLeft,-6.5,1,ch1Sound_localizationTask.wav,-6.5,"(857, 878)","(-103,-202)",-95,-338,,,,,,,,,1,0,7,2,,,,,,,,,,,,,,,,,,,,,,,,,,,,,,,,,,,,,,,,47.93281034310348,None,49.03229149593972,None,49.96565414802171,None,1.4407407407407407,0.5821111910045147,49.96565414802171,None,0,001,2023_Oct_04_1838,SpeechDraft1Carolyn_lessNoise_locIncl_Mach2,2021.2.3,60.035571633600114,
,,,,,,,,farLeft,-19.1,5,ch1Sound_localizationTask.wav,-19.1,"(667, 878)","(-293,-202)",-285,-338,,,,,,,,,1,1,8,0,,,,,,,,,,,,,,,,,,,,,,,,,,,,,,,,,,,,,,,,50.549204372102395,None,51.64889995008707,None,52.582400877960026,None,1.3216931216931216,0.7147431171033531,52.582400877960026,None,0,001,2023_Oct_04_1838,SpeechDraft1Carolyn_lessNoise_locIncl_Mach2,2021.2.3,60.035571633600114,
,,,,,,,,farLeft,-19.1,5,ch1Sound_localizationTask.wav,-19.1,"(667, 878)","(-293,-202)",-285,-338,,,,,,,,,1,2,9,0,,,,,,,,,,,,,,,,,,,,,,,,,,,,,,,,,,,,,,,,53.29912764695473,None,54.39913255395368,None,55.33223604410887,None,1.3904761904761904,0.5158293650019914,55.33223604410887,None,0,001,2023_Oct_04_1838,SpeechDraft1Carolyn_lessNoise_locIncl_Mach2,2021.2.3,60.035571633600114,
,,,,,,,,center,0.0,6,ch1Sound_localizationTask.wav,0.0,"(952, 878)","(-8,-202)",0,-338,,,,,,,,,1,3,10,3,,,,,,,,,,,,,,,,,,,,,,,,,,,,,,,,,,,,,,,,55.84933110908605,None,56.949020859086886,None,57.88225997192785,None,1.507936507936508,0.667006443021819,57.88225997192785,None,0,001,2023_Oct_04_1838,SpeechDraft1Carolyn_lessNoise_locIncl_Mach2,2021.2.3,60.035571633600114,
,,,,,,,,nearRight,6.5,0,ch1Sound_localizationTask.wav,6.5,"(1047, 878)","(87, -202)",95,-338,,,,,,,,,1,4,11,4,,,,,,,,,,,,,,,,,,,,,,,,,,,,,,,,,,,,,,,,58.54952110303566,None,59.64881292800419,None,60.58226951304823,None,1.5074074074074075,0.6668449880089611,60.58226951304823,None,0,001,2023_Oct_04_1838,SpeechDraft1Carolyn_lessNoise_locIncl_Mach2,2021.2.3,60.035571633600114,
,,,,,,,,nearRight,6.5,0,ch1Sound_localizationTask.wav,6.5,"(1047, 878)","(87, -202)",95,-338,,,,,,,,,1,5,12,4,,,,,,,,,,,,,,,,,,,,,,,,,,,,,,,,,,,,,,,,61.249338110908866,None,62.34888124791905,None,63.28222316200845,None,1.4984126984126984,0.49916512216441333,63.28222316200845,None,0,001,2023_Oct_04_1838,SpeechDraft1Carolyn_lessNoise_locIncl_Mach2,2021.2.3,60.035571633600114,
,,,,,,,,farLeft,-19.1,5,ch1Sound_localizationTask.wav,-19.1,"(667, 878)","(-293,-202)",-285,-338,,,,,,,,,1,6,13,0,,,,,,,,,,,,,,,,,,,,,,,,,,,,,,,,,,,,,,,,63.782743202056736,None,64.88234431506135,None,65.81550891394727,None,1.3603174603174604,0.7667279141023755,65.81550891394727,None,0,001,2023_Oct_04_1838,SpeechDraft1Carolyn_lessNoise_locIncl_Mach2,2021.2.3,60.035571633600114,
,,,,,,,,nearLeft,-6.5,1,ch1Sound_localizationTask.wav,-6.5,"(857, 878)","(-103,-202)",-95,-338,,,,,,,,,2,0,14,2,,,,,,,,,,,,,,,,,,,,,,,,,,,,,,,,,,,,,,,,66.58255532104522,None,67.68224744591862,None,68.6156306839548,None,1.4603174603174602,0.9322476491797715,68.6156306839548,None,0,001,2023_Oct_04_1838,SpeechDraft1Carolyn_lessNoise_locIncl_Mach2,2021.2.3,60.035571633600114,
,,,,,,,,nearLeft,-6.5,1,ch1Sound_localizationTask.wav,-6.5,"(857, 878)","(-103,-202)",-95,-338,,,,,,,,,2,1,15,2,,,,,,,,,,,,,,,,,,,,,,,,,,,,,,,,,,,,,,,,69.54919452406466,None,70.64907532511279,None,71.5822951530572,None,1.4656084656084656,0.9157189552206546,71.5822951530572,None,0,001,2023_Oct_04_1838,SpeechDraft1Carolyn_lessNoise_locIncl_Mach2,2021.2.3,60.035571633600114,
,,,,,,,,nearLeft,-6.5,1,ch1Sound_localizationTask.wav,-6.5,"(857, 878)","(-103,-202)",-95,-338,,,,,,,,,2,2,16,2,,,,,,,,,,,,,,,,,,,,,,,,,,,,,,,,,,,,,,,,72.49921372509561,None,73.59913664706983,None,74.53226480493322,None,1.4915343915343915,0.882987038930878,74.53226480493322,None,0,001,2023_Oct_04_1838,SpeechDraft1Carolyn_lessNoise_locIncl_Mach2,2021.2.3,60.035571633600114,
,,,,,,,,nearRight,6.5,0,ch1Sound_localizationTask.wav,6.5,"(1047, 878)","(87, -202)",95,-338,,,,,,,,,2,3,17,4,,,,,,,,,,,,,,,,,,,,,,,,,,,,,,,,,,,,,,,,75.41591674694791,None,76.51568075292744,None,77.44899855391122,None,1.5322751322751322,0.6332000209949911,77.44899855391122,None,0,001,2023_Oct_04_1838,SpeechDraft1Carolyn_lessNoise_locIncl_Mach2,2021.2.3,60.035571633600114,
,,,,,,,,farLeft,-19.1,5,ch1Sound_localizationTask.wav,-19.1,"(667, 878)","(-293,-202)",-285,-338,,,,,,,,,2,4,18,0,,,,,,,,,,,,,,,,,,,,,,,,,,,,,,,,,,,,,,,,78.082600367954,None,79.18217736203223,None,80.11564024095424,None,1.3761904761904762,0.6326562690082937,80.11564024095424,None,0,001,2023_Oct_04_1838,SpeechDraft1Carolyn_lessNoise_locIncl_Mach2,2021.2.3,60.035571633600114,
,,,,,,,,nearLeft,-6.5,1,ch1Sound_localizationTask.wav,-6.5,"(857, 878)","(-103,-202)",-95,-338,,,,,,,,,2,5,19,2,,,,,,,,,,,,,,,,,,,,,,,,,,,,,,,,,,,,,,,,80.74934248789214,None,81.84894258202985,None,82.78225824097171,None,1.4328042328042327,0.8001559460535645,82.78225824097171,None,0,001,2023_Oct_04_1838,SpeechDraft1Carolyn_lessNoise_locIncl_Mach2,2021.2.3,60.035571633600114,
,,,,,,,,nearRight,6.5,0,ch1Sound_localizationTask.wav,6.5,"(1047, 878)","(87, -202)",95,-338,,,,,,,,,2,6,20,4,,,,,,,,,,,,,,,,,,,,,,,,,,,,,,,,,,,,,,,,83.59920919896103,None,84.69894556608051,None,85.6323664020747,None,1.5671957671957673,0.35035405098460615,85.6323664020747,None,0,001,2023_Oct_04_1838,SpeechDraft1Carolyn_lessNoise_locIncl_Mach2,2021.2.3,60.035571633600114,
,,,,,,,,center,0.0,6,ch1Sound_localizationTask.wav,0.0,"(952, 878)","(-8,-202)",0,-338,,,,,,,,,3,0,21,3,,,,,,,,,,,,,,,,,,,,,,,,,,,,,,,,,,,,,,,,85.99945532390848,None,87.09909033891745,None,88.03252281993628,None,1.5354497354497354,0.1661643572151661,88.03252281993628,None,0,001,2023_Oct_04_1838,SpeechDraft1Carolyn_lessNoise_locIncl_Mach2,2021.2.3,60.035571633600114,
,,,,,,,,,,,,,,,,,,,,,,,,,,,,,,,,,,,,,,,,,,,,,,,,,,,,,,,,,,,,,,,,,,,,88.19935868307948,None,,,,,,,,,,,,,,,
