Audio_Only_Files,Video_Files,Original_Word_List,noiseLevelCode,conditionCodes,noiseLevelFile1,noiseLevelFile2,InstrTextVar,targetSpeakerName,targetSpeakerEccen,targetSpkrChannel,targetSpkrSound,targetVisualDegrees,visStimLoc,visStimLoc2,visStimW,visStimH,practiceTrials.thisRepN,practiceTrials.thisTrialN,practiceTrials.thisN,practiceTrials.thisIndex,trials.thisRepN,trials.thisTrialN,trials.thisN,trials.thisIndex,audLocalLoop.thisRepN,audLocalLoop.thisTrialN,audLocalLoop.thisN,audLocalLoop.thisIndex,visualLocalLoop.thisRepN,visualLocalLoop.thisTrialN,visualLocalLoop.thisN,visualLocalLoop.thisIndex,letsGoAlready.keys,letsGoAlready.rt,letsGoAlready.started,letsGoAlready.stopped,text_2.started,text_2.stopped,text_3.started,text_3.stopped,key_resp_2.keys,key_resp_2.rt,key_resp_2.started,key_resp_2.stopped,text_5.started,text_5.stopped,fixCross.started,fixCross.stopped,fixCross2.started,fixCross2.stopped,answerPrompt.started,answerPrompt.stopped,getAnswer.text,getAnswer.started,getAnswer.stopped,goToNext.keys,goToNext.rt,goToNext.started,goToNext.stopped,stretchBreakTxrt.started,stretchBreakTxrt.stopped,key_resp_3.keys,key_resp_3.rt,key_resp_3.started,key_resp_3.stopped,letsGoLocal.keys,letsGoLocal.rt,letsGoLocal.started,letsGoLocal.stopped,text_4.started,text_4.stopped,prepFixTxt.started,prepFixTxt.stopped,prepFixTxt_2.started,prepFixTxt_2.stopped,respPromptLocal.started,respPromptLocal.stopped,slider.response,slider.rt,slider.started,slider.stopped,letsGoLocal_2.keys,letsGoLocal_2.rt,letsGoLocal_2.started,letsGoLocal_2.stopped,text_7.started,text_7.stopped,prepFixTxt_3.started,prepFixTxt_3.stopped,grating.started,grating.stopped,exitTxt.started,exitTxt.stopped,key_resp.keys,key_resp.rt,key_resp.started,key_resp.stopped,participant,session,date,expName,psychopyVersion,frameRate,
,,,,,,,,,,,,,,,,,,,,,,,,,,,,,,,,,space,2.1215254578273743,10.966218734160066,None,,,,,,,,,,,,,,,,,,,,,,,,,,,,,,,,,,,,,,,,,,,,,,,,,,,,,,,,,,,,,,124,001,2023_Oct_05_1244,SpeechDraft1Carolyn_lessNoise_locIncl_Mach2,2021.2.3,60.00420865319668,
,,,,,,,,,,,,,,,,,,,,,,,,,,,,,,,,,,,,,10.966218734160066,None,13.115795859135687,None,space,5.221301828045398,13.282570936018601,None,,,,,,,,,,,,,,,,,,,,,,,,,,,,,,,,,,,,,,,,,,,,,,,,,,,,,,124,001,2023_Oct_05_1244,SpeechDraft1Carolyn_lessNoise_locIncl_Mach2,2021.2.3,60.00420865319668,
ash.wav,ash.mpg,ash,1,A,Pink_Noise_1_1.wav,Pink_Noise_1_2.wav,"This is an example of an

AUDIO trial",,,,,,,,,,0,0,0,0,,,,,,,,,,,,,,,,,,,,,,,,,18.565844818018377,None,19.549232168123126,None,22.750145395984873,None,24.14910236094147,None,ash,24.14910236094147,None,return,9.079930316191167,24.215945875039324,None,,,,,,,,,,,,,,,,,,,,,,,,,,,,,,,,,,,,,,,124,001,2023_Oct_05_1244,SpeechDraft1Carolyn_lessNoise_locIncl_Mach2,2021.2.3,60.00420865319668,
ash.wav,ash.mpg,ash,1,AV,Pink_Noise_1_1.wav,Pink_Noise_1_2.wav,"This is an example of an

AUDIO + VIDEO  trial",,,,,,,,,,0,1,1,1,,,,,,,,,,,,,,,,,,,,,,,,,33.332285918993875,None,34.33272668113932,None,35.81572851608507,None,37.19928231602535,None,ash,37.19928231602535,None,return,8.109136684099212,37.282628720160574,None,,,,,,,,,,,,,,,,,,,,,,,,,,,,,,,,,,,,,,,124,001,2023_Oct_05_1244,SpeechDraft1Carolyn_lessNoise_locIncl_Mach2,2021.2.3,60.00420865319668,
,,,,,,,,,,,,,,,,,,,,,,,,,,,,,,,,,,,,,,,,,,,,,,,,,,,,,,,,,,,,45.43229178409092,None,space,27.359846579143777,45.61594448401593,None,,,,,,,,,,,,,,,,,,,,,,,,,,,,,,,,,124,001,2023_Oct_05_1244,SpeechDraft1Carolyn_lessNoise_locIncl_Mach2,2021.2.3,60.00420865319668,
,,,,,,,,,,,,,,,,,,,,,,,,,,,,,,,,,,,,,,,,,,,,,,,,,,,,,,,,,,,,,,,,,,space,30.940345855196938,73.09940315200947,None,,,,,,,,,,,,,,,,,,,,,,,,,,,,,124,001,2023_Oct_05_1244,SpeechDraft1Carolyn_lessNoise_locIncl_Mach2,2021.2.3,60.00420865319668,
,,,,,,,,midRight,13.0,3,ch1Sound_localizationTask.wav,13.0,"(1142, 878)","(182, -202)",190,-338,,,,,,,,,0,0,0,5,,,,,,,,,,,,,,,,,,,,,,,,,,,,,,,,,,,,,,,,,,73.09940315200947,None,104.08348234300502,None,105.19928448507562,None,106.11582661909051,None,1.494179894179894,8.342838825890794,106.11582661909051,None,,,,,,,,,,,,,,,,,124,001,2023_Oct_05_1244,SpeechDraft1Carolyn_lessNoise_locIncl_Mach2,2021.2.3,60.00420865319668,
,,,,,,,,midLeft,-13.0,2,ch1Sound_localizationTask.wav,-13.0,"(762, 878)","(-198,-202)",-190,-338,,,,,,,,,0,1,1,1,,,,,,,,,,,,,,,,,,,,,,,,,,,,,,,,,,,,,,,,,,,,114.449757801136,None,115.54913075803779,None,116.48257163004018,None,1.2603174603174603,3.332510191015899,116.48257163004018,None,,,,,,,,,,,,,,,,,124,001,2023_Oct_05_1244,SpeechDraft1Carolyn_lessNoise_locIncl_Mach2,2021.2.3,60.00420865319668,
,,,,,,,,farRight,19.1,4,ch1Sound_localizationTask.wav,19.1,"(1237, 878)","(277,-202)",285,-338,,,,,,,,,0,2,2,6,,,,,,,,,,,,,,,,,,,,,,,,,,,,,,,,,,,,,,,,,,,,119.81635553110391,None,120.91587030212395,None,121.84964361297898,None,1.982010582010582,7.962963319849223,121.84964361297898,None,,,,,,,,,,,,,,,,,124,001,2023_Oct_05_1244,SpeechDraft1Carolyn_lessNoise_locIncl_Mach2,2021.2.3,60.00420865319668,
,,,,,,,,farLeft,-19.1,5,ch1Sound_localizationTask.wav,-19.1,"(667, 878)","(-293,-202)",-285,-338,,,,,,,,,0,3,3,0,,,,,,,,,,,,,,,,,,,,,,,,,,,,,,,,,,,,,,,,,,,,129.81609475496225,None,130.9158587430138,None,131.84909121016972,None,1.1708994708994709,2.6825766649562865,131.84909121016972,None,,,,,,,,,,,,,,,,,124,001,2023_Oct_05_1244,SpeechDraft1Carolyn_lessNoise_locIncl_Mach2,2021.2.3,60.00420865319668,
,,,,,,,,midRight,13.0,3,ch1Sound_localizationTask.wav,13.0,"(1142, 878)","(182, -202)",190,-338,,,,,,,,,0,4,4,5,,,,,,,,,,,,,,,,,,,,,,,,,,,,,,,,,,,,,,,,,,,,134.53278984501958,None,135.63248827704228,None,136.56585137802176,None,1.7174603174603176,2.215036573819816,136.56585137802176,None,,,,,,,,,,,,,,,,,124,001,2023_Oct_05_1244,SpeechDraft1Carolyn_lessNoise_locIncl_Mach2,2021.2.3,60.00420865319668,
,,,,,,,,nearLeft,-6.5,1,ch1Sound_localizationTask.wav,-6.5,"(857, 878)","(-103,-202)",-95,-338,,,,,,,,,0,5,5,2,,,,,,,,,,,,,,,,,,,,,,,,,,,,,,,,,,,,,,,,,,,,138.7828286960721,None,139.8826374260243,None,140.8158475330565,None,1.283068783068783,3.0661645911168307,140.8158475330565,None,,,,,,,,,,,,,,,,,124,001,2023_Oct_05_1244,SpeechDraft1Carolyn_lessNoise_locIncl_Mach2,2021.2.3,60.00420865319668,
,,,,,,,,nearRight,6.5,0,ch1Sound_localizationTask.wav,6.5,"(1047, 878)","(87, -202)",95,-338,,,,,,,,,0,6,6,4,,,,,,,,,,,,,,,,,,,,,,,,,,,,,,,,,,,,,,,,,,,,143.88278771494515,None,144.98250937298872,None,145.91582068195567,None,1.505820105820106,2.4832006059587,145.91582068195567,None,,,,,,,,,,,,,,,,,124,001,2023_Oct_05_1244,SpeechDraft1Carolyn_lessNoise_locIncl_Mach2,2021.2.3,60.00420865319668,
,,,,,,,,center,0.0,6,ch1Sound_localizationTask.wav,0.0,"(952, 878)","(-8,-202)",0,-338,,,,,,,,,1,0,7,3,,,,,,,,,,,,,,,,,,,,,,,,,,,,,,,,,,,,,,,,,,,,148.3998445540201,None,149.49915346107446,None,150.4325382290408,None,1.4878306878306877,3.7005825240630656,150.4325382290408,None,,,,,,,,,,,,,,,,,124,001,2023_Oct_05_1244,SpeechDraft1Carolyn_lessNoise_locIncl_Mach2,2021.2.3,60.00420865319668,
,,,,,,,,nearLeft,-6.5,1,ch1Sound_localizationTask.wav,-6.5,"(857, 878)","(-103,-202)",-95,-338,,,,,,,,,1,1,8,2,,,,,,,,,,,,,,,,,,,,,,,,,,,,,,,,,,,,,,,,,,,,154.13320802501403,None,155.2326045529917,None,156.16566630615853,None,1.355026455026455,2.4156800301279873,156.16566630615853,None,,,,,,,,,,,,,,,,,124,001,2023_Oct_05_1244,SpeechDraft1Carolyn_lessNoise_locIncl_Mach2,2021.2.3,60.00420865319668,
,,,,,,,,center,0.0,6,ch1Sound_localizationTask.wav,0.0,"(952, 878)","(-8,-202)",0,-338,,,,,,,,,1,2,9,3,,,,,,,,,,,,,,,,,,,,,,,,,,,,,,,,,,,,,,,,,,,,158.5826997270342,None,159.68251709314063,None,160.6157560381107,None,1.4904761904761905,1.9997181398794055,160.6157560381107,None,,,,,,,,,,,,,,,,,124,001,2023_Oct_05_1244,SpeechDraft1Carolyn_lessNoise_locIncl_Mach2,2021.2.3,60.00420865319668,
,,,,,,,,midRight,13.0,3,ch1Sound_localizationTask.wav,13.0,"(1142, 878)","(182, -202)",190,-338,,,,,,,,,1,3,10,5,,,,,,,,,,,,,,,,,,,,,,,,,,,,,,,,,,,,,,,,,,,,162.61619066703133,None,163.71588168106973,None,164.64929498708807,None,1.7015873015873015,2.2165068620815873,164.64929498708807,None,,,,,,,,,,,,,,,,,124,001,2023_Oct_05_1244,SpeechDraft1Carolyn_lessNoise_locIncl_Mach2,2021.2.3,60.00420865319668,
,,,,,,,,nearRight,6.5,0,ch1Sound_localizationTask.wav,6.5,"(1047, 878)","(87, -202)",95,-338,,,,,,,,,1,4,11,4,,,,,,,,,,,,,,,,,,,,,,,,,,,,,,,,,,,,,,,,,,,,166.86617706995457,None,167.96597618516535,None,168.89948969497345,None,1.502116402116402,3.2492176338564605,168.89948969497345,None,,,,,,,,,,,,,,,,,124,001,2023_Oct_05_1244,SpeechDraft1Carolyn_lessNoise_locIncl_Mach2,2021.2.3,60.00420865319668,
,,,,,,,,farRight,19.1,4,ch1Sound_localizationTask.wav,19.1,"(1237, 878)","(277,-202)",285,-338,,,,,,,,,1,5,12,6,,,,,,,,,,,,,,,,,,,,,,,,,,,,,,,,,,,,,,,,,,,,172.14946000115015,None,173.2491036450956,None,174.18267817609012,None,1.8534391534391534,2.5848516758996993,174.18267817609012,None,,,,,,,,,,,,,,,,,124,001,2023_Oct_05_1244,SpeechDraft1Carolyn_lessNoise_locIncl_Mach2,2021.2.3,60.00420865319668,
,,,,,,,,center,0.0,6,ch1Sound_localizationTask.wav,0.0,"(952, 878)","(-8,-202)",0,-338,,,,,,,,,1,6,13,3,,,,,,,,,,,,,,,,,,,,,,,,,,,,,,,,,,,,,,,,,,,,176.7828020551242,None,177.88254598411731,None,178.81592299998738,None,1.3645502645502645,3.748909237794578,178.81592299998738,None,,,,,,,,,,,,,,,,,124,001,2023_Oct_05_1244,SpeechDraft1Carolyn_lessNoise_locIncl_Mach2,2021.2.3,60.00420865319668,
,,,,,,,,midLeft,-13.0,2,ch1Sound_localizationTask.wav,-13.0,"(762, 878)","(-198,-202)",-190,-338,,,,,,,,,2,0,14,1,,,,,,,,,,,,,,,,,,,,,,,,,,,,,,,,,,,,,,,,,,,,182.56614658399485,None,183.66577708208933,None,184.5992211450357,None,1.2544973544973546,1.5995021099224687,184.5992211450357,None,,,,,,,,,,,,,,,,,124,001,2023_Oct_05_1244,SpeechDraft1Carolyn_lessNoise_locIncl_Mach2,2021.2.3,60.00420865319668,
,,,,,,,,farRight,19.1,4,ch1Sound_localizationTask.wav,19.1,"(1237, 878)","(277,-202)",285,-338,,,,,,,,,2,1,15,6,,,,,,,,,,,,,,,,,,,,,,,,,,,,,,,,,,,,,,,,,,,,186.19953361805528,None,187.2991893789731,None,188.23261449416168,None,1.9052910052910053,2.01655141194351,188.23261449416168,None,,,,,,,,,,,,,,,,,124,001,2023_Oct_05_1244,SpeechDraft1Carolyn_lessNoise_locIncl_Mach2,2021.2.3,60.00420865319668,
,,,,,,,,midRight,13.0,3,ch1Sound_localizationTask.wav,13.0,"(1142, 878)","(182, -202)",190,-338,,,,,,,,,2,2,16,5,,,,,,,,,,,,,,,,,,,,,,,,,,,,,,,,,,,,,,,,,,,,190.25051519810222,None,191.3659389510285,None,192.28258620016277,None,1.737037037037037,2.4330948470160365,192.28258620016277,None,,,,,,,,,,,,,,,,,124,001,2023_Oct_05_1244,SpeechDraft1Carolyn_lessNoise_locIncl_Mach2,2021.2.3,60.00420865319668,
,,,,,,,,farLeft,-19.1,5,ch1Sound_localizationTask.wav,-19.1,"(667, 878)","(-293,-202)",-285,-338,,,,,,,,,2,3,17,0,,,,,,,,,,,,,,,,,,,,,,,,,,,,,,,,,,,,,,,,,,,,194.71622420009226,None,195.81596802105196,None,196.74929305096157,None,1.0222222222222221,1.8313523011747748,196.74929305096157,None,,,,,,,,,,,,,,,,,124,001,2023_Oct_05_1244,SpeechDraft1Carolyn_lessNoise_locIncl_Mach2,2021.2.3,60.00420865319668,
,,,,,,,,nearRight,6.5,0,ch1Sound_localizationTask.wav,6.5,"(1047, 878)","(87, -202)",95,-338,,,,,,,,,2,4,18,4,,,,,,,,,,,,,,,,,,,,,,,,,,,,,,,,,,,,,,,,,,,,198.58283499116078,None,199.68269471405074,None,200.61592152807862,None,1.5095238095238095,1.883046321105212,200.61592152807862,None,,,,,,,,,,,,,,,,,124,001,2023_Oct_05_1244,SpeechDraft1Carolyn_lessNoise_locIncl_Mach2,2021.2.3,60.00420865319668,
,,,,,,,,farRight,19.1,4,ch1Sound_localizationTask.wav,19.1,"(1237, 878)","(277,-202)",285,-338,,,,,,,,,2,5,19,6,,,,,,,,,,,,,,,,,,,,,,,,,,,,,,,,,,,,,,,,,,,,202.49952775007114,None,203.59942073910497,None,204.53268504608423,None,1.6825396825396826,3.6993580639827996,204.53268504608423,None,,,,,,,,,,,,,,,,,124,001,2023_Oct_05_1244,SpeechDraft1Carolyn_lessNoise_locIncl_Mach2,2021.2.3,60.00420865319668,
,,,,,,,,center,0.0,6,ch1Sound_localizationTask.wav,0.0,"(952, 878)","(-8,-202)",0,-338,,,,,,,,,2,6,20,3,,,,,,,,,,,,,,,,,,,,,,,,,,,,,,,,,,,,,,,,,,,,208.23367419000715,None,209.33263795101084,None,210.26599337207153,None,1.5010582010582012,5.48314936994575,210.26599337207153,None,,,,,,,,,,,,,,,,,124,001,2023_Oct_05_1244,SpeechDraft1Carolyn_lessNoise_locIncl_Mach2,2021.2.3,60.00420865319668,
,,,,,,,,farLeft,-19.1,5,ch1Sound_localizationTask.wav,-19.1,"(667, 878)","(-293,-202)",-285,-338,,,,,,,,,3,0,21,0,,,,,,,,,,,,,,,,,,,,,,,,,,,,,,,,,,,,,,,,,,,,215.74950319714844,None,216.84923890209757,None,217.78277721302584,None,1.0894179894179894,1.7991485961247236,217.78277721302584,None,,,,,,,,,,,,,,,,,124,001,2023_Oct_05_1244,SpeechDraft1Carolyn_lessNoise_locIncl_Mach2,2021.2.3,60.00420865319668,
,,,,,,,,midRight,13.0,3,ch1Sound_localizationTask.wav,13.0,"(1142, 878)","(182, -202)",190,-338,,,,,,,,,3,1,22,5,,,,,,,,,,,,,,,,,,,,,,,,,,,,,,,,,,,,,,,,,,,,219.58282676595263,None,220.68247268814594,None,221.61600353615358,None,1.5724867724867724,2.434157114941627,221.61600353615358,None,,,,,,,,,,,,,,,,,124,001,2023_Oct_05_1244,SpeechDraft1Carolyn_lessNoise_locIncl_Mach2,2021.2.3,60.00420865319668,
,,,,,,,,center,0.0,6,ch1Sound_localizationTask.wav,0.0,"(952, 878)","(-8,-202)",0,-338,,,,,,,,,3,2,23,3,,,,,,,,,,,,,,,,,,,,,,,,,,,,,,,,,,,,,,,,,,,,224.06630741199479,None,225.16615486308,None,226.09930736594833,None,1.474074074074074,2.5150344418361783,226.09930736594833,None,,,,,,,,,,,,,,,,,124,001,2023_Oct_05_1244,SpeechDraft1Carolyn_lessNoise_locIncl_Mach2,2021.2.3,60.00420865319668,
,,,,,,,,nearRight,6.5,0,ch1Sound_localizationTask.wav,6.5,"(1047, 878)","(87, -202)",95,-338,,,,,,,,,3,3,24,4,,,,,,,,,,,,,,,,,,,,,,,,,,,,,,,,,,,,,,,,,,,,228.616581404116,None,229.71592941996641,None,230.64944323594682,None,1.5338624338624338,3.6669359989464283,230.64944323594682,None,,,,,,,,,,,,,,,,,124,001,2023_Oct_05_1244,SpeechDraft1Carolyn_lessNoise_locIncl_Mach2,2021.2.3,60.00420865319668,
,,,,,,,,nearLeft,-6.5,1,ch1Sound_localizationTask.wav,-6.5,"(857, 878)","(-103,-202)",-95,-338,,,,,,,,,3,4,25,2,,,,,,,,,,,,,,,,,,,,,,,,,,,,,,,,,,,,,,,,,,,,234.3170337250922,None,235.41592653095722,None,236.3496499210596,None,1.4407407407407407,2.5164743799250573,236.3496499210596,None,,,,,,,,,,,,,,,,,124,001,2023_Oct_05_1244,SpeechDraft1Carolyn_lessNoise_locIncl_Mach2,2021.2.3,60.00420865319668,
,,,,,,,,nearRight,6.5,0,ch1Sound_localizationTask.wav,6.5,"(1047, 878)","(87, -202)",95,-338,,,,,,,,,3,5,26,4,,,,,,,,,,,,,,,,,,,,,,,,,,,,,,,,,,,,,,,,,,,,238.86655527213588,None,239.9659108859487,None,240.89939666702412,None,1.5047619047619047,2.1993772310670465,240.89939666702412,None,,,,,,,,,,,,,,,,,124,001,2023_Oct_05_1244,SpeechDraft1Carolyn_lessNoise_locIncl_Mach2,2021.2.3,60.00420865319668,
,,,,,,,,nearLeft,-6.5,1,ch1Sound_localizationTask.wav,-6.5,"(857, 878)","(-103,-202)",-95,-338,,,,,,,,,3,6,27,2,,,,,,,,,,,,,,,,,,,,,,,,,,,,,,,,,,,,,,,,,,,,243.09962816000916,None,244.1993697490543,None,245.13295113411732,None,1.452910052910053,2.9981858159881085,245.13295113411732,None,,,,,,,,,,,,,,,,,124,001,2023_Oct_05_1244,SpeechDraft1Carolyn_lessNoise_locIncl_Mach2,2021.2.3,60.00420865319668,
,,,,,,,,nearRight,6.5,0,ch1Sound_localizationTask.wav,6.5,"(1047, 878)","(87, -202)",95,-338,,,,,,,,,4,0,28,4,,,,,,,,,,,,,,,,,,,,,,,,,,,,,,,,,,,,,,,,,,,,248.13289456814528,None,249.2327025581617,None,250.166199027095,None,1.5063492063492063,2.7667303790804,250.166199027095,None,,,,,,,,,,,,,,,,,124,001,2023_Oct_05_1244,SpeechDraft1Carolyn_lessNoise_locIncl_Mach2,2021.2.3,60.00420865319668,
,,,,,,,,nearLeft,-6.5,1,ch1Sound_localizationTask.wav,-6.5,"(857, 878)","(-103,-202)",-95,-338,,,,,,,,,4,1,29,2,,,,,,,,,,,,,,,,,,,,,,,,,,,,,,,,,,,,,,,,,,,,252.9331000931561,None,254.03270913800225,None,254.9660377590917,None,1.3375661375661376,4.266250415937975,254.9660377590917,None,,,,,,,,,,,,,,,,,124,001,2023_Oct_05_1244,SpeechDraft1Carolyn_lessNoise_locIncl_Mach2,2021.2.3,60.00420865319668,
,,,,,,,,midLeft,-13.0,2,ch1Sound_localizationTask.wav,-13.0,"(762, 878)","(-198,-202)",-190,-338,,,,,,,,,4,2,30,1,,,,,,,,,,,,,,,,,,,,,,,,,,,,,,,,,,,,,,,,,,,,259.23294494114816,None,260.3327338369563,None,261.265961113153,None,1.0835978835978834,5.366164918988943,261.265961113153,None,,,,,,,,,,,,,,,,,124,001,2023_Oct_05_1244,SpeechDraft1Carolyn_lessNoise_locIncl_Mach2,2021.2.3,60.00420865319668,
,,,,,,,,farLeft,-19.1,5,ch1Sound_localizationTask.wav,-19.1,"(667, 878)","(-293,-202)",-285,-338,,,,,,,,,4,3,31,0,,,,,,,,,,,,,,,,,,,,,,,,,,,,,,,,,,,,,,,,,,,,266.6328440280631,None,267.7326464820653,None,268.6661983320955,None,1.0153439153439154,1.1825201557949185,268.6661983320955,None,,,,,,,,,,,,,,,,,124,001,2023_Oct_05_1244,SpeechDraft1Carolyn_lessNoise_locIncl_Mach2,2021.2.3,60.00420865319668,
,,,,,,,,farLeft,-19.1,5,ch1Sound_localizationTask.wav,-19.1,"(667, 878)","(-293,-202)",-285,-338,,,,,,,,,4,4,32,0,,,,,,,,,,,,,,,,,,,,,,,,,,,,,,,,,,,,,,,,,,,,269.84969883202575,None,270.94936328800395,None,271.88309211214073,None,1.0375661375661376,1.2954636488575488,271.88309211214073,None,,,,,,,,,,,,,,,,,124,001,2023_Oct_05_1244,SpeechDraft1Carolyn_lessNoise_locIncl_Mach2,2021.2.3,60.00420865319668,
,,,,,,,,midLeft,-13.0,2,ch1Sound_localizationTask.wav,-13.0,"(762, 878)","(-198,-202)",-190,-338,,,,,,,,,4,5,33,1,,,,,,,,,,,,,,,,,,,,,,,,,,,,,,,,,,,,,,,,,,,,273.1828908501193,None,274.2825779421255,None,275.2160097451415,None,1.1502645502645503,1.550448443973437,275.2160097451415,None,,,,,,,,,,,,,,,,,124,001,2023_Oct_05_1244,SpeechDraft1Carolyn_lessNoise_locIncl_Mach2,2021.2.3,60.00420865319668,
,,,,,,,,midRight,13.0,3,ch1Sound_localizationTask.wav,13.0,"(1142, 878)","(182, -202)",190,-338,,,,,,,,,4,6,34,5,,,,,,,,,,,,,,,,,,,,,,,,,,,,,,,,,,,,,,,,,,,,276.76650191796944,None,277.86603333614767,None,278.7994236119557,None,1.5656084656084657,2.4327990170568228,278.7994236119557,None,,,,,,,,,,,,,,,,,124,001,2023_Oct_05_1244,SpeechDraft1Carolyn_lessNoise_locIncl_Mach2,2021.2.3,60.00420865319668,
,,,,,,,,midRight,13.0,3,ch1Sound_localizationTask.wav,13.0,"(1142, 878)","(182, -202)",190,-338,,,,,,,,,5,0,35,5,,,,,,,,,,,,,,,,,,,,,,,,,,,,,,,,,,,,,,,,,,,,281.233088334091,None,282.33265227195807,None,283.26609676308,None,1.6275132275132276,3.5326194560620934,283.26609676308,None,,,,,,,,,,,,,,,,,124,001,2023_Oct_05_1244,SpeechDraft1Carolyn_lessNoise_locIncl_Mach2,2021.2.3,60.00420865319668,
,,,,,,,,farRight,19.1,4,ch1Sound_localizationTask.wav,19.1,"(1237, 878)","(277,-202)",285,-338,,,,,,,,,5,1,36,6,,,,,,,,,,,,,,,,,,,,,,,,,,,,,,,,,,,,,,,,,,,,286.7995546530001,None,287.89930949616246,None,288.8327918590512,None,1.9375661375661375,3.0832982778083533,288.8327918590512,None,,,,,,,,,,,,,,,,,124,001,2023_Oct_05_1244,SpeechDraft1Carolyn_lessNoise_locIncl_Mach2,2021.2.3,60.00420865319668,
,,,,,,,,farLeft,-19.1,5,ch1Sound_localizationTask.wav,-19.1,"(667, 878)","(-293,-202)",-285,-338,,,,,,,,,5,2,37,0,,,,,,,,,,,,,,,,,,,,,,,,,,,,,,,,,,,,,,,,,,,,291.91623586812057,None,293.01604232611135,None,293.94941994408146,None,1.041798941798942,2.900092978030443,293.94941994408146,None,,,,,,,,,,,,,,,,,124,001,2023_Oct_05_1244,SpeechDraft1Carolyn_lessNoise_locIncl_Mach2,2021.2.3,60.00420865319668,
,,,,,,,,center,0.0,6,ch1Sound_localizationTask.wav,0.0,"(952, 878)","(-8,-202)",0,-338,,,,,,,,,5,3,38,3,,,,,,,,,,,,,,,,,,,,,,,,,,,,,,,,,,,,,,,,,,,,296.8497046281118,None,297.9494697761256,None,298.88270813110285,None,1.5031746031746032,3.0192545659374446,298.88270813110285,None,,,,,,,,,,,,,,,,,124,001,2023_Oct_05_1244,SpeechDraft1Carolyn_lessNoise_locIncl_Mach2,2021.2.3,60.00420865319668,
,,,,,,,,center,0.0,6,ch1Sound_localizationTask.wav,0.0,"(952, 878)","(-8,-202)",0,-338,,,,,,,,,5,4,39,3,,,,,,,,,,,,,,,,,,,,,,,,,,,,,,,,,,,,,,,,,,,,301.93267454206944,None,303.0328100309707,None,303.94933589803986,None,1.4761904761904763,3.9839363729115576,303.94933589803986,None,,,,,,,,,,,,,,,,,124,001,2023_Oct_05_1244,SpeechDraft1Carolyn_lessNoise_locIncl_Mach2,2021.2.3,60.00420865319668,
,,,,,,,,nearLeft,-6.5,1,ch1Sound_localizationTask.wav,-6.5,"(857, 878)","(-103,-202)",-95,-338,,,,,,,,,5,5,40,2,,,,,,,,,,,,,,,,,,,,,,,,,,,,,,,,,,,,,,,,,,,,307.9496060900856,None,309.04952298500575,None,309.98272282700054,None,1.391005291005291,2.882843601051718,309.98272282700054,None,,,,,,,,,,,,,,,,,124,001,2023_Oct_05_1244,SpeechDraft1Carolyn_lessNoise_locIncl_Mach2,2021.2.3,60.00420865319668,
,,,,,,,,midRight,13.0,3,ch1Sound_localizationTask.wav,13.0,"(1142, 878)","(182, -202)",190,-338,,,,,,,,,5,6,41,5,,,,,,,,,,,,,,,,,,,,,,,,,,,,,,,,,,,,,,,,,,,,312.86638429993764,None,313.9660504939966,None,314.89944522315636,None,1.6195767195767194,4.099249367136508,314.89944522315636,None,,,,,,,,,,,,,,,,,124,001,2023_Oct_05_1244,SpeechDraft1Carolyn_lessNoise_locIncl_Mach2,2021.2.3,60.00420865319668,
,,,,,,,,nearRight,6.5,0,ch1Sound_localizationTask.wav,6.5,"(1047, 878)","(87, -202)",95,-338,,,,,,,,,6,0,42,4,,,,,,,,,,,,,,,,,,,,,,,,,,,,,,,,,,,,,,,,,,,,318.9998357410077,None,320.09935890394263,None,321.03272602614015,None,1.507936507936508,3.7669934851583093,321.03272602614015,None,,,,,,,,,,,,,,,,,124,001,2023_Oct_05_1244,SpeechDraft1Carolyn_lessNoise_locIncl_Mach2,2021.2.3,60.00420865319668,
,,,,,,,,farRight,19.1,4,ch1Sound_localizationTask.wav,19.1,"(1237, 878)","(277,-202)",285,-338,,,,,,,,,6,1,43,6,,,,,,,,,,,,,,,,,,,,,,,,,,,,,,,,,,,,,,,,,,,,324.79973986395635,None,325.8994629981462,None,326.83272121916525,None,1.848148148148148,1.383096001110971,326.83272121916525,None,,,,,,,,,,,,,,,,,124,001,2023_Oct_05_1244,SpeechDraft1Carolyn_lessNoise_locIncl_Mach2,2021.2.3,60.00420865319668,
,,,,,,,,center,0.0,6,ch1Sound_localizationTask.wav,0.0,"(952, 878)","(-8,-202)",0,-338,,,,,,,,,6,2,44,3,,,,,,,,,,,,,,,,,,,,,,,,,,,,,,,,,,,,,,,,,,,,328.2164300910663,None,329.3161725460086,None,330.2495835251175,None,1.5005291005291004,0.9325148311909288,330.2495835251175,None,,,,,,,,,,,,,,,,,124,001,2023_Oct_05_1244,SpeechDraft1Carolyn_lessNoise_locIncl_Mach2,2021.2.3,60.00420865319668,
,,,,,,,,nearLeft,-6.5,1,ch1Sound_localizationTask.wav,-6.5,"(857, 878)","(-103,-202)",-95,-338,,,,,,,,,6,3,45,2,,,,,,,,,,,,,,,,,,,,,,,,,,,,,,,,,,,,,,,,,,,,331.1830382591579,None,332.2827044429723,None,333.2161811559927,None,1.3386243386243386,0.9659158859867603,333.2161811559927,None,,,,,,,,,,,,,,,,,124,001,2023_Oct_05_1244,SpeechDraft1Carolyn_lessNoise_locIncl_Mach2,2021.2.3,60.00420865319668,
,,,,,,,,farLeft,-19.1,5,ch1Sound_localizationTask.wav,-19.1,"(667, 878)","(-293,-202)",-285,-338,,,,,,,,,6,4,46,0,,,,,,,,,,,,,,,,,,,,,,,,,,,,,,,,,,,,,,,,,,,,334.1830417220481,None,335.2827998229768,None,336.2160833941307,None,1.1312169312169313,1.3001859341748059,336.2160833941307,None,,,,,,,,,,,,,,,,,124,001,2023_Oct_05_1244,SpeechDraft1Carolyn_lessNoise_locIncl_Mach2,2021.2.3,60.00420865319668,
,,,,,,,,nearLeft,-6.5,1,ch1Sound_localizationTask.wav,-6.5,"(857, 878)","(-103,-202)",-95,-338,,,,,,,,,6,5,47,2,,,,,,,,,,,,,,,,,,,,,,,,,,,,,,,,,,,,,,,,,,,,337.5163399260491,None,338.61607937910594,None,339.549420602154,None,1.3767195767195768,0.865094430046156,339.549420602154,None,,,,,,,,,,,,,,,,,124,001,2023_Oct_05_1244,SpeechDraft1Carolyn_lessNoise_locIncl_Mach2,2021.2.3,60.00420865319668,
,,,,,,,,farRight,19.1,4,ch1Sound_localizationTask.wav,19.1,"(1237, 878)","(277,-202)",285,-338,,,,,,,,,6,6,48,6,,,,,,,,,,,,,,,,,,,,,,,,,,,,,,,,,,,,,,,,,,,,340.4163909959607,None,341.51602615602314,None,342.4494865271263,None,1.7566137566137567,1.2662925571203232,342.4494865271263,None,,,,,,,,,,,,,,,,,124,001,2023_Oct_05_1244,SpeechDraft1Carolyn_lessNoise_locIncl_Mach2,2021.2.3,60.00420865319668,
,,,,,,,,farLeft,-19.1,5,ch1Sound_localizationTask.wav,-19.1,"(667, 878)","(-293,-202)",-285,-338,,,,,,,,,7,0,49,0,,,,,,,,,,,,,,,,,,,,,,,,,,,,,,,,,,,,,,,,,,,,343.71650451398455,None,344.81605312996544,None,345.74954692902975,None,1.0132275132275133,1.1833363121841103,345.74954692902975,None,,,,,,,,,,,,,,,,,124,001,2023_Oct_05_1244,SpeechDraft1Carolyn_lessNoise_locIncl_Mach2,2021.2.3,60.00420865319668,
,,,,,,,,midLeft,-13.0,2,ch1Sound_localizationTask.wav,-13.0,"(762, 878)","(-198,-202)",-190,-338,,,,,,,,,7,1,50,1,,,,,,,,,,,,,,,,,,,,,,,,,,,,,,,,,,,,,,,,,,,,346.9332149201073,None,348.03279017913155,None,348.96609654813074,None,1.1121693121693121,2.050076304934919,348.96609654813074,None,,,,,,,,,,,,,,,,,124,001,2023_Oct_05_1244,SpeechDraft1Carolyn_lessNoise_locIncl_Mach2,2021.2.3,60.00420865319668,
,,,,,,,,midLeft,-13.0,2,ch1Sound_localizationTask.wav,-13.0,"(762, 878)","(-198,-202)",-190,-338,,,,,,,,,7,2,51,1,,,,,,,,,,,,,,,,,,,,,,,,,,,,,,,,,,,,,,,,,,,,351.0167350540869,None,352.1161538059823,None,353.0494299780112,None,1.1497354497354497,0.7847437199670821,353.0494299780112,None,,,,,,,,,,,,,,,,,124,001,2023_Oct_05_1244,SpeechDraft1Carolyn_lessNoise_locIncl_Mach2,2021.2.3,60.00420865319668,
,,,,,,,,midLeft,-13.0,2,ch1Sound_localizationTask.wav,-13.0,"(762, 878)","(-198,-202)",-190,-338,,,,,,,,,7,3,52,1,,,,,,,,,,,,,,,,,,,,,,,,,,,,,,,,,,,,,,,,,,,,353.8498958090786,None,354.9494389910251,None,355.8828313909471,None,1.165079365079365,0.7340772410389036,355.8828313909471,None,,,,,,,,,,,,,,,,,124,001,2023_Oct_05_1244,SpeechDraft1Carolyn_lessNoise_locIncl_Mach2,2021.2.3,60.00420865319668,
,,,,,,,,midLeft,-13.0,2,ch1Sound_localizationTask.wav,-13.0,"(762, 878)","(-198,-202)",-190,-338,,,,,,,,,7,4,53,1,,,,,,,,,,,,,,,,,,,,,,,,,,,,,,,,,,,,,,,,,,,,356.6164654539898,None,357.71616759104654,None,358.6493893300649,None,1.1656084656084658,1.5834640627726912,358.6493893300649,None,,,,,,,,,,,,,,,,,124,001,2023_Oct_05_1244,SpeechDraft1Carolyn_lessNoise_locIncl_Mach2,2021.2.3,60.00420865319668,
,,,,,,,,farRight,19.1,4,ch1Sound_localizationTask.wav,19.1,"(1237, 878)","(277,-202)",285,-338,,,,,,,,,7,5,54,6,,,,,,,,,,,,,,,,,,,,,,,,,,,,,,,,,,,,,,,,,,,,360.2331358650699,None,361.3328639890533,None,362.2661440309603,None,1.7777777777777777,1.6817931300029159,362.2661440309603,None,,,,,,,,,,,,,,,,,124,001,2023_Oct_05_1244,SpeechDraft1Carolyn_lessNoise_locIncl_Mach2,2021.2.3,60.00420865319668,
,,,,,,,,nearRight,6.5,0,ch1Sound_localizationTask.wav,6.5,"(1047, 878)","(87, -202)",95,-338,,,,,,,,,7,6,55,4,,,,,,,,,,,,,,,,,,,,,,,,,,,,,,,,,,,,,,,,,,,,363.94973493297584,None,365.0494490209967,None,365.98283736105077,None,1.5227513227513227,0.8825342392083257,365.98283736105077,None,,,,,,,,,,,,,,,,,124,001,2023_Oct_05_1244,SpeechDraft1Carolyn_lessNoise_locIncl_Mach2,2021.2.3,60.00420865319668,
,,,,,,,,,,,,,,,,,,,,,,,,,,,,,,,,,,,,,,,,,,,,,,,,,,,,,,,,,,,,,,,,,,,,,,,,,,,,,,,,,,space,25.377974834060296,366.9497706061229,None,,,,,,,,,,,,,124,001,2023_Oct_05_1244,SpeechDraft1Carolyn_lessNoise_locIncl_Mach2,2021.2.3,60.00420865319668,
,,,,,,,,center,0.0,6,ch1Sound_localizationTask.wav,0.0,"(952, 878)","(-8,-202)",0,-338,,,,,,,,,,,,,0,0,0,3,,,,,,,,,,,,,,,,,,,,,,,,,,,,,,,,,,,,,,,,392.36611195094883,None,,,395.3828649651259,None,1.4978835978835978,1.1596132209524512,395.3828649651259,None,,,,,366.9497706061229,None,393.366374185076,None,393.5497692460194,393.5665041159373,,,,,,,124,001,2023_Oct_05_1244,SpeechDraft1Carolyn_lessNoise_locIncl_Mach2,2021.2.3,60.00420865319668,
,,,,,,,,farLeft,-19.1,5,ch1Sound_localizationTask.wav,-19.1,"(667, 878)","(-293,-202)",-285,-338,,,,,,,,,,,,,0,1,1,0,,,,,,,,,,,,,,,,,,,,,,,,,,,,,,,,,,,,,,,,396.549755665008,None,,,399.5660831751302,None,1.337037037037037,1.1816437810193747,399.5660831751302,None,,,,,,,397.54972673999146,None,397.7331539511215,397.74985414301045,,,,,,,124,001,2023_Oct_05_1244,SpeechDraft1Carolyn_lessNoise_locIncl_Mach2,2021.2.3,60.00420865319668,
,,,,,,,,farLeft,-19.1,5,ch1Sound_localizationTask.wav,-19.1,"(667, 878)","(-293,-202)",-285,-338,,,,,,,,,,,,,0,2,2,0,,,,,,,,,,,,,,,,,,,,,,,,,,,,,,,,,,,,,,,,400.74997603916563,None,,,403.7662433721125,None,1.3502645502645503,1.0661496750544757,403.7662433721125,None,,,,,,,401.74982463615015,None,401.933150815079,401.9497636279557,,,,,,,124,001,2023_Oct_05_1244,SpeechDraft1Carolyn_lessNoise_locIncl_Mach2,2021.2.3,60.00420865319668,
,,,,,,,,midLeft,-13.0,2,ch1Sound_localizationTask.wav,-13.0,"(762, 878)","(-198,-202)",-190,-338,,,,,,,,,,,,,0,3,3,1,,,,,,,,,,,,,,,,,,,,,,,,,,,,,,,,,,,,,,,,404.8331542480737,None,,,407.8495413160417,None,1.4222222222222223,1.0163264409638941,407.8495413160417,None,,,,,,,405.83324704295956,None,406.01648431201465,406.03314914996736,,,,,,,124,001,2023_Oct_05_1244,SpeechDraft1Carolyn_lessNoise_locIncl_Mach2,2021.2.3,60.00420865319668,
,,,,,,,,nearRight,6.5,0,ch1Sound_localizationTask.wav,6.5,"(1047, 878)","(87, -202)",95,-338,,,,,,,,,,,,,0,4,4,4,,,,,,,,,,,,,,,,,,,,,,,,,,,,,,,,,,,,,,,,408.8667262659874,None,,,411.8829012240749,None,1.5582010582010581,0.9330631890334189,411.8829012240749,None,,,,,,,409.8665063790977,None,410.04973146598786,410.0665400780272,,,,,,,124,001,2023_Oct_05_1244,SpeechDraft1Carolyn_lessNoise_locIncl_Mach2,2021.2.3,60.00420865319668,
,,,,,,,,midRight,13.0,3,ch1Sound_localizationTask.wav,13.0,"(1142, 878)","(182, -202)",190,-338,,,,,,,,,,,,,0,5,5,5,,,,,,,,,,,,,,,,,,,,,,,,,,,,,,,,,,,,,,,,412.81652642809786,None,,,415.83295401604846,None,1.6042328042328042,0.6335312449373305,415.83295401604846,None,,,,,,,413.81644629710354,None,413.99982745712623,414.01636643195525,,,,,,,124,001,2023_Oct_05_1244,SpeechDraft1Carolyn_lessNoise_locIncl_Mach2,2021.2.3,60.00420865319668,
,,,,,,,,nearLeft,-6.5,1,ch1Sound_localizationTask.wav,-6.5,"(857, 878)","(-103,-202)",-95,-338,,,,,,,,,,,,,0,6,6,2,,,,,,,,,,,,,,,,,,,,,,,,,,,,,,,,,,,,,,,,416.46701330598444,None,,,419.4829376931302,None,1.4497354497354498,0.5827463730238378,419.4829376931302,None,,,,,,,417.46648360416293,None,417.65004659304395,417.6664257131051,,,,,,,124,001,2023_Oct_05_1244,SpeechDraft1Carolyn_lessNoise_locIncl_Mach2,2021.2.3,60.00420865319668,
,,,,,,,,farRight,19.1,4,ch1Sound_localizationTask.wav,19.1,"(1237, 878)","(277,-202)",285,-338,,,,,,,,,,,,,1,0,7,6,,,,,,,,,,,,,,,,,,,,,,,,,,,,,,,,,,,,,,,,420.0665447060019,None,,,423.082949686097,None,1.6597883597883598,0.8167392029426992,423.082949686097,None,,,,,,,421.06650316598825,None,421.2498900850769,421.26653278502636,,,,,,,124,001,2023_Oct_05_1244,SpeechDraft1Carolyn_lessNoise_locIncl_Mach2,2021.2.3,60.00420865319668,
,,,,,,,,center,0.0,6,ch1Sound_localizationTask.wav,0.0,"(952, 878)","(-8,-202)",0,-338,,,,,,,,,,,,,1,1,8,3,,,,,,,,,,,,,,,,,,,,,,,,,,,,,,,,,,,,,,,,423.89992881496437,None,,,426.91616752697155,None,1.4962962962962962,1.0324151529930532,426.91616752697155,None,,,,,,,424.89989447710104,None,425.083361343015,425.099919723114,,,,,,,124,001,2023_Oct_05_1244,SpeechDraft1Carolyn_lessNoise_locIncl_Mach2,2021.2.3,60.00420865319668,
,,,,,,,,farLeft,-19.1,5,ch1Sound_localizationTask.wav,-19.1,"(667, 878)","(-293,-202)",-285,-338,,,,,,,,,,,,,1,2,9,0,,,,,,,,,,,,,,,,,,,,,,,,,,,,,,,,,,,,,,,,427.94991392898373,None,,,430.96648614504375,None,1.4,0.33283562306314707,430.96648614504375,None,,,,,,,428.9498439440504,None,429.1332280060742,429.1501597100869,,,,,,,124,001,2023_Oct_05_1244,SpeechDraft1Carolyn_lessNoise_locIncl_Mach2,2021.2.3,60.00420865319668,
,,,,,,,,midLeft,-13.0,2,ch1Sound_localizationTask.wav,-13.0,"(762, 878)","(-198,-202)",-190,-338,,,,,,,,,,,,,1,3,10,1,,,,,,,,,,,,,,,,,,,,,,,,,,,,,,,,,,,,,,,,431.29981034900993,None,,,434.31637090910226,None,1.41005291005291,1.0495962081477046,434.31637090910226,None,,,,,,,432.2998729259707,None,432.4833737059962,432.49987553898245,,,,,,,124,001,2023_Oct_05_1244,SpeechDraft1Carolyn_lessNoise_locIncl_Mach2,2021.2.3,60.00420865319668,
,,,,,,,,nearRight,6.5,0,ch1Sound_localizationTask.wav,6.5,"(1047, 878)","(87, -202)",95,-338,,,,,,,,,,,,,1,4,11,4,,,,,,,,,,,,,,,,,,,,,,,,,,,,,,,,,,,,,,,,435.36652220296673,None,,,438.3828435000032,None,1.5566137566137566,0.8497220680583268,438.3828435000032,None,,,,,,,436.366517174989,None,436.5497727300972,436.56654606596567,,,,,,,124,001,2023_Oct_05_1244,SpeechDraft1Carolyn_lessNoise_locIncl_Mach2,2021.2.3,60.00420865319668,
,,,,,,,,midRight,13.0,3,ch1Sound_localizationTask.wav,13.0,"(1142, 878)","(182, -202)",190,-338,,,,,,,,,,,,,1,5,12,5,,,,,,,,,,,,,,,,,,,,,,,,,,,,,,,,,,,,,,,,439.2331660010386,None,,,442.24956436804496,None,1.5936507936507938,0.766063435934484,442.24956436804496,None,,,,,,,440.2331975540146,None,440.4164723190479,440.4332096739672,,,,,,,124,001,2023_Oct_05_1244,SpeechDraft1Carolyn_lessNoise_locIncl_Mach2,2021.2.3,60.00420865319668,
,,,,,,,,center,0.0,6,ch1Sound_localizationTask.wav,0.0,"(952, 878)","(-8,-202)",0,-338,,,,,,,,,,,,,1,6,13,3,,,,,,,,,,,,,,,,,,,,,,,,,,,,,,,,,,,,,,,,443.0167171701323,None,,,446.03306579915807,None,1.498941798941799,1.0162368339952081,446.03306579915807,None,,,,,,,444.01648497302085,None,444.19987557898276,444.21648806799203,,,,,,,124,001,2023_Oct_05_1244,SpeechDraft1Carolyn_lessNoise_locIncl_Mach2,2021.2.3,60.00420865319668,
,,,,,,,,midLeft,-13.0,2,ch1Sound_localizationTask.wav,-13.0,"(762, 878)","(-198,-202)",-190,-338,,,,,,,,,,,,,2,0,14,1,,,,,,,,,,,,,,,,,,,,,,,,,,,,,,,,,,,,,,,,447.0498450261075,None,,,450.0662815980613,None,1.4079365079365078,1.7866245438344777,450.0662815980613,None,,,,,,,448.0498662891332,None,448.2332019750029,448.2498485541437,,,,,,,124,001,2023_Oct_05_1244,SpeechDraft1Carolyn_lessNoise_locIncl_Mach2,2021.2.3,60.00420865319668,
,,,,,,,,midRight,13.0,3,ch1Sound_localizationTask.wav,13.0,"(1142, 878)","(182, -202)",190,-338,,,,,,,,,,,,,2,1,15,5,,,,,,,,,,,,,,,,,,,,,,,,,,,,,,,,,,,,,,,,451.86777733801864,None,,,454.89966492098756,None,1.596825396825397,0.4656688298564404,454.89966492098756,None,,,,,,,452.88329966994934,None,453.0665465600323,453.08329636300914,,,,,,,124,001,2023_Oct_05_1244,SpeechDraft1Carolyn_lessNoise_locIncl_Mach2,2021.2.3,60.00420865319668,
,,,,,,,,midLeft,-13.0,2,ch1Sound_localizationTask.wav,-13.0,"(762, 878)","(-198,-202)",-190,-338,,,,,,,,,,,,,2,2,16,1,,,,,,,,,,,,,,,,,,,,,,,,,,,,,,,,,,,,,,,,455.3665881080087,None,,,458.382937095128,None,1.3925925925925926,1.0827184522058815,458.382937095128,None,,,,,,,456.3666062061675,None,456.5498851391021,456.5665077881422,,,,,,,124,001,2023_Oct_05_1244,SpeechDraft1Carolyn_lessNoise_locIncl_Mach2,2021.2.3,60.00420865319668,
,,,,,,,,nearLeft,-6.5,1,ch1Sound_localizationTask.wav,-6.5,"(857, 878)","(-103,-202)",-95,-338,,,,,,,,,,,,,2,3,17,2,,,,,,,,,,,,,,,,,,,,,,,,,,,,,,,,,,,,,,,,459.4665880401153,None,,,462.4828311209567,None,1.4645502645502646,1.0830120609607548,462.4828311209567,None,,,,,,,460.4665033270139,None,460.65004589408636,460.66650710301474,,,,,,,124,001,2023_Oct_05_1244,SpeechDraft1Carolyn_lessNoise_locIncl_Mach2,2021.2.3,60.00420865319668,
,,,,,,,,nearRight,6.5,0,ch1Sound_localizationTask.wav,6.5,"(1047, 878)","(87, -202)",95,-338,,,,,,,,,,,,,2,4,18,4,,,,,,,,,,,,,,,,,,,,,,,,,,,,,,,,,,,,,,,,463.56652432493865,None,,,466.58290212601423,None,1.5523809523809524,0.7987664130050689,466.58290212601423,None,,,,,,,464.5665409390349,None,464.7498773050029,464.76658126711845,,,,,,,124,001,2023_Oct_05_1244,SpeechDraft1Carolyn_lessNoise_locIncl_Mach2,2021.2.3,60.00420865319668,
,,,,,,,,midRight,13.0,3,ch1Sound_localizationTask.wav,13.0,"(1142, 878)","(182, -202)",190,-338,,,,,,,,,,,,,2,5,19,5,,,,,,,,,,,,,,,,,,,,,,,,,,,,,,,,,,,,,,,,467.3832856391091,None,,,470.39959433302283,None,1.6005291005291005,0.4990905469749123,470.39959433302283,None,,,,,,,468.383217100054,None,468.56662902003154,468.5832061660476,,,,,,,124,001,2023_Oct_05_1244,SpeechDraft1Carolyn_lessNoise_locIncl_Mach2,2021.2.3,60.00420865319668,
,,,,,,,,farLeft,-19.1,5,ch1Sound_localizationTask.wav,-19.1,"(667, 878)","(-293,-202)",-285,-338,,,,,,,,,,,,,2,6,20,0,,,,,,,,,,,,,,,,,,,,,,,,,,,,,,,,,,,,,,,,470.8999689850025,None,,,473.9162994159851,None,1.3275132275132275,1.399715849896893,473.9162994159851,None,,,,,,,471.899999035988,None,472.0832598840352,472.09987800195813,,,,,,,124,001,2023_Oct_05_1244,SpeechDraft1Carolyn_lessNoise_locIncl_Mach2,2021.2.3,60.00420865319668,
,,,,,,,,center,0.0,6,ch1Sound_localizationTask.wav,0.0,"(952, 878)","(-8,-202)",0,-338,,,,,,,,,,,,,3,0,21,3,,,,,,,,,,,,,,,,,,,,,,,,,,,,,,,,,,,,,,,,475.3165969690308,None,,,478.33310985402204,None,1.5037037037037035,0.6492072481196374,478.33310985402204,None,,,,,,,476.31658725999296,None,476.4998843171634,476.5167215401307,,,,,,,124,001,2023_Oct_05_1244,SpeechDraft1Carolyn_lessNoise_locIncl_Mach2,2021.2.3,60.00420865319668,
,,,,,,,,nearRight,6.5,0,ch1Sound_localizationTask.wav,6.5,"(1047, 878)","(87, -202)",95,-338,,,,,,,,,,,,,3,1,22,4,,,,,,,,,,,,,,,,,,,,,,,,,,,,,,,,,,,,,,,,478.9832397820428,None,,,481.99970974912867,None,1.553968253968254,1.2665912020020187,481.99970974912867,None,,,,,,,479.98322015604936,None,480.16659176000394,480.183209676994,,,,,,,124,001,2023_Oct_05_1244,SpeechDraft1Carolyn_lessNoise_locIncl_Mach2,2021.2.3,60.00420865319668,
,,,,,,,,farRight,19.1,4,ch1Sound_localizationTask.wav,19.1,"(1237, 878)","(277,-202)",285,-338,,,,,,,,,,,,,3,2,23,6,,,,,,,,,,,,,,,,,,,,,,,,,,,,,,,,,,,,,,,,483.266894859029,None,,,486.2829655499663,None,1.6513227513227513,1.0323319430463016,486.2829655499663,None,,,,,,,484.26659160805866,None,484.45000719605014,484.4665597800631,,,,,,,124,001,2023_Oct_05_1244,SpeechDraft1Carolyn_lessNoise_locIncl_Mach2,2021.2.3,60.00420865319668,
,,,,,,,,farLeft,-19.1,5,ch1Sound_localizationTask.wav,-19.1,"(667, 878)","(-293,-202)",-285,-338,,,,,,,,,,,,,3,3,24,0,,,,,,,,,,,,,,,,,,,,,,,,,,,,,,,,,,,,,,,,487.3165787111502,None,,,490.33304445212707,None,1.3142857142857143,1.082675342913717,490.33304445212707,None,,,,,,,488.31655414705165,None,488.4998961871024,488.51656153798103,,,,,,,124,001,2023_Oct_05_1244,SpeechDraft1Carolyn_lessNoise_locIncl_Mach2,2021.2.3,60.00420865319668,
,,,,,,,,farLeft,-19.1,5,ch1Sound_localizationTask.wav,-19.1,"(667, 878)","(-293,-202)",-285,-338,,,,,,,,,,,,,3,4,25,0,,,,,,,,,,,,,,,,,,,,,,,,,,,,,,,,,,,,,,,,491.416625716025,None,,,494.4330346379429,None,1.3455026455026455,0.8001042620744556,494.4330346379429,None,,,,,,,492.4168188869953,None,492.59989377111197,492.61667344905436,,,,,,,124,001,2023_Oct_05_1244,SpeechDraft1Carolyn_lessNoise_locIncl_Mach2,2021.2.3,60.00420865319668,
,,,,,,,,midRight,13.0,3,ch1Sound_localizationTask.wav,13.0,"(1142, 878)","(182, -202)",190,-338,,,,,,,,,,,,,3,5,26,5,,,,,,,,,,,,,,,,,,,,,,,,,,,,,,,,,,,,,,,,495.2333472741302,None,,,498.24958809511736,None,1.6132275132275131,1.249708400806412,498.24958809511736,None,,,,,,,496.2332263770513,None,496.4166073279921,496.43333307513967,,,,,,,124,001,2023_Oct_05_1244,SpeechDraft1Carolyn_lessNoise_locIncl_Mach2,2021.2.3,60.00420865319668,
,,,,,,,,nearRight,6.5,0,ch1Sound_localizationTask.wav,6.5,"(1047, 878)","(87, -202)",95,-338,,,,,,,,,,,,,3,6,27,4,,,,,,,,,,,,,,,,,,,,,,,,,,,,,,,,,,,,,,,,499.4999552471563,None,,,502.5163563711103,None,1.5354497354497354,0.6662268999498338,502.5163563711103,None,,,,,,,500.49995856010355,None,500.6833742810413,500.7000200850889,,,,,,,124,001,2023_Oct_05_1244,SpeechDraft1Carolyn_lessNoise_locIncl_Mach2,2021.2.3,60.00420865319668,
,,,,,,,,center,0.0,6,ch1Sound_localizationTask.wav,0.0,"(952, 878)","(-8,-202)",0,-338,,,,,,,,,,,,,4,0,28,3,,,,,,,,,,,,,,,,,,,,,,,,,,,,,,,,,,,,,,,,503.18330666515976,None,,,506.19970774813555,None,1.4957671957671956,1.0831325680483133,506.19970774813555,None,,,,,,,504.1832547010854,None,504.366546564037,504.3832929839846,,,,,,,124,001,2023_Oct_05_1244,SpeechDraft1Carolyn_lessNoise_locIncl_Mach2,2021.2.3,60.00420865319668,
,,,,,,,,midRight,13.0,3,ch1Sound_localizationTask.wav,13.0,"(1142, 878)","(182, -202)",190,-338,,,,,,,,,,,,,4,1,29,5,,,,,,,,,,,,,,,,,,,,,,,,,,,,,,,,,,,,,,,,507.2834380881395,None,,,510.29970277193934,None,1.6037037037037036,0.5834738670382649,510.29970277193934,None,,,,,,,508.28320981096476,None,508.4666066940408,508.48317480413243,,,,,,,124,001,2023_Oct_05_1244,SpeechDraft1Carolyn_lessNoise_locIncl_Mach2,2021.2.3,60.00420865319668,
,,,,,,,,farRight,19.1,4,ch1Sound_localizationTask.wav,19.1,"(1237, 878)","(277,-202)",285,-338,,,,,,,,,,,,,4,2,30,6,,,,,,,,,,,,,,,,,,,,,,,,,,,,,,,,,,,,,,,,510.8836257220246,None,,,513.8997142140288,None,1.637037037037037,0.5164972571656108,513.8997142140288,None,,,,,,,511.88372935913503,None,512.0666135940701,512.0834497730248,,,,,,,124,001,2023_Oct_05_1244,SpeechDraft1Carolyn_lessNoise_locIncl_Mach2,2021.2.3,60.00420865319668,
,,,,,,,,farRight,19.1,4,ch1Sound_localizationTask.wav,19.1,"(1237, 878)","(277,-202)",285,-338,,,,,,,,,,,,,4,3,31,6,,,,,,,,,,,,,,,,,,,,,,,,,,,,,,,,,,,,,,,,514.4167018670123,None,,,517.4331031199545,None,1.6402116402116402,0.5155551310162991,517.4331031199545,None,,,,,,,515.416628159117,None,515.599936343031,515.6166824591346,,,,,,,124,001,2023_Oct_05_1244,SpeechDraft1Carolyn_lessNoise_locIncl_Mach2,2021.2.3,60.00420865319668,
,,,,,,,,nearLeft,-6.5,1,ch1Sound_localizationTask.wav,-6.5,"(857, 878)","(-103,-202)",-95,-338,,,,,,,,,,,,,4,4,32,2,,,,,,,,,,,,,,,,,,,,,,,,,,,,,,,,,,,,,,,,517.9499869940337,None,,,520.9664223170839,None,1.4296296296296296,0.9498273720964789,520.9664223170839,None,,,,,,,518.9498852151446,None,519.1333057519514,519.1500167001504,,,,,,,124,001,2023_Oct_05_1244,SpeechDraft1Carolyn_lessNoise_locIncl_Mach2,2021.2.3,60.00420865319668,
,,,,,,,,midLeft,-13.0,2,ch1Sound_localizationTask.wav,-13.0,"(762, 878)","(-198,-202)",-190,-338,,,,,,,,,,,,,4,5,33,1,,,,,,,,,,,,,,,,,,,,,,,,,,,,,,,,,,,,,,,,521.9169178081211,None,,,524.9330537470523,None,1.3994708994708995,0.883179099066183,524.9330537470523,None,,,,,,,522.9166917649563,None,523.0999162611552,523.1166264321655,,,,,,,124,001,2023_Oct_05_1244,SpeechDraft1Carolyn_lessNoise_locIncl_Mach2,2021.2.3,60.00420865319668,
,,,,,,,,midRight,13.0,3,ch1Sound_localizationTask.wav,13.0,"(1142, 878)","(182, -202)",190,-338,,,,,,,,,,,,,4,6,34,5,,,,,,,,,,,,,,,,,,,,,,,,,,,,,,,,,,,,,,,,525.8167089510243,None,,,528.8330496919807,None,1.6063492063492064,0.8989460740704089,528.8330496919807,None,,,,,,,526.8166118040681,None,527.0000135360751,527.0165168230888,,,,,,,124,001,2023_Oct_05_1244,SpeechDraft1Carolyn_lessNoise_locIncl_Mach2,2021.2.3,60.00420865319668,
,,,,,,,,midRight,13.0,3,ch1Sound_localizationTask.wav,13.0,"(1142, 878)","(182, -202)",190,-338,,,,,,,,,,,,,5,0,35,5,,,,,,,,,,,,,,,,,,,,,,,,,,,,,,,,,,,,,,,,529.73356723506,None,,,532.7498603111599,None,1.5867724867724866,0.566376790869981,532.7498603111599,None,,,,,,,530.7334447740577,None,530.916668879101,530.9333975480404,,,,,,,124,001,2023_Oct_05_1244,SpeechDraft1Carolyn_lessNoise_locIncl_Mach2,2021.2.3,60.00420865319668,
,,,,,,,,nearLeft,-6.5,1,ch1Sound_localizationTask.wav,-6.5,"(857, 878)","(-103,-202)",-95,-338,,,,,,,,,,,,,5,1,36,2,,,,,,,,,,,,,,,,,,,,,,,,,,,,,,,,,,,,,,,,533.3167460390832,None,,,536.3331195751671,None,1.4428571428571428,1.035017668036744,536.3331195751671,None,,,,,,,534.3166702999733,None,534.4999880839605,534.5166356989648,,,,,,,124,001,2023_Oct_05_1244,SpeechDraft1Carolyn_lessNoise_locIncl_Mach2,2021.2.3,60.00420865319668,
,,,,,,,,nearRight,6.5,0,ch1Sound_localizationTask.wav,6.5,"(1047, 878)","(87, -202)",95,-338,,,,,,,,,,,,,5,2,37,4,,,,,,,,,,,,,,,,,,,,,,,,,,,,,,,,,,,,,,,,537.3833159001078,None,,,540.3997955799568,None,1.5793650793650795,0.4666023510508239,540.3997955799568,None,,,,,,,538.3833059831522,None,538.5667047430761,538.5833719400689,,,,,,,124,001,2023_Oct_05_1244,SpeechDraft1Carolyn_lessNoise_locIncl_Mach2,2021.2.3,60.00420865319668,
,,,,,,,,center,0.0,6,ch1Sound_localizationTask.wav,0.0,"(952, 878)","(-8,-202)",0,-338,,,,,,,,,,,,,5,3,38,3,,,,,,,,,,,,,,,,,,,,,,,,,,,,,,,,,,,,,,,,540.8667243879754,None,,,543.8831059371587,None,1.4904761904761905,0.6494390259031206,543.8831059371587,None,,,,,,,541.8671657501254,None,542.0500519331545,542.0666457230691,,,,,,,124,001,2023_Oct_05_1244,SpeechDraft1Carolyn_lessNoise_locIncl_Mach2,2021.2.3,60.00420865319668,
,,,,,,,,nearRight,6.5,0,ch1Sound_localizationTask.wav,6.5,"(1047, 878)","(87, -202)",95,-338,,,,,,,,,,,,,5,4,39,4,,,,,,,,,,,,,,,,,,,,,,,,,,,,,,,,,,,,,,,,544.5333307471592,None,,,547.5498918220401,None,1.5693121693121692,0.5486612638924271,547.5498918220401,None,,,,,,,545.5333631259855,None,545.7166663131211,545.7335274550132,,,,,,,124,001,2023_Oct_05_1244,SpeechDraft1Carolyn_lessNoise_locIncl_Mach2,2021.2.3,60.00420865319668,
,,,,,,,,nearRight,6.5,0,ch1Sound_localizationTask.wav,6.5,"(1047, 878)","(87, -202)",95,-338,,,,,,,,,,,,,5,5,40,4,,,,,,,,,,,,,,,,,,,,,,,,,,,,,,,,,,,,,,,,548.1000704721082,None,,,551.1164943971671,None,1.517989417989418,0.36610047589056194,551.1164943971671,None,,,,,,,549.0999528509565,None,549.2833323981613,549.2999513051473,,,,,,,124,001,2023_Oct_05_1244,SpeechDraft1Carolyn_lessNoise_locIncl_Mach2,2021.2.3,60.00420865319668,
,,,,,,,,midLeft,-13.0,2,ch1Sound_localizationTask.wav,-13.0,"(762, 878)","(-198,-202)",-190,-338,,,,,,,,,,,,,5,6,41,1,,,,,,,,,,,,,,,,,,,,,,,,,,,,,,,,,,,,,,,,551.4836614539381,None,,,554.4998562049586,None,1.4005291005291005,0.9658196400851011,554.4998562049586,None,,,,,,,552.4833888590802,None,552.6666010969784,552.6834048151504,,,,,,,124,001,2023_Oct_05_1244,SpeechDraft1Carolyn_lessNoise_locIncl_Mach2,2021.2.3,60.00420865319668,
,,,,,,,,farRight,19.1,4,ch1Sound_localizationTask.wav,19.1,"(1237, 878)","(277,-202)",285,-338,,,,,,,,,,,,,6,0,42,6,,,,,,,,,,,,,,,,,,,,,,,,,,,,,,,,,,,,,,,,555.4670029641129,None,,,558.4831379279494,None,1.6576719576719576,1.2491817688569427,558.4831379279494,None,,,,,,,556.4666950269602,None,556.6500350951683,556.6666922490112,,,,,,,124,001,2023_Oct_05_1244,SpeechDraft1Carolyn_lessNoise_locIncl_Mach2,2021.2.3,60.00420865319668,
,,,,,,,,center,0.0,6,ch1Sound_localizationTask.wav,0.0,"(952, 878)","(-8,-202)",0,-338,,,,,,,,,,,,,6,1,43,3,,,,,,,,,,,,,,,,,,,,,,,,,,,,,,,,,,,,,,,,559.7333477339707,None,,,562.749761005165,None,1.4952380952380953,0.7818662628997117,562.749761005165,None,,,,,,,560.7333087909501,None,560.9166762451641,560.9333048369735,,,,,,,124,001,2023_Oct_05_1244,SpeechDraft1Carolyn_lessNoise_locIncl_Mach2,2021.2.3,60.00420865319668,
,,,,,,,,farLeft,-19.1,5,ch1Sound_localizationTask.wav,-19.1,"(667, 878)","(-293,-202)",-285,-338,,,,,,,,,,,,,6,2,44,0,,,,,,,,,,,,,,,,,,,,,,,,,,,,,,,,,,,,,,,,563.5333265340887,None,,,566.5498673019465,None,1.3354497354497354,1.0483957049436867,566.5498673019465,None,,,,,,,564.5333784909453,None,564.71670099115,564.7334294109605,,,,,,,124,001,2023_Oct_05_1244,SpeechDraft1Carolyn_lessNoise_locIncl_Mach2,2021.2.3,60.00420865319668,
,,,,,,,,nearLeft,-6.5,1,ch1Sound_localizationTask.wav,-6.5,"(857, 878)","(-103,-202)",-95,-338,,,,,,,,,,,,,6,3,45,2,,,,,,,,,,,,,,,,,,,,,,,,,,,,,,,,,,,,,,,,567.6001857430674,None,,,570.6165254621301,None,1.4650793650793652,1.5663147529121488,570.6165254621301,None,,,,,,,568.6000076960772,None,568.7834095880389,568.7999861880671,,,,,,,124,001,2023_Oct_05_1244,SpeechDraft1Carolyn_lessNoise_locIncl_Mach2,2021.2.3,60.00420865319668,
,,,,,,,,farLeft,-19.1,5,ch1Sound_localizationTask.wav,-19.1,"(667, 878)","(-293,-202)",-285,-338,,,,,,,,,,,,,6,4,46,0,,,,,,,,,,,,,,,,,,,,,,,,,,,,,,,,,,,,,,,,572.1834480529651,None,,,575.1998046180233,None,1.3333333333333333,1.0326876470353454,575.1998046180233,None,,,,,,,573.1834421739914,None,573.3667102970649,573.3834026141558,,,,,,,124,001,2023_Oct_05_1244,SpeechDraft1Carolyn_lessNoise_locIncl_Mach2,2021.2.3,60.00420865319668,
,,,,,,,,midLeft,-13.0,2,ch1Sound_localizationTask.wav,-13.0,"(762, 878)","(-198,-202)",-190,-338,,,,,,,,,,,,,6,5,47,1,,,,,,,,,,,,,,,,,,,,,,,,,,,,,,,,,,,,,,,,576.233501248993,None,,,579.249736135127,None,1.4227513227513229,1.132167425006628,579.249736135127,None,,,,,,,577.2334231459536,None,577.4166696721222,577.4334151290823,,,,,,,124,001,2023_Oct_05_1244,SpeechDraft1Carolyn_lessNoise_locIncl_Mach2,2021.2.3,60.00420865319668,
,,,,,,,,nearLeft,-6.5,1,ch1Sound_localizationTask.wav,-6.5,"(857, 878)","(-103,-202)",-95,-338,,,,,,,,,,,,,6,6,48,2,,,,,,,,,,,,,,,,,,,,,,,,,,,,,,,,,,,,,,,,580.3834162810817,None,,,583.399764402071,None,1.4746031746031747,1.0492337548639625,583.399764402071,None,,,,,,,581.383505707141,None,581.5668682791293,581.5834992739838,,,,,,,124,001,2023_Oct_05_1244,SpeechDraft1Carolyn_lessNoise_locIncl_Mach2,2021.2.3,60.00420865319668,
,,,,,,,,nearLeft,-6.5,1,ch1Sound_localizationTask.wav,-6.5,"(857, 878)","(-103,-202)",-95,-338,,,,,,,,,,,,,7,0,49,2,,,,,,,,,,,,,,,,,,,,,,,,,,,,,,,,,,,,,,,,584.4500551009551,None,,,587.4663621780928,None,1.4433862433862434,0.8825201878789812,587.4663621780928,None,,,,,,,585.4500281370711,None,585.6334060251247,585.6500631279778,,,,,,,124,001,2023_Oct_05_1244,SpeechDraft1Carolyn_lessNoise_locIncl_Mach2,2021.2.3,60.00420865319668,
,,,,,,,,farRight,19.1,4,ch1Sound_localizationTask.wav,19.1,"(1237, 878)","(277,-202)",285,-338,,,,,,,,,,,,,7,1,50,6,,,,,,,,,,,,,,,,,,,,,,,,,,,,,,,,,,,,,,,,588.3501261500642,None,,,591.3664749690797,None,1.6428571428571428,0.8314284780062735,591.3664749690797,None,,,,,,,589.3500701361336,None,589.533352157101,589.550070927944,,,,,,,124,001,2023_Oct_05_1244,SpeechDraft1Carolyn_lessNoise_locIncl_Mach2,2021.2.3,60.00420865319668,
,,,,,,,,center,0.0,6,ch1Sound_localizationTask.wav,0.0,"(952, 878)","(-8,-202)",0,-338,,,,,,,,,,,,,7,2,51,3,,,,,,,,,,,,,,,,,,,,,,,,,,,,,,,,,,,,,,,,592.2001192059834,None,,,595.2164690829813,None,1.493121693121693,0.8991300149355084,595.2164690829813,None,,,,,,,593.2000656111632,None,593.3834499269724,593.400129209971,,,,,,,124,001,2023_Oct_05_1244,SpeechDraft1Carolyn_lessNoise_locIncl_Mach2,2021.2.3,60.00420865319668,
,,,,,,,,farRight,19.1,4,ch1Sound_localizationTask.wav,19.1,"(1237, 878)","(277,-202)",285,-338,,,,,,,,,,,,,7,3,52,6,,,,,,,,,,,,,,,,,,,,,,,,,,,,,,,,,,,,,,,,596.1168108840939,None,,,599.1330912280828,None,1.6724867724867725,0.865011409856379,599.1330912280828,None,,,,,,,597.1167715589982,None,597.3000506099779,597.3168171360157,,,,,,,124,001,2023_Oct_05_1244,SpeechDraft1Carolyn_lessNoise_locIncl_Mach2,2021.2.3,60.00420865319668,
,,,,,,,,nearLeft,-6.5,1,ch1Sound_localizationTask.wav,-6.5,"(857, 878)","(-103,-202)",-95,-338,,,,,,,,,,,,,7,4,53,2,,,,,,,,,,,,,,,,,,,,,,,,,,,,,,,,,,,,,,,,600.0001015430316,None,,,603.0165939361323,None,1.434920634920635,0.9996429190505296,603.0165939361323,None,,,,,,,601.0002252380364,None,601.1834162620362,601.2000811181497,,,,,,,124,001,2023_Oct_05_1244,SpeechDraft1Carolyn_lessNoise_locIncl_Mach2,2021.2.3,60.00420865319668,
,,,,,,,,farRight,19.1,4,ch1Sound_localizationTask.wav,19.1,"(1237, 878)","(277,-202)",285,-338,,,,,,,,,,,,,7,5,54,6,,,,,,,,,,,,,,,,,,,,,,,,,,,,,,,,,,,,,,,,604.0167091260664,None,,,607.0332880800124,None,1.664021164021164,0.7830930741038173,607.0332880800124,None,,,,,,,605.0167246230412,None,605.2000513791572,605.2168930771295,,,,,,,124,001,2023_Oct_05_1244,SpeechDraft1Carolyn_lessNoise_locIncl_Mach2,2021.2.3,60.00420865319668,
,,,,,,,,midLeft,-13.0,2,ch1Sound_localizationTask.wav,-13.0,"(762, 878)","(-198,-202)",-190,-338,,,,,,,,,,,,,7,6,55,1,,,,,,,,,,,,,,,,,,,,,,,,,,,,,,,,,,,,,,,,607.8167655691504,None,,,610.8331638080999,None,1.4142857142857141,1.0325908970553428,610.8331638080999,None,,,,,,,608.8168537160382,None,609.0001576270442,609.0167798921466,,,,,,,124,001,2023_Oct_05_1244,SpeechDraft1Carolyn_lessNoise_locIncl_Mach2,2021.2.3,60.00420865319668,
,,,,,,,,,,,,,,,,,,,,,,,,,,,,,,,,,,,,,,,,,,,,,,,,,,,,,,,,,,,,,,,,,,,,,,,,,,,,,,,,,,,,,,,,,,,,611.8667403929867,None,c,20.293653819011524,612.850126296049,None,124,001,2023_Oct_05_1244,SpeechDraft1Carolyn_lessNoise_locIncl_Mach2,2021.2.3,60.00420865319668,
