wordList,condition,conditionCode,audioFile,trialType,corrFlash,corrBeeps,f1Start,f2Start,f3Start,f4Start,b1Start,b2Start,b3Start,b4Start,f1Color,f2Color,f3Color,f4Color,b1Vol,b2Vol,b3Vol,b4Vol,crossColor,crossContrast,firstResp,wordPresentation.thisRepN,wordPresentation.thisTrialN,wordPresentation.thisN,wordPresentation.thisIndex,flashPractice.thisRepN,flashPractice.thisTrialN,flashPractice.thisN,flashPractice.thisIndex,beepPractice.thisRepN,beepPractice.thisTrialN,beepPractice.thisN,beepPractice.thisIndex,welcomeTxt.started,welcomeTxt.stopped,goOnAndStart.keys,goOnAndStart.rt,goOnAndStart.started,goOnAndStart.stopped,helloWordTest.started,helloWordTest.stopped,key_resp_14.keys,key_resp_14.rt,key_resp_14.started,key_resp_14.stopped,preWordFixCross.started,preWordFixCross.stopped,wordText_2.started,wordText_2.stopped,wordListTime,text_7.started,text_7.stopped,text_8.started,text_8.stopped,helloInstr.started,helloInstr.stopped,beginPractPress.keys,beginPractPress.rt,beginPractPress.started,beginPractPress.stopped,text_4.started,text_4.stopped,key_resp_9.keys,key_resp_9.rt,key_resp_9.started,key_resp_9.stopped,practiceTypeHeader.started,practiceTypeHeader.stopped,fillInText.started,fillInText.stopped,firstResponseQ,flashCondition,flashCode,crossSetup.started,crossSetup.stopped,gratP1.started,gratP1.stopped,gratP2.started,gratP2.stopped,gratP3.started,gratP3.stopped,gratP4.started,gratP4.stopped,practiceBeep1.started,practiceBeep1.stopped,practiceBeeps2.started,practiceBeeps2.stopped,practiceBeeps3.started,practiceBeeps3.stopped,practiceBeeps4.started,practiceBeeps4.stopped,text_2.started,text_2.stopped,R1GeneralPrompt_3.started,R1GeneralPrompt_3.stopped,flashPromptTxt_2.started,flashPromptTxt_2.stopped,mouseClick1Vis.x,mouseClick1Vis.y,mouseClick1Vis.leftButton,mouseClick1Vis.midButton,mouseClick1Vis.rightButton,mouseClick1Vis.time,mouseClick1Vis.clicked_name,mouseClick1Vis.started,mouseClick1Vis.stopped,clickCounter,flashClick,flashRespNum,key_resp_12.keys,key_resp_12.rt,key_resp_12.started,key_resp_12.stopped,polygonVis_F1.started,polygonVis_F1.stopped,polygonVis_F2.started,polygonVis_F2.stopped,polygonVis_F3.started,polygonVis_F3.stopped,polygonVis_F4.started,polygonVis_F4.stopped,flashVisOpt1.started,flashVisOpt1.stopped,flashVisOpt2.started,flashVisOpt2.stopped,flashVisOpt3.started,flashVisOpt3.stopped,flashVisOpt4.started,flashVisOpt4.stopped,flashPic.started,flashPic.stopped,rollingOnVis.started,rollingOnVis.stopped,text_5.started,text_5.stopped,key_resp_8.keys,key_resp_8.rt,key_resp_8.started,key_resp_8.stopped,participant,session,date,expName,psychopyVersion,frameRate,
,,,,,,,,,,,,,,,,,,,,,,,,,,,,,,,,,,,,,,17.534390982997138,None,space,253.57503361202544,18.52441039402038,None,,,,,,,,,,,,,,,,,,,,,,,,,,,,,,,,,,,,,,,,,,,,,,,,,,,,,,,,,,,,,,,,,,,,,,,,,,,,,,,,,,,,,,,,,,,,,,,,,,,,,3,001,2022_Dec_01_1559,SIFI_RandomRespOrder_AttemptGratingBackto3Beeps_111022_MERGINGFINAL,2021.2.3,100.04882987294127,
,,,,,,,,,,,,,,,,,,,,,,,,,,,,,,,,,,,,,,,,,,,,272.1154205779894,None,space,9.125963859027252,272.2054384230287,None,,,,,,,,,,,,,,,,,,,,,,,,,,,,,,,,,,,,,,,,,,,,,,,,,,,,,,,,,,,,,,,,,,,,,,,,,,,,,,,,,,,,,,,,,,,,,,,3,001,2022_Dec_01_1559,SIFI_RandomRespOrder_AttemptGratingBackto3Beeps_111022_MERGINGFINAL,2021.2.3,100.04882987294127,
Poster,,,,,,,,,,,,,,,,,,,,,,,,,,0,0,0,9,,,,,,,,,,,,,,,,,,,,,281.4054314389941,282.60546336200787,282.59543492103694,None,,,,,,,,,,,,,,,,,,,,,,,,,,,,,,,,,,,,,,,,,,,,,,,,,,,,,,,,,,,,,,,,,,,,,,,,,,,,,,,,,,,,,,,,,,,3,001,2022_Dec_01_1559,SIFI_RandomRespOrder_AttemptGratingBackto3Beeps_111022_MERGINGFINAL,2021.2.3,100.04882987294127,
Tomato,,,,,,,,,,,,,,,,,,,,,,,,,,0,1,1,13,,,,,,,,,,,,,,,,,,,,,285.56550890102517,286.7653964270139,286.7554929140024,None,,,,,,,,,,,,,,,,,,,,,,,,,,,,,,,,,,,,,,,,,,,,,,,,,,,,,,,,,,,,,,,,,,,,,,,,,,,,,,,,,,,,,,,,,,,3,001,2022_Dec_01_1559,SIFI_RandomRespOrder_AttemptGratingBackto3Beeps_111022_MERGINGFINAL,2021.2.3,100.04882987294127,
Tunnel,,,,,,,,,,,,,,,,,,,,,,,,,,0,2,2,14,,,,,,,,,,,,,,,,,,,,,289.75547875801567,290.95548474701354,290.95548474701354,None,,,,,,,,,,,,,,,,,,,,,,,,,,,,,,,,,,,,,,,,,,,,,,,,,,,,,,,,,,,,,,,,,,,,,,,,,,,,,,,,,,,,,,,,,,,3,001,2022_Dec_01_1559,SIFI_RandomRespOrder_AttemptGratingBackto3Beeps_111022_MERGINGFINAL,2021.2.3,100.04882987294127,
Camera,,,,,,,,,,,,,,,,,,,,,,,,,,0,3,3,2,,,,,,,,,,,,,,,,,,,,,293.9555088049965,295.1555060099927,295.1455094370176,None,,,,,,,,,,,,,,,,,,,,,,,,,,,,,,,,,,,,,,,,,,,,,,,,,,,,,,,,,,,,,,,,,,,,,,,,,,,,,,,,,,,,,,,,,,,3,001,2022_Dec_01_1559,SIFI_RandomRespOrder_AttemptGratingBackto3Beeps_111022_MERGINGFINAL,2021.2.3,100.04882987294127,
Puddle,,,,,,,,,,,,,,,,,,,,,,,,,,0,4,4,11,,,,,,,,,,,,,,,,,,,,,298.14553896698635,299.3455231009866,299.33554936404107,298.14553896698635,,,,,,,,,,,,,,,,,,,,,,,,,,,,,,,,,,,,,,,,,,,,,,,,,,,,,,,,,,,,,,,,,,,,,,,,,,,,,,,,,,,,,,,,,,,3,001,2022_Dec_01_1559,SIFI_RandomRespOrder_AttemptGratingBackto3Beeps_111022_MERGINGFINAL,2021.2.3,100.04882987294127,
Soccer,,,,,,,,,,,,,,,,,,,,,,,,,,0,5,5,12,,,,,,,,,,,,,,,,,,,,,302.3356232380029,303.53552723501343,303.5255408430239,302.3356232380029,,,,,,,,,,,,,,,,,,,,,,,,,,,,,,,,,,,,,,,,,,,,,,,,,,,,,,,,,,,,,,,,,,,,,,,,,,,,,,,,,,,,,,,,,,,3,001,2022_Dec_01_1559,SIFI_RandomRespOrder_AttemptGratingBackto3Beeps_111022_MERGINGFINAL,2021.2.3,100.04882987294127,
Candle,,,,,,,,,,,,,,,,,,,,,,,,,,0,6,6,3,,,,,,,,,,,,,,,,,,,,,306.5355443530134,307.7354971850291,307.7255581190111,306.5355443530134,,,,,,,,,,,,,,,,,,,,,,,,,,,,,,,,,,,,,,,,,,,,,,,,,,,,,,,,,,,,,,,,,,,,,,,,,,,,,,,,,,,,,,,,,,,3,001,2022_Dec_01_1559,SIFI_RandomRespOrder_AttemptGratingBackto3Beeps_111022_MERGINGFINAL,2021.2.3,100.04882987294127,
Needle,,,,,,,,,,,,,,,,,,,,,,,,,,0,7,7,18,,,,,,,,,,,,,,,,,,,,,310.7255634930334,311.92557296704035,311.9155327550252,310.7255634930334,,,,,,,,,,,,,,,,,,,,,,,,,,,,,,,,,,,,,,,,,,,,,,,,,,,,,,,,,,,,,,,,,,,,,,,,,,,,,,,,,,,,,,,,,,,3,001,2022_Dec_01_1559,SIFI_RandomRespOrder_AttemptGratingBackto3Beeps_111022_MERGINGFINAL,2021.2.3,100.04882987294127,
Corpse,,,,,,,,,,,,,,,,,,,,,,,,,,0,8,8,6,,,,,,,,,,,,,,,,,,,,,314.9155349500361,316.11564157303656,316.10567295498913,314.9155349500361,,,,,,,,,,,,,,,,,,,,,,,,,,,,,,,,,,,,,,,,,,,,,,,,,,,,,,,,,,,,,,,,,,,,,,,,,,,,,,,,,,,,,,,,,,,3,001,2022_Dec_01_1559,SIFI_RandomRespOrder_AttemptGratingBackto3Beeps_111022_MERGINGFINAL,2021.2.3,100.04882987294127,
Market,,,,,,,,,,,,,,,,,,,,,,,,,,0,9,9,7,,,,,,,,,,,,,,,,,,,,,319.1056197620346,320.3056131399935,320.295571190014,319.1056197620346,,,,,,,,,,,,,,,,,,,,,,,,,,,,,,,,,,,,,,,,,,,,,,,,,,,,,,,,,,,,,,,,,,,,,,,,,,,,,,,,,,,,,,,,,,,3,001,2022_Dec_01_1559,SIFI_RandomRespOrder_AttemptGratingBackto3Beeps_111022_MERGINGFINAL,2021.2.3,100.04882987294127,
Prince,,,,,,,,,,,,,,,,,,,,,,,,,,0,10,10,10,,,,,,,,,,,,,,,,,,,,,323.2956020309939,324.49564500001725,324.4856023680186,323.2956020309939,,,,,,,,,,,,,,,,,,,,,,,,,,,,,,,,,,,,,,,,,,,,,,,,,,,,,,,,,,,,,,,,,,,,,,,,,,,,,,,,,,,,,,,,,,,3,001,2022_Dec_01_1559,SIFI_RandomRespOrder_AttemptGratingBackto3Beeps_111022_MERGINGFINAL,2021.2.3,100.04882987294127,
Liquid,,,,,,,,,,,,,,,,,,,,,,,,,,0,11,11,0,,,,,,,,,,,,,,,,,,,,,327.4856257310021,328.68567723804154,328.67555909301154,327.4856257310021,,,,,,,,,,,,,,,,,,,,,,,,,,,,,,,,,,,,,,,,,,,,,,,,,,,,,,,,,,,,,,,,,,,,,,,,,,,,,,,,,,,,,,,,,,,3,001,2022_Dec_01_1559,SIFI_RandomRespOrder_AttemptGratingBackto3Beeps_111022_MERGINGFINAL,2021.2.3,100.04882987294127,
Kitten,,,,,,,,,,,,,,,,,,,,,,,,,,0,12,12,16,,,,,,,,,,,,,,,,,,,,,331.67562598502263,332.8756384860026,332.86564770602854,331.67562598502263,,,,,,,,,,,,,,,,,,,,,,,,,,,,,,,,,,,,,,,,,,,,,,,,,,,,,,,,,,,,,,,,,,,,,,,,,,,,,,,,,,,,,,,,,,,3,001,2022_Dec_01_1559,SIFI_RandomRespOrder_AttemptGratingBackto3Beeps_111022_MERGINGFINAL,2021.2.3,100.04882987294127,
Umpire,,,,,,,,,,,,,,,,,,,,,,,,,,0,13,13,15,,,,,,,,,,,,,,,,,,,,,335.8657025170396,337.06567675602855,337.055636714038,335.8657025170396,,,,,,,,,,,,,,,,,,,,,,,,,,,,,,,,,,,,,,,,,,,,,,,,,,,,,,,,,,,,,,,,,,,,,,,,,,,,,,,,,,,,,,,,,,,3,001,2022_Dec_01_1559,SIFI_RandomRespOrder_AttemptGratingBackto3Beeps_111022_MERGINGFINAL,2021.2.3,100.04882987294127,
Cherry,,,,,,,,,,,,,,,,,,,,,,,,,,0,14,14,4,,,,,,,,,,,,,,,,,,,,,340.05568550003227,341.2556504730019,341.2457100719912,340.05568550003227,,,,,,,,,,,,,,,,,,,,,,,,,,,,,,,,,,,,,,,,,,,,,,,,,,,,,,,,,,,,,,,,,,,,,,,,,,,,,,,,,,,,,,,,,,,3,001,2022_Dec_01_1559,SIFI_RandomRespOrder_AttemptGratingBackto3Beeps_111022_MERGINGFINAL,2021.2.3,100.04882987294127,
Sandal,,,,,,,,,,,,,,,,,,,,,,,,,,0,15,15,19,,,,,,,,,,,,,,,,,,,,,344.2457070740056,345.4457099729916,345.4357392480015,344.2457070740056,,,,,,,,,,,,,,,,,,,,,,,,,,,,,,,,,,,,,,,,,,,,,,,,,,,,,,,,,,,,,,,,,,,,,,,,,,,,,,,,,,,,,,,,,,,3,001,2022_Dec_01_1559,SIFI_RandomRespOrder_AttemptGratingBackto3Beeps_111022_MERGINGFINAL,2021.2.3,100.04882987294127,
Beggar,,,,,,,,,,,,,,,,,,,,,,,,,,0,16,16,1,,,,,,,,,,,,,,,,,,,,,348.4357589909923,349.63565809099237,349.6257082700031,348.4357589909923,,,,,,,,,,,,,,,,,,,,,,,,,,,,,,,,,,,,,,,,,,,,,,,,,,,,,,,,,,,,,,,,,,,,,,,,,,,,,,,,,,,,,,,,,,,3,001,2022_Dec_01_1559,SIFI_RandomRespOrder_AttemptGratingBackto3Beeps_111022_MERGINGFINAL,2021.2.3,100.04882987294127,
Wallet,,,,,,,,,,,,,,,,,,,,,,,,,,0,17,17,8,,,,,,,,,,,,,,,,,,,,,352.62573076901026,353.82577814604156,353.8157246960327,352.62573076901026,,,,,,,,,,,,,,,,,,,,,,,,,,,,,,,,,,,,,,,,,,,,,,,,,,,,,,,,,,,,,,,,,,,,,,,,,,,,,,,,,,,,,,,,,,,3,001,2022_Dec_01_1559,SIFI_RandomRespOrder_AttemptGratingBackto3Beeps_111022_MERGINGFINAL,2021.2.3,100.04882987294127,
Church,,,,,,,,,,,,,,,,,,,,,,,,,,0,18,18,5,,,,,,,,,,,,,,,,,,,,,356.8157484990079,358.01574701000936,358.0058136690059,356.8157484990079,,,,,,,,,,,,,,,,,,,,,,,,,,,,,,,,,,,,,,,,,,,,,,,,,,,,,,,,,,,,,,,,,,,,,,,,,,,,,,,,,,,,,,,,,,,3,001,2022_Dec_01_1559,SIFI_RandomRespOrder_AttemptGratingBackto3Beeps_111022_MERGINGFINAL,2021.2.3,100.04882987294127,
Window,,,,,,,,,,,,,,,,,,,,,,,,,,0,19,19,17,,,,,,,,,,,,,,,,,,,,,361.005795827019,362.20577403804054,362.19582159101265,361.005795827019,,,,,,,,,,,,,,,,,,,,,,,,,,,,,,,,,,,,,,,,,,,,,,,,,,,,,,,,,,,,,,,,,,,,,,,,,,,,,,,,,,,,,,,,,,,3,001,2022_Dec_01_1559,SIFI_RandomRespOrder_AttemptGratingBackto3Beeps_111022_MERGINGFINAL,2021.2.3,100.04882987294127,
,,,,,,,,,,,,,,,,,,,,,,,,,,,,,,,,,,,,,,,,,,,,,,,,,,,,,,16.05,365.1957933619851,366.3957512989873,366.385827849037,None,370.38582257099915,None,space,20.761602298007347,370.46582829998806,None,,,,,,,,,,,,,,,,,,,,,,,,,,,,,,,,,,,,,,,,,,,,,,,,,,,,,,,,,,,,,,,,,,,,,,,,,,,,,,,,3,001,2022_Dec_01_1559,SIFI_RandomRespOrder_AttemptGratingBackto3Beeps_111022_MERGINGFINAL,2021.2.3,100.04882987294127,
,,,,,,,,,,,,,,,,,,,,,,,,,,,,,,,,,,,,,,,,,,,,,,,,,,,,,,,,,,,,,,,,,391.245908804005,None,space,9.829580865975004,391.3258916680352,None,,,,,,,,,,,,,,,,,,,,,,,,,,,,,,,,,,,,,,,,,,,,,,,,,,,,,,,,,,,,,,,,,,,,,,,,,,3,001,2022_Dec_01_1559,SIFI_RandomRespOrder_AttemptGratingBackto3Beeps_111022_MERGINGFINAL,2021.2.3,100.04882987294127,
,1F0B,5,silence_102021.wav,1 flash,1,0,12,19,20,21,0,6,12,18,0,1,1,1,0,0,0,0,white,1,f,,,,,0,0,0,0,,,,,,,,,,,,,,,,,,,,,,,,,,,,,,,,,,,,,,401.1960267780232,None,401.1960267780232,None,f,1F0B,5,404.1759249480092,None,404.99607600900345,405.00594381801784,405.06588953599567,405.07604139100295,405.07604139100295,405.0859557290096,405.0859557290096,405.09596408100333,404.8758956632926,None,404.93588963833173,None,404.99592792732875,None,405.0558851353242,None,405.09596408100333,None,405.8759249750292,None,405.8759249750292,None,[-0.23177083333333334],[0.006510416666666667],[1],[0],[0],[3.5138563429936767],['polygonVis_F1'],0.0025725162704475224,None,0,['polygonVis_F1'],1,space,1.2014311010134406,409.3859729029937,None,405.8759249750292,None,405.8759249750292,None,405.8759249750292,None,405.8759249750292,None,405.8759249750292,None,405.8759249750292,None,405.8759249750292,None,405.8759249750292,None,405.8759249750292,None,405.8759249750292,None,,,,,,,3,001,2022_Dec_01_1559,SIFI_RandomRespOrder_AttemptGratingBackto3Beeps_111022_MERGINGFINAL,2021.2.3,100.04882987294127,
,2F0B,10,silence_102021.wav,2 flashes,2,0,9,15,20,21,0,6,12,18,0,0,1,1,0,0,0,0,white,1,f,,,,,0,1,1,1,,,,,,,,,,,,,,,,,,,,,,,,,,,,,,,,,,,,,,410.6359353440348,None,410.6359353440348,None,f,2F0B,10,413.6359567370382,None,414.42601249500876,414.4359524869942,414.4860114090261,414.4959331729915,414.53595437901095,414.5459791350295,414.5459791350295,414.55596180300927,414.33597412630917,None,414.39594706929057,None,414.456040571339,None,414.5159708713298,None,414.55596180300927,None,415.32602659403346,None,415.32602659403346,None,[-0.078125],[-0.0078125],[1],[0],[0],[0.6290386429755017],['polygonVis_F2'],0.0078815883025527,None,0,['polygonVis_F2'],2,space,0.38350950297899544,415.9559807940386,None,415.32602659403346,None,415.32602659403346,None,415.32602659403346,None,415.32602659403346,None,415.32602659403346,None,415.32602659403346,None,415.32602659403346,None,415.32602659403346,None,415.32602659403346,None,415.32602659403346,None,,,,,,,3,001,2022_Dec_01_1559,SIFI_RandomRespOrder_AttemptGratingBackto3Beeps_111022_MERGINGFINAL,2021.2.3,100.04882987294127,
,3F0B,15,silence_102021.wav,3 flashes,3,0,5,11,17,20,0,6,12,18,0,0,0,1,0,0,0,0,white,1,f,,,,,0,2,2,2,,,,,,,,,,,,,,,,,,,,,,,,,,,,,,,,,,,,,,416.3759151819977,None,416.3759151819977,None,f,3F0B,15,419.37596374202985,None,420.1259839700069,420.1359056250076,420.1860396460397,420.1959074650076,420.246010250994,420.2559765310143,420.2759658219875,420.2860343109933,420.0759621383157,None,420.1359936673078,None,420.1960493433406,None,420.25601994829486,None,420.2860343109933,None,421.0559857900371,None,421.0559857900371,None,[0.0546875],[-0.00390625],[1],[0],[0],[0.6288631460047327],['polygonVis_F3'],0.007706801290623844,None,0,['polygonVis_F3'],3,space,0.2914574799942784,421.6559899630374,None,421.0559857900371,None,421.0559857900371,None,421.0559857900371,None,421.0559857900371,None,421.0559857900371,None,421.0559857900371,None,421.0559857900371,None,421.0559857900371,None,421.0559857900371,None,421.0559857900371,None,,,,,,,3,001,2022_Dec_01_1559,SIFI_RandomRespOrder_AttemptGratingBackto3Beeps_111022_MERGINGFINAL,2021.2.3,100.04882987294127,
,4F0B,20,silence_102021.wav,4 flashes,4,0,0,6,12,18,0,6,12,18,0,0,0,0,0,0,0,0,white,1,f,,,,,0,3,3,3,,,,,,,,,,,,,,,,,,,,,,,,,,,,,,,,,,,,,,421.9860459170304,None,421.9860459170304,None,f,4F0B,20,424.9860363790067,None,425.68609169399133,425.696014434041,425.7461178909871,425.75607459200546,425.80604653200135,425.8159794030362,425.866104730987,425.8760272610234,425.6859733333229,None,425.7459691873053,None,425.80597637629836,None,425.8660224762978,None,425.8760272610234,None,426.6460710479878,None,426.6460710479878,None,[0.23177083333333334],[-0.009114583333333334],[1],[0],[0],[2.129170694970526],['polygonVis_F4'],0.007908127270638943,None,0,['polygonVis_F4'],4,space,0.37941742601105943,428.77605000900803,None,426.6460710479878,None,426.6460710479878,None,426.6460710479878,None,426.6460710479878,None,426.6460710479878,None,426.6460710479878,None,426.6460710479878,None,426.6460710479878,None,426.6460710479878,None,426.6460710479878,None,,,,,,,3,001,2022_Dec_01_1559,SIFI_RandomRespOrder_AttemptGratingBackto3Beeps_111022_MERGINGFINAL,2021.2.3,100.04882987294127,
,,,,,,,,,,,,,,,,,,,,,,,,,,,,,,,,,,,,,,,,,,,,,,,,,,,,,,,,,,,,,,,,,,,,,,,,,,,,,,,,,,,,,,,,,,,,,,,,,,,,,,,,,,,,,,,,,,,,,,,,,,,,,,,,,,,,,,,,,,429.18606455798727,None,space,4.5114435569848865,429.2759980999981,None,3,001,2022_Dec_01_1559,SIFI_RandomRespOrder_AttemptGratingBackto3Beeps_111022_MERGINGFINAL,2021.2.3,100.04882987294127,
,,,,,,,,,,,,,,,,,,,,,,,,,,,,,,,,,,,,,,,,,,,,,,,,,,,,,,,,,,,,,,,,,,,,,,,433.826044379035,None,433.826044379035,None,b,0F1B,1,436.816123556986,None,437.5161746410304,437.5260286880075,437.5760573319858,437.58598221000284,437.6361295860261,437.6461314560147,437.69608006003546,437.7061072959914,437.6360361183295,None,437.67606268329547,None,437.68610935228645,None,437.69602851233213,None,437.7061072959914,None,,,,,,,,,,,,,,,,,,,,,,,,,,,,,,,,,,,,,,,,,,,,,,,,,,,,,
