Audio_Only_Files,Video_Files,Original_Word_List,noiseLevelCode,conditionCodes,noiseLevelFile1,noiseLevelFile2,InstrTextVar,targetSpeakerName,targetSpeakerEccen,targetSpkrChannel,targetSpkrSound,targetVisualDegrees,visStimLoc,visStimLoc2,visStimW,visStimH,practiceTrials.thisRepN,practiceTrials.thisTrialN,practiceTrials.thisN,practiceTrials.thisIndex,trials.thisRepN,trials.thisTrialN,trials.thisN,trials.thisIndex,audLocalLoop.thisRepN,audLocalLoop.thisTrialN,audLocalLoop.thisN,audLocalLoop.thisIndex,visualLocalLoop.thisRepN,visualLocalLoop.thisTrialN,visualLocalLoop.thisN,visualLocalLoop.thisIndex,letsGoAlready.keys,letsGoAlready.rt,letsGoAlready.started,letsGoAlready.stopped,text_2.started,text_2.stopped,text_3.started,text_3.stopped,key_resp_2.keys,key_resp_2.rt,key_resp_2.started,key_resp_2.stopped,text_5.started,text_5.stopped,fixCross.started,fixCross.stopped,fixCross2.started,fixCross2.stopped,answerPrompt.started,answerPrompt.stopped,getAnswer.text,getAnswer.started,getAnswer.stopped,goToNext.keys,goToNext.rt,goToNext.started,goToNext.stopped,stretchBreakTxrt.started,stretchBreakTxrt.stopped,key_resp_3.keys,key_resp_3.rt,key_resp_3.started,key_resp_3.stopped,letsGoLocal.keys,letsGoLocal.rt,letsGoLocal.started,letsGoLocal.stopped,text_4.started,text_4.stopped,prepFixTxt.started,prepFixTxt.stopped,prepFixTxt_2.started,prepFixTxt_2.stopped,respPromptLocal.started,respPromptLocal.stopped,slider.response,slider.rt,slider.started,slider.stopped,letsGoLocal_2.keys,letsGoLocal_2.rt,letsGoLocal_2.started,letsGoLocal_2.stopped,text_7.started,text_7.stopped,prepFixTxt_3.started,prepFixTxt_3.stopped,grating.started,grating.stopped,exitTxt.started,exitTxt.stopped,key_resp.keys,key_resp.rt,key_resp.started,key_resp.stopped,participant,session,date,expName,psychopyVersion,frameRate,
,,,,,,,,,,,,,,,,,,,,,,,,,,,,,,,,,space,17.113043763999997,8.016884258999994,None,,,,,,,,,,,,,,,,,,,,,,,,,,,,,,,,,,,,,,,,,,,,,,,,,,,,,,,,,,,,,,100,001,2023_May_16_1151,SpeechDraft1Carolyn_lessNoise_PlusLocalization,2021.2.3,59.99369226319105,
,,,,,,,,,,,,,,,,,,,,,,,,,,,,,,,,,,,,,8.016884258999994,None,25.25033431899999,None,space,3.8002759999999967,25.43362940199998,None,,,,,,,,,,,,,,,,,,,,,,,,,,,,,,,,,,,,,,,,,,,,,,,,,,,,,,100,001,2023_May_16_1151,SpeechDraft1Carolyn_lessNoise_PlusLocalization,2021.2.3,59.99369226319105,
ash.wav,ash.mpg,ash,1,A,Pink_Noise_1_1.wav,Pink_Noise_1_2.wav,"This is an example of an

AUDIO trial",,,,,,,,,,0,0,0,0,,,,,,,,,,,,,,,,,,,,,,,,,29.283411341000004,None,30.28364404300001,None,33.350041758,None,34.73358196799998,None,ash,34.73358196799998,None,return,3.649011975999997,34.816950821999995,None,,,,,,,,,,,,,,,,,,,,,,,,,,,,,,,,,,,,,,,100,001,2023_May_16_1151,SpeechDraft1Carolyn_lessNoise_PlusLocalization,2021.2.3,59.99369226319105,
ash.wav,ash.mpg,ash,1,AV,Pink_Noise_1_1.wav,Pink_Noise_1_2.wav,"This is an example of an

AUDIO + VIDEO  trial",,,,,,,,,,0,1,1,1,,,,,,,,,,,,,,,,,,,,,,,,,38.50004638300001,None,39.50039340699996,None,40.983691660000005,None,42.36700858200001,None,ash,42.36700858200001,None,return,10.239701393000018,42.45031772799999,None,,,,,,,,,,,,,,,,,,,,,,,,,,,,,,,,,,,,,,,100,001,2023_May_16_1151,SpeechDraft1Carolyn_lessNoise_PlusLocalization,2021.2.3,59.99369226319105,
,,,,,,,,,,,,,,,,,,,,,,,,,,,,,,,,,,,,,,,,,,,,,,,,,,,,,,,,,,,,52.73346623500001,None,space,3.572956837999982,52.91698723699997,None,,,,,,,,,,,,,,,,,,,,,,,,,,,,,,,,,100,001,2023_May_16_1151,SpeechDraft1Carolyn_lessNoise_PlusLocalization,2021.2.3,59.99369226319105,
gem.wav,gem.mpg,gem,6,AV,Pink_Noise_6_1.wav,Pink_Noise_6_2.wav,,,,,,,,,,,,,,,0,0,0,87,,,,,,,,,,,,,,,,,,,,,,,56.55004405700001,None,58.033502330000005,None,59.41692881399999,None,"gem
",59.41692881399999,None,return,4.3175195869999925,59.50036966299999,None,,,,,,,,,,,,,,,,,,,,,,,,,,,,,,,,,,,,,,,100,001,2023_May_16_1151,SpeechDraft1Carolyn_lessNoise_PlusLocalization,2021.2.3,59.99369226319105,
cramp.wav,cramp.mpg,cramp,3,A,Pink_Noise_3_1.wav,Pink_Noise_3_2.wav,,,,,,,,,,,,,,,0,1,1,38,,,,,,,,,,,,,,,,,,,,,,,63.850300643,None,65.35014121599997,None,66.73383429999998,None,cram,66.73383429999998,None,return,3.04895704300003,66.81700501999998,None,,,,,,,,,,,,,,,,,,,,,,,,,,,,,,,,,,,,,,,100,001,2023_May_16_1151,SpeechDraft1Carolyn_lessNoise_PlusLocalization,2021.2.3,59.99369226319105,
castle.wav,castle.mpg,castle,3,A,Pink_Noise_3_1.wav,Pink_Noise_3_2.wav,,,,,,,,,,,,,,,0,2,2,29,,,,,,,,,,,,,,,,,,,,,,,69.88369642699999,None,71.36816473899998,None,72.75043284699998,None,castle,72.75043284699998,None,return,3.624296625999989,72.83366013999998,None,,,,,,,,,,,,,,,,,,,,,,,,,,,,,,,,,,,,,,,100,001,2023_May_16_1151,SpeechDraft1Carolyn_lessNoise_PlusLocalization,2021.2.3,59.99369226319105,
boost.wav,boost.mpg,boost,6,A,Pink_Noise_6_1.wav,Pink_Noise_6_2.wav,,,,,,,,,,,,,,,0,3,3,28,,,,,,,,,,,,,,,,,,,,,,,76.48379340299996,None,77.96682933700001,None,79.35028767999998,None,be,79.35028767999998,None,return,3.4881873630000086,79.43378348899998,None,,,,,,,,,,,,,,,,,,,,,,,,,,,,,,,,,,,,,,,100,001,2023_May_16_1151,SpeechDraft1Carolyn_lessNoise_PlusLocalization,2021.2.3,59.99369226319105,
blink.wav,blink.mpg,blink,1,A,Pink_Noise_1_1.wav,Pink_Noise_1_2.wav,,,,,,,,,,,,,,,0,4,4,53,,,,,,,,,,,,,,,,,,,,,,,82.95032939500001,None,84.45010833899997,None,85.83381687799996,None,lake,85.83381687799996,None,return,1.3967993439999873,85.917143321,None,,,,,,,,,,,,,,,,,,,,,,,,,,,,,,,,,,,,,,,100,001,2023_May_16_1151,SpeechDraft1Carolyn_lessNoise_PlusLocalization,2021.2.3,59.99369226319105,
dent.wav,dent.mpg,dent,1,AV,Pink_Noise_1_1.wav,Pink_Noise_1_2.wav,,,,,,,,,,,,,,,0,5,5,108,,,,,,,,,,,,,,,,,,,,,,,87.333904795,None,88.81815086599997,None,90.200319839,None,debt,90.200319839,None,return,4.41419281200001,90.28369012199997,None,,,,,,,,,,,,,,,,,,,,,,,,,,,,,,,,,,,,,,,100,001,2023_May_16_1151,SpeechDraft1Carolyn_lessNoise_PlusLocalization,2021.2.3,59.99369226319105,
dread.wav,dread.mpg,dread,6,A,Pink_Noise_6_1.wav,Pink_Noise_6_2.wav,,,,,,,,,,,,,,,0,6,6,39,,,,,,,,,,,,,,,,,,,,,,,94.71707409000001,None,96.216867511,None,97.600361945,None,"no
",97.600361945,None,return,4.334195587000011,97.683688203,None,,,,,,,,,,,,,,,,,,,,,,,,,,,,,,,,,,,,,,,100,001,2023_May_16_1151,SpeechDraft1Carolyn_lessNoise_PlusLocalization,2021.2.3,59.99369226319105,
sake.wav,sake.mpg,sake,4,A,Pink_Noise_4_1.wav,Pink_Noise_4_2.wav,,,,,,,,,,,,,,,0,7,7,23,,,,,,,,,,,,,,,,,,,,,,,102.050433997,None,103.550114874,None,104.93374593799999,None,sink,104.93374593799999,None,return,2.296927470000014,105.01703425100001,None,,,,,,,,,,,,,,,,,,,,,,,,,,,,,,,,,,,,,,,100,001,2023_May_16_1151,SpeechDraft1Carolyn_lessNoise_PlusLocalization,2021.2.3,59.99369226319105,
sock.wav,sock.mpg,sock,4,AV,Pink_Noise_4_1.wav,Pink_Noise_4_2.wav,,,,,,,,,,,,,,,0,8,8,100,,,,,,,,,,,,,,,,,,,,,,,107.333929853,None,108.81797787999997,None,110.20045143799999,None,sock,110.20045143799999,None,return,2.9741463990000057,110.28381893999997,None,,,,,,,,,,,,,,,,,,,,,,,,,,,,,,,,,,,,,,,100,001,2023_May_16_1151,SpeechDraft1Carolyn_lessNoise_PlusLocalization,2021.2.3,59.99369226319105,
flee.wav,flee.mpg,flee,6,AV,Pink_Noise_6_1.wav,Pink_Noise_6_2.wav,,,,,,,,,,,,,,,0,9,9,78,,,,,,,,,,,,,,,,,,,,,,,113.283715194,None,114.76684230800001,None,116.15028418799997,None,flee,116.15028418799997,None,return,3.8161878070000057,116.23374548799998,None,,,,,,,,,,,,,,,,,,,,,,,,,,,,,,,,,,,,,,,100,001,2023_May_16_1151,SpeechDraft1Carolyn_lessNoise_PlusLocalization,2021.2.3,59.99369226319105,
bill.wav,bill.mpg,bill,5,AV,Pink_Noise_5_1.wav,Pink_Noise_5_2.wav,,,,,,,,,,,,,,,0,10,10,63,,,,,,,,,,,,,,,,,,,,,,,120.06714628,None,121.56700175199998,None,122.95038683099997,None,bill,122.95038683099997,None,return,2.528127573000006,123.03374680099998,None,,,,,,,,,,,,,,,,,,,,,,,,,,,,,,,,,,,,,,,100,001,2023_May_16_1151,SpeechDraft1Carolyn_lessNoise_PlusLocalization,2021.2.3,59.99369226319105,
chump.wav,chump.mpg,chump,5,A,Pink_Noise_5_1.wav,Pink_Noise_5_2.wav,,,,,,,,,,,,,,,0,11,11,55,,,,,,,,,,,,,,,,,,,,,,,125.58388423799997,None,127.08345088999997,None,128.46714472699998,None,chacl,128.46714472699998,None,return,9.795451920999994,128.550458431,None,,,,,,,,,,,,,,,,,,,,,,,,,,,,,,,,,,,,,,,100,001,2023_May_16_1151,SpeechDraft1Carolyn_lessNoise_PlusLocalization,2021.2.3,59.99369226319105,
die.wav,die.mpg,die,4,A,Pink_Noise_4_1.wav,Pink_Noise_4_2.wav,,,,,,,,,,,,,,,0,12,12,40,,,,,,,,,,,,,,,,,,,,,,,138.367103486,None,139.866833346,None,141.25053587699998,None,dive,141.25053587699998,None,return,3.2041675369999894,141.33371533300001,None,,,,,,,,,,,,,,,,,,,,,,,,,,,,,,,,,,,,,,,100,001,2023_May_16_1151,SpeechDraft1Carolyn_lessNoise_PlusLocalization,2021.2.3,59.99369226319105,
thorn.wav,thorn.mpg,thorn,1,A,Pink_Noise_1_1.wav,Pink_Noise_1_2.wav,,,,,,,,,,,,,,,0,13,13,26,,,,,,,,,,,,,,,,,,,,,,,144.56744570699996,None,146.066883956,None,147.45116515099997,None,door,147.45116515099997,None,return,1.8279984609999929,147.53387526599997,None,,,,,,,,,,,,,,,,,,,,,,,,,,,,,,,,,,,,,,,100,001,2023_May_16_1151,SpeechDraft1Carolyn_lessNoise_PlusLocalization,2021.2.3,59.99369226319105,
ditch.wav,ditch.mpg,ditch,6,A,Pink_Noise_6_1.wav,Pink_Noise_6_2.wav,,,,,,,,,,,,,,,0,14,14,59,,,,,,,,,,,,,,,,,,,,,,,149.383825842,None,150.883442094,None,152.267121929,None,"ditch
",152.267121929,None,return,4.883466705999979,152.35041556999997,None,,,,,,,,,,,,,,,,,,,,,,,,,,,,,,,,,,,,,,,100,001,2023_May_16_1151,SpeechDraft1Carolyn_lessNoise_PlusLocalization,2021.2.3,59.99369226319105,
row.wav,row.mpg,row,6,A,Pink_Noise_6_1.wav,Pink_Noise_6_2.wav,,,,,,,,,,,,,,,0,15,15,51,,,,,,,,,,,,,,,,,,,,,,,157.26716366600002,None,158.76695936299998,None,160.15040077799998,None,row,160.15040077799998,None,return,2.296115818999965,160.23380260399998,None,,,,,,,,,,,,,,,,,,,,,,,,,,,,,,,,,,,,,,,100,001,2023_May_16_1151,SpeechDraft1Carolyn_lessNoise_PlusLocalization,2021.2.3,59.99369226319105,
chop.wav,chop.mpg,chop,4,A,Pink_Noise_4_1.wav,Pink_Noise_4_2.wav,,,,,,,,,,,,,,,0,16,16,18,,,,,,,,,,,,,,,,,,,,,,,162.550506221,None,164.10029422299996,None,165.483723213,None,child,165.483723213,None,return,4.794753893999996,165.56717543199997,None,,,,,,,,,,,,,,,,,,,,,,,,,,,,,,,,,,,,,,,100,001,2023_May_16_1151,SpeechDraft1Carolyn_lessNoise_PlusLocalization,2021.2.3,59.99369226319105,
gloom.wav,gloom.mpg,gloom,1,AV,Pink_Noise_1_1.wav,Pink_Noise_1_2.wav,,,,,,,,,,,,,,,0,17,17,60,,,,,,,,,,,,,,,,,,,,,,,170.38370308,None,171.883600901,None,173.26705558399996,None,glue,173.26705558399996,None,return,2.7872620630000142,173.350628059,None,,,,,,,,,,,,,,,,,,,,,,,,,,,,,,,,,,,,,,,100,001,2023_May_16_1151,SpeechDraft1Carolyn_lessNoise_PlusLocalization,2021.2.3,59.99369226319105,
clam.wav,clam.mpg,clam,3,AV,Pink_Noise_3_1.wav,Pink_Noise_3_2.wav,,,,,,,,,,,,,,,0,18,18,101,,,,,,,,,,,,,,,,,,,,,,,176.16729386199998,None,177.667161784,None,179.05086055899997,None,clam,179.05086055899997,None,return,1.4280897140000093,179.133787231,None,,,,,,,,,,,,,,,,,,,,,,,,,,,,,,,,,,,,,,,100,001,2023_May_16_1151,SpeechDraft1Carolyn_lessNoise_PlusLocalization,2021.2.3,59.99369226319105,
funk.wav,funk.mpg,funk,3,AV,Pink_Noise_3_1.wav,Pink_Noise_3_2.wav,,,,,,,,,,,,,,,0,19,19,99,,,,,,,,,,,,,,,,,,,,,,,180.58389206,None,182.083572235,None,183.467200727,None,funk,183.467200727,None,return,7.195338677999985,183.55054127100001,None,,,,,,,,,,,,,,,,,,,,,,,,,,,,,,,,,,,,,,,100,001,2023_May_16_1151,SpeechDraft1Carolyn_lessNoise_PlusLocalization,2021.2.3,59.99369226319105,
grace.wav,grace.mpg,grace,6,A,Pink_Noise_6_1.wav,Pink_Noise_6_2.wav,,,,,,,,,,,,,,,0,20,20,57,,,,,,,,,,,,,,,,,,,,,,,190.76773687099998,None,192.266893178,None,193.65049393999996,None,bridge,193.65049393999996,None,return,13.77206826500003,193.733883125,None,,,,,,,,,,,,,,,,,,,,,,,,,,,,,,,,,,,,,,,100,001,2023_May_16_1151,SpeechDraft1Carolyn_lessNoise_PlusLocalization,2021.2.3,59.99369226319105,
eight.wav,eight.mpg,eight,1,A,Pink_Noise_1_1.wav,Pink_Noise_1_2.wav,,,,,,,,,,,,,,,0,21,21,30,,,,,,,,,,,,,,,,,,,,,,,207.533874784,None,209.033642797,None,210.417270195,None,ate,210.417270195,None,return,2.6373833430000104,210.50050807299996,None,,,,,,,,,,,,,,,,,,,,,,,,,,,,,,,,,,,,,,,100,001,2023_May_16_1151,SpeechDraft1Carolyn_lessNoise_PlusLocalization,2021.2.3,59.99369226319105,
dial.wav,dial.mpg,dial,5,AV,Pink_Noise_5_1.wav,Pink_Noise_5_2.wav,,,,,,,,,,,,,,,0,22,22,95,,,,,,,,,,,,,,,,,,,,,,,213.16717436999997,None,214.66697715799998,None,216.050480169,None,dial,216.050480169,None,return,2.0760190500000135,216.133860253,None,,,,,,,,,,,,,,,,,,,,,,,,,,,,,,,,,,,,,,,100,001,2023_May_16_1151,SpeechDraft1Carolyn_lessNoise_PlusLocalization,2021.2.3,59.99369226319105,
bathe.wav,bathe.mpg,bathe,5,A,Pink_Noise_5_1.wav,Pink_Noise_5_2.wav,,,,,,,,,,,,,,,0,23,23,31,,,,,,,,,,,,,,,,,,,,,,,218.23388309999999,None,219.73354774499998,None,221.11722609299997,None,"the,
",221.11722609299997,None,return,7.369184254999993,221.200705747,None,,,,,,,,,,,,,,,,,,,,,,,,,,,,,,,,,,,,,,,100,001,2023_May_16_1151,SpeechDraft1Carolyn_lessNoise_PlusLocalization,2021.2.3,59.99369226319105,
fuse.wav,fuse.mpg,fuse,6,A,Pink_Noise_6_1.wav,Pink_Noise_6_2.wav,,,,,,,,,,,,,,,0,24,24,21,,,,,,,,,,,,,,,,,,,,,,,228.6005838,None,230.100331473,None,231.483896321,None,lake,231.483896321,None,return,4.0585886360000245,231.56728981399996,None,,,,,,,,,,,,,,,,,,,,,,,,,,,,,,,,,,,,,,,100,001,2023_May_16_1151,SpeechDraft1Carolyn_lessNoise_PlusLocalization,2021.2.3,59.99369226319105,
clock.wav,clock.mpg,clock,2,AV,Pink_Noise_2_1.wav,Pink_Noise_2_2.wav,,,,,,,,,,,,,,,0,25,25,61,,,,,,,,,,,,,,,,,,,,,,,235.650730585,None,237.15038312800002,None,238.533816891,None,clock,238.533816891,None,return,3.3047289990000195,238.617223726,None,,,,,,,,,,,,,,,,,,,,,,,,,,,,,,,,,,,,,,,100,001,2023_May_16_1151,SpeechDraft1Carolyn_lessNoise_PlusLocalization,2021.2.3,59.99369226319105,
vest.wav,vest.mpg,vest,5,AV,Pink_Noise_5_1.wav,Pink_Noise_5_2.wav,,,,,,,,,,,,,,,0,26,26,111,,,,,,,,,,,,,,,,,,,,,,,241.95075395,None,243.45040859399998,None,244.85054531899996,None,fast,244.85054531899996,None,return,3.3245763699999884,244.91731914,None,,,,,,,,,,,,,,,,,,,,,,,,,,,,,,,,,,,,,,,100,001,2023_May_16_1151,SpeechDraft1Carolyn_lessNoise_PlusLocalization,2021.2.3,59.99369226319105,
clash.wav,clash.mpg,clash,3,AV,Pink_Noise_3_1.wav,Pink_Noise_3_2.wav,,,,,,,,,,,,,,,0,27,27,119,,,,,,,,,,,,,,,,,,,,,,,248.267228877,None,249.75185349,None,251.133779187,None,clash,251.133779187,None,return,2.416638226000032,251.21727036000001,None,,,,,,,,,,,,,,,,,,,,,,,,,,,,,,,,,,,,,,,100,001,2023_May_16_1151,SpeechDraft1Carolyn_lessNoise_PlusLocalization,2021.2.3,59.99369226319105,
clutch.wav,clutch.mpg,clutch,1,AV,Pink_Noise_1_1.wav,Pink_Noise_1_2.wav,,,,,,,,,,,,,,,0,28,28,93,,,,,,,,,,,,,,,,,,,,,,,253.650601507,None,255.150369709,None,256.534005601,None,clutch,256.534005601,None,return,2.528483372999972,256.61740836,None,,,,,,,,,,,,,,,,,,,,,,,,,,,,,,,,,,,,,,,100,001,2023_May_16_1151,SpeechDraft1Carolyn_lessNoise_PlusLocalization,2021.2.3,59.99369226319105,
crowd.wav,crowd.mpg,crowd,5,A,Pink_Noise_5_1.wav,Pink_Noise_5_2.wav,,,,,,,,,,,,,,,0,29,29,0,,,,,,,,,,,,,,,,,,,,,,,259.16742585400004,None,260.666990811,None,262.050644334,None,fall,262.050644334,None,return,2.163913219000051,262.13399239,None,,,,,,,,,,,,,,,,,,,,,,,,,,,,,,,,,,,,,,,100,001,2023_May_16_1151,SpeechDraft1Carolyn_lessNoise_PlusLocalization,2021.2.3,59.99369226319105,
clog.wav,clog.mpg,clog,2,A,Pink_Noise_2_1.wav,Pink_Noise_2_2.wav,,,,,,,,,,,,,,,0,30,30,4,,,,,,,,,,,,,,,,,,,,,,,264.31731118100004,None,265.81702003299995,None,267.200550143,None,"clog
",267.200550143,None,return,2.117970057999969,267.28391631,None,,,,,,,,,,,,,,,,,,,,,,,,,,,,,,,,,,,,,,,100,001,2023_May_16_1151,SpeechDraft1Carolyn_lessNoise_PlusLocalization,2021.2.3,59.99369226319105,
blob.wav,blob.mpg,blob,4,A,Pink_Noise_4_1.wav,Pink_Noise_4_2.wav,,,,,,,,,,,,,,,0,31,31,9,,,,,,,,,,,,,,,,,,,,,,,269.43399161699995,None,270.91878976199996,None,272.30061686700003,None,fly,272.30061686700003,None,return,1.5380075770000303,272.383960095,None,,,,,,,,,,,,,,,,,,,,,,,,,,,,,,,,,,,,,,,100,001,2023_May_16_1151,SpeechDraft1Carolyn_lessNoise_PlusLocalization,2021.2.3,59.99369226319105,
crate.wav,crate.mpg,crate,5,A,Pink_Noise_5_1.wav,Pink_Noise_5_2.wav,,,,,,,,,,,,,,,0,32,32,10,,,,,,,,,,,,,,,,,,,,,,,273.950585155,None,275.436200483,None,276.81851549099997,None,"crait
",276.81851549099997,None,return,4.053224876000002,276.900684556,None,,,,,,,,,,,,,,,,,,,,,,,,,,,,,,,,,,,,,,,100,001,2023_May_16_1151,SpeechDraft1Carolyn_lessNoise_PlusLocalization,2021.2.3,59.99369226319105,
pride.wav,pride.mpg,pride,3,A,Pink_Noise_3_1.wav,Pink_Noise_3_2.wav,,,,,,,,,,,,,,,0,33,33,43,,,,,,,,,,,,,,,,,,,,,,,280.98402696100004,None,282.48381321299996,None,283.86735512199994,None,hide,283.86735512199994,None,return,5.723323622999942,283.95066641799997,None,,,,,,,,,,,,,,,,,,,,,,,,,,,,,,,,,,,,,,,100,001,2023_May_16_1151,SpeechDraft1Carolyn_lessNoise_PlusLocalization,2021.2.3,59.99369226319105,
brake.wav,brake.mpg,brake,2,A,Pink_Noise_2_1.wav,Pink_Noise_2_2.wav,,,,,,,,,,,,,,,0,34,34,16,,,,,,,,,,,,,,,,,,,,,,,289.700650753,None,291.200378203,None,292.58402988800003,None,"break
",292.58402988800003,None,return,2.5342551679999588,292.66761108700007,None,,,,,,,,,,,,,,,,,,,,,,,,,,,,,,,,,,,,,,,100,001,2023_May_16_1151,SpeechDraft1Carolyn_lessNoise_PlusLocalization,2021.2.3,59.99369226319105,
cell.wav,cell.mpg,cell,3,A,Pink_Noise_3_1.wav,Pink_Noise_3_2.wav,,,,,,,,,,,,,,,0,35,35,12,,,,,,,,,,,,,,,,,,,,,,,295.23399842900005,None,296.73407676600004,None,298.11780534700006,None,"sound
",298.11780534700006,None,return,6.385250214999928,298.200641473,None,,,,,,,,,,,,,,,,,,,,,,,,,,,,,,,,,,,,,,,100,001,2023_May_16_1151,SpeechDraft1Carolyn_lessNoise_PlusLocalization,2021.2.3,59.99369226319105,
foil.wav,foil.mpg,foil,1,A,Pink_Noise_1_1.wav,Pink_Noise_1_2.wav,,,,,,,,,,,,,,,0,36,36,1,,,,,,,,,,,,,,,,,,,,,,,304.617310976,None,306.117211665,None,307.500716365,None,"foil
",307.500716365,None,return,1.953662320000035,307.58422560200006,None,,,,,,,,,,,,,,,,,,,,,,,,,,,,,,,,,,,,,,,100,001,2023_May_16_1151,SpeechDraft1Carolyn_lessNoise_PlusLocalization,2021.2.3,59.99369226319105,
dim.wav,dim.mpg,dim,4,AV,Pink_Noise_4_1.wav,Pink_Noise_4_2.wav,,,,,,,,,,,,,,,0,37,37,106,,,,,,,,,,,,,,,,,,,,,,,309.56743963100007,None,311.067125735,None,312.45072028900006,None,gym,312.45072028900006,None,return,6.059870637000017,312.53400789500006,None,,,,,,,,,,,,,,,,,,,,,,,,,,,,,,,,,,,,,,,100,001,2023_May_16_1151,SpeechDraft1Carolyn_lessNoise_PlusLocalization,2021.2.3,59.99369226319105,
fat.wav,fat.mpg,fat,5,A,Pink_Noise_5_1.wav,Pink_Noise_5_2.wav,,,,,,,,,,,,,,,0,38,38,46,,,,,,,,,,,,,,,,,,,,,,,318.61737903100004,None,320.117059629,None,321.500684954,None,"catch
",321.500684954,None,return,4.617615400000091,321.58426360199996,None,,,,,,,,,,,,,,,,,,,,,,,,,,,,,,,,,,,,,,,100,001,2023_May_16_1151,SpeechDraft1Carolyn_lessNoise_PlusLocalization,2021.2.3,59.99369226319105,
bald.wav,bald.mpg,bald,4,A,Pink_Noise_4_1.wav,Pink_Noise_4_2.wav,,,,,,,,,,,,,,,0,39,39,2,,,,,,,,,,,,,,,,,,,,,,,326.234057248,None,327.73405468,None,329.117327996,None,bald,329.117327996,None,return,2.0652612650000037,329.200717446,None,,,,,,,,,,,,,,,,,,,,,,,,,,,,,,,,,,,,,,,100,001,2023_May_16_1151,SpeechDraft1Carolyn_lessNoise_PlusLocalization,2021.2.3,59.99369226319105,
bee.wav,bee.mpg,bee,1,A,Pink_Noise_1_1.wav,Pink_Noise_1_2.wav,,,,,,,,,,,,,,,0,40,40,36,,,,,,,,,,,,,,,,,,,,,,,331.284203437,None,332.783951095,None,334.16742441400004,None,"bee
",334.16742441400004,None,return,3.335119678999945,334.25075713,None,,,,,,,,,,,,,,,,,,,,,,,,,,,,,,,,,,,,,,,100,001,2023_May_16_1151,SpeechDraft1Carolyn_lessNoise_PlusLocalization,2021.2.3,59.99369226319105,
folk.wav,folk.mpg,folk,3,A,Pink_Noise_3_1.wav,Pink_Noise_3_2.wav,,,,,,,,,,,,,,,0,41,41,8,,,,,,,,,,,,,,,,,,,,,,,337.61746730900006,None,339.117186929,None,340.50071811500004,None,book,340.50071811500004,None,return,1.4818749629999957,340.584085124,None,,,,,,,,,,,,,,,,,,,,,,,,,,,,,,,,,,,,,,,100,001,2023_May_16_1151,SpeechDraft1Carolyn_lessNoise_PlusLocalization,2021.2.3,59.99369226319105,
bail.wav,bail.mpg,bail,5,A,Pink_Noise_5_1.wav,Pink_Noise_5_2.wav,,,,,,,,,,,,,,,0,42,42,48,,,,,,,,,,,,,,,,,,,,,,,342.084091327,None,343.569341497,None,344.96739535000006,None,band,344.96739535000006,None,return,3.983227720000059,345.050723704,None,,,,,,,,,,,,,,,,,,,,,,,,,,,,,,,,,,,,,,,100,001,2023_May_16_1151,SpeechDraft1Carolyn_lessNoise_PlusLocalization,2021.2.3,59.99369226319105,
creek.wav,creek.mpg,creek,2,A,Pink_Noise_2_1.wav,Pink_Noise_2_2.wav,,,,,,,,,,,,,,,0,43,43,32,,,,,,,,,,,,,,,,,,,,,,,349.05076168799997,None,350.55049424599997,None,351.93409881900004,None,creek,351.93409881900004,None,return,2.272409817000039,352.01761285500004,None,,,,,,,,,,,,,,,,,,,,,,,,,,,,,,,,,,,,,,,100,001,2023_May_16_1151,SpeechDraft1Carolyn_lessNoise_PlusLocalization,2021.2.3,59.99369226319105,
grow.wav,grow.mpg,grow,2,A,Pink_Noise_2_1.wav,Pink_Noise_2_2.wav,,,,,,,,,,,,,,,0,44,44,52,,,,,,,,,,,,,,,,,,,,,,,354.31738899900006,None,355.81701829100007,None,357.20079958200006,None,grow,357.20079958200006,None,return,2.157841695000002,357.284027464,None,,,,,,,,,,,,,,,,,,,,,,,,,,,,,,,,,,,,,,,100,001,2023_May_16_1151,SpeechDraft1Carolyn_lessNoise_PlusLocalization,2021.2.3,59.99369226319105,
fall.wav,fall.mpg,fall,2,AV,Pink_Noise_2_1.wav,Pink_Noise_2_2.wav,,,,,,,,,,,,,,,0,45,45,82,,,,,,,,,,,,,,,,,,,,,,,359.46745290399997,None,360.96716269600006,None,362.350783975,None,fall,362.350783975,None,return,1.615828620000002,362.43414509800004,None,,,,,,,,,,,,,,,,,,,,,,,,,,,,,,,,,,,,,,,100,001,2023_May_16_1151,SpeechDraft1Carolyn_lessNoise_PlusLocalization,2021.2.3,59.99369226319105,
bunch.wav,bunch.mpg,bunch,2,A,Pink_Noise_2_1.wav,Pink_Noise_2_2.wav,,,,,,,,,,,,,,,0,46,46,35,,,,,,,,,,,,,,,,,,,,,,,364.06743905200005,None,365.55197660199997,None,366.93407836899996,None,budge,366.93407836899996,None,return,2.4724636969999665,367.01746597500005,None,,,,,,,,,,,,,,,,,,,,,,,,,,,,,,,,,,,,,,,100,001,2023_May_16_1151,SpeechDraft1Carolyn_lessNoise_PlusLocalization,2021.2.3,59.99369226319105,
priest.wav,priest.mpg,priest,6,A,Pink_Noise_6_1.wav,Pink_Noise_6_2.wav,,,,,,,,,,,,,,,0,47,47,3,,,,,,,,,,,,,,,,,,,,,,,369.517407208,None,371.000987955,None,372.38408273699997,None,"see
",372.38408273699997,None,return,5.5184237029999395,372.46745673099997,None,,,,,,,,,,,,,,,,,,,,,,,,,,,,,,,,,,,,,,,100,001,2023_May_16_1151,SpeechDraft1Carolyn_lessNoise_PlusLocalization,2021.2.3,59.99369226319105,
drag.wav,drag.mpg,drag,1,A,Pink_Noise_1_1.wav,Pink_Noise_1_2.wav,,,,,,,,,,,,,,,0,48,48,33,,,,,,,,,,,,,,,,,,,,,,,378.017656528,None,379.517246647,None,380.90086100100007,None,drag,380.90086100100007,None,return,1.76183257699995,380.984069266,None,,,,,,,,,,,,,,,,,,,,,,,,,,,,,,,,,,,,,,,100,001,2023_May_16_1151,SpeechDraft1Carolyn_lessNoise_PlusLocalization,2021.2.3,59.99369226319105,
freeze.wav,freeze.mpg,freeze,5,A,Pink_Noise_5_1.wav,Pink_Noise_5_2.wav,,,,,,,,,,,,,,,0,49,49,24,,,,,,,,,,,,,,,,,,,,,,,382.76740249299996,None,384.267136651,None,385.65076385400005,None,creek,385.65076385400005,None,return,7.987644702000011,385.73423212500006,None,,,,,,,,,,,,,,,,,,,,,,,,,,,,,,,,,,,,,,,100,001,2023_May_16_1151,SpeechDraft1Carolyn_lessNoise_PlusLocalization,2021.2.3,59.99369226319105,
flea.wav,flea.mpg,flea,4,A,Pink_Noise_4_1.wav,Pink_Noise_4_2.wav,,,,,,,,,,,,,,,0,50,50,45,,,,,,,,,,,,,,,,,,,,,,,393.750846658,None,395.25064953900005,None,396.634130197,None,"flee
",396.634130197,None,return,2.284382321999942,396.717500741,None,,,,,,,,,,,,,,,,,,,,,,,,,,,,,,,,,,,,,,,100,001,2023_May_16_1151,SpeechDraft1Carolyn_lessNoise_PlusLocalization,2021.2.3,59.99369226319105,
dance.wav,dance.mpg,dance,2,AV,Pink_Noise_2_1.wav,Pink_Noise_2_2.wav,,,,,,,,,,,,,,,0,51,51,89,,,,,,,,,,,,,,,,,,,,,,,399.03419824700006,None,400.51930827700005,None,401.90075597400005,None,dance,401.90075597400005,None,return,1.809729501999982,401.984154332,None,,,,,,,,,,,,,,,,,,,,,,,,,,,,,,,,,,,,,,,100,001,2023_May_16_1151,SpeechDraft1Carolyn_lessNoise_PlusLocalization,2021.2.3,59.99369226319105,
thrown.wav,thrown.mpg,thrown,1,AV,Pink_Noise_1_1.wav,Pink_Noise_1_2.wav,,,,,,,,,,,,,,,0,52,52,114,,,,,,,,,,,,,,,,,,,,,,,403.81751201,None,405.334001276,None,406.717560088,None,throw,406.717560088,None,return,2.3930065119999426,406.800867637,None,,,,,,,,,,,,,,,,,,,,,,,,,,,,,,,,,,,,,,,100,001,2023_May_16_1151,SpeechDraft1Carolyn_lessNoise_PlusLocalization,2021.2.3,59.99369226319105,
drum.wav,drum.mpg,drum,6,AV,Pink_Noise_6_1.wav,Pink_Noise_6_2.wav,,,,,,,,,,,,,,,0,53,53,96,,,,,,,,,,,,,,,,,,,,,,,409.21748470600005,None,410.71718713999996,None,412.100791029,None,"drop
",412.100791029,None,return,1.6177924520000033,412.18407581400004,None,,,,,,,,,,,,,,,,,,,,,,,,,,,,,,,,,,,,,,,100,001,2023_May_16_1151,SpeechDraft1Carolyn_lessNoise_PlusLocalization,2021.2.3,59.99369226319105,
dense.wav,dense.mpg,dense,4,AV,Pink_Noise_4_1.wav,Pink_Noise_4_2.wav,,,,,,,,,,,,,,,0,54,54,88,,,,,,,,,,,,,,,,,,,,,,,413.83414176400004,None,415.3339991710001,None,416.717476346,None,damce,416.717476346,None,return,7.513151143000073,416.80081584900006,None,,,,,,,,,,,,,,,,,,,,,,,,,,,,,,,,,,,,,,,100,001,2023_May_16_1151,SpeechDraft1Carolyn_lessNoise_PlusLocalization,2021.2.3,59.99369226319105,
gap.wav,gap.mpg,gap,4,AV,Pink_Noise_4_1.wav,Pink_Noise_4_2.wav,,,,,,,,,,,,,,,0,55,55,86,,,,,,,,,,,,,,,,,,,,,,,424.334198625,None,425.834017397,None,427.217352751,None,gap,427.217352751,None,return,3.9571424130000423,427.300850199,None,,,,,,,,,,,,,,,,,,,,,,,,,,,,,,,,,,,,,,,100,001,2023_May_16_1151,SpeechDraft1Carolyn_lessNoise_PlusLocalization,2021.2.3,59.99369226319105,
crook.wav,crook.mpg,crook,1,AV,Pink_Noise_1_1.wav,Pink_Noise_1_2.wav,,,,,,,,,,,,,,,0,56,56,81,,,,,,,,,,,,,,,,,,,,,,,431.284251873,None,432.767941028,None,434.15096926,None,"crook
",434.15096926,None,return,1.9677294450000318,434.234159805,None,,,,,,,,,,,,,,,,,,,,,,,,,,,,,,,,,,,,,,,100,001,2023_May_16_1151,SpeechDraft1Carolyn_lessNoise_PlusLocalization,2021.2.3,59.99369226319105,
due.wav,due.mpg,due,4,A,Pink_Noise_4_1.wav,Pink_Noise_4_2.wav,,,,,,,,,,,,,,,0,57,57,6,,,,,,,,,,,,,,,,,,,,,,,436.23412861200006,None,437.733955743,None,439.117493952,None,zoo,439.117493952,None,return,2.776906419999932,439.20097801200006,None,,,,,,,,,,,,,,,,,,,,,,,,,,,,,,,,,,,,,,,100,001,2023_May_16_1151,SpeechDraft1Carolyn_lessNoise_PlusLocalization,2021.2.3,59.99369226319105,
dive.wav,dive.mpg,dive,6,AV,Pink_Noise_6_1.wav,Pink_Noise_6_2.wav,,,,,,,,,,,,,,,0,58,58,92,,,,,,,,,,,,,,,,,,,,,,,442.00110318200007,None,443.53402667600005,None,444.917722388,None,dive,444.917722388,None,return,2.808642182999961,445.00124315900007,None,,,,,,,,,,,,,,,,,,,,,,,,,,,,,,,,,,,,,,,100,001,2023_May_16_1151,SpeechDraft1Carolyn_lessNoise_PlusLocalization,2021.2.3,59.99369226319105,
gab.wav,gab.mpg,gab,5,A,Pink_Noise_5_1.wav,Pink_Noise_5_2.wav,,,,,,,,,,,,,,,0,59,59,58,,,,,,,,,,,,,,,,,,,,,,,447.834402736,None,449.33386797800006,None,450.71772086500005,None,gap,450.71772086500005,None,return,1.8808603399999129,450.801025914,None,,,,,,,,,,,,,,,,,,,,,,,,,,,,,,,,,,,,,,,100,001,2023_May_16_1151,SpeechDraft1Carolyn_lessNoise_PlusLocalization,2021.2.3,59.99369226319105,
chain.wav,chain.mpg,chain,5,A,Pink_Noise_5_1.wav,Pink_Noise_5_2.wav,,,,,,,,,,,,,,,0,60,60,49,,,,,,,,,,,,,,,,,,,,,,,452.70088185200007,None,454.20078347800006,None,455.584150882,None,change,455.584150882,None,return,2.7100975560000506,455.66778952000004,None,,,,,,,,,,,,,,,,,,,,,,,,,,,,,,,,,,,,,,,100,001,2023_May_16_1151,SpeechDraft1Carolyn_lessNoise_PlusLocalization,2021.2.3,59.99369226319105,
dead.wav,dead.mpg,dead,2,AV,Pink_Noise_2_1.wav,Pink_Noise_2_2.wav,,,,,,,,,,,,,,,0,61,61,71,,,,,,,,,,,,,,,,,,,,,,,458.401140402,None,459.90232408300005,None,461.284357056,None,dead,461.284357056,None,return,2.578058628000008,461.367829725,None,,,,,,,,,,,,,,,,,,,,,,,,,,,,,,,,,,,,,,,100,001,2023_May_16_1151,SpeechDraft1Carolyn_lessNoise_PlusLocalization,2021.2.3,59.99369226319105,
glow.wav,glow.mpg,glow,2,AV,Pink_Noise_2_1.wav,Pink_Noise_2_2.wav,,,,,,,,,,,,,,,0,62,62,94,,,,,,,,,,,,,,,,,,,,,,,463.96773670900006,None,465.48442596000007,None,466.86768500200003,None,glow,466.86768500200003,None,return,1.9470833139999968,466.950947003,None,,,,,,,,,,,,,,,,,,,,,,,,,,,,,,,,,,,,,,,100,001,2023_May_16_1151,SpeechDraft1Carolyn_lessNoise_PlusLocalization,2021.2.3,59.99369226319105,
jeep.wav,jeep.mpg,jeep,5,AV,Pink_Noise_5_1.wav,Pink_Noise_5_2.wav,,,,,,,,,,,,,,,0,63,63,98,,,,,,,,,,,,,,,,,,,,,,,468.9177614270001,None,470.434144919,None,471.817524617,None,jeep,471.817524617,None,return,2.19690356600006,471.90111067400005,None,,,,,,,,,,,,,,,,,,,,,,,,,,,,,,,,,,,,,,,100,001,2023_May_16_1151,SpeechDraft1Carolyn_lessNoise_PlusLocalization,2021.2.3,59.99369226319105,
clue.wav,clue.mpg,clue,6,A,Pink_Noise_6_1.wav,Pink_Noise_6_2.wav,,,,,,,,,,,,,,,0,64,64,27,,,,,,,,,,,,,,,,,,,,,,,474.11743551899997,None,475.634194437,None,477.01755042700006,None,see,477.01755042700006,None,return,1.0449654159999682,477.10092028400004,None,,,,,,,,,,,,,,,,,,,,,,,,,,,,,,,,,,,,,,,100,001,2023_May_16_1151,SpeechDraft1Carolyn_lessNoise_PlusLocalization,2021.2.3,59.99369226319105,
dull.wav,dull.mpg,dull,4,AV,Pink_Noise_4_1.wav,Pink_Noise_4_2.wav,,,,,,,,,,,,,,,0,65,65,69,,,,,,,,,,,,,,,,,,,,,,,478.16760075,None,479.66733711300003,None,481.05085606299997,None,"dull
",481.05085606299997,None,return,4.219567479000034,481.13430697,None,,,,,,,,,,,,,,,,,,,,,,,,,,,,,,,,,,,,,,,100,001,2023_May_16_1151,SpeechDraft1Carolyn_lessNoise_PlusLocalization,2021.2.3,59.99369226319105,
desk.wav,desk.mpg,desk,6,AV,Pink_Noise_6_1.wav,Pink_Noise_6_2.wav,,,,,,,,,,,,,,,0,66,66,83,,,,,,,,,,,,,,,,,,,,,,,485.38430085100003,None,486.884009901,None,488.267592884,None,zen,488.267592884,None,return,5.530924327999969,488.35102164500006,None,,,,,,,,,,,,,,,,,,,,,,,,,,,,,,,,,,,,,,,100,001,2023_May_16_1151,SpeechDraft1Carolyn_lessNoise_PlusLocalization,2021.2.3,59.99369226319105,
sue.wav,sue.mpg,sue,5,A,Pink_Noise_5_1.wav,Pink_Noise_5_2.wav,,,,,,,,,,,,,,,0,67,67,50,,,,,,,,,,,,,,,,,,,,,,,493.90093652100006,None,495.40073774100006,None,496.7842492770001,None,sue,496.7842492770001,None,return,1.6142202350000616,496.867676846,None,,,,,,,,,,,,,,,,,,,,,,,,,,,,,,,,,,,,,,,100,001,2023_May_16_1151,SpeechDraft1Carolyn_lessNoise_PlusLocalization,2021.2.3,59.99369226319105,
chunk.wav,chunk.mpg,chunk,4,A,Pink_Noise_4_1.wav,Pink_Noise_4_2.wav,,,,,,,,,,,,,,,0,68,68,44,,,,,,,,,,,,,,,,,,,,,,,498.50094221200004,None,500.00070880300007,None,501.38425949400005,None,chunk,501.38425949400005,None,return,5.726270589000023,501.46760038800005,None,,,,,,,,,,,,,,,,,,,,,,,,,,,,,,,,,,,,,,,100,001,2023_May_16_1151,SpeechDraft1Carolyn_lessNoise_PlusLocalization,2021.2.3,59.99369226319105,
egg.wav,egg.mpg,egg,6,A,Pink_Noise_6_1.wav,Pink_Noise_6_2.wav,,,,,,,,,,,,,,,0,69,69,34,,,,,,,,,,,,,,,,,,,,,,,507.21749762600007,None,508.717588914,None,510.10088364700005,None,help,510.10088364700005,None,return,3.921553094999922,510.184404834,None,,,,,,,,,,,,,,,,,,,,,,,,,,,,,,,,,,,,,,,100,001,2023_May_16_1151,SpeechDraft1Carolyn_lessNoise_PlusLocalization,2021.2.3,59.99369226319105,
fill.wav,fill.mpg,fill,5,AV,Pink_Noise_5_1.wav,Pink_Noise_5_2.wav,,,,,,,,,,,,,,,0,70,70,109,,,,,,,,,,,,,,,,,,,,,,,514.134261517,None,515.6341065820001,None,517.017626958,None,fill,517.017626958,None,return,1.524860794999995,517.100988914,None,,,,,,,,,,,,,,,,,,,,,,,,,,,,,,,,,,,,,,,100,001,2023_May_16_1151,SpeechDraft1Carolyn_lessNoise_PlusLocalization,2021.2.3,59.99369226319105,
globe.wav,globe.mpg,globe,3,A,Pink_Noise_3_1.wav,Pink_Noise_3_2.wav,,,,,,,,,,,,,,,0,71,71,7,,,,,,,,,,,,,,,,,,,,,,,518.651035384,None,520.150853807,None,521.534314319,None,"globe
",521.534314319,None,return,1.984227586999964,521.617648443,None,,,,,,,,,,,,,,,,,,,,,,,,,,,,,,,,,,,,,,,100,001,2023_May_16_1151,SpeechDraft1Carolyn_lessNoise_PlusLocalization,2021.2.3,59.99369226319105,
else.wav,else.mpg,else,2,AV,Pink_Noise_2_1.wav,Pink_Noise_2_2.wav,,,,,,,,,,,,,,,0,72,72,64,,,,,,,,,,,,,,,,,,,,,,,523.6343026870001,None,525.13410048,None,526.517580734,None,else,526.517580734,None,return,4.064867364000065,526.6011195,None,,,,,,,,,,,,,,,,,,,,,,,,,,,,,,,,,,,,,,,100,001,2023_May_16_1151,SpeechDraft1Carolyn_lessNoise_PlusLocalization,2021.2.3,59.99369226319105,
dream.wav,dream.mpg,dream,2,AV,Pink_Noise_2_1.wav,Pink_Noise_2_2.wav,,,,,,,,,,,,,,,0,73,73,112,,,,,,,,,,,,,,,,,,,,,,,530.684428961,None,532.1841698850001,None,533.567532409,None,"dream
",533.567532409,None,return,1.966998907000061,533.6508861,None,,,,,,,,,,,,,,,,,,,,,,,,,,,,,,,,,,,,,,,100,001,2023_May_16_1151,SpeechDraft1Carolyn_lessNoise_PlusLocalization,2021.2.3,59.99369226319105,
dark.wav,dark.mpg,dark,5,AV,Pink_Noise_5_1.wav,Pink_Noise_5_2.wav,,,,,,,,,,,,,,,0,74,74,103,,,,,,,,,,,,,,,,,,,,,,,535.651057837,None,537.150785988,None,538.53422948,None,dog,538.53422948,None,return,2.664195937000045,538.617687913,None,,,,,,,,,,,,,,,,,,,,,,,,,,,,,,,,,,,,,,,100,001,2023_May_16_1151,SpeechDraft1Carolyn_lessNoise_PlusLocalization,2021.2.3,59.99369226319105,
bar.wav,bar.mpg,bar,1,AV,Pink_Noise_1_1.wav,Pink_Noise_1_2.wav,,,,,,,,,,,,,,,0,75,75,62,,,,,,,,,,,,,,,,,,,,,,,541.301086672,None,542.800764027,None,544.184271823,None,bar,544.184271823,None,return,1.7663063500000362,544.267707412,None,,,,,,,,,,,,,,,,,,,,,,,,,,,,,,,,,,,,,,,100,001,2023_May_16_1151,SpeechDraft1Carolyn_lessNoise_PlusLocalization,2021.2.3,59.99369226319105,
cope.wav,cope.mpg,cope,1,AV,Pink_Noise_1_1.wav,Pink_Noise_1_2.wav,,,,,,,,,,,,,,,0,76,76,85,,,,,,,,,,,,,,,,,,,,,,,546.051048131,None,547.550808185,None,548.9343075620001,None,cope,548.9343075620001,None,return,2.608175200000005,549.01771427,None,,,,,,,,,,,,,,,,,,,,,,,,,,,,,,,,,,,,,,,100,001,2023_May_16_1151,SpeechDraft1Carolyn_lessNoise_PlusLocalization,2021.2.3,59.99369226319105,
built.wav,built.mpg,built,6,AV,Pink_Noise_6_1.wav,Pink_Noise_6_2.wav,,,,,,,,,,,,,,,0,77,77,97,,,,,,,,,,,,,,,,,,,,,,,551.6510522570001,None,553.1507888570001,None,554.534454867,None,bit,554.534454867,None,return,2.3041635199999746,554.617737686,None,,,,,,,,,,,,,,,,,,,,,,,,,,,,,,,,,,,,,,,100,001,2023_May_16_1151,SpeechDraft1Carolyn_lessNoise_PlusLocalization,2021.2.3,59.99369226319105,
stove.wav,stove.mpg,stove,2,AV,Pink_Noise_2_1.wav,Pink_Noise_2_2.wav,,,,,,,,,,,,,,,0,78,78,104,,,,,,,,,,,,,,,,,,,,,,,556.951342085,None,558.450906045,None,559.834323719,None,stove,559.834323719,None,return,2.460188386000027,559.91768257,None,,,,,,,,,,,,,,,,,,,,,,,,,,,,,,,,,,,,,,,100,001,2023_May_16_1151,SpeechDraft1Carolyn_lessNoise_PlusLocalization,2021.2.3,59.99369226319105,
grind.wav,grind.mpg,grind,5,AV,Pink_Noise_5_1.wav,Pink_Noise_5_2.wav,,,,,,,,,,,,,,,0,79,79,72,,,,,,,,,,,,,,,,,,,,,,,562.401183273,None,563.900941714,None,565.284330511,None,dry,565.284330511,None,return,3.1781553000000713,565.367716444,None,,,,,,,,,,,,,,,,,,,,,,,,,,,,,,,,,,,,,,,100,001,2023_May_16_1151,SpeechDraft1Carolyn_lessNoise_PlusLocalization,2021.2.3,59.99369226319105,
dumb.wav,dumb.mpg,dumb,1,AV,Pink_Noise_1_1.wav,Pink_Noise_1_2.wav,,,,,,,,,,,,,,,0,80,80,84,,,,,,,,,,,,,,,,,,,,,,,568.567718078,None,570.067653963,None,571.451116448,None,"dumb
",571.451116448,None,return,2.2674271490000137,571.534458691,None,,,,,,,,,,,,,,,,,,,,,,,,,,,,,,,,,,,,,,,100,001,2023_May_16_1151,SpeechDraft1Carolyn_lessNoise_PlusLocalization,2021.2.3,59.99369226319105,
dusk.wav,dusk.mpg,dusk,6,AV,Pink_Noise_6_1.wav,Pink_Noise_6_2.wav,,,,,,,,,,,,,,,0,81,81,118,,,,,,,,,,,,,,,,,,,,,,,573.8343938200001,None,575.334146382,None,576.717815417,None,"dust
",576.717815417,None,return,2.1369101120000096,576.8009639200001,None,,,,,,,,,,,,,,,,,,,,,,,,,,,,,,,,,,,,,,,100,001,2023_May_16_1151,SpeechDraft1Carolyn_lessNoise_PlusLocalization,2021.2.3,59.99369226319105,
glare.wav,glare.mpg,glare,3,AV,Pink_Noise_3_1.wav,Pink_Noise_3_2.wav,,,,,,,,,,,,,,,0,82,82,115,,,,,,,,,,,,,,,,,,,,,,,578.967793109,None,580.467612257,None,581.851070767,None,glare,581.851070767,None,return,2.2275156140000263,581.934400765,None,,,,,,,,,,,,,,,,,,,,,,,,,,,,,,,,,,,,,,,100,001,2023_May_16_1151,SpeechDraft1Carolyn_lessNoise_PlusLocalization,2021.2.3,59.99369226319105,
guilt.wav,guilt.mpg,guilt,3,AV,Pink_Noise_3_1.wav,Pink_Noise_3_2.wav,,,,,,,,,,,,,,,0,83,83,70,,,,,,,,,,,,,,,,,,,,,,,584.184545569,None,585.6841982130001,None,587.067711452,None,"guilt
",587.067711452,None,return,8.266801563999934,587.151071936,None,,,,,,,,,,,,,,,,,,,,,,,,,,,,,,,,,,,,,,,100,001,2023_May_16_1151,SpeechDraft1Carolyn_lessNoise_PlusLocalization,2021.2.3,59.99369226319105,
faith.wav,faith.mpg,faith,3,A,Pink_Noise_3_1.wav,Pink_Noise_3_2.wav,,,,,,,,,,,,,,,0,84,84,42,,,,,,,,,,,,,,,,,,,,,,,595.451117077,None,596.950797585,None,598.334422072,None,hey,598.334422072,None,return,3.6722603739999613,598.417795396,None,,,,,,,,,,,,,,,,,,,,,,,,,,,,,,,,,,,,,,,100,001,2023_May_16_1151,SpeechDraft1Carolyn_lessNoise_PlusLocalization,2021.2.3,59.99369226319105,
pledge.wav,pledge.mpg,pledge,3,A,Pink_Noise_3_1.wav,Pink_Noise_3_2.wav,,,,,,,,,,,,,,,0,85,85,47,,,,,,,,,,,,,,,,,,,,,,,602.117796536,None,603.617558858,None,605.001105808,None,ledge,605.001105808,None,return,2.0934937829999853,605.084402109,None,,,,,,,,,,,,,,,,,,,,,,,,,,,,,,,,,,,,,,,100,001,2023_May_16_1151,SpeechDraft1Carolyn_lessNoise_PlusLocalization,2021.2.3,59.99369226319105,
bride.wav,bride.mpg,bride,4,AV,Pink_Noise_4_1.wav,Pink_Noise_4_2.wav,,,,,,,,,,,,,,,0,86,86,77,,,,,,,,,,,,,,,,,,,,,,,607.201066317,None,608.700875583,None,610.0844382610001,None,"ride
",610.0844382610001,None,return,2.6018710689999125,610.167995177,None,,,,,,,,,,,,,,,,,,,,,,,,,,,,,,,,,,,,,,,100,001,2023_May_16_1151,SpeechDraft1Carolyn_lessNoise_PlusLocalization,2021.2.3,59.99369226319105,
flick.wav,flick.mpg,flick,1,A,Pink_Noise_1_1.wav,Pink_Noise_1_2.wav,,,,,,,,,,,,,,,0,87,87,25,,,,,,,,,,,,,,,,,,,,,,,612.801146572,None,614.301028463,None,615.684421068,None,flick,615.684421068,None,return,1.898099350999928,615.767814575,None,,,,,,,,,,,,,,,,,,,,,,,,,,,,,,,,,,,,,,,100,001,2023_May_16_1151,SpeechDraft1Carolyn_lessNoise_PlusLocalization,2021.2.3,59.99369226319105,
fleet.wav,fleet.mpg,fleet,2,A,Pink_Noise_2_1.wav,Pink_Noise_2_2.wav,,,,,,,,,,,,,,,0,88,88,19,,,,,,,,,,,,,,,,,,,,,,,617.684445837,None,619.184176847,None,620.567712305,None,"fleet
",620.567712305,None,return,2.1506248100000676,620.651237531,None,,,,,,,,,,,,,,,,,,,,,,,,,,,,,,,,,,,,,,,100,001,2023_May_16_1151,SpeechDraft1Carolyn_lessNoise_PlusLocalization,2021.2.3,59.99369226319105,
jam.wav,jam.mpg,jam,4,AV,Pink_Noise_4_1.wav,Pink_Noise_4_2.wav,,,,,,,,,,,,,,,0,89,89,90,,,,,,,,,,,,,,,,,,,,,,,622.834614947,None,624.334191834,None,625.717836979,None,jam,625.717836979,None,return,1.6408729600000242,625.8010872570001,None,,,,,,,,,,,,,,,,,,,,,,,,,,,,,,,,,,,,,,,100,001,2023_May_16_1151,SpeechDraft1Carolyn_lessNoise_PlusLocalization,2021.2.3,59.99369226319105,
dare.wav,dare.mpg,dare,4,AV,Pink_Noise_4_1.wav,Pink_Noise_4_2.wav,,,,,,,,,,,,,,,0,90,90,105,,,,,,,,,,,,,,,,,,,,,,,627.467861612,None,628.96770482,None,630.3510034550001,None,stair,630.3510034550001,None,return,5.431470234000017,630.434444935,None,,,,,,,,,,,,,,,,,,,,,,,,,,,,,,,,,,,,,,,100,001,2023_May_16_1151,SpeechDraft1Carolyn_lessNoise_PlusLocalization,2021.2.3,59.99369226319105,
dip.wav,dip.mpg,dip,3,A,Pink_Noise_3_1.wav,Pink_Noise_3_2.wav,,,,,,,,,,,,,,,0,91,91,15,,,,,,,,,,,,,,,,,,,,,,,635.884512172,None,637.384203027,None,638.767749998,None,"dip
",638.767749998,None,return,1.534645437999984,638.8512759710001,None,,,,,,,,,,,,,,,,,,,,,,,,,,,,,,,,,,,,,,,100,001,2023_May_16_1151,SpeechDraft1Carolyn_lessNoise_PlusLocalization,2021.2.3,59.99369226319105,
beg.wav,beg.mpg,beg,1,AV,Pink_Noise_1_1.wav,Pink_Noise_1_2.wav,,,,,,,,,,,,,,,0,92,92,67,,,,,,,,,,,,,,,,,,,,,,,640.4178753680001,None,641.917589753,None,643.301107351,None,beg,643.301107351,None,return,1.513499396000043,643.384445124,None,,,,,,,,,,,,,,,,,,,,,,,,,,,,,,,,,,,,,,,100,001,2023_May_16_1151,SpeechDraft1Carolyn_lessNoise_PlusLocalization,2021.2.3,59.99369226319105,
eel.wav,eel.mpg,eel,2,A,Pink_Noise_2_1.wav,Pink_Noise_2_2.wav,,,,,,,,,,,,,,,0,93,93,37,,,,,,,,,,,,,,,,,,,,,,,644.917875526,None,646.417667545,None,647.801225255,None,eel,647.801225255,None,return,1.3655055210000455,647.884461448,None,,,,,,,,,,,,,,,,,,,,,,,,,,,,,,,,,,,,,,,100,001,2023_May_16_1151,SpeechDraft1Carolyn_lessNoise_PlusLocalization,2021.2.3,59.99369226319105,
bull.wav,bull.mpg,bull,4,A,Pink_Noise_4_1.wav,Pink_Noise_4_2.wav,,,,,,,,,,,,,,,0,94,94,17,,,,,,,,,,,,,,,,,,,,,,,649.267848579,None,650.767607137,None,652.151221459,None,"flow
",652.151221459,None,return,2.151385258999994,652.234495757,None,,,,,,,,,,,,,,,,,,,,,,,,,,,,,,,,,,,,,,,100,001,2023_May_16_1151,SpeechDraft1Carolyn_lessNoise_PlusLocalization,2021.2.3,59.99369226319105,
bass.wav,bass.mpg,bass,1,A,Pink_Noise_1_1.wav,Pink_Noise_1_2.wav,,,,,,,,,,,,,,,0,95,95,22,,,,,,,,,,,,,,,,,,,,,,,654.418013138,None,655.9177207600001,None,657.3012821670001,None,base,657.3012821670001,None,return,1.1774255650000214,657.384463512,None,,,,,,,,,,,,,,,,,,,,,,,,,,,,,,,,,,,,,,,100,001,2023_May_16_1151,SpeechDraft1Carolyn_lessNoise_PlusLocalization,2021.2.3,59.99369226319105,
east.wav,east.mpg,east,2,AV,Pink_Noise_2_1.wav,Pink_Noise_2_2.wav,,,,,,,,,,,,,,,0,96,96,80,,,,,,,,,,,,,,,,,,,,,,,658.5845428060001,None,660.0842844370001,None,661.467810975,None,east,661.467810975,None,return,1.6988068760000488,661.551184359,None,,,,,,,,,,,,,,,,,,,,,,,,,,,,,,,,,,,,,,,100,001,2023_May_16_1151,SpeechDraft1Carolyn_lessNoise_PlusLocalization,2021.2.3,59.99369226319105,
dress.wav,dress.mpg,dress,1,AV,Pink_Noise_1_1.wav,Pink_Noise_1_2.wav,,,,,,,,,,,,,,,0,97,97,66,,,,,,,,,,,,,,,,,,,,,,,663.267808312,None,664.767612257,None,666.151095744,None,dress,666.151095744,None,return,3.2394812479999473,666.234498327,None,,,,,,,,,,,,,,,,,,,,,,,,,,,,,,,,,,,,,,,100,001,2023_May_16_1151,SpeechDraft1Carolyn_lessNoise_PlusLocalization,2021.2.3,59.99369226319105,
read.wav,read.mpg,read,1,A,Pink_Noise_1_1.wav,Pink_Noise_1_2.wav,,,,,,,,,,,,,,,0,98,98,5,,,,,,,,,,,,,,,,,,,,,,,669.5013649580001,None,671.000941451,None,672.384531156,None,read,672.384531156,None,return,1.0139008180000246,672.4679907990001,None,,,,,,,,,,,,,,,,,,,,,,,,,,,,,,,,,,,,,,,100,001,2023_May_16_1151,SpeechDraft1Carolyn_lessNoise_PlusLocalization,2021.2.3,59.99369226319105,
ear.wav,ear.mpg,ear,2,A,Pink_Noise_2_1.wav,Pink_Noise_2_2.wav,,,,,,,,,,,,,,,0,99,99,11,,,,,,,,,,,,,,,,,,,,,,,673.501278223,None,675.001108381,None,676.38457778,None,ear,676.38457778,None,return,1.0779605730000412,676.467901524,None,,,,,,,,,,,,,,,,,,,,,,,,,,,,,,,,,,,,,,,100,001,2023_May_16_1151,SpeechDraft1Carolyn_lessNoise_PlusLocalization,2021.2.3,59.99369226319105,
fond.wav,fond.mpg,fond,5,AV,Pink_Noise_5_1.wav,Pink_Noise_5_2.wav,,,,,,,,,,,,,,,0,100,100,74,,,,,,,,,,,,,,,,,,,,,,,677.567923866,None,679.067644274,None,680.4511949380001,None,bye,680.4511949380001,None,return,1.9234179009999934,680.534545683,None,,,,,,,,,,,,,,,,,,,,,,,,,,,,,,,,,,,,,,,100,001,2023_May_16_1151,SpeechDraft1Carolyn_lessNoise_PlusLocalization,2021.2.3,59.99369226319105,
bath.wav,bath.mpg,bath,2,AV,Pink_Noise_2_1.wav,Pink_Noise_2_2.wav,,,,,,,,,,,,,,,0,101,101,68,,,,,,,,,,,,,,,,,,,,,,,682.4844756360001,None,683.984218358,None,685.367807997,None,bath,685.367807997,None,return,1.3827411380000285,685.451267194,None,,,,,,,,,,,,,,,,,,,,,,,,,,,,,,,,,,,,,,,100,001,2023_May_16_1151,SpeechDraft1Carolyn_lessNoise_PlusLocalization,2021.2.3,59.99369226319105,
ton.wav,ton.mpg,ton,3,AV,Pink_Noise_3_1.wav,Pink_Noise_3_2.wav,,,,,,,,,,,,,,,0,102,102,75,,,,,,,,,,,,,,,,,,,,,,,686.85122392,None,688.351876082,None,689.73469357,None,ton,689.73469357,None,return,2.4481007310000678,689.8178078980001,None,,,,,,,,,,,,,,,,,,,,,,,,,,,,,,,,,,,,,,,100,001,2023_May_16_1151,SpeechDraft1Carolyn_lessNoise_PlusLocalization,2021.2.3,59.99369226319105,
bark.wav,bark.mpg,bark,2,A,Pink_Noise_2_1.wav,Pink_Noise_2_2.wav,,,,,,,,,,,,,,,0,103,103,13,,,,,,,,,,,,,,,,,,,,,,,692.284483579,None,693.7843528450001,None,695.167893691,None,bark,695.167893691,None,return,1.078545714000029,695.251341903,None,,,,,,,,,,,,,,,,,,,,,,,,,,,,,,,,,,,,,,,100,001,2023_May_16_1151,SpeechDraft1Carolyn_lessNoise_PlusLocalization,2021.2.3,59.99369226319105,
shrimp.wav,shrimp.mpg,shrimp,5,AV,Pink_Noise_5_1.wav,Pink_Noise_5_2.wav,,,,,,,,,,,,,,,0,104,104,76,,,,,,,,,,,,,,,,,,,,,,,696.351205591,None,697.8510003370001,None,699.234524942,None,"shrimp
",699.234524942,None,return,2.020004080000035,699.3179007470001,None,,,,,,,,,,,,,,,,,,,,,,,,,,,,,,,,,,,,,,,100,001,2023_May_16_1151,SpeechDraft1Carolyn_lessNoise_PlusLocalization,2021.2.3,59.99369226319105,
dot.wav,dot.mpg,dot,3,A,Pink_Noise_3_1.wav,Pink_Noise_3_2.wav,,,,,,,,,,,,,,,0,105,105,14,,,,,,,,,,,,,,,,,,,,,,,701.3680723140001,None,702.867624548,None,704.251365199,None,"dot
",704.251365199,None,return,3.403249503999973,704.334632261,None,,,,,,,,,,,,,,,,,,,,,,,,,,,,,,,,,,,,,,,100,001,2023_May_16_1151,SpeechDraft1Carolyn_lessNoise_PlusLocalization,2021.2.3,59.99369226319105,
barge.wav,barge.mpg,barge,1,A,Pink_Noise_1_1.wav,Pink_Noise_1_2.wav,,,,,,,,,,,,,,,0,106,106,54,,,,,,,,,,,,,,,,,,,,,,,707.767924031,None,709.267740612,None,710.651196903,None,barge,710.651196903,None,return,1.7633744869999646,710.7345933610001,None,,,,,,,,,,,,,,,,,,,,,,,,,,,,,,,,,,,,,,,100,001,2023_May_16_1151,SpeechDraft1Carolyn_lessNoise_PlusLocalization,2021.2.3,59.99369226319105,
groan.wav,groan.mpg,groan,6,A,Pink_Noise_6_1.wav,Pink_Noise_6_2.wav,,,,,,,,,,,,,,,0,107,107,56,,,,,,,,,,,,,,,,,,,,,,,712.5179303470001,None,714.017734259,None,715.401268268,None,"row
",715.401268268,None,return,0.9172487829999909,715.48463431,None,,,,,,,,,,,,,,,,,,,,,,,,,,,,,,,,,,,,,,,100,001,2023_May_16_1151,SpeechDraft1Carolyn_lessNoise_PlusLocalization,2021.2.3,59.99369226319105,
bland.wav,bland.mpg,bland,5,AV,Pink_Noise_5_1.wav,Pink_Noise_5_2.wav,,,,,,,,,,,,,,,0,108,108,91,,,,,,,,,,,,,,,,,,,,,,,716.434691635,None,717.934821932,None,719.317866387,None,bland,719.317866387,None,return,1.9606357879999905,719.401286607,None,,,,,,,,,,,,,,,,,,,,,,,,,,,,,,,,,,,,,,,100,001,2023_May_16_1151,SpeechDraft1Carolyn_lessNoise_PlusLocalization,2021.2.3,59.99369226319105,
warmth.wav,warmth.mpg,warmth,3,AV,Pink_Noise_3_1.wav,Pink_Noise_3_2.wav,,,,,,,,,,,,,,,0,109,109,107,,,,,,,,,,,,,,,,,,,,,,,721.384568664,None,722.884489969,None,724.267933975,None,warmth,724.267933975,None,return,3.4987277120000044,724.3512459350001,None,,,,,,,,,,,,,,,,,,,,,,,,,,,,,,,,,,,,,,,100,001,2023_May_16_1151,SpeechDraft1Carolyn_lessNoise_PlusLocalization,2021.2.3,59.99369226319105,
bend.wav,bend.mpg,bend,2,A,Pink_Noise_2_1.wav,Pink_Noise_2_2.wav,,,,,,,,,,,,,,,0,110,110,20,,,,,,,,,,,,,,,,,,,,,,,727.867913561,None,729.367729284,None,730.7512801500001,None,bed,730.7512801500001,None,return,1.2312313620000168,730.834651967,None,,,,,,,,,,,,,,,,,,,,,,,,,,,,,,,,,,,,,,,100,001,2023_May_16_1151,SpeechDraft1Carolyn_lessNoise_PlusLocalization,2021.2.3,59.99369226319105,
beach.wav,beach.mpg,beach,6,AV,Pink_Noise_6_1.wav,Pink_Noise_6_2.wav,,,,,,,,,,,,,,,0,111,111,116,,,,,,,,,,,,,,,,,,,,,,,732.084787024,None,733.584305245,None,734.96790394,None,beach,734.96790394,None,return,3.2627061599999934,735.051194119,None,,,,,,,,,,,,,,,,,,,,,,,,,,,,,,,,,,,,,,,100,001,2023_May_16_1151,SpeechDraft1Carolyn_lessNoise_PlusLocalization,2021.2.3,59.99369226319105,
grain.wav,grain.mpg,grain,4,AV,Pink_Noise_4_1.wav,Pink_Noise_4_2.wav,,,,,,,,,,,,,,,0,112,112,113,,,,,,,,,,,,,,,,,,,,,,,738.3346063920001,None,739.8347752560001,None,741.218071259,None,grain,741.218071259,None,return,8.740668144999972,741.301297165,None,,,,,,,,,,,,,,,,,,,,,,,,,,,,,,,,,,,,,,,100,001,2023_May_16_1151,SpeechDraft1Carolyn_lessNoise_PlusLocalization,2021.2.3,59.99369226319105,
fresh.wav,fresh.mpg,fresh,4,AV,Pink_Noise_4_1.wav,Pink_Noise_4_2.wav,,,,,,,,,,,,,,,0,113,113,117,,,,,,,,,,,,,,,,,,,,,,,750.067974995,None,751.5685683510001,None,752.951392015,None,fresh,752.951392015,None,return,3.175187225000059,753.034683817,None,,,,,,,,,,,,,,,,,,,,,,,,,,,,,,,,,,,,,,,100,001,2023_May_16_1151,SpeechDraft1Carolyn_lessNoise_PlusLocalization,2021.2.3,59.99369226319105,
belt.wav,belt.mpg,belt,3,AV,Pink_Noise_3_1.wav,Pink_Noise_3_2.wav,,,,,,,,,,,,,,,0,114,114,110,,,,,,,,,,,,,,,,,,,,,,,756.2347491080001,None,757.734569192,None,759.118027409,None,belt,759.118027409,None,return,11.064579029000015,759.201339306,None,,,,,,,,,,,,,,,,,,,,,,,,,,,,,,,,,,,,,,,100,001,2023_May_16_1151,SpeechDraft1Carolyn_lessNoise_PlusLocalization,2021.2.3,59.99369226319105,
giant.wav,giant.mpg,giant,6,AV,Pink_Noise_6_1.wav,Pink_Noise_6_2.wav,,,,,,,,,,,,,,,0,115,115,79,,,,,,,,,,,,,,,,,,,,,,,770.284720139,None,771.784457544,None,773.168267772,None,giant,773.168267772,None,return,2.2386316309999756,773.251345809,None,,,,,,,,,,,,,,,,,,,,,,,,,,,,,,,,,,,,,,,100,001,2023_May_16_1151,SpeechDraft1Carolyn_lessNoise_PlusLocalization,2021.2.3,59.99369226319105,
drug.wav,drug.mpg,drug,3,AV,Pink_Noise_3_1.wav,Pink_Noise_3_2.wav,,,,,,,,,,,,,,,0,116,116,65,,,,,,,,,,,,,,,,,,,,,,,775.518105244,None,777.0192465060001,None,778.401399325,None,"drug
",778.401399325,None,return,2.6852636980000852,778.484612842,None,,,,,,,,,,,,,,,,,,,,,,,,,,,,,,,,,,,,,,,100,001,2023_May_16_1151,SpeechDraft1Carolyn_lessNoise_PlusLocalization,2021.2.3,59.99369226319105,
fly.wav,fly.mpg,fly,6,AV,Pink_Noise_6_1.wav,Pink_Noise_6_2.wav,,,,,,,,,,,,,,,0,117,117,102,,,,,,,,,,,,,,,,,,,,,,,781.201352628,None,782.7011648590001,None,784.084655804,None,fly,784.084655804,None,return,3.209853702000032,784.168016919,None,,,,,,,,,,,,,,,,,,,,,,,,,,,,,,,,,,,,,,,100,001,2023_May_16_1151,SpeechDraft1Carolyn_lessNoise_PlusLocalization,2021.2.3,59.99369226319105,
toy.wav,toy.mpg,toy,3,AV,Pink_Noise_3_1.wav,Pink_Noise_3_2.wav,,,,,,,,,,,,,,,0,118,118,73,,,,,,,,,,,,,,,,,,,,,,,787.40129739,None,788.9011864610001,None,790.284657789,None,"toy
",790.284657789,None,return,4.3858525430000554,790.368039429,None,,,,,,,,,,,,,,,,,,,,,,,,,,,,,,,,,,,,,,,100,001,2023_May_16_1151,SpeechDraft1Carolyn_lessNoise_PlusLocalization,2021.2.3,59.99369226319105,
flask.wav,flask.mpg,flask,4,A,Pink_Noise_4_1.wav,Pink_Noise_4_2.wav,,,,,,,,,,,,,,,0,119,119,41,,,,,,,,,,,,,,,,,,,,,,,794.784726248,None,796.3010969290001,None,797.6847590100001,None,fast,797.6847590100001,None,return,1.961891193000156,797.767994498,None,,,,,,,,,,,,,,,,,,,,,,,,,,,,,,,,,,,,,,,100,001,2023_May_16_1151,SpeechDraft1Carolyn_lessNoise_PlusLocalization,2021.2.3,59.99369226319105,
,,,,,,,,,,,,,,,,,,,,,,,,,,,,,,,,,,,,,,,,,,,,,,,,,,,,,,,,,,,,,,,,,,space,19.343104279000045,799.8347589970001,None,,,,,,,,,,,,,,,,,,,,,,,,,,,,,100,001,2023_May_16_1151,SpeechDraft1Carolyn_lessNoise_PlusLocalization,2021.2.3,59.99369226319105,
,,,,,,,,midLeft,-13.0,2,ch1Sound_localizationTask.wav,-13.0,"(762, 878)","(-198,-202)",-190,-338,,,,,,,,,0,0,0,1,,,,,,,,,,,,,,,,,,,,,,,,,,,,,,,,,,,,,,,,,,799.8347589970001,None,819.217917812,None,820.334582938,None,821.2681101349999,None,1.0804232804232803,4.9118809740000415,821.2681101349999,None,,,,,,,,,,,,,,,,,100,001,2023_May_16_1151,SpeechDraft1Carolyn_lessNoise_PlusLocalization,2021.2.3,59.99369226319105,
,,,,,,,,farRight,19.1,4,ch1Sound_localizationTask.wav,19.1,"(1237, 878)","(277,-202)",285,-338,,,,,,,,,0,1,1,6,,,,,,,,,,,,,,,,,,,,,,,,,,,,,,,,,,,,,,,,,,,,826.169748539,None,827.284773907,None,828.2012695129999,None,1.8576719576719576,1.1165587390000837,828.2012695129999,None,,,,,,,,,,,,,,,,,100,001,2023_May_16_1151,SpeechDraft1Carolyn_lessNoise_PlusLocalization,2021.2.3,59.99369226319105,
,,,,,,,,center,0.0,6,ch1Sound_localizationTask.wav,0.0,"(952, 878)","(-8,-202)",0,-338,,,,,,,,,0,2,2,3,,,,,,,,,,,,,,,,,,,,,,,,,,,,,,,,,,,,,,,,,,,,829.3180419509999,None,830.417769835,None,831.351232925,None,1.3402116402116402,0.7497503510001025,831.351232925,None,,,,,,,,,,,,,,,,,100,001,2023_May_16_1151,SpeechDraft1Carolyn_lessNoise_PlusLocalization,2021.2.3,59.99369226319105,
,,,,,,,,nearLeft,-6.5,1,ch1Sound_localizationTask.wav,-6.5,"(857, 878)","(-103,-202)",-95,-338,,,,,,,,,0,3,3,2,,,,,,,,,,,,,,,,,,,,,,,,,,,,,,,,,,,,,,,,,,,,832.102625455,None,833.217793107,None,834.134725028,None,1.621164021164021,0.5986055440000655,834.134725028,None,,,,,,,,,,,,,,,,,100,001,2023_May_16_1151,SpeechDraft1Carolyn_lessNoise_PlusLocalization,2021.2.3,59.99369226319105,
,,,,,,,,midRight,13.0,3,ch1Sound_localizationTask.wav,13.0,"(1142, 878)","(182, -202)",190,-338,,,,,,,,,0,4,4,5,,,,,,,,,,,,,,,,,,,,,,,,,,,,,,,,,,,,,,,,,,,,834.734772884,None,835.8345038540001,None,836.767781172,None,1.6174603174603175,0.5326264079999419,836.767781172,None,,,,,,,,,,,,,,,,,100,001,2023_May_16_1151,SpeechDraft1Carolyn_lessNoise_PlusLocalization,2021.2.3,59.99369226319105,
,,,,,,,,farRight,19.1,4,ch1Sound_localizationTask.wav,19.1,"(1237, 878)","(277,-202)",285,-338,,,,,,,,,0,5,5,6,,,,,,,,,,,,,,,,,,,,,,,,,,,,,,,,,,,,,,,,,,,,837.301435369,None,838.4012778230001,None,839.3345882840001,None,1.7195767195767195,0.44866340899989154,839.3345882840001,None,,,,,,,,,,,,,,,,,100,001,2023_May_16_1151,SpeechDraft1Carolyn_lessNoise_PlusLocalization,2021.2.3,59.99369226319105,
,,,,,,,,nearLeft,-6.5,1,ch1Sound_localizationTask.wav,-6.5,"(857, 878)","(-103,-202)",-95,-338,,,,,,,,,0,6,6,2,,,,,,,,,,,,,,,,,,,,,,,,,,,,,,,,,,,,,,,,,,,,839.784771571,None,840.8848047710001,None,841.81789476,None,1.4873015873015873,0.8986346090000552,841.81789476,None,,,,,,,,,,,,,,,,,100,001,2023_May_16_1151,SpeechDraft1Carolyn_lessNoise_PlusLocalization,2021.2.3,59.99369226319105,
,,,,,,,,center,0.0,6,ch1Sound_localizationTask.wav,0.0,"(952, 878)","(-8,-202)",0,-338,,,,,,,,,1,0,7,3,,,,,,,,,,,,,,,,,,,,,,,,,,,,,,,,,,,,,,,,,,,,842.718062527,None,843.8179536570001,None,844.7511323020001,None,1.3238095238095238,0.7160912340000323,844.7511323020001,None,,,,,,,,,,,,,,,,,100,001,2023_May_16_1151,SpeechDraft1Carolyn_lessNoise_PlusLocalization,2021.2.3,59.99369226319105,
,,,,,,,,midRight,13.0,3,ch1Sound_localizationTask.wav,13.0,"(1142, 878)","(182, -202)",190,-338,,,,,,,,,1,1,8,5,,,,,,,,,,,,,,,,,,,,,,,,,,,,,,,,,,,,,,,,,,,,845.4681594809999,None,846.567915975,None,847.501205928,None,1.783068783068783,0.6156754799999362,847.501205928,None,,,,,,,,,,,,,,,,,100,001,2023_May_16_1151,SpeechDraft1Carolyn_lessNoise_PlusLocalization,2021.2.3,59.99369226319105,
,,,,,,,,farRight,19.1,4,ch1Sound_localizationTask.wav,19.1,"(1237, 878)","(277,-202)",285,-338,,,,,,,,,1,2,9,6,,,,,,,,,,,,,,,,,,,,,,,,,,,,,,,,,,,,,,,,,,,,848.1181031200001,None,849.217866855,None,850.151156532,None,1.9285714285714286,0.6842065079999884,850.151156532,None,,,,,,,,,,,,,,,,,100,001,2023_May_16_1151,SpeechDraft1Carolyn_lessNoise_PlusLocalization,2021.2.3,59.99369226319105,
,,,,,,,,farRight,19.1,4,ch1Sound_localizationTask.wav,19.1,"(1237, 878)","(277,-202)",285,-338,,,,,,,,,1,3,10,6,,,,,,,,,,,,,,,,,,,,,,,,,,,,,,,,,,,,,,,,,,,,850.8514395320001,None,851.95111879,None,852.884616006,None,1.82010582010582,0.6346950299998753,852.884616006,None,,,,,,,,,,,,,,,,,100,001,2023_May_16_1151,SpeechDraft1Carolyn_lessNoise_PlusLocalization,2021.2.3,59.99369226319105,
,,,,,,,,midLeft,-13.0,2,ch1Sound_localizationTask.wav,-13.0,"(762, 878)","(-198,-202)",-190,-338,,,,,,,,,1,4,11,1,,,,,,,,,,,,,,,,,,,,,,,,,,,,,,,,,,,,,,,,,,,,853.5347527060001,None,854.6346545450001,None,855.567830316,None,1.2243386243386243,0.9833287459998701,855.567830316,None,,,,,,,,,,,,,,,,,100,001,2023_May_16_1151,SpeechDraft1Carolyn_lessNoise_PlusLocalization,2021.2.3,59.99369226319105,
,,,,,,,,midRight,13.0,3,ch1Sound_localizationTask.wav,13.0,"(1142, 878)","(182, -202)",190,-338,,,,,,,,,1,5,12,5,,,,,,,,,,,,,,,,,,,,,,,,,,,,,,,,,,,,,,,,,,,,856.568218825,None,857.667922802,None,858.6012516769999,None,1.6015873015873017,0.6156524080001873,858.6012516769999,None,,,,,,,,,,,,,,,,,100,001,2023_May_16_1151,SpeechDraft1Carolyn_lessNoise_PlusLocalization,2021.2.3,59.99369226319105,
,,,,,,,,nearLeft,-6.5,1,ch1Sound_localizationTask.wav,-6.5,"(857, 878)","(-103,-202)",-95,-338,,,,,,,,,1,6,13,2,,,,,,,,,,,,,,,,,,,,,,,,,,,,,,,,,,,,,,,,,,,,859.21804049,None,860.317826362,None,861.2513960379999,None,1.480952380952381,0.7663814899999579,861.2513960379999,None,,,,,,,,,,,,,,,,,100,001,2023_May_16_1151,SpeechDraft1Carolyn_lessNoise_PlusLocalization,2021.2.3,59.99369226319105,
,,,,,,,,farRight,19.1,4,ch1Sound_localizationTask.wav,19.1,"(1237, 878)","(277,-202)",285,-338,,,,,,,,,2,0,14,6,,,,,,,,,,,,,,,,,,,,,,,,,,,,,,,,,,,,,,,,,,,,862.0182368830001,None,863.11790436,None,864.051450247,None,1.8465608465608465,1.7655290909999621,864.051450247,None,,,,,,,,,,,,,,,,,100,001,2023_May_16_1151,SpeechDraft1Carolyn_lessNoise_PlusLocalization,2021.2.3,59.99369226319105,
,,,,,,,,nearRight,6.5,0,ch1Sound_localizationTask.wav,6.5,"(1047, 878)","(87, -202)",95,-338,,,,,,,,,2,1,15,4,,,,,,,,,,,,,,,,,,,,,,,,,,,,,,,,,,,,,,,,,,,,865.8181729390001,None,866.9180549170001,None,867.85125795,None,1.3243386243386244,0.7020494700000199,867.85125795,None,,,,,,,,,,,,,,,,,100,001,2023_May_16_1151,SpeechDraft1Carolyn_lessNoise_PlusLocalization,2021.2.3,59.99369226319105,
,,,,,,,,farLeft,-19.1,5,ch1Sound_localizationTask.wav,-19.1,"(667, 878)","(-293,-202)",-285,-338,,,,,,,,,2,2,16,0,,,,,,,,,,,,,,,,,,,,,,,,,,,,,,,,,,,,,,,,,,,,868.5681994020001,None,869.667823262,None,870.601260288,None,1.0592592592592593,0.9844179110000368,870.601260288,None,,,,,,,,,,,,,,,,,100,001,2023_May_16_1151,SpeechDraft1Carolyn_lessNoise_PlusLocalization,2021.2.3,59.99369226319105,
,,,,,,,,farRight,19.1,4,ch1Sound_localizationTask.wav,19.1,"(1237, 878)","(277,-202)",285,-338,,,,,,,,,2,3,17,6,,,,,,,,,,,,,,,,,,,,,,,,,,,,,,,,,,,,,,,,,,,,871.601696101,None,872.701273425,None,873.6346181890001,None,1.7164021164021164,0.7839432959999613,873.6346181890001,None,,,,,,,,,,,,,,,,,100,001,2023_May_16_1151,SpeechDraft1Carolyn_lessNoise_PlusLocalization,2021.2.3,59.99369226319105,
,,,,,,,,center,0.0,6,ch1Sound_localizationTask.wav,0.0,"(952, 878)","(-8,-202)",0,-338,,,,,,,,,2,4,18,3,,,,,,,,,,,,,,,,,,,,,,,,,,,,,,,,,,,,,,,,,,,,874.434956952,None,875.534701027,None,876.4679073069999,None,1.3248677248677247,0.6315235479999046,876.4679073069999,None,,,,,,,,,,,,,,,,,100,001,2023_May_16_1151,SpeechDraft1Carolyn_lessNoise_PlusLocalization,2021.2.3,59.99369226319105,
,,,,,,,,nearRight,6.5,0,ch1Sound_localizationTask.wav,6.5,"(1047, 878)","(87, -202)",95,-338,,,,,,,,,2,5,19,4,,,,,,,,,,,,,,,,,,,,,,,,,,,,,,,,,,,,,,,,,,,,877.101464694,None,878.2011261350001,None,879.1346571409999,None,1.494179894179894,0.6151134539998111,879.1346571409999,None,,,,,,,,,,,,,,,,,100,001,2023_May_16_1151,SpeechDraft1Carolyn_lessNoise_PlusLocalization,2021.2.3,59.99369226319105,
,,,,,,,,midRight,13.0,3,ch1Sound_localizationTask.wav,13.0,"(1142, 878)","(182, -202)",190,-338,,,,,,,,,2,6,20,5,,,,,,,,,,,,,,,,,,,,,,,,,,,,,,,,,,,,,,,,,,,,879.751475458,None,880.8512218640001,None,881.784640032,None,1.591005291005291,0.415983272999938,881.784640032,None,,,,,,,,,,,,,,,,,100,001,2023_May_16_1151,SpeechDraft1Carolyn_lessNoise_PlusLocalization,2021.2.3,59.99369226319105,
,,,,,,,,nearLeft,-6.5,1,ch1Sound_localizationTask.wav,-6.5,"(857, 878)","(-103,-202)",-95,-338,,,,,,,,,3,0,21,2,,,,,,,,,,,,,,,,,,,,,,,,,,,,,,,,,,,,,,,,,,,,882.201464776,None,883.3012706540001,None,884.2346263669999,None,1.6164021164021163,0.3998732029999701,884.2346263669999,None,,,,,,,,,,,,,,,,,100,001,2023_May_16_1151,SpeechDraft1Carolyn_lessNoise_PlusLocalization,2021.2.3,59.99369226319105,
,,,,,,,,midLeft,-13.0,2,ch1Sound_localizationTask.wav,-13.0,"(762, 878)","(-198,-202)",-190,-338,,,,,,,,,3,1,22,1,,,,,,,,,,,,,,,,,,,,,,,,,,,,,,,,,,,,,,,,,,,,884.6348497660001,None,885.7345153640001,None,886.66799132,None,1.174074074074074,0.48437740600002144,886.66799132,None,,,,,,,,,,,,,,,,,100,001,2023_May_16_1151,SpeechDraft1Carolyn_lessNoise_PlusLocalization,2021.2.3,59.99369226319105,
,,,,,,,,midLeft,-13.0,2,ch1Sound_localizationTask.wav,-13.0,"(762, 878)","(-198,-202)",-190,-338,,,,,,,,,3,2,23,1,,,,,,,,,,,,,,,,,,,,,,,,,,,,,,,,,,,,,,,,,,,,887.168185026,None,888.2678354699999,None,889.201272602,None,1.3656084656084655,0.5486207359999753,889.201272602,None,,,,,,,,,,,,,,,,,100,001,2023_May_16_1151,SpeechDraft1Carolyn_lessNoise_PlusLocalization,2021.2.3,59.99369226319105,
,,,,,,,,midRight,13.0,3,ch1Sound_localizationTask.wav,13.0,"(1142, 878)","(182, -202)",190,-338,,,,,,,,,3,3,24,5,,,,,,,,,,,,,,,,,,,,,,,,,,,,,,,,,,,,,,,,,,,,889.7514617950001,None,890.8513040790001,None,891.784510859,None,1.5767195767195767,0.4509437550000257,891.784510859,None,,,,,,,,,,,,,,,,,100,001,2023_May_16_1151,SpeechDraft1Carolyn_lessNoise_PlusLocalization,2021.2.3,59.99369226319105,
,,,,,,,,midLeft,-13.0,2,ch1Sound_localizationTask.wav,-13.0,"(762, 878)","(-198,-202)",-190,-338,,,,,,,,,3,4,25,1,,,,,,,,,,,,,,,,,,,,,,,,,,,,,,,,,,,,,,,,,,,,892.251829007,None,893.3512690949999,None,894.284584231,None,1.0391534391534392,0.999016870999867,894.284584231,None,,,,,,,,,,,,,,,,,100,001,2023_May_16_1151,SpeechDraft1Carolyn_lessNoise_PlusLocalization,2021.2.3,59.99369226319105,
,,,,,,,,farLeft,-19.1,5,ch1Sound_localizationTask.wav,-19.1,"(667, 878)","(-293,-202)",-285,-338,,,,,,,,,3,5,26,0,,,,,,,,,,,,,,,,,,,,,,,,,,,,,,,,,,,,,,,,,,,,895.284840475,None,896.3845687200001,None,897.3179300720001,None,1.1058201058201058,0.6504288810001526,897.3179300720001,None,,,,,,,,,,,,,,,,,100,001,2023_May_16_1151,SpeechDraft1Carolyn_lessNoise_PlusLocalization,2021.2.3,59.99369226319105,
,,,,,,,,nearRight,6.5,0,ch1Sound_localizationTask.wav,6.5,"(1047, 878)","(87, -202)",95,-338,,,,,,,,,3,6,27,4,,,,,,,,,,,,,,,,,,,,,,,,,,,,,,,,,,,,,,,,,,,,897.984873911,None,899.084761913,None,900.017926188,None,1.6402116402116402,0.8158451589999913,900.017926188,None,,,,,,,,,,,,,,,,,100,001,2023_May_16_1151,SpeechDraft1Carolyn_lessNoise_PlusLocalization,2021.2.3,59.99369226319105,
,,,,,,,,nearRight,6.5,0,ch1Sound_localizationTask.wav,6.5,"(1047, 878)","(87, -202)",95,-338,,,,,,,,,4,0,28,4,,,,,,,,,,,,,,,,,,,,,,,,,,,,,,,,,,,,,,,,,,,,900.835501261,None,901.934633226,None,902.8680309819999,None,1.5074074074074075,0.652366782999934,902.8680309819999,None,,,,,,,,,,,,,,,,,100,001,2023_May_16_1151,SpeechDraft1Carolyn_lessNoise_PlusLocalization,2021.2.3,59.99369226319105,
,,,,,,,,nearLeft,-6.5,1,ch1Sound_localizationTask.wav,-6.5,"(857, 878)","(-103,-202)",-95,-338,,,,,,,,,4,1,29,2,,,,,,,,,,,,,,,,,,,,,,,,,,,,,,,,,,,,,,,,,,,,903.535099365,None,904.634663781,None,905.5680037070001,None,1.5708994708994708,0.3824303119999968,905.5680037070001,None,,,,,,,,,,,,,,,,,100,001,2023_May_16_1151,SpeechDraft1Carolyn_lessNoise_PlusLocalization,2021.2.3,59.99369226319105,
,,,,,,,,nearLeft,-6.5,1,ch1Sound_localizationTask.wav,-6.5,"(857, 878)","(-103,-202)",-95,-338,,,,,,,,,4,2,30,2,,,,,,,,,,,,,,,,,,,,,,,,,,,,,,,,,,,,,,,,,,,,905.952406569,None,907.0679757529999,None,907.9847344730001,None,1.4947089947089947,0.5671499420000146,907.9847344730001,None,,,,,,,,,,,,,,,,,100,001,2023_May_16_1151,SpeechDraft1Carolyn_lessNoise_PlusLocalization,2021.2.3,59.99369226319105,
,,,,,,,,nearLeft,-6.5,1,ch1Sound_localizationTask.wav,-6.5,"(857, 878)","(-103,-202)",-95,-338,,,,,,,,,4,3,31,2,,,,,,,,,,,,,,,,,,,,,,,,,,,,,,,,,,,,,,,,,,,,908.552199984,None,909.651391739,None,910.5848085089999,None,1.5603174603174603,0.43302068499997404,910.5848085089999,None,,,,,,,,,,,,,,,,,100,001,2023_May_16_1151,SpeechDraft1Carolyn_lessNoise_PlusLocalization,2021.2.3,59.99369226319105,
,,,,,,,,nearRight,6.5,0,ch1Sound_localizationTask.wav,6.5,"(1047, 878)","(87, -202)",95,-338,,,,,,,,,4,4,32,4,,,,,,,,,,,,,,,,,,,,,,,,,,,,,,,,,,,,,,,,,,,,911.018257337,None,912.1179416370001,None,913.051471948,None,1.5121693121693123,0.3667347199998403,913.051471948,None,,,,,,,,,,,,,,,,,100,001,2023_May_16_1151,SpeechDraft1Carolyn_lessNoise_PlusLocalization,2021.2.3,59.99369226319105,
,,,,,,,,farRight,19.1,4,ch1Sound_localizationTask.wav,19.1,"(1237, 878)","(277,-202)",285,-338,,,,,,,,,4,5,33,6,,,,,,,,,,,,,,,,,,,,,,,,,,,,,,,,,,,,,,,,,,,,913.419994649,None,914.534795043,None,915.4515943220001,None,1.6216931216931219,0.5156996809998873,915.4515943220001,None,,,,,,,,,,,,,,,,,100,001,2023_May_16_1151,SpeechDraft1Carolyn_lessNoise_PlusLocalization,2021.2.3,59.99369226319105,
,,,,,,,,farLeft,-19.1,5,ch1Sound_localizationTask.wav,-19.1,"(667, 878)","(-293,-202)",-285,-338,,,,,,,,,4,6,34,0,,,,,,,,,,,,,,,,,,,,,,,,,,,,,,,,,,,,,,,,,,,,915.9849590890001,None,917.08469036,None,918.017878596,None,1.3518518518518519,0.5677449460001753,918.017878596,None,,,,,,,,,,,,,,,,,100,001,2023_May_16_1151,SpeechDraft1Carolyn_lessNoise_PlusLocalization,2021.2.3,59.99369226319105,
,,,,,,,,farLeft,-19.1,5,ch1Sound_localizationTask.wav,-19.1,"(667, 878)","(-293,-202)",-285,-338,,,,,,,,,5,0,35,0,,,,,,,,,,,,,,,,,,,,,,,,,,,,,,,,,,,,,,,,,,,,918.6017122129999,None,919.7021435009999,None,920.634742793,None,1.2714285714285714,0.9169897880001372,920.634742793,None,,,,,,,,,,,,,,,,,100,001,2023_May_16_1151,SpeechDraft1Carolyn_lessNoise_PlusLocalization,2021.2.3,59.99369226319105,
,,,,,,,,nearRight,6.5,0,ch1Sound_localizationTask.wav,6.5,"(1047, 878)","(87, -202)",95,-338,,,,,,,,,5,1,36,4,,,,,,,,,,,,,,,,,,,,,,,,,,,,,,,,,,,,,,,,,,,,921.5681662960001,None,922.668082271,None,923.601417894,None,1.4756613756613757,0.4816851339999175,923.601417894,None,,,,,,,,,,,,,,,,,100,001,2023_May_16_1151,SpeechDraft1Carolyn_lessNoise_PlusLocalization,2021.2.3,59.99369226319105,
,,,,,,,,midLeft,-13.0,2,ch1Sound_localizationTask.wav,-13.0,"(762, 878)","(-198,-202)",-190,-338,,,,,,,,,5,2,37,1,,,,,,,,,,,,,,,,,,,,,,,,,,,,,,,,,,,,,,,,,,,,924.0848843220001,None,925.184683058,None,926.1180508289999,None,1.380952380952381,0.6169018049999977,926.1180508289999,None,,,,,,,,,,,,,,,,,100,001,2023_May_16_1151,SpeechDraft1Carolyn_lessNoise_PlusLocalization,2021.2.3,59.99369226319105,
,,,,,,,,nearRight,6.5,0,ch1Sound_localizationTask.wav,6.5,"(1047, 878)","(87, -202)",95,-338,,,,,,,,,5,3,38,4,,,,,,,,,,,,,,,,,,,,,,,,,,,,,,,,,,,,,,,,,,,,926.7354265660001,None,927.834675415,None,928.7680164430001,None,1.6,0.4825806050000665,928.7680164430001,None,,,,,,,,,,,,,,,,,100,001,2023_May_16_1151,SpeechDraft1Carolyn_lessNoise_PlusLocalization,2021.2.3,59.99369226319105,
,,,,,,,,midLeft,-13.0,2,ch1Sound_localizationTask.wav,-13.0,"(762, 878)","(-198,-202)",-190,-338,,,,,,,,,5,4,39,1,,,,,,,,,,,,,,,,,,,,,,,,,,,,,,,,,,,,,,,,,,,,929.25151869,None,930.3512603300001,None,931.284687348,None,1.4211640211640213,0.8159387539999443,931.284687348,None,,,,,,,,,,,,,,,,,100,001,2023_May_16_1151,SpeechDraft1Carolyn_lessNoise_PlusLocalization,2021.2.3,59.99369226319105,
,,,,,,,,center,0.0,6,ch1Sound_localizationTask.wav,0.0,"(952, 878)","(-8,-202)",0,-338,,,,,,,,,5,5,40,3,,,,,,,,,,,,,,,,,,,,,,,,,,,,,,,,,,,,,,,,,,,,932.101538464,None,933.201262669,None,934.13483434,None,1.560846560846561,0.45141614599992863,934.13483434,None,,,,,,,,,,,,,,,,,100,001,2023_May_16_1151,SpeechDraft1Carolyn_lessNoise_PlusLocalization,2021.2.3,59.99369226319105,
,,,,,,,,farLeft,-19.1,5,ch1Sound_localizationTask.wav,-19.1,"(667, 878)","(-293,-202)",-285,-338,,,,,,,,,5,6,41,0,,,,,,,,,,,,,,,,,,,,,,,,,,,,,,,,,,,,,,,,,,,,934.6015864220001,None,935.70136004,None,936.634596846,None,1.2793650793650793,0.4503724420001163,936.634596846,None,,,,,,,,,,,,,,,,,100,001,2023_May_16_1151,SpeechDraft1Carolyn_lessNoise_PlusLocalization,2021.2.3,59.99369226319105,
,,,,,,,,midRight,13.0,3,ch1Sound_localizationTask.wav,13.0,"(1142, 878)","(182, -202)",190,-338,,,,,,,,,6,0,42,5,,,,,,,,,,,,,,,,,,,,,,,,,,,,,,,,,,,,,,,,,,,,937.1016648469999,None,938.2013092489999,None,939.1347520659999,None,1.6343915343915345,0.5660291490000873,939.1347520659999,None,,,,,,,,,,,,,,,,,100,001,2023_May_16_1151,SpeechDraft1Carolyn_lessNoise_PlusLocalization,2021.2.3,59.99369226319105,
,,,,,,,,center,0.0,6,ch1Sound_localizationTask.wav,0.0,"(952, 878)","(-8,-202)",0,-338,,,,,,,,,6,1,43,3,,,,,,,,,,,,,,,,,,,,,,,,,,,,,,,,,,,,,,,,,,,,939.702062374,None,940.801372332,None,941.7348546430001,None,1.4925925925925925,0.5818321149999974,941.7348546430001,None,,,,,,,,,,,,,,,,,100,001,2023_May_16_1151,SpeechDraft1Carolyn_lessNoise_PlusLocalization,2021.2.3,59.99369226319105,
,,,,,,,,midLeft,-13.0,2,ch1Sound_localizationTask.wav,-13.0,"(762, 878)","(-198,-202)",-190,-338,,,,,,,,,6,2,44,1,,,,,,,,,,,,,,,,,,,,,,,,,,,,,,,,,,,,,,,,,,,,942.318244414,None,943.4179594070001,None,944.3513583680001,None,1.4,0.6170902090000254,944.3513583680001,None,,,,,,,,,,,,,,,,,100,001,2023_May_16_1151,SpeechDraft1Carolyn_lessNoise_PlusLocalization,2021.2.3,59.99369226319105,
,,,,,,,,center,0.0,6,ch1Sound_localizationTask.wav,0.0,"(952, 878)","(-8,-202)",0,-338,,,,,,,,,6,3,45,3,,,,,,,,,,,,,,,,,,,,,,,,,,,,,,,,,,,,,,,,,,,,944.984929508,None,946.0846514469999,None,947.018110599,None,1.529100529100529,0.49912554500019723,947.018110599,None,,,,,,,,,,,,,,,,,100,001,2023_May_16_1151,SpeechDraft1Carolyn_lessNoise_PlusLocalization,2021.2.3,59.99369226319105,
,,,,,,,,midRight,13.0,3,ch1Sound_localizationTask.wav,13.0,"(1142, 878)","(182, -202)",190,-338,,,,,,,,,6,4,46,5,,,,,,,,,,,,,,,,,,,,,,,,,,,,,,,,,,,,,,,,,,,,947.5183070360001,None,948.618023907,None,949.5514038199999,None,1.585185185185185,0.4330130469998039,949.5514038199999,None,,,,,,,,,,,,,,,,,100,001,2023_May_16_1151,SpeechDraft1Carolyn_lessNoise_PlusLocalization,2021.2.3,59.99369226319105,
,,,,,,,,farLeft,-19.1,5,ch1Sound_localizationTask.wav,-19.1,"(667, 878)","(-293,-202)",-285,-338,,,,,,,,,6,5,47,0,,,,,,,,,,,,,,,,,,,,,,,,,,,,,,,,,,,,,,,,,,,,949.984856586,None,951.084684595,None,952.0180350800001,None,1.335978835978836,0.5171373020000374,952.0180350800001,None,,,,,,,,,,,,,,,,,100,001,2023_May_16_1151,SpeechDraft1Carolyn_lessNoise_PlusLocalization,2021.2.3,59.99369226319105,
,,,,,,,,farRight,19.1,4,ch1Sound_localizationTask.wav,19.1,"(1237, 878)","(277,-202)",285,-338,,,,,,,,,6,6,48,6,,,,,,,,,,,,,,,,,,,,,,,,,,,,,,,,,,,,,,,,,,,,952.5517213319999,None,953.651420402,None,954.5846782400001,None,1.7444444444444445,0.8159608250000474,954.5846782400001,None,,,,,,,,,,,,,,,,,100,001,2023_May_16_1151,SpeechDraft1Carolyn_lessNoise_PlusLocalization,2021.2.3,59.99369226319105,
,,,,,,,,nearLeft,-6.5,1,ch1Sound_localizationTask.wav,-6.5,"(857, 878)","(-103,-202)",-95,-338,,,,,,,,,7,0,49,2,,,,,,,,,,,,,,,,,,,,,,,,,,,,,,,,,,,,,,,,,,,,955.40204612,None,956.5015290430001,None,957.4348417670001,None,1.4962962962962962,0.6151128770000014,957.4348417670001,None,,,,,,,,,,,,,,,,,100,001,2023_May_16_1151,SpeechDraft1Carolyn_lessNoise_PlusLocalization,2021.2.3,59.99369226319105,
,,,,,,,,farLeft,-19.1,5,ch1Sound_localizationTask.wav,-19.1,"(667, 878)","(-293,-202)",-285,-338,,,,,,,,,7,1,50,0,,,,,,,,,,,,,,,,,,,,,,,,,,,,,,,,,,,,,,,,,,,,958.051928613,None,959.1514267740001,None,960.0846773559999,None,1.1216931216931216,0.616446637000081,960.0846773559999,None,,,,,,,,,,,,,,,,,100,001,2023_May_16_1151,SpeechDraft1Carolyn_lessNoise_PlusLocalization,2021.2.3,59.99369226319105,
,,,,,,,,center,0.0,6,ch1Sound_localizationTask.wav,0.0,"(952, 878)","(-8,-202)",0,-338,,,,,,,,,7,2,51,3,,,,,,,,,,,,,,,,,,,,,,,,,,,,,,,,,,,,,,,,,,,,960.7016184419999,None,961.801380058,None,962.734810793,None,1.494179894179894,0.8674183260000063,962.734810793,None,,,,,,,,,,,,,,,,,100,001,2023_May_16_1151,SpeechDraft1Carolyn_lessNoise_PlusLocalization,2021.2.3,59.99369226319105,
,,,,,,,,nearRight,6.5,0,ch1Sound_localizationTask.wav,6.5,"(1047, 878)","(87, -202)",95,-338,,,,,,,,,7,3,52,4,,,,,,,,,,,,,,,,,,,,,,,,,,,,,,,,,,,,,,,,,,,,963.618267373,None,964.7180084869999,None,965.6514927830001,None,1.5566137566137566,0.5664240989999598,965.6514927830001,None,,,,,,,,,,,,,,,,,100,001,2023_May_16_1151,SpeechDraft1Carolyn_lessNoise_PlusLocalization,2021.2.3,59.99369226319105,
,,,,,,,,midRight,13.0,3,ch1Sound_localizationTask.wav,13.0,"(1142, 878)","(182, -202)",190,-338,,,,,,,,,7,4,53,5,,,,,,,,,,,,,,,,,,,,,,,,,,,,,,,,,,,,,,,,,,,,966.218330273,None,967.318035535,None,968.2515261369999,None,1.626984126984127,0.6324958880002214,968.2515261369999,None,,,,,,,,,,,,,,,,,100,001,2023_May_16_1151,SpeechDraft1Carolyn_lessNoise_PlusLocalization,2021.2.3,59.99369226319105,
,,,,,,,,center,0.0,6,ch1Sound_localizationTask.wav,0.0,"(952, 878)","(-8,-202)",0,-338,,,,,,,,,7,5,54,3,,,,,,,,,,,,,,,,,,,,,,,,,,,,,,,,,,,,,,,,,,,,968.885068324,None,969.984738823,None,970.9180746940001,None,1.453968253968254,0.6668407689999185,970.9180746940001,None,,,,,,,,,,,,,,,,,100,001,2023_May_16_1151,SpeechDraft1Carolyn_lessNoise_PlusLocalization,2021.2.3,59.99369226319105,
,,,,,,,,farLeft,-19.1,5,ch1Sound_localizationTask.wav,-19.1,"(667, 878)","(-293,-202)",-285,-338,,,,,,,,,7,6,55,0,,,,,,,,,,,,,,,,,,,,,,,,,,,,,,,,,,,,,,,,,,,,971.6017071179999,None,972.701368521,None,973.6346170940001,None,1.2121693121693122,0.8349049829998876,973.6346170940001,None,,,,,,,,,,,,,,,,,100,001,2023_May_16_1151,SpeechDraft1Carolyn_lessNoise_PlusLocalization,2021.2.3,59.99369226319105,
,,,,,,,,,,,,,,,,,,,,,,,,,,,,,,,,,,,,,,,,,,,,,,,,,,,,,,,,,,,,,,,,,,,,,,,,,,,,,,,,,,space,14.121524344000136,974.5684158920001,None,,,,,,,,,,,,,100,001,2023_May_16_1151,SpeechDraft1Carolyn_lessNoise_PlusLocalization,2021.2.3,59.99369226319105,
,,,,,,,,nearLeft,-6.5,1,ch1Sound_localizationTask.wav,-6.5,"(857, 878)","(-103,-202)",-95,-338,,,,,,,,,,,,,0,0,0,2,,,,,,,,,,,,,,,,,,,,,,,,,,,,,,,,,,,,,,,,988.734993414,None,,,991.7680733540001,None,1.41005291005291,0.9550462810000226,991.7680733540001,None,,,,,974.5684158920001,None,989.735060389,None,989.9184474040001,989.935081887,,,,,,,100,001,2023_May_16_1151,SpeechDraft1Carolyn_lessNoise_PlusLocalization,2021.2.3,59.99369226319105,
,,,,,,,,center,0.0,6,ch1Sound_localizationTask.wav,0.0,"(952, 878)","(-8,-202)",0,-338,,,,,,,,,,,,,0,1,1,3,,,,,,,,,,,,,,,,,,,,,,,,,,,,,,,,,,,,,,,,992.7350932490001,None,,,995.751516433,None,1.48994708994709,0.8322066709999945,995.751516433,None,,,,,,,993.7349055679999,None,993.918321782,993.93499537,,,,,,,100,001,2023_May_16_1151,SpeechDraft1Carolyn_lessNoise_PlusLocalization,2021.2.3,59.99369226319105,
,,,,,,,,farLeft,-19.1,5,ch1Sound_localizationTask.wav,-19.1,"(667, 878)","(-293,-202)",-285,-338,,,,,,,,,,,,,0,2,2,0,,,,,,,,,,,,,,,,,,,,,,,,,,,,,,,,,,,,,,,,996.5849834779999,None,,,999.6014659310001,None,1.3492063492063493,0.801711775000058,999.6014659310001,None,,,,,,,997.5850029139999,None,997.768311028,997.784982252,,,,,,,100,001,2023_May_16_1151,SpeechDraft1Carolyn_lessNoise_PlusLocalization,2021.2.3,59.99369226319105,
,,,,,,,,midLeft,-13.0,2,ch1Sound_localizationTask.wav,-13.0,"(762, 878)","(-198,-202)",-190,-338,,,,,,,,,,,,,0,3,3,1,,,,,,,,,,,,,,,,,,,,,,,,,,,,,,,,,,,,,,,,1000.4183014360001,None,,,1003.4347550479999,None,1.3746031746031746,0.6993825090000882,1003.4347550479999,None,,,,,,,1001.4183765810001,None,1001.60166774,1001.618381601,,,,,,,100,001,2023_May_16_1151,SpeechDraft1Carolyn_lessNoise_PlusLocalization,2021.2.3,59.99369226319105,
,,,,,,,,midLeft,-13.0,2,ch1Sound_localizationTask.wav,-13.0,"(762, 878)","(-198,-202)",-190,-338,,,,,,,,,,,,,0,4,4,1,,,,,,,,,,,,,,,,,,,,,,,,,,,,,,,,,,,,,,,,1004.13500443,None,,,1007.1518020169999,None,1.3904761904761904,0.6654338749999624,1007.1518020169999,None,,,,,,,1005.1350217690001,None,1005.318415603,1005.3349285260001,,,,,,,100,001,2023_May_16_1151,SpeechDraft1Carolyn_lessNoise_PlusLocalization,2021.2.3,59.99369226319105,
,,,,,,,,midLeft,-13.0,2,ch1Sound_localizationTask.wav,-13.0,"(762, 878)","(-198,-202)",-190,-338,,,,,,,,,,,,,0,5,5,1,,,,,,,,,,,,,,,,,,,,,,,,,,,,,,,,,,,,,,,,1007.8185762370001,None,,,1010.8347349339999,None,1.3777777777777778,0.6662698770001043,1010.8347349339999,None,,,,,,,1008.8182553009999,None,1009.0016205730001,1009.018255167,,,,,,,100,001,2023_May_16_1151,SpeechDraft1Carolyn_lessNoise_PlusLocalization,2021.2.3,59.99369226319105,
,,,,,,,,center,0.0,6,ch1Sound_localizationTask.wav,0.0,"(952, 878)","(-8,-202)",0,-338,,,,,,,,,,,,,0,6,6,3,,,,,,,,,,,,,,,,,,,,,,,,,,,,,,,,,,,,,,,,1011.501604216,None,,,1014.518079903,None,1.4693121693121693,0.6815239980001024,1014.518079903,None,,,,,,,1012.5016953290001,None,1012.685043079,1012.701619897,,,,,,,100,001,2023_May_16_1151,SpeechDraft1Carolyn_lessNoise_PlusLocalization,2021.2.3,59.99369226319105,
,,,,,,,,farLeft,-19.1,5,ch1Sound_localizationTask.wav,-19.1,"(667, 878)","(-293,-202)",-285,-338,,,,,,,,,,,,,1,0,7,0,,,,,,,,,,,,,,,,,,,,,,,,,,,,,,,,,,,,,,,,1015.201718433,None,,,1018.2180215559999,None,1.3571428571428572,0.682697730999962,1018.2180215559999,None,,,,,,,1016.2017132630001,None,1016.3849849779999,1016.4016774500001,,,,,,,100,001,2023_May_16_1151,SpeechDraft1Carolyn_lessNoise_PlusLocalization,2021.2.3,59.99369226319105,
,,,,,,,,nearRight,6.5,0,ch1Sound_localizationTask.wav,6.5,"(1047, 878)","(87, -202)",95,-338,,,,,,,,,,,,,1,1,8,4,,,,,,,,,,,,,,,,,,,,,,,,,,,,,,,,,,,,,,,,1018.902702521,None,,,1021.9349519489999,None,1.5603174603174603,0.8325511570001254,1021.9349519489999,None,,,,,,,1019.918435215,None,1020.101728134,1020.118446273,,,,,,,100,001,2023_May_16_1151,SpeechDraft1Carolyn_lessNoise_PlusLocalization,2021.2.3,59.99369226319105,
,,,,,,,,farRight,19.1,4,ch1Sound_localizationTask.wav,19.1,"(1237, 878)","(277,-202)",285,-338,,,,,,,,,,,,,1,2,9,6,,,,,,,,,,,,,,,,,,,,,,,,,,,,,,,,,,,,,,,,1022.7684723520001,None,,,1025.784914664,None,1.687830687830688,0.6659445060001872,1025.784914664,None,,,,,,,1023.768468903,None,1023.9517206170001,1023.9683388600001,,,,,,,100,001,2023_May_16_1151,SpeechDraft1Carolyn_lessNoise_PlusLocalization,2021.2.3,59.99369226319105,
,,,,,,,,nearLeft,-6.5,1,ch1Sound_localizationTask.wav,-6.5,"(857, 878)","(-103,-202)",-95,-338,,,,,,,,,,,,,1,3,10,2,,,,,,,,,,,,,,,,,,,,,,,,,,,,,,,,,,,,,,,,1026.451904691,None,,,1029.468241726,None,1.4576719576719577,0.731380100000024,1029.468241726,None,,,,,,,1027.451670251,None,1027.635026155,1027.6516601590001,,,,,,,100,001,2023_May_16_1151,SpeechDraft1Carolyn_lessNoise_PlusLocalization,2021.2.3,59.99369226319105,
,,,,,,,,nearRight,6.5,0,ch1Sound_localizationTask.wav,6.5,"(1047, 878)","(87, -202)",95,-338,,,,,,,,,,,,,1,4,11,4,,,,,,,,,,,,,,,,,,,,,,,,,,,,,,,,,,,,,,,,1030.201810344,None,,,1033.218186991,None,1.5544973544973546,0.634033780999971,1033.218186991,None,,,,,,,1031.201691828,None,1031.384948098,1031.401736856,,,,,,,100,001,2023_May_16_1151,SpeechDraft1Carolyn_lessNoise_PlusLocalization,2021.2.3,59.99369226319105,
,,,,,,,,nearLeft,-6.5,1,ch1Sound_localizationTask.wav,-6.5,"(857, 878)","(-103,-202)",-95,-338,,,,,,,,,,,,,1,5,12,2,,,,,,,,,,,,,,,,,,,,,,,,,,,,,,,,,,,,,,,,1033.868372498,None,,,1036.884847098,None,1.4465608465608466,0.7657430259998819,1036.884847098,None,,,,,,,1034.868495521,None,1035.051647927,1035.068328586,,,,,,,100,001,2023_May_16_1151,SpeechDraft1Carolyn_lessNoise_PlusLocalization,2021.2.3,59.99369226319105,
,,,,,,,,nearLeft,-6.5,1,ch1Sound_localizationTask.wav,-6.5,"(857, 878)","(-103,-202)",-95,-338,,,,,,,,,,,,,1,6,13,2,,,,,,,,,,,,,,,,,,,,,,,,,,,,,,,,,,,,,,,,1037.652008013,None,,,1040.668145399,None,1.4428571428571428,0.7144967159999851,1040.668145399,None,,,,,,,1038.65165759,None,1038.83507308,1038.851671877,,,,,,,100,001,2023_May_16_1151,SpeechDraft1Carolyn_lessNoise_PlusLocalization,2021.2.3,59.99369226319105,
,,,,,,,,nearLeft,-6.5,1,ch1Sound_localizationTask.wav,-6.5,"(857, 878)","(-103,-202)",-95,-338,,,,,,,,,,,,,2,0,14,2,,,,,,,,,,,,,,,,,,,,,,,,,,,,,,,,,,,,,,,,1041.385185414,None,,,1044.4016544410001,None,1.4211640211640213,0.7978923989999203,1044.4016544410001,None,,,,,,,1042.385008911,None,1042.568499791,1042.585035874,,,,,,,100,001,2023_May_16_1151,SpeechDraft1Carolyn_lessNoise_PlusLocalization,2021.2.3,59.99369226319105,
,,,,,,,,farRight,19.1,4,ch1Sound_localizationTask.wav,19.1,"(1237, 878)","(277,-202)",285,-338,,,,,,,,,,,,,2,1,15,6,,,,,,,,,,,,,,,,,,,,,,,,,,,,,,,,,,,,,,,,1045.201736341,None,,,1048.218385128,None,1.6608465608465608,0.8661439779998545,1048.218385128,None,,,,,,,1046.201733991,None,1046.385035462,1046.401726028,,,,,,,100,001,2023_May_16_1151,SpeechDraft1Carolyn_lessNoise_PlusLocalization,2021.2.3,59.99369226319105,
,,,,,,,,nearLeft,-6.5,1,ch1Sound_localizationTask.wav,-6.5,"(857, 878)","(-103,-202)",-95,-338,,,,,,,,,,,,,2,2,16,2,,,,,,,,,,,,,,,,,,,,,,,,,,,,,,,,,,,,,,,,1049.08514186,None,,,1052.10148841,None,1.4433862433862434,0.6162177240000801,1052.10148841,None,,,,,,,1050.085045559,None,1050.268342795,1050.285100262,,,,,,,100,001,2023_May_16_1151,SpeechDraft1Carolyn_lessNoise_PlusLocalization,2021.2.3,59.99369226319105,
,,,,,,,,midLeft,-13.0,2,ch1Sound_localizationTask.wav,-13.0,"(762, 878)","(-198,-202)",-190,-338,,,,,,,,,,,,,2,3,17,1,,,,,,,,,,,,,,,,,,,,,,,,,,,,,,,,,,,,,,,,1052.718425982,None,,,1055.734886789,None,1.391005291005291,0.5338227130000632,1055.734886789,None,,,,,,,1053.718493798,None,1053.901631983,1053.9183721470001,,,,,,,100,001,2023_May_16_1151,SpeechDraft1Carolyn_lessNoise_PlusLocalization,2021.2.3,59.99369226319105,
,,,,,,,,midLeft,-13.0,2,ch1Sound_localizationTask.wav,-13.0,"(762, 878)","(-198,-202)",-190,-338,,,,,,,,,,,,,2,4,18,1,,,,,,,,,,,,,,,,,,,,,,,,,,,,,,,,,,,,,,,,1056.285164353,None,,,1059.301428767,None,1.391005291005291,0.6153199190000578,1059.301428767,None,,,,,,,1057.285038393,None,1057.468350909,1057.485041037,,,,,,,100,001,2023_May_16_1151,SpeechDraft1Carolyn_lessNoise_PlusLocalization,2021.2.3,59.99369226319105,
,,,,,,,,farRight,19.1,4,ch1Sound_localizationTask.wav,19.1,"(1237, 878)","(277,-202)",285,-338,,,,,,,,,,,,,2,5,19,6,,,,,,,,,,,,,,,,,,,,,,,,,,,,,,,,,,,,,,,,1059.918390807,None,,,1062.934991326,None,1.7513227513227514,0.6467770279998604,1062.934991326,None,,,,,,,1060.918321764,None,1061.101768456,1061.118346735,,,,,,,100,001,2023_May_16_1151,SpeechDraft1Carolyn_lessNoise_PlusLocalization,2021.2.3,59.99369226319105,
,,,,,,,,midRight,13.0,3,ch1Sound_localizationTask.wav,13.0,"(1142, 878)","(182, -202)",190,-338,,,,,,,,,,,,,2,6,20,5,,,,,,,,,,,,,,,,,,,,,,,,,,,,,,,,,,,,,,,,1063.58507953,None,,,1066.6015975120001,None,1.6624338624338624,0.6836567769998965,1066.6015975120001,None,,,,,,,1064.585102987,None,1064.768363229,1064.785071772,,,,,,,100,001,2023_May_16_1151,SpeechDraft1Carolyn_lessNoise_PlusLocalization,2021.2.3,59.99369226319105,
,,,,,,,,nearRight,6.5,0,ch1Sound_localizationTask.wav,6.5,"(1047, 878)","(87, -202)",95,-338,,,,,,,,,,,,,3,0,21,4,,,,,,,,,,,,,,,,,,,,,,,,,,,,,,,,,,,,,,,,1067.301809464,None,,,1070.318181369,None,1.5841269841269843,0.8311916150000798,1070.318181369,None,,,,,,,1068.301763934,None,1068.48513154,1068.501763587,,,,,,,100,001,2023_May_16_1151,SpeechDraft1Carolyn_lessNoise_PlusLocalization,2021.2.3,59.99369226319105,
,,,,,,,,midRight,13.0,3,ch1Sound_localizationTask.wav,13.0,"(1142, 878)","(182, -202)",190,-338,,,,,,,,,,,,,3,1,22,5,,,,,,,,,,,,,,,,,,,,,,,,,,,,,,,,,,,,,,,,1071.151785028,None,,,1074.168238581,None,1.621164021164021,0.6333711180000137,1074.168238581,None,,,,,,,1072.151843553,None,1072.335053825,1072.351809592,,,,,,,100,001,2023_May_16_1151,SpeechDraft1Carolyn_lessNoise_PlusLocalization,2021.2.3,59.99369226319105,
,,,,,,,,farLeft,-19.1,5,ch1Sound_localizationTask.wav,-19.1,"(667, 878)","(-293,-202)",-285,-338,,,,,,,,,,,,,3,2,23,0,,,,,,,,,,,,,,,,,,,,,,,,,,,,,,,,,,,,,,,,1074.801797262,None,,,1077.8182892730001,None,1.3354497354497354,0.8329630010000528,1077.8182892730001,None,,,,,,,1075.80170822,None,1075.985146845,1076.001696689,,,,,,,100,001,2023_May_16_1151,SpeechDraft1Carolyn_lessNoise_PlusLocalization,2021.2.3,59.99369226319105,
,,,,,,,,farLeft,-19.1,5,ch1Sound_localizationTask.wav,-19.1,"(667, 878)","(-293,-202)",-285,-338,,,,,,,,,,,,,3,3,24,0,,,,,,,,,,,,,,,,,,,,,,,,,,,,,,,,,,,,,,,,1078.651963307,None,,,1081.668265382,None,1.3253968253968254,0.616724842999929,1081.668265382,None,,,,,,,1079.652033819,None,1079.835045627,1079.851737128,,,,,,,100,001,2023_May_16_1151,SpeechDraft1Carolyn_lessNoise_PlusLocalization,2021.2.3,59.99369226319105,
,,,,,,,,midRight,13.0,3,ch1Sound_localizationTask.wav,13.0,"(1142, 878)","(182, -202)",190,-338,,,,,,,,,,,,,3,4,25,5,,,,,,,,,,,,,,,,,,,,,,,,,,,,,,,,,,,,,,,,1082.285140464,None,,,1085.301506536,None,1.621164021164021,0.799366358999805,1085.301506536,None,,,,,,,1083.2850954580001,None,1083.468447844,1083.485069431,,,,,,,100,001,2023_May_16_1151,SpeechDraft1Carolyn_lessNoise_PlusLocalization,2021.2.3,59.99369226319105,
,,,,,,,,center,0.0,6,ch1Sound_localizationTask.wav,0.0,"(952, 878)","(-8,-202)",0,-338,,,,,,,,,,,,,3,5,26,3,,,,,,,,,,,,,,,,,,,,,,,,,,,,,,,,,,,,,,,,1086.101931465,None,,,1089.118291408,None,1.5005291005291004,0.7842854149998857,1089.118291408,None,,,,,,,1087.1019264230001,None,1087.285118018,1087.301738114,,,,,,,100,001,2023_May_16_1151,SpeechDraft1Carolyn_lessNoise_PlusLocalization,2021.2.3,59.99369226319105,
,,,,,,,,midRight,13.0,3,ch1Sound_localizationTask.wav,13.0,"(1142, 878)","(182, -202)",190,-338,,,,,,,,,,,,,3,6,27,5,,,,,,,,,,,,,,,,,,,,,,,,,,,,,,,,,,,,,,,,1089.918442916,None,,,1092.934947762,None,1.6058201058201058,0.8825778949999403,1092.934947762,None,,,,,,,1090.918419335,None,1091.101853057,1091.118444754,,,,,,,100,001,2023_May_16_1151,SpeechDraft1Carolyn_lessNoise_PlusLocalization,2021.2.3,59.99369226319105,
,,,,,,,,nearRight,6.5,0,ch1Sound_localizationTask.wav,6.5,"(1047, 878)","(87, -202)",95,-338,,,,,,,,,,,,,4,0,28,4,,,,,,,,,,,,,,,,,,,,,,,,,,,,,,,,,,,,,,,,1093.818542485,None,,,1096.834894389,None,1.5687830687830688,0.6348414280000725,1096.834894389,None,,,,,,,1094.818450683,None,1095.0018535890001,1095.018434106,,,,,,,100,001,2023_May_16_1151,SpeechDraft1Carolyn_lessNoise_PlusLocalization,2021.2.3,59.99369226319105,
,,,,,,,,farLeft,-19.1,5,ch1Sound_localizationTask.wav,-19.1,"(667, 878)","(-293,-202)",-285,-338,,,,,,,,,,,,,4,1,29,0,,,,,,,,,,,,,,,,,,,,,,,,,,,,,,,,,,,,,,,,1097.4855323900001,None,,,1100.50167627,None,1.3253968253968254,0.8653382669999701,1100.50167627,None,,,,,,,1098.485343311,None,1098.668555668,1098.685166168,,,,,,,100,001,2023_May_16_1151,SpeechDraft1Carolyn_lessNoise_PlusLocalization,2021.2.3,59.99369226319105,
,,,,,,,,center,0.0,6,ch1Sound_localizationTask.wav,0.0,"(952, 878)","(-8,-202)",0,-338,,,,,,,,,,,,,4,2,30,3,,,,,,,,,,,,,,,,,,,,,,,,,,,,,,,,,,,,,,,,1101.369222968,None,,,1104.401577543,None,1.4804232804232804,0.6650615219998599,1104.401577543,None,,,,,,,1102.385188574,None,1102.568429341,1102.585395495,,,,,,,100,001,2023_May_16_1151,SpeechDraft1Carolyn_lessNoise_PlusLocalization,2021.2.3,59.99369226319105,
,,,,,,,,nearRight,6.5,0,ch1Sound_localizationTask.wav,6.5,"(1047, 878)","(87, -202)",95,-338,,,,,,,,,,,,,4,3,31,4,,,,,,,,,,,,,,,,,,,,,,,,,,,,,,,,,,,,,,,,1105.068477944,None,,,1108.084992392,None,1.573015873015873,0.5328104300001542,1108.084992392,None,,,,,,,1106.068699023,None,1106.251728761,1106.268569095,,,,,,,100,001,2023_May_16_1151,SpeechDraft1Carolyn_lessNoise_PlusLocalization,2021.2.3,59.99369226319105,
,,,,,,,,center,0.0,6,ch1Sound_localizationTask.wav,0.0,"(952, 878)","(-8,-202)",0,-338,,,,,,,,,,,,,4,4,32,3,,,,,,,,,,,,,,,,,,,,,,,,,,,,,,,,,,,,,,,,1108.619337434,None,,,1111.651706434,None,1.5174603174603174,0.49923857499993574,1111.651706434,None,,,,,,,1109.635095515,None,1109.8185428,1109.8351296390001,,,,,,,100,001,2023_May_16_1151,SpeechDraft1Carolyn_lessNoise_PlusLocalization,2021.2.3,59.99369226319105,
,,,,,,,,nearRight,6.5,0,ch1Sound_localizationTask.wav,6.5,"(1047, 878)","(87, -202)",95,-338,,,,,,,,,,,,,4,5,33,4,,,,,,,,,,,,,,,,,,,,,,,,,,,,,,,,,,,,,,,,1112.151851755,None,,,1115.168292888,None,1.547089947089947,0.5980789180000556,1115.168292888,None,,,,,,,1113.151967364,None,1113.335216557,1113.351922612,,,,,,,100,001,2023_May_16_1151,SpeechDraft1Carolyn_lessNoise_PlusLocalization,2021.2.3,59.99369226319105,
,,,,,,,,farRight,19.1,4,ch1Sound_localizationTask.wav,19.1,"(1237, 878)","(277,-202)",285,-338,,,,,,,,,,,,,4,6,34,6,,,,,,,,,,,,,,,,,,,,,,,,,,,,,,,,,,,,,,,,1115.768534075,None,,,1118.785095284,None,1.691005291005291,1.032685526000023,1118.785095284,None,,,,,,,1116.768357026,None,1116.951805101,1116.968463156,,,,,,,100,001,2023_May_16_1151,SpeechDraft1Carolyn_lessNoise_PlusLocalization,2021.2.3,59.99369226319105,
,,,,,,,,center,0.0,6,ch1Sound_localizationTask.wav,0.0,"(952, 878)","(-8,-202)",0,-338,,,,,,,,,,,,,5,0,35,3,,,,,,,,,,,,,,,,,,,,,,,,,,,,,,,,,,,,,,,,1119.835430775,None,,,1122.851577573,None,1.5084656084656085,0.7482635639998989,1122.851577573,None,,,,,,,1120.835083738,None,1121.018516536,1121.0352118160001,,,,,,,100,001,2023_May_16_1151,SpeechDraft1Carolyn_lessNoise_PlusLocalization,2021.2.3,59.99369226319105,
,,,,,,,,nearLeft,-6.5,1,ch1Sound_localizationTask.wav,-6.5,"(857, 878)","(-103,-202)",-95,-338,,,,,,,,,,,,,5,1,36,2,,,,,,,,,,,,,,,,,,,,,,,,,,,,,,,,,,,,,,,,1123.601817344,None,,,1126.6182775510001,None,1.4592592592592593,1.2512666160000663,1126.6182775510001,None,,,,,,,1124.601889715,None,1124.785058514,1124.801838291,,,,,,,100,001,2023_May_16_1151,SpeechDraft1Carolyn_lessNoise_PlusLocalization,2021.2.3,59.99369226319105,
,,,,,,,,farRight,19.1,4,ch1Sound_localizationTask.wav,19.1,"(1237, 878)","(277,-202)",285,-338,,,,,,,,,,,,,5,2,37,6,,,,,,,,,,,,,,,,,,,,,,,,,,,,,,,,,,,,,,,,1127.885303809,None,,,1130.901674506,None,1.6227513227513226,1.383430836999878,1130.901674506,None,,,,,,,1128.885233837,None,1129.068718709,1129.085246323,,,,,,,100,001,2023_May_16_1151,SpeechDraft1Carolyn_lessNoise_PlusLocalization,2021.2.3,59.99369226319105,
,,,,,,,,nearRight,6.5,0,ch1Sound_localizationTask.wav,6.5,"(1047, 878)","(87, -202)",95,-338,,,,,,,,,,,,,5,3,38,4,,,,,,,,,,,,,,,,,,,,,,,,,,,,,,,,,,,,,,,,1132.302103795,None,,,1135.318285735,None,1.5656084656084657,0.7984802339999533,1135.318285735,None,,,,,,,1133.301916098,None,1133.485069319,1133.501792645,,,,,,,100,001,2023_May_16_1151,SpeechDraft1Carolyn_lessNoise_PlusLocalization,2021.2.3,59.99369226319105,
,,,,,,,,center,0.0,6,ch1Sound_localizationTask.wav,0.0,"(952, 878)","(-8,-202)",0,-338,,,,,,,,,,,,,5,4,39,3,,,,,,,,,,,,,,,,,,,,,,,,,,,,,,,,,,,,,,,,1136.118688985,None,,,1139.134954962,None,1.5,0.698427491999837,1139.134954962,None,,,,,,,1137.118534714,None,1137.301905961,1137.318450665,,,,,,,100,001,2023_May_16_1151,SpeechDraft1Carolyn_lessNoise_PlusLocalization,2021.2.3,59.99369226319105,
,,,,,,,,midLeft,-13.0,2,ch1Sound_localizationTask.wav,-13.0,"(762, 878)","(-198,-202)",-190,-338,,,,,,,,,,,,,5,5,40,1,,,,,,,,,,,,,,,,,,,,,,,,,,,,,,,,,,,,,,,,1139.835160484,None,,,1142.851640676,None,1.38994708994709,0.6822372799999812,1142.851640676,None,,,,,,,1140.8352953190001,None,1141.018769907,1141.035226508,,,,,,,100,001,2023_May_16_1151,SpeechDraft1Carolyn_lessNoise_PlusLocalization,2021.2.3,59.99369226319105,
,,,,,,,,midRight,13.0,3,ch1Sound_localizationTask.wav,13.0,"(1142, 878)","(182, -202)",190,-338,,,,,,,,,,,,,5,6,41,5,,,,,,,,,,,,,,,,,,,,,,,,,,,,,,,,,,,,,,,,1143.535176863,None,,,1146.55160129,None,1.6428571428571428,0.5833251100000325,1146.55160129,None,,,,,,,1144.535290952,None,1144.718452467,1144.735141134,,,,,,,100,001,2023_May_16_1151,SpeechDraft1Carolyn_lessNoise_PlusLocalization,2021.2.3,59.99369226319105,
,,,,,,,,nearRight,6.5,0,ch1Sound_localizationTask.wav,6.5,"(1047, 878)","(87, -202)",95,-338,,,,,,,,,,,,,6,0,42,4,,,,,,,,,,,,,,,,,,,,,,,,,,,,,,,,,,,,,,,,1147.151853687,None,,,1150.168150968,None,1.5825396825396827,0.5994991810000556,1150.168150968,None,,,,,,,1148.15188504,None,1148.335171085,1148.351920878,,,,,,,100,001,2023_May_16_1151,SpeechDraft1Carolyn_lessNoise_PlusLocalization,2021.2.3,59.99369226319105,
,,,,,,,,midLeft,-13.0,2,ch1Sound_localizationTask.wav,-13.0,"(762, 878)","(-198,-202)",-190,-338,,,,,,,,,,,,,6,1,43,1,,,,,,,,,,,,,,,,,,,,,,,,,,,,,,,,,,,,,,,,1150.76901765,None,,,1153.784989506,None,1.4005291005291005,0.5649887340000532,1153.784989506,None,,,,,,,1151.768506013,None,1151.951920507,1151.968560648,,,,,,,100,001,2023_May_16_1151,SpeechDraft1Carolyn_lessNoise_PlusLocalization,2021.2.3,59.99369226319105,
,,,,,,,,farLeft,-19.1,5,ch1Sound_localizationTask.wav,-19.1,"(667, 878)","(-293,-202)",-285,-338,,,,,,,,,,,,,6,2,44,0,,,,,,,,,,,,,,,,,,,,,,,,,,,,,,,,,,,,,,,,1154.352000397,None,,,1157.368229738,None,1.3322751322751323,0.565541691999897,1157.368229738,None,,,,,,,1155.351869539,None,1155.535235578,1155.551881982,,,,,,,100,001,2023_May_16_1151,SpeechDraft1Carolyn_lessNoise_PlusLocalization,2021.2.3,59.99369226319105,
,,,,,,,,midRight,13.0,3,ch1Sound_localizationTask.wav,13.0,"(1142, 878)","(182, -202)",190,-338,,,,,,,,,,,,,6,3,45,5,,,,,,,,,,,,,,,,,,,,,,,,,,,,,,,,,,,,,,,,1157.935866603,None,,,1160.951616667,None,1.6185185185185185,0.5992365970000719,1160.951616667,None,,,,,,,1158.935333155,None,1159.11853614,1159.135344284,,,,,,,100,001,2023_May_16_1151,SpeechDraft1Carolyn_lessNoise_PlusLocalization,2021.2.3,59.99369226319105,
,,,,,,,,farRight,19.1,4,ch1Sound_localizationTask.wav,19.1,"(1237, 878)","(277,-202)",285,-338,,,,,,,,,,,,,6,4,46,6,,,,,,,,,,,,,,,,,,,,,,,,,,,,,,,,,,,,,,,,1161.568592346,None,,,1164.584925727,None,1.687830687830688,0.5828925169998911,1164.584925727,None,,,,,,,1162.568639221,None,1162.751782063,1162.768562838,,,,,,,100,001,2023_May_16_1151,SpeechDraft1Carolyn_lessNoise_PlusLocalization,2021.2.3,59.99369226319105,
,,,,,,,,nearLeft,-6.5,1,ch1Sound_localizationTask.wav,-6.5,"(857, 878)","(-103,-202)",-95,-338,,,,,,,,,,,,,6,5,47,2,,,,,,,,,,,,,,,,,,,,,,,,,,,,,,,,,,,,,,,,1165.185377044,None,,,1168.201506247,None,1.3931216931216932,0.6162744010000551,1168.201506247,None,,,,,,,1166.185206785,None,1166.368480179,1166.385251816,,,,,,,100,001,2023_May_16_1151,SpeechDraft1Carolyn_lessNoise_PlusLocalization,2021.2.3,59.99369226319105,
,,,,,,,,farRight,19.1,4,ch1Sound_localizationTask.wav,19.1,"(1237, 878)","(277,-202)",285,-338,,,,,,,,,,,,,6,6,48,6,,,,,,,,,,,,,,,,,,,,,,,,,,,,,,,,,,,,,,,,1168.81981707,None,,,1171.8517279,None,1.6703703703703705,0.6831750579999607,1171.8517279,None,,,,,,,1169.835353487,None,1170.018594156,1170.035416444,,,,,,,100,001,2023_May_16_1151,SpeechDraft1Carolyn_lessNoise_PlusLocalization,2021.2.3,59.99369226319105,
,,,,,,,,farLeft,-19.1,5,ch1Sound_localizationTask.wav,-19.1,"(667, 878)","(-293,-202)",-285,-338,,,,,,,,,,,,,7,0,49,0,,,,,,,,,,,,,,,,,,,,,,,,,,,,,,,,,,,,,,,,1172.551873155,None,,,1175.568334436,None,1.3835978835978837,1.1664312690002134,1175.568334436,None,,,,,,,1173.551886671,None,1173.735158648,1173.751955188,,,,,,,100,001,2023_May_16_1151,SpeechDraft1Carolyn_lessNoise_PlusLocalization,2021.2.3,59.99369226319105,
,,,,,,,,midLeft,-13.0,2,ch1Sound_localizationTask.wav,-13.0,"(762, 878)","(-198,-202)",-190,-338,,,,,,,,,,,,,7,1,50,1,,,,,,,,,,,,,,,,,,,,,,,,,,,,,,,,,,,,,,,,1176.751956362,None,,,1179.768353009,None,1.3476190476190477,0.635334475000036,1179.768353009,None,,,,,,,1177.75193289,None,1177.935145445,1177.951981235,,,,,,,100,001,2023_May_16_1151,SpeechDraft1Carolyn_lessNoise_PlusLocalization,2021.2.3,59.99369226319105,
,,,,,,,,midRight,13.0,3,ch1Sound_localizationTask.wav,13.0,"(1142, 878)","(182, -202)",190,-338,,,,,,,,,,,,,7,2,51,5,,,,,,,,,,,,,,,,,,,,,,,,,,,,,,,,,,,,,,,,1180.418566372,None,,,1183.435037341,None,1.6523809523809523,0.7651119780000499,1183.435037341,None,,,,,,,1181.4186605730001,None,1181.601876719,1181.618604125,,,,,,,100,001,2023_May_16_1151,SpeechDraft1Carolyn_lessNoise_PlusLocalization,2021.2.3,59.99369226319105,
,,,,,,,,farRight,19.1,4,ch1Sound_localizationTask.wav,19.1,"(1237, 878)","(277,-202)",285,-338,,,,,,,,,,,,,7,3,52,6,,,,,,,,,,,,,,,,,,,,,,,,,,,,,,,,,,,,,,,,1184.201998217,None,,,1187.218440395,None,1.6973544973544974,0.5495337720001316,1187.218440395,None,,,,,,,1185.20201,None,1185.385182698,1185.401908357,,,,,,,100,001,2023_May_16_1151,SpeechDraft1Carolyn_lessNoise_PlusLocalization,2021.2.3,59.99369226319105,
,,,,,,,,center,0.0,6,ch1Sound_localizationTask.wav,0.0,"(952, 878)","(-8,-202)",0,-338,,,,,,,,,,,,,7,4,53,3,,,,,,,,,,,,,,,,,,,,,,,,,,,,,,,,,,,,,,,,1187.768958339,None,,,1190.784993448,None,1.5063492063492063,0.732619965999902,1190.784993448,None,,,,,,,1188.768562254,None,1188.951999991,1188.968624404,,,,,,,100,001,2023_May_16_1151,SpeechDraft1Carolyn_lessNoise_PlusLocalization,2021.2.3,59.99369226319105,
,,,,,,,,midRight,13.0,3,ch1Sound_localizationTask.wav,13.0,"(1142, 878)","(182, -202)",190,-338,,,,,,,,,,,,,7,5,54,5,,,,,,,,,,,,,,,,,,,,,,,,,,,,,,,,,,,,,,,,1191.519207996,None,,,1194.5350995420001,None,1.6047619047619048,0.5336977819999902,1194.5350995420001,None,,,,,,,1192.518655664,None,1192.701945741,1192.718563629,,,,,,,100,001,2023_May_16_1151,SpeechDraft1Carolyn_lessNoise_PlusLocalization,2021.2.3,59.99369226319105,
,,,,,,,,farLeft,-19.1,5,ch1Sound_localizationTask.wav,-19.1,"(667, 878)","(-293,-202)",-285,-338,,,,,,,,,,,,,7,6,55,0,,,,,,,,,,,,,,,,,,,,,,,,,,,,,,,,,,,,,,,,1195.069140847,None,,,1198.085105994,None,1.38994708994709,1.0165118639999946,1198.085105994,None,,,,,,,1196.068638487,None,1196.251873351,1196.2685589,,,,,,,100,001,2023_May_16_1151,SpeechDraft1Carolyn_lessNoise_PlusLocalization,2021.2.3,59.99369226319105,
,,,,,,,,,,,,,,,,,,,,,,,,,,,,,,,,,,,,,,,,,,,,,,,,,,,,,,,,,,,,,,,,,,,,,,,,,,,,,,,,,,,,,,,,,,,,1199.10224469,None,c,99.11679362500013,1200.08517835,None,100,001,2023_May_16_1151,SpeechDraft1Carolyn_lessNoise_PlusLocalization,2021.2.3,59.99369226319105,
