Audio_Only_Files,Video_Files,Original_Word_List,noiseLevelCode,conditionCodes,noiseLevelFile1,noiseLevelFile2,InstrTextVar,targetSpeakerName,targetSpeakerEccen,targetSpkrChannel,targetSpkrSound,targetVisualDegrees,visStimLoc,visStimLoc2,visStimW,visStimH,practiceTrials.thisRepN,practiceTrials.thisTrialN,practiceTrials.thisN,practiceTrials.thisIndex,trials.thisRepN,trials.thisTrialN,trials.thisN,trials.thisIndex,audLocalLoop.thisRepN,audLocalLoop.thisTrialN,audLocalLoop.thisN,audLocalLoop.thisIndex,visualLocalLoop.thisRepN,visualLocalLoop.thisTrialN,visualLocalLoop.thisN,visualLocalLoop.thisIndex,letsGoAlready.keys,letsGoAlready.rt,letsGoAlready.started,letsGoAlready.stopped,text_2.started,text_2.stopped,text_3.started,text_3.stopped,key_resp_2.keys,key_resp_2.rt,key_resp_2.started,key_resp_2.stopped,text_5.started,text_5.stopped,fixCross.started,fixCross.stopped,fixCross2.started,fixCross2.stopped,answerPrompt.started,answerPrompt.stopped,getAnswer.text,getAnswer.started,getAnswer.stopped,goToNext.keys,goToNext.rt,goToNext.started,goToNext.stopped,stretchBreakTxrt.started,stretchBreakTxrt.stopped,key_resp_3.keys,key_resp_3.rt,key_resp_3.started,key_resp_3.stopped,letsGoLocal.keys,letsGoLocal.rt,letsGoLocal.started,letsGoLocal.stopped,text_4.started,text_4.stopped,prepFixTxt.started,prepFixTxt.stopped,prepFixTxt_2.started,prepFixTxt_2.stopped,respPromptLocal.started,respPromptLocal.stopped,slider.response,slider.rt,slider.started,slider.stopped,letsGoLocal_2.keys,letsGoLocal_2.rt,letsGoLocal_2.started,letsGoLocal_2.stopped,text_7.started,text_7.stopped,prepFixTxt_3.started,prepFixTxt_3.stopped,grating.started,grating.stopped,participant,session,date,expName,psychopyVersion,frameRate,
,,,,,,,,,,,,,,,,,,,,,,,,,,,,,,,,,space,1.3938045120003153,10.063004173000081,None,,,,,,,,,,,,,,,,,,,,,,,,,,,,,,,,,,,,,,,,,,,,,,,,,,,,,,,,104,001,2023_May_23_1726,SpeechDraft1Carolyn_lessNoise_PlusLocalization,2021.2.3,60.018552094606584,
,,,,,,,,,,,,,,,,,,,,,,,,,,,,,,,,,,,,,10.063004173000081,None,11.580549819000225,None,space,1.5574956649998057,11.763320886000656,None,,,,,,,,,,,,,,,,,,,,,,,,,,,,,,,,,,,,,,,,,,,,,,,,104,001,2023_May_23_1726,SpeechDraft1Carolyn_lessNoise_PlusLocalization,2021.2.3,60.018552094606584,
ash.wav,ash.mpg,ash,1,A,Pink_Noise_1_1.wav,Pink_Noise_1_2.wav,"This is an example of an

AUDIO trial",,,,,,,,,,0,0,0,0,,,,,,,,,,,,,,,,,,,,,,,,,13.396292463999998,None,14.363062439000714,None,17.446177420000822,None,18.829750299000807,None,ash ,18.829750299000807,None,return,17.447779379000167,18.913043221000407,None,,,,,,,,,,,,,,,,,,,,,,,,,,,,,,,,,104,001,2023_May_23_1726,SpeechDraft1Carolyn_lessNoise_PlusLocalization,2021.2.3,60.018552094606584,
ash.wav,ash.mpg,ash,1,AV,Pink_Noise_1_1.wav,Pink_Noise_1_2.wav,"This is an example of an

AUDIO + VIDEO  trial",,,,,,,,,,0,1,1,1,,,,,,,,,,,,,,,,,,,,,,,,,36.396197961000325,None,37.39639029299997,None,38.896169819000534,None,40.279838743000255,None,"ash
",40.279838743000255,None,return,11.869571614000051,40.3632484510008,None,,,,,,,,,,,,,,,,,,,,,,,,,,,,,,,,,104,001,2023_May_23_1726,SpeechDraft1Carolyn_lessNoise_PlusLocalization,2021.2.3,60.018552094606584,
,,,,,,,,,,,,,,,,,,,,,,,,,,,,,,,,,,,,,,,,,,,,,,,,,,,,,,,,,,,,52.27953412200077,None,space,20.025599203999263,52.463211773000694,None,,,,,,,,,,,,,,,,,,,,,,,,,,,104,001,2023_May_23_1726,SpeechDraft1Carolyn_lessNoise_PlusLocalization,2021.2.3,60.018552094606584,
crook.wav,crook.mpg,crook,4,A,Pink_Noise_4_1.wav,Pink_Noise_4_2.wav,,,,,,,,,,,,,,,0,0,0,58,,,,,,,,,,,,,,,,,,,,,,,72.54626976100008,None,74.02961172900086,None,75.41318572400087,None,crup,75.41318572400087,None,return,13.496337928000685,75.49655936400086,None,,,,,,,,,,,,,,,,,,,,,,,,,,,,,,,,,104,001,2023_May_23_1726,SpeechDraft1Carolyn_lessNoise_PlusLocalization,2021.2.3,60.018552094606584,
bribe.wav,bribe.mpg,bribe,1,A,Pink_Noise_1_1.wav,Pink_Noise_1_2.wav,,,,,,,,,,,,,,,0,1,1,15,,,,,,,,,,,,,,,,,,,,,,,89.01308252700073,None,90.51291800200033,None,91.89649123700019,None,fried,91.89649123700019,None,return,7.389175145999616,91.97971955000048,None,,,,,,,,,,,,,,,,,,,,,,,,,,,,,,,,,104,001,2023_May_23_1726,SpeechDraft1Carolyn_lessNoise_PlusLocalization,2021.2.3,60.018552094606584,
tear.wav,tear.mpg,tear,5,AV,Pink_Noise_5_1.wav,Pink_Noise_5_2.wav,,,,,,,,,,,,,,,0,2,2,67,,,,,,,,,,,,,,,,,,,,,,,99.3965477390002,None,100.89634399500028,None,102.27989412500028,None," em
",102.27989412500028,None,return,13.50156048900044,102.36325753500023,None,,,,,,,,,,,,,,,,,,,,,,,,,,,,,,,,,104,001,2023_May_23_1726,SpeechDraft1Carolyn_lessNoise_PlusLocalization,2021.2.3,60.018552094606584,
food.wav,food.mpg,food,4,A,Pink_Noise_4_1.wav,Pink_Noise_4_2.wav,,,,,,,,,,,,,,,0,3,3,49,,,,,,,,,,,,,,,,,,,,,,,115.89654671800054,None,117.39638538700001,None,118.779949193,None,him,118.779949193,None,return,17.961395841999547,118.86343172400029,None,,,,,,,,,,,,,,,,,,,,,,,,,,,,,,,,,104,001,2023_May_23_1726,SpeechDraft1Carolyn_lessNoise_PlusLocalization,2021.2.3,60.018552094606584,
dice.wav,dice.mpg,dice,3,A,Pink_Noise_3_1.wav,Pink_Noise_3_2.wav,,,,,,,,,,,,,,,0,4,4,48,,,,,,,,,,,,,,,,,,,,,,,136.84658972700072,None,138.34637346800082,None,139.72989038500054,None,dutz,139.72989038500054,None,return,5.963673287000347,139.8132486150007,None,,,,,,,,,,,,,,,,,,,,,,,,,,,,,,,,,104,001,2023_May_23_1726,SpeechDraft1Carolyn_lessNoise_PlusLocalization,2021.2.3,60.018552094606584,
coy.wav,coy.mpg,coy,2,A,Pink_Noise_2_1.wav,Pink_Noise_2_2.wav,,,,,,,,,,,,,,,0,5,5,56,,,,,,,,,,,,,,,,,,,,,,,145.79662285800077,None,147.2964130550008,None,148.68004953900072,None,coin,148.68004953900072,None,return,4.005673505000232,148.7632072660008,None,,,,,,,,,,,,,,,,,,,,,,,,,,,,,,,,,104,001,2023_May_23_1726,SpeechDraft1Carolyn_lessNoise_PlusLocalization,2021.2.3,60.018552094606584,
fowl.wav,fowl.mpg,fowl,6,A,Pink_Noise_6_1.wav,Pink_Noise_6_2.wav,,,,,,,,,,,,,,,0,6,6,53,,,,,,,,,,,,,,,,,,,,,,,152.7967461170001,None,154.2963455730005,None,155.68002582200006,None,hot,155.68002582200006,None,return,4.549475681000331,155.76337682600024,None,,,,,,,,,,,,,,,,,,,,,,,,,,,,,,,,,104,001,2023_May_23_1726,SpeechDraft1Carolyn_lessNoise_PlusLocalization,2021.2.3,60.018552094606584,
drunk.wav,drunk.mpg,drunk,1,A,Pink_Noise_1_1.wav,Pink_Noise_1_2.wav,,,,,,,,,,,,,,,0,7,7,31,,,,,,,,,,,,,,,,,,,,,,,160.32987755000067,None,161.82970111600025,None,163.21318940500078,None,drunk,163.21318940500078,None,return,4.408357457999955,163.2964636710003,None,,,,,,,,,,,,,,,,,,,,,,,,,,,,,,,,,104,001,2023_May_23_1726,SpeechDraft1Carolyn_lessNoise_PlusLocalization,2021.2.3,60.018552094606584,
groan.wav,groan.mpg,groan,2,A,Pink_Noise_2_1.wav,Pink_Noise_2_2.wav,,,,,,,,,,,,,,,0,8,8,29,,,,,,,,,,,,,,,,,,,,,,,167.72993423300068,None,169.22979120000036,None,170.61324216600042,None,grown,170.61324216600042,None,return,5.728176057999917,170.69663950300037,None,,,,,,,,,,,,,,,,,,,,,,,,,,,,,,,,,104,001,2023_May_23_1726,SpeechDraft1Carolyn_lessNoise_PlusLocalization,2021.2.3,60.018552094606584,
champ.wav,champ.mpg,champ,2,AV,Pink_Noise_2_1.wav,Pink_Noise_2_2.wav,,,,,,,,,,,,,,,0,9,9,94,,,,,,,,,,,,,,,,,,,,,,,176.44649797400052,None,177.93213727900002,None,179.31323956699998,None,chance,179.31323956699998,None,return,5.940416692000326,179.39651044700076,None,,,,,,,,,,,,,,,,,,,,,,,,,,,,,,,,,104,001,2023_May_23_1726,SpeechDraft1Carolyn_lessNoise_PlusLocalization,2021.2.3,60.018552094606584,
blimp.wav,blimp.mpg,blimp,3,A,Pink_Noise_3_1.wav,Pink_Noise_3_2.wav,,,,,,,,,,,,,,,0,10,10,8,,,,,,,,,,,,,,,,,,,,,,,185.36335395900005,None,186.86294012100007,None,188.2465534540006,None,lis,188.2465534540006,None,return,3.798912659999587,188.3299841320004,None,,,,,,,,,,,,,,,,,,,,,,,,,,,,,,,,,104,001,2023_May_23_1726,SpeechDraft1Carolyn_lessNoise_PlusLocalization,2021.2.3,60.018552094606584,
duct.wav,duct.mpg,duct,2,AV,Pink_Noise_2_1.wav,Pink_Noise_2_2.wav,,,,,,,,,,,,,,,0,11,11,97,,,,,,,,,,,,,,,,,,,,,,,192.1465926460005,None,193.6464371480006,None,195.02999999200074,None,dot,195.02999999200074,None,return,3.631523467000079,195.113364885,None,,,,,,,,,,,,,,,,,,,,,,,,,,,,,,,,,104,001,2023_May_23_1726,SpeechDraft1Carolyn_lessNoise_PlusLocalization,2021.2.3,60.018552094606584,
gum.wav,gum.mpg,gum,1,A,Pink_Noise_1_1.wav,Pink_Noise_1_2.wav,,,,,,,,,,,,,,,0,12,12,37,,,,,,,,,,,,,,,,,,,,,,,198.76326289200006,None,200.26325603200075,None,201.64659838200078,None,gum,201.64659838200078,None,return,4.262836038999922,201.73002439900029,None,,,,,,,,,,,,,,,,,,,,,,,,,,,,,,,,,104,001,2023_May_23_1726,SpeechDraft1Carolyn_lessNoise_PlusLocalization,2021.2.3,60.018552094606584,
dark.wav,dark.mpg,dark,5,A,Pink_Noise_5_1.wav,Pink_Noise_5_2.wav,,,,,,,,,,,,,,,0,13,13,59,,,,,,,,,,,,,,,,,,,,,,,206.0133399490005,None,207.5130245320006,None,208.89668257100038,None,fly,208.89668257100038,None,return,3.748840286999439,208.98006279000037,None,,,,,,,,,,,,,,,,,,,,,,,,,,,,,,,,,104,001,2023_May_23_1726,SpeechDraft1Carolyn_lessNoise_PlusLocalization,2021.2.3,60.018552094606584,
egg.wav,egg.mpg,egg,2,A,Pink_Noise_2_1.wav,Pink_Noise_2_2.wav,,,,,,,,,,,,,,,0,14,14,30,,,,,,,,,,,,,,,,,,,,,,,212.74663802900068,None,214.2464594840003,None,215.63018087900036,None,egg,215.63018087900036,None,return,2.5113645609999367,215.71345231800024,None,,,,,,,,,,,,,,,,,,,,,,,,,,,,,,,,,104,001,2023_May_23_1726,SpeechDraft1Carolyn_lessNoise_PlusLocalization,2021.2.3,60.018552094606584,
bass.wav,bass.mpg,bass,6,A,Pink_Noise_6_1.wav,Pink_Noise_6_2.wav,,,,,,,,,,,,,,,0,15,15,11,,,,,,,,,,,,,,,,,,,,,,,218.24662494400036,None,219.74651417400037,None,221.13013605600008,None,nix,221.13013605600008,None,return,4.379430013000274,221.21339622600044,None,,,,,,,,,,,,,,,,,,,,,,,,,,,,,,,,,104,001,2023_May_23_1726,SpeechDraft1Carolyn_lessNoise_PlusLocalization,2021.2.3,60.018552094606584,
cream.wav,cream.mpg,cream,5,AV,Pink_Noise_5_1.wav,Pink_Noise_5_2.wav,,,,,,,,,,,,,,,0,16,16,72,,,,,,,,,,,,,,,,,,,,,,,225.6133958420005,None,227.11311420500078,None,228.4967293870004,None,seen,228.4967293870004,None,return,3.5567936699999336,228.5800980670001,None,,,,,,,,,,,,,,,,,,,,,,,,,,,,,,,,,104,001,2023_May_23_1726,SpeechDraft1Carolyn_lessNoise_PlusLocalization,2021.2.3,60.018552094606584,
clip.wav,clip.mpg,clip,2,A,Pink_Noise_2_1.wav,Pink_Noise_2_2.wav,,,,,,,,,,,,,,,0,17,17,6,,,,,,,,,,,,,,,,,,,,,,,232.1634317600001,None,233.66325881300054,None,235.04677472500043,None,clip,235.04677472500043,None,return,3.8626766279994627,235.13015610399998,None,,,,,,,,,,,,,,,,,,,,,,,,,,,,,,,,,104,001,2023_May_23_1726,SpeechDraft1Carolyn_lessNoise_PlusLocalization,2021.2.3,60.018552094606584,
chick.wav,chick.mpg,chick,4,A,Pink_Noise_4_1.wav,Pink_Noise_4_2.wav,,,,,,,,,,,,,,,0,18,18,32,,,,,,,,,,,,,,,,,,,,,,,239.0132406140001,None,240.51318248900043,None,241.89675306200024,None,chick,241.89675306200024,None,return,4.260727165999924,241.98007577700082,None,,,,,,,,,,,,,,,,,,,,,,,,,,,,,,,,,104,001,2023_May_23_1726,SpeechDraft1Carolyn_lessNoise_PlusLocalization,2021.2.3,60.018552094606584,
flood.wav,flood.mpg,flood,4,A,Pink_Noise_4_1.wav,Pink_Noise_4_2.wav,,,,,,,,,,,,,,,0,19,19,4,,,,,,,,,,,,,,,,,,,,,,,246.26344486500057,None,247.76306795500022,None,249.14683949900063,None,flight,249.14683949900063,None,return,4.330778253999597,249.23006590000023,None,,,,,,,,,,,,,,,,,,,,,,,,,,,,,,,,,104,001,2023_May_23_1726,SpeechDraft1Carolyn_lessNoise_PlusLocalization,2021.2.3,60.018552094606584,
pact.wav,pact.mpg,pact,1,A,Pink_Noise_1_1.wav,Pink_Noise_1_2.wav,,,,,,,,,,,,,,,0,20,20,47,,,,,,,,,,,,,,,,,,,,,,,253.58011028800047,None,255.07981312800075,None,256.4633971350004,None,pack,256.4633971350004,None,return,6.166141153000353,256.5467709680006,None,,,,,,,,,,,,,,,,,,,,,,,,,,,,,,,,,104,001,2023_May_23_1726,SpeechDraft1Carolyn_lessNoise_PlusLocalization,2021.2.3,60.018552094606584,
roast.wav,roast.mpg,roast,4,A,Pink_Noise_4_1.wav,Pink_Noise_4_2.wav,,,,,,,,,,,,,,,0,21,21,26,,,,,,,,,,,,,,,,,,,,,,,262.730106555,None,264.2299708340006,None,265.6133113700007,None,toast,265.6133113700007,None,return,4.872098603000268,265.6967564530005,None,,,,,,,,,,,,,,,,,,,,,,,,,,,,,,,,,104,001,2023_May_23_1726,SpeechDraft1Carolyn_lessNoise_PlusLocalization,2021.2.3,60.018552094606584,
curse.wav,curse.mpg,curse,5,A,Pink_Noise_5_1.wav,Pink_Noise_5_2.wav,,,,,,,,,,,,,,,0,22,22,35,,,,,,,,,,,,,,,,,,,,,,,270.5967797630001,None,272.09639254800004,None,273.4801684040003,None,"first
",273.4801684040003,None,return,5.901325816999815,273.5634908890006,None,,,,,,,,,,,,,,,,,,,,,,,,,,,,,,,,,104,001,2023_May_23_1726,SpeechDraft1Carolyn_lessNoise_PlusLocalization,2021.2.3,60.018552094606584,
flesh.wav,flesh.mpg,flesh,3,AV,Pink_Noise_3_1.wav,Pink_Noise_3_2.wav,,,,,,,,,,,,,,,0,23,23,88,,,,,,,,,,,,,,,,,,,,,,,279.49678570300057,None,280.99652070200045,None,282.38010074200065,None,flesh,282.38010074200065,None,return,4.481481738000184,282.4633855760003,None,,,,,,,,,,,,,,,,,,,,,,,,,,,,,,,,,104,001,2023_May_23_1726,SpeechDraft1Carolyn_lessNoise_PlusLocalization,2021.2.3,60.018552094606584,
gulf.wav,gulf.mpg,gulf,3,AV,Pink_Noise_3_1.wav,Pink_Noise_3_2.wav,,,,,,,,,,,,,,,0,24,24,66,,,,,,,,,,,,,,,,,,,,,,,286.9633670060002,None,288.4632803990007,None,289.8469084140006,None,"scoff
",289.8469084140006,None,return,3.9667547839999315,289.9300692630004,None,,,,,,,,,,,,,,,,,,,,,,,,,,,,,,,,,104,001,2023_May_23_1726,SpeechDraft1Carolyn_lessNoise_PlusLocalization,2021.2.3,60.018552094606584,
draw.wav,draw.mpg,draw,1,AV,Pink_Noise_1_1.wav,Pink_Noise_1_2.wav,,,,,,,,,,,,,,,0,25,25,92,,,,,,,,,,,,,,,,,,,,,,,293.93029038500026,None,295.429883967,None,296.81338652200066,None,draw,296.81338652200066,None,return,3.288009683999917,296.8968100410002,None,,,,,,,,,,,,,,,,,,,,,,,,,,,,,,,,,104,001,2023_May_23_1726,SpeechDraft1Carolyn_lessNoise_PlusLocalization,2021.2.3,60.018552094606584,
chief.wav,chief.mpg,chief,5,A,Pink_Noise_5_1.wav,Pink_Noise_5_2.wav,,,,,,,,,,,,,,,0,26,26,42,,,,,,,,,,,,,,,,,,,,,,,300.2134964400002,None,301.713215537,None,303.0968276150006,None,chick,303.0968276150006,None,return,4.940629018000436,303.18023798000013,None,,,,,,,,,,,,,,,,,,,,,,,,,,,,,,,,,104,001,2023_May_23_1726,SpeechDraft1Carolyn_lessNoise_PlusLocalization,2021.2.3,60.018552094606584,
germ.wav,germ.mpg,germ,5,A,Pink_Noise_5_1.wav,Pink_Noise_5_2.wav,,,,,,,,,,,,,,,0,27,27,50,,,,,,,,,,,,,,,,,,,,,,,308.1468603310004,None,309.6464835700008,None,311.03030443900025,None,"jones
",311.03030443900025,None,return,5.335380245999659,311.1134656490003,None,,,,,,,,,,,,,,,,,,,,,,,,,,,,,,,,,104,001,2023_May_23_1726,SpeechDraft1Carolyn_lessNoise_PlusLocalization,2021.2.3,60.018552094606584,
gas.wav,gas.mpg,gas,3,AV,Pink_Noise_3_1.wav,Pink_Noise_3_2.wav,,,,,,,,,,,,,,,0,28,28,77,,,,,,,,,,,,,,,,,,,,,,,316.4801275690006,None,317.9800382610001,None,319.3635037660006,None,gas,319.3635037660006,None,return,3.3060872500000187,319.44682331200056,None,,,,,,,,,,,,,,,,,,,,,,,,,,,,,,,,,104,001,2023_May_23_1726,SpeechDraft1Carolyn_lessNoise_PlusLocalization,2021.2.3,60.018552094606584,
clam.wav,clam.mpg,clam,5,AV,Pink_Noise_5_1.wav,Pink_Noise_5_2.wav,,,,,,,,,,,,,,,0,29,29,99,,,,,,,,,,,,,,,,,,,,,,,322.78024911300054,None,324.27997589700044,None,325.6636227130002,None,am,325.6636227130002,None,return,2.78203508399929,325.74685128000056,None,,,,,,,,,,,,,,,,,,,,,,,,,,,,,,,,,104,001,2023_May_23_1726,SpeechDraft1Carolyn_lessNoise_PlusLocalization,2021.2.3,60.018552094606584,
fine.wav,fine.mpg,fine,6,A,Pink_Noise_6_1.wav,Pink_Noise_6_2.wav,,,,,,,,,,,,,,,0,30,30,10,,,,,,,,,,,,,,,,,,,,,,,328.5467936620007,None,330.046686486,None,331.43034170600004,None,sound,331.43034170600004,None,return,5.399436560999675,331.51345479500014,None,,,,,,,,,,,,,,,,,,,,,,,,,,,,,,,,,104,001,2023_May_23_1726,SpeechDraft1Carolyn_lessNoise_PlusLocalization,2021.2.3,60.018552094606584,
drive.wav,drive.mpg,drive,2,AV,Pink_Noise_2_1.wav,Pink_Noise_2_2.wav,,,,,,,,,,,,,,,0,31,31,95,,,,,,,,,,,,,,,,,,,,,,,336.9302764440008,None,338.4299951840003,None,339.81347058200026,None,"drive
",339.81347058200026,None,return,4.304005089999919,339.8968168190004,None,,,,,,,,,,,,,,,,,,,,,,,,,,,,,,,,,104,001,2023_May_23_1726,SpeechDraft1Carolyn_lessNoise_PlusLocalization,2021.2.3,60.018552094606584,
crawl.wav,crawl.mpg,crawl,6,AV,Pink_Noise_6_1.wav,Pink_Noise_6_2.wav,,,,,,,,,,,,,,,0,32,32,101,,,,,,,,,,,,,,,,,,,,,,,344.230140443,None,345.72990660400046,None,347.1135012450004,None,whule,347.1135012450004,None,return,8.427837535000435,347.1969707540002,None,,,,,,,,,,,,,,,,,,,,,,,,,,,,,,,,,104,001,2023_May_23_1726,SpeechDraft1Carolyn_lessNoise_PlusLocalization,2021.2.3,60.018552094606584,
dad.wav,dad.mpg,dad,6,A,Pink_Noise_6_1.wav,Pink_Noise_6_2.wav,,,,,,,,,,,,,,,0,33,33,1,,,,,,,,,,,,,,,,,,,,,,,355.6468420200008,None,357.14661671400063,None,358.5302827880005,None,flesh,358.5302827880005,None,return,4.283281912000348,358.61356394700033,None,,,,,,,,,,,,,,,,,,,,,,,,,,,,,,,,,104,001,2023_May_23_1726,SpeechDraft1Carolyn_lessNoise_PlusLocalization,2021.2.3,60.018552094606584,
foam.wav,foam.mpg,foam,4,A,Pink_Noise_4_1.wav,Pink_Noise_4_2.wav,,,,,,,,,,,,,,,0,34,34,38,,,,,,,,,,,,,,,,,,,,,,,362.91366566800025,None,364.4133122160001,None,365.7969498400007,None,foam,365.7969498400007,None,return,4.70459720800045,365.88022199700026,None,,,,,,,,,,,,,,,,,,,,,,,,,,,,,,,,,104,001,2023_May_23_1726,SpeechDraft1Carolyn_lessNoise_PlusLocalization,2021.2.3,60.018552094606584,
bless.wav,bless.mpg,bless,3,A,Pink_Noise_3_1.wav,Pink_Noise_3_2.wav,,,,,,,,,,,,,,,0,35,35,20,,,,,,,,,,,,,,,,,,,,,,,370.6134888830002,None,372.11331821600015,None,373.4969669540005,None,less,373.4969669540005,None,return,3.644589998999436,373.5802261640001,None,,,,,,,,,,,,,,,,,,,,,,,,,,,,,,,,,104,001,2023_May_23_1726,SpeechDraft1Carolyn_lessNoise_PlusLocalization,2021.2.3,60.018552094606584,
fuel.wav,fuel.mpg,fuel,4,AV,Pink_Noise_4_1.wav,Pink_Noise_4_2.wav,,,,,,,,,,,,,,,0,36,36,113,,,,,,,,,,,,,,,,,,,,,,,377.246974484,None,378.7465892650007,None,380.13022207000085,None,"fear
",380.13022207000085,None,return,3.8192588679994515,380.2135778990005,None,,,,,,,,,,,,,,,,,,,,,,,,,,,,,,,,,104,001,2023_May_23_1726,SpeechDraft1Carolyn_lessNoise_PlusLocalization,2021.2.3,60.018552094606584,
cause.wav,cause.mpg,cause,5,AV,Pink_Noise_5_1.wav,Pink_Noise_5_2.wav,,,,,,,,,,,,,,,0,37,37,62,,,,,,,,,,,,,,,,,,,,,,,384.0636493000002,None,385.56346903100075,None,386.94684648900056,None,coast,386.94684648900056,None,return,5.146627117000207,387.03027422800005,None,,,,,,,,,,,,,,,,,,,,,,,,,,,,,,,,,104,001,2023_May_23_1726,SpeechDraft1Carolyn_lessNoise_PlusLocalization,2021.2.3,60.018552094606584,
frail.wav,frail.mpg,frail,3,AV,Pink_Noise_3_1.wav,Pink_Noise_3_2.wav,,,,,,,,,,,,,,,0,38,38,90,,,,,,,,,,,,,,,,,,,,,,,392.19696946300064,None,393.6966571380008,None,395.0802881090003,None,"fragie
",395.0802881090003,None,return,9.317167441000493,395.1636422900001,None,,,,,,,,,,,,,,,,,,,,,,,,,,,,,,,,,104,001,2023_May_23_1726,SpeechDraft1Carolyn_lessNoise_PlusLocalization,2021.2.3,60.018552094606584,
brow.wav,brow.mpg,brow,6,AV,Pink_Noise_6_1.wav,Pink_Noise_6_2.wav,,,,,,,,,,,,,,,0,39,39,82,,,,,,,,,,,,,,,,,,,,,,,404.5137072760008,None,406.0134229610003,None,407.3967982940003,None,bra,407.3967982940003,None,return,3.7605739729997367,407.48022867000054,None,,,,,,,,,,,,,,,,,,,,,,,,,,,,,,,,,104,001,2023_May_23_1726,SpeechDraft1Carolyn_lessNoise_PlusLocalization,2021.2.3,60.018552094606584,
belt.wav,belt.mpg,belt,1,AV,Pink_Noise_1_1.wav,Pink_Noise_1_2.wav,,,,,,,,,,,,,,,0,40,40,83,,,,,,,,,,,,,,,,,,,,,,,411.2636380310005,None,412.76352593500087,None,414.14706597200075,None,"belt
",414.14706597200075,None,return,3.650501066000288,414.23033191800005,None,,,,,,,,,,,,,,,,,,,,,,,,,,,,,,,,,104,001,2023_May_23_1726,SpeechDraft1Carolyn_lessNoise_PlusLocalization,2021.2.3,60.018552094606584,
cork.wav,cork.mpg,cork,2,AV,Pink_Noise_2_1.wav,Pink_Noise_2_2.wav,,,,,,,,,,,,,,,0,41,41,69,,,,,,,,,,,,,,,,,,,,,,,417.9135579870008,None,419.41340158500043,None,420.7968401570006,None,coark,420.7968401570006,None,return,6.3125488120003865,420.88030241700017,None,,,,,,,,,,,,,,,,,,,,,,,,,,,,,,,,,104,001,2023_May_23_1726,SpeechDraft1Carolyn_lessNoise_PlusLocalization,2021.2.3,60.018552094606584,
sue.wav,sue.mpg,sue,1,AV,Pink_Noise_1_1.wav,Pink_Noise_1_2.wav,,,,,,,,,,,,,,,0,42,42,80,,,,,,,,,,,,,,,,,,,,,,,427.2137498300008,None,428.71386415899997,None,430.096917504,None,sue,430.096917504,None,return,6.148626361999959,430.1802613890004,None,,,,,,,,,,,,,,,,,,,,,,,,,,,,,,,,,104,001,2023_May_23_1726,SpeechDraft1Carolyn_lessNoise_PlusLocalization,2021.2.3,60.018552094606584,
bright.wav,bright.mpg,bright,1,AV,Pink_Noise_1_1.wav,Pink_Noise_1_2.wav,,,,,,,,,,,,,,,0,43,43,64,,,,,,,,,,,,,,,,,,,,,,,436.34705673200006,None,437.8468353220005,None,439.23031767700013,None,bright,439.23031767700013,None,return,5.791075052000451,439.3137246660008,None,,,,,,,,,,,,,,,,,,,,,,,,,,,,,,,,,104,001,2023_May_23_1726,SpeechDraft1Carolyn_lessNoise_PlusLocalization,2021.2.3,60.018552094606584,
wet.wav,wet.mpg,wet,5,AV,Pink_Noise_5_1.wav,Pink_Noise_5_2.wav,,,,,,,,,,,,,,,0,44,44,106,,,,,,,,,,,,,,,,,,,,,,,445.1303636720004,None,446.63007707900033,None,448.0137414710007,None,"wet
",448.0137414710007,None,return,2.7837962809999226,448.09704764100024,None,,,,,,,,,,,,,,,,,,,,,,,,,,,,,,,,,104,001,2023_May_23_1726,SpeechDraft1Carolyn_lessNoise_PlusLocalization,2021.2.3,60.018552094606584,
deck.wav,deck.mpg,deck,2,AV,Pink_Noise_2_1.wav,Pink_Noise_2_2.wav,,,,,,,,,,,,,,,0,45,45,104,,,,,,,,,,,,,,,,,,,,,,,450.91364481300025,None,452.4137896910006,None,453.79713179100054,None,deck,453.79713179100054,None,return,5.080628816999706,453.88023853699997,None,,,,,,,,,,,,,,,,,,,,,,,,,,,,,,,,,104,001,2023_May_23_1726,SpeechDraft1Carolyn_lessNoise_PlusLocalization,2021.2.3,60.018552094606584,
glad.wav,glad.mpg,glad,5,A,Pink_Noise_5_1.wav,Pink_Noise_5_2.wav,,,,,,,,,,,,,,,0,46,46,13,,,,,,,,,,,,,,,,,,,,,,,458.9802928000008,None,460.480174671,None,461.8638301160008,None,flash,461.8638301160008,None,return,4.805738552000548,461.947124108,None,,,,,,,,,,,,,,,,,,,,,,,,,,,,,,,,,104,001,2023_May_23_1726,SpeechDraft1Carolyn_lessNoise_PlusLocalization,2021.2.3,60.018552094606584,
cried.wav,cried.mpg,cried,3,AV,Pink_Noise_3_1.wav,Pink_Noise_3_2.wav,,,,,,,,,,,,,,,0,47,47,76,,,,,,,,,,,,,,,,,,,,,,,466.78029673700075,None,468.2802300780004,None,469.6637067240008,None,"fty
",469.6637067240008,None,return,5.101728758999343,469.747106496,None,,,,,,,,,,,,,,,,,,,,,,,,,,,,,,,,,104,001,2023_May_23_1726,SpeechDraft1Carolyn_lessNoise_PlusLocalization,2021.2.3,60.018552094606584,
crude.wav,crude.mpg,crude,2,A,Pink_Noise_2_1.wav,Pink_Noise_2_2.wav,,,,,,,,,,,,,,,0,48,48,12,,,,,,,,,,,,,,,,,,,,,,,474.8804420330007,None,476.39692122400083,None,477.7803949530007,None,crude,477.7803949530007,None,return,3.9930857530007415,477.86375304100056,None,,,,,,,,,,,,,,,,,,,,,,,,,,,,,,,,,104,001,2023_May_23_1726,SpeechDraft1Carolyn_lessNoise_PlusLocalization,2021.2.3,60.018552094606584,
fright.wav,fright.mpg,fright,4,AV,Pink_Noise_4_1.wav,Pink_Noise_4_2.wav,,,,,,,,,,,,,,,0,49,49,78,,,,,,,,,,,,,,,,,,,,,,,481.8803985530003,None,483.3802539950002,None,484.7635631680005,None,fright,484.7635631680005,None,return,5.121820456000023,484.84705392200067,None,,,,,,,,,,,,,,,,,,,,,,,,,,,,,,,,,104,001,2023_May_23_1726,SpeechDraft1Carolyn_lessNoise_PlusLocalization,2021.2.3,60.018552094606584,
cliff.wav,cliff.mpg,cliff,4,AV,Pink_Noise_4_1.wav,Pink_Noise_4_2.wav,,,,,,,,,,,,,,,0,50,50,114,,,,,,,,,,,,,,,,,,,,,,,489.9971420390002,None,491.49749802100087,None,492.8802662770004,None,lefft,492.8802662770004,None,return,6.629034642000079,492.96381062900036,None,,,,,,,,,,,,,,,,,,,,,,,,,,,,,,,,,104,001,2023_May_23_1726,SpeechDraft1Carolyn_lessNoise_PlusLocalization,2021.2.3,60.018552094606584,
toy.wav,toy.mpg,toy,3,A,Pink_Noise_3_1.wav,Pink_Noise_3_2.wav,,,,,,,,,,,,,,,0,51,51,21,,,,,,,,,,,,,,,,,,,,,,,499.6136680940008,None,501.1138196670008,None,502.49707469200075,None,toy,502.49707469200075,None,return,3.404397493000033,502.58041618900006,None,,,,,,,,,,,,,,,,,,,,,,,,,,,,,,,,,104,001,2023_May_23_1726,SpeechDraft1Carolyn_lessNoise_PlusLocalization,2021.2.3,60.018552094606584,
flaw.wav,flaw.mpg,flaw,2,AV,Pink_Noise_2_1.wav,Pink_Noise_2_2.wav,,,,,,,,,,,,,,,0,52,52,61,,,,,,,,,,,,,,,,,,,,,,,506.0136913440001,None,507.51359023500027,None,508.8971338040001,None,frog,508.8971338040001,None,return,4.76441944599992,508.9804199950004,None,,,,,,,,,,,,,,,,,,,,,,,,,,,,,,,,,104,001,2023_May_23_1726,SpeechDraft1Carolyn_lessNoise_PlusLocalization,2021.2.3,60.018552094606584,
clad.wav,clad.mpg,clad,6,A,Pink_Noise_6_1.wav,Pink_Noise_6_2.wav,,,,,,,,,,,,,,,0,53,53,9,,,,,,,,,,,,,,,,,,,,,,,513.7636687540007,None,515.2634855940005,None,516.6470925470003,None,"flash
",516.6470925470003,None,return,4.518415389999973,516.7304063820002,None,,,,,,,,,,,,,,,,,,,,,,,,,,,,,,,,,104,001,2023_May_23_1726,SpeechDraft1Carolyn_lessNoise_PlusLocalization,2021.2.3,60.018552094606584,
thrown.wav,thrown.mpg,thrown,5,AV,Pink_Noise_5_1.wav,Pink_Noise_5_2.wav,,,,,,,,,,,,,,,0,54,54,93,,,,,,,,,,,,,,,,,,,,,,,521.2804328060001,None,522.7802136310002,None,524.1638436990006,None,"through
",524.1638436990006,None,return,6.769622609999715,524.2472194440006,None,,,,,,,,,,,,,,,,,,,,,,,,,,,,,,,,,104,001,2023_May_23_1726,SpeechDraft1Carolyn_lessNoise_PlusLocalization,2021.2.3,60.018552094606584,
dirt.wav,dirt.mpg,dirt,6,A,Pink_Noise_6_1.wav,Pink_Noise_6_2.wav,,,,,,,,,,,,,,,0,55,55,0,,,,,,,,,,,,,,,,,,,,,,,531.0471913870006,None,532.546970931,None,533.9304966250002,None,h,533.9304966250002,None,return,2.8590886649999447,534.0137413720004,None,,,,,,,,,,,,,,,,,,,,,,,,,,,,,,,,,104,001,2023_May_23_1726,SpeechDraft1Carolyn_lessNoise_PlusLocalization,2021.2.3,60.018552094606584,
read.wav,read.mpg,read,1,AV,Pink_Noise_1_1.wav,Pink_Noise_1_2.wav,,,,,,,,,,,,,,,0,56,56,107,,,,,,,,,,,,,,,,,,,,,,,536.8971063700001,None,538.3969833170004,None,539.7805144280001,None,read,539.7805144280001,None,return,3.049283206999462,539.8636272250005,None,,,,,,,,,,,,,,,,,,,,,,,,,,,,,,,,,104,001,2023_May_23_1726,SpeechDraft1Carolyn_lessNoise_PlusLocalization,2021.2.3,60.018552094606584,
skull.wav,skull.mpg,skull,2,AV,Pink_Noise_2_1.wav,Pink_Noise_2_2.wav,,,,,,,,,,,,,,,0,57,57,65,,,,,,,,,,,,,,,,,,,,,,,542.9304176290007,None,544.4304161030004,None,545.8139156540001,None,skull,545.8139156540001,None,return,8.879797225000402,545.8970507250006,None,,,,,,,,,,,,,,,,,,,,,,,,,,,,,,,,,104,001,2023_May_23_1726,SpeechDraft1Carolyn_lessNoise_PlusLocalization,2021.2.3,60.018552094606584,
choir.wav,choir.mpg,choir,1,A,Pink_Noise_1_1.wav,Pink_Noise_1_2.wav,,,,,,,,,,,,,,,0,58,58,44,,,,,,,,,,,,,,,,,,,,,,,554.7970940500009,None,556.2977932980002,None,557.6804717530003,None,"choir
",557.6804717530003,None,return,4.46895586699975,557.7638447000008,None,,,,,,,,,,,,,,,,,,,,,,,,,,,,,,,,,104,001,2023_May_23_1726,SpeechDraft1Carolyn_lessNoise_PlusLocalization,2021.2.3,60.018552094606584,
core.wav,core.mpg,core,3,AV,Pink_Noise_3_1.wav,Pink_Noise_3_2.wav,,,,,,,,,,,,,,,0,59,59,85,,,,,,,,,,,,,,,,,,,,,,,562.2638316420007,None,563.7804652680006,None,565.1638599080006,None,corn,565.1638599080006,None,return,4.6256252459997995,565.2471736520001,None,,,,,,,,,,,,,,,,,,,,,,,,,,,,,,,,,104,001,2023_May_23_1726,SpeechDraft1Carolyn_lessNoise_PlusLocalization,2021.2.3,60.018552094606584,
else.wav,else.mpg,else,2,A,Pink_Noise_2_1.wav,Pink_Noise_2_2.wav,,,,,,,,,,,,,,,0,60,60,25,,,,,,,,,,,,,,,,,,,,,,,569.8971222520004,None,571.3969655450001,None,572.7803886310003,None,else,572.7803886310003,None,return,4.209001206999346,572.863830108,None,,,,,,,,,,,,,,,,,,,,,,,,,,,,,,,,,104,001,2023_May_23_1726,SpeechDraft1Carolyn_lessNoise_PlusLocalization,2021.2.3,60.018552094606584,
gag.wav,gag.mpg,gag,1,AV,Pink_Noise_1_1.wav,Pink_Noise_1_2.wav,,,,,,,,,,,,,,,0,61,61,112,,,,,,,,,,,,,,,,,,,,,,,577.0971274510002,None,578.5971861480002,None,579.9804639260001,None,"gage
",579.9804639260001,None,return,3.76900038399981,580.0638208340006,None,,,,,,,,,,,,,,,,,,,,,,,,,,,,,,,,,104,001,2023_May_23_1726,SpeechDraft1Carolyn_lessNoise_PlusLocalization,2021.2.3,60.018552094606584,
floor.wav,floor.mpg,floor,3,A,Pink_Noise_3_1.wav,Pink_Noise_3_2.wav,,,,,,,,,,,,,,,0,62,62,55,,,,,,,,,,,,,,,,,,,,,,,583.863936793,None,585.3635776520005,None,586.7472043350008,None,froth,586.7472043350008,None,return,4.594320121000237,586.8305153050005,None,,,,,,,,,,,,,,,,,,,,,,,,,,,,,,,,,104,001,2023_May_23_1726,SpeechDraft1Carolyn_lessNoise_PlusLocalization,2021.2.3,60.018552094606584,
bush.wav,bush.mpg,bush,6,AV,Pink_Noise_6_1.wav,Pink_Noise_6_2.wav,,,,,,,,,,,,,,,0,63,63,96,,,,,,,,,,,,,,,,,,,,,,,591.4472656330008,None,592.9471647710006,None,594.3306446500001,None,mush,594.3306446500001,None,return,4.283005148000484,594.4139015500004,None,,,,,,,,,,,,,,,,,,,,,,,,,,,,,,,,,104,001,2023_May_23_1726,SpeechDraft1Carolyn_lessNoise_PlusLocalization,2021.2.3,60.018552094606584,
freeze.wav,freeze.mpg,freeze,1,A,Pink_Noise_1_1.wav,Pink_Noise_1_2.wav,,,,,,,,,,,,,,,0,64,64,14,,,,,,,,,,,,,,,,,,,,,,,598.7139944160008,None,600.2136833210006,None,601.5972898900009,None,freeze,601.5972898900009,None,return,4.392377866000061,601.6804433430007,None,,,,,,,,,,,,,,,,,,,,,,,,,,,,,,,,,104,001,2023_May_23_1726,SpeechDraft1Carolyn_lessNoise_PlusLocalization,2021.2.3,60.018552094606584,
card.wav,card.mpg,card,4,AV,Pink_Noise_4_1.wav,Pink_Noise_4_2.wav,,,,,,,,,,,,,,,0,65,65,111,,,,,,,,,,,,,,,,,,,,,,,606.0972331010007,None,607.6134734110001,None,608.99731445,None,car,608.99731445,None,return,2.9042178870004136,609.0806054480008,None,,,,,,,,,,,,,,,,,,,,,,,,,,,,,,,,,104,001,2023_May_23_1726,SpeechDraft1Carolyn_lessNoise_PlusLocalization,2021.2.3,60.018552094606584,
oats.wav,oats.mpg,oats,5,A,Pink_Noise_5_1.wav,Pink_Noise_5_2.wav,,,,,,,,,,,,,,,0,66,66,3,,,,,,,,,,,,,,,,,,,,,,,612.0139485380005,None,613.5136533110008,None,614.897141939,None,"pulse
",614.897141939,None,return,7.052255667999816,614.9805642620004,None,,,,,,,,,,,,,,,,,,,,,,,,,,,,,,,,,104,001,2023_May_23_1726,SpeechDraft1Carolyn_lessNoise_PlusLocalization,2021.2.3,60.018552094606584,
clot.wav,clot.mpg,clot,6,A,Pink_Noise_6_1.wav,Pink_Noise_6_2.wav,,,,,,,,,,,,,,,0,67,67,5,,,,,,,,,,,,,,,,,,,,,,,622.0641076390002,None,623.5648043450001,None,624.9472371130005,None,h,624.9472371130005,None,return,2.1223157740005263,625.0306439920005,None,,,,,,,,,,,,,,,,,,,,,,,,,,,,,,,,,104,001,2023_May_23_1726,SpeechDraft1Carolyn_lessNoise_PlusLocalization,2021.2.3,60.018552094606584,
box.wav,box.mpg,box,6,AV,Pink_Noise_6_1.wav,Pink_Noise_6_2.wav,,,,,,,,,,,,,,,0,68,68,115,,,,,,,,,,,,,,,,,,,,,,,627.1806871370009,None,628.6802966250007,None,630.0638906350005,None,"n\bat
",630.0638906350005,None,return,4.869667036999999,630.1471445320003,None,,,,,,,,,,,,,,,,,,,,,,,,,,,,,,,,,104,001,2023_May_23_1726,SpeechDraft1Carolyn_lessNoise_PlusLocalization,2021.2.3,60.018552094606584,
live.wav,live.mpg,live,4,AV,Pink_Noise_4_1.wav,Pink_Noise_4_2.wav,,,,,,,,,,,,,,,0,69,69,108,,,,,,,,,,,,,,,,,,,,,,,635.0471478720001,None,636.5638525210006,None,637.9472005900006,None,live,637.9472005900006,None,return,4.146257265999338,638.0306109540006,None,,,,,,,,,,,,,,,,,,,,,,,,,,,,,,,,,104,001,2023_May_23_1726,SpeechDraft1Carolyn_lessNoise_PlusLocalization,2021.2.3,60.018552094606584,
druid.wav,druid.mpg,druid,1,A,Pink_Noise_1_1.wav,Pink_Noise_1_2.wav,,,,,,,,,,,,,,,0,70,70,51,,,,,,,,,,,,,,,,,,,,,,,642.1972351660006,None,643.6969352410006,None,645.0804209110001,None,"druid
",645.0804209110001,None,return,4.68483234300038,645.1639914550005,None,,,,,,,,,,,,,,,,,,,,,,,,,,,,,,,,,104,001,2023_May_23_1726,SpeechDraft1Carolyn_lessNoise_PlusLocalization,2021.2.3,60.018552094606584,
cap.wav,cap.mpg,cap,3,AV,Pink_Noise_3_1.wav,Pink_Noise_3_2.wav,,,,,,,,,,,,,,,0,71,71,103,,,,,,,,,,,,,,,,,,,,,,,649.8805604080007,None,651.3822688170003,None,652.7639882180001,None,"cap
",652.7639882180001,None,return,3.5536065770002097,652.847230548,None,,,,,,,,,,,,,,,,,,,,,,,,,,,,,,,,,104,001,2023_May_23_1726,SpeechDraft1Carolyn_lessNoise_PlusLocalization,2021.2.3,60.018552094606584,
dusk.wav,dusk.mpg,dusk,2,AV,Pink_Noise_2_1.wav,Pink_Noise_2_2.wav,,,,,,,,,,,,,,,0,72,72,110,,,,,,,,,,,,,,,,,,,,,,,656.4308673940004,None,657.9304580300004,None,659.3137213730006,None,dusk,659.3137213730006,None,return,3.363540815000306,659.3973146030003,None,,,,,,,,,,,,,,,,,,,,,,,,,,,,,,,,,104,001,2023_May_23_1726,SpeechDraft1Carolyn_lessNoise_PlusLocalization,2021.2.3,60.018552094606584,
crank.wav,crank.mpg,crank,6,A,Pink_Noise_6_1.wav,Pink_Noise_6_2.wav,,,,,,,,,,,,,,,0,73,73,43,,,,,,,,,,,,,,,,,,,,,,,662.7806680210006,None,664.2814617550002,None,665.6640249080001,None,j,665.6640249080001,None,return,1.6294169720003993,665.747432401,None,,,,,,,,,,,,,,,,,,,,,,,,,,,,,,,,,104,001,2023_May_23_1726,SpeechDraft1Carolyn_lessNoise_PlusLocalization,2021.2.3,60.018552094606584,
flair.wav,flair.mpg,flair,1,AV,Pink_Noise_1_1.wav,Pink_Noise_1_2.wav,,,,,,,,,,,,,,,0,74,74,74,,,,,,,,,,,,,,,,,,,,,,,667.3972944420002,None,668.8971028390006,None,670.2807068100001,None,flair,670.2807068100001,None,return,4.95695113399961,670.3639753050002,None,,,,,,,,,,,,,,,,,,,,,,,,,,,,,,,,,104,001,2023_May_23_1726,SpeechDraft1Carolyn_lessNoise_PlusLocalization,2021.2.3,60.018552094606584,
built.wav,built.mpg,built,5,AV,Pink_Noise_5_1.wav,Pink_Noise_5_2.wav,,,,,,,,,,,,,,,0,75,75,109,,,,,,,,,,,,,,,,,,,,,,,675.347344152,None,676.8478737020005,None,678.2305881700004,None,"blood
",678.2305881700004,None,return,6.9188749410004675,678.3139342570003,None,,,,,,,,,,,,,,,,,,,,,,,,,,,,,,,,,104,001,2023_May_23_1726,SpeechDraft1Carolyn_lessNoise_PlusLocalization,2021.2.3,60.018552094606584,
fetch.wav,fetch.mpg,fetch,3,A,Pink_Noise_3_1.wav,Pink_Noise_3_2.wav,,,,,,,,,,,,,,,0,76,76,36,,,,,,,,,,,,,,,,,,,,,,,685.2640545760005,None,686.7637819270003,None,688.1473458620003,None,flrtch,688.1473458620003,None,return,6.066216293000252,688.2306424830003,None,,,,,,,,,,,,,,,,,,,,,,,,,,,,,,,,,104,001,2023_May_23_1726,SpeechDraft1Carolyn_lessNoise_PlusLocalization,2021.2.3,60.018552094606584,
chip.wav,chip.mpg,chip,6,AV,Pink_Noise_6_1.wav,Pink_Noise_6_2.wav,,,,,,,,,,,,,,,0,77,77,105,,,,,,,,,,,,,,,,,,,,,,,694.3140492770008,None,695.8156629150008,None,697.1974784110007,None,"chip
",697.1974784110007,None,return,4.200119839000763,697.2807075860001,None,,,,,,,,,,,,,,,,,,,,,,,,,,,,,,,,,104,001,2023_May_23_1726,SpeechDraft1Carolyn_lessNoise_PlusLocalization,2021.2.3,60.018552094606584,
awe.wav,awe.mpg,awe,3,A,Pink_Noise_3_1.wav,Pink_Noise_3_2.wav,,,,,,,,,,,,,,,0,78,78,33,,,,,,,,,,,,,,,,,,,,,,,701.5140650010007,None,703.0138372880001,None,704.3975428110007,None,all,704.3975428110007,None,return,2.6881941499996174,704.4806246580001,None,,,,,,,,,,,,,,,,,,,,,,,,,,,,,,,,,104,001,2023_May_23_1726,SpeechDraft1Carolyn_lessNoise_PlusLocalization,2021.2.3,60.018552094606584,
bland.wav,bland.mpg,bland,3,A,Pink_Noise_3_1.wav,Pink_Noise_3_2.wav,,,,,,,,,,,,,,,0,79,79,27,,,,,,,,,,,,,,,,,,,,,,,707.1973678670001,None,708.6971825690007,None,710.0807616940001,None,"bland
",710.0807616940001,None,return,5.020799956000701,710.16402251,None,,,,,,,,,,,,,,,,,,,,,,,,,,,,,,,,,104,001,2023_May_23_1726,SpeechDraft1Carolyn_lessNoise_PlusLocalization,2021.2.3,60.018552094606584,
ban.wav,ban.mpg,ban,6,AV,Pink_Noise_6_1.wav,Pink_Noise_6_2.wav,,,,,,,,,,,,,,,0,80,80,70,,,,,,,,,,,,,,,,,,,,,,,715.2139321860004,None,716.7138420450001,None,718.0973094180008,None,men,718.0973094180008,None,return,6.556212541000605,718.180784008,None,,,,,,,,,,,,,,,,,,,,,,,,,,,,,,,,,104,001,2023_May_23_1726,SpeechDraft1Carolyn_lessNoise_PlusLocalization,2021.2.3,60.018552094606584,
drink.wav,drink.mpg,drink,3,AV,Pink_Noise_3_1.wav,Pink_Noise_3_2.wav,,,,,,,,,,,,,,,0,81,81,75,,,,,,,,,,,,,,,,,,,,,,,724.7641420710006,None,726.2647221080006,None,727.6473848950009,None,drink,727.6473848950009,None,return,4.582249224000407,727.7306487720007,None,,,,,,,,,,,,,,,,,,,,,,,,,,,,,,,,,104,001,2023_May_23_1726,SpeechDraft1Carolyn_lessNoise_PlusLocalization,2021.2.3,60.018552094606584,
blood.wav,blood.mpg,blood,2,A,Pink_Noise_2_1.wav,Pink_Noise_2_2.wav,,,,,,,,,,,,,,,0,82,82,57,,,,,,,,,,,,,,,,,,,,,,,732.3308334290004,None,733.8305767060001,None,735.2144875450003,None,blood,735.2144875450003,None,return,3.871351310999671,735.297465224,None,,,,,,,,,,,,,,,,,,,,,,,,,,,,,,,,,104,001,2023_May_23_1726,SpeechDraft1Carolyn_lessNoise_PlusLocalization,2021.2.3,60.018552094606584,
gloom.wav,gloom.mpg,gloom,3,A,Pink_Noise_3_1.wav,Pink_Noise_3_2.wav,,,,,,,,,,,,,,,0,83,83,54,,,,,,,,,,,,,,,,,,,,,,,739.1974202930005,None,740.6980700100003,None,742.0808458460006,None,clean,742.0808458460006,None,return,4.596835335999458,742.1640428090004,None,,,,,,,,,,,,,,,,,,,,,,,,,,,,,,,,,104,001,2023_May_23_1726,SpeechDraft1Carolyn_lessNoise_PlusLocalization,2021.2.3,60.018552094606584,
ghost.wav,ghost.mpg,ghost,6,A,Pink_Noise_6_1.wav,Pink_Noise_6_2.wav,,,,,,,,,,,,,,,0,84,84,2,,,,,,,,,,,,,,,,,,,,,,,746.7807639080002,None,748.2805957270002,None,749.6641309400002,None,"u
",749.6641309400002,None,return,2.053234777000398,749.7475867720004,None,,,,,,,,,,,,,,,,,,,,,,,,,,,,,,,,,104,001,2023_May_23_1726,SpeechDraft1Carolyn_lessNoise_PlusLocalization,2021.2.3,60.018552094606584,
giant.wav,giant.mpg,giant,1,A,Pink_Noise_1_1.wav,Pink_Noise_1_2.wav,,,,,,,,,,,,,,,0,85,85,23,,,,,,,,,,,,,,,,,,,,,,,751.8307120920008,None,753.3321686280005,None,754.7140879000008,None,"giant
",754.7140879000008,None,return,4.435318899000777,754.7975070360008,None,,,,,,,,,,,,,,,,,,,,,,,,,,,,,,,,,104,001,2023_May_23_1726,SpeechDraft1Carolyn_lessNoise_PlusLocalization,2021.2.3,60.018552094606584,
clean.wav,clean.mpg,clean,3,AV,Pink_Noise_3_1.wav,Pink_Noise_3_2.wav,,,,,,,,,,,,,,,0,86,86,89,,,,,,,,,,,,,,,,,,,,,,,759.2640972300005,None,760.7637562080008,None,762.1474384780004,None,"lean
",762.1474384780004,None,return,4.586010979000093,762.230800581,None,,,,,,,,,,,,,,,,,,,,,,,,,,,,,,,,,104,001,2023_May_23_1726,SpeechDraft1Carolyn_lessNoise_PlusLocalization,2021.2.3,60.018552094606584,
farm.wav,farm.mpg,farm,4,AV,Pink_Noise_4_1.wav,Pink_Noise_4_2.wav,,,,,,,,,,,,,,,0,87,87,98,,,,,,,,,,,,,,,,,,,,,,,766.8474139940008,None,768.3640270760006,None,769.7473389820007,None,farm,769.7473389820007,None,return,5.298037665000265,769.8308115620002,None,,,,,,,,,,,,,,,,,,,,,,,,,,,,,,,,,104,001,2023_May_23_1726,SpeechDraft1Carolyn_lessNoise_PlusLocalization,2021.2.3,60.018552094606584,
gram.wav,gram.mpg,gram,2,AV,Pink_Noise_2_1.wav,Pink_Noise_2_2.wav,,,,,,,,,,,,,,,0,88,88,79,,,,,,,,,,,,,,,,,,,,,,,775.1473289920004,None,776.6639484690004,None,778.0474008000001,None,gram,778.0474008000001,None,return,4.16617689099985,778.1307609240002,None,,,,,,,,,,,,,,,,,,,,,,,,,,,,,,,,,104,001,2023_May_23_1726,SpeechDraft1Carolyn_lessNoise_PlusLocalization,2021.2.3,60.018552094606584,
fluent.wav,fluent.mpg,fluent,5,A,Pink_Noise_5_1.wav,Pink_Noise_5_2.wav,,,,,,,,,,,,,,,0,89,89,45,,,,,,,,,,,,,,,,,,,,,,,782.3141320680006,None,783.8305670480004,None,785.2141931650003,None,h,785.2141931650003,None,return,1.855317186999855,785.2975450550002,None,,,,,,,,,,,,,,,,,,,,,,,,,,,,,,,,,104,001,2023_May_23_1726,SpeechDraft1Carolyn_lessNoise_PlusLocalization,2021.2.3,60.018552094606584,
chat.wav,chat.mpg,chat,1,A,Pink_Noise_1_1.wav,Pink_Noise_1_2.wav,,,,,,,,,,,,,,,0,90,90,16,,,,,,,,,,,,,,,,,,,,,,,787.1808440700006,None,788.68064056,None,790.064200887,None,chat,790.064200887,None,return,4.3572888920007244,790.1475530280004,None,,,,,,,,,,,,,,,,,,,,,,,,,,,,,,,,,104,001,2023_May_23_1726,SpeechDraft1Carolyn_lessNoise_PlusLocalization,2021.2.3,60.018552094606584,
crew.wav,crew.mpg,crew,5,A,Pink_Noise_5_1.wav,Pink_Noise_5_2.wav,,,,,,,,,,,,,,,0,91,91,40,,,,,,,,,,,,,,,,,,,,,,,794.5307798090007,None,796.0472917670004,None,797.4308770150001,None,"breath
",797.4308770150001,None,return,5.470679748999828,797.5141376620004,None,,,,,,,,,,,,,,,,,,,,,,,,,,,,,,,,,104,001,2023_May_23_1726,SpeechDraft1Carolyn_lessNoise_PlusLocalization,2021.2.3,60.018552094606584,
fit.wav,fit.mpg,fit,1,AV,Pink_Noise_1_1.wav,Pink_Noise_1_2.wav,,,,,,,,,,,,,,,0,92,92,73,,,,,,,,,,,,,,,,,,,,,,,803.0141456840001,None,804.5139740450004,None,805.8976327300006,None,fit,805.8976327300006,None,return,4.3402983710002445,805.9808616870005,None,,,,,,,,,,,,,,,,,,,,,,,,,,,,,,,,,104,001,2023_May_23_1726,SpeechDraft1Carolyn_lessNoise_PlusLocalization,2021.2.3,60.018552094606584,
cent.wav,cent.mpg,cent,5,A,Pink_Noise_5_1.wav,Pink_Noise_5_2.wav,,,,,,,,,,,,,,,0,93,93,28,,,,,,,,,,,,,,,,,,,,,,,810.347502867,None,811.8638429400007,None,813.2475172290006,None,j,813.2475172290006,None,return,1.6139557839996996,813.3308753590009,None,,,,,,,,,,,,,,,,,,,,,,,,,,,,,,,,,104,001,2023_May_23_1726,SpeechDraft1Carolyn_lessNoise_PlusLocalization,2021.2.3,60.018552094606584,
cane.wav,cane.mpg,cane,3,A,Pink_Noise_3_1.wav,Pink_Noise_3_2.wav,,,,,,,,,,,,,,,0,94,94,24,,,,,,,,,,,,,,,,,,,,,,,814.9640589140008,None,816.4804856420005,None,817.8642115910006,None,h,817.8642115910006,None,return,1.97347156899923,817.9474584290001,None,,,,,,,,,,,,,,,,,,,,,,,,,,,,,,,,,104,001,2023_May_23_1726,SpeechDraft1Carolyn_lessNoise_PlusLocalization,2021.2.3,60.018552094606584,
strike.wav,strike.mpg,strike,5,AV,Pink_Noise_5_1.wav,Pink_Noise_5_2.wav,,,,,,,,,,,,,,,0,95,95,68,,,,,,,,,,,,,,,,,,,,,,,819.947520359,None,821.4474826670003,None,822.8308504410006,None,stray,822.8308504410006,None,return,7.382675611000195,822.9141902690008,None,,,,,,,,,,,,,,,,,,,,,,,,,,,,,,,,,104,001,2023_May_23_1726,SpeechDraft1Carolyn_lessNoise_PlusLocalization,2021.2.3,60.018552094606584,
curve.wav,curve.mpg,curve,4,AV,Pink_Noise_4_1.wav,Pink_Noise_4_2.wav,,,,,,,,,,,,,,,0,96,96,116,,,,,,,,,,,,,,,,,,,,,,,830.3142256740002,None,831.8306488870003,None,833.214040846,None,j,833.214040846,None,return,2.0953544310004872,833.2974766670004,None,,,,,,,,,,,,,,,,,,,,,,,,,,,,,,,,,104,001,2023_May_23_1726,SpeechDraft1Carolyn_lessNoise_PlusLocalization,2021.2.3,60.018552094606584,
bell.wav,bell.mpg,bell,5,A,Pink_Noise_5_1.wav,Pink_Noise_5_2.wav,,,,,,,,,,,,,,,0,97,97,34,,,,,,,,,,,,,,,,,,,,,,,835.414248217,None,836.9138933510003,None,838.2976197970002,None,j,838.2976197970002,None,return,1.13202898200052,838.3808765420008,None,,,,,,,,,,,,,,,,,,,,,,,,,,,,,,,,,104,001,2023_May_23_1726,SpeechDraft1Carolyn_lessNoise_PlusLocalization,2021.2.3,60.018552094606584,
chomp.wav,chomp.mpg,chomp,4,AV,Pink_Noise_4_1.wav,Pink_Noise_4_2.wav,,,,,,,,,,,,,,,0,98,98,60,,,,,,,,,,,,,,,,,,,,,,,839.5308779250008,None,841.0308942680003,None,842.4144006910001,None,chop,842.4144006910001,None,return,5.01536307599963,842.497535382,None,,,,,,,,,,,,,,,,,,,,,,,,,,,,,,,,,104,001,2023_May_23_1726,SpeechDraft1Carolyn_lessNoise_PlusLocalization,2021.2.3,60.018552094606584,
cloak.wav,cloak.mpg,cloak,1,AV,Pink_Noise_1_1.wav,Pink_Noise_1_2.wav,,,,,,,,,,,,,,,0,99,99,71,,,,,,,,,,,,,,,,,,,,,,,847.5307812180008,None,849.0473983690008,None,850.4308924010002,None,cloak,850.4308924010002,None,return,5.766534413000045,850.5143334420009,None,,,,,,,,,,,,,,,,,,,,,,,,,,,,,,,,,104,001,2023_May_23_1726,SpeechDraft1Carolyn_lessNoise_PlusLocalization,2021.2.3,60.018552094606584,
bloom.wav,bloom.mpg,bloom,6,AV,Pink_Noise_6_1.wav,Pink_Noise_6_2.wav,,,,,,,,,,,,,,,0,100,100,91,,,,,,,,,,,,,,,,,,,,,,,856.2976864700004,None,857.8139872210004,None,859.1974813060006,None,blue,859.1974813060006,None,return,3.9919020879997333,859.2809074310007,None,,,,,,,,,,,,,,,,,,,,,,,,,,,,,,,,,104,001,2023_May_23_1726,SpeechDraft1Carolyn_lessNoise_PlusLocalization,2021.2.3,60.018552094606584,
groom.wav,groom.mpg,groom,6,AV,Pink_Noise_6_1.wav,Pink_Noise_6_2.wav,,,,,,,,,,,,,,,0,101,101,119,,,,,,,,,,,,,,,,,,,,,,,863.2976093110001,None,864.7991417120002,None,866.1809042640007,None,"groom
",866.1809042640007,None,return,4.800490827999965,866.2643327380001,None,,,,,,,,,,,,,,,,,,,,,,,,,,,,,,,,,104,001,2023_May_23_1726,SpeechDraft1Carolyn_lessNoise_PlusLocalization,2021.2.3,60.018552094606584,
flake.wav,flake.mpg,flake,4,A,Pink_Noise_4_1.wav,Pink_Noise_4_2.wav,,,,,,,,,,,,,,,0,102,102,7,,,,,,,,,,,,,,,,,,,,,,,871.0975596560002,None,872.6139763450001,None,873.9975977970007,None,j,873.9975977970007,None,return,1.6077872610003396,874.0810133470004,None,,,,,,,,,,,,,,,,,,,,,,,,,,,,,,,,,104,001,2023_May_23_1726,SpeechDraft1Carolyn_lessNoise_PlusLocalization,2021.2.3,60.018552094606584,
ditch.wav,ditch.mpg,ditch,4,A,Pink_Noise_4_1.wav,Pink_Noise_4_2.wav,,,,,,,,,,,,,,,0,103,103,39,,,,,,,,,,,,,,,,,,,,,,,875.7141896360008,None,877.215404558,None,878.5976320750005,None,fetch,878.5976320750005,None,return,11.823944583999946,878.6809844360005,None,,,,,,,,,,,,,,,,,,,,,,,,,,,,,,,,,104,001,2023_May_23_1726,SpeechDraft1Carolyn_lessNoise_PlusLocalization,2021.2.3,60.018552094606584,
draft.wav,draft.mpg,draft,4,AV,Pink_Noise_4_1.wav,Pink_Noise_4_2.wav,,,,,,,,,,,,,,,0,104,104,84,,,,,,,,,,,,,,,,,,,,,,,890.531097817,None,892.047431729,None,893.4308622540002,None,craft,893.4308622540002,None,return,5.182744399000512,893.5141329400003,None,,,,,,,,,,,,,,,,,,,,,,,,,,,,,,,,,104,001,2023_May_23_1726,SpeechDraft1Carolyn_lessNoise_PlusLocalization,2021.2.3,60.018552094606584,
swayed.wav,swayed.mpg,swayed,1,A,Pink_Noise_1_1.wav,Pink_Noise_1_2.wav,,,,,,,,,,,,,,,0,105,105,22,,,,,,,,,,,,,,,,,,,,,,,898.7142834670003,None,900.2140262320008,None,901.5976014290009,None,"suade
",901.5976014290009,None,return,4.567973936000271,901.680840297,None,,,,,,,,,,,,,,,,,,,,,,,,,,,,,,,,,104,001,2023_May_23_1726,SpeechDraft1Carolyn_lessNoise_PlusLocalization,2021.2.3,60.018552094606584,
pipe.wav,pipe.mpg,pipe,2,A,Pink_Noise_2_1.wav,Pink_Noise_2_2.wav,,,,,,,,,,,,,,,0,106,106,18,,,,,,,,,,,,,,,,,,,,,,,906.2809838960002,None,907.797496395,None,909.1808582060003,None,pipe,909.1808582060003,None,return,6.176506951999727,909.2643018910003,None,,,,,,,,,,,,,,,,,,,,,,,,,,,,,,,,,104,001,2023_May_23_1726,SpeechDraft1Carolyn_lessNoise_PlusLocalization,2021.2.3,60.018552094606584,
quart.wav,quart.mpg,quart,6,AV,Pink_Noise_6_1.wav,Pink_Noise_6_2.wav,,,,,,,,,,,,,,,0,107,107,102,,,,,,,,,,,,,,,,,,,,,,,915.4643892120002,None,916.9808479680005,None,918.3641909610005,None,horse,918.3641909610005,None,return,4.825250916999721,918.4477017080007,None,,,,,,,,,,,,,,,,,,,,,,,,,,,,,,,,,104,001,2023_May_23_1726,SpeechDraft1Carolyn_lessNoise_PlusLocalization,2021.2.3,60.018552094606584,
due.wav,due.mpg,due,6,AV,Pink_Noise_6_1.wav,Pink_Noise_6_2.wav,,,,,,,,,,,,,,,0,108,108,117,,,,,,,,,,,,,,,,,,,,,,,923.2976823660001,None,924.7978341380003,None,926.1808918520001,None,sew,926.1808918520001,None,return,3.1605187169998317,926.2642892890008,None,,,,,,,,,,,,,,,,,,,,,,,,,,,,,,,,,104,001,2023_May_23_1726,SpeechDraft1Carolyn_lessNoise_PlusLocalization,2021.2.3,60.018552094606584,
chunk.wav,chunk.mpg,chunk,6,A,Pink_Noise_6_1.wav,Pink_Noise_6_2.wav,,,,,,,,,,,,,,,0,109,109,52,,,,,,,,,,,,,,,,,,,,,,,929.4476710200006,None,930.9491845150005,None,932.3310802450005,None,"chess
",932.3310802450005,None,return,4.402400590999605,932.4144306830003,None,,,,,,,,,,,,,,,,,,,,,,,,,,,,,,,,,104,001,2023_May_23_1726,SpeechDraft1Carolyn_lessNoise_PlusLocalization,2021.2.3,60.018552094606584,
click.wav,click.mpg,click,5,AV,Pink_Noise_5_1.wav,Pink_Noise_5_2.wav,,,,,,,,,,,,,,,0,110,110,63,,,,,,,,,,,,,,,,,,,,,,,936.8476432260004,None,938.3641861590004,None,939.7478404360008,None,"clipped
",939.7478404360008,None,return,4.753836571999273,939.830986164,None,,,,,,,,,,,,,,,,,,,,,,,,,,,,,,,,,104,001,2023_May_23_1726,SpeechDraft1Carolyn_lessNoise_PlusLocalization,2021.2.3,60.018552094606584,
aunt.wav,aunt.mpg,aunt,2,A,Pink_Noise_2_1.wav,Pink_Noise_2_2.wav,,,,,,,,,,,,,,,0,111,111,41,,,,,,,,,,,,,,,,,,,,,,,944.6144994780007,None,946.1308946730005,None,947.5144818260005,None,j,947.5144818260005,None,return,14.891330227000253,947.5976060610001,None,,,,,,,,,,,,,,,,,,,,,,,,,,,,,,,,,104,001,2023_May_23_1726,SpeechDraft1Carolyn_lessNoise_PlusLocalization,2021.2.3,60.018552094606584,
poll.wav,poll.mpg,poll,4,AV,Pink_Noise_4_1.wav,Pink_Noise_4_2.wav,,,,,,,,,,,,,,,0,112,112,87,,,,,,,,,,,,,,,,,,,,,,,962.5143718060008,None,964.0307933350005,None,965.4144076680004,None,poem,965.4144076680004,None,return,8.663142174000313,965.4977502290003,None,,,,,,,,,,,,,,,,,,,,,,,,,,,,,,,,,104,001,2023_May_23_1726,SpeechDraft1Carolyn_lessNoise_PlusLocalization,2021.2.3,60.018552094606584,
book.wav,book.mpg,book,2,A,Pink_Noise_2_1.wav,Pink_Noise_2_2.wav,,,,,,,,,,,,,,,0,113,113,17,,,,,,,,,,,,,,,,,,,,,,,974.181113781,None,975.6974217890001,None,977.0811842120002,None,"book
",977.0811842120002,None,return,5.868446804999621,977.164357525,None,,,,,,,,,,,,,,,,,,,,,,,,,,,,,,,,,104,001,2023_May_23_1726,SpeechDraft1Carolyn_lessNoise_PlusLocalization,2021.2.3,60.018552094606584,
cat.wav,cat.mpg,cat,1,AV,Pink_Noise_1_1.wav,Pink_Noise_1_2.wav,,,,,,,,,,,,,,,0,114,114,86,,,,,,,,,,,,,,,,,,,,,,,983.0644099020001,None,984.5808603700007,None,985.9643053200007,None,cat,985.9643053200007,None,return,5.225142131999746,986.0476622120004,None,,,,,,,,,,,,,,,,,,,,,,,,,,,,,,,,,104,001,2023_May_23_1726,SpeechDraft1Carolyn_lessNoise_PlusLocalization,2021.2.3,60.018552094606584,
fear.wav,fear.mpg,fear,4,A,Pink_Noise_4_1.wav,Pink_Noise_4_2.wav,,,,,,,,,,,,,,,0,115,115,19,,,,,,,,,,,,,,,,,,,,,,,991.2977403330005,None,992.8141882200007,None,994.1979504790006,None,deer,994.1979504790006,None,return,3.143835482999748,994.2809817880006,None,,,,,,,,,,,,,,,,,,,,,,,,,,,,,,,,,104,001,2023_May_23_1726,SpeechDraft1Carolyn_lessNoise_PlusLocalization,2021.2.3,60.018552094606584,
cop.wav,cop.mpg,cop,3,AV,Pink_Noise_3_1.wav,Pink_Noise_3_2.wav,,,,,,,,,,,,,,,0,116,116,100,,,,,,,,,,,,,,,,,,,,,,,997.4479272390008,None,998.9497127320001,None,1000.3312419190006,None,vop,1000.3312419190006,None,return,4.722432201000629,1000.4145222180005,None,,,,,,,,,,,,,,,,,,,,,,,,,,,,,,,,,104,001,2023_May_23_1726,SpeechDraft1Carolyn_lessNoise_PlusLocalization,2021.2.3,60.018552094606584,
eel.wav,eel.mpg,eel,4,A,Pink_Noise_4_1.wav,Pink_Noise_4_2.wav,,,,,,,,,,,,,,,0,117,117,46,,,,,,,,,,,,,,,,,,,,,,,1005.1644746400007,None,1006.6808726850004,None,1008.064509885,None,feek,1008.064509885,None,return,3.1249910329997874,1008.1478198920004,None,,,,,,,,,,,,,,,,,,,,,,,,,,,,,,,,,104,001,2023_May_23_1726,SpeechDraft1Carolyn_lessNoise_PlusLocalization,2021.2.3,60.018552094606584,
flip.wav,flip.mpg,flip,5,AV,Pink_Noise_5_1.wav,Pink_Noise_5_2.wav,,,,,,,,,,,,,,,0,118,118,118,,,,,,,,,,,,,,,,,,,,,,,1011.2977601050006,None,1012.7988885160003,None,1014.1810125310003,None,h,1014.1810125310003,None,return,2.4643297180000445,1014.2644677430008,None,,,,,,,,,,,,,,,,,,,,,,,,,,,,,,,,,104,001,2023_May_23_1726,SpeechDraft1Carolyn_lessNoise_PlusLocalization,2021.2.3,60.018552094606584,
fat.wav,fat.mpg,fat,2,AV,Pink_Noise_2_1.wav,Pink_Noise_2_2.wav,,,,,,,,,,,,,,,0,119,119,81,,,,,,,,,,,,,,,,,,,,,,,1016.7477380640003,None,1018.2491826720006,None,1019.631178779,None,far,1019.631178779,None,return,2.5262796799997886,1019.7145458560008,None,,,,,,,,,,,,,,,,,,,,,,,,,,,,,,,,,104,001,2023_May_23_1726,SpeechDraft1Carolyn_lessNoise_PlusLocalization,2021.2.3,60.018552094606584,
,,,,,,,,,,,,,,,,,,,,,,,,,,,,,,,,,,,,,,,,,,,,,,,,,,,,,,,,,,,,,,,,,,space,12.932965783000327,1022.347913824,None,,,,,,,,,,,,,,,,,,,,,,,104,001,2023_May_23_1726,SpeechDraft1Carolyn_lessNoise_PlusLocalization,2021.2.3,60.018552094606584,
,,,,,,,,farRight,19.1,4,ch1Sound_localizationTask.wav,19.1,"(1237, 878)","(277,-202)",285,-338,,,,,,,,,0,0,0,6,,,,,,,,,,,,,,,,,,,,,,,,,,,,,,,,,,,,,,,,,,1022.347913824,None,1035.3142665040004,None,1036.4142505100008,None,1037.3475458490002,None,1.4396825396825397,46.80332621399975,1037.3475458490002,None,,,,,,,,,,,104,001,2023_May_23_1726,SpeechDraft1Carolyn_lessNoise_PlusLocalization,2021.2.3,60.018552094606584,
,,,,,,,,nearRight,6.5,0,ch1Sound_localizationTask.wav,6.5,"(1047, 878)","(87, -202)",95,-338,,,,,,,,,0,1,1,4,,,,,,,,,,,,,,,,,,,,,,,,,,,,,,,,,,,,,,,,,,,,1084.149101682,None,1085.264308021,None,1086.1810906090004,None,1.4264550264550264,1.8496224990003611,1086.1810906090004,None,,,,,,,,,,,104,001,2023_May_23_1726,SpeechDraft1Carolyn_lessNoise_PlusLocalization,2021.2.3,60.018552094606584,
,,,,,,,,midLeft,-13.0,2,ch1Sound_localizationTask.wav,-13.0,"(762, 878)","(-198,-202)",-190,-338,,,,,,,,,0,2,2,1,,,,,,,,,,,,,,,,,,,,,,,,,,,,,,,,,,,,,,,,,,,,1088.0479481010007,None,1089.1476102800007,None,1090.0811182920006,None,1.494179894179894,14.532723954000176,1090.0811182920006,None,,,,,,,,,,,104,001,2023_May_23_1726,SpeechDraft1Carolyn_lessNoise_PlusLocalization,2021.2.3,60.018552094606584,
,,,,,,,,midLeft,-13.0,2,ch1Sound_localizationTask.wav,-13.0,"(762, 878)","(-198,-202)",-190,-338,,,,,,,,,0,3,3,1,,,,,,,,,,,,,,,,,,,,,,,,,,,,,,,,,,,,,,,,,,,,1104.6145131330004,None,1105.7143329930004,None,1106.6477617270002,None,1.4851851851851852,24.28399495099984,1106.6477617270002,None,,,,,,,,,,,104,001,2023_May_23_1726,SpeechDraft1Carolyn_lessNoise_PlusLocalization,2021.2.3,60.018552094606584,
,,,,,,,,nearLeft,-6.5,1,ch1Sound_localizationTask.wav,-6.5,"(857, 878)","(-103,-202)",-95,-338,,,,,,,,,0,4,4,2,,,,,,,,,,,,,,,,,,,,,,,,,,,,,,,,,,,,,,,,,,,,1130.9476284830007,None,1132.0475922490004,None,1132.964449002,None,1.0010582010582012,29.11620887799927,1132.964449002,None,,,,,,,,,,,104,001,2023_May_23_1726,SpeechDraft1Carolyn_lessNoise_PlusLocalization,2021.2.3,60.018552094606584,
,,,,,,,,farLeft,-19.1,5,ch1Sound_localizationTask.wav,-19.1,"(667, 878)","(-293,-202)",-285,-338,,,,,,,,,0,5,5,0,,,,,,,,,,,,,,,,,,,,,,,,,,,,,,,,,,,,,,,,,,,,1162.0981324020004,None,1163.1977181300008,None,1164.131114586,None,1.9973544973544972,5.015950058000271,1164.131114586,None,,,,,,,,,,,104,001,2023_May_23_1726,SpeechDraft1Carolyn_lessNoise_PlusLocalization,2021.2.3,60.018552094606584,
,,,,,,,,midRight,13.0,3,ch1Sound_localizationTask.wav,13.0,"(1142, 878)","(182, -202)",190,-338,,,,,,,,,0,6,6,5,,,,,,,,,,,,,,,,,,,,,,,,,,,,,,,,,,,,,,,,,,,,1169.1484242100005,None,1170.2477606320008,None,1171.1809315780001,None,1.0,18.981955502000346,1171.1809315780001,None,,,,,,,,,,,104,001,2023_May_23_1726,SpeechDraft1Carolyn_lessNoise_PlusLocalization,2021.2.3,60.018552094606584,
,,,,,,,,nearRight,6.5,0,ch1Sound_localizationTask.wav,6.5,"(1047, 878)","(87, -202)",95,-338,,,,,,,,,1,0,7,4,,,,,,,,,,,,,,,,,,,,,,,,,,,,,,,,,,,,,,,,,,,,1190.1646694780002,None,1191.264518078,None,1192.198011687,None,1.997883597883598,6.099331947999417,1192.198011687,None,,,,,,,,,,,104,001,2023_May_23_1726,SpeechDraft1Carolyn_lessNoise_PlusLocalization,2021.2.3,60.018552094606584,
,,,,,,,,farRight,19.1,4,ch1Sound_localizationTask.wav,19.1,"(1237, 878)","(277,-202)",285,-338,,,,,,,,,1,1,8,6,,,,,,,,,,,,,,,,,,,,,,,,,,,,,,,,,,,,,,,,,,,,1198.2982339680002,None,1199.3980359660009,None,1200.3312146110002,None,1.0047619047619047,10.248305954999523,1200.3312146110002,None,,,,,,,,,,,104,001,2023_May_23_1726,SpeechDraft1Carolyn_lessNoise_PlusLocalization,2021.2.3,60.018552094606584,
,,,,,,,,nearRight,6.5,0,ch1Sound_localizationTask.wav,6.5,"(1047, 878)","(87, -202)",95,-338,,,,,,,,,1,2,9,4,,,,,,,,,,,,,,,,,,,,,,,,,,,,,,,,,,,,,,,,,,,,1210.5814062240006,None,1211.6812099320005,None,1212.6144624500002,None,1.0052910052910053,1.4161815360002947,1212.6144624500002,None,,,,,,,,,,,104,001,2023_May_23_1726,SpeechDraft1Carolyn_lessNoise_PlusLocalization,2021.2.3,60.018552094606584,
,,,,,,,,farLeft,-19.1,5,ch1Sound_localizationTask.wav,-19.1,"(667, 878)","(-293,-202)",-285,-338,,,,,,,,,1,3,10,0,,,,,,,,,,,,,,,,,,,,,,,,,,,,,,,,,,,,,,,,,,,,1214.0316485450003,None,1215.1311306790003,None,1216.0645262180005,None,1.0052910052910053,0.7483150999996724,1216.0645262180005,None,,,,,,,,,,,104,001,2023_May_23_1726,SpeechDraft1Carolyn_lessNoise_PlusLocalization,2021.2.3,60.018552094606584,
,,,,,,,,farLeft,-19.1,5,ch1Sound_localizationTask.wav,-19.1,"(667, 878)","(-293,-202)",-285,-338,,,,,,,,,1,4,11,0,,,,,,,,,,,,,,,,,,,,,,,,,,,,,,,,,,,,,,,,,,,,1216.814838368,None,1217.9145492330008,None,1218.8478603990006,None,2,6.015580328999931,1218.8478603990006,None,,,,,,,,,,,104,001,2023_May_23_1726,SpeechDraft1Carolyn_lessNoise_PlusLocalization,2021.2.3,60.018552094606584,
,,,,,,,,farRight,19.1,4,ch1Sound_localizationTask.wav,19.1,"(1237, 878)","(277,-202)",285,-338,,,,,,,,,1,5,12,6,,,,,,,,,,,,,,,,,,,,,,,,,,,,,,,,,,,,,,,,,,,,1224.8647948820008,None,1225.9647563960007,None,1226.8979254860005,None,2,1.9998034939999343,1226.8979254860005,None,,,,,,,,,,,104,001,2023_May_23_1726,SpeechDraft1Carolyn_lessNoise_PlusLocalization,2021.2.3,60.018552094606584,
,,,,,,,,center,0.0,6,ch1Sound_localizationTask.wav,0.0,"(952, 878)","(-8,-202)",0,-338,,,,,,,,,1,6,13,3,,,,,,,,,,,,,,,,,,,,,,,,,,,,,,,,,,,,,,,,,,,,1228.8987772360006,None,1229.9978309440003,None,1230.9312474020007,None,1.9984126984126984,0.6646929959997578,1230.9312474020007,None,,,,,,,,,,,104,001,2023_May_23_1726,SpeechDraft1Carolyn_lessNoise_PlusLocalization,2021.2.3,60.018552094606584,
,,,,,,,,midRight,13.0,3,ch1Sound_localizationTask.wav,13.0,"(1142, 878)","(182, -202)",190,-338,,,,,,,,,2,0,14,5,,,,,,,,,,,,,,,,,,,,,,,,,,,,,,,,,,,,,,,,,,,,1231.598087374,None,1232.6978836520002,None,1233.6310332130006,None,1.9984126984126984,0.5999204199997621,1233.6310332130006,None,,,,,,,,,,,104,001,2023_May_23_1726,SpeechDraft1Carolyn_lessNoise_PlusLocalization,2021.2.3,60.018552094606584,
,,,,,,,,nearLeft,-6.5,1,ch1Sound_localizationTask.wav,-6.5,"(857, 878)","(-103,-202)",-95,-338,,,,,,,,,2,1,15,2,,,,,,,,,,,,,,,,,,,,,,,,,,,,,,,,,,,,,,,,,,,,1234.2322339000002,None,1235.3312186130006,None,1236.2645615610008,None,1.9952380952380953,0.6666987369999333,1236.2645615610008,None,,,,,,,,,,,104,001,2023_May_23_1726,SpeechDraft1Carolyn_lessNoise_PlusLocalization,2021.2.3,60.018552094606584,
,,,,,,,,midRight,13.0,3,ch1Sound_localizationTask.wav,13.0,"(1142, 878)","(182, -202)",190,-338,,,,,,,,,2,2,16,5,,,,,,,,,,,,,,,,,,,,,,,,,,,,,,,,,,,,,,,,,,,,1236.9478682090003,None,1238.0479559040004,None,1238.964652482,None,1.9952380952380953,0.7153710660004435,1238.964652482,None,,,,,,,,,,,104,001,2023_May_23_1726,SpeechDraft1Carolyn_lessNoise_PlusLocalization,2021.2.3,60.018552094606584,
,,,,,,,,farLeft,-19.1,5,ch1Sound_localizationTask.wav,-19.1,"(667, 878)","(-293,-202)",-285,-338,,,,,,,,,2,3,17,0,,,,,,,,,,,,,,,,,,,,,,,,,,,,,,,,,,,,,,,,,,,,1239.6815072120007,None,1240.781331997,None,1241.714551952,None,1.9962962962962962,0.7833405970004605,1241.714551952,None,,,,,,,,,,,104,001,2023_May_23_1726,SpeechDraft1Carolyn_lessNoise_PlusLocalization,2021.2.3,60.018552094606584,
,,,,,,,,center,0.0,6,ch1Sound_localizationTask.wav,0.0,"(952, 878)","(-8,-202)",0,-338,,,,,,,,,2,4,18,3,,,,,,,,,,,,,,,,,,,,,,,,,,,,,,,,,,,,,,,,,,,,1242.4985175860002,None,1243.5978590180002,None,1244.5311193670004,None,1.9984126984126984,1.1484724310003003,1244.5311193670004,None,,,,,,,,,,,104,001,2023_May_23_1726,SpeechDraft1Carolyn_lessNoise_PlusLocalization,2021.2.3,60.018552094606584,
,,,,,,,,nearLeft,-6.5,1,ch1Sound_localizationTask.wav,-6.5,"(857, 878)","(-103,-202)",-95,-338,,,,,,,,,2,5,19,2,,,,,,,,,,,,,,,,,,,,,,,,,,,,,,,,,,,,,,,,,,,,1245.6813380120002,None,1246.781164729,None,1247.7147460590004,None,2,1.0991942910004582,1247.7147460590004,None,,,,,,,,,,,104,001,2023_May_23_1726,SpeechDraft1Carolyn_lessNoise_PlusLocalization,2021.2.3,60.018552094606584,
,,,,,,,,midLeft,-13.0,2,ch1Sound_localizationTask.wav,-13.0,"(762, 878)","(-198,-202)",-190,-338,,,,,,,,,2,6,20,1,,,,,,,,,,,,,,,,,,,,,,,,,,,,,,,,,,,,,,,,,,,,1248.8148295800002,None,1249.9145123320004,None,1250.8480009140003,None,2,0.8994740160005676,1250.8480009140003,None,,,,,,,,,,,104,001,2023_May_23_1726,SpeechDraft1Carolyn_lessNoise_PlusLocalization,2021.2.3,60.018552094606584,
,,,,,,,,center,0.0,6,ch1Sound_localizationTask.wav,0.0,"(952, 878)","(-8,-202)",0,-338,,,,,,,,,3,0,21,3,,,,,,,,,,,,,,,,,,,,,,,,,,,,,,,,,,,,,,,,,,,,1251.748389155,None,1252.8479084300006,None,1253.7813071210003,None,1.9989417989417988,1.4828157729998566,1253.7813071210003,None,,,,,,,,,,,104,001,2023_May_23_1726,SpeechDraft1Carolyn_lessNoise_PlusLocalization,2021.2.3,60.018552094606584,
,,,,,,,,nearLeft,-6.5,1,ch1Sound_localizationTask.wav,-6.5,"(857, 878)","(-103,-202)",-95,-338,,,,,,,,,3,1,22,2,,,,,,,,,,,,,,,,,,,,,,,,,,,,,,,,,,,,,,,,,,,,1255.2648738290009,None,1256.364569673,None,1257.2981152500006,None,1.9989417989417988,0.8328717310005231,1257.2981152500006,None,,,,,,,,,,,104,001,2023_May_23_1726,SpeechDraft1Carolyn_lessNoise_PlusLocalization,2021.2.3,60.018552094606584,
,,,,,,,,farLeft,-19.1,5,ch1Sound_localizationTask.wav,-19.1,"(667, 878)","(-293,-202)",-285,-338,,,,,,,,,3,2,23,0,,,,,,,,,,,,,,,,,,,,,,,,,,,,,,,,,,,,,,,,,,,,1258.131613165,None,1259.2313892430002,None,1260.1645481280002,None,1.9989417989417988,0.9167832610000914,1260.1645481280002,None,,,,,,,,,,,104,001,2023_May_23_1726,SpeechDraft1Carolyn_lessNoise_PlusLocalization,2021.2.3,60.018552094606584,
,,,,,,,,center,0.0,6,ch1Sound_localizationTask.wav,0.0,"(952, 878)","(-8,-202)",0,-338,,,,,,,,,3,3,24,3,,,,,,,,,,,,,,,,,,,,,,,,,,,,,,,,,,,,,,,,,,,,1261.0830507560004,None,1262.1978794210008,None,1263.1145993730006,None,1.9984126984126984,1.0494027900003857,1263.1145993730006,None,,,,,,,,,,,104,001,2023_May_23_1726,SpeechDraft1Carolyn_lessNoise_PlusLocalization,2021.2.3,60.018552094606584,
,,,,,,,,farRight,19.1,4,ch1Sound_localizationTask.wav,19.1,"(1237, 878)","(277,-202)",285,-338,,,,,,,,,3,4,25,6,,,,,,,,,,,,,,,,,,,,,,,,,,,,,,,,,,,,,,,,,,,,1264.164845964,None,1265.264620377,None,1266.1979637850009,None,1.9984126984126984,0.9015417150003486,1266.1979637850009,None,,,,,,,,,,,104,001,2023_May_23_1726,SpeechDraft1Carolyn_lessNoise_PlusLocalization,2021.2.3,60.018552094606584,
,,,,,,,,farRight,19.1,4,ch1Sound_localizationTask.wav,19.1,"(1237, 878)","(277,-202)",285,-338,,,,,,,,,3,5,26,6,,,,,,,,,,,,,,,,,,,,,,,,,,,,,,,,,,,,,,,,,,,,1267.1146830950001,None,1268.214566345,None,1269.1481395650007,None,1.9984126984126984,0.8001199790005558,1269.1481395650007,None,,,,,,,,,,,104,001,2023_May_23_1726,SpeechDraft1Carolyn_lessNoise_PlusLocalization,2021.2.3,60.018552094606584,
,,,,,,,,farRight,19.1,4,ch1Sound_localizationTask.wav,19.1,"(1237, 878)","(277,-202)",285,-338,,,,,,,,,3,6,27,6,,,,,,,,,,,,,,,,,,,,,,,,,,,,,,,,,,,,,,,,,,,,1269.9482992000003,None,1271.0479487420007,None,1271.98139369,None,2,0.7328525980001359,1271.98139369,None,,,,,,,,,,,104,001,2023_May_23_1726,SpeechDraft1Carolyn_lessNoise_PlusLocalization,2021.2.3,60.018552094606584,
,,,,,,,,nearRight,6.5,0,ch1Sound_localizationTask.wav,6.5,"(1047, 878)","(87, -202)",95,-338,,,,,,,,,4,0,28,4,,,,,,,,,,,,,,,,,,,,,,,,,,,,,,,,,,,,,,,,,,,,1272.7149219340008,None,1273.8144305590004,None,1274.7479520750003,None,2,0.6832258929998716,1274.7479520750003,None,,,,,,,,,,,104,001,2023_May_23_1726,SpeechDraft1Carolyn_lessNoise_PlusLocalization,2021.2.3,60.018552094606584,
,,,,,,,,midRight,13.0,3,ch1Sound_localizationTask.wav,13.0,"(1142, 878)","(182, -202)",190,-338,,,,,,,,,4,1,29,5,,,,,,,,,,,,,,,,,,,,,,,,,,,,,,,,,,,,,,,,,,,,1275.4332916920002,None,1276.547852572,None,1277.46459908,None,2,0.9992548469999747,1277.46459908,None,,,,,,,,,,,104,001,2023_May_23_1726,SpeechDraft1Carolyn_lessNoise_PlusLocalization,2021.2.3,60.018552094606584,
,,,,,,,,nearRight,6.5,0,ch1Sound_localizationTask.wav,6.5,"(1047, 878)","(87, -202)",95,-338,,,,,,,,,4,2,30,4,,,,,,,,,,,,,,,,,,,,,,,,,,,,,,,,,,,,,,,,,,,,1278.4648934800007,None,1279.5646127140008,None,1280.4980167520007,None,1.9984126984126984,1.0828214430002845,1280.4980167520007,None,,,,,,,,,,,104,001,2023_May_23_1726,SpeechDraft1Carolyn_lessNoise_PlusLocalization,2021.2.3,60.018552094606584,
,,,,,,,,farLeft,-19.1,5,ch1Sound_localizationTask.wav,-19.1,"(667, 878)","(-293,-202)",-285,-338,,,,,,,,,4,3,31,0,,,,,,,,,,,,,,,,,,,,,,,,,,,,,,,,,,,,,,,,,,,,1281.581709639,None,1282.681377418,None,1283.6147044950003,None,1.9984126984126984,0.6160102690000713,1283.6147044950003,None,,,,,,,,,,,104,001,2023_May_23_1726,SpeechDraft1Carolyn_lessNoise_PlusLocalization,2021.2.3,60.018552094606584,
,,,,,,,,midRight,13.0,3,ch1Sound_localizationTask.wav,13.0,"(1142, 878)","(182, -202)",190,-338,,,,,,,,,4,4,32,5,,,,,,,,,,,,,,,,,,,,,,,,,,,,,,,,,,,,,,,,,,,,1284.2318398040006,None,1285.331482222,None,1286.2644963000002,None,1.9984126984126984,0.8988429880000695,1286.2644963000002,None,,,,,,,,,,,104,001,2023_May_23_1726,SpeechDraft1Carolyn_lessNoise_PlusLocalization,2021.2.3,60.018552094606584,
,,,,,,,,center,0.0,6,ch1Sound_localizationTask.wav,0.0,"(952, 878)","(-8,-202)",0,-338,,,,,,,,,4,5,33,3,,,,,,,,,,,,,,,,,,,,,,,,,,,,,,,,,,,,,,,,,,,,1287.1648370010007,None,1288.2646098240002,None,1289.197991086,None,1.9984126984126984,0.665968979000354,1289.197991086,None,,,,,,,,,,,104,001,2023_May_23_1726,SpeechDraft1Carolyn_lessNoise_PlusLocalization,2021.2.3,60.018552094606584,
,,,,,,,,farLeft,-19.1,5,ch1Sound_localizationTask.wav,-19.1,"(667, 878)","(-293,-202)",-285,-338,,,,,,,,,4,6,34,0,,,,,,,,,,,,,,,,,,,,,,,,,,,,,,,,,,,,,,,,,,,,1289.8652085940003,None,1290.9647632490005,None,1291.8980663190005,None,2.0,0.7325869530004638,1291.8980663190005,None,,,,,,,,,,,104,001,2023_May_23_1726,SpeechDraft1Carolyn_lessNoise_PlusLocalization,2021.2.3,60.018552094606584,
,,,,,,,,midRight,13.0,3,ch1Sound_localizationTask.wav,13.0,"(1142, 878)","(182, -202)",190,-338,,,,,,,,,5,0,35,5,,,,,,,,,,,,,,,,,,,,,,,,,,,,,,,,,,,,,,,,,,,,1292.631816137,None,1293.7313650280003,None,1294.6646267360002,None,2.0,0.6494880519994695,1294.6646267360002,None,,,,,,,,,,,104,001,2023_May_23_1726,SpeechDraft1Carolyn_lessNoise_PlusLocalization,2021.2.3,60.018552094606584,
,,,,,,,,midLeft,-13.0,2,ch1Sound_localizationTask.wav,-13.0,"(762, 878)","(-198,-202)",-190,-338,,,,,,,,,5,1,36,1,,,,,,,,,,,,,,,,,,,,,,,,,,,,,,,,,,,,,,,,,,,,1295.3147940240005,None,1296.4147808460002,None,1297.3480749650007,None,2.0,0.6167107530000067,1297.3480749650007,None,,,,,,,,,,,104,001,2023_May_23_1726,SpeechDraft1Carolyn_lessNoise_PlusLocalization,2021.2.3,60.018552094606584,
,,,,,,,,nearLeft,-6.5,1,ch1Sound_localizationTask.wav,-6.5,"(857, 878)","(-103,-202)",-95,-338,,,,,,,,,5,2,37,2,,,,,,,,,,,,,,,,,,,,,,,,,,,,,,,,,,,,,,,,,,,,1297.9652297290004,None,1299.0646422050004,None,1299.9979347160006,None,2.0,0.9986723479996726,1299.9979347160006,None,,,,,,,,,,,104,001,2023_May_23_1726,SpeechDraft1Carolyn_lessNoise_PlusLocalization,2021.2.3,60.018552094606584,
,,,,,,,,midLeft,-13.0,2,ch1Sound_localizationTask.wav,-13.0,"(762, 878)","(-198,-202)",-190,-338,,,,,,,,,5,3,38,1,,,,,,,,,,,,,,,,,,,,,,,,,,,,,,,,,,,,,,,,,,,,1300.9982947460003,None,1302.0978143400007,None,1303.0313933740008,None,1.9989417989417988,1.0995024690000719,1303.0313933740008,None,,,,,,,,,,,104,001,2023_May_23_1726,SpeechDraft1Carolyn_lessNoise_PlusLocalization,2021.2.3,60.018552094606584,
,,,,,,,,midLeft,-13.0,2,ch1Sound_localizationTask.wav,-13.0,"(762, 878)","(-198,-202)",-190,-338,,,,,,,,,5,4,39,1,,,,,,,,,,,,,,,,,,,,,,,,,,,,,,,,,,,,,,,,,,,,1304.1315144560003,None,1305.2312288350004,None,1306.1648454830001,None,1.9994708994708996,0.9838184050004202,1306.1648454830001,None,,,,,,,,,,,104,001,2023_May_23_1726,SpeechDraft1Carolyn_lessNoise_PlusLocalization,2021.2.3,60.018552094606584,
,,,,,,,,nearLeft,-6.5,1,ch1Sound_localizationTask.wav,-6.5,"(857, 878)","(-103,-202)",-95,-338,,,,,,,,,5,5,40,2,,,,,,,,,,,,,,,,,,,,,,,,,,,,,,,,,,,,,,,,,,,,1307.1649207340006,None,1308.2646800900002,None,1309.1980603900001,None,1.9994708994708996,0.6487518490002913,1309.1980603900001,None,,,,,,,,,,,104,001,2023_May_23_1726,SpeechDraft1Carolyn_lessNoise_PlusLocalization,2021.2.3,60.018552094606584,
,,,,,,,,farRight,19.1,4,ch1Sound_localizationTask.wav,19.1,"(1237, 878)","(277,-202)",285,-338,,,,,,,,,5,6,41,6,,,,,,,,,,,,,,,,,,,,,,,,,,,,,,,,,,,,,,,,,,,,1309.8481734960005,None,1310.9480314280008,None,1311.8811990800004,None,1.9994708994708996,1.5154215679995104,1311.8811990800004,None,,,,,,,,,,,104,001,2023_May_23_1726,SpeechDraft1Carolyn_lessNoise_PlusLocalization,2021.2.3,60.018552094606584,
,,,,,,,,midLeft,-13.0,2,ch1Sound_localizationTask.wav,-13.0,"(762, 878)","(-198,-202)",-190,-338,,,,,,,,,6,0,42,1,,,,,,,,,,,,,,,,,,,,,,,,,,,,,,,,,,,,,,,,,,,,1313.3981071970002,None,1314.4979347410008,None,1315.4313552020003,None,1.9994708994708996,0.7156561009996949,1315.4313552020003,None,,,,,,,,,,,104,001,2023_May_23_1726,SpeechDraft1Carolyn_lessNoise_PlusLocalization,2021.2.3,60.018552094606584,
,,,,,,,,midLeft,-13.0,2,ch1Sound_localizationTask.wav,-13.0,"(762, 878)","(-198,-202)",-190,-338,,,,,,,,,6,1,43,1,,,,,,,,,,,,,,,,,,,,,,,,,,,,,,,,,,,,,,,,,,,,1316.1483025370007,None,1317.248035308,None,1318.1813965160009,None,2.0,1.014769317000173,1318.1813965160009,None,,,,,,,,,,,104,001,2023_May_23_1726,SpeechDraft1Carolyn_lessNoise_PlusLocalization,2021.2.3,60.018552094606584,
,,,,,,,,nearRight,6.5,0,ch1Sound_localizationTask.wav,6.5,"(1047, 878)","(87, -202)",95,-338,,,,,,,,,6,2,44,4,,,,,,,,,,,,,,,,,,,,,,,,,,,,,,,,,,,,,,,,,,,,1319.1982054790005,None,1320.2980506560007,None,1321.2314762430005,None,1.9968253968253968,0.6319879940001556,1321.2314762430005,None,,,,,,,,,,,104,001,2023_May_23_1726,SpeechDraft1Carolyn_lessNoise_PlusLocalization,2021.2.3,60.018552094606584,
,,,,,,,,nearLeft,-6.5,1,ch1Sound_localizationTask.wav,-6.5,"(857, 878)","(-103,-202)",-95,-338,,,,,,,,,6,3,45,2,,,,,,,,,,,,,,,,,,,,,,,,,,,,,,,,,,,,,,,,,,,,1321.8648833890002,None,1322.9646057270002,None,1323.8979225960002,None,2.0,0.6328411370004687,1323.8979225960002,None,,,,,,,,,,,104,001,2023_May_23_1726,SpeechDraft1Carolyn_lessNoise_PlusLocalization,2021.2.3,60.018552094606584,
,,,,,,,,farRight,19.1,4,ch1Sound_localizationTask.wav,19.1,"(1237, 878)","(277,-202)",285,-338,,,,,,,,,6,4,46,6,,,,,,,,,,,,,,,,,,,,,,,,,,,,,,,,,,,,,,,,,,,,1324.5316302420006,None,1325.6313987810008,None,1326.5647263830006,None,2.0,0.666253138000684,1326.5647263830006,None,,,,,,,,,,,104,001,2023_May_23_1726,SpeechDraft1Carolyn_lessNoise_PlusLocalization,2021.2.3,60.018552094606584,
,,,,,,,,farLeft,-19.1,5,ch1Sound_localizationTask.wav,-19.1,"(667, 878)","(-293,-202)",-285,-338,,,,,,,,,6,5,47,0,,,,,,,,,,,,,,,,,,,,,,,,,,,,,,,,,,,,,,,,,,,,1327.2316455570008,None,1328.3314975990006,None,1329.2648103860001,None,1.9994708994708996,0.6835013320005601,1329.2648103860001,None,,,,,,,,,,,104,001,2023_May_23_1726,SpeechDraft1Carolyn_lessNoise_PlusLocalization,2021.2.3,60.018552094606584,
,,,,,,,,nearLeft,-6.5,1,ch1Sound_localizationTask.wav,-6.5,"(857, 878)","(-103,-202)",-95,-338,,,,,,,,,6,6,48,2,,,,,,,,,,,,,,,,,,,,,,,,,,,,,,,,,,,,,,,,,,,,1329.9485428420003,None,1331.047987211,None,1331.9813767800006,None,1.9968253968253968,0.7335578339998392,1331.9813767800006,None,,,,,,,,,,,104,001,2023_May_23_1726,SpeechDraft1Carolyn_lessNoise_PlusLocalization,2021.2.3,60.018552094606584,
,,,,,,,,midRight,13.0,3,ch1Sound_localizationTask.wav,13.0,"(1142, 878)","(182, -202)",190,-338,,,,,,,,,7,0,49,5,,,,,,,,,,,,,,,,,,,,,,,,,,,,,,,,,,,,,,,,,,,,1332.7151963700007,None,1333.814563418,None,1334.7480253150006,None,1.9968253968253968,0.7501824150003813,1334.7480253150006,None,,,,,,,,,,,104,001,2023_May_23_1726,SpeechDraft1Carolyn_lessNoise_PlusLocalization,2021.2.3,60.018552094606584,
,,,,,,,,center,0.0,6,ch1Sound_localizationTask.wav,0.0,"(952, 878)","(-8,-202)",0,-338,,,,,,,,,7,1,50,3,,,,,,,,,,,,,,,,,,,,,,,,,,,,,,,,,,,,,,,,,,,,1335.4985011520002,None,1336.5979418820007,None,1337.5313195210001,None,1.9984126984126984,0.6653154310006357,1337.5313195210001,None,,,,,,,,,,,104,001,2023_May_23_1726,SpeechDraft1Carolyn_lessNoise_PlusLocalization,2021.2.3,60.018552094606584,
,,,,,,,,midRight,13.0,3,ch1Sound_localizationTask.wav,13.0,"(1142, 878)","(182, -202)",190,-338,,,,,,,,,7,2,51,5,,,,,,,,,,,,,,,,,,,,,,,,,,,,,,,,,,,,,,,,,,,,1338.1983705830007,None,1339.2980130940005,None,1340.2313769990005,None,1.9984126984126984,0.9991030799992586,1340.2313769990005,None,,,,,,,,,,,104,001,2023_May_23_1726,SpeechDraft1Carolyn_lessNoise_PlusLocalization,2021.2.3,60.018552094606584,
,,,,,,,,nearRight,6.5,0,ch1Sound_localizationTask.wav,6.5,"(1047, 878)","(87, -202)",95,-338,,,,,,,,,7,3,52,4,,,,,,,,,,,,,,,,,,,,,,,,,,,,,,,,,,,,,,,,,,,,1341.2316537710003,None,1342.3314762070004,None,1343.2645691910002,None,1.9984126984126984,0.6327919310006109,1343.2645691910002,None,,,,,,,,,,,104,001,2023_May_23_1726,SpeechDraft1Carolyn_lessNoise_PlusLocalization,2021.2.3,60.018552094606584,
,,,,,,,,nearRight,6.5,0,ch1Sound_localizationTask.wav,6.5,"(1047, 878)","(87, -202)",95,-338,,,,,,,,,7,4,53,4,,,,,,,,,,,,,,,,,,,,,,,,,,,,,,,,,,,,,,,,,,,,1343.8981970330005,None,1344.9979194520001,None,1345.931285951,None,1.9984126984126984,0.6651968490004947,1345.931285951,None,,,,,,,,,,,104,001,2023_May_23_1726,SpeechDraft1Carolyn_lessNoise_PlusLocalization,2021.2.3,60.018552094606584,
,,,,,,,,center,0.0,6,ch1Sound_localizationTask.wav,0.0,"(952, 878)","(-8,-202)",0,-338,,,,,,,,,7,5,54,3,,,,,,,,,,,,,,,,,,,,,,,,,,,,,,,,,,,,,,,,,,,,1346.5984036180007,None,1347.6980726230004,None,1348.631408964,None,1.9984126984126984,0.8501161429994681,1348.631408964,None,,,,,,,,,,,104,001,2023_May_23_1726,SpeechDraft1Carolyn_lessNoise_PlusLocalization,2021.2.3,60.018552094606584,
,,,,,,,,center,0.0,6,ch1Sound_localizationTask.wav,0.0,"(952, 878)","(-8,-202)",0,-338,,,,,,,,,7,6,55,3,,,,,,,,,,,,,,,,,,,,,,,,,,,,,,,,,,,,,,,,,,,,1349.481830363,None,1350.581322252,None,1351.5147823240004,None,1.9984126984126984,0.649014798999815,1351.5147823240004,None,,,,,,,,,,,104,001,2023_May_23_1726,SpeechDraft1Carolyn_lessNoise_PlusLocalization,2021.2.3,60.018552094606584,
,,,,,,,,,,,,,,,,,,,,,,,,,,,,,,,,,,,,,,,,,,,,,,,,,,,,,,,,,,,,,,,,,,,,,,,,,,,,,,,,,,space,7.160462073000417,1352.2483754260002,None,,,,,,,104,001,2023_May_23_1726,SpeechDraft1Carolyn_lessNoise_PlusLocalization,2021.2.3,60.018552094606584,
,,,,,,,,center,0.0,6,ch1Sound_localizationTask.wav,0.0,"(952, 878)","(-8,-202)",0,-338,,,,,,,,,,,,,0,0,0,3,,,,,,,,,,,,,,,,,,,,,,,,,,,,,,,,,,,,,,,,1359.4481537640004,None,,,1362.481522596,None,2,2.670513475000007,1362.481522596,None,,,,,1352.2483754260002,None,1360.4481714340009,None,1360.6314596760003,1360.6482180780004,104,001,2023_May_23_1726,SpeechDraft1Carolyn_lessNoise_PlusLocalization,2021.2.3,60.018552094606584,
,,,,,,,,midLeft,-13.0,2,ch1Sound_localizationTask.wav,-13.0,"(762, 878)","(-198,-202)",-190,-338,,,,,,,,,,,,,0,1,1,1,,,,,,,,,,,,,,,,,,,,,,,,,,,,,,,,,,,,,,,,1365.1490503210007,None,,,1368.1647300840004,None,1.005820105820106,15.049076485000114,1368.1647300840004,None,,,,,,,1366.1482260660005,None,1366.3317023940008,1366.348347178,104,001,2023_May_23_1726,SpeechDraft1Carolyn_lessNoise_PlusLocalization,2021.2.3,60.018552094606584,
,,,,,,,,nearRight,6.5,0,ch1Sound_localizationTask.wav,6.5,"(1047, 878)","(87, -202)",95,-338,,,,,,,,,,,,,0,2,2,4,,,,,,,,,,,,,,,,,,,,,,,,,,,,,,,,,,,,,,,,1383.2152916070008,None,,,1386.2314791240005,None,1.9962962962962962,6.265727363999758,1386.2314791240005,None,,,,,,,1384.2150100500003,None,1384.3982849350004,1384.4150664830004,104,001,2023_May_23_1726,SpeechDraft1Carolyn_lessNoise_PlusLocalization,2021.2.3,60.018552094606584,
,,,,,,,,midLeft,-13.0,2,ch1Sound_localizationTask.wav,-13.0,"(762, 878)","(-198,-202)",-190,-338,,,,,,,,,,,,,0,3,3,1,,,,,,,,,,,,,,,,,,,,,,,,,,,,,,,,,,,,,,,,1392.4985455020005,None,,,1395.514707927,None,1.0037037037037038,3.715944705999391,1395.514707927,None,,,,,,,1393.4984218970003,None,1393.6817665900007,1393.6984338420007,104,001,2023_May_23_1726,SpeechDraft1Carolyn_lessNoise_PlusLocalization,2021.2.3,60.018552094606584,
,,,,,,,,farRight,19.1,4,ch1Sound_localizationTask.wav,19.1,"(1237, 878)","(277,-202)",285,-338,,,,,,,,,,,,,0,4,4,6,,,,,,,,,,,,,,,,,,,,,,,,,,,,,,,,,,,,,,,,1399.232741406,None,,,1402.2479995360009,None,2,2.2486747459997787,1402.2479995360009,None,,,,,,,1400.2317161650008,None,1400.4150887490005,1400.4315942370004,104,001,2023_May_23_1726,SpeechDraft1Carolyn_lessNoise_PlusLocalization,2021.2.3,60.018552094606584,
,,,,,,,,nearRight,6.5,0,ch1Sound_localizationTask.wav,6.5,"(1047, 878)","(87, -202)",95,-338,,,,,,,,,,,,,0,5,5,4,,,,,,,,,,,,,,,,,,,,,,,,,,,,,,,,,,,,,,,,1404.498590262,None,,,1407.5148393890004,None,2,2.2982395070002894,1407.5148393890004,None,,,,,,,1405.498467241,None,1405.6815890180005,1405.6984322050002,104,001,2023_May_23_1726,SpeechDraft1Carolyn_lessNoise_PlusLocalization,2021.2.3,60.018552094606584,
,,,,,,,,midRight,13.0,3,ch1Sound_localizationTask.wav,13.0,"(1142, 878)","(182, -202)",190,-338,,,,,,,,,,,,,0,6,6,5,,,,,,,,,,,,,,,,,,,,,,,,,,,,,,,,,,,,,,,,1409.814938087,None,,,1412.8314614990004,None,1.9973544973544972,2.481999456000267,1412.8314614990004,None,,,,,,,1410.81505913,None,1410.998436807,1411.0149759900005,104,001,2023_May_23_1726,SpeechDraft1Carolyn_lessNoise_PlusLocalization,2021.2.3,60.018552094606584,
,,,,,,,,nearLeft,-6.5,1,ch1Sound_localizationTask.wav,-6.5,"(857, 878)","(-103,-202)",-95,-338,,,,,,,,,,,,,1,0,7,2,,,,,,,,,,,,,,,,,,,,,,,,,,,,,,,,,,,,,,,,1415.3150798530005,None,,,1418.3315818400006,None,1,41.14963063900086,1418.3315818400006,None,,,,,,,1416.3150330100007,None,1416.4983859830008,1416.5150830530001,104,001,2023_May_23_1726,SpeechDraft1Carolyn_lessNoise_PlusLocalization,2021.2.3,60.018552094606584,
,,,,,,,,farRight,19.1,4,ch1Sound_localizationTask.wav,19.1,"(1237, 878)","(277,-202)",285,-338,,,,,,,,,,,,,1,1,8,6,,,,,,,,,,,,,,,,,,,,,,,,,,,,,,,,,,,,,,,,1459.4832588410009,None,,,1462.5149125799999,None,2,7.932926143999794,1462.5149125799999,None,,,,,,,1460.4985209490005,None,1460.6817520290006,1460.698509979,104,001,2023_May_23_1726,SpeechDraft1Carolyn_lessNoise_PlusLocalization,2021.2.3,60.018552094606584,
,,,,,,,,midLeft,-13.0,2,ch1Sound_localizationTask.wav,-13.0,"(762, 878)","(-198,-202)",-190,-338,,,,,,,,,,,,,1,2,9,1,,,,,,,,,,,,,,,,,,,,,,,,,,,,,,,,,,,,,,,,1470.4490751190006,None,,,1473.4649919290005,None,1,7.132313856998735,1473.4649919290005,None,,,,,,,1471.4485445890004,None,1471.6318346290009,1471.6484215640012,104,001,2023_May_23_1726,SpeechDraft1Carolyn_lessNoise_PlusLocalization,2021.2.3,60.018552094606584,
,,,,,,,,center,0.0,6,ch1Sound_localizationTask.wav,0.0,"(952, 878)","(-8,-202)",0,-338,,,,,,,,,,,,,1,3,10,3,,,,,,,,,,,,,,,,,,,,,,,,,,,,,,,,,,,,,,,,1480.5986482360004,None,,,1483.615027486001,None,2,2.4492457779997494,1483.615027486001,None,,,,,,,1481.5984971880007,None,1481.7818825539998,1481.798502394,104,001,2023_May_23_1726,SpeechDraft1Carolyn_lessNoise_PlusLocalization,2021.2.3,60.018552094606584,
,,,,,,,,nearLeft,-6.5,1,ch1Sound_localizationTask.wav,-6.5,"(857, 878)","(-103,-202)",-95,-338,,,,,,,,,,,,,1,4,11,2,,,,,,,,,,,,,,,,,,,,,,,,,,,,,,,,,,,,,,,,1486.0651476189996,None,,,1489.0815775089995,None,1.002116402116402,3.7813673189994006,1489.0815775089995,None,,,,,,,1487.0651658340012,None,1487.2485831949998,1487.2651406620007,104,001,2023_May_23_1726,SpeechDraft1Carolyn_lessNoise_PlusLocalization,2021.2.3,60.018552094606584,
,,,,,,,,nearRight,6.5,0,ch1Sound_localizationTask.wav,6.5,"(1047, 878)","(87, -202)",95,-338,,,,,,,,,,,,,1,5,12,4,,,,,,,,,,,,,,,,,,,,,,,,,,,,,,,,,,,,,,,,1492.865294284,None,,,1495.8815006280001,None,2,2.6493224910009303,1495.8815006280001,None,,,,,,,1493.8651173930011,None,1494.0484333050008,1494.0650679909995,104,001,2023_May_23_1726,SpeechDraft1Carolyn_lessNoise_PlusLocalization,2021.2.3,60.018552094606584,
,,,,,,,,farLeft,-19.1,5,ch1Sound_localizationTask.wav,-19.1,"(667, 878)","(-293,-202)",-285,-338,,,,,,,,,,,,,1,6,13,0,,,,,,,,,,,,,,,,,,,,,,,,,,,,,,,,,,,,,,,,1498.532094907001,None,,,1501.5483895840007,None,1.0037037037037038,3.9979748010009644,1501.5483895840007,None,,,,,,,1499.5317970200012,None,1499.7150975570003,1499.7317155689998,104,001,2023_May_23_1726,SpeechDraft1Carolyn_lessNoise_PlusLocalization,2021.2.3,60.018552094606584,
,,,,,,,,midLeft,-13.0,2,ch1Sound_localizationTask.wav,-13.0,"(762, 878)","(-198,-202)",-190,-338,,,,,,,,,,,,,2,0,14,1,,,,,,,,,,,,,,,,,,,,,,,,,,,,,,,,,,,,,,,,1505.5485476590002,None,,,1508.5650013180002,None,1,3.848472062998553,1508.5650013180002,None,,,,,,,1506.5485465700003,None,1506.7317746429999,1506.7484772290009,104,001,2023_May_23_1726,SpeechDraft1Carolyn_lessNoise_PlusLocalization,2021.2.3,60.018552094606584,
,,,,,,,,midLeft,-13.0,2,ch1Sound_localizationTask.wav,-13.0,"(762, 878)","(-198,-202)",-190,-338,,,,,,,,,,,,,2,1,15,1,,,,,,,,,,,,,,,,,,,,,,,,,,,,,,,,,,,,,,,,1512.4159978469997,None,,,1515.431727481,None,1.0010582010582012,1.413335017999998,1515.431727481,None,,,,,,,1513.4152395720012,None,1513.598542611,1513.6151023519997,104,001,2023_May_23_1726,SpeechDraft1Carolyn_lessNoise_PlusLocalization,2021.2.3,60.018552094606584,
,,,,,,,,midRight,13.0,3,ch1Sound_localizationTask.wav,13.0,"(1142, 878)","(182, -202)",190,-338,,,,,,,,,,,,,2,2,16,5,,,,,,,,,,,,,,,,,,,,,,,,,,,,,,,,,,,,,,,,1516.8485378620007,None,,,1519.864804723,None,1.9973544973544972,4.8150557080007275,1519.864804723,None,,,,,,,1517.848434337,None,1518.031944806,1518.0485239270001,104,001,2023_May_23_1726,SpeechDraft1Carolyn_lessNoise_PlusLocalization,2021.2.3,60.018552094606584,
,,,,,,,,farLeft,-19.1,5,ch1Sound_localizationTask.wav,-19.1,"(667, 878)","(-293,-202)",-285,-338,,,,,,,,,,,,,2,3,17,0,,,,,,,,,,,,,,,,,,,,,,,,,,,,,,,,,,,,,,,,1524.6984549990011,None,,,1527.715069756001,None,1,11.665393311999651,1527.715069756001,None,,,,,,,1525.6984634990004,None,1525.881946161,1525.898514419001,104,001,2023_May_23_1726,SpeechDraft1Carolyn_lessNoise_PlusLocalization,2021.2.3,60.018552094606584,
,,,,,,,,nearRight,6.5,0,ch1Sound_localizationTask.wav,6.5,"(1047, 878)","(87, -202)",95,-338,,,,,,,,,,,,,2,4,18,4,,,,,,,,,,,,,,,,,,,,,,,,,,,,,,,,,,,,,,,,1539.381849378,None,,,1542.398206279,None,1.9968253968253968,2.482250868000847,1542.398206279,None,,,,,,,1540.3817568490012,None,1540.5653196980002,1540.581743836001,104,001,2023_May_23_1726,SpeechDraft1Carolyn_lessNoise_PlusLocalization,2021.2.3,60.018552094606584,
,,,,,,,,center,0.0,6,ch1Sound_localizationTask.wav,0.0,"(952, 878)","(-8,-202)",0,-338,,,,,,,,,,,,,2,5,19,3,,,,,,,,,,,,,,,,,,,,,,,,,,,,,,,,,,,,,,,,1544.898581323001,None,,,1547.915085738001,None,1.997883597883598,1.0819557470003929,1547.915085738001,None,,,,,,,1545.8985107500012,None,1546.081892129001,1546.098651057,104,001,2023_May_23_1726,SpeechDraft1Carolyn_lessNoise_PlusLocalization,2021.2.3,60.018552094606584,
,,,,,,,,farRight,19.1,4,ch1Sound_localizationTask.wav,19.1,"(1237, 878)","(277,-202)",285,-338,,,,,,,,,,,,,2,6,20,6,,,,,,,,,,,,,,,,,,,,,,,,,,,,,,,,,,,,,,,,1548.9988197700004,None,,,1552.014952775,None,1.9984126984126984,1.3488804460012034,1552.014952775,None,,,,,,,1549.9984276020004,None,1550.1817905110001,1550.1985265780004,104,001,2023_May_23_1726,SpeechDraft1Carolyn_lessNoise_PlusLocalization,2021.2.3,60.018552094606584,
,,,,,,,,midLeft,-13.0,2,ch1Sound_localizationTask.wav,-13.0,"(762, 878)","(-198,-202)",-190,-338,,,,,,,,,,,,,3,0,21,1,,,,,,,,,,,,,,,,,,,,,,,,,,,,,,,,,,,,,,,,1553.3652793,None,,,1556.3815701109997,None,1.0005291005291004,8.248198023000441,1556.3815701109997,None,,,,,,,1554.3652283869997,None,1554.5486211469997,1554.5652025110012,104,001,2023_May_23_1726,SpeechDraft1Carolyn_lessNoise_PlusLocalization,2021.2.3,60.018552094606584,
,,,,,,,,farLeft,-19.1,5,ch1Sound_localizationTask.wav,-19.1,"(667, 878)","(-293,-202)",-285,-338,,,,,,,,,,,,,3,1,22,0,,,,,,,,,,,,,,,,,,,,,,,,,,,,,,,,,,,,,,,,1564.6319558840005,None,,,1567.6483517630004,None,1.0010582010582012,5.032954647998849,1567.6483517630004,None,,,,,,,1565.6318065409996,None,1565.8152551269995,1565.8318253779998,104,001,2023_May_23_1726,SpeechDraft1Carolyn_lessNoise_PlusLocalization,2021.2.3,60.018552094606584,
,,,,,,,,nearRight,6.5,0,ch1Sound_localizationTask.wav,6.5,"(1047, 878)","(87, -202)",95,-338,,,,,,,,,,,,,3,2,23,4,,,,,,,,,,,,,,,,,,,,,,,,,,,,,,,,,,,,,,,,1572.682459439,None,,,1575.6983546640004,None,2,3.3666853479990095,1575.6983546640004,None,,,,,,,1573.681871183,None,1573.8652376749997,1573.8818985899998,104,001,2023_May_23_1726,SpeechDraft1Carolyn_lessNoise_PlusLocalization,2021.2.3,60.018552094606584,
,,,,,,,,center,0.0,6,ch1Sound_localizationTask.wav,0.0,"(952, 878)","(-8,-202)",0,-338,,,,,,,,,,,,,3,3,24,3,,,,,,,,,,,,,,,,,,,,,,,,,,,,,,,,,,,,,,,,1579.0818974440008,None,,,1582.0984064479999,None,1.9973544973544972,6.663834203998704,1582.0984064479999,None,,,,,,,1580.0818317370013,None,1580.265252958001,1580.282050758,104,001,2023_May_23_1726,SpeechDraft1Carolyn_lessNoise_PlusLocalization,2021.2.3,60.018552094606584,
,,,,,,,,nearLeft,-6.5,1,ch1Sound_localizationTask.wav,-6.5,"(857, 878)","(-103,-202)",-95,-338,,,,,,,,,,,,,3,4,25,2,,,,,,,,,,,,,,,,,,,,,,,,,,,,,,,,,,,,,,,,1588.7652631720011,None,,,1591.7817483540002,None,1.0,2.8487886200000503,1591.7817483540002,None,,,,,,,1589.7652727269997,None,1589.9485762240001,1589.965401714,104,001,2023_May_23_1726,SpeechDraft1Carolyn_lessNoise_PlusLocalization,2021.2.3,60.018552094606584,
,,,,,,,,midLeft,-13.0,2,ch1Sound_localizationTask.wav,-13.0,"(762, 878)","(-198,-202)",-190,-338,,,,,,,,,,,,,3,5,26,1,,,,,,,,,,,,,,,,,,,,,,,,,,,,,,,,,,,,,,,,1594.6318423150005,None,,,1597.648381997,None,1.0,6.332166680000228,1597.648381997,None,,,,,,,1595.6319454240002,None,1595.8152536710004,1595.8319455420005,104,001,2023_May_23_1726,SpeechDraft1Carolyn_lessNoise_PlusLocalization,2021.2.3,60.018552094606584,
,,,,,,,,midRight,13.0,3,ch1Sound_localizationTask.wav,13.0,"(1142, 878)","(182, -202)",190,-338,,,,,,,,,,,,,3,6,27,5,,,,,,,,,,,,,,,,,,,,,,,,,,,,,,,,,,,,,,,,1603.9819370349996,None,,,1606.9984697300006,None,2,1.9985626179986866,1606.9984697300006,None,,,,,,,1604.9820484070005,None,1605.1653555699995,1605.1820726719998,104,001,2023_May_23_1726,SpeechDraft1Carolyn_lessNoise_PlusLocalization,2021.2.3,60.018552094606584,
,,,,,,,,midRight,13.0,3,ch1Sound_localizationTask.wav,13.0,"(1142, 878)","(182, -202)",190,-338,,,,,,,,,,,,,4,0,28,5,,,,,,,,,,,,,,,,,,,,,,,,,,,,,,,,,,,,,,,,1608.9988503580007,None,,,1612.0151583750012,None,2,1.3657380590011599,1612.0151583750012,None,,,,,,,1609.9986207189995,None,1610.182131353,1610.198714569,104,001,2023_May_23_1726,SpeechDraft1Carolyn_lessNoise_PlusLocalization,2021.2.3,60.018552094606584,
,,,,,,,,center,0.0,6,ch1Sound_localizationTask.wav,0.0,"(952, 878)","(-8,-202)",0,-338,,,,,,,,,,,,,4,1,29,3,,,,,,,,,,,,,,,,,,,,,,,,,,,,,,,,,,,,,,,,1613.3822131449997,None,,,1616.3984427760006,None,2.0,0.9491779299987684,1616.3984427760006,None,,,,,,,1614.3820835919996,None,1614.5652623660008,1614.5820690600012,104,001,2023_May_23_1726,SpeechDraft1Carolyn_lessNoise_PlusLocalization,2021.2.3,60.018552094606584,
,,,,,,,,nearRight,6.5,0,ch1Sound_localizationTask.wav,6.5,"(1047, 878)","(87, -202)",95,-338,,,,,,,,,,,,,4,2,30,4,,,,,,,,,,,,,,,,,,,,,,,,,,,,,,,,,,,,,,,,1617.3653038280008,None,,,1620.3819424070007,None,1.9973544973544972,2.230793521001033,1620.3819424070007,None,,,,,,,1618.3652860720013,None,1618.5486539270005,1618.5652484149996,104,001,2023_May_23_1726,SpeechDraft1Carolyn_lessNoise_PlusLocalization,2021.2.3,60.018552094606584,
,,,,,,,,nearLeft,-6.5,1,ch1Sound_localizationTask.wav,-6.5,"(857, 878)","(-103,-202)",-95,-338,,,,,,,,,,,,,4,3,31,2,,,,,,,,,,,,,,,,,,,,,,,,,,,,,,,,,,,,,,,,1622.615221989001,None,,,1625.6317613740011,None,1.0037037037037038,3.0323410090004472,1625.6317613740011,None,,,,,,,1623.6153080530003,None,1623.7986980080004,1623.8153194000006,104,001,2023_May_23_1726,SpeechDraft1Carolyn_lessNoise_PlusLocalization,2021.2.3,60.018552094606584,
,,,,,,,,farRight,19.1,4,ch1Sound_localizationTask.wav,19.1,"(1237, 878)","(277,-202)",285,-338,,,,,,,,,,,,,4,4,32,6,,,,,,,,,,,,,,,,,,,,,,,,,,,,,,,,,,,,,,,,1628.6652040560002,None,,,1631.6817328979996,None,1.9984126984126984,5.548208047999651,1631.6817328979996,None,,,,,,,1629.6654178219997,None,1629.8486678730005,1629.865447475,104,001,2023_May_23_1726,SpeechDraft1Carolyn_lessNoise_PlusLocalization,2021.2.3,60.018552094606584,
,,,,,,,,midLeft,-13.0,2,ch1Sound_localizationTask.wav,-13.0,"(762, 878)","(-198,-202)",-190,-338,,,,,,,,,,,,,4,5,33,1,,,,,,,,,,,,,,,,,,,,,,,,,,,,,,,,,,,,,,,,1637.2319804210001,None,,,1640.248494851001,None,1.0010582010582012,5.781997759999285,1640.248494851001,None,,,,,,,1638.232250092,None,1638.4153528730003,1638.432184176001,104,001,2023_May_23_1726,SpeechDraft1Carolyn_lessNoise_PlusLocalization,2021.2.3,60.018552094606584,
,,,,,,,,center,0.0,6,ch1Sound_localizationTask.wav,0.0,"(952, 878)","(-8,-202)",0,-338,,,,,,,,,,,,,4,6,34,3,,,,,,,,,,,,,,,,,,,,,,,,,,,,,,,,,,,,,,,,1646.0320728570005,None,,,1649.0484400730002,None,1.0026455026455028,1.166033408999283,1649.0484400730002,None,,,,,,,1647.0319569340008,None,1647.215317641001,1647.2319556390012,104,001,2023_May_23_1726,SpeechDraft1Carolyn_lessNoise_PlusLocalization,2021.2.3,60.018552094606584,
,,,,,,,,farRight,19.1,4,ch1Sound_localizationTask.wav,19.1,"(1237, 878)","(277,-202)",285,-338,,,,,,,,,,,,,5,0,35,6,,,,,,,,,,,,,,,,,,,,,,,,,,,,,,,,,,,,,,,,1650.2153189239998,None,,,1653.231792212,None,1.9984126984126984,2.131703806000587,1653.231792212,None,,,,,,,1651.215274084001,None,1651.3987594789996,1651.4153263790013,104,001,2023_May_23_1726,SpeechDraft1Carolyn_lessNoise_PlusLocalization,2021.2.3,60.018552094606584,
,,,,,,,,farLeft,-19.1,5,ch1Sound_localizationTask.wav,-19.1,"(667, 878)","(-293,-202)",-285,-338,,,,,,,,,,,,,5,1,36,0,,,,,,,,,,,,,,,,,,,,,,,,,,,,,,,,,,,,,,,,1655.3652765260013,None,,,1658.3817292780004,None,1.0037037037037038,5.499115528000402,1658.3817292780004,None,,,,,,,1656.365506819,None,1656.5486564250004,1656.5653025459997,104,001,2023_May_23_1726,SpeechDraft1Carolyn_lessNoise_PlusLocalization,2021.2.3,60.018552094606584,
,,,,,,,,farRight,19.1,4,ch1Sound_localizationTask.wav,19.1,"(1237, 878)","(277,-202)",285,-338,,,,,,,,,,,,,5,2,37,6,,,,,,,,,,,,,,,,,,,,,,,,,,,,,,,,,,,,,,,,1663.8821554120004,None,,,1666.8985922930005,None,1.997883597883598,1.847645208999893,1666.8985922930005,None,,,,,,,1664.8821067709996,None,1665.065438099,1665.0821241820013,104,001,2023_May_23_1726,SpeechDraft1Carolyn_lessNoise_PlusLocalization,2021.2.3,60.018552094606584,
,,,,,,,,nearRight,6.5,0,ch1Sound_localizationTask.wav,6.5,"(1047, 878)","(87, -202)",95,-338,,,,,,,,,,,,,5,3,38,4,,,,,,,,,,,,,,,,,,,,,,,,,,,,,,,,,,,,,,,,1668.7487706190004,None,,,1671.7653633440004,None,2,0.8818761310012633,1671.7653633440004,None,,,,,,,1669.7486964540003,None,1669.932147992,1669.9486648929997,104,001,2023_May_23_1726,SpeechDraft1Carolyn_lessNoise_PlusLocalization,2021.2.3,60.018552094606584,
,,,,,,,,nearLeft,-6.5,1,ch1Sound_localizationTask.wav,-6.5,"(857, 878)","(-103,-202)",-95,-338,,,,,,,,,,,,,5,4,39,2,,,,,,,,,,,,,,,,,,,,,,,,,,,,,,,,,,,,,,,,1672.66539328,None,,,1675.6817375589999,None,1.0015873015873016,4.082027409000148,1675.6817375589999,None,,,,,,,1673.6653205430011,None,1673.848718172001,1673.8654504900005,104,001,2023_May_23_1726,SpeechDraft1Carolyn_lessNoise_PlusLocalization,2021.2.3,60.018552094606584,
,,,,,,,,farLeft,-19.1,5,ch1Sound_localizationTask.wav,-19.1,"(667, 878)","(-293,-202)",-285,-338,,,,,,,,,,,,,5,5,40,0,,,,,,,,,,,,,,,,,,,,,,,,,,,,,,,,,,,,,,,,1679.7660566289996,None,,,1682.7818820949997,None,1.002116402116402,0.7488622019991453,1682.7818820949997,None,,,,,,,1680.7654006450011,None,1680.9487914740002,1680.9656250910011,104,001,2023_May_23_1726,SpeechDraft1Carolyn_lessNoise_PlusLocalization,2021.2.3,60.018552094606584,
,,,,,,,,farRight,19.1,4,ch1Sound_localizationTask.wav,19.1,"(1237, 878)","(277,-202)",285,-338,,,,,,,,,,,,,5,6,41,6,,,,,,,,,,,,,,,,,,,,,,,,,,,,,,,,,,,,,,,,1683.532088602,None,,,1686.548462140001,None,2,2.264138403999823,1686.548462140001,None,,,,,,,1684.531979427,None,1684.7155958940002,1684.7320482480009,104,001,2023_May_23_1726,SpeechDraft1Carolyn_lessNoise_PlusLocalization,2021.2.3,60.018552094606584,
,,,,,,,,farLeft,-19.1,5,ch1Sound_localizationTask.wav,-19.1,"(667, 878)","(-293,-202)",-285,-338,,,,,,,,,,,,,6,0,42,0,,,,,,,,,,,,,,,,,,,,,,,,,,,,,,,,,,,,,,,,1688.8153451090002,None,,,1691.8319237169999,None,1.2486772486772486,2.9332209460008016,1691.8319237169999,None,,,,,,,1689.8155138090005,None,1689.9987929,1690.0153349890006,104,001,2023_May_23_1726,SpeechDraft1Carolyn_lessNoise_PlusLocalization,2021.2.3,60.018552094606584,
,,,,,,,,farLeft,-19.1,5,ch1Sound_localizationTask.wav,-19.1,"(667, 878)","(-293,-202)",-285,-338,,,,,,,,,,,,,6,1,43,0,,,,,,,,,,,,,,,,,,,,,,,,,,,,,,,,,,,,,,,,1694.7820545450013,None,,,1697.7985967240002,None,1.1671957671957673,18.518305679999685,1697.7985967240002,None,,,,,,,1695.7823115219999,None,1695.9653939170003,1695.9821782960007,104,001,2023_May_23_1726,SpeechDraft1Carolyn_lessNoise_PlusLocalization,2021.2.3,60.018552094606584,
,,,,,,,,center,0.0,6,ch1Sound_localizationTask.wav,0.0,"(952, 878)","(-8,-202)",0,-338,,,,,,,,,,,,,6,2,44,3,,,,,,,,,,,,,,,,,,,,,,,,,,,,,,,,,,,,,,,,1716.3323348960002,None,,,1719.3486533560008,None,1,17.346266450000257,1719.3486533560008,None,,,,,,,1717.332222338,None,1717.5153980100004,1717.5321305440011,104,001,2023_May_23_1726,SpeechDraft1Carolyn_lessNoise_PlusLocalization,2021.2.3,60.018552094606584,
,,,,,,,,center,0.0,6,ch1Sound_localizationTask.wav,0.0,"(952, 878)","(-8,-202)",0,-338,,,,,,,,,,,,,6,3,45,3,,,,,,,,,,,,,,,,,,,,,,,,,,,,,,,,,,,,,,,,1736.698857554,None,,,1739.7152721420007,None,1.9947089947089947,2.0983661179998307,1739.7152721420007,None,,,,,,,1737.6987129549998,None,1737.882274351001,1737.8988055980008,104,001,2023_May_23_1726,SpeechDraft1Carolyn_lessNoise_PlusLocalization,2021.2.3,60.018552094606584,
,,,,,,,,farRight,19.1,4,ch1Sound_localizationTask.wav,19.1,"(1237, 878)","(277,-202)",285,-338,,,,,,,,,,,,,6,4,46,6,,,,,,,,,,,,,,,,,,,,,,,,,,,,,,,,,,,,,,,,1741.815648781001,None,,,1744.8319111260007,None,1.9952380952380953,1.0659983700006705,1744.8319111260007,None,,,,,,,1742.8155186020012,None,1742.998730020001,1743.015466023,104,001,2023_May_23_1726,SpeechDraft1Carolyn_lessNoise_PlusLocalization,2021.2.3,60.018552094606584,
,,,,,,,,nearLeft,-6.5,1,ch1Sound_localizationTask.wav,-6.5,"(857, 878)","(-103,-202)",-95,-338,,,,,,,,,,,,,6,5,47,2,,,,,,,,,,,,,,,,,,,,,,,,,,,,,,,,,,,,,,,,1745.898921891001,None,,,1748.9152730130008,None,2,8.450507141998969,1748.9152730130008,None,,,,,,,1746.8988707890003,None,1747.0822942590003,1747.098730617001,104,001,2023_May_23_1726,SpeechDraft1Carolyn_lessNoise_PlusLocalization,2021.2.3,60.018552094606584,
,,,,,,,,nearLeft,-6.5,1,ch1Sound_localizationTask.wav,-6.5,"(857, 878)","(-103,-202)",-95,-338,,,,,,,,,,,,,6,6,48,2,,,,,,,,,,,,,,,,,,,,,,,,,,,,,,,,,,,,,,,,1757.3822574990008,None,,,1760.398589108001,None,1,2.299200141998881,1760.398589108001,None,,,,,,,1758.3822873339996,None,1758.5655009729999,1758.5821832450001,104,001,2023_May_23_1726,SpeechDraft1Carolyn_lessNoise_PlusLocalization,2021.2.3,60.018552094606584,
,,,,,,,,farLeft,-19.1,5,ch1Sound_localizationTask.wav,-19.1,"(667, 878)","(-293,-202)",-285,-338,,,,,,,,,,,,,7,0,49,0,,,,,,,,,,,,,,,,,,,,,,,,,,,,,,,,,,,,,,,,1762.6989804050008,None,,,1765.7152527010003,None,1.006878306878307,0.7653499389998615,1765.7152527010003,None,,,,,,,1763.6988686920013,None,1763.8822173259996,1763.8988783780005,104,001,2023_May_23_1726,SpeechDraft1Carolyn_lessNoise_PlusLocalization,2021.2.3,60.018552094606584,
,,,,,,,,midRight,13.0,3,ch1Sound_localizationTask.wav,13.0,"(1142, 878)","(182, -202)",190,-338,,,,,,,,,,,,,7,1,50,5,,,,,,,,,,,,,,,,,,,,,,,,,,,,,,,,,,,,,,,,1766.4820813940005,None,,,1769.4986607789997,None,2,3.9833785239989083,1769.4986607789997,None,,,,,,,1767.48224313,None,1767.665559721001,1767.6822958330013,104,001,2023_May_23_1726,SpeechDraft1Carolyn_lessNoise_PlusLocalization,2021.2.3,60.018552094606584,
,,,,,,,,midRight,13.0,3,ch1Sound_localizationTask.wav,13.0,"(1142, 878)","(182, -202)",190,-338,,,,,,,,,,,,,7,2,51,5,,,,,,,,,,,,,,,,,,,,,,,,,,,,,,,,,,,,,,,,1773.4989503840006,None,,,1776.5152625210012,None,1.9989417989417988,1.2316887920005684,1776.5152625210012,None,,,,,,,1774.4989291670008,None,1774.6822919820006,1774.6988561390008,104,001,2023_May_23_1726,SpeechDraft1Carolyn_lessNoise_PlusLocalization,2021.2.3,60.018552094606584,
,,,,,,,,nearRight,6.5,0,ch1Sound_localizationTask.wav,6.5,"(1047, 878)","(87, -202)",95,-338,,,,,,,,,,,,,7,3,52,4,,,,,,,,,,,,,,,,,,,,,,,,,,,,,,,,,,,,,,,,1777.748923651001,None,,,1780.7653336920011,None,2,0.9829718660002982,1780.7653336920011,None,,,,,,,1778.74873553,None,1778.932259968,1778.9489159309996,104,001,2023_May_23_1726,SpeechDraft1Carolyn_lessNoise_PlusLocalization,2021.2.3,60.018552094606584,
,,,,,,,,nearLeft,-6.5,1,ch1Sound_localizationTask.wav,-6.5,"(857, 878)","(-103,-202)",-95,-338,,,,,,,,,,,,,7,4,53,2,,,,,,,,,,,,,,,,,,,,,,,,,,,,,,,,,,,,,,,,1781.749190773,None,,,1784.7652839860002,None,1,4.031888905001324,1784.7652839860002,None,,,,,,,1782.7488877369997,None,1782.9322137239997,1782.9490305399995,104,001,2023_May_23_1726,SpeechDraft1Carolyn_lessNoise_PlusLocalization,2021.2.3,60.018552094606584,
,,,,,,,,midRight,13.0,3,ch1Sound_localizationTask.wav,13.0,"(1142, 878)","(182, -202)",190,-338,,,,,,,,,,,,,7,5,54,5,,,,,,,,,,,,,,,,,,,,,,,,,,,,,,,,,,,,,,,,1788.7989464260008,None,,,1791.8154641500005,None,1.9994708994708996,6.216112893000172,1791.8154641500005,None,,,,,,,1789.7988427569999,None,1789.9822050010007,1789.9989029139997,104,001,2023_May_23_1726,SpeechDraft1Carolyn_lessNoise_PlusLocalization,2021.2.3,60.018552094606584,
,,,,,,,,midRight,13.0,3,ch1Sound_localizationTask.wav,13.0,"(1142, 878)","(182, -202)",190,-338,,,,,,,,,,,,,7,6,55,5,,,,,,,,,,,,,,,,,,,,,,,,,,,,,,,,,,,,,,,,1798.033065476,None,,,1801.0486087930003,None,1.9984126984126984,1.4159413679990394,1801.0486087930003,None,,,,,,,1799.032183221001,None,1799.2155162480012,1799.2322412410012,104,001,2023_May_23_1726,SpeechDraft1Carolyn_lessNoise_PlusLocalization,2021.2.3,60.018552094606584,
