Audio_Only_Files,Video_Files,Original_Word_List,noiseLevelCode,conditionCodes,noiseLevelFile1,noiseLevelFile2,InstrTextVar,targetSpeakerName,targetSpeakerEccen,targetSpkrChannel,targetSpkrSound,targetVisualDegrees,visStimLoc,visStimLoc2,visStimW,visStimH,practiceTrials.thisRepN,practiceTrials.thisTrialN,practiceTrials.thisN,practiceTrials.thisIndex,trials.thisRepN,trials.thisTrialN,trials.thisN,trials.thisIndex,audLocalLoop.thisRepN,audLocalLoop.thisTrialN,audLocalLoop.thisN,audLocalLoop.thisIndex,visualLocalLoop.thisRepN,visualLocalLoop.thisTrialN,visualLocalLoop.thisN,visualLocalLoop.thisIndex,letsGoAlready.keys,letsGoAlready.rt,letsGoAlready.started,letsGoAlready.stopped,text_2.started,text_2.stopped,text_3.started,text_3.stopped,key_resp_2.keys,key_resp_2.rt,key_resp_2.started,key_resp_2.stopped,text_5.started,text_5.stopped,fixCross.started,fixCross.stopped,fixCross2.started,fixCross2.stopped,answerPrompt.started,answerPrompt.stopped,getAnswer.text,getAnswer.started,getAnswer.stopped,goToNext.keys,goToNext.rt,goToNext.started,goToNext.stopped,stretchBreakTxrt.started,stretchBreakTxrt.stopped,key_resp_3.keys,key_resp_3.rt,key_resp_3.started,key_resp_3.stopped,letsGoLocal.keys,letsGoLocal.rt,letsGoLocal.started,letsGoLocal.stopped,text_4.started,text_4.stopped,prepFixTxt.started,prepFixTxt.stopped,prepFixTxt_2.started,prepFixTxt_2.stopped,respPromptLocal.started,respPromptLocal.stopped,slider.response,slider.rt,slider.started,slider.stopped,letsGoLocal_2.keys,letsGoLocal_2.rt,letsGoLocal_2.started,letsGoLocal_2.stopped,text_7.started,text_7.stopped,prepFixTxt_3.started,prepFixTxt_3.stopped,grating.started,grating.stopped,exitTxt.started,exitTxt.stopped,key_resp.keys,key_resp.rt,key_resp.started,key_resp.stopped,participant,session,date,expName,psychopyVersion,frameRate,
,,,,,,,,,,,,,,,,,,,,,,,,,,,,,,,,,space,27.81506070800242,13.95974380899861,None,,,,,,,,,,,,,,,,,,,,,,,,,,,,,,,,,,,,,,,,,,,,,,,,,,,,,,,,,,,,,,105,001,2023_May_24_1208,SpeechDraft1Carolyn_lessNoise_PlusLocalization,2021.2.3,59.97132806745184,
,,,,,,,,,,,,,,,,,,,,,,,,,,,,,,,,,,,,,13.95974380899861,None,41.89390808000462,None,space,5.914381757989759,42.076357041994925,None,,,,,,,,,,,,,,,,,,,,,,,,,,,,,,,,,,,,,,,,,,,,,,,,,,,,,,105,001,2023_May_24_1208,SpeechDraft1Carolyn_lessNoise_PlusLocalization,2021.2.3,59.97132806745184,
ash.wav,ash.mpg,ash,1,A,Pink_Noise_1_1.wav,Pink_Noise_1_2.wav,"This is an example of an

AUDIO trial",,,,,,,,,,0,0,0,0,,,,,,,,,,,,,,,,,,,,,,,,,48.042835457992624,None,49.02632125899254,None,52.25951910899312,None,53.643179160004365,None,ash ,53.643179160004365,None,return,12.160200968995923,53.726493819995085,None,,,,,,,,,,,,,,,,,,,,,,,,,,,,,,,,,,,,,,,105,001,2023_May_24_1208,SpeechDraft1Carolyn_lessNoise_PlusLocalization,2021.2.3,59.97132806745184,
ash.wav,ash.mpg,ash,1,AV,Pink_Noise_1_1.wav,Pink_Noise_1_2.wav,"This is an example of an

AUDIO + VIDEO  trial",,,,,,,,,,0,1,1,1,,,,,,,,,,,,,,,,,,,,,,,,,65.92612438199285,None,66.92642228699697,None,68.41026862000581,None,69.79312242299784,None,ash,69.79312242299784,None,return,15.098334013993735,69.87643970899808,None,,,,,,,,,,,,,,,,,,,,,,,,,,,,,,,,,,,,,,,105,001,2023_May_24_1208,SpeechDraft1Carolyn_lessNoise_PlusLocalization,2021.2.3,59.97132806745184,
,,,,,,,,,,,,,,,,,,,,,,,,,,,,,,,,,,,,,,,,,,,,,,,,,,,,,,,,,,,,85.00948671999504,None,space,19.69411865300208,85.17660906500532,None,,,,,,,,,,,,,,,,,,,,,,,,,,,,,,,,,105,001,2023_May_24_1208,SpeechDraft1Carolyn_lessNoise_PlusLocalization,2021.2.3,59.97132806745184,
ease.wav,ease.mpg,ease,1,AV,Pink_Noise_1_1.wav,Pink_Noise_1_2.wav,,,,,,,,,,,,,,,0,0,0,100,,,,,,,,,,,,,,,,,,,,,,,104.92617412400432,None,106.40955785699771,None,107.79339156100468,None,"ease
",107.79339156100468,None,return,6.650135727002635,107.87659889800125,None,,,,,,,,,,,,,,,,,,,,,,,,,,,,,,,,,,,,,,,105,001,2023_May_24_1208,SpeechDraft1Carolyn_lessNoise_PlusLocalization,2021.2.3,59.97132806745184,
blush.wav,blush.mpg,blush,4,A,Pink_Noise_4_1.wav,Pink_Noise_4_2.wav,,,,,,,,,,,,,,,0,1,1,18,,,,,,,,,,,,,,,,,,,,,,,114.55989715800388,None,116.0594441830035,None,117.44328074100486,None,wash,117.44328074100486,None,return,4.4081244800036075,117.52657666199957,None,,,,,,,,,,,,,,,,,,,,,,,,,,,,,,,,,,,,,,,105,001,2023_May_24_1208,SpeechDraft1Carolyn_lessNoise_PlusLocalization,2021.2.3,59.97132806745184,
bay.wav,bay.mpg,bay,3,AV,Pink_Noise_3_1.wav,Pink_Noise_3_2.wav,,,,,,,,,,,,,,,0,2,2,98,,,,,,,,,,,,,,,,,,,,,,,121.95989438799734,None,123.45975667900348,None,124.84350730000006,None,beg,124.84350730000006,None,return,6.672262175998185,124.92654769300134,None,,,,,,,,,,,,,,,,,,,,,,,,,,,,,,,,,,,,,,,105,001,2023_May_24_1208,SpeechDraft1Carolyn_lessNoise_PlusLocalization,2021.2.3,59.97132806745184,
dash.wav,dash.mpg,dash,6,A,Pink_Noise_6_1.wav,Pink_Noise_6_2.wav,,,,,,,,,,,,,,,0,3,3,34,,,,,,,,,,,,,,,,,,,,,,,131.62635033899278,None,133.1262976069993,None,134.51006339100422,None,ash,134.51006339100422,None,return,2.677452104006079,134.59326715700445,None,,,,,,,,,,,,,,,,,,,,,,,,,,,,,,,,,,,,,,,105,001,2023_May_24_1208,SpeechDraft1Carolyn_lessNoise_PlusLocalization,2021.2.3,59.97132806745184,
roast.wav,roast.mpg,roast,4,A,Pink_Noise_4_1.wav,Pink_Noise_4_2.wav,,,,,,,,,,,,,,,0,4,4,51,,,,,,,,,,,,,,,,,,,,,,,137.29330572999606,None,138.77757096200367,None,140.1599702490057,None,close,140.1599702490057,None,return,8.579515215009451,140.24325697799213,None,,,,,,,,,,,,,,,,,,,,,,,,,,,,,,,,,,,,,,,105,001,2023_May_24_1208,SpeechDraft1Carolyn_lessNoise_PlusLocalization,2021.2.3,59.97132806745184,
fool.wav,fool.mpg,fool,5,A,Pink_Noise_5_1.wav,Pink_Noise_5_2.wav,,,,,,,,,,,,,,,0,5,5,21,,,,,,,,,,,,,,,,,,,,,,,148.84401605199673,None,150.34291141199355,None,151.72671722699306,None,"wash
",151.72671722699306,None,return,6.2526555950025795,151.80998191499384,None,,,,,,,,,,,,,,,,,,,,,,,,,,,,,,,,,,,,,,,105,001,2023_May_24_1208,SpeechDraft1Carolyn_lessNoise_PlusLocalization,2021.2.3,59.97132806745184,
shock.wav,shock.mpg,shock,6,AV,Pink_Noise_6_1.wav,Pink_Noise_6_2.wav,,,,,,,,,,,,,,,0,6,6,74,,,,,,,,,,,,,,,,,,,,,,,158.0933475369966,None,159.59307148899825,None,160.97670126300363,None,jog,160.97670126300363,None,return,6.242575046999264,161.06014169000264,None,,,,,,,,,,,,,,,,,,,,,,,,,,,,,,,,,,,,,,,105,001,2023_May_24_1208,SpeechDraft1Carolyn_lessNoise_PlusLocalization,2021.2.3,59.97132806745184,
client.wav,client.mpg,client,5,A,Pink_Noise_5_1.wav,Pink_Noise_5_2.wav,,,,,,,,,,,,,,,0,7,7,5,,,,,,,,,,,,,,,,,,,,,,,167.32660758700513,None,168.82623302799766,None,170.20993963000365,None,"planned
",170.20993963000365,None,return,8.169298075998086,170.29342466899834,None,,,,,,,,,,,,,,,,,,,,,,,,,,,,,,,,,,,,,,,105,001,2023_May_24_1208,SpeechDraft1Carolyn_lessNoise_PlusLocalization,2021.2.3,59.97132806745184,
blame.wav,blame.mpg,blame,2,A,Pink_Noise_2_1.wav,Pink_Noise_2_2.wav,,,,,,,,,,,,,,,0,8,8,52,,,,,,,,,,,,,,,,,,,,,,,178.49333163599658,None,179.99293555399345,None,181.37652658300067,None,lane,181.37652658300067,None,return,6.322942526006955,181.45986139400338,None,,,,,,,,,,,,,,,,,,,,,,,,,,,,,,,,,,,,,,,105,001,2023_May_24_1208,SpeechDraft1Carolyn_lessNoise_PlusLocalization,2021.2.3,59.97132806745184,
cramp.wav,cramp.mpg,cramp,4,A,Pink_Noise_4_1.wav,Pink_Noise_4_2.wav,,,,,,,,,,,,,,,0,9,9,7,,,,,,,,,,,,,,,,,,,,,,,187.80994475500484,None,189.31096378499933,None,190.69326744599675,None,cram,190.69326744599675,None,return,3.4382505500107072,190.7764553159941,None,,,,,,,,,,,,,,,,,,,,,,,,,,,,,,,,,,,,,,,105,001,2023_May_24_1208,SpeechDraft1Carolyn_lessNoise_PlusLocalization,2021.2.3,59.97132806745184,
chew.wav,chew.mpg,chew,6,AV,Pink_Noise_6_1.wav,Pink_Noise_6_2.wav,,,,,,,,,,,,,,,0,10,10,106,,,,,,,,,,,,,,,,,,,,,,,194.24331441799586,None,195.7596988389996,None,197.1433484040026,None,chew,197.1433484040026,None,return,13.996123117001844,197.22664055100176,None,,,,,,,,,,,,,,,,,,,,,,,,,,,,,,,,,,,,,,,105,001,2023_May_24_1208,SpeechDraft1Carolyn_lessNoise_PlusLocalization,2021.2.3,59.97132806745184,
glow.wav,glow.mpg,glow,2,A,Pink_Noise_2_1.wav,Pink_Noise_2_2.wav,,,,,,,,,,,,,,,0,11,11,14,,,,,,,,,,,,,,,,,,,,,,,211.2432708809938,None,212.7430279389955,None,214.12654303100135,None,glow,214.12654303100135,None,return,3.1087638229946606,214.20998153499386,None,,,,,,,,,,,,,,,,,,,,,,,,,,,,,,,,,,,,,,,105,001,2023_May_24_1208,SpeechDraft1Carolyn_lessNoise_PlusLocalization,2021.2.3,59.97132806745184,
cycle.wav,cycle.mpg,cycle,1,AV,Pink_Noise_1_1.wav,Pink_Noise_1_2.wav,,,,,,,,,,,,,,,0,12,12,60,,,,,,,,,,,,,,,,,,,,,,,217.34343627700582,None,218.8432081820065,None,220.22692236800503,None,cycle,220.22692236800503,None,return,4.192575641995063,220.31017206299293,None,,,,,,,,,,,,,,,,,,,,,,,,,,,,,,,,,,,,,,,105,001,2023_May_24_1208,SpeechDraft1Carolyn_lessNoise_PlusLocalization,2021.2.3,59.97132806745184,
booth.wav,booth.mpg,booth,2,AV,Pink_Noise_2_1.wav,Pink_Noise_2_2.wav,,,,,,,,,,,,,,,0,13,13,82,,,,,,,,,,,,,,,,,,,,,,,224.5265683470061,None,226.02644291399338,None,227.41012876600143,None,boot,227.41012876600143,None,return,6.009319709002739,227.49336258099356,None,,,,,,,,,,,,,,,,,,,,,,,,,,,,,,,,,,,,,,,105,001,2023_May_24_1208,SpeechDraft1Carolyn_lessNoise_PlusLocalization,2021.2.3,59.97132806745184,
guide.wav,guide.mpg,guide,1,A,Pink_Noise_1_1.wav,Pink_Noise_1_2.wav,,,,,,,,,,,,,,,0,14,14,26,,,,,,,,,,,,,,,,,,,,,,,233.5266690129938,None,235.0264272350032,None,236.4102096610004,None,"guide
",236.4102096610004,None,return,4.369309906993294,236.49339615200006,None,,,,,,,,,,,,,,,,,,,,,,,,,,,,,,,,,,,,,,,105,001,2023_May_24_1208,SpeechDraft1Carolyn_lessNoise_PlusLocalization,2021.2.3,59.97132806745184,
claim.wav,claim.mpg,claim,2,A,Pink_Noise_2_1.wav,Pink_Noise_2_2.wav,,,,,,,,,,,,,,,0,15,15,36,,,,,,,,,,,,,,,,,,,,,,,240.8934439059958,None,242.39313320499787,None,243.77676245100156,None,claim,243.77676245100156,None,return,4.682548518991098,243.86020554100105,None,,,,,,,,,,,,,,,,,,,,,,,,,,,,,,,,,,,,,,,105,001,2023_May_24_1208,SpeechDraft1Carolyn_lessNoise_PlusLocalization,2021.2.3,59.97132806745184,
base.wav,base.mpg,base,4,A,Pink_Noise_4_1.wav,Pink_Noise_4_2.wav,,,,,,,,,,,,,,,0,16,16,59,,,,,,,,,,,,,,,,,,,,,,,248.55995767799322,None,250.05971972599218,None,251.44340823699895,None,ease,251.44340823699895,None,return,3.792139725992456,251.52660301899596,None,,,,,,,,,,,,,,,,,,,,,,,,,,,,,,,,,,,,,,,105,001,2023_May_24_1208,SpeechDraft1Carolyn_lessNoise_PlusLocalization,2021.2.3,59.97132806745184,
creep.wav,creep.mpg,creep,3,A,Pink_Noise_3_1.wav,Pink_Noise_3_2.wav,,,,,,,,,,,,,,,0,17,17,27,,,,,,,,,,,,,,,,,,,,,,,255.34366100499756,None,256.84312348699314,None,258.2265985849954,None,me,258.2265985849954,None,return,9.41674772099941,258.3099535259971,None,,,,,,,,,,,,,,,,,,,,,,,,,,,,,,,,,,,,,,,105,001,2023_May_24_1208,SpeechDraft1Carolyn_lessNoise_PlusLocalization,2021.2.3,59.97132806745184,
clock.wav,clock.mpg,clock,6,AV,Pink_Noise_6_1.wav,Pink_Noise_6_2.wav,,,,,,,,,,,,,,,0,18,18,78,,,,,,,,,,,,,,,,,,,,,,,267.74345175399503,None,269.24312383700453,None,270.6268907210033,None,gloss,270.6268907210033,None,return,14.976545925004757,270.71019830400473,None,,,,,,,,,,,,,,,,,,,,,,,,,,,,,,,,,,,,,,,105,001,2023_May_24_1208,SpeechDraft1Carolyn_lessNoise_PlusLocalization,2021.2.3,59.97132806745184,
grape.wav,grape.mpg,grape,2,A,Pink_Noise_2_1.wav,Pink_Noise_2_2.wav,,,,,,,,,,,,,,,0,19,19,30,,,,,,,,,,,,,,,,,,,,,,,285.71019434099435,None,287.20971561799524,None,288.5935708890029,None,grape,288.5935708890029,None,return,3.6740208880073624,288.67677700700006,None,,,,,,,,,,,,,,,,,,,,,,,,,,,,,,,,,,,,,,,105,001,2023_May_24_1208,SpeechDraft1Carolyn_lessNoise_PlusLocalization,2021.2.3,59.97132806745184,
guilt.wav,guilt.mpg,guilt,2,AV,Pink_Noise_2_1.wav,Pink_Noise_2_2.wav,,,,,,,,,,,,,,,0,20,20,66,,,,,,,,,,,,,,,,,,,,,,,292.37680963400635,None,293.87643409399607,None,295.26007574700634,None,guilt,295.26007574700634,None,return,6.679355533997295,295.34338043199386,None,,,,,,,,,,,,,,,,,,,,,,,,,,,,,,,,,,,,,,,105,001,2023_May_24_1208,SpeechDraft1Carolyn_lessNoise_PlusLocalization,2021.2.3,59.97132806745184,
thief.wav,thief.mpg,thief,5,A,Pink_Noise_5_1.wav,Pink_Noise_5_2.wav,,,,,,,,,,,,,,,0,21,21,12,,,,,,,,,,,,,,,,,,,,,,,302.0433994990017,None,303.54326098899764,None,304.9269845630042,None,see,304.9269845630042,None,return,5.820525044997339,305.0101774030045,None,,,,,,,,,,,,,,,,,,,,,,,,,,,,,,,,,,,,,,,105,001,2023_May_24_1208,SpeechDraft1Carolyn_lessNoise_PlusLocalization,2021.2.3,59.97132806745184,
toast.wav,toast.mpg,toast,1,A,Pink_Noise_1_1.wav,Pink_Noise_1_2.wav,,,,,,,,,,,,,,,0,22,22,37,,,,,,,,,,,,,,,,,,,,,,,310.8601335699932,None,312.36003090000304,None,313.743419749997,None,"toast
",313.743419749997,None,return,3.8038524799922016,313.8268546850013,None,,,,,,,,,,,,,,,,,,,,,,,,,,,,,,,,,,,,,,,105,001,2023_May_24_1208,SpeechDraft1Carolyn_lessNoise_PlusLocalization,2021.2.3,59.97132806745184,
ask.wav,ask.mpg,ask,4,AV,Pink_Noise_4_1.wav,Pink_Noise_4_2.wav,,,,,,,,,,,,,,,0,23,23,109,,,,,,,,,,,,,,,,,,,,,,,317.6601173509989,None,319.15983195799345,None,320.5433206010057,None,ask,320.5433206010057,None,return,4.132007007996435,320.6268023290031,None,,,,,,,,,,,,,,,,,,,,,,,,,,,,,,,,,,,,,,,105,001,2023_May_24_1208,SpeechDraft1Carolyn_lessNoise_PlusLocalization,2021.2.3,59.97132806745184,
nine.wav,nine.mpg,nine,1,A,Pink_Noise_1_1.wav,Pink_Noise_1_2.wav,,,,,,,,,,,,,,,0,24,24,55,,,,,,,,,,,,,,,,,,,,,,,324.7767843680049,None,326.2765182120056,None,327.66030814900296,None,nine,327.66030814900296,None,return,8.223348360988894,327.743465809006,None,,,,,,,,,,,,,,,,,,,,,,,,,,,,,,,,,,,,,,,105,001,2023_May_24_1208,SpeechDraft1Carolyn_lessNoise_PlusLocalization,2021.2.3,59.97132806745184,
boil.wav,boil.mpg,boil,6,A,Pink_Noise_6_1.wav,Pink_Noise_6_2.wav,,,,,,,,,,,,,,,0,25,25,11,,,,,,,,,,,,,,,,,,,,,,,335.9934945010027,None,337.49519614600285,None,338.87684685899876,None,float,338.87684685899876,None,return,3.998773710001842,338.96019740999327,None,,,,,,,,,,,,,,,,,,,,,,,,,,,,,,,,,,,,,,,105,001,2023_May_24_1208,SpeechDraft1Carolyn_lessNoise_PlusLocalization,2021.2.3,59.97132806745184,
creek.wav,creek.mpg,creek,5,AV,Pink_Noise_5_1.wav,Pink_Noise_5_2.wav,,,,,,,,,,,,,,,0,26,26,89,,,,,,,,,,,,,,,,,,,,,,,342.9768869730033,None,344.4766299500043,None,345.86025673599215,None,chewy,345.86025673599215,None,return,6.79112041600456,345.94359611099935,None,,,,,,,,,,,,,,,,,,,,,,,,,,,,,,,,,,,,,,,105,001,2023_May_24_1208,SpeechDraft1Carolyn_lessNoise_PlusLocalization,2021.2.3,59.97132806745184,
brain.wav,brain.mpg,brain,5,A,Pink_Noise_5_1.wav,Pink_Noise_5_2.wav,,,,,,,,,,,,,,,0,27,27,48,,,,,,,,,,,,,,,,,,,,,,,352.7601266230049,None,354.2598825919995,None,355.64359752699966,None,bird,355.64359752699966,None,return,4.543833301999257,355.7268711409997,None,,,,,,,,,,,,,,,,,,,,,,,,,,,,,,,,,,,,,,,105,001,2023_May_24_1208,SpeechDraft1Carolyn_lessNoise_PlusLocalization,2021.2.3,59.97132806745184,
drill.wav,drill.mpg,drill,3,AV,Pink_Noise_3_1.wav,Pink_Noise_3_2.wav,,,,,,,,,,,,,,,0,28,28,119,,,,,,,,,,,,,,,,,,,,,,,360.2934666109941,None,361.7933780099993,None,363.17690053599654,None,drill,363.17690053599654,None,return,4.194503959995927,363.2602157390065,None,,,,,,,,,,,,,,,,,,,,,,,,,,,,,,,,,,,,,,,105,001,2023_May_24_1208,SpeechDraft1Carolyn_lessNoise_PlusLocalization,2021.2.3,59.97132806745184,
fake.wav,fake.mpg,fake,4,AV,Pink_Noise_4_1.wav,Pink_Noise_4_2.wav,,,,,,,,,,,,,,,0,29,29,72,,,,,,,,,,,,,,,,,,,,,,,367.47697349099326,None,368.9767545939976,None,370.36012915699393,None,fake,370.36012915699393,None,return,7.211057839987916,370.44365307700355,None,,,,,,,,,,,,,,,,,,,,,,,,,,,,,,,,,,,,,,,105,001,2023_May_24_1208,SpeechDraft1Carolyn_lessNoise_PlusLocalization,2021.2.3,59.97132806745184,
three.wav,three.mpg,three,6,AV,Pink_Noise_6_1.wav,Pink_Noise_6_2.wav,,,,,,,,,,,,,,,0,30,30,101,,,,,,,,,,,,,,,,,,,,,,,377.6768803540035,None,379.1767391129979,None,380.5602275519923,None,three,380.5602275519923,None,return,7.147050694999052,380.6436714540032,None,,,,,,,,,,,,,,,,,,,,,,,,,,,,,,,,,,,,,,,105,001,2023_May_24_1208,SpeechDraft1Carolyn_lessNoise_PlusLocalization,2021.2.3,59.97132806745184,
die.wav,die.mpg,die,3,AV,Pink_Noise_3_1.wav,Pink_Noise_3_2.wav,,,,,,,,,,,,,,,0,31,31,73,,,,,,,,,,,,,,,,,,,,,,,387.81033203699917,None,389.3099329179968,None,390.6935236470017,None,"die
",390.6935236470017,None,return,7.917828684003325,390.7768895839981,None,,,,,,,,,,,,,,,,,,,,,,,,,,,,,,,,,,,,,,,105,001,2023_May_24_1208,SpeechDraft1Carolyn_lessNoise_PlusLocalization,2021.2.3,59.97132806745184,
dine.wav,dine.mpg,dine,2,AV,Pink_Noise_2_1.wav,Pink_Noise_2_2.wav,,,,,,,,,,,,,,,0,32,32,95,,,,,,,,,,,,,,,,,,,,,,,398.72692785000254,None,400.2266112840007,None,401.6102481029957,None,"dime
",401.6102481029957,None,return,4.5691719009919325,401.69355693800026,None,,,,,,,,,,,,,,,,,,,,,,,,,,,,,,,,,,,,,,,105,001,2023_May_24_1208,SpeechDraft1Carolyn_lessNoise_PlusLocalization,2021.2.3,59.97132806745184,
bite.wav,bite.mpg,bite,4,AV,Pink_Noise_4_1.wav,Pink_Noise_4_2.wav,,,,,,,,,,,,,,,0,33,33,75,,,,,,,,,,,,,,,,,,,,,,,406.2936372660042,None,407.8103623640054,None,409.193666000996,None,"bite
",409.193666000996,None,return,5.585674037996796,409.2770295210066,None,,,,,,,,,,,,,,,,,,,,,,,,,,,,,,,,,,,,,,,105,001,2023_May_24_1208,SpeechDraft1Carolyn_lessNoise_PlusLocalization,2021.2.3,59.97132806745184,
bush.wav,bush.mpg,bush,2,AV,Pink_Noise_2_1.wav,Pink_Noise_2_2.wav,,,,,,,,,,,,,,,0,34,34,63,,,,,,,,,,,,,,,,,,,,,,,414.8935777979932,None,416.3935554710042,None,417.77687866000633,None,"brush
",417.77687866000633,None,return,4.618355622005765,417.8603736819932,None,,,,,,,,,,,,,,,,,,,,,,,,,,,,,,,,,,,,,,,105,001,2023_May_24_1208,SpeechDraft1Carolyn_lessNoise_PlusLocalization,2021.2.3,59.97132806745184,
grave.wav,grave.mpg,grave,5,AV,Pink_Noise_5_1.wav,Pink_Noise_5_2.wav,,,,,,,,,,,,,,,0,35,35,84,,,,,,,,,,,,,,,,,,,,,,,422.5102768140059,None,424.00993612999446,None,425.3934911679971,None,grave,425.3934911679971,None,return,4.481754203996388,425.4770232699957,None,,,,,,,,,,,,,,,,,,,,,,,,,,,,,,,,,,,,,,,105,001,2023_May_24_1208,SpeechDraft1Carolyn_lessNoise_PlusLocalization,2021.2.3,59.97132806745184,
bath.wav,bath.mpg,bath,5,AV,Pink_Noise_5_1.wav,Pink_Noise_5_2.wav,,,,,,,,,,,,,,,0,36,36,117,,,,,,,,,,,,,,,,,,,,,,,429.97697332799726,None,431.4934650119976,None,432.8769134269969,None,bath,432.8769134269969,None,return,4.2782965790102025,432.9604181259929,None,,,,,,,,,,,,,,,,,,,,,,,,,,,,,,,,,,,,,,,105,001,2023_May_24_1208,SpeechDraft1Carolyn_lessNoise_PlusLocalization,2021.2.3,59.97132806745184,
dirt.wav,dirt.mpg,dirt,1,AV,Pink_Noise_1_1.wav,Pink_Noise_1_2.wav,,,,,,,,,,,,,,,0,37,37,111,,,,,,,,,,,,,,,,,,,,,,,437.2603509949986,None,438.7599539119983,None,440.1435558779922,None,"dirt
",440.1435558779922,None,return,3.483743089993368,440.2269550609926,None,,,,,,,,,,,,,,,,,,,,,,,,,,,,,,,,,,,,,,,105,001,2023_May_24_1208,SpeechDraft1Carolyn_lessNoise_PlusLocalization,2021.2.3,59.97132806745184,
folk.wav,folk.mpg,folk,6,A,Pink_Noise_6_1.wav,Pink_Noise_6_2.wav,,,,,,,,,,,,,,,0,38,38,56,,,,,,,,,,,,,,,,,,,,,,,443.74378391800565,None,445.2433921100019,None,446.62700574200426,None,"grape
",446.62700574200426,None,return,4.536395402989001,446.71031434999895,None,,,,,,,,,,,,,,,,,,,,,,,,,,,,,,,,,,,,,,,105,001,2023_May_24_1208,SpeechDraft1Carolyn_lessNoise_PlusLocalization,2021.2.3,59.97132806745184,
gem.wav,gem.mpg,gem,3,A,Pink_Noise_3_1.wav,Pink_Noise_3_2.wav,,,,,,,,,,,,,,,0,39,39,16,,,,,,,,,,,,,,,,,,,,,,,451.27708543400513,None,452.77676639100537,None,454.1603412330005,None,gem,454.1603412330005,None,return,4.091118577998714,454.2436876779975,None,,,,,,,,,,,,,,,,,,,,,,,,,,,,,,,,,,,,,,,105,001,2023_May_24_1208,SpeechDraft1Carolyn_lessNoise_PlusLocalization,2021.2.3,59.97132806745184,
bold.wav,bold.mpg,bold,5,A,Pink_Noise_5_1.wav,Pink_Noise_5_2.wav,,,,,,,,,,,,,,,0,40,40,45,,,,,,,,,,,,,,,,,,,,,,,458.36031678099243,None,459.876915144996,None,461.2603149200004,None,bowl,461.2603149200004,None,return,4.046257356007118,461.34448402299313,None,,,,,,,,,,,,,,,,,,,,,,,,,,,,,,,,,,,,,,,105,001,2023_May_24_1208,SpeechDraft1Carolyn_lessNoise_PlusLocalization,2021.2.3,59.97132806745184,
earn.wav,earn.mpg,earn,6,A,Pink_Noise_6_1.wav,Pink_Noise_6_2.wav,,,,,,,,,,,,,,,0,41,41,46,,,,,,,,,,,,,,,,,,,,,,,465.41045533800207,None,466.91019610599324,None,468.29362832299375,None,dime,468.29362832299375,None,return,9.181865656995797,468.3769759830029,None,,,,,,,,,,,,,,,,,,,,,,,,,,,,,,,,,,,,,,,105,001,2023_May_24_1208,SpeechDraft1Carolyn_lessNoise_PlusLocalization,2021.2.3,59.97132806745184,
deck.wav,deck.mpg,deck,6,A,Pink_Noise_6_1.wav,Pink_Noise_6_2.wav,,,,,,,,,,,,,,,0,42,42,35,,,,,,,,,,,,,,,,,,,,,,,477.57713284700003,None,479.07673606699973,None,480.4605986940005,None,love,480.4605986940005,None,return,4.174970007996308,480.54378098700545,None,,,,,,,,,,,,,,,,,,,,,,,,,,,,,,,,,,,,,,,105,001,2023_May_24_1208,SpeechDraft1Carolyn_lessNoise_PlusLocalization,2021.2.3,59.97132806745184,
flood.wav,flood.mpg,flood,6,AV,Pink_Noise_6_1.wav,Pink_Noise_6_2.wav,,,,,,,,,,,,,,,0,43,43,90,,,,,,,,,,,,,,,,,,,,,,,484.7438857149973,None,486.24356637899473,None,487.6270283000049,None,fun,487.6270283000049,None,return,3.2081595920026302,487.7105399419961,None,,,,,,,,,,,,,,,,,,,,,,,,,,,,,,,,,,,,,,,105,001,2023_May_24_1208,SpeechDraft1Carolyn_lessNoise_PlusLocalization,2021.2.3,59.97132806745184,
cheat.wav,cheat.mpg,cheat,6,AV,Pink_Noise_6_1.wav,Pink_Noise_6_2.wav,,,,,,,,,,,,,,,0,44,44,97,,,,,,,,,,,,,,,,,,,,,,,490.94356023900036,None,492.4448479099956,None,493.82713369200064,None,cheese,493.82713369200064,None,return,4.928203682997264,493.91049142299744,None,,,,,,,,,,,,,,,,,,,,,,,,,,,,,,,,,,,,,,,105,001,2023_May_24_1208,SpeechDraft1Carolyn_lessNoise_PlusLocalization,2021.2.3,59.97132806745184,
fluff.wav,fluff.mpg,fluff,5,AV,Pink_Noise_5_1.wav,Pink_Noise_5_2.wav,,,,,,,,,,,,,,,0,45,45,92,,,,,,,,,,,,,,,,,,,,,,,498.8603607289988,None,500.360059543993,None,501.74382248900656,None,fluff,501.74382248900656,None,return,9.163635538992821,501.8272118879977,None,,,,,,,,,,,,,,,,,,,,,,,,,,,,,,,,,,,,,,,105,001,2023_May_24_1208,SpeechDraft1Carolyn_lessNoise_PlusLocalization,2021.2.3,59.97132806745184,
beam.wav,beam.mpg,beam,6,A,Pink_Noise_6_1.wav,Pink_Noise_6_2.wav,,,,,,,,,,,,,,,0,46,46,49,,,,,,,,,,,,,,,,,,,,,,,511.01055287699273,None,512.5102733249951,None,513.8939273089927,None,"see
",513.8939273089927,None,return,7.485605583991855,513.9771022060013,None,,,,,,,,,,,,,,,,,,,,,,,,,,,,,,,,,,,,,,,105,001,2023_May_24_1208,SpeechDraft1Carolyn_lessNoise_PlusLocalization,2021.2.3,59.97132806745184,
fifth.wav,fifth.mpg,fifth,5,A,Pink_Noise_5_1.wav,Pink_Noise_5_2.wav,,,,,,,,,,,,,,,0,47,47,42,,,,,,,,,,,,,,,,,,,,,,,521.4938168990047,None,522.995200076999,None,524.3771940129955,None,grave,524.3771940129955,None,return,4.562324104990694,524.4604344050022,None,,,,,,,,,,,,,,,,,,,,,,,,,,,,,,,,,,,,,,,105,001,2023_May_24_1208,SpeechDraft1Carolyn_lessNoise_PlusLocalization,2021.2.3,59.97132806745184,
live.wav,live.mpg,live,5,A,Pink_Noise_5_1.wav,Pink_Noise_5_2.wav,,,,,,,,,,,,,,,0,48,48,47,,,,,,,,,,,,,,,,,,,,,,,529.0437609420042,None,530.5437072689965,None,531.9272023509984,None,light,531.9272023509984,None,return,4.964289093011757,532.0104272809986,None,,,,,,,,,,,,,,,,,,,,,,,,,,,,,,,,,,,,,,,105,001,2023_May_24_1208,SpeechDraft1Carolyn_lessNoise_PlusLocalization,2021.2.3,59.97132806745184,
bank.wav,bank.mpg,bank,4,AV,Pink_Noise_4_1.wav,Pink_Noise_4_2.wav,,,,,,,,,,,,,,,0,49,49,71,,,,,,,,,,,,,,,,,,,,,,,536.9939552050055,None,538.4935234760051,None,539.8770859960059,None,bag,539.8770859960059,None,return,5.06223879699246,539.9604946740001,None,,,,,,,,,,,,,,,,,,,,,,,,,,,,,,,,,,,,,,,105,001,2023_May_24_1208,SpeechDraft1Carolyn_lessNoise_PlusLocalization,2021.2.3,59.97132806745184,
duke.wav,duke.mpg,duke,5,AV,Pink_Noise_5_1.wav,Pink_Noise_5_2.wav,,,,,,,,,,,,,,,0,50,50,80,,,,,,,,,,,,,,,,,,,,,,,545.0438262990065,None,546.5435876569973,None,547.9271948849928,None,"cute
",547.9271948849928,None,return,3.8840509010042297,548.0106551450008,None,,,,,,,,,,,,,,,,,,,,,,,,,,,,,,,,,,,,,,,105,001,2023_May_24_1208,SpeechDraft1Carolyn_lessNoise_PlusLocalization,2021.2.3,59.97132806745184,
snake.wav,snake.mpg,snake,4,A,Pink_Noise_4_1.wav,Pink_Noise_4_2.wav,,,,,,,,,,,,,,,0,51,51,31,,,,,,,,,,,,,,,,,,,,,,,551.9270575660048,None,553.4434440829937,None,554.8273299110006,None,skies,554.8273299110006,None,return,8.424317408003844,554.9104477810033,None,,,,,,,,,,,,,,,,,,,,,,,,,,,,,,,,,,,,,,,105,001,2023_May_24_1208,SpeechDraft1Carolyn_lessNoise_PlusLocalization,2021.2.3,59.97132806745184,
chow.wav,chow.mpg,chow,1,AV,Pink_Noise_1_1.wav,Pink_Noise_1_2.wav,,,,,,,,,,,,,,,0,52,52,83,,,,,,,,,,,,,,,,,,,,,,,563.3604331789975,None,564.860282980997,None,566.2439944569924,None,"chow
",566.2439944569924,None,return,5.183441948000109,566.327253149997,None,,,,,,,,,,,,,,,,,,,,,,,,,,,,,,,,,,,,,,,105,001,2023_May_24_1208,SpeechDraft1Carolyn_lessNoise_PlusLocalization,2021.2.3,59.97132806745184,
cent.wav,cent.mpg,cent,5,A,Pink_Noise_5_1.wav,Pink_Noise_5_2.wav,,,,,,,,,,,,,,,0,53,53,1,,,,,,,,,,,,,,,,,,,,,,,571.5438238030038,None,573.0438092020049,None,574.4272372599953,None,first,574.4272372599953,None,return,6.264043273986317,574.5106521190028,None,,,,,,,,,,,,,,,,,,,,,,,,,,,,,,,,,,,,,,,105,001,2023_May_24_1208,SpeechDraft1Carolyn_lessNoise_PlusLocalization,2021.2.3,59.97132806745184,
doll.wav,doll.mpg,doll,2,AV,Pink_Noise_2_1.wav,Pink_Noise_2_2.wav,,,,,,,,,,,,,,,0,54,54,99,,,,,,,,,,,,,,,,,,,,,,,580.7939296929981,None,582.3102759530011,None,583.6938535259978,None,doll,583.6938535259978,None,return,4.277629068994429,583.7771040880034,None,,,,,,,,,,,,,,,,,,,,,,,,,,,,,,,,,,,,,,,105,001,2023_May_24_1208,SpeechDraft1Carolyn_lessNoise_PlusLocalization,2021.2.3,59.97132806745184,
bat.wav,bat.mpg,bat,5,A,Pink_Noise_5_1.wav,Pink_Noise_5_2.wav,,,,,,,,,,,,,,,0,55,55,6,,,,,,,,,,,,,,,,,,,,,,,588.0787322039978,None,589.5941737560061,None,590.977267669994,None,"theft
",590.977267669994,None,return,5.970110719994409,591.060613611,None,,,,,,,,,,,,,,,,,,,,,,,,,,,,,,,,,,,,,,,105,001,2023_May_24_1208,SpeechDraft1Carolyn_lessNoise_PlusLocalization,2021.2.3,59.97132806745184,
please.wav,please.mpg,please,5,AV,Pink_Noise_5_1.wav,Pink_Noise_5_2.wav,,,,,,,,,,,,,,,0,56,56,113,,,,,,,,,,,,,,,,,,,,,,,597.0605937530054,None,598.5602379430056,None,599.9438309069956,None,bees,599.9438309069956,None,return,2.499544591002632,600.0272784999979,None,,,,,,,,,,,,,,,,,,,,,,,,,,,,,,,,,,,,,,,105,001,2023_May_24_1208,SpeechDraft1Carolyn_lessNoise_PlusLocalization,2021.2.3,59.97132806745184,
bull.wav,bull.mpg,bull,3,A,Pink_Noise_3_1.wav,Pink_Noise_3_2.wav,,,,,,,,,,,,,,,0,57,57,10,,,,,,,,,,,,,,,,,,,,,,,602.5440404139954,None,604.0437248999951,None,605.4273004029965,None,boy,605.4273004029965,None,return,2.464057375997072,605.5106792970037,None,,,,,,,,,,,,,,,,,,,,,,,,,,,,,,,,,,,,,,,105,001,2023_May_24_1208,SpeechDraft1Carolyn_lessNoise_PlusLocalization,2021.2.3,59.97132806745184,
gulf.wav,gulf.mpg,gulf,2,AV,Pink_Noise_2_1.wav,Pink_Noise_2_2.wav,,,,,,,,,,,,,,,0,58,58,108,,,,,,,,,,,,,,,,,,,,,,,607.9939690949977,None,609.5102906480024,None,610.8941116869973,None,"golf
",610.8941116869973,None,return,3.453257475994178,610.9774323900056,None,,,,,,,,,,,,,,,,,,,,,,,,,,,,,,,,,,,,,,,105,001,2023_May_24_1208,SpeechDraft1Carolyn_lessNoise_PlusLocalization,2021.2.3,59.97132806745184,
broom.wav,broom.mpg,broom,3,AV,Pink_Noise_3_1.wav,Pink_Noise_3_2.wav,,,,,,,,,,,,,,,0,59,59,104,,,,,,,,,,,,,,,,,,,,,,,614.4607257140015,None,615.9770632050058,None,617.3607088620047,None,broom,617.3607088620047,None,return,3.466582205001032,617.4441071040055,None,,,,,,,,,,,,,,,,,,,,,,,,,,,,,,,,,,,,,,,105,001,2023_May_24_1208,SpeechDraft1Carolyn_lessNoise_PlusLocalization,2021.2.3,59.97132806745184,
bill.wav,bill.mpg,bill,1,AV,Pink_Noise_1_1.wav,Pink_Noise_1_2.wav,,,,,,,,,,,,,,,0,60,60,114,,,,,,,,,,,,,,,,,,,,,,,620.9272735039995,None,622.4269734139962,None,623.8107462890039,None,"bill
",623.8107462890039,None,return,2.21664902100747,623.8940623840026,None,,,,,,,,,,,,,,,,,,,,,,,,,,,,,,,,,,,,,,,105,001,2023_May_24_1208,SpeechDraft1Carolyn_lessNoise_PlusLocalization,2021.2.3,59.97132806745184,
rid.wav,rid.mpg,rid,2,A,Pink_Noise_2_1.wav,Pink_Noise_2_2.wav,,,,,,,,,,,,,,,0,61,61,39,,,,,,,,,,,,,,,,,,,,,,,626.1438972979959,None,627.6438316419953,None,629.0272650910047,None,rid,629.0272650910047,None,return,3.6562781120010186,629.1105283579964,None,,,,,,,,,,,,,,,,,,,,,,,,,,,,,,,,,,,,,,,105,001,2023_May_24_1208,SpeechDraft1Carolyn_lessNoise_PlusLocalization,2021.2.3,59.97132806745184,
bring.wav,bring.mpg,bring,3,AV,Pink_Noise_3_1.wav,Pink_Noise_3_2.wav,,,,,,,,,,,,,,,0,62,62,79,,,,,,,,,,,,,,,,,,,,,,,632.7940073140053,None,634.2937711770064,None,635.6773639409948,None,brim,635.6773639409948,None,return,3.9421287949953694,635.7605976829946,None,,,,,,,,,,,,,,,,,,,,,,,,,,,,,,,,,,,,,,,105,001,2023_May_24_1208,SpeechDraft1Carolyn_lessNoise_PlusLocalization,2021.2.3,59.97132806745184,
chest.wav,chest.mpg,chest,1,A,Pink_Noise_1_1.wav,Pink_Noise_1_2.wav,,,,,,,,,,,,,,,0,63,63,57,,,,,,,,,,,,,,,,,,,,,,,639.7272696870059,None,641.2437846999965,None,642.6273022270034,None,chest\,642.6273022270034,None,return,2.6721949500060873,642.7105706110015,None,,,,,,,,,,,,,,,,,,,,,,,,,,,,,,,,,,,,,,,105,001,2023_May_24_1208,SpeechDraft1Carolyn_lessNoise_PlusLocalization,2021.2.3,59.97132806745184,
flair.wav,flair.mpg,flair,5,AV,Pink_Noise_5_1.wav,Pink_Noise_5_2.wav,,,,,,,,,,,,,,,0,64,64,69,,,,,,,,,,,,,,,,,,,,,,,645.4106330149953,None,646.9126100800058,None,648.2940822980017,None,flame,648.2940822980017,None,return,3.99743005700293,648.3772810569935,None,,,,,,,,,,,,,,,,,,,,,,,,,,,,,,,,,,,,,,,105,001,2023_May_24_1208,SpeechDraft1Carolyn_lessNoise_PlusLocalization,2021.2.3,59.97132806745184,
club.wav,club.mpg,club,4,A,Pink_Noise_4_1.wav,Pink_Noise_4_2.wav,,,,,,,,,,,,,,,0,65,65,53,,,,,,,,,,,,,,,,,,,,,,,652.393885936006,None,653.8938603709976,None,655.2772849930043,None,go,655.2772849930043,None,return,2.390213307007798,655.3605951479985,None,,,,,,,,,,,,,,,,,,,,,,,,,,,,,,,,,,,,,,,105,001,2023_May_24_1208,SpeechDraft1Carolyn_lessNoise_PlusLocalization,2021.2.3,59.97132806745184,
dump.wav,dump.mpg,dump,2,A,Pink_Noise_2_1.wav,Pink_Noise_2_2.wav,,,,,,,,,,,,,,,0,66,66,8,,,,,,,,,,,,,,,,,,,,,,,657.7773385920009,None,659.2770683929994,None,660.6608230480051,None,"dont
",660.6608230480051,None,return,1.7346563220053213,660.7440476740012,None,,,,,,,,,,,,,,,,,,,,,,,,,,,,,,,,,,,,,,,105,001,2023_May_24_1208,SpeechDraft1Carolyn_lessNoise_PlusLocalization,2021.2.3,59.97132806745184,
cuff.wav,cuff.mpg,cuff,4,AV,Pink_Noise_4_1.wav,Pink_Noise_4_2.wav,,,,,,,,,,,,,,,0,67,67,68,,,,,,,,,,,,,,,,,,,,,,,662.5105615710054,None,664.0270347219921,None,665.4107024289988,None,cuff,665.4107024289988,None,return,3.4246635400049854,665.4940290109953,None,,,,,,,,,,,,,,,,,,,,,,,,,,,,,,,,,,,,,,,105,001,2023_May_24_1208,SpeechDraft1Carolyn_lessNoise_PlusLocalization,2021.2.3,59.97132806745184,
bond.wav,bond.mpg,bond,6,AV,Pink_Noise_6_1.wav,Pink_Noise_6_2.wav,,,,,,,,,,,,,,,0,68,68,116,,,,,,,,,,,,,,,,,,,,,,,668.9439476980042,None,670.4605590209976,None,671.843877324005,None,max,671.843877324005,None,return,2.159439957002178,671.9272848980036,None,,,,,,,,,,,,,,,,,,,,,,,,,,,,,,,,,,,,,,,105,001,2023_May_24_1208,SpeechDraft1Carolyn_lessNoise_PlusLocalization,2021.2.3,59.97132806745184,
bunch.wav,bunch.mpg,bunch,1,A,Pink_Noise_1_1.wav,Pink_Noise_1_2.wav,,,,,,,,,,,,,,,0,69,69,32,,,,,,,,,,,,,,,,,,,,,,,674.1106356779928,None,675.6269849149976,None,677.0108002850029,None,bunch,677.0108002850029,None,return,4.472808691003593,677.0940836079972,None,,,,,,,,,,,,,,,,,,,,,,,,,,,,,,,,,,,,,,,105,001,2023_May_24_1208,SpeechDraft1Carolyn_lessNoise_PlusLocalization,2021.2.3,59.97132806745184,
blink.wav,blink.mpg,blink,2,AV,Pink_Noise_2_1.wav,Pink_Noise_2_2.wav,,,,,,,,,,,,,,,0,70,70,81,,,,,,,,,,,,,,,,,,,,,,,681.5937716670014,None,683.0946328930004,None,684.4774883659993,None,"blink
",684.4774883659993,None,return,4.270074827989447,684.5606334220065,None,,,,,,,,,,,,,,,,,,,,,,,,,,,,,,,,,,,,,,,105,001,2023_May_24_1208,SpeechDraft1Carolyn_lessNoise_PlusLocalization,2021.2.3,59.97132806745184,
float.wav,float.mpg,float,3,AV,Pink_Noise_3_1.wav,Pink_Noise_3_2.wav,,,,,,,,,,,,,,,0,71,71,88,,,,,,,,,,,,,,,,,,,,,,,688.8606026719935,None,690.3770011169981,None,691.7608300050051,None,"float
",691.7608300050051,None,return,4.818557509002858,691.8441470219987,None,,,,,,,,,,,,,,,,,,,,,,,,,,,,,,,,,,,,,,,105,001,2023_May_24_1208,SpeechDraft1Carolyn_lessNoise_PlusLocalization,2021.2.3,59.97132806745184,
block.wav,block.mpg,block,3,AV,Pink_Noise_3_1.wav,Pink_Noise_3_2.wav,,,,,,,,,,,,,,,0,72,72,61,,,,,,,,,,,,,,,,,,,,,,,696.6940357029962,None,698.2104250129923,None,699.5942954740021,None,plow,699.5942954740021,None,return,4.5052658439963125,699.6775134680065,None,,,,,,,,,,,,,,,,,,,,,,,,,,,,,,,,,,,,,,,105,001,2023_May_24_1208,SpeechDraft1Carolyn_lessNoise_PlusLocalization,2021.2.3,59.97132806745184,
dare.wav,dare.mpg,dare,5,AV,Pink_Noise_5_1.wav,Pink_Noise_5_2.wav,,,,,,,,,,,,,,,0,73,73,62,,,,,,,,,,,,,,,,,,,,,,,704.2108153720037,None,705.7271260020061,None,707.1110022380017,None,"dare
",707.1110022380017,None,return,2.4526104910037247,707.1941094130016,None,,,,,,,,,,,,,,,,,,,,,,,,,,,,,,,,,,,,,,,105,001,2023_May_24_1208,SpeechDraft1Carolyn_lessNoise_PlusLocalization,2021.2.3,59.97132806745184,
crown.wav,crown.mpg,crown,1,A,Pink_Noise_1_1.wav,Pink_Noise_1_2.wav,,,,,,,,,,,,,,,0,74,74,28,,,,,,,,,,,,,,,,,,,,,,,709.6775374940044,None,711.1784122209938,None,712.5607744279987,None,crown,712.5607744279987,None,return,5.04257704000338,712.644119471006,None,,,,,,,,,,,,,,,,,,,,,,,,,,,,,,,,,,,,,,,105,001,2023_May_24_1208,SpeechDraft1Carolyn_lessNoise_PlusLocalization,2021.2.3,59.97132806745184,
claw.wav,claw.mpg,claw,3,A,Pink_Noise_3_1.wav,Pink_Noise_3_2.wav,,,,,,,,,,,,,,,0,75,75,58,,,,,,,,,,,,,,,,,,,,,,,717.710730175997,None,719.2103137560043,None,720.5942171560018,None,claw,720.5942171560018,None,return,4.609217703997274,720.6775267699995,None,,,,,,,,,,,,,,,,,,,,,,,,,,,,,,,,,,,,,,,105,001,2023_May_24_1208,SpeechDraft1Carolyn_lessNoise_PlusLocalization,2021.2.3,59.97132806745184,
tear.wav,tear.mpg,tear,4,AV,Pink_Noise_4_1.wav,Pink_Noise_4_2.wav,,,,,,,,,,,,,,,0,76,76,70,,,,,,,,,,,,,,,,,,,,,,,725.3107875650021,None,726.8122110650002,None,728.1943219560053,None,tear,728.1943219560053,None,return,4.809179861011216,728.2775160279998,None,,,,,,,,,,,,,,,,,,,,,,,,,,,,,,,,,,,,,,,105,001,2023_May_24_1208,SpeechDraft1Carolyn_lessNoise_PlusLocalization,2021.2.3,59.97132806745184,
sake.wav,sake.mpg,sake,1,A,Pink_Noise_1_1.wav,Pink_Noise_1_2.wav,,,,,,,,,,,,,,,0,77,77,4,,,,,,,,,,,,,,,,,,,,,,,733.1108272040001,None,734.6270418750064,None,736.0108440500044,None,sink,736.0108440500044,None,return,2.344547145999968,736.0941608209978,None,,,,,,,,,,,,,,,,,,,,,,,,,,,,,,,,,,,,,,,105,001,2023_May_24_1208,SpeechDraft1Carolyn_lessNoise_PlusLocalization,2021.2.3,59.97132806745184,
fraud.wav,fraud.mpg,fraud,4,AV,Pink_Noise_4_1.wav,Pink_Noise_4_2.wav,,,,,,,,,,,,,,,0,78,78,112,,,,,,,,,,,,,,,,,,,,,,,738.4607889309991,None,739.9773167490057,None,741.3445028580027,None,frog,741.3445028580027,None,return,2.507357315000263,741.4274233449978,None,,,,,,,,,,,,,,,,,,,,,,,,,,,,,,,,,,,,,,,105,001,2023_May_24_1208,SpeechDraft1Carolyn_lessNoise_PlusLocalization,2021.2.3,59.97132806745184,
blimp.wav,blimp.mpg,blimp,1,A,Pink_Noise_1_1.wav,Pink_Noise_1_2.wav,,,,,,,,,,,,,,,0,79,79,44,,,,,,,,,,,,,,,,,,,,,,,743.9607897509995,None,745.4615636369999,None,746.8442648960045,None,blue,746.8442648960045,None,return,2.2072494190069847,746.9275579179957,None,,,,,,,,,,,,,,,,,,,,,,,,,,,,,,,,,,,,,,,105,001,2023_May_24_1208,SpeechDraft1Carolyn_lessNoise_PlusLocalization,2021.2.3,59.97132806745184,
grace.wav,grace.mpg,grace,4,AV,Pink_Noise_4_1.wav,Pink_Noise_4_2.wav,,,,,,,,,,,,,,,0,80,80,107,,,,,,,,,,,,,,,,,,,,,,,749.1607121660054,None,750.6623433490022,None,752.0441072319954,None,grace,752.0441072319954,None,return,4.279280050002853,752.1274210050033,None,,,,,,,,,,,,,,,,,,,,,,,,,,,,,,,,,,,,,,,105,001,2023_May_24_1208,SpeechDraft1Carolyn_lessNoise_PlusLocalization,2021.2.3,59.97132806745184,
sock.wav,sock.mpg,sock,3,AV,Pink_Noise_3_1.wav,Pink_Noise_3_2.wav,,,,,,,,,,,,,,,0,81,81,110,,,,,,,,,,,,,,,,,,,,,,,756.4274143289949,None,757.9436911819939,None,759.3273903249938,None,sock,759.3273903249938,None,return,1.62790888400923,759.4108020650019,None,,,,,,,,,,,,,,,,,,,,,,,,,,,,,,,,,,,,,,,105,001,2023_May_24_1208,SpeechDraft1Carolyn_lessNoise_PlusLocalization,2021.2.3,59.97132806745184,
brand.wav,brand.mpg,brand,2,AV,Pink_Noise_2_1.wav,Pink_Noise_2_2.wav,,,,,,,,,,,,,,,0,82,82,77,,,,,,,,,,,,,,,,,,,,,,,761.0608885309921,None,762.577151681995,None,763.9610701159982,None,"brand
",763.9610701159982,None,return,1.4183156619983492,764.0443553530058,None,,,,,,,,,,,,,,,,,,,,,,,,,,,,,,,,,,,,,,,105,001,2023_May_24_1208,SpeechDraft1Carolyn_lessNoise_PlusLocalization,2021.2.3,59.97132806745184,
faint.wav,faint.mpg,faint,4,A,Pink_Noise_4_1.wav,Pink_Noise_4_2.wav,,,,,,,,,,,,,,,0,83,83,29,,,,,,,,,,,,,,,,,,,,,,,765.4940728859947,None,766.9945207230048,None,768.3775055199949,None,"close
",768.3775055199949,None,return,2.3698759179969784,768.4608363559964,None,,,,,,,,,,,,,,,,,,,,,,,,,,,,,,,,,,,,,,,105,001,2023_May_24_1208,SpeechDraft1Carolyn_lessNoise_PlusLocalization,2021.2.3,59.97132806745184,
priest.wav,priest.mpg,priest,2,AV,Pink_Noise_2_1.wav,Pink_Noise_2_2.wav,,,,,,,,,,,,,,,0,84,84,87,,,,,,,,,,,,,,,,,,,,,,,770.9774719419947,None,772.4796957640065,None,773.8609940790047,None,"preist
",773.8609940790047,None,return,5.1504355470096925,773.9442732939933,None,,,,,,,,,,,,,,,,,,,,,,,,,,,,,,,,,,,,,,,105,001,2023_May_24_1208,SpeechDraft1Carolyn_lessNoise_PlusLocalization,2021.2.3,59.97132806745184,
blast.wav,blast.mpg,blast,4,A,Pink_Noise_4_1.wav,Pink_Noise_4_2.wav,,,,,,,,,,,,,,,0,85,85,23,,,,,,,,,,,,,,,,,,,,,,,779.1276801679924,None,780.6438440649945,None,782.0275197760056,None,last,782.0275197760056,None,return,2.015955082999426,782.1108668509987,None,,,,,,,,,,,,,,,,,,,,,,,,,,,,,,,,,,,,,,,105,001,2023_May_24_1208,SpeechDraft1Carolyn_lessNoise_PlusLocalization,2021.2.3,59.97132806745184,
foil.wav,foil.mpg,foil,3,AV,Pink_Noise_3_1.wav,Pink_Noise_3_2.wav,,,,,,,,,,,,,,,0,86,86,91,,,,,,,,,,,,,,,,,,,,,,,784.1442624659976,None,785.6604308399983,None,787.0440330300044,None,foil,787.0440330300044,None,return,2.599389548006002,787.1274248300033,None,,,,,,,,,,,,,,,,,,,,,,,,,,,,,,,,,,,,,,,105,001,2023_May_24_1208,SpeechDraft1Carolyn_lessNoise_PlusLocalization,2021.2.3,59.97132806745184,
coil.wav,coil.mpg,coil,6,A,Pink_Noise_6_1.wav,Pink_Noise_6_2.wav,,,,,,,,,,,,,,,0,87,87,3,,,,,,,,,,,,,,,,,,,,,,,789.7441636129952,None,791.2606552119978,None,792.6442487489985,None,"cloak
",792.6442487489985,None,return,6.1511698750109645,792.727536217004,None,,,,,,,,,,,,,,,,,,,,,,,,,,,,,,,,,,,,,,,105,001,2023_May_24_1208,SpeechDraft1Carolyn_lessNoise_PlusLocalization,2021.2.3,59.97132806745184,
count.wav,count.mpg,count,2,A,Pink_Noise_2_1.wav,Pink_Noise_2_2.wav,,,,,,,,,,,,,,,0,88,88,25,,,,,,,,,,,,,,,,,,,,,,,798.910756583995,None,800.4270934020024,None,801.8108317430015,None,"count
",801.8108317430015,None,return,2.752391421003267,801.894296323997,None,,,,,,,,,,,,,,,,,,,,,,,,,,,,,,,,,,,,,,,105,001,2023_May_24_1208,SpeechDraft1Carolyn_lessNoise_PlusLocalization,2021.2.3,59.97132806745184,
bug.wav,bug.mpg,bug,5,A,Pink_Noise_5_1.wav,Pink_Noise_5_2.wav,,,,,,,,,,,,,,,0,89,89,33,,,,,,,,,,,,,,,,,,,,,,,804.6775149210007,None,806.1938830409927,None,807.5776669540064,None,one,807.5776669540064,None,return,2.4498263509885874,807.6609343720047,None,,,,,,,,,,,,,,,,,,,,,,,,,,,,,,,,,,,,,,,105,001,2023_May_24_1208,SpeechDraft1Carolyn_lessNoise_PlusLocalization,2021.2.3,59.97132806745184,
bend.wav,bend.mpg,bend,3,A,Pink_Noise_3_1.wav,Pink_Noise_3_2.wav,,,,,,,,,,,,,,,0,90,90,19,,,,,,,,,,,,,,,,,,,,,,,810.1274619629985,None,811.6437958580063,None,813.0275485989987,None,bend,813.0275485989987,None,return,4.639977779996116,813.1108452930057,None,,,,,,,,,,,,,,,,,,,,,,,,,,,,,,,,,,,,,,,105,001,2023_May_24_1208,SpeechDraft1Carolyn_lessNoise_PlusLocalization,2021.2.3,59.97132806745184,
your.wav,your.mpg,your,1,A,Pink_Noise_1_1.wav,Pink_Noise_1_2.wav,,,,,,,,,,,,,,,0,91,91,22,,,,,,,,,,,,,,,,,,,,,,,817.7775457919925,None,819.2938016359985,None,820.6776944809972,None,your,820.6776944809972,None,return,1.8058814120013267,820.760973048993,None,,,,,,,,,,,,,,,,,,,,,,,,,,,,,,,,,,,,,,,105,001,2023_May_24_1208,SpeechDraft1Carolyn_lessNoise_PlusLocalization,2021.2.3,59.97132806745184,
grass.wav,grass.mpg,grass,3,A,Pink_Noise_3_1.wav,Pink_Noise_3_2.wav,,,,,,,,,,,,,,,0,92,92,54,,,,,,,,,,,,,,,,,,,,,,,822.5941533570003,None,824.1106440559961,None,825.4942723179993,None,brass,825.4942723179993,None,return,3.605286984005943,825.5775085170026,None,,,,,,,,,,,,,,,,,,,,,,,,,,,,,,,,,,,,,,,105,001,2023_May_24_1208,SpeechDraft1Carolyn_lessNoise_PlusLocalization,2021.2.3,59.97132806745184,
batch.wav,batch.mpg,batch,4,AV,Pink_Noise_4_1.wav,Pink_Noise_4_2.wav,,,,,,,,,,,,,,,0,93,93,115,,,,,,,,,,,,,,,,,,,,,,,829.2108851480007,None,830.7271272149956,None,832.1110271270009,None,batch,832.1110271270009,None,return,6.3485387529945,832.1942961339955,None,,,,,,,,,,,,,,,,,,,,,,,,,,,,,,,,,,,,,,,105,001,2023_May_24_1208,SpeechDraft1Carolyn_lessNoise_PlusLocalization,2021.2.3,59.97132806745184,
wine.wav,wine.mpg,wine,4,AV,Pink_Noise_4_1.wav,Pink_Noise_4_2.wav,,,,,,,,,,,,,,,0,94,94,64,,,,,,,,,,,,,,,,,,,,,,,838.5609648529935,None,840.0772240539955,None,841.460877851001,None,wine,841.460877851001,None,return,4.3985587369970744,841.5442432020063,None,,,,,,,,,,,,,,,,,,,,,,,,,,,,,,,,,,,,,,,105,001,2023_May_24_1208,SpeechDraft1Carolyn_lessNoise_PlusLocalization,2021.2.3,59.97132806745184,
crow.wav,crow.mpg,crow,2,A,Pink_Noise_2_1.wav,Pink_Noise_2_2.wav,,,,,,,,,,,,,,,0,95,95,2,,,,,,,,,,,,,,,,,,,,,,,845.960999871997,None,847.4772556300013,None,848.860935277,None,crow,848.860935277,None,return,3.174485896990518,848.9441630990041,None,,,,,,,,,,,,,,,,,,,,,,,,,,,,,,,,,,,,,,,105,001,2023_May_24_1208,SpeechDraft1Carolyn_lessNoise_PlusLocalization,2021.2.3,59.97132806745184,
shed.wav,shed.mpg,shed,1,AV,Pink_Noise_1_1.wav,Pink_Noise_1_2.wav,,,,,,,,,,,,,,,0,96,96,94,,,,,,,,,,,,,,,,,,,,,,,852.1444069429999,None,853.6608182549971,None,855.0444552940025,None,shed,855.0444552940025,None,return,3.65514789998997,855.1276453909959,None,,,,,,,,,,,,,,,,,,,,,,,,,,,,,,,,,,,,,,,105,001,2023_May_24_1208,SpeechDraft1Carolyn_lessNoise_PlusLocalization,2021.2.3,59.97132806745184,
care.wav,care.mpg,care,6,A,Pink_Noise_6_1.wav,Pink_Noise_6_2.wav,,,,,,,,,,,,,,,0,97,97,0,,,,,,,,,,,,,,,,,,,,,,,858.8108523779956,None,860.3275132529961,None,861.7109751230018,None,eat,861.7109751230018,None,return,2.572502152004745,861.7943254359998,None,,,,,,,,,,,,,,,,,,,,,,,,,,,,,,,,,,,,,,,105,001,2023_May_24_1208,SpeechDraft1Carolyn_lessNoise_PlusLocalization,2021.2.3,59.97132806745184,
fowl.wav,fowl.mpg,fowl,1,AV,Pink_Noise_1_1.wav,Pink_Noise_1_2.wav,,,,,,,,,,,,,,,0,98,98,118,,,,,,,,,,,,,,,,,,,,,,,864.3944330090017,None,865.8968652299955,None,867.2774258069985,None,foul,867.2774258069985,None,return,10.405903937993571,867.3608974270028,None,,,,,,,,,,,,,,,,,,,,,,,,,,,,,,,,,,,,,,,105,001,2023_May_24_1208,SpeechDraft1Carolyn_lessNoise_PlusLocalization,2021.2.3,59.97132806745184,
bust.wav,bust.mpg,bust,6,A,Pink_Noise_6_1.wav,Pink_Noise_6_2.wav,,,,,,,,,,,,,,,0,99,99,41,,,,,,,,,,,,,,,,,,,,,,,877.7943982760044,None,879.3107102479989,None,880.694438630002,None,toss,880.694438630002,None,return,6.573028265003813,880.777746836,None,,,,,,,,,,,,,,,,,,,,,,,,,,,,,,,,,,,,,,,105,001,2023_May_24_1208,SpeechDraft1Carolyn_lessNoise_PlusLocalization,2021.2.3,59.97132806745184,
fat.wav,fat.mpg,fat,3,A,Pink_Noise_3_1.wav,Pink_Noise_3_2.wav,,,,,,,,,,,,,,,0,100,100,38,,,,,,,,,,,,,,,,,,,,,,,887.3776881429949,None,888.8940024699987,None,890.2777492509922,None,cat,890.2777492509922,None,return,2.597672150004655,890.3610235270025,None,,,,,,,,,,,,,,,,,,,,,,,,,,,,,,,,,,,,,,,105,001,2023_May_24_1208,SpeechDraft1Carolyn_lessNoise_PlusLocalization,2021.2.3,59.97132806745184,
bald.wav,bald.mpg,bald,1,AV,Pink_Noise_1_1.wav,Pink_Noise_1_2.wav,,,,,,,,,,,,,,,0,101,101,85,,,,,,,,,,,,,,,,,,,,,,,892.9776287610002,None,894.4939028840017,None,895.8776623430022,None,bald,895.8776623430022,None,return,2.6057169919949956,895.9610677650053,None,,,,,,,,,,,,,,,,,,,,,,,,,,,,,,,,,,,,,,,105,001,2023_May_24_1208,SpeechDraft1Carolyn_lessNoise_PlusLocalization,2021.2.3,59.97132806745184,
duct.wav,duct.mpg,duct,6,AV,Pink_Noise_6_1.wav,Pink_Noise_6_2.wav,,,,,,,,,,,,,,,0,102,102,96,,,,,,,,,,,,,,,,,,,,,,,898.5942340079928,None,900.1107794230047,None,901.4944302619988,None,duck,901.4944302619988,None,return,6.23704716899374,901.5776731249935,None,,,,,,,,,,,,,,,,,,,,,,,,,,,,,,,,,,,,,,,105,001,2023_May_24_1208,SpeechDraft1Carolyn_lessNoise_PlusLocalization,2021.2.3,59.97132806745184,
bread.wav,bread.mpg,bread,1,AV,Pink_Noise_1_1.wav,Pink_Noise_1_2.wav,,,,,,,,,,,,,,,0,103,103,93,,,,,,,,,,,,,,,,,,,,,,,907.8442246360064,None,909.3774015069939,None,910.7608946599939,None,bread,910.7608946599939,None,return,2.3466262069996446,910.8441621179954,None,,,,,,,,,,,,,,,,,,,,,,,,,,,,,,,,,,,,,,,105,001,2023_May_24_1208,SpeechDraft1Carolyn_lessNoise_PlusLocalization,2021.2.3,59.97132806745184,
flog.wav,flog.mpg,flog,4,A,Pink_Noise_4_1.wav,Pink_Noise_4_2.wav,,,,,,,,,,,,,,,0,104,104,20,,,,,,,,,,,,,,,,,,,,,,,913.2108837800042,None,914.7276357590017,None,916.1108577080013,None,dog,916.1108577080013,None,return,9.340392750993487,916.1943619999947,None,,,,,,,,,,,,,,,,,,,,,,,,,,,,,,,,,,,,,,,105,001,2023_May_24_1208,SpeechDraft1Carolyn_lessNoise_PlusLocalization,2021.2.3,59.97132806745184,
broil.wav,broil.mpg,broil,6,AV,Pink_Noise_6_1.wav,Pink_Noise_6_2.wav,,,,,,,,,,,,,,,0,105,105,65,,,,,,,,,,,,,,,,,,,,,,,925.5611275010015,None,927.0942212310038,None,928.4779365230061,None,broom,928.4779365230061,None,return,3.3737890079937642,928.5610800249997,None,,,,,,,,,,,,,,,,,,,,,,,,,,,,,,,,,,,,,,,105,001,2023_May_24_1208,SpeechDraft1Carolyn_lessNoise_PlusLocalization,2021.2.3,59.97132806745184,
blind.wav,blind.mpg,blind,6,A,Pink_Noise_6_1.wav,Pink_Noise_6_2.wav,,,,,,,,,,,,,,,0,106,106,17,,,,,,,,,,,,,,,,,,,,,,,931.960962911995,None,933.4778683180048,None,934.861173472993,None,"gluide
",934.861173472993,None,return,11.902281596005196,934.9444248270011,None,,,,,,,,,,,,,,,,,,,,,,,,,,,,,,,,,,,,,,,105,001,2023_May_24_1208,SpeechDraft1Carolyn_lessNoise_PlusLocalization,2021.2.3,59.97132806745184,
dust.wav,dust.mpg,dust,3,A,Pink_Noise_3_1.wav,Pink_Noise_3_2.wav,,,,,,,,,,,,,,,0,107,107,13,,,,,,,,,,,,,,,,,,,,,,,946.8776520450047,None,948.3938732800016,None,949.7776685349963,None,"lust
",949.7776685349963,None,return,2.5535594359971583,949.8611606360064,None,,,,,,,,,,,,,,,,,,,,,,,,,,,,,,,,,,,,,,,105,001,2023_May_24_1208,SpeechDraft1Carolyn_lessNoise_PlusLocalization,2021.2.3,59.97132806745184,
tart.wav,tart.mpg,tart,2,A,Pink_Noise_2_1.wav,Pink_Noise_2_2.wav,,,,,,,,,,,,,,,0,108,108,24,,,,,,,,,,,,,,,,,,,,,,,952.4444497980003,None,953.9610793479951,None,955.3445665280015,None,"tart
",955.3445665280015,None,return,4.850969309991342,955.4277402000007,None,,,,,,,,,,,,,,,,,,,,,,,,,,,,,,,,,,,,,,,105,001,2023_May_24_1208,SpeechDraft1Carolyn_lessNoise_PlusLocalization,2021.2.3,59.97132806745184,
bribe.wav,bribe.mpg,bribe,5,AV,Pink_Noise_5_1.wav,Pink_Noise_5_2.wav,,,,,,,,,,,,,,,0,109,109,102,,,,,,,,,,,,,,,,,,,,,,,960.311052642006,None,961.8282982569945,None,963.210979948999,None,"bribe
",963.210979948999,None,return,3.752278526997543,963.2944249389984,None,,,,,,,,,,,,,,,,,,,,,,,,,,,,,,,,,,,,,,,105,001,2023_May_24_1208,SpeechDraft1Carolyn_lessNoise_PlusLocalization,2021.2.3,59.97132806745184,
flaw.wav,flaw.mpg,flaw,1,A,Pink_Noise_1_1.wav,Pink_Noise_1_2.wav,,,,,,,,,,,,,,,0,110,110,43,,,,,,,,,,,,,,,,,,,,,,,967.0776792389952,None,968.6109474469995,None,969.9945734159992,None,flaw,969.9945734159992,None,return,8.504927285990561,970.077787303002,None,,,,,,,,,,,,,,,,,,,,,,,,,,,,,,,,,,,,,,,105,001,2023_May_24_1208,SpeechDraft1Carolyn_lessNoise_PlusLocalization,2021.2.3,59.97132806745184,
calm.wav,calm.mpg,calm,3,A,Pink_Noise_3_1.wav,Pink_Noise_3_2.wav,,,,,,,,,,,,,,,0,111,111,40,,,,,,,,,,,,,,,,,,,,,,,978.6109371159982,None,980.1440786260064,None,981.5277421640058,None,calm,981.5277421640058,None,return,16.71577062200231,981.6109777810052,None,,,,,,,,,,,,,,,,,,,,,,,,,,,,,,,,,,,,,,,105,001,2023_May_24_1208,SpeechDraft1Carolyn_lessNoise_PlusLocalization,2021.2.3,59.97132806745184,
gash.wav,gash.mpg,gash,3,A,Pink_Noise_3_1.wav,Pink_Noise_3_2.wav,,,,,,,,,,,,,,,0,112,112,15,,,,,,,,,,,,,,,,,,,,,,,998.3443641549966,None,999.8774381590047,None,1001.2612189869978,None,gash,1001.2612189869978,None,return,6.046073158009676,1001.3446976249979,None,,,,,,,,,,,,,,,,,,,,,,,,,,,,,,,,,,,,,,,105,001,2023_May_24_1208,SpeechDraft1Carolyn_lessNoise_PlusLocalization,2021.2.3,59.97132806745184,
badge.wav,badge.mpg,badge,4,A,Pink_Noise_4_1.wav,Pink_Noise_4_2.wav,,,,,,,,,,,,,,,0,113,113,50,,,,,,,,,,,,,,,,,,,,,,,1007.411142787998,None,1008.9441474539926,None,1010.3112608480005,None,"ouch
",1010.3112608480005,None,return,7.684301319008227,1010.3943952840054,None,,,,,,,,,,,,,,,,,,,,,,,,,,,,,,,,,,,,,,,105,001,2023_May_24_1208,SpeechDraft1Carolyn_lessNoise_PlusLocalization,2021.2.3,59.97132806745184,
wear.wav,wear.mpg,wear,5,AV,Pink_Noise_5_1.wav,Pink_Noise_5_2.wav,,,,,,,,,,,,,,,0,114,114,103,,,,,,,,,,,,,,,,,,,,,,,1018.1112287739961,None,1019.6275373899989,None,1021.0109235830023,None,worm,1021.0109235830023,None,return,4.216363024999737,1021.0944017909933,None,,,,,,,,,,,,,,,,,,,,,,,,,,,,,,,,,,,,,,,105,001,2023_May_24_1208,SpeechDraft1Carolyn_lessNoise_PlusLocalization,2021.2.3,59.97132806745184,
flirt.wav,flirt.mpg,flirt,3,AV,Pink_Noise_3_1.wav,Pink_Noise_3_2.wav,,,,,,,,,,,,,,,0,115,115,67,,,,,,,,,,,,,,,,,,,,,,,1025.3278361470002,None,1026.8441899330064,None,1028.227876103003,None,flirt,1028.227876103003,None,return,6.3434850150079,1028.3112302630034,None,,,,,,,,,,,,,,,,,,,,,,,,,,,,,,,,,,,,,,,105,001,2023_May_24_1208,SpeechDraft1Carolyn_lessNoise_PlusLocalization,2021.2.3,59.97132806745184,
gulp.wav,gulp.mpg,gulp,2,A,Pink_Noise_2_1.wav,Pink_Noise_2_2.wav,,,,,,,,,,,,,,,0,116,116,9,,,,,,,,,,,,,,,,,,,,,,,1034.6778742769966,None,1036.210848058996,None,1037.5945598950057,None,"gulp
",1037.5945598950057,None,return,5.136873105002451,1037.677838567004,None,,,,,,,,,,,,,,,,,,,,,,,,,,,,,,,,,,,,,,,105,001,2023_May_24_1208,SpeechDraft1Carolyn_lessNoise_PlusLocalization,2021.2.3,59.97132806745184,
catch.wav,catch.mpg,catch,2,AV,Pink_Noise_2_1.wav,Pink_Noise_2_2.wav,,,,,,,,,,,,,,,0,117,117,86,,,,,,,,,,,,,,,,,,,,,,,1042.8446332379972,None,1044.3609750739997,None,1045.7445260050008,None,catch,1045.7445260050008,None,return,2.162791420996655,1045.8279830579995,None,,,,,,,,,,,,,,,,,,,,,,,,,,,,,,,,,,,,,,,105,001,2023_May_24_1208,SpeechDraft1Carolyn_lessNoise_PlusLocalization,2021.2.3,59.97132806745184,
bear.wav,bear.mpg,bear,1,AV,Pink_Noise_1_1.wav,Pink_Noise_1_2.wav,,,,,,,,,,,,,,,0,118,118,105,,,,,,,,,,,,,,,,,,,,,,,1048.0110868170013,None,1049.527518132003,None,1050.9111574309936,None,bear,1050.9111574309936,None,return,1.8281769940076629,1050.9945309100003,None,,,,,,,,,,,,,,,,,,,,,,,,,,,,,,,,,,,,,,,105,001,2023_May_24_1208,SpeechDraft1Carolyn_lessNoise_PlusLocalization,2021.2.3,59.97132806745184,
dawn.wav,dawn.mpg,dawn,6,AV,Pink_Noise_6_1.wav,Pink_Noise_6_2.wav,,,,,,,,,,,,,,,0,119,119,76,,,,,,,,,,,,,,,,,,,,,,,1052.8447057080048,None,1054.3609208559938,None,1055.7443634090014,None,dog,1055.7443634090014,None,return,3.1708944230049383,1055.827791253003,None,,,,,,,,,,,,,,,,,,,,,,,,,,,,,,,,,,,,,,,105,001,2023_May_24_1208,SpeechDraft1Carolyn_lessNoise_PlusLocalization,2021.2.3,59.97132806745184,
,,,,,,,,,,,,,,,,,,,,,,,,,,,,,,,,,,,,,,,,,,,,,,,,,,,,,,,,,,,,,,,,,,space,19.02285793000192,1059.1278570919967,None,,,,,,,,,,,,,,,,,,,,,,,,,,,,,105,001,2023_May_24_1208,SpeechDraft1Carolyn_lessNoise_PlusLocalization,2021.2.3,59.97132806745184,
,,,,,,,,nearLeft,-6.5,1,ch1Sound_localizationTask.wav,-6.5,"(857, 878)","(-103,-202)",-95,-338,,,,,,,,,0,0,0,2,,,,,,,,,,,,,,,,,,,,,,,,,,,,,,,,,,,,,,,,,,1059.1278570919967,None,1078.194172738993,None,1079.2942511349975,None,1080.2278994179942,None,1.2216931216931217,3.700737162012956,1080.2278994179942,None,,,,,,,,,,,,,,,,,105,001,2023_May_24_1208,SpeechDraft1Carolyn_lessNoise_PlusLocalization,2021.2.3,59.97132806745184,
,,,,,,,,center,0.0,6,ch1Sound_localizationTask.wav,0.0,"(952, 878)","(-8,-202)",0,-338,,,,,,,,,0,1,1,3,,,,,,,,,,,,,,,,,,,,,,,,,,,,,,,,,,,,,,,,,,,,1083.9445365360007,None,1085.044322311005,None,1085.9777132909949,None,1.1148148148148147,1.2493382090033265,1085.9777132909949,None,,,,,,,,,,,,,,,,,105,001,2023_May_24_1208,SpeechDraft1Carolyn_lessNoise_PlusLocalization,2021.2.3,59.97132806745184,
,,,,,,,,farRight,19.1,4,ch1Sound_localizationTask.wav,19.1,"(1237, 878)","(277,-202)",285,-338,,,,,,,,,0,2,2,6,,,,,,,,,,,,,,,,,,,,,,,,,,,,,,,,,,,,,,,,,,,,1087.2285207050008,None,1088.3275985889923,None,1089.2609959279944,None,1.029100529100529,1.4851104139961535,1089.2609959279944,None,,,,,,,,,,,,,,,,,105,001,2023_May_24_1208,SpeechDraft1Carolyn_lessNoise_PlusLocalization,2021.2.3,59.97132806745184,
,,,,,,,,midLeft,-13.0,2,ch1Sound_localizationTask.wav,-13.0,"(762, 878)","(-198,-202)",-190,-338,,,,,,,,,0,3,3,1,,,,,,,,,,,,,,,,,,,,,,,,,,,,,,,,,,,,,,,,,,,,1090.761352193993,None,1091.860974826006,None,1092.7943294409924,None,1.052910052910053,1.149993890998303,1092.7943294409924,None,,,,,,,,,,,,,,,,,105,001,2023_May_24_1208,SpeechDraft1Carolyn_lessNoise_PlusLocalization,2021.2.3,59.97132806745184,
,,,,,,,,farRight,19.1,4,ch1Sound_localizationTask.wav,19.1,"(1237, 878)","(277,-202)",285,-338,,,,,,,,,0,4,4,6,,,,,,,,,,,,,,,,,,,,,,,,,,,,,,,,,,,,,,,,,,,,1093.961343294999,None,1095.0611147040036,None,1095.9944171730021,None,1.0253968253968253,1.200295153001207,1095.9944171730021,None,,,,,,,,,,,,,,,,,105,001,2023_May_24_1208,SpeechDraft1Carolyn_lessNoise_PlusLocalization,2021.2.3,59.97132806745184,
,,,,,,,,midRight,13.0,3,ch1Sound_localizationTask.wav,13.0,"(1142, 878)","(182, -202)",190,-338,,,,,,,,,0,5,5,5,,,,,,,,,,,,,,,,,,,,,,,,,,,,,,,,,,,,,,,,,,,,1097.2112626939925,None,1098.3111323299963,None,1099.2442697730003,None,1.0243386243386243,0.5168175339931622,1099.2442697730003,None,,,,,,,,,,,,,,,,,105,001,2023_May_24_1208,SpeechDraft1Carolyn_lessNoise_PlusLocalization,2021.2.3,59.97132806745184,
,,,,,,,,farLeft,-19.1,5,ch1Sound_localizationTask.wav,-19.1,"(667, 878)","(-293,-202)",-285,-338,,,,,,,,,0,6,6,0,,,,,,,,,,,,,,,,,,,,,,,,,,,,,,,,,,,,,,,,,,,,1099.7620012389962,None,1100.861026108003,None,1101.7944822769932,None,1.0243386243386243,0.6004366609995486,1101.7944822769932,None,,,,,,,,,,,,,,,,,105,001,2023_May_24_1208,SpeechDraft1Carolyn_lessNoise_PlusLocalization,2021.2.3,59.97132806745184,
,,,,,,,,midRight,13.0,3,ch1Sound_localizationTask.wav,13.0,"(1142, 878)","(182, -202)",190,-338,,,,,,,,,1,0,7,5,,,,,,,,,,,,,,,,,,,,,,,,,,,,,,,,,,,,,,,,,,,,1102.4114599189925,None,1103.5110451369983,None,1104.444343012001,None,1.0243386243386243,0.46724409400485456,1104.444343012001,None,,,,,,,,,,,,,,,,,105,001,2023_May_24_1208,SpeechDraft1Carolyn_lessNoise_PlusLocalization,2021.2.3,59.97132806745184,
,,,,,,,,farLeft,-19.1,5,ch1Sound_localizationTask.wav,-19.1,"(667, 878)","(-293,-202)",-285,-338,,,,,,,,,1,1,8,0,,,,,,,,,,,,,,,,,,,,,,,,,,,,,,,,,,,,,,,,,,,,1104.9277604560048,None,1106.027547175996,None,1106.9610135749972,None,1.0465608465608467,0.7330307999945944,1106.9610135749972,None,,,,,,,,,,,,,,,,,105,001,2023_May_24_1208,SpeechDraft1Carolyn_lessNoise_PlusLocalization,2021.2.3,59.97132806745184,
,,,,,,,,midLeft,-13.0,2,ch1Sound_localizationTask.wav,-13.0,"(762, 878)","(-198,-202)",-190,-338,,,,,,,,,1,2,9,1,,,,,,,,,,,,,,,,,,,,,,,,,,,,,,,,,,,,,,,,,,,,1107.7114478680014,None,1108.8111277050048,None,1109.7442803640006,None,1.0005291005291004,0.8845220579969464,1109.7442803640006,None,,,,,,,,,,,,,,,,,105,001,2023_May_24_1208,SpeechDraft1Carolyn_lessNoise_PlusLocalization,2021.2.3,59.97132806745184,
,,,,,,,,center,0.0,6,ch1Sound_localizationTask.wav,0.0,"(952, 878)","(-8,-202)",0,-338,,,,,,,,,1,3,10,3,,,,,,,,,,,,,,,,,,,,,,,,,,,,,,,,,,,,,,,,,,,,1110.6445818020002,None,1111.7443920020014,None,1112.6776465889998,None,1.1,0.599098361999495,1112.6776465889998,None,,,,,,,,,,,,,,,,,105,001,2023_May_24_1208,SpeechDraft1Carolyn_lessNoise_PlusLocalization,2021.2.3,59.97132806745184,
,,,,,,,,farRight,19.1,4,ch1Sound_localizationTask.wav,19.1,"(1237, 878)","(277,-202)",285,-338,,,,,,,,,1,4,11,6,,,,,,,,,,,,,,,,,,,,,,,,,,,,,,,,,,,,,,,,,,,,1113.2787914299988,None,1114.3777079260035,None,1115.310968411999,None,1.1899470899470899,0.8496065250074025,1115.310968411999,None,,,,,,,,,,,,,,,,,105,001,2023_May_24_1208,SpeechDraft1Carolyn_lessNoise_PlusLocalization,2021.2.3,59.97132806745184,
,,,,,,,,midRight,13.0,3,ch1Sound_localizationTask.wav,13.0,"(1142, 878)","(182, -202)",190,-338,,,,,,,,,1,5,12,5,,,,,,,,,,,,,,,,,,,,,,,,,,,,,,,,,,,,,,,,,,,,1116.1630083490018,None,1117.277769606997,None,1118.194342939998,None,1.1825396825396826,0.916975194006227,1118.194342939998,None,,,,,,,,,,,,,,,,,105,001,2023_May_24_1208,SpeechDraft1Carolyn_lessNoise_PlusLocalization,2021.2.3,59.97132806745184,
,,,,,,,,farLeft,-19.1,5,ch1Sound_localizationTask.wav,-19.1,"(667, 878)","(-293,-202)",-285,-338,,,,,,,,,1,6,13,0,,,,,,,,,,,,,,,,,,,,,,,,,,,,,,,,,,,,,,,,,,,,1119.127961641003,None,1120.2277930020064,None,1121.1610053769982,None,1.1846560846560847,0.5334518020099495,1121.1610053769982,None,,,,,,,,,,,,,,,,,105,001,2023_May_24_1208,SpeechDraft1Carolyn_lessNoise_PlusLocalization,2021.2.3,59.97132806745184,
,,,,,,,,midRight,13.0,3,ch1Sound_localizationTask.wav,13.0,"(1142, 878)","(182, -202)",190,-338,,,,,,,,,2,0,14,5,,,,,,,,,,,,,,,,,,,,,,,,,,,,,,,,,,,,,,,,,,,,1121.7114774950023,None,1122.810981622999,None,1123.7444267980027,None,1.1121693121693121,0.7669693960051518,1123.7444267980027,None,,,,,,,,,,,,,,,,,105,001,2023_May_24_1208,SpeechDraft1Carolyn_lessNoise_PlusLocalization,2021.2.3,59.97132806745184,
,,,,,,,,midLeft,-13.0,2,ch1Sound_localizationTask.wav,-13.0,"(762, 878)","(-198,-202)",-190,-338,,,,,,,,,2,1,15,1,,,,,,,,,,,,,,,,,,,,,,,,,,,,,,,,,,,,,,,,,,,,1124.5123124660022,None,1125.6276352889981,None,1126.5444269110012,None,1.0592592592592593,0.7832681400032016,1126.5444269110012,None,,,,,,,,,,,,,,,,,105,001,2023_May_24_1208,SpeechDraft1Carolyn_lessNoise_PlusLocalization,2021.2.3,59.97132806745184,
,,,,,,,,farRight,19.1,4,ch1Sound_localizationTask.wav,19.1,"(1237, 878)","(277,-202)",285,-338,,,,,,,,,2,2,16,6,,,,,,,,,,,,,,,,,,,,,,,,,,,,,,,,,,,,,,,,,,,,1127.3294884560019,None,1128.4443571909942,None,1129.361071760999,None,1.052910052910053,1.1172684500052128,1129.361071760999,None,,,,,,,,,,,,,,,,,105,001,2023_May_24_1208,SpeechDraft1Carolyn_lessNoise_PlusLocalization,2021.2.3,59.97132806745184,
,,,,,,,,center,0.0,6,ch1Sound_localizationTask.wav,0.0,"(952, 878)","(-8,-202)",0,-338,,,,,,,,,2,3,17,3,,,,,,,,,,,,,,,,,,,,,,,,,,,,,,,,,,,,,,,,,,,,1130.4945573489968,None,1131.5943141189928,None,1132.5277283460018,None,1.055026455026455,0.7998684720078018,1132.5277283460018,None,,,,,,,,,,,,,,,,,105,001,2023_May_24_1208,SpeechDraft1Carolyn_lessNoise_PlusLocalization,2021.2.3,59.97132806745184,
,,,,,,,,nearLeft,-6.5,1,ch1Sound_localizationTask.wav,-6.5,"(857, 878)","(-103,-202)",-95,-338,,,,,,,,,2,4,18,2,,,,,,,,,,,,,,,,,,,,,,,,,,,,,,,,,,,,,,,,,,,,1133.3283858089999,None,1134.4276229099924,None,1135.3611137219996,None,1.055026455026455,0.4830736930016428,1135.3611137219996,None,,,,,,,,,,,,,,,,,105,001,2023_May_24_1208,SpeechDraft1Carolyn_lessNoise_PlusLocalization,2021.2.3,59.97132806745184,
,,,,,,,,center,0.0,6,ch1Sound_localizationTask.wav,0.0,"(952, 878)","(-8,-202)",0,-338,,,,,,,,,2,5,19,3,,,,,,,,,,,,,,,,,,,,,,,,,,,,,,,,,,,,,,,,,,,,1135.846615729999,None,1136.961049673002,None,1137.8779008150013,None,1.0222222222222221,0.782383572004619,1137.8779008150013,None,,,,,,,,,,,,,,,,,105,001,2023_May_24_1208,SpeechDraft1Carolyn_lessNoise_PlusLocalization,2021.2.3,59.97132806745184,
,,,,,,,,center,0.0,6,ch1Sound_localizationTask.wav,0.0,"(952, 878)","(-8,-202)",0,-338,,,,,,,,,2,6,20,3,,,,,,,,,,,,,,,,,,,,,,,,,,,,,,,,,,,,,,,,,,,,1138.6613464410038,None,1139.7611374249973,None,1140.6944113869977,None,1.0227513227513227,0.500010250005289,1140.6944113869977,None,,,,,,,,,,,,,,,,,105,001,2023_May_24_1208,SpeechDraft1Carolyn_lessNoise_PlusLocalization,2021.2.3,59.97132806745184,
,,,,,,,,nearLeft,-6.5,1,ch1Sound_localizationTask.wav,-6.5,"(857, 878)","(-103,-202)",-95,-338,,,,,,,,,3,0,21,2,,,,,,,,,,,,,,,,,,,,,,,,,,,,,,,,,,,,,,,,,,,,1141.1962114829948,None,1142.3109438039974,None,1143.2277029179968,None,1.037037037037037,0.48343076700984966,1143.2277029179968,None,,,,,,,,,,,,,,,,,105,001,2023_May_24_1208,SpeechDraft1Carolyn_lessNoise_PlusLocalization,2021.2.3,59.97132806745184,
,,,,,,,,nearLeft,-6.5,1,ch1Sound_localizationTask.wav,-6.5,"(857, 878)","(-103,-202)",-95,-338,,,,,,,,,3,1,22,2,,,,,,,,,,,,,,,,,,,,,,,,,,,,,,,,,,,,,,,,,,,,1143.7281307800004,None,1144.8278514760023,None,1145.7610515559936,None,1.0322751322751322,0.5017157889960799,1145.7610515559936,None,,,,,,,,,,,,,,,,,105,001,2023_May_24_1208,SpeechDraft1Carolyn_lessNoise_PlusLocalization,2021.2.3,59.97132806745184,
,,,,,,,,center,0.0,6,ch1Sound_localizationTask.wav,0.0,"(952, 878)","(-8,-202)",0,-338,,,,,,,,,3,2,23,3,,,,,,,,,,,,,,,,,,,,,,,,,,,,,,,,,,,,,,,,,,,,1146.2780596079974,None,1147.3777508089988,None,1148.311032048994,None,1.0444444444444443,0.44964412500848994,1148.311032048994,None,,,,,,,,,,,,,,,,,105,001,2023_May_24_1208,SpeechDraft1Carolyn_lessNoise_PlusLocalization,2021.2.3,59.97132806745184,
,,,,,,,,nearRight,6.5,0,ch1Sound_localizationTask.wav,6.5,"(1047, 878)","(87, -202)",95,-338,,,,,,,,,3,3,24,4,,,,,,,,,,,,,,,,,,,,,,,,,,,,,,,,,,,,,,,,,,,,1148.7617803729954,None,1149.8611854860064,None,1150.7943644530023,None,1.0455026455026455,0.533136297002784,1150.7943644530023,None,,,,,,,,,,,,,,,,,105,001,2023_May_24_1208,SpeechDraft1Carolyn_lessNoise_PlusLocalization,2021.2.3,59.97132806745184,
,,,,,,,,center,0.0,6,ch1Sound_localizationTask.wav,0.0,"(952, 878)","(-8,-202)",0,-338,,,,,,,,,3,4,25,3,,,,,,,,,,,,,,,,,,,,,,,,,,,,,,,,,,,,,,,,,,,,1151.3284606270026,None,1152.4276526250032,None,1153.3609578519972,None,1.0465608465608467,0.5157201289985096,1153.3609578519972,None,,,,,,,,,,,,,,,,,105,001,2023_May_24_1208,SpeechDraft1Carolyn_lessNoise_PlusLocalization,2021.2.3,59.97132806745184,
,,,,,,,,nearRight,6.5,0,ch1Sound_localizationTask.wav,6.5,"(1047, 878)","(87, -202)",95,-338,,,,,,,,,3,5,26,4,,,,,,,,,,,,,,,,,,,,,,,,,,,,,,,,,,,,,,,,,,,,1153.8787585859973,None,1154.977684131998,None,1155.9108887610055,None,1.047089947089947,0.49955994699848816,1155.9108887610055,None,,,,,,,,,,,,,,,,,105,001,2023_May_24_1208,SpeechDraft1Carolyn_lessNoise_PlusLocalization,2021.2.3,59.97132806745184,
,,,,,,,,nearRight,6.5,0,ch1Sound_localizationTask.wav,6.5,"(1047, 878)","(87, -202)",95,-338,,,,,,,,,3,6,27,4,,,,,,,,,,,,,,,,,,,,,,,,,,,,,,,,,,,,,,,,,,,,1156.4115899330063,None,1157.510980252002,None,1158.4445348640002,None,1.193121693121693,2.6838587439997355,1158.4445348640002,None,,,,,,,,,,,,,,,,,105,001,2023_May_24_1208,SpeechDraft1Carolyn_lessNoise_PlusLocalization,2021.2.3,59.97132806745184,
,,,,,,,,nearRight,6.5,0,ch1Sound_localizationTask.wav,6.5,"(1047, 878)","(87, -202)",95,-338,,,,,,,,,4,0,28,4,,,,,,,,,,,,,,,,,,,,,,,,,,,,,,,,,,,,,,,,,,,,1161.1448131109937,None,1162.2444345160038,None,1163.1778314749972,None,1.2222222222222223,0.0320653809903888,1163.1778314749972,None,,,,,,,,,,,,,,,,,105,001,2023_May_24_1208,SpeechDraft1Carolyn_lessNoise_PlusLocalization,2021.2.3,59.97132806745184,
,,,,,,,,midRight,13.0,3,ch1Sound_localizationTask.wav,13.0,"(1142, 878)","(182, -202)",190,-338,,,,,,,,,4,1,29,5,,,,,,,,,,,,,,,,,,,,,,,,,,,,,,,,,,,,,,,,,,,,1163.2115417909954,None,1164.3109633580025,None,1165.2444174389966,None,1.2222222222222223,0.3658336840017,1165.2444174389966,None,,,,,,,,,,,,,,,,,105,001,2023_May_24_1208,SpeechDraft1Carolyn_lessNoise_PlusLocalization,2021.2.3,59.97132806745184,
,,,,,,,,farRight,19.1,4,ch1Sound_localizationTask.wav,19.1,"(1237, 878)","(277,-202)",285,-338,,,,,,,,,4,2,30,6,,,,,,,,,,,,,,,,,,,,,,,,,,,,,,,,,,,,,,,,,,,,1165.6116606809956,None,1166.7111150800047,None,1167.6443420540018,None,1.2222222222222223,0.6836140439991141,1167.6443420540018,None,,,,,,,,,,,,,,,,,105,001,2023_May_24_1208,SpeechDraft1Carolyn_lessNoise_PlusLocalization,2021.2.3,59.97132806745184,
,,,,,,,,midLeft,-13.0,2,ch1Sound_localizationTask.wav,-13.0,"(762, 878)","(-198,-202)",-190,-338,,,,,,,,,4,3,31,1,,,,,,,,,,,,,,,,,,,,,,,,,,,,,,,,,,,,,,,,,,,,1168.345454852999,None,1169.4445695930044,None,1170.377719134005,None,1.2222222222222223,0.5001744070032146,1170.377719134005,None,,,,,,,,,,,,,,,,,105,001,2023_May_24_1208,SpeechDraft1Carolyn_lessNoise_PlusLocalization,2021.2.3,59.97132806745184,
,,,,,,,,nearLeft,-6.5,1,ch1Sound_localizationTask.wav,-6.5,"(857, 878)","(-103,-202)",-95,-338,,,,,,,,,4,4,32,2,,,,,,,,,,,,,,,,,,,,,,,,,,,,,,,,,,,,,,,,,,,,1170.8790289930039,None,1171.9777524810052,None,1172.9109758999984,None,1.2232804232804233,0.9327025460079312,1172.9109758999984,None,,,,,,,,,,,,,,,,,105,001,2023_May_24_1208,SpeechDraft1Carolyn_lessNoise_PlusLocalization,2021.2.3,59.97132806745184,
,,,,,,,,nearRight,6.5,0,ch1Sound_localizationTask.wav,6.5,"(1047, 878)","(87, -202)",95,-338,,,,,,,,,4,5,33,4,,,,,,,,,,,,,,,,,,,,,,,,,,,,,,,,,,,,,,,,,,,,1173.8469448889955,None,1174.961055149004,None,1175.8778638299991,None,1.2232804232804233,0.4155226940056309,1175.8778638299991,None,,,,,,,,,,,,,,,,,105,001,2023_May_24_1208,SpeechDraft1Carolyn_lessNoise_PlusLocalization,2021.2.3,59.97132806745184,
,,,,,,,,midRight,13.0,3,ch1Sound_localizationTask.wav,13.0,"(1142, 878)","(182, -202)",190,-338,,,,,,,,,4,6,34,5,,,,,,,,,,,,,,,,,,,,,,,,,,,,,,,,,,,,,,,,,,,,1176.2947876800026,None,1177.3944925560063,None,1178.3275640249922,None,1.2232804232804233,0.5489088949980214,1178.3275640249922,None,,,,,,,,,,,,,,,,,105,001,2023_May_24_1208,SpeechDraft1Carolyn_lessNoise_PlusLocalization,2021.2.3,59.97132806745184,
,,,,,,,,midLeft,-13.0,2,ch1Sound_localizationTask.wav,-13.0,"(762, 878)","(-198,-202)",-190,-338,,,,,,,,,5,0,35,1,,,,,,,,,,,,,,,,,,,,,,,,,,,,,,,,,,,,,,,,,,,,1178.8785724140034,None,1179.9777138089994,None,1180.9111186389928,None,1.2232804232804233,0.5156480820005527,1180.9111186389928,None,,,,,,,,,,,,,,,,,105,001,2023_May_24_1208,SpeechDraft1Carolyn_lessNoise_PlusLocalization,2021.2.3,59.97132806745184,
,,,,,,,,midLeft,-13.0,2,ch1Sound_localizationTask.wav,-13.0,"(762, 878)","(-198,-202)",-190,-338,,,,,,,,,5,1,36,1,,,,,,,,,,,,,,,,,,,,,,,,,,,,,,,,,,,,,,,,,,,,1181.4281325990014,None,1182.5279183599923,None,1183.461068428005,None,1.223809523809524,0.48361395800020546,1183.461068428005,None,,,,,,,,,,,,,,,,,105,001,2023_May_24_1208,SpeechDraft1Carolyn_lessNoise_PlusLocalization,2021.2.3,59.97132806745184,
,,,,,,,,nearRight,6.5,0,ch1Sound_localizationTask.wav,6.5,"(1047, 878)","(87, -202)",95,-338,,,,,,,,,5,2,37,4,,,,,,,,,,,,,,,,,,,,,,,,,,,,,,,,,,,,,,,,,,,,1183.9613474450016,None,1185.0611942359974,None,1185.9944334169995,None,1.2555555555555555,0.649779892002698,1185.9944334169995,None,,,,,,,,,,,,,,,,,105,001,2023_May_24_1208,SpeechDraft1Carolyn_lessNoise_PlusLocalization,2021.2.3,59.97132806745184,
,,,,,,,,nearRight,6.5,0,ch1Sound_localizationTask.wav,6.5,"(1047, 878)","(87, -202)",95,-338,,,,,,,,,5,3,38,4,,,,,,,,,,,,,,,,,,,,,,,,,,,,,,,,,,,,,,,,,,,,1186.6615447619988,None,1187.7610755770002,None,1188.694473206997,None,1.2513227513227514,0.6835757390072104,1188.694473206997,None,,,,,,,,,,,,,,,,,105,001,2023_May_24_1208,SpeechDraft1Carolyn_lessNoise_PlusLocalization,2021.2.3,59.97132806745184,
,,,,,,,,midLeft,-13.0,2,ch1Sound_localizationTask.wav,-13.0,"(762, 878)","(-198,-202)",-190,-338,,,,,,,,,5,4,39,1,,,,,,,,,,,,,,,,,,,,,,,,,,,,,,,,,,,,,,,,,,,,1189.3793638159987,None,1190.4944025659934,None,1191.4111167060037,None,1.2513227513227514,0.5162741420062957,1191.4111167060037,None,,,,,,,,,,,,,,,,,105,001,2023_May_24_1208,SpeechDraft1Carolyn_lessNoise_PlusLocalization,2021.2.3,59.97132806745184,
,,,,,,,,farRight,19.1,4,ch1Sound_localizationTask.wav,19.1,"(1237, 878)","(277,-202)",285,-338,,,,,,,,,5,5,40,6,,,,,,,,,,,,,,,,,,,,,,,,,,,,,,,,,,,,,,,,,,,,1191.9286280259985,None,1193.0277240519936,None,1193.9612012019934,None,1.2513227513227514,0.5159206160024041,1193.9612012019934,None,,,,,,,,,,,,,,,,,105,001,2023_May_24_1208,SpeechDraft1Carolyn_lessNoise_PlusLocalization,2021.2.3,59.97132806745184,
,,,,,,,,farRight,19.1,4,ch1Sound_localizationTask.wav,19.1,"(1237, 878)","(277,-202)",285,-338,,,,,,,,,5,6,41,6,,,,,,,,,,,,,,,,,,,,,,,,,,,,,,,,,,,,,,,,,,,,1194.4784364789957,None,1195.5777593520033,None,1196.511154673004,None,1.2513227513227514,0.29994574800366536,1196.511154673004,None,,,,,,,,,,,,,,,,,105,001,2023_May_24_1208,SpeechDraft1Carolyn_lessNoise_PlusLocalization,2021.2.3,59.97132806745184,
,,,,,,,,midRight,13.0,3,ch1Sound_localizationTask.wav,13.0,"(1142, 878)","(182, -202)",190,-338,,,,,,,,,6,0,42,5,,,,,,,,,,,,,,,,,,,,,,,,,,,,,,,,,,,,,,,,,,,,1196.8281239030039,None,1197.9277374840021,None,1198.8612288930017,None,1.2513227513227514,0.9969551099929959,1198.8612288930017,None,,,,,,,,,,,,,,,,,105,001,2023_May_24_1208,SpeechDraft1Carolyn_lessNoise_PlusLocalization,2021.2.3,59.97132806745184,
,,,,,,,,farLeft,-19.1,5,ch1Sound_localizationTask.wav,-19.1,"(667, 878)","(-293,-202)",-285,-338,,,,,,,,,6,1,43,0,,,,,,,,,,,,,,,,,,,,,,,,,,,,,,,,,,,,,,,,,,,,1199.862075308003,None,1200.961037482004,None,1201.8945988310006,None,1.2449735449735448,0.7829213779914426,1201.8945988310006,None,,,,,,,,,,,,,,,,,105,001,2023_May_24_1208,SpeechDraft1Carolyn_lessNoise_PlusLocalization,2021.2.3,59.97132806745184,
,,,,,,,,farLeft,-19.1,5,ch1Sound_localizationTask.wav,-19.1,"(667, 878)","(-293,-202)",-285,-338,,,,,,,,,6,2,44,0,,,,,,,,,,,,,,,,,,,,,,,,,,,,,,,,,,,,,,,,,,,,1202.6789175510057,None,1203.777801941993,None,1204.711187641995,None,1.2449735449735448,0.6992221879918361,1204.711187641995,None,,,,,,,,,,,,,,,,,105,001,2023_May_24_1208,SpeechDraft1Carolyn_lessNoise_PlusLocalization,2021.2.3,59.97132806745184,
,,,,,,,,nearRight,6.5,0,ch1Sound_localizationTask.wav,6.5,"(1047, 878)","(87, -202)",95,-338,,,,,,,,,6,3,45,4,,,,,,,,,,,,,,,,,,,,,,,,,,,,,,,,,,,,,,,,,,,,1205.4117549140065,None,1206.5112647359929,None,1207.444577606002,None,1.2449735449735448,0.516482968989294,1207.444577606002,None,,,,,,,,,,,,,,,,,105,001,2023_May_24_1208,SpeechDraft1Carolyn_lessNoise_PlusLocalization,2021.2.3,59.97132806745184,
,,,,,,,,center,0.0,6,ch1Sound_localizationTask.wav,0.0,"(952, 878)","(-8,-202)",0,-338,,,,,,,,,6,4,46,3,,,,,,,,,,,,,,,,,,,,,,,,,,,,,,,,,,,,,,,,,,,,1207.9618127699941,None,1209.0610935360019,None,1209.9946094329935,None,1.2449735449735448,1.2482437030121218,1209.9946094329935,None,,,,,,,,,,,,,,,,,105,001,2023_May_24_1208,SpeechDraft1Carolyn_lessNoise_PlusLocalization,2021.2.3,59.97132806745184,
,,,,,,,,farRight,19.1,4,ch1Sound_localizationTask.wav,19.1,"(1237, 878)","(277,-202)",285,-338,,,,,,,,,6,5,47,6,,,,,,,,,,,,,,,,,,,,,,,,,,,,,,,,,,,,,,,,,,,,1211.2446928029967,None,1212.344551340997,None,1213.2778121619922,None,1.2449735449735448,1.933964587005903,1213.2778121619922,None,,,,,,,,,,,,,,,,,105,001,2023_May_24_1208,SpeechDraft1Carolyn_lessNoise_PlusLocalization,2021.2.3,59.97132806745184,
,,,,,,,,farLeft,-19.1,5,ch1Sound_localizationTask.wav,-19.1,"(667, 878)","(-293,-202)",-285,-338,,,,,,,,,6,6,48,0,,,,,,,,,,,,,,,,,,,,,,,,,,,,,,,,,,,,,,,,,,,,1215.2281499380042,None,1216.3277853960026,None,1217.2611123509996,None,1.2449735449735448,0.483106872998178,1217.2611123509996,None,,,,,,,,,,,,,,,,,105,001,2023_May_24_1208,SpeechDraft1Carolyn_lessNoise_PlusLocalization,2021.2.3,59.97132806745184,
,,,,,,,,farLeft,-19.1,5,ch1Sound_localizationTask.wav,-19.1,"(667, 878)","(-293,-202)",-285,-338,,,,,,,,,7,0,49,0,,,,,,,,,,,,,,,,,,,,,,,,,,,,,,,,,,,,,,,,,,,,1217.7450715960003,None,1218.844425399002,None,1219.7778550039948,None,1.3830687830687831,0.9663345070002833,1219.7778550039948,None,,,,,,,,,,,,,,,,,105,001,2023_May_24_1208,SpeechDraft1Carolyn_lessNoise_PlusLocalization,2021.2.3,59.97132806745184,
,,,,,,,,midRight,13.0,3,ch1Sound_localizationTask.wav,13.0,"(1142, 878)","(182, -202)",190,-338,,,,,,,,,7,1,50,5,,,,,,,,,,,,,,,,,,,,,,,,,,,,,,,,,,,,,,,,,,,,1220.7615279570018,None,1221.8612129660032,None,1222.7943818460044,None,1.384126984126984,0.5003650349972304,1222.7943818460044,None,,,,,,,,,,,,,,,,,105,001,2023_May_24_1208,SpeechDraft1Carolyn_lessNoise_PlusLocalization,2021.2.3,59.97132806745184,
,,,,,,,,nearLeft,-6.5,1,ch1Sound_localizationTask.wav,-6.5,"(857, 878)","(-103,-202)",-95,-338,,,,,,,,,7,2,51,2,,,,,,,,,,,,,,,,,,,,,,,,,,,,,,,,,,,,,,,,,,,,1223.3112225969962,None,1224.411240143003,None,1225.3445417509938,None,1.3846560846560847,0.5336777579941554,1225.3445417509938,None,,,,,,,,,,,,,,,,,105,001,2023_May_24_1208,SpeechDraft1Carolyn_lessNoise_PlusLocalization,2021.2.3,59.97132806745184,
,,,,,,,,midLeft,-13.0,2,ch1Sound_localizationTask.wav,-13.0,"(762, 878)","(-198,-202)",-190,-338,,,,,,,,,7,3,52,1,,,,,,,,,,,,,,,,,,,,,,,,,,,,,,,,,,,,,,,,,,,,1225.8796341029956,None,1226.9944315439934,None,1227.9112724309962,None,1.3857142857142857,0.5185657940019155,1227.9112724309962,None,,,,,,,,,,,,,,,,,105,001,2023_May_24_1208,SpeechDraft1Carolyn_lessNoise_PlusLocalization,2021.2.3,59.97132806745184,
,,,,,,,,nearLeft,-6.5,1,ch1Sound_localizationTask.wav,-6.5,"(857, 878)","(-103,-202)",-95,-338,,,,,,,,,7,4,53,2,,,,,,,,,,,,,,,,,,,,,,,,,,,,,,,,,,,,,,,,,,,,1228.444738981998,None,1229.5443776549946,None,1230.4779210129927,None,1.2380952380952381,0.950652881001588,1230.4779210129927,None,,,,,,,,,,,,,,,,,105,001,2023_May_24_1208,SpeechDraft1Carolyn_lessNoise_PlusLocalization,2021.2.3,59.97132806745184,
,,,,,,,,farLeft,-19.1,5,ch1Sound_localizationTask.wav,-19.1,"(667, 878)","(-293,-202)",-285,-338,,,,,,,,,7,5,54,0,,,,,,,,,,,,,,,,,,,,,,,,,,,,,,,,,,,,,,,,,,,,1231.4446872650005,None,1232.5445027090027,None,1233.4777387600043,None,1.3391534391534392,0.4333840280014556,1233.4777387600043,None,,,,,,,,,,,,,,,,,105,001,2023_May_24_1208,SpeechDraft1Carolyn_lessNoise_PlusLocalization,2021.2.3,59.97132806745184,
,,,,,,,,nearLeft,-6.5,1,ch1Sound_localizationTask.wav,-6.5,"(857, 878)","(-103,-202)",-95,-338,,,,,,,,,7,6,55,2,,,,,,,,,,,,,,,,,,,,,,,,,,,,,,,,,,,,,,,,,,,,1233.928152544002,None,1235.0278213290003,None,1235.9613412000035,None,1.2354497354497354,0.6828836829954525,1235.9613412000035,None,,,,,,,,,,,,,,,,,105,001,2023_May_24_1208,SpeechDraft1Carolyn_lessNoise_PlusLocalization,2021.2.3,59.97132806745184,
,,,,,,,,,,,,,,,,,,,,,,,,,,,,,,,,,,,,,,,,,,,,,,,,,,,,,,,,,,,,,,,,,,,,,,,,,,,,,,,,,,space,12.406521960001555,1236.7281824310048,None,,,,,,,,,,,,,105,001,2023_May_24_1208,SpeechDraft1Carolyn_lessNoise_PlusLocalization,2021.2.3,59.97132806745184,
,,,,,,,,farRight,19.1,4,ch1Sound_localizationTask.wav,19.1,"(1237, 878)","(277,-202)",285,-338,,,,,,,,,,,,,0,0,0,6,,,,,,,,,,,,,,,,,,,,,,,,,,,,,,,,,,,,,,,,1249.1777500570024,None,,,1252.2110916439997,None,1.6222222222222222,2.0692936229897896,1252.2110916439997,None,,,,,1236.7281824310048,None,1250.1781261979922,None,1250.3614347900002,1250.378251653994,,,,,,,105,001,2023_May_24_1208,SpeechDraft1Carolyn_lessNoise_PlusLocalization,2021.2.3,59.97132806745184,
,,,,,,,,midLeft,-13.0,2,ch1Sound_localizationTask.wav,-13.0,"(762, 878)","(-198,-202)",-190,-338,,,,,,,,,,,,,0,1,1,1,,,,,,,,,,,,,,,,,,,,,,,,,,,,,,,,,,,,,,,,1254.2789778129954,None,,,1257.2945454690052,None,1.4058201058201059,0.7990909579966683,1257.2945454690052,None,,,,,,,1255.2780429169943,None,1255.4613335460017,1255.4781043749972,,,,,,,105,001,2023_May_24_1208,SpeechDraft1Carolyn_lessNoise_PlusLocalization,2021.2.3,59.97132806745184,
,,,,,,,,farLeft,-19.1,5,ch1Sound_localizationTask.wav,-19.1,"(667, 878)","(-293,-202)",-285,-338,,,,,,,,,,,,,0,2,2,0,,,,,,,,,,,,,,,,,,,,,,,,,,,,,,,,,,,,,,,,1258.1115595919982,None,,,1261.1279230310029,None,1.3465608465608465,0.9480456089950167,1261.1279230310029,None,,,,,,,1259.1114738350007,None,1259.2947775670036,1259.3114667290065,,,,,,,105,001,2023_May_24_1208,SpeechDraft1Carolyn_lessNoise_PlusLocalization,2021.2.3,59.97132806745184,
,,,,,,,,midLeft,-13.0,2,ch1Sound_localizationTask.wav,-13.0,"(762, 878)","(-198,-202)",-190,-338,,,,,,,,,,,,,0,3,3,1,,,,,,,,,,,,,,,,,,,,,,,,,,,,,,,,,,,,,,,,1262.0783552229987,None,,,1265.0944817069976,None,1.3984126984126983,0.8321284879930317,1265.0944817069976,None,,,,,,,1263.0780201479938,None,1263.2615017839998,1263.2780364280043,,,,,,,105,001,2023_May_24_1208,SpeechDraft1Carolyn_lessNoise_PlusLocalization,2021.2.3,59.97132806745184,
,,,,,,,,midRight,13.0,3,ch1Sound_localizationTask.wav,13.0,"(1142, 878)","(182, -202)",190,-338,,,,,,,,,,,,,0,4,4,5,,,,,,,,,,,,,,,,,,,,,,,,,,,,,,,,,,,,,,,,1265.9289193419972,None,,,1268.944647679993,None,1.6169312169312169,1.2647685529955197,1268.944647679993,None,,,,,,,1266.9281293759996,None,1267.111379740003,1267.128049823994,,,,,,,105,001,2023_May_24_1208,SpeechDraft1Carolyn_lessNoise_PlusLocalization,2021.2.3,59.97132806745184,
,,,,,,,,midLeft,-13.0,2,ch1Sound_localizationTask.wav,-13.0,"(762, 878)","(-198,-202)",-190,-338,,,,,,,,,,,,,0,5,5,1,,,,,,,,,,,,,,,,,,,,,,,,,,,,,,,,,,,,,,,,1270.2122141739965,None,,,1273.2279715790064,None,1.3592592592592592,1.1530462649971014,1273.2279715790064,None,,,,,,,1271.2113725819945,None,1271.3947400530014,1271.4115016989963,,,,,,,105,001,2023_May_24_1208,SpeechDraft1Carolyn_lessNoise_PlusLocalization,2021.2.3,59.97132806745184,
,,,,,,,,midLeft,-13.0,2,ch1Sound_localizationTask.wav,-13.0,"(762, 878)","(-198,-202)",-190,-338,,,,,,,,,,,,,0,6,6,1,,,,,,,,,,,,,,,,,,,,,,,,,,,,,,,,,,,,,,,,1274.395424952003,None,,,1277.4112519269984,None,1.364021164021164,1.0007868190004956,1277.4112519269984,None,,,,,,,1275.394683060993,None,1275.578089942006,1275.5948516630015,,,,,,,105,001,2023_May_24_1208,SpeechDraft1Carolyn_lessNoise_PlusLocalization,2021.2.3,59.97132806745184,
,,,,,,,,center,0.0,6,ch1Sound_localizationTask.wav,0.0,"(952, 878)","(-8,-202)",0,-338,,,,,,,,,,,,,1,0,7,3,,,,,,,,,,,,,,,,,,,,,,,,,,,,,,,,,,,,,,,,1278.4283371519996,None,,,1281.4445836520026,None,1.48994708994709,1.0996234729973366,1281.4445836520026,None,,,,,,,1279.4280627599946,None,1279.6114419600053,1279.6281609330035,,,,,,,105,001,2023_May_24_1208,SpeechDraft1Carolyn_lessNoise_PlusLocalization,2021.2.3,59.97132806745184,
,,,,,,,,farRight,19.1,4,ch1Sound_localizationTask.wav,19.1,"(1237, 878)","(277,-202)",285,-338,,,,,,,,,,,,,1,1,8,6,,,,,,,,,,,,,,,,,,,,,,,,,,,,,,,,,,,,,,,,1282.5616352499928,None,,,1285.578059708001,None,1.6656084656084655,1.1001242140046088,1285.578059708001,None,,,,,,,1283.5615324389946,None,1283.7448410009965,1283.761520878994,,,,,,,105,001,2023_May_24_1208,SpeechDraft1Carolyn_lessNoise_PlusLocalization,2021.2.3,59.97132806745184,
,,,,,,,,farRight,19.1,4,ch1Sound_localizationTask.wav,19.1,"(1237, 878)","(277,-202)",285,-338,,,,,,,,,,,,,1,2,9,6,,,,,,,,,,,,,,,,,,,,,,,,,,,,,,,,,,,,,,,,1286.6949899119936,None,,,1289.7113108810008,None,1.6566137566137566,1.0521705589926569,1289.7113108810008,None,,,,,,,1287.6948063199961,None,1287.878135595005,1287.894735584996,,,,,,,105,001,2023_May_24_1208,SpeechDraft1Carolyn_lessNoise_PlusLocalization,2021.2.3,59.97132806745184,
,,,,,,,,midRight,13.0,3,ch1Sound_localizationTask.wav,13.0,"(1142, 878)","(182, -202)",190,-338,,,,,,,,,,,,,1,3,10,5,,,,,,,,,,,,,,,,,,,,,,,,,,,,,,,,,,,,,,,,1290.7782032899995,None,,,1293.7946541629935,None,1.6148148148148147,0.9827587979962118,1293.7946541629935,None,,,,,,,1291.7782005579938,None,1291.961534585993,1291.9781455539924,,,,,,,105,001,2023_May_24_1208,SpeechDraft1Carolyn_lessNoise_PlusLocalization,2021.2.3,59.97132806745184,
,,,,,,,,midRight,13.0,3,ch1Sound_localizationTask.wav,13.0,"(1142, 878)","(182, -202)",190,-338,,,,,,,,,,,,,1,4,11,5,,,,,,,,,,,,,,,,,,,,,,,,,,,,,,,,,,,,,,,,1294.7951998520002,None,,,1297.8112563079922,None,1.6137566137566137,0.9338742920081131,1297.8112563079922,None,,,,,,,1295.7948400540045,None,1295.978303736003,1295.9947910820047,,,,,,,105,001,2023_May_24_1208,SpeechDraft1Carolyn_lessNoise_PlusLocalization,2021.2.3,59.97132806745184,
,,,,,,,,farLeft,-19.1,5,ch1Sound_localizationTask.wav,-19.1,"(667, 878)","(-293,-202)",-285,-338,,,,,,,,,,,,,1,5,12,0,,,,,,,,,,,,,,,,,,,,,,,,,,,,,,,,,,,,,,,,1298.7615751459962,None,,,1301.7779490620014,None,1.3005291005291006,1.0170730559912045,1301.7779490620014,None,,,,,,,1299.7614362250024,None,1299.944957611995,1299.961478394005,,,,,,,105,001,2023_May_24_1208,SpeechDraft1Carolyn_lessNoise_PlusLocalization,2021.2.3,59.97132806745184,
,,,,,,,,center,0.0,6,ch1Sound_localizationTask.wav,0.0,"(952, 878)","(-8,-202)",0,-338,,,,,,,,,,,,,1,6,13,3,,,,,,,,,,,,,,,,,,,,,,,,,,,,,,,,,,,,,,,,1302.8115232139971,None,,,1305.8278556849982,None,1.5164021164021164,0.9159046989952913,1305.8278556849982,None,,,,,,,1303.8115295720054,None,1303.994891854003,1304.0116329239972,,,,,,,105,001,2023_May_24_1208,SpeechDraft1Carolyn_lessNoise_PlusLocalization,2021.2.3,59.97132806745184,
,,,,,,,,farLeft,-19.1,5,ch1Sound_localizationTask.wav,-19.1,"(667, 878)","(-293,-202)",-285,-338,,,,,,,,,,,,,2,0,14,0,,,,,,,,,,,,,,,,,,,,,,,,,,,,,,,,,,,,,,,,1306.7460335299984,None,,,1309.7779515479924,None,1.3052910052910054,1.0828080779901939,1309.7779515479924,None,,,,,,,1307.7614930650016,None,1307.9448994889972,1307.9615960319934,,,,,,,105,001,2023_May_24_1208,SpeechDraft1Carolyn_lessNoise_PlusLocalization,2021.2.3,59.97132806745184,
,,,,,,,,farLeft,-19.1,5,ch1Sound_localizationTask.wav,-19.1,"(667, 878)","(-293,-202)",-285,-338,,,,,,,,,,,,,2,1,15,0,,,,,,,,,,,,,,,,,,,,,,,,,,,,,,,,,,,,,,,,1310.8781828490028,None,,,1313.8947070550057,None,1.331216931216931,0.93353673099773,1313.8947070550057,None,,,,,,,1311.8781483019993,None,1312.0615618839947,1312.0781594620057,,,,,,,105,001,2023_May_24_1208,SpeechDraft1Carolyn_lessNoise_PlusLocalization,2021.2.3,59.97132806745184,
,,,,,,,,midRight,13.0,3,ch1Sound_localizationTask.wav,13.0,"(1142, 878)","(182, -202)",190,-338,,,,,,,,,,,,,2,2,16,5,,,,,,,,,,,,,,,,,,,,,,,,,,,,,,,,,,,,,,,,1314.8449258750043,None,,,1317.8612491279928,None,1.6005291005291005,1.0656942570058163,1317.8612491279928,None,,,,,,,1315.844989182995,None,1316.028360583994,1316.0449093310017,,,,,,,105,001,2023_May_24_1208,SpeechDraft1Carolyn_lessNoise_PlusLocalization,2021.2.3,59.97132806745184,
,,,,,,,,center,0.0,6,ch1Sound_localizationTask.wav,0.0,"(952, 878)","(-8,-202)",0,-338,,,,,,,,,,,,,2,3,17,3,,,,,,,,,,,,,,,,,,,,,,,,,,,,,,,,,,,,,,,,1318.9449341949949,None,,,1321.9614345620066,None,1.506878306878307,0.9990697530010948,1321.9614345620066,None,,,,,,,1319.944905790995,None,1320.128272515998,1320.1448565600003,,,,,,,105,001,2023_May_24_1208,SpeechDraft1Carolyn_lessNoise_PlusLocalization,2021.2.3,59.97132806745184,
,,,,,,,,nearRight,6.5,0,ch1Sound_localizationTask.wav,6.5,"(1047, 878)","(87, -202)",95,-338,,,,,,,,,,,,,2,4,18,4,,,,,,,,,,,,,,,,,,,,,,,,,,,,,,,,,,,,,,,,1322.9781623000017,None,,,1325.9946326289937,None,1.5656084656084657,0.9490396760083968,1325.9946326289937,None,,,,,,,1323.9782479099958,None,1324.1615713380015,1324.178265390001,,,,,,,105,001,2023_May_24_1208,SpeechDraft1Carolyn_lessNoise_PlusLocalization,2021.2.3,59.97132806745184,
,,,,,,,,midRight,13.0,3,ch1Sound_localizationTask.wav,13.0,"(1142, 878)","(182, -202)",190,-338,,,,,,,,,,,,,2,5,19,5,,,,,,,,,,,,,,,,,,,,,,,,,,,,,,,,,,,,,,,,1326.9453990570037,None,,,1329.9614098029997,None,1.6052910052910052,0.5996289840113604,1329.9614098029997,None,,,,,,,1327.9448823349958,None,1328.1281658450025,1328.1448647649959,,,,,,,105,001,2023_May_24_1208,SpeechDraft1Carolyn_lessNoise_PlusLocalization,2021.2.3,59.97132806745184,
,,,,,,,,farRight,19.1,4,ch1Sound_localizationTask.wav,19.1,"(1237, 878)","(277,-202)",285,-338,,,,,,,,,,,,,2,6,20,6,,,,,,,,,,,,,,,,,,,,,,,,,,,,,,,,,,,,,,,,1330.5785538320051,None,,,1333.5947722010023,None,1.6423280423280424,0.86610352799471,1333.5947722010023,None,,,,,,,1331.5784078699944,None,1331.761556063997,1331.7783972820034,,,,,,,105,001,2023_May_24_1208,SpeechDraft1Carolyn_lessNoise_PlusLocalization,2021.2.3,59.97132806745184,
,,,,,,,,nearLeft,-6.5,1,ch1Sound_localizationTask.wav,-6.5,"(857, 878)","(-103,-202)",-95,-338,,,,,,,,,,,,,3,0,21,2,,,,,,,,,,,,,,,,,,,,,,,,,,,,,,,,,,,,,,,,1334.4628800409992,None,,,1337.4945715399954,None,1.4216931216931217,0.9992127869918477,1337.4945715399954,None,,,,,,,1335.4783058689936,None,1335.661685693005,1335.6782865949936,,,,,,,105,001,2023_May_24_1208,SpeechDraft1Carolyn_lessNoise_PlusLocalization,2021.2.3,59.97132806745184,
,,,,,,,,nearLeft,-6.5,1,ch1Sound_localizationTask.wav,-6.5,"(857, 878)","(-103,-202)",-95,-338,,,,,,,,,,,,,3,1,22,2,,,,,,,,,,,,,,,,,,,,,,,,,,,,,,,,,,,,,,,,1338.4959049939935,None,,,1341.5280862770014,None,1.4423280423280422,1.0321420840045903,1341.5280862770014,None,,,,,,,1339.5115724250063,None,1339.6948942390009,1339.7117479040026,,,,,,,105,001,2023_May_24_1208,SpeechDraft1Carolyn_lessNoise_PlusLocalization,2021.2.3,59.97132806745184,
,,,,,,,,nearLeft,-6.5,1,ch1Sound_localizationTask.wav,-6.5,"(857, 878)","(-103,-202)",-95,-338,,,,,,,,,,,,,3,2,23,2,,,,,,,,,,,,,,,,,,,,,,,,,,,,,,,,,,,,,,,,1342.5621459039976,None,,,1345.5781523049955,None,1.4407407407407407,0.8992997159948573,1345.5781523049955,None,,,,,,,1343.5619189249992,None,1343.7451614559977,1343.7615958740062,,,,,,,105,001,2023_May_24_1208,SpeechDraft1Carolyn_lessNoise_PlusLocalization,2021.2.3,59.97132806745184,
,,,,,,,,nearLeft,-6.5,1,ch1Sound_localizationTask.wav,-6.5,"(857, 878)","(-103,-202)",-95,-338,,,,,,,,,,,,,3,3,24,2,,,,,,,,,,,,,,,,,,,,,,,,,,,,,,,,,,,,,,,,1346.4788247459946,None,,,1349.494639327997,None,1.4576719576719577,0.7340496490069199,1349.494639327997,None,,,,,,,1347.4783452129923,None,1347.6614874709921,1347.6782861539978,,,,,,,105,001,2023_May_24_1208,SpeechDraft1Carolyn_lessNoise_PlusLocalization,2021.2.3,59.97132806745184,
,,,,,,,,midRight,13.0,3,ch1Sound_localizationTask.wav,13.0,"(1142, 878)","(182, -202)",190,-338,,,,,,,,,,,,,3,4,25,5,,,,,,,,,,,,,,,,,,,,,,,,,,,,,,,,,,,,,,,,1350.2449418100005,None,,,1353.2612786359969,None,1.6047619047619048,0.9649673170060851,1353.2612786359969,None,,,,,,,1351.2448058129958,None,1351.4281588629965,1351.4448406979936,,,,,,,105,001,2023_May_24_1208,SpeechDraft1Carolyn_lessNoise_PlusLocalization,2021.2.3,59.97132806745184,
,,,,,,,,farLeft,-19.1,5,ch1Sound_localizationTask.wav,-19.1,"(667, 878)","(-293,-202)",-285,-338,,,,,,,,,,,,,3,5,26,0,,,,,,,,,,,,,,,,,,,,,,,,,,,,,,,,,,,,,,,,1354.2285291299922,None,,,1357.2448633669992,None,1.3291005291005291,0.6815668119961629,1357.2448633669992,None,,,,,,,1355.2283609529986,None,1355.4115493919962,1355.4280798700056,,,,,,,105,001,2023_May_24_1208,SpeechDraft1Carolyn_lessNoise_PlusLocalization,2021.2.3,59.97132806745184,
,,,,,,,,farLeft,-19.1,5,ch1Sound_localizationTask.wav,-19.1,"(667, 878)","(-293,-202)",-285,-338,,,,,,,,,,,,,3,6,27,0,,,,,,,,,,,,,,,,,,,,,,,,,,,,,,,,,,,,,,,,1357.9285621029994,None,,,1360.9449109039997,None,1.3322751322751323,1.0316064520011423,1360.9449109039997,None,,,,,,,1358.928143779005,None,1359.1115426489996,1359.1282209310011,,,,,,,105,001,2023_May_24_1208,SpeechDraft1Carolyn_lessNoise_PlusLocalization,2021.2.3,59.97132806745184,
,,,,,,,,midLeft,-13.0,2,ch1Sound_localizationTask.wav,-13.0,"(762, 878)","(-198,-202)",-190,-338,,,,,,,,,,,,,4,0,28,1,,,,,,,,,,,,,,,,,,,,,,,,,,,,,,,,,,,,,,,,1361.9798242010002,None,,,1365.011297545003,None,1.397883597883598,0.899246586006484,1365.011297545003,None,,,,,,,1362.9949587459996,None,1363.1783014200046,1363.1948105990014,,,,,,,105,001,2023_May_24_1208,SpeechDraft1Carolyn_lessNoise_PlusLocalization,2021.2.3,59.97132806745184,
,,,,,,,,center,0.0,6,ch1Sound_localizationTask.wav,0.0,"(952, 878)","(-8,-202)",0,-338,,,,,,,,,,,,,4,1,29,3,,,,,,,,,,,,,,,,,,,,,,,,,,,,,,,,,,,,,,,,1365.9129036910017,None,,,1368.944700138003,None,1.5052910052910053,1.000139081996167,1368.944700138003,None,,,,,,,1366.928231059006,None,1367.111585695995,1367.1283107769996,,,,,,,105,001,2023_May_24_1208,SpeechDraft1Carolyn_lessNoise_PlusLocalization,2021.2.3,59.97132806745184,
,,,,,,,,center,0.0,6,ch1Sound_localizationTask.wav,0.0,"(952, 878)","(-8,-202)",0,-338,,,,,,,,,,,,,4,2,30,3,,,,,,,,,,,,,,,,,,,,,,,,,,,,,,,,,,,,,,,,1369.9616460389952,None,,,1372.978170975999,None,1.48994708994709,0.5161759229958989,1372.978170975999,None,,,,,,,1370.961593126005,None,1371.144963875995,1371.161542766,,,,,,,105,001,2023_May_24_1208,SpeechDraft1Carolyn_lessNoise_PlusLocalization,2021.2.3,59.97132806745184,
,,,,,,,,midRight,13.0,3,ch1Sound_localizationTask.wav,13.0,"(1142, 878)","(182, -202)",190,-338,,,,,,,,,,,,,4,3,31,5,,,,,,,,,,,,,,,,,,,,,,,,,,,,,,,,,,,,,,,,1373.5115657849965,None,,,1376.5280590140028,None,1.5915343915343916,1.2157083630008856,1376.5280590140028,None,,,,,,,1374.5115840439976,None,1374.6948932649975,1374.7115045020037,,,,,,,105,001,2023_May_24_1208,SpeechDraft1Carolyn_lessNoise_PlusLocalization,2021.2.3,59.97132806745184,
,,,,,,,,midLeft,-13.0,2,ch1Sound_localizationTask.wav,-13.0,"(762, 878)","(-198,-202)",-190,-338,,,,,,,,,,,,,4,4,32,1,,,,,,,,,,,,,,,,,,,,,,,,,,,,,,,,,,,,,,,,1377.7461500159989,None,,,1380.7782670269953,None,1.3746031746031746,0.8652612099976977,1380.7782670269953,None,,,,,,,1378.761778304004,None,1378.9450190929929,1378.9617229669966,,,,,,,105,001,2023_May_24_1208,SpeechDraft1Carolyn_lessNoise_PlusLocalization,2021.2.3,59.97132806745184,
,,,,,,,,nearLeft,-6.5,1,ch1Sound_localizationTask.wav,-6.5,"(857, 878)","(-103,-202)",-95,-338,,,,,,,,,,,,,4,5,33,2,,,,,,,,,,,,,,,,,,,,,,,,,,,,,,,,,,,,,,,,1381.6614063110028,None,,,1384.6780346099986,None,1.439153439153439,0.900009371995111,1384.6780346099986,None,,,,,,,1382.6615567959961,None,1382.8450305870065,1382.8616020119953,,,,,,,105,001,2023_May_24_1208,SpeechDraft1Carolyn_lessNoise_PlusLocalization,2021.2.3,59.97132806745184,
,,,,,,,,farLeft,-19.1,5,ch1Sound_localizationTask.wav,-19.1,"(667, 878)","(-293,-202)",-285,-338,,,,,,,,,,,,,4,6,34,0,,,,,,,,,,,,,,,,,,,,,,,,,,,,,,,,,,,,,,,,1385.5950505880028,None,,,1388.6113432199927,None,1.3534391534391534,1.050716565005132,1388.6113432199927,None,,,,,,,1386.595036669998,None,1386.7784271199926,1386.7950127310032,,,,,,,105,001,2023_May_24_1208,SpeechDraft1Carolyn_lessNoise_PlusLocalization,2021.2.3,59.97132806745184,
,,,,,,,,farRight,19.1,4,ch1Sound_localizationTask.wav,19.1,"(1237, 878)","(277,-202)",285,-338,,,,,,,,,,,,,5,0,35,6,,,,,,,,,,,,,,,,,,,,,,,,,,,,,,,,,,,,,,,,1389.6784196109948,None,,,1392.694629509002,None,1.698941798941799,0.7656071240053279,1392.694629509002,None,,,,,,,1390.6782419910014,None,1390.8616451359994,1390.878414619001,,,,,,,105,001,2023_May_24_1208,SpeechDraft1Carolyn_lessNoise_PlusLocalization,2021.2.3,59.97132806745184,
,,,,,,,,center,0.0,6,ch1Sound_localizationTask.wav,0.0,"(952, 878)","(-8,-202)",0,-338,,,,,,,,,,,,,5,1,36,3,,,,,,,,,,,,,,,,,,,,,,,,,,,,,,,,,,,,,,,,1393.4630592239992,None,,,1396.4947335799952,None,1.5037037037037035,1.0499181549967034,1396.4947335799952,None,,,,,,,1394.478125944006,None,1394.661599604995,1394.6781222540012,,,,,,,105,001,2023_May_24_1208,SpeechDraft1Carolyn_lessNoise_PlusLocalization,2021.2.3,59.97132806745184,
,,,,,,,,nearRight,6.5,0,ch1Sound_localizationTask.wav,6.5,"(1047, 878)","(87, -202)",95,-338,,,,,,,,,,,,,5,2,37,4,,,,,,,,,,,,,,,,,,,,,,,,,,,,,,,,,,,,,,,,1397.5618737329933,None,,,1400.5781439349958,None,1.57989417989418,1.2330451279995032,1400.5781439349958,None,,,,,,,1398.561705936998,None,1398.7449725329934,1398.7617491309938,,,,,,,105,001,2023_May_24_1208,SpeechDraft1Carolyn_lessNoise_PlusLocalization,2021.2.3,59.97132806745184,
,,,,,,,,nearRight,6.5,0,ch1Sound_localizationTask.wav,6.5,"(1047, 878)","(87, -202)",95,-338,,,,,,,,,,,,,5,3,38,4,,,,,,,,,,,,,,,,,,,,,,,,,,,,,,,,,,,,,,,,1401.8121353919996,None,,,1404.8281890390062,None,1.5518518518518518,0.8152975840057479,1404.8281890390062,None,,,,,,,1402.8115994130058,None,1402.9949878890038,1403.0116042279988,,,,,,,105,001,2023_May_24_1208,SpeechDraft1Carolyn_lessNoise_PlusLocalization,2021.2.3,59.97132806745184,
,,,,,,,,nearRight,6.5,0,ch1Sound_localizationTask.wav,6.5,"(1047, 878)","(87, -202)",95,-338,,,,,,,,,,,,,5,4,39,4,,,,,,,,,,,,,,,,,,,,,,,,,,,,,,,,,,,,,,,,1405.6453353230027,None,,,1408.6614183799975,None,1.5820105820105819,0.6168576040072367,1408.6614183799975,None,,,,,,,1406.644812694998,None,1406.8284516040003,1406.8449543659954,,,,,,,105,001,2023_May_24_1208,SpeechDraft1Carolyn_lessNoise_PlusLocalization,2021.2.3,59.97132806745184,
,,,,,,,,nearRight,6.5,0,ch1Sound_localizationTask.wav,6.5,"(1047, 878)","(87, -202)",95,-338,,,,,,,,,,,,,5,5,40,4,,,,,,,,,,,,,,,,,,,,,,,,,,,,,,,,,,,,,,,,1409.2950583530037,None,,,1412.3114778750023,None,1.5687830687830688,1.0825349719962105,1412.3114778750023,None,,,,,,,1410.294898823995,None,1410.4782600000035,1410.495126173002,,,,,,,105,001,2023_May_24_1208,SpeechDraft1Carolyn_lessNoise_PlusLocalization,2021.2.3,59.97132806745184,
,,,,,,,,center,0.0,6,ch1Sound_localizationTask.wav,0.0,"(952, 878)","(-8,-202)",0,-338,,,,,,,,,,,,,5,6,41,3,,,,,,,,,,,,,,,,,,,,,,,,,,,,,,,,,,,,,,,,1413.3959265430021,None,,,1416.4116088510054,None,1.51005291005291,0.951530478996574,1416.4116088510054,None,,,,,,,1414.3950766000053,None,1414.578331704004,1414.595019529006,,,,,,,105,001,2023_May_24_1208,SpeechDraft1Carolyn_lessNoise_PlusLocalization,2021.2.3,59.97132806745184,
,,,,,,,,farRight,19.1,4,ch1Sound_localizationTask.wav,19.1,"(1237, 878)","(277,-202)",285,-338,,,,,,,,,,,,,6,0,42,6,,,,,,,,,,,,,,,,,,,,,,,,,,,,,,,,,,,,,,,,1417.3788192170032,None,,,1420.3947456419992,None,1.6492063492063491,1.1658264669968048,1420.3947456419992,None,,,,,,,1418.3782994829962,None,1418.5616082110064,1418.5782495229942,,,,,,,105,001,2023_May_24_1208,SpeechDraft1Carolyn_lessNoise_PlusLocalization,2021.2.3,59.97132806745184,
,,,,,,,,nearRight,6.5,0,ch1Sound_localizationTask.wav,6.5,"(1047, 878)","(87, -202)",95,-338,,,,,,,,,,,,,6,1,43,4,,,,,,,,,,,,,,,,,,,,,,,,,,,,,,,,,,,,,,,,1421.562635795999,None,,,1424.5949142699974,None,1.5597883597883597,0.9488156330044148,1424.5949142699974,None,,,,,,,1422.5783239549928,None,1422.7617248089955,1422.778408623999,,,,,,,105,001,2023_May_24_1208,SpeechDraft1Carolyn_lessNoise_PlusLocalization,2021.2.3,59.97132806745184,
,,,,,,,,farLeft,-19.1,5,ch1Sound_localizationTask.wav,-19.1,"(667, 878)","(-293,-202)",-285,-338,,,,,,,,,,,,,6,2,44,0,,,,,,,,,,,,,,,,,,,,,,,,,,,,,,,,,,,,,,,,1425.546290451006,None,,,1428.578197926996,None,1.3333333333333333,0.8493470990069909,1428.578197926996,None,,,,,,,1426.5617375220027,None,1426.7450365169934,1426.7616199469921,,,,,,,105,001,2023_May_24_1208,SpeechDraft1Carolyn_lessNoise_PlusLocalization,2021.2.3,59.97132806745184,
,,,,,,,,midLeft,-13.0,2,ch1Sound_localizationTask.wav,-13.0,"(762, 878)","(-198,-202)",-190,-338,,,,,,,,,,,,,6,3,45,1,,,,,,,,,,,,,,,,,,,,,,,,,,,,,,,,,,,,,,,,1429.4301488269994,None,,,1432.4616226390062,None,1.3894179894179894,0.7654013430001214,1432.4616226390062,None,,,,,,,1430.4450104900025,None,1430.6283806959982,1430.6451440380042,,,,,,,105,001,2023_May_24_1208,SpeechDraft1Carolyn_lessNoise_PlusLocalization,2021.2.3,59.97132806745184,
,,,,,,,,nearLeft,-6.5,1,ch1Sound_localizationTask.wav,-6.5,"(857, 878)","(-103,-202)",-95,-338,,,,,,,,,,,,,6,4,46,2,,,,,,,,,,,,,,,,,,,,,,,,,,,,,,,,,,,,,,,,1433.229024774002,None,,,1436.2447928979964,None,1.4285714285714286,0.8323479940008838,1436.2447928979964,None,,,,,,,1434.2283371090016,None,1434.4117076859984,1434.4283387079922,,,,,,,105,001,2023_May_24_1208,SpeechDraft1Carolyn_lessNoise_PlusLocalization,2021.2.3,59.97132806745184,
,,,,,,,,nearRight,6.5,0,ch1Sound_localizationTask.wav,6.5,"(1047, 878)","(87, -202)",95,-338,,,,,,,,,,,,,6,5,47,4,,,,,,,,,,,,,,,,,,,,,,,,,,,,,,,,,,,,,,,,1437.095204147001,None,,,1440.1114640440064,None,1.5751322751322752,1.0498748430109117,1440.1114640440064,None,,,,,,,1438.0950651769963,None,1438.2782840479922,1438.2949413430033,,,,,,,105,001,2023_May_24_1208,SpeechDraft1Carolyn_lessNoise_PlusLocalization,2021.2.3,59.97132806745184,
,,,,,,,,midRight,13.0,3,ch1Sound_localizationTask.wav,13.0,"(1142, 878)","(182, -202)",190,-338,,,,,,,,,,,,,6,6,48,5,,,,,,,,,,,,,,,,,,,,,,,,,,,,,,,,,,,,,,,,1441.1785891259933,None,,,1444.194864050005,None,1.6084656084656084,0.5342949329933617,1444.194864050005,None,,,,,,,1442.1784596969956,None,1442.3616590710008,1442.3785538230004,,,,,,,105,001,2023_May_24_1208,SpeechDraft1Carolyn_lessNoise_PlusLocalization,2021.2.3,59.97132806745184,
,,,,,,,,farRight,19.1,4,ch1Sound_localizationTask.wav,19.1,"(1237, 878)","(277,-202)",285,-338,,,,,,,,,,,,,7,0,49,6,,,,,,,,,,,,,,,,,,,,,,,,,,,,,,,,,,,,,,,,1444.7451388699992,None,,,1447.7616614729923,None,1.6544973544973545,0.9319727960100863,1447.7616614729923,None,,,,,,,1445.7451083159976,None,1445.9285664719937,1445.9450818229961,,,,,,,105,001,2023_May_24_1208,SpeechDraft1Carolyn_lessNoise_PlusLocalization,2021.2.3,59.97132806745184,
,,,,,,,,nearLeft,-6.5,1,ch1Sound_localizationTask.wav,-6.5,"(857, 878)","(-103,-202)",-95,-338,,,,,,,,,,,,,7,1,50,2,,,,,,,,,,,,,,,,,,,,,,,,,,,,,,,,,,,,,,,,1448.696290192005,None,,,1451.728274491994,None,1.4328042328042327,0.6996285529894521,1451.728274491994,None,,,,,,,1449.7116020160029,None,1449.894926893001,1449.9117031700007,,,,,,,105,001,2023_May_24_1208,SpeechDraft1Carolyn_lessNoise_PlusLocalization,2021.2.3,59.97132806745184,
,,,,,,,,midLeft,-13.0,2,ch1Sound_localizationTask.wav,-13.0,"(762, 878)","(-198,-202)",-190,-338,,,,,,,,,,,,,7,2,51,1,,,,,,,,,,,,,,,,,,,,,,,,,,,,,,,,,,,,,,,,1452.4452185700065,None,,,1455.461213817005,None,1.3756613756613758,0.7156112110096728,1455.461213817005,None,,,,,,,1453.445039254002,None,1453.6284573529992,1453.6450379019952,,,,,,,105,001,2023_May_24_1208,SpeechDraft1Carolyn_lessNoise_PlusLocalization,2021.2.3,59.97132806745184,
,,,,,,,,farRight,19.1,4,ch1Sound_localizationTask.wav,19.1,"(1237, 878)","(277,-202)",285,-338,,,,,,,,,,,,,7,3,52,6,,,,,,,,,,,,,,,,,,,,,,,,,,,,,,,,,,,,,,,,1456.1801538099971,None,,,1459.2114966429945,None,1.6783068783068784,0.8660993880039314,1459.2114966429945,None,,,,,,,1457.1950245000044,None,1457.3783978169959,1457.3951202430035,,,,,,,105,001,2023_May_24_1208,SpeechDraft1Carolyn_lessNoise_PlusLocalization,2021.2.3,59.97132806745184,
,,,,,,,,nearRight,6.5,0,ch1Sound_localizationTask.wav,6.5,"(1047, 878)","(87, -202)",95,-338,,,,,,,,,,,,,7,4,53,4,,,,,,,,,,,,,,,,,,,,,,,,,,,,,,,,,,,,,,,,1460.0794537790061,None,,,1463.111541228005,None,1.5656084656084657,0.5995769220025977,1463.111541228005,None,,,,,,,1461.0950755639933,None,1461.2784512429935,1461.2949721689947,,,,,,,105,001,2023_May_24_1208,SpeechDraft1Carolyn_lessNoise_PlusLocalization,2021.2.3,59.97132806745184,
,,,,,,,,center,0.0,6,ch1Sound_localizationTask.wav,0.0,"(952, 878)","(-8,-202)",0,-338,,,,,,,,,,,,,7,5,54,3,,,,,,,,,,,,,,,,,,,,,,,,,,,,,,,,,,,,,,,,1463.7283688010066,None,,,1466.7448733670026,None,1.4978835978835978,0.8162099010078236,1466.7448733670026,None,,,,,,,1464.728361278001,None,1464.911738173003,1464.9283413410012,,,,,,,105,001,2023_May_24_1208,SpeechDraft1Carolyn_lessNoise_PlusLocalization,2021.2.3,59.97132806745184,
,,,,,,,,nearLeft,-6.5,1,ch1Sound_localizationTask.wav,-6.5,"(857, 878)","(-103,-202)",-95,-338,,,,,,,,,,,,,7,6,55,2,,,,,,,,,,,,,,,,,,,,,,,,,,,,,,,,,,,,,,,,1467.5624236589938,None,,,1470.5781773930066,None,1.4444444444444444,0.8650479560019448,1470.5781773930066,None,,,,,,,1468.5616139449994,None,1468.7449677770055,1468.7616742130049,,,,,,,105,001,2023_May_24_1208,SpeechDraft1Carolyn_lessNoise_PlusLocalization,2021.2.3,59.97132806745184,
,,,,,,,,,,,,,,,,,,,,,,,,,,,,,,,,,,,,,,,,,,,,,,,,,,,,,,,,,,,,,,,,,,,,,,,,,,,,,,,,,,,,,,,,,,,,1471.4621521639929,None,c,316.48157568198803,1472.4451301619993,None,105,001,2023_May_24_1208,SpeechDraft1Carolyn_lessNoise_PlusLocalization,2021.2.3,59.97132806745184,
