Audio_Only_Files,Video_Files,Original_Word_List,noiseLevelCode,conditionCodes,noiseLevelFile1,noiseLevelFile2,InstrTextVar,targetSpeakerName,targetSpeakerEccen,targetSpkrChannel,targetSpkrSound,targetVisualDegrees,visStimLoc,visStimLoc2,visStimW,visStimH,practiceTrials.thisRepN,practiceTrials.thisTrialN,practiceTrials.thisN,practiceTrials.thisIndex,trials.thisRepN,trials.thisTrialN,trials.thisN,trials.thisIndex,audLocalLoop.thisRepN,audLocalLoop.thisTrialN,audLocalLoop.thisN,audLocalLoop.thisIndex,visualLocalLoop.thisRepN,visualLocalLoop.thisTrialN,visualLocalLoop.thisN,visualLocalLoop.thisIndex,letsGoAlready.keys,letsGoAlready.rt,letsGoAlready.started,letsGoAlready.stopped,text_2.started,text_2.stopped,text_3.started,text_3.stopped,key_resp_2.keys,key_resp_2.rt,key_resp_2.started,key_resp_2.stopped,text_5.started,text_5.stopped,fixCross.started,fixCross.stopped,fixCross2.started,fixCross2.stopped,answerPrompt.started,answerPrompt.stopped,getAnswer.text,getAnswer.started,getAnswer.stopped,goToNext.keys,goToNext.rt,goToNext.started,goToNext.stopped,stretchBreakTxrt.started,stretchBreakTxrt.stopped,key_resp_3.keys,key_resp_3.rt,key_resp_3.started,key_resp_3.stopped,letsGoLocal.keys,letsGoLocal.rt,letsGoLocal.started,letsGoLocal.stopped,text_4.started,text_4.stopped,prepFixTxt.started,prepFixTxt.stopped,prepFixTxt_2.started,prepFixTxt_2.stopped,respPromptLocal.started,respPromptLocal.stopped,slider.response,slider.rt,slider.started,slider.stopped,letsGoLocal_2.keys,letsGoLocal_2.rt,letsGoLocal_2.started,letsGoLocal_2.stopped,text_7.started,text_7.stopped,prepFixTxt_3.started,prepFixTxt_3.stopped,grating.started,grating.stopped,participant,session,date,expName,psychopyVersion,frameRate,
,,,,,,,,,,,,,,,,,,,,,,,,,,,,,,,,,space,174.4904493500071,11.547595929005183,None,,,,,,,,,,,,,,,,,,,,,,,,,,,,,,,,,,,,,,,,,,,,,,,,,,,,,,,,106,001,2023_May_25_1405,SpeechDraft1Carolyn_lessNoise_PlusLocalization,2021.2.3,60.08966351262155,
,,,,,,,,,,,,,,,,,,,,,,,,,,,,,,,,,,,,,11.547595929005183,None,186.16448180100997,None,space,3.482307027996285,186.34786126800464,None,,,,,,,,,,,,,,,,,,,,,,,,,,,,,,,,,,,,,,,,,,,,,,,,106,001,2023_May_25_1405,SpeechDraft1Carolyn_lessNoise_PlusLocalization,2021.2.3,60.08966351262155,
ash.wav,ash.mpg,ash,1,A,Pink_Noise_1_1.wav,Pink_Noise_1_2.wav,"This is an example of an

AUDIO trial",,,,,,,,,,0,0,0,0,,,,,,,,,,,,,,,,,,,,,,,,,189.88090941001428,None,190.86449519501184,None,194.03098667401355,None,195.41599980002502,None,ash ,195.41599980002502,None,return,4.180157594004413,195.49799458900816,None,,,,,,,,,,,,,,,,,,,,,,,,,,,,,,,,,106,001,2023_May_25_1405,SpeechDraft1Carolyn_lessNoise_PlusLocalization,2021.2.3,60.08966351262155,
ash.wav,ash.mpg,ash,1,AV,Pink_Noise_1_1.wav,Pink_Noise_1_2.wav,"This is an example of an

AUDIO + VIDEO  trial",,,,,,,,,,0,1,1,1,,,,,,,,,,,,,,,,,,,,,,,,,199.71440318302484,None,200.71466900102678,None,202.214383241022,None,203.5979840560176,None,"ash 
",203.5979840560176,None,return,3.500763994990848,203.6812965530262,None,,,,,,,,,,,,,,,,,,,,,,,,,,,,,,,,,106,001,2023_May_25_1405,SpeechDraft1Carolyn_lessNoise_PlusLocalization,2021.2.3,60.08966351262155,
,,,,,,,,,,,,,,,,,,,,,,,,,,,,,,,,,,,,,,,,,,,,,,,,,,,,,,,,,,,,207.23108358701575,None,space,7.407497142005013,207.41455401701387,None,,,,,,,,,,,,,,,,,,,,,,,,,,,106,001,2023_May_25_1405,SpeechDraft1Carolyn_lessNoise_PlusLocalization,2021.2.3,60.08966351262155,
flog.wav,flog.mpg,flog,4,A,Pink_Noise_4_1.wav,Pink_Noise_4_2.wav,,,,,,,,,,,,,,,0,0,0,44,,,,,,,,,,,,,,,,,,,,,,,214.88109938701382,None,216.36428537900792,None,217.74803057900863,None,car ,217.74803057900863,None,return,5.446816748008132,217.8313192250207,None,,,,,,,,,,,,,,,,,,,,,,,,,,,,,,,,,106,001,2023_May_25_1405,SpeechDraft1Carolyn_lessNoise_PlusLocalization,2021.2.3,60.08966351262155,
cope.wav,cope.mpg,cope,6,AV,Pink_Noise_6_1.wav,Pink_Noise_6_2.wav,,,,,,,,,,,,,,,0,1,1,94,,,,,,,,,,,,,,,,,,,,,,,223.2978493210103,None,224.79786576202605,None,226.18147282401333,None,dome,226.18147282401333,None,return,7.229481100977864,226.26459201300167,None,,,,,,,,,,,,,,,,,,,,,,,,,,,,,,,,,106,001,2023_May_25_1405,SpeechDraft1Carolyn_lessNoise_PlusLocalization,2021.2.3,60.08966351262155,
grip.wav,grip.mpg,grip,3,AV,Pink_Noise_3_1.wav,Pink_Noise_3_2.wav,,,,,,,,,,,,,,,0,2,2,63,,,,,,,,,,,,,,,,,,,,,,,233.51464265302639,None,235.01451209702645,None,236.39813554202556,None,"grip
",236.39813554202556,None,return,3.868657874991186,236.48139906401047,None,,,,,,,,,,,,,,,,,,,,,,,,,,,,,,,,,106,001,2023_May_25_1405,SpeechDraft1Carolyn_lessNoise_PlusLocalization,2021.2.3,60.08966351262155,
dope.wav,dope.mpg,dope,2,AV,Pink_Noise_2_1.wav,Pink_Noise_2_2.wav,,,,,,,,,,,,,,,0,3,3,91,,,,,,,,,,,,,,,,,,,,,,,240.38132468500407,None,241.88174196801265,None,243.26467484800378,None,dope,243.26467484800378,None,return,2.1460815699829254,243.34801235000486,None,,,,,,,,,,,,,,,,,,,,,,,,,,,,,,,,,106,001,2023_May_25_1405,SpeechDraft1Carolyn_lessNoise_PlusLocalization,2021.2.3,60.08966351262155,
duke.wav,duke.mpg,duke,4,AV,Pink_Noise_4_1.wav,Pink_Noise_4_2.wav,,,,,,,,,,,,,,,0,4,4,61,,,,,,,,,,,,,,,,,,,,,,,245.51475358501193,None,247.01429134700447,None,248.39792194601614,None,choose,248.39792194601614,None,return,2.5486468650051393,248.4814995760098,None,,,,,,,,,,,,,,,,,,,,,,,,,,,,,,,,,106,001,2023_May_25_1405,SpeechDraft1Carolyn_lessNoise_PlusLocalization,2021.2.3,60.08966351262155,
folk.wav,folk.mpg,folk,4,AV,Pink_Noise_4_1.wav,Pink_Noise_4_2.wav,,,,,,,,,,,,,,,0,5,5,102,,,,,,,,,,,,,,,,,,,,,,,251.0479578450031,None,252.54771257200628,None,253.9315603620198,None,folk,253.9315603620198,None,return,5.26342161098728,254.01467816901277,None,,,,,,,,,,,,,,,,,,,,,,,,,,,,,,,,,106,001,2023_May_25_1405,SpeechDraft1Carolyn_lessNoise_PlusLocalization,2021.2.3,60.08966351262155,
grill.wav,grill.mpg,grill,2,A,Pink_Noise_2_1.wav,Pink_Noise_2_2.wav,,,,,,,,,,,,,,,0,6,6,37,,,,,,,,,,,,,,,,,,,,,,,259.2981154160225,None,260.79767290400923,None,262.1812702930183,None,grill,262.1812702930183,None,return,1.7493913999933284,262.26471193501493,None,,,,,,,,,,,,,,,,,,,,,,,,,,,,,,,,,106,001,2023_May_25_1405,SpeechDraft1Carolyn_lessNoise_PlusLocalization,2021.2.3,60.08966351262155,
fast.wav,fast.mpg,fast,1,A,Pink_Noise_1_1.wav,Pink_Noise_1_2.wav,,,,,,,,,,,,,,,0,7,7,12,,,,,,,,,,,,,,,,,,,,,,,264.031367469026,None,265.53115886301384,None,266.91468932901626,None,fast,266.91468932901626,None,return,0.8721447479911149,266.9979834780097,None,,,,,,,,,,,,,,,,,,,,,,,,,,,,,,,,,106,001,2023_May_25_1405,SpeechDraft1Carolyn_lessNoise_PlusLocalization,2021.2.3,60.08966351262155,
cop.wav,cop.mpg,cop,6,A,Pink_Noise_6_1.wav,Pink_Noise_6_2.wav,,,,,,,,,,,,,,,0,8,8,0,,,,,,,,,,,,,,,,,,,,,,,267.89788919501007,None,269.3977824440226,None,270.7814278360165,None,hot,270.7814278360165,None,return,2.773524488991825,270.86464078200515,None,,,,,,,,,,,,,,,,,,,,,,,,,,,,,,,,,106,001,2023_May_25_1405,SpeechDraft1Carolyn_lessNoise_PlusLocalization,2021.2.3,60.08966351262155,
crank.wav,crank.mpg,crank,4,AV,Pink_Noise_4_1.wav,Pink_Noise_4_2.wav,,,,,,,,,,,,,,,0,9,9,80,,,,,,,,,,,,,,,,,,,,,,,273.66467351600295,None,275.1645554889983,None,276.54809829601436,None,crank,276.54809829601436,None,return,1.6145326200057752,276.63153656900977,None,,,,,,,,,,,,,,,,,,,,,,,,,,,,,,,,,106,001,2023_May_25_1405,SpeechDraft1Carolyn_lessNoise_PlusLocalization,2021.2.3,60.08966351262155,
bust.wav,bust.mpg,bust,3,A,Pink_Noise_3_1.wav,Pink_Noise_3_2.wav,,,,,,,,,,,,,,,0,10,10,27,,,,,,,,,,,,,,,,,,,,,,,278.26475247900817,None,279.7645306320046,None,281.14810307201697,None,thrust,281.14810307201697,None,return,3.982710110984044,281.231424839003,None,,,,,,,,,,,,,,,,,,,,,,,,,,,,,,,,,106,001,2023_May_25_1405,SpeechDraft1Carolyn_lessNoise_PlusLocalization,2021.2.3,60.08966351262155,
guilt.wav,guilt.mpg,guilt,6,AV,Pink_Noise_6_1.wav,Pink_Noise_6_2.wav,,,,,,,,,,,,,,,0,11,11,93,,,,,,,,,,,,,,,,,,,,,,,285.2313006950135,None,286.73114834399894,None,288.11470324202674,None,yield,288.11470324202674,None,return,2.031965061003575,288.19813427201007,None,,,,,,,,,,,,,,,,,,,,,,,,,,,,,,,,,106,001,2023_May_25_1405,SpeechDraft1Carolyn_lessNoise_PlusLocalization,2021.2.3,60.08966351262155,
chalk.wav,chalk.mpg,chalk,4,A,Pink_Noise_4_1.wav,Pink_Noise_4_2.wav,,,,,,,,,,,,,,,0,12,12,49,,,,,,,,,,,,,,,,,,,,,,,290.24806571600493,None,291.7478873260261,None,293.13141510100104,None,chalk,293.13141510100104,None,return,1.743126805027714,293.214925133012,None,,,,,,,,,,,,,,,,,,,,,,,,,,,,,,,,,106,001,2023_May_25_1405,SpeechDraft1Carolyn_lessNoise_PlusLocalization,2021.2.3,60.08966351262155,
foul.wav,foul.mpg,foul,1,AV,Pink_Noise_1_1.wav,Pink_Noise_1_2.wav,,,,,,,,,,,,,,,0,13,13,104,,,,,,,,,,,,,,,,,,,,,,,294.98134768599994,None,296.48114222701406,None,297.86475673300447,None,fou,297.86475673300447,None,return,2.5301362879981752,297.94802507100394,None,,,,,,,,,,,,,,,,,,,,,,,,,,,,,,,,,106,001,2023_May_25_1405,SpeechDraft1Carolyn_lessNoise_PlusLocalization,2021.2.3,60.08966351262155,
route.wav,route.mpg,route,1,AV,Pink_Noise_1_1.wav,Pink_Noise_1_2.wav,,,,,,,,,,,,,,,0,14,14,77,,,,,,,,,,,,,,,,,,,,,,,300.4980693710095,None,301.9979078360193,None,303.3812852690171,None,root,303.3812852690171,None,return,1.3411614969954826,303.46492010200745,None,,,,,,,,,,,,,,,,,,,,,,,,,,,,,,,,,106,001,2023_May_25_1405,SpeechDraft1Carolyn_lessNoise_PlusLocalization,2021.2.3,60.08966351262155,
cheap.wav,cheap.mpg,cheap,6,A,Pink_Noise_6_1.wav,Pink_Noise_6_2.wav,,,,,,,,,,,,,,,0,15,15,32,,,,,,,,,,,,,,,,,,,,,,,304.8314856410143,None,306.3311164450133,None,307.7151715110231,None,"chit
",307.7151715110231,None,return,3.936055641999701,307.7979941240046,None,,,,,,,,,,,,,,,,,,,,,,,,,,,,,,,,,106,001,2023_May_25_1405,SpeechDraft1Carolyn_lessNoise_PlusLocalization,2021.2.3,60.08966351262155,
dance.wav,dance.mpg,dance,5,AV,Pink_Noise_5_1.wav,Pink_Noise_5_2.wav,,,,,,,,,,,,,,,0,16,16,92,,,,,,,,,,,,,,,,,,,,,,,311.7648164679995,None,313.2671507470077,None,314.64815830701264,None,nice,314.64815830701264,None,return,3.082707302994095,314.731387990003,None,,,,,,,,,,,,,,,,,,,,,,,,,,,,,,,,,106,001,2023_May_25_1405,SpeechDraft1Carolyn_lessNoise_PlusLocalization,2021.2.3,60.08966351262155,
blaze.wav,blaze.mpg,blaze,5,AV,Pink_Noise_5_1.wav,Pink_Noise_5_2.wav,,,,,,,,,,,,,,,0,17,17,107,,,,,,,,,,,,,,,,,,,,,,,317.8314613040129,None,319.3312642520177,None,320.71500752700376,None,place,320.71500752700376,None,return,20.727849301008973,320.7982110240264,None,,,,,,,,,,,,,,,,,,,,,,,,,,,,,,,,,106,001,2023_May_25_1405,SpeechDraft1Carolyn_lessNoise_PlusLocalization,2021.2.3,60.08966351262155,
deem.wav,deem.mpg,deem,1,A,Pink_Noise_1_1.wav,Pink_Noise_1_2.wav,,,,,,,,,,,,,,,0,18,18,14,,,,,,,,,,,,,,,,,,,,,,,341.54812679902534,None,343.0645133170183,None,344.448190332012,None,dean,344.448190332012,None,return,1.698662516020704,344.53146343602566,None,,,,,,,,,,,,,,,,,,,,,,,,,,,,,,,,,106,001,2023_May_25_1405,SpeechDraft1Carolyn_lessNoise_PlusLocalization,2021.2.3,60.08966351262155,
unit.wav,unit.mpg,unit,3,AV,Pink_Noise_3_1.wav,Pink_Noise_3_2.wav,,,,,,,,,,,,,,,0,19,19,96,,,,,,,,,,,,,,,,,,,,,,,346.24812285002554,None,347.74795422001625,None,349.13153340201825,None,"unit
",349.13153340201825,None,return,1.351108570001088,349.21492956302245,None,,,,,,,,,,,,,,,,,,,,,,,,,,,,,,,,,106,001,2023_May_25_1405,SpeechDraft1Carolyn_lessNoise_PlusLocalization,2021.2.3,60.08966351262155,
cone.wav,cone.mpg,cone,4,A,Pink_Noise_4_1.wav,Pink_Noise_4_2.wav,,,,,,,,,,,,,,,0,20,20,39,,,,,,,,,,,,,,,,,,,,,,,350.59807349700714,None,352.09784788501565,None,353.48145147500327,None,tobe,353.48145147500327,None,return,1.7130772020027507,353.56504853302613,None,,,,,,,,,,,,,,,,,,,,,,,,,,,,,,,,,106,001,2023_May_25_1405,SpeechDraft1Carolyn_lessNoise_PlusLocalization,2021.2.3,60.08966351262155,
fear.wav,fear.mpg,fear,4,AV,Pink_Noise_4_1.wav,Pink_Noise_4_2.wav,,,,,,,,,,,,,,,0,21,21,103,,,,,,,,,,,,,,,,,,,,,,,355.2980660550238,None,356.79791519002174,None,358.1814788750198,None,fear,358.1814788750198,None,return,1.1972152999951504,358.26484837100725,None,,,,,,,,,,,,,,,,,,,,,,,,,,,,,,,,,106,001,2023_May_25_1405,SpeechDraft1Carolyn_lessNoise_PlusLocalization,2021.2.3,60.08966351262155,
flake.wav,flake.mpg,flake,4,AV,Pink_Noise_4_1.wav,Pink_Noise_4_2.wav,,,,,,,,,,,,,,,0,22,22,72,,,,,,,,,,,,,,,,,,,,,,,359.48148647902417,None,360.9811829980172,None,362.36491842599935,None,flake,362.36491842599935,None,return,1.206099864008138,362.4481150850188,None,,,,,,,,,,,,,,,,,,,,,,,,,,,,,,,,,106,001,2023_May_25_1405,SpeechDraft1Carolyn_lessNoise_PlusLocalization,2021.2.3,60.08966351262155,
peach.wav,peach.mpg,peach,1,AV,Pink_Noise_1_1.wav,Pink_Noise_1_2.wav,,,,,,,,,,,,,,,0,23,23,112,,,,,,,,,,,,,,,,,,,,,,,363.68156176302,None,365.1814739050169,None,366.56492499401793,None,peach,366.56492499401793,None,return,1.3738994500017725,366.64820809999947,None,,,,,,,,,,,,,,,,,,,,,,,,,,,,,,,,,106,001,2023_May_25_1405,SpeechDraft1Carolyn_lessNoise_PlusLocalization,2021.2.3,60.08966351262155,
dent.wav,dent.mpg,dent,5,AV,Pink_Noise_5_1.wav,Pink_Noise_5_2.wav,,,,,,,,,,,,,,,0,24,24,99,,,,,,,,,,,,,,,,,,,,,,,368.0482784610067,None,369.547988522012,None,370.9315891030128,None,set,370.9315891030128,None,return,2.5992093110107817,371.01492127400707,None,,,,,,,,,,,,,,,,,,,,,,,,,,,,,,,,,106,001,2023_May_25_1405,SpeechDraft1Carolyn_lessNoise_PlusLocalization,2021.2.3,60.08966351262155,
chore.wav,chore.mpg,chore,2,AV,Pink_Noise_2_1.wav,Pink_Noise_2_2.wav,,,,,,,,,,,,,,,0,25,25,114,,,,,,,,,,,,,,,,,,,,,,,373.6316387250263,None,375.1312808920047,None,376.5149414940097,None,"chore
",376.5149414940097,None,return,1.367817376012681,376.5982554720249,None,,,,,,,,,,,,,,,,,,,,,,,,,,,,,,,,,106,001,2023_May_25_1405,SpeechDraft1Carolyn_lessNoise_PlusLocalization,2021.2.3,60.08966351262155,
grown.wav,grown.mpg,grown,6,A,Pink_Noise_6_1.wav,Pink_Noise_6_2.wav,,,,,,,,,,,,,,,0,26,26,30,,,,,,,,,,,,,,,,,,,,,,,377.9980091570178,None,379.49798382702284,None,380.88159351301147,None,line,380.88159351301147,None,return,1.6811360020074062,380.9649242570158,None,,,,,,,,,,,,,,,,,,,,,,,,,,,,,,,,,106,001,2023_May_25_1405,SpeechDraft1Carolyn_lessNoise_PlusLocalization,2021.2.3,60.08966351262155,
blank.wav,blank.mpg,blank,6,AV,Pink_Noise_6_1.wav,Pink_Noise_6_2.wav,,,,,,,,,,,,,,,0,27,27,88,,,,,,,,,,,,,,,,,,,,,,,382.6649461480265,None,384.16486331800115,None,385.54816482402384,None,blank,385.54816482402384,None,return,1.1666620890027843,385.6314292050083,None,,,,,,,,,,,,,,,,,,,,,,,,,,,,,,,,,106,001,2023_May_25_1405,SpeechDraft1Carolyn_lessNoise_PlusLocalization,2021.2.3,60.08966351262155,
glue.wav,glue.mpg,glue,6,AV,Pink_Noise_6_1.wav,Pink_Noise_6_2.wav,,,,,,,,,,,,,,,0,28,28,69,,,,,,,,,,,,,,,,,,,,,,,386.81493910000427,None,388.3146732580208,None,389.69817405502545,None,"clue
",389.69817405502545,None,return,1.3685571450041607,389.78149169601966,None,,,,,,,,,,,,,,,,,,,,,,,,,,,,,,,,,106,001,2023_May_25_1405,SpeechDraft1Carolyn_lessNoise_PlusLocalization,2021.2.3,60.08966351262155,
coal.wav,coal.mpg,coal,2,AV,Pink_Noise_2_1.wav,Pink_Noise_2_2.wav,,,,,,,,,,,,,,,0,29,29,95,,,,,,,,,,,,,,,,,,,,,,,391.18147109801066,None,392.6826340450207,None,394.06474970301497,None,"coai
",394.06474970301497,None,return,4.401820347993635,394.14824587400653,None,,,,,,,,,,,,,,,,,,,,,,,,,,,,,,,,,106,001,2023_May_25_1405,SpeechDraft1Carolyn_lessNoise_PlusLocalization,2021.2.3,60.08966351262155,
flex.wav,flex.mpg,flex,3,A,Pink_Noise_3_1.wav,Pink_Noise_3_2.wav,,,,,,,,,,,,,,,0,30,30,19,,,,,,,,,,,,,,,,,,,,,,,398.5815717370133,None,400.08145881502423,None,401.4650169380184,None,flex,401.4650169380184,None,return,2.2979682729928754,401.5481199460046,None,,,,,,,,,,,,,,,,,,,,,,,,,,,,,,,,,106,001,2023_May_25_1405,SpeechDraft1Carolyn_lessNoise_PlusLocalization,2021.2.3,60.08966351262155,
warmth.wav,warmth.mpg,warmth,1,AV,Pink_Noise_1_1.wav,Pink_Noise_1_2.wav,,,,,,,,,,,,,,,0,31,31,109,,,,,,,,,,,,,,,,,,,,,,,403.86494266000227,None,405.3646961940103,None,406.7481861690176,None,warpth,406.7481861690176,None,return,3.606672519003041,406.83147250002366,None,,,,,,,,,,,,,,,,,,,,,,,,,,,,,,,,,106,001,2023_May_25_1405,SpeechDraft1Carolyn_lessNoise_PlusLocalization,2021.2.3,60.08966351262155,
glow.wav,glow.mpg,glow,4,AV,Pink_Noise_4_1.wav,Pink_Noise_4_2.wav,,,,,,,,,,,,,,,0,32,32,110,,,,,,,,,,,,,,,,,,,,,,,410.4647880800185,None,411.9651338420226,None,413.34812090400374,None,glow,413.34812090400374,None,return,1.4066497980093118,413.43157969301683,None,,,,,,,,,,,,,,,,,,,,,,,,,,,,,,,,,106,001,2023_May_25_1405,SpeechDraft1Carolyn_lessNoise_PlusLocalization,2021.2.3,60.08966351262155,
dry.wav,dry.mpg,dry,2,AV,Pink_Noise_2_1.wav,Pink_Noise_2_2.wav,,,,,,,,,,,,,,,0,33,33,75,,,,,,,,,,,,,,,,,,,,,,,414.8647742480098,None,416.3815751920047,None,417.76503565799794,None,"dry
",417.76503565799794,None,return,1.5019424390047789,417.84812787600094,None,,,,,,,,,,,,,,,,,,,,,,,,,,,,,,,,,106,001,2023_May_25_1405,SpeechDraft1Carolyn_lessNoise_PlusLocalization,2021.2.3,60.08966351262155,
doom.wav,doom.mpg,doom,5,A,Pink_Noise_5_1.wav,Pink_Noise_5_2.wav,,,,,,,,,,,,,,,0,34,34,51,,,,,,,,,,,,,,,,,,,,,,,419.3815445690125,None,420.8981108099979,None,422.28150473200367,None,hear,422.28150473200367,None,return,3.72116748400731,422.36488857501536,None,,,,,,,,,,,,,,,,,,,,,,,,,,,,,,,,,106,001,2023_May_25_1405,SpeechDraft1Carolyn_lessNoise_PlusLocalization,2021.2.3,60.08966351262155,
chat.wav,chat.mpg,chat,6,A,Pink_Noise_6_1.wav,Pink_Noise_6_2.wav,,,,,,,,,,,,,,,0,35,35,8,,,,,,,,,,,,,,,,,,,,,,,426.1149794970115,None,427.63138167301076,None,428.99846848400193,None,chut,428.99846848400193,None,return,4.732556235976517,429.08154907400603,None,,,,,,,,,,,,,,,,,,,,,,,,,,,,,,,,,106,001,2023_May_25_1405,SpeechDraft1Carolyn_lessNoise_PlusLocalization,2021.2.3,60.08966351262155,
fix.wav,fix.mpg,fix,1,A,Pink_Noise_1_1.wav,Pink_Noise_1_2.wav,,,,,,,,,,,,,,,0,36,36,23,,,,,,,,,,,,,,,,,,,,,,,433.8314535860263,None,435.33171279000817,None,436.7154391610238,None,fix,436.7154391610238,None,return,1.0878270700050052,436.79823735399987,None,,,,,,,,,,,,,,,,,,,,,,,,,,,,,,,,,106,001,2023_May_25_1405,SpeechDraft1Carolyn_lessNoise_PlusLocalization,2021.2.3,60.08966351262155,
fifth.wav,fifth.mpg,fifth,5,A,Pink_Noise_5_1.wav,Pink_Noise_5_2.wav,,,,,,,,,,,,,,,0,37,37,33,,,,,,,,,,,,,,,,,,,,,,,437.9150034310005,None,439.41472769601387,None,440.7983570090146,None,unit,440.7983570090146,None,return,2.5165327939903364,440.8816634050163,None,,,,,,,,,,,,,,,,,,,,,,,,,,,,,,,,,106,001,2023_May_25_1405,SpeechDraft1Carolyn_lessNoise_PlusLocalization,2021.2.3,60.08966351262155,
cell.wav,cell.mpg,cell,6,A,Pink_Noise_6_1.wav,Pink_Noise_6_2.wav,,,,,,,,,,,,,,,0,38,38,6,,,,,,,,,,,,,,,,,,,,,,,443.4149540240178,None,444.9312387390237,None,446.3154007230187,None,cry,446.3154007230187,None,return,1.1917471589986235,446.3983064890199,None,,,,,,,,,,,,,,,,,,,,,,,,,,,,,,,,,106,001,2023_May_25_1405,SpeechDraft1Carolyn_lessNoise_PlusLocalization,2021.2.3,60.08966351262155,
script.wav,script.mpg,script,3,AV,Pink_Noise_3_1.wav,Pink_Noise_3_2.wav,,,,,,,,,,,,,,,0,39,39,83,,,,,,,,,,,,,,,,,,,,,,,447.61508937799954,None,449.1147497470083,None,450.498625119013,None,stripped,450.498625119013,None,return,2.248478220019024,450.5816354540002,None,,,,,,,,,,,,,,,,,,,,,,,,,,,,,,,,,106,001,2023_May_25_1405,SpeechDraft1Carolyn_lessNoise_PlusLocalization,2021.2.3,60.08966351262155,
frog.wav,frog.mpg,frog,1,A,Pink_Noise_1_1.wav,Pink_Noise_1_2.wav,,,,,,,,,,,,,,,0,40,40,43,,,,,,,,,,,,,,,,,,,,,,,452.84816116600996,None,454.34933151100995,None,455.7319357980159,None,frog,455.7319357980159,None,return,1.07095804499113,455.8151008640125,None,,,,,,,,,,,,,,,,,,,,,,,,,,,,,,,,,106,001,2023_May_25_1405,SpeechDraft1Carolyn_lessNoise_PlusLocalization,2021.2.3,60.08966351262155,
gram.wav,gram.mpg,gram,6,A,Pink_Noise_6_1.wav,Pink_Noise_6_2.wav,,,,,,,,,,,,,,,0,41,41,34,,,,,,,,,,,,,,,,,,,,,,,456.91515256802086,None,458.4314128560072,None,459.81502107399865,None,clang,459.81502107399865,None,return,2.4997880540031474,459.89831003002473,None,,,,,,,,,,,,,,,,,,,,,,,,,,,,,,,,,106,001,2023_May_25_1405,SpeechDraft1Carolyn_lessNoise_PlusLocalization,2021.2.3,60.08966351262155,
eight.wav,eight.mpg,eight,3,AV,Pink_Noise_3_1.wav,Pink_Noise_3_2.wav,,,,,,,,,,,,,,,0,42,42,115,,,,,,,,,,,,,,,,,,,,,,,462.4149211400072,None,463.93144442501944,None,465.31510562699987,None,ate,465.31510562699987,None,return,0.9596643690019846,465.39838707700255,None,,,,,,,,,,,,,,,,,,,,,,,,,,,,,,,,,106,001,2023_May_25_1405,SpeechDraft1Carolyn_lessNoise_PlusLocalization,2021.2.3,60.08966351262155,
build.wav,build.mpg,build,2,A,Pink_Noise_2_1.wav,Pink_Noise_2_2.wav,,,,,,,,,,,,,,,0,43,43,29,,,,,,,,,,,,,,,,,,,,,,,466.3816449849983,None,467.8980011480162,None,469.2817148150061,None,build,469.2817148150061,None,return,1.3132939900096972,469.3648795710178,None,,,,,,,,,,,,,,,,,,,,,,,,,,,,,,,,,106,001,2023_May_25_1405,SpeechDraft1Carolyn_lessNoise_PlusLocalization,2021.2.3,60.08966351262155,
bless.wav,bless.mpg,bless,2,AV,Pink_Noise_2_1.wav,Pink_Noise_2_2.wav,,,,,,,,,,,,,,,0,44,44,90,,,,,,,,,,,,,,,,,,,,,,,470.6983537019987,None,472.21478653300437,None,473.5983308569994,None,bless,473.5983308569994,None,return,1.13236269398476,473.68176349499845,None,,,,,,,,,,,,,,,,,,,,,,,,,,,,,,,,,106,001,2023_May_25_1405,SpeechDraft1Carolyn_lessNoise_PlusLocalization,2021.2.3,60.08966351262155,
fill.wav,fill.mpg,fill,2,A,Pink_Noise_2_1.wav,Pink_Noise_2_2.wav,,,,,,,,,,,,,,,0,45,45,10,,,,,,,,,,,,,,,,,,,,,,,474.8316884910164,None,476.3313773550035,None,477.7150798549992,None,fikk,477.7150798549992,None,return,4.023888383992016,477.7982039650087,None,,,,,,,,,,,,,,,,,,,,,,,,,,,,,,,,,106,001,2023_May_25_1405,SpeechDraft1Carolyn_lessNoise_PlusLocalization,2021.2.3,60.08966351262155,
cold.wav,cold.mpg,cold,2,A,Pink_Noise_2_1.wav,Pink_Noise_2_2.wav,,,,,,,,,,,,,,,0,46,46,22,,,,,,,,,,,,,,,,,,,,,,,481.8482781800267,None,483.34886965100304,None,484.73166219101404,None,"cold
",484.73166219101404,None,return,1.1670193869795185,484.8150271240156,None,,,,,,,,,,,,,,,,,,,,,,,,,,,,,,,,,106,001,2023_May_25_1405,SpeechDraft1Carolyn_lessNoise_PlusLocalization,2021.2.3,60.08966351262155,
flip.wav,flip.mpg,flip,4,AV,Pink_Noise_4_1.wav,Pink_Noise_4_2.wav,,,,,,,,,,,,,,,0,47,47,65,,,,,,,,,,,,,,,,,,,,,,,486.0148974980111,None,487.5314404720266,None,488.9151023760205,None,"flip
",488.9151023760205,None,return,1.3836917000007816,488.9983697470161,None,,,,,,,,,,,,,,,,,,,,,,,,,,,,,,,,,106,001,2023_May_25_1405,SpeechDraft1Carolyn_lessNoise_PlusLocalization,2021.2.3,60.08966351262155,
grab.wav,grab.mpg,grab,3,AV,Pink_Noise_3_1.wav,Pink_Noise_3_2.wav,,,,,,,,,,,,,,,0,48,48,87,,,,,,,,,,,,,,,,,,,,,,,490.41491738302284,None,491.93129534000764,None,493.31507279601647,None,grand,493.31507279601647,None,return,1.2875419530028012,493.39852068800246,None,,,,,,,,,,,,,,,,,,,,,,,,,,,,,,,,,106,001,2023_May_25_1405,SpeechDraft1Carolyn_lessNoise_PlusLocalization,2021.2.3,60.08966351262155,
cause.wav,cause.mpg,cause,2,AV,Pink_Noise_2_1.wav,Pink_Noise_2_2.wav,,,,,,,,,,,,,,,0,49,49,89,,,,,,,,,,,,,,,,,,,,,,,494.71513039802085,None,496.231601247011,None,497.61497551901266,None,cause,497.61497551901266,None,return,1.107691668003099,497.6983595160127,None,,,,,,,,,,,,,,,,,,,,,,,,,,,,,,,,,106,001,2023_May_25_1405,SpeechDraft1Carolyn_lessNoise_PlusLocalization,2021.2.3,60.08966351262155,
fate.wav,fate.mpg,fate,1,A,Pink_Noise_1_1.wav,Pink_Noise_1_2.wav,,,,,,,,,,,,,,,0,50,50,9,,,,,,,,,,,,,,,,,,,,,,,498.83161293901503,None,500.3481666520238,None,501.73180873901583,None,fate,501.73180873901583,None,return,0.7588917300163303,501.81515414701425,None,,,,,,,,,,,,,,,,,,,,,,,,,,,,,,,,,106,001,2023_May_25_1405,SpeechDraft1Carolyn_lessNoise_PlusLocalization,2021.2.3,60.08966351262155,
glove.wav,glove.mpg,glove,3,A,Pink_Noise_3_1.wav,Pink_Noise_3_2.wav,,,,,,,,,,,,,,,0,51,51,56,,,,,,,,,,,,,,,,,,,,,,,502.59832993801683,None,504.1148632230179,None,505.49843368300935,None,glove,505.49843368300935,None,return,1.9764359350083396,505.5816065960098,None,,,,,,,,,,,,,,,,,,,,,,,,,,,,,,,,,106,001,2023_May_25_1405,SpeechDraft1Carolyn_lessNoise_PlusLocalization,2021.2.3,60.08966351262155,
bin.wav,bin.mpg,bin,1,A,Pink_Noise_1_1.wav,Pink_Noise_1_2.wav,,,,,,,,,,,,,,,0,52,52,18,,,,,,,,,,,,,,,,,,,,,,,507.58161020302214,None,509.08197076202487,None,510.46530127601,None,bin,510.46530127601,None,return,1.3299463049916085,510.54831645201193,None,,,,,,,,,,,,,,,,,,,,,,,,,,,,,,,,,106,001,2023_May_25_1405,SpeechDraft1Carolyn_lessNoise_PlusLocalization,2021.2.3,60.08966351262155,
bib.wav,bib.mpg,bib,5,A,Pink_Noise_5_1.wav,Pink_Noise_5_2.wav,,,,,,,,,,,,,,,0,53,53,42,,,,,,,,,,,,,,,,,,,,,,,511.8983542720089,None,513.4147523810097,None,514.7983593590034,None,build,514.7983593590034,None,return,4.316496048995759,514.8816145989986,None,,,,,,,,,,,,,,,,,,,,,,,,,,,,,,,,,106,001,2023_May_25_1405,SpeechDraft1Carolyn_lessNoise_PlusLocalization,2021.2.3,60.08966351262155,
calm.wav,calm.mpg,calm,6,AV,Pink_Noise_6_1.wav,Pink_Noise_6_2.wav,,,,,,,,,,,,,,,0,54,54,108,,,,,,,,,,,,,,,,,,,,,,,519.2157236380153,None,520.7160218930221,None,522.0984380390146,None,"calm
",522.0984380390146,None,return,3.368230546009727,522.1818450770224,None,,,,,,,,,,,,,,,,,,,,,,,,,,,,,,,,,106,001,2023_May_25_1405,SpeechDraft1Carolyn_lessNoise_PlusLocalization,2021.2.3,60.08966351262155,
brawl.wav,brawl.mpg,brawl,5,AV,Pink_Noise_5_1.wav,Pink_Noise_5_2.wav,,,,,,,,,,,,,,,0,55,55,105,,,,,,,,,,,,,,,,,,,,,,,525.581622097001,None,527.0982011400047,None,528.481804872019,None,"broad
",528.481804872019,None,return,2.6167941729945596,528.5652588240046,None,,,,,,,,,,,,,,,,,,,,,,,,,,,,,,,,,106,001,2023_May_25_1405,SpeechDraft1Carolyn_lessNoise_PlusLocalization,2021.2.3,60.08966351262155,
wind.wav,wind.mpg,wind,6,A,Pink_Noise_6_1.wav,Pink_Noise_6_2.wav,,,,,,,,,,,,,,,0,56,56,45,,,,,,,,,,,,,,,,,,,,,,,531.2151008080109,None,532.7315451280156,None,534.1151569540089,None,"warmth
",534.1151569540089,None,return,2.5192722890060395,534.2147925290046,None,,,,,,,,,,,,,,,,,,,,,,,,,,,,,,,,,106,001,2023_May_25_1405,SpeechDraft1Carolyn_lessNoise_PlusLocalization,2021.2.3,60.08966351262155,
dumb.wav,dumb.mpg,dumb,6,AV,Pink_Noise_6_1.wav,Pink_Noise_6_2.wav,,,,,,,,,,,,,,,0,57,57,73,,,,,,,,,,,,,,,,,,,,,,,536.7650175840245,None,538.2816720179981,None,539.6652537060145,None,slum,539.6652537060145,None,return,2.8575913259992376,539.7484588630032,None,,,,,,,,,,,,,,,,,,,,,,,,,,,,,,,,,106,001,2023_May_25_1405,SpeechDraft1Carolyn_lessNoise_PlusLocalization,2021.2.3,60.08966351262155,
cleft.wav,cleft.mpg,cleft,6,AV,Pink_Noise_6_1.wav,Pink_Noise_6_2.wav,,,,,,,,,,,,,,,0,58,58,84,,,,,,,,,,,,,,,,,,,,,,,542.6319348850229,None,544.1482067070028,None,545.5316579050268,None,cleft,545.5316579050268,None,return,5.894563617010135,545.6155130219995,None,,,,,,,,,,,,,,,,,,,,,,,,,,,,,,,,,106,001,2023_May_25_1405,SpeechDraft1Carolyn_lessNoise_PlusLocalization,2021.2.3,60.08966351262155,
drag.wav,drag.mpg,drag,6,AV,Pink_Noise_6_1.wav,Pink_Noise_6_2.wav,,,,,,,,,,,,,,,0,59,59,62,,,,,,,,,,,,,,,,,,,,,,,551.5319301690033,None,553.0483252980048,None,554.4319984989997,None,try,554.4319984989997,None,return,1.4429679529857822,554.5150833180232,None,,,,,,,,,,,,,,,,,,,,,,,,,,,,,,,,,106,001,2023_May_25_1405,SpeechDraft1Carolyn_lessNoise_PlusLocalization,2021.2.3,60.08966351262155,
cheat.wav,cheat.mpg,cheat,1,A,Pink_Noise_1_1.wav,Pink_Noise_1_2.wav,,,,,,,,,,,,,,,0,60,60,1,,,,,,,,,,,,,,,,,,,,,,,555.9817712970253,None,557.515234378021,None,558.8984115080093,None,cheat,558.8984115080093,None,return,0.9763779280183371,558.9816800850094,None,,,,,,,,,,,,,,,,,,,,,,,,,,,,,,,,,106,001,2023_May_25_1405,SpeechDraft1Carolyn_lessNoise_PlusLocalization,2021.2.3,60.08966351262155,
bath.wav,bath.mpg,bath,2,AV,Pink_Noise_2_1.wav,Pink_Noise_2_2.wav,,,,,,,,,,,,,,,0,61,61,117,,,,,,,,,,,,,,,,,,,,,,,559.9816871970252,None,561.4982416970015,None,562.8827137720073,None,bath,562.8827137720073,None,return,0.8809876300219912,562.9650656090234,None,,,,,,,,,,,,,,,,,,,,,,,,,,,,,,,,,106,001,2023_May_25_1405,SpeechDraft1Carolyn_lessNoise_PlusLocalization,2021.2.3,60.08966351262155,
coil.wav,coil.mpg,coil,5,AV,Pink_Noise_5_1.wav,Pink_Noise_5_2.wav,,,,,,,,,,,,,,,0,62,62,101,,,,,,,,,,,,,,,,,,,,,,,563.865161366004,None,565.3675168760237,None,566.7484040980053,None,corn,566.7484040980053,None,return,1.5581967490143143,566.8318671529996,None,,,,,,,,,,,,,,,,,,,,,,,,,,,,,,,,,106,001,2023_May_25_1405,SpeechDraft1Carolyn_lessNoise_PlusLocalization,2021.2.3,60.08966351262155,
bend.wav,bend.mpg,bend,5,AV,Pink_Noise_5_1.wav,Pink_Noise_5_2.wav,,,,,,,,,,,,,,,0,63,63,68,,,,,,,,,,,,,,,,,,,,,,,568.4151643380173,None,569.9152911150013,None,571.298431053001,None,"bend
",571.298431053001,None,return,0.7682400940102525,571.3818162649986,None,,,,,,,,,,,,,,,,,,,,,,,,,,,,,,,,,106,001,2023_May_25_1405,SpeechDraft1Carolyn_lessNoise_PlusLocalization,2021.2.3,60.08966351262155,
broil.wav,broil.mpg,broil,2,AV,Pink_Noise_2_1.wav,Pink_Noise_2_2.wav,,,,,,,,,,,,,,,0,64,64,86,,,,,,,,,,,,,,,,,,,,,,,572.1816755470063,None,573.6981155050162,None,575.0819721380249,None,broil,575.0819721380249,None,return,2.440890700003365,575.1651546670182,None,,,,,,,,,,,,,,,,,,,,,,,,,,,,,,,,,106,001,2023_May_25_1405,SpeechDraft1Carolyn_lessNoise_PlusLocalization,2021.2.3,60.08966351262155,
flood.wav,flood.mpg,flood,2,A,Pink_Noise_2_1.wav,Pink_Noise_2_2.wav,,,,,,,,,,,,,,,0,65,65,17,,,,,,,,,,,,,,,,,,,,,,,577.6317472240189,None,579.133516647009,None,580.515199654008,None,flood,580.515199654008,None,return,1.4474728099885397,580.5986049500061,None,,,,,,,,,,,,,,,,,,,,,,,,,,,,,,,,,106,001,2023_May_25_1405,SpeechDraft1Carolyn_lessNoise_PlusLocalization,2021.2.3,60.08966351262155,
dump.wav,dump.mpg,dump,1,AV,Pink_Noise_1_1.wav,Pink_Noise_1_2.wav,,,,,,,,,,,,,,,0,66,66,81,,,,,,,,,,,,,,,,,,,,,,,582.0655956460105,None,583.5655078890268,None,584.9485521800234,None,dump,584.9485521800234,None,return,1.2783914710162207,585.0316763099981,None,,,,,,,,,,,,,,,,,,,,,,,,,,,,,,,,,106,001,2023_May_25_1405,SpeechDraft1Carolyn_lessNoise_PlusLocalization,2021.2.3,60.08966351262155,
fresh.wav,fresh.mpg,fresh,4,A,Pink_Noise_4_1.wav,Pink_Noise_4_2.wav,,,,,,,,,,,,,,,0,67,67,52,,,,,,,,,,,,,,,,,,,,,,,586.3317918620014,None,587.8483187350212,None,589.2318611310038,None,"brush
",589.2318611310038,None,return,2.8506566240102984,589.31540004001,None,,,,,,,,,,,,,,,,,,,,,,,,,,,,,,,,,106,001,2023_May_25_1405,SpeechDraft1Carolyn_lessNoise_PlusLocalization,2021.2.3,60.08966351262155,
fur.wav,fur.mpg,fur,4,A,Pink_Noise_4_1.wav,Pink_Noise_4_2.wav,,,,,,,,,,,,,,,0,68,68,40,,,,,,,,,,,,,,,,,,,,,,,592.1986672690255,None,593.7150084970053,None,595.081871863018,None,heat,595.081871863018,None,return,2.376906746008899,595.1651401400159,None,,,,,,,,,,,,,,,,,,,,,,,,,,,,,,,,,106,001,2023_May_25_1405,SpeechDraft1Carolyn_lessNoise_PlusLocalization,2021.2.3,60.08966351262155,
glide.wav,glide.mpg,glide,4,AV,Pink_Noise_4_1.wav,Pink_Noise_4_2.wav,,,,,,,,,,,,,,,0,69,69,74,,,,,,,,,,,,,,,,,,,,,,,597.5651246100024,None,599.0815960610053,None,600.4652043560054,None,"glide
",600.4652043560054,None,return,1.153373348992318,600.5486783480155,None,,,,,,,,,,,,,,,,,,,,,,,,,,,,,,,,,106,001,2023_May_25_1405,SpeechDraft1Carolyn_lessNoise_PlusLocalization,2021.2.3,60.08966351262155,
break.wav,break.mpg,break,3,A,Pink_Noise_3_1.wav,Pink_Noise_3_2.wav,,,,,,,,,,,,,,,0,70,70,2,,,,,,,,,,,,,,,,,,,,,,,601.7318760110065,None,603.248243701004,None,604.6320023790176,None,break,604.6320023790176,None,return,2.042955236014677,604.7151021250174,None,,,,,,,,,,,,,,,,,,,,,,,,,,,,,,,,,106,001,2023_May_25_1405,SpeechDraft1Carolyn_lessNoise_PlusLocalization,2021.2.3,60.08966351262155,
greed.wav,greed.mpg,greed,6,AV,Pink_Noise_6_1.wav,Pink_Noise_6_2.wav,,,,,,,,,,,,,,,0,71,71,76,,,,,,,,,,,,,,,,,,,,,,,606.7819249380263,None,608.2983697660093,None,609.6820979890181,None,greet,609.6820979890181,None,return,2.4888762720220257,609.7652806850092,None,,,,,,,,,,,,,,,,,,,,,,,,,,,,,,,,,106,001,2023_May_25_1405,SpeechDraft1Carolyn_lessNoise_PlusLocalization,2021.2.3,60.08966351262155,
bible.wav,bible.mpg,bible,4,A,Pink_Noise_4_1.wav,Pink_Noise_4_2.wav,,,,,,,,,,,,,,,0,72,72,15,,,,,,,,,,,,,,,,,,,,,,,612.2817329020181,None,613.7983591340017,None,615.1818747110083,None,"bible
",615.1818747110083,None,return,1.0849767699837685,615.2650897120184,None,,,,,,,,,,,,,,,,,,,,,,,,,,,,,,,,,106,001,2023_May_25_1405,SpeechDraft1Carolyn_lessNoise_PlusLocalization,2021.2.3,60.08966351262155,
cube.wav,cube.mpg,cube,1,A,Pink_Noise_1_1.wav,Pink_Noise_1_2.wav,,,,,,,,,,,,,,,0,73,73,20,,,,,,,,,,,,,,,,,,,,,,,616.3820780730166,None,617.8840585850121,None,619.2652726350061,None,qued,619.2652726350061,None,return,3.5055774330103304,619.3485435360053,None,,,,,,,,,,,,,,,,,,,,,,,,,,,,,,,,,106,001,2023_May_25_1405,SpeechDraft1Carolyn_lessNoise_PlusLocalization,2021.2.3,60.08966351262155,
chop.wav,chop.mpg,chop,1,AV,Pink_Noise_1_1.wav,Pink_Noise_1_2.wav,,,,,,,,,,,,,,,0,74,74,100,,,,,,,,,,,,,,,,,,,,,,,622.8819400200155,None,624.3983024320041,None,625.7819194699987,None,chao,625.7819194699987,None,return,1.3407187850098126,625.8654005040007,None,,,,,,,,,,,,,,,,,,,,,,,,,,,,,,,,,106,001,2023_May_25_1405,SpeechDraft1Carolyn_lessNoise_PlusLocalization,2021.2.3,60.08966351262155,
poll.wav,poll.mpg,poll,2,A,Pink_Noise_2_1.wav,Pink_Noise_2_2.wav,,,,,,,,,,,,,,,0,75,75,26,,,,,,,,,,,,,,,,,,,,,,,627.2318979240081,None,628.7482563990052,None,630.131962842017,None,"cold
",630.131962842017,None,return,1.3348831160110421,630.2151813590026,None,,,,,,,,,,,,,,,,,,,,,,,,,,,,,,,,,106,001,2023_May_25_1405,SpeechDraft1Carolyn_lessNoise_PlusLocalization,2021.2.3,60.08966351262155,
flash.wav,flash.mpg,flash,2,A,Pink_Noise_2_1.wav,Pink_Noise_2_2.wav,,,,,,,,,,,,,,,0,76,76,59,,,,,,,,,,,,,,,,,,,,,,,631.5820514480001,None,633.0984257300152,None,634.4819299090013,None,flash,634.4819299090013,None,return,1.1446441790030804,634.5654204990133,None,,,,,,,,,,,,,,,,,,,,,,,,,,,,,,,,,106,001,2023_May_25_1405,SpeechDraft1Carolyn_lessNoise_PlusLocalization,2021.2.3,60.08966351262155,
eye.wav,eye.mpg,eye,1,AV,Pink_Noise_1_1.wav,Pink_Noise_1_2.wav,,,,,,,,,,,,,,,0,77,77,82,,,,,,,,,,,,,,,,,,,,,,,635.7318968750187,None,637.2482383370225,None,638.6318374440016,None,eye,638.6318374440016,None,return,0.8108333349809982,638.7152484310209,None,,,,,,,,,,,,,,,,,,,,,,,,,,,,,,,,,106,001,2023_May_25_1405,SpeechDraft1Carolyn_lessNoise_PlusLocalization,2021.2.3,60.08966351262155,
rod.wav,rod.mpg,rod,3,AV,Pink_Noise_3_1.wav,Pink_Noise_3_2.wav,,,,,,,,,,,,,,,0,78,78,119,,,,,,,,,,,,,,,,,,,,,,,639.548625210009,None,641.0649555970158,None,642.4485478530114,None,ride,642.4485478530114,None,return,0.8582288849866018,642.5318563500186,None,,,,,,,,,,,,,,,,,,,,,,,,,,,,,,,,,106,001,2023_May_25_1405,SpeechDraft1Carolyn_lessNoise_PlusLocalization,2021.2.3,60.08966351262155,
glare.wav,glare.mpg,glare,3,A,Pink_Noise_3_1.wav,Pink_Noise_3_2.wav,,,,,,,,,,,,,,,0,79,79,50,,,,,,,,,,,,,,,,,,,,,,,643.4154234880116,None,644.931657669018,None,646.3152781530225,None,"glare
",646.3152781530225,None,return,0.9673328350181691,646.3987264840107,None,,,,,,,,,,,,,,,,,,,,,,,,,,,,,,,,,106,001,2023_May_25_1405,SpeechDraft1Carolyn_lessNoise_PlusLocalization,2021.2.3,60.08966351262155,
chip.wav,chip.mpg,chip,6,AV,Pink_Noise_6_1.wav,Pink_Noise_6_2.wav,,,,,,,,,,,,,,,0,80,80,67,,,,,,,,,,,,,,,,,,,,,,,647.3985751220025,None,648.91514955202,None,650.2985237009998,None,"chip
",650.2985237009998,None,return,1.5521620179933961,650.3818972940207,None,,,,,,,,,,,,,,,,,,,,,,,,,,,,,,,,,106,001,2023_May_25_1405,SpeechDraft1Carolyn_lessNoise_PlusLocalization,2021.2.3,60.08966351262155,
bait.wav,bait.mpg,bait,3,A,Pink_Noise_3_1.wav,Pink_Noise_3_2.wav,,,,,,,,,,,,,,,0,81,81,57,,,,,,,,,,,,,,,,,,,,,,,651.9652514150075,None,653.4816965520149,None,654.865325723018,None,fate,654.865325723018,None,return,0.9296012900013011,654.9485025920148,None,,,,,,,,,,,,,,,,,,,,,,,,,,,,,,,,,106,001,2023_May_25_1405,SpeechDraft1Carolyn_lessNoise_PlusLocalization,2021.2.3,60.08966351262155,
duet.wav,duet.mpg,duet,4,A,Pink_Noise_4_1.wav,Pink_Noise_4_2.wav,,,,,,,,,,,,,,,0,82,82,58,,,,,,,,,,,,,,,,,,,,,,,655.8986365310266,None,657.431747715018,None,658.8152445630112,None,duet,658.8152445630112,None,return,0.7313481630117167,658.8988037530216,None,,,,,,,,,,,,,,,,,,,,,,,,,,,,,,,,,106,001,2023_May_25_1405,SpeechDraft1Carolyn_lessNoise_PlusLocalization,2021.2.3,60.08966351262155,
bound.wav,bound.mpg,bound,1,A,Pink_Noise_1_1.wav,Pink_Noise_1_2.wav,,,,,,,,,,,,,,,0,83,83,11,,,,,,,,,,,,,,,,,,,,,,,659.6486469540105,None,661.1816483990115,None,662.5653009920206,None,bound,662.5653009920206,None,return,0.8615652199951,662.6484981040121,None,,,,,,,,,,,,,,,,,,,,,,,,,,,,,,,,,106,001,2023_May_25_1405,SpeechDraft1Carolyn_lessNoise_PlusLocalization,2021.2.3,60.08966351262155,
box.wav,box.mpg,box,1,A,Pink_Noise_1_1.wav,Pink_Noise_1_2.wav,,,,,,,,,,,,,,,0,84,84,47,,,,,,,,,,,,,,,,,,,,,,,663.5317908200086,None,665.0483118530246,None,666.4318281900196,None,fox,666.4318281900196,None,return,2.290326942980755,666.5157021190098,None,,,,,,,,,,,,,,,,,,,,,,,,,,,,,,,,,106,001,2023_May_25_1405,SpeechDraft1Carolyn_lessNoise_PlusLocalization,2021.2.3,60.08966351262155,
tart.wav,tart.mpg,tart,2,A,Pink_Noise_2_1.wav,Pink_Noise_2_2.wav,,,,,,,,,,,,,,,0,85,85,21,,,,,,,,,,,,,,,,,,,,,,,668.8318611420109,None,670.3483786650177,None,671.7318988280022,None,tart,671.7318988280022,None,return,1.0787703240057454,671.8153491970152,None,,,,,,,,,,,,,,,,,,,,,,,,,,,,,,,,,106,001,2023_May_25_1405,SpeechDraft1Carolyn_lessNoise_PlusLocalization,2021.2.3,60.08966351262155,
cat.wav,cat.mpg,cat,2,AV,Pink_Noise_2_1.wav,Pink_Noise_2_2.wav,,,,,,,,,,,,,,,0,86,86,78,,,,,,,,,,,,,,,,,,,,,,,672.915281597001,None,674.4318769579986,None,675.8153229750169,None,cat,675.8153229750169,None,return,0.8113330859923735,675.8987136140058,None,,,,,,,,,,,,,,,,,,,,,,,,,,,,,,,,,106,001,2023_May_25_1405,SpeechDraft1Carolyn_lessNoise_PlusLocalization,2021.2.3,60.08966351262155,
clap.wav,clap.mpg,clap,3,A,Pink_Noise_3_1.wav,Pink_Noise_3_2.wav,,,,,,,,,,,,,,,0,87,87,25,,,,,,,,,,,,,,,,,,,,,,,676.732045427023,None,678.2482529440022,None,679.6319663980103,None,"clap
",679.6319663980103,None,return,1.2345735410053749,679.7155124800047,None,,,,,,,,,,,,,,,,,,,,,,,,,,,,,,,,,106,001,2023_May_25_1405,SpeechDraft1Carolyn_lessNoise_PlusLocalization,2021.2.3,60.08966351262155,
buzz.wav,buzz.mpg,buzz,5,A,Pink_Noise_5_1.wav,Pink_Noise_5_2.wav,,,,,,,,,,,,,,,0,88,88,36,,,,,,,,,,,,,,,,,,,,,,,680.9818731130217,None,682.4982529480185,None,683.8820129350061,None,pause,683.8820129350061,None,return,1.5608300869935192,683.9652358470194,None,,,,,,,,,,,,,,,,,,,,,,,,,,,,,,,,,106,001,2023_May_25_1405,SpeechDraft1Carolyn_lessNoise_PlusLocalization,2021.2.3,60.08966351262155,
blind.wav,blind.mpg,blind,2,AV,Pink_Noise_2_1.wav,Pink_Noise_2_2.wav,,,,,,,,,,,,,,,0,89,89,97,,,,,,,,,,,,,,,,,,,,,,,685.5487097580044,None,687.0501587720064,None,688.4319877670205,None,blind,688.4319877670205,None,return,1.1147145059949253,688.5153583910142,None,,,,,,,,,,,,,,,,,,,,,,,,,,,,,,,,,106,001,2023_May_25_1405,SpeechDraft1Carolyn_lessNoise_PlusLocalization,2021.2.3,60.08966351262155,
solve.wav,solve.mpg,solve,1,AV,Pink_Noise_1_1.wav,Pink_Noise_1_2.wav,,,,,,,,,,,,,,,0,90,90,71,,,,,,,,,,,,,,,,,,,,,,,689.6486326930171,None,691.1816588890215,None,692.5652860250266,None,solv,692.5652860250266,None,return,1.8772064479999244,692.6488453830243,None,,,,,,,,,,,,,,,,,,,,,,,,,,,,,,,,,106,001,2023_May_25_1405,SpeechDraft1Carolyn_lessNoise_PlusLocalization,2021.2.3,60.08966351262155,
dim.wav,dim.mpg,dim,4,A,Pink_Noise_4_1.wav,Pink_Noise_4_2.wav,,,,,,,,,,,,,,,0,91,91,38,,,,,,,,,,,,,,,,,,,,,,,694.5486678220041,None,696.0815770900226,None,697.465360244998,None,dim,697.465360244998,None,return,1.0815663700050209,697.5486222449981,None,,,,,,,,,,,,,,,,,,,,,,,,,,,,,,,,,106,001,2023_May_25_1405,SpeechDraft1Carolyn_lessNoise_PlusLocalization,2021.2.3,60.08966351262155,
fund.wav,fund.mpg,fund,5,AV,Pink_Noise_5_1.wav,Pink_Noise_5_2.wav,,,,,,,,,,,,,,,0,92,92,118,,,,,,,,,,,,,,,,,,,,,,,698.6486958410242,None,700.1817478540179,None,701.5488771530217,None,"front
",701.5488771530217,None,return,1.301930903980974,701.6321467290109,None,,,,,,,,,,,,,,,,,,,,,,,,,,,,,,,,,106,001,2023_May_25_1405,SpeechDraft1Carolyn_lessNoise_PlusLocalization,2021.2.3,60.08966351262155,
gun.wav,gun.mpg,gun,4,AV,Pink_Noise_4_1.wav,Pink_Noise_4_2.wav,,,,,,,,,,,,,,,0,93,93,116,,,,,,,,,,,,,,,,,,,,,,,702.9654199500219,None,704.4817291880026,None,705.8652604120143,None,gun,705.8652604120143,None,return,0.8814788830059115,705.9486423410126,None,,,,,,,,,,,,,,,,,,,,,,,,,,,,,,,,,106,001,2023_May_25_1405,SpeechDraft1Carolyn_lessNoise_PlusLocalization,2021.2.3,60.08966351262155,
fed.wav,fed.mpg,fed,5,AV,Pink_Noise_5_1.wav,Pink_Noise_5_2.wav,,,,,,,,,,,,,,,0,94,94,85,,,,,,,,,,,,,,,,,,,,,,,706.8486989790108,None,708.3652090200048,None,709.748742100026,None,fed,709.748742100026,None,return,1.7499464210122824,709.8321259140212,None,,,,,,,,,,,,,,,,,,,,,,,,,,,,,,,,,106,001,2023_May_25_1405,SpeechDraft1Carolyn_lessNoise_PlusLocalization,2021.2.3,60.08966351262155,
tear.wav,tear.mpg,tear,6,A,Pink_Noise_6_1.wav,Pink_Noise_6_2.wav,,,,,,,,,,,,,,,0,95,95,41,,,,,,,,,,,,,,,,,,,,,,,711.5986817200028,None,713.1152606350079,None,714.4988477400038,None,"clang
",714.4988477400038,None,return,2.967998093983624,714.5820639230078,None,,,,,,,,,,,,,,,,,,,,,,,,,,,,,,,,,106,001,2023_May_25_1405,SpeechDraft1Carolyn_lessNoise_PlusLocalization,2021.2.3,60.08966351262155,
funk.wav,funk.mpg,funk,5,A,Pink_Noise_5_1.wav,Pink_Noise_5_2.wav,,,,,,,,,,,,,,,0,96,96,24,,,,,,,,,,,,,,,,,,,,,,,717.5820402360114,None,719.0985407190165,None,720.4820702020079,None,touch,720.4820702020079,None,return,3.7925746729888488,720.5654798650066,None,,,,,,,,,,,,,,,,,,,,,,,,,,,,,,,,,106,001,2023_May_25_1405,SpeechDraft1Carolyn_lessNoise_PlusLocalization,2021.2.3,60.08966351262155,
broom.wav,broom.mpg,broom,3,AV,Pink_Noise_3_1.wav,Pink_Noise_3_2.wav,,,,,,,,,,,,,,,0,97,97,111,,,,,,,,,,,,,,,,,,,,,,,724.3819662960013,None,725.8986088329984,None,727.2819306730235,None,"broom
",727.2819306730235,None,return,1.952560885983985,727.3654950260243,None,,,,,,,,,,,,,,,,,,,,,,,,,,,,,,,,,106,001,2023_May_25_1405,SpeechDraft1Carolyn_lessNoise_PlusLocalization,2021.2.3,60.08966351262155,
traps.wav,traps.mpg,traps,5,AV,Pink_Noise_5_1.wav,Pink_Noise_5_2.wav,,,,,,,,,,,,,,,0,98,98,106,,,,,,,,,,,,,,,,,,,,,,,729.3485336890153,None,730.8817376630032,None,732.265337814024,None,"traps
",732.265337814024,None,return,2.017362045997288,732.348704434,None,,,,,,,,,,,,,,,,,,,,,,,,,,,,,,,,,106,001,2023_May_25_1405,SpeechDraft1Carolyn_lessNoise_PlusLocalization,2021.2.3,60.08966351262155,
chow.wav,chow.mpg,chow,5,A,Pink_Noise_5_1.wav,Pink_Noise_5_2.wav,,,,,,,,,,,,,,,0,99,99,5,,,,,,,,,,,,,,,,,,,,,,,734.3987490430009,None,735.9485920790175,None,737.3321241580124,None,child,737.3321241580124,None,return,1.6467259890050627,737.4153853930184,None,,,,,,,,,,,,,,,,,,,,,,,,,,,,,,,,,106,001,2023_May_25_1405,SpeechDraft1Carolyn_lessNoise_PlusLocalization,2021.2.3,60.08966351262155,
cap.wav,cap.mpg,cap,3,AV,Pink_Noise_3_1.wav,Pink_Noise_3_2.wav,,,,,,,,,,,,,,,0,100,100,70,,,,,,,,,,,,,,,,,,,,,,,739.0821833370137,None,740.5988614500093,None,741.9820436210139,None,"cap
",741.9820436210139,None,return,2.4367494430043735,742.0653066090017,None,,,,,,,,,,,,,,,,,,,,,,,,,,,,,,,,,106,001,2023_May_25_1405,SpeechDraft1Carolyn_lessNoise_PlusLocalization,2021.2.3,60.08966351262155,
gulp.wav,gulp.mpg,gulp,3,AV,Pink_Noise_3_1.wav,Pink_Noise_3_2.wav,,,,,,,,,,,,,,,0,101,101,60,,,,,,,,,,,,,,,,,,,,,,,744.5319803590246,None,746.0483599760046,None,747.4320151600114,None,"gulp
",747.4320151600114,None,return,1.466594713012455,747.5154820770258,None,,,,,,,,,,,,,,,,,,,,,,,,,,,,,,,,,106,001,2023_May_25_1405,SpeechDraft1Carolyn_lessNoise_PlusLocalization,2021.2.3,60.08966351262155,
damp.wav,damp.mpg,damp,6,A,Pink_Noise_6_1.wav,Pink_Noise_6_2.wav,,,,,,,,,,,,,,,0,102,102,28,,,,,,,,,,,,,,,,,,,,,,,749.0153177780157,None,750.5316887939989,None,751.9153825490212,None,"blush
",751.9153825490212,None,return,1.7673957209917717,751.9986749250093,None,,,,,,,,,,,,,,,,,,,,,,,,,,,,,,,,,106,001,2023_May_25_1405,SpeechDraft1Carolyn_lessNoise_PlusLocalization,2021.2.3,60.08966351262155,
wound.wav,wound.mpg,wound,3,A,Pink_Noise_3_1.wav,Pink_Noise_3_2.wav,,,,,,,,,,,,,,,0,103,103,16,,,,,,,,,,,,,,,,,,,,,,,753.7986770210264,None,755.3318596620229,None,756.7158773330157,None,gloomed,756.7158773330157,None,return,2.2074488479993306,756.7986864230188,None,,,,,,,,,,,,,,,,,,,,,,,,,,,,,,,,,106,001,2023_May_25_1405,SpeechDraft1Carolyn_lessNoise_PlusLocalization,2021.2.3,60.08966351262155,
dock.wav,dock.mpg,dock,4,AV,Pink_Noise_4_1.wav,Pink_Noise_4_2.wav,,,,,,,,,,,,,,,0,104,104,98,,,,,,,,,,,,,,,,,,,,,,,759.032214632025,None,760.5652114020195,None,761.9486891120032,None,die,761.9486891120032,None,return,3.806201861007139,762.032016067009,None,,,,,,,,,,,,,,,,,,,,,,,,,,,,,,,,,106,001,2023_May_25_1405,SpeechDraft1Carolyn_lessNoise_PlusLocalization,2021.2.3,60.08966351262155,
cramp.wav,cramp.mpg,cramp,5,A,Pink_Noise_5_1.wav,Pink_Noise_5_2.wav,,,,,,,,,,,,,,,0,105,105,55,,,,,,,,,,,,,,,,,,,,,,,765.8654021910043,None,767.4150899950182,None,768.7987818010151,None,clan,768.7987818010151,None,return,2.172102030017413,768.8819995810045,None,,,,,,,,,,,,,,,,,,,,,,,,,,,,,,,,,106,001,2023_May_25_1405,SpeechDraft1Carolyn_lessNoise_PlusLocalization,2021.2.3,60.08966351262155,
gum.wav,gum.mpg,gum,2,A,Pink_Noise_2_1.wav,Pink_Noise_2_2.wav,,,,,,,,,,,,,,,0,106,106,4,,,,,,,,,,,,,,,,,,,,,,,771.0818906180211,None,772.6317822190176,None,773.9989616920066,None,gum,773.9989616920066,None,return,1.3958560219907667,774.0821896140114,None,,,,,,,,,,,,,,,,,,,,,,,,,,,,,,,,,106,001,2023_May_25_1405,SpeechDraft1Carolyn_lessNoise_PlusLocalization,2021.2.3,60.08966351262155,
catch.wav,catch.mpg,catch,3,A,Pink_Noise_3_1.wav,Pink_Noise_3_2.wav,,,,,,,,,,,,,,,0,107,107,48,,,,,,,,,,,,,,,,,,,,,,,775.4988875770068,None,777.0150299100205,None,778.398790101026,None,catch,778.398790101026,None,return,1.379997670010198,778.4821722769993,None,,,,,,,,,,,,,,,,,,,,,,,,,,,,,,,,,106,001,2023_May_25_1405,SpeechDraft1Carolyn_lessNoise_PlusLocalization,2021.2.3,60.08966351262155,
bump.wav,bump.mpg,bump,4,A,Pink_Noise_4_1.wav,Pink_Noise_4_2.wav,,,,,,,,,,,,,,,0,108,108,46,,,,,,,,,,,,,,,,,,,,,,,779.8821553590242,None,781.3985237690213,None,782.7821329940052,None,gulp,782.7821329940052,None,return,3.9246492669917643,782.8654323060182,None,,,,,,,,,,,,,,,,,,,,,,,,,,,,,,,,,106,001,2023_May_25_1405,SpeechDraft1Carolyn_lessNoise_PlusLocalization,2021.2.3,60.08966351262155,
tense.wav,tense.mpg,tense,1,AV,Pink_Noise_1_1.wav,Pink_Noise_1_2.wav,,,,,,,,,,,,,,,0,109,109,113,,,,,,,,,,,,,,,,,,,,,,,786.8155436509987,None,788.3485634640092,None,789.7321808450215,None,tents,789.7321808450215,None,return,1.182549327990273,789.8155623890052,None,,,,,,,,,,,,,,,,,,,,,,,,,,,,,,,,,106,001,2023_May_25_1405,SpeechDraft1Carolyn_lessNoise_PlusLocalization,2021.2.3,60.08966351262155,
crowd.wav,crowd.mpg,crowd,6,A,Pink_Noise_6_1.wav,Pink_Noise_6_2.wav,,,,,,,,,,,,,,,0,110,110,3,,,,,,,,,,,,,,,,,,,,,,,791.0319337330002,None,792.5502402880229,None,793.9323114140134,None,crab,793.9323114140134,None,return,1.6145719189953525,794.015476422006,None,,,,,,,,,,,,,,,,,,,,,,,,,,,,,,,,,106,001,2023_May_25_1405,SpeechDraft1Carolyn_lessNoise_PlusLocalization,2021.2.3,60.08966351262155,
bloat.wav,bloat.mpg,bloat,3,A,Pink_Noise_3_1.wav,Pink_Noise_3_2.wav,,,,,,,,,,,,,,,0,111,111,7,,,,,,,,,,,,,,,,,,,,,,,795.6488507360045,None,797.1819222340127,None,798.5657004649984,None,gloat,798.5657004649984,None,return,1.7252775020024274,798.6487661620195,None,,,,,,,,,,,,,,,,,,,,,,,,,,,,,,,,,106,001,2023_May_25_1405,SpeechDraft1Carolyn_lessNoise_PlusLocalization,2021.2.3,60.08966351262155,
bake.wav,bake.mpg,bake,4,A,Pink_Noise_4_1.wav,Pink_Noise_4_2.wav,,,,,,,,,,,,,,,0,112,112,35,,,,,,,,,,,,,,,,,,,,,,,800.3987061290245,None,801.9484817600169,None,803.3321262290119,None,bake,803.3321262290119,None,return,1.5746212039957754,803.4154661990178,None,,,,,,,,,,,,,,,,,,,,,,,,,,,,,,,,,106,001,2023_May_25_1405,SpeechDraft1Carolyn_lessNoise_PlusLocalization,2021.2.3,60.08966351262155,
cry.wav,cry.mpg,cry,2,A,Pink_Noise_2_1.wav,Pink_Noise_2_2.wav,,,,,,,,,,,,,,,0,113,113,53,,,,,,,,,,,,,,,,,,,,,,,805.0155464510026,None,806.548593717016,None,807.9321757790167,None,cry,807.9321757790167,None,return,1.1105240820033941,808.0155271590047,None,,,,,,,,,,,,,,,,,,,,,,,,,,,,,,,,,106,001,2023_May_25_1405,SpeechDraft1Carolyn_lessNoise_PlusLocalization,2021.2.3,60.08966351262155,
gash.wav,gash.mpg,gash,5,A,Pink_Noise_5_1.wav,Pink_Noise_5_2.wav,,,,,,,,,,,,,,,0,114,114,31,,,,,,,,,,,,,,,,,,,,,,,809.1487054820172,None,810.6984689500241,None,812.082597221015,None,"catch
",812.082597221015,None,return,2.336415288998978,812.165628976014,None,,,,,,,,,,,,,,,,,,,,,,,,,,,,,,,,,106,001,2023_May_25_1405,SpeechDraft1Carolyn_lessNoise_PlusLocalization,2021.2.3,60.08966351262155,
shed.wav,shed.mpg,shed,5,A,Pink_Noise_5_1.wav,Pink_Noise_5_2.wav,,,,,,,,,,,,,,,0,115,115,13,,,,,,,,,,,,,,,,,,,,,,,814.5322339900013,None,816.0485044180241,None,817.4322293680161,None,trend,817.4322293680161,None,return,1.130637836002279,817.5154325510084,None,,,,,,,,,,,,,,,,,,,,,,,,,,,,,,,,,106,001,2023_May_25_1405,SpeechDraft1Carolyn_lessNoise_PlusLocalization,2021.2.3,60.08966351262155,
forth.wav,forth.mpg,forth,3,AV,Pink_Noise_3_1.wav,Pink_Noise_3_2.wav,,,,,,,,,,,,,,,0,116,116,79,,,,,,,,,,,,,,,,,,,,,,,818.6655569139984,None,820.1820084570209,None,821.5659821430163,None,"forth
",821.5659821430163,None,return,2.28518454200821,821.6489191340224,None,,,,,,,,,,,,,,,,,,,,,,,,,,,,,,,,,106,001,2023_May_25_1405,SpeechDraft1Carolyn_lessNoise_PlusLocalization,2021.2.3,60.08966351262155,
fork.wav,fork.mpg,fork,5,AV,Pink_Noise_5_1.wav,Pink_Noise_5_2.wav,,,,,,,,,,,,,,,0,117,117,64,,,,,,,,,,,,,,,,,,,,,,,823.9655525370035,None,825.4984890340129,None,826.8821291440108,None,fort,826.8821291440108,None,return,3.408631295984378,826.9654439270089,None,,,,,,,,,,,,,,,,,,,,,,,,,,,,,,,,,106,001,2023_May_25_1405,SpeechDraft1Carolyn_lessNoise_PlusLocalization,2021.2.3,60.08966351262155,
guard.wav,guard.mpg,guard,5,A,Pink_Noise_5_1.wav,Pink_Noise_5_2.wav,,,,,,,,,,,,,,,0,118,118,54,,,,,,,,,,,,,,,,,,,,,,,830.3987492250162,None,831.9318421659991,None,833.3155031320057,None,hard,833.3155031320057,None,return,3.1111634200206026,833.3988972510269,None,,,,,,,,,,,,,,,,,,,,,,,,,,,,,,,,,106,001,2023_May_25_1405,SpeechDraft1Carolyn_lessNoise_PlusLocalization,2021.2.3,60.08966351262155,
shock.wav,shock.mpg,shock,1,AV,Pink_Noise_1_1.wav,Pink_Noise_1_2.wav,,,,,,,,,,,,,,,0,119,119,66,,,,,,,,,,,,,,,,,,,,,,,836.5322833220125,None,838.0819837170129,None,839.4655606150045,None,shock,839.4655606150045,None,return,5.249258889001794,839.5488445800147,None,,,,,,,,,,,,,,,,,,,,,,,,,,,,,,,,,106,001,2023_May_25_1405,SpeechDraft1Carolyn_lessNoise_PlusLocalization,2021.2.3,60.08966351262155,
,,,,,,,,,,,,,,,,,,,,,,,,,,,,,,,,,,,,,,,,,,,,,,,,,,,,,,,,,,,,,,,,,,space,33.362460064003244,844.9156371480203,None,,,,,,,,,,,,,,,,,,,,,,,106,001,2023_May_25_1405,SpeechDraft1Carolyn_lessNoise_PlusLocalization,2021.2.3,60.08966351262155,
,,,,,,,,nearRight,6.5,0,ch1Sound_localizationTask.wav,6.5,"(1047, 878)","(87, -202)",95,-338,,,,,,,,,0,0,0,4,,,,,,,,,,,,,,,,,,,,,,,,,,,,,,,,,,,,,,,,,,844.9156371480203,None,878.315424417,None,879.4154409290059,None,880.3487115650205,None,1.1936507936507936,3.4185327980085276,880.3487115650205,None,,,,,,,,,,,106,001,2023_May_25_1405,SpeechDraft1Carolyn_lessNoise_PlusLocalization,2021.2.3,60.08966351262155,
,,,,,,,,midLeft,-13.0,2,ch1Sound_localizationTask.wav,-13.0,"(762, 878)","(-198,-202)",-190,-338,,,,,,,,,0,1,1,1,,,,,,,,,,,,,,,,,,,,,,,,,,,,,,,,,,,,,,,,,,,,883.7822023699991,None,884.8820222050126,None,885.8154599160189,None,1.2777777777777777,2.1154934389924165,885.8154599160189,None,,,,,,,,,,,106,001,2023_May_25_1405,SpeechDraft1Carolyn_lessNoise_PlusLocalization,2021.2.3,60.08966351262155,
,,,,,,,,midLeft,-13.0,2,ch1Sound_localizationTask.wav,-13.0,"(762, 878)","(-198,-202)",-190,-338,,,,,,,,,0,2,2,1,,,,,,,,,,,,,,,,,,,,,,,,,,,,,,,,,,,,,,,,,,,,887.9322353260068,None,889.0320180480194,None,889.9654987050162,None,1.2703703703703704,0.9483849399839528,889.9654987050162,None,,,,,,,,,,,106,001,2023_May_25_1405,SpeechDraft1Carolyn_lessNoise_PlusLocalization,2021.2.3,60.08966351262155,
,,,,,,,,center,0.0,6,ch1Sound_localizationTask.wav,0.0,"(952, 878)","(-8,-202)",0,-338,,,,,,,,,0,3,3,3,,,,,,,,,,,,,,,,,,,,,,,,,,,,,,,,,,,,,,,,,,,,890.9156766630185,None,892.0154736990226,None,892.9486832070106,None,1.271957671957672,1.3159965470258612,892.9486832070106,None,,,,,,,,,,,106,001,2023_May_25_1405,SpeechDraft1Carolyn_lessNoise_PlusLocalization,2021.2.3,60.08966351262155,
,,,,,,,,midRight,13.0,3,ch1Sound_localizationTask.wav,13.0,"(1142, 878)","(182, -202)",190,-338,,,,,,,,,0,4,4,5,,,,,,,,,,,,,,,,,,,,,,,,,,,,,,,,,,,,,,,,,,,,894.2662472750235,None,895.3653305199987,None,896.2986713389982,None,1.2915343915343915,1.0488989310106263,896.2986713389982,None,,,,,,,,,,,106,001,2023_May_25_1405,SpeechDraft1Carolyn_lessNoise_PlusLocalization,2021.2.3,60.08966351262155,
,,,,,,,,farRight,19.1,4,ch1Sound_localizationTask.wav,19.1,"(1237, 878)","(277,-202)",285,-338,,,,,,,,,0,5,5,6,,,,,,,,,,,,,,,,,,,,,,,,,,,,,,,,,,,,,,,,,,,,897.3490746350144,None,898.448680608999,None,899.3819996280072,None,1.3486772486772487,1.20063124698936,899.3819996280072,None,,,,,,,,,,,106,001,2023_May_25_1405,SpeechDraft1Carolyn_lessNoise_PlusLocalization,2021.2.3,60.08966351262155,
,,,,,,,,farRight,19.1,4,ch1Sound_localizationTask.wav,19.1,"(1237, 878)","(277,-202)",285,-338,,,,,,,,,0,6,6,6,,,,,,,,,,,,,,,,,,,,,,,,,,,,,,,,,,,,,,,,,,,,900.5989703540108,None,901.6986955880129,None,902.6320454530069,None,1.364021164021164,0.6001187319925521,902.6320454530069,None,,,,,,,,,,,106,001,2023_May_25_1405,SpeechDraft1Carolyn_lessNoise_PlusLocalization,2021.2.3,60.08966351262155,
,,,,,,,,midRight,13.0,3,ch1Sound_localizationTask.wav,13.0,"(1142, 878)","(182, -202)",190,-338,,,,,,,,,1,0,7,5,,,,,,,,,,,,,,,,,,,,,,,,,,,,,,,,,,,,,,,,,,,,903.2490033729991,None,904.3486772059987,None,905.2820697510033,None,1.3365079365079366,0.6161792280036025,905.2820697510033,None,,,,,,,,,,,106,001,2023_May_25_1405,SpeechDraft1Carolyn_lessNoise_PlusLocalization,2021.2.3,60.08966351262155,
,,,,,,,,nearLeft,-6.5,1,ch1Sound_localizationTask.wav,-6.5,"(857, 878)","(-103,-202)",-95,-338,,,,,,,,,1,1,8,2,,,,,,,,,,,,,,,,,,,,,,,,,,,,,,,,,,,,,,,,,,,,905.8993734020041,None,906.9987950710056,None,907.9319661050104,None,1.2952380952380953,0.8991292379796505,907.9319661050104,None,,,,,,,,,,,106,001,2023_May_25_1405,SpeechDraft1Carolyn_lessNoise_PlusLocalization,2021.2.3,60.08966351262155,
,,,,,,,,midRight,13.0,3,ch1Sound_localizationTask.wav,13.0,"(1142, 878)","(182, -202)",190,-338,,,,,,,,,1,2,9,5,,,,,,,,,,,,,,,,,,,,,,,,,,,,,,,,,,,,,,,,,,,,908.8489785690035,None,909.9487505380239,None,910.8820442820142,None,1.3042328042328042,0.4660291030013468,910.8820442820142,None,,,,,,,,,,,106,001,2023_May_25_1405,SpeechDraft1Carolyn_lessNoise_PlusLocalization,2021.2.3,60.08966351262155,
,,,,,,,,nearRight,6.5,0,ch1Sound_localizationTask.wav,6.5,"(1047, 878)","(87, -202)",95,-338,,,,,,,,,1,3,10,4,,,,,,,,,,,,,,,,,,,,,,,,,,,,,,,,,,,,,,,,,,,,911.3489937090199,None,912.448654125008,None,913.3820109350199,None,1.3052910052910054,0.41668875701725483,913.3820109350199,None,,,,,,,,,,,106,001,2023_May_25_1405,SpeechDraft1Carolyn_lessNoise_PlusLocalization,2021.2.3,60.08966351262155,
,,,,,,,,midRight,13.0,3,ch1Sound_localizationTask.wav,13.0,"(1142, 878)","(182, -202)",190,-338,,,,,,,,,1,4,11,5,,,,,,,,,,,,,,,,,,,,,,,,,,,,,,,,,,,,,,,,,,,,913.8156019280141,None,914.915352164011,None,915.8488436610205,None,1.306878306878307,0.832004819996655,915.8488436610205,None,,,,,,,,,,,106,001,2023_May_25_1405,SpeechDraft1Carolyn_lessNoise_PlusLocalization,2021.2.3,60.08966351262155,
,,,,,,,,center,0.0,6,ch1Sound_localizationTask.wav,0.0,"(952, 878)","(-8,-202)",0,-338,,,,,,,,,1,5,12,3,,,,,,,,,,,,,,,,,,,,,,,,,,,,,,,,,,,,,,,,,,,,916.6822442700213,None,917.7820005980029,None,918.7151987880061,None,1.3470899470899471,0.8505693030019756,918.7151987880061,None,,,,,,,,,,,106,001,2023_May_25_1405,SpeechDraft1Carolyn_lessNoise_PlusLocalization,2021.2.3,60.08966351262155,
,,,,,,,,farRight,19.1,4,ch1Sound_localizationTask.wav,19.1,"(1237, 878)","(277,-202)",285,-338,,,,,,,,,1,6,13,6,,,,,,,,,,,,,,,,,,,,,,,,,,,,,,,,,,,,,,,,,,,,919.5824136910087,None,920.6819891990162,None,921.6155108670064,None,1.4502645502645501,0.6501825680024922,921.6155108670064,None,,,,,,,,,,,106,001,2023_May_25_1405,SpeechDraft1Carolyn_lessNoise_PlusLocalization,2021.2.3,60.08966351262155,
,,,,,,,,nearRight,6.5,0,ch1Sound_localizationTask.wav,6.5,"(1047, 878)","(87, -202)",95,-338,,,,,,,,,2,0,14,4,,,,,,,,,,,,,,,,,,,,,,,,,,,,,,,,,,,,,,,,,,,,922.2826284879993,None,923.3821654980129,None,924.3154682520253,None,1.4296296296296296,0.5657083940168377,924.3154682520253,None,,,,,,,,,,,106,001,2023_May_25_1405,SpeechDraft1Carolyn_lessNoise_PlusLocalization,2021.2.3,60.08966351262155,
,,,,,,,,farRight,19.1,4,ch1Sound_localizationTask.wav,19.1,"(1237, 878)","(277,-202)",285,-338,,,,,,,,,2,1,15,6,,,,,,,,,,,,,,,,,,,,,,,,,,,,,,,,,,,,,,,,,,,,924.8831165390147,None,925.9819740730163,None,926.9153536090162,None,1.435978835978836,0.6997336909989826,926.9153536090162,None,,,,,,,,,,,106,001,2023_May_25_1405,SpeechDraft1Carolyn_lessNoise_PlusLocalization,2021.2.3,60.08966351262155,
,,,,,,,,nearLeft,-6.5,1,ch1Sound_localizationTask.wav,-6.5,"(857, 878)","(-103,-202)",-95,-338,,,,,,,,,2,2,16,2,,,,,,,,,,,,,,,,,,,,,,,,,,,,,,,,,,,,,,,,,,,,927.6322424800019,None,928.7320584060217,None,929.6653667990176,None,1.4148148148148147,0.4498255369835533,929.6653667990176,None,,,,,,,,,,,106,001,2023_May_25_1405,SpeechDraft1Carolyn_lessNoise_PlusLocalization,2021.2.3,60.08966351262155,
,,,,,,,,farRight,19.1,4,ch1Sound_localizationTask.wav,19.1,"(1237, 878)","(277,-202)",285,-338,,,,,,,,,2,3,17,6,,,,,,,,,,,,,,,,,,,,,,,,,,,,,,,,,,,,,,,,,,,,930.1162298170093,None,931.2152138970268,None,932.1485597870196,None,1.4063492063492062,0.3992292800103314,932.1485597870196,None,,,,,,,,,,,106,001,2023_May_25_1405,SpeechDraft1Carolyn_lessNoise_PlusLocalization,2021.2.3,60.08966351262155,
,,,,,,,,center,0.0,6,ch1Sound_localizationTask.wav,0.0,"(952, 878)","(-8,-202)",0,-338,,,,,,,,,2,4,18,3,,,,,,,,,,,,,,,,,,,,,,,,,,,,,,,,,,,,,,,,,,,,932.5496168360114,None,933.6487972780014,None,934.5819995470229,None,1.4206349206349207,0.6158485579944681,934.5819995470229,None,,,,,,,,,,,106,001,2023_May_25_1405,SpeechDraft1Carolyn_lessNoise_PlusLocalization,2021.2.3,60.08966351262155,
,,,,,,,,farRight,19.1,4,ch1Sound_localizationTask.wav,19.1,"(1237, 878)","(277,-202)",285,-338,,,,,,,,,2,5,19,6,,,,,,,,,,,,,,,,,,,,,,,,,,,,,,,,,,,,,,,,,,,,935.1988678070193,None,936.2987147280073,None,937.2321421390225,None,1.3851851851851853,0.6318150000006426,937.2321421390225,None,,,,,,,,,,,106,001,2023_May_25_1405,SpeechDraft1Carolyn_lessNoise_PlusLocalization,2021.2.3,60.08966351262155,
,,,,,,,,farRight,19.1,4,ch1Sound_localizationTask.wav,19.1,"(1237, 878)","(277,-202)",285,-338,,,,,,,,,2,6,20,6,,,,,,,,,,,,,,,,,,,,,,,,,,,,,,,,,,,,,,,,,,,,937.8661313560151,None,938.9653331100126,None,939.8987971200258,None,1.3952380952380952,0.932118383992929,939.8987971200258,None,,,,,,,,,,,106,001,2023_May_25_1405,SpeechDraft1Carolyn_lessNoise_PlusLocalization,2021.2.3,60.08966351262155,
,,,,,,,,farLeft,-19.1,5,ch1Sound_localizationTask.wav,-19.1,"(667, 878)","(-293,-202)",-285,-338,,,,,,,,,3,0,21,0,,,,,,,,,,,,,,,,,,,,,,,,,,,,,,,,,,,,,,,,,,,,940.8326313920261,None,941.931928674021,None,942.8652909450175,None,1.4105820105820106,0.13317550101783127,942.8652909450175,None,,,,,,,,,,,106,001,2023_May_25_1405,SpeechDraft1Carolyn_lessNoise_PlusLocalization,2021.2.3,60.08966351262155,
,,,,,,,,midLeft,-13.0,2,ch1Sound_localizationTask.wav,-13.0,"(762, 878)","(-198,-202)",-190,-338,,,,,,,,,3,1,22,1,,,,,,,,,,,,,,,,,,,,,,,,,,,,,,,,,,,,,,,,,,,,942.9991192940215,None,944.0988153550134,None,945.0320512790058,None,1.4105820105820106,0.08270330398227088,945.0320512790058,None,,,,,,,,,,,106,001,2023_May_25_1405,SpeechDraft1Carolyn_lessNoise_PlusLocalization,2021.2.3,60.08966351262155,
,,,,,,,,center,0.0,6,ch1Sound_localizationTask.wav,0.0,"(952, 878)","(-8,-202)",0,-338,,,,,,,,,3,2,23,3,,,,,,,,,,,,,,,,,,,,,,,,,,,,,,,,,,,,,,,,,,,,945.115566033026,None,946.2153451510239,None,947.1487279499997,None,1.403174603174603,0.41584615100873634,947.1487279499997,None,,,,,,,,,,,106,001,2023_May_25_1405,SpeechDraft1Carolyn_lessNoise_PlusLocalization,2021.2.3,60.08966351262155,
,,,,,,,,farLeft,-19.1,5,ch1Sound_localizationTask.wav,-19.1,"(667, 878)","(-293,-202)",-285,-338,,,,,,,,,3,3,24,0,,,,,,,,,,,,,,,,,,,,,,,,,,,,,,,,,,,,,,,,,,,,947.5657306339999,None,948.6653766810196,None,949.5988541840052,None,1.356084656084656,0.8494979139941279,949.5988541840052,None,,,,,,,,,,,106,001,2023_May_25_1405,SpeechDraft1Carolyn_lessNoise_PlusLocalization,2021.2.3,60.08966351262155,
,,,,,,,,midRight,13.0,3,ch1Sound_localizationTask.wav,13.0,"(1142, 878)","(182, -202)",190,-338,,,,,,,,,3,4,25,5,,,,,,,,,,,,,,,,,,,,,,,,,,,,,,,,,,,,,,,,,,,,950.449669632013,None,951.5486985010211,None,952.4822369100002,None,1.3666666666666667,0.4491271230217535,952.4822369100002,None,,,,,,,,,,,106,001,2023_May_25_1405,SpeechDraft1Carolyn_lessNoise_PlusLocalization,2021.2.3,60.08966351262155,
,,,,,,,,nearRight,6.5,0,ch1Sound_localizationTask.wav,6.5,"(1047, 878)","(87, -202)",95,-338,,,,,,,,,3,5,26,4,,,,,,,,,,,,,,,,,,,,,,,,,,,,,,,,,,,,,,,,,,,,952.9330008260149,None,954.0321038760012,None,954.9655419920164,None,1.3576719576719576,0.29918015201110393,954.9655419920164,None,,,,,,,,,,,106,001,2023_May_25_1405,SpeechDraft1Carolyn_lessNoise_PlusLocalization,2021.2.3,60.08966351262155,
,,,,,,,,nearRight,6.5,0,ch1Sound_localizationTask.wav,6.5,"(1047, 878)","(87, -202)",95,-338,,,,,,,,,3,6,27,4,,,,,,,,,,,,,,,,,,,,,,,,,,,,,,,,,,,,,,,,,,,,955.2665372160263,None,956.365258211008,None,957.2988330290245,None,1.3396825396825398,0.7497217369964346,957.2988330290245,None,,,,,,,,,,,106,001,2023_May_25_1405,SpeechDraft1Carolyn_lessNoise_PlusLocalization,2021.2.3,60.08966351262155,
,,,,,,,,nearLeft,-6.5,1,ch1Sound_localizationTask.wav,-6.5,"(857, 878)","(-103,-202)",-95,-338,,,,,,,,,4,0,28,2,,,,,,,,,,,,,,,,,,,,,,,,,,,,,,,,,,,,,,,,,,,,958.0496470010257,None,959.1489019900037,None,960.0821147070092,None,1.3211640211640212,0.6498218520137016,960.0821147070092,None,,,,,,,,,,,106,001,2023_May_25_1405,SpeechDraft1Carolyn_lessNoise_PlusLocalization,2021.2.3,60.08966351262155,
,,,,,,,,midLeft,-13.0,2,ch1Sound_localizationTask.wav,-13.0,"(762, 878)","(-198,-202)",-190,-338,,,,,,,,,4,1,29,1,,,,,,,,,,,,,,,,,,,,,,,,,,,,,,,,,,,,,,,,,,,,960.7342062760144,None,961.8487355570251,None,962.7655157270201,None,1.3333333333333333,0.8159461989998817,962.7655157270201,None,,,,,,,,,,,106,001,2023_May_25_1405,SpeechDraft1Carolyn_lessNoise_PlusLocalization,2021.2.3,60.08966351262155,
,,,,,,,,nearLeft,-6.5,1,ch1Sound_localizationTask.wav,-6.5,"(857, 878)","(-103,-202)",-95,-338,,,,,,,,,4,2,30,2,,,,,,,,,,,,,,,,,,,,,,,,,,,,,,,,,,,,,,,,,,,,963.5992787830182,None,964.6987029100128,None,965.6322260450106,None,1.3402116402116402,0.431722556008026,965.6322260450106,None,,,,,,,,,,,106,001,2023_May_25_1405,SpeechDraft1Carolyn_lessNoise_PlusLocalization,2021.2.3,60.08966351262155,
,,,,,,,,midLeft,-13.0,2,ch1Sound_localizationTask.wav,-13.0,"(762, 878)","(-198,-202)",-190,-338,,,,,,,,,4,3,31,1,,,,,,,,,,,,,,,,,,,,,,,,,,,,,,,,,,,,,,,,,,,,966.0656862870092,None,967.1654219880002,None,968.0989195380243,None,1.3227513227513228,0.4162309079838451,968.0989195380243,None,,,,,,,,,,,106,001,2023_May_25_1405,SpeechDraft1Carolyn_lessNoise_PlusLocalization,2021.2.3,60.08966351262155,
,,,,,,,,farLeft,-19.1,5,ch1Sound_localizationTask.wav,-19.1,"(667, 878)","(-293,-202)",-285,-338,,,,,,,,,4,4,32,0,,,,,,,,,,,,,,,,,,,,,,,,,,,,,,,,,,,,,,,,,,,,968.5160585070262,None,969.6153879440099,None,970.5487839440175,None,1.3116402116402117,0.06683953499305062,970.5487839440175,None,,,,,,,,,,,106,001,2023_May_25_1405,SpeechDraft1Carolyn_lessNoise_PlusLocalization,2021.2.3,60.08966351262155,
,,,,,,,,center,0.0,6,ch1Sound_localizationTask.wav,0.0,"(952, 878)","(-8,-202)",0,-338,,,,,,,,,4,5,33,3,,,,,,,,,,,,,,,,,,,,,,,,,,,,,,,,,,,,,,,,,,,,970.6168650930049,None,971.7320966930129,None,972.6489498620213,None,1.2740740740740741,0.6319956989900675,972.6489498620213,None,,,,,,,,,,,106,001,2023_May_25_1405,SpeechDraft1Carolyn_lessNoise_PlusLocalization,2021.2.3,60.08966351262155,
,,,,,,,,center,0.0,6,ch1Sound_localizationTask.wav,0.0,"(952, 878)","(-8,-202)",0,-338,,,,,,,,,4,6,34,3,,,,,,,,,,,,,,,,,,,,,,,,,,,,,,,,,,,,,,,,,,,,973.2830327820266,None,974.3820523330069,None,975.3154671400262,None,1.273015873015873,0.3830912150151562,975.3154671400262,None,,,,,,,,,,,106,001,2023_May_25_1405,SpeechDraft1Carolyn_lessNoise_PlusLocalization,2021.2.3,60.08966351262155,
,,,,,,,,midLeft,-13.0,2,ch1Sound_localizationTask.wav,-13.0,"(762, 878)","(-198,-202)",-190,-338,,,,,,,,,5,0,35,1,,,,,,,,,,,,,,,,,,,,,,,,,,,,,,,,,,,,,,,,,,,,975.7157040130114,None,976.8153946800157,None,977.7488299660035,None,1.2576719576719577,0.5834990630100947,977.7488299660035,None,,,,,,,,,,,106,001,2023_May_25_1405,SpeechDraft1Carolyn_lessNoise_PlusLocalization,2021.2.3,60.08966351262155,
,,,,,,,,farLeft,-19.1,5,ch1Sound_localizationTask.wav,-19.1,"(667, 878)","(-293,-202)",-285,-338,,,,,,,,,5,1,36,0,,,,,,,,,,,,,,,,,,,,,,,,,,,,,,,,,,,,,,,,,,,,978.3492152460094,None,979.4488446200266,None,980.3822473290202,None,1.2735449735449735,0.48200540101970546,980.3822473290202,None,,,,,,,,,,,106,001,2023_May_25_1405,SpeechDraft1Carolyn_lessNoise_PlusLocalization,2021.2.3,60.08966351262155,
,,,,,,,,nearLeft,-6.5,1,ch1Sound_localizationTask.wav,-6.5,"(857, 878)","(-103,-202)",-95,-338,,,,,,,,,5,2,37,2,,,,,,,,,,,,,,,,,,,,,,,,,,,,,,,,,,,,,,,,,,,,980.8823155110003,None,981.9822073020041,None,982.9154524010082,None,1.2608465608465609,0.7490982160088606,982.9154524010082,None,,,,,,,,,,,106,001,2023_May_25_1405,SpeechDraft1Carolyn_lessNoise_PlusLocalization,2021.2.3,60.08966351262155,
,,,,,,,,midRight,13.0,3,ch1Sound_localizationTask.wav,13.0,"(1142, 878)","(182, -202)",190,-338,,,,,,,,,5,3,38,5,,,,,,,,,,,,,,,,,,,,,,,,,,,,,,,,,,,,,,,,,,,,983.6658478020108,None,984.7654349910154,None,985.6987456700008,None,1.2888888888888888,0.38232248098938726,985.6987456700008,None,,,,,,,,,,,106,001,2023_May_25_1405,SpeechDraft1Carolyn_lessNoise_PlusLocalization,2021.2.3,60.08966351262155,
,,,,,,,,center,0.0,6,ch1Sound_localizationTask.wav,0.0,"(952, 878)","(-8,-202)",0,-338,,,,,,,,,5,4,39,3,,,,,,,,,,,,,,,,,,,,,,,,,,,,,,,,,,,,,,,,,,,,986.0825917450129,None,987.1820470500097,None,988.1155872130184,None,1.4275132275132276,1.3497771400143392,988.1155872130184,None,,,,,,,,,,,106,001,2023_May_25_1405,SpeechDraft1Carolyn_lessNoise_PlusLocalization,2021.2.3,60.08966351262155,
,,,,,,,,farLeft,-19.1,5,ch1Sound_localizationTask.wav,-19.1,"(667, 878)","(-293,-202)",-285,-338,,,,,,,,,5,5,40,0,,,,,,,,,,,,,,,,,,,,,,,,,,,,,,,,,,,,,,,,,,,,989.4824959510006,None,990.5820838549989,None,991.5155153660162,None,1.3253968253968254,1.0325839589932002,991.5155153660162,None,,,,,,,,,,,106,001,2023_May_25_1405,SpeechDraft1Carolyn_lessNoise_PlusLocalization,2021.2.3,60.08966351262155,
,,,,,,,,nearLeft,-6.5,1,ch1Sound_localizationTask.wav,-6.5,"(857, 878)","(-103,-202)",-95,-338,,,,,,,,,5,6,41,2,,,,,,,,,,,,,,,,,,,,,,,,,,,,,,,,,,,,,,,,,,,,992.5657198300178,None,993.6654849180195,None,994.5988239650032,None,1.378835978835979,0.8496594759926666,994.5988239650032,None,,,,,,,,,,,106,001,2023_May_25_1405,SpeechDraft1Carolyn_lessNoise_PlusLocalization,2021.2.3,60.08966351262155,
,,,,,,,,farRight,19.1,4,ch1Sound_localizationTask.wav,19.1,"(1237, 878)","(277,-202)",285,-338,,,,,,,,,6,0,42,6,,,,,,,,,,,,,,,,,,,,,,,,,,,,,,,,,,,,,,,,,,,,995.4498117040202,None,996.5486354910245,None,997.4821994790109,None,1.3523809523809525,0.5828278670087457,997.4821994790109,None,,,,,,,,,,,106,001,2023_May_25_1405,SpeechDraft1Carolyn_lessNoise_PlusLocalization,2021.2.3,60.08966351262155,
,,,,,,,,farLeft,-19.1,5,ch1Sound_localizationTask.wav,-19.1,"(667, 878)","(-293,-202)",-285,-338,,,,,,,,,6,1,43,0,,,,,,,,,,,,,,,,,,,,,,,,,,,,,,,,,,,,,,,,,,,,998.0666470150172,None,999.1822597130085,None,1000.0989165170176,None,1.3412698412698414,1.1177888800157234,1000.0989165170176,None,,,,,,,,,,,106,001,2023_May_25_1405,SpeechDraft1Carolyn_lessNoise_PlusLocalization,2021.2.3,60.08966351262155,
,,,,,,,,nearRight,6.5,0,ch1Sound_localizationTask.wav,6.5,"(1047, 878)","(87, -202)",95,-338,,,,,,,,,6,2,44,4,,,,,,,,,,,,,,,,,,,,,,,,,,,,,,,,,,,,,,,,,,,,1001.2323958760244,None,1002.3320060130209,None,1003.2655845929985,None,1.3804232804232806,0.4137300639995374,1003.2655845929985,None,,,,,,,,,,,106,001,2023_May_25_1405,SpeechDraft1Carolyn_lessNoise_PlusLocalization,2021.2.3,60.08966351262155,
,,,,,,,,nearRight,6.5,0,ch1Sound_localizationTask.wav,6.5,"(1047, 878)","(87, -202)",95,-338,,,,,,,,,6,3,45,4,,,,,,,,,,,,,,,,,,,,,,,,,,,,,,,,,,,,,,,,,,,,1003.6824122830003,None,1004.7821630340186,None,1005.7155456090113,None,1.3952380952380952,0.4992672340013087,1005.7155456090113,None,,,,,,,,,,,106,001,2023_May_25_1405,SpeechDraft1Carolyn_lessNoise_PlusLocalization,2021.2.3,60.08966351262155,
,,,,,,,,center,0.0,6,ch1Sound_localizationTask.wav,0.0,"(952, 878)","(-8,-202)",0,-338,,,,,,,,,6,4,46,3,,,,,,,,,,,,,,,,,,,,,,,,,,,,,,,,,,,,,,,,,,,,1006.2175366349984,None,1007.3321461880114,None,1008.2489066570124,None,1.4142857142857141,0.38286206498742104,1008.2489066570124,None,,,,,,,,,,,106,001,2023_May_25_1405,SpeechDraft1Carolyn_lessNoise_PlusLocalization,2021.2.3,60.08966351262155,
,,,,,,,,midRight,13.0,3,ch1Sound_localizationTask.wav,13.0,"(1142, 878)","(182, -202)",190,-338,,,,,,,,,6,5,47,5,,,,,,,,,,,,,,,,,,,,,,,,,,,,,,,,,,,,,,,,,,,,1008.6328656520054,None,1009.7322048470087,None,1010.665425136016,None,1.3851851851851853,0.21573896499467082,1010.665425136016,None,,,,,,,,,,,106,001,2023_May_25_1405,SpeechDraft1Carolyn_lessNoise_PlusLocalization,2021.2.3,60.08966351262155,
,,,,,,,,midLeft,-13.0,2,ch1Sound_localizationTask.wav,-13.0,"(762, 878)","(-198,-202)",-190,-338,,,,,,,,,6,6,48,1,,,,,,,,,,,,,,,,,,,,,,,,,,,,,,,,,,,,,,,,,,,,1010.8828318770102,None,1011.9821689189994,None,1012.9155168920115,None,1.367195767195767,0.23215153100318275,1012.9155168920115,None,,,,,,,,,,,106,001,2023_May_25_1405,SpeechDraft1Carolyn_lessNoise_PlusLocalization,2021.2.3,60.08966351262155,
,,,,,,,,nearRight,6.5,0,ch1Sound_localizationTask.wav,6.5,"(1047, 878)","(87, -202)",95,-338,,,,,,,,,7,0,49,4,,,,,,,,,,,,,,,,,,,,,,,,,,,,,,,,,,,,,,,,,,,,1013.1490539310034,None,1014.2488249989983,None,1015.1821992240148,None,1.3719576719576718,0.6500221060123295,1015.1821992240148,None,,,,,,,,,,,106,001,2023_May_25_1405,SpeechDraft1Carolyn_lessNoise_PlusLocalization,2021.2.3,60.08966351262155,
,,,,,,,,midLeft,-13.0,2,ch1Sound_localizationTask.wav,-13.0,"(762, 878)","(-198,-202)",-190,-338,,,,,,,,,7,1,50,1,,,,,,,,,,,,,,,,,,,,,,,,,,,,,,,,,,,,,,,,,,,,1015.8489285910036,None,1016.948723027017,None,1017.8824166720151,None,1.3846560846560847,0.5658219140022993,1017.8824166720151,None,,,,,,,,,,,106,001,2023_May_25_1405,SpeechDraft1Carolyn_lessNoise_PlusLocalization,2021.2.3,60.08966351262155,
,,,,,,,,midRight,13.0,3,ch1Sound_localizationTask.wav,13.0,"(1142, 878)","(182, -202)",190,-338,,,,,,,,,7,2,51,5,,,,,,,,,,,,,,,,,,,,,,,,,,,,,,,,,,,,,,,,,,,,1018.4658174250217,None,1019.5654512380133,None,1020.4989099990053,None,1.3719576719576718,0.39939074698486365,1020.4989099990053,None,,,,,,,,,,,106,001,2023_May_25_1405,SpeechDraft1Carolyn_lessNoise_PlusLocalization,2021.2.3,60.08966351262155,
,,,,,,,,nearLeft,-6.5,1,ch1Sound_localizationTask.wav,-6.5,"(857, 878)","(-103,-202)",-95,-338,,,,,,,,,7,3,52,2,,,,,,,,,,,,,,,,,,,,,,,,,,,,,,,,,,,,,,,,,,,,1020.8995262590179,None,1021.9988899690215,None,1022.9321393740247,None,1.3883597883597885,0.4489275279920548,1022.9321393740247,None,,,,,,,,,,,106,001,2023_May_25_1405,SpeechDraft1Carolyn_lessNoise_PlusLocalization,2021.2.3,60.08966351262155,
,,,,,,,,farLeft,-19.1,5,ch1Sound_localizationTask.wav,-19.1,"(667, 878)","(-293,-202)",-285,-338,,,,,,,,,7,4,53,0,,,,,,,,,,,,,,,,,,,,,,,,,,,,,,,,,,,,,,,,,,,,1023.3826339790248,None,1024.482021556003,None,1025.4155982500233,None,1.3767195767195768,0.5330588890064973,1025.4155982500233,None,,,,,,,,,,,106,001,2023_May_25_1405,SpeechDraft1Carolyn_lessNoise_PlusLocalization,2021.2.3,60.08966351262155,
,,,,,,,,nearLeft,-6.5,1,ch1Sound_localizationTask.wav,-6.5,"(857, 878)","(-103,-202)",-95,-338,,,,,,,,,7,5,54,2,,,,,,,,,,,,,,,,,,,,,,,,,,,,,,,,,,,,,,,,,,,,1025.949572505022,None,1027.0488768690266,None,1027.982142621011,None,1.3867724867724869,0.21603765702457167,1027.982142621011,None,,,,,,,,,,,106,001,2023_May_25_1405,SpeechDraft1Carolyn_lessNoise_PlusLocalization,2021.2.3,60.08966351262155,
,,,,,,,,farLeft,-19.1,5,ch1Sound_localizationTask.wav,-19.1,"(667, 878)","(-293,-202)",-285,-338,,,,,,,,,7,6,55,0,,,,,,,,,,,,,,,,,,,,,,,,,,,,,,,,,,,,,,,,,,,,1028.1992792560195,None,1029.2988046550017,None,1030.2322524010087,None,1.3767195767195768,0.5479199140099809,1030.2322524010087,None,,,,,,,,,,,106,001,2023_May_25_1405,SpeechDraft1Carolyn_lessNoise_PlusLocalization,2021.2.3,60.08966351262155,
,,,,,,,,,,,,,,,,,,,,,,,,,,,,,,,,,,,,,,,,,,,,,,,,,,,,,,,,,,,,,,,,,,,,,,,,,,,,,,,,,,space,13.028211978991749,1030.8658565220248,None,,,,,,,106,001,2023_May_25_1405,SpeechDraft1Carolyn_lessNoise_PlusLocalization,2021.2.3,60.08966351262155,
,,,,,,,,midRight,13.0,3,ch1Sound_localizationTask.wav,13.0,"(1142, 878)","(182, -202)",190,-338,,,,,,,,,,,,,0,0,0,5,,,,,,,,,,,,,,,,,,,,,,,,,,,,,,,,,,,,,,,,1043.9323033080145,None,,,1046.9507707310258,None,1.5671957671957673,1.038192854000954,1046.9507707310258,None,,,,,1030.8658565220248,None,1044.9324558450026,None,1045.1158334640204,1045.132394263026,106,001,2023_May_25_1405,SpeechDraft1Carolyn_lessNoise_PlusLocalization,2021.2.3,60.08966351262155,
,,,,,,,,farLeft,-19.1,5,ch1Sound_localizationTask.wav,-19.1,"(667, 878)","(-293,-202)",-285,-338,,,,,,,,,,,,,0,1,1,0,,,,,,,,,,,,,,,,,,,,,,,,,,,,,,,,,,,,,,,,1048.000409123022,None,,,1051.0324443240243,None,1.3867724867724869,1.0489350819843821,1051.0324443240243,None,,,,,,,1049.0158301620104,None,1049.1991213450092,1049.2159807560092,106,001,2023_May_25_1405,SpeechDraft1Carolyn_lessNoise_PlusLocalization,2021.2.3,60.08966351262155,
,,,,,,,,farLeft,-19.1,5,ch1Sound_localizationTask.wav,-19.1,"(667, 878)","(-293,-202)",-285,-338,,,,,,,,,,,,,0,2,2,0,,,,,,,,,,,,,,,,,,,,,,,,,,,,,,,,,,,,,,,,1052.082887305005,None,,,1055.0990375240217,None,1.3719576719576718,0.7496647119987756,1055.0990375240217,None,,,,,,,1053.0824595180165,None,1053.2656861530268,1053.28260421101,106,001,2023_May_25_1405,SpeechDraft1Carolyn_lessNoise_PlusLocalization,2021.2.3,60.08966351262155,
,,,,,,,,center,0.0,6,ch1Sound_localizationTask.wav,0.0,"(952, 878)","(-8,-202)",0,-338,,,,,,,,,,,,,0,3,3,3,,,,,,,,,,,,,,,,,,,,,,,,,,,,,,,,,,,,,,,,1055.8658319890092,None,,,1058.8823033840163,None,1.5121693121693123,1.1490371140243951,1058.8823033840163,None,,,,,,,1056.8658355380176,None,1057.049135829002,1057.0658120900043,106,001,2023_May_25_1405,SpeechDraft1Carolyn_lessNoise_PlusLocalization,2021.2.3,60.08966351262155,
,,,,,,,,farLeft,-19.1,5,ch1Sound_localizationTask.wav,-19.1,"(667, 878)","(-293,-202)",-285,-338,,,,,,,,,,,,,0,4,4,0,,,,,,,,,,,,,,,,,,,,,,,,,,,,,,,,,,,,,,,,1060.033594684006,None,,,1063.0655459690024,None,1.3777777777777778,1.6331498969811946,1063.0655459690024,None,,,,,,,1061.0491911060235,None,1061.2325874030066,1061.249169335002,106,001,2023_May_25_1405,SpeechDraft1Carolyn_lessNoise_PlusLocalization,2021.2.3,60.08966351262155,
,,,,,,,,farLeft,-19.1,5,ch1Sound_localizationTask.wav,-19.1,"(667, 878)","(-293,-202)",-285,-338,,,,,,,,,,,,,0,5,5,0,,,,,,,,,,,,,,,,,,,,,,,,,,,,,,,,,,,,,,,,1064.6996540250257,None,,,1067.7156352910097,None,1.380952380952381,1.4337409739964642,1067.7156352910097,None,,,,,,,1065.699096679018,None,1065.8824995890027,1065.8991428720183,106,001,2023_May_25_1405,SpeechDraft1Carolyn_lessNoise_PlusLocalization,2021.2.3,60.08966351262155,
,,,,,,,,midLeft,-13.0,2,ch1Sound_localizationTask.wav,-13.0,"(762, 878)","(-198,-202)",-190,-338,,,,,,,,,,,,,0,6,6,1,,,,,,,,,,,,,,,,,,,,,,,,,,,,,,,,,,,,,,,,1069.166002538026,None,,,1072.1824157060182,None,1.426984126984127,0.9649515619967133,1072.1824157060182,None,,,,,,,1070.1657095370174,None,1070.3489910670032,1070.3658980090113,106,001,2023_May_25_1405,SpeechDraft1Carolyn_lessNoise_PlusLocalization,2021.2.3,60.08966351262155,
,,,,,,,,midLeft,-13.0,2,ch1Sound_localizationTask.wav,-13.0,"(762, 878)","(-198,-202)",-190,-338,,,,,,,,,,,,,1,0,7,1,,,,,,,,,,,,,,,,,,,,,,,,,,,,,,,,,,,,,,,,1073.1493216640083,None,,,1076.1655340280267,None,1.4174603174603175,0.6512602769944351,1076.1655340280267,None,,,,,,,1074.1492182770162,None,1074.332544912002,1074.3492847279995,106,001,2023_May_25_1405,SpeechDraft1Carolyn_lessNoise_PlusLocalization,2021.2.3,60.08966351262155,
,,,,,,,,farRight,19.1,4,ch1Sound_localizationTask.wav,19.1,"(1237, 878)","(277,-202)",285,-338,,,,,,,,,,,,,1,1,8,6,,,,,,,,,,,,,,,,,,,,,,,,,,,,,,,,,,,,,,,,1076.8324986930238,None,,,1079.8491074410267,None,1.6201058201058203,0.8480046250042506,1079.8491074410267,None,,,,,,,1077.8325413429993,None,1078.015821891022,1078.032495877007,106,001,2023_May_25_1405,SpeechDraft1Carolyn_lessNoise_PlusLocalization,2021.2.3,60.08966351262155,
,,,,,,,,nearLeft,-6.5,1,ch1Sound_localizationTask.wav,-6.5,"(857, 878)","(-103,-202)",-95,-338,,,,,,,,,,,,,1,2,9,2,,,,,,,,,,,,,,,,,,,,,,,,,,,,,,,,,,,,,,,,1080.699310875003,None,,,1083.715592056018,None,1.4603174603174602,0.9323916779831052,1083.715592056018,None,,,,,,,1081.6990856360062,None,1081.8825064440025,1081.8992047730135,106,001,2023_May_25_1405,SpeechDraft1Carolyn_lessNoise_PlusLocalization,2021.2.3,60.08966351262155,
,,,,,,,,farRight,19.1,4,ch1Sound_localizationTask.wav,19.1,"(1237, 878)","(277,-202)",285,-338,,,,,,,,,,,,,1,3,10,6,,,,,,,,,,,,,,,,,,,,,,,,,,,,,,,,,,,,,,,,1084.6493344730115,None,,,1087.665579886001,None,1.5925925925925926,0.28266862698365003,1087.665579886001,None,,,,,,,1085.6492908320215,None,1085.8325813280244,1085.8490416990244,106,001,2023_May_25_1405,SpeechDraft1Carolyn_lessNoise_PlusLocalization,2021.2.3,60.08966351262155,
,,,,,,,,farRight,19.1,4,ch1Sound_localizationTask.wav,19.1,"(1237, 878)","(277,-202)",285,-338,,,,,,,,,,,,,1,4,11,6,,,,,,,,,,,,,,,,,,,,,,,,,,,,,,,,,,,,,,,,1087.9657528010139,None,,,1090.9822400450066,None,1.625925925925926,0.84909563997644,1090.9822400450066,None,,,,,,,1088.965828823013,None,1089.14920028302,1089.1657879250124,106,001,2023_May_25_1405,SpeechDraft1Carolyn_lessNoise_PlusLocalization,2021.2.3,60.08966351262155,
,,,,,,,,nearLeft,-6.5,1,ch1Sound_localizationTask.wav,-6.5,"(857, 878)","(-103,-202)",-95,-338,,,,,,,,,,,,,1,5,12,2,,,,,,,,,,,,,,,,,,,,,,,,,,,,,,,,,,,,,,,,1091.8327764960122,None,,,1094.8488107370213,None,1.4603174603174602,0.9987919930135831,1094.8488107370213,None,,,,,,,1092.8325363270123,None,1093.015896650002,1093.0325700810063,106,001,2023_May_25_1405,SpeechDraft1Carolyn_lessNoise_PlusLocalization,2021.2.3,60.08966351262155,
,,,,,,,,midLeft,-13.0,2,ch1Sound_localizationTask.wav,-13.0,"(762, 878)","(-198,-202)",-190,-338,,,,,,,,,,,,,1,6,13,1,,,,,,,,,,,,,,,,,,,,,,,,,,,,,,,,,,,,,,,,1095.8498059870035,None,,,1098.865722978022,None,1.4158730158730157,1.0814153050014284,1098.865722978022,None,,,,,,,1096.8491421720246,None,1097.0324666100205,1097.049167611025,106,001,2023_May_25_1405,SpeechDraft1Carolyn_lessNoise_PlusLocalization,2021.2.3,60.08966351262155,
,,,,,,,,center,0.0,6,ch1Sound_localizationTask.wav,0.0,"(952, 878)","(-8,-202)",0,-338,,,,,,,,,,,,,2,0,14,3,,,,,,,,,,,,,,,,,,,,,,,,,,,,,,,,,,,,,,,,1099.9493636780244,None,,,1102.9656450070033,None,1.4878306878306877,0.5816724819887895,1102.9656450070033,None,,,,,,,1100.949173645,None,1101.1324507910176,1101.1491850650054,106,001,2023_May_25_1405,SpeechDraft1Carolyn_lessNoise_PlusLocalization,2021.2.3,60.08966351262155,
,,,,,,,,farRight,19.1,4,ch1Sound_localizationTask.wav,19.1,"(1237, 878)","(277,-202)",285,-338,,,,,,,,,,,,,2,1,15,6,,,,,,,,,,,,,,,,,,,,,,,,,,,,,,,,,,,,,,,,1103.549079910008,None,,,1106.565687765018,None,1.6232804232804234,0.7155211309727747,1106.565687765018,None,,,,,,,1104.5493321260146,None,1104.7326055390004,1104.7493306219985,106,001,2023_May_25_1405,SpeechDraft1Carolyn_lessNoise_PlusLocalization,2021.2.3,60.08966351262155,
,,,,,,,,farRight,19.1,4,ch1Sound_localizationTask.wav,19.1,"(1237, 878)","(277,-202)",285,-338,,,,,,,,,,,,,2,2,16,6,,,,,,,,,,,,,,,,,,,,,,,,,,,,,,,,,,,,,,,,1107.2827542640152,None,,,1110.2990021890146,None,1.6343915343915345,0.45014745800290257,1110.2990021890146,None,,,,,,,1108.2825128660188,None,1108.4657833160018,1108.4825529440132,106,001,2023_May_25_1405,SpeechDraft1Carolyn_lessNoise_PlusLocalization,2021.2.3,60.08966351262155,
,,,,,,,,nearRight,6.5,0,ch1Sound_localizationTask.wav,6.5,"(1047, 878)","(87, -202)",95,-338,,,,,,,,,,,,,2,3,17,4,,,,,,,,,,,,,,,,,,,,,,,,,,,,,,,,,,,,,,,,1110.7660364250187,None,,,1113.7824828180019,None,1.5507936507936508,0.7317322450107895,1113.7824828180019,None,,,,,,,1111.7659637770266,None,1111.9491593240236,1111.9659835530038,106,001,2023_May_25_1405,SpeechDraft1Carolyn_lessNoise_PlusLocalization,2021.2.3,60.08966351262155,
,,,,,,,,center,0.0,6,ch1Sound_localizationTask.wav,0.0,"(952, 878)","(-8,-202)",0,-338,,,,,,,,,,,,,2,4,18,3,,,,,,,,,,,,,,,,,,,,,,,,,,,,,,,,,,,,,,,,1114.5164407660195,None,,,1117.5323658999987,None,1.4878306878306877,0.7490293989831116,1117.5323658999987,None,,,,,,,1115.5158403880196,None,1115.6991504320176,1115.7159737570037,106,001,2023_May_25_1405,SpeechDraft1Carolyn_lessNoise_PlusLocalization,2021.2.3,60.08966351262155,
,,,,,,,,center,0.0,6,ch1Sound_localizationTask.wav,0.0,"(952, 878)","(-8,-202)",0,-338,,,,,,,,,,,,,2,5,19,3,,,,,,,,,,,,,,,,,,,,,,,,,,,,,,,,,,,,,,,,1118.282845978014,None,,,1121.2989103950094,None,1.4915343915343915,0.44955637099337764,1121.2989103950094,None,,,,,,,1119.2827037240204,None,1119.4658781160251,1119.4826213360066,106,001,2023_May_25_1405,SpeechDraft1Carolyn_lessNoise_PlusLocalization,2021.2.3,60.08966351262155,
,,,,,,,,midRight,13.0,3,ch1Sound_localizationTask.wav,13.0,"(1142, 878)","(182, -202)",190,-338,,,,,,,,,,,,,2,6,20,5,,,,,,,,,,,,,,,,,,,,,,,,,,,,,,,,,,,,,,,,1121.765866612026,None,,,1124.782461003022,None,1.5904761904761906,1.0977807979797944,1124.782461003022,None,,,,,,,1122.7658749340044,None,1122.9491076830018,1122.9659347900015,106,001,2023_May_25_1405,SpeechDraft1Carolyn_lessNoise_PlusLocalization,2021.2.3,60.08966351262155,
,,,,,,,,midRight,13.0,3,ch1Sound_localizationTask.wav,13.0,"(1142, 878)","(182, -202)",190,-338,,,,,,,,,,,,,3,0,21,5,,,,,,,,,,,,,,,,,,,,,,,,,,,,,,,,,,,,,,,,1125.8825726229989,None,,,1128.8989912810212,None,1.5931216931216932,0.44923591599217616,1128.8989912810212,None,,,,,,,1126.8825591300265,None,1127.0658338530047,1127.0825822900224,106,001,2023_May_25_1405,SpeechDraft1Carolyn_lessNoise_PlusLocalization,2021.2.3,60.08966351262155,
,,,,,,,,midRight,13.0,3,ch1Sound_localizationTask.wav,13.0,"(1142, 878)","(182, -202)",190,-338,,,,,,,,,,,,,3,1,22,5,,,,,,,,,,,,,,,,,,,,,,,,,,,,,,,,,,,,,,,,1129.3501252910064,None,,,1132.3656607730081,None,1.5941798941798941,0.5150956230063457,1132.3656607730081,None,,,,,,,1130.349389236013,None,1130.532564159017,1130.5493173450232,106,001,2023_May_25_1405,SpeechDraft1Carolyn_lessNoise_PlusLocalization,2021.2.3,60.08966351262155,
,,,,,,,,midLeft,-13.0,2,ch1Sound_localizationTask.wav,-13.0,"(762, 878)","(-198,-202)",-190,-338,,,,,,,,,,,,,3,2,23,1,,,,,,,,,,,,,,,,,,,,,,,,,,,,,,,,,,,,,,,,1132.8826129549998,None,,,1135.8988554000098,None,1.4206349206349207,0.9661610110197216,1135.8988554000098,None,,,,,,,1133.8827402559982,None,1134.0661162490142,1134.0827184280206,106,001,2023_May_25_1405,SpeechDraft1Carolyn_lessNoise_PlusLocalization,2021.2.3,60.08966351262155,
,,,,,,,,farLeft,-19.1,5,ch1Sound_localizationTask.wav,-19.1,"(667, 878)","(-293,-202)",-285,-338,,,,,,,,,,,,,3,3,24,0,,,,,,,,,,,,,,,,,,,,,,,,,,,,,,,,,,,,,,,,1136.8663014680205,None,,,1139.8823470979987,None,1.3883597883597885,0.8663180749863386,1139.8823470979987,None,,,,,,,1137.8658760079998,None,1138.0491536580084,1138.0659526009986,106,001,2023_May_25_1405,SpeechDraft1Carolyn_lessNoise_PlusLocalization,2021.2.3,60.08966351262155,
,,,,,,,,nearRight,6.5,0,ch1Sound_localizationTask.wav,6.5,"(1047, 878)","(87, -202)",95,-338,,,,,,,,,,,,,3,4,25,4,,,,,,,,,,,,,,,,,,,,,,,,,,,,,,,,,,,,,,,,1140.765937956021,None,,,1143.7822673140035,None,1.5407407407407407,0.9326387979963329,1143.7822673140035,None,,,,,,,1141.765926941007,None,1141.9492462580092,1141.965984850016,106,001,2023_May_25_1405,SpeechDraft1Carolyn_lessNoise_PlusLocalization,2021.2.3,60.08966351262155,
,,,,,,,,nearLeft,-6.5,1,ch1Sound_localizationTask.wav,-6.5,"(857, 878)","(-103,-202)",-95,-338,,,,,,,,,,,,,3,5,26,2,,,,,,,,,,,,,,,,,,,,,,,,,,,,,,,,,,,,,,,,1144.7187829760078,None,,,1147.7490907330066,None,1.4497354497354498,0.8824396569980308,1147.7490907330066,None,,,,,,,1145.7328468320193,None,1145.9159700870223,1145.9327243610169,106,001,2023_May_25_1405,SpeechDraft1Carolyn_lessNoise_PlusLocalization,2021.2.3,60.08966351262155,
,,,,,,,,center,0.0,6,ch1Sound_localizationTask.wav,0.0,"(952, 878)","(-8,-202)",0,-338,,,,,,,,,,,,,3,6,27,3,,,,,,,,,,,,,,,,,,,,,,,,,,,,,,,,,,,,,,,,1148.632892537018,None,,,1151.648966532026,None,1.4952380952380953,1.0659761489951052,1151.648966532026,None,,,,,,,1149.632549263013,None,1149.8159099630138,1149.8326235510176,106,001,2023_May_25_1405,SpeechDraft1Carolyn_lessNoise_PlusLocalization,2021.2.3,60.08966351262155,
,,,,,,,,nearLeft,-6.5,1,ch1Sound_localizationTask.wav,-6.5,"(857, 878)","(-103,-202)",-95,-338,,,,,,,,,,,,,4,0,28,2,,,,,,,,,,,,,,,,,,,,,,,,,,,,,,,,,,,,,,,,1152.718103895022,None,,,1155.7489767369989,None,1.4492063492063492,0.8492848930181935,1155.7489767369989,None,,,,,,,1153.7326135150215,None,1153.9159737350128,1153.9326301760157,106,001,2023_May_25_1405,SpeechDraft1Carolyn_lessNoise_PlusLocalization,2021.2.3,60.08966351262155,
,,,,,,,,farRight,19.1,4,ch1Sound_localizationTask.wav,19.1,"(1237, 878)","(277,-202)",285,-338,,,,,,,,,,,,,4,1,29,6,,,,,,,,,,,,,,,,,,,,,,,,,,,,,,,,,,,,,,,,1156.5999702420086,None,,,1159.6156718720158,None,1.6116402116402115,0.7493602779868525,1159.6156718720158,None,,,,,,,1157.5992858250102,None,1157.7825696430227,1157.7993430250208,106,001,2023_May_25_1405,SpeechDraft1Carolyn_lessNoise_PlusLocalization,2021.2.3,60.08966351262155,
,,,,,,,,midRight,13.0,3,ch1Sound_localizationTask.wav,13.0,"(1142, 878)","(182, -202)",190,-338,,,,,,,,,,,,,4,2,30,5,,,,,,,,,,,,,,,,,,,,,,,,,,,,,,,,,,,,,,,,1160.367188402015,None,,,1163.3992446380144,None,1.5751322751322752,0.7824079619895201,1163.3992446380144,None,,,,,,,1161.3825683730247,None,1161.5658557130082,1161.5827248130227,106,001,2023_May_25_1405,SpeechDraft1Carolyn_lessNoise_PlusLocalization,2021.2.3,60.08966351262155,
,,,,,,,,farLeft,-19.1,5,ch1Sound_localizationTask.wav,-19.1,"(667, 878)","(-293,-202)",-285,-338,,,,,,,,,,,,,4,3,31,0,,,,,,,,,,,,,,,,,,,,,,,,,,,,,,,,,,,,,,,,1164.182729483,None,,,1167.1991578990128,None,1.37989417989418,1.0654415290046018,1167.1991578990128,None,,,,,,,1165.1826671090093,None,1165.3660308800172,1165.3825999590044,106,001,2023_May_25_1405,SpeechDraft1Carolyn_lessNoise_PlusLocalization,2021.2.3,60.08966351262155,
,,,,,,,,nearRight,6.5,0,ch1Sound_localizationTask.wav,6.5,"(1047, 878)","(87, -202)",95,-338,,,,,,,,,,,,,4,4,32,4,,,,,,,,,,,,,,,,,,,,,,,,,,,,,,,,,,,,,,,,1168.2667250640225,None,,,1171.2823988090095,None,1.5253968253968253,0.8321989890246186,1171.2823988090095,None,,,,,,,1169.2659426510218,None,1169.4494123700133,1169.4660302520206,106,001,2023_May_25_1405,SpeechDraft1Carolyn_lessNoise_PlusLocalization,2021.2.3,60.08966351262155,
,,,,,,,,midRight,13.0,3,ch1Sound_localizationTask.wav,13.0,"(1142, 878)","(182, -202)",190,-338,,,,,,,,,,,,,4,5,33,5,,,,,,,,,,,,,,,,,,,,,,,,,,,,,,,,,,,,,,,,1172.116169026005,None,,,1175.1322468540166,None,1.5714285714285714,0.7149212280055508,1175.1322468540166,None,,,,,,,1173.1159357760043,None,1173.2994068450062,1173.3158658060129,106,001,2023_May_25_1405,SpeechDraft1Carolyn_lessNoise_PlusLocalization,2021.2.3,60.08966351262155,
,,,,,,,,nearLeft,-6.5,1,ch1Sound_localizationTask.wav,-6.5,"(857, 878)","(-103,-202)",-95,-338,,,,,,,,,,,,,4,6,34,2,,,,,,,,,,,,,,,,,,,,,,,,,,,,,,,,,,,,,,,,1175.8492598450102,None,,,1178.8658052060055,None,1.452910052910053,0.7015993340173736,1178.8658052060055,None,,,,,,,1176.8491920300003,None,1177.0326739400043,1177.0493076610146,106,001,2023_May_25_1405,SpeechDraft1Carolyn_lessNoise_PlusLocalization,2021.2.3,60.08966351262155,
,,,,,,,,nearRight,6.5,0,ch1Sound_localizationTask.wav,6.5,"(1047, 878)","(87, -202)",95,-338,,,,,,,,,,,,,5,0,35,4,,,,,,,,,,,,,,,,,,,,,,,,,,,,,,,,,,,,,,,,1179.5826445730054,None,,,1182.5991947860166,None,1.5402116402116404,0.8988841270038392,1182.5991947860166,None,,,,,,,1180.5828256400127,None,1180.7660248640168,1180.7827189850213,106,001,2023_May_25_1405,SpeechDraft1Carolyn_lessNoise_PlusLocalization,2021.2.3,60.08966351262155,
,,,,,,,,nearRight,6.5,0,ch1Sound_localizationTask.wav,6.5,"(1047, 878)","(87, -202)",95,-338,,,,,,,,,,,,,5,1,36,4,,,,,,,,,,,,,,,,,,,,,,,,,,,,,,,,,,,,,,,,1183.4995456440083,None,,,1186.515799433022,None,1.5222222222222221,0.6162239809927996,1186.515799433022,None,,,,,,,1184.4994177730114,None,1184.6826788520266,1184.6993185660103,106,001,2023_May_25_1405,SpeechDraft1Carolyn_lessNoise_PlusLocalization,2021.2.3,60.08966351262155,
,,,,,,,,center,0.0,6,ch1Sound_localizationTask.wav,0.0,"(952, 878)","(-8,-202)",0,-338,,,,,,,,,,,,,5,2,37,3,,,,,,,,,,,,,,,,,,,,,,,,,,,,,,,,,,,,,,,,1187.149287443026,None,,,1190.1657280900108,None,1.4841269841269842,0.8659094939939678,1190.1657280900108,None,,,,,,,1188.1493388740055,None,1188.3327067740029,1188.3493475010036,106,001,2023_May_25_1405,SpeechDraft1Carolyn_lessNoise_PlusLocalization,2021.2.3,60.08966351262155,
,,,,,,,,center,0.0,6,ch1Sound_localizationTask.wav,0.0,"(952, 878)","(-8,-202)",0,-338,,,,,,,,,,,,,5,3,38,3,,,,,,,,,,,,,,,,,,,,,,,,,,,,,,,,,,,,,,,,1191.0328267209989,None,,,1194.0490655169997,None,1.4925925925925925,0.8157743520278018,1194.0490655169997,None,,,,,,,1192.0326910940057,None,1192.2161490050203,1192.2326950050192,106,001,2023_May_25_1405,SpeechDraft1Carolyn_lessNoise_PlusLocalization,2021.2.3,60.08966351262155,
,,,,,,,,nearLeft,-6.5,1,ch1Sound_localizationTask.wav,-6.5,"(857, 878)","(-103,-202)",-95,-338,,,,,,,,,,,,,5,4,39,2,,,,,,,,,,,,,,,,,,,,,,,,,,,,,,,,,,,,,,,,1194.8660301910131,None,,,1197.8824656500074,None,1.4481481481481482,1.1822965419851243,1197.8824656500074,None,,,,,,,1195.8659984200203,None,1196.0494845110225,1196.0661521450093,106,001,2023_May_25_1405,SpeechDraft1Carolyn_lessNoise_PlusLocalization,2021.2.3,60.08966351262155,
,,,,,,,,center,0.0,6,ch1Sound_localizationTask.wav,0.0,"(952, 878)","(-8,-202)",0,-338,,,,,,,,,,,,,5,5,40,3,,,,,,,,,,,,,,,,,,,,,,,,,,,,,,,,,,,,,,,,1199.0669098630024,None,,,1202.0825239770056,None,1.4925925925925925,0.6505374440166634,1202.0825239770056,None,,,,,,,1200.0660934570187,None,1200.2493555460242,1200.2659982980113,106,001,2023_May_25_1405,SpeechDraft1Carolyn_lessNoise_PlusLocalization,2021.2.3,60.08966351262155,
,,,,,,,,midLeft,-13.0,2,ch1Sound_localizationTask.wav,-13.0,"(762, 878)","(-198,-202)",-190,-338,,,,,,,,,,,,,5,6,41,1,,,,,,,,,,,,,,,,,,,,,,,,,,,,,,,,,,,,,,,,1202.749205523025,None,,,1205.765794669016,None,1.4248677248677248,0.7316558689926751,1205.765794669016,None,,,,,,,1203.749441150023,None,1203.9326996070158,1203.9494093829999,106,001,2023_May_25_1405,SpeechDraft1Carolyn_lessNoise_PlusLocalization,2021.2.3,60.08966351262155,
,,,,,,,,farRight,19.1,4,ch1Sound_localizationTask.wav,19.1,"(1237, 878)","(277,-202)",285,-338,,,,,,,,,,,,,6,0,42,6,,,,,,,,,,,,,,,,,,,,,,,,,,,,,,,,,,,,,,,,1206.4994583180232,None,,,1209.5157525050163,None,1.621164021164021,0.8666616119735409,1209.5157525050163,None,,,,,,,1207.499399952998,None,1207.682666377019,1207.6992009170062,106,001,2023_May_25_1405,SpeechDraft1Carolyn_lessNoise_PlusLocalization,2021.2.3,60.08966351262155,
,,,,,,,,midRight,13.0,3,ch1Sound_localizationTask.wav,13.0,"(1142, 878)","(182, -202)",190,-338,,,,,,,,,,,,,6,1,43,5,,,,,,,,,,,,,,,,,,,,,,,,,,,,,,,,,,,,,,,,1210.3835420840187,None,,,1213.399110866012,None,1.5682539682539682,0.90002111098147,1213.399110866012,None,,,,,,,1211.3826461370045,None,1211.5659935600124,1211.5825908390107,106,001,2023_May_25_1405,SpeechDraft1Carolyn_lessNoise_PlusLocalization,2021.2.3,60.08966351262155,
,,,,,,,,midLeft,-13.0,2,ch1Sound_localizationTask.wav,-13.0,"(762, 878)","(-198,-202)",-190,-338,,,,,,,,,,,,,6,2,44,1,,,,,,,,,,,,,,,,,,,,,,,,,,,,,,,,,,,,,,,,1214.3163080230006,None,,,1217.3324952660187,None,1.4084656084656084,0.9178118289855774,1217.3324952660187,None,,,,,,,1215.3158891780186,None,1215.4993306040124,1215.5159597930033,106,001,2023_May_25_1405,SpeechDraft1Carolyn_lessNoise_PlusLocalization,2021.2.3,60.08966351262155,
,,,,,,,,nearRight,6.5,0,ch1Sound_localizationTask.wav,6.5,"(1047, 878)","(87, -202)",95,-338,,,,,,,,,,,,,6,3,45,4,,,,,,,,,,,,,,,,,,,,,,,,,,,,,,,,,,,,,,,,1218.2659807820164,None,,,1221.2825367960031,None,1.5497354497354499,0.7664675209962297,1221.2825367960031,None,,,,,,,1219.2660770180228,None,1219.4494439430127,1219.4660114060098,106,001,2023_May_25_1405,SpeechDraft1Carolyn_lessNoise_PlusLocalization,2021.2.3,60.08966351262155,
,,,,,,,,farLeft,-19.1,5,ch1Sound_localizationTask.wav,-19.1,"(667, 878)","(-293,-202)",-285,-338,,,,,,,,,,,,,6,4,46,0,,,,,,,,,,,,,,,,,,,,,,,,,,,,,,,,,,,,,,,,1222.0500632920011,None,,,1225.0657429460261,None,1.3746031746031746,1.2654531790176407,1225.0657429460261,None,,,,,,,1223.049357714015,None,1223.232675457024,1223.2495118580118,106,001,2023_May_25_1405,SpeechDraft1Carolyn_lessNoise_PlusLocalization,2021.2.3,60.08966351262155,
,,,,,,,,nearRight,6.5,0,ch1Sound_localizationTask.wav,6.5,"(1047, 878)","(87, -202)",95,-338,,,,,,,,,,,,,6,5,47,4,,,,,,,,,,,,,,,,,,,,,,,,,,,,,,,,,,,,,,,,1226.3330891430087,None,,,1229.3490440340247,None,1.5412698412698411,0.7820004020177294,1229.3490440340247,None,,,,,,,1227.3326931420015,None,1227.5161656300188,1227.5327841130202,106,001,2023_May_25_1405,SpeechDraft1Carolyn_lessNoise_PlusLocalization,2021.2.3,60.08966351262155,
,,,,,,,,midLeft,-13.0,2,ch1Sound_localizationTask.wav,-13.0,"(762, 878)","(-198,-202)",-190,-338,,,,,,,,,,,,,6,6,48,1,,,,,,,,,,,,,,,,,,,,,,,,,,,,,,,,,,,,,,,,1230.1330535840243,None,,,1233.1490044000093,None,1.4153439153439153,1.2496737509791274,1233.1490044000093,None,,,,,,,1231.1328485810081,None,1231.3160299810115,1231.3329317130265,106,001,2023_May_25_1405,SpeechDraft1Carolyn_lessNoise_PlusLocalization,2021.2.3,60.08966351262155,
,,,,,,,,farLeft,-19.1,5,ch1Sound_localizationTask.wav,-19.1,"(667, 878)","(-293,-202)",-285,-338,,,,,,,,,,,,,7,0,49,0,,,,,,,,,,,,,,,,,,,,,,,,,,,,,,,,,,,,,,,,1234.4002924950037,None,,,1237.4158242999983,None,1.3783068783068784,1.1989481929922476,1237.4158242999983,None,,,,,,,1235.3995361640118,None,1235.5827659200004,1235.599595009,106,001,2023_May_25_1405,SpeechDraft1Carolyn_lessNoise_PlusLocalization,2021.2.3,60.08966351262155,
,,,,,,,,farRight,19.1,4,ch1Sound_localizationTask.wav,19.1,"(1237, 878)","(277,-202)",285,-338,,,,,,,,,,,,,7,1,50,6,,,,,,,,,,,,,,,,,,,,,,,,,,,,,,,,,,,,,,,,1238.616122321022,None,,,1241.6324523060175,None,1.6201058201058203,0.9147051339969039,1241.6324523060175,None,,,,,,,1239.6159954460163,None,1239.7993747270084,1239.8159396420233,106,001,2023_May_25_1405,SpeechDraft1Carolyn_lessNoise_PlusLocalization,2021.2.3,60.08966351262155,
,,,,,,,,nearLeft,-6.5,1,ch1Sound_localizationTask.wav,-6.5,"(857, 878)","(-103,-202)",-95,-338,,,,,,,,,,,,,7,2,51,2,,,,,,,,,,,,,,,,,,,,,,,,,,,,,,,,,,,,,,,,1242.549465130025,None,,,1245.565753152012,None,1.4534391534391533,0.9158456639852375,1245.565753152012,None,,,,,,,1243.5492884060077,None,1243.732705165021,1243.7493623110058,106,001,2023_May_25_1405,SpeechDraft1Carolyn_lessNoise_PlusLocalization,2021.2.3,60.08966351262155,
,,,,,,,,midRight,13.0,3,ch1Sound_localizationTask.wav,13.0,"(1142, 878)","(182, -202)",190,-338,,,,,,,,,,,,,7,3,52,5,,,,,,,,,,,,,,,,,,,,,,,,,,,,,,,,,,,,,,,,1246.4827627250052,None,,,1249.4991358400148,None,1.5920634920634922,0.7663855179853272,1249.4991358400148,None,,,,,,,1247.4826384100015,None,1247.666108349018,1247.6826966840017,106,001,2023_May_25_1405,SpeechDraft1Carolyn_lessNoise_PlusLocalization,2021.2.3,60.08966351262155,
,,,,,,,,midLeft,-13.0,2,ch1Sound_localizationTask.wav,-13.0,"(762, 878)","(-198,-202)",-190,-338,,,,,,,,,,,,,7,4,53,1,,,,,,,,,,,,,,,,,,,,,,,,,,,,,,,,,,,,,,,,1250.2665826330194,None,,,1253.2825672640174,None,1.411111111111111,0.59881170198787,1253.2825672640174,None,,,,,,,1251.2659794450155,None,1251.449483296019,1251.4660698780208,106,001,2023_May_25_1405,SpeechDraft1Carolyn_lessNoise_PlusLocalization,2021.2.3,60.08966351262155,
,,,,,,,,nearLeft,-6.5,1,ch1Sound_localizationTask.wav,-6.5,"(857, 878)","(-103,-202)",-95,-338,,,,,,,,,,,,,7,5,54,2,,,,,,,,,,,,,,,,,,,,,,,,,,,,,,,,,,,,,,,,1253.8829015460215,None,,,1256.8991995440156,None,1.4666666666666668,0.91577178100124,1256.8991995440156,None,,,,,,,1254.8826665680099,None,1255.066013993026,1255.082809287007,106,001,2023_May_25_1405,SpeechDraft1Carolyn_lessNoise_PlusLocalization,2021.2.3,60.08966351262155,
,,,,,,,,nearRight,6.5,0,ch1Sound_localizationTask.wav,6.5,"(1047, 878)","(87, -202)",95,-338,,,,,,,,,,,,,7,6,55,4,,,,,,,,,,,,,,,,,,,,,,,,,,,,,,,,,,,,,,,,1257.8163540480018,None,,,1260.8325806020002,None,1.538095238095238,0.7998185770120472,1260.8325806020002,None,,,,,,,1258.8159985759994,None,1258.9994558730104,1259.0161310080148,106,001,2023_May_25_1405,SpeechDraft1Carolyn_lessNoise_PlusLocalization,2021.2.3,60.08966351262155,
