Audio_Only_Files,Video_Files,Original_Word_List,noiseLevelCode,conditionCodes,noiseLevelFile1,noiseLevelFile2,InstrTextVar,targetSpeakerName,targetSpeakerEccen,targetSpkrChannel,targetSpkrSound,targetVisualDegrees,visStimLoc,visStimLoc2,visStimW,visStimH,practiceTrials.thisRepN,practiceTrials.thisTrialN,practiceTrials.thisN,practiceTrials.thisIndex,trials.thisRepN,trials.thisTrialN,trials.thisN,trials.thisIndex,audLocalLoop.thisRepN,audLocalLoop.thisTrialN,audLocalLoop.thisN,audLocalLoop.thisIndex,visualLocalLoop.thisRepN,visualLocalLoop.thisTrialN,visualLocalLoop.thisN,visualLocalLoop.thisIndex,letsGoAlready.keys,letsGoAlready.rt,letsGoAlready.started,letsGoAlready.stopped,text_2.started,text_2.stopped,text_3.started,text_3.stopped,key_resp_2.keys,key_resp_2.rt,key_resp_2.started,key_resp_2.stopped,text_5.started,text_5.stopped,fixCross.started,fixCross.stopped,fixCross2.started,fixCross2.stopped,answerPrompt.started,answerPrompt.stopped,getAnswer.text,getAnswer.started,getAnswer.stopped,goToNext.keys,goToNext.rt,goToNext.started,goToNext.stopped,stretchBreakTxrt.started,stretchBreakTxrt.stopped,key_resp_3.keys,key_resp_3.rt,key_resp_3.started,key_resp_3.stopped,letsGoLocal.keys,letsGoLocal.rt,letsGoLocal.started,letsGoLocal.stopped,text_4.started,text_4.stopped,prepFixTxt.started,prepFixTxt.stopped,prepFixTxt_2.started,prepFixTxt_2.stopped,respPromptLocal.started,respPromptLocal.stopped,slider.response,slider.rt,slider.started,slider.stopped,letsGoLocal_2.keys,letsGoLocal_2.rt,letsGoLocal_2.started,letsGoLocal_2.stopped,text_7.started,text_7.stopped,prepFixTxt_3.started,prepFixTxt_3.stopped,grating.started,grating.stopped,exitTxt.started,exitTxt.stopped,key_resp.keys,key_resp.rt,key_resp.started,key_resp.stopped,participant,session,date,expName,psychopyVersion,frameRate,
,,,,,,,,,,,,,,,,,,,,,,,,,,,,,,,,,space,14.691315303003648,14.937432929989882,None,,,,,,,,,,,,,,,,,,,,,,,,,,,,,,,,,,,,,,,,,,,,,,,,,,,,,,,,,,,,,,107,001,2023_May_25_1708,SpeechDraft1Carolyn_lessNoise_PlusLocalization,2021.2.3,59.99012418504382,
,,,,,,,,,,,,,,,,,,,,,,,,,,,,,,,,,,,,,14.937432929989882,None,29.77042201498989,None,space,5.8753712119942065,29.937355712987483,None,,,,,,,,,,,,,,,,,,,,,,,,,,,,,,,,,,,,,,,,,,,,,,,,,,,,,,107,001,2023_May_25_1708,SpeechDraft1Carolyn_lessNoise_PlusLocalization,2021.2.3,59.99012418504382,
ash.wav,ash.mpg,ash,1,A,Pink_Noise_1_1.wav,Pink_Noise_1_2.wav,"This is an example of an

AUDIO trial",,,,,,,,,,0,0,0,0,,,,,,,,,,,,,,,,,,,,,,,,,35.8540849419951,None,36.85407647799002,None,40.0206375340058,None,41.42053542099893,None,"ash 
",41.42053542099893,None,return,6.717386679025367,41.48735011499957,None,,,,,,,,,,,,,,,,,,,,,,,,,,,,,,,,,,,,,,,107,001,2023_May_25_1708,SpeechDraft1Carolyn_lessNoise_PlusLocalization,2021.2.3,59.99012418504382,
ash.wav,ash.mpg,ash,1,AV,Pink_Noise_1_1.wav,Pink_Noise_1_2.wav,"This is an example of an

AUDIO + VIDEO  trial",,,,,,,,,,0,1,1,1,,,,,,,,,,,,,,,,,,,,,,,,,48.253867510007694,None,49.25402052298887,None,50.75384317099815,None,52.13744054798735,None,asj,52.13744054798735,None,return,2.1996336549927946,52.221077175985556,None,,,,,,,,,,,,,,,,,,,,,,,,,,,,,,,,,,,,,,,107,001,2023_May_25_1708,SpeechDraft1Carolyn_lessNoise_PlusLocalization,2021.2.3,59.99012418504382,
,,,,,,,,,,,,,,,,,,,,,,,,,,,,,,,,,,,,,,,,,,,,,,,,,,,,,,,,,,,,54.453998966986546,None,space,9.047353226982523,54.63737955398392,None,,,,,,,,,,,,,,,,,,,,,,,,,,,,,,,,,107,001,2023_May_25_1708,SpeechDraft1Carolyn_lessNoise_PlusLocalization,2021.2.3,59.99012418504382,
rid.wav,rid.mpg,rid,1,AV,Pink_Noise_1_1.wav,Pink_Noise_1_2.wav,,,,,,,,,,,,,,,0,0,0,79,,,,,,,,,,,,,,,,,,,,,,,63.73726949898992,None,65.22058317100164,None,66.60426976700546,None,rod,66.60426976700546,None,return,10.565424647997133,66.68739813598222,None,,,,,,,,,,,,,,,,,,,,,,,,,,,,,,,,,,,,,,,107,001,2023_May_25_1708,SpeechDraft1Carolyn_lessNoise_PlusLocalization,2021.2.3,59.99012418504382,
ball.wav,ball.mpg,ball,1,A,Pink_Noise_1_1.wav,Pink_Noise_1_2.wav,,,,,,,,,,,,,,,0,1,1,36,,,,,,,,,,,,,,,,,,,,,,,77.27095935100806,None,78.77058455400402,None,80.15426703199046,None,ball,80.15426703199046,None,return,3.807272127014585,80.23753267200664,None,,,,,,,,,,,,,,,,,,,,,,,,,,,,,,,,,,,,,,,107,001,2023_May_25_1708,SpeechDraft1Carolyn_lessNoise_PlusLocalization,2021.2.3,59.99012418504382,
firm.wav,firm.mpg,firm,3,A,Pink_Noise_3_1.wav,Pink_Noise_3_2.wav,,,,,,,,,,,,,,,0,2,2,29,,,,,,,,,,,,,,,,,,,,,,,84.07097227100166,None,85.5707471880014,None,86.95415632199729,None,"cu,",86.95415632199729,None,return,1.543352650012821,87.03736978999223,None,,,,,,,,,,,,,,,,,,,,,,,,,,,,,,,,,,,,,,,107,001,2023_May_25_1708,SpeechDraft1Carolyn_lessNoise_PlusLocalization,2021.2.3,59.99012418504382,
fool.wav,fool.mpg,fool,3,AV,Pink_Noise_3_1.wav,Pink_Noise_3_2.wav,,,,,,,,,,,,,,,0,3,3,109,,,,,,,,,,,,,,,,,,,,,,,88.6040127610031,None,90.10393536300398,None,91.48767178898561,None,pool,91.48767178898561,None,return,1.2258444679901004,91.57087673500064,None,,,,,,,,,,,,,,,,,,,,,,,,,,,,,,,,,,,,,,,107,001,2023_May_25_1708,SpeechDraft1Carolyn_lessNoise_PlusLocalization,2021.2.3,59.99012418504382,
cough.wav,cough.mpg,cough,5,A,Pink_Noise_5_1.wav,Pink_Noise_5_2.wav,,,,,,,,,,,,,,,0,4,4,40,,,,,,,,,,,,,,,,,,,,,,,92.82088220899459,None,94.32078685399028,None,95.70427641199785,None,larpt,95.70427641199785,None,return,1.441395523987012,95.78749520599376,None,,,,,,,,,,,,,,,,,,,,,,,,,,,,,,,,,,,,,,,107,001,2023_May_25_1708,SpeechDraft1Carolyn_lessNoise_PlusLocalization,2021.2.3,59.99012418504382,
skull.wav,skull.mpg,skull,5,A,Pink_Noise_5_1.wav,Pink_Noise_5_2.wav,,,,,,,,,,,,,,,0,5,5,18,,,,,,,,,,,,,,,,,,,,,,,97.2542563949828,None,98.75418339899625,None,100.13762811999186,None,bath,100.13762811999186,None,return,8.239896587998373,100.22091271998943,None,,,,,,,,,,,,,,,,,,,,,,,,,,,,,,,,,,,,,,,107,001,2023_May_25_1708,SpeechDraft1Carolyn_lessNoise_PlusLocalization,2021.2.3,59.99012418504382,
fruit.wav,fruit.mpg,fruit,2,A,Pink_Noise_2_1.wav,Pink_Noise_2_2.wav,,,,,,,,,,,,,,,0,6,6,47,,,,,,,,,,,,,,,,,,,,,,,108.48767629099893,None,109.98717758301063,None,111.37067809799919,None,preac,111.37067809799919,None,return,3.4624841379991267,111.45423747398308,None,,,,,,,,,,,,,,,,,,,,,,,,,,,,,,,,,,,,,,,107,001,2023_May_25_1708,SpeechDraft1Carolyn_lessNoise_PlusLocalization,2021.2.3,59.99012418504382,
brow.wav,brow.mpg,brow,4,A,Pink_Noise_4_1.wav,Pink_Noise_4_2.wav,,,,,,,,,,,,,,,0,7,7,52,,,,,,,,,,,,,,,,,,,,,,,114.93754053700832,None,116.43726969300769,None,117.8208697969967,None,"ntpth
",117.8208697969967,None,return,1.22069853101857,117.90403827198315,None,,,,,,,,,,,,,,,,,,,,,,,,,,,,,,,,,,,,,,,107,001,2023_May_25_1708,SpeechDraft1Carolyn_lessNoise_PlusLocalization,2021.2.3,59.99012418504382,
shut.wav,shut.mpg,shut,6,A,Pink_Noise_6_1.wav,Pink_Noise_6_2.wav,,,,,,,,,,,,,,,0,8,8,26,,,,,,,,,,,,,,,,,,,,,,,119.15410438299295,None,120.65397702198243,None,122.03738786099711,None,chrm,122.03738786099711,None,return,1.0278441699920222,122.12087561699445,None,,,,,,,,,,,,,,,,,,,,,,,,,,,,,,,,,,,,,,,107,001,2023_May_25_1708,SpeechDraft1Carolyn_lessNoise_PlusLocalization,2021.2.3,59.99012418504382,
buzz.wav,buzz.mpg,buzz,6,AV,Pink_Noise_6_1.wav,Pink_Noise_6_2.wav,,,,,,,,,,,,,,,0,9,9,117,,,,,,,,,,,,,,,,,,,,,,,123.17076433598413,None,124.6707165800035,None,126.05399999101064,None,"cp,e",126.05399999101064,None,return,1.315187546017114,126.1376084399817,None,,,,,,,,,,,,,,,,,,,,,,,,,,,,,,,,,,,,,,,107,001,2023_May_25_1708,SpeechDraft1Carolyn_lessNoise_PlusLocalization,2021.2.3,59.99012418504382,
gun.wav,gun.mpg,gun,2,AV,Pink_Noise_2_1.wav,Pink_Noise_2_2.wav,,,,,,,,,,,,,,,0,10,10,61,,,,,,,,,,,,,,,,,,,,,,,127.47102808998898,None,128.97069463398657,None,130.37066166498698,None,gun,130.37066166498698,None,return,0.7591716820024885,130.43754414800787,None,,,,,,,,,,,,,,,,,,,,,,,,,,,,,,,,,,,,,,,107,001,2023_May_25_1708,SpeechDraft1Carolyn_lessNoise_PlusLocalization,2021.2.3,59.99012418504382,
grade.wav,grade.mpg,grade,4,A,Pink_Noise_4_1.wav,Pink_Noise_4_2.wav,,,,,,,,,,,,,,,0,11,11,57,,,,,,,,,,,,,,,,,,,,,,,131.22074734300259,None,132.7211648040102,None,134.10442638100358,None,"raid
",134.10442638100358,None,return,0.9691950979758985,134.18753863699385,None,,,,,,,,,,,,,,,,,,,,,,,,,,,,,,,,,,,,,,,107,001,2023_May_25_1708,SpeechDraft1Carolyn_lessNoise_PlusLocalization,2021.2.3,59.99012418504382,
grunt.wav,grunt.mpg,grunt,5,A,Pink_Noise_5_1.wav,Pink_Noise_5_2.wav,,,,,,,,,,,,,,,0,12,12,20,,,,,,,,,,,,,,,,,,,,,,,135.18755334799062,None,136.68732027400983,None,138.07083482600865,None,grunt,138.07083482600865,None,return,2.7226370309945196,138.15423586100223,None,,,,,,,,,,,,,,,,,,,,,,,,,,,,,,,,,,,,,,,107,001,2023_May_25_1708,SpeechDraft1Carolyn_lessNoise_PlusLocalization,2021.2.3,59.99012418504382,
frog.wav,frog.mpg,frog,5,AV,Pink_Noise_5_1.wav,Pink_Noise_5_2.wav,,,,,,,,,,,,,,,0,13,13,92,,,,,,,,,,,,,,,,,,,,,,,140.9042008839897,None,142.40392121998593,None,143.78746593100368,None,car,143.78746593100368,None,return,0.7977315549796913,143.87101868900936,None,,,,,,,,,,,,,,,,,,,,,,,,,,,,,,,,,,,,,,,107,001,2023_May_25_1708,SpeechDraft1Carolyn_lessNoise_PlusLocalization,2021.2.3,59.99012418504382,
goat.wav,goat.mpg,goat,4,AV,Pink_Noise_4_1.wav,Pink_Noise_4_2.wav,,,,,,,,,,,,,,,0,14,14,69,,,,,,,,,,,,,,,,,,,,,,,144.6876660840062,None,146.2040328909934,None,147.58778683299897,None,"pach
",147.58778683299897,None,return,1.6374565629812423,147.67126904599718,None,,,,,,,,,,,,,,,,,,,,,,,,,,,,,,,,,,,,,,,107,001,2023_May_25_1708,SpeechDraft1Carolyn_lessNoise_PlusLocalization,2021.2.3,59.99012418504382,
pop.wav,pop.mpg,pop,4,AV,Pink_Noise_4_1.wav,Pink_Noise_4_2.wav,,,,,,,,,,,,,,,0,15,15,75,,,,,,,,,,,,,,,,,,,,,,,149.33766534298775,None,150.83734095998807,None,152.22103061899543,None,[p[,152.22103061899543,None,return,0.5562916119815782,152.30451660300605,None,,,,,,,,,,,,,,,,,,,,,,,,,,,,,,,,,,,,,,,107,001,2023_May_25_1708,SpeechDraft1Carolyn_lessNoise_PlusLocalization,2021.2.3,59.99012418504382,
your.wav,your.mpg,your,3,A,Pink_Noise_3_1.wav,Pink_Noise_3_2.wav,,,,,,,,,,,,,,,0,16,16,16,,,,,,,,,,,,,,,,,,,,,,,152.88764350299607,None,154.38731858300162,None,155.77095506800106,None,f;ppr,155.77095506800106,None,return,0.7822877450089436,155.85448115799227,None,,,,,,,,,,,,,,,,,,,,,,,,,,,,,,,,,,,,,,,107,001,2023_May_25_1708,SpeechDraft1Carolyn_lessNoise_PlusLocalization,2021.2.3,59.99012418504382,
film.wav,film.mpg,film,5,AV,Pink_Noise_5_1.wav,Pink_Noise_5_2.wav,,,,,,,,,,,,,,,0,17,17,103,,,,,,,,,,,,,,,,,,,,,,,156.67070230699028,None,158.17142766699544,None,159.55435689800652,None,pool,159.55435689800652,None,return,1.1271512130042538,159.6375709179847,None,,,,,,,,,,,,,,,,,,,,,,,,,,,,,,,,,,,,,,,107,001,2023_May_25_1708,SpeechDraft1Carolyn_lessNoise_PlusLocalization,2021.2.3,59.99012418504382,
beast.wav,beast.mpg,beast,5,AV,Pink_Noise_5_1.wav,Pink_Noise_5_2.wav,,,,,,,,,,,,,,,0,18,18,94,,,,,,,,,,,,,,,,,,,,,,,160.78751193601056,None,162.2872609999904,None,163.67118092800956,None,"un
",163.67118092800956,None,return,0.7864138559962157,163.7543073569832,None,,,,,,,,,,,,,,,,,,,,,,,,,,,,,,,,,,,,,,,107,001,2023_May_25_1708,SpeechDraft1Carolyn_lessNoise_PlusLocalization,2021.2.3,59.99012418504382,
dine.wav,dine.mpg,dine,4,AV,Pink_Noise_4_1.wav,Pink_Noise_4_2.wav,,,,,,,,,,,,,,,0,19,19,83,,,,,,,,,,,,,,,,,,,,,,,164.57086732800235,None,166.07068905601045,None,167.4542252899846,None,"pir
",167.4542252899846,None,return,2.619040283985669,167.53769482599455,None,,,,,,,,,,,,,,,,,,,,,,,,,,,,,,,,,,,,,,,107,001,2023_May_25_1708,SpeechDraft1Carolyn_lessNoise_PlusLocalization,2021.2.3,59.99012418504382,
bear.wav,bear.mpg,bear,4,AV,Pink_Noise_4_1.wav,Pink_Noise_4_2.wav,,,,,,,,,,,,,,,0,20,20,64,,,,,,,,,,,,,,,,,,,,,,,170.18745678698178,None,171.68742880399805,None,173.07090619698283,None,"play
",173.07090619698283,None,return,1.002349418005906,173.1544007360062,None,,,,,,,,,,,,,,,,,,,,,,,,,,,,,,,,,,,,,,,107,001,2023_May_25_1708,SpeechDraft1Carolyn_lessNoise_PlusLocalization,2021.2.3,59.99012418504382,
gulp.wav,gulp.mpg,gulp,2,AV,Pink_Noise_2_1.wav,Pink_Noise_2_2.wav,,,,,,,,,,,,,,,0,21,21,107,,,,,,,,,,,,,,,,,,,,,,,174.1876920860086,None,175.6874111139914,None,177.07080113099073,None,hulp,177.07080113099073,None,return,2.37845905701397,177.15427862899378,None,,,,,,,,,,,,,,,,,,,,,,,,,,,,,,,,,,,,,,,107,001,2023_May_25_1708,SpeechDraft1Carolyn_lessNoise_PlusLocalization,2021.2.3,59.99012418504382,
freeze.wav,freeze.mpg,freeze,4,AV,Pink_Noise_4_1.wav,Pink_Noise_4_2.wav,,,,,,,,,,,,,,,0,22,22,67,,,,,,,,,,,,,,,,,,,,,,,179.55429744598223,None,181.05606387899024,None,182.43757700599963,None,preast,182.43757700599963,None,return,3.4437299849814735,182.52097199999844,None,,,,,,,,,,,,,,,,,,,,,,,,,,,,,,,,,,,,,,,107,001,2023_May_25_1708,SpeechDraft1Carolyn_lessNoise_PlusLocalization,2021.2.3,59.99012418504382,
bust.wav,bust.mpg,bust,6,AV,Pink_Noise_6_1.wav,Pink_Noise_6_2.wav,,,,,,,,,,,,,,,0,23,23,108,,,,,,,,,,,,,,,,,,,,,,,185.98764301798656,None,187.4873830669967,None,188.8710031530063,None,cost,188.8710031530063,None,return,0.5465442549902946,188.95429154098383,None,,,,,,,,,,,,,,,,,,,,,,,,,,,,,,,,,,,,,,,107,001,2023_May_25_1708,SpeechDraft1Carolyn_lessNoise_PlusLocalization,2021.2.3,59.99012418504382,
folk.wav,folk.mpg,folk,1,AV,Pink_Noise_1_1.wav,Pink_Noise_1_2.wav,,,,,,,,,,,,,,,0,24,24,100,,,,,,,,,,,,,,,,,,,,,,,189.5209677570092,None,191.02074527999503,None,192.4043822819949,None,"book'
",192.4043822819949,None,return,1.1170001990103628,192.4877335570054,None,,,,,,,,,,,,,,,,,,,,,,,,,,,,,,,,,,,,,,,107,001,2023_May_25_1708,SpeechDraft1Carolyn_lessNoise_PlusLocalization,2021.2.3,59.99012418504382,
break.wav,break.mpg,break,5,A,Pink_Noise_5_1.wav,Pink_Noise_5_2.wav,,,,,,,,,,,,,,,0,25,25,46,,,,,,,,,,,,,,,,,,,,,,,193.63765087199863,None,195.137324307987,None,196.52100587901077,None,"ate
",196.52100587901077,None,return,0.7843479609873611,196.60438367698225,None,,,,,,,,,,,,,,,,,,,,,,,,,,,,,,,,,,,,,,,107,001,2023_May_25_1708,SpeechDraft1Carolyn_lessNoise_PlusLocalization,2021.2.3,59.99012418504382,
swayed.wav,swayed.mpg,swayed,5,AV,Pink_Noise_5_1.wav,Pink_Noise_5_2.wav,,,,,,,,,,,,,,,0,26,26,65,,,,,,,,,,,,,,,,,,,,,,,197.42091257998254,None,198.93747173898737,None,200.32083663600497,None,"gym
",200.32083663600497,None,return,1.184481729986146,200.4042662800057,None,,,,,,,,,,,,,,,,,,,,,,,,,,,,,,,,,,,,,,,107,001,2023_May_25_1708,SpeechDraft1Carolyn_lessNoise_PlusLocalization,2021.2.3,59.99012418504382,
blank.wav,blank.mpg,blank,1,A,Pink_Noise_1_1.wav,Pink_Noise_1_2.wav,,,,,,,,,,,,,,,0,27,27,33,,,,,,,,,,,,,,,,,,,,,,,201.62093118700432,None,203.12080504000187,None,204.5041970119928,None,"ike'
",204.5041970119928,None,return,3.6011535319848917,204.5875794790045,None,,,,,,,,,,,,,,,,,,,,,,,,,,,,,,,,,,,,,,,107,001,2023_May_25_1708,SpeechDraft1Carolyn_lessNoise_PlusLocalization,2021.2.3,59.99012418504382,
float.wav,float.mpg,float,4,AV,Pink_Noise_4_1.wav,Pink_Noise_4_2.wav,,,,,,,,,,,,,,,0,28,28,101,,,,,,,,,,,,,,,,,,,,,,,208.221117426001,None,209.72080242299126,None,211.10447135099093,None,range,211.10447135099093,None,return,1.633153394999681,211.1876726670016,None,,,,,,,,,,,,,,,,,,,,,,,,,,,,,,,,,,,,,,,107,001,2023_May_25_1708,SpeechDraft1Carolyn_lessNoise_PlusLocalization,2021.2.3,59.99012418504382,
draw.wav,draw.mpg,draw,4,A,Pink_Noise_4_1.wav,Pink_Noise_4_2.wav,,,,,,,,,,,,,,,0,29,29,27,,,,,,,,,,,,,,,,,,,,,,,212.8376627319958,None,214.35396712299553,None,215.73767961398698,None,drop,215.73767961398698,None,return,0.9277276289940346,215.82099715500954,None,,,,,,,,,,,,,,,,,,,,,,,,,,,,,,,,,,,,,,,107,001,2023_May_25_1708,SpeechDraft1Carolyn_lessNoise_PlusLocalization,2021.2.3,59.99012418504382,
brick.wav,brick.mpg,brick,1,AV,Pink_Noise_1_1.wav,Pink_Noise_1_2.wav,,,,,,,,,,,,,,,0,30,30,60,,,,,,,,,,,,,,,,,,,,,,,216.77090842399048,None,218.28732507000677,None,219.67080019498826,None,roopricvk,219.67080019498826,None,return,4.426277185993968,219.75444280498778,None,,,,,,,,,,,,,,,,,,,,,,,,,,,,,,,,,,,,,,,107,001,2023_May_25_1708,SpeechDraft1Carolyn_lessNoise_PlusLocalization,2021.2.3,59.99012418504382,
clue.wav,clue.mpg,clue,4,A,Pink_Noise_4_1.wav,Pink_Noise_4_2.wav,,,,,,,,,,,,,,,0,31,31,59,,,,,,,,,,,,,,,,,,,,,,,224.20449746298254,None,225.70402558299247,None,227.0878343860095,None,"thing
",227.0878343860095,None,return,0.9377631400129758,227.1709602260089,None,,,,,,,,,,,,,,,,,,,,,,,,,,,,,,,,,,,,,,,107,001,2023_May_25_1708,SpeechDraft1Carolyn_lessNoise_PlusLocalization,2021.2.3,59.99012418504382,
bind.wav,bind.mpg,bind,5,A,Pink_Noise_5_1.wav,Pink_Noise_5_2.wav,,,,,,,,,,,,,,,0,32,32,6,,,,,,,,,,,,,,,,,,,,,,,228.13768867199542,None,229.63746109898784,None,231.02121084698592,None,ein,231.02121084698592,None,return,1.3643948179960717,231.1043305369967,None,,,,,,,,,,,,,,,,,,,,,,,,,,,,,,,,,,,,,,,107,001,2023_May_25_1708,SpeechDraft1Carolyn_lessNoise_PlusLocalization,2021.2.3,59.99012418504382,
clean.wav,clean.mpg,clean,5,A,Pink_Noise_5_1.wav,Pink_Noise_5_2.wav,,,,,,,,,,,,,,,0,33,33,3,,,,,,,,,,,,,,,,,,,,,,,232.4877536520071,None,233.99005860998295,None,235.37106594399665,None,me,235.37106594399665,None,return,0.5262921419925988,235.45443191798404,None,,,,,,,,,,,,,,,,,,,,,,,,,,,,,,,,,,,,,,,107,001,2023_May_25_1708,SpeechDraft1Carolyn_lessNoise_PlusLocalization,2021.2.3,59.99012418504382,
dust.wav,dust.mpg,dust,6,AV,Pink_Noise_6_1.wav,Pink_Noise_6_2.wav,,,,,,,,,,,,,,,0,34,34,87,,,,,,,,,,,,,,,,,,,,,,,236.00431793899043,None,237.50516687400523,None,238.8880340589967,None,jes,238.8880340589967,None,return,0.7776831240043975,238.9710417840106,None,,,,,,,,,,,,,,,,,,,,,,,,,,,,,,,,,,,,,,,107,001,2023_May_25_1708,SpeechDraft1Carolyn_lessNoise_PlusLocalization,2021.2.3,59.99012418504382,
chill.wav,chill.mpg,chill,1,A,Pink_Noise_1_1.wav,Pink_Noise_1_2.wav,,,,,,,,,,,,,,,0,35,35,44,,,,,,,,,,,,,,,,,,,,,,,239.77106833300786,None,241.27087986498373,None,242.65446804300882,None,"hill
",242.65446804300882,None,return,1.2350636750052217,242.73765935198753,None,,,,,,,,,,,,,,,,,,,,,,,,,,,,,,,,,,,,,,,107,001,2023_May_25_1708,SpeechDraft1Carolyn_lessNoise_PlusLocalization,2021.2.3,59.99012418504382,
crow.wav,crow.mpg,crow,2,A,Pink_Noise_2_1.wav,Pink_Noise_2_2.wav,,,,,,,,,,,,,,,0,36,36,53,,,,,,,,,,,,,,,,,,,,,,,244.0043682460091,None,245.5041894080059,None,246.8878882509889,None,row',246.8878882509889,None,return,5.0578080030099954,246.97106169498875,None,,,,,,,,,,,,,,,,,,,,,,,,,,,,,,,,,,,,,,,107,001,2023_May_25_1708,SpeechDraft1Carolyn_lessNoise_PlusLocalization,2021.2.3,59.99012418504382,
swan.wav,swan.mpg,swan,1,A,Pink_Noise_1_1.wav,Pink_Noise_1_2.wav,,,,,,,,,,,,,,,0,37,37,7,,,,,,,,,,,,,,,,,,,,,,,252.05431934300577,None,253.57076194600086,None,254.95433150298777,None,swan,254.95433150298777,None,return,0.9829345640027896,255.03784774598898,None,,,,,,,,,,,,,,,,,,,,,,,,,,,,,,,,,,,,,,,107,001,2023_May_25_1708,SpeechDraft1Carolyn_lessNoise_PlusLocalization,2021.2.3,59.99012418504382,
aunt.wav,aunt.mpg,aunt,2,AV,Pink_Noise_2_1.wav,Pink_Noise_2_2.wav,,,,,,,,,,,,,,,0,38,38,118,,,,,,,,,,,,,,,,,,,,,,,256.0541088329919,None,257.5540905779926,None,258.93767826099065,None,art,258.93767826099065,None,return,0.599740967998514,259.0211221869977,None,,,,,,,,,,,,,,,,,,,,,,,,,,,,,,,,,,,,,,,107,001,2023_May_25_1708,SpeechDraft1Carolyn_lessNoise_PlusLocalization,2021.2.3,59.99012418504382,
stove.wav,stove.mpg,stove,6,A,Pink_Noise_6_1.wav,Pink_Noise_6_2.wav,,,,,,,,,,,,,,,0,39,39,32,,,,,,,,,,,,,,,,,,,,,,,259.63780459199916,None,261.1376347169862,None,262.5211019109993,None,"cook
",262.5211019109993,None,return,1.7842684770002961,262.60446079299436,None,,,,,,,,,,,,,,,,,,,,,,,,,,,,,,,,,,,,,,,107,001,2023_May_25_1708,SpeechDraft1Carolyn_lessNoise_PlusLocalization,2021.2.3,59.99012418504382,
bunch.wav,bunch.mpg,bunch,6,A,Pink_Noise_6_1.wav,Pink_Noise_6_2.wav,,,,,,,,,,,,,,,0,40,40,19,,,,,,,,,,,,,,,,,,,,,,,264.42104474798543,None,265.92090143999667,None,267.3045532289834,None,"poach
",267.3045532289834,None,return,1.1210810930060688,267.38764332898427,None,,,,,,,,,,,,,,,,,,,,,,,,,,,,,,,,,,,,,,,107,001,2023_May_25_1708,SpeechDraft1Carolyn_lessNoise_PlusLocalization,2021.2.3,59.99012418504382,
fable.wav,fable.mpg,fable,3,AV,Pink_Noise_3_1.wav,Pink_Noise_3_2.wav,,,,,,,,,,,,,,,0,41,41,114,,,,,,,,,,,,,,,,,,,,,,,268.53773076899233,None,270.0541721860063,None,271.4379938689817,None,"avor
",271.4379938689817,None,return,0.8037115149782039,271.5210223890026,None,,,,,,,,,,,,,,,,,,,,,,,,,,,,,,,,,,,,,,,107,001,2023_May_25_1708,SpeechDraft1Carolyn_lessNoise_PlusLocalization,2021.2.3,59.99012418504382,
chomp.wav,chomp.mpg,chomp,3,AV,Pink_Noise_3_1.wav,Pink_Noise_3_2.wav,,,,,,,,,,,,,,,0,42,42,85,,,,,,,,,,,,,,,,,,,,,,,272.35435508799856,None,273.870828752988,None,275.2709483540093,None,trough,275.2709483540093,None,return,1.291002526995726,275.33786810399033,None,,,,,,,,,,,,,,,,,,,,,,,,,,,,,,,,,,,,,,,107,001,2023_May_25_1708,SpeechDraft1Carolyn_lessNoise_PlusLocalization,2021.2.3,59.99012418504382,
blot.wav,blot.mpg,blot,2,AV,Pink_Noise_2_1.wav,Pink_Noise_2_2.wav,,,,,,,,,,,,,,,0,43,43,105,,,,,,,,,,,,,,,,,,,,,,,276.65461494599003,None,278.1707482789934,None,279.5544375659956,None,blot,279.5544375659956,None,return,0.9590776870027184,279.6376757049875,None,,,,,,,,,,,,,,,,,,,,,,,,,,,,,,,,,,,,,,,107,001,2023_May_25_1708,SpeechDraft1Carolyn_lessNoise_PlusLocalization,2021.2.3,59.99012418504382,
glue.wav,glue.mpg,glue,4,AV,Pink_Noise_4_1.wav,Pink_Noise_4_2.wav,,,,,,,,,,,,,,,0,44,44,98,,,,,,,,,,,,,,,,,,,,,,,280.62110661598854,None,282.1214933419833,None,283.5045595440024,None,"looo
",283.5045595440024,None,return,2.6169607669871766,283.58778804400936,None,,,,,,,,,,,,,,,,,,,,,,,,,,,,,,,,,,,,,,,107,001,2023_May_25_1708,SpeechDraft1Carolyn_lessNoise_PlusLocalization,2021.2.3,59.99012418504382,
sake.wav,sake.mpg,sake,3,AV,Pink_Noise_3_1.wav,Pink_Noise_3_2.wav,,,,,,,,,,,,,,,0,45,45,73,,,,,,,,,,,,,,,,,,,,,,,286.2377014500089,None,287.7375483509968,None,289.1214100699872,None,sick,289.1214100699872,None,return,0.7602666019811295,289.2044545109966,None,,,,,,,,,,,,,,,,,,,,,,,,,,,,,,,,,,,,,,,107,001,2023_May_25_1708,SpeechDraft1Carolyn_lessNoise_PlusLocalization,2021.2.3,59.99012418504382,
beard.wav,beard.mpg,beard,1,AV,Pink_Noise_1_1.wav,Pink_Noise_1_2.wav,,,,,,,,,,,,,,,0,46,46,82,,,,,,,,,,,,,,,,,,,,,,,289.9878737939871,None,291.5042103820015,None,292.88801338200574,None,"beard
",292.88801338200574,None,return,1.9536609750066418,292.97107598299044,None,,,,,,,,,,,,,,,,,,,,,,,,,,,,,,,,,,,,,,,107,001,2023_May_25_1708,SpeechDraft1Carolyn_lessNoise_PlusLocalization,2021.2.3,59.99012418504382,
bloat.wav,bloat.mpg,bloat,2,AV,Pink_Noise_2_1.wav,Pink_Noise_2_2.wav,,,,,,,,,,,,,,,0,47,47,93,,,,,,,,,,,,,,,,,,,,,,,294.9544942129869,None,296.45596026600106,None,297.83783106398187,None,bkloat,297.83783106398187,None,return,0.6996393879817333,297.92116673800047,None,,,,,,,,,,,,,,,,,,,,,,,,,,,,,,,,,,,,,,,107,001,2023_May_25_1708,SpeechDraft1Carolyn_lessNoise_PlusLocalization,2021.2.3,59.99012418504382,
groom.wav,groom.mpg,groom,2,A,Pink_Noise_2_1.wav,Pink_Noise_2_2.wav,,,,,,,,,,,,,,,0,48,48,31,,,,,,,,,,,,,,,,,,,,,,,298.63809872299316,None,300.1541682209936,None,301.53779038699577,None,room,301.53779038699577,None,return,1.1435084209952038,301.62120521999896,None,,,,,,,,,,,,,,,,,,,,,,,,,,,,,,,,,,,,,,,107,001,2023_May_25_1708,SpeechDraft1Carolyn_lessNoise_PlusLocalization,2021.2.3,59.99012418504382,
date.wav,date.mpg,date,5,A,Pink_Noise_5_1.wav,Pink_Noise_5_2.wav,,,,,,,,,,,,,,,0,49,49,11,,,,,,,,,,,,,,,,,,,,,,,302.7878837279859,None,304.3042927799979,None,305.6877895409998,None,ju,305.6877895409998,None,return,0.9455668479786254,305.77119628799846,None,,,,,,,,,,,,,,,,,,,,,,,,,,,,,,,,,,,,,,,107,001,2023_May_25_1708,SpeechDraft1Carolyn_lessNoise_PlusLocalization,2021.2.3,59.99012418504382,
dense.wav,dense.mpg,dense,6,A,Pink_Noise_6_1.wav,Pink_Noise_6_2.wav,,,,,,,,,,,,,,,0,50,50,4,,,,,,,,,,,,,,,,,,,,,,,306.7376812779985,None,308.2542715820018,None,309.63776491899625,None,"po
",309.63776491899625,None,return,0.6355228000029456,309.72121212500497,None,,,,,,,,,,,,,,,,,,,,,,,,,,,,,,,,,,,,,,,107,001,2023_May_25_1708,SpeechDraft1Carolyn_lessNoise_PlusLocalization,2021.2.3,59.99012418504382,
bald.wav,bald.mpg,bald,3,A,Pink_Noise_3_1.wav,Pink_Noise_3_2.wav,,,,,,,,,,,,,,,0,51,51,34,,,,,,,,,,,,,,,,,,,,,,,310.3877258840075,None,311.8873646069842,None,313.2712473440042,None,bald,313.2712473440042,None,return,0.5941951349959709,313.3545395589899,None,,,,,,,,,,,,,,,,,,,,,,,,,,,,,,,,,,,,,,,107,001,2023_May_25_1708,SpeechDraft1Carolyn_lessNoise_PlusLocalization,2021.2.3,59.99012418504382,
script.wav,script.mpg,script,2,A,Pink_Noise_2_1.wav,Pink_Noise_2_2.wav,,,,,,,,,,,,,,,0,52,52,51,,,,,,,,,,,,,,,,,,,,,,,313.9711093819933,None,315.47094188598567,None,316.8544710209826,None,cript,316.8544710209826,None,return,1.1230687030183617,316.9377185709891,None,,,,,,,,,,,,,,,,,,,,,,,,,,,,,,,,,,,,,,,107,001,2023_May_25_1708,SpeechDraft1Carolyn_lessNoise_PlusLocalization,2021.2.3,59.99012418504382,
tear.wav,tear.mpg,tear,3,A,Pink_Noise_3_1.wav,Pink_Noise_3_2.wav,,,,,,,,,,,,,,,0,53,53,45,,,,,,,,,,,,,,,,,,,,,,,318.0878520429833,None,319.5875746149977,None,320.97119591300725,None,tear,320.97119591300725,None,return,0.5744751619931776,321.05437718098983,None,,,,,,,,,,,,,,,,,,,,,,,,,,,,,,,,,,,,,,,107,001,2023_May_25_1708,SpeechDraft1Carolyn_lessNoise_PlusLocalization,2021.2.3,59.99012418504382,
clerk.wav,clerk.mpg,clerk,3,AV,Pink_Noise_3_1.wav,Pink_Noise_3_2.wav,,,,,,,,,,,,,,,0,54,54,97,,,,,,,,,,,,,,,,,,,,,,,321.6544610679848,None,323.17086553000263,None,324.5545053780079,None,"brk
",324.5545053780079,None,return,1.4708160049922299,324.6379183210083,None,,,,,,,,,,,,,,,,,,,,,,,,,,,,,,,,,,,,,,,107,001,2023_May_25_1708,SpeechDraft1Carolyn_lessNoise_PlusLocalization,2021.2.3,59.99012418504382,
traps.wav,traps.mpg,traps,6,AV,Pink_Noise_6_1.wav,Pink_Noise_6_2.wav,,,,,,,,,,,,,,,0,55,55,66,,,,,,,,,,,,,,,,,,,,,,,326.13777592100087,None,327.63775547299883,None,329.02143474298646,None,est,329.02143474298646,None,return,0.6922047130065039,329.104540920991,None,,,,,,,,,,,,,,,,,,,,,,,,,,,,,,,,,,,,,,,107,001,2023_May_25_1708,SpeechDraft1Carolyn_lessNoise_PlusLocalization,2021.2.3,59.99012418504382,
grin.wav,grin.mpg,grin,6,AV,Pink_Noise_6_1.wav,Pink_Noise_6_2.wav,,,,,,,,,,,,,,,0,56,56,106,,,,,,,,,,,,,,,,,,,,,,,329.8212663809827,None,331.33766761800507,None,332.72114793700166,None,ej,332.72114793700166,None,return,1.808161659981124,332.8045836070087,None,,,,,,,,,,,,,,,,,,,,,,,,,,,,,,,,,,,,,,,107,001,2023_May_25_1708,SpeechDraft1Carolyn_lessNoise_PlusLocalization,2021.2.3,59.99012418504382,
bare.wav,bare.mpg,bare,4,AV,Pink_Noise_4_1.wav,Pink_Noise_4_2.wav,,,,,,,,,,,,,,,0,57,57,115,,,,,,,,,,,,,,,,,,,,,,,334.6377351520059,None,336.13873928398243,None,337.52113464899594,None,bear,337.52113464899594,None,return,0.9601701149949804,337.60457322900766,None,,,,,,,,,,,,,,,,,,,,,,,,,,,,,,,,,,,,,,,107,001,2023_May_25_1708,SpeechDraft1Carolyn_lessNoise_PlusLocalization,2021.2.3,59.99012418504382,
gulf.wav,gulf.mpg,gulf,2,A,Pink_Noise_2_1.wav,Pink_Noise_2_2.wav,,,,,,,,,,,,,,,0,58,58,17,,,,,,,,,,,,,,,,,,,,,,,338.5880960469949,None,340.1042998149933,None,341.47120987798553,None,"olf
",341.47120987798553,None,return,1.002228252007626,341.55450181500055,None,,,,,,,,,,,,,,,,,,,,,,,,,,,,,,,,,,,,,,,107,001,2023_May_25_1708,SpeechDraft1Carolyn_lessNoise_PlusLocalization,2021.2.3,59.99012418504382,
jam.wav,jam.mpg,jam,5,A,Pink_Noise_5_1.wav,Pink_Noise_5_2.wav,,,,,,,,,,,,,,,0,59,59,30,,,,,,,,,,,,,,,,,,,,,,,342.58780954999384,None,344.10424392999266,None,345.48799355101073,None,chaom,345.48799355101073,None,return,1.4414831369940657,345.5713579709991,None,,,,,,,,,,,,,,,,,,,,,,,,,,,,,,,,,,,,,,,107,001,2023_May_25_1708,SpeechDraft1Carolyn_lessNoise_PlusLocalization,2021.2.3,59.99012418504382,
funk.wav,funk.mpg,funk,3,A,Pink_Noise_3_1.wav,Pink_Noise_3_2.wav,,,,,,,,,,,,,,,0,60,60,41,,,,,,,,,,,,,,,,,,,,,,,347.03797780699097,None,348.55423036700813,None,349.93807348198607,None,"gucl
",349.93807348198607,None,return,0.7674312720191665,350.0212917839817,None,,,,,,,,,,,,,,,,,,,,,,,,,,,,,,,,,,,,,,,107,001,2023_May_25_1708,SpeechDraft1Carolyn_lessNoise_PlusLocalization,2021.2.3,59.99012418504382,
gown.wav,gown.mpg,gown,4,A,Pink_Noise_4_1.wav,Pink_Noise_4_2.wav,,,,,,,,,,,,,,,0,61,61,24,,,,,,,,,,,,,,,,,,,,,,,350.82106756500434,None,352.3382419910049,None,353.72121970099397,None,crpw,353.72121970099397,None,return,1.0323992490011733,353.80443871198804,None,,,,,,,,,,,,,,,,,,,,,,,,,,,,,,,,,,,,,,,107,001,2023_May_25_1708,SpeechDraft1Carolyn_lessNoise_PlusLocalization,2021.2.3,59.99012418504382,
beg.wav,beg.mpg,beg,3,AV,Pink_Noise_3_1.wav,Pink_Noise_3_2.wav,,,,,,,,,,,,,,,0,62,62,112,,,,,,,,,,,,,,,,,,,,,,,354.8546400849882,None,356.3711121100059,None,357.75537328099017,None,ned,357.75537328099017,None,return,0.6070085349783767,357.8379338439845,None,,,,,,,,,,,,,,,,,,,,,,,,,,,,,,,,,,,,,,,107,001,2023_May_25_1708,SpeechDraft1Carolyn_lessNoise_PlusLocalization,2021.2.3,59.99012418504382,
fake.wav,fake.mpg,fake,2,AV,Pink_Noise_2_1.wav,Pink_Noise_2_2.wav,,,,,,,,,,,,,,,0,63,63,95,,,,,,,,,,,,,,,,,,,,,,,358.47131237300346,None,359.9893012419925,None,361.37123700100346,None,ake,361.37123700100346,None,return,0.366339349973714,361.4544637509971,None,,,,,,,,,,,,,,,,,,,,,,,,,,,,,,,,,,,,,,,107,001,2023_May_25_1708,SpeechDraft1Carolyn_lessNoise_PlusLocalization,2021.2.3,59.99012418504382,
boost.wav,boost.mpg,boost,4,A,Pink_Noise_4_1.wav,Pink_Noise_4_2.wav,,,,,,,,,,,,,,,0,64,64,58,,,,,,,,,,,,,,,,,,,,,,,361.8379906739865,None,363.3544787130086,None,364.75534861098276,None,"ast
",364.75534861098276,None,return,0.7508699360187165,364.8378727250092,None,,,,,,,,,,,,,,,,,,,,,,,,,,,,,,,,,,,,,,,107,001,2023_May_25_1708,SpeechDraft1Carolyn_lessNoise_PlusLocalization,2021.2.3,59.99012418504382,
care.wav,care.mpg,care,6,AV,Pink_Noise_6_1.wav,Pink_Noise_6_2.wav,,,,,,,,,,,,,,,0,65,65,72,,,,,,,,,,,,,,,,,,,,,,,365.6211450819974,None,367.13760736898985,None,368.52132455198443,None,";pw
",368.52132455198443,None,return,0.38404343801084906,368.60467933799373,None,,,,,,,,,,,,,,,,,,,,,,,,,,,,,,,,,,,,,,,107,001,2023_May_25_1708,SpeechDraft1Carolyn_lessNoise_PlusLocalization,2021.2.3,59.99012418504382,
barn.wav,barn.mpg,barn,6,AV,Pink_Noise_6_1.wav,Pink_Noise_6_2.wav,,,,,,,,,,,,,,,0,66,66,102,,,,,,,,,,,,,,,,,,,,,,,369.02117630900466,None,370.53746752601,None,371.92127861001063,None,paek,371.92127861001063,None,return,1.6244193559978157,372.0044252910011,None,,,,,,,,,,,,,,,,,,,,,,,,,,,,,,,,,,,,,,,107,001,2023_May_25_1708,SpeechDraft1Carolyn_lessNoise_PlusLocalization,2021.2.3,59.99012418504382,
chump.wav,chump.mpg,chump,3,AV,Pink_Noise_3_1.wav,Pink_Noise_3_2.wav,,,,,,,,,,,,,,,0,67,67,80,,,,,,,,,,,,,,,,,,,,,,,373.6545010760019,None,375.17095178499585,None,376.537773774995,None,"cho,[
",376.537773774995,None,return,1.7194445590139367,376.62127642700216,None,,,,,,,,,,,,,,,,,,,,,,,,,,,,,,,,,,,,,,,107,001,2023_May_25_1708,SpeechDraft1Carolyn_lessNoise_PlusLocalization,2021.2.3,59.99012418504382,
droop.wav,droop.mpg,droop,1,A,Pink_Noise_1_1.wav,Pink_Noise_1_2.wav,,,,,,,,,,,,,,,0,68,68,5,,,,,,,,,,,,,,,,,,,,,,,378.3711569659936,None,379.8874539209937,None,381.2557171029912,None,droook,381.2557171029912,None,return,2.506846192001831,381.3379280449881,None,,,,,,,,,,,,,,,,,,,,,,,,,,,,,,,,,,,,,,,107,001,2023_May_25_1708,SpeechDraft1Carolyn_lessNoise_PlusLocalization,2021.2.3,59.99012418504382,
quest.wav,quest.mpg,quest,1,A,Pink_Noise_1_1.wav,Pink_Noise_1_2.wav,,,,,,,,,,,,,,,0,69,69,39,,,,,,,,,,,,,,,,,,,,,,,383.87110921699787,None,385.3877256560081,None,386.78823849599576,None,uest,386.78823849599576,None,return,1.2294712160073686,386.87137300599716,None,,,,,,,,,,,,,,,,,,,,,,,,,,,,,,,,,,,,,,,107,001,2023_May_25_1708,SpeechDraft1Carolyn_lessNoise_PlusLocalization,2021.2.3,59.99012418504382,
fog.wav,fog.mpg,fog,2,A,Pink_Noise_2_1.wav,Pink_Noise_2_2.wav,,,,,,,,,,,,,,,0,70,70,48,,,,,,,,,,,,,,,,,,,,,,,388.1213116130093,None,389.6376974559971,None,391.0045458849927,None,"dall
",391.0045458849927,None,return,1.0528587760054506,391.0878668210062,None,,,,,,,,,,,,,,,,,,,,,,,,,,,,,,,,,,,,,,,107,001,2023_May_25_1708,SpeechDraft1Carolyn_lessNoise_PlusLocalization,2021.2.3,59.99012418504382,
chip.wav,chip.mpg,chip,4,A,Pink_Noise_4_1.wav,Pink_Noise_4_2.wav,,,,,,,,,,,,,,,0,71,71,23,,,,,,,,,,,,,,,,,,,,,,,392.17111333599314,None,393.67095006999443,None,395.05453878600383,None,"chip
",395.05453878600383,None,return,1.9867458890075795,395.1379884099879,None,,,,,,,,,,,,,,,,,,,,,,,,,,,,,,,,,,,,,,,107,001,2023_May_25_1708,SpeechDraft1Carolyn_lessNoise_PlusLocalization,2021.2.3,59.99012418504382,
broad.wav,broad.mpg,broad,1,AV,Pink_Noise_1_1.wav,Pink_Noise_1_2.wav,,,,,,,,,,,,,,,0,72,72,77,,,,,,,,,,,,,,,,,,,,,,,397.15453651399,None,398.6709899829875,None,400.0546918589971,None,bod,400.0546918589971,None,return,1.5068549769930542,400.13800290299696,None,,,,,,,,,,,,,,,,,,,,,,,,,,,,,,,,,,,,,,,107,001,2023_May_25_1708,SpeechDraft1Carolyn_lessNoise_PlusLocalization,2021.2.3,59.99012418504382,
frail.wav,frail.mpg,frail,5,AV,Pink_Noise_5_1.wav,Pink_Noise_5_2.wav,,,,,,,,,,,,,,,0,73,73,84,,,,,,,,,,,,,,,,,,,,,,,401.67126797299716,None,403.1876296880073,None,404.5712326900102,None,cre,404.5712326900102,None,return,1.3260173969902098,404.65470342099434,None,,,,,,,,,,,,,,,,,,,,,,,,,,,,,,,,,,,,,,,107,001,2023_May_25_1708,SpeechDraft1Carolyn_lessNoise_PlusLocalization,2021.2.3,59.99012418504382,
gray.wav,gray.mpg,gray,2,AV,Pink_Noise_2_1.wav,Pink_Noise_2_2.wav,,,,,,,,,,,,,,,0,74,74,86,,,,,,,,,,,,,,,,,,,,,,,406.0046969940013,None,407.52103720000014,None,408.90470851998543,None,grey,408.90470851998543,None,return,1.6247698359948117,408.9879899059888,None,,,,,,,,,,,,,,,,,,,,,,,,,,,,,,,,,,,,,,,107,001,2023_May_25_1708,SpeechDraft1Carolyn_lessNoise_PlusLocalization,2021.2.3,59.99012418504382,
brawl.wav,brawl.mpg,brawl,6,A,Pink_Noise_6_1.wav,Pink_Noise_6_2.wav,,,,,,,,,,,,,,,0,75,75,50,,,,,,,,,,,,,,,,,,,,,,,410.63788236500113,None,412.1392792490078,None,413.5212488299876,None,"rot
",413.5212488299876,None,return,1.7521182780037634,413.60460586400586,None,,,,,,,,,,,,,,,,,,,,,,,,,,,,,,,,,,,,,,,107,001,2023_May_25_1708,SpeechDraft1Carolyn_lessNoise_PlusLocalization,2021.2.3,59.99012418504382,
eye.wav,eye.mpg,eye,1,AV,Pink_Noise_1_1.wav,Pink_Noise_1_2.wav,,,,,,,,,,,,,,,0,76,76,76,,,,,,,,,,,,,,,,,,,,,,,415.3879075589939,None,416.88920071400935,None,418.27124448900577,None,eye,418.27124448900577,None,return,1.457953645993257,418.35477422800614,None,,,,,,,,,,,,,,,,,,,,,,,,,,,,,,,,,,,,,,,107,001,2023_May_25_1708,SpeechDraft1Carolyn_lessNoise_PlusLocalization,2021.2.3,59.99012418504382,
birch.wav,birch.mpg,birch,6,A,Pink_Noise_6_1.wav,Pink_Noise_6_2.wav,,,,,,,,,,,,,,,0,77,77,55,,,,,,,,,,,,,,,,,,,,,,,419.8378488390008,None,421.35459345398704,None,422.73813351700664,None,stotch,422.73813351700664,None,return,1.9593652059847955,422.82138743498945,None,,,,,,,,,,,,,,,,,,,,,,,,,,,,,,,,,,,,,,,107,001,2023_May_25_1708,SpeechDraft1Carolyn_lessNoise_PlusLocalization,2021.2.3,59.99012418504382,
coup.wav,coup.mpg,coup,1,AV,Pink_Noise_1_1.wav,Pink_Noise_1_2.wav,,,,,,,,,,,,,,,0,78,78,116,,,,,,,,,,,,,,,,,,,,,,,424.80457880400354,None,426.3209830929991,None,427.7047102119832,None,coup,427.7047102119832,None,return,1.560757598024793,427.78802455199184,None,,,,,,,,,,,,,,,,,,,,,,,,,,,,,,,,,,,,,,,107,001,2023_May_25_1708,SpeechDraft1Carolyn_lessNoise_PlusLocalization,2021.2.3,59.99012418504382,
bible.wav,bible.mpg,bible,3,AV,Pink_Noise_3_1.wav,Pink_Noise_3_2.wav,,,,,,,,,,,,,,,0,79,79,88,,,,,,,,,,,,,,,,,,,,,,,429.3713926409837,None,430.8876040389878,None,432.25512756500393,None,"bob;e
",432.25512756500393,None,return,1.2188577800116036,432.3378763459914,None,,,,,,,,,,,,,,,,,,,,,,,,,,,,,,,,,,,,,,,107,001,2023_May_25_1708,SpeechDraft1Carolyn_lessNoise_PlusLocalization,2021.2.3,59.99012418504382,
count.wav,count.mpg,count,1,A,Pink_Noise_1_1.wav,Pink_Noise_1_2.wav,,,,,,,,,,,,,,,0,80,80,25,,,,,,,,,,,,,,,,,,,,,,,433.58790659098304,None,435.0892574150057,None,436.47123480500886,None,krly,436.47123480500886,None,return,3.274137347994838,436.55468038798426,None,,,,,,,,,,,,,,,,,,,,,,,,,,,,,,,,,,,,,,,107,001,2023_May_25_1708,SpeechDraft1Carolyn_lessNoise_PlusLocalization,2021.2.3,59.99012418504382,
bank.wav,bank.mpg,bank,5,AV,Pink_Noise_5_1.wav,Pink_Noise_5_2.wav,,,,,,,,,,,,,,,0,81,81,62,,,,,,,,,,,,,,,,,,,,,,,439.8546532339824,None,441.3710858130071,None,442.7546464120096,None,fuvk,442.7546464120096,None,return,0.8787214540061541,442.83800703298766,None,,,,,,,,,,,,,,,,,,,,,,,,,,,,,,,,,,,,,,,107,001,2023_May_25_1708,SpeechDraft1Carolyn_lessNoise_PlusLocalization,2021.2.3,59.99012418504382,
swamp.wav,swamp.mpg,swamp,2,A,Pink_Noise_2_1.wav,Pink_Noise_2_2.wav,,,,,,,,,,,,,,,0,82,82,1,,,,,,,,,,,,,,,,,,,,,,,443.7378655479988,None,445.271075156983,None,446.6562171969854,None,dwa[,446.6562171969854,None,return,1.3628123459930066,446.7379339390027,None,,,,,,,,,,,,,,,,,,,,,,,,,,,,,,,,,,,,,,,107,001,2023_May_25_1708,SpeechDraft1Carolyn_lessNoise_PlusLocalization,2021.2.3,59.99012418504382,
cuff.wav,cuff.mpg,cuff,1,A,Pink_Noise_1_1.wav,Pink_Noise_1_2.wav,,,,,,,,,,,,,,,0,83,83,37,,,,,,,,,,,,,,,,,,,,,,,448.1213387050084,None,449.63772560999496,None,451.02134105499135,None,"vum
",451.02134105499135,None,return,2.4041356290108524,451.1045912450063,None,,,,,,,,,,,,,,,,,,,,,,,,,,,,,,,,,,,,,,,107,001,2023_May_25_1708,SpeechDraft1Carolyn_lessNoise_PlusLocalization,2021.2.3,59.99012418504382,
curl.wav,curl.mpg,curl,5,AV,Pink_Noise_5_1.wav,Pink_Noise_5_2.wav,,,,,,,,,,,,,,,0,84,84,90,,,,,,,,,,,,,,,,,,,,,,,453.5379248030076,None,455.07122049099416,None,456.45457179500954,None,out,456.45457179500954,None,return,1.3388763509865385,456.53795987798367,None,,,,,,,,,,,,,,,,,,,,,,,,,,,,,,,,,,,,,,,107,001,2023_May_25_1708,SpeechDraft1Carolyn_lessNoise_PlusLocalization,2021.2.3,59.99012418504382,
cow.wav,cow.mpg,cow,5,A,Pink_Noise_5_1.wav,Pink_Noise_5_2.wav,,,,,,,,,,,,,,,0,85,85,12,,,,,,,,,,,,,,,,,,,,,,,457.90484174198355,None,459.4210239480017,None,460.80480937298853,None,i,460.80480937298853,None,return,0.724739380995743,460.8879829119833,None,,,,,,,,,,,,,,,,,,,,,,,,,,,,,,,,,,,,,,,107,001,2023_May_25_1708,SpeechDraft1Carolyn_lessNoise_PlusLocalization,2021.2.3,59.99012418504382,
dot.wav,dot.mpg,dot,2,A,Pink_Noise_2_1.wav,Pink_Noise_2_2.wav,,,,,,,,,,,,,,,0,86,86,14,,,,,,,,,,,,,,,,,,,,,,,461.63798352101,None,463.15450393100036,None,464.5380665139819,None,"dot
",464.5380665139819,None,return,2.087527919007698,464.6212082449929,None,,,,,,,,,,,,,,,,,,,,,,,,,,,,,,,,,,,,,,,107,001,2023_May_25_1708,SpeechDraft1Carolyn_lessNoise_PlusLocalization,2021.2.3,59.99012418504382,
belch.wav,belch.mpg,belch,2,AV,Pink_Noise_2_1.wav,Pink_Noise_2_2.wav,,,,,,,,,,,,,,,0,87,87,99,,,,,,,,,,,,,,,,,,,,,,,466.7381383960019,None,468.25433647300815,None,469.6379699620011,None,belch,469.6379699620011,None,return,0.691515715996502,469.7212776989909,None,,,,,,,,,,,,,,,,,,,,,,,,,,,,,,,,,,,,,,,107,001,2023_May_25_1708,SpeechDraft1Carolyn_lessNoise_PlusLocalization,2021.2.3,59.99012418504382,
chunk.wav,chunk.mpg,chunk,3,A,Pink_Noise_3_1.wav,Pink_Noise_3_2.wav,,,,,,,,,,,,,,,0,88,88,43,,,,,,,,,,,,,,,,,,,,,,,470.43795967500773,None,471.9546094649995,None,473.33805409100023,None,"chunk
",473.33805409100023,None,return,1.9353275279863738,473.42140643901075,None,,,,,,,,,,,,,,,,,,,,,,,,,,,,,,,,,,,,,,,107,001,2023_May_25_1708,SpeechDraft1Carolyn_lessNoise_PlusLocalization,2021.2.3,59.99012418504382,
sue.wav,sue.mpg,sue,5,AV,Pink_Noise_5_1.wav,Pink_Noise_5_2.wav,,,,,,,,,,,,,,,0,89,89,74,,,,,,,,,,,,,,,,,,,,,,,475.3881203359924,None,476.9044410380011,None,478.2879892280034,None,"peee
",478.2879892280034,None,return,1.1373593270254787,478.37137450798764,None,,,,,,,,,,,,,,,,,,,,,,,,,,,,,,,,,,,,,,,107,001,2023_May_25_1708,SpeechDraft1Carolyn_lessNoise_PlusLocalization,2021.2.3,59.99012418504382,
blue.wav,blue.mpg,blue,1,A,Pink_Noise_1_1.wav,Pink_Noise_1_2.wav,,,,,,,,,,,,,,,0,90,90,21,,,,,,,,,,,,,,,,,,,,,,,479.5379953759839,None,481.07115842500934,None,482.438027369004,None,pooo,482.438027369004,None,return,0.8272827990003861,482.52142953898874,None,,,,,,,,,,,,,,,,,,,,,,,,,,,,,,,,,,,,,,,107,001,2023_May_25_1708,SpeechDraft1Carolyn_lessNoise_PlusLocalization,2021.2.3,59.99012418504382,
gaze.wav,gaze.mpg,gaze,1,A,Pink_Noise_1_1.wav,Pink_Noise_1_2.wav,,,,,,,,,,,,,,,0,91,91,35,,,,,,,,,,,,,,,,,,,,,,,483.3713305789861,None,484.8876463279885,None,486.2715395159903,None,ay,486.2715395159903,None,return,0.8659328549983911,486.3548494669958,None,,,,,,,,,,,,,,,,,,,,,,,,,,,,,,,,,,,,,,,107,001,2023_May_25_1708,SpeechDraft1Carolyn_lessNoise_PlusLocalization,2021.2.3,59.99012418504382,
deck.wav,deck.mpg,deck,1,AV,Pink_Noise_1_1.wav,Pink_Noise_1_2.wav,,,,,,,,,,,,,,,0,92,92,63,,,,,,,,,,,,,,,,,,,,,,,487.23808348499006,None,488.75450417600223,None,490.1381338840001,None,"deck
",490.1381338840001,None,return,0.5352237210026942,490.22148220599047,None,,,,,,,,,,,,,,,,,,,,,,,,,,,,,,,,,,,,,,,107,001,2023_May_25_1708,SpeechDraft1Carolyn_lessNoise_PlusLocalization,2021.2.3,59.99012418504382,
pride.wav,pride.mpg,pride,4,A,Pink_Noise_4_1.wav,Pink_Noise_4_2.wav,,,,,,,,,,,,,,,0,93,93,28,,,,,,,,,,,,,,,,,,,,,,,490.7879133489914,None,492.3211272129847,None,493.7046209870023,None,"fo
",493.7046209870023,None,return,1.4007539059966803,493.78796318901004,None,,,,,,,,,,,,,,,,,,,,,,,,,,,,,,,,,,,,,,,107,001,2023_May_25_1708,SpeechDraft1Carolyn_lessNoise_PlusLocalization,2021.2.3,59.99012418504382,
eel.wav,eel.mpg,eel,3,AV,Pink_Noise_3_1.wav,Pink_Noise_3_2.wav,,,,,,,,,,,,,,,0,94,94,89,,,,,,,,,,,,,,,,,,,,,,,495.22143155598314,None,496.73778484298964,None,498.12138918298297,None,feeel,498.12138918298297,None,return,1.02409284299938,498.20478925999487,None,,,,,,,,,,,,,,,,,,,,,,,,,,,,,,,,,,,,,,,107,001,2023_May_25_1708,SpeechDraft1Carolyn_lessNoise_PlusLocalization,2021.2.3,59.99012418504382,
chain.wav,chain.mpg,chain,5,AV,Pink_Noise_5_1.wav,Pink_Noise_5_2.wav,,,,,,,,,,,,,,,0,95,95,104,,,,,,,,,,,,,,,,,,,,,,,499.2546210720029,None,500.77135049400385,None,502.1548393990088,None,"change
",502.1548393990088,None,return,0.9186318709980696,502.2380977990106,None,,,,,,,,,,,,,,,,,,,,,,,,,,,,,,,,,,,,,,,107,001,2023_May_25_1708,SpeechDraft1Carolyn_lessNoise_PlusLocalization,2021.2.3,59.99012418504382,
bail.wav,bail.mpg,bail,6,AV,Pink_Noise_6_1.wav,Pink_Noise_6_2.wav,,,,,,,,,,,,,,,0,96,96,68,,,,,,,,,,,,,,,,,,,,,,,503.18800114499754,None,504.7044222749828,None,506.0880464350048,None,pop,506.0880464350048,None,return,0.657474645995535,506.1714156639937,None,,,,,,,,,,,,,,,,,,,,,,,,,,,,,,,,,,,,,,,107,001,2023_May_25_1708,SpeechDraft1Carolyn_lessNoise_PlusLocalization,2021.2.3,59.99012418504382,
bleed.wav,bleed.mpg,bleed,4,AV,Pink_Noise_4_1.wav,Pink_Noise_4_2.wav,,,,,,,,,,,,,,,0,97,97,96,,,,,,,,,,,,,,,,,,,,,,,506.85519676900003,None,508.37120046900236,None,509.7549452930107,None,op,509.7549452930107,None,return,0.9827524420106784,509.8380421519978,None,,,,,,,,,,,,,,,,,,,,,,,,,,,,,,,,,,,,,,,107,001,2023_May_25_1708,SpeechDraft1Carolyn_lessNoise_PlusLocalization,2021.2.3,59.99012418504382,
chess.wav,chess.mpg,chess,4,A,Pink_Noise_4_1.wav,Pink_Noise_4_2.wav,,,,,,,,,,,,,,,0,98,98,49,,,,,,,,,,,,,,,,,,,,,,,510.83839488899685,None,512.354564401001,None,513.7380311919842,None,"chest
",513.7380311919842,None,return,1.0872937410022132,513.8214355609962,None,,,,,,,,,,,,,,,,,,,,,,,,,,,,,,,,,,,,,,,107,001,2023_May_25_1708,SpeechDraft1Carolyn_lessNoise_PlusLocalization,2021.2.3,59.99012418504382,
bill.wav,bill.mpg,bill,2,AV,Pink_Noise_2_1.wav,Pink_Noise_2_2.wav,,,,,,,,,,,,,,,0,99,99,119,,,,,,,,,,,,,,,,,,,,,,,514.9379938089987,None,516.4568522250047,None,517.8381059989915,None,"bill
",517.8381059989915,None,return,1.4833065010025166,517.9214294179983,None,,,,,,,,,,,,,,,,,,,,,,,,,,,,,,,,,,,,,,,107,001,2023_May_25_1708,SpeechDraft1Carolyn_lessNoise_PlusLocalization,2021.2.3,59.99012418504382,
bass.wav,bass.mpg,bass,4,AV,Pink_Noise_4_1.wav,Pink_Noise_4_2.wav,,,,,,,,,,,,,,,0,100,100,111,,,,,,,,,,,,,,,,,,,,,,,519.4381218260096,None,520.9544517239847,None,522.3385073450045,None,space,522.3385073450045,None,return,1.8632618660049047,522.4215502020088,None,,,,,,,,,,,,,,,,,,,,,,,,,,,,,,,,,,,,,,,107,001,2023_May_25_1708,SpeechDraft1Carolyn_lessNoise_PlusLocalization,2021.2.3,59.99012418504382,
awe.wav,awe.mpg,awe,6,AV,Pink_Noise_6_1.wav,Pink_Noise_6_2.wav,,,,,,,,,,,,,,,0,101,101,113,,,,,,,,,,,,,,,,,,,,,,,524.3049532870064,None,525.8211467429937,None,527.204813393997,None,off,527.204813393997,None,return,4.644628545996966,527.288084387983,None,,,,,,,,,,,,,,,,,,,,,,,,,,,,,,,,,,,,,,,107,001,2023_May_25_1708,SpeechDraft1Carolyn_lessNoise_PlusLocalization,2021.2.3,59.99012418504382,
booth.wav,booth.mpg,booth,6,A,Pink_Noise_6_1.wav,Pink_Noise_6_2.wav,,,,,,,,,,,,,,,0,102,102,10,,,,,,,,,,,,,,,,,,,,,,,531.9546877770044,None,533.4877927339985,None,534.8715496599907,None,pok,534.8715496599907,None,return,1.9060706959862728,534.9547239670064,None,,,,,,,,,,,,,,,,,,,,,,,,,,,,,,,,,,,,,,,107,001,2023_May_25_1708,SpeechDraft1Carolyn_lessNoise_PlusLocalization,2021.2.3,59.99012418504382,
clay.wav,clay.mpg,clay,4,A,Pink_Noise_4_1.wav,Pink_Noise_4_2.wav,,,,,,,,,,,,,,,0,103,103,9,,,,,,,,,,,,,,,,,,,,,,,536.8880009629938,None,538.4046358059859,None,539.7881108399888,None,crame,539.7881108399888,None,return,1.2291668959951494,539.871554479003,None,,,,,,,,,,,,,,,,,,,,,,,,,,,,,,,,,,,,,,,107,001,2023_May_25_1708,SpeechDraft1Carolyn_lessNoise_PlusLocalization,2021.2.3,59.99012418504382,
deem.wav,deem.mpg,deem,1,AV,Pink_Noise_1_1.wav,Pink_Noise_1_2.wav,,,,,,,,,,,,,,,0,104,104,110,,,,,,,,,,,,,,,,,,,,,,,541.1213674529863,None,542.6380119649984,None,544.021351953008,None,ean,544.021351953008,None,return,0.8919867639779113,544.1047666480008,None,,,,,,,,,,,,,,,,,,,,,,,,,,,,,,,,,,,,,,,107,001,2023_May_25_1708,SpeechDraft1Carolyn_lessNoise_PlusLocalization,2021.2.3,59.99012418504382,
debt.wav,debt.mpg,debt,6,A,Pink_Noise_6_1.wav,Pink_Noise_6_2.wav,,,,,,,,,,,,,,,0,105,105,15,,,,,,,,,,,,,,,,,,,,,,,545.021455723996,None,546.5379191380052,None,547.9213750899944,None,"kop
",547.9213750899944,None,return,0.7839169129729271,548.004817701003,None,,,,,,,,,,,,,,,,,,,,,,,,,,,,,,,,,,,,,,,107,001,2023_May_25_1708,SpeechDraft1Carolyn_lessNoise_PlusLocalization,2021.2.3,59.99012418504382,
dad.wav,dad.mpg,dad,5,A,Pink_Noise_5_1.wav,Pink_Noise_5_2.wav,,,,,,,,,,,,,,,0,106,106,2,,,,,,,,,,,,,,,,,,,,,,,548.8213884469878,None,550.3545108209946,None,551.7382916479837,None,"ly
",551.7382916479837,None,return,1.7671678899787366,551.82157284001,None,,,,,,,,,,,,,,,,,,,,,,,,,,,,,,,,,,,,,,,107,001,2023_May_25_1708,SpeechDraft1Carolyn_lessNoise_PlusLocalization,2021.2.3,59.99012418504382,
cling.wav,cling.mpg,cling,3,AV,Pink_Noise_3_1.wav,Pink_Noise_3_2.wav,,,,,,,,,,,,,,,0,107,107,81,,,,,,,,,,,,,,,,,,,,,,,553.6214412410045,None,555.137898179004,None,556.5215140839864,None,clean,556.5215140839864,None,return,0.7598794480145443,556.6048510069959,None,,,,,,,,,,,,,,,,,,,,,,,,,,,,,,,,,,,,,,,107,001,2023_May_25_1708,SpeechDraft1Carolyn_lessNoise_PlusLocalization,2021.2.3,59.99012418504382,
buy.wav,buy.mpg,buy,2,A,Pink_Noise_2_1.wav,Pink_Noise_2_2.wav,,,,,,,,,,,,,,,0,108,108,8,,,,,,,,,,,,,,,,,,,,,,,557.3880701450107,None,558.921165740001,None,560.3048391850025,None,"bye
",560.3048391850025,None,return,0.9205659909930546,560.3881531920051,None,,,,,,,,,,,,,,,,,,,,,,,,,,,,,,,,,,,,,,,107,001,2023_May_25_1708,SpeechDraft1Carolyn_lessNoise_PlusLocalization,2021.2.3,59.99012418504382,
friend.wav,friend.mpg,friend,3,A,Pink_Noise_3_1.wav,Pink_Noise_3_2.wav,,,,,,,,,,,,,,,0,109,109,56,,,,,,,,,,,,,,,,,,,,,,,561.3379605069931,None,562.8545386639889,None,564.2380740630033,None,friend,564.2380740630033,None,return,2.3552452979783993,564.3215455779864,None,,,,,,,,,,,,,,,,,,,,,,,,,,,,,,,,,,,,,,,107,001,2023_May_25_1708,SpeechDraft1Carolyn_lessNoise_PlusLocalization,2021.2.3,59.99012418504382,
crate.wav,crate.mpg,crate,3,A,Pink_Noise_3_1.wav,Pink_Noise_3_2.wav,,,,,,,,,,,,,,,0,110,110,38,,,,,,,,,,,,,,,,,,,,,,,566.7049173669948,None,568.238017502008,None,569.6215090370097,None,"crate
",569.6215090370097,None,return,0.867867176013533,569.7048739489983,None,,,,,,,,,,,,,,,,,,,,,,,,,,,,,,,,,,,,,,,107,001,2023_May_25_1708,SpeechDraft1Carolyn_lessNoise_PlusLocalization,2021.2.3,59.99012418504382,
camp.wav,camp.mpg,camp,5,AV,Pink_Noise_5_1.wav,Pink_Noise_5_2.wav,,,,,,,,,,,,,,,0,111,111,70,,,,,,,,,,,,,,,,,,,,,,,570.6046830569976,None,572.1378737699997,None,573.5213877320057,None,po,573.5213877320057,None,return,1.1920032019843347,573.6047447739984,None,,,,,,,,,,,,,,,,,,,,,,,,,,,,,,,,,,,,,,,107,001,2023_May_25_1708,SpeechDraft1Carolyn_lessNoise_PlusLocalization,2021.2.3,59.99012418504382,
bat.wav,bat.mpg,bat,3,A,Pink_Noise_3_1.wav,Pink_Noise_3_2.wav,,,,,,,,,,,,,,,0,112,112,42,,,,,,,,,,,,,,,,,,,,,,,574.8212875699974,None,576.337911812996,None,577.721505708003,None,nat,577.721505708003,None,return,0.7598950229876209,577.8048242979858,None,,,,,,,,,,,,,,,,,,,,,,,,,,,,,,,,,,,,,,,107,001,2023_May_25_1708,SpeechDraft1Carolyn_lessNoise_PlusLocalization,2021.2.3,59.99012418504382,
bin.wav,bin.mpg,bin,6,AV,Pink_Noise_6_1.wav,Pink_Noise_6_2.wav,,,,,,,,,,,,,,,0,113,113,78,,,,,,,,,,,,,,,,,,,,,,,578.5882740590023,None,580.1214611800096,None,581.5048931369965,None,blip,581.5048931369965,None,return,1.6166635070112534,581.5881395309989,None,,,,,,,,,,,,,,,,,,,,,,,,,,,,,,,,,,,,,,,107,001,2023_May_25_1708,SpeechDraft1Carolyn_lessNoise_PlusLocalization,2021.2.3,59.99012418504382,
flop.wav,flop.mpg,flop,6,A,Pink_Noise_6_1.wav,Pink_Noise_6_2.wav,,,,,,,,,,,,,,,0,114,114,0,,,,,,,,,,,,,,,,,,,,,,,583.2216012220015,None,584.7711446569883,None,586.1548584559932,None,pop,586.1548584559932,None,return,0.9585973270004615,586.2381422879989,None,,,,,,,,,,,,,,,,,,,,,,,,,,,,,,,,,,,,,,,107,001,2023_May_25_1708,SpeechDraft1Carolyn_lessNoise_PlusLocalization,2021.2.3,59.99012418504382,
frost.wav,frost.mpg,frost,3,A,Pink_Noise_3_1.wav,Pink_Noise_3_2.wav,,,,,,,,,,,,,,,0,115,115,22,,,,,,,,,,,,,,,,,,,,,,,587.2215297259972,None,588.7380270719877,None,590.1215047540027,None,frost,590.1215047540027,None,return,1.671933158999309,590.2047939799959,None,,,,,,,,,,,,,,,,,,,,,,,,,,,,,,,,,,,,,,,107,001,2023_May_25_1708,SpeechDraft1Carolyn_lessNoise_PlusLocalization,2021.2.3,59.99012418504382,
coat.wav,coat.mpg,coat,1,AV,Pink_Noise_1_1.wav,Pink_Noise_1_2.wav,,,,,,,,,,,,,,,0,116,116,91,,,,,,,,,,,,,,,,,,,,,,,591.9049933489878,None,593.4378276049974,None,594.8215863090008,None,"coat
",594.8215863090008,None,return,0.867716509004822,594.9049994199886,None,,,,,,,,,,,,,,,,,,,,,,,,,,,,,,,,,,,,,,,107,001,2023_May_25_1708,SpeechDraft1Carolyn_lessNoise_PlusLocalization,2021.2.3,59.99012418504382,
grasp.wav,grasp.mpg,grasp,2,A,Pink_Noise_2_1.wav,Pink_Noise_2_2.wav,,,,,,,,,,,,,,,0,117,117,13,,,,,,,,,,,,,,,,,,,,,,,595.8049367200001,None,597.337967325002,None,598.7215157180035,None,grasp[,598.7215157180035,None,return,1.6398928920098115,598.8048740270024,None,,,,,,,,,,,,,,,,,,,,,,,,,,,,,,,,,,,,,,,107,001,2023_May_25_1708,SpeechDraft1Carolyn_lessNoise_PlusLocalization,2021.2.3,59.99012418504382,
brake.wav,brake.mpg,brake,2,AV,Pink_Noise_2_1.wav,Pink_Noise_2_2.wav,,,,,,,,,,,,,,,0,118,118,71,,,,,,,,,,,,,,,,,,,,,,,600.4714239010063,None,602.0212492260034,None,603.4051131809829,None,breal,603.4051131809829,None,return,0.8765278549981304,603.488194450998,None,,,,,,,,,,,,,,,,,,,,,,,,,,,,,,,,,,,,,,,107,001,2023_May_25_1708,SpeechDraft1Carolyn_lessNoise_PlusLocalization,2021.2.3,59.99012418504382,
croak.wav,croak.mpg,croak,6,A,Pink_Noise_6_1.wav,Pink_Noise_6_2.wav,,,,,,,,,,,,,,,0,119,119,54,,,,,,,,,,,,,,,,,,,,,,,604.3881883549911,None,605.9046904940042,None,607.2881673529919,None,proteim,607.2881673529919,None,return,1.8332593830127735,607.3715109670011,None,,,,,,,,,,,,,,,,,,,,,,,,,,,,,,,,,,,,,,,107,001,2023_May_25_1708,SpeechDraft1Carolyn_lessNoise_PlusLocalization,2021.2.3,59.99012418504382,
,,,,,,,,,,,,,,,,,,,,,,,,,,,,,,,,,,,,,,,,,,,,,,,,,,,,,,,,,,,,,,,,,,space,7.371182460017735,609.3216126979969,None,,,,,,,,,,,,,,,,,,,,,,,,,,,,,107,001,2023_May_25_1708,SpeechDraft1Carolyn_lessNoise_PlusLocalization,2021.2.3,59.99012418504382,
,,,,,,,,center,0.0,6,ch1Sound_localizationTask.wav,0.0,"(952, 878)","(-8,-202)",0,-338,,,,,,,,,0,0,0,3,,,,,,,,,,,,,,,,,,,,,,,,,,,,,,,,,,,,,,,,,,609.3216126979969,None,616.7380111620005,None,617.8380553179886,None,618.7715329799976,None,1.4904761904761905,4.2533726260007825,618.7715329799976,None,,,,,,,,,,,,,,,,,107,001,2023_May_25_1708,SpeechDraft1Carolyn_lessNoise_PlusLocalization,2021.2.3,59.99012418504382,
,,,,,,,,farRight,19.1,4,ch1Sound_localizationTask.wav,19.1,"(1237, 878)","(277,-202)",285,-338,,,,,,,,,0,1,1,6,,,,,,,,,,,,,,,,,,,,,,,,,,,,,,,,,,,,,,,,,,,,623.0388968199841,None,624.1379274689825,None,625.0713392100006,None,1.1984126984126984,3.6684621940075886,625.0713392100006,None,,,,,,,,,,,,,,,,,107,001,2023_May_25_1708,SpeechDraft1Carolyn_lessNoise_PlusLocalization,2021.2.3,59.99012418504382,
,,,,,,,,nearLeft,-6.5,1,ch1Sound_localizationTask.wav,-6.5,"(857, 878)","(-103,-202)",-95,-338,,,,,,,,,0,2,2,2,,,,,,,,,,,,,,,,,,,,,,,,,,,,,,,,,,,,,,,,,,,,628.7564320279926,None,629.871360596997,None,630.7880563609942,None,1.2391534391534391,0.5990307639876846,630.7880563609942,None,,,,,,,,,,,,,,,,,107,001,2023_May_25_1708,SpeechDraft1Carolyn_lessNoise_PlusLocalization,2021.2.3,59.99012418504382,
,,,,,,,,farRight,19.1,4,ch1Sound_localizationTask.wav,19.1,"(1237, 878)","(277,-202)",285,-338,,,,,,,,,0,3,3,6,,,,,,,,,,,,,,,,,,,,,,,,,,,,,,,,,,,,,,,,,,,,631.3897788859904,None,632.504686425993,None,633.4212874829827,None,1.2534391534391536,1.7832268530037254,633.4212874829827,None,,,,,,,,,,,,,,,,,107,001,2023_May_25_1708,SpeechDraft1Carolyn_lessNoise_PlusLocalization,2021.2.3,59.99012418504382,
,,,,,,,,farLeft,-19.1,5,ch1Sound_localizationTask.wav,-19.1,"(667, 878)","(-293,-202)",-285,-338,,,,,,,,,0,4,4,0,,,,,,,,,,,,,,,,,,,,,,,,,,,,,,,,,,,,,,,,,,,,635.2216026079841,None,636.3213918629917,None,637.254674530006,None,1.2534391534391536,0.48574817602639087,637.254674530006,None,,,,,,,,,,,,,,,,,107,001,2023_May_25_1708,SpeechDraft1Carolyn_lessNoise_PlusLocalization,2021.2.3,59.99012418504382,
,,,,,,,,center,0.0,6,ch1Sound_localizationTask.wav,0.0,"(952, 878)","(-8,-202)",0,-338,,,,,,,,,0,5,5,3,,,,,,,,,,,,,,,,,,,,,,,,,,,,,,,,,,,,,,,,,,,,637.7549825079914,None,638.8547108909988,None,639.7881130180031,None,1.2534391534391536,0.08334553500753827,639.7881130180031,None,,,,,,,,,,,,,,,,,107,001,2023_May_25_1708,SpeechDraft1Carolyn_lessNoise_PlusLocalization,2021.2.3,59.99012418504382,
,,,,,,,,midRight,13.0,3,ch1Sound_localizationTask.wav,13.0,"(1142, 878)","(182, -202)",190,-338,,,,,,,,,0,6,6,5,,,,,,,,,,,,,,,,,,,,,,,,,,,,,,,,,,,,,,,,,,,,639.8882815929828,None,640.9879872119927,None,641.9213837340067,None,1.2544973544973546,5.399973818013677,641.9213837340067,None,,,,,,,,,,,,,,,,,107,001,2023_May_25_1708,SpeechDraft1Carolyn_lessNoise_PlusLocalization,2021.2.3,59.99012418504382,
,,,,,,,,nearLeft,-6.5,1,ch1Sound_localizationTask.wav,-6.5,"(857, 878)","(-103,-202)",-95,-338,,,,,,,,,1,0,7,2,,,,,,,,,,,,,,,,,,,,,,,,,,,,,,,,,,,,,,,,,,,,647.3383375220001,None,648.438092344004,None,649.3713824099978,None,1.2544973544973546,0.6831969830091111,649.3713824099978,None,,,,,,,,,,,,,,,,,107,001,2023_May_25_1708,SpeechDraft1Carolyn_lessNoise_PlusLocalization,2021.2.3,59.99012418504382,
,,,,,,,,farLeft,-19.1,5,ch1Sound_localizationTask.wav,-19.1,"(667, 878)","(-293,-202)",-285,-338,,,,,,,,,1,1,8,0,,,,,,,,,,,,,,,,,,,,,,,,,,,,,,,,,,,,,,,,,,,,650.0715551830071,None,651.171320983005,None,652.1046883829986,None,1.6164021164021163,0.1989799990260508,652.1046883829986,None,,,,,,,,,,,,,,,,,107,001,2023_May_25_1708,SpeechDraft1Carolyn_lessNoise_PlusLocalization,2021.2.3,59.99012418504382,
,,,,,,,,center,0.0,6,ch1Sound_localizationTask.wav,0.0,"(952, 878)","(-8,-202)",0,-338,,,,,,,,,1,2,9,3,,,,,,,,,,,,,,,,,,,,,,,,,,,,,,,,,,,,,,,,,,,,652.3216312569857,None,653.4214128229942,None,654.3547893439827,None,1.457142857142857,0.23207783000543714,654.3547893439827,None,,,,,,,,,,,,,,,,,107,001,2023_May_25_1708,SpeechDraft1Carolyn_lessNoise_PlusLocalization,2021.2.3,59.99012418504382,
,,,,,,,,midRight,13.0,3,ch1Sound_localizationTask.wav,13.0,"(1142, 878)","(182, -202)",190,-338,,,,,,,,,1,3,10,5,,,,,,,,,,,,,,,,,,,,,,,,,,,,,,,,,,,,,,,,,,,,654.6051496419823,None,655.7048255069822,None,656.6381432900089,None,1.7063492063492063,0.3154153630021028,656.6381432900089,None,,,,,,,,,,,,,,,,,107,001,2023_May_25_1708,SpeechDraft1Carolyn_lessNoise_PlusLocalization,2021.2.3,59.99012418504382,
,,,,,,,,farLeft,-19.1,5,ch1Sound_localizationTask.wav,-19.1,"(667, 878)","(-293,-202)",-285,-338,,,,,,,,,1,4,11,0,,,,,,,,,,,,,,,,,,,,,,,,,,,,,,,,,,,,,,,,,,,,656.9560551279865,None,658.0713764989923,None,658.9879673210089,None,1.402116402116402,0.09910821297671646,658.9879673210089,None,,,,,,,,,,,,,,,,,107,001,2023_May_25_1708,SpeechDraft1Carolyn_lessNoise_PlusLocalization,2021.2.3,59.99012418504382,
,,,,,,,,midRight,13.0,3,ch1Sound_localizationTask.wav,13.0,"(1142, 878)","(182, -202)",190,-338,,,,,,,,,1,5,12,5,,,,,,,,,,,,,,,,,,,,,,,,,,,,,,,,,,,,,,,,,,,,659.088854141999,None,660.1880946019955,None,661.1213546959916,None,1.538095238095238,0.20027114398544654,661.1213546959916,None,,,,,,,,,,,,,,,,,107,001,2023_May_25_1708,SpeechDraft1Carolyn_lessNoise_PlusLocalization,2021.2.3,59.99012418504382,
,,,,,,,,farRight,19.1,4,ch1Sound_localizationTask.wav,19.1,"(1237, 878)","(277,-202)",285,-338,,,,,,,,,1,6,13,6,,,,,,,,,,,,,,,,,,,,,,,,,,,,,,,,,,,,,,,,,,,,661.3384069020103,None,662.4381861290021,None,663.3714025969966,None,1.3719576719576718,0.40022342899465,663.3714025969966,None,,,,,,,,,,,,,,,,,107,001,2023_May_25_1708,SpeechDraft1Carolyn_lessNoise_PlusLocalization,2021.2.3,59.99012418504382,
,,,,,,,,midRight,13.0,3,ch1Sound_localizationTask.wav,13.0,"(1142, 878)","(182, -202)",190,-338,,,,,,,,,2,0,14,5,,,,,,,,,,,,,,,,,,,,,,,,,,,,,,,,,,,,,,,,,,,,663.7882733609877,None,664.8881015869847,None,665.8215200459817,None,1.5624338624338625,0.4493546220182907,665.8215200459817,None,,,,,,,,,,,,,,,,,107,001,2023_May_25_1708,SpeechDraft1Carolyn_lessNoise_PlusLocalization,2021.2.3,59.99012418504382,
,,,,,,,,farLeft,-19.1,5,ch1Sound_localizationTask.wav,-19.1,"(667, 878)","(-293,-202)",-285,-338,,,,,,,,,2,1,15,0,,,,,,,,,,,,,,,,,,,,,,,,,,,,,,,,,,,,,,,,,,,,666.2882053400099,None,667.3879897480074,None,668.321409110009,None,1.2947089947089947,0.467208471003687,668.321409110009,None,,,,,,,,,,,,,,,,,107,001,2023_May_25_1708,SpeechDraft1Carolyn_lessNoise_PlusLocalization,2021.2.3,59.99012418504382,
,,,,,,,,nearRight,6.5,0,ch1Sound_localizationTask.wav,6.5,"(1047, 878)","(87, -202)",95,-338,,,,,,,,,2,2,16,4,,,,,,,,,,,,,,,,,,,,,,,,,,,,,,,,,,,,,,,,,,,,668.8051479170099,None,669.9048549179861,None,670.8381220189913,None,1.8306878306878307,0.40059324298636056,670.8381220189913,None,,,,,,,,,,,,,,,,,107,001,2023_May_25_1708,SpeechDraft1Carolyn_lessNoise_PlusLocalization,2021.2.3,59.99012418504382,
,,,,,,,,nearRight,6.5,0,ch1Sound_localizationTask.wav,6.5,"(1047, 878)","(87, -202)",95,-338,,,,,,,,,2,3,17,4,,,,,,,,,,,,,,,,,,,,,,,,,,,,,,,,,,,,,,,,,,,,671.2565603189869,None,672.3712639230071,None,673.2882121810107,None,1.215873015873016,0.2334380309912376,673.2882121810107,None,,,,,,,,,,,,,,,,,107,001,2023_May_25_1708,SpeechDraft1Carolyn_lessNoise_PlusLocalization,2021.2.3,59.99012418504382,
,,,,,,,,midRight,13.0,3,ch1Sound_localizationTask.wav,13.0,"(1142, 878)","(182, -202)",190,-338,,,,,,,,,2,4,18,5,,,,,,,,,,,,,,,,,,,,,,,,,,,,,,,,,,,,,,,,,,,,673.5382942839933,None,674.6380682429881,None,675.5713375429914,None,1.5391534391534392,0.21772791098919697,675.5713375429914,None,,,,,,,,,,,,,,,,,107,001,2023_May_25_1708,SpeechDraft1Carolyn_lessNoise_PlusLocalization,2021.2.3,59.99012418504382,
,,,,,,,,farRight,19.1,4,ch1Sound_localizationTask.wav,19.1,"(1237, 878)","(277,-202)",285,-338,,,,,,,,,2,5,19,6,,,,,,,,,,,,,,,,,,,,,,,,,,,,,,,,,,,,,,,,,,,,675.8049496480089,None,676.9046953619982,None,677.8380238399841,None,1.5052910052910053,0.06646119899232872,677.8380238399841,None,,,,,,,,,,,,,,,,,107,001,2023_May_25_1708,SpeechDraft1Carolyn_lessNoise_PlusLocalization,2021.2.3,59.99012418504382,
,,,,,,,,center,0.0,6,ch1Sound_localizationTask.wav,0.0,"(952, 878)","(-8,-202)",0,-338,,,,,,,,,2,6,20,3,,,,,,,,,,,,,,,,,,,,,,,,,,,,,,,,,,,,,,,,,,,,677.9216467670049,None,679.0214700929937,None,679.9549621960032,None,1.5047619047619047,0.1516640890040435,679.9549621960032,None,,,,,,,,,,,,,,,,,107,001,2023_May_25_1708,SpeechDraft1Carolyn_lessNoise_PlusLocalization,2021.2.3,59.99012418504382,
,,,,,,,,nearRight,6.5,0,ch1Sound_localizationTask.wav,6.5,"(1047, 878)","(87, -202)",95,-338,,,,,,,,,3,0,21,4,,,,,,,,,,,,,,,,,,,,,,,,,,,,,,,,,,,,,,,,,,,,680.1216105379863,None,681.2216907769907,None,682.1547988439852,None,1.5031746031746032,0.18330817500827834,682.1547988439852,None,,,,,,,,,,,,,,,,,107,001,2023_May_25_1708,SpeechDraft1Carolyn_lessNoise_PlusLocalization,2021.2.3,59.99012418504382,
,,,,,,,,farLeft,-19.1,5,ch1Sound_localizationTask.wav,-19.1,"(667, 878)","(-293,-202)",-285,-338,,,,,,,,,3,1,22,0,,,,,,,,,,,,,,,,,,,,,,,,,,,,,,,,,,,,,,,,,,,,682.3549048799905,None,683.4546688889968,None,684.3880314299895,None,1.439153439153439,0.19859235401963815,684.3880314299895,None,,,,,,,,,,,,,,,,,107,001,2023_May_25_1708,SpeechDraft1Carolyn_lessNoise_PlusLocalization,2021.2.3,59.99012418504382,
,,,,,,,,nearLeft,-6.5,1,ch1Sound_localizationTask.wav,-6.5,"(857, 878)","(-103,-202)",-95,-338,,,,,,,,,3,2,23,2,,,,,,,,,,,,,,,,,,,,,,,,,,,,,,,,,,,,,,,,,,,,684.5887213989918,None,685.6880892560002,None,686.6212787679979,None,1.439153439153439,0.41594674601219594,686.6212787679979,None,,,,,,,,,,,,,,,,,107,001,2023_May_25_1708,SpeechDraft1Carolyn_lessNoise_PlusLocalization,2021.2.3,59.99012418504382,
,,,,,,,,nearRight,6.5,0,ch1Sound_localizationTask.wav,6.5,"(1047, 878)","(87, -202)",95,-338,,,,,,,,,3,3,24,4,,,,,,,,,,,,,,,,,,,,,,,,,,,,,,,,,,,,,,,,,,,,687.0547910479945,None,688.1547589210095,None,689.087972481997,None,1.2978835978835979,0.5985742939810734,689.087972481997,None,,,,,,,,,,,,,,,,,107,001,2023_May_25_1708,SpeechDraft1Carolyn_lessNoise_PlusLocalization,2021.2.3,59.99012418504382,
,,,,,,,,midRight,13.0,3,ch1Sound_localizationTask.wav,13.0,"(1142, 878)","(182, -202)",190,-338,,,,,,,,,3,4,25,5,,,,,,,,,,,,,,,,,,,,,,,,,,,,,,,,,,,,,,,,,,,,689.7048887079873,None,690.8047207820055,None,691.7381084809895,None,1.2978835978835979,0.20034659100929275,691.7381084809895,None,,,,,,,,,,,,,,,,,107,001,2023_May_25_1708,SpeechDraft1Carolyn_lessNoise_PlusLocalization,2021.2.3,59.99012418504382,
,,,,,,,,midLeft,-13.0,2,ch1Sound_localizationTask.wav,-13.0,"(762, 878)","(-198,-202)",-190,-338,,,,,,,,,3,5,26,1,,,,,,,,,,,,,,,,,,,,,,,,,,,,,,,,,,,,,,,,,,,,691.9550741660059,None,693.0548232150031,None,693.9879802959913,None,1.162962962962963,0.34935982202296145,693.9879802959913,None,,,,,,,,,,,,,,,,,107,001,2023_May_25_1708,SpeechDraft1Carolyn_lessNoise_PlusLocalization,2021.2.3,59.99012418504382,
,,,,,,,,midRight,13.0,3,ch1Sound_localizationTask.wav,13.0,"(1142, 878)","(182, -202)",190,-338,,,,,,,,,3,6,27,5,,,,,,,,,,,,,,,,,,,,,,,,,,,,,,,,,,,,,,,,,,,,694.3549361879996,None,695.4548140559928,None,696.38816756499,None,1.4164021164021166,0.11669556502602063,696.38816756499,None,,,,,,,,,,,,,,,,,107,001,2023_May_25_1708,SpeechDraft1Carolyn_lessNoise_PlusLocalization,2021.2.3,59.99012418504382,
,,,,,,,,farRight,19.1,4,ch1Sound_localizationTask.wav,19.1,"(1237, 878)","(277,-202)",285,-338,,,,,,,,,4,0,28,6,,,,,,,,,,,,,,,,,,,,,,,,,,,,,,,,,,,,,,,,,,,,696.5216442619858,None,697.6214318359853,None,698.5547654560069,None,1.5164021164021164,0.13331365698832087,698.5547654560069,None,,,,,,,,,,,,,,,,,107,001,2023_May_25_1708,SpeechDraft1Carolyn_lessNoise_PlusLocalization,2021.2.3,59.99012418504382,
,,,,,,,,nearRight,6.5,0,ch1Sound_localizationTask.wav,6.5,"(1047, 878)","(87, -202)",95,-338,,,,,,,,,4,1,29,4,,,,,,,,,,,,,,,,,,,,,,,,,,,,,,,,,,,,,,,,,,,,698.7050003799959,None,699.8048396570084,None,700.7381904909853,None,1.7259259259259259,0.39904371902230196,700.7381904909853,None,,,,,,,,,,,,,,,,,107,001,2023_May_25_1708,SpeechDraft1Carolyn_lessNoise_PlusLocalization,2021.2.3,59.99012418504382,
,,,,,,,,nearRight,6.5,0,ch1Sound_localizationTask.wav,6.5,"(1047, 878)","(87, -202)",95,-338,,,,,,,,,4,2,30,4,,,,,,,,,,,,,,,,,,,,,,,,,,,,,,,,,,,,,,,,,,,,701.1551330079965,None,702.254904247995,None,703.1882615500072,None,1.335978835978836,0.6009283979947213,703.1882615500072,None,,,,,,,,,,,,,,,,,107,001,2023_May_25_1708,SpeechDraft1Carolyn_lessNoise_PlusLocalization,2021.2.3,59.99012418504382,
,,,,,,,,midLeft,-13.0,2,ch1Sound_localizationTask.wav,-13.0,"(762, 878)","(-198,-202)",-190,-338,,,,,,,,,4,3,31,1,,,,,,,,,,,,,,,,,,,,,,,,,,,,,,,,,,,,,,,,,,,,703.8049638599914,None,704.9048408349918,None,705.8381797299953,None,1.3142857142857143,0.5991799240000546,705.8381797299953,None,,,,,,,,,,,,,,,,,107,001,2023_May_25_1708,SpeechDraft1Carolyn_lessNoise_PlusLocalization,2021.2.3,59.99012418504382,
,,,,,,,,nearRight,6.5,0,ch1Sound_localizationTask.wav,6.5,"(1047, 878)","(87, -202)",95,-338,,,,,,,,,4,4,32,4,,,,,,,,,,,,,,,,,,,,,,,,,,,,,,,,,,,,,,,,,,,,706.4550041939947,None,707.5547698639857,None,708.4881696859957,None,1.2582010582010583,0.5153086360078305,708.4881696859957,None,,,,,,,,,,,,,,,,,107,001,2023_May_25_1708,SpeechDraft1Carolyn_lessNoise_PlusLocalization,2021.2.3,59.99012418504382,
,,,,,,,,midLeft,-13.0,2,ch1Sound_localizationTask.wav,-13.0,"(762, 878)","(-198,-202)",-190,-338,,,,,,,,,4,5,33,1,,,,,,,,,,,,,,,,,,,,,,,,,,,,,,,,,,,,,,,,,,,,709.005315352988,None,710.1047366709972,None,711.0381159439858,None,1.1830687830687832,0.3829536759876646,711.0381159439858,None,,,,,,,,,,,,,,,,,107,001,2023_May_25_1708,SpeechDraft1Carolyn_lessNoise_PlusLocalization,2021.2.3,59.99012418504382,
,,,,,,,,farLeft,-19.1,5,ch1Sound_localizationTask.wav,-19.1,"(667, 878)","(-293,-202)",-285,-338,,,,,,,,,4,6,34,0,,,,,,,,,,,,,,,,,,,,,,,,,,,,,,,,,,,,,,,,,,,,711.4382458830078,None,712.5382228140079,None,713.4715385510062,None,1.5465608465608467,0.5163999339856673,713.4715385510062,None,,,,,,,,,,,,,,,,,107,001,2023_May_25_1708,SpeechDraft1Carolyn_lessNoise_PlusLocalization,2021.2.3,59.99012418504382,
,,,,,,,,farRight,19.1,4,ch1Sound_localizationTask.wav,19.1,"(1237, 878)","(277,-202)",285,-338,,,,,,,,,5,0,35,6,,,,,,,,,,,,,,,,,,,,,,,,,,,,,,,,,,,,,,,,,,,,714.005150743993,None,715.1046989909955,None,716.0381717240089,None,1.585185185185185,0.6009619210090023,716.0381717240089,None,,,,,,,,,,,,,,,,,107,001,2023_May_25_1708,SpeechDraft1Carolyn_lessNoise_PlusLocalization,2021.2.3,59.99012418504382,
,,,,,,,,center,0.0,6,ch1Sound_localizationTask.wav,0.0,"(952, 878)","(-8,-202)",0,-338,,,,,,,,,5,1,36,3,,,,,,,,,,,,,,,,,,,,,,,,,,,,,,,,,,,,,,,,,,,,716.6550920739828,None,717.7548239970056,None,718.6880057009985,None,1.4190476190476191,0.04916794001474045,718.6880057009985,None,,,,,,,,,,,,,,,,,107,001,2023_May_25_1708,SpeechDraft1Carolyn_lessNoise_PlusLocalization,2021.2.3,59.99012418504382,
,,,,,,,,midLeft,-13.0,2,ch1Sound_localizationTask.wav,-13.0,"(762, 878)","(-198,-202)",-190,-338,,,,,,,,,5,2,37,1,,,,,,,,,,,,,,,,,,,,,,,,,,,,,,,,,,,,,,,,,,,,718.7559280589921,None,719.8547736970067,None,720.7881227420003,None,1.3555555555555556,0.43286065000575036,720.7881227420003,None,,,,,,,,,,,,,,,,,107,001,2023_May_25_1708,SpeechDraft1Carolyn_lessNoise_PlusLocalization,2021.2.3,59.99012418504382,
,,,,,,,,midLeft,-13.0,2,ch1Sound_localizationTask.wav,-13.0,"(762, 878)","(-198,-202)",-190,-338,,,,,,,,,5,3,38,1,,,,,,,,,,,,,,,,,,,,,,,,,,,,,,,,,,,,,,,,,,,,721.2384672279877,None,722.3384261979954,None,723.2714644469961,None,1.5804232804232803,0.6313820700161159,723.2714644469961,None,,,,,,,,,,,,,,,,,107,001,2023_May_25_1708,SpeechDraft1Carolyn_lessNoise_PlusLocalization,2021.2.3,59.99012418504382,
,,,,,,,,nearLeft,-6.5,1,ch1Sound_localizationTask.wav,-6.5,"(857, 878)","(-103,-202)",-95,-338,,,,,,,,,5,4,39,2,,,,,,,,,,,,,,,,,,,,,,,,,,,,,,,,,,,,,,,,,,,,723.9056431539939,None,725.004764466983,None,725.9381256320048,None,1.6433862433862434,0.46461436100071296,725.9381256320048,None,,,,,,,,,,,,,,,,,107,001,2023_May_25_1708,SpeechDraft1Carolyn_lessNoise_PlusLocalization,2021.2.3,59.99012418504382,
,,,,,,,,center,0.0,6,ch1Sound_localizationTask.wav,0.0,"(952, 878)","(-8,-202)",0,-338,,,,,,,,,5,5,40,3,,,,,,,,,,,,,,,,,,,,,,,,,,,,,,,,,,,,,,,,,,,,726.405517807987,None,727.5050684669986,None,728.4383298269822,None,1.4312169312169312,0.3823082669987343,728.4383298269822,None,,,,,,,,,,,,,,,,,107,001,2023_May_25_1708,SpeechDraft1Carolyn_lessNoise_PlusLocalization,2021.2.3,59.99012418504382,
,,,,,,,,nearLeft,-6.5,1,ch1Sound_localizationTask.wav,-6.5,"(857, 878)","(-103,-202)",-95,-338,,,,,,,,,5,6,41,2,,,,,,,,,,,,,,,,,,,,,,,,,,,,,,,,,,,,,,,,,,,,728.8384377009934,None,729.9380491199845,None,730.871608757996,None,1.524867724867725,0.5833162700000685,730.871608757996,None,,,,,,,,,,,,,,,,,107,001,2023_May_25_1708,SpeechDraft1Carolyn_lessNoise_PlusLocalization,2021.2.3,59.99012418504382,
,,,,,,,,farRight,19.1,4,ch1Sound_localizationTask.wav,19.1,"(1237, 878)","(277,-202)",285,-338,,,,,,,,,6,0,42,6,,,,,,,,,,,,,,,,,,,,,,,,,,,,,,,,,,,,,,,,,,,,731.471778489009,None,732.57145171499,None,733.5048781759979,None,1.2264550264550265,0.5334839260031004,733.5048781759979,None,,,,,,,,,,,,,,,,,107,001,2023_May_25_1708,SpeechDraft1Carolyn_lessNoise_PlusLocalization,2021.2.3,59.99012418504382,
,,,,,,,,midLeft,-13.0,2,ch1Sound_localizationTask.wav,-13.0,"(762, 878)","(-198,-202)",-190,-338,,,,,,,,,6,1,43,1,,,,,,,,,,,,,,,,,,,,,,,,,,,,,,,,,,,,,,,,,,,,734.0550216340052,None,735.1549542550056,None,736.0882228009868,None,1.6862433862433863,0.4507399540161714,736.0882228009868,None,,,,,,,,,,,,,,,,,107,001,2023_May_25_1708,SpeechDraft1Carolyn_lessNoise_PlusLocalization,2021.2.3,59.99012418504382,
,,,,,,,,midLeft,-13.0,2,ch1Sound_localizationTask.wav,-13.0,"(762, 878)","(-198,-202)",-190,-338,,,,,,,,,6,2,44,1,,,,,,,,,,,,,,,,,,,,,,,,,,,,,,,,,,,,,,,,,,,,736.5550222249876,None,737.6549637069984,None,738.5882451279904,None,1.356084656084656,0.8013271309901029,738.5882451279904,None,,,,,,,,,,,,,,,,,107,001,2023_May_25_1708,SpeechDraft1Carolyn_lessNoise_PlusLocalization,2021.2.3,59.99012418504382,
,,,,,,,,farLeft,-19.1,5,ch1Sound_localizationTask.wav,-19.1,"(667, 878)","(-293,-202)",-285,-338,,,,,,,,,6,3,45,0,,,,,,,,,,,,,,,,,,,,,,,,,,,,,,,,,,,,,,,,,,,,739.405069897999,None,740.504728853004,None,741.4382570879825,None,1.4354497354497355,0.46476807398721576,741.4382570879825,None,,,,,,,,,,,,,,,,,107,001,2023_May_25_1708,SpeechDraft1Carolyn_lessNoise_PlusLocalization,2021.2.3,59.99012418504382,
,,,,,,,,midLeft,-13.0,2,ch1Sound_localizationTask.wav,-13.0,"(762, 878)","(-198,-202)",-190,-338,,,,,,,,,6,4,46,1,,,,,,,,,,,,,,,,,,,,,,,,,,,,,,,,,,,,,,,,,,,,741.9061403030064,None,743.0050650659832,None,743.9382268140034,None,1.4407407407407407,0.6828811560117174,743.9382268140034,None,,,,,,,,,,,,,,,,,107,001,2023_May_25_1708,SpeechDraft1Carolyn_lessNoise_PlusLocalization,2021.2.3,59.99012418504382,
,,,,,,,,nearRight,6.5,0,ch1Sound_localizationTask.wav,6.5,"(1047, 878)","(87, -202)",95,-338,,,,,,,,,6,5,47,4,,,,,,,,,,,,,,,,,,,,,,,,,,,,,,,,,,,,,,,,,,,,744.638323163992,None,745.738245924993,None,746.6716059309838,None,1.4597883597883599,0.68223182100337,746.6716059309838,None,,,,,,,,,,,,,,,,,107,001,2023_May_25_1708,SpeechDraft1Carolyn_lessNoise_PlusLocalization,2021.2.3,59.99012418504382,
,,,,,,,,nearLeft,-6.5,1,ch1Sound_localizationTask.wav,-6.5,"(857, 878)","(-103,-202)",-95,-338,,,,,,,,,6,6,48,2,,,,,,,,,,,,,,,,,,,,,,,,,,,,,,,,,,,,,,,,,,,,747.3558080799994,None,748.4550397559942,None,749.388178994006,None,1.5306878306878307,0.9176838349958416,749.388178994006,None,,,,,,,,,,,,,,,,,107,001,2023_May_25_1708,SpeechDraft1Carolyn_lessNoise_PlusLocalization,2021.2.3,59.99012418504382,
,,,,,,,,nearLeft,-6.5,1,ch1Sound_localizationTask.wav,-6.5,"(857, 878)","(-103,-202)",-95,-338,,,,,,,,,7,0,49,2,,,,,,,,,,,,,,,,,,,,,,,,,,,,,,,,,,,,,,,,,,,,750.3219548519992,None,751.4214701149904,None,752.354990664986,None,1.4867724867724867,0.49901749001583084,752.354990664986,None,,,,,,,,,,,,,,,,,107,001,2023_May_25_1708,SpeechDraft1Carolyn_lessNoise_PlusLocalization,2021.2.3,59.99012418504382,
,,,,,,,,farRight,19.1,4,ch1Sound_localizationTask.wav,19.1,"(1237, 878)","(277,-202)",285,-338,,,,,,,,,7,1,50,6,,,,,,,,,,,,,,,,,,,,,,,,,,,,,,,,,,,,,,,,,,,,752.8718552349892,None,753.9715211649891,None,754.9048282300064,None,1.6714285714285715,0.31616508500883356,754.9048282300064,None,,,,,,,,,,,,,,,,,107,001,2023_May_25_1708,SpeechDraft1Carolyn_lessNoise_PlusLocalization,2021.2.3,59.99012418504382,
,,,,,,,,nearLeft,-6.5,1,ch1Sound_localizationTask.wav,-6.5,"(857, 878)","(-103,-202)",-95,-338,,,,,,,,,7,2,51,2,,,,,,,,,,,,,,,,,,,,,,,,,,,,,,,,,,,,,,,,,,,,755.2384228130104,None,756.3383496729948,None,757.2716989699984,None,1.3544973544973544,0.46585286100162193,757.2716989699984,None,,,,,,,,,,,,,,,,,107,001,2023_May_25_1708,SpeechDraft1Carolyn_lessNoise_PlusLocalization,2021.2.3,59.99012418504382,
,,,,,,,,center,0.0,6,ch1Sound_localizationTask.wav,0.0,"(952, 878)","(-8,-202)",0,-338,,,,,,,,,7,3,52,3,,,,,,,,,,,,,,,,,,,,,,,,,,,,,,,,,,,,,,,,,,,,757.7552078639856,None,758.8549236319959,None,759.788166807004,None,1.4984126984126984,0.3824231089965906,759.788166807004,None,,,,,,,,,,,,,,,,,107,001,2023_May_25_1708,SpeechDraft1Carolyn_lessNoise_PlusLocalization,2021.2.3,59.99012418504382,
,,,,,,,,center,0.0,6,ch1Sound_localizationTask.wav,0.0,"(952, 878)","(-8,-202)",0,-338,,,,,,,,,7,4,53,3,,,,,,,,,,,,,,,,,,,,,,,,,,,,,,,,,,,,,,,,,,,,760.1884095990099,None,761.2882364300021,None,762.2216744970065,None,1.2513227513227514,0.14993322198279202,762.2216744970065,None,,,,,,,,,,,,,,,,,107,001,2023_May_25_1708,SpeechDraft1Carolyn_lessNoise_PlusLocalization,2021.2.3,59.99012418504382,
,,,,,,,,midRight,13.0,3,ch1Sound_localizationTask.wav,13.0,"(1142, 878)","(182, -202)",190,-338,,,,,,,,,7,5,54,5,,,,,,,,,,,,,,,,,,,,,,,,,,,,,,,,,,,,,,,,,,,,762.3886515419872,None,763.4883916499966,None,764.4216112809954,None,1.4915343915343915,0.08333596400916576,764.4216112809954,None,,,,,,,,,,,,,,,,,107,001,2023_May_25_1708,SpeechDraft1Carolyn_lessNoise_PlusLocalization,2021.2.3,59.99012418504382,
,,,,,,,,farLeft,-19.1,5,ch1Sound_localizationTask.wav,-19.1,"(667, 878)","(-293,-202)",-285,-338,,,,,,,,,7,6,55,0,,,,,,,,,,,,,,,,,,,,,,,,,,,,,,,,,,,,,,,,,,,,764.5218371369992,None,765.6216252559971,None,766.5549481950002,None,1.4915343915343915,0.14903048501582816,766.5549481950002,None,,,,,,,,,,,,,,,,,107,001,2023_May_25_1708,SpeechDraft1Carolyn_lessNoise_PlusLocalization,2021.2.3,59.99012418504382,
,,,,,,,,,,,,,,,,,,,,,,,,,,,,,,,,,,,,,,,,,,,,,,,,,,,,,,,,,,,,,,,,,,,,,,,,,,,,,,,,,,space,5.815733123978134,766.8050692539837,None,,,,,,,,,,,,,107,001,2023_May_25_1708,SpeechDraft1Carolyn_lessNoise_PlusLocalization,2021.2.3,59.99012418504382,
,,,,,,,,midRight,13.0,3,ch1Sound_localizationTask.wav,13.0,"(1142, 878)","(182, -202)",190,-338,,,,,,,,,,,,,0,0,0,5,,,,,,,,,,,,,,,,,,,,,,,,,,,,,,,,,,,,,,,,772.6549620470032,None,,,775.6882733129896,None,1.5497354497354499,0.37049520399887115,775.6882733129896,None,,,,,766.8050692539837,None,773.6551668949833,None,773.8383333369857,773.8551345150045,,,,,,,107,001,2023_May_25_1708,SpeechDraft1Carolyn_lessNoise_PlusLocalization,2021.2.3,59.99012418504382,
,,,,,,,,farLeft,-19.1,5,ch1Sound_localizationTask.wav,-19.1,"(667, 878)","(-293,-202)",-285,-338,,,,,,,,,,,,,0,1,1,0,,,,,,,,,,,,,,,,,,,,,,,,,,,,,,,,,,,,,,,,776.0718109289883,None,,,779.0883309039928,None,1.4015873015873015,0.1655993719759863,779.0883309039928,None,,,,,,,777.0716061340063,None,777.2550425019872,777.2717757349892,,,,,,,107,001,2023_May_25_1708,SpeechDraft1Carolyn_lessNoise_PlusLocalization,2021.2.3,59.99012418504382,
,,,,,,,,nearLeft,-6.5,1,ch1Sound_localizationTask.wav,-6.5,"(857, 878)","(-103,-202)",-95,-338,,,,,,,,,,,,,0,2,2,2,,,,,,,,,,,,,,,,,,,,,,,,,,,,,,,,,,,,,,,,779.2576450159831,None,,,782.2881295059924,None,1.5211640211640212,0.08215085198753513,782.2881295059924,None,,,,,,,780.2717715659819,None,780.4551649749919,780.471688716003,,,,,,,107,001,2023_May_25_1708,SpeechDraft1Carolyn_lessNoise_PlusLocalization,2021.2.3,59.99012418504382,
,,,,,,,,midLeft,-13.0,2,ch1Sound_localizationTask.wav,-13.0,"(762, 878)","(-198,-202)",-190,-338,,,,,,,,,,,,,0,3,3,1,,,,,,,,,,,,,,,,,,,,,,,,,,,,,,,,,,,,,,,,782.3721427209966,None,,,785.3882338370022,None,1.2904761904761906,0.09891082099056803,785.3882338370022,None,,,,,,,783.3718436819909,None,783.5549665779981,783.5716557929991,,,,,,,107,001,2023_May_25_1708,SpeechDraft1Carolyn_lessNoise_PlusLocalization,2021.2.3,59.99012418504382,
,,,,,,,,farRight,19.1,4,ch1Sound_localizationTask.wav,19.1,"(1237, 878)","(277,-202)",285,-338,,,,,,,,,,,,,0,4,4,6,,,,,,,,,,,,,,,,,,,,,,,,,,,,,,,,,,,,,,,,785.4889787469874,None,,,788.5048435879871,None,1.552910052910053,0.7486288520158269,788.5048435879871,None,,,,,,,786.488450675999,None,786.6716685899883,786.6884464969917,,,,,,,107,001,2023_May_25_1708,SpeechDraft1Carolyn_lessNoise_PlusLocalization,2021.2.3,59.99012418504382,
,,,,,,,,farRight,19.1,4,ch1Sound_localizationTask.wav,19.1,"(1237, 878)","(277,-202)",285,-338,,,,,,,,,,,,,0,5,5,6,,,,,,,,,,,,,,,,,,,,,,,,,,,,,,,,,,,,,,,,789.2717987140059,None,,,792.2882493700017,None,1.6391534391534393,0.5169039700122084,792.2882493700017,None,,,,,,,790.2718793090025,None,790.4551380430057,790.4717255909927,,,,,,,107,001,2023_May_25_1708,SpeechDraft1Carolyn_lessNoise_PlusLocalization,2021.2.3,59.99012418504382,
,,,,,,,,nearLeft,-6.5,1,ch1Sound_localizationTask.wav,-6.5,"(857, 878)","(-103,-202)",-95,-338,,,,,,,,,,,,,0,6,6,2,,,,,,,,,,,,,,,,,,,,,,,,,,,,,,,,,,,,,,,,792.8219381590025,None,,,795.8383322379959,None,1.4248677248677248,0.6990334879956208,795.8383322379959,None,,,,,,,793.8218746650091,None,794.0050800879835,794.021749699983,,,,,,,107,001,2023_May_25_1708,SpeechDraft1Carolyn_lessNoise_PlusLocalization,2021.2.3,59.99012418504382,
,,,,,,,,midRight,13.0,3,ch1Sound_localizationTask.wav,13.0,"(1142, 878)","(182, -202)",190,-338,,,,,,,,,,,,,1,0,7,5,,,,,,,,,,,,,,,,,,,,,,,,,,,,,,,,,,,,,,,,796.539618232986,None,,,799.5715540419915,None,1.6063492063492064,0.7659274449979421,799.5715540419915,None,,,,,,,797.5550087080046,None,797.7385441799997,797.7550909569836,,,,,,,107,001,2023_May_25_1708,SpeechDraft1Carolyn_lessNoise_PlusLocalization,2021.2.3,59.99012418504382,
,,,,,,,,farLeft,-19.1,5,ch1Sound_localizationTask.wav,-19.1,"(667, 878)","(-293,-202)",-285,-338,,,,,,,,,,,,,1,1,8,0,,,,,,,,,,,,,,,,,,,,,,,,,,,,,,,,,,,,,,,,800.3553155990085,None,,,803.3716060089937,None,1.3306878306878307,0.19861759201739915,803.3716060089937,None,,,,,,,801.3551677929936,None,801.5385119109997,801.5552051569975,,,,,,,107,001,2023_May_25_1708,SpeechDraft1Carolyn_lessNoise_PlusLocalization,2021.2.3,59.99012418504382,
,,,,,,,,nearRight,6.5,0,ch1Sound_localizationTask.wav,6.5,"(1047, 878)","(87, -202)",95,-338,,,,,,,,,,,,,1,2,9,4,,,,,,,,,,,,,,,,,,,,,,,,,,,,,,,,,,,,,,,,803.572638254991,None,,,806.5882351809996,None,1.5433862433862435,0.3655507799994666,806.5882351809996,None,,,,,,,804.5717209450086,None,804.7551038670063,804.7718178560026,,,,,,,107,001,2023_May_25_1708,SpeechDraft1Carolyn_lessNoise_PlusLocalization,2021.2.3,59.99012418504382,
,,,,,,,,farRight,19.1,4,ch1Sound_localizationTask.wav,19.1,"(1237, 878)","(277,-202)",285,-338,,,,,,,,,,,,,1,3,10,6,,,,,,,,,,,,,,,,,,,,,,,,,,,,,,,,,,,,,,,,806.9559064859932,None,,,809.971683449985,None,1.7264550264550265,0.6657438130059745,809.971683449985,None,,,,,,,807.9552407409938,None,808.1384884599829,808.1551248279866,,,,,,,107,001,2023_May_25_1708,SpeechDraft1Carolyn_lessNoise_PlusLocalization,2021.2.3,59.99012418504382,
,,,,,,,,midRight,13.0,3,ch1Sound_localizationTask.wav,13.0,"(1142, 878)","(182, -202)",190,-338,,,,,,,,,,,,,1,4,11,5,,,,,,,,,,,,,,,,,,,,,,,,,,,,,,,,,,,,,,,,810.6549443370022,None,,,813.6716032350087,None,1.5989417989417989,0.4487343830114696,813.6716032350087,None,,,,,,,811.6551595499914,None,811.8383993979951,811.8552153900091,,,,,,,107,001,2023_May_25_1708,SpeechDraft1Carolyn_lessNoise_PlusLocalization,2021.2.3,59.99012418504382,
,,,,,,,,farLeft,-19.1,5,ch1Sound_localizationTask.wav,-19.1,"(667, 878)","(-293,-202)",-285,-338,,,,,,,,,,,,,1,5,12,0,,,,,,,,,,,,,,,,,,,,,,,,,,,,,,,,,,,,,,,,814.1229318889964,None,,,817.1550515069976,None,1.3502645502645503,1.3325868929969147,817.1550515069976,None,,,,,,,815.1384407349979,None,815.321901844989,815.3384156439861,,,,,,,107,001,2023_May_25_1708,SpeechDraft1Carolyn_lessNoise_PlusLocalization,2021.2.3,59.99012418504382,
,,,,,,,,center,0.0,6,ch1Sound_localizationTask.wav,0.0,"(952, 878)","(-8,-202)",0,-338,,,,,,,,,,,,,1,6,13,3,,,,,,,,,,,,,,,,,,,,,,,,,,,,,,,,,,,,,,,,818.4892400880053,None,,,821.5049107550003,None,1.491005291005291,0.46589087101165205,821.5049107550003,None,,,,,,,819.4885715529963,None,819.6717828999972,819.688492583984,,,,,,,107,001,2023_May_25_1708,SpeechDraft1Carolyn_lessNoise_PlusLocalization,2021.2.3,59.99012418504382,
,,,,,,,,farRight,19.1,4,ch1Sound_localizationTask.wav,19.1,"(1237, 878)","(277,-202)",285,-338,,,,,,,,,,,,,2,0,14,6,,,,,,,,,,,,,,,,,,,,,,,,,,,,,,,,,,,,,,,,821.9723732059938,None,,,824.9883829099999,None,1.646031746031746,0.6321273119829129,824.9883829099999,None,,,,,,,822.971927645005,None,823.1551419399912,823.1719070859835,,,,,,,107,001,2023_May_25_1708,SpeechDraft1Carolyn_lessNoise_PlusLocalization,2021.2.3,59.99012418504382,
,,,,,,,,center,0.0,6,ch1Sound_localizationTask.wav,0.0,"(952, 878)","(-8,-202)",0,-338,,,,,,,,,,,,,2,1,15,3,,,,,,,,,,,,,,,,,,,,,,,,,,,,,,,,,,,,,,,,825.6232405059854,None,,,828.6550031479856,None,1.5534391534391534,0.6180293060024269,828.6550031479856,None,,,,,,,826.6386961030075,None,826.821783619991,826.8383860519971,,,,,,,107,001,2023_May_25_1708,SpeechDraft1Carolyn_lessNoise_PlusLocalization,2021.2.3,59.99012418504382,
,,,,,,,,nearLeft,-6.5,1,ch1Sound_localizationTask.wav,-6.5,"(857, 878)","(-103,-202)",-95,-338,,,,,,,,,,,,,2,2,16,2,,,,,,,,,,,,,,,,,,,,,,,,,,,,,,,,,,,,,,,,829.2885634539998,None,,,832.3051138540031,None,1.384126984126984,1.3662391449906863,832.3051138540031,None,,,,,,,830.2885451589827,None,830.4718122349877,830.488552544004,,,,,,,107,001,2023_May_25_1708,SpeechDraft1Carolyn_lessNoise_PlusLocalization,2021.2.3,59.99012418504382,
,,,,,,,,nearLeft,-6.5,1,ch1Sound_localizationTask.wav,-6.5,"(857, 878)","(-103,-202)",-95,-338,,,,,,,,,,,,,2,3,17,2,,,,,,,,,,,,,,,,,,,,,,,,,,,,,,,,,,,,,,,,833.6885670479969,None,,,836.7050128729898,None,1.4894179894179893,0.28338888799771667,836.7050128729898,None,,,,,,,834.6886324039951,None,834.8719899219868,834.8885782599973,,,,,,,107,001,2023_May_25_1708,SpeechDraft1Carolyn_lessNoise_PlusLocalization,2021.2.3,59.99012418504382,
,,,,,,,,farRight,19.1,4,ch1Sound_localizationTask.wav,19.1,"(1237, 878)","(277,-202)",285,-338,,,,,,,,,,,,,2,4,18,6,,,,,,,,,,,,,,,,,,,,,,,,,,,,,,,,,,,,,,,,837.0054098629917,None,,,840.0217145670031,None,1.6433862433862434,0.6983821650210302,840.0217145670031,None,,,,,,,838.0052383790025,None,838.188528047991,838.2054098189983,,,,,,,107,001,2023_May_25_1708,SpeechDraft1Carolyn_lessNoise_PlusLocalization,2021.2.3,59.99012418504382,
,,,,,,,,nearRight,6.5,0,ch1Sound_localizationTask.wav,6.5,"(1047, 878)","(87, -202)",95,-338,,,,,,,,,,,,,2,5,19,4,,,,,,,,,,,,,,,,,,,,,,,,,,,,,,,,,,,,,,,,840.7228969410062,None,,,843.7383730139991,None,1.5560846560846562,0.6500059530080762,843.7383730139991,None,,,,,,,841.7218666889821,None,841.9053513839899,841.9219121589849,,,,,,,107,001,2023_May_25_1708,SpeechDraft1Carolyn_lessNoise_PlusLocalization,2021.2.3,59.99012418504382,
,,,,,,,,center,0.0,6,ch1Sound_localizationTask.wav,0.0,"(952, 878)","(-8,-202)",0,-338,,,,,,,,,,,,,2,6,20,3,,,,,,,,,,,,,,,,,,,,,,,,,,,,,,,,,,,,,,,,844.4052693739941,None,,,847.4217461649969,None,1.4968253968253968,0.6827182119886857,847.4217461649969,None,,,,,,,845.4052443699911,None,845.5886981530057,845.6052264850005,,,,,,,107,001,2023_May_25_1708,SpeechDraft1Carolyn_lessNoise_PlusLocalization,2021.2.3,59.99012418504382,
,,,,,,,,center,0.0,6,ch1Sound_localizationTask.wav,0.0,"(952, 878)","(-8,-202)",0,-338,,,,,,,,,,,,,3,0,21,3,,,,,,,,,,,,,,,,,,,,,,,,,,,,,,,,,,,,,,,,848.1219075779954,None,,,851.1385239119991,None,1.5153439153439154,0.6673666549904738,851.1385239119991,None,,,,,,,849.1220363249886,None,849.3052520570054,849.3219691429986,,,,,,,107,001,2023_May_25_1708,SpeechDraft1Carolyn_lessNoise_PlusLocalization,2021.2.3,59.99012418504382,
,,,,,,,,center,0.0,6,ch1Sound_localizationTask.wav,0.0,"(952, 878)","(-8,-202)",0,-338,,,,,,,,,,,,,3,1,22,3,,,,,,,,,,,,,,,,,,,,,,,,,,,,,,,,,,,,,,,,851.8220530379913,None,,,854.8383387429931,None,1.480952380952381,0.2157415540132206,854.8383387429931,None,,,,,,,852.8218340179883,None,853.0052988239913,853.0219307249936,,,,,,,107,001,2023_May_25_1708,SpeechDraft1Carolyn_lessNoise_PlusLocalization,2021.2.3,59.99012418504382,
,,,,,,,,nearRight,6.5,0,ch1Sound_localizationTask.wav,6.5,"(1047, 878)","(87, -202)",95,-338,,,,,,,,,,,,,3,2,23,4,,,,,,,,,,,,,,,,,,,,,,,,,,,,,,,,,,,,,,,,855.0561578779889,None,,,858.0715820339974,None,1.5698412698412698,0.5825260450073984,858.0715820339974,None,,,,,,,856.0552988559939,None,856.2386348459986,856.2552910439845,,,,,,,107,001,2023_May_25_1708,SpeechDraft1Carolyn_lessNoise_PlusLocalization,2021.2.3,59.99012418504382,
,,,,,,,,midRight,13.0,3,ch1Sound_localizationTask.wav,13.0,"(1142, 878)","(182, -202)",190,-338,,,,,,,,,,,,,3,3,24,5,,,,,,,,,,,,,,,,,,,,,,,,,,,,,,,,,,,,,,,,858.6720144170104,None,,,861.6884015020041,None,1.5603174603174603,0.5820075389929116,861.6884015020041,None,,,,,,,859.6719519709877,None,859.8552046469995,859.8718342549982,,,,,,,107,001,2023_May_25_1708,SpeechDraft1Carolyn_lessNoise_PlusLocalization,2021.2.3,59.99012418504382,
,,,,,,,,farRight,19.1,4,ch1Sound_localizationTask.wav,19.1,"(1237, 878)","(277,-202)",285,-338,,,,,,,,,,,,,3,4,25,6,,,,,,,,,,,,,,,,,,,,,,,,,,,,,,,,,,,,,,,,862.2886047909851,None,,,865.3049753719824,None,1.6375661375661377,0.6818671030050609,865.3049753719824,None,,,,,,,863.2885998740094,None,863.4717850429879,863.4884751809877,,,,,,,107,001,2023_May_25_1708,SpeechDraft1Carolyn_lessNoise_PlusLocalization,2021.2.3,59.99012418504382,
,,,,,,,,midLeft,-13.0,2,ch1Sound_localizationTask.wav,-13.0,"(762, 878)","(-198,-202)",-190,-338,,,,,,,,,,,,,3,5,26,1,,,,,,,,,,,,,,,,,,,,,,,,,,,,,,,,,,,,,,,,865.9894914120086,None,,,869.0051715069858,None,1.6597883597883598,1.0318557900027372,869.0051715069858,None,,,,,,,866.9885361120105,None,867.1719171300065,867.1887340210087,,,,,,,107,001,2023_May_25_1708,SpeechDraft1Carolyn_lessNoise_PlusLocalization,2021.2.3,59.99012418504382,
,,,,,,,,midRight,13.0,3,ch1Sound_localizationTask.wav,13.0,"(1142, 878)","(182, -202)",190,-338,,,,,,,,,,,,,3,6,27,5,,,,,,,,,,,,,,,,,,,,,,,,,,,,,,,,,,,,,,,,870.0398823680007,None,,,873.0717947320081,None,1.585185185185185,0.6485608379880432,873.0717947320081,None,,,,,,,871.0552699129912,None,871.2386859429826,871.2553814259882,,,,,,,107,001,2023_May_25_1708,SpeechDraft1Carolyn_lessNoise_PlusLocalization,2021.2.3,59.99012418504382,
,,,,,,,,farRight,19.1,4,ch1Sound_localizationTask.wav,19.1,"(1237, 878)","(277,-202)",285,-338,,,,,,,,,,,,,4,0,28,6,,,,,,,,,,,,,,,,,,,,,,,,,,,,,,,,,,,,,,,,873.7228098250052,None,,,876.7386548180075,None,1.6407407407407408,0.49900374401477166,876.7386548180075,None,,,,,,,874.7220131960057,None,874.9052362790098,874.9220007699914,,,,,,,107,001,2023_May_25_1708,SpeechDraft1Carolyn_lessNoise_PlusLocalization,2021.2.3,59.99012418504382,
,,,,,,,,midRight,13.0,3,ch1Sound_localizationTask.wav,13.0,"(1142, 878)","(182, -202)",190,-338,,,,,,,,,,,,,4,1,29,5,,,,,,,,,,,,,,,,,,,,,,,,,,,,,,,,,,,,,,,,877.2395327709964,None,,,880.2718339239946,None,1.5105820105820107,2.632375793007668,880.2718339239946,None,,,,,,,878.2552174610028,None,878.4386647260108,878.4552846179868,,,,,,,107,001,2023_May_25_1708,SpeechDraft1Carolyn_lessNoise_PlusLocalization,2021.2.3,59.99012418504382,
,,,,,,,,midLeft,-13.0,2,ch1Sound_localizationTask.wav,-13.0,"(762, 878)","(-198,-202)",-190,-338,,,,,,,,,,,,,4,2,30,1,,,,,,,,,,,,,,,,,,,,,,,,,,,,,,,,,,,,,,,,882.9220430649875,None,,,885.9384828679904,None,1.4994708994708994,1.0504574899969157,885.9384828679904,None,,,,,,,883.922067328007,None,884.1053294290032,884.1220618539955,,,,,,,107,001,2023_May_25_1708,SpeechDraft1Carolyn_lessNoise_PlusLocalization,2021.2.3,59.99012418504382,
,,,,,,,,farRight,19.1,4,ch1Sound_localizationTask.wav,19.1,"(1237, 878)","(277,-202)",285,-338,,,,,,,,,,,,,4,3,31,6,,,,,,,,,,,,,,,,,,,,,,,,,,,,,,,,,,,,,,,,887.0052878829883,None,,,890.0217884680023,None,1.6068783068783068,0.050586997997015715,890.0217884680023,None,,,,,,,888.005212707998,None,888.1885342409951,888.2053271209879,,,,,,,107,001,2023_May_25_1708,SpeechDraft1Carolyn_lessNoise_PlusLocalization,2021.2.3,59.99012418504382,
,,,,,,,,midRight,13.0,3,ch1Sound_localizationTask.wav,13.0,"(1142, 878)","(182, -202)",190,-338,,,,,,,,,,,,,4,4,32,5,,,,,,,,,,,,,,,,,,,,,,,,,,,,,,,,,,,,,,,,890.0887687759823,None,,,893.1050240129989,None,1.580952380952381,0.10052984399953857,893.1050240129989,None,,,,,,,891.0885515830014,None,891.2719818830083,891.2885415939963,,,,,,,107,001,2023_May_25_1708,SpeechDraft1Carolyn_lessNoise_PlusLocalization,2021.2.3,59.99012418504382,
,,,,,,,,midLeft,-13.0,2,ch1Sound_localizationTask.wav,-13.0,"(762, 878)","(-198,-202)",-190,-338,,,,,,,,,,,,,4,5,33,1,,,,,,,,,,,,,,,,,,,,,,,,,,,,,,,,,,,,,,,,893.2219515949837,None,,,896.2383089159848,None,1.343915343915344,0.08230903799994849,896.2383089159848,None,,,,,,,894.2219503969827,None,894.4053243329981,894.4218880349945,,,,,,,107,001,2023_May_25_1708,SpeechDraft1Carolyn_lessNoise_PlusLocalization,2021.2.3,59.99012418504382,
,,,,,,,,farLeft,-19.1,5,ch1Sound_localizationTask.wav,-19.1,"(667, 878)","(-293,-202)",-285,-338,,,,,,,,,,,,,4,6,34,0,,,,,,,,,,,,,,,,,,,,,,,,,,,,,,,,,,,,,,,,896.3386966059916,None,,,899.3549661430006,None,1.3529100529100528,0.09897235000971705,899.3549661430006,None,,,,,,,897.3385282100062,None,897.522099809983,897.5385283409851,,,,,,,107,001,2023_May_25_1708,SpeechDraft1Carolyn_lessNoise_PlusLocalization,2021.2.3,59.99012418504382,
,,,,,,,,midLeft,-13.0,2,ch1Sound_localizationTask.wav,-13.0,"(762, 878)","(-198,-202)",-190,-338,,,,,,,,,,,,,5,0,35,1,,,,,,,,,,,,,,,,,,,,,,,,,,,,,,,,,,,,,,,,899.4719173430058,None,,,902.4884183740069,None,1.4216931216931217,0.4005326649930794,902.4884183740069,None,,,,,,,900.4718395200034,None,900.6551465879893,900.6719270100002,,,,,,,107,001,2023_May_25_1708,SpeechDraft1Carolyn_lessNoise_PlusLocalization,2021.2.3,59.99012418504382,
,,,,,,,,midLeft,-13.0,2,ch1Sound_localizationTask.wav,-13.0,"(762, 878)","(-198,-202)",-190,-338,,,,,,,,,,,,,5,1,36,1,,,,,,,,,,,,,,,,,,,,,,,,,,,,,,,,,,,,,,,,902.9051320499857,None,,,905.921986086003,None,1.3994708994708995,0.08270982099929824,905.921986086003,None,,,,,,,903.9052091880003,None,904.0884665479825,904.1051702539844,,,,,,,107,001,2023_May_25_1708,SpeechDraft1Carolyn_lessNoise_PlusLocalization,2021.2.3,59.99012418504382,
,,,,,,,,nearRight,6.5,0,ch1Sound_localizationTask.wav,6.5,"(1047, 878)","(87, -202)",95,-338,,,,,,,,,,,,,5,2,37,4,,,,,,,,,,,,,,,,,,,,,,,,,,,,,,,,,,,,,,,,906.022064299992,None,,,909.0385942529829,None,1.5116402116402117,0.33143505500629544,909.0385942529829,None,,,,,,,907.0220177499868,None,907.2052236539894,907.2220259559981,,,,,,,107,001,2023_May_25_1708,SpeechDraft1Carolyn_lessNoise_PlusLocalization,2021.2.3,59.99012418504382,
,,,,,,,,nearLeft,-6.5,1,ch1Sound_localizationTask.wav,-6.5,"(857, 878)","(-103,-202)",-95,-338,,,,,,,,,,,,,5,3,38,2,,,,,,,,,,,,,,,,,,,,,,,,,,,,,,,,,,,,,,,,909.373535731982,None,,,912.4051387329819,None,1.4677248677248678,0.03265646897489205,912.4051387329819,None,,,,,,,910.3886673509842,None,910.5720194909954,910.5886496079911,,,,,,,107,001,2023_May_25_1708,SpeechDraft1Carolyn_lessNoise_PlusLocalization,2021.2.3,59.99012418504382,
,,,,,,,,center,0.0,6,ch1Sound_localizationTask.wav,0.0,"(952, 878)","(-8,-202)",0,-338,,,,,,,,,,,,,5,4,39,3,,,,,,,,,,,,,,,,,,,,,,,,,,,,,,,,,,,,,,,,912.4552792400063,None,,,915.4717302680074,None,1.4873015873015873,0.03201260100468062,915.4717302680074,None,,,,,,,913.4552745189867,None,913.6385583709925,913.6553598410101,,,,,,,107,001,2023_May_25_1708,SpeechDraft1Carolyn_lessNoise_PlusLocalization,2021.2.3,59.99012418504382,
,,,,,,,,nearLeft,-6.5,1,ch1Sound_localizationTask.wav,-6.5,"(857, 878)","(-103,-202)",-95,-338,,,,,,,,,,,,,5,5,40,2,,,,,,,,,,,,,,,,,,,,,,,,,,,,,,,,,,,,,,,,915.5060575820098,None,,,918.5216659480066,None,1.4788359788359788,0.11599537302390672,918.5216659480066,None,,,,,,,916.5052546100051,None,916.6886636700074,916.7053190080042,,,,,,,107,001,2023_May_25_1708,SpeechDraft1Carolyn_lessNoise_PlusLocalization,2021.2.3,59.99012418504382,
,,,,,,,,nearLeft,-6.5,1,ch1Sound_localizationTask.wav,-6.5,"(857, 878)","(-103,-202)",-95,-338,,,,,,,,,,,,,5,6,41,2,,,,,,,,,,,,,,,,,,,,,,,,,,,,,,,,,,,,,,,,918.6553583809873,None,,,921.6716837679851,None,1.4465608465608466,0.8162218299985398,921.6716837679851,None,,,,,,,919.6552484069834,None,919.8386096989852,919.8553092980001,,,,,,,107,001,2023_May_25_1708,SpeechDraft1Carolyn_lessNoise_PlusLocalization,2021.2.3,59.99012418504382,
,,,,,,,,nearRight,6.5,0,ch1Sound_localizationTask.wav,6.5,"(1047, 878)","(87, -202)",95,-338,,,,,,,,,,,,,6,0,42,4,,,,,,,,,,,,,,,,,,,,,,,,,,,,,,,,,,,,,,,,922.5054949790065,None,,,925.5219028310094,None,1.5195767195767196,0.03240529200411402,925.5219028310094,None,,,,,,,923.5054705649964,None,923.6887419249979,923.7054150649928,,,,,,,107,001,2023_May_25_1708,SpeechDraft1Carolyn_lessNoise_PlusLocalization,2021.2.3,59.99012418504382,
,,,,,,,,nearLeft,-6.5,1,ch1Sound_localizationTask.wav,-6.5,"(857, 878)","(-103,-202)",-95,-338,,,,,,,,,,,,,6,1,43,2,,,,,,,,,,,,,,,,,,,,,,,,,,,,,,,,,,,,,,,,925.5562822920037,None,,,928.5717625399993,None,1.4894179894179893,0.8655339670076501,928.5717625399993,None,,,,,,,926.5553849439893,None,926.7387573239976,926.7553070650029,,,,,,,107,001,2023_May_25_1708,SpeechDraft1Carolyn_lessNoise_PlusLocalization,2021.2.3,59.99012418504382,
,,,,,,,,nearRight,6.5,0,ch1Sound_localizationTask.wav,6.5,"(1047, 878)","(87, -202)",95,-338,,,,,,,,,,,,,6,2,44,4,,,,,,,,,,,,,,,,,,,,,,,,,,,,,,,,,,,,,,,,929.4554996129882,None,,,932.471758893982,None,1.5365079365079364,0.1660891129868105,932.471758893982,None,,,,,,,930.4552380940004,None,930.6387055699888,930.6553469609935,,,,,,,107,001,2023_May_25_1708,SpeechDraft1Carolyn_lessNoise_PlusLocalization,2021.2.3,59.99012418504382,
,,,,,,,,center,0.0,6,ch1Sound_localizationTask.wav,0.0,"(952, 878)","(-8,-202)",0,-338,,,,,,,,,,,,,6,3,45,3,,,,,,,,,,,,,,,,,,,,,,,,,,,,,,,,,,,,,,,,932.6552433059842,None,,,935.6716700920078,None,1.505820105820106,0.03212331800023094,935.6716700920078,None,,,,,,,933.6554908620019,None,933.8388570210082,933.855490263988,,,,,,,107,001,2023_May_25_1708,SpeechDraft1Carolyn_lessNoise_PlusLocalization,2021.2.3,59.99012418504382,
,,,,,,,,nearRight,6.5,0,ch1Sound_localizationTask.wav,6.5,"(1047, 878)","(87, -202)",95,-338,,,,,,,,,,,,,6,4,46,4,,,,,,,,,,,,,,,,,,,,,,,,,,,,,,,,,,,,,,,,935.7219836330041,None,,,938.7384678479866,None,1.5296296296296297,0.08188692797557451,938.7384678479866,None,,,,,,,936.7221449619974,None,936.9054538790078,936.9220302989997,,,,,,,107,001,2023_May_25_1708,SpeechDraft1Carolyn_lessNoise_PlusLocalization,2021.2.3,59.99012418504382,
,,,,,,,,center,0.0,6,ch1Sound_localizationTask.wav,0.0,"(952, 878)","(-8,-202)",0,-338,,,,,,,,,,,,,6,5,47,3,,,,,,,,,,,,,,,,,,,,,,,,,,,,,,,,,,,,,,,,938.8388518379943,None,,,941.8550796399941,None,1.511111111111111,0.199306846014224,941.8550796399941,None,,,,,,,939.8386916590098,None,940.0219603719888,940.0387491319852,,,,,,,107,001,2023_May_25_1708,SpeechDraft1Carolyn_lessNoise_PlusLocalization,2021.2.3,59.99012418504382,
,,,,,,,,midLeft,-13.0,2,ch1Sound_localizationTask.wav,-13.0,"(762, 878)","(-198,-202)",-190,-338,,,,,,,,,,,,,6,6,48,1,,,,,,,,,,,,,,,,,,,,,,,,,,,,,,,,,,,,,,,,942.0719693439896,None,,,945.088584623998,None,1.4497354497354498,0.2487445219885558,945.088584623998,None,,,,,,,943.0719608479994,None,943.2553006009839,943.2719372609863,,,,,,,107,001,2023_May_25_1708,SpeechDraft1Carolyn_lessNoise_PlusLocalization,2021.2.3,59.99012418504382,
,,,,,,,,midLeft,-13.0,2,ch1Sound_localizationTask.wav,-13.0,"(762, 878)","(-198,-202)",-190,-338,,,,,,,,,,,,,7,0,49,1,,,,,,,,,,,,,,,,,,,,,,,,,,,,,,,,,,,,,,,,945.3553218909947,None,,,948.3719084050099,None,1.439153439153439,0.19967070600250736,948.3719084050099,None,,,,,,,946.3552397149906,None,946.5386681449891,946.5553656609845,,,,,,,107,001,2023_May_25_1708,SpeechDraft1Carolyn_lessNoise_PlusLocalization,2021.2.3,59.99012418504382,
,,,,,,,,nearRight,6.5,0,ch1Sound_localizationTask.wav,6.5,"(1047, 878)","(87, -202)",95,-338,,,,,,,,,,,,,7,1,50,4,,,,,,,,,,,,,,,,,,,,,,,,,,,,,,,,,,,,,,,,948.5886648180021,None,,,951.6052538549993,None,1.5116402116402117,0.4998151139880065,951.6052538549993,None,,,,,,,949.5887075979845,None,949.7720052849909,949.7887277599948,,,,,,,107,001,2023_May_25_1708,SpeechDraft1Carolyn_lessNoise_PlusLocalization,2021.2.3,59.99012418504382,
,,,,,,,,farLeft,-19.1,5,ch1Sound_localizationTask.wav,-19.1,"(667, 878)","(-293,-202)",-285,-338,,,,,,,,,,,,,7,2,51,0,,,,,,,,,,,,,,,,,,,,,,,,,,,,,,,,,,,,,,,,952.1222450190107,None,,,955.1385291769984,None,1.374074074074074,0.28276974402251653,955.1385291769984,None,,,,,,,953.1221906970022,None,953.305289640004,953.3219996420084,,,,,,,107,001,2023_May_25_1708,SpeechDraft1Carolyn_lessNoise_PlusLocalization,2021.2.3,59.99012418504382,
,,,,,,,,midRight,13.0,3,ch1Sound_localizationTask.wav,13.0,"(1142, 878)","(182, -202)",190,-338,,,,,,,,,,,,,7,3,52,5,,,,,,,,,,,,,,,,,,,,,,,,,,,,,,,,,,,,,,,,955.4388656340016,None,,,958.4550882279873,None,1.5693121693121692,0.031696569989435375,958.4550882279873,None,,,,,,,956.438746498985,None,956.6221085180005,956.6388742690033,,,,,,,107,001,2023_May_25_1708,SpeechDraft1Carolyn_lessNoise_PlusLocalization,2021.2.3,59.99012418504382,
,,,,,,,,farLeft,-19.1,5,ch1Sound_localizationTask.wav,-19.1,"(667, 878)","(-293,-202)",-285,-338,,,,,,,,,,,,,7,4,53,0,,,,,,,,,,,,,,,,,,,,,,,,,,,,,,,,,,,,,,,,958.4893178149941,None,,,961.5052340370021,None,1.367195767195767,0.9328340160136577,961.5052340370021,None,,,,,,,959.4886318469944,None,959.6720756189898,959.6887850830099,,,,,,,107,001,2023_May_25_1708,SpeechDraft1Carolyn_lessNoise_PlusLocalization,2021.2.3,59.99012418504382,
,,,,,,,,farLeft,-19.1,5,ch1Sound_localizationTask.wav,-19.1,"(667, 878)","(-293,-202)",-285,-338,,,,,,,,,,,,,7,5,54,0,,,,,,,,,,,,,,,,,,,,,,,,,,,,,,,,,,,,,,,,962.4554927980062,None,,,965.4718845470052,None,1.3767195767195768,0.3987661179853603,965.4718845470052,None,,,,,,,963.4554231259972,None,963.6386680110008,963.6554184579873,,,,,,,107,001,2023_May_25_1708,SpeechDraft1Carolyn_lessNoise_PlusLocalization,2021.2.3,59.99012418504382,
,,,,,,,,farLeft,-19.1,5,ch1Sound_localizationTask.wav,-19.1,"(667, 878)","(-293,-202)",-285,-338,,,,,,,,,,,,,7,6,55,0,,,,,,,,,,,,,,,,,,,,,,,,,,,,,,,,,,,,,,,,965.8886054650065,None,,,968.9053293519828,None,1.3767195767195768,0.06618764300947078,968.9053293519828,None,,,,,,,966.8886446119868,None,967.0719345319958,967.0887343820068,,,,,,,107,001,2023_May_25_1708,SpeechDraft1Carolyn_lessNoise_PlusLocalization,2021.2.3,59.99012418504382,
,,,,,,,,,,,,,,,,,,,,,,,,,,,,,,,,,,,,,,,,,,,,,,,,,,,,,,,,,,,,,,,,,,,,,,,,,,,,,,,,,,,,,,,,,,,,968.9888652329973,None,c,377.70484200899955,969.9719880000048,None,107,001,2023_May_25_1708,SpeechDraft1Carolyn_lessNoise_PlusLocalization,2021.2.3,59.99012418504382,
