Audio_Only_Files,Video_Files,Original_Word_List,noiseLevelCode,conditionCodes,noiseLevelFile1,noiseLevelFile2,InstrTextVar,targetSpeakerName,targetSpeakerEccen,targetSpkrChannel,targetSpkrSound,targetVisualDegrees,visStimLoc,visStimLoc2,visStimW,visStimH,practiceTrials.thisRepN,practiceTrials.thisTrialN,practiceTrials.thisN,practiceTrials.thisIndex,trials.thisRepN,trials.thisTrialN,trials.thisN,trials.thisIndex,audLocalLoop.thisRepN,audLocalLoop.thisTrialN,audLocalLoop.thisN,audLocalLoop.thisIndex,visualLocalLoop.thisRepN,visualLocalLoop.thisTrialN,visualLocalLoop.thisN,visualLocalLoop.thisIndex,letsGoAlready.keys,letsGoAlready.rt,letsGoAlready.started,letsGoAlready.stopped,text_2.started,text_2.stopped,text_3.started,text_3.stopped,key_resp_2.keys,key_resp_2.rt,key_resp_2.started,key_resp_2.stopped,text_5.started,text_5.stopped,fixCross.started,fixCross.stopped,fixCross2.started,fixCross2.stopped,answerPrompt.started,answerPrompt.stopped,getAnswer.text,getAnswer.started,getAnswer.stopped,goToNext.keys,goToNext.rt,goToNext.started,goToNext.stopped,stretchBreakTxrt.started,stretchBreakTxrt.stopped,key_resp_3.keys,key_resp_3.rt,key_resp_3.started,key_resp_3.stopped,letsGoLocal.keys,letsGoLocal.rt,letsGoLocal.started,letsGoLocal.stopped,text_4.started,text_4.stopped,prepFixTxt.started,prepFixTxt.stopped,prepFixTxt_2.started,prepFixTxt_2.stopped,respPromptLocal.started,respPromptLocal.stopped,slider.response,slider.rt,slider.started,slider.stopped,letsGoLocal_2.keys,letsGoLocal_2.rt,letsGoLocal_2.started,letsGoLocal_2.stopped,text_7.started,text_7.stopped,prepFixTxt_3.started,prepFixTxt_3.stopped,grating.started,grating.stopped,exitTxt.started,exitTxt.stopped,key_resp.keys,key_resp.rt,key_resp.started,key_resp.stopped,participant,session,date,expName,psychopyVersion,frameRate,
,,,,,,,,,,,,,,,,,,,,,,,,,,,,,,,,,space,218.6504318039997,10.50292389400056,None,,,,,,,,,,,,,,,,,,,,,,,,,,,,,,,,,,,,,,,,,,,,,,,,,,,,,,,,,,,,,,111,001,2023_May_31_1601,SpeechDraft1Carolyn_lessNoise_PlusLocalization,2021.2.3,59.97207040731814,
,,,,,,,,,,,,,,,,,,,,,,,,,,,,,,,,,,,,,10.50292389400056,None,229.2859516110002,None,space,2.067724344999988,229.46960970200053,None,,,,,,,,,,,,,,,,,,,,,,,,,,,,,,,,,,,,,,,,,,,,,,,,,,,,,,111,001,2023_May_31_1601,SpeechDraft1Carolyn_lessNoise_PlusLocalization,2021.2.3,59.97207040731814,
ash.wav,ash.mpg,ash,1,A,Pink_Noise_1_1.wav,Pink_Noise_1_2.wav,"This is an example of an

AUDIO trial",,,,,,,,,,0,0,0,0,,,,,,,,,,,,,,,,,,,,,,,,,231.5858627380003,None,232.58617981600037,None,235.73589388800065,None,237.11950584900023,None,ash,237.11950584900023,None,return,6.910461550999571,237.20286289900014,None,,,,,,,,,,,,,,,,,,,,,,,,,,,,,,,,,,,,,,,111,001,2023_May_31_1601,SpeechDraft1Carolyn_lessNoise_PlusLocalization,2021.2.3,59.97207040731814,
ash.wav,ash.mpg,ash,1,AV,Pink_Noise_1_1.wav,Pink_Noise_1_2.wav,"This is an example of an

AUDIO + VIDEO  trial",,,,,,,,,,0,1,1,1,,,,,,,,,,,,,,,,,,,,,,,,,244.1523434340006,None,245.15279924300012,None,246.63591955100037,None,248.01952433400038,None,ash,248.01952433400038,None,return,5.93063556099969,248.10277328700067,None,,,,,,,,,,,,,,,,,,,,,,,,,,,,,,,,,,,,,,,111,001,2023_May_31_1601,SpeechDraft1Carolyn_lessNoise_PlusLocalization,2021.2.3,59.97207040731814,
,,,,,,,,,,,,,,,,,,,,,,,,,,,,,,,,,,,,,,,,,,,,,,,,,,,,,,,,,,,,254.0690478890001,None,space,26.97260571300012,254.25275776099988,None,,,,,,,,,,,,,,,,,,,,,,,,,,,,,,,,,111,001,2023_May_31_1601,SpeechDraft1Carolyn_lessNoise_PlusLocalization,2021.2.3,59.97207040731814,
nine.wav,nine.mpg,nine,4,A,Pink_Noise_4_1.wav,Pink_Noise_4_2.wav,,,,,,,,,,,,,,,0,0,0,5,,,,,,,,,,,,,,,,,,,,,,,281.2858825130006,None,282.76915178200034,None,284.1528191010002,None,lpng,284.1528191010002,None,return,9.421311174999573,284.23609047900027,None,,,,,,,,,,,,,,,,,,,,,,,,,,,,,,,,,,,,,,,111,001,2023_May_31_1601,SpeechDraft1Carolyn_lessNoise_PlusLocalization,2021.2.3,59.97207040731814,
fluent.wav,fluent.mpg,fluent,1,A,Pink_Noise_1_1.wav,Pink_Noise_1_2.wav,,,,,,,,,,,,,,,0,1,1,45,,,,,,,,,,,,,,,,,,,,,,,293.68610069900024,None,295.17146978000073,None,296.552744136,None,fluent,296.552744136,None,return,17.93306325499998,296.63632598500044,None,,,,,,,,,,,,,,,,,,,,,,,,,,,,,,,,,,,,,,,111,001,2023_May_31_1601,SpeechDraft1Carolyn_lessNoise_PlusLocalization,2021.2.3,59.97207040731814,
dirt.wav,dirt.mpg,dirt,2,A,Pink_Noise_2_1.wav,Pink_Noise_2_2.wav,,,,,,,,,,,,,,,0,2,2,7,,,,,,,,,,,,,,,,,,,,,,,314.5861309890006,None,316.06935953300035,None,317.45280053400074,None,"dirt
",317.45280053400074,None,return,10.369151193999642,317.53619726300076,None,,,,,,,,,,,,,,,,,,,,,,,,,,,,,,,,,,,,,,,111,001,2023_May_31_1601,SpeechDraft1Carolyn_lessNoise_PlusLocalization,2021.2.3,59.97207040731814,
three.wav,three.mpg,three,2,A,Pink_Noise_2_1.wav,Pink_Noise_2_2.wav,,,,,,,,,,,,,,,0,3,3,1,,,,,,,,,,,,,,,,,,,,,,,327.93613945700054,None,329.4193867390004,None,330.80278762800026,None,tree,330.80278762800026,None,return,11.683152000000518,330.8862457230007,None,,,,,,,,,,,,,,,,,,,,,,,,,,,,,,,,,,,,,,,111,001,2023_May_31_1601,SpeechDraft1Carolyn_lessNoise_PlusLocalization,2021.2.3,59.97207040731814,
flu.wav,flu.mpg,flu,6,AV,Pink_Noise_6_1.wav,Pink_Noise_6_2.wav,,,,,,,,,,,,,,,0,4,4,106,,,,,,,,,,,,,,,,,,,,,,,342.5863571380005,None,344.06934757399995,None,345.45292260299993,None,blue,345.45292260299993,None,return,15.089302843000041,345.5361923720002,None,,,,,,,,,,,,,,,,,,,,,,,,,,,,,,,,,,,,,,,111,001,2023_May_31_1601,SpeechDraft1Carolyn_lessNoise_PlusLocalization,2021.2.3,59.97207040731814,
globe.wav,globe.mpg,globe,4,A,Pink_Noise_4_1.wav,Pink_Noise_4_2.wav,,,,,,,,,,,,,,,0,5,5,37,,,,,,,,,,,,,,,,,,,,,,,360.6528700120007,None,362.13609186100075,None,363.51975563700034,None,glow,363.51975563700034,None,return,5.774461859999974,363.6028612959999,None,,,,,,,,,,,,,,,,,,,,,,,,,,,,,,,,,,,,,,,111,001,2023_May_31_1601,SpeechDraft1Carolyn_lessNoise_PlusLocalization,2021.2.3,59.97207040731814,
break.wav,break.mpg,break,6,A,Pink_Noise_6_1.wav,Pink_Noise_6_2.wav,,,,,,,,,,,,,,,0,6,6,51,,,,,,,,,,,,,,,,,,,,,,,369.40299584400054,None,370.902686937,None,372.28616475500075,None,"shirt
",372.28616475500075,None,return,9.951598197999374,372.3697365960006,None,,,,,,,,,,,,,,,,,,,,,,,,,,,,,,,,,,,,,,,111,001,2023_May_31_1601,SpeechDraft1Carolyn_lessNoise_PlusLocalization,2021.2.3,59.97207040731814,
bathe.wav,bathe.mpg,bathe,2,AV,Pink_Noise_2_1.wav,Pink_Noise_2_2.wav,,,,,,,,,,,,,,,0,7,7,111,,,,,,,,,,,,,,,,,,,,,,,382.352946559,None,383.83618466200005,None,385.2197122759999,None,bathe,385.2197122759999,None,return,7.55453173099977,385.30286833800074,None,,,,,,,,,,,,,,,,,,,,,,,,,,,,,,,,,,,,,,,111,001,2023_May_31_1601,SpeechDraft1Carolyn_lessNoise_PlusLocalization,2021.2.3,59.97207040731814,
jeep.wav,jeep.mpg,jeep,3,A,Pink_Noise_3_1.wav,Pink_Noise_3_2.wav,,,,,,,,,,,,,,,0,8,8,56,,,,,,,,,,,,,,,,,,,,,,,392.8864351250004,None,394.37083739900027,None,395.75303921900013,None,jake,395.75303921900013,None,return,6.8370819659994595,395.8362488890007,None,,,,,,,,,,,,,,,,,,,,,,,,,,,,,,,,,,,,,,,111,001,2023_May_31_1601,SpeechDraft1Carolyn_lessNoise_PlusLocalization,2021.2.3,59.97207040731814,
broil.wav,broil.mpg,broil,4,AV,Pink_Noise_4_1.wav,Pink_Noise_4_2.wav,,,,,,,,,,,,,,,0,9,9,89,,,,,,,,,,,,,,,,,,,,,,,402.7030941460007,None,404.1864336970002,None,405.5696542710002,None,brain,405.5696542710002,None,return,8.26039722600035,405.6529315220005,None,,,,,,,,,,,,,,,,,,,,,,,,,,,,,,,,,,,,,,,111,001,2023_May_31_1601,SpeechDraft1Carolyn_lessNoise_PlusLocalization,2021.2.3,59.97207040731814,
glad.wav,glad.mpg,glad,1,AV,Pink_Noise_1_1.wav,Pink_Noise_1_2.wav,,,,,,,,,,,,,,,0,10,10,66,,,,,,,,,,,,,,,,,,,,,,,413.93633796300037,None,415.41942462600036,None,416.80287483100074,None,"glad
",416.80287483100074,None,return,6.619036847000643,416.8862888620006,None,,,,,,,,,,,,,,,,,,,,,,,,,,,,,,,,,,,,,,,111,001,2023_May_31_1601,SpeechDraft1Carolyn_lessNoise_PlusLocalization,2021.2.3,59.97207040731814,
duet.wav,duet.mpg,duet,1,A,Pink_Noise_1_1.wav,Pink_Noise_1_2.wav,,,,,,,,,,,,,,,0,11,11,13,,,,,,,,,,,,,,,,,,,,,,,423.53640632299994,None,425.0197799510006,None,426.4029561360003,None,duet,426.4029561360003,None,return,5.170982126000126,426.48644538400004,None,,,,,,,,,,,,,,,,,,,,,,,,,,,,,,,,,,,,,,,111,001,2023_May_31_1601,SpeechDraft1Carolyn_lessNoise_PlusLocalization,2021.2.3,59.97207040731814,
date.wav,date.mpg,date,3,A,Pink_Noise_3_1.wav,Pink_Noise_3_2.wav,,,,,,,,,,,,,,,0,12,12,43,,,,,,,,,,,,,,,,,,,,,,,431.6865506459999,None,433.1697106620004,None,434.5531360390005,None,date,434.5531360390005,None,return,2.8051122529996064,434.6362882080002,None,,,,,,,,,,,,,,,,,,,,,,,,,,,,,,,,,,,,,,,111,001,2023_May_31_1601,SpeechDraft1Carolyn_lessNoise_PlusLocalization,2021.2.3,59.97207040731814,
grind.wav,grind.mpg,grind,2,AV,Pink_Noise_2_1.wav,Pink_Noise_2_2.wav,,,,,,,,,,,,,,,0,13,13,68,,,,,,,,,,,,,,,,,,,,,,,437.4696496590004,None,438.953134933,None,440.3365286570006,None,grind,440.3365286570006,None,return,10.677457773999777,440.41987162700025,None,,,,,,,,,,,,,,,,,,,,,,,,,,,,,,,,,,,,,,,111,001,2023_May_31_1601,SpeechDraft1Carolyn_lessNoise_PlusLocalization,2021.2.3,59.97207040731814,
blue.wav,blue.mpg,blue,3,AV,Pink_Noise_3_1.wav,Pink_Noise_3_2.wav,,,,,,,,,,,,,,,0,14,14,104,,,,,,,,,,,,,,,,,,,,,,,451.11973130000024,None,452.60276875399995,None,453.9862217560003,None,"blue
",453.9862217560003,None,return,7.235494111999287,454.0698342230007,None,,,,,,,,,,,,,,,,,,,,,,,,,,,,,,,,,,,,,,,111,001,2023_May_31_1601,SpeechDraft1Carolyn_lessNoise_PlusLocalization,2021.2.3,59.97207040731814,
bed.wav,bed.mpg,bed,6,AV,Pink_Noise_6_1.wav,Pink_Noise_6_2.wav,,,,,,,,,,,,,,,0,15,15,113,,,,,,,,,,,,,,,,,,,,,,,461.3366126870005,None,462.81997033900006,None,464.2030576800007,None,mate,464.2030576800007,None,return,10.090944598000533,464.2864044570006,None,,,,,,,,,,,,,,,,,,,,,,,,,,,,,,,,,,,,,,,111,001,2023_May_31_1601,SpeechDraft1Carolyn_lessNoise_PlusLocalization,2021.2.3,59.97207040731814,
flag.wav,flag.mpg,flag,3,A,Pink_Noise_3_1.wav,Pink_Noise_3_2.wav,,,,,,,,,,,,,,,0,16,16,38,,,,,,,,,,,,,,,,,,,,,,,474.40338999100004,None,475.8883217339999,None,477.26971331000004,None,grind,477.26971331000004,None,return,4.144136760999572,477.3531874959999,None,,,,,,,,,,,,,,,,,,,,,,,,,,,,,,,,,,,,,,,111,001,2023_May_31_1601,SpeechDraft1Carolyn_lessNoise_PlusLocalization,2021.2.3,59.97207040731814,
eye.wav,eye.mpg,eye,4,AV,Pink_Noise_4_1.wav,Pink_Noise_4_2.wav,,,,,,,,,,,,,,,0,17,17,91,,,,,,,,,,,,,,,,,,,,,,,481.51983388400004,None,483.00285482800064,None,484.3865674130002,None,eye,484.3865674130002,None,return,4.595619810999779,484.4697377430002,None,,,,,,,,,,,,,,,,,,,,,,,,,,,,,,,,,,,,,,,111,001,2023_May_31_1601,SpeechDraft1Carolyn_lessNoise_PlusLocalization,2021.2.3,59.97207040731814,
clock.wav,clock.mpg,clock,1,A,Pink_Noise_1_1.wav,Pink_Noise_1_2.wav,,,,,,,,,,,,,,,0,18,18,10,,,,,,,,,,,,,,,,,,,,,,,489.08642718600004,None,490.5695378970004,None,491.9531807330004,None,clock,491.9531807330004,None,return,6.004778434999935,492.0366245109999,None,,,,,,,,,,,,,,,,,,,,,,,,,,,,,,,,,,,,,,,111,001,2023_May_31_1601,SpeechDraft1Carolyn_lessNoise_PlusLocalization,2021.2.3,59.97207040731814,
bank.wav,bank.mpg,bank,5,A,Pink_Noise_5_1.wav,Pink_Noise_5_2.wav,,,,,,,,,,,,,,,0,19,19,16,,,,,,,,,,,,,,,,,,,,,,,498.0699193290002,None,499.56939848300044,None,500.95305018900035,None,pool,500.95305018900035,None,return,3.260941171000013,501.03639381500034,None,,,,,,,,,,,,,,,,,,,,,,,,,,,,,,,,,,,,,,,111,001,2023_May_31_1601,SpeechDraft1Carolyn_lessNoise_PlusLocalization,2021.2.3,59.97207040731814,
squat.wav,squat.mpg,squat,6,AV,Pink_Noise_6_1.wav,Pink_Noise_6_2.wav,,,,,,,,,,,,,,,0,20,20,81,,,,,,,,,,,,,,,,,,,,,,,504.3199273600003,None,505.8029653620006,None,507.1862186260005,None,watch,507.1862186260005,None,return,9.987288164999882,507.2700427210002,None,,,,,,,,,,,,,,,,,,,,,,,,,,,,,,,,,,,,,,,111,001,2023_May_31_1601,SpeechDraft1Carolyn_lessNoise_PlusLocalization,2021.2.3,59.97207040731814,
axe.wav,axe.mpg,axe,1,AV,Pink_Noise_1_1.wav,Pink_Noise_1_2.wav,,,,,,,,,,,,,,,0,21,21,76,,,,,,,,,,,,,,,,,,,,,,,517.2864582370003,None,518.7865285990001,None,520.1699456910001,None,axe,520.1699456910001,None,return,3.9402895789999093,520.2531414929999,None,,,,,,,,,,,,,,,,,,,,,,,,,,,,,,,,,,,,,,,111,001,2023_May_31_1601,SpeechDraft1Carolyn_lessNoise_PlusLocalization,2021.2.3,59.97207040731814,
flaw.wav,flaw.mpg,flaw,2,AV,Pink_Noise_2_1.wav,Pink_Noise_2_2.wav,,,,,,,,,,,,,,,0,22,22,71,,,,,,,,,,,,,,,,,,,,,,,524.2198140710007,None,525.7037646460003,None,527.0864013760001,None,flaw,527.0864013760001,None,return,5.439544980000392,527.1699265410007,None,,,,,,,,,,,,,,,,,,,,,,,,,,,,,,,,,,,,,,,111,001,2023_May_31_1601,SpeechDraft1Carolyn_lessNoise_PlusLocalization,2021.2.3,59.97207040731814,
coat.wav,coat.mpg,coat,5,AV,Pink_Noise_5_1.wav,Pink_Noise_5_2.wav,,,,,,,,,,,,,,,0,23,23,82,,,,,,,,,,,,,,,,,,,,,,,532.6366008250006,None,534.119642955,None,535.5030512570002,None,"coat
",535.5030512570002,None,return,7.086877639999329,535.5864627880001,None,,,,,,,,,,,,,,,,,,,,,,,,,,,,,,,,,,,,,,,111,001,2023_May_31_1601,SpeechDraft1Carolyn_lessNoise_PlusLocalization,2021.2.3,59.97207040731814,
cruel.wav,cruel.mpg,cruel,5,A,Pink_Noise_5_1.wav,Pink_Noise_5_2.wav,,,,,,,,,,,,,,,0,24,24,12,,,,,,,,,,,,,,,,,,,,,,,542.7033360140003,None,544.2028161940007,None,545.5864284250001,None,crue;,545.5864284250001,None,return,4.091578512000524,545.6697453160004,None,,,,,,,,,,,,,,,,,,,,,,,,,,,,,,,,,,,,,,,111,001,2023_May_31_1601,SpeechDraft1Carolyn_lessNoise_PlusLocalization,2021.2.3,59.97207040731814,
birch.wav,birch.mpg,birch,5,AV,Pink_Noise_5_1.wav,Pink_Noise_5_2.wav,,,,,,,,,,,,,,,0,25,25,99,,,,,,,,,,,,,,,,,,,,,,,549.7865837950003,None,551.2695529110006,None,552.6534899690005,None,birch,552.6534899690005,None,return,10.248677374999716,552.7367402910004,None,,,,,,,,,,,,,,,,,,,,,,,,,,,,,,,,,,,,,,,111,001,2023_May_31_1601,SpeechDraft1Carolyn_lessNoise_PlusLocalization,2021.2.3,59.97207040731814,
damp.wav,damp.mpg,damp,1,AV,Pink_Noise_1_1.wav,Pink_Noise_1_2.wav,,,,,,,,,,,,,,,0,26,26,60,,,,,,,,,,,,,,,,,,,,,,,563.0034033910006,None,564.5033369160001,None,565.8867343020001,None,damp,565.8867343020001,None,return,4.639632127999903,565.969802005,None,,,,,,,,,,,,,,,,,,,,,,,,,,,,,,,,,,,,,,,111,001,2023_May_31_1601,SpeechDraft1Carolyn_lessNoise_PlusLocalization,2021.2.3,59.97207040731814,
cheek.wav,cheek.mpg,cheek,4,A,Pink_Noise_4_1.wav,Pink_Noise_4_2.wav,,,,,,,,,,,,,,,0,27,27,52,,,,,,,,,,,,,,,,,,,,,,,570.636532642,None,572.120294849,None,573.5034205219999,None,cheek,573.5034205219999,None,return,3.326833011999952,573.5864865650001,None,,,,,,,,,,,,,,,,,,,,,,,,,,,,,,,,,,,,,,,111,001,2023_May_31_1601,SpeechDraft1Carolyn_lessNoise_PlusLocalization,2021.2.3,59.97207040731814,
drive.wav,drive.mpg,drive,4,AV,Pink_Noise_4_1.wav,Pink_Noise_4_2.wav,,,,,,,,,,,,,,,0,28,28,75,,,,,,,,,,,,,,,,,,,,,,,576.9368566370003,None,578.419762988,None,579.8032657390004,None,drive,579.8032657390004,None,return,2.730821954000021,579.886532904,None,,,,,,,,,,,,,,,,,,,,,,,,,,,,,,,,,,,,,,,111,001,2023_May_31_1601,SpeechDraft1Carolyn_lessNoise_PlusLocalization,2021.2.3,59.97207040731814,
bin.wav,bin.mpg,bin,2,AV,Pink_Noise_2_1.wav,Pink_Noise_2_2.wav,,,,,,,,,,,,,,,0,29,29,114,,,,,,,,,,,,,,,,,,,,,,,582.6364996830007,None,584.1197503060002,None,585.503575494,None,"bin
",585.503575494,None,return,4.718738003999533,585.5865972230004,None,,,,,,,,,,,,,,,,,,,,,,,,,,,,,,,,,,,,,,,111,001,2023_May_31_1601,SpeechDraft1Carolyn_lessNoise_PlusLocalization,2021.2.3,59.97207040731814,
dip.wav,dip.mpg,dip,4,A,Pink_Noise_4_1.wav,Pink_Noise_4_2.wav,,,,,,,,,,,,,,,0,30,30,0,,,,,,,,,,,,,,,,,,,,,,,590.337132267,None,591.822176056,None,593.2199057490006,None,"ditch
",593.2199057490006,None,return,11.370108570000411,593.3031829320007,None,,,,,,,,,,,,,,,,,,,,,,,,,,,,,,,,,,,,,,,111,001,2023_May_31_1601,SpeechDraft1Carolyn_lessNoise_PlusLocalization,2021.2.3,59.97207040731814,
fowl.wav,fowl.mpg,fowl,1,AV,Pink_Noise_1_1.wav,Pink_Noise_1_2.wav,,,,,,,,,,,,,,,0,31,31,70,,,,,,,,,,,,,,,,,,,,,,,604.7032239930004,None,606.2030553270006,None,607.5866531629999,None,fowl,607.5866531629999,None,return,32.97152308400018,607.6698721840003,None,,,,,,,,,,,,,,,,,,,,,,,,,,,,,,,,,,,,,,,111,001,2023_May_31_1601,SpeechDraft1Carolyn_lessNoise_PlusLocalization,2021.2.3,59.97207040731814,
fruit.wav,fruit.mpg,fruit,4,AV,Pink_Noise_4_1.wav,Pink_Noise_4_2.wav,,,,,,,,,,,,,,,0,32,32,108,,,,,,,,,,,,,,,,,,,,,,,640.669945566,None,642.1534519710003,None,643.5363574290004,None,fruit,643.5363574290004,None,return,3.9574671330001365,643.6199967940001,None,,,,,,,,,,,,,,,,,,,,,,,,,,,,,,,,,,,,,,,111,001,2023_May_31_1601,SpeechDraft1Carolyn_lessNoise_PlusLocalization,2021.2.3,59.97207040731814,
strive.wav,strive.mpg,strive,2,AV,Pink_Noise_2_1.wav,Pink_Noise_2_2.wav,,,,,,,,,,,,,,,0,33,33,62,,,,,,,,,,,,,,,,,,,,,,,647.6032995320002,None,649.103188731,None,650.4865705790007,None,strive,650.4865705790007,None,return,4.375290287000098,650.5700338800007,None,,,,,,,,,,,,,,,,,,,,,,,,,,,,,,,,,,,,,,,111,001,2023_May_31_1601,SpeechDraft1Carolyn_lessNoise_PlusLocalization,2021.2.3,59.97207040731814,
grace.wav,grace.mpg,grace,3,AV,Pink_Noise_3_1.wav,Pink_Noise_3_2.wav,,,,,,,,,,,,,,,0,34,34,112,,,,,,,,,,,,,,,,,,,,,,,654.9701455880004,None,656.4531235840004,None,657.8369512870004,None,"grace
",657.8369512870004,None,return,6.353152341999703,657.9201755040003,None,,,,,,,,,,,,,,,,,,,,,,,,,,,,,,,,,,,,,,,111,001,2023_May_31_1601,SpeechDraft1Carolyn_lessNoise_PlusLocalization,2021.2.3,59.97207040731814,
awe.wav,awe.mpg,awe,3,A,Pink_Noise_3_1.wav,Pink_Noise_3_2.wav,,,,,,,,,,,,,,,0,35,35,19,,,,,,,,,,,,,,,,,,,,,,,664.3033221730002,None,665.7863917210007,None,667.1700465890008,None,all,667.1700465890008,None,return,4.9158594210002775,667.253568442,None,,,,,,,,,,,,,,,,,,,,,,,,,,,,,,,,,,,,,,,111,001,2023_May_31_1601,SpeechDraft1Carolyn_lessNoise_PlusLocalization,2021.2.3,59.97207040731814,
bias.wav,bias.mpg,bias,2,A,Pink_Noise_2_1.wav,Pink_Noise_2_2.wav,,,,,,,,,,,,,,,0,36,36,11,,,,,,,,,,,,,,,,,,,,,,,672.1865876210004,None,673.6700126100004,None,675.0533777320006,None,bias,675.0533777320006,None,return,3.7764694299994517,675.1368623230001,None,,,,,,,,,,,,,,,,,,,,,,,,,,,,,,,,,,,,,,,111,001,2023_May_31_1601,SpeechDraft1Carolyn_lessNoise_PlusLocalization,2021.2.3,59.97207040731814,
fable.wav,fable.mpg,fable,2,A,Pink_Noise_2_1.wav,Pink_Noise_2_2.wav,,,,,,,,,,,,,,,0,37,37,57,,,,,,,,,,,,,,,,,,,,,,,678.936700274,None,680.4366587120003,None,681.8199523200001,None,fable,681.8199523200001,None,return,6.809715301999859,681.9036095920001,None,,,,,,,,,,,,,,,,,,,,,,,,,,,,,,,,,,,,,,,111,001,2023_May_31_1601,SpeechDraft1Carolyn_lessNoise_PlusLocalization,2021.2.3,59.97207040731814,
fit.wav,fit.mpg,fit,6,A,Pink_Noise_6_1.wav,Pink_Noise_6_2.wav,,,,,,,,,,,,,,,0,38,38,36,,,,,,,,,,,,,,,,,,,,,,,688.736933231,None,690.219690074,None,691.6034522959999,None,cook,691.6034522959999,None,return,3.242605248000473,691.6867031620004,None,,,,,,,,,,,,,,,,,,,,,,,,,,,,,,,,,,,,,,,111,001,2023_May_31_1601,SpeechDraft1Carolyn_lessNoise_PlusLocalization,2021.2.3,59.97207040731814,
frost.wav,frost.mpg,frost,6,AV,Pink_Noise_6_1.wav,Pink_Noise_6_2.wav,,,,,,,,,,,,,,,0,39,39,65,,,,,,,,,,,,,,,,,,,,,,,694.9534055690001,None,696.4534027070004,None,697.8366374900006,None,frost,697.8366374900006,None,return,4.233034024000517,697.9203125700005,None,,,,,,,,,,,,,,,,,,,,,,,,,,,,,,,,,,,,,,,111,001,2023_May_31_1601,SpeechDraft1Carolyn_lessNoise_PlusLocalization,2021.2.3,59.97207040731814,
cape.wav,cape.mpg,cape,2,AV,Pink_Noise_2_1.wav,Pink_Noise_2_2.wav,,,,,,,,,,,,,,,0,40,40,74,,,,,,,,,,,,,,,,,,,,,,,702.1701842390003,None,703.6532740810007,None,705.0368037010003,None,cape,705.0368037010003,None,return,3.121184437000011,705.1201527170006,None,,,,,,,,,,,,,,,,,,,,,,,,,,,,,,,,,,,,,,,111,001,2023_May_31_1601,SpeechDraft1Carolyn_lessNoise_PlusLocalization,2021.2.3,59.97207040731814,
mars.wav,mars.mpg,mars,1,AV,Pink_Noise_1_1.wav,Pink_Noise_1_2.wav,,,,,,,,,,,,,,,0,41,41,67,,,,,,,,,,,,,,,,,,,,,,,708.2700148460008,None,709.7700498459999,None,711.1535923070005,None,mars,711.1535923070005,None,return,2.9406489460006924,711.2366839619999,None,,,,,,,,,,,,,,,,,,,,,,,,,,,,,,,,,,,,,,,111,001,2023_May_31_1601,SpeechDraft1Carolyn_lessNoise_PlusLocalization,2021.2.3,59.97207040731814,
flat.wav,flat.mpg,flat,2,AV,Pink_Noise_2_1.wav,Pink_Noise_2_2.wav,,,,,,,,,,,,,,,0,42,42,86,,,,,,,,,,,,,,,,,,,,,,,714.2036235510004,None,715.6869284640006,None,717.0699084900007,None,flat,717.0699084900007,None,return,4.903898561999995,717.1534382970003,None,,,,,,,,,,,,,,,,,,,,,,,,,,,,,,,,,,,,,,,111,001,2023_May_31_1601,SpeechDraft1Carolyn_lessNoise_PlusLocalization,2021.2.3,59.97207040731814,
clad.wav,clad.mpg,clad,3,A,Pink_Noise_3_1.wav,Pink_Noise_3_2.wav,,,,,,,,,,,,,,,0,43,43,33,,,,,,,,,,,,,,,,,,,,,,,722.086787319,None,723.5701393730005,None,724.953666116,None,had,724.953666116,None,return,9.660621187999823,725.036709813,None,,,,,,,,,,,,,,,,,,,,,,,,,,,,,,,,,,,,,,,111,001,2023_May_31_1601,SpeechDraft1Carolyn_lessNoise_PlusLocalization,2021.2.3,59.97207040731814,
brisk.wav,brisk.mpg,brisk,4,A,Pink_Noise_4_1.wav,Pink_Noise_4_2.wav,,,,,,,,,,,,,,,0,44,44,21,,,,,,,,,,,,,,,,,,,,,,,734.7200745870005,None,736.219814733,None,737.6034367500006,None,crisp,737.6034367500006,None,return,12.466522366999925,737.6868354799999,None,,,,,,,,,,,,,,,,,,,,,,,,,,,,,,,,,,,,,,,111,001,2023_May_31_1601,SpeechDraft1Carolyn_lessNoise_PlusLocalization,2021.2.3,59.97207040731814,
ghost.wav,ghost.mpg,ghost,4,AV,Pink_Noise_4_1.wav,Pink_Noise_4_2.wav,,,,,,,,,,,,,,,0,45,45,102,,,,,,,,,,,,,,,,,,,,,,,750.1700913100003,None,751.6533361700003,None,753.0366995049999,None,ghost,753.0366995049999,None,return,7.345276315000774,753.1200707080006,None,,,,,,,,,,,,,,,,,,,,,,,,,,,,,,,,,,,,,,,111,001,2023_May_31_1601,SpeechDraft1Carolyn_lessNoise_PlusLocalization,2021.2.3,59.97207040731814,
lead.wav,lead.mpg,lead,1,AV,Pink_Noise_1_1.wav,Pink_Noise_1_2.wav,,,,,,,,,,,,,,,0,46,46,87,,,,,,,,,,,,,,,,,,,,,,,760.4869321240003,None,761.9868171950002,None,763.3702619310006,None,lead,763.3702619310006,None,return,19.595903748999262,763.4534576030001,None,,,,,,,,,,,,,,,,,,,,,,,,,,,,,,,,,,,,,,,111,001,2023_May_31_1601,SpeechDraft1Carolyn_lessNoise_PlusLocalization,2021.2.3,59.97207040731814,
rod.wav,rod.mpg,rod,5,A,Pink_Noise_5_1.wav,Pink_Noise_5_2.wav,,,,,,,,,,,,,,,0,47,47,8,,,,,,,,,,,,,,,,,,,,,,,783.0704176090003,None,784.5699967420005,None,785.9534888510007,None,draw,785.9534888510007,None,return,12.796312824999404,786.037101549,None,,,,,,,,,,,,,,,,,,,,,,,,,,,,,,,,,,,,,,,111,001,2023_May_31_1601,SpeechDraft1Carolyn_lessNoise_PlusLocalization,2021.2.3,59.97207040731814,
grade.wav,grade.mpg,grade,3,AV,Pink_Noise_3_1.wav,Pink_Noise_3_2.wav,,,,,,,,,,,,,,,0,48,48,116,,,,,,,,,,,,,,,,,,,,,,,798.8534939860001,None,800.3536545540001,None,801.7367803800007,None,grade,801.7367803800007,None,return,3.1811563020000904,801.820188699,None,,,,,,,,,,,,,,,,,,,,,,,,,,,,,,,,,,,,,,,111,001,2023_May_31_1601,SpeechDraft1Carolyn_lessNoise_PlusLocalization,2021.2.3,59.97207040731814,
firm.wav,firm.mpg,firm,1,AV,Pink_Noise_1_1.wav,Pink_Noise_1_2.wav,,,,,,,,,,,,,,,0,49,49,90,,,,,,,,,,,,,,,,,,,,,,,805.020153339,None,806.5035118710002,None,807.8868215410002,None,firm,807.8868215410002,None,return,8.326971491999757,807.9704124760001,None,,,,,,,,,,,,,,,,,,,,,,,,,,,,,,,,,,,,,,,111,001,2023_May_31_1601,SpeechDraft1Carolyn_lessNoise_PlusLocalization,2021.2.3,59.97207040731814,
spire.wav,spire.mpg,spire,6,A,Pink_Noise_6_1.wav,Pink_Noise_6_2.wav,,,,,,,,,,,,,,,0,50,50,23,,,,,,,,,,,,,,,,,,,,,,,816.3201498190001,None,817.8203617950003,None,819.2037114920004,None,"survive
",819.2037114920004,None,return,5.38644170400039,819.2868844760005,None,,,,,,,,,,,,,,,,,,,,,,,,,,,,,,,,,,,,,,,111,001,2023_May_31_1601,SpeechDraft1Carolyn_lessNoise_PlusLocalization,2021.2.3,59.97207040731814,
sue.wav,sue.mpg,sue,5,AV,Pink_Noise_5_1.wav,Pink_Noise_5_2.wav,,,,,,,,,,,,,,,0,51,51,109,,,,,,,,,,,,,,,,,,,,,,,824.703562613,None,826.203382914,None,827.5868063340004,None,chew,827.5868063340004,None,return,3.731196118000298,827.6701399080002,None,,,,,,,,,,,,,,,,,,,,,,,,,,,,,,,,,,,,,,,111,001,2023_May_31_1601,SpeechDraft1Carolyn_lessNoise_PlusLocalization,2021.2.3,59.97207040731814,
cheap.wav,cheap.mpg,cheap,2,A,Pink_Noise_2_1.wav,Pink_Noise_2_2.wav,,,,,,,,,,,,,,,0,52,52,48,,,,,,,,,,,,,,,,,,,,,,,831.4201821730003,None,832.9051248690002,None,834.2869920050007,None,cheat,834.2869920050007,None,return,8.479149838999547,834.3702338030007,None,,,,,,,,,,,,,,,,,,,,,,,,,,,,,,,,,,,,,,,111,001,2023_May_31_1601,SpeechDraft1Carolyn_lessNoise_PlusLocalization,2021.2.3,59.97207040731814,
please.wav,please.mpg,please,2,AV,Pink_Noise_2_1.wav,Pink_Noise_2_2.wav,,,,,,,,,,,,,,,0,53,53,79,,,,,,,,,,,,,,,,,,,,,,,842.8702641720001,None,844.3538669160007,None,845.7370144530005,None,please,845.7370144530005,None,return,3.4287984530001268,845.8205278650003,None,,,,,,,,,,,,,,,,,,,,,,,,,,,,,,,,,,,,,,,111,001,2023_May_31_1601,SpeechDraft1Carolyn_lessNoise_PlusLocalization,2021.2.3,59.97207040731814,
chip.wav,chip.mpg,chip,1,AV,Pink_Noise_1_1.wav,Pink_Noise_1_2.wav,,,,,,,,,,,,,,,0,54,54,117,,,,,,,,,,,,,,,,,,,,,,,849.2703943590004,None,850.7702716680005,None,852.153647698,None,chip,852.153647698,None,return,5.332521373999953,852.2368774430006,None,,,,,,,,,,,,,,,,,,,,,,,,,,,,,,,,,,,,,,,111,001,2023_May_31_1601,SpeechDraft1Carolyn_lessNoise_PlusLocalization,2021.2.3,59.97207040731814,
blow.wav,blow.mpg,blow,3,AV,Pink_Noise_3_1.wav,Pink_Noise_3_2.wav,,,,,,,,,,,,,,,0,55,55,77,,,,,,,,,,,,,,,,,,,,,,,857.58708785,None,859.0867151920002,None,860.4701712180004,None,"blow
",860.4701712180004,None,return,5.551443364000079,860.5538869560005,None,,,,,,,,,,,,,,,,,,,,,,,,,,,,,,,,,,,,,,,111,001,2023_May_31_1601,SpeechDraft1Carolyn_lessNoise_PlusLocalization,2021.2.3,59.97207040731814,
buy.wav,buy.mpg,buy,5,AV,Pink_Noise_5_1.wav,Pink_Noise_5_2.wav,,,,,,,,,,,,,,,0,56,56,85,,,,,,,,,,,,,,,,,,,,,,,866.1369178600007,None,867.6211518640002,None,869.0035400140005,None,mime,869.0035400140005,None,return,3.282431137000458,869.0869586670005,None,,,,,,,,,,,,,,,,,,,,,,,,,,,,,,,,,,,,,,,111,001,2023_May_31_1601,SpeechDraft1Carolyn_lessNoise_PlusLocalization,2021.2.3,59.97207040731814,
clothe.wav,clothe.mpg,clothe,5,A,Pink_Noise_5_1.wav,Pink_Noise_5_2.wav,,,,,,,,,,,,,,,0,57,57,55,,,,,,,,,,,,,,,,,,,,,,,872.3872560529999,None,873.8867713980007,None,875.2704266330002,None,close,875.2704266330002,None,return,8.991564007000306,875.35376086,None,,,,,,,,,,,,,,,,,,,,,,,,,,,,,,,,,,,,,,,111,001,2023_May_31_1601,SpeechDraft1Carolyn_lessNoise_PlusLocalization,2021.2.3,59.97207040731814,
grave.wav,grave.mpg,grave,3,AV,Pink_Noise_3_1.wav,Pink_Noise_3_2.wav,,,,,,,,,,,,,,,0,58,58,94,,,,,,,,,,,,,,,,,,,,,,,884.3703800160001,None,885.8700817460003,None,887.2537355710001,None,grave,887.2537355710001,None,return,3.3284137589998863,887.33690776,None,,,,,,,,,,,,,,,,,,,,,,,,,,,,,,,,,,,,,,,111,001,2023_May_31_1601,SpeechDraft1Carolyn_lessNoise_PlusLocalization,2021.2.3,59.97207040731814,
fine.wav,fine.mpg,fine,6,AV,Pink_Noise_6_1.wav,Pink_Noise_6_2.wav,,,,,,,,,,,,,,,0,59,59,96,,,,,,,,,,,,,,,,,,,,,,,890.6871776950002,None,892.1701024940003,None,893.5536586490007,None,find,893.5536586490007,None,return,15.004385770000226,893.6370176670007,None,,,,,,,,,,,,,,,,,,,,,,,,,,,,,,,,,,,,,,,111,001,2023_May_31_1601,SpeechDraft1Carolyn_lessNoise_PlusLocalization,2021.2.3,59.97207040731814,
bottle.wav,bottle.mpg,bottle,6,A,Pink_Noise_6_1.wav,Pink_Noise_6_2.wav,,,,,,,,,,,,,,,0,60,60,25,,,,,,,,,,,,,,,,,,,,,,,908.6702986680002,None,910.1700505680001,None,911.5536315360005,None,attic,911.5536315360005,None,return,19.460095497999646,911.6372382990003,None,,,,,,,,,,,,,,,,,,,,,,,,,,,,,,,,,,,,,,,111,001,2023_May_31_1601,SpeechDraft1Carolyn_lessNoise_PlusLocalization,2021.2.3,59.97207040731814,
giant.wav,giant.mpg,giant,2,AV,Pink_Noise_2_1.wav,Pink_Noise_2_2.wav,,,,,,,,,,,,,,,0,61,61,92,,,,,,,,,,,,,,,,,,,,,,,931.1205568260002,None,932.6202027230001,None,934.0037740150001,None,giant,934.0037740150001,None,return,7.682437587000095,934.0869798060003,None,,,,,,,,,,,,,,,,,,,,,,,,,,,,,,,,,,,,,,,111,001,2023_May_31_1601,SpeechDraft1Carolyn_lessNoise_PlusLocalization,2021.2.3,59.97207040731814,
pants.wav,pants.mpg,pants,1,A,Pink_Noise_1_1.wav,Pink_Noise_1_2.wav,,,,,,,,,,,,,,,0,62,62,34,,,,,,,,,,,,,,,,,,,,,,,941.7871787470003,None,943.27202708,None,944.6536638570005,None,pants,944.6536638570005,None,return,4.512265234000552,944.7370931960004,None,,,,,,,,,,,,,,,,,,,,,,,,,,,,,,,,,,,,,,,111,001,2023_May_31_1601,SpeechDraft1Carolyn_lessNoise_PlusLocalization,2021.2.3,59.97207040731814,
beef.wav,beef.mpg,beef,3,A,Pink_Noise_3_1.wav,Pink_Noise_3_2.wav,,,,,,,,,,,,,,,0,63,63,29,,,,,,,,,,,,,,,,,,,,,,,949.2704313000004,None,950.7704044840002,None,952.1540803430007,None,beef,952.1540803430007,None,return,4.116258693999953,952.237165904,None,,,,,,,,,,,,,,,,,,,,,,,,,,,,,,,,,,,,,,,111,001,2023_May_31_1601,SpeechDraft1Carolyn_lessNoise_PlusLocalization,2021.2.3,59.97207040731814,
cake.wav,cake.mpg,cake,4,AV,Pink_Noise_4_1.wav,Pink_Noise_4_2.wav,,,,,,,,,,,,,,,0,64,64,73,,,,,,,,,,,,,,,,,,,,,,,956.3703358080002,None,957.8554591620004,None,959.2370069730005,None,cake,959.2370069730005,None,return,5.840804272999776,959.3205430790003,None,,,,,,,,,,,,,,,,,,,,,,,,,,,,,,,,,,,,,,,111,001,2023_May_31_1601,SpeechDraft1Carolyn_lessNoise_PlusLocalization,2021.2.3,59.97207040731814,
bait.wav,bait.mpg,bait,3,AV,Pink_Noise_3_1.wav,Pink_Noise_3_2.wav,,,,,,,,,,,,,,,0,65,65,69,,,,,,,,,,,,,,,,,,,,,,,965.1871406110004,None,966.6868051710007,None,968.0704830029999,None,bait,968.0704830029999,None,return,4.99949386300068,968.1538803140002,None,,,,,,,,,,,,,,,,,,,,,,,,,,,,,,,,,,,,,,,111,001,2023_May_31_1601,SpeechDraft1Carolyn_lessNoise_PlusLocalization,2021.2.3,59.97207040731814,
cane.wav,cane.mpg,cane,5,AV,Pink_Noise_5_1.wav,Pink_Noise_5_2.wav,,,,,,,,,,,,,,,0,66,66,119,,,,,,,,,,,,,,,,,,,,,,,973.1703929320001,None,974.6702995340002,None,976.0535986600007,None,can't,976.0535986600007,None,return,10.928232053000102,976.1370903870002,None,,,,,,,,,,,,,,,,,,,,,,,,,,,,,,,,,,,,,,,111,001,2023_May_31_1601,SpeechDraft1Carolyn_lessNoise_PlusLocalization,2021.2.3,59.97207040731814,
click.wav,click.mpg,click,3,AV,Pink_Noise_3_1.wav,Pink_Noise_3_2.wav,,,,,,,,,,,,,,,0,67,67,110,,,,,,,,,,,,,,,,,,,,,,,987.0870830820004,None,988.5703491210006,None,989.953793232,None,click,989.953793232,None,return,8.548223290999886,990.0371332190007,None,,,,,,,,,,,,,,,,,,,,,,,,,,,,,,,,,,,,,,,111,001,2023_May_31_1601,SpeechDraft1Carolyn_lessNoise_PlusLocalization,2021.2.3,59.97207040731814,
cheat.wav,cheat.mpg,cheat,5,AV,Pink_Noise_5_1.wav,Pink_Noise_5_2.wav,,,,,,,,,,,,,,,0,68,68,100,,,,,,,,,,,,,,,,,,,,,,,998.6042179100004,None,1000.1039632450002,None,1001.4873808890006,None,chicken,1001.4873808890006,None,return,6.814787031999913,1001.5705482460007,None,,,,,,,,,,,,,,,,,,,,,,,,,,,,,,,,,,,,,,,111,001,2023_May_31_1601,SpeechDraft1Carolyn_lessNoise_PlusLocalization,2021.2.3,59.97207040731814,
cult.wav,cult.mpg,cult,4,A,Pink_Noise_4_1.wav,Pink_Noise_4_2.wav,,,,,,,,,,,,,,,0,69,69,18,,,,,,,,,,,,,,,,,,,,,,,1008.4037631560004,None,1009.9037197780008,None,1011.2872637790006,None,"quiet
",1011.2872637790006,None,return,8.51886966100028,1011.3704668970004,None,,,,,,,,,,,,,,,,,,,,,,,,,,,,,,,,,,,,,,,111,001,2023_May_31_1601,SpeechDraft1Carolyn_lessNoise_PlusLocalization,2021.2.3,59.97207040731814,
budge.wav,budge.mpg,budge,5,AV,Pink_Noise_5_1.wav,Pink_Noise_5_2.wav,,,,,,,,,,,,,,,0,70,70,88,,,,,,,,,,,,,,,,,,,,,,,1019.9204454930004,None,1021.4206372920007,None,1022.8039251119999,None,munch,1022.8039251119999,None,return,12.682274904000224,1022.8871241679999,None,,,,,,,,,,,,,,,,,,,,,,,,,,,,,,,,,,,,,,,111,001,2023_May_31_1601,SpeechDraft1Carolyn_lessNoise_PlusLocalization,2021.2.3,59.97207040731814,
flee.wav,flee.mpg,flee,4,A,Pink_Noise_4_1.wav,Pink_Noise_4_2.wav,,,,,,,,,,,,,,,0,71,71,6,,,,,,,,,,,,,,,,,,,,,,,1035.5871033850008,None,1037.0701982660003,None,1038.4538423700005,None,lake,1038.4538423700005,None,return,6.256160127999465,1038.5373271060007,None,,,,,,,,,,,,,,,,,,,,,,,,,,,,,,,,,,,,,,,111,001,2023_May_31_1601,SpeechDraft1Carolyn_lessNoise_PlusLocalization,2021.2.3,59.97207040731814,
bunch.wav,bunch.mpg,bunch,1,A,Pink_Noise_1_1.wav,Pink_Noise_1_2.wav,,,,,,,,,,,,,,,0,72,72,58,,,,,,,,,,,,,,,,,,,,,,,1044.8204617050005,None,1046.3203010220004,None,1047.7039085260003,None,bunch,1047.7039085260003,None,return,10.557945945999563,1047.787383283,None,,,,,,,,,,,,,,,,,,,,,,,,,,,,,,,,,,,,,,,111,001,2023_May_31_1601,SpeechDraft1Carolyn_lessNoise_PlusLocalization,2021.2.3,59.97207040731814,
grim.wav,grim.mpg,grim,1,A,Pink_Noise_1_1.wav,Pink_Noise_1_2.wav,,,,,,,,,,,,,,,0,73,73,35,,,,,,,,,,,,,,,,,,,,,,,1058.3707224160007,None,1059.8705198820007,None,1061.254184292,None,grin,1061.254184292,None,return,11.064123888000722,1061.3372612700005,None,,,,,,,,,,,,,,,,,,,,,,,,,,,,,,,,,,,,,,,111,001,2023_May_31_1601,SpeechDraft1Carolyn_lessNoise_PlusLocalization,2021.2.3,59.97207040731814,
mass.wav,mass.mpg,mass,5,AV,Pink_Noise_5_1.wav,Pink_Noise_5_2.wav,,,,,,,,,,,,,,,0,74,74,95,,,,,,,,,,,,,,,,,,,,,,,1072.4206597000002,None,1073.9204690010001,None,1075.303874448,None,meant,1075.303874448,None,return,11.598149204000038,1075.3871837320003,None,,,,,,,,,,,,,,,,,,,,,,,,,,,,,,,,,,,,,,,111,001,2023_May_31_1601,SpeechDraft1Carolyn_lessNoise_PlusLocalization,2021.2.3,59.97207040731814,
flood.wav,flood.mpg,flood,1,A,Pink_Noise_1_1.wav,Pink_Noise_1_2.wav,,,,,,,,,,,,,,,0,75,75,49,,,,,,,,,,,,,,,,,,,,,,,1087.0039934650003,None,1088.5038848650001,None,1089.887418937,None,flood,1089.887418937,None,return,6.342818761000672,1089.970524544,None,,,,,,,,,,,,,,,,,,,,,,,,,,,,,,,,,,,,,,,111,001,2023_May_31_1601,SpeechDraft1Carolyn_lessNoise_PlusLocalization,2021.2.3,59.97207040731814,
coy.wav,coy.mpg,coy,4,AV,Pink_Noise_4_1.wav,Pink_Noise_4_2.wav,,,,,,,,,,,,,,,0,76,76,61,,,,,,,,,,,,,,,,,,,,,,,1096.337314282,None,1097.8370861420008,None,1099.2205000230006,None,"koi
",1099.2205000230006,None,return,9.385325989999728,1099.3040024330003,None,,,,,,,,,,,,,,,,,,,,,,,,,,,,,,,,,,,,,,,111,001,2023_May_31_1601,SpeechDraft1Carolyn_lessNoise_PlusLocalization,2021.2.3,59.97207040731814,
flair.wav,flair.mpg,flair,6,A,Pink_Noise_6_1.wav,Pink_Noise_6_2.wav,,,,,,,,,,,,,,,0,77,77,59,,,,,,,,,,,,,,,,,,,,,,,1108.7206509780008,None,1110.2048989170007,None,1111.5872661540006,None,flood,1111.5872661540006,None,return,6.242670169999656,1111.6706531130003,None,,,,,,,,,,,,,,,,,,,,,,,,,,,,,,,,,,,,,,,111,001,2023_May_31_1601,SpeechDraft1Carolyn_lessNoise_PlusLocalization,2021.2.3,59.97207040731814,
flask.wav,flask.mpg,flask,1,A,Pink_Noise_1_1.wav,Pink_Noise_1_2.wav,,,,,,,,,,,,,,,0,78,78,44,,,,,,,,,,,,,,,,,,,,,,,1117.9376089850002,None,1119.437277,None,1120.820837143,None,flask,1120.820837143,None,return,3.6093434750000597,1120.9040549820002,None,,,,,,,,,,,,,,,,,,,,,,,,,,,,,,,,,,,,,,,111,001,2023_May_31_1601,SpeechDraft1Carolyn_lessNoise_PlusLocalization,2021.2.3,59.97207040731814,
cloak.wav,cloak.mpg,cloak,5,A,Pink_Noise_5_1.wav,Pink_Noise_5_2.wav,,,,,,,,,,,,,,,0,79,79,39,,,,,,,,,,,,,,,,,,,,,,,1124.5372870740002,None,1126.037412492,None,1127.420678722,None,float,1127.420678722,None,return,5.105372785999862,1127.5040575820003,None,,,,,,,,,,,,,,,,,,,,,,,,,,,,,,,,,,,,,,,111,001,2023_May_31_1601,SpeechDraft1Carolyn_lessNoise_PlusLocalization,2021.2.3,59.97207040731814,
glide.wav,glide.mpg,glide,3,A,Pink_Noise_3_1.wav,Pink_Noise_3_2.wav,,,,,,,,,,,,,,,0,80,80,32,,,,,,,,,,,,,,,,,,,,,,,1132.6372963370004,None,1134.137161789,None,1135.5209263180004,None,glide,1135.5209263180004,None,return,3.5493233860006512,1135.604065253,None,,,,,,,,,,,,,,,,,,,,,,,,,,,,,,,,,,,,,,,111,001,2023_May_31_1601,SpeechDraft1Carolyn_lessNoise_PlusLocalization,2021.2.3,59.97207040731814,
brag.wav,brag.mpg,brag,6,A,Pink_Noise_6_1.wav,Pink_Noise_6_2.wav,,,,,,,,,,,,,,,0,81,81,28,,,,,,,,,,,,,,,,,,,,,,,1139.1706851500003,None,1140.6708361890005,None,1142.0543476440007,None,"bride
",1142.0543476440007,None,return,4.135883633000049,1142.1374570650005,None,,,,,,,,,,,,,,,,,,,,,,,,,,,,,,,,,,,,,,,111,001,2023_May_31_1601,SpeechDraft1Carolyn_lessNoise_PlusLocalization,2021.2.3,59.97207040731814,
dull.wav,dull.mpg,dull,1,AV,Pink_Noise_1_1.wav,Pink_Noise_1_2.wav,,,,,,,,,,,,,,,0,82,82,115,,,,,,,,,,,,,,,,,,,,,,,1146.3039963520005,None,1147.803724857,None,1149.1876106340005,None,"dull
",1149.1876106340005,None,return,2.9867218459994547,1149.270595387,None,,,,,,,,,,,,,,,,,,,,,,,,,,,,,,,,,,,,,,,111,001,2023_May_31_1601,SpeechDraft1Carolyn_lessNoise_PlusLocalization,2021.2.3,59.97207040731814,
pride.wav,pride.mpg,pride,2,A,Pink_Noise_2_1.wav,Pink_Noise_2_2.wav,,,,,,,,,,,,,,,0,83,83,46,,,,,,,,,,,,,,,,,,,,,,,1152.2872732940004,None,1153.7874485970005,None,1155.170952382,None,five,1155.170952382,None,return,2.2111914990000514,1155.2541346730004,None,,,,,,,,,,,,,,,,,,,,,,,,,,,,,,,,,,,,,,,111,001,2023_May_31_1601,SpeechDraft1Carolyn_lessNoise_PlusLocalization,2021.2.3,59.97207040731814,
rid.wav,rid.mpg,rid,4,AV,Pink_Noise_4_1.wav,Pink_Noise_4_2.wav,,,,,,,,,,,,,,,0,84,84,105,,,,,,,,,,,,,,,,,,,,,,,1157.4875181690004,None,1158.9869923660008,None,1160.3707126910003,None,rich,1160.3707126910003,None,return,5.131271315999584,1160.45404572,None,,,,,,,,,,,,,,,,,,,,,,,,,,,,,,,,,,,,,,,111,001,2023_May_31_1601,SpeechDraft1Carolyn_lessNoise_PlusLocalization,2021.2.3,59.97207040731814,
earth.wav,earth.mpg,earth,4,AV,Pink_Noise_4_1.wav,Pink_Noise_4_2.wav,,,,,,,,,,,,,,,0,85,85,103,,,,,,,,,,,,,,,,,,,,,,,1165.6042075000005,None,1167.103863116,None,1168.4873881510002,None,earth,1168.4873881510002,None,return,3.79044137999972,1168.5709910690002,None,,,,,,,,,,,,,,,,,,,,,,,,,,,,,,,,,,,,,,,111,001,2023_May_31_1601,SpeechDraft1Carolyn_lessNoise_PlusLocalization,2021.2.3,59.97207040731814,
blood.wav,blood.mpg,blood,3,A,Pink_Noise_3_1.wav,Pink_Noise_3_2.wav,,,,,,,,,,,,,,,0,86,86,9,,,,,,,,,,,,,,,,,,,,,,,1172.387510396,None,1173.8871629300002,None,1175.270655495,None,"flood
",1175.270655495,None,return,4.103124855000715,1175.3542104750004,None,,,,,,,,,,,,,,,,,,,,,,,,,,,,,,,,,,,,,,,111,001,2023_May_31_1601,SpeechDraft1Carolyn_lessNoise_PlusLocalization,2021.2.3,59.97207040731814,
fuel.wav,fuel.mpg,fuel,6,AV,Pink_Noise_6_1.wav,Pink_Noise_6_2.wav,,,,,,,,,,,,,,,0,87,87,101,,,,,,,,,,,,,,,,,,,,,,,1179.4874041970006,None,1180.9871894320004,None,1182.3706051190002,None,"food
",1182.3706051190002,None,return,9.635269819000314,1182.454069712,None,,,,,,,,,,,,,,,,,,,,,,,,,,,,,,,,,,,,,,,111,001,2023_May_31_1601,SpeechDraft1Carolyn_lessNoise_PlusLocalization,2021.2.3,59.97207040731814,
bib.wav,bib.mpg,bib,4,A,Pink_Noise_4_1.wav,Pink_Noise_4_2.wav,,,,,,,,,,,,,,,0,88,88,47,,,,,,,,,,,,,,,,,,,,,,,1192.1209558540004,None,1193.6207544170002,None,1195.0042591840001,None,big,1195.0042591840001,None,return,8.689964716000759,1195.0874391040006,None,,,,,,,,,,,,,,,,,,,,,,,,,,,,,,,,,,,,,,,111,001,2023_May_31_1601,SpeechDraft1Carolyn_lessNoise_PlusLocalization,2021.2.3,59.97207040731814,
dump.wav,dump.mpg,dump,5,A,Pink_Noise_5_1.wav,Pink_Noise_5_2.wav,,,,,,,,,,,,,,,0,89,89,30,,,,,,,,,,,,,,,,,,,,,,,1203.8040202800003,None,1205.3041279590007,None,1206.6875375640002,None,dug,1206.6875375640002,None,return,8.430561451000358,1206.7708468660003,None,,,,,,,,,,,,,,,,,,,,,,,,,,,,,,,,,,,,,,,111,001,2023_May_31_1601,SpeechDraft1Carolyn_lessNoise_PlusLocalization,2021.2.3,59.97207040731814,
bull.wav,bull.mpg,bull,5,A,Pink_Noise_5_1.wav,Pink_Noise_5_2.wav,,,,,,,,,,,,,,,0,90,90,22,,,,,,,,,,,,,,,,,,,,,,,1215.2209048270006,None,1216.7049810480003,None,1218.0874243550006,None,earth,1218.0874243550006,None,return,4.2227014099999,1218.1707275490007,None,,,,,,,,,,,,,,,,,,,,,,,,,,,,,,,,,,,,,,,111,001,2023_May_31_1601,SpeechDraft1Carolyn_lessNoise_PlusLocalization,2021.2.3,59.97207040731814,
crop.wav,crop.mpg,crop,5,AV,Pink_Noise_5_1.wav,Pink_Noise_5_2.wav,,,,,,,,,,,,,,,0,91,91,63,,,,,,,,,,,,,,,,,,,,,,,1222.4208989690005,None,1223.9205734870002,None,1225.3041685770004,None,"crime
",1225.3041685770004,None,return,7.133957629999713,1225.3873680020006,None,,,,,,,,,,,,,,,,,,,,,,,,,,,,,,,,,,,,,,,111,001,2023_May_31_1601,SpeechDraft1Carolyn_lessNoise_PlusLocalization,2021.2.3,59.97207040731814,
gab.wav,gab.mpg,gab,6,A,Pink_Noise_6_1.wav,Pink_Noise_6_2.wav,,,,,,,,,,,,,,,0,92,92,3,,,,,,,,,,,,,,,,,,,,,,,1232.5540731800002,None,1234.0389363240001,None,1235.437368584,None,drive,1235.437368584,None,return,3.2484778530006224,1235.5209598930005,None,,,,,,,,,,,,,,,,,,,,,,,,,,,,,,,,,,,,,,,111,001,2023_May_31_1601,SpeechDraft1Carolyn_lessNoise_PlusLocalization,2021.2.3,59.97207040731814,
craft.wav,craft.mpg,craft,3,A,Pink_Noise_3_1.wav,Pink_Noise_3_2.wav,,,,,,,,,,,,,,,0,93,93,27,,,,,,,,,,,,,,,,,,,,,,,1238.7873486480003,None,1240.2873451160003,None,1241.6709774310002,None,crash,1241.6709774310002,None,return,3.2870935409991944,1241.754239543,None,,,,,,,,,,,,,,,,,,,,,,,,,,,,,,,,,,,,,,,111,001,2023_May_31_1601,SpeechDraft1Carolyn_lessNoise_PlusLocalization,2021.2.3,59.97207040731814,
drag.wav,drag.mpg,drag,6,A,Pink_Noise_6_1.wav,Pink_Noise_6_2.wav,,,,,,,,,,,,,,,0,94,94,20,,,,,,,,,,,,,,,,,,,,,,,1245.0709409460005,None,1246.5709659290005,None,1247.954071479,None,jog,1247.954071479,None,return,3.9476642760000686,1248.0376763940003,None,,,,,,,,,,,,,,,,,,,,,,,,,,,,,,,,,,,,,,,111,001,2023_May_31_1601,SpeechDraft1Carolyn_lessNoise_PlusLocalization,2021.2.3,59.97207040731814,
cross.wav,cross.mpg,cross,3,A,Pink_Noise_3_1.wav,Pink_Noise_3_2.wav,,,,,,,,,,,,,,,0,95,95,31,,,,,,,,,,,,,,,,,,,,,,,1252.0041305330005,None,1253.504179089,None,1254.8875243510001,None,"cross
",1254.8875243510001,None,return,3.486534814999686,1254.9708123130004,None,,,,,,,,,,,,,,,,,,,,,,,,,,,,,,,,,,,,,,,111,001,2023_May_31_1601,SpeechDraft1Carolyn_lessNoise_PlusLocalization,2021.2.3,59.97207040731814,
boot.wav,boot.mpg,boot,6,A,Pink_Noise_6_1.wav,Pink_Noise_6_2.wav,,,,,,,,,,,,,,,0,96,96,14,,,,,,,,,,,,,,,,,,,,,,,1258.4874858390003,None,1259.9872090110002,None,1261.3708299529999,None,"fruit
",1261.3708299529999,None,return,4.635045422000076,1261.4542824230002,None,,,,,,,,,,,,,,,,,,,,,,,,,,,,,,,,,,,,,,,111,001,2023_May_31_1601,SpeechDraft1Carolyn_lessNoise_PlusLocalization,2021.2.3,59.97207040731814,
faith.wav,faith.mpg,faith,6,A,Pink_Noise_6_1.wav,Pink_Noise_6_2.wav,,,,,,,,,,,,,,,0,97,97,53,,,,,,,,,,,,,,,,,,,,,,,1266.1208070020002,None,1267.6205091480006,None,1269.004147652,None,bird,1269.004147652,None,return,4.697805529000107,1269.0875300750004,None,,,,,,,,,,,,,,,,,,,,,,,,,,,,,,,,,,,,,,,111,001,2023_May_31_1601,SpeechDraft1Carolyn_lessNoise_PlusLocalization,2021.2.3,59.97207040731814,
bald.wav,bald.mpg,bald,4,A,Pink_Noise_4_1.wav,Pink_Noise_4_2.wav,,,,,,,,,,,,,,,0,98,98,42,,,,,,,,,,,,,,,,,,,,,,,1273.804205845,None,1275.3041254750005,None,1276.6877719230006,None,fall,1276.6877719230006,None,return,17.862320364999505,1276.7710449630003,None,,,,,,,,,,,,,,,,,,,,,,,,,,,,,,,,,,,,,,,111,001,2023_May_31_1601,SpeechDraft1Carolyn_lessNoise_PlusLocalization,2021.2.3,59.97207040731814,
deem.wav,deem.mpg,deem,3,AV,Pink_Noise_3_1.wav,Pink_Noise_3_2.wav,,,,,,,,,,,,,,,0,99,99,83,,,,,,,,,,,,,,,,,,,,,,,1294.654222399,None,1296.1539525830003,None,1297.537662914,None,"deem
",1297.537662914,None,return,2.8842717710003853,1297.6210588210006,None,,,,,,,,,,,,,,,,,,,,,,,,,,,,,,,,,,,,,,,111,001,2023_May_31_1601,SpeechDraft1Carolyn_lessNoise_PlusLocalization,2021.2.3,59.97207040731814,
chick.wav,chick.mpg,chick,6,AV,Pink_Noise_6_1.wav,Pink_Noise_6_2.wav,,,,,,,,,,,,,,,0,100,100,72,,,,,,,,,,,,,,,,,,,,,,,1300.5377104360005,None,1302.0373289260006,None,1303.4208495930006,None,cherry,1303.4208495930006,None,return,5.297028359000251,1303.5043608330006,None,,,,,,,,,,,,,,,,,,,,,,,,,,,,,,,,,,,,,,,111,001,2023_May_31_1601,SpeechDraft1Carolyn_lessNoise_PlusLocalization,2021.2.3,59.97207040731814,
brash.wav,brash.mpg,brash,6,AV,Pink_Noise_6_1.wav,Pink_Noise_6_2.wav,,,,,,,,,,,,,,,0,101,101,118,,,,,,,,,,,,,,,,,,,,,,,1308.8211951040003,None,1310.3208664550002,None,1311.7042239600005,None,brush,1311.7042239600005,None,return,8.597799739000038,1311.7875374750001,None,,,,,,,,,,,,,,,,,,,,,,,,,,,,,,,,,,,,,,,111,001,2023_May_31_1601,SpeechDraft1Carolyn_lessNoise_PlusLocalization,2021.2.3,59.97207040731814,
count.wav,count.mpg,count,2,A,Pink_Noise_2_1.wav,Pink_Noise_2_2.wav,,,,,,,,,,,,,,,0,102,102,40,,,,,,,,,,,,,,,,,,,,,,,1320.4042565850004,None,1321.9043944200002,None,1323.2874770860008,None,coat,1323.2874770860008,None,return,3.19854947299973,1323.370842538,None,,,,,,,,,,,,,,,,,,,,,,,,,,,,,,,,,,,,,,,111,001,2023_May_31_1601,SpeechDraft1Carolyn_lessNoise_PlusLocalization,2021.2.3,59.97207040731814,
gate.wav,gate.mpg,gate,1,A,Pink_Noise_1_1.wav,Pink_Noise_1_2.wav,,,,,,,,,,,,,,,0,103,103,41,,,,,,,,,,,,,,,,,,,,,,,1326.5875151930004,None,1328.087546879,None,1329.4711719710003,None,"gate
",1329.4711719710003,None,return,2.8871393069994156,1329.55419997,None,,,,,,,,,,,,,,,,,,,,,,,,,,,,,,,,,,,,,,,111,001,2023_May_31_1601,SpeechDraft1Carolyn_lessNoise_PlusLocalization,2021.2.3,59.97207040731814,
fish.wav,fish.mpg,fish,4,AV,Pink_Noise_4_1.wav,Pink_Noise_4_2.wav,,,,,,,,,,,,,,,0,104,104,80,,,,,,,,,,,,,,,,,,,,,,,1332.4708961280003,None,1333.970645128,None,1335.3541860760006,None,fish,1335.3541860760006,None,return,5.33948990799945,1335.4379502880001,None,,,,,,,,,,,,,,,,,,,,,,,,,,,,,,,,,,,,,,,111,001,2023_May_31_1601,SpeechDraft1Carolyn_lessNoise_PlusLocalization,2021.2.3,59.97207040731814,
bun.wav,bun.mpg,bun,5,A,Pink_Noise_5_1.wav,Pink_Noise_5_2.wav,,,,,,,,,,,,,,,0,105,105,4,,,,,,,,,,,,,,,,,,,,,,,1340.8042804870001,None,1342.304157826,None,1343.687522825,None,flood,1343.687522825,None,return,7.91043560000071,1343.770937548,None,,,,,,,,,,,,,,,,,,,,,,,,,,,,,,,,,,,,,,,111,001,2023_May_31_1601,SpeechDraft1Carolyn_lessNoise_PlusLocalization,2021.2.3,59.97207040731814,
beach.wav,beach.mpg,beach,2,A,Pink_Noise_2_1.wav,Pink_Noise_2_2.wav,,,,,,,,,,,,,,,0,106,106,54,,,,,,,,,,,,,,,,,,,,,,,1351.7043487030005,None,1353.2040005040008,None,1354.5875918090005,None,"beach
",1354.5875918090005,None,return,2.8023258679995706,1354.671012701,None,,,,,,,,,,,,,,,,,,,,,,,,,,,,,,,,,,,,,,,111,001,2023_May_31_1601,SpeechDraft1Carolyn_lessNoise_PlusLocalization,2021.2.3,59.97207040731814,
guest.wav,guest.mpg,guest,5,AV,Pink_Noise_5_1.wav,Pink_Noise_5_2.wav,,,,,,,,,,,,,,,0,107,107,97,,,,,,,,,,,,,,,,,,,,,,,1357.504212551,None,1359.0040133430002,None,1360.3875958080007,None,guest,1360.3875958080007,None,return,2.5305270030003157,1360.4709089000007,None,,,,,,,,,,,,,,,,,,,,,,,,,,,,,,,,,,,,,,,111,001,2023_May_31_1601,SpeechDraft1Carolyn_lessNoise_PlusLocalization,2021.2.3,59.97207040731814,
goose.wav,goose.mpg,goose,2,AV,Pink_Noise_2_1.wav,Pink_Noise_2_2.wav,,,,,,,,,,,,,,,0,108,108,84,,,,,,,,,,,,,,,,,,,,,,,1363.020973697,None,1364.5208866450002,None,1365.904294428,None,goose,1365.904294428,None,return,8.597716193999986,1365.9876187640002,None,,,,,,,,,,,,,,,,,,,,,,,,,,,,,,,,,,,,,,,111,001,2023_May_31_1601,SpeechDraft1Carolyn_lessNoise_PlusLocalization,2021.2.3,59.97207040731814,
swamp.wav,swamp.mpg,swamp,2,A,Pink_Noise_2_1.wav,Pink_Noise_2_2.wav,,,,,,,,,,,,,,,0,109,109,17,,,,,,,,,,,,,,,,,,,,,,,1374.6042891830002,None,1376.104322221,None,1377.4878253380002,None,swan,1377.4878253380002,None,return,6.174303101999612,1377.5710229980004,None,,,,,,,,,,,,,,,,,,,,,,,,,,,,,,,,,,,,,,,111,001,2023_May_31_1601,SpeechDraft1Carolyn_lessNoise_PlusLocalization,2021.2.3,59.97207040731814,
wine.wav,wine.mpg,wine,1,AV,Pink_Noise_1_1.wav,Pink_Noise_1_2.wav,,,,,,,,,,,,,,,0,110,110,98,,,,,,,,,,,,,,,,,,,,,,,1383.7709971650002,None,1385.2710970900007,None,1386.6543007999999,None,"wine
",1386.6543007999999,None,return,4.719566436000605,1386.737759744,None,,,,,,,,,,,,,,,,,,,,,,,,,,,,,,,,,,,,,,,111,001,2023_May_31_1601,SpeechDraft1Carolyn_lessNoise_PlusLocalization,2021.2.3,59.97207040731814,
bleak.wav,bleak.mpg,bleak,4,A,Pink_Noise_4_1.wav,Pink_Noise_4_2.wav,,,,,,,,,,,,,,,0,111,111,15,,,,,,,,,,,,,,,,,,,,,,,1391.4877378340007,None,1392.9877707599999,None,1394.3711283270004,None,weak,1394.3711283270004,None,return,10.498807525999837,1394.4545989690005,None,,,,,,,,,,,,,,,,,,,,,,,,,,,,,,,,,,,,,,,111,001,2023_May_31_1601,SpeechDraft1Carolyn_lessNoise_PlusLocalization,2021.2.3,59.97207040731814,
fence.wav,fence.mpg,fence,3,AV,Pink_Noise_3_1.wav,Pink_Noise_3_2.wav,,,,,,,,,,,,,,,0,112,112,107,,,,,,,,,,,,,,,,,,,,,,,1404.9711045130007,None,1406.471094521,None,1407.8542614730004,None,fence,1407.8542614730004,None,return,7.007402860000184,1407.9379120440008,None,,,,,,,,,,,,,,,,,,,,,,,,,,,,,,,,,,,,,,,111,001,2023_May_31_1601,SpeechDraft1Carolyn_lessNoise_PlusLocalization,2021.2.3,59.97207040731814,
fade.wav,fade.mpg,fade,6,AV,Pink_Noise_6_1.wav,Pink_Noise_6_2.wav,,,,,,,,,,,,,,,0,113,113,93,,,,,,,,,,,,,,,,,,,,,,,1414.9709863010003,None,1416.470927722,None,1417.8542771500006,None,"fame
",1417.8542771500006,None,return,4.119608506999612,1417.937728813,None,,,,,,,,,,,,,,,,,,,,,,,,,,,,,,,,,,,,,,,111,001,2023_May_31_1601,SpeechDraft1Carolyn_lessNoise_PlusLocalization,2021.2.3,59.97207040731814,
dead.wav,dead.mpg,dead,2,A,Pink_Noise_2_1.wav,Pink_Noise_2_2.wav,,,,,,,,,,,,,,,0,114,114,2,,,,,,,,,,,,,,,,,,,,,,,1422.0878887070003,None,1423.5877259950003,None,1424.9712816380006,None,dead,1424.9712816380006,None,return,2.538883788000021,1425.0545661730002,None,,,,,,,,,,,,,,,,,,,,,,,,,,,,,,,,,,,,,,,111,001,2023_May_31_1601,SpeechDraft1Carolyn_lessNoise_PlusLocalization,2021.2.3,59.97207040731814,
ease.wav,ease.mpg,ease,5,A,Pink_Noise_5_1.wav,Pink_Noise_5_2.wav,,,,,,,,,,,,,,,0,115,115,50,,,,,,,,,,,,,,,,,,,,,,,1427.6210344800002,None,1429.121049071,None,1430.5044806080004,None,breeze,1430.5044806080004,None,return,5.197501667999859,1430.5878782,None,,,,,,,,,,,,,,,,,,,,,,,,,,,,,,,,,,,,,,,111,001,2023_May_31_1601,SpeechDraft1Carolyn_lessNoise_PlusLocalization,2021.2.3,59.97207040731814,
claim.wav,claim.mpg,claim,3,AV,Pink_Noise_3_1.wav,Pink_Noise_3_2.wav,,,,,,,,,,,,,,,0,116,116,64,,,,,,,,,,,,,,,,,,,,,,,1435.804493994,None,1437.3041796840007,None,1438.6879257400005,None,"claim
",1438.6879257400005,None,return,3.9180846520002888,1438.7712516720003,None,,,,,,,,,,,,,,,,,,,,,,,,,,,,,,,,,,,,,,,111,001,2023_May_31_1601,SpeechDraft1Carolyn_lessNoise_PlusLocalization,2021.2.3,59.97207040731814,
drab.wav,drab.mpg,drab,6,AV,Pink_Noise_6_1.wav,Pink_Noise_6_2.wav,,,,,,,,,,,,,,,0,117,117,78,,,,,,,,,,,,,,,,,,,,,,,1442.7210191000004,None,1444.2208607080001,None,1445.604386602,None,dime,1445.604386602,None,return,9.241608903999804,1445.6876996400006,None,,,,,,,,,,,,,,,,,,,,,,,,,,,,,,,,,,,,,,,111,001,2023_May_31_1601,SpeechDraft1Carolyn_lessNoise_PlusLocalization,2021.2.3,59.97207040731814,
block.wav,block.mpg,block,1,A,Pink_Noise_1_1.wav,Pink_Noise_1_2.wav,,,,,,,,,,,,,,,0,118,118,24,,,,,,,,,,,,,,,,,,,,,,,1454.9544517940003,None,1456.4546852550002,None,1457.8379275790003,None,luck,1457.8379275790003,None,return,4.824334275999718,1457.921026682,None,,,,,,,,,,,,,,,,,,,,,,,,,,,,,,,,,,,,,,,111,001,2023_May_31_1601,SpeechDraft1Carolyn_lessNoise_PlusLocalization,2021.2.3,59.97207040731814,
dine.wav,dine.mpg,dine,5,A,Pink_Noise_5_1.wav,Pink_Noise_5_2.wav,,,,,,,,,,,,,,,0,119,119,26,,,,,,,,,,,,,,,,,,,,,,,1462.7712396010002,None,1464.2712786890006,None,1465.654380688,None,flowers,1465.654380688,None,return,8.847299308999936,1465.738036758,None,,,,,,,,,,,,,,,,,,,,,,,,,,,,,,,,,,,,,,,111,001,2023_May_31_1601,SpeechDraft1Carolyn_lessNoise_PlusLocalization,2021.2.3,59.97207040731814,
,,,,,,,,,,,,,,,,,,,,,,,,,,,,,,,,,,,,,,,,,,,,,,,,,,,,,,,,,,,,,,,,,,space,23.257593057000122,1474.6877347690006,None,,,,,,,,,,,,,,,,,,,,,,,,,,,,,111,001,2023_May_31_1601,SpeechDraft1Carolyn_lessNoise_PlusLocalization,2021.2.3,59.97207040731814,
,,,,,,,,nearLeft,-6.5,1,ch1Sound_localizationTask.wav,-6.5,"(857, 878)","(-103,-202)",-95,-338,,,,,,,,,0,0,0,2,,,,,,,,,,,,,,,,,,,,,,,,,,,,,,,,,,,,,,,,,,1474.6877347690006,None,1497.9877490320005,None,1499.0876309300002,None,1500.0211204140005,None,1.1428571428571428,3.320437872000184,1500.0211204140005,None,,,,,,,,,,,,,,,,,111,001,2023_May_31_1601,SpeechDraft1Carolyn_lessNoise_PlusLocalization,2021.2.3,59.97207040731814,
,,,,,,,,midLeft,-13.0,2,ch1Sound_localizationTask.wav,-13.0,"(762, 878)","(-198,-202)",-190,-338,,,,,,,,,0,1,1,1,,,,,,,,,,,,,,,,,,,,,,,,,,,,,,,,,,,,,,,,,,,,1503.3377453540006,None,1504.4375778630001,None,1505.3709623660006,None,1.115873015873016,1.41644806199929,1505.3709623660006,None,,,,,,,,,,,,,,,,,111,001,2023_May_31_1601,SpeechDraft1Carolyn_lessNoise_PlusLocalization,2021.2.3,59.97207040731814,
,,,,,,,,midLeft,-13.0,2,ch1Sound_localizationTask.wav,-13.0,"(762, 878)","(-198,-202)",-190,-338,,,,,,,,,0,2,2,1,,,,,,,,,,,,,,,,,,,,,,,,,,,,,,,,,,,,,,,,,,,,1506.7882625560005,None,1507.8875949010007,None,1508.821141841,None,1.1761904761904762,2.7328721620006036,1508.821141841,None,,,,,,,,,,,,,,,,,111,001,2023_May_31_1601,SpeechDraft1Carolyn_lessNoise_PlusLocalization,2021.2.3,59.97207040731814,
,,,,,,,,nearLeft,-6.5,1,ch1Sound_localizationTask.wav,-6.5,"(857, 878)","(-103,-202)",-95,-338,,,,,,,,,0,3,3,2,,,,,,,,,,,,,,,,,,,,,,,,,,,,,,,,,,,,,,,,,,,,1511.554456494,None,1512.6543726520003,None,1513.5876905840005,None,1.1714285714285715,1.9829433740005697,1513.5876905840005,None,,,,,,,,,,,,,,,,,111,001,2023_May_31_1601,SpeechDraft1Carolyn_lessNoise_PlusLocalization,2021.2.3,59.97207040731814,
,,,,,,,,midLeft,-13.0,2,ch1Sound_localizationTask.wav,-13.0,"(762, 878)","(-198,-202)",-190,-338,,,,,,,,,0,4,4,1,,,,,,,,,,,,,,,,,,,,,,,,,,,,,,,,,,,,,,,,,,,,1515.5711659220005,None,1516.6710430410003,None,1517.604573558,None,1.0582010582010581,1.8326527359995453,1517.604573558,None,,,,,,,,,,,,,,,,,111,001,2023_May_31_1601,SpeechDraft1Carolyn_lessNoise_PlusLocalization,2021.2.3,59.97207040731814,
,,,,,,,,midRight,13.0,3,ch1Sound_localizationTask.wav,13.0,"(1142, 878)","(182, -202)",190,-338,,,,,,,,,0,5,5,5,,,,,,,,,,,,,,,,,,,,,,,,,,,,,,,,,,,,,,,,,,,,1519.4378223350004,None,1520.5375962410008,None,1521.4713405420007,None,1.6047619047619048,2.2831482700003107,1521.4713405420007,None,,,,,,,,,,,,,,,,,111,001,2023_May_31_1601,SpeechDraft1Carolyn_lessNoise_PlusLocalization,2021.2.3,59.97207040731814,
,,,,,,,,farRight,19.1,4,ch1Sound_localizationTask.wav,19.1,"(1237, 878)","(277,-202)",285,-338,,,,,,,,,0,6,6,6,,,,,,,,,,,,,,,,,,,,,,,,,,,,,,,,,,,,,,,,,,,,1523.754785737,None,1524.8544888040005,None,1525.7877632690006,None,1.6894179894179895,0.9157547650002016,1525.7877632690006,None,,,,,,,,,,,,,,,,,111,001,2023_May_31_1601,SpeechDraft1Carolyn_lessNoise_PlusLocalization,2021.2.3,59.97207040731814,
,,,,,,,,nearRight,6.5,0,ch1Sound_localizationTask.wav,6.5,"(1047, 878)","(87, -202)",95,-338,,,,,,,,,1,0,7,4,,,,,,,,,,,,,,,,,,,,,,,,,,,,,,,,,,,,,,,,,,,,1526.7044671090007,None,1527.8042541710001,None,1528.737730979,None,1.3835978835978837,0.9996241569997437,1528.737730979,None,,,,,,,,,,,,,,,,,111,001,2023_May_31_1601,SpeechDraft1Carolyn_lessNoise_PlusLocalization,2021.2.3,59.97207040731814,
,,,,,,,,center,0.0,6,ch1Sound_localizationTask.wav,0.0,"(952, 878)","(-8,-202)",0,-338,,,,,,,,,1,1,8,3,,,,,,,,,,,,,,,,,,,,,,,,,,,,,,,,,,,,,,,,,,,,1529.7392087400003,None,1530.8378434310007,None,1531.7711392810006,None,1.3650793650793651,1.0166163839994624,1531.7711392810006,None,,,,,,,,,,,,,,,,,111,001,2023_May_31_1601,SpeechDraft1Carolyn_lessNoise_PlusLocalization,2021.2.3,59.97207040731814,
,,,,,,,,nearLeft,-6.5,1,ch1Sound_localizationTask.wav,-6.5,"(857, 878)","(-103,-202)",-95,-338,,,,,,,,,1,2,9,2,,,,,,,,,,,,,,,,,,,,,,,,,,,,,,,,,,,,,,,,,,,,1532.7880700800006,None,1533.8877321720001,None,1534.8212163890003,None,1.2756613756613757,1.5835157929996058,1534.8212163890003,None,,,,,,,,,,,,,,,,,111,001,2023_May_31_1601,SpeechDraft1Carolyn_lessNoise_PlusLocalization,2021.2.3,59.97207040731814,
,,,,,,,,midRight,13.0,3,ch1Sound_localizationTask.wav,13.0,"(1142, 878)","(182, -202)",190,-338,,,,,,,,,1,3,10,5,,,,,,,,,,,,,,,,,,,,,,,,,,,,,,,,,,,,,,,,,,,,1536.404576211,None,1537.504656905,None,1538.4377290380007,None,1.625925925925926,1.1168582029995378,1538.4377290380007,None,,,,,,,,,,,,,,,,,111,001,2023_May_31_1601,SpeechDraft1Carolyn_lessNoise_PlusLocalization,2021.2.3,59.97207040731814,
,,,,,,,,farRight,19.1,4,ch1Sound_localizationTask.wav,19.1,"(1237, 878)","(277,-202)",285,-338,,,,,,,,,1,4,11,6,,,,,,,,,,,,,,,,,,,,,,,,,,,,,,,,,,,,,,,,,,,,1539.5714145400007,None,1540.6709358570006,None,1541.6047642780004,None,1.8158730158730159,1.4820773130004454,1541.6047642780004,None,,,,,,,,,,,,,,,,,111,001,2023_May_31_1601,SpeechDraft1Carolyn_lessNoise_PlusLocalization,2021.2.3,59.97207040731814,
,,,,,,,,farLeft,-19.1,5,ch1Sound_localizationTask.wav,-19.1,"(667, 878)","(-293,-202)",-285,-338,,,,,,,,,1,5,12,0,,,,,,,,,,,,,,,,,,,,,,,,,,,,,,,,,,,,,,,,,,,,1543.0880811630004,None,1544.1876495100005,None,1545.1213296160004,None,1.0312169312169313,1.9161275369997384,1545.1213296160004,None,,,,,,,,,,,,,,,,,111,001,2023_May_31_1601,SpeechDraft1Carolyn_lessNoise_PlusLocalization,2021.2.3,59.97207040731814,
,,,,,,,,nearRight,6.5,0,ch1Sound_localizationTask.wav,6.5,"(1047, 878)","(87, -202)",95,-338,,,,,,,,,1,6,13,4,,,,,,,,,,,,,,,,,,,,,,,,,,,,,,,,,,,,,,,,,,,,1547.0381399220005,None,1548.1378676800005,None,1549.0711841940001,None,1.5195767195767196,1.2659326240000155,1549.0711841940001,None,,,,,,,,,,,,,,,,,111,001,2023_May_31_1601,SpeechDraft1Carolyn_lessNoise_PlusLocalization,2021.2.3,59.97207040731814,
,,,,,,,,midRight,13.0,3,ch1Sound_localizationTask.wav,13.0,"(1142, 878)","(182, -202)",190,-338,,,,,,,,,2,0,14,5,,,,,,,,,,,,,,,,,,,,,,,,,,,,,,,,,,,,,,,,,,,,1550.3385442150002,None,1551.437673202,None,1552.3711757260007,None,1.6243386243386242,1.0667746469998747,1552.3711757260007,None,,,,,,,,,,,,,,,,,111,001,2023_May_31_1601,SpeechDraft1Carolyn_lessNoise_PlusLocalization,2021.2.3,59.97207040731814,
,,,,,,,,farRight,19.1,4,ch1Sound_localizationTask.wav,19.1,"(1237, 878)","(277,-202)",285,-338,,,,,,,,,2,1,15,6,,,,,,,,,,,,,,,,,,,,,,,,,,,,,,,,,,,,,,,,,,,,1553.437897666,None,1554.537670068,None,1555.4711524800005,None,1.7306878306878306,1.0997550209995097,1555.4711524800005,None,,,,,,,,,,,,,,,,,111,001,2023_May_31_1601,SpeechDraft1Carolyn_lessNoise_PlusLocalization,2021.2.3,59.97207040731814,
,,,,,,,,farLeft,-19.1,5,ch1Sound_localizationTask.wav,-19.1,"(667, 878)","(-293,-202)",-285,-338,,,,,,,,,2,2,16,0,,,,,,,,,,,,,,,,,,,,,,,,,,,,,,,,,,,,,,,,,,,,1556.5714090260008,None,1557.6711354810004,None,1558.6045109530005,None,1.1238095238095238,1.7501820400002543,1558.6045109530005,None,,,,,,,,,,,,,,,,,111,001,2023_May_31_1601,SpeechDraft1Carolyn_lessNoise_PlusLocalization,2021.2.3,59.97207040731814,
,,,,,,,,center,0.0,6,ch1Sound_localizationTask.wav,0.0,"(952, 878)","(-8,-202)",0,-338,,,,,,,,,2,3,17,3,,,,,,,,,,,,,,,,,,,,,,,,,,,,,,,,,,,,,,,,,,,,1560.3552980090008,None,1561.454390772,None,1562.3880004600005,None,1.6312169312169313,3.332190541000273,1562.3880004600005,None,,,,,,,,,,,,,,,,,111,001,2023_May_31_1601,SpeechDraft1Carolyn_lessNoise_PlusLocalization,2021.2.3,59.97207040731814,
,,,,,,,,farLeft,-19.1,5,ch1Sound_localizationTask.wav,-19.1,"(667, 878)","(-293,-202)",-285,-338,,,,,,,,,2,4,18,0,,,,,,,,,,,,,,,,,,,,,,,,,,,,,,,,,,,,,,,,,,,,1565.7215157780001,None,1566.821310372,None,1567.7543743610004,None,1.1074074074074074,1.2994994830005453,1567.7543743610004,None,,,,,,,,,,,,,,,,,111,001,2023_May_31_1601,SpeechDraft1Carolyn_lessNoise_PlusLocalization,2021.2.3,59.97207040731814,
,,,,,,,,nearLeft,-6.5,1,ch1Sound_localizationTask.wav,-6.5,"(857, 878)","(-103,-202)",-95,-338,,,,,,,,,2,5,19,2,,,,,,,,,,,,,,,,,,,,,,,,,,,,,,,,,,,,,,,,,,,,1569.0547014880003,None,1570.1543192970003,None,1571.0879328760002,None,1.2793650793650793,0.8997650789997351,1571.0879328760002,None,,,,,,,,,,,,,,,,,111,001,2023_May_31_1601,SpeechDraft1Carolyn_lessNoise_PlusLocalization,2021.2.3,59.97207040731814,
,,,,,,,,farLeft,-19.1,5,ch1Sound_localizationTask.wav,-19.1,"(667, 878)","(-293,-202)",-285,-338,,,,,,,,,2,6,20,0,,,,,,,,,,,,,,,,,,,,,,,,,,,,,,,,,,,,,,,,,,,,1571.9883338180007,None,1573.087565291,None,1574.0211173240004,None,1.1291005291005292,1.2324207510000633,1574.0211173240004,None,,,,,,,,,,,,,,,,,111,001,2023_May_31_1601,SpeechDraft1Carolyn_lessNoise_PlusLocalization,2021.2.3,59.97207040731814,
,,,,,,,,midRight,13.0,3,ch1Sound_localizationTask.wav,13.0,"(1142, 878)","(182, -202)",190,-338,,,,,,,,,3,0,21,5,,,,,,,,,,,,,,,,,,,,,,,,,,,,,,,,,,,,,,,,,,,,1575.254827459,None,1576.3544096360001,None,1577.2877593080002,None,1.66984126984127,1.3667406489994391,1577.2877593080002,None,,,,,,,,,,,,,,,,,111,001,2023_May_31_1601,SpeechDraft1Carolyn_lessNoise_PlusLocalization,2021.2.3,59.97207040731814,
,,,,,,,,midRight,13.0,3,ch1Sound_localizationTask.wav,13.0,"(1142, 878)","(182, -202)",190,-338,,,,,,,,,3,1,22,5,,,,,,,,,,,,,,,,,,,,,,,,,,,,,,,,,,,,,,,,,,,,1578.6549004520002,None,1579.7544973900003,None,1580.6880840250005,None,1.6973544973544974,1.1000516610001796,1580.6880840250005,None,,,,,,,,,,,,,,,,,111,001,2023_May_31_1601,SpeechDraft1Carolyn_lessNoise_PlusLocalization,2021.2.3,59.97207040731814,
,,,,,,,,center,0.0,6,ch1Sound_localizationTask.wav,0.0,"(952, 878)","(-8,-202)",0,-338,,,,,,,,,3,2,23,3,,,,,,,,,,,,,,,,,,,,,,,,,,,,,,,,,,,,,,,,,,,,1581.8046810390006,None,1582.9047770550005,None,1583.8377043589999,None,1.3052910052910054,1.2987163490006424,1583.8377043589999,None,,,,,,,,,,,,,,,,,111,001,2023_May_31_1601,SpeechDraft1Carolyn_lessNoise_PlusLocalization,2021.2.3,59.97207040731814,
,,,,,,,,center,0.0,6,ch1Sound_localizationTask.wav,0.0,"(952, 878)","(-8,-202)",0,-338,,,,,,,,,3,3,24,3,,,,,,,,,,,,,,,,,,,,,,,,,,,,,,,,,,,,,,,,,,,,1585.1380869100003,None,1586.2378019110001,None,1587.1711999400004,None,1.4502645502645501,0.865818503999435,1587.1711999400004,None,,,,,,,,,,,,,,,,,111,001,2023_May_31_1601,SpeechDraft1Carolyn_lessNoise_PlusLocalization,2021.2.3,59.97207040731814,
,,,,,,,,midRight,13.0,3,ch1Sound_localizationTask.wav,13.0,"(1142, 878)","(182, -202)",190,-338,,,,,,,,,3,4,25,5,,,,,,,,,,,,,,,,,,,,,,,,,,,,,,,,,,,,,,,,,,,,1588.0390421920001,None,1589.137738243,None,1590.0712775270003,None,1.632804232804233,0.7656850650000706,1590.0712775270003,None,,,,,,,,,,,,,,,,,111,001,2023_May_31_1601,SpeechDraft1Carolyn_lessNoise_PlusLocalization,2021.2.3,59.97207040731814,
,,,,,,,,nearRight,6.5,0,ch1Sound_localizationTask.wav,6.5,"(1047, 878)","(87, -202)",95,-338,,,,,,,,,3,5,26,4,,,,,,,,,,,,,,,,,,,,,,,,,,,,,,,,,,,,,,,,,,,,1590.8381230780005,None,1591.937653733,None,1592.871308793,None,1.4947089947089947,0.9335482440001215,1592.871308793,None,,,,,,,,,,,,,,,,,111,001,2023_May_31_1601,SpeechDraft1Carolyn_lessNoise_PlusLocalization,2021.2.3,59.97207040731814,
,,,,,,,,midLeft,-13.0,2,ch1Sound_localizationTask.wav,-13.0,"(762, 878)","(-198,-202)",-190,-338,,,,,,,,,3,6,27,1,,,,,,,,,,,,,,,,,,,,,,,,,,,,,,,,,,,,,,,,,,,,1593.8046136120001,None,1594.904450334,None,1595.8378096780007,None,1.2571428571428571,0.799332245000187,1595.8378096780007,None,,,,,,,,,,,,,,,,,111,001,2023_May_31_1601,SpeechDraft1Carolyn_lessNoise_PlusLocalization,2021.2.3,59.97207040731814,
,,,,,,,,midLeft,-13.0,2,ch1Sound_localizationTask.wav,-13.0,"(762, 878)","(-198,-202)",-190,-338,,,,,,,,,4,0,28,1,,,,,,,,,,,,,,,,,,,,,,,,,,,,,,,,,,,,,,,,,,,,1596.638089387,None,1597.7378847650007,None,1598.6711635450001,None,1.2433862433862433,0.9818065350000325,1598.6711635450001,None,,,,,,,,,,,,,,,,,111,001,2023_May_31_1601,SpeechDraft1Carolyn_lessNoise_PlusLocalization,2021.2.3,59.97207040731814,
,,,,,,,,nearRight,6.5,0,ch1Sound_localizationTask.wav,6.5,"(1047, 878)","(87, -202)",95,-338,,,,,,,,,4,1,29,4,,,,,,,,,,,,,,,,,,,,,,,,,,,,,,,,,,,,,,,,,,,,1599.654574661,None,1600.7546778189999,None,1601.6878436610004,None,1.502116402116402,1.5322896070001661,1601.6878436610004,None,,,,,,,,,,,,,,,,,111,001,2023_May_31_1601,SpeechDraft1Carolyn_lessNoise_PlusLocalization,2021.2.3,59.97207040731814,
,,,,,,,,center,0.0,6,ch1Sound_localizationTask.wav,0.0,"(952, 878)","(-8,-202)",0,-338,,,,,,,,,4,2,30,3,,,,,,,,,,,,,,,,,,,,,,,,,,,,,,,,,,,,,,,,,,,,1603.221303032,None,1604.3214445160002,None,1605.254572848,None,1.4587301587301587,0.8679228359997069,1605.254572848,None,,,,,,,,,,,,,,,,,111,001,2023_May_31_1601,SpeechDraft1Carolyn_lessNoise_PlusLocalization,2021.2.3,59.97207040731814,
,,,,,,,,farRight,19.1,4,ch1Sound_localizationTask.wav,19.1,"(1237, 878)","(277,-202)",285,-338,,,,,,,,,4,3,31,6,,,,,,,,,,,,,,,,,,,,,,,,,,,,,,,,,,,,,,,,,,,,1606.13797445,None,1607.2378778580005,None,1608.1711277500008,None,1.5952380952380953,1.03302690000055,1608.1711277500008,None,,,,,,,,,,,,,,,,,111,001,2023_May_31_1601,SpeechDraft1Carolyn_lessNoise_PlusLocalization,2021.2.3,59.97207040731814,
,,,,,,,,center,0.0,6,ch1Sound_localizationTask.wav,0.0,"(952, 878)","(-8,-202)",0,-338,,,,,,,,,4,4,32,3,,,,,,,,,,,,,,,,,,,,,,,,,,,,,,,,,,,,,,,,,,,,1609.2046858530002,None,1610.304596727,None,1611.2379185170003,None,1.5084656084656085,2.1822811219999494,1611.2379185170003,None,,,,,,,,,,,,,,,,,111,001,2023_May_31_1601,SpeechDraft1Carolyn_lessNoise_PlusLocalization,2021.2.3,59.97207040731814,
,,,,,,,,nearLeft,-6.5,1,ch1Sound_localizationTask.wav,-6.5,"(857, 878)","(-103,-202)",-95,-338,,,,,,,,,4,5,33,2,,,,,,,,,,,,,,,,,,,,,,,,,,,,,,,,,,,,,,,,,,,,1613.421289809,None,1614.5210576670006,None,1615.4547588260002,None,1.3878306878306879,0.8002502549998098,1615.4547588260002,None,,,,,,,,,,,,,,,,,111,001,2023_May_31_1601,SpeechDraft1Carolyn_lessNoise_PlusLocalization,2021.2.3,59.97207040731814,
,,,,,,,,nearLeft,-6.5,1,ch1Sound_localizationTask.wav,-6.5,"(857, 878)","(-103,-202)",-95,-338,,,,,,,,,4,6,34,2,,,,,,,,,,,,,,,,,,,,,,,,,,,,,,,,,,,,,,,,,,,,1616.2546140499999,None,1617.3544221770007,None,1618.2876296700006,None,1.319047619047619,1.0492167079992214,1618.2876296700006,None,,,,,,,,,,,,,,,,,111,001,2023_May_31_1601,SpeechDraft1Carolyn_lessNoise_PlusLocalization,2021.2.3,59.97207040731814,
,,,,,,,,farLeft,-19.1,5,ch1Sound_localizationTask.wav,-19.1,"(667, 878)","(-293,-202)",-285,-338,,,,,,,,,5,0,35,0,,,,,,,,,,,,,,,,,,,,,,,,,,,,,,,,,,,,,,,,,,,,1619.3381518180004,None,1620.4378879680007,None,1621.3712375630002,None,1.173015873015873,0.948931765999987,1621.3712375630002,None,,,,,,,,,,,,,,,,,111,001,2023_May_31_1601,SpeechDraft1Carolyn_lessNoise_PlusLocalization,2021.2.3,59.97207040731814,
,,,,,,,,nearRight,6.5,0,ch1Sound_localizationTask.wav,6.5,"(1047, 878)","(87, -202)",95,-338,,,,,,,,,5,1,36,4,,,,,,,,,,,,,,,,,,,,,,,,,,,,,,,,,,,,,,,,,,,,1622.3213368890001,None,1623.421206033,None,1624.3544301050006,None,1.5211640211640212,1.3166264190003858,1624.3544301050006,None,,,,,,,,,,,,,,,,,111,001,2023_May_31_1601,SpeechDraft1Carolyn_lessNoise_PlusLocalization,2021.2.3,59.97207040731814,
,,,,,,,,farRight,19.1,4,ch1Sound_localizationTask.wav,19.1,"(1237, 878)","(277,-202)",285,-338,,,,,,,,,5,2,37,6,,,,,,,,,,,,,,,,,,,,,,,,,,,,,,,,,,,,,,,,,,,,1625.6713597420003,None,1626.7712948380004,None,1627.7043155400006,None,1.5783068783068783,1.1002571070002887,1627.7043155400006,None,,,,,,,,,,,,,,,,,111,001,2023_May_31_1601,SpeechDraft1Carolyn_lessNoise_PlusLocalization,2021.2.3,59.97207040731814,
,,,,,,,,midLeft,-13.0,2,ch1Sound_localizationTask.wav,-13.0,"(762, 878)","(-198,-202)",-190,-338,,,,,,,,,5,3,38,1,,,,,,,,,,,,,,,,,,,,,,,,,,,,,,,,,,,,,,,,,,,,1628.8213030280003,None,1629.9214646220007,None,1630.8542796340007,None,1.16984126984127,1.3343423880005503,1630.8542796340007,None,,,,,,,,,,,,,,,,,111,001,2023_May_31_1601,SpeechDraft1Carolyn_lessNoise_PlusLocalization,2021.2.3,59.97207040731814,
,,,,,,,,nearRight,6.5,0,ch1Sound_localizationTask.wav,6.5,"(1047, 878)","(87, -202)",95,-338,,,,,,,,,5,4,39,4,,,,,,,,,,,,,,,,,,,,,,,,,,,,,,,,,,,,,,,,,,,,1632.204769002,None,1633.3043642800003,None,1634.237859932,None,1.5042328042328044,1.6994653769997967,1634.237859932,None,,,,,,,,,,,,,,,,,111,001,2023_May_31_1601,SpeechDraft1Carolyn_lessNoise_PlusLocalization,2021.2.3,59.97207040731814,
,,,,,,,,center,0.0,6,ch1Sound_localizationTask.wav,0.0,"(952, 878)","(-8,-202)",0,-338,,,,,,,,,5,5,40,3,,,,,,,,,,,,,,,,,,,,,,,,,,,,,,,,,,,,,,,,,,,,1635.9381404200003,None,1637.0382258939999,None,1637.971024548,None,1.4666666666666668,0.8321375220002665,1637.971024548,None,,,,,,,,,,,,,,,,,111,001,2023_May_31_1601,SpeechDraft1Carolyn_lessNoise_PlusLocalization,2021.2.3,59.97207040731814,
,,,,,,,,farLeft,-19.1,5,ch1Sound_localizationTask.wav,-19.1,"(667, 878)","(-293,-202)",-285,-338,,,,,,,,,5,6,41,0,,,,,,,,,,,,,,,,,,,,,,,,,,,,,,,,,,,,,,,,,,,,1638.8050556910002,None,1639.90442988,None,1640.8377281890007,None,1.2243386243386243,0.8998326379996797,1640.8377281890007,None,,,,,,,,,,,,,,,,,111,001,2023_May_31_1601,SpeechDraft1Carolyn_lessNoise_PlusLocalization,2021.2.3,59.97207040731814,
,,,,,,,,center,0.0,6,ch1Sound_localizationTask.wav,0.0,"(952, 878)","(-8,-202)",0,-338,,,,,,,,,6,0,42,3,,,,,,,,,,,,,,,,,,,,,,,,,,,,,,,,,,,,,,,,,,,,1641.738839527,None,1642.837893291,None,1643.7713237040007,None,1.4661375661375662,1.2958928870002637,1643.7713237040007,None,,,,,,,,,,,,,,,,,111,001,2023_May_31_1601,SpeechDraft1Carolyn_lessNoise_PlusLocalization,2021.2.3,59.97207040731814,
,,,,,,,,midLeft,-13.0,2,ch1Sound_localizationTask.wav,-13.0,"(762, 878)","(-198,-202)",-190,-338,,,,,,,,,6,1,43,1,,,,,,,,,,,,,,,,,,,,,,,,,,,,,,,,,,,,,,,,,,,,1645.0713373730005,None,1646.171309462,None,1647.1048643080003,None,1.2492063492063492,1.532364733000577,1647.1048643080003,None,,,,,,,,,,,,,,,,,111,001,2023_May_31_1601,SpeechDraft1Carolyn_lessNoise_PlusLocalization,2021.2.3,59.97207040731814,
,,,,,,,,farLeft,-19.1,5,ch1Sound_localizationTask.wav,-19.1,"(667, 878)","(-293,-202)",-285,-338,,,,,,,,,6,2,44,0,,,,,,,,,,,,,,,,,,,,,,,,,,,,,,,,,,,,,,,,,,,,1648.638352719,None,1649.737706629,None,1650.6713706690007,None,1.1841269841269841,1.1318069450007897,1650.6713706690007,None,,,,,,,,,,,,,,,,,111,001,2023_May_31_1601,SpeechDraft1Carolyn_lessNoise_PlusLocalization,2021.2.3,59.97207040731814,
,,,,,,,,farRight,19.1,4,ch1Sound_localizationTask.wav,19.1,"(1237, 878)","(277,-202)",285,-338,,,,,,,,,6,3,45,6,,,,,,,,,,,,,,,,,,,,,,,,,,,,,,,,,,,,,,,,,,,,1651.8047210180002,None,1652.9045150390002,None,1653.8378384780008,None,1.748148148148148,1.3838110450005843,1653.8378384780008,None,,,,,,,,,,,,,,,,,111,001,2023_May_31_1601,SpeechDraft1Carolyn_lessNoise_PlusLocalization,2021.2.3,59.97207040731814,
,,,,,,,,nearRight,6.5,0,ch1Sound_localizationTask.wav,6.5,"(1047, 878)","(87, -202)",95,-338,,,,,,,,,6,4,46,4,,,,,,,,,,,,,,,,,,,,,,,,,,,,,,,,,,,,,,,,,,,,1655.2222759570004,None,1656.321160171,None,1657.254725158,None,1.5010582010582012,1.566985334000492,1657.254725158,None,,,,,,,,,,,,,,,,,111,001,2023_May_31_1601,SpeechDraft1Carolyn_lessNoise_PlusLocalization,2021.2.3,59.97207040731814,
,,,,,,,,nearLeft,-6.5,1,ch1Sound_localizationTask.wav,-6.5,"(857, 878)","(-103,-202)",-95,-338,,,,,,,,,6,5,47,2,,,,,,,,,,,,,,,,,,,,,,,,,,,,,,,,,,,,,,,,,,,,1658.8213464720002,None,1659.9211510150008,None,1660.8543762610007,None,1.3174603174603174,1.1660835040001984,1660.8543762610007,None,,,,,,,,,,,,,,,,,111,001,2023_May_31_1601,SpeechDraft1Carolyn_lessNoise_PlusLocalization,2021.2.3,59.97207040731814,
,,,,,,,,farLeft,-19.1,5,ch1Sound_localizationTask.wav,-19.1,"(667, 878)","(-293,-202)",-285,-338,,,,,,,,,6,6,48,0,,,,,,,,,,,,,,,,,,,,,,,,,,,,,,,,,,,,,,,,,,,,1662.0216234010004,None,1663.120966892,None,1664.054516096,None,1.3005291005291006,1.5335145189992545,1664.054516096,None,,,,,,,,,,,,,,,,,111,001,2023_May_31_1601,SpeechDraft1Carolyn_lessNoise_PlusLocalization,2021.2.3,59.97207040731814,
,,,,,,,,nearRight,6.5,0,ch1Sound_localizationTask.wav,6.5,"(1047, 878)","(87, -202)",95,-338,,,,,,,,,7,0,49,4,,,,,,,,,,,,,,,,,,,,,,,,,,,,,,,,,,,,,,,,,,,,1665.588173477,None,1666.687927,None,1667.621277542,None,1.5735449735449736,1.200853033000385,1667.621277542,None,,,,,,,,,,,,,,,,,111,001,2023_May_31_1601,SpeechDraft1Carolyn_lessNoise_PlusLocalization,2021.2.3,59.97207040731814,
,,,,,,,,midRight,13.0,3,ch1Sound_localizationTask.wav,13.0,"(1142, 878)","(182, -202)",190,-338,,,,,,,,,7,1,50,5,,,,,,,,,,,,,,,,,,,,,,,,,,,,,,,,,,,,,,,,,,,,1668.821401442,None,1669.9211550770005,None,1670.85485169,None,1.502116402116402,0.8828959590000522,1670.85485169,None,,,,,,,,,,,,,,,,,111,001,2023_May_31_1601,SpeechDraft1Carolyn_lessNoise_PlusLocalization,2021.2.3,59.97207040731814,
,,,,,,,,nearLeft,-6.5,1,ch1Sound_localizationTask.wav,-6.5,"(857, 878)","(-103,-202)",-95,-338,,,,,,,,,7,2,51,2,,,,,,,,,,,,,,,,,,,,,,,,,,,,,,,,,,,,,,,,,,,,1671.7387691650001,None,1672.8381872770005,None,1673.7713136310003,None,1.355026455026455,1.1664521440006865,1673.7713136310003,None,,,,,,,,,,,,,,,,,111,001,2023_May_31_1601,SpeechDraft1Carolyn_lessNoise_PlusLocalization,2021.2.3,59.97207040731814,
,,,,,,,,midLeft,-13.0,2,ch1Sound_localizationTask.wav,-13.0,"(762, 878)","(-198,-202)",-190,-338,,,,,,,,,7,3,52,1,,,,,,,,,,,,,,,,,,,,,,,,,,,,,,,,,,,,,,,,,,,,1674.937935299,None,1676.0377006830004,None,1676.9714101320005,None,1.3380952380952382,1.1159773580002366,1676.9714101320005,None,,,,,,,,,,,,,,,,,111,001,2023_May_31_1601,SpeechDraft1Carolyn_lessNoise_PlusLocalization,2021.2.3,59.97207040731814,
,,,,,,,,farRight,19.1,4,ch1Sound_localizationTask.wav,19.1,"(1237, 878)","(277,-202)",285,-338,,,,,,,,,7,4,53,6,,,,,,,,,,,,,,,,,,,,,,,,,,,,,,,,,,,,,,,,,,,,1678.0881868320002,None,1679.1881023220003,None,1680.1215638040003,None,1.6597883597883598,1.7001203449999593,1680.1215638040003,None,,,,,,,,,,,,,,,,,111,001,2023_May_31_1601,SpeechDraft1Carolyn_lessNoise_PlusLocalization,2021.2.3,59.97207040731814,
,,,,,,,,midRight,13.0,3,ch1Sound_localizationTask.wav,13.0,"(1142, 878)","(182, -202)",190,-338,,,,,,,,,7,5,54,5,,,,,,,,,,,,,,,,,,,,,,,,,,,,,,,,,,,,,,,,,,,,1681.8213752170004,None,1682.9211475950005,None,1683.8546481250005,None,1.506878306878307,1.0843195730003572,1683.8546481250005,None,,,,,,,,,,,,,,,,,111,001,2023_May_31_1601,SpeechDraft1Carolyn_lessNoise_PlusLocalization,2021.2.3,59.97207040731814,
,,,,,,,,farRight,19.1,4,ch1Sound_localizationTask.wav,19.1,"(1237, 878)","(277,-202)",285,-338,,,,,,,,,7,6,55,6,,,,,,,,,,,,,,,,,,,,,,,,,,,,,,,,,,,,,,,,,,,,1684.9382715390002,None,1686.037889137,None,1686.9713801970001,None,1.657142857142857,1.0167660409997552,1686.9713801970001,None,,,,,,,,,,,,,,,,,111,001,2023_May_31_1601,SpeechDraft1Carolyn_lessNoise_PlusLocalization,2021.2.3,59.97207040731814,
,,,,,,,,,,,,,,,,,,,,,,,,,,,,,,,,,,,,,,,,,,,,,,,,,,,,,,,,,,,,,,,,,,,,,,,,,,,,,,,,,,space,15.64170594799998,1688.071615895,None,,,,,,,,,,,,,111,001,2023_May_31_1601,SpeechDraft1Carolyn_lessNoise_PlusLocalization,2021.2.3,59.97207040731814,
,,,,,,,,midRight,13.0,3,ch1Sound_localizationTask.wav,13.0,"(1142, 878)","(182, -202)",190,-338,,,,,,,,,,,,,0,0,0,5,,,,,,,,,,,,,,,,,,,,,,,,,,,,,,,,,,,,,,,,1703.7548815680002,None,,,1706.772315968,None,1.6142857142857143,1.1201392599996325,1706.772315968,None,,,,,1688.071615895,None,1704.754901972,None,1704.9381984760003,1704.9546980260002,,,,,,,111,001,2023_May_31_1601,SpeechDraft1Carolyn_lessNoise_PlusLocalization,2021.2.3,59.97207040731814,
,,,,,,,,farRight,19.1,4,ch1Sound_localizationTask.wav,19.1,"(1237, 878)","(277,-202)",285,-338,,,,,,,,,,,,,0,1,1,6,,,,,,,,,,,,,,,,,,,,,,,,,,,,,,,,,,,,,,,,1707.9047958210003,None,,,1710.9213631250004,None,1.656084656084656,1.2833113719998437,1710.9213631250004,None,,,,,,,1708.9046875630002,None,1709.088135633,1709.1046906430001,,,,,,,111,001,2023_May_31_1601,SpeechDraft1Carolyn_lessNoise_PlusLocalization,2021.2.3,59.97207040731814,
,,,,,,,,nearLeft,-6.5,1,ch1Sound_localizationTask.wav,-6.5,"(857, 878)","(-103,-202)",-95,-338,,,,,,,,,,,,,0,2,2,2,,,,,,,,,,,,,,,,,,,,,,,,,,,,,,,,,,,,,,,,1712.20532044,None,,,1715.2214686440002,None,1.4306878306878308,1.2641014340006222,1715.2214686440002,None,,,,,,,1713.2049668710006,None,1713.388163746,1713.405004409,,,,,,,111,001,2023_May_31_1601,SpeechDraft1Carolyn_lessNoise_PlusLocalization,2021.2.3,59.97207040731814,
,,,,,,,,nearLeft,-6.5,1,ch1Sound_localizationTask.wav,-6.5,"(857, 878)","(-103,-202)",-95,-338,,,,,,,,,,,,,0,3,3,2,,,,,,,,,,,,,,,,,,,,,,,,,,,,,,,,,,,,,,,,1716.4882918410003,None,,,1719.504496648,None,1.452910052910053,0.8982202039996992,1719.504496648,None,,,,,,,1717.4882148260003,None,1717.6714380090007,1717.6881968390007,,,,,,,111,001,2023_May_31_1601,SpeechDraft1Carolyn_lessNoise_PlusLocalization,2021.2.3,59.97207040731814,
,,,,,,,,nearLeft,-6.5,1,ch1Sound_localizationTask.wav,-6.5,"(857, 878)","(-103,-202)",-95,-338,,,,,,,,,,,,,0,4,4,2,,,,,,,,,,,,,,,,,,,,,,,,,,,,,,,,,,,,,,,,1720.4048874250002,None,,,1723.4212624340007,None,1.4587301587301587,1.1657362120004109,1723.4212624340007,None,,,,,,,1721.4050554000005,None,1721.5880646000005,1721.6047619130004,,,,,,,111,001,2023_May_31_1601,SpeechDraft1Carolyn_lessNoise_PlusLocalization,2021.2.3,59.97207040731814,
,,,,,,,,midRight,13.0,3,ch1Sound_localizationTask.wav,13.0,"(1142, 878)","(182, -202)",190,-338,,,,,,,,,,,,,0,5,5,5,,,,,,,,,,,,,,,,,,,,,,,,,,,,,,,,,,,,,,,,1724.5883368660006,None,,,1727.6046295590004,None,1.6179894179894179,1.3336728310005128,1727.6046295590004,None,,,,,,,1725.588088177,None,1725.7714449780005,1725.7881021550002,,,,,,,111,001,2023_May_31_1601,SpeechDraft1Carolyn_lessNoise_PlusLocalization,2021.2.3,59.97207040731814,
,,,,,,,,nearRight,6.5,0,ch1Sound_localizationTask.wav,6.5,"(1047, 878)","(87, -202)",95,-338,,,,,,,,,,,,,0,6,6,4,,,,,,,,,,,,,,,,,,,,,,,,,,,,,,,,,,,,,,,,1728.9384993740005,None,,,1731.9547366430006,None,1.5571428571428572,0.8987825269996392,1731.9547366430006,None,,,,,,,1729.938392952,None,1730.1215527330005,1730.1381168840007,,,,,,,111,001,2023_May_31_1601,SpeechDraft1Carolyn_lessNoise_PlusLocalization,2021.2.3,59.97207040731814,
,,,,,,,,midRight,13.0,3,ch1Sound_localizationTask.wav,13.0,"(1142, 878)","(182, -202)",190,-338,,,,,,,,,,,,,1,0,7,5,,,,,,,,,,,,,,,,,,,,,,,,,,,,,,,,,,,,,,,,1732.8549543830004,None,,,1735.8716952700006,None,1.6238095238095238,1.1495994449996942,1735.8716952700006,None,,,,,,,1733.8548116420006,None,1734.0386531070008,1734.0548042440005,,,,,,,111,001,2023_May_31_1601,SpeechDraft1Carolyn_lessNoise_PlusLocalization,2021.2.3,59.97207040731814,
,,,,,,,,midRight,13.0,3,ch1Sound_localizationTask.wav,13.0,"(1142, 878)","(182, -202)",190,-338,,,,,,,,,,,,,1,1,8,5,,,,,,,,,,,,,,,,,,,,,,,,,,,,,,,,,,,,,,,,1737.0214576360004,None,,,1740.038066614,None,1.6227513227513226,0.8314394010003525,1740.038066614,None,,,,,,,1738.0215028430002,None,1738.205039046,1738.2214576510005,,,,,,,111,001,2023_May_31_1601,SpeechDraft1Carolyn_lessNoise_PlusLocalization,2021.2.3,59.97207040731814,
,,,,,,,,midLeft,-13.0,2,ch1Sound_localizationTask.wav,-13.0,"(762, 878)","(-198,-202)",-190,-338,,,,,,,,,,,,,1,2,9,1,,,,,,,,,,,,,,,,,,,,,,,,,,,,,,,,,,,,,,,,1740.8715291970002,None,,,1743.8880168300002,None,1.433862433862434,0.9000621509994744,1743.8880168300002,None,,,,,,,1741.8715288110006,None,1742.0550623690006,1742.071576288,,,,,,,111,001,2023_May_31_1601,SpeechDraft1Carolyn_lessNoise_PlusLocalization,2021.2.3,59.97207040731814,
,,,,,,,,farRight,19.1,4,ch1Sound_localizationTask.wav,19.1,"(1237, 878)","(277,-202)",285,-338,,,,,,,,,,,,,1,3,10,6,,,,,,,,,,,,,,,,,,,,,,,,,,,,,,,,,,,,,,,,1744.7891934640002,None,,,1747.821483107,None,1.6746031746031746,1.0487248819999877,1747.821483107,None,,,,,,,1745.804848332,None,1745.9881286959999,1746.005189679,,,,,,,111,001,2023_May_31_1601,SpeechDraft1Carolyn_lessNoise_PlusLocalization,2021.2.3,59.97207040731814,
,,,,,,,,farRight,19.1,4,ch1Sound_localizationTask.wav,19.1,"(1237, 878)","(277,-202)",285,-338,,,,,,,,,,,,,1,4,11,6,,,,,,,,,,,,,,,,,,,,,,,,,,,,,,,,,,,,,,,,1748.8714411700003,None,,,1751.8878767590004,None,1.6735449735449737,0.94885695999983,1751.8878767590004,None,,,,,,,1749.8719169100004,None,1750.0553656060001,1750.0718687550007,,,,,,,111,001,2023_May_31_1601,SpeechDraft1Carolyn_lessNoise_PlusLocalization,2021.2.3,59.97207040731814,
,,,,,,,,farRight,19.1,4,ch1Sound_localizationTask.wav,19.1,"(1237, 878)","(277,-202)",285,-338,,,,,,,,,,,,,1,5,12,6,,,,,,,,,,,,,,,,,,,,,,,,,,,,,,,,,,,,,,,,1752.8383532070002,None,,,1755.8548522890005,None,1.6735449735449737,1.014564916999916,1755.8548522890005,None,,,,,,,1753.8380519950006,None,1754.0215318990004,1754.0381004170004,,,,,,,111,001,2023_May_31_1601,SpeechDraft1Carolyn_lessNoise_PlusLocalization,2021.2.3,59.97207040731814,
,,,,,,,,midLeft,-13.0,2,ch1Sound_localizationTask.wav,-13.0,"(762, 878)","(-198,-202)",-190,-338,,,,,,,,,,,,,1,6,13,1,,,,,,,,,,,,,,,,,,,,,,,,,,,,,,,,,,,,,,,,1756.8718211570003,None,,,1759.887974145,None,1.4153439153439153,1.3331354910005757,1759.887974145,None,,,,,,,1757.8717250160007,None,1758.0548239990003,1758.071431067,,,,,,,111,001,2023_May_31_1601,SpeechDraft1Carolyn_lessNoise_PlusLocalization,2021.2.3,59.97207040731814,
,,,,,,,,nearLeft,-6.5,1,ch1Sound_localizationTask.wav,-6.5,"(857, 878)","(-103,-202)",-95,-338,,,,,,,,,,,,,2,0,14,2,,,,,,,,,,,,,,,,,,,,,,,,,,,,,,,,,,,,,,,,1761.222875374,None,,,1764.2545011290003,None,1.4613756613756614,1.4996458430005077,1764.2545011290003,None,,,,,,,1762.2383325910005,None,1762.4215234050007,1762.438224255,,,,,,,111,001,2023_May_31_1601,SpeechDraft1Carolyn_lessNoise_PlusLocalization,2021.2.3,59.97207040731814,
,,,,,,,,farLeft,-19.1,5,ch1Sound_localizationTask.wav,-19.1,"(667, 878)","(-293,-202)",-285,-338,,,,,,,,,,,,,2,1,15,0,,,,,,,,,,,,,,,,,,,,,,,,,,,,,,,,,,,,,,,,1765.755043094,None,,,1768.7717253810006,None,1.3650793650793651,1.3819202439999572,1768.7717253810006,None,,,,,,,1766.755149007,None,1766.938168402,1766.9551536360004,,,,,,,111,001,2023_May_31_1601,SpeechDraft1Carolyn_lessNoise_PlusLocalization,2021.2.3,59.97207040731814,
,,,,,,,,midLeft,-13.0,2,ch1Sound_localizationTask.wav,-13.0,"(762, 878)","(-198,-202)",-190,-338,,,,,,,,,,,,,2,2,16,1,,,,,,,,,,,,,,,,,,,,,,,,,,,,,,,,,,,,,,,,1770.1551462650004,None,,,1773.1714385820005,None,1.428042328042328,0.766380735999519,1773.1714385820005,None,,,,,,,1771.154976664,None,1771.3385156020004,1771.3549462070005,,,,,,,111,001,2023_May_31_1601,SpeechDraft1Carolyn_lessNoise_PlusLocalization,2021.2.3,59.97207040731814,
,,,,,,,,center,0.0,6,ch1Sound_localizationTask.wav,0.0,"(952, 878)","(-8,-202)",0,-338,,,,,,,,,,,,,2,3,17,3,,,,,,,,,,,,,,,,,,,,,,,,,,,,,,,,,,,,,,,,1773.9394096550004,None,,,1776.9713954790004,None,1.5015873015873016,1.0671322809994308,1776.9713954790004,None,,,,,,,1774.9551218730003,None,1775.1383856090006,1775.155106831,,,,,,,111,001,2023_May_31_1601,SpeechDraft1Carolyn_lessNoise_PlusLocalization,2021.2.3,59.97207040731814,
,,,,,,,,farRight,19.1,4,ch1Sound_localizationTask.wav,19.1,"(1237, 878)","(277,-202)",285,-338,,,,,,,,,,,,,2,4,18,6,,,,,,,,,,,,,,,,,,,,,,,,,,,,,,,,,,,,,,,,1778.0387117740001,None,,,1781.055144205,None,1.6677248677248677,1.066040979000718,1781.055144205,None,,,,,,,1779.0382884320006,None,1779.2215654910005,1779.23820325,,,,,,,111,001,2023_May_31_1601,SpeechDraft1Carolyn_lessNoise_PlusLocalization,2021.2.3,59.97207040731814,
,,,,,,,,center,0.0,6,ch1Sound_localizationTask.wav,0.0,"(952, 878)","(-8,-202)",0,-338,,,,,,,,,,,,,2,5,19,3,,,,,,,,,,,,,,,,,,,,,,,,,,,,,,,,,,,,,,,,1782.1215873300007,None,,,1785.1380935480001,None,1.5010582010582012,1.2000387889993362,1785.1380935480001,None,,,,,,,1783.121474425,None,1783.3048259180005,1783.3215063920006,,,,,,,111,001,2023_May_31_1601,SpeechDraft1Carolyn_lessNoise_PlusLocalization,2021.2.3,59.97207040731814,
,,,,,,,,farLeft,-19.1,5,ch1Sound_localizationTask.wav,-19.1,"(667, 878)","(-293,-202)",-285,-338,,,,,,,,,,,,,2,6,20,0,,,,,,,,,,,,,,,,,,,,,,,,,,,,,,,,,,,,,,,,1786.3389483650008,None,,,1789.3547019900006,None,1.3878306878306879,1.1153128910000305,1789.3547019900006,None,,,,,,,1787.3384904120003,None,1787.521496763,1787.5385566670002,,,,,,,111,001,2023_May_31_1601,SpeechDraft1Carolyn_lessNoise_PlusLocalization,2021.2.3,59.97207040731814,
,,,,,,,,nearLeft,-6.5,1,ch1Sound_localizationTask.wav,-6.5,"(857, 878)","(-103,-202)",-95,-338,,,,,,,,,,,,,3,0,21,2,,,,,,,,,,,,,,,,,,,,,,,,,,,,,,,,,,,,,,,,1790.471766619,None,,,1793.4879787200007,None,1.4566137566137567,0.7824667610002507,1793.4879787200007,None,,,,,,,1791.4714557300003,None,1791.6548321230002,1791.6714930460003,,,,,,,111,001,2023_May_31_1601,SpeechDraft1Carolyn_lessNoise_PlusLocalization,2021.2.3,59.97207040731814,
,,,,,,,,nearRight,6.5,0,ch1Sound_localizationTask.wav,6.5,"(1047, 878)","(87, -202)",95,-338,,,,,,,,,,,,,3,1,22,4,,,,,,,,,,,,,,,,,,,,,,,,,,,,,,,,,,,,,,,,1794.2716408260003,None,,,1797.2881588360005,None,1.5687830687830688,1.0166898939996827,1797.2881588360005,None,,,,,,,1795.2715655270003,None,1795.4549113860003,1795.4714910100001,,,,,,,111,001,2023_May_31_1601,SpeechDraft1Carolyn_lessNoise_PlusLocalization,2021.2.3,59.97207040731814,
,,,,,,,,farLeft,-19.1,5,ch1Sound_localizationTask.wav,-19.1,"(667, 878)","(-293,-202)",-285,-338,,,,,,,,,,,,,3,2,23,0,,,,,,,,,,,,,,,,,,,,,,,,,,,,,,,,,,,,,,,,1798.305011763,None,,,1801.3212885570001,None,1.3497354497354497,1.1997719090004466,1801.3212885570001,None,,,,,,,1799.305163514,None,1799.4882332340003,1799.5051860640006,,,,,,,111,001,2023_May_31_1601,SpeechDraft1Carolyn_lessNoise_PlusLocalization,2021.2.3,59.97207040731814,
,,,,,,,,midLeft,-13.0,2,ch1Sound_localizationTask.wav,-13.0,"(762, 878)","(-198,-202)",-190,-338,,,,,,,,,,,,,3,3,24,1,,,,,,,,,,,,,,,,,,,,,,,,,,,,,,,,,,,,,,,,1802.53834044,None,,,1805.5548653610003,None,1.4121693121693122,1.4325936879995425,1805.5548653610003,None,,,,,,,1803.5383591340005,None,1803.72159732,1803.7383556960003,,,,,,,111,001,2023_May_31_1601,SpeechDraft1Carolyn_lessNoise_PlusLocalization,2021.2.3,59.97207040731814,
,,,,,,,,midLeft,-13.0,2,ch1Sound_localizationTask.wav,-13.0,"(762, 878)","(-198,-202)",-190,-338,,,,,,,,,,,,,3,4,25,1,,,,,,,,,,,,,,,,,,,,,,,,,,,,,,,,,,,,,,,,1806.9887805160006,None,,,1810.004824523,None,1.4216931216931217,1.1308614339995984,1810.004824523,None,,,,,,,1807.9882428010005,None,1808.1715515360002,1808.188493525,,,,,,,111,001,2023_May_31_1601,SpeechDraft1Carolyn_lessNoise_PlusLocalization,2021.2.3,59.97207040731814,
,,,,,,,,farLeft,-19.1,5,ch1Sound_localizationTask.wav,-19.1,"(667, 878)","(-293,-202)",-285,-338,,,,,,,,,,,,,3,5,26,0,,,,,,,,,,,,,,,,,,,,,,,,,,,,,,,,,,,,,,,,1811.1383710830005,None,,,1814.1547324809999,None,1.3592592592592592,1.366281546999744,1814.1547324809999,None,,,,,,,1812.138448748,None,1812.3215484370003,1812.338258973,,,,,,,111,001,2023_May_31_1601,SpeechDraft1Carolyn_lessNoise_PlusLocalization,2021.2.3,59.97207040731814,
,,,,,,,,center,0.0,6,ch1Sound_localizationTask.wav,0.0,"(952, 878)","(-8,-202)",0,-338,,,,,,,,,,,,,3,6,27,3,,,,,,,,,,,,,,,,,,,,,,,,,,,,,,,,,,,,,,,,1815.521847379,None,,,1818.5382791020002,None,1.5026455026455028,1.5835856200001217,1818.5382791020002,None,,,,,,,1816.5216260810002,None,1816.704950403,1816.7216665710002,,,,,,,111,001,2023_May_31_1601,SpeechDraft1Carolyn_lessNoise_PlusLocalization,2021.2.3,59.97207040731814,
,,,,,,,,farLeft,-19.1,5,ch1Sound_localizationTask.wav,-19.1,"(667, 878)","(-293,-202)",-285,-338,,,,,,,,,,,,,4,0,28,0,,,,,,,,,,,,,,,,,,,,,,,,,,,,,,,,,,,,,,,,1820.1217679780002,None,,,1823.1380817950003,None,1.353968253968254,1.081978109999909,1823.1380817950003,None,,,,,,,1821.1216206130002,None,1821.3048883090005,1821.3215518300003,,,,,,,111,001,2023_May_31_1601,SpeechDraft1Carolyn_lessNoise_PlusLocalization,2021.2.3,59.97207040731814,
,,,,,,,,nearRight,6.5,0,ch1Sound_localizationTask.wav,6.5,"(1047, 878)","(87, -202)",95,-338,,,,,,,,,,,,,4,1,29,4,,,,,,,,,,,,,,,,,,,,,,,,,,,,,,,,,,,,,,,,1824.2221486480003,None,,,1827.2382359270005,None,1.5465608465608467,1.231185115999324,1827.2382359270005,None,,,,,,,1825.2215588400004,None,1825.4051798,1825.421814972,,,,,,,111,001,2023_May_31_1601,SpeechDraft1Carolyn_lessNoise_PlusLocalization,2021.2.3,59.97207040731814,
,,,,,,,,midLeft,-13.0,2,ch1Sound_localizationTask.wav,-13.0,"(762, 878)","(-198,-202)",-190,-338,,,,,,,,,,,,,4,2,30,1,,,,,,,,,,,,,,,,,,,,,,,,,,,,,,,,,,,,,,,,1828.4717294910006,None,,,1831.487961918,None,1.4005291005291005,1.0492773300002227,1831.487961918,None,,,,,,,1829.4716058020003,None,1829.6551030130004,1829.6715622520005,,,,,,,111,001,2023_May_31_1601,SpeechDraft1Carolyn_lessNoise_PlusLocalization,2021.2.3,59.97207040731814,
,,,,,,,,midRight,13.0,3,ch1Sound_localizationTask.wav,13.0,"(1142, 878)","(182, -202)",190,-338,,,,,,,,,,,,,4,3,31,5,,,,,,,,,,,,,,,,,,,,,,,,,,,,,,,,,,,,,,,,1832.5383999980004,None,,,1835.555165146,None,1.6,1.148351289999482,1835.555165146,None,,,,,,,1833.5384244320003,None,1833.7218300020004,1833.7382254930008,,,,,,,111,001,2023_May_31_1601,SpeechDraft1Carolyn_lessNoise_PlusLocalization,2021.2.3,59.97207040731814,
,,,,,,,,center,0.0,6,ch1Sound_localizationTask.wav,0.0,"(952, 878)","(-8,-202)",0,-338,,,,,,,,,,,,,4,4,32,3,,,,,,,,,,,,,,,,,,,,,,,,,,,,,,,,,,,,,,,,1836.7049141500001,None,,,1839.721415807,None,1.5037037037037035,1.1150281559994255,1839.721415807,None,,,,,,,1837.705223332,None,1837.8882131050004,1837.9049318840007,,,,,,,111,001,2023_May_31_1601,SpeechDraft1Carolyn_lessNoise_PlusLocalization,2021.2.3,59.97207040731814,
,,,,,,,,farRight,19.1,4,ch1Sound_localizationTask.wav,19.1,"(1237, 878)","(277,-202)",285,-338,,,,,,,,,,,,,4,5,33,6,,,,,,,,,,,,,,,,,,,,,,,,,,,,,,,,,,,,,,,,1840.8384885720006,None,,,1843.8546712450006,None,1.624867724867725,1.0656320410007538,1843.8546712450006,None,,,,,,,1841.838310657,None,1842.0216607660004,1842.0382810310002,,,,,,,111,001,2023_May_31_1601,SpeechDraft1Carolyn_lessNoise_PlusLocalization,2021.2.3,59.97207040731814,
,,,,,,,,farLeft,-19.1,5,ch1Sound_localizationTask.wav,-19.1,"(667, 878)","(-293,-202)",-285,-338,,,,,,,,,,,,,4,6,34,0,,,,,,,,,,,,,,,,,,,,,,,,,,,,,,,,,,,,,,,,1844.9218586100005,None,,,1847.938069379,None,1.344973544973545,1.466634632000023,1847.938069379,None,,,,,,,1845.9215856910005,None,1846.1048674700005,1846.121638439,,,,,,,111,001,2023_May_31_1601,SpeechDraft1Carolyn_lessNoise_PlusLocalization,2021.2.3,59.97207040731814,
,,,,,,,,nearRight,6.5,0,ch1Sound_localizationTask.wav,6.5,"(1047, 878)","(87, -202)",95,-338,,,,,,,,,,,,,5,0,35,4,,,,,,,,,,,,,,,,,,,,,,,,,,,,,,,,,,,,,,,,1849.4059842060005,None,,,1852.421488508,None,1.5793650793650795,0.9658316400000331,1852.421488508,None,,,,,,,1850.4051828050005,None,1850.5882993260002,1850.60510995,,,,,,,111,001,2023_May_31_1601,SpeechDraft1Carolyn_lessNoise_PlusLocalization,2021.2.3,59.97207040731814,
,,,,,,,,nearRight,6.5,0,ch1Sound_localizationTask.wav,6.5,"(1047, 878)","(87, -202)",95,-338,,,,,,,,,,,,,5,1,36,4,,,,,,,,,,,,,,,,,,,,,,,,,,,,,,,,,,,,,,,,1853.3883437970007,None,,,1856.4050505290006,None,1.5502645502645502,1.1495336730004055,1856.4050505290006,None,,,,,,,1854.388340222,None,1854.571805007,1854.5882624510004,,,,,,,111,001,2023_May_31_1601,SpeechDraft1Carolyn_lessNoise_PlusLocalization,2021.2.3,59.97207040731814,
,,,,,,,,midRight,13.0,3,ch1Sound_localizationTask.wav,13.0,"(1142, 878)","(182, -202)",190,-338,,,,,,,,,,,,,5,2,37,5,,,,,,,,,,,,,,,,,,,,,,,,,,,,,,,,,,,,,,,,1857.5552615010001,None,,,1860.5717614989999,None,1.6201058201058203,0.9997103870000501,1860.5717614989999,None,,,,,,,1858.555005489,None,1858.7384667470005,1858.7550734160004,,,,,,,111,001,2023_May_31_1601,SpeechDraft1Carolyn_lessNoise_PlusLocalization,2021.2.3,59.97207040731814,
,,,,,,,,nearRight,6.5,0,ch1Sound_localizationTask.wav,6.5,"(1047, 878)","(87, -202)",95,-338,,,,,,,,,,,,,5,3,38,4,,,,,,,,,,,,,,,,,,,,,,,,,,,,,,,,,,,,,,,,1861.5716002210002,None,,,1864.588184579,None,1.561904761904762,1.0998020419992827,1864.588184579,None,,,,,,,1862.5718577750004,None,1862.7549887350006,1862.7718591900002,,,,,,,111,001,2023_May_31_1601,SpeechDraft1Carolyn_lessNoise_PlusLocalization,2021.2.3,59.97207040731814,
,,,,,,,,nearRight,6.5,0,ch1Sound_localizationTask.wav,6.5,"(1047, 878)","(87, -202)",95,-338,,,,,,,,,,,,,5,4,39,4,,,,,,,,,,,,,,,,,,,,,,,,,,,,,,,,,,,,,,,,1865.6889555349999,None,,,1868.7048710340005,None,1.552910052910053,0.949801474999731,1868.7048710340005,None,,,,,,,1866.6884049440005,None,1866.8718179800007,1866.8884486910001,,,,,,,111,001,2023_May_31_1601,SpeechDraft1Carolyn_lessNoise_PlusLocalization,2021.2.3,59.97207040731814,
,,,,,,,,nearLeft,-6.5,1,ch1Sound_localizationTask.wav,-6.5,"(857, 878)","(-103,-202)",-95,-338,,,,,,,,,,,,,5,5,40,2,,,,,,,,,,,,,,,,,,,,,,,,,,,,,,,,,,,,,,,,1869.6573580150007,None,,,1872.6883581780003,None,1.4544973544973545,1.1144712759996764,1872.6883581780003,None,,,,,,,1870.671698837,None,1870.8552010760004,1870.8718101680006,,,,,,,111,001,2023_May_31_1601,SpeechDraft1Carolyn_lessNoise_PlusLocalization,2021.2.3,59.97207040731814,
,,,,,,,,midLeft,-13.0,2,ch1Sound_localizationTask.wav,-13.0,"(762, 878)","(-198,-202)",-190,-338,,,,,,,,,,,,,5,6,41,1,,,,,,,,,,,,,,,,,,,,,,,,,,,,,,,,,,,,,,,,1873.8051950540003,None,,,1876.8216050720002,None,1.403174603174603,1.448862776000169,1876.8216050720002,None,,,,,,,1874.8052481560007,None,1874.9882881860003,1875.0049827580006,,,,,,,111,001,2023_May_31_1601,SpeechDraft1Carolyn_lessNoise_PlusLocalization,2021.2.3,59.97207040731814,
,,,,,,,,midRight,13.0,3,ch1Sound_localizationTask.wav,13.0,"(1142, 878)","(182, -202)",190,-338,,,,,,,,,,,,,6,0,42,5,,,,,,,,,,,,,,,,,,,,,,,,,,,,,,,,,,,,,,,,1878.2716756270001,None,,,1881.2881635940003,None,1.6084656084656084,1.215160716000355,1881.2881635940003,None,,,,,,,1879.2718624180006,None,1879.4550320690005,1879.471817353,,,,,,,111,001,2023_May_31_1601,SpeechDraft1Carolyn_lessNoise_PlusLocalization,2021.2.3,59.97207040731814,
,,,,,,,,farRight,19.1,4,ch1Sound_localizationTask.wav,19.1,"(1237, 878)","(277,-202)",285,-338,,,,,,,,,,,,,6,1,43,6,,,,,,,,,,,,,,,,,,,,,,,,,,,,,,,,,,,,,,,,1882.5049672490004,None,,,1885.5216282330002,None,1.657142857142857,1.2988164179996602,1885.5216282330002,None,,,,,,,1883.504998583,None,1883.6882905890006,1883.7051547320007,,,,,,,111,001,2023_May_31_1601,SpeechDraft1Carolyn_lessNoise_PlusLocalization,2021.2.3,59.97207040731814,
,,,,,,,,nearLeft,-6.5,1,ch1Sound_localizationTask.wav,-6.5,"(857, 878)","(-103,-202)",-95,-338,,,,,,,,,,,,,6,2,44,2,,,,,,,,,,,,,,,,,,,,,,,,,,,,,,,,,,,,,,,,1886.8219147190002,None,,,1889.8382465610002,None,1.4671957671957672,1.0997445429993604,1889.8382465610002,None,,,,,,,1887.8219578180006,None,1888.005030718,1888.021693314,,,,,,,111,001,2023_May_31_1601,SpeechDraft1Carolyn_lessNoise_PlusLocalization,2021.2.3,59.97207040731814,
,,,,,,,,farLeft,-19.1,5,ch1Sound_localizationTask.wav,-19.1,"(667, 878)","(-293,-202)",-285,-338,,,,,,,,,,,,,6,3,45,0,,,,,,,,,,,,,,,,,,,,,,,,,,,,,,,,,,,,,,,,1890.955276453,None,,,1893.971730186,None,1.3714285714285714,1.768803492999723,1893.971730186,None,,,,,,,1891.9550123850004,None,1892.138289978,1892.1549789380006,,,,,,,111,001,2023_May_31_1601,SpeechDraft1Carolyn_lessNoise_PlusLocalization,2021.2.3,59.97207040731814,
,,,,,,,,nearLeft,-6.5,1,ch1Sound_localizationTask.wav,-6.5,"(857, 878)","(-103,-202)",-95,-338,,,,,,,,,,,,,6,4,46,2,,,,,,,,,,,,,,,,,,,,,,,,,,,,,,,,,,,,,,,,1895.755308369,None,,,1898.7716057080006,None,1.4544973544973545,1.166849989000184,1898.7716057080006,None,,,,,,,1896.755298225,None,1896.9386259620005,1896.9553767940006,,,,,,,111,001,2023_May_31_1601,SpeechDraft1Carolyn_lessNoise_PlusLocalization,2021.2.3,59.97207040731814,
,,,,,,,,farRight,19.1,4,ch1Sound_localizationTask.wav,19.1,"(1237, 878)","(277,-202)",285,-338,,,,,,,,,,,,,6,5,47,6,,,,,,,,,,,,,,,,,,,,,,,,,,,,,,,,,,,,,,,,1899.954947624,None,,,1902.9716534530007,None,1.673015873015873,1.2658960529997785,1902.9716534530007,None,,,,,,,1900.9551573340004,None,1901.1384524220002,1901.1550245580002,,,,,,,111,001,2023_May_31_1601,SpeechDraft1Carolyn_lessNoise_PlusLocalization,2021.2.3,59.97207040731814,
,,,,,,,,midRight,13.0,3,ch1Sound_localizationTask.wav,13.0,"(1142, 878)","(182, -202)",190,-338,,,,,,,,,,,,,6,6,48,5,,,,,,,,,,,,,,,,,,,,,,,,,,,,,,,,,,,,,,,,1904.2383601030006,None,,,1907.2552409150003,None,1.5825396825396827,1.015692670000135,1907.2552409150003,None,,,,,,,1905.2383496370003,None,1905.4220558490006,1905.438439472,,,,,,,111,001,2023_May_31_1601,SpeechDraft1Carolyn_lessNoise_PlusLocalization,2021.2.3,59.97207040731814,
,,,,,,,,center,0.0,6,ch1Sound_localizationTask.wav,0.0,"(952, 878)","(-8,-202)",0,-338,,,,,,,,,,,,,7,0,49,3,,,,,,,,,,,,,,,,,,,,,,,,,,,,,,,,,,,,,,,,1908.271842788,None,,,1911.2883273960006,None,1.492063492063492,1.8005652319998262,1911.2883273960006,None,,,,,,,1909.2719103570007,None,1909.4553721230004,1909.4716651950002,,,,,,,111,001,2023_May_31_1601,SpeechDraft1Carolyn_lessNoise_PlusLocalization,2021.2.3,59.97207040731814,
,,,,,,,,center,0.0,6,ch1Sound_localizationTask.wav,0.0,"(952, 878)","(-8,-202)",0,-338,,,,,,,,,,,,,7,1,50,3,,,,,,,,,,,,,,,,,,,,,,,,,,,,,,,,,,,,,,,,1913.1053184090006,None,,,1916.121709555,None,1.5132275132275133,1.4161033310001585,1916.121709555,None,,,,,,,1914.105154496,None,1914.2882936250007,1914.3051921740007,,,,,,,111,001,2023_May_31_1601,SpeechDraft1Carolyn_lessNoise_PlusLocalization,2021.2.3,59.97207040731814,
,,,,,,,,farLeft,-19.1,5,ch1Sound_localizationTask.wav,-19.1,"(667, 878)","(-293,-202)",-285,-338,,,,,,,,,,,,,7,2,51,0,,,,,,,,,,,,,,,,,,,,,,,,,,,,,,,,,,,,,,,,1917.5393241750007,None,,,1920.5549996790005,None,1.4179894179894181,1.702214482999807,1920.5549996790005,None,,,,,,,1918.538490805,None,1918.7218645060002,1918.7384147660005,,,,,,,111,001,2023_May_31_1601,SpeechDraft1Carolyn_lessNoise_PlusLocalization,2021.2.3,59.97207040731814,
,,,,,,,,center,0.0,6,ch1Sound_localizationTask.wav,0.0,"(952, 878)","(-8,-202)",0,-338,,,,,,,,,,,,,7,3,52,3,,,,,,,,,,,,,,,,,,,,,,,,,,,,,,,,,,,,,,,,1922.271881961,None,,,1925.2885090220007,None,1.517989417989418,1.2495855040006063,1925.2885090220007,None,,,,,,,1923.2718670120003,None,1923.4552630080007,1923.471671761,,,,,,,111,001,2023_May_31_1601,SpeechDraft1Carolyn_lessNoise_PlusLocalization,2021.2.3,59.97207040731814,
,,,,,,,,nearRight,6.5,0,ch1Sound_localizationTask.wav,6.5,"(1047, 878)","(87, -202)",95,-338,,,,,,,,,,,,,7,4,53,4,,,,,,,,,,,,,,,,,,,,,,,,,,,,,,,,,,,,,,,,1926.5390190450007,None,,,1929.5549962990008,None,1.566137566137566,1.2336573470001895,1929.5549962990008,None,,,,,,,1927.5385656910003,None,1927.7218006060002,1927.7384120400002,,,,,,,111,001,2023_May_31_1601,SpeechDraft1Carolyn_lessNoise_PlusLocalization,2021.2.3,59.97207040731814,
,,,,,,,,center,0.0,6,ch1Sound_localizationTask.wav,0.0,"(952, 878)","(-8,-202)",0,-338,,,,,,,,,,,,,7,5,54,3,,,,,,,,,,,,,,,,,,,,,,,,,,,,,,,,,,,,,,,,1930.7887609870004,None,,,1933.8050381700004,None,1.506878306878307,1.3000997850003841,1933.8050381700004,None,,,,,,,1931.788573883,None,1931.9718673160005,1931.9884649200003,,,,,,,111,001,2023_May_31_1601,SpeechDraft1Carolyn_lessNoise_PlusLocalization,2021.2.3,59.97207040731814,
,,,,,,,,midLeft,-13.0,2,ch1Sound_localizationTask.wav,-13.0,"(762, 878)","(-198,-202)",-190,-338,,,,,,,,,,,,,7,6,55,1,,,,,,,,,,,,,,,,,,,,,,,,,,,,,,,,,,,,,,,,1935.1055615770001,None,,,1938.1213586170006,None,1.4232804232804233,1.1505050189998656,1938.1213586170006,None,,,,,,,1936.1052576110005,None,1936.2884041790003,1936.3050722380003,,,,,,,111,001,2023_May_31_1601,SpeechDraft1Carolyn_lessNoise_PlusLocalization,2021.2.3,59.97207040731814,
,,,,,,,,,,,,,,,,,,,,,,,,,,,,,,,,,,,,,,,,,,,,,,,,,,,,,,,,,,,,,,,,,,,,,,,,,,,,,,,,,,,,,,,,,,,,1939.2732613850003,None,c,55.52218928899947,1940.2551736410005,None,111,001,2023_May_31_1601,SpeechDraft1Carolyn_lessNoise_PlusLocalization,2021.2.3,59.97207040731814,
