Audio_Only_Files,Video_Files,Original_Word_List,noiseLevelCode,conditionCodes,noiseLevelFile1,noiseLevelFile2,InstrTextVar,targetSpeakerName,targetSpeakerEccen,targetSpkrChannel,targetSpkrSound,targetVisualDegrees,visStimLoc,visStimLoc2,visStimW,visStimH,practiceTrials.thisRepN,practiceTrials.thisTrialN,practiceTrials.thisN,practiceTrials.thisIndex,trials.thisRepN,trials.thisTrialN,trials.thisN,trials.thisIndex,audLocalLoop.thisRepN,audLocalLoop.thisTrialN,audLocalLoop.thisN,audLocalLoop.thisIndex,visualLocalLoop.thisRepN,visualLocalLoop.thisTrialN,visualLocalLoop.thisN,visualLocalLoop.thisIndex,letsGoAlready.keys,letsGoAlready.rt,letsGoAlready.started,letsGoAlready.stopped,text_2.started,text_2.stopped,text_3.started,text_3.stopped,key_resp_2.keys,key_resp_2.rt,key_resp_2.started,key_resp_2.stopped,text_5.started,text_5.stopped,fixCross.started,fixCross.stopped,fixCross2.started,fixCross2.stopped,answerPrompt.started,answerPrompt.stopped,getAnswer.text,getAnswer.started,getAnswer.stopped,goToNext.keys,goToNext.rt,goToNext.started,goToNext.stopped,stretchBreakTxrt.started,stretchBreakTxrt.stopped,key_resp_3.keys,key_resp_3.rt,key_resp_3.started,key_resp_3.stopped,letsGoLocal.keys,letsGoLocal.rt,letsGoLocal.started,letsGoLocal.stopped,text_4.started,text_4.stopped,prepFixTxt.started,prepFixTxt.stopped,prepFixTxt_2.started,prepFixTxt_2.stopped,respPromptLocal.started,respPromptLocal.stopped,slider.response,slider.rt,slider.started,slider.stopped,letsGoLocal_2.keys,letsGoLocal_2.rt,letsGoLocal_2.started,letsGoLocal_2.stopped,text_7.started,text_7.stopped,prepFixTxt_3.started,prepFixTxt_3.stopped,grating.started,grating.stopped,participant,session,date,expName,psychopyVersion,frameRate,
,,,,,,,,,,,,,,,,,,,,,,,,,,,,,,,,,space,296.4646235450018,12.840320317998703,None,,,,,,,,,,,,,,,,,,,,,,,,,,,,,,,,,,,,,,,,,,,,,,,,,,,,,,,,114,001,2023_Jun_07_1456,SpeechDraft1Carolyn_lessNoise_PlusLocalization,2021.2.3,59.97514461972238,
,,,,,,,,,,,,,,,,,,,,,,,,,,,,,,,,,,,,,12.840320317998703,None,309.4239949820003,None,space,12.233916619999945,309.6070192900006,None,,,,,,,,,,,,,,,,,,,,,,,,,,,,,,,,,,,,,,,,,,,,,,,,114,001,2023_Jun_07_1456,SpeechDraft1Carolyn_lessNoise_PlusLocalization,2021.2.3,59.97514461972238,
ash.wav,ash.mpg,ash,1,A,Pink_Noise_1_1.wav,Pink_Noise_1_2.wav,"This is an example of an

AUDIO trial",,,,,,,,,,0,0,0,0,,,,,,,,,,,,,,,,,,,,,,,,,321.9069589299979,None,322.8906013880005,None,326.24017539299894,None,327.62379985699954,None,ash,327.62379985699954,None,return,4.293760680997366,327.7072072789997,None,,,,,,,,,,,,,,,,,,,,,,,,,,,,,,,,,114,001,2023_Jun_07_1456,SpeechDraft1Carolyn_lessNoise_PlusLocalization,2021.2.3,59.97514461972238,
ash.wav,ash.mpg,ash,1,AV,Pink_Noise_1_1.wav,Pink_Noise_1_2.wav,"This is an example of an

AUDIO + VIDEO  trial",,,,,,,,,,0,1,1,1,,,,,,,,,,,,,,,,,,,,,,,,,332.0403251079988,None,333.0404840689989,None,334.52353555399895,None,335.90696398399814,None,ash,335.90696398399814,None,return,1.2744949070001894,335.990431025999,None,,,,,,,,,,,,,,,,,,,,,,,,,,,,,,,,,114,001,2023_Jun_07_1456,SpeechDraft1Carolyn_lessNoise_PlusLocalization,2021.2.3,59.97514461972238,
,,,,,,,,,,,,,,,,,,,,,,,,,,,,,,,,,,,,,,,,,,,,,,,,,,,,,,,,,,,,337.3069023309981,None,space,1.1425073680002242,337.49041637199844,None,,,,,,,,,,,,,,,,,,,,,,,,,,,114,001,2023_Jun_07_1456,SpeechDraft1Carolyn_lessNoise_PlusLocalization,2021.2.3,59.97514461972238,
flog.wav,flog.mpg,flog,4,A,Pink_Noise_4_1.wav,Pink_Noise_4_2.wav,,,,,,,,,,,,,,,0,0,0,44,,,,,,,,,,,,,,,,,,,,,,,338.6902280229988,None,340.1735185469988,None,341.55713476099845,None,dog,341.55713476099845,None,return,4.296579462999944,341.6404428679998,None,,,,,,,,,,,,,,,,,,,,,,,,,,,,,,,,,114,001,2023_Jun_07_1456,SpeechDraft1Carolyn_lessNoise_PlusLocalization,2021.2.3,59.97514461972238,
draw.wav,draw.mpg,draw,5,A,Pink_Noise_5_1.wav,Pink_Noise_5_2.wav,,,,,,,,,,,,,,,0,1,1,0,,,,,,,,,,,,,,,,,,,,,,,345.95711702100016,None,347.45690611700047,None,348.8405167489982,None,dog,348.8405167489982,None,return,5.429211880997173,348.92375172899847,None,,,,,,,,,,,,,,,,,,,,,,,,,,,,,,,,,114,001,2023_Jun_07_1456,SpeechDraft1Carolyn_lessNoise_PlusLocalization,2021.2.3,59.97514461972238,
clap.wav,clap.mpg,clap,1,AV,Pink_Noise_1_1.wav,Pink_Noise_1_2.wav,,,,,,,,,,,,,,,0,2,2,79,,,,,,,,,,,,,,,,,,,,,,,354.3737841580005,None,355.8735631489981,None,357.25720591999925,None,clap,357.25720591999925,None,return,1.1406102440014365,357.3404525139995,None,,,,,,,,,,,,,,,,,,,,,,,,,,,,,,,,,114,001,2023_Jun_07_1456,SpeechDraft1Carolyn_lessNoise_PlusLocalization,2021.2.3,59.97514461972238,
dive.wav,dive.mpg,dive,3,AV,Pink_Noise_3_1.wav,Pink_Noise_3_2.wav,,,,,,,,,,,,,,,0,3,3,92,,,,,,,,,,,,,,,,,,,,,,,358.5071590949992,None,359.9903146159995,None,361.37369273999866,None,dive,361.37369273999866,None,return,0.8717958750021353,361.45716060599807,None,,,,,,,,,,,,,,,,,,,,,,,,,,,,,,,,,114,001,2023_Jun_07_1456,SpeechDraft1Carolyn_lessNoise_PlusLocalization,2021.2.3,59.97514461972238,
rent.wav,rent.mpg,rent,6,A,Pink_Noise_6_1.wav,Pink_Noise_6_2.wav,,,,,,,,,,,,,,,0,4,4,21,,,,,,,,,,,,,,,,,,,,,,,362.35715033499946,None,363.84177266799816,None,365.22377463799785,None,light,365.22377463799785,None,return,1.2298776589996123,365.3071682769987,None,,,,,,,,,,,,,,,,,,,,,,,,,,,,,,,,,114,001,2023_Jun_07_1456,SpeechDraft1Carolyn_lessNoise_PlusLocalization,2021.2.3,59.97514461972238,
goat.wav,goat.mpg,goat,3,AV,Pink_Noise_3_1.wav,Pink_Noise_3_2.wav,,,,,,,,,,,,,,,0,5,5,84,,,,,,,,,,,,,,,,,,,,,,,366.5571025749996,None,368.0569007419981,None,369.440495543,None,goat,369.440495543,None,return,0.9732131229975494,369.5237715999974,None,,,,,,,,,,,,,,,,,,,,,,,,,,,,,,,,,114,001,2023_Jun_07_1456,SpeechDraft1Carolyn_lessNoise_PlusLocalization,2021.2.3,59.97514461972238,
frog.wav,frog.mpg,frog,3,A,Pink_Noise_3_1.wav,Pink_Noise_3_2.wav,,,,,,,,,,,,,,,0,6,6,52,,,,,,,,,,,,,,,,,,,,,,,370.5237741029996,None,372.0069921709983,None,373.39043413299805,None,frog,373.39043413299805,None,return,1.0472428379980556,373.4737371379997,None,,,,,,,,,,,,,,,,,,,,,,,,,,,,,,,,,114,001,2023_Jun_07_1456,SpeechDraft1Carolyn_lessNoise_PlusLocalization,2021.2.3,59.97514461972238,
flaw.wav,flaw.mpg,flaw,2,AV,Pink_Noise_2_1.wav,Pink_Noise_2_2.wav,,,,,,,,,,,,,,,0,7,7,104,,,,,,,,,,,,,,,,,,,,,,,374.5405869919996,None,376.04021649199785,None,377.4239203819998,None,vla,377.4239203819998,None,return,3.0378395340012503,377.5071377589993,None,,,,,,,,,,,,,,,,,,,,,,,,,,,,,,,,,114,001,2023_Jun_07_1456,SpeechDraft1Carolyn_lessNoise_PlusLocalization,2021.2.3,59.97514461972238,
flex.wav,flex.mpg,flex,5,AV,Pink_Noise_5_1.wav,Pink_Noise_5_2.wav,,,,,,,,,,,,,,,0,8,8,71,,,,,,,,,,,,,,,,,,,,,,,380.5738339460004,None,382.0735627799986,None,383.4569348829973,None,ligh,383.4569348829973,None,return,2.8285098929991364,383.5404544089979,None,,,,,,,,,,,,,,,,,,,,,,,,,,,,,,,,,114,001,2023_Jun_07_1456,SpeechDraft1Carolyn_lessNoise_PlusLocalization,2021.2.3,59.97514461972238,
chant.wav,chant.mpg,chant,4,AV,Pink_Noise_4_1.wav,Pink_Noise_4_2.wav,,,,,,,,,,,,,,,0,9,9,91,,,,,,,,,,,,,,,,,,,,,,,386.3905587949994,None,387.8736804029977,None,389.2570641389975,None,chant,389.2570641389975,None,return,1.9404014160027145,389.3405820959997,None,,,,,,,,,,,,,,,,,,,,,,,,,,,,,,,,,114,001,2023_Jun_07_1456,SpeechDraft1Carolyn_lessNoise_PlusLocalization,2021.2.3,59.97514461972238,
drive.wav,drive.mpg,drive,4,A,Pink_Noise_4_1.wav,Pink_Noise_4_2.wav,,,,,,,,,,,,,,,0,10,10,53,,,,,,,,,,,,,,,,,,,,,,,391.3072159889998,None,392.79025639599786,None,394.1738339799995,None,drive,394.1738339799995,None,return,1.1597687570028938,394.25715425399903,None,,,,,,,,,,,,,,,,,,,,,,,,,,,,,,,,,114,001,2023_Jun_07_1456,SpeechDraft1Carolyn_lessNoise_PlusLocalization,2021.2.3,59.97514461972238,
cross.wav,cross.mpg,cross,3,AV,Pink_Noise_3_1.wav,Pink_Noise_3_2.wav,,,,,,,,,,,,,,,0,11,11,115,,,,,,,,,,,,,,,,,,,,,,,395.44051123999816,None,396.94021905099726,None,398.32393233199764,None,cross,398.32393233199764,None,return,2.913783862000855,398.4072293270001,None,,,,,,,,,,,,,,,,,,,,,,,,,,,,,,,,,114,001,2023_Jun_07_1456,SpeechDraft1Carolyn_lessNoise_PlusLocalization,2021.2.3,59.97514461972238,
fix.wav,fix.mpg,fix,1,A,Pink_Noise_1_1.wav,Pink_Noise_1_2.wav,,,,,,,,,,,,,,,0,12,12,6,,,,,,,,,,,,,,,,,,,,,,,401.3406058590008,None,402.82358308900075,None,404.207190410998,None,fix,404.207190410998,None,return,1.974414729000273,404.29050744399865,None,,,,,,,,,,,,,,,,,,,,,,,,,,,,,,,,,114,001,2023_Jun_07_1456,SpeechDraft1Carolyn_lessNoise_PlusLocalization,2021.2.3,59.97514461972238,
dull.wav,dull.mpg,dull,5,AV,Pink_Noise_5_1.wav,Pink_Noise_5_2.wav,,,,,,,,,,,,,,,0,13,13,73,,,,,,,,,,,,,,,,,,,,,,,406.29062229899864,None,407.790239654998,None,409.173875733999,None,gaurd,409.173875733999,None,return,2.0158631069971307,409.2571921529998,None,,,,,,,,,,,,,,,,,,,,,,,,,,,,,,,,,114,001,2023_Jun_07_1456,SpeechDraft1Carolyn_lessNoise_PlusLocalization,2021.2.3,59.97514461972238,
grow.wav,grow.mpg,grow,5,AV,Pink_Noise_5_1.wav,Pink_Noise_5_2.wav,,,,,,,,,,,,,,,0,14,14,114,,,,,,,,,,,,,,,,,,,,,,,411.29056855399904,None,412.7903573149997,None,414.1737887319978,None,"row
",414.1737887319978,None,return,0.9037247140004183,414.2572191920008,None,,,,,,,,,,,,,,,,,,,,,,,,,,,,,,,,,114,001,2023_Jun_07_1456,SpeechDraft1Carolyn_lessNoise_PlusLocalization,2021.2.3,59.97514461972238,
clip.wav,clip.mpg,clip,6,AV,Pink_Noise_6_1.wav,Pink_Noise_6_2.wav,,,,,,,,,,,,,,,0,15,15,60,,,,,,,,,,,,,,,,,,,,,,,415.1906669359996,None,416.67371366099906,None,418.0571820559999,None,clip,418.0571820559999,None,return,1.332455560001108,418.14057068799957,None,,,,,,,,,,,,,,,,,,,,,,,,,,,,,,,,,114,001,2023_Jun_07_1456,SpeechDraft1Carolyn_lessNoise_PlusLocalization,2021.2.3,59.97514461972238,
bell.wav,bell.mpg,bell,4,AV,Pink_Noise_4_1.wav,Pink_Noise_4_2.wav,,,,,,,,,,,,,,,0,16,16,86,,,,,,,,,,,,,,,,,,,,,,,419.4905028059984,None,420.97360521500013,None,422.3571500379985,None,bell,422.3571500379985,None,return,1.4163958339995588,422.4405794509985,None,,,,,,,,,,,,,,,,,,,,,,,,,,,,,,,,,114,001,2023_Jun_07_1456,SpeechDraft1Carolyn_lessNoise_PlusLocalization,2021.2.3,59.97514461972238,
count.wav,count.mpg,count,3,A,Pink_Noise_3_1.wav,Pink_Noise_3_2.wav,,,,,,,,,,,,,,,0,17,17,43,,,,,,,,,,,,,,,,,,,,,,,423.8738316579984,None,425.3570173249973,None,426.74050485599946,None,count,426.74050485599946,None,return,1.7450725769995188,426.8238555299977,None,,,,,,,,,,,,,,,,,,,,,,,,,,,,,,,,,114,001,2023_Jun_07_1456,SpeechDraft1Carolyn_lessNoise_PlusLocalization,2021.2.3,59.97514461972238,
dot.wav,dot.mpg,dot,3,AV,Pink_Noise_3_1.wav,Pink_Noise_3_2.wav,,,,,,,,,,,,,,,0,18,18,105,,,,,,,,,,,,,,,,,,,,,,,428.5904666669994,None,430.07362935999845,None,431.4571841459983,None,dot,431.4571841459983,None,return,0.9404646120019606,431.54052801599755,None,,,,,,,,,,,,,,,,,,,,,,,,,,,,,,,,,114,001,2023_Jun_07_1456,SpeechDraft1Carolyn_lessNoise_PlusLocalization,2021.2.3,59.97514461972238,
fly.wav,fly.mpg,fly,4,A,Pink_Noise_4_1.wav,Pink_Noise_4_2.wav,,,,,,,,,,,,,,,0,19,19,57,,,,,,,,,,,,,,,,,,,,,,,432.50728324599913,None,433.990283668998,None,435.37395630600076,None,fly,435.37395630600076,None,return,1.015904515999864,435.4571159859988,None,,,,,,,,,,,,,,,,,,,,,,,,,,,,,,,,,114,001,2023_Jun_07_1456,SpeechDraft1Carolyn_lessNoise_PlusLocalization,2021.2.3,59.97514461972238,
fake.wav,fake.mpg,fake,6,AV,Pink_Noise_6_1.wav,Pink_Noise_6_2.wav,,,,,,,,,,,,,,,0,20,20,70,,,,,,,,,,,,,,,,,,,,,,,436.49053664500025,None,437.9903026840002,None,439.3738802629996,None,"fake
",439.3738802629996,None,return,0.9357364009993034,439.4571889049985,None,,,,,,,,,,,,,,,,,,,,,,,,,,,,,,,,,114,001,2023_Jun_07_1456,SpeechDraft1Carolyn_lessNoise_PlusLocalization,2021.2.3,59.97514461972238,
cling.wav,cling.mpg,cling,2,A,Pink_Noise_2_1.wav,Pink_Noise_2_2.wav,,,,,,,,,,,,,,,0,21,21,32,,,,,,,,,,,,,,,,,,,,,,,440.4239063319983,None,441.90770554199844,None,443.2906470179987,None,cling,443.2906470179987,None,return,1.3230129690018657,443.3740951430009,None,,,,,,,,,,,,,,,,,,,,,,,,,,,,,,,,,114,001,2023_Jun_07_1456,SpeechDraft1Carolyn_lessNoise_PlusLocalization,2021.2.3,59.97514461972238,
pike.wav,pike.mpg,pike,1,AV,Pink_Noise_1_1.wav,Pink_Noise_1_2.wav,,,,,,,,,,,,,,,0,22,22,89,,,,,,,,,,,,,,,,,,,,,,,444.72398229600003,None,446.20699930299816,None,447.5905104019985,None,pike,447.5905104019985,None,return,1.055079570000089,447.67398668399983,None,,,,,,,,,,,,,,,,,,,,,,,,,,,,,,,,,114,001,2023_Jun_07_1456,SpeechDraft1Carolyn_lessNoise_PlusLocalization,2021.2.3,59.97514461972238,
chunk.wav,chunk.mpg,chunk,1,AV,Pink_Noise_1_1.wav,Pink_Noise_1_2.wav,,,,,,,,,,,,,,,0,23,23,103,,,,,,,,,,,,,,,,,,,,,,,448.75734315500085,None,450.2403784829985,None,451.62384004699925,None,chunk,451.62384004699925,None,return,1.6616250009974465,451.7073232490002,None,,,,,,,,,,,,,,,,,,,,,,,,,,,,,,,,,114,001,2023_Jun_07_1456,SpeechDraft1Carolyn_lessNoise_PlusLocalization,2021.2.3,59.97514461972238,
duet.wav,duet.mpg,duet,1,A,Pink_Noise_1_1.wav,Pink_Noise_1_2.wav,,,,,,,,,,,,,,,0,24,24,10,,,,,,,,,,,,,,,,,,,,,,,453.407096076,None,454.89104533499994,None,456.2739453100003,None,due,456.2739453100003,None,return,0.7556921290015453,456.35732291399836,None,,,,,,,,,,,,,,,,,,,,,,,,,,,,,,,,,114,001,2023_Jun_07_1456,SpeechDraft1Carolyn_lessNoise_PlusLocalization,2021.2.3,59.97514461972238,
birch.wav,birch.mpg,birch,3,A,Pink_Noise_3_1.wav,Pink_Noise_3_2.wav,,,,,,,,,,,,,,,0,25,25,33,,,,,,,,,,,,,,,,,,,,,,,457.14061669799776,None,458.64025163199767,None,460.02385915799823,None,birch,460.02385915799823,None,return,3.6456011810005293,460.10736016900046,None,,,,,,,,,,,,,,,,,,,,,,,,,,,,,,,,,114,001,2023_Jun_07_1456,SpeechDraft1Carolyn_lessNoise_PlusLocalization,2021.2.3,59.97514461972238,
bleed.wav,bleed.mpg,bleed,4,A,Pink_Noise_4_1.wav,Pink_Noise_4_2.wav,,,,,,,,,,,,,,,0,26,26,1,,,,,,,,,,,,,,,,,,,,,,,463.7739463170001,None,465.27376412399826,None,466.6572937460005,None,leave,466.6572937460005,None,return,1.1164152919991466,466.7405790949997,None,,,,,,,,,,,,,,,,,,,,,,,,,,,,,,,,,114,001,2023_Jun_07_1456,SpeechDraft1Carolyn_lessNoise_PlusLocalization,2021.2.3,59.97514461972238,
ask.wav,ask.mpg,ask,2,A,Pink_Noise_2_1.wav,Pink_Noise_2_2.wav,,,,,,,,,,,,,,,0,27,27,18,,,,,,,,,,,,,,,,,,,,,,,467.87391537000076,None,469.35701083800086,None,470.74131762899924,None,"ask
",470.74131762899924,None,return,0.7371097450013622,470.82381257499947,None,,,,,,,,,,,,,,,,,,,,,,,,,,,,,,,,,114,001,2023_Jun_07_1456,SpeechDraft1Carolyn_lessNoise_PlusLocalization,2021.2.3,59.97514461972238,
drunk.wav,drunk.mpg,drunk,1,AV,Pink_Noise_1_1.wav,Pink_Noise_1_2.wav,,,,,,,,,,,,,,,0,28,28,64,,,,,,,,,,,,,,,,,,,,,,,471.5906072439975,None,473.07389962600064,None,474.45728609399885,None,drunk,474.45728609399885,None,return,1.292267692999303,474.54066787400006,None,,,,,,,,,,,,,,,,,,,,,,,,,,,,,,,,,114,001,2023_Jun_07_1456,SpeechDraft1Carolyn_lessNoise_PlusLocalization,2021.2.3,59.97514461972238,
dump.wav,dump.mpg,dump,6,AV,Pink_Noise_6_1.wav,Pink_Noise_6_2.wav,,,,,,,,,,,,,,,0,29,29,85,,,,,,,,,,,,,,,,,,,,,,,475.85725868900045,None,477.34351220999815,None,478.7405562870008,None,dump,478.7405562870008,None,return,1.1928507890006586,478.82407546600007,None,,,,,,,,,,,,,,,,,,,,,,,,,,,,,,,,,114,001,2023_Jun_07_1456,SpeechDraft1Carolyn_lessNoise_PlusLocalization,2021.2.3,59.97514461972238,
priest.wav,priest.mpg,priest,3,A,Pink_Noise_3_1.wav,Pink_Noise_3_2.wav,,,,,,,,,,,,,,,0,30,30,47,,,,,,,,,,,,,,,,,,,,,,,480.04050487199856,None,481.52359059399896,None,482.90729485299744,None,"paste
",482.90729485299744,None,return,1.3863815869990503,482.99055043299813,None,,,,,,,,,,,,,,,,,,,,,,,,,,,,,,,,,114,001,2023_Jun_07_1456,SpeechDraft1Carolyn_lessNoise_PlusLocalization,2021.2.3,59.97514461972238,
pipe.wav,pipe.mpg,pipe,2,AV,Pink_Noise_2_1.wav,Pink_Noise_2_2.wav,,,,,,,,,,,,,,,0,31,31,94,,,,,,,,,,,,,,,,,,,,,,,484.4072393949973,None,485.8903273629985,None,487.2739495709975,None,"pipe
",487.2739495709975,None,return,1.0357137040009547,487.35721517300044,None,,,,,,,,,,,,,,,,,,,,,,,,,,,,,,,,,114,001,2023_Jun_07_1456,SpeechDraft1Carolyn_lessNoise_PlusLocalization,2021.2.3,59.97514461972238,
chart.wav,chart.mpg,chart,2,A,Pink_Noise_2_1.wav,Pink_Noise_2_2.wav,,,,,,,,,,,,,,,0,32,32,51,,,,,,,,,,,,,,,,,,,,,,,488.42404056399755,None,489.9071013299981,None,491.2907229199991,None,"chart
",491.2907229199991,None,return,0.9868015249994642,491.37412651499835,None,,,,,,,,,,,,,,,,,,,,,,,,,,,,,,,,,114,001,2023_Jun_07_1456,SpeechDraft1Carolyn_lessNoise_PlusLocalization,2021.2.3,59.97514461972238,
wheat.wav,wheat.mpg,wheat,4,AV,Pink_Noise_4_1.wav,Pink_Noise_4_2.wav,,,,,,,,,,,,,,,0,33,33,110,,,,,,,,,,,,,,,,,,,,,,,492.39073599900075,None,493.8739946040005,None,495.2573243009974,None,wait,495.2573243009974,None,return,0.8123539209991577,495.3405977279981,None,,,,,,,,,,,,,,,,,,,,,,,,,,,,,,,,,114,001,2023_Jun_07_1456,SpeechDraft1Carolyn_lessNoise_PlusLocalization,2021.2.3,59.97514461972238,
climb.wav,climb.mpg,climb,2,A,Pink_Noise_2_1.wav,Pink_Noise_2_2.wav,,,,,,,,,,,,,,,0,34,34,31,,,,,,,,,,,,,,,,,,,,,,,496.17387838799914,None,497.6736971930004,None,499.05730139599837,None,"climb
",499.05730139599837,None,return,1.868362976001663,499.1405758260007,None,,,,,,,,,,,,,,,,,,,,,,,,,,,,,,,,,114,001,2023_Jun_07_1456,SpeechDraft1Carolyn_lessNoise_PlusLocalization,2021.2.3,59.97514461972238,
deem.wav,deem.mpg,deem,4,AV,Pink_Noise_4_1.wav,Pink_Noise_4_2.wav,,,,,,,,,,,,,,,0,35,35,109,,,,,,,,,,,,,,,,,,,,,,,501.04071406399817,None,502.54041577799944,None,503.9241310549987,None,deem,503.9241310549987,None,return,1.0816001950006466,504.007415611999,None,,,,,,,,,,,,,,,,,,,,,,,,,,,,,,,,,114,001,2023_Jun_07_1456,SpeechDraft1Carolyn_lessNoise_PlusLocalization,2021.2.3,59.97514461972238,
blond.wav,blond.mpg,blond,6,AV,Pink_Noise_6_1.wav,Pink_Noise_6_2.wav,,,,,,,,,,,,,,,0,36,36,78,,,,,,,,,,,,,,,,,,,,,,,505.10743302099945,None,506.60710675299924,None,507.9908057520006,None,flight,507.9908057520006,None,return,3.3589489160003723,508.07397581400073,None,,,,,,,,,,,,,,,,,,,,,,,,,,,,,,,,,114,001,2023_Jun_07_1456,SpeechDraft1Carolyn_lessNoise_PlusLocalization,2021.2.3,59.97514461972238,
broad.wav,broad.mpg,broad,2,AV,Pink_Noise_2_1.wav,Pink_Noise_2_2.wav,,,,,,,,,,,,,,,0,37,37,76,,,,,,,,,,,,,,,,,,,,,,,511.45731915099896,None,512.9575366379977,None,514.3406369250006,None,broad,514.3406369250006,None,return,2.7049829219977255,514.4240221759974,None,,,,,,,,,,,,,,,,,,,,,,,,,,,,,,,,,114,001,2023_Jun_07_1456,SpeechDraft1Carolyn_lessNoise_PlusLocalization,2021.2.3,59.97514461972238,
thorn.wav,thorn.mpg,thorn,5,A,Pink_Noise_5_1.wav,Pink_Noise_5_2.wav,,,,,,,,,,,,,,,0,38,38,37,,,,,,,,,,,,,,,,,,,,,,,517.1573236759978,None,518.6570813149992,None,520.0407378589989,None,brown,520.0407378589989,None,return,0.8769137359995511,520.1240463409995,None,,,,,,,,,,,,,,,,,,,,,,,,,,,,,,,,,114,001,2023_Jun_07_1456,SpeechDraft1Carolyn_lessNoise_PlusLocalization,2021.2.3,59.97514461972238,
beg.wav,beg.mpg,beg,2,AV,Pink_Noise_2_1.wav,Pink_Noise_2_2.wav,,,,,,,,,,,,,,,0,39,39,100,,,,,,,,,,,,,,,,,,,,,,,521.0239882850001,None,522.5091495349989,None,523.8906564940007,None,"beg
",523.8906564940007,None,return,0.6028009729998303,523.9741385289999,None,,,,,,,,,,,,,,,,,,,,,,,,,,,,,,,,,114,001,2023_Jun_07_1456,SpeechDraft1Carolyn_lessNoise_PlusLocalization,2021.2.3,59.97514461972238,
beast.wav,beast.mpg,beast,6,A,Pink_Noise_6_1.wav,Pink_Noise_6_2.wav,,,,,,,,,,,,,,,0,40,40,5,,,,,,,,,,,,,,,,,,,,,,,524.6073408739976,None,526.1073056179994,None,527.4908446730005,None,night,527.4908446730005,None,return,1.77885784099999,527.5740749479992,None,,,,,,,,,,,,,,,,,,,,,,,,,,,,,,,,,114,001,2023_Jun_07_1456,SpeechDraft1Carolyn_lessNoise_PlusLocalization,2021.2.3,59.97514461972238,
dice.wav,dice.mpg,dice,2,A,Pink_Noise_2_1.wav,Pink_Noise_2_2.wav,,,,,,,,,,,,,,,0,41,41,46,,,,,,,,,,,,,,,,,,,,,,,529.3741347529976,None,530.874082721999,None,532.2580975579986,None,dice,532.2580975579986,None,return,1.140257715000189,532.3407982799981,None,,,,,,,,,,,,,,,,,,,,,,,,,,,,,,,,,114,001,2023_Jun_07_1456,SpeechDraft1Carolyn_lessNoise_PlusLocalization,2021.2.3,59.97514461972238,
earth.wav,earth.mpg,earth,3,AV,Pink_Noise_3_1.wav,Pink_Noise_3_2.wav,,,,,,,,,,,,,,,0,42,42,116,,,,,,,,,,,,,,,,,,,,,,,533.5073937380002,None,535.0071208749978,None,536.3907969659995,None,earth,536.3907969659995,None,return,1.61491911900157,536.4740431539976,None,,,,,,,,,,,,,,,,,,,,,,,,,,,,,,,,,114,001,2023_Jun_07_1456,SpeechDraft1Carolyn_lessNoise_PlusLocalization,2021.2.3,59.97514461972238,
quart.wav,quart.mpg,quart,6,AV,Pink_Noise_6_1.wav,Pink_Noise_6_2.wav,,,,,,,,,,,,,,,0,43,43,93,,,,,,,,,,,,,,,,,,,,,,,538.1072829309996,None,539.6071466270005,None,540.9906652979989,None,horse,540.9906652979989,None,return,1.9108962989994325,541.0740189759999,None,,,,,,,,,,,,,,,,,,,,,,,,,,,,,,,,,114,001,2023_Jun_07_1456,SpeechDraft1Carolyn_lessNoise_PlusLocalization,2021.2.3,59.97514461972238,
grand.wav,grand.mpg,grand,6,AV,Pink_Noise_6_1.wav,Pink_Noise_6_2.wav,,,,,,,,,,,,,,,0,44,44,63,,,,,,,,,,,,,,,,,,,,,,,543.0072936539982,None,544.5072203829986,None,545.8906536059985,None,crayon,545.8906536059985,None,return,1.530747643999348,545.9741892239981,None,,,,,,,,,,,,,,,,,,,,,,,,,,,,,,,,,114,001,2023_Jun_07_1456,SpeechDraft1Carolyn_lessNoise_PlusLocalization,2021.2.3,59.97514461972238,
flirt.wav,flirt.mpg,flirt,3,A,Pink_Noise_3_1.wav,Pink_Noise_3_2.wav,,,,,,,,,,,,,,,0,45,45,14,,,,,,,,,,,,,,,,,,,,,,,547.5240951220003,None,549.0240219160005,None,550.4074813240004,None,"foot
",550.4074813240004,None,return,1.3021530759979214,550.4907845289999,None,,,,,,,,,,,,,,,,,,,,,,,,,,,,,,,,,114,001,2023_Jun_07_1456,SpeechDraft1Carolyn_lessNoise_PlusLocalization,2021.2.3,59.97514461972238,
bind.wav,bind.mpg,bind,3,A,Pink_Noise_3_1.wav,Pink_Noise_3_2.wav,,,,,,,,,,,,,,,0,46,46,58,,,,,,,,,,,,,,,,,,,,,,,551.8241365869981,None,553.3238435019994,None,554.7073777299993,None,find,554.7073777299993,None,return,0.8102294210002583,554.7907291509982,None,,,,,,,,,,,,,,,,,,,,,,,,,,,,,,,,,114,001,2023_Jun_07_1456,SpeechDraft1Carolyn_lessNoise_PlusLocalization,2021.2.3,59.97514461972238,
foil.wav,foil.mpg,foil,3,AV,Pink_Noise_3_1.wav,Pink_Noise_3_2.wav,,,,,,,,,,,,,,,0,47,47,111,,,,,,,,,,,,,,,,,,,,,,,555.6240537829981,None,557.1239325299975,None,558.5073424309994,None,foil,558.5073424309994,None,return,1.074147045997961,558.5907793439983,None,,,,,,,,,,,,,,,,,,,,,,,,,,,,,,,,,114,001,2023_Jun_07_1456,SpeechDraft1Carolyn_lessNoise_PlusLocalization,2021.2.3,59.97514461972238,
crook.wav,crook.mpg,crook,5,AV,Pink_Noise_5_1.wav,Pink_Noise_5_2.wav,,,,,,,,,,,,,,,0,48,48,96,,,,,,,,,,,,,,,,,,,,,,,559.6907783159986,None,561.1905003419997,None,562.5740267189976,None,crook,562.5740267189976,None,return,2.6794055249993107,562.657600519,None,,,,,,,,,,,,,,,,,,,,,,,,,,,,,,,,,114,001,2023_Jun_07_1456,SpeechDraft1Carolyn_lessNoise_PlusLocalization,2021.2.3,59.97514461972238,
clog.wav,clog.mpg,clog,5,A,Pink_Noise_5_1.wav,Pink_Noise_5_2.wav,,,,,,,,,,,,,,,0,49,49,3,,,,,,,,,,,,,,,,,,,,,,,565.3574413599999,None,566.8738907719999,None,568.2574728359978,None,"frog
",568.2574728359978,None,return,1.2842160649997822,568.3407313169992,None,,,,,,,,,,,,,,,,,,,,,,,,,,,,,,,,,114,001,2023_Jun_07_1456,SpeechDraft1Carolyn_lessNoise_PlusLocalization,2021.2.3,59.97514461972238,
club.wav,club.mpg,club,3,A,Pink_Noise_3_1.wav,Pink_Noise_3_2.wav,,,,,,,,,,,,,,,0,50,50,48,,,,,,,,,,,,,,,,,,,,,,,569.6574639200007,None,571.1572047070003,None,572.5408554469977,None,club,572.5408554469977,None,return,2.704914555997675,572.624076475,None,,,,,,,,,,,,,,,,,,,,,,,,,,,,,,,,,114,001,2023_Jun_07_1456,SpeechDraft1Carolyn_lessNoise_PlusLocalization,2021.2.3,59.97514461972238,
beige.wav,beige.mpg,beige,6,A,Pink_Noise_6_1.wav,Pink_Noise_6_2.wav,,,,,,,,,,,,,,,0,51,51,4,,,,,,,,,,,,,,,,,,,,,,,575.3574581569992,None,576.8571133619989,None,578.2408583760007,None,baige,578.2408583760007,None,return,1.948823042002914,578.3241724569998,None,,,,,,,,,,,,,,,,,,,,,,,,,,,,,,,,,114,001,2023_Jun_07_1456,SpeechDraft1Carolyn_lessNoise_PlusLocalization,2021.2.3,59.97514461972238,
desk.wav,desk.mpg,desk,6,A,Pink_Noise_6_1.wav,Pink_Noise_6_2.wav,,,,,,,,,,,,,,,0,52,52,27,,,,,,,,,,,,,,,,,,,,,,,580.2907815180006,None,581.7905326910004,None,583.1741770249973,None,"get
",583.1741770249973,None,return,0.7353298859998176,583.2576066839974,None,,,,,,,,,,,,,,,,,,,,,,,,,,,,,,,,,114,001,2023_Jun_07_1456,SpeechDraft1Carolyn_lessNoise_PlusLocalization,2021.2.3,59.97514461972238,
read.wav,read.mpg,read,5,AV,Pink_Noise_5_1.wav,Pink_Noise_5_2.wav,,,,,,,,,,,,,,,0,53,53,99,,,,,,,,,,,,,,,,,,,,,,,584.0241509179978,None,585.5238264910004,None,586.9074540740003,None,we,586.9074540740003,None,return,1.0100661119977303,586.9908505079984,None,,,,,,,,,,,,,,,,,,,,,,,,,,,,,,,,,114,001,2023_Jun_07_1456,SpeechDraft1Carolyn_lessNoise_PlusLocalization,2021.2.3,59.97514461972238,
boil.wav,boil.mpg,boil,1,A,Pink_Noise_1_1.wav,Pink_Noise_1_2.wav,,,,,,,,,,,,,,,0,54,54,19,,,,,,,,,,,,,,,,,,,,,,,588.0240709799982,None,589.5238017589982,None,590.9074387939982,None,boil,590.9074387939982,None,return,1.9302611370003433,590.990735610998,None,,,,,,,,,,,,,,,,,,,,,,,,,,,,,,,,,114,001,2023_Jun_07_1456,SpeechDraft1Carolyn_lessNoise_PlusLocalization,2021.2.3,59.97514461972238,
fraud.wav,fraud.mpg,fraud,2,AV,Pink_Noise_2_1.wav,Pink_Noise_2_2.wav,,,,,,,,,,,,,,,0,55,55,66,,,,,,,,,,,,,,,,,,,,,,,592.9407775399995,None,594.4407614699994,None,595.8243223169993,None,fraud,595.8243223169993,None,return,1.7255441799970868,595.907388222,None,,,,,,,,,,,,,,,,,,,,,,,,,,,,,,,,,114,001,2023_Jun_07_1456,SpeechDraft1Carolyn_lessNoise_PlusLocalization,2021.2.3,59.97514461972238,
chip.wav,chip.mpg,chip,4,A,Pink_Noise_4_1.wav,Pink_Noise_4_2.wav,,,,,,,,,,,,,,,0,56,56,40,,,,,,,,,,,,,,,,,,,,,,,597.6574215699984,None,599.1571796370008,None,600.5407890239985,None,chip,600.5407890239985,None,return,1.5287709699987317,600.6241652030003,None,,,,,,,,,,,,,,,,,,,,,,,,,,,,,,,,,114,001,2023_Jun_07_1456,SpeechDraft1Carolyn_lessNoise_PlusLocalization,2021.2.3,59.97514461972238,
champ.wav,champ.mpg,champ,1,AV,Pink_Noise_1_1.wav,Pink_Noise_1_2.wav,,,,,,,,,,,,,,,0,57,57,90,,,,,,,,,,,,,,,,,,,,,,,602.1741271409992,None,603.6740069369989,None,605.0574775120003,None,champ,605.0574775120003,None,return,1.9641158519989403,605.1408314580003,None,,,,,,,,,,,,,,,,,,,,,,,,,,,,,,,,,114,001,2023_Jun_07_1456,SpeechDraft1Carolyn_lessNoise_PlusLocalization,2021.2.3,59.97514461972238,
bound.wav,bound.mpg,bound,2,AV,Pink_Noise_2_1.wav,Pink_Noise_2_2.wav,,,,,,,,,,,,,,,0,58,58,119,,,,,,,,,,,,,,,,,,,,,,,607.1240941739998,None,608.6240801729982,None,610.0073523539977,None,bound,610.0073523539977,None,return,1.5261475570005132,610.0908007670005,None,,,,,,,,,,,,,,,,,,,,,,,,,,,,,,,,,114,001,2023_Jun_07_1456,SpeechDraft1Carolyn_lessNoise_PlusLocalization,2021.2.3,59.97514461972238,
pact.wav,pact.mpg,pact,5,A,Pink_Noise_5_1.wav,Pink_Noise_5_2.wav,,,,,,,,,,,,,,,0,59,59,30,,,,,,,,,,,,,,,,,,,,,,,611.640839194999,None,613.1406019899987,None,614.524148610999,None,hat,614.524148610999,None,return,1.4894772389998252,614.6075003099977,None,,,,,,,,,,,,,,,,,,,,,,,,,,,,,,,,,114,001,2023_Jun_07_1456,SpeechDraft1Carolyn_lessNoise_PlusLocalization,2021.2.3,59.97514461972238,
flow.wav,flow.mpg,flow,6,A,Pink_Noise_6_1.wav,Pink_Noise_6_2.wav,,,,,,,,,,,,,,,0,60,60,16,,,,,,,,,,,,,,,,,,,,,,,616.1241047759977,None,617.6239195710004,None,619.0075591709974,None,"under
",619.0075591709974,None,return,1.2860607549991983,619.0908788359993,None,,,,,,,,,,,,,,,,,,,,,,,,,,,,,,,,,114,001,2023_Jun_07_1456,SpeechDraft1Carolyn_lessNoise_PlusLocalization,2021.2.3,59.97514461972238,
brain.wav,brain.mpg,brain,6,AV,Pink_Noise_6_1.wav,Pink_Noise_6_2.wav,,,,,,,,,,,,,,,0,61,61,69,,,,,,,,,,,,,,,,,,,,,,,620.4075052509979,None,621.9072812739978,None,623.2907786439973,None,"way
",623.2907786439973,None,return,1.8187176539977372,623.3742274510005,None,,,,,,,,,,,,,,,,,,,,,,,,,,,,,,,,,114,001,2023_Jun_07_1456,SpeechDraft1Carolyn_lessNoise_PlusLocalization,2021.2.3,59.97514461972238,
bunch.wav,bunch.mpg,bunch,3,A,Pink_Noise_3_1.wav,Pink_Noise_3_2.wav,,,,,,,,,,,,,,,0,62,62,17,,,,,,,,,,,,,,,,,,,,,,,625.2243500299992,None,626.7239676850004,None,628.1076033600002,None,bunch,628.1076033600002,None,return,3.5062181419998524,628.1908159689992,None,,,,,,,,,,,,,,,,,,,,,,,,,,,,,,,,,114,001,2023_Jun_07_1456,SpeechDraft1Carolyn_lessNoise_PlusLocalization,2021.2.3,59.97514461972238,
blue.wav,blue.mpg,blue,4,A,Pink_Noise_4_1.wav,Pink_Noise_4_2.wav,,,,,,,,,,,,,,,0,63,63,12,,,,,,,,,,,,,,,,,,,,,,,631.7240905619983,None,633.2239855980006,None,634.6075124700001,None,crew,634.6075124700001,None,return,1.8221040800017363,634.6908291449981,None,,,,,,,,,,,,,,,,,,,,,,,,,,,,,,,,,114,001,2023_Jun_07_1456,SpeechDraft1Carolyn_lessNoise_PlusLocalization,2021.2.3,59.97514461972238,
peach.wav,peach.mpg,peach,6,A,Pink_Noise_6_1.wav,Pink_Noise_6_2.wav,,,,,,,,,,,,,,,0,64,64,29,,,,,,,,,,,,,,,,,,,,,,,636.5408450309988,None,638.0407250389981,None,639.4241419749997,None,ocean,639.4241419749997,None,return,0.99740578699857,639.5075309540007,None,,,,,,,,,,,,,,,,,,,,,,,,,,,,,,,,,114,001,2023_Jun_07_1456,SpeechDraft1Carolyn_lessNoise_PlusLocalization,2021.2.3,59.97514461972238,
bald.wav,bald.mpg,bald,1,AV,Pink_Noise_1_1.wav,Pink_Noise_1_2.wav,,,,,,,,,,,,,,,0,65,65,80,,,,,,,,,,,,,,,,,,,,,,,640.5241168609973,None,642.0239219030009,None,643.4075083249991,None,"bald
",643.4075083249991,None,return,0.85391577900009,643.4910218219993,None,,,,,,,,,,,,,,,,,,,,,,,,,,,,,,,,,114,001,2023_Jun_07_1456,SpeechDraft1Carolyn_lessNoise_PlusLocalization,2021.2.3,59.97514461972238,
fork.wav,fork.mpg,fork,1,A,Pink_Noise_1_1.wav,Pink_Noise_1_2.wav,,,,,,,,,,,,,,,0,66,66,22,,,,,,,,,,,,,,,,,,,,,,,644.374201437,None,645.8739661639993,None,647.2575675139997,None,fork,647.2575675139997,None,return,6.6920595730007335,647.3408666449977,None,,,,,,,,,,,,,,,,,,,,,,,,,,,,,,,,,114,001,2023_Jun_07_1456,SpeechDraft1Carolyn_lessNoise_PlusLocalization,2021.2.3,59.97514461972238,
strike.wav,strike.mpg,strike,1,A,Pink_Noise_1_1.wav,Pink_Noise_1_2.wav,,,,,,,,,,,,,,,0,67,67,54,,,,,,,,,,,,,,,,,,,,,,,654.0575728330004,None,655.5572477719979,None,656.9409530560006,None,"strike
",656.9409530560006,None,return,1.3686127600012696,657.0243252990003,None,,,,,,,,,,,,,,,,,,,,,,,,,,,,,,,,,114,001,2023_Jun_07_1456,SpeechDraft1Carolyn_lessNoise_PlusLocalization,2021.2.3,59.97514461972238,
bond.wav,bond.mpg,bond,4,A,Pink_Noise_4_1.wav,Pink_Noise_4_2.wav,,,,,,,,,,,,,,,0,68,68,35,,,,,,,,,,,,,,,,,,,,,,,658.4242562510008,None,659.9239319959997,None,661.3075693389983,None,bound,661.3075693389983,None,return,1.5460347650005133,661.3908918710003,None,,,,,,,,,,,,,,,,,,,,,,,,,,,,,,,,,114,001,2023_Jun_07_1456,SpeechDraft1Carolyn_lessNoise_PlusLocalization,2021.2.3,59.97514461972238,
drab.wav,drab.mpg,drab,3,AV,Pink_Noise_3_1.wav,Pink_Noise_3_2.wav,,,,,,,,,,,,,,,0,69,69,72,,,,,,,,,,,,,,,,,,,,,,,662.9575776309975,None,664.4573541450009,None,665.8409073229996,None,grab,665.8409073229996,None,return,1.39694787299959,665.9242048969973,None,,,,,,,,,,,,,,,,,,,,,,,,,,,,,,,,,114,001,2023_Jun_07_1456,SpeechDraft1Carolyn_lessNoise_PlusLocalization,2021.2.3,59.97514461972238,
round.wav,round.mpg,round,5,AV,Pink_Noise_5_1.wav,Pink_Noise_5_2.wav,,,,,,,,,,,,,,,0,70,70,87,,,,,,,,,,,,,,,,,,,,,,,667.3411561979992,None,668.8407257209983,None,670.2241898649991,None,wound,670.2241898649991,None,return,1.4373019259983266,670.307664295,None,,,,,,,,,,,,,,,,,,,,,,,,,,,,,,,,,114,001,2023_Jun_07_1456,SpeechDraft1Carolyn_lessNoise_PlusLocalization,2021.2.3,59.97514461972238,
bear.wav,bear.mpg,bear,5,AV,Pink_Noise_5_1.wav,Pink_Noise_5_2.wav,,,,,,,,,,,,,,,0,71,71,88,,,,,,,,,,,,,,,,,,,,,,,671.774252586998,None,673.2741390970004,None,674.6575940769981,None,bear,674.6575940769981,None,return,1.1240469420008594,674.7408834249982,None,,,,,,,,,,,,,,,,,,,,,,,,,,,,,,,,,114,001,2023_Jun_07_1456,SpeechDraft1Carolyn_lessNoise_PlusLocalization,2021.2.3,59.97514461972238,
beach.wav,beach.mpg,beach,2,A,Pink_Noise_2_1.wav,Pink_Noise_2_2.wav,,,,,,,,,,,,,,,0,72,72,50,,,,,,,,,,,,,,,,,,,,,,,675.8908916949986,None,677.4073545329993,None,678.7909020480001,None,ach,678.7909020480001,None,return,5.638821338001435,678.8742450889986,None,,,,,,,,,,,,,,,,,,,,,,,,,,,,,,,,,114,001,2023_Jun_07_1456,SpeechDraft1Carolyn_lessNoise_PlusLocalization,2021.2.3,59.97514461972238,
tear.wav,tear.mpg,tear,2,A,Pink_Noise_2_1.wav,Pink_Noise_2_2.wav,,,,,,,,,,,,,,,0,73,73,2,,,,,,,,,,,,,,,,,,,,,,,684.5409212899976,None,686.0406414600002,None,687.4241316150001,None,tear,687.4241316150001,None,return,0.8774114400002873,687.5075454439975,None,,,,,,,,,,,,,,,,,,,,,,,,,,,,,,,,,114,001,2023_Jun_07_1456,SpeechDraft1Carolyn_lessNoise_PlusLocalization,2021.2.3,59.97514461972238,
strive.wav,strive.mpg,strive,1,A,Pink_Noise_1_1.wav,Pink_Noise_1_2.wav,,,,,,,,,,,,,,,0,74,74,42,,,,,,,,,,,,,,,,,,,,,,,688.4075766850001,None,689.9073413820006,None,691.290954529999,None,"strive
",691.290954529999,None,return,1.0346790609983145,691.3742519890002,None,,,,,,,,,,,,,,,,,,,,,,,,,,,,,,,,,114,001,2023_Jun_07_1456,SpeechDraft1Carolyn_lessNoise_PlusLocalization,2021.2.3,59.97514461972238,
cease.wav,cease.mpg,cease,4,AV,Pink_Noise_4_1.wav,Pink_Noise_4_2.wav,,,,,,,,,,,,,,,0,75,75,81,,,,,,,,,,,,,,,,,,,,,,,692.4409356569995,None,693.9408221429985,None,695.3251709449978,None,cease,695.3251709449978,None,return,1.2894300270017993,695.4076499889998,None,,,,,,,,,,,,,,,,,,,,,,,,,,,,,,,,,114,001,2023_Jun_07_1456,SpeechDraft1Carolyn_lessNoise_PlusLocalization,2021.2.3,59.97514461972238,
slush.wav,slush.mpg,slush,2,A,Pink_Noise_2_1.wav,Pink_Noise_2_2.wav,,,,,,,,,,,,,,,0,76,76,20,,,,,,,,,,,,,,,,,,,,,,,696.7241991029987,None,698.2239765739978,None,699.6076779299983,None,slush,699.6076779299983,None,return,1.0619428329991933,699.6909973919974,None,,,,,,,,,,,,,,,,,,,,,,,,,,,,,,,,,114,001,2023_Jun_07_1456,SpeechDraft1Carolyn_lessNoise_PlusLocalization,2021.2.3,59.97514461972238,
castle.wav,castle.mpg,castle,4,A,Pink_Noise_4_1.wav,Pink_Noise_4_2.wav,,,,,,,,,,,,,,,0,77,77,23,,,,,,,,,,,,,,,,,,,,,,,700.774271934999,None,702.2739917899999,None,703.6576324779999,None,castle,703.6576324779999,None,return,1.4599900329994853,703.7409361829996,None,,,,,,,,,,,,,,,,,,,,,,,,,,,,,,,,,114,001,2023_Jun_07_1456,SpeechDraft1Carolyn_lessNoise_PlusLocalization,2021.2.3,59.97514461972238,
eye.wav,eye.mpg,eye,5,A,Pink_Noise_5_1.wav,Pink_Noise_5_2.wav,,,,,,,,,,,,,,,0,78,78,24,,,,,,,,,,,,,,,,,,,,,,,705.2243237879993,None,706.724003643998,None,708.1077066229991,None,ild,708.1077066229991,None,return,2.3539920000002894,708.1909366910004,None,,,,,,,,,,,,,,,,,,,,,,,,,,,,,,,,,114,001,2023_Jun_07_1456,SpeechDraft1Carolyn_lessNoise_PlusLocalization,2021.2.3,59.97514461972238,
coal.wav,coal.mpg,coal,5,A,Pink_Noise_5_1.wav,Pink_Noise_5_2.wav,,,,,,,,,,,,,,,0,79,79,45,,,,,,,,,,,,,,,,,,,,,,,710.5742671169974,None,712.0740477689978,None,713.457574688,None,follow,713.457574688,None,return,1.9799927589992876,713.5410195660006,None,,,,,,,,,,,,,,,,,,,,,,,,,,,,,,,,,114,001,2023_Jun_07_1456,SpeechDraft1Carolyn_lessNoise_PlusLocalization,2021.2.3,59.97514461972238,
duck.wav,duck.mpg,duck,6,AV,Pink_Noise_6_1.wav,Pink_Noise_6_2.wav,,,,,,,,,,,,,,,0,80,80,108,,,,,,,,,,,,,,,,,,,,,,,715.540941023999,None,717.0407566879985,None,718.4243253959976,None,duck,718.4243253959976,None,return,1.01330084899746,718.5077179699983,None,,,,,,,,,,,,,,,,,,,,,,,,,,,,,,,,,114,001,2023_Jun_07_1456,SpeechDraft1Carolyn_lessNoise_PlusLocalization,2021.2.3,59.97514461972238,
tomb.wav,tomb.mpg,tomb,1,AV,Pink_Noise_1_1.wav,Pink_Noise_1_2.wav,,,,,,,,,,,,,,,0,81,81,68,,,,,,,,,,,,,,,,,,,,,,,719.5410753889992,None,721.0407289389987,None,722.4242418840004,None,two,722.4242418840004,None,return,0.8133226960017055,722.5076306909978,None,,,,,,,,,,,,,,,,,,,,,,,,,,,,,,,,,114,001,2023_Jun_07_1456,SpeechDraft1Carolyn_lessNoise_PlusLocalization,2021.2.3,59.97514461972238,
die.wav,die.mpg,die,5,A,Pink_Noise_5_1.wav,Pink_Noise_5_2.wav,,,,,,,,,,,,,,,0,82,82,41,,,,,,,,,,,,,,,,,,,,,,,723.3409838330008,None,724.8407696279974,None,726.224315487998,None,"die
",726.224315487998,None,return,0.6532380140015448,726.3076965539985,None,,,,,,,,,,,,,,,,,,,,,,,,,,,,,,,,,114,001,2023_Jun_07_1456,SpeechDraft1Carolyn_lessNoise_PlusLocalization,2021.2.3,59.97514461972238,
bush.wav,bush.mpg,bush,2,AV,Pink_Noise_2_1.wav,Pink_Noise_2_2.wav,,,,,,,,,,,,,,,0,83,83,101,,,,,,,,,,,,,,,,,,,,,,,726.9910073529973,None,728.4913511659979,None,729.8742585939981,None,brush,729.8742585939981,None,return,1.0433532749993901,729.9575742909983,None,,,,,,,,,,,,,,,,,,,,,,,,,,,,,,,,,114,001,2023_Jun_07_1456,SpeechDraft1Carolyn_lessNoise_PlusLocalization,2021.2.3,59.97514461972238,
oats.wav,oats.mpg,oats,5,A,Pink_Noise_5_1.wav,Pink_Noise_5_2.wav,,,,,,,,,,,,,,,0,84,84,39,,,,,,,,,,,,,,,,,,,,,,,731.0243124929984,None,732.5241707370005,None,733.9077733949998,None,hate,733.9077733949998,None,return,0.9780030959991564,733.9909095900002,None,,,,,,,,,,,,,,,,,,,,,,,,,,,,,,,,,114,001,2023_Jun_07_1456,SpeechDraft1Carolyn_lessNoise_PlusLocalization,2021.2.3,59.97514461972238,
cope.wav,cope.mpg,cope,1,A,Pink_Noise_1_1.wav,Pink_Noise_1_2.wav,,,,,,,,,,,,,,,0,85,85,15,,,,,,,,,,,,,,,,,,,,,,,734.9909692170004,None,736.4908680139997,None,737.8742990719984,None,cope,737.8742990719984,None,return,0.8592521930004295,737.957665736998,None,,,,,,,,,,,,,,,,,,,,,,,,,,,,,,,,,114,001,2023_Jun_07_1456,SpeechDraft1Carolyn_lessNoise_PlusLocalization,2021.2.3,59.97514461972238,
warmth.wav,warmth.mpg,warmth,6,A,Pink_Noise_6_1.wav,Pink_Noise_6_2.wav,,,,,,,,,,,,,,,0,86,86,59,,,,,,,,,,,,,,,,,,,,,,,738.8412198369988,None,740.3407945129984,None,741.7242692149994,None,warp,741.7242692149994,None,return,0.9053710139996838,741.8076711569993,None,,,,,,,,,,,,,,,,,,,,,,,,,,,,,,,,,114,001,2023_Jun_07_1456,SpeechDraft1Carolyn_lessNoise_PlusLocalization,2021.2.3,59.97514461972238,
wild.wav,wild.mpg,wild,2,A,Pink_Noise_2_1.wav,Pink_Noise_2_2.wav,,,,,,,,,,,,,,,0,87,87,36,,,,,,,,,,,,,,,,,,,,,,,742.7410384279974,None,744.2407134599998,None,745.6243500819983,None,wild,745.6243500819983,None,return,0.7733663449980668,745.7076685209977,None,,,,,,,,,,,,,,,,,,,,,,,,,,,,,,,,,114,001,2023_Jun_07_1456,SpeechDraft1Carolyn_lessNoise_PlusLocalization,2021.2.3,59.97514461972238,
bruise.wav,bruise.mpg,bruise,2,AV,Pink_Noise_2_1.wav,Pink_Noise_2_2.wav,,,,,,,,,,,,,,,0,88,88,107,,,,,,,,,,,,,,,,,,,,,,,746.5076752349996,None,748.0074885279973,None,749.3909090729976,None,"bruise
",749.3909090729976,None,return,1.1506125609994342,749.4743245270001,None,,,,,,,,,,,,,,,,,,,,,,,,,,,,,,,,,114,001,2023_Jun_07_1456,SpeechDraft1Carolyn_lessNoise_PlusLocalization,2021.2.3,59.97514461972238,
gap.wav,gap.mpg,gap,6,AV,Pink_Noise_6_1.wav,Pink_Noise_6_2.wav,,,,,,,,,,,,,,,0,89,89,97,,,,,,,,,,,,,,,,,,,,,,,750.6577491489988,None,752.1574787809986,None,753.5409137129973,None,"nap
",753.5409137129973,None,return,0.7526254510012222,753.6243218290001,None,,,,,,,,,,,,,,,,,,,,,,,,,,,,,,,,,114,001,2023_Jun_07_1456,SpeechDraft1Carolyn_lessNoise_PlusLocalization,2021.2.3,59.97514461972238,
bay.wav,bay.mpg,bay,1,AV,Pink_Noise_1_1.wav,Pink_Noise_1_2.wav,,,,,,,,,,,,,,,0,90,90,106,,,,,,,,,,,,,,,,,,,,,,,754.4075814690004,None,755.909113706999,None,757.2909212220002,None,bae,757.2909212220002,None,return,1.2585611649992643,757.3743690519987,None,,,,,,,,,,,,,,,,,,,,,,,,,,,,,,,,,114,001,2023_Jun_07_1456,SpeechDraft1Carolyn_lessNoise_PlusLocalization,2021.2.3,59.97514461972238,
forth.wav,forth.mpg,forth,3,AV,Pink_Noise_3_1.wav,Pink_Noise_3_2.wav,,,,,,,,,,,,,,,0,91,91,62,,,,,,,,,,,,,,,,,,,,,,,758.6576308019976,None,760.1574231849991,None,761.5409981060002,None,fourth,761.5409981060002,None,return,1.3205520749979769,761.6243757869997,None,,,,,,,,,,,,,,,,,,,,,,,,,,,,,,,,,114,001,2023_Jun_07_1456,SpeechDraft1Carolyn_lessNoise_PlusLocalization,2021.2.3,59.97514461972238,
click.wav,click.mpg,click,2,AV,Pink_Noise_2_1.wav,Pink_Noise_2_2.wav,,,,,,,,,,,,,,,0,92,92,102,,,,,,,,,,,,,,,,,,,,,,,762.9743619559995,None,764.4741438439996,None,765.8576428849992,None,click,765.8576428849992,None,return,2.971951830000762,765.9410602719981,None,,,,,,,,,,,,,,,,,,,,,,,,,,,,,,,,,114,001,2023_Jun_07_1456,SpeechDraft1Carolyn_lessNoise_PlusLocalization,2021.2.3,59.97514461972238,
dig.wav,dig.mpg,dig,6,A,Pink_Noise_6_1.wav,Pink_Noise_6_2.wav,,,,,,,,,,,,,,,0,93,93,9,,,,,,,,,,,,,,,,,,,,,,,768.9411331439987,None,770.4575983039977,None,771.841106388998,None,dish,771.841106388998,None,return,1.2285359220004466,771.9244160829985,None,,,,,,,,,,,,,,,,,,,,,,,,,,,,,,,,,114,001,2023_Jun_07_1456,SpeechDraft1Carolyn_lessNoise_PlusLocalization,2021.2.3,59.97514461972238,
date.wav,date.mpg,date,6,AV,Pink_Noise_6_1.wav,Pink_Noise_6_2.wav,,,,,,,,,,,,,,,0,94,94,77,,,,,,,,,,,,,,,,,,,,,,,773.1744087929983,None,774.6743595589978,None,776.05762865,None,"dik
",776.05762865,None,return,5.020010332998936,776.1409439620002,None,,,,,,,,,,,,,,,,,,,,,,,,,,,,,,,,,114,001,2023_Jun_07_1456,SpeechDraft1Carolyn_lessNoise_PlusLocalization,2021.2.3,59.97514461972238,
depth.wav,depth.mpg,depth,3,A,Pink_Noise_3_1.wav,Pink_Noise_3_2.wav,,,,,,,,,,,,,,,0,95,95,49,,,,,,,,,,,,,,,,,,,,,,,781.1911037209975,None,782.690736968998,None,784.0744467699988,None,depth,784.0744467699988,None,return,1.1952677910012426,784.157669633998,None,,,,,,,,,,,,,,,,,,,,,,,,,,,,,,,,,114,001,2023_Jun_07_1456,SpeechDraft1Carolyn_lessNoise_PlusLocalization,2021.2.3,59.97514461972238,
golf.wav,golf.mpg,golf,5,A,Pink_Noise_5_1.wav,Pink_Noise_5_2.wav,,,,,,,,,,,,,,,0,96,96,7,,,,,,,,,,,,,,,,,,,,,,,785.3743566459998,None,786.8741804759993,None,788.2581211389988,None,"brunt
",788.2581211389988,None,return,3.1557534210005542,788.3411839309993,None,,,,,,,,,,,,,,,,,,,,,,,,,,,,,,,,,114,001,2023_Jun_07_1456,SpeechDraft1Carolyn_lessNoise_PlusLocalization,2021.2.3,59.97514461972238,
dense.wav,dense.mpg,dense,3,AV,Pink_Noise_3_1.wav,Pink_Noise_3_2.wav,,,,,,,,,,,,,,,0,97,97,82,,,,,,,,,,,,,,,,,,,,,,,791.5411351379989,None,793.0409991779998,None,794.4242541549975,None,dense,794.4242541549975,None,return,1.1571812549991591,794.5078474379989,None,,,,,,,,,,,,,,,,,,,,,,,,,,,,,,,,,114,001,2023_Jun_07_1456,SpeechDraft1Carolyn_lessNoise_PlusLocalization,2021.2.3,59.97514461972238,
dent.wav,dent.mpg,dent,4,A,Pink_Noise_4_1.wav,Pink_Noise_4_2.wav,,,,,,,,,,,,,,,0,98,98,55,,,,,,,,,,,,,,,,,,,,,,,795.6912092349994,None,797.1909575969985,None,798.574640494,None,dent,798.574640494,None,return,1.0950707410011091,798.6578729479988,None,,,,,,,,,,,,,,,,,,,,,,,,,,,,,,,,,114,001,2023_Jun_07_1456,SpeechDraft1Carolyn_lessNoise_PlusLocalization,2021.2.3,59.97514461972238,
drop.wav,drop.mpg,drop,4,A,Pink_Noise_4_1.wav,Pink_Noise_4_2.wav,,,,,,,,,,,,,,,0,99,99,11,,,,,,,,,,,,,,,,,,,,,,,799.7744166619996,None,801.2740565889981,None,802.6578591990001,None,dry,802.6578591990001,None,return,0.8596608510015358,802.7412691229983,None,,,,,,,,,,,,,,,,,,,,,,,,,,,,,,,,,114,001,2023_Jun_07_1456,SpeechDraft1Carolyn_lessNoise_PlusLocalization,2021.2.3,59.97514461972238,
drum.wav,drum.mpg,drum,1,AV,Pink_Noise_1_1.wav,Pink_Noise_1_2.wav,,,,,,,,,,,,,,,0,100,100,83,,,,,,,,,,,,,,,,,,,,,,,803.6244163459996,None,805.1240946739999,None,806.507713783998,None,drum,806.507713783998,None,return,1.1938251700012188,806.5911268700002,None,,,,,,,,,,,,,,,,,,,,,,,,,,,,,,,,,114,001,2023_Jun_07_1456,SpeechDraft1Carolyn_lessNoise_PlusLocalization,2021.2.3,59.97514461972238,
blend.wav,blend.mpg,blend,1,A,Pink_Noise_1_1.wav,Pink_Noise_1_2.wav,,,,,,,,,,,,,,,0,101,101,8,,,,,,,,,,,,,,,,,,,,,,,807.8077290649999,None,809.3075076599998,None,810.6911726649996,None,"lend
",810.6911726649996,None,return,1.202492123000411,810.7744573989985,None,,,,,,,,,,,,,,,,,,,,,,,,,,,,,,,,,114,001,2023_Jun_07_1456,SpeechDraft1Carolyn_lessNoise_PlusLocalization,2021.2.3,59.97514461972238,
grace.wav,grace.mpg,grace,6,A,Pink_Noise_6_1.wav,Pink_Noise_6_2.wav,,,,,,,,,,,,,,,0,102,102,38,,,,,,,,,,,,,,,,,,,,,,,812.0077597140007,None,813.5075409809979,None,814.8910864379977,None,"race
",814.8910864379977,None,return,1.234498841000459,814.9744200389978,None,,,,,,,,,,,,,,,,,,,,,,,,,,,,,,,,,114,001,2023_Jun_07_1456,SpeechDraft1Carolyn_lessNoise_PlusLocalization,2021.2.3,59.97514461972238,
flair.wav,flair.mpg,flair,5,AV,Pink_Noise_5_1.wav,Pink_Noise_5_2.wav,,,,,,,,,,,,,,,0,103,103,65,,,,,,,,,,,,,,,,,,,,,,,816.2410914819993,None,817.7575697949978,None,819.1409543669979,None,flare,819.1409543669979,None,return,1.8646017279970692,819.2243425999986,None,,,,,,,,,,,,,,,,,,,,,,,,,,,,,,,,,114,001,2023_Jun_07_1456,SpeechDraft1Carolyn_lessNoise_PlusLocalization,2021.2.3,59.97514461972238,
cruel.wav,cruel.mpg,cruel,4,AV,Pink_Noise_4_1.wav,Pink_Noise_4_2.wav,,,,,,,,,,,,,,,0,104,104,75,,,,,,,,,,,,,,,,,,,,,,,821.1077807939982,None,822.6075139419991,None,823.9915298499982,None,"cruel
",823.9915298499982,None,return,1.502400872999715,824.0745342609989,None,,,,,,,,,,,,,,,,,,,,,,,,,,,,,,,,,114,001,2023_Jun_07_1456,SpeechDraft1Carolyn_lessNoise_PlusLocalization,2021.2.3,59.97514461972238,
fierce.wav,fierce.mpg,fierce,4,AV,Pink_Noise_4_1.wav,Pink_Noise_4_2.wav,,,,,,,,,,,,,,,0,105,105,118,,,,,,,,,,,,,,,,,,,,,,,825.6077470359996,None,827.1082481970006,None,828.4910765700006,None,"first
",828.4910765700006,None,return,1.57045379900228,828.5744707310005,None,,,,,,,,,,,,,,,,,,,,,,,,,,,,,,,,,114,001,2023_Jun_07_1456,SpeechDraft1Carolyn_lessNoise_PlusLocalization,2021.2.3,59.97514461972238,
chain.wav,chain.mpg,chain,2,A,Pink_Noise_2_1.wav,Pink_Noise_2_2.wav,,,,,,,,,,,,,,,0,106,106,26,,,,,,,,,,,,,,,,,,,,,,,830.1745321519993,None,831.6742196679988,None,833.0577844349973,None,chain,833.0577844349973,None,return,1.1237552980019245,833.1413354849974,None,,,,,,,,,,,,,,,,,,,,,,,,,,,,,,,,,114,001,2023_Jun_07_1456,SpeechDraft1Carolyn_lessNoise_PlusLocalization,2021.2.3,59.97514461972238,
wind.wav,wind.mpg,wind,4,AV,Pink_Noise_4_1.wav,Pink_Noise_4_2.wav,,,,,,,,,,,,,,,0,107,107,74,,,,,,,,,,,,,,,,,,,,,,,834.2912260960002,None,835.7909073739975,None,837.1744336579977,None,wait,837.1744336579977,None,return,1.2232829660024436,837.2577712009988,None,,,,,,,,,,,,,,,,,,,,,,,,,,,,,,,,,114,001,2023_Jun_07_1456,SpeechDraft1Carolyn_lessNoise_PlusLocalization,2021.2.3,59.97514461972238,
grade.wav,grade.mpg,grade,1,A,Pink_Noise_1_1.wav,Pink_Noise_1_2.wav,,,,,,,,,,,,,,,0,108,108,13,,,,,,,,,,,,,,,,,,,,,,,838.5076920549982,None,840.0075175649981,None,841.3912146699986,None,grade,841.3912146699986,None,return,1.2703743839992967,841.4745552579989,None,,,,,,,,,,,,,,,,,,,,,,,,,,,,,,,,,114,001,2023_Jun_07_1456,SpeechDraft1Carolyn_lessNoise_PlusLocalization,2021.2.3,59.97514461972238,
crew.wav,crew.mpg,crew,1,AV,Pink_Noise_1_1.wav,Pink_Noise_1_2.wav,,,,,,,,,,,,,,,0,109,109,95,,,,,,,,,,,,,,,,,,,,,,,842.7744676609982,None,844.2742463600007,None,845.6579644230005,None,crew,845.6579644230005,None,return,1.3718100669975684,845.741210401,None,,,,,,,,,,,,,,,,,,,,,,,,,,,,,,,,,114,001,2023_Jun_07_1456,SpeechDraft1Carolyn_lessNoise_PlusLocalization,2021.2.3,59.97514461972238,
clue.wav,clue.mpg,clue,5,AV,Pink_Noise_5_1.wav,Pink_Noise_5_2.wav,,,,,,,,,,,,,,,0,110,110,112,,,,,,,,,,,,,,,,,,,,,,,847.1411150679996,None,848.6575899279997,None,850.0411291409982,None,clue,850.0411291409982,None,return,1.1805079030018533,850.1244667200008,None,,,,,,,,,,,,,,,,,,,,,,,,,,,,,,,,,114,001,2023_Jun_07_1456,SpeechDraft1Carolyn_lessNoise_PlusLocalization,2021.2.3,59.97514461972238,
dream.wav,dream.mpg,dream,6,A,Pink_Noise_6_1.wav,Pink_Noise_6_2.wav,,,,,,,,,,,,,,,0,111,111,34,,,,,,,,,,,,,,,,,,,,,,,851.3250346940004,None,852.8410072179977,None,854.2244658449999,None,unit,854.2244658449999,None,return,4.757239061000291,854.3077969000005,None,,,,,,,,,,,,,,,,,,,,,,,,,,,,,,,,,114,001,2023_Jun_07_1456,SpeechDraft1Carolyn_lessNoise_PlusLocalization,2021.2.3,59.97514461972238,
fright.wav,fright.mpg,fright,5,A,Pink_Noise_5_1.wav,Pink_Noise_5_2.wav,,,,,,,,,,,,,,,0,112,112,56,,,,,,,,,,,,,,,,,,,,,,,859.0912820949998,None,860.6075942759999,None,861.9911995719995,None,front,861.9911995719995,None,return,2.0784777799999574,862.0744566689973,None,,,,,,,,,,,,,,,,,,,,,,,,,,,,,,,,,114,001,2023_Jun_07_1456,SpeechDraft1Carolyn_lessNoise_PlusLocalization,2021.2.3,59.97514461972238,
film.wav,film.mpg,film,4,AV,Pink_Noise_4_1.wav,Pink_Noise_4_2.wav,,,,,,,,,,,,,,,0,113,113,67,,,,,,,,,,,,,,,,,,,,,,,864.1744601209975,None,865.6908637889974,None,867.0744285010005,None,"film
",867.0744285010005,None,return,1.067165770000429,867.1577713669976,None,,,,,,,,,,,,,,,,,,,,,,,,,,,,,,,,,114,001,2023_Jun_07_1456,SpeechDraft1Carolyn_lessNoise_PlusLocalization,2021.2.3,59.97514461972238,
glove.wav,glove.mpg,glove,1,A,Pink_Noise_1_1.wav,Pink_Noise_1_2.wav,,,,,,,,,,,,,,,0,114,114,28,,,,,,,,,,,,,,,,,,,,,,,868.2577337179973,None,869.7578305539973,None,871.141153059998,None,glove,871.141153059998,None,return,1.528450835001422,871.2244765020005,None,,,,,,,,,,,,,,,,,,,,,,,,,,,,,,,,,114,001,2023_Jun_07_1456,SpeechDraft1Carolyn_lessNoise_PlusLocalization,2021.2.3,59.97514461972238,
clash.wav,clash.mpg,clash,2,AV,Pink_Noise_2_1.wav,Pink_Noise_2_2.wav,,,,,,,,,,,,,,,0,115,115,113,,,,,,,,,,,,,,,,,,,,,,,872.7744702829987,None,874.2910038049995,None,875.6744354229995,None,"clash
",875.6744354229995,None,return,1.251096387000871,875.7578364779984,None,,,,,,,,,,,,,,,,,,,,,,,,,,,,,,,,,114,001,2023_Jun_07_1456,SpeechDraft1Carolyn_lessNoise_PlusLocalization,2021.2.3,59.97514461972238,
bowl.wav,bowl.mpg,bowl,3,AV,Pink_Noise_3_1.wav,Pink_Noise_3_2.wav,,,,,,,,,,,,,,,0,116,116,98,,,,,,,,,,,,,,,,,,,,,,,877.0411926419984,None,878.574194902998,None,879.957815804999,None,"bowl
",879.957815804999,None,return,0.9197267130002729,880.041195122998,None,,,,,,,,,,,,,,,,,,,,,,,,,,,,,,,,,114,001,2023_Jun_07_1456,SpeechDraft1Carolyn_lessNoise_PlusLocalization,2021.2.3,59.97514461972238,
brake.wav,brake.mpg,brake,4,AV,Pink_Noise_4_1.wav,Pink_Noise_4_2.wav,,,,,,,,,,,,,,,0,117,117,117,,,,,,,,,,,,,,,,,,,,,,,880.991157176999,None,882.5076397150006,None,883.8910980279979,None,break,883.8910980279979,None,return,1.7066381389995513,883.9744388969993,None,,,,,,,,,,,,,,,,,,,,,,,,,,,,,,,,,114,001,2023_Jun_07_1456,SpeechDraft1Carolyn_lessNoise_PlusLocalization,2021.2.3,59.97514461972238,
box.wav,box.mpg,box,3,A,Pink_Noise_3_1.wav,Pink_Noise_3_2.wav,,,,,,,,,,,,,,,0,118,118,25,,,,,,,,,,,,,,,,,,,,,,,885.7078320100009,None,887.2081421929979,None,888.5912341980002,None,box,888.5912341980002,None,return,0.9584231660010119,888.6745275889989,None,,,,,,,,,,,,,,,,,,,,,,,,,,,,,,,,,114,001,2023_Jun_07_1456,SpeechDraft1Carolyn_lessNoise_PlusLocalization,2021.2.3,59.97514461972238,
east.wav,east.mpg,east,5,AV,Pink_Noise_5_1.wav,Pink_Noise_5_2.wav,,,,,,,,,,,,,,,0,119,119,61,,,,,,,,,,,,,,,,,,,,,,,889.6578382129992,None,891.157626586999,None,892.5411527119977,None,east,892.5411527119977,None,return,0.9763296710007126,892.6246336339973,None,,,,,,,,,,,,,,,,,,,,,,,,,,,,,,,,,114,001,2023_Jun_07_1456,SpeechDraft1Carolyn_lessNoise_PlusLocalization,2021.2.3,59.97514461972238,
,,,,,,,,,,,,,,,,,,,,,,,,,,,,,,,,,,,,,,,,,,,,,,,,,,,,,,,,,,,,,,,,,,space,21.764413862001675,893.7245537149975,None,,,,,,,,,,,,,,,,,,,,,,,114,001,2023_Jun_07_1456,SpeechDraft1Carolyn_lessNoise_PlusLocalization,2021.2.3,59.97514461972238,
,,,,,,,,midRight,13.0,3,ch1Sound_localizationTask.wav,13.0,"(1142, 878)","(182, -202)",190,-338,,,,,,,,,0,0,0,5,,,,,,,,,,,,,,,,,,,,,,,,,,,,,,,,,,,,,,,,,,893.7245537149975,None,915.5243661530003,None,916.6413323060005,None,917.5579711859973,None,1.1941798941798942,3.502536759002396,917.5579711859973,None,,,,,,,,,,,114,001,2023_Jun_07_1456,SpeechDraft1Carolyn_lessNoise_PlusLocalization,2021.2.3,59.97514461972238,
,,,,,,,,farLeft,-19.1,5,ch1Sound_localizationTask.wav,-19.1,"(667, 878)","(-293,-202)",-285,-338,,,,,,,,,0,1,1,0,,,,,,,,,,,,,,,,,,,,,,,,,,,,,,,,,,,,,,,,,,,,921.0578664200002,None,922.1576883710004,None,923.0911067159977,None,1.192063492063492,2.532622545000777,923.0911067159977,None,,,,,,,,,,,114,001,2023_Jun_07_1456,SpeechDraft1Carolyn_lessNoise_PlusLocalization,2021.2.3,59.97514461972238,
,,,,,,,,midLeft,-13.0,2,ch1Sound_localizationTask.wav,-13.0,"(762, 878)","(-198,-202)",-190,-338,,,,,,,,,0,2,2,1,,,,,,,,,,,,,,,,,,,,,,,,,,,,,,,,,,,,,,,,,,,,925.6245899999994,None,926.7244256239974,None,927.6576504429977,None,1.2412698412698413,0.9830657050006266,927.6576504429977,None,,,,,,,,,,,114,001,2023_Jun_07_1456,SpeechDraft1Carolyn_lessNoise_PlusLocalization,2021.2.3,59.97514461972238,
,,,,,,,,midLeft,-13.0,2,ch1Sound_localizationTask.wav,-13.0,"(762, 878)","(-198,-202)",-190,-338,,,,,,,,,0,3,3,1,,,,,,,,,,,,,,,,,,,,,,,,,,,,,,,,,,,,,,,,,,,,928.6413634960008,None,929.7410955189989,None,930.6747476969977,None,1.2126984126984128,0.8494866540022485,930.6747476969977,None,,,,,,,,,,,114,001,2023_Jun_07_1456,SpeechDraft1Carolyn_lessNoise_PlusLocalization,2021.2.3,59.97514461972238,
,,,,,,,,nearRight,6.5,0,ch1Sound_localizationTask.wav,6.5,"(1047, 878)","(87, -202)",95,-338,,,,,,,,,0,4,4,4,,,,,,,,,,,,,,,,,,,,,,,,,,,,,,,,,,,,,,,,,,,,931.5246581850006,None,932.6244565960005,None,933.5577959629991,None,1.6544973544973545,1.0993408360009198,933.5577959629991,None,,,,,,,,,,,114,001,2023_Jun_07_1456,SpeechDraft1Carolyn_lessNoise_PlusLocalization,2021.2.3,59.97514461972238,
,,,,,,,,midRight,13.0,3,ch1Sound_localizationTask.wav,13.0,"(1142, 878)","(182, -202)",190,-338,,,,,,,,,0,5,5,5,,,,,,,,,,,,,,,,,,,,,,,,,,,,,,,,,,,,,,,,,,,,934.6579647559993,None,935.7577556709984,None,936.691181017999,None,1.5714285714285714,0.8490361240001221,936.691181017999,None,,,,,,,,,,,114,001,2023_Jun_07_1456,SpeechDraft1Carolyn_lessNoise_PlusLocalization,2021.2.3,59.97514461972238,
,,,,,,,,nearLeft,-6.5,1,ch1Sound_localizationTask.wav,-6.5,"(857, 878)","(-103,-202)",-95,-338,,,,,,,,,0,6,6,2,,,,,,,,,,,,,,,,,,,,,,,,,,,,,,,,,,,,,,,,,,,,937.5413208649989,None,938.6409531530007,None,939.5743232819987,None,1.464021164021164,0.9493865800031926,939.5743232819987,None,,,,,,,,,,,114,001,2023_Jun_07_1456,SpeechDraft1Carolyn_lessNoise_PlusLocalization,2021.2.3,59.97514461972238,
,,,,,,,,midRight,13.0,3,ch1Sound_localizationTask.wav,13.0,"(1142, 878)","(182, -202)",190,-338,,,,,,,,,1,0,7,5,,,,,,,,,,,,,,,,,,,,,,,,,,,,,,,,,,,,,,,,,,,,940.5245795509982,None,941.6243738679987,None,942.5577544059997,None,1.7,0.9983346080007323,942.5577544059997,None,,,,,,,,,,,114,001,2023_Jun_07_1456,SpeechDraft1Carolyn_lessNoise_PlusLocalization,2021.2.3,59.97514461972238,
,,,,,,,,center,0.0,6,ch1Sound_localizationTask.wav,0.0,"(952, 878)","(-8,-202)",0,-338,,,,,,,,,1,1,8,3,,,,,,,,,,,,,,,,,,,,,,,,,,,,,,,,,,,,,,,,,,,,943.5580865819975,None,944.6577677919995,None,945.5910406500007,None,1.4005291005291005,1.2662746379974124,945.5910406500007,None,,,,,,,,,,,114,001,2023_Jun_07_1456,SpeechDraft1Carolyn_lessNoise_PlusLocalization,2021.2.3,59.97514461972238,
,,,,,,,,farLeft,-19.1,5,ch1Sound_localizationTask.wav,-19.1,"(667, 878)","(-293,-202)",-285,-338,,,,,,,,,1,2,9,0,,,,,,,,,,,,,,,,,,,,,,,,,,,,,,,,,,,,,,,,,,,,946.8579492839999,None,947.9576980370002,None,948.8910892999993,None,1.1888888888888889,0.7154379219973634,948.8910892999993,None,,,,,,,,,,,114,001,2023_Jun_07_1456,SpeechDraft1Carolyn_lessNoise_PlusLocalization,2021.2.3,59.97514461972238,
,,,,,,,,farLeft,-19.1,5,ch1Sound_localizationTask.wav,-19.1,"(667, 878)","(-293,-202)",-285,-338,,,,,,,,,1,3,10,0,,,,,,,,,,,,,,,,,,,,,,,,,,,,,,,,,,,,,,,,,,,,949.6081173309976,None,950.7078102140003,None,951.6409831860001,None,1.1952380952380952,0.7998663329999545,951.6409831860001,None,,,,,,,,,,,114,001,2023_Jun_07_1456,SpeechDraft1Carolyn_lessNoise_PlusLocalization,2021.2.3,59.97514461972238,
,,,,,,,,farLeft,-19.1,5,ch1Sound_localizationTask.wav,-19.1,"(667, 878)","(-293,-202)",-285,-338,,,,,,,,,1,4,11,0,,,,,,,,,,,,,,,,,,,,,,,,,,,,,,,,,,,,,,,,,,,,952.441711479998,None,953.5411004099988,None,954.4743104320005,None,1.2343915343915344,1.3999379130000307,954.4743104320005,None,,,,,,,,,,,114,001,2023_Jun_07_1456,SpeechDraft1Carolyn_lessNoise_PlusLocalization,2021.2.3,59.97514461972238,
,,,,,,,,center,0.0,6,ch1Sound_localizationTask.wav,0.0,"(952, 878)","(-8,-202)",0,-338,,,,,,,,,1,5,12,3,,,,,,,,,,,,,,,,,,,,,,,,,,,,,,,,,,,,,,,,,,,,955.8752059229992,None,956.9742737779998,None,957.9077133530009,None,1.5412698412698411,1.083765516999847,957.9077133530009,None,,,,,,,,,,,114,001,2023_Jun_07_1456,SpeechDraft1Carolyn_lessNoise_PlusLocalization,2021.2.3,59.97514461972238,
,,,,,,,,farRight,19.1,4,ch1Sound_localizationTask.wav,19.1,"(1237, 878)","(277,-202)",285,-338,,,,,,,,,1,6,13,6,,,,,,,,,,,,,,,,,,,,,,,,,,,,,,,,,,,,,,,,,,,,958.9921358389984,None,960.0911529500008,None,961.0243005509983,None,1.7365079365079366,0.616625415001181,961.0243005509983,None,,,,,,,,,,,114,001,2023_Jun_07_1456,SpeechDraft1Carolyn_lessNoise_PlusLocalization,2021.2.3,59.97514461972238,
,,,,,,,,midLeft,-13.0,2,ch1Sound_localizationTask.wav,-13.0,"(762, 878)","(-198,-202)",-190,-338,,,,,,,,,2,0,14,1,,,,,,,,,,,,,,,,,,,,,,,,,,,,,,,,,,,,,,,,,,,,961.6412656089997,None,962.7410554369999,None,963.6745089579999,None,1.3396825396825398,1.3334262050011603,963.6745089579999,None,,,,,,,,,,,114,001,2023_Jun_07_1456,SpeechDraft1Carolyn_lessNoise_PlusLocalization,2021.2.3,59.97514461972238,
,,,,,,,,center,0.0,6,ch1Sound_localizationTask.wav,0.0,"(952, 878)","(-8,-202)",0,-338,,,,,,,,,2,1,15,3,,,,,,,,,,,,,,,,,,,,,,,,,,,,,,,,,,,,,,,,,,,,965.0080040499997,None,966.1078493019995,None,967.0412560929981,None,1.4841269841269842,0.6822496929999033,967.0412560929981,None,,,,,,,,,,,114,001,2023_Jun_07_1456,SpeechDraft1Carolyn_lessNoise_PlusLocalization,2021.2.3,59.97514461972238,
,,,,,,,,nearRight,6.5,0,ch1Sound_localizationTask.wav,6.5,"(1047, 878)","(87, -202)",95,-338,,,,,,,,,2,2,16,4,,,,,,,,,,,,,,,,,,,,,,,,,,,,,,,,,,,,,,,,,,,,967.7246582599983,None,968.8244611759983,None,969.7578305639981,None,1.5820105820105819,0.8154842759977328,969.7578305639981,None,,,,,,,,,,,114,001,2023_Jun_07_1456,SpeechDraft1Carolyn_lessNoise_PlusLocalization,2021.2.3,59.97514461972238,
,,,,,,,,nearLeft,-6.5,1,ch1Sound_localizationTask.wav,-6.5,"(857, 878)","(-103,-202)",-95,-338,,,,,,,,,2,3,17,2,,,,,,,,,,,,,,,,,,,,,,,,,,,,,,,,,,,,,,,,,,,,970.5746826639988,None,971.6744385269994,None,972.6077701149989,None,1.3693121693121693,0.9164014110028802,972.6077701149989,None,,,,,,,,,,,114,001,2023_Jun_07_1456,SpeechDraft1Carolyn_lessNoise_PlusLocalization,2021.2.3,59.97514461972238,
,,,,,,,,nearLeft,-6.5,1,ch1Sound_localizationTask.wav,-6.5,"(857, 878)","(-103,-202)",-95,-338,,,,,,,,,2,4,18,2,,,,,,,,,,,,,,,,,,,,,,,,,,,,,,,,,,,,,,,,,,,,973.5246098120006,None,974.6244516890001,None,975.5577583939994,None,1.3238095238095238,0.6495754330026102,975.5577583939994,None,,,,,,,,,,,114,001,2023_Jun_07_1456,SpeechDraft1Carolyn_lessNoise_PlusLocalization,2021.2.3,59.97514461972238,
,,,,,,,,nearRight,6.5,0,ch1Sound_localizationTask.wav,6.5,"(1047, 878)","(87, -202)",95,-338,,,,,,,,,2,5,19,4,,,,,,,,,,,,,,,,,,,,,,,,,,,,,,,,,,,,,,,,,,,,976.2080608319993,None,977.3078330639983,None,978.2412298290001,None,1.7211640211640211,0.9159773029969074,978.2412298290001,None,,,,,,,,,,,114,001,2023_Jun_07_1456,SpeechDraft1Carolyn_lessNoise_PlusLocalization,2021.2.3,59.97514461972238,
,,,,,,,,farRight,19.1,4,ch1Sound_localizationTask.wav,19.1,"(1237, 878)","(277,-202)",285,-338,,,,,,,,,2,6,20,6,,,,,,,,,,,,,,,,,,,,,,,,,,,,,,,,,,,,,,,,,,,,979.158214310999,None,980.2576991479982,None,981.1911604140005,None,1.6343915343915345,0.9328725169980316,981.1911604140005,None,,,,,,,,,,,114,001,2023_Jun_07_1456,SpeechDraft1Carolyn_lessNoise_PlusLocalization,2021.2.3,59.97514461972238,
,,,,,,,,midLeft,-13.0,2,ch1Sound_localizationTask.wav,-13.0,"(762, 878)","(-198,-202)",-190,-338,,,,,,,,,3,0,21,1,,,,,,,,,,,,,,,,,,,,,,,,,,,,,,,,,,,,,,,,,,,,982.1253122169983,None,983.2244977409973,None,984.157785176998,None,1.2846560846560846,1.0150448489985138,984.157785176998,None,,,,,,,,,,,114,001,2023_Jun_07_1456,SpeechDraft1Carolyn_lessNoise_PlusLocalization,2021.2.3,59.97514461972238,
,,,,,,,,farRight,19.1,4,ch1Sound_localizationTask.wav,19.1,"(1237, 878)","(277,-202)",285,-338,,,,,,,,,3,1,22,6,,,,,,,,,,,,,,,,,,,,,,,,,,,,,,,,,,,,,,,,,,,,985.1747013679997,None,986.2745419409985,None,987.2076930999974,None,1.6534391534391535,1.4494689300008758,987.2076930999974,None,,,,,,,,,,,114,001,2023_Jun_07_1456,SpeechDraft1Carolyn_lessNoise_PlusLocalization,2021.2.3,59.97514461972238,
,,,,,,,,midRight,13.0,3,ch1Sound_localizationTask.wav,13.0,"(1142, 878)","(182, -202)",190,-338,,,,,,,,,3,2,23,5,,,,,,,,,,,,,,,,,,,,,,,,,,,,,,,,,,,,,,,,,,,,988.6580231619992,None,989.7579389919993,None,990.6911075690005,None,1.5634920634920635,1.1169169550012157,990.6911075690005,None,,,,,,,,,,,114,001,2023_Jun_07_1456,SpeechDraft1Carolyn_lessNoise_PlusLocalization,2021.2.3,59.97514461972238,
,,,,,,,,farLeft,-19.1,5,ch1Sound_localizationTask.wav,-19.1,"(667, 878)","(-293,-202)",-285,-338,,,,,,,,,3,3,24,0,,,,,,,,,,,,,,,,,,,,,,,,,,,,,,,,,,,,,,,,,,,,991.8246273080003,None,992.9244542079978,None,993.8579029989996,None,1.17989417989418,1.3485358209982223,993.8579029989996,None,,,,,,,,,,,114,001,2023_Jun_07_1456,SpeechDraft1Carolyn_lessNoise_PlusLocalization,2021.2.3,59.97514461972238,
,,,,,,,,farLeft,-19.1,5,ch1Sound_localizationTask.wav,-19.1,"(667, 878)","(-293,-202)",-285,-338,,,,,,,,,3,4,25,0,,,,,,,,,,,,,,,,,,,,,,,,,,,,,,,,,,,,,,,,,,,,995.2080388489994,None,996.3078580500005,None,997.2410942469978,None,1.191005291005291,1.2332350319993566,997.2410942469978,None,,,,,,,,,,,114,001,2023_Jun_07_1456,SpeechDraft1Carolyn_lessNoise_PlusLocalization,2021.2.3,59.97514461972238,
,,,,,,,,midRight,13.0,3,ch1Sound_localizationTask.wav,13.0,"(1142, 878)","(182, -202)",190,-338,,,,,,,,,3,5,26,5,,,,,,,,,,,,,,,,,,,,,,,,,,,,,,,,,,,,,,,,,,,,998.4749494530006,None,999.5745656299987,None,1000.5079187369993,None,1.665079365079365,1.0493913829996018,1000.5079187369993,None,,,,,,,,,,,114,001,2023_Jun_07_1456,SpeechDraft1Carolyn_lessNoise_PlusLocalization,2021.2.3,59.97514461972238,
,,,,,,,,nearRight,6.5,0,ch1Sound_localizationTask.wav,6.5,"(1047, 878)","(87, -202)",95,-338,,,,,,,,,3,6,27,4,,,,,,,,,,,,,,,,,,,,,,,,,,,,,,,,,,,,,,,,,,,,1001.5584323559997,None,1002.6578620500004,None,1003.5911059589998,None,1.564021164021164,0.5986472760014294,1003.5911059589998,None,,,,,,,,,,,114,001,2023_Jun_07_1456,SpeechDraft1Carolyn_lessNoise_PlusLocalization,2021.2.3,59.97514461972238,
,,,,,,,,nearLeft,-6.5,1,ch1Sound_localizationTask.wav,-6.5,"(857, 878)","(-103,-202)",-95,-338,,,,,,,,,4,0,28,2,,,,,,,,,,,,,,,,,,,,,,,,,,,,,,,,,,,,,,,,,,,,1004.1913409539993,None,1005.2911603529974,None,1006.2245937589978,None,1.3174603174603174,0.6995436119977967,1006.2245937589978,None,,,,,,,,,,,114,001,2023_Jun_07_1456,SpeechDraft1Carolyn_lessNoise_PlusLocalization,2021.2.3,59.97514461972238,
,,,,,,,,nearRight,6.5,0,ch1Sound_localizationTask.wav,6.5,"(1047, 878)","(87, -202)",95,-338,,,,,,,,,4,1,29,4,,,,,,,,,,,,,,,,,,,,,,,,,,,,,,,,,,,,,,,,,,,,1006.9246526429997,None,1008.0244011959985,None,1008.9578440990008,None,1.5862433862433862,0.8155257090002124,1008.9578440990008,None,,,,,,,,,,,114,001,2023_Jun_07_1456,SpeechDraft1Carolyn_lessNoise_PlusLocalization,2021.2.3,59.97514461972238,
,,,,,,,,center,0.0,6,ch1Sound_localizationTask.wav,0.0,"(952, 878)","(-8,-202)",0,-338,,,,,,,,,4,2,30,3,,,,,,,,,,,,,,,,,,,,,,,,,,,,,,,,,,,,,,,,,,,,1009.7745838029987,None,1010.8744604659987,None,1011.8077628149986,None,1.438095238095238,0.7818192019985872,1011.8077628149986,None,,,,,,,,,,,114,001,2023_Jun_07_1456,SpeechDraft1Carolyn_lessNoise_PlusLocalization,2021.2.3,59.97514461972238,
,,,,,,,,midLeft,-13.0,2,ch1Sound_localizationTask.wav,-13.0,"(762, 878)","(-198,-202)",-190,-338,,,,,,,,,4,3,31,1,,,,,,,,,,,,,,,,,,,,,,,,,,,,,,,,,,,,,,,,,,,,1012.5918070169973,None,1013.6912467789989,None,1014.624497552999,None,1.2576719576719577,1.0000338909994753,1014.624497552999,None,,,,,,,,,,,114,001,2023_Jun_07_1456,SpeechDraft1Carolyn_lessNoise_PlusLocalization,2021.2.3,59.97514461972238,
,,,,,,,,farRight,19.1,4,ch1Sound_localizationTask.wav,19.1,"(1237, 878)","(277,-202)",285,-338,,,,,,,,,4,4,32,6,,,,,,,,,,,,,,,,,,,,,,,,,,,,,,,,,,,,,,,,,,,,1015.6247374890008,None,1016.7244123460005,None,1017.6580498900003,None,1.7423280423280423,0.8002067220004392,1017.6580498900003,None,,,,,,,,,,,114,001,2023_Jun_07_1456,SpeechDraft1Carolyn_lessNoise_PlusLocalization,2021.2.3,59.97514461972238,
,,,,,,,,nearLeft,-6.5,1,ch1Sound_localizationTask.wav,-6.5,"(857, 878)","(-103,-202)",-95,-338,,,,,,,,,4,5,33,2,,,,,,,,,,,,,,,,,,,,,,,,,,,,,,,,,,,,,,,,,,,,1018.4591658530007,None,1019.5578712360002,None,1020.4913649409973,None,1.3597883597883598,1.4155035820003832,1020.4913649409973,None,,,,,,,,,,,114,001,2023_Jun_07_1456,SpeechDraft1Carolyn_lessNoise_PlusLocalization,2021.2.3,59.97514461972238,
,,,,,,,,farRight,19.1,4,ch1Sound_localizationTask.wav,19.1,"(1237, 878)","(277,-202)",285,-338,,,,,,,,,4,6,34,6,,,,,,,,,,,,,,,,,,,,,,,,,,,,,,,,,,,,,,,,,,,,1021.9082079359978,None,1023.0078363030007,None,1023.9412220619997,None,1.7455026455026454,0.8161013860008097,1023.9412220619997,None,,,,,,,,,,,114,001,2023_Jun_07_1456,SpeechDraft1Carolyn_lessNoise_PlusLocalization,2021.2.3,59.97514461972238,
,,,,,,,,nearLeft,-6.5,1,ch1Sound_localizationTask.wav,-6.5,"(857, 878)","(-103,-202)",-95,-338,,,,,,,,,5,0,35,2,,,,,,,,,,,,,,,,,,,,,,,,,,,,,,,,,,,,,,,,,,,,1024.7584839659976,None,1025.8577673100008,None,1026.7910531889975,None,1.4074074074074074,1.3157857289988897,1026.7910531889975,None,,,,,,,,,,,114,001,2023_Jun_07_1456,SpeechDraft1Carolyn_lessNoise_PlusLocalization,2021.2.3,59.97514461972238,
,,,,,,,,farLeft,-19.1,5,ch1Sound_localizationTask.wav,-19.1,"(667, 878)","(-293,-202)",-285,-338,,,,,,,,,5,1,36,0,,,,,,,,,,,,,,,,,,,,,,,,,,,,,,,,,,,,,,,,,,,,1028.1095277189997,None,1029.2245034389998,None,1030.1411191129991,None,1.3492063492063493,1.7005744899979618,1030.1411191129991,None,,,,,,,,,,,114,001,2023_Jun_07_1456,SpeechDraft1Carolyn_lessNoise_PlusLocalization,2021.2.3,59.97514461972238,
,,,,,,,,farRight,19.1,4,ch1Sound_localizationTask.wav,19.1,"(1237, 878)","(277,-202)",285,-338,,,,,,,,,5,2,37,6,,,,,,,,,,,,,,,,,,,,,,,,,,,,,,,,,,,,,,,,,,,,1031.8431347219994,None,1032.9580515179987,None,1033.8747355970008,None,1.7878306878306878,0.8160574699977587,1033.8747355970008,None,,,,,,,,,,,114,001,2023_Jun_07_1456,SpeechDraft1Carolyn_lessNoise_PlusLocalization,2021.2.3,59.97514461972238,
,,,,,,,,center,0.0,6,ch1Sound_localizationTask.wav,0.0,"(952, 878)","(-8,-202)",0,-338,,,,,,,,,5,3,38,3,,,,,,,,,,,,,,,,,,,,,,,,,,,,,,,,,,,,,,,,,,,,1034.6914377129979,None,1035.7912728289994,None,1036.7244987939994,None,1.5666666666666667,0.749176945999352,1036.7244987939994,None,,,,,,,,,,,114,001,2023_Jun_07_1456,SpeechDraft1Carolyn_lessNoise_PlusLocalization,2021.2.3,59.97514461972238,
,,,,,,,,farRight,19.1,4,ch1Sound_localizationTask.wav,19.1,"(1237, 878)","(277,-202)",285,-338,,,,,,,,,5,4,39,6,,,,,,,,,,,,,,,,,,,,,,,,,,,,,,,,,,,,,,,,,,,,1037.4751587869978,None,1038.574562804999,None,1039.5079304280007,None,1.626984126984127,0.39910213300026953,1039.5079304280007,None,,,,,,,,,,,114,001,2023_Jun_07_1456,SpeechDraft1Carolyn_lessNoise_PlusLocalization,2021.2.3,59.97514461972238,
,,,,,,,,farLeft,-19.1,5,ch1Sound_localizationTask.wav,-19.1,"(667, 878)","(-293,-202)",-285,-338,,,,,,,,,5,5,40,0,,,,,,,,,,,,,,,,,,,,,,,,,,,,,,,,,,,,,,,,,,,,1039.908177808,None,1041.0080191579982,None,1041.9412345550008,None,1.3576719576719576,1.1836357190004492,1041.9412345550008,None,,,,,,,,,,,114,001,2023_Jun_07_1456,SpeechDraft1Carolyn_lessNoise_PlusLocalization,2021.2.3,59.97514461972238,
,,,,,,,,midRight,13.0,3,ch1Sound_localizationTask.wav,13.0,"(1142, 878)","(182, -202)",190,-338,,,,,,,,,5,6,41,5,,,,,,,,,,,,,,,,,,,,,,,,,,,,,,,,,,,,,,,,,,,,1043.1253042129974,None,1044.2244900549995,None,1045.1579906250008,None,1.762962962962963,1.1661943530016288,1045.1579906250008,None,,,,,,,,,,,114,001,2023_Jun_07_1456,SpeechDraft1Carolyn_lessNoise_PlusLocalization,2021.2.3,59.97514461972238,
,,,,,,,,center,0.0,6,ch1Sound_localizationTask.wav,0.0,"(952, 878)","(-8,-202)",0,-338,,,,,,,,,6,0,42,3,,,,,,,,,,,,,,,,,,,,,,,,,,,,,,,,,,,,,,,,,,,,1046.3259066699975,None,1047.4411775109984,None,1048.3579327039988,None,1.5037037037037035,0.7325148599993554,1048.3579327039988,None,,,,,,,,,,,114,001,2023_Jun_07_1456,SpeechDraft1Carolyn_lessNoise_PlusLocalization,2021.2.3,59.97514461972238,
,,,,,,,,midLeft,-13.0,2,ch1Sound_localizationTask.wav,-13.0,"(762, 878)","(-198,-202)",-190,-338,,,,,,,,,6,1,43,1,,,,,,,,,,,,,,,,,,,,,,,,,,,,,,,,,,,,,,,,,,,,1049.091444875001,None,1050.1911257549982,None,1051.1245552250002,None,1.3814814814814815,0.9500346460008586,1051.1245552250002,None,,,,,,,,,,,114,001,2023_Jun_07_1456,SpeechDraft1Carolyn_lessNoise_PlusLocalization,2021.2.3,59.97514461972238,
,,,,,,,,nearRight,6.5,0,ch1Sound_localizationTask.wav,6.5,"(1047, 878)","(87, -202)",95,-338,,,,,,,,,6,2,44,4,,,,,,,,,,,,,,,,,,,,,,,,,,,,,,,,,,,,,,,,,,,,1052.0747646179989,None,1053.174546372,None,1054.1078778899973,None,1.621164021164021,0.6834639949993289,1054.1078778899973,None,,,,,,,,,,,114,001,2023_Jun_07_1456,SpeechDraft1Carolyn_lessNoise_PlusLocalization,2021.2.3,59.97514461972238,
,,,,,,,,midLeft,-13.0,2,ch1Sound_localizationTask.wav,-13.0,"(762, 878)","(-198,-202)",-190,-338,,,,,,,,,6,3,45,1,,,,,,,,,,,,,,,,,,,,,,,,,,,,,,,,,,,,,,,,,,,,1054.7913917250007,None,1055.8913583469985,None,1056.8245211549984,None,1.3291005291005291,1.3330197020004562,1056.8245211549984,None,,,,,,,,,,,114,001,2023_Jun_07_1456,SpeechDraft1Carolyn_lessNoise_PlusLocalization,2021.2.3,59.97514461972238,
,,,,,,,,farRight,19.1,4,ch1Sound_localizationTask.wav,19.1,"(1237, 878)","(277,-202)",285,-338,,,,,,,,,6,4,46,6,,,,,,,,,,,,,,,,,,,,,,,,,,,,,,,,,,,,,,,,,,,,1058.1581465739982,None,1059.2578442609993,None,1060.1912744309993,None,1.7566137566137567,0.7164133699989179,1060.1912744309993,None,,,,,,,,,,,114,001,2023_Jun_07_1456,SpeechDraft1Carolyn_lessNoise_PlusLocalization,2021.2.3,59.97514461972238,
,,,,,,,,nearLeft,-6.5,1,ch1Sound_localizationTask.wav,-6.5,"(857, 878)","(-103,-202)",-95,-338,,,,,,,,,6,5,47,2,,,,,,,,,,,,,,,,,,,,,,,,,,,,,,,,,,,,,,,,,,,,1060.9081055949973,None,1062.0078005789983,None,1062.9412603870005,None,1.4465608465608466,0.9501534869996249,1062.9412603870005,None,,,,,,,,,,,114,001,2023_Jun_07_1456,SpeechDraft1Carolyn_lessNoise_PlusLocalization,2021.2.3,59.97514461972238,
,,,,,,,,center,0.0,6,ch1Sound_localizationTask.wav,0.0,"(952, 878)","(-8,-202)",0,-338,,,,,,,,,6,6,48,3,,,,,,,,,,,,,,,,,,,,,,,,,,,,,,,,,,,,,,,,,,,,1063.9082421979983,None,1065.0078846789984,None,1065.941359974,None,1.444973544973545,0.28350650100037456,1065.941359974,None,,,,,,,,,,,114,001,2023_Jun_07_1456,SpeechDraft1Carolyn_lessNoise_PlusLocalization,2021.2.3,59.97514461972238,
,,,,,,,,nearRight,6.5,0,ch1Sound_localizationTask.wav,6.5,"(1047, 878)","(87, -202)",95,-338,,,,,,,,,7,0,49,4,,,,,,,,,,,,,,,,,,,,,,,,,,,,,,,,,,,,,,,,,,,,1066.2251767140006,None,1067.3244821189983,None,1068.2579757179992,None,1.6555555555555554,0.6666175589998602,1068.2579757179992,None,,,,,,,,,,,114,001,2023_Jun_07_1456,SpeechDraft1Carolyn_lessNoise_PlusLocalization,2021.2.3,59.97514461972238,
,,,,,,,,midLeft,-13.0,2,ch1Sound_localizationTask.wav,-13.0,"(762, 878)","(-198,-202)",-190,-338,,,,,,,,,7,1,50,1,,,,,,,,,,,,,,,,,,,,,,,,,,,,,,,,,,,,,,,,,,,,1068.9248949190005,None,1070.0246020279992,None,1070.9579905499995,None,1.4026455026455027,0.8672340600023745,1070.9579905499995,None,,,,,,,,,,,114,001,2023_Jun_07_1456,SpeechDraft1Carolyn_lessNoise_PlusLocalization,2021.2.3,59.97514461972238,
,,,,,,,,midRight,13.0,3,ch1Sound_localizationTask.wav,13.0,"(1142, 878)","(182, -202)",190,-338,,,,,,,,,7,2,51,5,,,,,,,,,,,,,,,,,,,,,,,,,,,,,,,,,,,,,,,,,,,,1071.8261166240009,None,1072.9412036329995,None,1073.8579204889975,None,1.6444444444444444,0.6316506779985502,1073.8579204889975,None,,,,,,,,,,,114,001,2023_Jun_07_1456,SpeechDraft1Carolyn_lessNoise_PlusLocalization,2021.2.3,59.97514461972238,
,,,,,,,,center,0.0,6,ch1Sound_localizationTask.wav,0.0,"(952, 878)","(-8,-202)",0,-338,,,,,,,,,7,3,52,3,,,,,,,,,,,,,,,,,,,,,,,,,,,,,,,,,,,,,,,,,,,,1074.4915401379985,None,1075.5910616449983,None,1076.5246903480001,None,1.4370370370370371,0.9665579719985544,1076.5246903480001,None,,,,,,,,,,,114,001,2023_Jun_07_1456,SpeechDraft1Carolyn_lessNoise_PlusLocalization,2021.2.3,59.97514461972238,
,,,,,,,,nearLeft,-6.5,1,ch1Sound_localizationTask.wav,-6.5,"(857, 878)","(-103,-202)",-95,-338,,,,,,,,,7,4,53,2,,,,,,,,,,,,,,,,,,,,,,,,,,,,,,,,,,,,,,,,,,,,1077.4914798469981,None,1078.5911685009996,None,1079.5247537529976,None,1.4,0.5837937020005484,1079.5247537529976,None,,,,,,,,,,,114,001,2023_Jun_07_1456,SpeechDraft1Carolyn_lessNoise_PlusLocalization,2021.2.3,59.97514461972238,
,,,,,,,,midRight,13.0,3,ch1Sound_localizationTask.wav,13.0,"(1142, 878)","(182, -202)",190,-338,,,,,,,,,7,5,54,5,,,,,,,,,,,,,,,,,,,,,,,,,,,,,,,,,,,,,,,,,,,,1080.1088828779975,None,1081.207943786998,None,1082.1414212529999,None,1.6375661375661377,1.265477106000617,1082.1414212529999,None,,,,,,,,,,,114,001,2023_Jun_07_1456,SpeechDraft1Carolyn_lessNoise_PlusLocalization,2021.2.3,59.97514461972238,
,,,,,,,,nearRight,6.5,0,ch1Sound_localizationTask.wav,6.5,"(1047, 878)","(87, -202)",95,-338,,,,,,,,,7,6,55,4,,,,,,,,,,,,,,,,,,,,,,,,,,,,,,,,,,,,,,,,,,,,1083.408179959999,None,1084.507938109,None,1085.4411843540001,None,1.5703703703703704,0.7655889989982825,1085.4411843540001,None,,,,,,,,,,,114,001,2023_Jun_07_1456,SpeechDraft1Carolyn_lessNoise_PlusLocalization,2021.2.3,59.97514461972238,
,,,,,,,,,,,,,,,,,,,,,,,,,,,,,,,,,,,,,,,,,,,,,,,,,,,,,,,,,,,,,,,,,,,,,,,,,,,,,,,,,,space,9.781328850000136,1086.2916248049987,None,,,,,,,114,001,2023_Jun_07_1456,SpeechDraft1Carolyn_lessNoise_PlusLocalization,2021.2.3,59.97514461972238,
,,,,,,,,center,0.0,6,ch1Sound_localizationTask.wav,0.0,"(952, 878)","(-8,-202)",0,-338,,,,,,,,,,,,,0,0,0,3,,,,,,,,,,,,,,,,,,,,,,,,,,,,,,,,,,,,,,,,1096.1080261159987,None,,,1099.1252265179974,None,1.5185185185185186,1.887136257999373,1099.1252265179974,None,,,,,1086.2916248049987,None,1097.1081466959986,None,1097.3078864540003,1097.324873311998,114,001,2023_Jun_07_1456,SpeechDraft1Carolyn_lessNoise_PlusLocalization,2021.2.3,59.97514461972238,
,,,,,,,,farRight,19.1,4,ch1Sound_localizationTask.wav,19.1,"(1237, 878)","(277,-202)",285,-338,,,,,,,,,,,,,0,1,1,6,,,,,,,,,,,,,,,,,,,,,,,,,,,,,,,,,,,,,,,,1101.0247424169975,None,,,1104.0412198890008,None,1.7095238095238094,0.8822687809988565,1104.0412198890008,None,,,,,,,1102.024839198999,None,1102.2082010560007,1102.2248507479999,114,001,2023_Jun_07_1456,SpeechDraft1Carolyn_lessNoise_PlusLocalization,2021.2.3,59.97514461972238,
,,,,,,,,center,0.0,6,ch1Sound_localizationTask.wav,0.0,"(952, 878)","(-8,-202)",0,-338,,,,,,,,,,,,,0,2,2,3,,,,,,,,,,,,,,,,,,,,,,,,,,,,,,,,,,,,,,,,1104.9248446979982,None,,,1107.941362190999,None,1.5153439153439154,1.0492177609994542,1107.941362190999,None,,,,,,,1105.9249597149974,None,1106.1081916889998,1106.1249391790006,114,001,2023_Jun_07_1456,SpeechDraft1Carolyn_lessNoise_PlusLocalization,2021.2.3,59.97514461972238,
,,,,,,,,nearRight,6.5,0,ch1Sound_localizationTask.wav,6.5,"(1047, 878)","(87, -202)",95,-338,,,,,,,,,,,,,0,3,3,4,,,,,,,,,,,,,,,,,,,,,,,,,,,,,,,,,,,,,,,,1108.991463511,None,,,1112.0080000809976,None,1.5904761904761906,0.7825121759997273,1112.0080000809976,None,,,,,,,1109.9915381789979,None,1110.174809496999,1110.1915470899985,114,001,2023_Jun_07_1456,SpeechDraft1Carolyn_lessNoise_PlusLocalization,2021.2.3,59.97514461972238,
,,,,,,,,nearLeft,-6.5,1,ch1Sound_localizationTask.wav,-6.5,"(857, 878)","(-103,-202)",-95,-338,,,,,,,,,,,,,0,4,4,2,,,,,,,,,,,,,,,,,,,,,,,,,,,,,,,,,,,,,,,,1112.7914789329989,None,,,1115.8078809729996,None,1.4195767195767197,1.1660812030022498,1115.8078809729996,None,,,,,,,1113.7916123299983,None,1113.9749060549984,1113.9916969009973,114,001,2023_Jun_07_1456,SpeechDraft1Carolyn_lessNoise_PlusLocalization,2021.2.3,59.97514461972238,
,,,,,,,,farRight,19.1,4,ch1Sound_localizationTask.wav,19.1,"(1237, 878)","(277,-202)",285,-338,,,,,,,,,,,,,0,5,5,6,,,,,,,,,,,,,,,,,,,,,,,,,,,,,,,,,,,,,,,,1116.9748255949999,None,,,1119.9913062230007,None,1.6671957671957671,0.7991780969969113,1119.9913062230007,None,,,,,,,1117.9747669829994,None,1118.1583234610007,1118.174844907,114,001,2023_Jun_07_1456,SpeechDraft1Carolyn_lessNoise_PlusLocalization,2021.2.3,59.97514461972238,
,,,,,,,,nearRight,6.5,0,ch1Sound_localizationTask.wav,6.5,"(1047, 878)","(87, -202)",95,-338,,,,,,,,,,,,,0,6,6,4,,,,,,,,,,,,,,,,,,,,,,,,,,,,,,,,,,,,,,,,1120.7921002369985,None,,,1123.8080767449974,None,1.5783068783068783,0.9675932489990373,1123.8080767449974,None,,,,,,,1121.7914778939994,None,1121.9748645670006,1121.9914858979973,114,001,2023_Jun_07_1456,SpeechDraft1Carolyn_lessNoise_PlusLocalization,2021.2.3,59.97514461972238,
,,,,,,,,center,0.0,6,ch1Sound_localizationTask.wav,0.0,"(952, 878)","(-8,-202)",0,-338,,,,,,,,,,,,,1,0,7,3,,,,,,,,,,,,,,,,,,,,,,,,,,,,,,,,,,,,,,,,1124.7914313099973,None,,,1127.8081270330003,None,1.457142857142857,0.16451651999886963,1127.8081270330003,None,,,,,,,1125.7915035980004,None,1125.9748777379973,1125.991445241998,114,001,2023_Jun_07_1456,SpeechDraft1Carolyn_lessNoise_PlusLocalization,2021.2.3,59.97514461972238,
,,,,,,,,midLeft,-13.0,2,ch1Sound_localizationTask.wav,-13.0,"(762, 878)","(-198,-202)",-190,-338,,,,,,,,,,,,,1,1,8,1,,,,,,,,,,,,,,,,,,,,,,,,,,,,,,,,,,,,,,,,1127.9748360539998,None,,,1130.9913753389992,None,1.4047619047619047,1.2659440589995938,1130.9913753389992,None,,,,,,,1128.974825587,None,1129.1582360569992,1129.1748999800002,114,001,2023_Jun_07_1456,SpeechDraft1Carolyn_lessNoise_PlusLocalization,2021.2.3,59.97514461972238,
,,,,,,,,nearLeft,-6.5,1,ch1Sound_localizationTask.wav,-6.5,"(857, 878)","(-103,-202)",-95,-338,,,,,,,,,,,,,1,2,9,2,,,,,,,,,,,,,,,,,,,,,,,,,,,,,,,,,,,,,,,,1132.2583138499976,None,,,1135.2747263979982,None,1.4666666666666668,1.0480704909969063,1135.2747263979982,None,,,,,,,1133.2582476649986,None,1133.441604648,1133.4581613019982,114,001,2023_Jun_07_1456,SpeechDraft1Carolyn_lessNoise_PlusLocalization,2021.2.3,59.97514461972238,
,,,,,,,,farRight,19.1,4,ch1Sound_localizationTask.wav,19.1,"(1237, 878)","(277,-202)",285,-338,,,,,,,,,,,,,1,3,10,6,,,,,,,,,,,,,,,,,,,,,,,,,,,,,,,,,,,,,,,,1136.3253654849977,None,,,1139.3413857119995,None,1.7174603174603176,0.847918794999714,1139.3413857119995,None,,,,,,,1137.3251182050008,None,1137.5082616969994,1137.5249667459975,114,001,2023_Jun_07_1456,SpeechDraft1Carolyn_lessNoise_PlusLocalization,2021.2.3,59.97514461972238,
,,,,,,,,center,0.0,6,ch1Sound_localizationTask.wav,0.0,"(952, 878)","(-8,-202)",0,-338,,,,,,,,,,,,,1,4,11,3,,,,,,,,,,,,,,,,,,,,,,,,,,,,,,,,,,,,,,,,1140.1915410580004,None,,,1143.2078526179976,None,1.483068783068783,0.8487765259997104,1143.2078526179976,None,,,,,,,1141.1915284179995,None,1141.3748984689992,1141.3917110809998,114,001,2023_Jun_07_1456,SpeechDraft1Carolyn_lessNoise_PlusLocalization,2021.2.3,59.97514461972238,
,,,,,,,,midRight,13.0,3,ch1Sound_localizationTask.wav,13.0,"(1142, 878)","(182, -202)",190,-338,,,,,,,,,,,,,1,5,12,5,,,,,,,,,,,,,,,,,,,,,,,,,,,,,,,,,,,,,,,,1144.0582023989991,None,,,1147.0748132459994,None,1.6894179894179895,0.9326159069969435,1147.0748132459994,None,,,,,,,1145.0582211170004,None,1145.2416711570004,1145.2582493739974,114,001,2023_Jun_07_1456,SpeechDraft1Carolyn_lessNoise_PlusLocalization,2021.2.3,59.97514461972238,
,,,,,,,,nearRight,6.5,0,ch1Sound_localizationTask.wav,6.5,"(1047, 878)","(87, -202)",95,-338,,,,,,,,,,,,,1,6,13,4,,,,,,,,,,,,,,,,,,,,,,,,,,,,,,,,,,,,,,,,1148.0082006849989,None,,,1151.024707886998,None,1.5698412698412698,1.165266200001497,1151.024707886998,None,,,,,,,1149.0083853549986,None,1149.191568074999,1149.2082798169977,114,001,2023_Jun_07_1456,SpeechDraft1Carolyn_lessNoise_PlusLocalization,2021.2.3,59.97514461972238,
,,,,,,,,midLeft,-13.0,2,ch1Sound_localizationTask.wav,-13.0,"(762, 878)","(-198,-202)",-190,-338,,,,,,,,,,,,,2,0,14,1,,,,,,,,,,,,,,,,,,,,,,,,,,,,,,,,,,,,,,,,1152.191555229998,None,,,1155.2080063279973,None,1.356084656084656,0.9659421469987137,1155.2080063279973,None,,,,,,,1153.1917747400003,None,1153.374879343999,1153.3916563759994,114,001,2023_Jun_07_1456,SpeechDraft1Carolyn_lessNoise_PlusLocalization,2021.2.3,59.97514461972238,
,,,,,,,,nearLeft,-6.5,1,ch1Sound_localizationTask.wav,-6.5,"(857, 878)","(-103,-202)",-95,-338,,,,,,,,,,,,,2,1,15,2,,,,,,,,,,,,,,,,,,,,,,,,,,,,,,,,,,,,,,,,1156.1748816969994,None,,,1159.1914525309985,None,1.447089947089947,0.6491550749997259,1159.1914525309985,None,,,,,,,1157.1749325169985,None,1157.3582650399985,1157.3749383169998,114,001,2023_Jun_07_1456,SpeechDraft1Carolyn_lessNoise_PlusLocalization,2021.2.3,59.97514461972238,
,,,,,,,,center,0.0,6,ch1Sound_localizationTask.wav,0.0,"(952, 878)","(-8,-202)",0,-338,,,,,,,,,,,,,2,2,16,3,,,,,,,,,,,,,,,,,,,,,,,,,,,,,,,,,,,,,,,,1159.841582699999,None,,,1162.8580691360003,None,1.4994708994708994,0.8837882799998624,1162.8580691360003,None,,,,,,,1160.8414810110007,None,1161.0251148489988,1161.0416617779993,114,001,2023_Jun_07_1456,SpeechDraft1Carolyn_lessNoise_PlusLocalization,2021.2.3,59.97514461972238,
,,,,,,,,midRight,13.0,3,ch1Sound_localizationTask.wav,13.0,"(1142, 878)","(182, -202)",190,-338,,,,,,,,,,,,,2,3,17,5,,,,,,,,,,,,,,,,,,,,,,,,,,,,,,,,,,,,,,,,1163.7581971699983,None,,,1166.7747695789985,None,1.6513227513227513,0.9642534459999297,1166.7747695789985,None,,,,,,,1164.7584263659992,None,1164.9416170330005,1164.958312810999,114,001,2023_Jun_07_1456,SpeechDraft1Carolyn_lessNoise_PlusLocalization,2021.2.3,59.97514461972238,
,,,,,,,,midLeft,-13.0,2,ch1Sound_localizationTask.wav,-13.0,"(762, 878)","(-198,-202)",-190,-338,,,,,,,,,,,,,2,4,18,1,,,,,,,,,,,,,,,,,,,,,,,,,,,,,,,,,,,,,,,,1167.7415624479981,None,,,1170.7580393110002,None,1.3529100529100528,0.982927909000864,1170.7580393110002,None,,,,,,,1168.7417088719994,None,1168.9248451239982,1168.9417057969986,114,001,2023_Jun_07_1456,SpeechDraft1Carolyn_lessNoise_PlusLocalization,2021.2.3,59.97514461972238,
,,,,,,,,nearLeft,-6.5,1,ch1Sound_localizationTask.wav,-6.5,"(857, 878)","(-103,-202)",-95,-338,,,,,,,,,,,,,2,5,19,2,,,,,,,,,,,,,,,,,,,,,,,,,,,,,,,,,,,,,,,,1171.7417349030002,None,,,1174.7579723399977,None,1.464021164021164,0.7816783339985705,1174.7579723399977,None,,,,,,,1172.7415660669976,None,1172.9249451809992,1172.9416521589992,114,001,2023_Jun_07_1456,SpeechDraft1Carolyn_lessNoise_PlusLocalization,2021.2.3,59.97514461972238,
,,,,,,,,nearRight,6.5,0,ch1Sound_localizationTask.wav,6.5,"(1047, 878)","(87, -202)",95,-338,,,,,,,,,,,,,2,6,20,4,,,,,,,,,,,,,,,,,,,,,,,,,,,,,,,,,,,,,,,,1175.541622159999,None,,,1178.5582162200008,None,1.5502645502645502,0.5490683280004305,1178.5582162200008,None,,,,,,,1176.5417467789994,None,1176.7249687639996,1176.7416900259996,114,001,2023_Jun_07_1456,SpeechDraft1Carolyn_lessNoise_PlusLocalization,2021.2.3,59.97514461972238,
,,,,,,,,farLeft,-19.1,5,ch1Sound_localizationTask.wav,-19.1,"(667, 878)","(-293,-202)",-285,-338,,,,,,,,,,,,,3,0,21,0,,,,,,,,,,,,,,,,,,,,,,,,,,,,,,,,,,,,,,,,1179.1082586730008,None,,,1182.124724819998,None,1.344973544973545,0.9494680980023986,1182.124724819998,None,,,,,,,1180.1083729909988,None,1180.2918746590003,1180.3082833169974,114,001,2023_Jun_07_1456,SpeechDraft1Carolyn_lessNoise_PlusLocalization,2021.2.3,59.97514461972238,
,,,,,,,,nearLeft,-6.5,1,ch1Sound_localizationTask.wav,-6.5,"(857, 878)","(-103,-202)",-95,-338,,,,,,,,,,,,,3,1,22,2,,,,,,,,,,,,,,,,,,,,,,,,,,,,,,,,,,,,,,,,1183.0749167739996,None,,,1186.0914262439983,None,1.452910052910053,1.4155513350015099,1186.0914262439983,None,,,,,,,1184.0751078920002,None,1184.2585837170009,1184.2751295659982,114,001,2023_Jun_07_1456,SpeechDraft1Carolyn_lessNoise_PlusLocalization,2021.2.3,59.97514461972238,
,,,,,,,,farLeft,-19.1,5,ch1Sound_localizationTask.wav,-19.1,"(667, 878)","(-293,-202)",-285,-338,,,,,,,,,,,,,3,2,23,0,,,,,,,,,,,,,,,,,,,,,,,,,,,,,,,,,,,,,,,,1187.5082381989996,None,,,1190.524767887,None,1.334920634920635,1.133083340999292,1190.524767887,None,,,,,,,1188.5082288759986,None,1188.6916980780006,1188.7082883549992,114,001,2023_Jun_07_1456,SpeechDraft1Carolyn_lessNoise_PlusLocalization,2021.2.3,59.97514461972238,
,,,,,,,,nearRight,6.5,0,ch1Sound_localizationTask.wav,6.5,"(1047, 878)","(87, -202)",95,-338,,,,,,,,,,,,,3,3,24,4,,,,,,,,,,,,,,,,,,,,,,,,,,,,,,,,,,,,,,,,1191.6582244519996,None,,,1194.6749269190004,None,1.5952380952380953,1.3149991639984364,1194.6749269190004,None,,,,,,,1192.6583449729987,None,1192.8415953539989,1192.858422497,114,001,2023_Jun_07_1456,SpeechDraft1Carolyn_lessNoise_PlusLocalization,2021.2.3,59.97514461972238,
,,,,,,,,farLeft,-19.1,5,ch1Sound_localizationTask.wav,-19.1,"(667, 878)","(-293,-202)",-285,-338,,,,,,,,,,,,,3,4,25,0,,,,,,,,,,,,,,,,,,,,,,,,,,,,,,,,,,,,,,,,1195.9916027250001,None,,,1199.008118548998,None,1.3074074074074074,1.8326868229996762,1199.008118548998,None,,,,,,,1196.9916489129973,None,1197.1753070359991,1197.191862593998,114,001,2023_Jun_07_1456,SpeechDraft1Carolyn_lessNoise_PlusLocalization,2021.2.3,59.97514461972238,
,,,,,,,,midRight,13.0,3,ch1Sound_localizationTask.wav,13.0,"(1142, 878)","(182, -202)",190,-338,,,,,,,,,,,,,3,5,26,5,,,,,,,,,,,,,,,,,,,,,,,,,,,,,,,,,,,,,,,,1200.8415896499973,None,,,1203.858123463,None,1.6656084656084655,1.0328824460011674,1203.858123463,None,,,,,,,1201.8416289960005,None,1202.0249962659982,1202.0416592830006,114,001,2023_Jun_07_1456,SpeechDraft1Carolyn_lessNoise_PlusLocalization,2021.2.3,59.97514461972238,
,,,,,,,,farLeft,-19.1,5,ch1Sound_localizationTask.wav,-19.1,"(667, 878)","(-293,-202)",-285,-338,,,,,,,,,,,,,3,6,27,0,,,,,,,,,,,,,,,,,,,,,,,,,,,,,,,,,,,,,,,,1204.8915970249982,None,,,1207.9080609929988,None,1.319047619047619,1.116748150998319,1207.9080609929988,None,,,,,,,1205.8918559800004,None,1206.0751284100006,1206.0916585630002,114,001,2023_Jun_07_1456,SpeechDraft1Carolyn_lessNoise_PlusLocalization,2021.2.3,59.97514461972238,
,,,,,,,,farRight,19.1,4,ch1Sound_localizationTask.wav,19.1,"(1237, 878)","(277,-202)",285,-338,,,,,,,,,,,,,4,0,28,6,,,,,,,,,,,,,,,,,,,,,,,,,,,,,,,,,,,,,,,,1209.0249783660001,None,,,1212.041443719998,None,1.6735449735449737,0.9487222139978257,1212.041443719998,None,,,,,,,1210.025030075998,None,1210.208343416998,1210.2250107699983,114,001,2023_Jun_07_1456,SpeechDraft1Carolyn_lessNoise_PlusLocalization,2021.2.3,59.97514461972238,
,,,,,,,,nearRight,6.5,0,ch1Sound_localizationTask.wav,6.5,"(1047, 878)","(87, -202)",95,-338,,,,,,,,,,,,,4,1,29,4,,,,,,,,,,,,,,,,,,,,,,,,,,,,,,,,,,,,,,,,1212.9917380379993,None,,,1216.0080686289984,None,1.5613756613756613,1.0824923169966496,1216.0080686289984,None,,,,,,,1213.9917487239982,None,1214.1750424220008,1214.1918038080003,114,001,2023_Jun_07_1456,SpeechDraft1Carolyn_lessNoise_PlusLocalization,2021.2.3,59.97514461972238,
,,,,,,,,center,0.0,6,ch1Sound_localizationTask.wav,0.0,"(952, 878)","(-8,-202)",0,-338,,,,,,,,,,,,,4,2,30,3,,,,,,,,,,,,,,,,,,,,,,,,,,,,,,,,,,,,,,,,1217.0916233919997,None,,,1220.1080639249994,None,1.505820105820106,1.0148851439989812,1220.1080639249994,None,,,,,,,1218.0916973089988,None,1218.2750990959976,1218.2916855990006,114,001,2023_Jun_07_1456,SpeechDraft1Carolyn_lessNoise_PlusLocalization,2021.2.3,59.97514461972238,
,,,,,,,,center,0.0,6,ch1Sound_localizationTask.wav,0.0,"(952, 878)","(-8,-202)",0,-338,,,,,,,,,,,,,4,3,31,3,,,,,,,,,,,,,,,,,,,,,,,,,,,,,,,,,,,,,,,,1221.1249225249994,None,,,1224.1415071539996,None,1.4455026455026454,0.6494657080002071,1224.1415071539996,None,,,,,,,1222.1249324060009,None,1222.3083068390006,1222.3250389649984,114,001,2023_Jun_07_1456,SpeechDraft1Carolyn_lessNoise_PlusLocalization,2021.2.3,59.97514461972238,
,,,,,,,,farLeft,-19.1,5,ch1Sound_localizationTask.wav,-19.1,"(667, 878)","(-293,-202)",-285,-338,,,,,,,,,,,,,4,4,32,0,,,,,,,,,,,,,,,,,,,,,,,,,,,,,,,,,,,,,,,,1224.7917783560006,None,,,1227.8080638139982,None,1.3148148148148149,0.8152445199993963,1227.8080638139982,None,,,,,,,1225.791603253998,None,1225.9750559219974,1225.9917282339993,114,001,2023_Jun_07_1456,SpeechDraft1Carolyn_lessNoise_PlusLocalization,2021.2.3,59.97514461972238,
,,,,,,,,midRight,13.0,3,ch1Sound_localizationTask.wav,13.0,"(1142, 878)","(182, -202)",190,-338,,,,,,,,,,,,,4,5,33,5,,,,,,,,,,,,,,,,,,,,,,,,,,,,,,,,,,,,,,,,1228.625039745999,None,,,1231.641436984999,None,1.57989417989418,1.1159847939998144,1231.641436984999,None,,,,,,,1229.6249910829974,None,1229.8083321230006,1229.8250625869987,114,001,2023_Jun_07_1456,SpeechDraft1Carolyn_lessNoise_PlusLocalization,2021.2.3,59.97514461972238,
,,,,,,,,midLeft,-13.0,2,ch1Sound_localizationTask.wav,-13.0,"(762, 878)","(-198,-202)",-190,-338,,,,,,,,,,,,,4,6,34,1,,,,,,,,,,,,,,,,,,,,,,,,,,,,,,,,,,,,,,,,1232.7591206119978,None,,,1235.7748367839995,None,1.342857142857143,1.1807694800008903,1235.7748367839995,None,,,,,,,1233.7583408350001,None,1233.9416805309993,1233.9583290019982,114,001,2023_Jun_07_1456,SpeechDraft1Carolyn_lessNoise_PlusLocalization,2021.2.3,59.97514461972238,
,,,,,,,,midLeft,-13.0,2,ch1Sound_localizationTask.wav,-13.0,"(762, 878)","(-198,-202)",-190,-338,,,,,,,,,,,,,5,0,35,1,,,,,,,,,,,,,,,,,,,,,,,,,,,,,,,,,,,,,,,,1236.9583243870002,None,,,1239.9747843639998,None,1.4211640211640213,2.666190173000359,1239.9747843639998,None,,,,,,,1237.9583608149987,None,1238.1416500009982,1238.1583274839977,114,001,2023_Jun_07_1456,SpeechDraft1Carolyn_lessNoise_PlusLocalization,2021.2.3,59.97514461972238,
,,,,,,,,farLeft,-19.1,5,ch1Sound_localizationTask.wav,-19.1,"(667, 878)","(-293,-202)",-285,-338,,,,,,,,,,,,,5,1,36,0,,,,,,,,,,,,,,,,,,,,,,,,,,,,,,,,,,,,,,,,1242.6418852489987,None,,,1245.6581996389978,None,1.2751322751322751,0.7657275689998642,1245.6581996389978,None,,,,,,,1243.6417192129993,None,1243.8251101530004,1243.8417866809978,114,001,2023_Jun_07_1456,SpeechDraft1Carolyn_lessNoise_PlusLocalization,2021.2.3,59.97514461972238,
,,,,,,,,midLeft,-13.0,2,ch1Sound_localizationTask.wav,-13.0,"(762, 878)","(-198,-202)",-190,-338,,,,,,,,,,,,,5,2,37,1,,,,,,,,,,,,,,,,,,,,,,,,,,,,,,,,,,,,,,,,1246.4250708219988,None,,,1249.4416094199987,None,1.4,0.03302095199978794,1249.4416094199987,None,,,,,,,1247.4250001750006,None,1247.6083556869999,1247.6250005889997,114,001,2023_Jun_07_1456,SpeechDraft1Carolyn_lessNoise_PlusLocalization,2021.2.3,59.97514461972238,
,,,,,,,,nearRight,6.5,0,ch1Sound_localizationTask.wav,6.5,"(1047, 878)","(87, -202)",95,-338,,,,,,,,,,,,,5,3,38,4,,,,,,,,,,,,,,,,,,,,,,,,,,,,,,,,,,,,,,,,1249.4750149369975,None,,,1252.4915062250002,None,1.560846560846561,0.6492718940025952,1252.4915062250002,None,,,,,,,1250.4751526859982,None,1250.6583712289976,1250.6752313959987,114,001,2023_Jun_07_1456,SpeechDraft1Carolyn_lessNoise_PlusLocalization,2021.2.3,59.97514461972238,
,,,,,,,,midLeft,-13.0,2,ch1Sound_localizationTask.wav,-13.0,"(762, 878)","(-198,-202)",-190,-338,,,,,,,,,,,,,5,4,39,1,,,,,,,,,,,,,,,,,,,,,,,,,,,,,,,,,,,,,,,,1253.141681355999,None,,,1256.1581644510006,None,1.3857142857142857,0.7162450769974384,1256.1581644510006,None,,,,,,,1254.1417362329994,None,1254.3252025599977,1254.3416977889974,114,001,2023_Jun_07_1456,SpeechDraft1Carolyn_lessNoise_PlusLocalization,2021.2.3,59.97514461972238,
,,,,,,,,midRight,13.0,3,ch1Sound_localizationTask.wav,13.0,"(1142, 878)","(182, -202)",190,-338,,,,,,,,,,,,,5,5,40,5,,,,,,,,,,,,,,,,,,,,,,,,,,,,,,,,,,,,,,,,1256.8750270829987,None,,,1259.891577205999,None,1.692063492063492,0.9329465159971733,1259.891577205999,None,,,,,,,1257.8751901260002,None,1258.0584322569994,1258.0751830900008,114,001,2023_Jun_07_1456,SpeechDraft1Carolyn_lessNoise_PlusLocalization,2021.2.3,59.97514461972238,
,,,,,,,,farRight,19.1,4,ch1Sound_localizationTask.wav,19.1,"(1237, 878)","(277,-202)",285,-338,,,,,,,,,,,,,5,6,41,6,,,,,,,,,,,,,,,,,,,,,,,,,,,,,,,,,,,,,,,,1260.8250429229993,None,,,1263.8416077479997,None,1.6619047619047618,0.8481023390013434,1263.8416077479997,None,,,,,,,1261.8251513989999,None,1262.0083429599981,1262.0251113769991,114,001,2023_Jun_07_1456,SpeechDraft1Carolyn_lessNoise_PlusLocalization,2021.2.3,59.97514461972238,
,,,,,,,,farRight,19.1,4,ch1Sound_localizationTask.wav,19.1,"(1237, 878)","(277,-202)",285,-338,,,,,,,,,,,,,6,0,42,6,,,,,,,,,,,,,,,,,,,,,,,,,,,,,,,,,,,,,,,,1264.6918176069994,None,,,1267.7081183299997,None,1.7328042328042328,0.6987812529987423,1267.7081183299997,None,,,,,,,1265.691835745998,None,1265.8751804860003,1265.8917120849983,114,001,2023_Jun_07_1456,SpeechDraft1Carolyn_lessNoise_PlusLocalization,2021.2.3,59.97514461972238,
,,,,,,,,center,0.0,6,ch1Sound_localizationTask.wav,0.0,"(952, 878)","(-8,-202)",0,-338,,,,,,,,,,,,,6,1,43,3,,,,,,,,,,,,,,,,,,,,,,,,,,,,,,,,,,,,,,,,1268.408456623998,None,,,1271.4248118459982,None,1.5084656084656085,1.032757627999672,1271.4248118459982,None,,,,,,,1269.4085603059975,None,1269.591830415,1269.6086156659985,114,001,2023_Jun_07_1456,SpeechDraft1Carolyn_lessNoise_PlusLocalization,2021.2.3,59.97514461972238,
,,,,,,,,midRight,13.0,3,ch1Sound_localizationTask.wav,13.0,"(1142, 878)","(182, -202)",190,-338,,,,,,,,,,,,,6,2,44,5,,,,,,,,,,,,,,,,,,,,,,,,,,,,,,,,,,,,,,,,1272.4584077459986,None,,,1275.4748509009987,None,1.6312169312169313,0.5828649920003954,1275.4748509009987,None,,,,,,,1273.4584965769973,None,1273.6417370950003,1273.6585116819988,114,001,2023_Jun_07_1456,SpeechDraft1Carolyn_lessNoise_PlusLocalization,2021.2.3,59.97514461972238,
,,,,,,,,midRight,13.0,3,ch1Sound_localizationTask.wav,13.0,"(1142, 878)","(182, -202)",190,-338,,,,,,,,,,,,,6,3,45,5,,,,,,,,,,,,,,,,,,,,,,,,,,,,,,,,,,,,,,,,1276.058362210999,None,,,1279.0748779319983,None,1.5867724867724866,0.6495378849976987,1279.0748779319983,None,,,,,,,1277.0584505599982,None,1277.2417850189995,1277.258392601998,114,001,2023_Jun_07_1456,SpeechDraft1Carolyn_lessNoise_PlusLocalization,2021.2.3,59.97514461972238,
,,,,,,,,midLeft,-13.0,2,ch1Sound_localizationTask.wav,-13.0,"(762, 878)","(-198,-202)",-190,-338,,,,,,,,,,,,,6,4,46,1,,,,,,,,,,,,,,,,,,,,,,,,,,,,,,,,,,,,,,,,1279.7250769919992,None,,,1282.741545478999,None,1.4079365079365078,0.6334832110005664,1282.741545478999,None,,,,,,,1280.7251200129976,None,1280.9085398619973,1280.925099963999,114,001,2023_Jun_07_1456,SpeechDraft1Carolyn_lessNoise_PlusLocalization,2021.2.3,59.97514461972238,
,,,,,,,,farRight,19.1,4,ch1Sound_localizationTask.wav,19.1,"(1237, 878)","(277,-202)",285,-338,,,,,,,,,,,,,6,5,47,6,,,,,,,,,,,,,,,,,,,,,,,,,,,,,,,,,,,,,,,,1283.375097887998,None,,,1286.3916502079992,None,1.6666666666666667,1.3993493180023506,1286.3916502079992,None,,,,,,,1284.3750351029994,None,1284.5583874759977,1284.5750501889997,114,001,2023_Jun_07_1456,SpeechDraft1Carolyn_lessNoise_PlusLocalization,2021.2.3,59.97514461972238,
,,,,,,,,farLeft,-19.1,5,ch1Sound_localizationTask.wav,-19.1,"(667, 878)","(-293,-202)",-285,-338,,,,,,,,,,,,,6,6,48,0,,,,,,,,,,,,,,,,,,,,,,,,,,,,,,,,,,,,,,,,1287.7930167779996,None,,,1290.8248092959984,None,1.3111111111111111,1.365350693999062,1290.8248092959984,None,,,,,,,1288.8085444569988,None,1288.9919241259995,1289.008422564999,114,001,2023_Jun_07_1456,SpeechDraft1Carolyn_lessNoise_PlusLocalization,2021.2.3,59.97514461972238,
,,,,,,,,farRight,19.1,4,ch1Sound_localizationTask.wav,19.1,"(1237, 878)","(277,-202)",285,-338,,,,,,,,,,,,,7,0,49,6,,,,,,,,,,,,,,,,,,,,,,,,,,,,,,,,,,,,,,,,1292.1917635399986,None,,,1295.2083236959988,None,1.6645502645502646,1.59958291699877,1295.2083236959988,None,,,,,,,1293.1917766570004,None,1293.3750740190007,1293.3918388780003,114,001,2023_Jun_07_1456,SpeechDraft1Carolyn_lessNoise_PlusLocalization,2021.2.3,59.97514461972238,
,,,,,,,,midRight,13.0,3,ch1Sound_localizationTask.wav,13.0,"(1142, 878)","(182, -202)",190,-338,,,,,,,,,,,,,7,1,50,5,,,,,,,,,,,,,,,,,,,,,,,,,,,,,,,,,,,,,,,,1296.8091853289989,None,,,1299.824987218999,None,1.5957671957671957,0.9323542399979488,1299.824987218999,None,,,,,,,1297.8085675679977,None,1297.9917198619987,1298.008399096998,114,001,2023_Jun_07_1456,SpeechDraft1Carolyn_lessNoise_PlusLocalization,2021.2.3,59.97514461972238,
,,,,,,,,nearLeft,-6.5,1,ch1Sound_localizationTask.wav,-6.5,"(857, 878)","(-103,-202)",-95,-338,,,,,,,,,,,,,7,2,51,2,,,,,,,,,,,,,,,,,,,,,,,,,,,,,,,,,,,,,,,,1300.7584781929982,None,,,1303.7747939049987,None,1.4216931216931217,1.2143392420002783,1303.7747939049987,None,,,,,,,1301.758428371999,None,1301.9417976900004,1301.9584203209997,114,001,2023_Jun_07_1456,SpeechDraft1Carolyn_lessNoise_PlusLocalization,2021.2.3,59.97514461972238,
,,,,,,,,farLeft,-19.1,5,ch1Sound_localizationTask.wav,-19.1,"(667, 878)","(-293,-202)",-285,-338,,,,,,,,,,,,,7,3,52,0,,,,,,,,,,,,,,,,,,,,,,,,,,,,,,,,,,,,,,,,1304.9917954079974,None,,,1308.0082168909976,None,1.3232804232804232,1.2330515030007518,1308.0082168909976,None,,,,,,,1305.9918138859975,None,1306.1750625959976,1306.1917523519987,114,001,2023_Jun_07_1456,SpeechDraft1Carolyn_lessNoise_PlusLocalization,2021.2.3,59.97514461972238,
,,,,,,,,nearLeft,-6.5,1,ch1Sound_localizationTask.wav,-6.5,"(857, 878)","(-103,-202)",-95,-338,,,,,,,,,,,,,7,4,53,2,,,,,,,,,,,,,,,,,,,,,,,,,,,,,,,,,,,,,,,,1309.24178742,None,,,1312.2583510429977,None,1.4650793650793652,0.9998162989977573,1312.2583510429977,None,,,,,,,1310.2418857789999,None,1310.425197864999,1310.441837033999,114,001,2023_Jun_07_1456,SpeechDraft1Carolyn_lessNoise_PlusLocalization,2021.2.3,59.97514461972238,
,,,,,,,,nearLeft,-6.5,1,ch1Sound_localizationTask.wav,-6.5,"(857, 878)","(-103,-202)",-95,-338,,,,,,,,,,,,,7,5,54,2,,,,,,,,,,,,,,,,,,,,,,,,,,,,,,,,,,,,,,,,1313.258509291998,None,,,1316.2751424220005,None,1.470899470899471,1.296936752001784,1316.2751424220005,None,,,,,,,1314.2586577549991,None,1314.4420121160001,1314.458639933,114,001,2023_Jun_07_1456,SpeechDraft1Carolyn_lessNoise_PlusLocalization,2021.2.3,59.97514461972238,
,,,,,,,,nearRight,6.5,0,ch1Sound_localizationTask.wav,6.5,"(1047, 878)","(87, -202)",95,-338,,,,,,,,,,,,,7,6,55,4,,,,,,,,,,,,,,,,,,,,,,,,,,,,,,,,,,,,,,,,1317.5751178129976,None,,,1320.5917485739992,None,1.5793650793650795,1.166259515001002,1320.5917485739992,None,,,,,,,1318.5751586449987,None,1318.7584314159976,1318.7751039299983,114,001,2023_Jun_07_1456,SpeechDraft1Carolyn_lessNoise_PlusLocalization,2021.2.3,59.97514461972238,
