Audio_Only_Files,Video_Files,Original_Word_List,noiseLevelCode,conditionCodes,noiseLevelFile1,noiseLevelFile2,InstrTextVar,targetSpeakerName,targetSpeakerEccen,targetSpkrChannel,targetSpkrSound,targetVisualDegrees,visStimLoc,visStimLoc2,visStimW,visStimH,practiceTrials.thisRepN,practiceTrials.thisTrialN,practiceTrials.thisN,practiceTrials.thisIndex,trials.thisRepN,trials.thisTrialN,trials.thisN,trials.thisIndex,audLocalLoop.thisRepN,audLocalLoop.thisTrialN,audLocalLoop.thisN,audLocalLoop.thisIndex,visualLocalLoop.thisRepN,visualLocalLoop.thisTrialN,visualLocalLoop.thisN,visualLocalLoop.thisIndex,letsGoAlready.keys,letsGoAlready.rt,letsGoAlready.started,letsGoAlready.stopped,text_2.started,text_2.stopped,text_3.started,text_3.stopped,key_resp_2.keys,key_resp_2.rt,key_resp_2.started,key_resp_2.stopped,text_5.started,text_5.stopped,fixCross.started,fixCross.stopped,fixCross2.started,fixCross2.stopped,answerPrompt.started,answerPrompt.stopped,getAnswer.text,getAnswer.started,getAnswer.stopped,goToNext.keys,goToNext.rt,goToNext.started,goToNext.stopped,stretchBreakTxrt.started,stretchBreakTxrt.stopped,key_resp_3.keys,key_resp_3.rt,key_resp_3.started,key_resp_3.stopped,letsGoLocal.keys,letsGoLocal.rt,letsGoLocal.started,letsGoLocal.stopped,text_4.started,text_4.stopped,prepFixTxt.started,prepFixTxt.stopped,prepFixTxt_2.started,prepFixTxt_2.stopped,respPromptLocal.started,respPromptLocal.stopped,slider.response,slider.rt,slider.started,slider.stopped,letsGoLocal_2.keys,letsGoLocal_2.rt,letsGoLocal_2.started,letsGoLocal_2.stopped,text_7.started,text_7.stopped,prepFixTxt_3.started,prepFixTxt_3.stopped,grating.started,grating.stopped,exitTxt.started,exitTxt.stopped,key_resp.keys,key_resp.rt,key_resp.started,key_resp.stopped,participant,session,date,expName,psychopyVersion,frameRate,
,,,,,,,,,,,,,,,,,,,,,,,,,,,,,,,,,space,1.413610581017565,11.544215756002814,None,,,,,,,,,,,,,,,,,,,,,,,,,,,,,,,,,,,,,,,,,,,,,,,,,,,,,,,,,,,,,,116,001,2023_Jul_07_1514,SpeechDraft1Carolyn_lessNoise_PlusLocalization,2021.2.3,59.926464366298035,
,,,,,,,,,,,,,,,,,,,,,,,,,,,,,,,,,,,,,11.544215756002814,None,13.077670138969552,None,space,1112.625309494033,13.26052621396957,None,,,,,,,,,,,,,,,,,,,,,,,,,,,,,,,,,,,,,,,,,,,,,,,,,,,,,,116,001,2023_Jul_07_1514,SpeechDraft1Carolyn_lessNoise_PlusLocalization,2021.2.3,59.926464366298035,
ash.wav,ash.mpg,ash,1,A,Pink_Noise_1_1.wav,Pink_Noise_1_2.wav,"This is an example of an

AUDIO trial",,,,,,,,,,0,0,0,0,,,,,,,,,,,,,,,,,,,,,,,,,1125.9453181480058,None,1126.9288744149962,None,1130.1787059039925,None,1131.5623923499952,None,"ashe
",1131.5623923499952,None,return,14.12031755503267,1131.64551105001,None,,,,,,,,,,,,,,,,,,,,,,,,,,,,,,,,,,,,,,,116,001,2023_Jul_07_1514,SpeechDraft1Carolyn_lessNoise_PlusLocalization,2021.2.3,59.926464366298035,
ash.wav,ash.mpg,ash,1,AV,Pink_Noise_1_1.wav,Pink_Noise_1_2.wav,"This is an example of an

AUDIO + VIDEO  trial",,,,,,,,,,0,1,1,1,,,,,,,,,,,,,,,,,,,,,,,,,1145.8287047140184,None,1146.8289221379673,None,1148.3125843600137,None,1149.6956920250086,None,ashe,1149.6956920250086,None,return,6.147089547012001,1149.778853855969,None,,,,,,,,,,,,,,,,,,,,,,,,,,,,,,,,,,,,,,,116,001,2023_Jul_07_1514,SpeechDraft1Carolyn_lessNoise_PlusLocalization,2021.2.3,59.926464366298035,
,,,,,,,,,,,,,,,,,,,,,,,,,,,,,,,,,,,,,,,,,,,,,,,,,,,,,,,,,,,,1155.9619940909906,None,space,17.956263220054097,1156.1455917709973,None,,,,,,,,,,,,,,,,,,,,,,,,,,,,,,,,,116,001,2023_Jul_07_1514,SpeechDraft1Carolyn_lessNoise_PlusLocalization,2021.2.3,59.926464366298035,
sue.wav,sue.mpg,sue,3,A,Pink_Noise_3_1.wav,Pink_Noise_3_2.wav,,,,,,,,,,,,,,,0,0,0,43,,,,,,,,,,,,,,,,,,,,,,,1174.1621471809922,None,1175.6452123479685,None,1177.0289153609774,None,suit,1177.0289153609774,None,return,10.909481455979403,1177.1123365029925,None,,,,,,,,,,,,,,,,,,,,,,,,,,,,,,,,,,,,,,,116,001,2023_Jul_07_1514,SpeechDraft1Carolyn_lessNoise_PlusLocalization,2021.2.3,59.926464366298035,
bass.wav,bass.mpg,bass,2,AV,Pink_Noise_2_1.wav,Pink_Noise_2_2.wav,,,,,,,,,,,,,,,0,1,1,100,,,,,,,,,,,,,,,,,,,,,,,1188.0455997959943,None,1189.5454506569658,None,1190.929007179977,None,base,1190.929007179977,None,return,2.145506572967861,1191.0123498729663,None,,,,,,,,,,,,,,,,,,,,,,,,,,,,,,,,,,,,,,,116,001,2023_Jul_07_1514,SpeechDraft1Carolyn_lessNoise_PlusLocalization,2021.2.3,59.926464366298035,
chick.wav,chick.mpg,chick,2,AV,Pink_Noise_2_1.wav,Pink_Noise_2_2.wav,,,,,,,,,,,,,,,0,2,2,73,,,,,,,,,,,,,,,,,,,,,,,1193.1788660800084,None,1194.6786517929868,None,1196.062095339992,None,check,1196.062095339992,None,return,9.012043358001392,1196.1457891080063,None,,,,,,,,,,,,,,,,,,,,,,,,,,,,,,,,,,,,,,,116,001,2023_Jul_07_1514,SpeechDraft1Carolyn_lessNoise_PlusLocalization,2021.2.3,59.926464366298035,
fond.wav,fond.mpg,fond,3,A,Pink_Noise_3_1.wav,Pink_Noise_3_2.wav,,,,,,,,,,,,,,,0,3,3,47,,,,,,,,,,,,,,,,,,,,,,,1205.1789726510178,None,1206.6787008639658,None,1208.0623177979724,None,"bud
",1208.0623177979724,None,return,13.284324217995163,1208.145522558014,None,,,,,,,,,,,,,,,,,,,,,,,,,,,,,,,,,,,,,,,116,001,2023_Jul_07_1514,SpeechDraft1Carolyn_lessNoise_PlusLocalization,2021.2.3,59.926464366298035,
bump.wav,bump.mpg,bump,2,A,Pink_Noise_2_1.wav,Pink_Noise_2_2.wav,,,,,,,,,,,,,,,0,4,4,29,,,,,,,,,,,,,,,,,,,,,,,1221.4623683409882,None,1222.962053944997,None,1224.3457089340081,None,boom,1224.3457089340081,None,return,8.544843016949017,1224.4289944039774,None,,,,,,,,,,,,,,,,,,,,,,,,,,,,,,,,,,,,,,,116,001,2023_Jul_07_1514,SpeechDraft1Carolyn_lessNoise_PlusLocalization,2021.2.3,59.926464366298035,
clock.wav,clock.mpg,clock,3,AV,Pink_Noise_3_1.wav,Pink_Noise_3_2.wav,,,,,,,,,,,,,,,0,5,5,94,,,,,,,,,,,,,,,,,,,,,,,1232.9957443709718,None,1234.4953948570183,None,1235.8623813500162,None,clock,1235.8623813500162,None,return,5.964139464951586,1235.945720718999,None,,,,,,,,,,,,,,,,,,,,,,,,,,,,,,,,,,,,,,,116,001,2023_Jul_07_1514,SpeechDraft1Carolyn_lessNoise_PlusLocalization,2021.2.3,59.926464366298035,
aunt.wav,aunt.mpg,aunt,6,A,Pink_Noise_6_1.wav,Pink_Noise_6_2.wav,,,,,,,,,,,,,,,0,6,6,18,,,,,,,,,,,,,,,,,,,,,,,1241.929006700986,None,1243.4286564170034,None,1244.8123953259783,None,clash,1244.8123953259783,None,return,5.158100971952081,1244.8957257019938,None,,,,,,,,,,,,,,,,,,,,,,,,,,,,,,,,,,,,,,,116,001,2023_Jul_07_1514,SpeechDraft1Carolyn_lessNoise_PlusLocalization,2021.2.3,59.926464366298035,
bind.wav,bind.mpg,bind,2,AV,Pink_Noise_2_1.wav,Pink_Noise_2_2.wav,,,,,,,,,,,,,,,0,7,7,98,,,,,,,,,,,,,,,,,,,,,,,1250.079123832984,None,1251.5787752959877,None,1252.9623872570228,None,bait,1252.9623872570228,None,return,21.648140117991716,1253.045750483987,None,,,,,,,,,,,,,,,,,,,,,,,,,,,,,,,,,,,,,,,116,001,2023_Jul_07_1514,SpeechDraft1Carolyn_lessNoise_PlusLocalization,2021.2.3,59.926464366298035,
tense.wav,tense.mpg,tense,4,AV,Pink_Noise_4_1.wav,Pink_Noise_4_2.wav,,,,,,,,,,,,,,,0,8,8,103,,,,,,,,,,,,,,,,,,,,,,,1274.712354156014,None,1276.212109997985,None,1277.5957907370175,None,taste,1277.5957907370175,None,return,2.622689607029315,1277.6792198389885,None,,,,,,,,,,,,,,,,,,,,,,,,,,,,,,,,,,,,,,,116,001,2023_Jul_07_1514,SpeechDraft1Carolyn_lessNoise_PlusLocalization,2021.2.3,59.926464366298035,
fear.wav,fear.mpg,fear,3,A,Pink_Noise_3_1.wav,Pink_Noise_3_2.wav,,,,,,,,,,,,,,,0,9,9,50,,,,,,,,,,,,,,,,,,,,,,,1280.3291497610044,None,1281.8286403829698,None,1283.2124561169767,None,heal,1283.2124561169767,None,return,7.166080176946707,1283.2958321010228,None,,,,,,,,,,,,,,,,,,,,,,,,,,,,,,,,,,,,,,,116,001,2023_Jul_07_1514,SpeechDraft1Carolyn_lessNoise_PlusLocalization,2021.2.3,59.926464366298035,
game.wav,game.mpg,game,5,A,Pink_Noise_5_1.wav,Pink_Noise_5_2.wav,,,,,,,,,,,,,,,0,10,10,21,,,,,,,,,,,,,,,,,,,,,,,1290.479098826996,None,1291.9787972049671,None,1293.362543213996,None,dish,1293.362543213996,None,return,2.1120880200178362,1293.4457542150049,None,,,,,,,,,,,,,,,,,,,,,,,,,,,,,,,,,,,,,,,116,001,2023_Jul_07_1514,SpeechDraft1Carolyn_lessNoise_PlusLocalization,2021.2.3,59.926464366298035,
beer.wav,beer.mpg,beer,1,AV,Pink_Noise_1_1.wav,Pink_Noise_1_2.wav,,,,,,,,,,,,,,,0,11,11,84,,,,,,,,,,,,,,,,,,,,,,,1295.5790835359949,None,1297.0787898779963,None,1298.4624025860103,None,bear,1298.4624025860103,None,return,0.9640607920009643,1298.545768262993,None,,,,,,,,,,,,,,,,,,,,,,,,,,,,,,,,,,,,,,,116,001,2023_Jul_07_1514,SpeechDraft1Carolyn_lessNoise_PlusLocalization,2021.2.3,59.926464366298035,
bond.wav,bond.mpg,bond,2,AV,Pink_Noise_2_1.wav,Pink_Noise_2_2.wav,,,,,,,,,,,,,,,0,12,12,63,,,,,,,,,,,,,,,,,,,,,,,1299.529015950975,None,1301.0288057039725,None,1302.4123233489809,None,but,1302.4123233489809,None,return,1.142099249002058,1302.4957247489947,None,,,,,,,,,,,,,,,,,,,,,,,,,,,,,,,,,,,,,,,116,001,2023_Jul_07_1514,SpeechDraft1Carolyn_lessNoise_PlusLocalization,2021.2.3,59.926464366298035,
crawl.wav,crawl.mpg,crawl,6,A,Pink_Noise_6_1.wav,Pink_Noise_6_2.wav,,,,,,,,,,,,,,,0,13,13,49,,,,,,,,,,,,,,,,,,,,,,,1303.662302548997,None,1305.1460123109864,None,1306.5291908080108,None,"clump
",1306.5291908080108,None,return,15.401376600959338,1306.6124339100206,None,,,,,,,,,,,,,,,,,,,,,,,,,,,,,,,,,,,,,,,116,001,2023_Jul_07_1514,SpeechDraft1Carolyn_lessNoise_PlusLocalization,2021.2.3,59.926464366298035,
duck.wav,duck.mpg,duck,6,A,Pink_Noise_6_1.wav,Pink_Noise_6_2.wav,,,,,,,,,,,,,,,0,14,14,12,,,,,,,,,,,,,,,,,,,,,,,1322.045967012993,None,1323.5454752459773,None,1324.912489918992,None,bush,1324.912489918992,None,return,4.19383114494849,1324.9959796699695,None,,,,,,,,,,,,,,,,,,,,,,,,,,,,,,,,,,,,,,,116,001,2023_Jul_07_1514,SpeechDraft1Carolyn_lessNoise_PlusLocalization,2021.2.3,59.926464366298035,
chant.wav,chant.mpg,chant,3,AV,Pink_Noise_3_1.wav,Pink_Noise_3_2.wav,,,,,,,,,,,,,,,0,15,15,71,,,,,,,,,,,,,,,,,,,,,,,1329.2127573949983,None,1330.7120971669792,None,1332.095795827976,None,"chant
",1332.095795827976,None,return,7.434676391014364,1332.179179491999,None,,,,,,,,,,,,,,,,,,,,,,,,,,,,,,,,,,,,,,,116,001,2023_Jul_07_1514,SpeechDraft1Carolyn_lessNoise_PlusLocalization,2021.2.3,59.926464366298035,
groom.wav,groom.mpg,groom,4,A,Pink_Noise_4_1.wav,Pink_Noise_4_2.wav,,,,,,,,,,,,,,,0,16,16,52,,,,,,,,,,,,,,,,,,,,,,,1339.6458861060091,None,1341.1455291979946,None,1342.5292145910207,None,group,1342.5292145910207,None,return,18.089497512031812,1342.6124756850186,None,,,,,,,,,,,,,,,,,,,,,,,,,,,,,,,,,,,,,,,116,001,2023_Jul_07_1514,SpeechDraft1Carolyn_lessNoise_PlusLocalization,2021.2.3,59.926464366298035,
crew.wav,crew.mpg,crew,6,AV,Pink_Noise_6_1.wav,Pink_Noise_6_2.wav,,,,,,,,,,,,,,,0,17,17,116,,,,,,,,,,,,,,,,,,,,,,,1360.7291313830065,None,1362.22896773502,None,1363.612520626979,None,true,1363.612520626979,None,return,2.8620807970291935,1363.6957870600163,None,,,,,,,,,,,,,,,,,,,,,,,,,,,,,,,,,,,,,,,116,001,2023_Jul_07_1514,SpeechDraft1Carolyn_lessNoise_PlusLocalization,2021.2.3,59.926464366298035,
script.wav,script.mpg,script,4,A,Pink_Noise_4_1.wav,Pink_Noise_4_2.wav,,,,,,,,,,,,,,,0,18,18,36,,,,,,,,,,,,,,,,,,,,,,,1366.5791793920216,None,1368.0635078260093,None,1369.4459026199766,None,script,1369.4459026199766,None,return,14.51655923895305,1369.5292815419962,None,,,,,,,,,,,,,,,,,,,,,,,,,,,,,,,,,,,,,,,116,001,2023_Jul_07_1514,SpeechDraft1Carolyn_lessNoise_PlusLocalization,2021.2.3,59.926464366298035,
clot.wav,clot.mpg,clot,2,A,Pink_Noise_2_1.wav,Pink_Noise_2_2.wav,,,,,,,,,,,,,,,0,19,19,3,,,,,,,,,,,,,,,,,,,,,,,1384.0626115259947,None,1385.562262346968,None,1386.945863282017,None,cloud,1386.945863282017,None,return,11.240712815022562,1387.0292359970044,None,,,,,,,,,,,,,,,,,,,,,,,,,,,,,,,,,,,,,,,116,001,2023_Jul_07_1514,SpeechDraft1Carolyn_lessNoise_PlusLocalization,2021.2.3,59.926464366298035,
goat.wav,goat.mpg,goat,1,AV,Pink_Noise_1_1.wav,Pink_Noise_1_2.wav,,,,,,,,,,,,,,,0,20,20,74,,,,,,,,,,,,,,,,,,,,,,,1398.2959203899954,None,1399.7957322159782,None,1401.1792017999687,None,goat,1401.1792017999687,None,return,1.791160864988342,1401.2626833639806,None,,,,,,,,,,,,,,,,,,,,,,,,,,,,,,,,,,,,,,,116,001,2023_Jul_07_1514,SpeechDraft1Carolyn_lessNoise_PlusLocalization,2021.2.3,59.926464366298035,
boot.wav,boot.mpg,boot,3,AV,Pink_Noise_3_1.wav,Pink_Noise_3_2.wav,,,,,,,,,,,,,,,0,21,21,67,,,,,,,,,,,,,,,,,,,,,,,1403.0792989429901,None,1404.579053074005,None,1405.9625992199872,None,guilt,1405.9625992199872,None,return,9.047874971991405,1406.0459538599825,None,,,,,,,,,,,,,,,,,,,,,,,,,,,,,,,,,,,,,,,116,001,2023_Jul_07_1514,SpeechDraft1Carolyn_lessNoise_PlusLocalization,2021.2.3,59.926464366298035,
grill.wav,grill.mpg,grill,1,A,Pink_Noise_1_1.wav,Pink_Noise_1_2.wav,,,,,,,,,,,,,,,0,22,22,2,,,,,,,,,,,,,,,,,,,,,,,1415.1125872110133,None,1416.6123169059865,None,1417.9959799689823,None,grow,1417.9959799689823,None,return,1.5987132820300758,1418.079297407996,None,,,,,,,,,,,,,,,,,,,,,,,,,,,,,,,,,,,,,,,116,001,2023_Jul_07_1514,SpeechDraft1Carolyn_lessNoise_PlusLocalization,2021.2.3,59.926464366298035,
quit.wav,quit.mpg,quit,3,A,Pink_Noise_3_1.wav,Pink_Noise_3_2.wav,,,,,,,,,,,,,,,0,23,23,51,,,,,,,,,,,,,,,,,,,,,,,1419.6958631119924,None,1421.1956090580206,None,1422.5792482569814,None,quit,1422.5792482569814,None,return,1.0234453940065578,1422.662493626005,None,,,,,,,,,,,,,,,,,,,,,,,,,,,,,,,,,,,,,,,116,001,2023_Jul_07_1514,SpeechDraft1Carolyn_lessNoise_PlusLocalization,2021.2.3,59.926464366298035,
hike.wav,hike.mpg,hike,2,A,Pink_Noise_2_1.wav,Pink_Noise_2_2.wav,,,,,,,,,,,,,,,0,24,24,6,,,,,,,,,,,,,,,,,,,,,,,1423.7125928020105,None,1425.2122927070013,None,1426.5958856299985,None,pipe,1426.5958856299985,None,return,6.046581139962655,1426.67935231101,None,,,,,,,,,,,,,,,,,,,,,,,,,,,,,,,,,,,,,,,116,001,2023_Jul_07_1514,SpeechDraft1Carolyn_lessNoise_PlusLocalization,2021.2.3,59.926464366298035,
dad.wav,dad.mpg,dad,1,AV,Pink_Noise_1_1.wav,Pink_Noise_1_2.wav,,,,,,,,,,,,,,,0,25,25,88,,,,,,,,,,,,,,,,,,,,,,,1432.7460107519873,None,1434.2455500579672,None,1435.6293309750035,None,dad,1435.6293309750035,None,return,0.7333409799612127,1435.712560592976,None,,,,,,,,,,,,,,,,,,,,,,,,,,,,,,,,,,,,,,,116,001,2023_Jul_07_1514,SpeechDraft1Carolyn_lessNoise_PlusLocalization,2021.2.3,59.926464366298035,
brief.wav,brief.mpg,brief,4,A,Pink_Noise_4_1.wav,Pink_Noise_4_2.wav,,,,,,,,,,,,,,,0,26,26,48,,,,,,,,,,,,,,,,,,,,,,,1436.4626840410056,None,1437.962335638993,None,1439.346148482,None,great,1439.346148482,None,return,10.264388789015356,1439.4294442929677,None,,,,,,,,,,,,,,,,,,,,,,,,,,,,,,,,,,,,,,,116,001,2023_Jul_07_1514,SpeechDraft1Carolyn_lessNoise_PlusLocalization,2021.2.3,59.926464366298035,
fast.wav,fast.mpg,fast,2,AV,Pink_Noise_2_1.wav,Pink_Noise_2_2.wav,,,,,,,,,,,,,,,0,27,27,92,,,,,,,,,,,,,,,,,,,,,,,1449.712691203982,None,1451.2122994589736,None,1452.5961250659893,None,"fast
",1452.5961250659893,None,return,1.934440026001539,1452.6793819079758,None,,,,,,,,,,,,,,,,,,,,,,,,,,,,,,,,,,,,,,,116,001,2023_Jul_07_1514,SpeechDraft1Carolyn_lessNoise_PlusLocalization,2021.2.3,59.926464366298035,
dream.wav,dream.mpg,dream,1,AV,Pink_Noise_1_1.wav,Pink_Noise_1_2.wav,,,,,,,,,,,,,,,0,28,28,97,,,,,,,,,,,,,,,,,,,,,,,1454.646072316973,None,1456.1299513939884,None,1457.512743046973,None,dream,1457.512743046973,None,return,2.625823420006782,1457.5959979419713,None,,,,,,,,,,,,,,,,,,,,,,,,,,,,,,,,,,,,,,,116,001,2023_Jul_07_1514,SpeechDraft1Carolyn_lessNoise_PlusLocalization,2021.2.3,59.926464366298035,
flu.wav,flu.mpg,flu,1,AV,Pink_Noise_1_1.wav,Pink_Noise_1_2.wav,,,,,,,,,,,,,,,0,29,29,65,,,,,,,,,,,,,,,,,,,,,,,1460.2460591819836,None,1461.7457012630184,None,1463.1293211469892,None,flu,1463.1293211469892,None,return,17.02506610302953,1463.2127716779942,None,,,,,,,,,,,,,,,,,,,,,,,,,,,,,,,,,,,,,,,116,001,2023_Jul_07_1514,SpeechDraft1Carolyn_lessNoise_PlusLocalization,2021.2.3,59.926464366298035,
cream.wav,cream.mpg,cream,4,AV,Pink_Noise_4_1.wav,Pink_Noise_4_2.wav,,,,,,,,,,,,,,,0,30,30,99,,,,,,,,,,,,,,,,,,,,,,,1480.262771520007,None,1481.762326762022,None,1483.1459790020017,None,clean,1483.1459790020017,None,return,13.688438976998441,1483.2294904069859,None,,,,,,,,,,,,,,,,,,,,,,,,,,,,,,,,,,,,,,,116,001,2023_Jul_07_1514,SpeechDraft1Carolyn_lessNoise_PlusLocalization,2021.2.3,59.926464366298035,
grain.wav,grain.mpg,grain,6,AV,Pink_Noise_6_1.wav,Pink_Noise_6_2.wav,,,,,,,,,,,,,,,0,31,31,86,,,,,,,,,,,,,,,,,,,,,,,1496.9459835379967,None,1498.4456773559796,None,1499.829239499988,None,"threat
",1499.829239499988,None,return,14.885083797969855,1499.9127517039888,None,,,,,,,,,,,,,,,,,,,,,,,,,,,,,,,,,,,,,,,116,001,2023_Jul_07_1514,SpeechDraft1Carolyn_lessNoise_PlusLocalization,2021.2.3,59.926464366298035,
croak.wav,croak.mpg,croak,1,A,Pink_Noise_1_1.wav,Pink_Noise_1_2.wav,,,,,,,,,,,,,,,0,32,32,38,,,,,,,,,,,,,,,,,,,,,,,1514.8294154399773,None,1516.3290464879829,None,1517.7128244779888,None,crop,1517.7128244779888,None,return,11.545709786994848,1517.7961344699725,None,,,,,,,,,,,,,,,,,,,,,,,,,,,,,,,,,,,,,,,116,001,2023_Jul_07_1514,SpeechDraft1Carolyn_lessNoise_PlusLocalization,2021.2.3,59.926464366298035,
thorn.wav,thorn.mpg,thorn,4,AV,Pink_Noise_4_1.wav,Pink_Noise_4_2.wav,,,,,,,,,,,,,,,0,33,33,70,,,,,,,,,,,,,,,,,,,,,,,1529.3628099890193,None,1530.8624741570093,None,1532.2460822360008,None,thorn,1532.2460822360008,None,return,5.620407016016543,1532.3294085880043,None,,,,,,,,,,,,,,,,,,,,,,,,,,,,,,,,,,,,,,,116,001,2023_Jul_07_1514,SpeechDraft1Carolyn_lessNoise_PlusLocalization,2021.2.3,59.926464366298035,
bye.wav,bye.mpg,bye,3,A,Pink_Noise_3_1.wav,Pink_Noise_3_2.wav,,,,,,,,,,,,,,,0,34,34,17,,,,,,,,,,,,,,,,,,,,,,,1537.9794297160115,None,1539.4790754040005,None,1540.8627296480117,None,buy,1540.8627296480117,None,return,1.499812554975506,1540.946127253992,None,,,,,,,,,,,,,,,,,,,,,,,,,,,,,,,,,,,,,,,116,001,2023_Jul_07_1514,SpeechDraft1Carolyn_lessNoise_PlusLocalization,2021.2.3,59.926464366298035,
fool.wav,fool.mpg,fool,3,AV,Pink_Noise_3_1.wav,Pink_Noise_3_2.wav,,,,,,,,,,,,,,,0,35,35,61,,,,,,,,,,,,,,,,,,,,,,,1542.462720245996,None,1543.9474360370077,None,1545.329432752973,None,"for
",1545.329432752973,None,return,0.8010708669899032,1545.412805052998,None,,,,,,,,,,,,,,,,,,,,,,,,,,,,,,,,,,,,,,,116,001,2023_Jul_07_1514,SpeechDraft1Carolyn_lessNoise_PlusLocalization,2021.2.3,59.926464366298035,
bill.wav,bill.mpg,bill,3,AV,Pink_Noise_3_1.wav,Pink_Noise_3_2.wav,,,,,,,,,,,,,,,0,36,36,68,,,,,,,,,,,,,,,,,,,,,,,1546.2461806520005,None,1547.7458309839712,None,1549.1294128589798,None,bill,1549.1294128589798,None,return,6.849109783011954,1549.2128363969969,None,,,,,,,,,,,,,,,,,,,,,,,,,,,,,,,,,,,,,,,116,001,2023_Jul_07_1514,SpeechDraft1Carolyn_lessNoise_PlusLocalization,2021.2.3,59.926464366298035,
fuel.wav,fuel.mpg,fuel,5,A,Pink_Noise_5_1.wav,Pink_Noise_5_2.wav,,,,,,,,,,,,,,,0,37,37,34,,,,,,,,,,,,,,,,,,,,,,,1556.0796006309683,None,1557.5790229609702,None,1558.9627001939807,None,,1558.9627001939807,None,return,7.639944533002563,1559.0460972010042,None,,,,,,,,,,,,,,,,,,,,,,,,,,,,,,,,,,,,,,,116,001,2023_Jul_07_1514,SpeechDraft1Carolyn_lessNoise_PlusLocalization,2021.2.3,59.926464366298035,
clothe.wav,clothe.mpg,clothe,1,A,Pink_Noise_1_1.wav,Pink_Noise_1_2.wav,,,,,,,,,,,,,,,0,38,38,40,,,,,,,,,,,,,,,,,,,,,,,1566.7128164370079,None,1568.2125021109823,None,1569.5961261669872,None,cloth,1569.5961261669872,None,return,2.9906192739726976,1569.679473747965,None,,,,,,,,,,,,,,,,,,,,,,,,,,,,,,,,,,,,,,,116,001,2023_Jul_07_1514,SpeechDraft1Carolyn_lessNoise_PlusLocalization,2021.2.3,59.926464366298035,
blob.wav,blob.mpg,blob,5,A,Pink_Noise_5_1.wav,Pink_Noise_5_2.wav,,,,,,,,,,,,,,,0,39,39,14,,,,,,,,,,,,,,,,,,,,,,,1572.6961210430018,None,1574.1958482160117,None,1575.579639072006,None,"flat
",1575.579639072006,None,return,11.766961468965746,1575.6628745539929,None,,,,,,,,,,,,,,,,,,,,,,,,,,,,,,,,,,,,,,,116,001,2023_Jul_07_1514,SpeechDraft1Carolyn_lessNoise_PlusLocalization,2021.2.3,59.926464366298035,
craft.wav,craft.mpg,craft,3,AV,Pink_Noise_3_1.wav,Pink_Noise_3_2.wav,,,,,,,,,,,,,,,0,40,40,80,,,,,,,,,,,,,,,,,,,,,,,1587.4630000399775,None,1588.9625507309684,None,1590.346058672003,None,quant,1590.346058672003,None,return,26.376274667971302,1590.4295671879663,None,,,,,,,,,,,,,,,,,,,,,,,,,,,,,,,,,,,,,,,116,001,2023_Jul_07_1514,SpeechDraft1Carolyn_lessNoise_PlusLocalization,2021.2.3,59.926464366298035,
drunk.wav,drunk.mpg,drunk,5,AV,Pink_Noise_5_1.wav,Pink_Noise_5_2.wav,,,,,,,,,,,,,,,0,41,41,64,,,,,,,,,,,,,,,,,,,,,,,1616.829577840981,None,1618.3291612539906,None,1619.7129309690208,None,drink,1619.7129309690208,None,return,1.593511477985885,1619.7962962919846,None,,,,,,,,,,,,,,,,,,,,,,,,,,,,,,,,,,,,,,,116,001,2023_Jul_07_1514,SpeechDraft1Carolyn_lessNoise_PlusLocalization,2021.2.3,59.926464366298035,
drill.wav,drill.mpg,drill,4,A,Pink_Noise_4_1.wav,Pink_Noise_4_2.wav,,,,,,,,,,,,,,,0,42,42,1,,,,,,,,,,,,,,,,,,,,,,,1621.412869516993,None,1622.9125328559894,None,1624.296261601965,None,joke,1624.296261601965,None,return,2.106333082949277,1624.379573537968,None,,,,,,,,,,,,,,,,,,,,,,,,,,,,,,,,,,,,,,,116,001,2023_Jul_07_1514,SpeechDraft1Carolyn_lessNoise_PlusLocalization,2021.2.3,59.926464366298035,
flesh.wav,flesh.mpg,flesh,6,A,Pink_Noise_6_1.wav,Pink_Noise_6_2.wav,,,,,,,,,,,,,,,0,43,43,26,,,,,,,,,,,,,,,,,,,,,,,1626.5128871930065,None,1628.0125941039878,None,1629.3961836009985,None,crush,1629.3961836009985,None,return,3.6541912319953553,1629.4796397070168,None,,,,,,,,,,,,,,,,,,,,,,,,,,,,,,,,,,,,,,,116,001,2023_Jul_07_1514,SpeechDraft1Carolyn_lessNoise_PlusLocalization,2021.2.3,59.926464366298035,
burn.wav,burn.mpg,burn,1,A,Pink_Noise_1_1.wav,Pink_Noise_1_2.wav,,,,,,,,,,,,,,,0,44,44,23,,,,,,,,,,,,,,,,,,,,,,,1633.1629060959676,None,1634.6627852389938,None,1636.0463397569838,None,burn,1636.0463397569838,None,return,1.1163079729885794,1636.1295871969778,None,,,,,,,,,,,,,,,,,,,,,,,,,,,,,,,,,,,,,,,116,001,2023_Jul_07_1514,SpeechDraft1Carolyn_lessNoise_PlusLocalization,2021.2.3,59.926464366298035,
grade.wav,grade.mpg,grade,2,A,Pink_Noise_2_1.wav,Pink_Noise_2_2.wav,,,,,,,,,,,,,,,0,45,45,56,,,,,,,,,,,,,,,,,,,,,,,1637.262835152971,None,1638.764423236018,None,1640.1462280700216,None,grade,1640.1462280700216,None,return,3.1762253739871085,1640.2296024259995,None,,,,,,,,,,,,,,,,,,,,,,,,,,,,,,,,,,,,,,,116,001,2023_Jul_07_1514,SpeechDraft1Carolyn_lessNoise_PlusLocalization,2021.2.3,59.926464366298035,
care.wav,care.mpg,care,1,AV,Pink_Noise_1_1.wav,Pink_Noise_1_2.wav,,,,,,,,,,,,,,,0,46,46,93,,,,,,,,,,,,,,,,,,,,,,,1643.4295700489893,None,1644.9292443600134,None,1646.3128609869746,None,"care
",1646.3128609869746,None,return,1.137542215990834,1646.3962886849768,None,,,,,,,,,,,,,,,,,,,,,,,,,,,,,,,,,,,,,,,116,001,2023_Jul_07_1514,SpeechDraft1Carolyn_lessNoise_PlusLocalization,2021.2.3,59.926464366298035,
fault.wav,fault.mpg,fault,3,A,Pink_Noise_3_1.wav,Pink_Noise_3_2.wav,,,,,,,,,,,,,,,0,47,47,57,,,,,,,,,,,,,,,,,,,,,,,1647.562951705011,None,1649.06264138798,None,1650.4461808709893,None,but,1650.4461808709893,None,return,2.716381344012916,1650.5295599109959,None,,,,,,,,,,,,,,,,,,,,,,,,,,,,,,,,,,,,,,,116,001,2023_Jul_07_1514,SpeechDraft1Carolyn_lessNoise_PlusLocalization,2021.2.3,59.926464366298035,
flag.wav,flag.mpg,flag,3,A,Pink_Noise_3_1.wav,Pink_Noise_3_2.wav,,,,,,,,,,,,,,,0,48,48,45,,,,,,,,,,,,,,,,,,,,,,,1653.262860660965,None,1654.7626590399886,None,1656.1461841309792,None,,1656.1461841309792,None,return,4.776199886982795,1656.229627224966,None,,,,,,,,,,,,,,,,,,,,,,,,,,,,,,,,,,,,,,,116,001,2023_Jul_07_1514,SpeechDraft1Carolyn_lessNoise_PlusLocalization,2021.2.3,59.926464366298035,
bite.wav,bite.mpg,bite,5,AV,Pink_Noise_5_1.wav,Pink_Noise_5_2.wav,,,,,,,,,,,,,,,0,49,49,62,,,,,,,,,,,,,,,,,,,,,,,1661.0299155460089,None,1662.5293238519807,None,1663.9129508010228,None,bite,1663.9129508010228,None,return,18.59349866496632,1663.9963460289873,None,,,,,,,,,,,,,,,,,,,,,,,,,,,,,,,,,,,,,,,116,001,2023_Jul_07_1514,SpeechDraft1Carolyn_lessNoise_PlusLocalization,2021.2.3,59.926464366298035,
barn.wav,barn.mpg,barn,4,A,Pink_Noise_4_1.wav,Pink_Noise_4_2.wav,,,,,,,,,,,,,,,0,50,50,5,,,,,,,,,,,,,,,,,,,,,,,1682.6129468859872,None,1684.112490437983,None,1685.4962446439895,None,far,1685.4962446439895,None,return,2.5940848370082676,1685.5797396349953,None,,,,,,,,,,,,,,,,,,,,,,,,,,,,,,,,,,,,,,,116,001,2023_Jul_07_1514,SpeechDraft1Carolyn_lessNoise_PlusLocalization,2021.2.3,59.926464366298035,
cheer.wav,cheer.mpg,cheer,3,AV,Pink_Noise_3_1.wav,Pink_Noise_3_2.wav,,,,,,,,,,,,,,,0,51,51,90,,,,,,,,,,,,,,,,,,,,,,,1688.1963926390163,None,1689.6959510350134,None,1691.0798002890078,None,cheer,1691.0798002890078,None,return,1.226888723031152,1691.1629287810065,None,,,,,,,,,,,,,,,,,,,,,,,,,,,,,,,,,,,,,,,116,001,2023_Jul_07_1514,SpeechDraft1Carolyn_lessNoise_PlusLocalization,2021.2.3,59.926464366298035,
bribe.wav,bribe.mpg,bribe,4,AV,Pink_Noise_4_1.wav,Pink_Noise_4_2.wav,,,,,,,,,,,,,,,0,52,52,110,,,,,,,,,,,,,,,,,,,,,,,1692.4130103010102,None,1693.912607655977,None,1695.2961731919786,None,bid,1695.2961731919786,None,return,17.74633657600498,1695.3796546930098,None,,,,,,,,,,,,,,,,,,,,,,,,,,,,,,,,,,,,,,,116,001,2023_Jul_07_1514,SpeechDraft1Carolyn_lessNoise_PlusLocalization,2021.2.3,59.926464366298035,
cloud.wav,cloud.mpg,cloud,1,AV,Pink_Noise_1_1.wav,Pink_Noise_1_2.wav,,,,,,,,,,,,,,,0,53,53,91,,,,,,,,,,,,,,,,,,,,,,,1713.1464264799724,None,1714.6461112439865,None,1716.0298931630095,None,cloud,1716.0298931630095,None,return,3.4206991950049996,1716.1131330449716,None,,,,,,,,,,,,,,,,,,,,,,,,,,,,,,,,,,,,,,,116,001,2023_Jul_07_1514,SpeechDraft1Carolyn_lessNoise_PlusLocalization,2021.2.3,59.926464366298035,
gem.wav,gem.mpg,gem,1,A,Pink_Noise_1_1.wav,Pink_Noise_1_2.wav,,,,,,,,,,,,,,,0,54,54,9,,,,,,,,,,,,,,,,,,,,,,,1719.5630124419695,None,1721.0626649829792,None,1722.4463707639952,None,jam,1722.4463707639952,None,return,4.5081466939882375,1722.5296820409712,None,,,,,,,,,,,,,,,,,,,,,,,,,,,,,,,,,,,,,,,116,001,2023_Jul_07_1514,SpeechDraft1Carolyn_lessNoise_PlusLocalization,2021.2.3,59.926464366298035,
germ.wav,germ.mpg,germ,6,A,Pink_Noise_6_1.wav,Pink_Noise_6_2.wav,,,,,,,,,,,,,,,0,55,55,8,,,,,,,,,,,,,,,,,,,,,,,1727.0630418140208,None,1728.5626797659788,None,1729.9463240720215,None,joke,1729.9463240720215,None,return,2.5762191750109196,1730.0296416059718,None,,,,,,,,,,,,,,,,,,,,,,,,,,,,,,,,,,,,,,,116,001,2023_Jul_07_1514,SpeechDraft1Carolyn_lessNoise_PlusLocalization,2021.2.3,59.926464366298035,
grin.wav,grin.mpg,grin,3,A,Pink_Noise_3_1.wav,Pink_Noise_3_2.wav,,,,,,,,,,,,,,,0,56,56,0,,,,,,,,,,,,,,,,,,,,,,,1732.6297420269693,None,1734.1294434809824,None,1735.5131874679937,None,grade,1735.5131874679937,None,return,1.393423562985845,1735.5964256789885,None,,,,,,,,,,,,,,,,,,,,,,,,,,,,,,,,,,,,,,,116,001,2023_Jul_07_1514,SpeechDraft1Carolyn_lessNoise_PlusLocalization,2021.2.3,59.926464366298035,
catch.wav,catch.mpg,catch,5,AV,Pink_Noise_5_1.wav,Pink_Noise_5_2.wav,,,,,,,,,,,,,,,0,57,57,106,,,,,,,,,,,,,,,,,,,,,,,1737.0130493959878,None,1738.512731543975,None,1739.896368429996,None,"cash
",1739.896368429996,None,return,2.434075598954223,1739.979742084979,None,,,,,,,,,,,,,,,,,,,,,,,,,,,,,,,,,,,,,,,116,001,2023_Jul_07_1514,SpeechDraft1Carolyn_lessNoise_PlusLocalization,2021.2.3,59.926464366298035,
doll.wav,doll.mpg,doll,2,A,Pink_Noise_2_1.wav,Pink_Noise_2_2.wav,,,,,,,,,,,,,,,0,58,58,19,,,,,,,,,,,,,,,,,,,,,,,1742.446548427979,None,1743.9463229519897,None,1745.329886654974,None,dull,1745.329886654974,None,return,14.320766334014479,1745.4130558510078,None,,,,,,,,,,,,,,,,,,,,,,,,,,,,,,,,,,,,,,,116,001,2023_Jul_07_1514,SpeechDraft1Carolyn_lessNoise_PlusLocalization,2021.2.3,59.926464366298035,
gust.wav,gust.mpg,gust,4,AV,Pink_Noise_4_1.wav,Pink_Noise_4_2.wav,,,,,,,,,,,,,,,0,59,59,104,,,,,,,,,,,,,,,,,,,,,,,1759.7632943969802,None,1761.2628129160148,None,1762.6462782389717,None,gust,1762.6462782389717,None,return,0.9639746650354937,1762.729845406022,None,,,,,,,,,,,,,,,,,,,,,,,,,,,,,,,,,,,,,,,116,001,2023_Jul_07_1514,SpeechDraft1Carolyn_lessNoise_PlusLocalization,2021.2.3,59.926464366298035,
vest.wav,vest.mpg,vest,6,AV,Pink_Noise_6_1.wav,Pink_Noise_6_2.wav,,,,,,,,,,,,,,,0,60,60,118,,,,,,,,,,,,,,,,,,,,,,,1763.7131998799741,None,1765.2126383879804,None,1766.5963390389807,None,"fast
",1766.5963390389807,None,return,0.8700728120165877,1766.6797523979913,None,,,,,,,,,,,,,,,,,,,,,,,,,,,,,,,,,,,,,,,116,001,2023_Jul_07_1514,SpeechDraft1Carolyn_lessNoise_PlusLocalization,2021.2.3,59.926464366298035,
rod.wav,rod.mpg,rod,6,A,Pink_Noise_6_1.wav,Pink_Noise_6_2.wav,,,,,,,,,,,,,,,0,61,61,20,,,,,,,,,,,,,,,,,,,,,,,1767.5797593269963,None,1769.0793871339993,None,1770.4630663499702,None,clash,1770.4630663499702,None,return,2.211344712006394,1770.5464892999735,None,,,,,,,,,,,,,,,,,,,,,,,,,,,,,,,,,,,,,,,116,001,2023_Jul_07_1514,SpeechDraft1Carolyn_lessNoise_PlusLocalization,2021.2.3,59.926464366298035,
dip.wav,dip.mpg,dip,4,AV,Pink_Noise_4_1.wav,Pink_Noise_4_2.wav,,,,,,,,,,,,,,,0,62,62,107,,,,,,,,,,,,,,,,,,,,,,,1772.7797732769977,None,1774.2795696160174,None,1775.665260387992,None,"deep
",1775.665260387992,None,return,1.0833790219621733,1775.7464357389836,None,,,,,,,,,,,,,,,,,,,,,,,,,,,,,,,,,,,,,,,116,001,2023_Jul_07_1514,SpeechDraft1Carolyn_lessNoise_PlusLocalization,2021.2.3,59.926464366298035,
edge.wav,edge.mpg,edge,1,AV,Pink_Noise_1_1.wav,Pink_Noise_1_2.wav,,,,,,,,,,,,,,,0,63,63,111,,,,,,,,,,,,,,,,,,,,,,,1776.8630968549987,None,1778.3632765620132,None,1779.7465367239784,None,age,1779.7465367239784,None,return,0.704098725982476,1779.8297265680158,None,,,,,,,,,,,,,,,,,,,,,,,,,,,,,,,,,,,,,,,116,001,2023_Jul_07_1514,SpeechDraft1Carolyn_lessNoise_PlusLocalization,2021.2.3,59.926464366298035,
foam.wav,foam.mpg,foam,3,AV,Pink_Noise_3_1.wav,Pink_Noise_3_2.wav,,,,,,,,,,,,,,,0,64,64,114,,,,,,,,,,,,,,,,,,,,,,,1780.5629427710082,None,1782.0627952839714,None,1783.4464371660142,None,phone,1783.4464371660142,None,return,0.9401630089851096,1783.5297422019648,None,,,,,,,,,,,,,,,,,,,,,,,,,,,,,,,,,,,,,,,116,001,2023_Jul_07_1514,SpeechDraft1Carolyn_lessNoise_PlusLocalization,2021.2.3,59.926464366298035,
grand.wav,grand.mpg,grand,5,A,Pink_Noise_5_1.wav,Pink_Noise_5_2.wav,,,,,,,,,,,,,,,0,65,65,13,,,,,,,,,,,,,,,,,,,,,,,1784.4963214989984,None,1785.996251404984,None,1787.3798443970154,None,"thron
",1787.3798443970154,None,return,18.534733287990093,1787.4630981319933,None,,,,,,,,,,,,,,,,,,,,,,,,,,,,,,,,,,,,,,,116,001,2023_Jul_07_1514,SpeechDraft1Carolyn_lessNoise_PlusLocalization,2021.2.3,59.926464366298035,
flop.wav,flop.mpg,flop,3,A,Pink_Noise_3_1.wav,Pink_Noise_3_2.wav,,,,,,,,,,,,,,,0,66,66,7,,,,,,,,,,,,,,,,,,,,,,,1806.0297186839744,None,1807.5294915019767,None,1808.9131870609708,None,flock,1808.9131870609708,None,return,1.921500151976943,1808.9964783819742,None,,,,,,,,,,,,,,,,,,,,,,,,,,,,,,,,,,,,,,,116,001,2023_Jul_07_1514,SpeechDraft1Carolyn_lessNoise_PlusLocalization,2021.2.3,59.926464366298035,
pike.wav,pike.mpg,pike,2,A,Pink_Noise_2_1.wav,Pink_Noise_2_2.wav,,,,,,,,,,,,,,,0,67,67,16,,,,,,,,,,,,,,,,,,,,,,,1810.9464490020182,None,1812.4466944040032,None,1813.829852565017,None,pipe,1813.829852565017,None,return,7.076723695965484,1813.9131350159878,None,,,,,,,,,,,,,,,,,,,,,,,,,,,,,,,,,,,,,,,116,001,2023_Jul_07_1514,SpeechDraft1Carolyn_lessNoise_PlusLocalization,2021.2.3,59.926464366298035,
drink.wav,drink.mpg,drink,4,A,Pink_Noise_4_1.wav,Pink_Noise_4_2.wav,,,,,,,,,,,,,,,0,68,68,24,,,,,,,,,,,,,,,,,,,,,,,1821.0131409059977,None,1822.5128299829667,None,1823.8965125780087,None,drink,1823.8965125780087,None,return,3.9539516920340247,1823.9798589890124,None,,,,,,,,,,,,,,,,,,,,,,,,,,,,,,,,,,,,,,,116,001,2023_Jul_07_1514,SpeechDraft1Carolyn_lessNoise_PlusLocalization,2021.2.3,59.926464366298035,
cried.wav,cried.mpg,cried,2,AV,Pink_Noise_2_1.wav,Pink_Noise_2_2.wav,,,,,,,,,,,,,,,0,69,69,95,,,,,,,,,,,,,,,,,,,,,,,1827.963162960019,None,1829.4628866109997,None,1830.8467639160226,None,cried,1830.8467639160226,None,return,4.924137184978463,1830.9297944849823,None,,,,,,,,,,,,,,,,,,,,,,,,,,,,,,,,,,,,,,,116,001,2023_Jul_07_1514,SpeechDraft1Carolyn_lessNoise_PlusLocalization,2021.2.3,59.926464366298035,
depth.wav,depth.mpg,depth,5,AV,Pink_Noise_5_1.wav,Pink_Noise_5_2.wav,,,,,,,,,,,,,,,0,70,70,81,,,,,,,,,,,,,,,,,,,,,,,1835.8798529299675,None,1837.3961943089962,None,1838.7631693999865,None,depth,1838.7631693999865,None,return,1.423541211988777,1838.846529514005,None,,,,,,,,,,,,,,,,,,,,,,,,,,,,,,,,,,,,,,,116,001,2023_Jul_07_1514,SpeechDraft1Carolyn_lessNoise_PlusLocalization,2021.2.3,59.926464366298035,
hit.wav,hit.mpg,hit,6,A,Pink_Noise_6_1.wav,Pink_Noise_6_2.wav,,,,,,,,,,,,,,,0,71,71,30,,,,,,,,,,,,,,,,,,,,,,,1840.2964876900078,None,1841.7962713469751,None,1843.179833016009,None,"
",1843.179833016009,None,return,1.8866437950055115,1843.2631641409826,None,,,,,,,,,,,,,,,,,,,,,,,,,,,,,,,,,,,,,,,116,001,2023_Jul_07_1514,SpeechDraft1Carolyn_lessNoise_PlusLocalization,2021.2.3,59.926464366298035,
block.wav,block.mpg,block,4,AV,Pink_Noise_4_1.wav,Pink_Noise_4_2.wav,,,,,,,,,,,,,,,0,72,72,77,,,,,,,,,,,,,,,,,,,,,,,1845.1799498909968,None,1846.679513147974,None,1848.0632381549804,None,blush,1848.0632381549804,None,return,3.8432603869587183,1848.1466074269847,None,,,,,,,,,,,,,,,,,,,,,,,,,,,,,,,,,,,,,,,116,001,2023_Jul_07_1514,SpeechDraft1Carolyn_lessNoise_PlusLocalization,2021.2.3,59.926464366298035,
fable.wav,fable.mpg,fable,5,A,Pink_Noise_5_1.wav,Pink_Noise_5_2.wav,,,,,,,,,,,,,,,0,73,73,25,,,,,,,,,,,,,,,,,,,,,,,1852.0132206319831,None,1853.512874683016,None,1854.8965655210195,None,dav,1854.8965655210195,None,return,8.145831645000726,1854.97999750101,None,,,,,,,,,,,,,,,,,,,,,,,,,,,,,,,,,,,,,,,116,001,2023_Jul_07_1514,SpeechDraft1Carolyn_lessNoise_PlusLocalization,2021.2.3,59.926464366298035,
ham.wav,ham.mpg,ham,6,AV,Pink_Noise_6_1.wav,Pink_Noise_6_2.wav,,,,,,,,,,,,,,,0,74,74,66,,,,,,,,,,,,,,,,,,,,,,,1863.1465189500013,None,1864.6462068100227,None,1866.0299766690005,None,"aim
",1866.0299766690005,None,return,5.700545680010691,1866.1132885700208,None,,,,,,,,,,,,,,,,,,,,,,,,,,,,,,,,,,,,,,,116,001,2023_Jul_07_1514,SpeechDraft1Carolyn_lessNoise_PlusLocalization,2021.2.3,59.926464366298035,
clean.wav,clean.mpg,clean,5,A,Pink_Noise_5_1.wav,Pink_Noise_5_2.wav,,,,,,,,,,,,,,,0,75,75,55,,,,,,,,,,,,,,,,,,,,,,,1871.8464782660012,None,1873.36290396197,None,1874.746718480019,None,lim,1874.746718480019,None,return,7.199953665025532,1874.8299304220127,None,,,,,,,,,,,,,,,,,,,,,,,,,,,,,,,,,,,,,,,116,001,2023_Jul_07_1514,SpeechDraft1Carolyn_lessNoise_PlusLocalization,2021.2.3,59.926464366298035,
golf.wav,golf.mpg,golf,1,A,Pink_Noise_1_1.wav,Pink_Noise_1_2.wav,,,,,,,,,,,,,,,0,76,76,37,,,,,,,,,,,,,,,,,,,,,,,1882.0473473210004,None,1883.5464011959848,None,1884.9298987289658,None,goals,1884.9298987289658,None,return,14.360478742979467,1885.0133592589991,None,,,,,,,,,,,,,,,,,,,,,,,,,,,,,,,,,,,,,,,116,001,2023_Jul_07_1514,SpeechDraft1Carolyn_lessNoise_PlusLocalization,2021.2.3,59.926464366298035,
bush.wav,bush.mpg,bush,6,A,Pink_Noise_6_1.wav,Pink_Noise_6_2.wav,,,,,,,,,,,,,,,0,77,77,35,,,,,,,,,,,,,,,,,,,,,,,1899.3965610120213,None,1900.9129380640225,None,1902.2966575379833,None,"brush
",1902.2966575379833,None,return,1.3858381310128607,1902.3799912710092,None,,,,,,,,,,,,,,,,,,,,,,,,,,,,,,,,,,,,,,,116,001,2023_Jul_07_1514,SpeechDraft1Carolyn_lessNoise_PlusLocalization,2021.2.3,59.926464366298035,
axe.wav,axe.mpg,axe,1,A,Pink_Noise_1_1.wav,Pink_Noise_1_2.wav,,,,,,,,,,,,,,,0,78,78,41,,,,,,,,,,,,,,,,,,,,,,,1903.7966803489835,None,1905.3132309929933,None,1906.6800453049946,None,"eggs
",1906.6800453049946,None,return,3.034547941002529,1906.763268804003,None,,,,,,,,,,,,,,,,,,,,,,,,,,,,,,,,,,,,,,,116,001,2023_Jul_07_1514,SpeechDraft1Carolyn_lessNoise_PlusLocalization,2021.2.3,59.926464366298035,
gas.wav,gas.mpg,gas,3,AV,Pink_Noise_3_1.wav,Pink_Noise_3_2.wav,,,,,,,,,,,,,,,0,79,79,101,,,,,,,,,,,,,,,,,,,,,,,1909.8300249099848,None,1911.3296845349832,None,1912.7133925969829,None,guess,1912.7133925969829,None,return,2.53729900700273,1912.796537421993,None,,,,,,,,,,,,,,,,,,,,,,,,,,,,,,,,,,,,,,,116,001,2023_Jul_07_1514,SpeechDraft1Carolyn_lessNoise_PlusLocalization,2021.2.3,59.926464366298035,
flow.wav,flow.mpg,flow,2,AV,Pink_Noise_2_1.wav,Pink_Noise_2_2.wav,,,,,,,,,,,,,,,0,80,80,60,,,,,,,,,,,,,,,,,,,,,,,1915.3633661069907,None,1916.9130439389846,None,1918.2968191470136,None,floam,1918.2968191470136,None,return,5.545870448986534,1918.3799504860071,None,,,,,,,,,,,,,,,,,,,,,,,,,,,,,,,,,,,,,,,116,001,2023_Jul_07_1514,SpeechDraft1Carolyn_lessNoise_PlusLocalization,2021.2.3,59.926464366298035,
frost.wav,frost.mpg,frost,1,A,Pink_Noise_1_1.wav,Pink_Noise_1_2.wav,,,,,,,,,,,,,,,0,81,81,33,,,,,,,,,,,,,,,,,,,,,,,1923.9466676309821,None,1925.4462994199712,None,1926.829991511011,None,frost,1926.829991511011,None,return,5.748587233014405,1926.9133272080217,None,,,,,,,,,,,,,,,,,,,,,,,,,,,,,,,,,,,,,,,116,001,2023_Jul_07_1514,SpeechDraft1Carolyn_lessNoise_PlusLocalization,2021.2.3,59.926464366298035,
glare.wav,glare.mpg,glare,6,A,Pink_Noise_6_1.wav,Pink_Noise_6_2.wav,,,,,,,,,,,,,,,0,82,82,27,,,,,,,,,,,,,,,,,,,,,,,1932.6801452049986,None,1934.1963359729853,None,1935.580030669982,None,blush,1935.580030669982,None,return,2.0225250760558993,1935.6634009580011,None,,,,,,,,,,,,,,,,,,,,,,,,,,,,,,,,,,,,,,,116,001,2023_Jul_07_1514,SpeechDraft1Carolyn_lessNoise_PlusLocalization,2021.2.3,59.926464366298035,
chew.wav,chew.mpg,chew,1,A,Pink_Noise_1_1.wav,Pink_Noise_1_2.wav,,,,,,,,,,,,,,,0,83,83,44,,,,,,,,,,,,,,,,,,,,,,,1937.7134100630064,None,1939.2296827399987,None,1940.613397987967,None,chill,1940.613397987967,None,return,1.3092025879886933,1940.6966200059978,None,,,,,,,,,,,,,,,,,,,,,,,,,,,,,,,,,,,,,,,116,001,2023_Jul_07_1514,SpeechDraft1Carolyn_lessNoise_PlusLocalization,2021.2.3,59.926464366298035,
eel.wav,eel.mpg,eel,3,A,Pink_Noise_3_1.wav,Pink_Noise_3_2.wav,,,,,,,,,,,,,,,0,84,84,46,,,,,,,,,,,,,,,,,,,,,,,1942.030041948019,None,1943.5462405930157,None,1944.9300265049678,None,deal,1944.9300265049678,None,return,0.86440948699601,1945.0134247739916,None,,,,,,,,,,,,,,,,,,,,,,,,,,,,,,,,,,,,,,,116,001,2023_Jul_07_1514,SpeechDraft1Carolyn_lessNoise_PlusLocalization,2021.2.3,59.926464366298035,
dive.wav,dive.mpg,dive,1,A,Pink_Noise_1_1.wav,Pink_Noise_1_2.wav,,,,,,,,,,,,,,,0,85,85,39,,,,,,,,,,,,,,,,,,,,,,,1945.8967489909846,None,1947.3978712660028,None,1948.7800287649734,None,dive,1948.7800287649734,None,return,0.9264693320146762,1948.8633473179652,None,,,,,,,,,,,,,,,,,,,,,,,,,,,,,,,,,,,,,,,116,001,2023_Jul_07_1514,SpeechDraft1Carolyn_lessNoise_PlusLocalization,2021.2.3,59.926464366298035,
clip.wav,clip.mpg,clip,6,AV,Pink_Noise_6_1.wav,Pink_Noise_6_2.wav,,,,,,,,,,,,,,,0,86,86,113,,,,,,,,,,,,,,,,,,,,,,,1949.813563489006,None,1951.3129731810186,None,1952.696626068966,None,depth,1952.696626068966,None,return,3.8578012280049734,1952.780047302018,None,,,,,,,,,,,,,,,,,,,,,,,,,,,,,,,,,,,,,,,116,001,2023_Jul_07_1514,SpeechDraft1Carolyn_lessNoise_PlusLocalization,2021.2.3,59.926464366298035,
brow.wav,brow.mpg,brow,5,AV,Pink_Noise_5_1.wav,Pink_Noise_5_2.wav,,,,,,,,,,,,,,,0,87,87,105,,,,,,,,,,,,,,,,,,,,,,,1956.6633343879948,None,1958.1797303839703,None,1959.5633683549822,None,proud,1959.5633683549822,None,return,3.4311507410020567,1959.646744386002,None,,,,,,,,,,,,,,,,,,,,,,,,,,,,,,,,,,,,,,,116,001,2023_Jul_07_1514,SpeechDraft1Carolyn_lessNoise_PlusLocalization,2021.2.3,59.926464366298035,
coy.wav,coy.mpg,coy,5,A,Pink_Noise_5_1.wav,Pink_Noise_5_2.wav,,,,,,,,,,,,,,,0,88,88,59,,,,,,,,,,,,,,,,,,,,,,,1963.0966289379867,None,1964.6129714759882,None,1965.9967685259762,None,boy,1965.9967685259762,None,return,1.5659139849594794,1966.0799913000083,None,,,,,,,,,,,,,,,,,,,,,,,,,,,,,,,,,,,,,,,116,001,2023_Jul_07_1514,SpeechDraft1Carolyn_lessNoise_PlusLocalization,2021.2.3,59.926464366298035,
gram.wav,gram.mpg,gram,2,A,Pink_Noise_2_1.wav,Pink_Noise_2_2.wav,,,,,,,,,,,,,,,0,89,89,15,,,,,,,,,,,,,,,,,,,,,,,1967.66343937302,None,1969.1630279339734,None,1970.54676762101,None,glimpth,1970.54676762101,None,return,7.224023740971461,1970.6300106999697,None,,,,,,,,,,,,,,,,,,,,,,,,,,,,,,,,,,,,,,,116,001,2023_Jul_07_1514,SpeechDraft1Carolyn_lessNoise_PlusLocalization,2021.2.3,59.926464366298035,
cheap.wav,cheap.mpg,cheap,4,AV,Pink_Noise_4_1.wav,Pink_Noise_4_2.wav,,,,,,,,,,,,,,,0,90,90,102,,,,,,,,,,,,,,,,,,,,,,,1977.8800819339813,None,1979.3964480200084,None,1980.7800004729652,None,cheap,1980.7800004729652,None,return,1.566439728019759,1980.8634687730228,None,,,,,,,,,,,,,,,,,,,,,,,,,,,,,,,,,,,,,,,116,001,2023_Jul_07_1514,SpeechDraft1Carolyn_lessNoise_PlusLocalization,2021.2.3,59.926464366298035,
food.wav,food.mpg,food,4,AV,Pink_Noise_4_1.wav,Pink_Noise_4_2.wav,,,,,,,,,,,,,,,0,91,91,76,,,,,,,,,,,,,,,,,,,,,,,1982.4467461609747,None,1983.9630518889753,None,1985.3466168289888,None,,1985.3466168289888,None,return,3.415809898986481,1985.4301435609814,None,,,,,,,,,,,,,,,,,,,,,,,,,,,,,,,,,,,,,,,116,001,2023_Jul_07_1514,SpeechDraft1Carolyn_lessNoise_PlusLocalization,2021.2.3,59.926464366298035,
cape.wav,cape.mpg,cape,6,AV,Pink_Noise_6_1.wav,Pink_Noise_6_2.wav,,,,,,,,,,,,,,,0,92,92,75,,,,,,,,,,,,,,,,,,,,,,,1988.8641069949954,None,1990.3798134679673,None,1991.7634725989774,None,cape,1991.7634725989774,None,return,4.399212663003709,1991.8466876460006,None,,,,,,,,,,,,,,,,,,,,,,,,,,,,,,,,,,,,,,,116,001,2023_Jul_07_1514,SpeechDraft1Carolyn_lessNoise_PlusLocalization,2021.2.3,59.926464366298035,
chop.wav,chop.mpg,chop,6,A,Pink_Noise_6_1.wav,Pink_Noise_6_2.wav,,,,,,,,,,,,,,,0,93,93,4,,,,,,,,,,,,,,,,,,,,,,,1996.2634009110043,None,1997.7798507770058,None,1999.1635418509832,None,charge,1999.1635418509832,None,return,6.8153020910103805,1999.2467798949801,None,,,,,,,,,,,,,,,,,,,,,,,,,,,,,,,,,,,,,,,116,001,2023_Jul_07_1514,SpeechDraft1Carolyn_lessNoise_PlusLocalization,2021.2.3,59.926464366298035,
flash.wav,flash.mpg,flash,6,AV,Pink_Noise_6_1.wav,Pink_Noise_6_2.wav,,,,,,,,,,,,,,,0,94,94,109,,,,,,,,,,,,,,,,,,,,,,,2006.0800643910188,None,2007.5966024649679,None,2008.9801318249665,None,flash,2008.9801318249665,None,return,1.0144098780001514,2009.0634547739755,None,,,,,,,,,,,,,,,,,,,,,,,,,,,,,,,,,,,,,,,116,001,2023_Jul_07_1514,SpeechDraft1Carolyn_lessNoise_PlusLocalization,2021.2.3,59.926464366298035,
bread.wav,bread.mpg,bread,2,AV,Pink_Noise_2_1.wav,Pink_Noise_2_2.wav,,,,,,,,,,,,,,,0,95,95,117,,,,,,,,,,,,,,,,,,,,,,,2010.0967638699804,None,2011.629744904989,None,2013.013314580021,None,bread,2013.013314580021,None,return,1.0609843059792183,2013.096852045972,None,,,,,,,,,,,,,,,,,,,,,,,,,,,,,,,,,,,,,,,116,001,2023_Jul_07_1514,SpeechDraft1Carolyn_lessNoise_PlusLocalization,2021.2.3,59.926464366298035,
fat.wav,fat.mpg,fat,1,AV,Pink_Noise_1_1.wav,Pink_Noise_1_2.wav,,,,,,,,,,,,,,,0,96,96,96,,,,,,,,,,,,,,,,,,,,,,,2014.1802447789814,None,2015.7131716660224,None,2017.096834698983,None,fat,2017.096834698983,None,return,0.8577218069694936,2017.1800947859883,None,,,,,,,,,,,,,,,,,,,,,,,,,,,,,,,,,,,,,,,116,001,2023_Jul_07_1514,SpeechDraft1Carolyn_lessNoise_PlusLocalization,2021.2.3,59.926464366298035,
brick.wav,brick.mpg,brick,4,AV,Pink_Noise_4_1.wav,Pink_Noise_4_2.wav,,,,,,,,,,,,,,,0,97,97,83,,,,,,,,,,,,,,,,,,,,,,,2018.063550849969,None,2019.5796921229921,None,2020.9635053310194,None,breath,2020.9635053310194,None,return,7.983109741995577,2021.0467849510023,None,,,,,,,,,,,,,,,,,,,,,,,,,,,,,,,,,,,,,,,116,001,2023_Jul_07_1514,SpeechDraft1Carolyn_lessNoise_PlusLocalization,2021.2.3,59.926464366298035,
build.wav,build.mpg,build,5,AV,Pink_Noise_5_1.wav,Pink_Noise_5_2.wav,,,,,,,,,,,,,,,0,98,98,89,,,,,,,,,,,,,,,,,,,,,,,2029.0467567630112,None,2030.563550841005,None,2031.946737056016,None,bill,2031.946737056016,None,return,4.071808315988164,2032.0301887450041,None,,,,,,,,,,,,,,,,,,,,,,,,,,,,,,,,,,,,,,,116,001,2023_Jul_07_1514,SpeechDraft1Carolyn_lessNoise_PlusLocalization,2021.2.3,59.926464366298035,
draw.wav,draw.mpg,draw,5,A,Pink_Noise_5_1.wav,Pink_Noise_5_2.wav,,,,,,,,,,,,,,,0,99,99,31,,,,,,,,,,,,,,,,,,,,,,,2036.1301798879867,None,2037.6631035350147,None,2039.0468573520193,None,"
",2039.0468573520193,None,return,3.883752871013712,2039.1300888949772,None,,,,,,,,,,,,,,,,,,,,,,,,,,,,,,,,,,,,,,,116,001,2023_Jul_07_1514,SpeechDraft1Carolyn_lessNoise_PlusLocalization,2021.2.3,59.926464366298035,
bee.wav,bee.mpg,bee,6,AV,Pink_Noise_6_1.wav,Pink_Noise_6_2.wav,,,,,,,,,,,,,,,0,100,100,78,,,,,,,,,,,,,,,,,,,,,,,2043.0467373639694,None,2044.5633406499983,None,2045.9468145829742,None,"beep
",2045.9468145829742,None,return,1.735747026046738,2046.030104112986,None,,,,,,,,,,,,,,,,,,,,,,,,,,,,,,,,,,,,,,,116,001,2023_Jul_07_1514,SpeechDraft1Carolyn_lessNoise_PlusLocalization,2021.2.3,59.926464366298035,
clue.wav,clue.mpg,clue,2,A,Pink_Noise_2_1.wav,Pink_Noise_2_2.wav,,,,,,,,,,,,,,,0,101,101,53,,,,,,,,,,,,,,,,,,,,,,,2047.7969311120105,None,2049.3297261620173,None,2050.7135864020092,None,"clue
",2050.7135864020092,None,return,1.2170537089696154,2050.7967843950028,None,,,,,,,,,,,,,,,,,,,,,,,,,,,,,,,,,,,,,,,116,001,2023_Jul_07_1514,SpeechDraft1Carolyn_lessNoise_PlusLocalization,2021.2.3,59.926464366298035,
cure.wav,cure.mpg,cure,5,AV,Pink_Noise_5_1.wav,Pink_Noise_5_2.wav,,,,,,,,,,,,,,,0,102,102,79,,,,,,,,,,,,,,,,,,,,,,,2052.0468560099835,None,2053.5632392020198,None,2054.946950900019,None,"joy
",2054.946950900019,None,return,2.1836115830228664,2055.030215548002,None,,,,,,,,,,,,,,,,,,,,,,,,,,,,,,,,,,,,,,,116,001,2023_Jul_07_1514,SpeechDraft1Carolyn_lessNoise_PlusLocalization,2021.2.3,59.926464366298035,
broad.wav,broad.mpg,broad,5,AV,Pink_Noise_5_1.wav,Pink_Noise_5_2.wav,,,,,,,,,,,,,,,0,103,103,112,,,,,,,,,,,,,,,,,,,,,,,2057.246806668001,None,2058.763249618991,None,2060.146812299965,None,brown,2060.146812299965,None,return,4.111701637972146,2060.2301566629903,None,,,,,,,,,,,,,,,,,,,,,,,,,,,,,,,,,,,,,,,116,001,2023_Jul_07_1514,SpeechDraft1Carolyn_lessNoise_PlusLocalization,2021.2.3,59.926464366298035,
fail.wav,fail.mpg,fail,5,AV,Pink_Noise_5_1.wav,Pink_Noise_5_2.wav,,,,,,,,,,,,,,,0,104,104,69,,,,,,,,,,,,,,,,,,,,,,,2064.363499647996,None,2065.879991565016,None,2067.2634555529803,None,fear,2067.2634555529803,None,return,2.7229994509834796,2067.346874937997,None,,,,,,,,,,,,,,,,,,,,,,,,,,,,,,,,,,,,,,,116,001,2023_Jul_07_1514,SpeechDraft1Carolyn_lessNoise_PlusLocalization,2021.2.3,59.926464366298035,
feed.wav,feed.mpg,feed,1,AV,Pink_Noise_1_1.wav,Pink_Noise_1_2.wav,,,,,,,,,,,,,,,0,105,105,108,,,,,,,,,,,,,,,,,,,,,,,2070.09679525299,None,2071.613175690989,None,2072.9972471750225,None,feed,2072.9972471750225,None,return,1.3415114969830029,2073.0803039220045,None,,,,,,,,,,,,,,,,,,,,,,,,,,,,,,,,,,,,,,,116,001,2023_Jul_07_1514,SpeechDraft1Carolyn_lessNoise_PlusLocalization,2021.2.3,59.926464366298035,
bath.wav,bath.mpg,bath,3,AV,Pink_Noise_3_1.wav,Pink_Noise_3_2.wav,,,,,,,,,,,,,,,0,106,106,82,,,,,,,,,,,,,,,,,,,,,,,2074.446776452998,None,2075.979946302017,None,2077.363409382,None,blame,2077.363409382,None,return,4.039002653036732,2077.4468914209865,None,,,,,,,,,,,,,,,,,,,,,,,,,,,,,,,,,,,,,,,116,001,2023_Jul_07_1514,SpeechDraft1Carolyn_lessNoise_PlusLocalization,2021.2.3,59.926464366298035,
gulf.wav,gulf.mpg,gulf,2,A,Pink_Noise_2_1.wav,Pink_Noise_2_2.wav,,,,,,,,,,,,,,,0,107,107,42,,,,,,,,,,,,,,,,,,,,,,,2081.5135348889744,None,2083.0299512229976,None,2084.4135847049765,None,"goth
",2084.4135847049765,None,return,8.884971834952012,2084.496865579975,None,,,,,,,,,,,,,,,,,,,,,,,,,,,,,,,,,,,,,,,116,001,2023_Jul_07_1514,SpeechDraft1Carolyn_lessNoise_PlusLocalization,2021.2.3,59.926464366298035,
belt.wav,belt.mpg,belt,2,A,Pink_Noise_2_1.wav,Pink_Noise_2_2.wav,,,,,,,,,,,,,,,0,108,108,22,,,,,,,,,,,,,,,,,,,,,,,2093.413567961019,None,2094.946573218971,None,2096.330309541023,None,"felt
",2096.330309541023,None,return,2.536359502992127,2096.4134618659737,None,,,,,,,,,,,,,,,,,,,,,,,,,,,,,,,,,,,,,,,116,001,2023_Jul_07_1514,SpeechDraft1Carolyn_lessNoise_PlusLocalization,2021.2.3,59.926464366298035,
fur.wav,fur.mpg,fur,4,A,Pink_Noise_4_1.wav,Pink_Noise_4_2.wav,,,,,,,,,,,,,,,0,109,109,11,,,,,,,,,,,,,,,,,,,,,,,2098.9802222480066,None,2100.5132731280173,None,2101.8970434929943,None,born,2101.8970434929943,None,return,1.545622315024957,2101.980264078011,None,,,,,,,,,,,,,,,,,,,,,,,,,,,,,,,,,,,,,,,116,001,2023_Jul_07_1514,SpeechDraft1Carolyn_lessNoise_PlusLocalization,2021.2.3,59.926464366298035,
clay.wav,clay.mpg,clay,5,A,Pink_Noise_5_1.wav,Pink_Noise_5_2.wav,,,,,,,,,,,,,,,0,110,110,32,,,,,,,,,,,,,,,,,,,,,,,2103.5469748479663,None,2105.079930563981,None,2106.463564498001,None,close,2106.463564498001,None,return,1.826776344969403,2106.5470312939724,None,,,,,,,,,,,,,,,,,,,,,,,,,,,,,,,,,,,,,,,116,001,2023_Jul_07_1514,SpeechDraft1Carolyn_lessNoise_PlusLocalization,2021.2.3,59.926464366298035,
ditch.wav,ditch.mpg,ditch,5,A,Pink_Noise_5_1.wav,Pink_Noise_5_2.wav,,,,,,,,,,,,,,,0,111,111,54,,,,,,,,,,,,,,,,,,,,,,,2108.396908077004,None,2109.9299278269755,None,2111.3135299640126,None,dish,2111.3135299640126,None,return,1.1208440670161508,2111.3969874350005,None,,,,,,,,,,,,,,,,,,,,,,,,,,,,,,,,,,,,,,,116,001,2023_Jul_07_1514,SpeechDraft1Carolyn_lessNoise_PlusLocalization,2021.2.3,59.926464366298035,
chess.wav,chess.mpg,chess,4,A,Pink_Noise_4_1.wav,Pink_Noise_4_2.wav,,,,,,,,,,,,,,,0,112,112,58,,,,,,,,,,,,,,,,,,,,,,,2112.546969103976,None,2114.048184241983,None,2115.4304097139975,None,chest,2115.4304097139975,None,return,1.1323661920032464,2115.513586814981,None,,,,,,,,,,,,,,,,,,,,,,,,,,,,,,,,,,,,,,,116,001,2023_Jul_07_1514,SpeechDraft1Carolyn_lessNoise_PlusLocalization,2021.2.3,59.926464366298035,
dense.wav,dense.mpg,dense,5,AV,Pink_Noise_5_1.wav,Pink_Noise_5_2.wav,,,,,,,,,,,,,,,0,113,113,85,,,,,,,,,,,,,,,,,,,,,,,2116.663630569994,None,2118.1800080820103,None,2119.5634549550014,None,snack,2119.5634549550014,None,return,8.647012539033312,2119.6469021789962,None,,,,,,,,,,,,,,,,,,,,,,,,,,,,,,,,,,,,,,,116,001,2023_Jul_07_1514,SpeechDraft1Carolyn_lessNoise_PlusLocalization,2021.2.3,59.926464366298035,
gum.wav,gum.mpg,gum,2,AV,Pink_Noise_2_1.wav,Pink_Noise_2_2.wav,,,,,,,,,,,,,,,0,114,114,87,,,,,,,,,,,,,,,,,,,,,,,2128.31359612901,None,2129.829917074996,None,2131.213570568012,None,"gun
",2131.213570568012,None,return,3.3007817350444384,2131.2970437550102,None,,,,,,,,,,,,,,,,,,,,,,,,,,,,,,,,,,,,,,,116,001,2023_Jul_07_1514,SpeechDraft1Carolyn_lessNoise_PlusLocalization,2021.2.3,59.926464366298035,
fate.wav,fate.mpg,fate,4,A,Pink_Noise_4_1.wav,Pink_Noise_4_2.wav,,,,,,,,,,,,,,,0,115,115,10,,,,,,,,,,,,,,,,,,,,,,,2134.63031957997,None,2136.1633286529686,None,2137.5471009130124,None,fit,2137.5471009130124,None,return,3.943470853031613,2137.6303492779844,None,,,,,,,,,,,,,,,,,,,,,,,,,,,,,,,,,,,,,,,116,001,2023_Jul_07_1514,SpeechDraft1Carolyn_lessNoise_PlusLocalization,2021.2.3,59.926464366298035,
fund.wav,fund.mpg,fund,2,AV,Pink_Noise_2_1.wav,Pink_Noise_2_2.wav,,,,,,,,,,,,,,,0,116,116,72,,,,,,,,,,,,,,,,,,,,,,,2141.596866909007,None,2143.1299739580136,None,2144.5135437970166,None,"fond
",2144.5135437970166,None,return,10.000899165985174,2144.5969284030143,None,,,,,,,,,,,,,,,,,,,,,,,,,,,,,,,,,,,,,,,116,001,2023_Jul_07_1514,SpeechDraft1Carolyn_lessNoise_PlusLocalization,2021.2.3,59.926464366298035,
fan.wav,fan.mpg,fan,4,A,Pink_Noise_4_1.wav,Pink_Noise_4_2.wav,,,,,,,,,,,,,,,0,117,117,28,,,,,,,,,,,,,,,,,,,,,,,2154.630278779019,None,2156.1633929549716,None,2157.5470619130065,None,"bear
",2157.5470619130065,None,return,3.1036313219810836,2157.6302186640096,None,,,,,,,,,,,,,,,,,,,,,,,,,,,,,,,,,,,,,,,116,001,2023_Jul_07_1514,SpeechDraft1Carolyn_lessNoise_PlusLocalization,2021.2.3,59.926464366298035,
bay.wav,bay.mpg,bay,6,AV,Pink_Noise_6_1.wav,Pink_Noise_6_2.wav,,,,,,,,,,,,,,,0,118,118,119,,,,,,,,,,,,,,,,,,,,,,,2160.7636686820188,None,2162.279941926012,None,2163.663557637017,None,bay,2163.663557637017,None,return,1.2909366919775493,2163.7470224259887,None,,,,,,,,,,,,,,,,,,,,,,,,,,,,,,,,,,,,,,,116,001,2023_Jul_07_1514,SpeechDraft1Carolyn_lessNoise_PlusLocalization,2021.2.3,59.926464366298035,
pop.wav,pop.mpg,pop,6,AV,Pink_Noise_6_1.wav,Pink_Noise_6_2.wav,,,,,,,,,,,,,,,0,119,119,115,,,,,,,,,,,,,,,,,,,,,,,2165.0637193479924,None,2166.57999715599,None,2167.963686336996,None,bam,2167.963686336996,None,return,15.862917837977875,2168.046988622984,None,,,,,,,,,,,,,,,,,,,,,,,,,,,,,,,,,,,,,,,116,001,2023_Jul_07_1514,SpeechDraft1Carolyn_lessNoise_PlusLocalization,2021.2.3,59.926464366298035,
,,,,,,,,,,,,,,,,,,,,,,,,,,,,,,,,,,,,,,,,,,,,,,,,,,,,,,,,,,,,,,,,,,space,31.21566636598436,2184.0302662039758,None,,,,,,,,,,,,,,,,,,,,,,,,,,,,,116,001,2023_Jul_07_1514,SpeechDraft1Carolyn_lessNoise_PlusLocalization,2021.2.3,59.926464366298035,
,,,,,,,,farLeft,-19.1,5,ch1Sound_localizationTask.wav,-19.1,"(667, 878)","(-293,-202)",-285,-338,,,,,,,,,0,0,0,0,,,,,,,,,,,,,,,,,,,,,,,,,,,,,,,,,,,,,,,,,,2184.0302662039758,None,2215.281019006972,None,2216.3974990110146,None,2217.3133428900037,None,1.2121693121693122,5.752000162028708,2217.3133428900037,None,,,,,,,,,,,,,,,,,116,001,2023_Jul_07_1514,SpeechDraft1Carolyn_lessNoise_PlusLocalization,2021.2.3,59.926464366298035,
,,,,,,,,farLeft,-19.1,5,ch1Sound_localizationTask.wav,-19.1,"(667, 878)","(-293,-202)",-285,-338,,,,,,,,,0,1,1,0,,,,,,,,,,,,,,,,,,,,,,,,,,,,,,,,,,,,,,,,,,,,2223.0652079720167,None,2224.180293507001,None,2225.0968136700103,None,1.282010582010582,1.7168183480389416,2225.0968136700103,None,,,,,,,,,,,,,,,,,116,001,2023_Jul_07_1514,SpeechDraft1Carolyn_lessNoise_PlusLocalization,2021.2.3,59.926464366298035,
,,,,,,,,midRight,13.0,3,ch1Sound_localizationTask.wav,13.0,"(1142, 878)","(182, -202)",190,-338,,,,,,,,,0,2,2,5,,,,,,,,,,,,,,,,,,,,,,,,,,,,,,,,,,,,,,,,,,,,2226.814664336969,None,2227.9134767829673,None,2228.8468470429652,None,1.8132275132275133,1.7497576900059357,2228.8468470429652,None,,,,,,,,,,,,,,,,,116,001,2023_Jul_07_1514,SpeechDraft1Carolyn_lessNoise_PlusLocalization,2021.2.3,59.926464366298035,
,,,,,,,,nearRight,6.5,0,ch1Sound_localizationTask.wav,6.5,"(1047, 878)","(87, -202)",95,-338,,,,,,,,,0,3,3,4,,,,,,,,,,,,,,,,,,,,,,,,,,,,,,,,,,,,,,,,,,,,2230.59750312299,None,2231.6969498309772,None,2232.630127244978,None,1.492063492063492,3.7494878789875656,2232.630127244978,None,,,,,,,,,,,,,,,,,116,001,2023_Jul_07_1514,SpeechDraft1Carolyn_lessNoise_PlusLocalization,2021.2.3,59.926464366298035,
,,,,,,,,nearLeft,-6.5,1,ch1Sound_localizationTask.wav,-6.5,"(857, 878)","(-103,-202)",-95,-338,,,,,,,,,0,4,4,2,,,,,,,,,,,,,,,,,,,,,,,,,,,,,,,,,,,,,,,,,,,,2236.3805010399665,None,2237.480136225,None,2238.4134705759934,None,1.3888888888888888,2.1491107280016877,2238.4134705759934,None,,,,,,,,,,,,,,,,,116,001,2023_Jul_07_1514,SpeechDraft1Carolyn_lessNoise_PlusLocalization,2021.2.3,59.926464366298035,
,,,,,,,,midRight,13.0,3,ch1Sound_localizationTask.wav,13.0,"(1142, 878)","(182, -202)",190,-338,,,,,,,,,0,5,5,5,,,,,,,,,,,,,,,,,,,,,,,,,,,,,,,,,,,,,,,,,,,,2240.5640535749844,None,2241.6636260870146,None,2242.5968276999774,None,1.6502645502645503,1.0833155490108766,2242.5968276999774,None,,,,,,,,,,,,,,,,,116,001,2023_Jul_07_1514,SpeechDraft1Carolyn_lessNoise_PlusLocalization,2021.2.3,59.926464366298035,
,,,,,,,,midLeft,-13.0,2,ch1Sound_localizationTask.wav,-13.0,"(762, 878)","(-198,-202)",-190,-338,,,,,,,,,0,6,6,1,,,,,,,,,,,,,,,,,,,,,,,,,,,,,,,,,,,,,,,,,,,,2243.6813220470212,None,2244.780186979973,None,2245.713513001974,None,1.4333333333333333,2.1502580330125056,2245.713513001974,None,,,,,,,,,,,,,,,,,116,001,2023_Jul_07_1514,SpeechDraft1Carolyn_lessNoise_PlusLocalization,2021.2.3,59.926464366298035,
,,,,,,,,farRight,19.1,4,ch1Sound_localizationTask.wav,19.1,"(1237, 878)","(277,-202)",285,-338,,,,,,,,,1,0,7,6,,,,,,,,,,,,,,,,,,,,,,,,,,,,,,,,,,,,,,,,,,,,2247.8640300109982,None,2248.9633490439737,None,2249.8968805859913,None,1.944973544973545,3.0165358659578487,2249.8968805859913,None,,,,,,,,,,,,,,,,,116,001,2023_Jul_07_1514,SpeechDraft1Carolyn_lessNoise_PlusLocalization,2021.2.3,59.926464366298035,
,,,,,,,,nearLeft,-6.5,1,ch1Sound_localizationTask.wav,-6.5,"(857, 878)","(-103,-202)",-95,-338,,,,,,,,,1,1,8,2,,,,,,,,,,,,,,,,,,,,,,,,,,,,,,,,,,,,,,,,,,,,2252.9140300020226,None,2254.0135113809956,None,2254.946925349999,None,1.3830687830687831,1.3489313299651258,2254.946925349999,None,,,,,,,,,,,,,,,,,116,001,2023_Jul_07_1514,SpeechDraft1Carolyn_lessNoise_PlusLocalization,2021.2.3,59.926464366298035,
,,,,,,,,farLeft,-19.1,5,ch1Sound_localizationTask.wav,-19.1,"(667, 878)","(-293,-202)",-285,-338,,,,,,,,,1,2,9,0,,,,,,,,,,,,,,,,,,,,,,,,,,,,,,,,,,,,,,,,,,,,2256.2969973959844,None,2257.3967810319737,None,2258.3300789630157,None,1.306878306878307,1.3167619520099834,2258.3300789630157,None,,,,,,,,,,,,,,,,,116,001,2023_Jul_07_1514,SpeechDraft1Carolyn_lessNoise_PlusLocalization,2021.2.3,59.926464366298035,
,,,,,,,,farLeft,-19.1,5,ch1Sound_localizationTask.wav,-19.1,"(667, 878)","(-293,-202)",-285,-338,,,,,,,,,1,3,10,0,,,,,,,,,,,,,,,,,,,,,,,,,,,,,,,,,,,,,,,,,,,,2259.647514029988,None,2260.7470268359757,None,2261.680196401023,None,1.317989417989418,2.3997856749920174,2261.680196401023,None,,,,,,,,,,,,,,,,,116,001,2023_Jul_07_1514,SpeechDraft1Carolyn_lessNoise_PlusLocalization,2021.2.3,59.926464366298035,
,,,,,,,,farRight,19.1,4,ch1Sound_localizationTask.wav,19.1,"(1237, 878)","(277,-202)",285,-338,,,,,,,,,1,4,11,6,,,,,,,,,,,,,,,,,,,,,,,,,,,,,,,,,,,,,,,,,,,,2264.0805579290027,None,2265.1802234129864,None,2266.1136781239766,None,1.748148148148148,4.565894773986656,2266.1136781239766,None,,,,,,,,,,,,,,,,,116,001,2023_Jul_07_1514,SpeechDraft1Carolyn_lessNoise_PlusLocalization,2021.2.3,59.926464366298035,
,,,,,,,,midRight,13.0,3,ch1Sound_localizationTask.wav,13.0,"(1142, 878)","(182, -202)",190,-338,,,,,,,,,1,5,12,5,,,,,,,,,,,,,,,,,,,,,,,,,,,,,,,,,,,,,,,,,,,,2270.681540024001,None,2271.796819115989,None,2272.713658485969,None,1.6063492063492064,0.9839792569982819,2272.713658485969,None,,,,,,,,,,,,,,,,,116,001,2023_Jul_07_1514,SpeechDraft1Carolyn_lessNoise_PlusLocalization,2021.2.3,59.926464366298035,
,,,,,,,,farLeft,-19.1,5,ch1Sound_localizationTask.wav,-19.1,"(667, 878)","(-293,-202)",-285,-338,,,,,,,,,1,6,13,0,,,,,,,,,,,,,,,,,,,,,,,,,,,,,,,,,,,,,,,,,,,,2273.713860681979,None,2274.8134491220117,None,2275.7469974289997,None,1.273015873015873,1.0824875599937513,2275.7469974289997,None,,,,,,,,,,,,,,,,,116,001,2023_Jul_07_1514,SpeechDraft1Carolyn_lessNoise_PlusLocalization,2021.2.3,59.926464366298035,
,,,,,,,,midLeft,-13.0,2,ch1Sound_localizationTask.wav,-13.0,"(762, 878)","(-198,-202)",-190,-338,,,,,,,,,2,0,14,1,,,,,,,,,,,,,,,,,,,,,,,,,,,,,,,,,,,,,,,,,,,,2276.8305812850012,None,2277.9303471349995,None,2278.863693746971,None,1.3423280423280424,0.9487123389844783,2278.863693746971,None,,,,,,,,,,,,,,,,,116,001,2023_Jul_07_1514,SpeechDraft1Carolyn_lessNoise_PlusLocalization,2021.2.3,59.926464366298035,
,,,,,,,,farLeft,-19.1,5,ch1Sound_localizationTask.wav,-19.1,"(667, 878)","(-293,-202)",-285,-338,,,,,,,,,2,1,15,0,,,,,,,,,,,,,,,,,,,,,,,,,,,,,,,,,,,,,,,,,,,,2279.8139534490183,None,2280.9136139199836,None,2281.8469561520033,None,1.3582010582010582,1.0824920309823938,2281.8469561520033,None,,,,,,,,,,,,,,,,,116,001,2023_Jul_07_1514,SpeechDraft1Carolyn_lessNoise_PlusLocalization,2021.2.3,59.926464366298035,
,,,,,,,,center,0.0,6,ch1Sound_localizationTask.wav,0.0,"(952, 878)","(-8,-202)",0,-338,,,,,,,,,2,2,16,3,,,,,,,,,,,,,,,,,,,,,,,,,,,,,,,,,,,,,,,,,,,,2282.930671170994,None,2284.03015182697,None,2284.9635160129983,None,1.4068783068783068,1.232771450013388,2284.9635160129983,None,,,,,,,,,,,,,,,,,116,001,2023_Jul_07_1514,SpeechDraft1Carolyn_lessNoise_PlusLocalization,2021.2.3,59.926464366298035,
,,,,,,,,farRight,19.1,4,ch1Sound_localizationTask.wav,19.1,"(1237, 878)","(277,-202)",285,-338,,,,,,,,,2,3,17,6,,,,,,,,,,,,,,,,,,,,,,,,,,,,,,,,,,,,,,,,,,,,2286.1974914150196,None,2287.2969286150183,None,2288.2303796170163,None,1.7624338624338625,1.433390647987835,2288.2303796170163,None,,,,,,,,,,,,,,,,,116,001,2023_Jul_07_1514,SpeechDraft1Carolyn_lessNoise_PlusLocalization,2021.2.3,59.926464366298035,
,,,,,,,,midRight,13.0,3,ch1Sound_localizationTask.wav,13.0,"(1142, 878)","(182, -202)",190,-338,,,,,,,,,2,4,18,5,,,,,,,,,,,,,,,,,,,,,,,,,,,,,,,,,,,,,,,,,,,,2289.6640255670063,None,2290.7636905090185,None,2291.6970771069755,None,1.535978835978836,1.1836614980129525,2291.6970771069755,None,,,,,,,,,,,,,,,,,116,001,2023_Jul_07_1514,SpeechDraft1Carolyn_lessNoise_PlusLocalization,2021.2.3,59.926464366298035,
,,,,,,,,midRight,13.0,3,ch1Sound_localizationTask.wav,13.0,"(1142, 878)","(182, -202)",190,-338,,,,,,,,,2,5,19,5,,,,,,,,,,,,,,,,,,,,,,,,,,,,,,,,,,,,,,,,,,,,2292.8972130799666,None,2293.997025527002,None,2294.930157020979,None,1.5132275132275133,1.716926733031869,2294.930157020979,None,,,,,,,,,,,,,,,,,116,001,2023_Jul_07_1514,SpeechDraft1Carolyn_lessNoise_PlusLocalization,2021.2.3,59.926464366298035,
,,,,,,,,midLeft,-13.0,2,ch1Sound_localizationTask.wav,-13.0,"(762, 878)","(-198,-202)",-190,-338,,,,,,,,,2,6,20,1,,,,,,,,,,,,,,,,,,,,,,,,,,,,,,,,,,,,,,,,,,,,2296.647621302982,None,2297.7469134419807,None,2298.6802672040067,None,1.4126984126984126,1.333113695960492,2298.6802672040067,None,,,,,,,,,,,,,,,,,116,001,2023_Jul_07_1514,SpeechDraft1Carolyn_lessNoise_PlusLocalization,2021.2.3,59.926464366298035,
,,,,,,,,farRight,19.1,4,ch1Sound_localizationTask.wav,19.1,"(1237, 878)","(277,-202)",285,-338,,,,,,,,,3,0,21,6,,,,,,,,,,,,,,,,,,,,,,,,,,,,,,,,,,,,,,,,,,,,2300.0146491670166,None,2301.1136122110183,None,2302.0469371959916,None,1.7809523809523808,1.4160107289790176,2302.0469371959916,None,,,,,,,,,,,,,,,,,116,001,2023_Jul_07_1514,SpeechDraft1Carolyn_lessNoise_PlusLocalization,2021.2.3,59.926464366298035,
,,,,,,,,nearLeft,-6.5,1,ch1Sound_localizationTask.wav,-6.5,"(857, 878)","(-103,-202)",-95,-338,,,,,,,,,3,1,22,2,,,,,,,,,,,,,,,,,,,,,,,,,,,,,,,,,,,,,,,,,,,,2303.464041950996,None,2304.563559871982,None,2305.4970178399817,None,1.3830687830687831,1.2821697809849866,2305.4970178399817,None,,,,,,,,,,,,,,,,,116,001,2023_Jul_07_1514,SpeechDraft1Carolyn_lessNoise_PlusLocalization,2021.2.3,59.926464366298035,
,,,,,,,,farRight,19.1,4,ch1Sound_localizationTask.wav,19.1,"(1237, 878)","(277,-202)",285,-338,,,,,,,,,3,2,23,6,,,,,,,,,,,,,,,,,,,,,,,,,,,,,,,,,,,,,,,,,,,,2306.7807667820016,None,2307.880248251022,None,2308.8135762849706,None,1.75978835978836,1.0828790390514769,2308.8135762849706,None,,,,,,,,,,,,,,,,,116,001,2023_Jul_07_1514,SpeechDraft1Carolyn_lessNoise_PlusLocalization,2021.2.3,59.926464366298035,
,,,,,,,,center,0.0,6,ch1Sound_localizationTask.wav,0.0,"(952, 878)","(-8,-202)",0,-338,,,,,,,,,3,3,24,3,,,,,,,,,,,,,,,,,,,,,,,,,,,,,,,,,,,,,,,,,,,,2309.8973793010227,None,2310.9968997400138,None,2311.9303389249835,None,1.434920634920635,1.0165573520353064,2311.9303389249835,None,,,,,,,,,,,,,,,,,116,001,2023_Jul_07_1514,SpeechDraft1Carolyn_lessNoise_PlusLocalization,2021.2.3,59.926464366298035,
,,,,,,,,nearLeft,-6.5,1,ch1Sound_localizationTask.wav,-6.5,"(857, 878)","(-103,-202)",-95,-338,,,,,,,,,3,4,25,2,,,,,,,,,,,,,,,,,,,,,,,,,,,,,,,,,,,,,,,,,,,,2312.9480171260075,None,2314.046880778973,None,2314.980233200011,None,1.3804232804232806,1.1657735529588535,2314.980233200011,None,,,,,,,,,,,,,,,,,116,001,2023_Jul_07_1514,SpeechDraft1Carolyn_lessNoise_PlusLocalization,2021.2.3,59.926464366298035,
,,,,,,,,farRight,19.1,4,ch1Sound_localizationTask.wav,19.1,"(1237, 878)","(277,-202)",285,-338,,,,,,,,,3,5,26,6,,,,,,,,,,,,,,,,,,,,,,,,,,,,,,,,,,,,,,,,,,,,2316.1474720090046,None,2317.246814423008,None,2318.180235639971,None,1.7253968253968255,1.3833278380334377,2318.180235639971,None,,,,,,,,,,,,,,,,,116,001,2023_Jul_07_1514,SpeechDraft1Carolyn_lessNoise_PlusLocalization,2021.2.3,59.926464366298035,
,,,,,,,,midLeft,-13.0,2,ch1Sound_localizationTask.wav,-13.0,"(762, 878)","(-198,-202)",-190,-338,,,,,,,,,3,6,27,1,,,,,,,,,,,,,,,,,,,,,,,,,,,,,,,,,,,,,,,,,,,,2319.564599336998,None,2320.663581639994,None,2321.596850196016,None,1.3227513227513228,1.0667548759956844,2321.596850196016,None,,,,,,,,,,,,,,,,,116,001,2023_Jul_07_1514,SpeechDraft1Carolyn_lessNoise_PlusLocalization,2021.2.3,59.926464366298035,
,,,,,,,,farLeft,-19.1,5,ch1Sound_localizationTask.wav,-19.1,"(667, 878)","(-293,-202)",-285,-338,,,,,,,,,4,0,28,0,,,,,,,,,,,,,,,,,,,,,,,,,,,,,,,,,,,,,,,,,,,,2322.6646015549777,None,2323.7637426810106,None,2324.696957121021,None,1.343915343915344,0.9328843199764378,2324.696957121021,None,,,,,,,,,,,,,,,,,116,001,2023_Jul_07_1514,SpeechDraft1Carolyn_lessNoise_PlusLocalization,2021.2.3,59.926464366298035,
,,,,,,,,center,0.0,6,ch1Sound_localizationTask.wav,0.0,"(952, 878)","(-8,-202)",0,-338,,,,,,,,,4,1,29,3,,,,,,,,,,,,,,,,,,,,,,,,,,,,,,,,,,,,,,,,,,,,2325.6318468539976,None,2326.74692121899,None,2327.6637091530138,None,1.4322751322751324,1.0150117700104602,2327.6637091530138,None,,,,,,,,,,,,,,,,,116,001,2023_Jul_07_1514,SpeechDraft1Carolyn_lessNoise_PlusLocalization,2021.2.3,59.926464366298035,
,,,,,,,,nearRight,6.5,0,ch1Sound_localizationTask.wav,6.5,"(1047, 878)","(87, -202)",95,-338,,,,,,,,,4,2,30,4,,,,,,,,,,,,,,,,,,,,,,,,,,,,,,,,,,,,,,,,,,,,2328.681024918973,None,2329.780291838979,None,2330.7134967159946,None,1.492063492063492,1.2161175069632009,2330.7134967159946,None,,,,,,,,,,,,,,,,,116,001,2023_Jul_07_1514,SpeechDraft1Carolyn_lessNoise_PlusLocalization,2021.2.3,59.926464366298035,
,,,,,,,,midLeft,-13.0,2,ch1Sound_localizationTask.wav,-13.0,"(762, 878)","(-198,-202)",-190,-338,,,,,,,,,4,3,31,1,,,,,,,,,,,,,,,,,,,,,,,,,,,,,,,,,,,,,,,,,,,,2331.930562401016,None,2333.030230974022,None,2333.9635709599825,None,1.4164021164021166,0.8487897110171616,2333.9635709599825,None,,,,,,,,,,,,,,,,,116,001,2023_Jul_07_1514,SpeechDraft1Carolyn_lessNoise_PlusLocalization,2021.2.3,59.926464366298035,
,,,,,,,,farRight,19.1,4,ch1Sound_localizationTask.wav,19.1,"(1237, 878)","(277,-202)",285,-338,,,,,,,,,4,4,32,6,,,,,,,,,,,,,,,,,,,,,,,,,,,,,,,,,,,,,,,,,,,,2334.8140447699698,None,2335.913702623977,None,2336.8469346719794,None,1.8402116402116402,1.1164552919799462,2336.8469346719794,None,,,,,,,,,,,,,,,,,116,001,2023_Jul_07_1514,SpeechDraft1Carolyn_lessNoise_PlusLocalization,2021.2.3,59.926464366298035,
,,,,,,,,nearRight,6.5,0,ch1Sound_localizationTask.wav,6.5,"(1047, 878)","(87, -202)",95,-338,,,,,,,,,4,5,33,4,,,,,,,,,,,,,,,,,,,,,,,,,,,,,,,,,,,,,,,,,,,,2337.9640548540046,None,2339.0636303169886,None,2339.9970829609665,None,1.6095238095238096,1.2502617870341055,2339.9970829609665,None,,,,,,,,,,,,,,,,,116,001,2023_Jul_07_1514,SpeechDraft1Carolyn_lessNoise_PlusLocalization,2021.2.3,59.926464366298035,
,,,,,,,,midRight,13.0,3,ch1Sound_localizationTask.wav,13.0,"(1142, 878)","(182, -202)",190,-338,,,,,,,,,4,6,34,5,,,,,,,,,,,,,,,,,,,,,,,,,,,,,,,,,,,,,,,,,,,,2341.2641319530085,None,2342.3637399469735,None,2343.296978747996,None,1.5126984126984127,0.8666620589792728,2343.296978747996,None,,,,,,,,,,,,,,,,,116,001,2023_Jul_07_1514,SpeechDraft1Carolyn_lessNoise_PlusLocalization,2021.2.3,59.926464366298035,
,,,,,,,,nearRight,6.5,0,ch1Sound_localizationTask.wav,6.5,"(1047, 878)","(87, -202)",95,-338,,,,,,,,,5,0,35,4,,,,,,,,,,,,,,,,,,,,,,,,,,,,,,,,,,,,,,,,,,,,2344.180587512965,None,2345.2805559490225,None,2346.213681299996,None,1.6216931216931219,1.4507719310349785,2346.213681299996,None,,,,,,,,,,,,,,,,,116,001,2023_Jul_07_1514,SpeechDraft1Carolyn_lessNoise_PlusLocalization,2021.2.3,59.926464366298035,
,,,,,,,,midRight,13.0,3,ch1Sound_localizationTask.wav,13.0,"(1142, 878)","(182, -202)",190,-338,,,,,,,,,5,1,36,5,,,,,,,,,,,,,,,,,,,,,,,,,,,,,,,,,,,,,,,,,,,,2347.680559969973,None,2348.7803618289763,None,2349.7136781149893,None,1.5164021164021164,1.0500390109955333,2349.7136781149893,None,,,,,,,,,,,,,,,,,116,001,2023_Jul_07_1514,SpeechDraft1Carolyn_lessNoise_PlusLocalization,2021.2.3,59.926464366298035,
,,,,,,,,nearRight,6.5,0,ch1Sound_localizationTask.wav,6.5,"(1047, 878)","(87, -202)",95,-338,,,,,,,,,5,2,37,4,,,,,,,,,,,,,,,,,,,,,,,,,,,,,,,,,,,,,,,,,,,,2350.764113194018,None,2351.863679251983,None,2352.7970365060028,None,1.483068783068783,0.7502812379971147,2352.7970365060028,None,,,,,,,,,,,,,,,,,116,001,2023_Jul_07_1514,SpeechDraft1Carolyn_lessNoise_PlusLocalization,2021.2.3,59.926464366298035,
,,,,,,,,nearLeft,-6.5,1,ch1Sound_localizationTask.wav,-6.5,"(857, 878)","(-103,-202)",-95,-338,,,,,,,,,5,3,38,2,,,,,,,,,,,,,,,,,,,,,,,,,,,,,,,,,,,,,,,,,,,,2353.5476706930203,None,2354.6470469869673,None,2355.580354203994,None,1.3941798941798942,0.8328317729756236,2355.580354203994,None,,,,,,,,,,,,,,,,,116,001,2023_Jul_07_1514,SpeechDraft1Carolyn_lessNoise_PlusLocalization,2021.2.3,59.926464366298035,
,,,,,,,,nearRight,6.5,0,ch1Sound_localizationTask.wav,6.5,"(1047, 878)","(87, -202)",95,-338,,,,,,,,,5,4,39,4,,,,,,,,,,,,,,,,,,,,,,,,,,,,,,,,,,,,,,,,,,,,2356.414076284971,None,2357.5135983310174,None,2358.446934795007,None,1.4798941798941798,0.8830907359952107,2358.446934795007,None,,,,,,,,,,,,,,,,,116,001,2023_Jul_07_1514,SpeechDraft1Carolyn_lessNoise_PlusLocalization,2021.2.3,59.926464366298035,
,,,,,,,,farRight,19.1,4,ch1Sound_localizationTask.wav,19.1,"(1237, 878)","(277,-202)",285,-338,,,,,,,,,5,5,40,6,,,,,,,,,,,,,,,,,,,,,,,,,,,,,,,,,,,,,,,,,,,,2359.331267617992,None,2360.430267994001,None,2361.3636120579904,None,1.6433862433862434,0.7485345540335402,2361.3636120579904,None,,,,,,,,,,,,,,,,,116,001,2023_Jul_07_1514,SpeechDraft1Carolyn_lessNoise_PlusLocalization,2021.2.3,59.926464366298035,
,,,,,,,,nearLeft,-6.5,1,ch1Sound_localizationTask.wav,-6.5,"(857, 878)","(-103,-202)",-95,-338,,,,,,,,,5,6,41,2,,,,,,,,,,,,,,,,,,,,,,,,,,,,,,,,,,,,,,,,,,,,2362.114046162984,None,2363.213718423969,None,2364.1469519429957,None,1.3735449735449734,0.9170838229474612,2364.1469519429957,None,,,,,,,,,,,,,,,,,116,001,2023_Jul_07_1514,SpeechDraft1Carolyn_lessNoise_PlusLocalization,2021.2.3,59.926464366298035,
,,,,,,,,farLeft,-19.1,5,ch1Sound_localizationTask.wav,-19.1,"(667, 878)","(-293,-202)",-285,-338,,,,,,,,,6,0,42,0,,,,,,,,,,,,,,,,,,,,,,,,,,,,,,,,,,,,,,,,,,,,2365.0643035679823,None,2366.163644300017,None,2367.097039941,None,1.374074074074074,1.265448391030077,2367.097039941,None,,,,,,,,,,,,,,,,,116,001,2023_Jul_07_1514,SpeechDraft1Carolyn_lessNoise_PlusLocalization,2021.2.3,59.926464366298035,
,,,,,,,,nearLeft,-6.5,1,ch1Sound_localizationTask.wav,-6.5,"(857, 878)","(-103,-202)",-95,-338,,,,,,,,,6,1,43,2,,,,,,,,,,,,,,,,,,,,,,,,,,,,,,,,,,,,,,,,,,,,2368.3641261539888,None,2369.463729944022,None,2370.3970273130108,None,1.42010582010582,0.8166139440145344,2370.3970273130108,None,,,,,,,,,,,,,,,,,116,001,2023_Jul_07_1514,SpeechDraft1Carolyn_lessNoise_PlusLocalization,2021.2.3,59.926464366298035,
,,,,,,,,nearLeft,-6.5,1,ch1Sound_localizationTask.wav,-6.5,"(857, 878)","(-103,-202)",-95,-338,,,,,,,,,6,2,44,2,,,,,,,,,,,,,,,,,,,,,,,,,,,,,,,,,,,,,,,,,,,,2371.214179300994,None,2372.313793185982,None,2373.2470526819816,None,1.3957671957671958,0.7495388870011084,2373.2470526819816,None,,,,,,,,,,,,,,,,,116,001,2023_Jul_07_1514,SpeechDraft1Carolyn_lessNoise_PlusLocalization,2021.2.3,59.926464366298035,
,,,,,,,,center,0.0,6,ch1Sound_localizationTask.wav,0.0,"(952, 878)","(-8,-202)",0,-338,,,,,,,,,6,3,45,3,,,,,,,,,,,,,,,,,,,,,,,,,,,,,,,,,,,,,,,,,,,,2373.9973293049843,None,2375.0971476300037,None,2376.030297128018,None,1.4486772486772486,0.8995849579805508,2376.030297128018,None,,,,,,,,,,,,,,,,,116,001,2023_Jul_07_1514,SpeechDraft1Carolyn_lessNoise_PlusLocalization,2021.2.3,59.926464366298035,
,,,,,,,,nearRight,6.5,0,ch1Sound_localizationTask.wav,6.5,"(1047, 878)","(87, -202)",95,-338,,,,,,,,,6,4,46,4,,,,,,,,,,,,,,,,,,,,,,,,,,,,,,,,,,,,,,,,,,,,2376.931333506014,None,2378.0303476249683,None,2378.963797049015,None,1.5037037037037035,0.8326623499742709,2378.963797049015,None,,,,,,,,,,,,,,,,,116,001,2023_Jul_07_1514,SpeechDraft1Carolyn_lessNoise_PlusLocalization,2021.2.3,59.926464366298035,
,,,,,,,,center,0.0,6,ch1Sound_localizationTask.wav,0.0,"(952, 878)","(-8,-202)",0,-338,,,,,,,,,6,5,47,3,,,,,,,,,,,,,,,,,,,,,,,,,,,,,,,,,,,,,,,,,,,,2379.797418579983,None,2380.897099841968,None,2381.8303618250065,None,1.455026455026455,0.8504217579611577,2381.8303618250065,None,,,,,,,,,,,,,,,,,116,001,2023_Jul_07_1514,SpeechDraft1Carolyn_lessNoise_PlusLocalization,2021.2.3,59.926464366298035,
,,,,,,,,midLeft,-13.0,2,ch1Sound_localizationTask.wav,-13.0,"(762, 878)","(-198,-202)",-190,-338,,,,,,,,,6,6,48,1,,,,,,,,,,,,,,,,,,,,,,,,,,,,,,,,,,,,,,,,,,,,2382.6810998669825,None,2383.780553165998,None,2384.713629334001,None,1.42010582010582,0.9499389890115708,2384.713629334001,None,,,,,,,,,,,,,,,,,116,001,2023_Jul_07_1514,SpeechDraft1Carolyn_lessNoise_PlusLocalization,2021.2.3,59.926464366298035,
,,,,,,,,center,0.0,6,ch1Sound_localizationTask.wav,0.0,"(952, 878)","(-8,-202)",0,-338,,,,,,,,,7,0,49,3,,,,,,,,,,,,,,,,,,,,,,,,,,,,,,,,,,,,,,,,,,,,2385.664946163015,None,2386.763808232965,None,2387.696986209019,None,1.4587301587301587,0.8159765570308082,2387.696986209019,None,,,,,,,,,,,,,,,,,116,001,2023_Jul_07_1514,SpeechDraft1Carolyn_lessNoise_PlusLocalization,2021.2.3,59.926464366298035,
,,,,,,,,nearRight,6.5,0,ch1Sound_localizationTask.wav,6.5,"(1047, 878)","(87, -202)",95,-338,,,,,,,,,7,1,50,4,,,,,,,,,,,,,,,,,,,,,,,,,,,,,,,,,,,,,,,,,,,,2388.5140573409735,None,2389.6136872660136,None,2390.547079084965,None,1.6301587301587301,1.215307564008981,2390.547079084965,None,,,,,,,,,,,,,,,,,116,001,2023_Jul_07_1514,SpeechDraft1Carolyn_lessNoise_PlusLocalization,2021.2.3,59.926464366298035,
,,,,,,,,center,0.0,6,ch1Sound_localizationTask.wav,0.0,"(952, 878)","(-8,-202)",0,-338,,,,,,,,,7,2,51,3,,,,,,,,,,,,,,,,,,,,,,,,,,,,,,,,,,,,,,,,,,,,2391.763965061982,None,2392.863667304977,None,2393.7969899009913,None,1.4317460317460318,0.8497159639955498,2393.7969899009913,None,,,,,,,,,,,,,,,,,116,001,2023_Jul_07_1514,SpeechDraft1Carolyn_lessNoise_PlusLocalization,2021.2.3,59.926464366298035,
,,,,,,,,midLeft,-13.0,2,ch1Sound_localizationTask.wav,-13.0,"(762, 878)","(-198,-202)",-190,-338,,,,,,,,,7,3,52,1,,,,,,,,,,,,,,,,,,,,,,,,,,,,,,,,,,,,,,,,,,,,2394.6476418239763,None,2395.7471601120196,None,2396.6805678940145,None,1.308994708994709,1.0323352140258066,2396.6805678940145,None,,,,,,,,,,,,,,,,,116,001,2023_Jul_07_1514,SpeechDraft1Carolyn_lessNoise_PlusLocalization,2021.2.3,59.926464366298035,
,,,,,,,,midRight,13.0,3,ch1Sound_localizationTask.wav,13.0,"(1142, 878)","(182, -202)",190,-338,,,,,,,,,7,4,53,5,,,,,,,,,,,,,,,,,,,,,,,,,,,,,,,,,,,,,,,,,,,,2397.715143042966,None,2398.830498926982,None,2399.747001851967,None,1.621164021164021,1.4664949579746462,2399.747001851967,None,,,,,,,,,,,,,,,,,116,001,2023_Jul_07_1514,SpeechDraft1Carolyn_lessNoise_PlusLocalization,2021.2.3,59.926464366298035,
,,,,,,,,center,0.0,6,ch1Sound_localizationTask.wav,0.0,"(952, 878)","(-8,-202)",0,-338,,,,,,,,,7,5,54,3,,,,,,,,,,,,,,,,,,,,,,,,,,,,,,,,,,,,,,,,,,,,2401.214738047973,None,2402.313728554989,None,2403.247044524993,None,1.5121693121693123,0.8831538159865886,2403.247044524993,None,,,,,,,,,,,,,,,,,116,001,2023_Jul_07_1514,SpeechDraft1Carolyn_lessNoise_PlusLocalization,2021.2.3,59.926464366298035,
,,,,,,,,midLeft,-13.0,2,ch1Sound_localizationTask.wav,-13.0,"(762, 878)","(-198,-202)",-190,-338,,,,,,,,,7,6,55,1,,,,,,,,,,,,,,,,,,,,,,,,,,,,,,,,,,,,,,,,,,,,2404.1309127829736,None,2405.2303672760027,None,2406.1637273560045,None,1.4211640211640213,1.0998274199664593,2406.1637273560045,None,,,,,,,,,,,,,,,,,116,001,2023_Jul_07_1514,SpeechDraft1Carolyn_lessNoise_PlusLocalization,2021.2.3,59.926464366298035,
,,,,,,,,,,,,,,,,,,,,,,,,,,,,,,,,,,,,,,,,,,,,,,,,,,,,,,,,,,,,,,,,,,,,,,,,,,,,,,,,,,space,21.938641710032243,2407.34729770798,None,,,,,,,,,,,,,116,001,2023_Jul_07_1514,SpeechDraft1Carolyn_lessNoise_PlusLocalization,2021.2.3,59.926464366298035,
,,,,,,,,midLeft,-13.0,2,ch1Sound_localizationTask.wav,-13.0,"(762, 878)","(-198,-202)",-190,-338,,,,,,,,,,,,,0,0,0,1,,,,,,,,,,,,,,,,,,,,,,,,,,,,,,,,,,,,,,,,2429.3304147669696,None,,,2432.3637538069743,None,1.4232804232804233,2.9704487490234897,2432.3637538069743,None,,,,,2407.34729770798,None,2430.3307439039927,None,2430.5141182569787,2430.5306615139707,,,,,,,116,001,2023_Jul_07_1514,SpeechDraft1Carolyn_lessNoise_PlusLocalization,2021.2.3,59.926464366298035,
,,,,,,,,nearLeft,-6.5,1,ch1Sound_localizationTask.wav,-6.5,"(857, 878)","(-103,-202)",-95,-338,,,,,,,,,,,,,0,1,1,2,,,,,,,,,,,,,,,,,,,,,,,,,,,,,,,,,,,,,,,,2435.3311633719713,None,,,2438.3470804800163,None,1.461904761904762,1.1498702029930428,2438.3470804800163,None,,,,,,,2436.330720332975,None,2436.5141435900005,2436.530669533997,,,,,,,116,001,2023_Jul_07_1514,SpeechDraft1Carolyn_lessNoise_PlusLocalization,2021.2.3,59.926464366298035,
,,,,,,,,farRight,19.1,4,ch1Sound_localizationTask.wav,19.1,"(1237, 878)","(277,-202)",285,-338,,,,,,,,,,,,,0,2,2,6,,,,,,,,,,,,,,,,,,,,,,,,,,,,,,,,,,,,,,,,2439.4975533339893,None,,,2442.5139057160122,None,1.6587301587301586,0.7999739459482953,2442.5139057160122,None,,,,,,,2440.4974478399963,None,2440.680733615998,2440.697387936001,,,,,,,116,001,2023_Jul_07_1514,SpeechDraft1Carolyn_lessNoise_PlusLocalization,2021.2.3,59.926464366298035,
,,,,,,,,midRight,13.0,3,ch1Sound_localizationTask.wav,13.0,"(1142, 878)","(182, -202)",190,-338,,,,,,,,,,,,,0,3,3,5,,,,,,,,,,,,,,,,,,,,,,,,,,,,,,,,,,,,,,,,2443.3144331959775,None,,,2446.3304426039685,None,1.583068783068783,1.1656781879719347,2446.3304426039685,None,,,,,,,2444.3139794879826,None,2444.4974965499714,2444.5140088669723,,,,,,,116,001,2023_Jul_07_1514,SpeechDraft1Carolyn_lessNoise_PlusLocalization,2021.2.3,59.926464366298035,
,,,,,,,,farRight,19.1,4,ch1Sound_localizationTask.wav,19.1,"(1237, 878)","(277,-202)",285,-338,,,,,,,,,,,,,0,4,4,6,,,,,,,,,,,,,,,,,,,,,,,,,,,,,,,,,,,,,,,,2447.4972418330144,None,,,2450.5138594449963,None,1.6619047619047618,0.9157963610487059,2450.5138594449963,None,,,,,,,2448.497480791004,None,2448.680708889966,2448.697590320022,,,,,,,116,001,2023_Jul_07_1514,SpeechDraft1Carolyn_lessNoise_PlusLocalization,2021.2.3,59.926464366298035,
,,,,,,,,farRight,19.1,4,ch1Sound_localizationTask.wav,19.1,"(1237, 878)","(277,-202)",285,-338,,,,,,,,,,,,,0,5,5,6,,,,,,,,,,,,,,,,,,,,,,,,,,,,,,,,,,,,,,,,2451.4308452049736,None,,,2454.4471766279894,None,1.632804232804233,0.816098132985644,2454.4471766279894,None,,,,,,,2452.4306692690006,None,2452.6140847500064,2452.6306804990163,,,,,,,116,001,2023_Jul_07_1514,SpeechDraft1Carolyn_lessNoise_PlusLocalization,2021.2.3,59.926464366298035,
,,,,,,,,center,0.0,6,ch1Sound_localizationTask.wav,0.0,"(952, 878)","(-8,-202)",0,-338,,,,,,,,,,,,,0,6,6,3,,,,,,,,,,,,,,,,,,,,,,,,,,,,,,,,,,,,,,,,2455.264043215022,None,,,2458.280578278005,None,1.5010582010582012,0.9829532090225257,2458.280578278005,None,,,,,,,2456.2640457479865,None,2456.447396803007,2456.464137242001,,,,,,,116,001,2023_Jul_07_1514,SpeechDraft1Carolyn_lessNoise_PlusLocalization,2021.2.3,59.926464366298035,
,,,,,,,,nearLeft,-6.5,1,ch1Sound_localizationTask.wav,-6.5,"(857, 878)","(-103,-202)",-95,-338,,,,,,,,,,,,,1,0,7,2,,,,,,,,,,,,,,,,,,,,,,,,,,,,,,,,,,,,,,,,2459.2643933420186,None,,,2462.2806130539975,None,1.4518518518518517,0.7150016340310685,2462.2806130539975,None,,,,,,,2460.2639871190186,None,2460.4473844270105,2460.464100865007,,,,,,,116,001,2023_Jul_07_1514,SpeechDraft1Carolyn_lessNoise_PlusLocalization,2021.2.3,59.926464366298035,
,,,,,,,,nearRight,6.5,0,ch1Sound_localizationTask.wav,6.5,"(1047, 878)","(87, -202)",95,-338,,,,,,,,,,,,,1,1,8,4,,,,,,,,,,,,,,,,,,,,,,,,,,,,,,,,,,,,,,,,2462.9974344890215,None,,,2466.01393673697,None,1.5714285714285714,0.8829565009800717,2466.01393673697,None,,,,,,,2463.9973444399657,None,2464.1807200359763,2464.197365727974,,,,,,,116,001,2023_Jul_07_1514,SpeechDraft1Carolyn_lessNoise_PlusLocalization,2021.2.3,59.926464366298035,
,,,,,,,,midLeft,-13.0,2,ch1Sound_localizationTask.wav,-13.0,"(762, 878)","(-198,-202)",-190,-338,,,,,,,,,,,,,1,2,9,1,,,,,,,,,,,,,,,,,,,,,,,,,,,,,,,,,,,,,,,,2466.898067866976,None,,,2469.9139456449775,None,1.3931216931216932,0.9492625599959865,2469.9139456449775,None,,,,,,,2467.897465000977,None,2468.0807090380113,2468.0975049929693,,,,,,,116,001,2023_Jul_07_1514,SpeechDraft1Carolyn_lessNoise_PlusLocalization,2021.2.3,59.926464366298035,
,,,,,,,,midLeft,-13.0,2,ch1Sound_localizationTask.wav,-13.0,"(762, 878)","(-198,-202)",-190,-338,,,,,,,,,,,,,1,3,10,1,,,,,,,,,,,,,,,,,,,,,,,,,,,,,,,,,,,,,,,,2470.8661145520164,None,,,2473.8971741250134,None,1.3830687830687831,1.015173806983512,2473.8971741250134,None,,,,,,,2471.880846820015,None,2472.064032841008,2472.0807606150047,,,,,,,116,001,2023_Jul_07_1514,SpeechDraft1Carolyn_lessNoise_PlusLocalization,2021.2.3,59.926464366298035,
,,,,,,,,farRight,19.1,4,ch1Sound_localizationTask.wav,19.1,"(1237, 878)","(277,-202)",285,-338,,,,,,,,,,,,,1,4,11,6,,,,,,,,,,,,,,,,,,,,,,,,,,,,,,,,,,,,,,,,2474.9141873049666,None,,,2477.930476962996,None,1.7,0.8165610090363771,2477.930476962996,None,,,,,,,2475.914208475966,None,2476.097415958997,2476.114123634994,,,,,,,116,001,2023_Jul_07_1514,SpeechDraft1Carolyn_lessNoise_PlusLocalization,2021.2.3,59.926464366298035,
,,,,,,,,nearRight,6.5,0,ch1Sound_localizationTask.wav,6.5,"(1047, 878)","(87, -202)",95,-338,,,,,,,,,,,,,1,5,12,4,,,,,,,,,,,,,,,,,,,,,,,,,,,,,,,,,,,,,,,,2478.7475481859874,None,,,2481.7638002000167,None,1.5534391534391534,0.949180209019687,2481.7638002000167,None,,,,,,,2479.7474087169976,None,2479.9307145060156,2479.9476166570093,,,,,,,116,001,2023_Jul_07_1514,SpeechDraft1Carolyn_lessNoise_PlusLocalization,2021.2.3,59.926464366298035,
,,,,,,,,nearRight,6.5,0,ch1Sound_localizationTask.wav,6.5,"(1047, 878)","(87, -202)",95,-338,,,,,,,,,,,,,1,6,13,4,,,,,,,,,,,,,,,,,,,,,,,,,,,,,,,,,,,,,,,,2482.7141930719954,None,,,2485.730511452013,None,1.547089947089947,0.8663140669814311,2485.730511452013,None,,,,,,,2483.714080216014,None,2483.8975145859877,2483.9140133489855,,,,,,,116,001,2023_Jul_07_1514,SpeechDraft1Carolyn_lessNoise_PlusLocalization,2021.2.3,59.926464366298035,
,,,,,,,,farLeft,-19.1,5,ch1Sound_localizationTask.wav,-19.1,"(667, 878)","(-293,-202)",-285,-338,,,,,,,,,,,,,2,0,14,0,,,,,,,,,,,,,,,,,,,,,,,,,,,,,,,,,,,,,,,,2486.597569386009,None,,,2489.613789416966,None,1.3592592592592592,0.8327726720017381,2489.613789416966,None,,,,,,,2487.597440187994,None,2487.7808742880006,2487.7974797890056,,,,,,,116,001,2023_Jul_07_1514,SpeechDraft1Carolyn_lessNoise_PlusLocalization,2021.2.3,59.926464366298035,
,,,,,,,,center,0.0,6,ch1Sound_localizationTask.wav,0.0,"(952, 878)","(-8,-202)",0,-338,,,,,,,,,,,,,2,1,15,3,,,,,,,,,,,,,,,,,,,,,,,,,,,,,,,,,,,,,,,,2490.4476840359857,None,,,2493.4639217079966,None,1.5063492063492063,0.7993072099634446,2493.4639217079966,None,,,,,,,2491.447348518006,None,2491.6307227520156,2491.647333711968,,,,,,,116,001,2023_Jul_07_1514,SpeechDraft1Carolyn_lessNoise_PlusLocalization,2021.2.3,59.926464366298035,
,,,,,,,,midLeft,-13.0,2,ch1Sound_localizationTask.wav,-13.0,"(762, 878)","(-198,-202)",-190,-338,,,,,,,,,,,,,2,2,16,1,,,,,,,,,,,,,,,,,,,,,,,,,,,,,,,,,,,,,,,,2494.2642854099977,None,,,2497.2804917349713,None,1.3994708994708995,0.8819167820038274,2497.2804917349713,None,,,,,,,2495.264065016003,None,2495.447363558982,2495.4642191070016,,,,,,,116,001,2023_Jul_07_1514,SpeechDraft1Carolyn_lessNoise_PlusLocalization,2021.2.3,59.926464366298035,
,,,,,,,,midLeft,-13.0,2,ch1Sound_localizationTask.wav,-13.0,"(762, 878)","(-198,-202)",-190,-338,,,,,,,,,,,,,2,3,17,1,,,,,,,,,,,,,,,,,,,,,,,,,,,,,,,,,,,,,,,,2498.1645079739974,None,,,2501.180533303006,None,1.4190476190476191,0.6157588960486464,2501.180533303006,None,,,,,,,2499.1641110769706,None,2499.3475013870047,2499.3640742300195,,,,,,,116,001,2023_Jul_07_1514,SpeechDraft1Carolyn_lessNoise_PlusLocalization,2021.2.3,59.926464366298035,
,,,,,,,,nearRight,6.5,0,ch1Sound_localizationTask.wav,6.5,"(1047, 878)","(87, -202)",95,-338,,,,,,,,,,,,,2,4,18,4,,,,,,,,,,,,,,,,,,,,,,,,,,,,,,,,,,,,,,,,2501.7975778969703,None,,,2504.8139268240193,None,1.5349206349206348,1.0827747680014,2504.8139268240193,None,,,,,,,2502.797302027,None,2502.980773315998,2502.997507468972,,,,,,,116,001,2023_Jul_07_1514,SpeechDraft1Carolyn_lessNoise_PlusLocalization,2021.2.3,59.926464366298035,
,,,,,,,,midRight,13.0,3,ch1Sound_localizationTask.wav,13.0,"(1142, 878)","(182, -202)",190,-338,,,,,,,,,,,,,2,5,19,5,,,,,,,,,,,,,,,,,,,,,,,,,,,,,,,,,,,,,,,,2505.897756168968,None,,,2508.9140235079685,None,1.5962962962962963,1.2322832809877582,2508.9140235079685,None,,,,,,,2506.897459187021,None,2507.0807818479952,2507.097587384982,,,,,,,116,001,2023_Jul_07_1514,SpeechDraft1Carolyn_lessNoise_PlusLocalization,2021.2.3,59.926464366298035,
,,,,,,,,farLeft,-19.1,5,ch1Sound_localizationTask.wav,-19.1,"(667, 878)","(-293,-202)",-285,-338,,,,,,,,,,,,,2,6,20,0,,,,,,,,,,,,,,,,,,,,,,,,,,,,,,,,,,,,,,,,2510.148141946993,None,,,2513.1638605649932,None,1.342857142857143,0.8327561829937622,2513.1638605649932,None,,,,,,,2511.147495417972,None,2511.3307628610055,2511.347472045978,,,,,,,116,001,2023_Jul_07_1514,SpeechDraft1Carolyn_lessNoise_PlusLocalization,2021.2.3,59.926464366298035,
,,,,,,,,center,0.0,6,ch1Sound_localizationTask.wav,0.0,"(952, 878)","(-8,-202)",0,-338,,,,,,,,,,,,,3,0,21,3,,,,,,,,,,,,,,,,,,,,,,,,,,,,,,,,,,,,,,,,2513.997584068973,None,,,2517.013870762021,None,1.4994708994708994,0.8165496910223737,2517.013870762021,None,,,,,,,2514.9974190680077,None,2515.18081410398,2515.1974491059664,,,,,,,116,001,2023_Jul_07_1514,SpeechDraft1Carolyn_lessNoise_PlusLocalization,2021.2.3,59.926464366298035,
,,,,,,,,midRight,13.0,3,ch1Sound_localizationTask.wav,13.0,"(1142, 878)","(182, -202)",190,-338,,,,,,,,,,,,,3,1,22,5,,,,,,,,,,,,,,,,,,,,,,,,,,,,,,,,,,,,,,,,2517.830859420006,None,,,2520.847154904972,None,1.5915343915343916,0.748943637998309,2520.847154904972,None,,,,,,,2518.830744341016,None,2519.0141915510176,2519.0308787800022,,,,,,,116,001,2023_Jul_07_1514,SpeechDraft1Carolyn_lessNoise_PlusLocalization,2021.2.3,59.926464366298035,
,,,,,,,,farRight,19.1,4,ch1Sound_localizationTask.wav,19.1,"(1237, 878)","(277,-202)",285,-338,,,,,,,,,,,,,3,2,23,6,,,,,,,,,,,,,,,,,,,,,,,,,,,,,,,,,,,,,,,,2521.5975560480147,None,,,2524.614013154991,None,1.635978835978836,0.6664450719836168,2524.614013154991,None,,,,,,,2522.5975713509833,None,2522.7807815669803,2522.797507148003,,,,,,,116,001,2023_Jul_07_1514,SpeechDraft1Carolyn_lessNoise_PlusLocalization,2021.2.3,59.926464366298035,
,,,,,,,,nearRight,6.5,0,ch1Sound_localizationTask.wav,6.5,"(1047, 878)","(87, -202)",95,-338,,,,,,,,,,,,,3,3,24,4,,,,,,,,,,,,,,,,,,,,,,,,,,,,,,,,,,,,,,,,2525.281097361003,None,,,2528.2973607059685,None,1.5518518518518518,1.166386543016415,2528.2973607059685,None,,,,,,,2526.280808327021,None,2526.4641080810106,2526.4808359069866,,,,,,,116,001,2023_Jul_07_1514,SpeechDraft1Carolyn_lessNoise_PlusLocalization,2021.2.3,59.926464366298035,
,,,,,,,,center,0.0,6,ch1Sound_localizationTask.wav,0.0,"(952, 878)","(-8,-202)",0,-338,,,,,,,,,,,,,3,4,25,3,,,,,,,,,,,,,,,,,,,,,,,,,,,,,,,,,,,,,,,,2529.464314508019,None,,,2532.480717896018,None,1.5084656084656085,0.9824516719672829,2532.480717896018,None,,,,,,,2530.4642347079935,None,2530.647531229013,2530.6642515200074,,,,,,,116,001,2023_Jul_07_1514,SpeechDraft1Carolyn_lessNoise_PlusLocalization,2021.2.3,59.926464366298035,
,,,,,,,,midRight,13.0,3,ch1Sound_localizationTask.wav,13.0,"(1142, 878)","(182, -202)",190,-338,,,,,,,,,,,,,3,5,26,5,,,,,,,,,,,,,,,,,,,,,,,,,,,,,,,,,,,,,,,,2533.464422156976,None,,,2536.480638956011,None,1.619047619047619,0.798886856995523,2536.480638956011,None,,,,,,,2534.4642238959786,None,2534.6474688429735,2534.6641726620146,,,,,,,116,001,2023_Jul_07_1514,SpeechDraft1Carolyn_lessNoise_PlusLocalization,2021.2.3,59.926464366298035,
,,,,,,,,center,0.0,6,ch1Sound_localizationTask.wav,0.0,"(952, 878)","(-8,-202)",0,-338,,,,,,,,,,,,,3,6,27,3,,,,,,,,,,,,,,,,,,,,,,,,,,,,,,,,,,,,,,,,2537.281203735969,None,,,2540.297459224006,None,1.5031746031746032,0.8148949349997565,2540.297459224006,None,,,,,,,2538.280807935982,None,2538.4640991199994,2538.48088864499,,,,,,,116,001,2023_Jul_07_1514,SpeechDraft1Carolyn_lessNoise_PlusLocalization,2021.2.3,59.926464366298035,
,,,,,,,,center,0.0,6,ch1Sound_localizationTask.wav,0.0,"(952, 878)","(-8,-202)",0,-338,,,,,,,,,,,,,4,0,28,3,,,,,,,,,,,,,,,,,,,,,,,,,,,,,,,,,,,,,,,,2541.114349704003,None,,,2544.1306412930135,None,1.4925925925925925,0.6148051590425894,2544.1306412930135,None,,,,,,,2542.1141511519672,None,2542.2974635129794,2542.314188751974,,,,,,,116,001,2023_Jul_07_1514,SpeechDraft1Carolyn_lessNoise_PlusLocalization,2021.2.3,59.926464366298035,
,,,,,,,,farLeft,-19.1,5,ch1Sound_localizationTask.wav,-19.1,"(667, 878)","(-293,-202)",-285,-338,,,,,,,,,,,,,4,1,29,0,,,,,,,,,,,,,,,,,,,,,,,,,,,,,,,,,,,,,,,,2544.7475530930096,None,,,2547.7637995319674,None,1.3417989417989418,1.0372777589946054,2547.7637995319674,None,,,,,,,2545.7474980339757,None,2545.9307950030197,2545.947489567974,,,,,,,116,001,2023_Jul_07_1514,SpeechDraft1Carolyn_lessNoise_PlusLocalization,2021.2.3,59.926464366298035,
,,,,,,,,nearLeft,-6.5,1,ch1Sound_localizationTask.wav,-6.5,"(857, 878)","(-103,-202)",-95,-338,,,,,,,,,,,,,4,2,30,2,,,,,,,,,,,,,,,,,,,,,,,,,,,,,,,,,,,,,,,,2548.8142228000215,None,,,2551.830572951003,None,1.4306878306878308,0.799371469009202,2551.830572951003,None,,,,,,,2549.8141384769697,None,2549.9976168099674,2550.014208709006,,,,,,,116,001,2023_Jul_07_1514,SpeechDraft1Carolyn_lessNoise_PlusLocalization,2021.2.3,59.926464366298035,
,,,,,,,,farLeft,-19.1,5,ch1Sound_localizationTask.wav,-19.1,"(667, 878)","(-293,-202)",-285,-338,,,,,,,,,,,,,4,3,31,0,,,,,,,,,,,,,,,,,,,,,,,,,,,,,,,,,,,,,,,,2552.6310054979986,None,,,2555.6477143699885,None,1.3343915343915345,1.114114038005937,2555.6477143699885,None,,,,,,,2553.630957419984,None,2553.8141455189907,2553.8309265979915,,,,,,,116,001,2023_Jul_07_1514,SpeechDraft1Carolyn_lessNoise_PlusLocalization,2021.2.3,59.926464366298035,
,,,,,,,,nearRight,6.5,0,ch1Sound_localizationTask.wav,6.5,"(1047, 878)","(87, -202)",95,-338,,,,,,,,,,,,,4,4,32,4,,,,,,,,,,,,,,,,,,,,,,,,,,,,,,,,,,,,,,,,2556.764315815002,None,,,2559.780559181003,None,1.546031746031746,0.6653449379955418,2559.780559181003,None,,,,,,,2557.7642841199995,None,2557.9475093209767,2557.9643054869957,,,,,,,116,001,2023_Jul_07_1514,SpeechDraft1Carolyn_lessNoise_PlusLocalization,2021.2.3,59.926464366298035,
,,,,,,,,midLeft,-13.0,2,ch1Sound_localizationTask.wav,-13.0,"(762, 878)","(-198,-202)",-190,-338,,,,,,,,,,,,,4,5,33,1,,,,,,,,,,,,,,,,,,,,,,,,,,,,,,,,,,,,,,,,2560.4477840639884,None,,,2563.4639462929917,None,1.3597883597883598,0.9995330019737594,2563.4639462929917,None,,,,,,,2561.4476405059686,None,2561.6307818950154,2561.647562803002,,,,,,,116,001,2023_Jul_07_1514,SpeechDraft1Carolyn_lessNoise_PlusLocalization,2021.2.3,59.926464366298035,
,,,,,,,,farLeft,-19.1,5,ch1Sound_localizationTask.wav,-19.1,"(667, 878)","(-293,-202)",-285,-338,,,,,,,,,,,,,4,6,34,0,,,,,,,,,,,,,,,,,,,,,,,,,,,,,,,,,,,,,,,,2564.4648012869875,None,,,2567.4806026559672,None,1.3597883597883598,0.5659457360161468,2567.4806026559672,None,,,,,,,2565.464133795991,None,2565.647563170991,2565.664221836021,,,,,,,116,001,2023_Jul_07_1514,SpeechDraft1Carolyn_lessNoise_PlusLocalization,2021.2.3,59.926464366298035,
,,,,,,,,farLeft,-19.1,5,ch1Sound_localizationTask.wav,-19.1,"(667, 878)","(-293,-202)",-285,-338,,,,,,,,,,,,,5,0,35,0,,,,,,,,,,,,,,,,,,,,,,,,,,,,,,,,,,,,,,,,2568.047615999996,None,,,2571.0640997369774,None,1.3417989417989418,0.5993285860167816,2571.0640997369774,None,,,,,,,2569.047450814978,None,2569.230926254997,2569.247572701017,,,,,,,116,001,2023_Jul_07_1514,SpeechDraft1Carolyn_lessNoise_PlusLocalization,2021.2.3,59.926464366298035,
,,,,,,,,midRight,13.0,3,ch1Sound_localizationTask.wav,13.0,"(1142, 878)","(182, -202)",190,-338,,,,,,,,,,,,,5,1,36,5,,,,,,,,,,,,,,,,,,,,,,,,,,,,,,,,,,,,,,,,2571.664340587973,None,,,2574.680657917983,None,1.6121693121693121,1.0325101689668372,2574.680657917983,None,,,,,,,2572.6643139669904,None,2572.8475863669883,2572.8642403369886,,,,,,,116,001,2023_Jul_07_1514,SpeechDraft1Carolyn_lessNoise_PlusLocalization,2021.2.3,59.926464366298035,
,,,,,,,,midRight,13.0,3,ch1Sound_localizationTask.wav,13.0,"(1142, 878)","(182, -202)",190,-338,,,,,,,,,,,,,5,2,37,5,,,,,,,,,,,,,,,,,,,,,,,,,,,,,,,,,,,,,,,,2575.714967936976,None,,,2578.730875327019,None,1.5820105820105819,0.9642346639884636,2578.730875327019,None,,,,,,,2576.714248354023,None,2576.8976090149954,2576.914285933017,,,,,,,116,001,2023_Jul_07_1514,SpeechDraft1Carolyn_lessNoise_PlusLocalization,2021.2.3,59.926464366298035,
,,,,,,,,farRight,19.1,4,ch1Sound_localizationTask.wav,19.1,"(1237, 878)","(277,-202)",285,-338,,,,,,,,,,,,,5,3,38,6,,,,,,,,,,,,,,,,,,,,,,,,,,,,,,,,,,,,,,,,2579.698085386015,None,,,2582.713918826019,None,1.6444444444444444,0.8330018870183267,2582.713918826019,None,,,,,,,2580.6977015020093,None,2580.880976599001,2580.8976029980113,,,,,,,116,001,2023_Jul_07_1514,SpeechDraft1Carolyn_lessNoise_PlusLocalization,2021.2.3,59.926464366298035,
,,,,,,,,nearLeft,-6.5,1,ch1Sound_localizationTask.wav,-6.5,"(857, 878)","(-103,-202)",-95,-338,,,,,,,,,,,,,5,4,39,2,,,,,,,,,,,,,,,,,,,,,,,,,,,,,,,,,,,,,,,,2583.5475607530097,None,,,2586.5639538600226,None,1.438095238095238,0.9484330200357363,2586.5639538600226,None,,,,,,,2584.5475608289707,None,2584.7309046380105,2584.7475628819666,,,,,,,116,001,2023_Jul_07_1514,SpeechDraft1Carolyn_lessNoise_PlusLocalization,2021.2.3,59.926464366298035,
,,,,,,,,midLeft,-13.0,2,ch1Sound_localizationTask.wav,-13.0,"(762, 878)","(-198,-202)",-190,-338,,,,,,,,,,,,,5,5,40,1,,,,,,,,,,,,,,,,,,,,,,,,,,,,,,,,,,,,,,,,2587.514291785017,None,,,2590.530673716974,None,1.4026455026455027,0.8327459780266508,2590.530673716974,None,,,,,,,2588.514250330976,None,2588.6977007359965,2588.7142988429987,,,,,,,116,001,2023_Jul_07_1514,SpeechDraft1Carolyn_lessNoise_PlusLocalization,2021.2.3,59.926464366298035,
,,,,,,,,farLeft,-19.1,5,ch1Sound_localizationTask.wav,-19.1,"(667, 878)","(-293,-202)",-285,-338,,,,,,,,,,,,,5,6,41,0,,,,,,,,,,,,,,,,,,,,,,,,,,,,,,,,,,,,,,,,2591.3644409489934,None,,,2594.3806806950015,None,1.342857142857143,0.9158111299620941,2594.3806806950015,None,,,,,,,2592.364181164012,None,2592.5475805859896,2592.5642112109927,,,,,,,116,001,2023_Jul_07_1514,SpeechDraft1Carolyn_lessNoise_PlusLocalization,2021.2.3,59.926464366298035,
,,,,,,,,nearLeft,-6.5,1,ch1Sound_localizationTask.wav,-6.5,"(857, 878)","(-103,-202)",-95,-338,,,,,,,,,,,,,6,0,42,2,,,,,,,,,,,,,,,,,,,,,,,,,,,,,,,,,,,,,,,,2595.2977144489996,None,,,2598.313962395012,None,1.447089947089947,0.6994264500099234,2598.313962395012,None,,,,,,,2596.2975461509777,None,2596.4810396480025,2596.4976588190184,,,,,,,116,001,2023_Jul_07_1514,SpeechDraft1Carolyn_lessNoise_PlusLocalization,2021.2.3,59.926464366298035,
,,,,,,,,midRight,13.0,3,ch1Sound_localizationTask.wav,13.0,"(1142, 878)","(182, -202)",190,-338,,,,,,,,,,,,,6,1,43,5,,,,,,,,,,,,,,,,,,,,,,,,,,,,,,,,,,,,,,,,2599.0145786899957,None,,,2602.0308123080176,None,1.6164021164021163,0.6663097859709524,2602.0308123080176,None,,,,,,,2600.014276670001,None,2600.1975275349687,2600.2143219599966,,,,,,,116,001,2023_Jul_07_1514,SpeechDraft1Carolyn_lessNoise_PlusLocalization,2021.2.3,59.926464366298035,
,,,,,,,,nearRight,6.5,0,ch1Sound_localizationTask.wav,6.5,"(1047, 878)","(87, -202)",95,-338,,,,,,,,,,,,,6,2,44,4,,,,,,,,,,,,,,,,,,,,,,,,,,,,,,,,,,,,,,,,2602.698178728984,None,,,2605.714105980005,None,1.5253968253968253,0.5990494189900346,2605.714105980005,None,,,,,,,2603.6976303079864,None,2603.880910323991,2603.897652163985,,,,,,,116,001,2023_Jul_07_1514,SpeechDraft1Carolyn_lessNoise_PlusLocalization,2021.2.3,59.926464366298035,
,,,,,,,,midLeft,-13.0,2,ch1Sound_localizationTask.wav,-13.0,"(762, 878)","(-198,-202)",-190,-338,,,,,,,,,,,,,6,3,45,1,,,,,,,,,,,,,,,,,,,,,,,,,,,,,,,,,,,,,,,,2606.314535183017,None,,,2609.3307108440204,None,1.3957671957671958,0.6148671029950492,2609.3307108440204,None,,,,,,,2607.3141789109795,None,2607.497638814966,2607.5142605999717,,,,,,,116,001,2023_Jul_07_1514,SpeechDraft1Carolyn_lessNoise_PlusLocalization,2021.2.3,59.926464366298035,
,,,,,,,,midRight,13.0,3,ch1Sound_localizationTask.wav,13.0,"(1142, 878)","(182, -202)",190,-338,,,,,,,,,,,,,6,4,46,5,,,,,,,,,,,,,,,,,,,,,,,,,,,,,,,,,,,,,,,,2609.9477231329656,None,,,2612.9641016990063,None,1.6058201058201058,0.6164781519910321,2612.9641016990063,None,,,,,,,2610.947533235012,None,2611.1308984180214,2611.1475873409654,,,,,,,116,001,2023_Jul_07_1514,SpeechDraft1Carolyn_lessNoise_PlusLocalization,2021.2.3,59.926464366298035,
,,,,,,,,center,0.0,6,ch1Sound_localizationTask.wav,0.0,"(952, 878)","(-8,-202)",0,-338,,,,,,,,,,,,,6,5,47,3,,,,,,,,,,,,,,,,,,,,,,,,,,,,,,,,,,,,,,,,2613.5816286110203,None,,,2616.5972228440223,None,1.4883597883597883,0.7158451399882324,2616.5972228440223,None,,,,,,,2614.5809118709876,None,2614.76435137901,2614.781056711974,,,,,,,116,001,2023_Jul_07_1514,SpeechDraft1Carolyn_lessNoise_PlusLocalization,2021.2.3,59.926464366298035,
,,,,,,,,farRight,19.1,4,ch1Sound_localizationTask.wav,19.1,"(1237, 878)","(277,-202)",285,-338,,,,,,,,,,,,,6,6,48,6,,,,,,,,,,,,,,,,,,,,,,,,,,,,,,,,,,,,,,,,2617.314426140976,None,,,2620.3307589020114,None,1.6507936507936507,0.68260320200352,2620.3307589020114,None,,,,,,,2618.314254164987,None,2618.4975687150145,2618.5142621640116,,,,,,,116,001,2023_Jul_07_1514,SpeechDraft1Carolyn_lessNoise_PlusLocalization,2021.2.3,59.926464366298035,
,,,,,,,,nearLeft,-6.5,1,ch1Sound_localizationTask.wav,-6.5,"(857, 878)","(-103,-202)",-95,-338,,,,,,,,,,,,,7,0,49,2,,,,,,,,,,,,,,,,,,,,,,,,,,,,,,,,,,,,,,,,2621.0148340059677,None,,,2624.0307013909915,None,1.461904761904762,0.7317160579841584,2624.0307013909915,None,,,,,,,2622.014248245978,None,2622.1976002830197,2622.2142215649947,,,,,,,116,001,2023_Jul_07_1514,SpeechDraft1Carolyn_lessNoise_PlusLocalization,2021.2.3,59.926464366298035,
,,,,,,,,nearLeft,-6.5,1,ch1Sound_localizationTask.wav,-6.5,"(857, 878)","(-103,-202)",-95,-338,,,,,,,,,,,,,7,1,50,2,,,,,,,,,,,,,,,,,,,,,,,,,,,,,,,,,,,,,,,,2624.7644485280034,None,,,2627.7808575049858,None,1.4370370370370371,0.4665783870150335,2627.7808575049858,None,,,,,,,2625.7642599039827,None,2625.947600436979,2625.9642802639864,,,,,,,116,001,2023_Jul_07_1514,SpeechDraft1Carolyn_lessNoise_PlusLocalization,2021.2.3,59.926464366298035,
,,,,,,,,nearLeft,-6.5,1,ch1Sound_localizationTask.wav,-6.5,"(857, 878)","(-103,-202)",-95,-338,,,,,,,,,,,,,7,2,51,2,,,,,,,,,,,,,,,,,,,,,,,,,,,,,,,,,,,,,,,,2628.248585549998,None,,,2631.264170583978,None,1.471957671957672,0.4985138130141422,2631.264170583978,None,,,,,,,2629.2478144469787,None,2629.4313652109704,2629.447769535007,,,,,,,116,001,2023_Jul_07_1514,SpeechDraft1Carolyn_lessNoise_PlusLocalization,2021.2.3,59.926464366298035,
,,,,,,,,farLeft,-19.1,5,ch1Sound_localizationTask.wav,-19.1,"(667, 878)","(-293,-202)",-285,-338,,,,,,,,,,,,,7,3,52,0,,,,,,,,,,,,,,,,,,,,,,,,,,,,,,,,,,,,,,,,2631.764429013012,None,,,2634.78066840698,None,1.367195767195767,0.9163096290430985,2634.78066840698,None,,,,,,,2632.764335468004,None,2632.9477336559794,2632.9643785699736,,,,,,,116,001,2023_Jul_07_1514,SpeechDraft1Carolyn_lessNoise_PlusLocalization,2021.2.3,59.926464366298035,
,,,,,,,,farRight,19.1,4,ch1Sound_localizationTask.wav,19.1,"(1237, 878)","(277,-202)",285,-338,,,,,,,,,,,,,7,4,53,6,,,,,,,,,,,,,,,,,,,,,,,,,,,,,,,,,,,,,,,,2635.698333845008,None,,,2638.7142634349875,None,1.6767195767195768,0.7306469159666449,2638.7142634349875,None,,,,,,,2636.6976542390184,None,2636.881153947965,2636.8975894009927,,,,,,,116,001,2023_Jul_07_1514,SpeechDraft1Carolyn_lessNoise_PlusLocalization,2021.2.3,59.926464366298035,
,,,,,,,,center,0.0,6,ch1Sound_localizationTask.wav,0.0,"(952, 878)","(-8,-202)",0,-338,,,,,,,,,,,,,7,5,54,3,,,,,,,,,,,,,,,,,,,,,,,,,,,,,,,,,,,,,,,,2639.4475771709695,None,,,2642.4641176339937,None,1.5031746031746032,0.7003537120181136,2642.4641176339937,None,,,,,,,2640.4475743540097,None,2640.6308750369935,2640.6476100179716,,,,,,,116,001,2023_Jul_07_1514,SpeechDraft1Carolyn_lessNoise_PlusLocalization,2021.2.3,59.926464366298035,
,,,,,,,,nearRight,6.5,0,ch1Sound_localizationTask.wav,6.5,"(1047, 878)","(87, -202)",95,-338,,,,,,,,,,,,,7,6,55,4,,,,,,,,,,,,,,,,,,,,,,,,,,,,,,,,,,,,,,,,2643.1809650079813,None,,,2646.1974561300012,None,1.58994708994709,0.7656671350123361,2646.1974561300012,None,,,,,,,2644.1808709399775,None,2644.3643059059978,2644.3808639069903,,,,,,,116,001,2023_Jul_07_1514,SpeechDraft1Carolyn_lessNoise_PlusLocalization,2021.2.3,59.926464366298035,
,,,,,,,,,,,,,,,,,,,,,,,,,,,,,,,,,,,,,,,,,,,,,,,,,,,,,,,,,,,,,,,,,,,,,,,,,,,,,,,,,,,,,,,,,,,,2646.9806804509717,None,c,348.81819923996227,2647.9476380670094,None,116,001,2023_Jul_07_1514,SpeechDraft1Carolyn_lessNoise_PlusLocalization,2021.2.3,59.926464366298035,
