Audio_Only_Files,Video_Files,Original_Word_List,noiseLevelCode,conditionCodes,noiseLevelFile1,noiseLevelFile2,InstrTextVar,targetSpeakerName,targetSpeakerEccen,targetSpkrChannel,targetSpkrSound,targetVisualDegrees,visStimLoc,visStimLoc2,visStimW,visStimH,practiceTrials.thisRepN,practiceTrials.thisTrialN,practiceTrials.thisN,practiceTrials.thisIndex,trials.thisRepN,trials.thisTrialN,trials.thisN,trials.thisIndex,audLocalLoop.thisRepN,audLocalLoop.thisTrialN,audLocalLoop.thisN,audLocalLoop.thisIndex,visualLocalLoop.thisRepN,visualLocalLoop.thisTrialN,visualLocalLoop.thisN,visualLocalLoop.thisIndex,letsGoAlready.keys,letsGoAlready.rt,letsGoAlready.started,letsGoAlready.stopped,text_2.started,text_2.stopped,text_3.started,text_3.stopped,key_resp_2.keys,key_resp_2.rt,key_resp_2.started,key_resp_2.stopped,text_5.started,text_5.stopped,fixCross.started,fixCross.stopped,fixCross2.started,fixCross2.stopped,answerPrompt.started,answerPrompt.stopped,getAnswer.text,getAnswer.started,getAnswer.stopped,goToNext.keys,goToNext.rt,goToNext.started,goToNext.stopped,stretchBreakTxrt.started,stretchBreakTxrt.stopped,key_resp_3.keys,key_resp_3.rt,key_resp_3.started,key_resp_3.stopped,letsGoLocal.keys,letsGoLocal.rt,letsGoLocal.started,letsGoLocal.stopped,text_4.started,text_4.stopped,prepFixTxt.started,prepFixTxt.stopped,prepFixTxt_2.started,prepFixTxt_2.stopped,respPromptLocal.started,respPromptLocal.stopped,slider.response,slider.rt,slider.started,slider.stopped,letsGoLocal_2.keys,letsGoLocal_2.rt,letsGoLocal_2.started,letsGoLocal_2.stopped,text_7.started,text_7.stopped,prepFixTxt_3.started,prepFixTxt_3.stopped,grating.started,grating.stopped,participant,session,date,expName,psychopyVersion,frameRate,
,,,,,,,,,,,,,,,,,,,,,,,,,,,,,,,,,space,2.0889206549618393,2194.0466082839994,None,,,,,,,,,,,,,,,,,,,,,,,,,,,,,,,,,,,,,,,,,,,,,,,,,,,,,,,,120,001,2023_Jul_11_1731,SpeechDraft1Carolyn_lessNoise_PlusLocalization,2021.2.3,60.37507400672498,
,,,,,,,,,,,,,,,,,,,,,,,,,,,,,,,,,,,,,2194.0466082839994,None,2196.2610911909724,None,space,18.042826025979593,2196.4447287459625,None,,,,,,,,,,,,,,,,,,,,,,,,,,,,,,,,,,,,,,,,,,,,,,,,120,001,2023_Jul_11_1731,SpeechDraft1Carolyn_lessNoise_PlusLocalization,2021.2.3,60.37507400672498,
ash.wav,ash.mpg,ash,1,A,Pink_Noise_1_1.wav,Pink_Noise_1_2.wav,"This is an example of an

AUDIO trial",,,,,,,,,,0,0,0,0,,,,,,,,,,,,,,,,,,,,,,,,,2214.544489951979,None,2215.527962248947,None,2218.7113181529567,None,2220.094883462996,None,ash,2220.094883462996,None,return,7.605546619044617,2220.1780528909876,None,,,,,,,,,,,,,,,,,,,,,,,,,,,,,,,,,120,001,2023_Jul_11_1731,SpeechDraft1Carolyn_lessNoise_PlusLocalization,2021.2.3,60.37507400672498,
ash.wav,ash.mpg,ash,1,AV,Pink_Noise_1_1.wav,Pink_Noise_1_2.wav,"This is an example of an

AUDIO + VIDEO  trial",,,,,,,,,,0,1,1,1,,,,,,,,,,,,,,,,,,,,,,,,,2227.8277483559796,None,2228.8280215739505,None,2230.311153556977,None,2231.6947436229675,None,"ash
",2231.6947436229675,None,return,2.2854770150152035,2231.7780394289875,None,,,,,,,,,,,,,,,,,,,,,,,,,,,,,,,,,120,001,2023_Jul_11_1731,SpeechDraft1Carolyn_lessNoise_PlusLocalization,2021.2.3,60.37507400672498,
,,,,,,,,,,,,,,,,,,,,,,,,,,,,,,,,,,,,,,,,,,,,,,,,,,,,,,,,,,,,2234.1111013589543,None,space,12.168756959959865,2234.294817793998,None,,,,,,,,,,,,,,,,,,,,,,,,,,,120,001,2023_Jul_11_1731,SpeechDraft1Carolyn_lessNoise_PlusLocalization,2021.2.3,60.37507400672498,
fall.wav,fall.mpg,fall,5,AV,Pink_Noise_5_1.wav,Pink_Noise_5_2.wav,,,,,,,,,,,,,,,0,0,0,66,,,,,,,,,,,,,,,,,,,,,,,2246.5278453499777,None,2247.996542001958,None,2249.37808107998,None,wrong,2249.37808107998,None,return,4.738057531998493,2249.4614520859905,None,,,,,,,,,,,,,,,,,,,,,,,,,,,,,,,,,120,001,2023_Jul_11_1731,SpeechDraft1Carolyn_lessNoise_PlusLocalization,2021.2.3,60.37507400672498,
bleak.wav,bleak.mpg,bleak,3,AV,Pink_Noise_3_1.wav,Pink_Noise_3_2.wav,,,,,,,,,,,,,,,0,1,1,69,,,,,,,,,,,,,,,,,,,,,,,2254.2282515009865,None,2255.7278140689596,None,2257.111416773987,None,sleek,2257.111416773987,None,return,1.9888243720051832,2257.1947604779853,None,,,,,,,,,,,,,,,,,,,,,,,,,,,,,,,,,120,001,2023_Jul_11_1731,SpeechDraft1Carolyn_lessNoise_PlusLocalization,2021.2.3,60.37507400672498,
droop.wav,droop.mpg,droop,2,A,Pink_Noise_2_1.wav,Pink_Noise_2_2.wav,,,,,,,,,,,,,,,0,2,2,4,,,,,,,,,,,,,,,,,,,,,,,2259.2115656209644,None,2260.711196876946,None,2262.094871076988,None,"drew
",2262.094871076988,None,return,1.0853362480411306,2262.178181470954,None,,,,,,,,,,,,,,,,,,,,,,,,,,,,,,,,,120,001,2023_Jul_11_1731,SpeechDraft1Carolyn_lessNoise_PlusLocalization,2021.2.3,60.37507400672498,
strike.wav,strike.mpg,strike,4,A,Pink_Noise_4_1.wav,Pink_Noise_4_2.wav,,,,,,,,,,,,,,,0,3,3,48,,,,,,,,,,,,,,,,,,,,,,,2263.294843682961,None,2264.7944561559707,None,2266.1780164769734,None,"strange
",2266.1780164769734,None,return,1.8181412619887851,2266.261388252955,None,,,,,,,,,,,,,,,,,,,,,,,,,,,,,,,,,120,001,2023_Jul_11_1731,SpeechDraft1Carolyn_lessNoise_PlusLocalization,2021.2.3,60.37507400672498,
bill.wav,bill.mpg,bill,2,A,Pink_Noise_2_1.wav,Pink_Noise_2_2.wav,,,,,,,,,,,,,,,0,4,4,2,,,,,,,,,,,,,,,,,,,,,,,2268.111360112962,None,2269.594419829955,None,2270.9782148789964,None,bill,2270.9782148789964,None,return,1.1379828220233321,2271.0615699909977,None,,,,,,,,,,,,,,,,,,,,,,,,,,,,,,,,,120,001,2023_Jul_11_1731,SpeechDraft1Carolyn_lessNoise_PlusLocalization,2021.2.3,60.37507400672498,
mold.wav,mold.mpg,mold,6,AV,Pink_Noise_6_1.wav,Pink_Noise_6_2.wav,,,,,,,,,,,,,,,0,5,5,83,,,,,,,,,,,,,,,,,,,,,,,2272.228132043965,None,2273.7279267159756,None,2275.1114475909853,None,mary,2275.1114475909853,None,return,2.3407915660063736,2275.194813670998,None,,,,,,,,,,,,,,,,,,,,,,,,,,,,,,,,,120,001,2023_Jul_11_1731,SpeechDraft1Carolyn_lessNoise_PlusLocalization,2021.2.3,60.37507400672498,
ham.wav,ham.mpg,ham,6,A,Pink_Noise_6_1.wav,Pink_Noise_6_2.wav,,,,,,,,,,,,,,,0,6,6,35,,,,,,,,,,,,,,,,,,,,,,,2277.5614231009968,None,2279.0612322489615,None,2280.4448122799513,None,lou,2280.4448122799513,None,return,4.231199463014491,2280.5283705149777,None,,,,,,,,,,,,,,,,,,,,,,,,,,,,,,,,,120,001,2023_Jul_11_1731,SpeechDraft1Carolyn_lessNoise_PlusLocalization,2021.2.3,60.37507400672498,
burn.wav,burn.mpg,burn,5,A,Pink_Noise_5_1.wav,Pink_Noise_5_2.wav,,,,,,,,,,,,,,,0,7,7,9,,,,,,,,,,,,,,,,,,,,,,,2284.7781795889605,None,2286.277830330946,None,2287.6615523749497,None,bur,2287.6615523749497,None,return,2.6785038060043007,2287.74501549697,None,,,,,,,,,,,,,,,,,,,,,,,,,,,,,,,,,120,001,2023_Jul_11_1731,SpeechDraft1Carolyn_lessNoise_PlusLocalization,2021.2.3,60.37507400672498,
bottle.wav,bottle.mpg,bottle,3,AV,Pink_Noise_3_1.wav,Pink_Noise_3_2.wav,,,,,,,,,,,,,,,0,8,8,96,,,,,,,,,,,,,,,,,,,,,,,2290.4448472139775,None,2291.927872205968,None,2293.311421171995,None,bottle,2293.311421171995,None,return,1.1568443759460934,2293.3948312149732,None,,,,,,,,,,,,,,,,,,,,,,,,,,,,,,,,,120,001,2023_Jul_11_1731,SpeechDraft1Carolyn_lessNoise_PlusLocalization,2021.2.3,60.37507400672498,
grave.wav,grave.mpg,grave,1,A,Pink_Noise_1_1.wav,Pink_Noise_1_2.wav,,,,,,,,,,,,,,,0,9,9,29,,,,,,,,,,,,,,,,,,,,,,,2294.578190731001,None,2296.0612449849723,None,2297.4448440499837,None,greyish,2297.4448440499837,None,return,2.143227456952445,2297.5282884549815,None,,,,,,,,,,,,,,,,,,,,,,,,,,,,,,,,,120,001,2023_Jul_11_1731,SpeechDraft1Carolyn_lessNoise_PlusLocalization,2021.2.3,60.37507400672498,
clad.wav,clad.mpg,clad,5,AV,Pink_Noise_5_1.wav,Pink_Noise_5_2.wav,,,,,,,,,,,,,,,0,10,10,73,,,,,,,,,,,,,,,,,,,,,,,2299.694710073003,None,2301.1945659479825,None,2302.578145375999,None,nat,2302.578145375999,None,return,1.6741448089596815,2302.6615006839857,None,,,,,,,,,,,,,,,,,,,,,,,,,,,,,,,,,120,001,2023_Jul_11_1731,SpeechDraft1Carolyn_lessNoise_PlusLocalization,2021.2.3,60.37507400672498,
castle.wav,castle.mpg,castle,1,AV,Pink_Noise_1_1.wav,Pink_Noise_1_2.wav,,,,,,,,,,,,,,,0,11,11,80,,,,,,,,,,,,,,,,,,,,,,,2304.3614598999848,None,2305.8612493449473,None,2307.244857316953,None,castle,2307.244857316953,None,return,1.471195664955303,2307.3284102329635,None,,,,,,,,,,,,,,,,,,,,,,,,,,,,,,,,,120,001,2023_Jul_11_1731,SpeechDraft1Carolyn_lessNoise_PlusLocalization,2021.2.3,60.37507400672498,
born.wav,born.mpg,born,6,A,Pink_Noise_6_1.wav,Pink_Noise_6_2.wav,,,,,,,,,,,,,,,0,12,12,14,,,,,,,,,,,,,,,,,,,,,,,2308.828108110989,None,2310.328025103954,None,2311.71155761095,None,boring,2311.71155761095,None,return,5.6046710959635675,2311.794856651977,None,,,,,,,,,,,,,,,,,,,,,,,,,,,,,,,,,120,001,2023_Jul_11_1731,SpeechDraft1Carolyn_lessNoise_PlusLocalization,2021.2.3,60.37507400672498,
friend.wav,friend.mpg,friend,3,A,Pink_Noise_3_1.wav,Pink_Noise_3_2.wav,,,,,,,,,,,,,,,0,13,13,30,,,,,,,,,,,,,,,,,,,,,,,2317.4281050239806,None,2318.9279233939596,None,2320.31162809697,None,range,2320.31162809697,None,return,2.092568322957959,2320.394963079947,None,,,,,,,,,,,,,,,,,,,,,,,,,,,,,,,,,120,001,2023_Jul_11_1731,SpeechDraft1Carolyn_lessNoise_PlusLocalization,2021.2.3,60.37507400672498,
gray.wav,gray.mpg,gray,2,AV,Pink_Noise_2_1.wav,Pink_Noise_2_2.wav,,,,,,,,,,,,,,,0,14,14,61,,,,,,,,,,,,,,,,,,,,,,,2322.5115062869736,None,2323.9954196959734,None,2325.3781277699745,None,grey,2325.3781277699745,None,return,1.7219345690100454,2325.4616838599904,None,,,,,,,,,,,,,,,,,,,,,,,,,,,,,,,,,120,001,2023_Jul_11_1731,SpeechDraft1Carolyn_lessNoise_PlusLocalization,2021.2.3,60.37507400672498,
toy.wav,toy.mpg,toy,6,AV,Pink_Noise_6_1.wav,Pink_Noise_6_2.wav,,,,,,,,,,,,,,,0,15,15,72,,,,,,,,,,,,,,,,,,,,,,,2327.211680317996,None,2328.7111739829998,None,2330.0948647579644,None,short,2330.0948647579644,None,return,1.0772976250154898,2330.1782254989957,None,,,,,,,,,,,,,,,,,,,,,,,,,,,,,,,,,120,001,2023_Jul_11_1731,SpeechDraft1Carolyn_lessNoise_PlusLocalization,2021.2.3,60.37507400672498,
drag.wav,drag.mpg,drag,5,AV,Pink_Noise_5_1.wav,Pink_Noise_5_2.wav,,,,,,,,,,,,,,,0,16,16,99,,,,,,,,,,,,,,,,,,,,,,,2331.2782822430017,None,2332.7616855189553,None,2334.14479877596,None,strag,2334.14479877596,None,return,4.123402257973794,2334.228190416994,None,,,,,,,,,,,,,,,,,,,,,,,,,,,,,,,,,120,001,2023_Jul_11_1731,SpeechDraft1Carolyn_lessNoise_PlusLocalization,2021.2.3,60.37507400672498,
beef.wav,beef.mpg,beef,2,A,Pink_Noise_2_1.wav,Pink_Noise_2_2.wav,,,,,,,,,,,,,,,0,17,17,42,,,,,,,,,,,,,,,,,,,,,,,2338.378259519988,None,2339.8612643209635,None,2341.2447971539805,None,"beef
",2341.2447971539805,None,return,1.3353291900129989,2341.3282086039544,None,,,,,,,,,,,,,,,,,,,,,,,,,,,,,,,,,120,001,2023_Jul_11_1731,SpeechDraft1Carolyn_lessNoise_PlusLocalization,2021.2.3,60.37507400672498,
cop.wav,cop.mpg,cop,2,AV,Pink_Noise_2_1.wav,Pink_Noise_2_2.wav,,,,,,,,,,,,,,,0,18,18,116,,,,,,,,,,,,,,,,,,,,,,,2342.694952616992,None,2344.178902494954,None,2345.561610295961,None,cop,2345.561610295961,None,return,1.0907374219968915,2345.6448522449937,None,,,,,,,,,,,,,,,,,,,,,,,,,,,,,,,,,120,001,2023_Jul_11_1731,SpeechDraft1Carolyn_lessNoise_PlusLocalization,2021.2.3,60.37507400672498,
sue.wav,sue.mpg,sue,5,AV,Pink_Noise_5_1.wav,Pink_Noise_5_2.wav,,,,,,,,,,,,,,,0,19,19,85,,,,,,,,,,,,,,,,,,,,,,,2346.761588501977,None,2348.2613883489976,None,2349.6448847489664,None,sue,2349.6448847489664,None,return,1.0552771000075154,2349.728350432997,None,,,,,,,,,,,,,,,,,,,,,,,,,,,,,,,,,120,001,2023_Jul_11_1731,SpeechDraft1Carolyn_lessNoise_PlusLocalization,2021.2.3,60.37507400672498,
gulf.wav,gulf.mpg,gulf,3,A,Pink_Noise_3_1.wav,Pink_Noise_3_2.wav,,,,,,,,,,,,,,,0,20,20,51,,,,,,,,,,,,,,,,,,,,,,,2350.811598686967,None,2352.2946005179547,None,2353.678308663948,None,golf,2353.678308663948,None,return,1.2458292999654077,2353.761683008983,None,,,,,,,,,,,,,,,,,,,,,,,,,,,,,,,,,120,001,2023_Jul_11_1731,SpeechDraft1Carolyn_lessNoise_PlusLocalization,2021.2.3,60.37507400672498,
stuck.wav,stuck.mpg,stuck,2,AV,Pink_Noise_2_1.wav,Pink_Noise_2_2.wav,,,,,,,,,,,,,,,0,21,21,101,,,,,,,,,,,,,,,,,,,,,,,2355.0282639509533,None,2356.511241300963,None,2357.894904626999,None,"stuck
",2357.894904626999,None,return,1.0693239819956943,2357.97818923695,None,,,,,,,,,,,,,,,,,,,,,,,,,,,,,,,,,120,001,2023_Jul_11_1731,SpeechDraft1Carolyn_lessNoise_PlusLocalization,2021.2.3,60.37507400672498,
tomb.wav,tomb.mpg,tomb,3,A,Pink_Noise_3_1.wav,Pink_Noise_3_2.wav,,,,,,,,,,,,,,,0,22,22,50,,,,,,,,,,,,,,,,,,,,,,,2359.078158432967,None,2360.577946898993,None,2361.9450141169946,None,"to
",2361.9450141169946,None,return,0.6192427370115183,2362.0282735709916,None,,,,,,,,,,,,,,,,,,,,,,,,,,,,,,,,,120,001,2023_Jul_11_1731,SpeechDraft1Carolyn_lessNoise_PlusLocalization,2021.2.3,60.37507400672498,
chain.wav,chain.mpg,chain,3,AV,Pink_Noise_3_1.wav,Pink_Noise_3_2.wav,,,,,,,,,,,,,,,0,23,23,86,,,,,,,,,,,,,,,,,,,,,,,2362.6783400059794,None,2364.161269373959,None,2365.544896507985,None,chain,2365.544896507985,None,return,1.1472323660273105,2365.62827889499,None,,,,,,,,,,,,,,,,,,,,,,,,,,,,,,,,,120,001,2023_Jul_11_1731,SpeechDraft1Carolyn_lessNoise_PlusLocalization,2021.2.3,60.37507400672498,
crack.wav,crack.mpg,crack,3,AV,Pink_Noise_3_1.wav,Pink_Noise_3_2.wav,,,,,,,,,,,,,,,0,24,24,118,,,,,,,,,,,,,,,,,,,,,,,2366.7950199279585,None,2368.2792496809852,None,2369.6616707859794,None,crack,2369.6616707859794,None,return,1.5264594519976526,2369.7450210349634,None,,,,,,,,,,,,,,,,,,,,,,,,,,,,,,,,,120,001,2023_Jul_11_1731,SpeechDraft1Carolyn_lessNoise_PlusLocalization,2021.2.3,60.37507400672498,
break.wav,break.mpg,break,1,AV,Pink_Noise_1_1.wav,Pink_Noise_1_2.wav,,,,,,,,,,,,,,,0,25,25,84,,,,,,,,,,,,,,,,,,,,,,,2371.2949097709497,None,2372.79461423296,None,2374.178258556989,None,break,2374.178258556989,None,return,1.161916311015375,2374.261591232964,None,,,,,,,,,,,,,,,,,,,,,,,,,,,,,,,,,120,001,2023_Jul_11_1731,SpeechDraft1Carolyn_lessNoise_PlusLocalization,2021.2.3,60.37507400672498,
buff.wav,buff.mpg,buff,4,AV,Pink_Noise_4_1.wav,Pink_Noise_4_2.wav,,,,,,,,,,,,,,,0,26,26,92,,,,,,,,,,,,,,,,,,,,,,,2375.4450048129656,None,2376.9446339269634,None,2378.311462329002,None,bottle,2378.311462329002,None,return,1.9246370610198937,2378.394911725947,None,,,,,,,,,,,,,,,,,,,,,,,,,,,,,,,,,120,001,2023_Jul_11_1731,SpeechDraft1Carolyn_lessNoise_PlusLocalization,2021.2.3,60.37507400672498,
duck.wav,duck.mpg,duck,4,A,Pink_Noise_4_1.wav,Pink_Noise_4_2.wav,,,,,,,,,,,,,,,0,27,27,11,,,,,,,,,,,,,,,,,,,,,,,2380.344907185994,None,2381.8289334649453,None,2383.211520120967,None,stuck,2383.211520120967,None,return,0.9286350299953483,2383.294912619982,None,,,,,,,,,,,,,,,,,,,,,,,,,,,,,,,,,120,001,2023_Jul_11_1731,SpeechDraft1Carolyn_lessNoise_PlusLocalization,2021.2.3,60.37507400672498,
awe.wav,awe.mpg,awe,6,AV,Pink_Noise_6_1.wav,Pink_Noise_6_2.wav,,,,,,,,,,,,,,,0,28,28,109,,,,,,,,,,,,,,,,,,,,,,,2384.2449273079983,None,2385.729361249949,None,2387.111530958966,None,"ah
",2387.111530958966,None,return,4.052566583035514,2387.1949468779494,None,,,,,,,,,,,,,,,,,,,,,,,,,,,,,,,,,120,001,2023_Jul_11_1731,SpeechDraft1Carolyn_lessNoise_PlusLocalization,2021.2.3,60.37507400672498,
chore.wav,chore.mpg,chore,2,AV,Pink_Noise_2_1.wav,Pink_Noise_2_2.wav,,,,,,,,,,,,,,,0,29,29,111,,,,,,,,,,,,,,,,,,,,,,,2391.278358083975,None,2392.77806646697,None,2394.1616734109703,None,chore,2394.1616734109703,None,return,0.8665242979768664,2394.2451117299497,None,,,,,,,,,,,,,,,,,,,,,,,,,,,,,,,,,120,001,2023_Jul_11_1731,SpeechDraft1Carolyn_lessNoise_PlusLocalization,2021.2.3,60.37507400672498,
style.wav,style.mpg,style,3,AV,Pink_Noise_3_1.wav,Pink_Noise_3_2.wav,,,,,,,,,,,,,,,0,30,30,119,,,,,,,,,,,,,,,,,,,,,,,2395.1284097019816,None,2396.6280252199504,None,2397.994817965955,None,style,2397.994817965955,None,return,1.1292003239504993,2398.0783367149998,None,,,,,,,,,,,,,,,,,,,,,,,,,,,,,,,,,120,001,2023_Jul_11_1731,SpeechDraft1Carolyn_lessNoise_PlusLocalization,2021.2.3,60.37507400672498,
float.wav,float.mpg,float,5,AV,Pink_Noise_5_1.wav,Pink_Noise_5_2.wav,,,,,,,,,,,,,,,0,31,31,106,,,,,,,,,,,,,,,,,,,,,,,2399.2282885859604,None,2400.7280177799985,None,2402.1115732499748,None,"dont
",2402.1115732499748,None,return,1.7005035280017182,2402.1950172199868,None,,,,,,,,,,,,,,,,,,,,,,,,,,,,,,,,,120,001,2023_Jul_11_1731,SpeechDraft1Carolyn_lessNoise_PlusLocalization,2021.2.3,60.37507400672498,
wound.wav,wound.mpg,wound,5,A,Pink_Noise_5_1.wav,Pink_Noise_5_2.wav,,,,,,,,,,,,,,,0,32,32,20,,,,,,,,,,,,,,,,,,,,,,,2403.9283037029672,None,2405.4280468389625,None,2406.811619754997,None,bees,2406.811619754997,None,return,1.0085687569808215,2406.8949491339736,None,,,,,,,,,,,,,,,,,,,,,,,,,,,,,,,,,120,001,2023_Jul_11_1731,SpeechDraft1Carolyn_lessNoise_PlusLocalization,2021.2.3,60.37507400672498,
blind.wav,blind.mpg,blind,4,A,Pink_Noise_4_1.wav,Pink_Noise_4_2.wav,,,,,,,,,,,,,,,0,33,33,34,,,,,,,,,,,,,,,,,,,,,,,2407.9283210569993,None,2409.4280702800024,None,2410.8117404099903,None,lives,2410.8117404099903,None,return,1.4487205320037901,2410.894927636953,None,,,,,,,,,,,,,,,,,,,,,,,,,,,,,,,,,120,001,2023_Jul_11_1731,SpeechDraft1Carolyn_lessNoise_PlusLocalization,2021.2.3,60.37507400672498,
fresh.wav,fresh.mpg,fresh,1,AV,Pink_Noise_1_1.wav,Pink_Noise_1_2.wav,,,,,,,,,,,,,,,0,34,34,91,,,,,,,,,,,,,,,,,,,,,,,2412.361690157966,None,2413.861465530994,None,2415.2450031149783,None,"fresh
",2415.2450031149783,None,return,1.119225851027295,2415.3282847119845,None,,,,,,,,,,,,,,,,,,,,,,,,,,,,,,,,,120,001,2023_Jul_11_1731,SpeechDraft1Carolyn_lessNoise_PlusLocalization,2021.2.3,60.37507400672498,
dead.wav,dead.mpg,dead,6,A,Pink_Noise_6_1.wav,Pink_Noise_6_2.wav,,,,,,,,,,,,,,,0,35,35,47,,,,,,,,,,,,,,,,,,,,,,,2416.478267211991,None,2417.961777518969,None,2419.3450115509913,None,"get
",2419.3450115509913,None,return,0.8351711800205521,2419.4283462219755,None,,,,,,,,,,,,,,,,,,,,,,,,,,,,,,,,,120,001,2023_Jul_11_1731,SpeechDraft1Carolyn_lessNoise_PlusLocalization,2021.2.3,60.37507400672498,
pact.wav,pact.mpg,pact,1,AV,Pink_Noise_1_1.wav,Pink_Noise_1_2.wav,,,,,,,,,,,,,,,0,36,36,63,,,,,,,,,,,,,,,,,,,,,,,2420.29551996995,None,2421.794753747992,None,2423.1784055009484,None,packed,2423.1784055009484,None,return,1.7219171919859946,2423.2618543689605,None,,,,,,,,,,,,,,,,,,,,,,,,,,,,,,,,,120,001,2023_Jul_11_1731,SpeechDraft1Carolyn_lessNoise_PlusLocalization,2021.2.3,60.37507400672498,
beer.wav,beer.mpg,beer,3,A,Pink_Noise_3_1.wav,Pink_Noise_3_2.wav,,,,,,,,,,,,,,,0,37,37,25,,,,,,,,,,,,,,,,,,,,,,,2425.011743260955,None,2426.5113652989967,None,2427.895091755956,None,beer,2427.895091755956,None,return,0.7411170190316625,2427.9783877459704,None,,,,,,,,,,,,,,,,,,,,,,,,,,,,,,,,,120,001,2023_Jul_11_1731,SpeechDraft1Carolyn_lessNoise_PlusLocalization,2021.2.3,60.37507400672498,
build.wav,build.mpg,build,6,AV,Pink_Noise_6_1.wav,Pink_Noise_6_2.wav,,,,,,,,,,,,,,,0,38,38,94,,,,,,,,,,,,,,,,,,,,,,,2428.7451142749633,None,2430.244844764995,None,2431.628289336979,None,spill,2431.628289336979,None,return,1.7438430100446567,2431.7116955249803,None,,,,,,,,,,,,,,,,,,,,,,,,,,,,,,,,,120,001,2023_Jul_11_1731,SpeechDraft1Carolyn_lessNoise_PlusLocalization,2021.2.3,60.37507400672498,
swamp.wav,swamp.mpg,swamp,4,AV,Pink_Noise_4_1.wav,Pink_Noise_4_2.wav,,,,,,,,,,,,,,,0,39,39,104,,,,,,,,,,,,,,,,,,,,,,,2433.478361570975,None,2434.9780825649505,None,2436.361636174959,None,swamp,2436.361636174959,None,return,2.79444633302046,2436.4450494239572,None,,,,,,,,,,,,,,,,,,,,,,,,,,,,,,,,,120,001,2023_Jul_11_1731,SpeechDraft1Carolyn_lessNoise_PlusLocalization,2021.2.3,60.37507400672498,
edge.wav,edge.mpg,edge,4,A,Pink_Noise_4_1.wav,Pink_Noise_4_2.wav,,,,,,,,,,,,,,,0,40,40,1,,,,,,,,,,,,,,,,,,,,,,,2439.2618023499963,None,2440.761354428949,None,2442.145146584953,None,edge,2442.145146584953,None,return,1.107331092003733,2442.228326332988,None,,,,,,,,,,,,,,,,,,,,,,,,,,,,,,,,,120,001,2023_Jul_11_1731,SpeechDraft1Carolyn_lessNoise_PlusLocalization,2021.2.3,60.37507400672498,
bribe.wav,bribe.mpg,bribe,2,A,Pink_Noise_2_1.wav,Pink_Noise_2_2.wav,,,,,,,,,,,,,,,0,41,41,46,,,,,,,,,,,,,,,,,,,,,,,2443.36163220898,None,2444.8615059519652,None,2446.2295547439717,None,"bribe
",2446.2295547439717,None,return,1.7678072559647262,2446.3117140249815,None,,,,,,,,,,,,,,,,,,,,,,,,,,,,,,,,,120,001,2023_Jul_11_1731,SpeechDraft1Carolyn_lessNoise_PlusLocalization,2021.2.3,60.37507400672498,
coin.wav,coin.mpg,coin,4,AV,Pink_Noise_4_1.wav,Pink_Noise_4_2.wav,,,,,,,,,,,,,,,0,42,42,117,,,,,,,,,,,,,,,,,,,,,,,2448.111702609982,None,2449.611490452953,None,2450.9949701989535,None,coy,2450.9949701989535,None,return,1.289235752017703,2451.078400022001,None,,,,,,,,,,,,,,,,,,,,,,,,,,,,,,,,,120,001,2023_Jul_11_1731,SpeechDraft1Carolyn_lessNoise_PlusLocalization,2021.2.3,60.37507400672498,
priest.wav,priest.mpg,priest,6,AV,Pink_Noise_6_1.wav,Pink_Noise_6_2.wav,,,,,,,,,,,,,,,0,43,43,115,,,,,,,,,,,,,,,,,,,,,,,2452.395014475973,None,2453.8947573729674,None,2455.278399423987,None,spritx,2455.278399423987,None,return,1.6058153480407782,2455.3618050689693,None,,,,,,,,,,,,,,,,,,,,,,,,,,,,,,,,,120,001,2023_Jul_11_1731,SpeechDraft1Carolyn_lessNoise_PlusLocalization,2021.2.3,60.37507400672498,
flake.wav,flake.mpg,flake,6,AV,Pink_Noise_6_1.wav,Pink_Noise_6_2.wav,,,,,,,,,,,,,,,0,44,44,89,,,,,,,,,,,,,,,,,,,,,,,2456.995066581003,None,2458.4947437649826,None,2459.8783180929604,None,spritz,2459.8783180929604,None,return,3.173866310971789,2459.9617519189487,None,,,,,,,,,,,,,,,,,,,,,,,,,,,,,,,,,120,001,2023_Jul_11_1731,SpeechDraft1Carolyn_lessNoise_PlusLocalization,2021.2.3,60.37507400672498,
flick.wav,flick.mpg,flick,3,AV,Pink_Noise_3_1.wav,Pink_Noise_3_2.wav,,,,,,,,,,,,,,,0,45,45,77,,,,,,,,,,,,,,,,,,,,,,,2463.161785995995,None,2464.6614640949992,None,2466.0449121259735,None,flick,2466.0449121259735,None,return,1.0950778650003485,2466.1284442659817,None,,,,,,,,,,,,,,,,,,,,,,,,,,,,,,,,,120,001,2023_Jul_11_1731,SpeechDraft1Carolyn_lessNoise_PlusLocalization,2021.2.3,60.37507400672498,
groan.wav,groan.mpg,groan,5,A,Pink_Noise_5_1.wav,Pink_Noise_5_2.wav,,,,,,,,,,,,,,,0,46,46,37,,,,,,,,,,,,,,,,,,,,,,,2467.245110570977,None,2468.7449274719693,None,2470.1284385749605,None,"clos
",2470.1284385749605,None,return,9.267743817996234,2470.2117745409487,None,,,,,,,,,,,,,,,,,,,,,,,,,,,,,,,,,120,001,2023_Jul_11_1731,SpeechDraft1Carolyn_lessNoise_PlusLocalization,2021.2.3,60.37507400672498,
draft.wav,draft.mpg,draft,6,AV,Pink_Noise_6_1.wav,Pink_Noise_6_2.wav,,,,,,,,,,,,,,,0,47,47,67,,,,,,,,,,,,,,,,,,,,,,,2479.512015775952,None,2481.011590656999,None,2482.395045725978,None,dry,2482.395045725978,None,return,1.121171516017057,2482.4783479779726,None,,,,,,,,,,,,,,,,,,,,,,,,,,,,,,,,,120,001,2023_Jul_11_1731,SpeechDraft1Carolyn_lessNoise_PlusLocalization,2021.2.3,60.37507400672498,
cap.wav,cap.mpg,cap,2,A,Pink_Noise_2_1.wav,Pink_Noise_2_2.wav,,,,,,,,,,,,,,,0,48,48,38,,,,,,,,,,,,,,,,,,,,,,,2483.6283623139607,None,2485.1281201109523,None,2486.511696250993,None,capped,2486.511696250993,None,return,1.612424150982406,2486.5950920399628,None,,,,,,,,,,,,,,,,,,,,,,,,,,,,,,,,,120,001,2023_Jul_11_1731,SpeechDraft1Carolyn_lessNoise_PlusLocalization,2021.2.3,60.37507400672498,
coy.wav,coy.mpg,coy,3,A,Pink_Noise_3_1.wav,Pink_Noise_3_2.wav,,,,,,,,,,,,,,,0,49,49,21,,,,,,,,,,,,,,,,,,,,,,,2488.2284992219647,None,2489.7281676279963,None,2491.1118787459563,None,coy,2491.1118787459563,None,return,0.924434439977631,2491.195094413997,None,,,,,,,,,,,,,,,,,,,,,,,,,,,,,,,,,120,001,2023_Jul_11_1731,SpeechDraft1Carolyn_lessNoise_PlusLocalization,2021.2.3,60.37507400672498,
bless.wav,bless.mpg,bless,4,AV,Pink_Noise_4_1.wav,Pink_Noise_4_2.wav,,,,,,,,,,,,,,,0,50,50,82,,,,,,,,,,,,,,,,,,,,,,,2492.145075551991,None,2493.6448121119756,None,2495.0284431749606,None,bless,2495.0284431749606,None,return,0.9276523419539444,2495.111844237952,None,,,,,,,,,,,,,,,,,,,,,,,,,,,,,,,,,120,001,2023_Jul_11_1731,SpeechDraft1Carolyn_lessNoise_PlusLocalization,2021.2.3,60.37507400672498,
grief.wav,grief.mpg,grief,2,A,Pink_Noise_2_1.wav,Pink_Noise_2_2.wav,,,,,,,,,,,,,,,0,51,51,22,,,,,,,,,,,,,,,,,,,,,,,2496.061883107992,None,2497.5616286249715,None,2498.94513163995,None,grief,2498.94513163995,None,return,1.7550801580073312,2499.0284858479863,None,,,,,,,,,,,,,,,,,,,,,,,,,,,,,,,,,120,001,2023_Jul_11_1731,SpeechDraft1Carolyn_lessNoise_PlusLocalization,2021.2.3,60.37507400672498,
fad.wav,fad.mpg,fad,1,A,Pink_Noise_1_1.wav,Pink_Noise_1_2.wav,,,,,,,,,,,,,,,0,52,52,40,,,,,,,,,,,,,,,,,,,,,,,2500.8118033539504,None,2502.311482221994,None,2503.6951105689513,None,"fad
",2503.6951105689513,None,return,0.917044984002132,2503.7784772669547,None,,,,,,,,,,,,,,,,,,,,,,,,,,,,,,,,,120,001,2023_Jul_11_1731,SpeechDraft1Carolyn_lessNoise_PlusLocalization,2021.2.3,60.37507400672498,
quit.wav,quit.mpg,quit,3,AV,Pink_Noise_3_1.wav,Pink_Noise_3_2.wav,,,,,,,,,,,,,,,0,53,53,81,,,,,,,,,,,,,,,,,,,,,,,2504.7284709299565,None,2506.2282044139574,None,2507.61181105196,None,quit,2507.61181105196,None,return,0.9044003760209307,2507.6951166579966,None,,,,,,,,,,,,,,,,,,,,,,,,,,,,,,,,,120,001,2023_Jul_11_1731,SpeechDraft1Carolyn_lessNoise_PlusLocalization,2021.2.3,60.37507400672498,
crook.wav,crook.mpg,crook,2,AV,Pink_Noise_2_1.wav,Pink_Noise_2_2.wav,,,,,,,,,,,,,,,0,54,54,95,,,,,,,,,,,,,,,,,,,,,,,2508.6284813379752,None,2510.1282171409694,None,2511.5119018979603,None,"crook
",2511.5119018979603,None,return,2.4843269290286116,2511.595186994993,None,,,,,,,,,,,,,,,,,,,,,,,,,,,,,,,,,120,001,2023_Jul_11_1731,SpeechDraft1Carolyn_lessNoise_PlusLocalization,2021.2.3,60.37507400672498,
grasp.wav,grasp.mpg,grasp,1,AV,Pink_Noise_1_1.wav,Pink_Noise_1_2.wav,,,,,,,,,,,,,,,0,55,55,71,,,,,,,,,,,,,,,,,,,,,,,2514.111704271985,None,2515.6116086010006,None,2516.995075379964,None,grasp,2516.995075379964,None,return,1.313048448995687,2517.0785647039884,None,,,,,,,,,,,,,,,,,,,,,,,,,,,,,,,,,120,001,2023_Jul_11_1731,SpeechDraft1Carolyn_lessNoise_PlusLocalization,2021.2.3,60.37507400672498,
bread.wav,bread.mpg,bread,4,A,Pink_Noise_4_1.wav,Pink_Noise_4_2.wav,,,,,,,,,,,,,,,0,56,56,19,,,,,,,,,,,,,,,,,,,,,,,2518.4119098349474,None,2519.91149929096,None,2521.2951343999594,None,"ledg
",2521.2951343999594,None,return,1.0690969499992207,2521.378416006977,None,,,,,,,,,,,,,,,,,,,,,,,,,,,,,,,,,120,001,2023_Jul_11_1731,SpeechDraft1Carolyn_lessNoise_PlusLocalization,2021.2.3,60.37507400672498,
toast.wav,toast.mpg,toast,4,AV,Pink_Noise_4_1.wav,Pink_Noise_4_2.wav,,,,,,,,,,,,,,,0,57,57,100,,,,,,,,,,,,,,,,,,,,,,,2522.4784141809796,None,2523.9782359929522,None,2525.3617862669635,None,toast,2525.3617862669635,None,return,1.6103473809780553,2525.4452085629455,None,,,,,,,,,,,,,,,,,,,,,,,,,,,,,,,,,120,001,2023_Jul_11_1731,SpeechDraft1Carolyn_lessNoise_PlusLocalization,2021.2.3,60.37507400672498,
bark.wav,bark.mpg,bark,4,A,Pink_Noise_4_1.wav,Pink_Noise_4_2.wav,,,,,,,,,,,,,,,0,58,58,41,,,,,,,,,,,,,,,,,,,,,,,2527.078525410965,None,2528.578197362949,None,2529.9619669389795,None,part,2529.9619669389795,None,return,2.3304177980171517,2530.045165548974,None,,,,,,,,,,,,,,,,,,,,,,,,,,,,,,,,,120,001,2023_Jul_11_1731,SpeechDraft1Carolyn_lessNoise_PlusLocalization,2021.2.3,60.37507400672498,
coat.wav,coat.mpg,coat,1,A,Pink_Noise_1_1.wav,Pink_Noise_1_2.wav,,,,,,,,,,,,,,,0,59,59,55,,,,,,,,,,,,,,,,,,,,,,,2532.3952034679824,None,2533.8948509219917,None,2535.2784791360027,None,coat,2535.2784791360027,None,return,1.2616760169621557,2535.361846205953,None,,,,,,,,,,,,,,,,,,,,,,,,,,,,,,,,,120,001,2023_Jul_11_1731,SpeechDraft1Carolyn_lessNoise_PlusLocalization,2021.2.3,60.37507400672498,
card.wav,card.mpg,card,4,A,Pink_Noise_4_1.wav,Pink_Noise_4_2.wav,,,,,,,,,,,,,,,0,60,60,39,,,,,,,,,,,,,,,,,,,,,,,2536.645056707959,None,2538.1449288409785,None,2539.5285264909617,None,tardy,2539.5285264909617,None,return,1.9876632239902392,2539.611845532956,None,,,,,,,,,,,,,,,,,,,,,,,,,,,,,,,,,120,001,2023_Jul_11_1731,SpeechDraft1Carolyn_lessNoise_PlusLocalization,2021.2.3,60.37507400672498,
bible.wav,bible.mpg,bible,3,A,Pink_Noise_3_1.wav,Pink_Noise_3_2.wav,,,,,,,,,,,,,,,0,61,61,45,,,,,,,,,,,,,,,,,,,,,,,2541.628483828972,None,2543.128310034983,None,2544.511892002949,None,bible,2544.511892002949,None,return,1.644356409960892,2544.5951515599736,None,,,,,,,,,,,,,,,,,,,,,,,,,,,,,,,,,120,001,2023_Jul_11_1731,SpeechDraft1Carolyn_lessNoise_PlusLocalization,2021.2.3,60.37507400672498,
cape.wav,cape.mpg,cape,1,AV,Pink_Noise_1_1.wav,Pink_Noise_1_2.wav,,,,,,,,,,,,,,,0,62,62,98,,,,,,,,,,,,,,,,,,,,,,,2546.2620036389562,None,2547.76158811996,None,2549.1451765119564,None,cape,2549.1451765119564,None,return,1.1631469310377724,2549.2284740149626,None,,,,,,,,,,,,,,,,,,,,,,,,,,,,,,,,,120,001,2023_Jul_11_1731,SpeechDraft1Carolyn_lessNoise_PlusLocalization,2021.2.3,60.37507400672498,
freak.wav,freak.mpg,freak,5,A,Pink_Noise_5_1.wav,Pink_Noise_5_2.wav,,,,,,,,,,,,,,,0,63,63,43,,,,,,,,,,,,,,,,,,,,,,,2550.4118351359502,None,2551.91159713699,None,2553.2951502039796,None,spruce,2553.2951502039796,None,return,5.924997422960587,2553.3785324249766,None,,,,,,,,,,,,,,,,,,,,,,,,,,,,,,,,,120,001,2023_Jul_11_1731,SpeechDraft1Carolyn_lessNoise_PlusLocalization,2021.2.3,60.37507400672498,
freeze.wav,freeze.mpg,freeze,3,A,Pink_Noise_3_1.wav,Pink_Noise_3_2.wav,,,,,,,,,,,,,,,0,64,64,28,,,,,,,,,,,,,,,,,,,,,,,2559.3284653959563,None,2560.828345291957,None,2562.2119105369784,None,praise,2562.2119105369784,None,return,1.7282974659465253,2562.2952152299695,None,,,,,,,,,,,,,,,,,,,,,,,,,,,,,,,,,120,001,2023_Jul_11_1731,SpeechDraft1Carolyn_lessNoise_PlusLocalization,2021.2.3,60.37507400672498,
fail.wav,fail.mpg,fail,5,AV,Pink_Noise_5_1.wav,Pink_Noise_5_2.wav,,,,,,,,,,,,,,,0,65,65,113,,,,,,,,,,,,,,,,,,,,,,,2564.0454157189815,None,2565.5449548379984,None,2566.9284180579707,None,"fail
",2566.9284180579707,None,return,1.6836859629838727,2567.011810390977,None,,,,,,,,,,,,,,,,,,,,,,,,,,,,,,,,,120,001,2023_Jul_11_1731,SpeechDraft1Carolyn_lessNoise_PlusLocalization,2021.2.3,60.37507400672498,
grant.wav,grant.mpg,grant,1,A,Pink_Noise_1_1.wav,Pink_Noise_1_2.wav,,,,,,,,,,,,,,,0,66,66,5,,,,,,,,,,,,,,,,,,,,,,,2568.7286505379598,None,2570.2286449739477,None,2571.611954158987,None,grant,2571.611954158987,None,return,1.1603055510204285,2571.695237797976,None,,,,,,,,,,,,,,,,,,,,,,,,,,,,,,,,,120,001,2023_Jul_11_1731,SpeechDraft1Carolyn_lessNoise_PlusLocalization,2021.2.3,60.37507400672498,
flair.wav,flair.mpg,flair,2,AV,Pink_Noise_2_1.wav,Pink_Noise_2_2.wav,,,,,,,,,,,,,,,0,67,67,107,,,,,,,,,,,,,,,,,,,,,,,2572.878591850982,None,2574.3782901749946,None,2575.7617701579584,None,flare,2575.7617701579584,None,return,5.7942718449630775,2575.845249361999,None,,,,,,,,,,,,,,,,,,,,,,,,,,,,,,,,,120,001,2023_Jul_11_1731,SpeechDraft1Carolyn_lessNoise_PlusLocalization,2021.2.3,60.37507400672498,
grind.wav,grind.mpg,grind,6,A,Pink_Noise_6_1.wav,Pink_Noise_6_2.wav,,,,,,,,,,,,,,,0,68,68,27,,,,,,,,,,,,,,,,,,,,,,,2581.6619099669624,None,2583.1615588109707,None,2584.545217251987,None,star,2584.545217251987,None,return,1.7789009270491078,2584.628605918959,None,,,,,,,,,,,,,,,,,,,,,,,,,,,,,,,,,120,001,2023_Jul_11_1731,SpeechDraft1Carolyn_lessNoise_PlusLocalization,2021.2.3,60.37507400672498,
solve.wav,solve.mpg,solve,2,AV,Pink_Noise_2_1.wav,Pink_Noise_2_2.wav,,,,,,,,,,,,,,,0,69,69,108,,,,,,,,,,,,,,,,,,,,,,,2586.42857878597,None,2587.928282769979,None,2589.311930073949,None,solve,2589.311930073949,None,return,1.1162980709923431,2589.395281534991,None,,,,,,,,,,,,,,,,,,,,,,,,,,,,,,,,,120,001,2023_Jul_11_1731,SpeechDraft1Carolyn_lessNoise_PlusLocalization,2021.2.3,60.37507400672498,
gang.wav,gang.mpg,gang,2,A,Pink_Noise_2_1.wav,Pink_Noise_2_2.wav,,,,,,,,,,,,,,,0,70,70,12,,,,,,,,,,,,,,,,,,,,,,,2590.5286963109975,None,2592.028589728987,None,2593.411879128951,None,gang,2593.411879128951,None,return,1.0803156040492468,2593.4952623269637,None,,,,,,,,,,,,,,,,,,,,,,,,,,,,,,,,,120,001,2023_Jul_11_1731,SpeechDraft1Carolyn_lessNoise_PlusLocalization,2021.2.3,60.37507400672498,
tear.wav,tear.mpg,tear,5,AV,Pink_Noise_5_1.wav,Pink_Noise_5_2.wav,,,,,,,,,,,,,,,0,71,71,70,,,,,,,,,,,,,,,,,,,,,,,2594.595279383997,None,2596.094991660968,None,2597.4786905459478,None,nair,2597.4786905459478,None,return,1.0457407829817384,2597.561809427978,None,,,,,,,,,,,,,,,,,,,,,,,,,,,,,,,,,120,001,2023_Jul_11_1731,SpeechDraft1Carolyn_lessNoise_PlusLocalization,2021.2.3,60.37507400672498,
bed.wav,bed.mpg,bed,3,AV,Pink_Noise_3_1.wav,Pink_Noise_3_2.wav,,,,,,,,,,,,,,,0,72,72,88,,,,,,,,,,,,,,,,,,,,,,,2598.6286211969564,None,2600.128299459,None,2601.511761479953,None,bed,2601.511761479953,None,return,2.2602884210064076,2601.595249041973,None,,,,,,,,,,,,,,,,,,,,,,,,,,,,,,,,,120,001,2023_Jul_11_1731,SpeechDraft1Carolyn_lessNoise_PlusLocalization,2021.2.3,60.37507400672498,
brown.wav,brown.mpg,brown,6,AV,Pink_Noise_6_1.wav,Pink_Noise_6_2.wav,,,,,,,,,,,,,,,0,73,73,87,,,,,,,,,,,,,,,,,,,,,,,2603.878507898946,None,2605.3782521209796,None,2606.761821916967,None,"wow
",2606.761821916967,None,return,0.986157908977475,2606.845362819964,None,,,,,,,,,,,,,,,,,,,,,,,,,,,,,,,,,120,001,2023_Jul_11_1731,SpeechDraft1Carolyn_lessNoise_PlusLocalization,2021.2.3,60.37507400672498,
ball.wav,ball.mpg,ball,1,AV,Pink_Noise_1_1.wav,Pink_Noise_1_2.wav,,,,,,,,,,,,,,,0,74,74,60,,,,,,,,,,,,,,,,,,,,,,,2607.8619833379635,None,2609.3617019429803,None,2610.7452983899857,None,ball,2610.7452983899857,None,return,1.4830799199989997,2610.8285957409535,None,,,,,,,,,,,,,,,,,,,,,,,,,,,,,,,,,120,001,2023_Jul_11_1731,SpeechDraft1Carolyn_lessNoise_PlusLocalization,2021.2.3,60.37507400672498,
grip.wav,grip.mpg,grip,5,A,Pink_Noise_5_1.wav,Pink_Noise_5_2.wav,,,,,,,,,,,,,,,0,75,75,3,,,,,,,,,,,,,,,,,,,,,,,2612.328568825964,None,2613.8284357599914,None,2615.2118301969604,None,let,2615.2118301969604,None,return,1.8883054400212131,2615.2952776209568,None,,,,,,,,,,,,,,,,,,,,,,,,,,,,,,,,,120,001,2023_Jul_11_1731,SpeechDraft1Carolyn_lessNoise_PlusLocalization,2021.2.3,60.37507400672498,
bag.wav,bag.mpg,bag,1,AV,Pink_Noise_1_1.wav,Pink_Noise_1_2.wav,,,,,,,,,,,,,,,0,76,76,93,,,,,,,,,,,,,,,,,,,,,,,2617.2120198979974,None,2618.7116992359515,None,2620.0952045579907,None,"bag
",2620.0952045579907,None,return,0.8529658280313015,2620.178559882974,None,,,,,,,,,,,,,,,,,,,,,,,,,,,,,,,,,120,001,2023_Jul_11_1731,SpeechDraft1Carolyn_lessNoise_PlusLocalization,2021.2.3,60.37507400672498,
desk.wav,desk.mpg,desk,6,A,Pink_Noise_6_1.wav,Pink_Noise_6_2.wav,,,,,,,,,,,,,,,0,77,77,7,,,,,,,,,,,,,,,,,,,,,,,2621.06200788595,None,2622.561735782947,None,2623.945372735965,None,dont,2623.945372735965,None,return,2.1628784849890508,2624.0287211249815,None,,,,,,,,,,,,,,,,,,,,,,,,,,,,,,,,,120,001,2023_Jul_11_1731,SpeechDraft1Carolyn_lessNoise_PlusLocalization,2021.2.3,60.37507400672498,
clutch.wav,clutch.mpg,clutch,5,A,Pink_Noise_5_1.wav,Pink_Noise_5_2.wav,,,,,,,,,,,,,,,0,78,78,56,,,,,,,,,,,,,,,,,,,,,,,2626.2119764579693,None,2627.712191378989,None,2629.0953018110013,None,clutch,2629.0953018110013,None,return,1.324712075991556,2629.1787902200012,None,,,,,,,,,,,,,,,,,,,,,,,,,,,,,,,,,120,001,2023_Jul_11_1731,SpeechDraft1Carolyn_lessNoise_PlusLocalization,2021.2.3,60.37507400672498,
axe.wav,axe.mpg,axe,4,A,Pink_Noise_4_1.wav,Pink_Noise_4_2.wav,,,,,,,,,,,,,,,0,79,79,32,,,,,,,,,,,,,,,,,,,,,,,2630.528710323968,None,2632.0449364759843,None,2633.4286806389573,None,"ask
",2633.4286806389573,None,return,1.951608308008872,2633.5119086019695,None,,,,,,,,,,,,,,,,,,,,,,,,,,,,,,,,,120,001,2023_Jul_11_1731,SpeechDraft1Carolyn_lessNoise_PlusLocalization,2021.2.3,60.37507400672498,
fable.wav,fable.mpg,fable,3,AV,Pink_Noise_3_1.wav,Pink_Noise_3_2.wav,,,,,,,,,,,,,,,0,80,80,90,,,,,,,,,,,,,,,,,,,,,,,2635.4953157189884,None,2637.0118039079825,None,2638.395304660953,None,fable,2638.395304660953,None,return,1.6329260669881478,2638.478695172991,None,,,,,,,,,,,,,,,,,,,,,,,,,,,,,,,,,120,001,2023_Jul_11_1731,SpeechDraft1Carolyn_lessNoise_PlusLocalization,2021.2.3,60.37507400672498,
fowl.wav,fowl.mpg,fowl,2,AV,Pink_Noise_2_1.wav,Pink_Noise_2_2.wav,,,,,,,,,,,,,,,0,81,81,103,,,,,,,,,,,,,,,,,,,,,,,2640.1286393529736,None,2641.645032774948,None,2643.029834093002,None,fowl,2643.029834093002,None,return,1.031509438995272,2643.1120620149886,None,,,,,,,,,,,,,,,,,,,,,,,,,,,,,,,,,120,001,2023_Jul_11_1731,SpeechDraft1Carolyn_lessNoise_PlusLocalization,2021.2.3,60.37507400672498,
gulp.wav,gulp.mpg,gulp,4,A,Pink_Noise_4_1.wav,Pink_Noise_4_2.wav,,,,,,,,,,,,,,,0,82,82,8,,,,,,,,,,,,,,,,,,,,,,,2644.162015078997,None,2645.661743609002,None,2647.0453009469784,None,goat,2647.0453009469784,None,return,1.0629551180172712,2647.128594779002,None,,,,,,,,,,,,,,,,,,,,,,,,,,,,,,,,,120,001,2023_Jul_11_1731,SpeechDraft1Carolyn_lessNoise_PlusLocalization,2021.2.3,60.37507400672498,
chow.wav,chow.mpg,chow,5,AV,Pink_Noise_5_1.wav,Pink_Noise_5_2.wav,,,,,,,,,,,,,,,0,83,83,65,,,,,,,,,,,,,,,,,,,,,,,2648.212069538946,None,2649.7126410059864,None,2651.095245806966,None,chow,2651.095245806966,None,return,1.2048431730363518,2651.1787519799545,None,,,,,,,,,,,,,,,,,,,,,,,,,,,,,,,,,120,001,2023_Jul_11_1731,SpeechDraft1Carolyn_lessNoise_PlusLocalization,2021.2.3,60.37507400672498,
ton.wav,ton.mpg,ton,1,A,Pink_Noise_1_1.wav,Pink_Noise_1_2.wav,,,,,,,,,,,,,,,0,84,84,23,,,,,,,,,,,,,,,,,,,,,,,2652.411988809996,None,2653.9283295059577,None,2655.312068004976,None,time,2655.312068004976,None,return,0.7082302210037597,2655.395290403976,None,,,,,,,,,,,,,,,,,,,,,,,,,,,,,,,,,120,001,2023_Jul_11_1731,SpeechDraft1Carolyn_lessNoise_PlusLocalization,2021.2.3,60.37507400672498,
bland.wav,bland.mpg,bland,2,A,Pink_Noise_2_1.wav,Pink_Noise_2_2.wav,,,,,,,,,,,,,,,0,85,85,36,,,,,,,,,,,,,,,,,,,,,,,2656.1286392439506,None,2657.6283311709994,None,2659.013078452961,None,bland,2659.013078452961,None,return,0.9041598309995607,2659.0953561569913,None,,,,,,,,,,,,,,,,,,,,,,,,,,,,,,,,,120,001,2023_Jul_11_1731,SpeechDraft1Carolyn_lessNoise_PlusLocalization,2021.2.3,60.37507400672498,
blaze.wav,blaze.mpg,blaze,2,A,Pink_Noise_2_1.wav,Pink_Noise_2_2.wav,,,,,,,,,,,,,,,0,86,86,24,,,,,,,,,,,,,,,,,,,,,,,2660.0286166860024,None,2661.5451011629775,None,2662.928668643988,None,"place
",2662.928668643988,None,return,2.4835697019589134,2663.01194003399,None,,,,,,,,,,,,,,,,,,,,,,,,,,,,,,,,,120,001,2023_Jul_11_1731,SpeechDraft1Carolyn_lessNoise_PlusLocalization,2021.2.3,60.37507400672498,
ease.wav,ease.mpg,ease,1,A,Pink_Noise_1_1.wav,Pink_Noise_1_2.wav,,,,,,,,,,,,,,,0,87,87,52,,,,,,,,,,,,,,,,,,,,,,,2665.528749815945,None,2667.045076159993,None,2668.428655348951,None,ease,2668.428655348951,None,return,0.8873664159909822,2668.5121520699468,None,,,,,,,,,,,,,,,,,,,,,,,,,,,,,,,,,120,001,2023_Jul_11_1731,SpeechDraft1Carolyn_lessNoise_PlusLocalization,2021.2.3,60.37507400672498,
news.wav,news.mpg,news,1,AV,Pink_Noise_1_1.wav,Pink_Noise_1_2.wav,,,,,,,,,,,,,,,0,88,88,112,,,,,,,,,,,,,,,,,,,,,,,2669.42868751497,None,2670.945184162003,None,2672.3285881969496,None,news,2672.3285881969496,None,return,0.8114355680299923,2672.4120855189976,None,,,,,,,,,,,,,,,,,,,,,,,,,,,,,,,,,120,001,2023_Jul_11_1731,SpeechDraft1Carolyn_lessNoise_PlusLocalization,2021.2.3,60.37507400672498,
traps.wav,traps.mpg,traps,6,A,Pink_Noise_6_1.wav,Pink_Noise_6_2.wav,,,,,,,,,,,,,,,0,89,89,18,,,,,,,,,,,,,,,,,,,,,,,2673.2454389289487,None,2674.761722805968,None,2676.1288314569974,None,"times
",2676.1288314569974,None,return,2.2035289789782837,2676.211980926979,None,,,,,,,,,,,,,,,,,,,,,,,,,,,,,,,,,120,001,2023_Jul_11_1731,SpeechDraft1Carolyn_lessNoise_PlusLocalization,2021.2.3,60.37507400672498,
sake.wav,sake.mpg,sake,1,A,Pink_Noise_1_1.wav,Pink_Noise_1_2.wav,,,,,,,,,,,,,,,0,90,90,15,,,,,,,,,,,,,,,,,,,,,,,2678.445381375961,None,2679.9451094839606,None,2681.3287406819873,None,sick,2681.3287406819873,None,return,0.699687129992526,2681.412027265993,None,,,,,,,,,,,,,,,,,,,,,,,,,,,,,,,,,120,001,2023_Jul_11_1731,SpeechDraft1Carolyn_lessNoise_PlusLocalization,2021.2.3,60.37507400672498,
drum.wav,drum.mpg,drum,4,AV,Pink_Noise_4_1.wav,Pink_Noise_4_2.wav,,,,,,,,,,,,,,,0,91,91,68,,,,,,,,,,,,,,,,,,,,,,,2682.1286642059567,None,2683.645017375995,None,2685.028714305954,None,"drop
",2685.028714305954,None,return,0.9833968820166774,2685.1121174899745,None,,,,,,,,,,,,,,,,,,,,,,,,,,,,,,,,,120,001,2023_Jul_11_1731,SpeechDraft1Carolyn_lessNoise_PlusLocalization,2021.2.3,60.37507400672498,
drab.wav,drab.mpg,drab,6,AV,Pink_Noise_6_1.wav,Pink_Noise_6_2.wav,,,,,,,,,,,,,,,0,92,92,76,,,,,,,,,,,,,,,,,,,,,,,2686.128790704999,None,2687.645117777982,None,2689.028688899998,None,"strap
",2689.028688899998,None,return,1.1354322609840892,2689.1120954709477,None,,,,,,,,,,,,,,,,,,,,,,,,,,,,,,,,,120,001,2023_Jul_11_1731,SpeechDraft1Carolyn_lessNoise_PlusLocalization,2021.2.3,60.37507400672498,
brash.wav,brash.mpg,brash,4,AV,Pink_Noise_4_1.wav,Pink_Noise_4_2.wav,,,,,,,,,,,,,,,0,93,93,74,,,,,,,,,,,,,,,,,,,,,,,2690.2792096009944,None,2691.7950781639665,None,2693.17867936095,None,brush,2693.17867936095,None,return,4.409386948973406,2693.262116200989,None,,,,,,,,,,,,,,,,,,,,,,,,,,,,,,,,,120,001,2023_Jul_11_1731,SpeechDraft1Carolyn_lessNoise_PlusLocalization,2021.2.3,60.37507400672498,
grab.wav,grab.mpg,grab,5,A,Pink_Noise_5_1.wav,Pink_Noise_5_2.wav,,,,,,,,,,,,,,,0,94,94,44,,,,,,,,,,,,,,,,,,,,,,,2697.695371114998,None,2699.2117209049757,None,2700.5955679839826,None,cry,2700.5955679839826,None,return,1.0409254310070537,2700.6786062030005,None,,,,,,,,,,,,,,,,,,,,,,,,,,,,,,,,,120,001,2023_Jul_11_1731,SpeechDraft1Carolyn_lessNoise_PlusLocalization,2021.2.3,60.37507400672498,
dial.wav,dial.mpg,dial,4,AV,Pink_Noise_4_1.wav,Pink_Noise_4_2.wav,,,,,,,,,,,,,,,0,95,95,114,,,,,,,,,,,,,,,,,,,,,,,2701.745435172983,None,2703.2618896019994,None,2704.645323534962,None,diet,2704.645323534962,None,return,1.5587023310363293,2704.7288090519723,None,,,,,,,,,,,,,,,,,,,,,,,,,,,,,,,,,120,001,2023_Jul_11_1731,SpeechDraft1Carolyn_lessNoise_PlusLocalization,2021.2.3,60.37507400672498,
boat.wav,boat.mpg,boat,1,A,Pink_Noise_1_1.wav,Pink_Noise_1_2.wav,,,,,,,,,,,,,,,0,96,96,59,,,,,,,,,,,,,,,,,,,,,,,2706.312042988953,None,2707.8284831399797,None,2709.2120343589922,None,boat,2709.2120343589922,None,return,2.4482546930084936,2709.2953633009456,None,,,,,,,,,,,,,,,,,,,,,,,,,,,,,,,,,120,001,2023_Jul_11_1731,SpeechDraft1Carolyn_lessNoise_PlusLocalization,2021.2.3,60.37507400672498,
clot.wav,clot.mpg,clot,4,AV,Pink_Noise_4_1.wav,Pink_Noise_4_2.wav,,,,,,,,,,,,,,,0,97,97,97,,,,,,,,,,,,,,,,,,,,,,,2711.762018428999,None,2713.2617975919857,None,2714.645399098983,None,clasp,2714.645399098983,None,return,2.230795345036313,2714.7287498579826,None,,,,,,,,,,,,,,,,,,,,,,,,,,,,,,,,,120,001,2023_Jul_11_1731,SpeechDraft1Carolyn_lessNoise_PlusLocalization,2021.2.3,60.37507400672498,
bride.wav,bride.mpg,bride,6,A,Pink_Noise_6_1.wav,Pink_Noise_6_2.wav,,,,,,,,,,,,,,,0,98,98,58,,,,,,,,,,,,,,,,,,,,,,,2716.978759393969,None,2718.495176283992,None,2719.8788029669668,None,dry,2719.8788029669668,None,return,2.7815389439929277,2719.9620675139595,None,,,,,,,,,,,,,,,,,,,,,,,,,,,,,,,,,120,001,2023_Jul_11_1731,SpeechDraft1Carolyn_lessNoise_PlusLocalization,2021.2.3,60.37507400672498,
shed.wav,shed.mpg,shed,5,AV,Pink_Noise_5_1.wav,Pink_Noise_5_2.wav,,,,,,,,,,,,,,,0,99,99,78,,,,,,,,,,,,,,,,,,,,,,,2722.762063706992,None,2724.295056856994,None,2725.678839272994,None,jen,2725.678839272994,None,return,1.765528517018538,2725.7621416639886,None,,,,,,,,,,,,,,,,,,,,,,,,,,,,,,,,,120,001,2023_Jul_11_1731,SpeechDraft1Carolyn_lessNoise_PlusLocalization,2021.2.3,60.37507400672498,
curve.wav,curve.mpg,curve,2,AV,Pink_Noise_2_1.wav,Pink_Noise_2_2.wav,,,,,,,,,,,,,,,0,100,100,79,,,,,,,,,,,,,,,,,,,,,,,2727.5454255289515,None,2729.0619243169785,None,2730.4455162509694,None,curve,2730.4455162509694,None,return,1.07061152003007,2730.5288990909467,None,,,,,,,,,,,,,,,,,,,,,,,,,,,,,,,,,120,001,2023_Jul_11_1731,SpeechDraft1Carolyn_lessNoise_PlusLocalization,2021.2.3,60.37507400672498,
draw.wav,draw.mpg,draw,5,AV,Pink_Noise_5_1.wav,Pink_Noise_5_2.wav,,,,,,,,,,,,,,,0,101,101,62,,,,,,,,,,,,,,,,,,,,,,,2731.6288706779596,None,2733.145139069995,None,2734.5288335199584,None,"draw
",2734.5288335199584,None,return,1.2192714310367592,2734.6122367699863,None,,,,,,,,,,,,,,,,,,,,,,,,,,,,,,,,,120,001,2023_Jul_11_1731,SpeechDraft1Carolyn_lessNoise_PlusLocalization,2021.2.3,60.37507400672498,
bird.wav,bird.mpg,bird,5,A,Pink_Noise_5_1.wav,Pink_Noise_5_2.wav,,,,,,,,,,,,,,,0,102,102,53,,,,,,,,,,,,,,,,,,,,,,,2735.8620753219584,None,2737.3785556639777,None,2738.76215354295,None,bird,2738.76215354295,None,return,1.2100585909793153,2738.8454718559515,None,,,,,,,,,,,,,,,,,,,,,,,,,,,,,,,,,120,001,2023_Jul_11_1731,SpeechDraft1Carolyn_lessNoise_PlusLocalization,2021.2.3,60.37507400672498,
blink.wav,blink.mpg,blink,1,AV,Pink_Noise_1_1.wav,Pink_Noise_1_2.wav,,,,,,,,,,,,,,,0,103,103,75,,,,,,,,,,,,,,,,,,,,,,,2740.078932702949,None,2741.5952118839487,None,2742.97889532696,None,blink,2742.97889532696,None,return,1.977389775973279,2743.0621429629973,None,,,,,,,,,,,,,,,,,,,,,,,,,,,,,,,,,120,001,2023_Jul_11_1731,SpeechDraft1Carolyn_lessNoise_PlusLocalization,2021.2.3,60.37507400672498,
stove.wav,stove.mpg,stove,3,A,Pink_Noise_3_1.wav,Pink_Noise_3_2.wav,,,,,,,,,,,,,,,0,104,104,6,,,,,,,,,,,,,,,,,,,,,,,2745.0621151189553,None,2746.578556267952,None,2747.962105008948,None,stove,2747.962105008948,None,return,1.0261520119966008,2748.0453725379775,None,,,,,,,,,,,,,,,,,,,,,,,,,,,,,,,,,120,001,2023_Jul_11_1731,SpeechDraft1Carolyn_lessNoise_PlusLocalization,2021.2.3,60.37507400672498,
chin.wav,chin.mpg,chin,6,A,Pink_Noise_6_1.wav,Pink_Noise_6_2.wav,,,,,,,,,,,,,,,0,105,105,0,,,,,,,,,,,,,,,,,,,,,,,2749.095389819995,None,2750.595235435001,None,2751.978872554959,None,"chair
",2751.978872554959,None,return,1.1533358930028044,2752.0621768949786,None,,,,,,,,,,,,,,,,,,,,,,,,,,,,,,,,,120,001,2023_Jul_11_1731,SpeechDraft1Carolyn_lessNoise_PlusLocalization,2021.2.3,60.37507400672498,
gum.wav,gum.mpg,gum,6,AV,Pink_Noise_6_1.wav,Pink_Noise_6_2.wav,,,,,,,,,,,,,,,0,106,106,110,,,,,,,,,,,,,,,,,,,,,,,2753.245515674993,None,2754.7618811649736,None,2756.145450047974,None,gulp,2756.145450047974,None,return,1.2427165000117384,2756.2287776069716,None,,,,,,,,,,,,,,,,,,,,,,,,,,,,,,,,,120,001,2023_Jul_11_1731,SpeechDraft1Carolyn_lessNoise_PlusLocalization,2021.2.3,60.37507400672498,
gag.wav,gag.mpg,gag,1,A,Pink_Noise_1_1.wav,Pink_Noise_1_2.wav,,,,,,,,,,,,,,,0,107,107,54,,,,,,,,,,,,,,,,,,,,,,,2757.495530377957,None,2759.028581724968,None,2760.4122315119603,None,gag,2760.4122315119603,None,return,0.7440568889724091,2760.4954495009733,None,,,,,,,,,,,,,,,,,,,,,,,,,,,,,,,,,120,001,2023_Jul_11_1731,SpeechDraft1Carolyn_lessNoise_PlusLocalization,2021.2.3,60.37507400672498,
due.wav,due.mpg,due,4,AV,Pink_Noise_4_1.wav,Pink_Noise_4_2.wav,,,,,,,,,,,,,,,0,108,108,64,,,,,,,,,,,,,,,,,,,,,,,2761.2621284939814,None,2762.7785626739496,None,2764.162196085963,None,due,2764.162196085963,None,return,4.3461276399903,2764.2454149759724,None,,,,,,,,,,,,,,,,,,,,,,,,,,,,,,,,,120,001,2023_Jul_11_1731,SpeechDraft1Carolyn_lessNoise_PlusLocalization,2021.2.3,60.37507400672498,
leapt.wav,leapt.mpg,leapt,3,A,Pink_Noise_3_1.wav,Pink_Noise_3_2.wav,,,,,,,,,,,,,,,0,109,109,10,,,,,,,,,,,,,,,,,,,,,,,2768.612174082955,None,2770.128458457999,None,2771.512228537991,None,let,2771.512228537991,None,return,0.780028551002033,2771.595588675991,None,,,,,,,,,,,,,,,,,,,,,,,,,,,,,,,,,120,001,2023_Jul_11_1731,SpeechDraft1Carolyn_lessNoise_PlusLocalization,2021.2.3,60.37507400672498,
booth.wav,booth.mpg,booth,3,A,Pink_Noise_3_1.wav,Pink_Noise_3_2.wav,,,,,,,,,,,,,,,0,110,110,26,,,,,,,,,,,,,,,,,,,,,,,2772.3955092659453,None,2773.911807493947,None,2775.295410728955,None,booth,2775.295410728955,None,return,0.9246821419801563,2775.3788489449653,None,,,,,,,,,,,,,,,,,,,,,,,,,,,,,,,,,120,001,2023_Jul_11_1731,SpeechDraft1Carolyn_lessNoise_PlusLocalization,2021.2.3,60.37507400672498,
foil.wav,foil.mpg,foil,4,A,Pink_Noise_4_1.wav,Pink_Noise_4_2.wav,,,,,,,,,,,,,,,0,111,111,49,,,,,,,,,,,,,,,,,,,,,,,2776.328824999975,None,2777.845266476972,None,2779.228806020983,None,oil,2779.228806020983,None,return,0.8233604279812425,2779.312246664951,None,,,,,,,,,,,,,,,,,,,,,,,,,,,,,,,,,120,001,2023_Jul_11_1731,SpeechDraft1Carolyn_lessNoise_PlusLocalization,2021.2.3,60.37507400672498,
brick.wav,brick.mpg,brick,6,A,Pink_Noise_6_1.wav,Pink_Noise_6_2.wav,,,,,,,,,,,,,,,0,112,112,57,,,,,,,,,,,,,,,,,,,,,,,2780.162212391966,None,2781.678456642956,None,2783.062250969,None,brick,2783.062250969,None,return,0.8619538570055738,2783.1455600159825,None,,,,,,,,,,,,,,,,,,,,,,,,,,,,,,,,,120,001,2023_Jul_11_1731,SpeechDraft1Carolyn_lessNoise_PlusLocalization,2021.2.3,60.37507400672498,
cream.wav,cream.mpg,cream,1,A,Pink_Noise_1_1.wav,Pink_Noise_1_2.wav,,,,,,,,,,,,,,,0,113,113,17,,,,,,,,,,,,,,,,,,,,,,,2784.028846020985,None,2785.5451762419543,None,2786.928918109974,None,cream,2786.928918109974,None,return,0.9873352600261569,2787.0121821739594,None,,,,,,,,,,,,,,,,,,,,,,,,,,,,,,,,,120,001,2023_Jul_11_1731,SpeechDraft1Carolyn_lessNoise_PlusLocalization,2021.2.3,60.37507400672498,
wind.wav,wind.mpg,wind,5,A,Pink_Noise_5_1.wav,Pink_Noise_5_2.wav,,,,,,,,,,,,,,,0,114,114,33,,,,,,,,,,,,,,,,,,,,,,,2788.0289159439853,None,2789.5451642949483,None,2790.928824992967,None,change,2790.928824992967,None,return,5.3553596480051056,2791.012249728956,None,,,,,,,,,,,,,,,,,,,,,,,,,,,,,,,,,120,001,2023_Jul_11_1731,SpeechDraft1Carolyn_lessNoise_PlusLocalization,2021.2.3,60.37507400672498,
drink.wav,drink.mpg,drink,2,A,Pink_Noise_2_1.wav,Pink_Noise_2_2.wav,,,,,,,,,,,,,,,0,115,115,16,,,,,,,,,,,,,,,,,,,,,,,2796.395594791975,None,2798.1286102879676,None,2799.512133612996,None,drink,2799.512133612996,None,return,0.9400801119627431,2799.5955716169556,None,,,,,,,,,,,,,,,,,,,,,,,,,,,,,,,,,120,001,2023_Jul_11_1731,SpeechDraft1Carolyn_lessNoise_PlusLocalization,2021.2.3,60.37507400672498,
bright.wav,bright.mpg,bright,2,AV,Pink_Noise_2_1.wav,Pink_Noise_2_2.wav,,,,,,,,,,,,,,,0,116,116,102,,,,,,,,,,,,,,,,,,,,,,,2800.5622139239567,None,2802.078860937967,None,2803.462231242971,None,bright,2803.462231242971,None,return,1.7260351710137911,2803.545484991977,None,,,,,,,,,,,,,,,,,,,,,,,,,,,,,,,,,120,001,2023_Jul_11_1731,SpeechDraft1Carolyn_lessNoise_PlusLocalization,2021.2.3,60.37507400672498,
giant.wav,giant.mpg,giant,3,AV,Pink_Noise_3_1.wav,Pink_Noise_3_2.wav,,,,,,,,,,,,,,,0,117,117,105,,,,,,,,,,,,,,,,,,,,,,,2805.295526604983,None,2806.8286011919845,None,2808.212123301986,None,"giant
",2808.212123301986,None,return,0.9200126249925233,2808.295505353948,None,,,,,,,,,,,,,,,,,,,,,,,,,,,,,,,,,120,001,2023_Jul_11_1731,SpeechDraft1Carolyn_lessNoise_PlusLocalization,2021.2.3,60.37507400672498,
flask.wav,flask.mpg,flask,6,A,Pink_Noise_6_1.wav,Pink_Noise_6_2.wav,,,,,,,,,,,,,,,0,118,118,31,,,,,,,,,,,,,,,,,,,,,,,2809.2456050029723,None,2810.7786703959573,None,2812.162260905956,None,"glass
",2812.162260905956,None,return,2.4339939819765277,2812.245520378987,None,,,,,,,,,,,,,,,,,,,,,,,,,,,,,,,,,120,001,2023_Jul_11_1731,SpeechDraft1Carolyn_lessNoise_PlusLocalization,2021.2.3,60.37507400672498,
guess.wav,guess.mpg,guess,5,A,Pink_Noise_5_1.wav,Pink_Noise_5_2.wav,,,,,,,,,,,,,,,0,119,119,13,,,,,,,,,,,,,,,,,,,,,,,2814.7122508710017,None,2816.2286690489855,None,2817.6124512869865,None,guess,2817.6124512869865,None,return,1.4321020730421878,2817.695505916956,None,,,,,,,,,,,,,,,,,,,,,,,,,,,,,,,,,120,001,2023_Jul_11_1731,SpeechDraft1Carolyn_lessNoise_PlusLocalization,2021.2.3,60.37507400672498,
,,,,,,,,,,,,,,,,,,,,,,,,,,,,,,,,,,,,,,,,,,,,,,,,,,,,,,,,,,,,,,,,,,space,17.186077581951395,2819.2455261449795,None,,,,,,,,,,,,,,,,,,,,,,,120,001,2023_Jul_11_1731,SpeechDraft1Carolyn_lessNoise_PlusLocalization,2021.2.3,60.37507400672498,
,,,,,,,,center,0.0,6,ch1Sound_localizationTask.wav,0.0,"(952, 878)","(-8,-202)",0,-338,,,,,,,,,0,0,0,3,,,,,,,,,,,,,,,,,,,,,,,,,,,,,,,,,,,,,,,,,,2819.2455261449795,None,2836.478861883981,None,2837.578613180958,None,2838.512156437966,None,1.2074074074074073,6.183835710980929,2838.512156437966,None,,,,,,,,,,,120,001,2023_Jul_11_1731,SpeechDraft1Carolyn_lessNoise_PlusLocalization,2021.2.3,60.37507400672498,
,,,,,,,,nearRight,6.5,0,ch1Sound_localizationTask.wav,6.5,"(1047, 878)","(87, -202)",95,-338,,,,,,,,,0,1,1,4,,,,,,,,,,,,,,,,,,,,,,,,,,,,,,,,,,,,,,,,,,,,2844.696007361985,None,2845.7953656559694,None,2846.72866685997,None,1.6111111111111112,1.2496765799587592,2846.72866685997,None,,,,,,,,,,,120,001,2023_Jul_11_1731,SpeechDraft1Carolyn_lessNoise_PlusLocalization,2021.2.3,60.37507400672498,
,,,,,,,,farLeft,-19.1,5,ch1Sound_localizationTask.wav,-19.1,"(667, 878)","(-293,-202)",-285,-338,,,,,,,,,0,2,2,0,,,,,,,,,,,,,,,,,,,,,,,,,,,,,,,,,,,,,,,,,,,,2847.979210189951,None,2849.07871170796,None,2850.011970103951,None,1.119047619047619,0.982001397991553,2850.011970103951,None,,,,,,,,,,,120,001,2023_Jul_11_1731,SpeechDraft1Carolyn_lessNoise_PlusLocalization,2021.2.3,60.37507400672498,
,,,,,,,,center,0.0,6,ch1Sound_localizationTask.wav,0.0,"(952, 878)","(-8,-202)",0,-338,,,,,,,,,0,3,3,3,,,,,,,,,,,,,,,,,,,,,,,,,,,,,,,,,,,,,,,,,,,,2850.9957335919607,None,2852.095426040003,None,2853.0286970119923,None,1.547089947089947,1.2495397009770386,2853.0286970119923,None,,,,,,,,,,,120,001,2023_Jul_11_1731,SpeechDraft1Carolyn_lessNoise_PlusLocalization,2021.2.3,60.37507400672498,
,,,,,,,,nearLeft,-6.5,1,ch1Sound_localizationTask.wav,-6.5,"(857, 878)","(-103,-202)",-95,-338,,,,,,,,,0,4,4,2,,,,,,,,,,,,,,,,,,,,,,,,,,,,,,,,,,,,,,,,,,,,2854.2791817979887,None,2855.378858949989,None,2856.312030968955,None,1.3296296296296295,0.6495723770349286,2856.312030968955,None,,,,,,,,,,,120,001,2023_Jul_11_1731,SpeechDraft1Carolyn_lessNoise_PlusLocalization,2021.2.3,60.37507400672498,
,,,,,,,,nearRight,6.5,0,ch1Sound_localizationTask.wav,6.5,"(1047, 878)","(87, -202)",95,-338,,,,,,,,,0,5,5,4,,,,,,,,,,,,,,,,,,,,,,,,,,,,,,,,,,,,,,,,,,,,2856.962221876951,None,2858.062065712991,None,2858.9954795090016,None,1.57989417989418,0.8487402040045708,2858.9954795090016,None,,,,,,,,,,,120,001,2023_Jul_11_1731,SpeechDraft1Carolyn_lessNoise_PlusLocalization,2021.2.3,60.37507400672498,
,,,,,,,,midRight,13.0,3,ch1Sound_localizationTask.wav,13.0,"(1142, 878)","(182, -202)",190,-338,,,,,,,,,0,6,6,5,,,,,,,,,,,,,,,,,,,,,,,,,,,,,,,,,,,,,,,,,,,,2859.8456592089497,None,2860.945371641952,None,2861.8788007149706,None,1.6592592592592592,0.7984900639858097,2861.8788007149706,None,,,,,,,,,,,120,001,2023_Jul_11_1731,SpeechDraft1Carolyn_lessNoise_PlusLocalization,2021.2.3,60.37507400672498,
,,,,,,,,nearRight,6.5,0,ch1Sound_localizationTask.wav,6.5,"(1047, 878)","(87, -202)",95,-338,,,,,,,,,1,0,7,4,,,,,,,,,,,,,,,,,,,,,,,,,,,,,,,,,,,,,,,,,,,,2862.6789711639867,None,2863.778758485976,None,2864.712185725977,None,1.5597883597883597,0.5320206489996053,2864.712185725977,None,,,,,,,,,,,120,001,2023_Jul_11_1731,SpeechDraft1Carolyn_lessNoise_PlusLocalization,2021.2.3,60.37507400672498,
,,,,,,,,farLeft,-19.1,5,ch1Sound_localizationTask.wav,-19.1,"(667, 878)","(-293,-202)",-285,-338,,,,,,,,,1,1,8,0,,,,,,,,,,,,,,,,,,,,,,,,,,,,,,,,,,,,,,,,,,,,2865.2456268729875,None,2866.345417269971,None,2867.278794953949,None,1.2920634920634921,0.48317024699645117,2867.278794953949,None,,,,,,,,,,,120,001,2023_Jul_11_1731,SpeechDraft1Carolyn_lessNoise_PlusLocalization,2021.2.3,60.37507400672498,
,,,,,,,,farLeft,-19.1,5,ch1Sound_localizationTask.wav,-19.1,"(667, 878)","(-293,-202)",-285,-338,,,,,,,,,1,2,9,0,,,,,,,,,,,,,,,,,,,,,,,,,,,,,,,,,,,,,,,,,,,,2867.762499369972,None,2868.8622091309517,None,2869.7954864709754,None,1.21005291005291,0.5053366840002127,2869.7954864709754,None,,,,,,,,,,,120,001,2023_Jul_11_1731,SpeechDraft1Carolyn_lessNoise_PlusLocalization,2021.2.3,60.37507400672498,
,,,,,,,,center,0.0,6,ch1Sound_localizationTask.wav,0.0,"(952, 878)","(-8,-202)",0,-338,,,,,,,,,1,3,10,3,,,,,,,,,,,,,,,,,,,,,,,,,,,,,,,,,,,,,,,,,,,,2870.3140440009884,None,2871.428781568946,None,2872.345332309953,None,1.3862433862433863,0.6660335559863597,2872.345332309953,None,,,,,,,,,,,120,001,2023_Jul_11_1731,SpeechDraft1Carolyn_lessNoise_PlusLocalization,2021.2.3,60.37507400672498,
,,,,,,,,midRight,13.0,3,ch1Sound_localizationTask.wav,13.0,"(1142, 878)","(182, -202)",190,-338,,,,,,,,,1,4,11,5,,,,,,,,,,,,,,,,,,,,,,,,,,,,,,,,,,,,,,,,,,,,2873.0125185259967,None,2874.1121366839507,None,2875.045452950988,None,1.5365079365079364,0.8488794000004418,2875.045452950988,None,,,,,,,,,,,120,001,2023_Jul_11_1731,SpeechDraft1Carolyn_lessNoise_PlusLocalization,2021.2.3,60.37507400672498,
,,,,,,,,midRight,13.0,3,ch1Sound_localizationTask.wav,13.0,"(1142, 878)","(182, -202)",190,-338,,,,,,,,,1,5,12,5,,,,,,,,,,,,,,,,,,,,,,,,,,,,,,,,,,,,,,,,,,,,2875.895735231985,None,2876.9954300769605,None,2877.9286807329627,None,1.637037037037037,0.6002418930293061,2877.9286807329627,None,,,,,,,,,,,120,001,2023_Jul_11_1731,SpeechDraft1Carolyn_lessNoise_PlusLocalization,2021.2.3,60.37507400672498,
,,,,,,,,nearRight,6.5,0,ch1Sound_localizationTask.wav,6.5,"(1047, 878)","(87, -202)",95,-338,,,,,,,,,1,6,13,4,,,,,,,,,,,,,,,,,,,,,,,,,,,,,,,,,,,,,,,,,,,,2878.529396973958,None,2879.628711336991,None,2880.5620614029467,None,1.5957671957671957,1.4165826750104316,2880.5620614029467,None,,,,,,,,,,,120,001,2023_Jul_11_1731,SpeechDraft1Carolyn_lessNoise_PlusLocalization,2021.2.3,60.37507400672498,
,,,,,,,,farLeft,-19.1,5,ch1Sound_localizationTask.wav,-19.1,"(667, 878)","(-293,-202)",-285,-338,,,,,,,,,2,0,14,0,,,,,,,,,,,,,,,,,,,,,,,,,,,,,,,,,,,,,,,,,,,,2881.979105403996,None,2883.078623989946,None,2884.0119548499933,None,1.3111111111111111,0.6486476280260831,2884.0119548499933,None,,,,,,,,,,,120,001,2023_Jul_11_1731,SpeechDraft1Carolyn_lessNoise_PlusLocalization,2021.2.3,60.37507400672498,
,,,,,,,,nearRight,6.5,0,ch1Sound_localizationTask.wav,6.5,"(1047, 878)","(87, -202)",95,-338,,,,,,,,,2,1,15,4,,,,,,,,,,,,,,,,,,,,,,,,,,,,,,,,,,,,,,,,,,,,2884.662388112978,None,2885.7621105479775,None,2886.695437085,None,1.6031746031746033,0.6829322809935547,2886.695437085,None,,,,,,,,,,,120,001,2023_Jul_11_1731,SpeechDraft1Carolyn_lessNoise_PlusLocalization,2021.2.3,60.37507400672498,
,,,,,,,,center,0.0,6,ch1Sound_localizationTask.wav,0.0,"(952, 878)","(-8,-202)",0,-338,,,,,,,,,2,2,16,3,,,,,,,,,,,,,,,,,,,,,,,,,,,,,,,,,,,,,,,,,,,,2887.3793183779926,None,2888.4786357239936,None,2889.412082281953,None,1.4582010582010583,0.4326341229607351,2889.412082281953,None,,,,,,,,,,,120,001,2023_Jul_11_1731,SpeechDraft1Carolyn_lessNoise_PlusLocalization,2021.2.3,60.37507400672498,
,,,,,,,,nearRight,6.5,0,ch1Sound_localizationTask.wav,6.5,"(1047, 878)","(87, -202)",95,-338,,,,,,,,,2,3,17,4,,,,,,,,,,,,,,,,,,,,,,,,,,,,,,,,,,,,,,,,,,,,2889.8457654579543,None,2890.9453242299496,None,2891.8786639409955,None,1.5497354497354499,0.48298217699630186,2891.8786639409955,None,,,,,,,,,,,120,001,2023_Jul_11_1731,SpeechDraft1Carolyn_lessNoise_PlusLocalization,2021.2.3,60.37507400672498,
,,,,,,,,midRight,13.0,3,ch1Sound_localizationTask.wav,13.0,"(1142, 878)","(182, -202)",190,-338,,,,,,,,,2,4,18,5,,,,,,,,,,,,,,,,,,,,,,,,,,,,,,,,,,,,,,,,,,,,2892.362427685992,None,2893.4620154819568,None,2894.395592788991,None,1.6386243386243386,0.5491671910276636,2894.395592788991,None,,,,,,,,,,,120,001,2023_Jul_11_1731,SpeechDraft1Carolyn_lessNoise_PlusLocalization,2021.2.3,60.37507400672498,
,,,,,,,,nearLeft,-6.5,1,ch1Sound_localizationTask.wav,-6.5,"(857, 878)","(-103,-202)",-95,-338,,,,,,,,,2,5,19,2,,,,,,,,,,,,,,,,,,,,,,,,,,,,,,,,,,,,,,,,,,,,2894.9457666689996,None,2896.045448521967,None,2896.978808416985,None,1.2587301587301587,0.5992885449668393,2896.978808416985,None,,,,,,,,,,,120,001,2023_Jul_11_1731,SpeechDraft1Carolyn_lessNoise_PlusLocalization,2021.2.3,60.37507400672498,
,,,,,,,,midRight,13.0,3,ch1Sound_localizationTask.wav,13.0,"(1142, 878)","(182, -202)",190,-338,,,,,,,,,2,6,20,5,,,,,,,,,,,,,,,,,,,,,,,,,,,,,,,,,,,,,,,,,,,,2897.57908303797,None,2898.678854183003,None,2899.612006799958,None,1.5957671957671957,0.6684455099748448,2899.612006799958,None,,,,,,,,,,,120,001,2023_Jul_11_1731,SpeechDraft1Carolyn_lessNoise_PlusLocalization,2021.2.3,60.37507400672498,
,,,,,,,,midLeft,-13.0,2,ch1Sound_localizationTask.wav,-13.0,"(762, 878)","(-198,-202)",-190,-338,,,,,,,,,3,0,21,1,,,,,,,,,,,,,,,,,,,,,,,,,,,,,,,,,,,,,,,,,,,,2900.297005265951,None,2901.4121878869482,None,2902.328905036964,None,1.2608465608465609,0.5649452359648421,2902.328905036964,None,,,,,,,,,,,120,001,2023_Jul_11_1731,SpeechDraft1Carolyn_lessNoise_PlusLocalization,2021.2.3,60.37507400672498,
,,,,,,,,nearRight,6.5,0,ch1Sound_localizationTask.wav,6.5,"(1047, 878)","(87, -202)",95,-338,,,,,,,,,3,1,22,4,,,,,,,,,,,,,,,,,,,,,,,,,,,,,,,,,,,,,,,,,,,,2902.8957161399885,None,2903.9954621020006,None,2904.92872311495,None,1.5492063492063493,0.616263618983794,2904.92872311495,None,,,,,,,,,,,120,001,2023_Jul_11_1731,SpeechDraft1Carolyn_lessNoise_PlusLocalization,2021.2.3,60.37507400672498,
,,,,,,,,center,0.0,6,ch1Sound_localizationTask.wav,0.0,"(952, 878)","(-8,-202)",0,-338,,,,,,,,,3,2,23,3,,,,,,,,,,,,,,,,,,,,,,,,,,,,,,,,,,,,,,,,,,,,2905.5458708209917,None,2906.6455006029573,None,2907.578897639003,None,1.4973544973544972,0.5494746600161307,2907.578897639003,None,,,,,,,,,,,120,001,2023_Jul_11_1731,SpeechDraft1Carolyn_lessNoise_PlusLocalization,2021.2.3,60.37507400672498,
,,,,,,,,nearLeft,-6.5,1,ch1Sound_localizationTask.wav,-6.5,"(857, 878)","(-103,-202)",-95,-338,,,,,,,,,3,3,24,2,,,,,,,,,,,,,,,,,,,,,,,,,,,,,,,,,,,,,,,,,,,,2908.1457157509867,None,2909.2454528959934,None,2910.17872204195,None,1.3650793650793651,0.6316173099912703,2910.17872204195,None,,,,,,,,,,,120,001,2023_Jul_11_1731,SpeechDraft1Carolyn_lessNoise_PlusLocalization,2021.2.3,60.37507400672498,
,,,,,,,,midLeft,-13.0,2,ch1Sound_localizationTask.wav,-13.0,"(762, 878)","(-198,-202)",-190,-338,,,,,,,,,3,4,25,1,,,,,,,,,,,,,,,,,,,,,,,,,,,,,,,,,,,,,,,,,,,,2910.812387955957,None,2911.91217892,None,2912.8454329009983,None,1.2894179894179894,0.7667675350094214,2912.8454329009983,None,,,,,,,,,,,120,001,2023_Jul_11_1731,SpeechDraft1Carolyn_lessNoise_PlusLocalization,2021.2.3,60.37507400672498,
,,,,,,,,center,0.0,6,ch1Sound_localizationTask.wav,0.0,"(952, 878)","(-8,-202)",0,-338,,,,,,,,,3,5,26,3,,,,,,,,,,,,,,,,,,,,,,,,,,,,,,,,,,,,,,,,,,,,2913.6128722339636,None,2914.7121436029556,None,2915.645398878958,None,1.493121693121693,0.5154698650003411,2915.645398878958,None,,,,,,,,,,,120,001,2023_Jul_11_1731,SpeechDraft1Carolyn_lessNoise_PlusLocalization,2021.2.3,60.37507400672498,
,,,,,,,,midLeft,-13.0,2,ch1Sound_localizationTask.wav,-13.0,"(762, 878)","(-198,-202)",-190,-338,,,,,,,,,3,6,27,1,,,,,,,,,,,,,,,,,,,,,,,,,,,,,,,,,,,,,,,,,,,,2916.1623875149526,None,2917.2620999209466,None,2918.19548650895,None,1.3116402116402117,0.5499248359701596,2918.19548650895,None,,,,,,,,,,,120,001,2023_Jul_11_1731,SpeechDraft1Carolyn_lessNoise_PlusLocalization,2021.2.3,60.37507400672498,
,,,,,,,,farRight,19.1,4,ch1Sound_localizationTask.wav,19.1,"(1237, 878)","(277,-202)",285,-338,,,,,,,,,4,0,28,6,,,,,,,,,,,,,,,,,,,,,,,,,,,,,,,,,,,,,,,,,,,,2918.7466299439548,None,2919.8455003959825,None,2920.7788636719924,None,1.7132275132275132,0.5326933879987337,2920.7788636719924,None,,,,,,,,,,,120,001,2023_Jul_11_1731,SpeechDraft1Carolyn_lessNoise_PlusLocalization,2021.2.3,60.37507400672498,
,,,,,,,,center,0.0,6,ch1Sound_localizationTask.wav,0.0,"(952, 878)","(-8,-202)",0,-338,,,,,,,,,4,1,29,3,,,,,,,,,,,,,,,,,,,,,,,,,,,,,,,,,,,,,,,,,,,,2921.313075972954,None,2922.412063149968,None,2923.345599822991,None,1.4783068783068782,0.5158556280075572,2923.345599822991,None,,,,,,,,,,,120,001,2023_Jul_11_1731,SpeechDraft1Carolyn_lessNoise_PlusLocalization,2021.2.3,60.37507400672498,
,,,,,,,,midRight,13.0,3,ch1Sound_localizationTask.wav,13.0,"(1142, 878)","(182, -202)",190,-338,,,,,,,,,4,2,30,5,,,,,,,,,,,,,,,,,,,,,,,,,,,,,,,,,,,,,,,,,,,,2923.8624334099586,None,2924.9620661709923,None,2925.8953989409492,None,1.5915343915343916,0.4826635049539618,2925.8953989409492,None,,,,,,,,,,,120,001,2023_Jul_11_1731,SpeechDraft1Carolyn_lessNoise_PlusLocalization,2021.2.3,60.37507400672498,
,,,,,,,,nearRight,6.5,0,ch1Sound_localizationTask.wav,6.5,"(1047, 878)","(87, -202)",95,-338,,,,,,,,,4,3,31,4,,,,,,,,,,,,,,,,,,,,,,,,,,,,,,,,,,,,,,,,,,,,2926.3792139819707,None,2927.478839479969,None,2928.4121322149877,None,1.4952380952380953,0.432010397023987,2928.4121322149877,None,,,,,,,,,,,120,001,2023_Jul_11_1731,SpeechDraft1Carolyn_lessNoise_PlusLocalization,2021.2.3,60.37507400672498,
,,,,,,,,farLeft,-19.1,5,ch1Sound_localizationTask.wav,-19.1,"(667, 878)","(-293,-202)",-285,-338,,,,,,,,,4,4,32,0,,,,,,,,,,,,,,,,,,,,,,,,,,,,,,,,,,,,,,,,,,,,2928.846403381962,None,2929.9454931059736,None,2930.8788009900018,None,1.3100529100529101,0.5491426319931634,2930.8788009900018,None,,,,,,,,,,,120,001,2023_Jul_11_1731,SpeechDraft1Carolyn_lessNoise_PlusLocalization,2021.2.3,60.37507400672498,
,,,,,,,,farRight,19.1,4,ch1Sound_localizationTask.wav,19.1,"(1237, 878)","(277,-202)",285,-338,,,,,,,,,4,5,33,6,,,,,,,,,,,,,,,,,,,,,,,,,,,,,,,,,,,,,,,,,,,,2931.428976639989,None,2932.5287201079773,None,2933.4620632290025,None,1.6365079365079365,0.4827268460066989,2933.4620632290025,None,,,,,,,,,,,120,001,2023_Jul_11_1731,SpeechDraft1Carolyn_lessNoise_PlusLocalization,2021.2.3,60.37507400672498,
,,,,,,,,farLeft,-19.1,5,ch1Sound_localizationTask.wav,-19.1,"(667, 878)","(-293,-202)",-285,-338,,,,,,,,,4,6,34,0,,,,,,,,,,,,,,,,,,,,,,,,,,,,,,,,,,,,,,,,,,,,2933.9457581889583,None,2935.045422037947,None,2935.978808382002,None,1.2656084656084656,0.482311874977313,2935.978808382002,None,,,,,,,,,,,120,001,2023_Jul_11_1731,SpeechDraft1Carolyn_lessNoise_PlusLocalization,2021.2.3,60.37507400672498,
,,,,,,,,farRight,19.1,4,ch1Sound_localizationTask.wav,19.1,"(1237, 878)","(277,-202)",285,-338,,,,,,,,,5,0,35,6,,,,,,,,,,,,,,,,,,,,,,,,,,,,,,,,,,,,,,,,,,,,2936.462512194994,None,2937.562136226974,None,2938.4954083589837,None,1.6396825396825396,0.5826537279644981,2938.4954083589837,None,,,,,,,,,,,120,001,2023_Jul_11_1731,SpeechDraft1Carolyn_lessNoise_PlusLocalization,2021.2.3,60.37507400672498,
,,,,,,,,midLeft,-13.0,2,ch1Sound_localizationTask.wav,-13.0,"(762, 878)","(-198,-202)",-190,-338,,,,,,,,,5,1,36,1,,,,,,,,,,,,,,,,,,,,,,,,,,,,,,,,,,,,,,,,,,,,2939.079051357985,None,2940.1789374929504,None,2941.1122096239706,None,1.2814814814814814,0.41603612899780273,2941.1122096239706,None,,,,,,,,,,,120,001,2023_Jul_11_1731,SpeechDraft1Carolyn_lessNoise_PlusLocalization,2021.2.3,60.37507400672498,
,,,,,,,,midRight,13.0,3,ch1Sound_localizationTask.wav,13.0,"(1142, 878)","(182, -202)",190,-338,,,,,,,,,5,2,37,5,,,,,,,,,,,,,,,,,,,,,,,,,,,,,,,,,,,,,,,,,,,,2941.529120850959,None,2942.628780147992,None,2943.562143917952,None,1.6645502645502646,0.7160101429908536,2943.562143917952,None,,,,,,,,,,,120,001,2023_Jul_11_1731,SpeechDraft1Carolyn_lessNoise_PlusLocalization,2021.2.3,60.37507400672498,
,,,,,,,,nearLeft,-6.5,1,ch1Sound_localizationTask.wav,-6.5,"(857, 878)","(-103,-202)",-95,-338,,,,,,,,,5,3,38,2,,,,,,,,,,,,,,,,,,,,,,,,,,,,,,,,,,,,,,,,,,,,2944.279041306989,None,2945.3787998069893,None,2946.3121903479914,None,1.2883597883597884,0.5828030330012552,2946.3121903479914,None,,,,,,,,,,,120,001,2023_Jul_11_1731,SpeechDraft1Carolyn_lessNoise_PlusLocalization,2021.2.3,60.37507400672498,
,,,,,,,,midLeft,-13.0,2,ch1Sound_localizationTask.wav,-13.0,"(762, 878)","(-198,-202)",-190,-338,,,,,,,,,5,4,39,1,,,,,,,,,,,,,,,,,,,,,,,,,,,,,,,,,,,,,,,,,,,,2946.895800911996,None,2947.995595104003,None,2948.9287812190014,None,1.2835978835978836,0.5497051979764365,2948.9287812190014,None,,,,,,,,,,,120,001,2023_Jul_11_1731,SpeechDraft1Carolyn_lessNoise_PlusLocalization,2021.2.3,60.37507400672498,
,,,,,,,,farRight,19.1,4,ch1Sound_localizationTask.wav,19.1,"(1237, 878)","(277,-202)",285,-338,,,,,,,,,5,5,40,6,,,,,,,,,,,,,,,,,,,,,,,,,,,,,,,,,,,,,,,,,,,,2949.479090262961,None,2950.5788500119816,None,2951.512257841998,None,1.6714285714285715,0.5508337360224687,2951.512257841998,None,,,,,,,,,,,120,001,2023_Jul_11_1731,SpeechDraft1Carolyn_lessNoise_PlusLocalization,2021.2.3,60.37507400672498,
,,,,,,,,midLeft,-13.0,2,ch1Sound_localizationTask.wav,-13.0,"(762, 878)","(-198,-202)",-190,-338,,,,,,,,,5,6,41,1,,,,,,,,,,,,,,,,,,,,,,,,,,,,,,,,,,,,,,,,,,,,2952.079065898957,None,2953.178857719002,None,2954.1122415929567,None,1.1973544973544974,0.49941885500447825,2954.1122415929567,None,,,,,,,,,,,120,001,2023_Jul_11_1731,SpeechDraft1Carolyn_lessNoise_PlusLocalization,2021.2.3,60.37507400672498,
,,,,,,,,midRight,13.0,3,ch1Sound_localizationTask.wav,13.0,"(1142, 878)","(182, -202)",190,-338,,,,,,,,,6,0,42,5,,,,,,,,,,,,,,,,,,,,,,,,,,,,,,,,,,,,,,,,,,,,2954.6124056169647,None,2955.712135491951,None,2956.6455981119652,None,1.5788359788359787,0.8997788460110314,2956.6455981119652,None,,,,,,,,,,,120,001,2023_Jul_11_1731,SpeechDraft1Carolyn_lessNoise_PlusLocalization,2021.2.3,60.37507400672498,
,,,,,,,,midLeft,-13.0,2,ch1Sound_localizationTask.wav,-13.0,"(762, 878)","(-198,-202)",-190,-338,,,,,,,,,6,1,43,1,,,,,,,,,,,,,,,,,,,,,,,,,,,,,,,,,,,,,,,,,,,,2957.5459002069547,None,2958.6456398209557,None,2959.579042683996,None,1.3211640211640212,0.9178781199734658,2959.579042683996,None,,,,,,,,,,,120,001,2023_Jul_11_1731,SpeechDraft1Carolyn_lessNoise_PlusLocalization,2021.2.3,60.37507400672498,
,,,,,,,,nearLeft,-6.5,1,ch1Sound_localizationTask.wav,-6.5,"(857, 878)","(-103,-202)",-95,-338,,,,,,,,,6,2,44,2,,,,,,,,,,,,,,,,,,,,,,,,,,,,,,,,,,,,,,,,,,,,2960.5124206389883,None,2961.612170324952,None,2962.545611403999,None,1.3767195767195768,1.6166826600092463,2962.545611403999,None,,,,,,,,,,,120,001,2023_Jul_11_1731,SpeechDraft1Carolyn_lessNoise_PlusLocalization,2021.2.3,60.37507400672498,
,,,,,,,,midLeft,-13.0,2,ch1Sound_localizationTask.wav,-13.0,"(762, 878)","(-198,-202)",-190,-338,,,,,,,,,6,3,45,1,,,,,,,,,,,,,,,,,,,,,,,,,,,,,,,,,,,,,,,,,,,,2964.162399215973,None,2965.2621307999943,None,2966.1955907559604,None,1.3264550264550263,0.6994328229920939,2966.1955907559604,None,,,,,,,,,,,120,001,2023_Jul_11_1731,SpeechDraft1Carolyn_lessNoise_PlusLocalization,2021.2.3,60.37507400672498,
,,,,,,,,nearLeft,-6.5,1,ch1Sound_localizationTask.wav,-6.5,"(857, 878)","(-103,-202)",-95,-338,,,,,,,,,6,4,46,2,,,,,,,,,,,,,,,,,,,,,,,,,,,,,,,,,,,,,,,,,,,,2966.8957319299807,None,2967.9954438969726,None,2968.928866468952,None,1.3735449735449734,0.4984394009807147,2968.928866468952,None,,,,,,,,,,,120,001,2023_Jul_11_1731,SpeechDraft1Carolyn_lessNoise_PlusLocalization,2021.2.3,60.37507400672498,
,,,,,,,,center,0.0,6,ch1Sound_localizationTask.wav,0.0,"(952, 878)","(-8,-202)",0,-338,,,,,,,,,6,5,47,3,,,,,,,,,,,,,,,,,,,,,,,,,,,,,,,,,,,,,,,,,,,,2969.429124164977,None,2970.52888021298,None,2971.462297965947,None,1.392063492063492,0.5158575959503651,2971.462297965947,None,,,,,,,,,,,120,001,2023_Jul_11_1731,SpeechDraft1Carolyn_lessNoise_PlusLocalization,2021.2.3,60.37507400672498,
,,,,,,,,farRight,19.1,4,ch1Sound_localizationTask.wav,19.1,"(1237, 878)","(277,-202)",285,-338,,,,,,,,,6,6,48,6,,,,,,,,,,,,,,,,,,,,,,,,,,,,,,,,,,,,,,,,,,,,2971.9791232379503,None,2973.0787558449665,None,2974.0121889360016,None,1.6465608465608466,0.6156236479873769,2974.0121889360016,None,,,,,,,,,,,120,001,2023_Jul_11_1731,SpeechDraft1Carolyn_lessNoise_PlusLocalization,2021.2.3,60.37507400672498,
,,,,,,,,farLeft,-19.1,5,ch1Sound_localizationTask.wav,-19.1,"(667, 878)","(-293,-202)",-285,-338,,,,,,,,,7,0,49,0,,,,,,,,,,,,,,,,,,,,,,,,,,,,,,,,,,,,,,,,,,,,2974.629100847,None,2975.7288326539565,None,2976.662136803963,None,1.2571428571428571,0.4997377970139496,2976.662136803963,None,,,,,,,,,,,120,001,2023_Jul_11_1731,SpeechDraft1Carolyn_lessNoise_PlusLocalization,2021.2.3,60.37507400672498,
,,,,,,,,farLeft,-19.1,5,ch1Sound_localizationTask.wav,-19.1,"(667, 878)","(-293,-202)",-285,-338,,,,,,,,,7,1,50,0,,,,,,,,,,,,,,,,,,,,,,,,,,,,,,,,,,,,,,,,,,,,2977.1631662389846,None,2978.262361271947,None,2979.195522493974,None,1.2523809523809524,0.43320112698711455,2979.195522493974,None,,,,,,,,,,,120,001,2023_Jul_11_1731,SpeechDraft1Carolyn_lessNoise_PlusLocalization,2021.2.3,60.37507400672498,
,,,,,,,,nearLeft,-6.5,1,ch1Sound_localizationTask.wav,-6.5,"(857, 878)","(-103,-202)",-95,-338,,,,,,,,,7,2,51,2,,,,,,,,,,,,,,,,,,,,,,,,,,,,,,,,,,,,,,,,,,,,2979.6291554199997,None,2980.728853817971,None,2981.6622404779773,None,1.270899470899471,0.4492668669554405,2981.6622404779773,None,,,,,,,,,,,120,001,2023_Jul_11_1731,SpeechDraft1Carolyn_lessNoise_PlusLocalization,2021.2.3,60.37507400672498,
,,,,,,,,nearLeft,-6.5,1,ch1Sound_localizationTask.wav,-6.5,"(857, 878)","(-103,-202)",-95,-338,,,,,,,,,7,3,52,2,,,,,,,,,,,,,,,,,,,,,,,,,,,,,,,,,,,,,,,,,,,,2982.1125441259937,None,2983.212294103985,None,2984.145557957003,None,1.291005291005291,0.4999546459876001,2984.145557957003,None,,,,,,,,,,,120,001,2023_Jul_11_1731,SpeechDraft1Carolyn_lessNoise_PlusLocalization,2021.2.3,60.37507400672498,
,,,,,,,,farRight,19.1,4,ch1Sound_localizationTask.wav,19.1,"(1237, 878)","(277,-202)",285,-338,,,,,,,,,7,4,53,6,,,,,,,,,,,,,,,,,,,,,,,,,,,,,,,,,,,,,,,,,,,,2984.645875846967,None,2985.745576870977,None,2986.6788770109997,None,1.6227513227513226,0.49976854701526463,2986.6788770109997,None,,,,,,,,,,,120,001,2023_Jul_11_1731,SpeechDraft1Carolyn_lessNoise_PlusLocalization,2021.2.3,60.37507400672498,
,,,,,,,,farRight,19.1,4,ch1Sound_localizationTask.wav,19.1,"(1237, 878)","(277,-202)",285,-338,,,,,,,,,7,5,54,6,,,,,,,,,,,,,,,,,,,,,,,,,,,,,,,,,,,,,,,,,,,,2987.179809743946,None,2988.278957816947,None,2989.2121959769865,None,1.6174603174603175,0.581869512971025,2989.2121959769865,None,,,,,,,,,,,120,001,2023_Jul_11_1731,SpeechDraft1Carolyn_lessNoise_PlusLocalization,2021.2.3,60.37507400672498,
,,,,,,,,farRight,19.1,4,ch1Sound_localizationTask.wav,19.1,"(1237, 878)","(277,-202)",285,-338,,,,,,,,,7,6,55,6,,,,,,,,,,,,,,,,,,,,,,,,,,,,,,,,,,,,,,,,,,,,2989.796219484997,None,2990.895443847985,None,2991.828979932994,None,1.6185185185185185,0.46682468202197924,2991.828979932994,None,,,,,,,,,,,120,001,2023_Jul_11_1731,SpeechDraft1Carolyn_lessNoise_PlusLocalization,2021.2.3,60.37507400672498,
,,,,,,,,,,,,,,,,,,,,,,,,,,,,,,,,,,,,,,,,,,,,,,,,,,,,,,,,,,,,,,,,,,,,,,,,,,,,,,,,,,space,20.532461900962517,2992.3791306589846,None,,,,,,,120,001,2023_Jul_11_1731,SpeechDraft1Carolyn_lessNoise_PlusLocalization,2021.2.3,60.37507400672498,
,,,,,,,,farLeft,-19.1,5,ch1Sound_localizationTask.wav,-19.1,"(667, 878)","(-293,-202)",-285,-338,,,,,,,,,,,,,0,0,0,0,,,,,,,,,,,,,,,,,,,,,,,,,,,,,,,,,,,,,,,,3012.945793151972,None,,,3015.9790412089787,None,1.2994708994708994,0.971456422994379,3015.9790412089787,None,,,,,2992.3791306589846,None,3013.9458253859775,None,3014.1291862419457,3014.14585604897,120,001,2023_Jul_11_1731,SpeechDraft1Carolyn_lessNoise_PlusLocalization,2021.2.3,60.37507400672498,
,,,,,,,,nearRight,6.5,0,ch1Sound_localizationTask.wav,6.5,"(1047, 878)","(87, -202)",95,-338,,,,,,,,,,,,,0,1,1,4,,,,,,,,,,,,,,,,,,,,,,,,,,,,,,,,,,,,,,,,3016.946184360946,None,,,3019.9622553649824,None,1.57989417989418,0.9825485610053875,3019.9622553649824,None,,,,,,,3017.94583241496,None,3018.1292128060013,3018.1458296059864,120,001,2023_Jul_11_1731,SpeechDraft1Carolyn_lessNoise_PlusLocalization,2021.2.3,60.37507400672498,
,,,,,,,,nearLeft,-6.5,1,ch1Sound_localizationTask.wav,-6.5,"(857, 878)","(-103,-202)",-95,-338,,,,,,,,,,,,,0,2,2,2,,,,,,,,,,,,,,,,,,,,,,,,,,,,,,,,,,,,,,,,3020.9466212689877,None,,,3023.962287325994,None,1.3968253968253967,0.7988622999982908,3023.962287325994,None,,,,,,,3021.945796344953,None,3022.129233816988,3022.1460669509834,120,001,2023_Jul_11_1731,SpeechDraft1Carolyn_lessNoise_PlusLocalization,2021.2.3,60.37507400672498,
,,,,,,,,nearRight,6.5,0,ch1Sound_localizationTask.wav,6.5,"(1047, 878)","(87, -202)",95,-338,,,,,,,,,,,,,0,3,3,4,,,,,,,,,,,,,,,,,,,,,,,,,,,,,,,,,,,,,,,,3024.762613702973,None,,,3027.7789976989734,None,1.564021164021164,0.832283947034739,3027.7789976989734,None,,,,,,,3025.762444933993,None,3025.9459785919753,3025.962524153001,120,001,2023_Jul_11_1731,SpeechDraft1Carolyn_lessNoise_PlusLocalization,2021.2.3,60.37507400672498,
,,,,,,,,center,0.0,6,ch1Sound_localizationTask.wav,0.0,"(952, 878)","(-8,-202)",0,-338,,,,,,,,,,,,,0,4,4,3,,,,,,,,,,,,,,,,,,,,,,,,,,,,,,,,,,,,,,,,3028.612700509955,None,,,3031.628859948949,None,1.4984126984126984,0.582360842032358,3031.628859948949,None,,,,,,,3029.6125119559583,None,3029.7958514069906,3029.81252324098,120,001,2023_Jul_11_1731,SpeechDraft1Carolyn_lessNoise_PlusLocalization,2021.2.3,60.37507400672498,
,,,,,,,,midLeft,-13.0,2,ch1Sound_localizationTask.wav,-13.0,"(762, 878)","(-198,-202)",-190,-338,,,,,,,,,,,,,0,5,5,1,,,,,,,,,,,,,,,,,,,,,,,,,,,,,,,,,,,,,,,,3032.2126461069565,None,,,3035.2290802299976,None,1.3264550264550263,0.9493776729796082,3035.2290802299976,None,,,,,,,3033.2125055979704,None,3033.395811137976,3033.4126899089897,120,001,2023_Jul_11_1731,SpeechDraft1Carolyn_lessNoise_PlusLocalization,2021.2.3,60.37507400672498,
,,,,,,,,midRight,13.0,3,ch1Sound_localizationTask.wav,13.0,"(1142, 878)","(182, -202)",190,-338,,,,,,,,,,,,,0,6,6,5,,,,,,,,,,,,,,,,,,,,,,,,,,,,,,,,,,,,,,,,3036.1797306059743,None,,,3039.195741784002,None,1.6164021164021163,0.7326698279939592,3039.195741784002,None,,,,,,,3037.1791951289633,None,3037.3625155469636,3037.379111666989,120,001,2023_Jul_11_1731,SpeechDraft1Carolyn_lessNoise_PlusLocalization,2021.2.3,60.37507400672498,
,,,,,,,,farRight,19.1,4,ch1Sound_localizationTask.wav,19.1,"(1237, 878)","(277,-202)",285,-338,,,,,,,,,,,,,1,0,7,6,,,,,,,,,,,,,,,,,,,,,,,,,,,,,,,,,,,,,,,,3039.929392986989,None,,,3042.9456087959697,None,1.6465608465608466,0.6666969729703851,3042.9456087959697,None,,,,,,,3040.929237905948,None,3041.1125055149896,3041.129166891973,120,001,2023_Jul_11_1731,SpeechDraft1Carolyn_lessNoise_PlusLocalization,2021.2.3,60.37507400672498,
,,,,,,,,center,0.0,6,ch1Sound_localizationTask.wav,0.0,"(952, 878)","(-8,-202)",0,-338,,,,,,,,,,,,,1,1,8,3,,,,,,,,,,,,,,,,,,,,,,,,,,,,,,,,,,,,,,,,3043.6128014749847,None,,,3046.62901885499,None,1.4894179894179893,1.0153866730397567,3046.62901885499,None,,,,,,,3044.6125077369506,None,3044.795893097995,3044.8124980540015,120,001,2023_Jul_11_1731,SpeechDraft1Carolyn_lessNoise_PlusLocalization,2021.2.3,60.37507400672498,
,,,,,,,,midLeft,-13.0,2,ch1Sound_localizationTask.wav,-13.0,"(762, 878)","(-198,-202)",-190,-338,,,,,,,,,,,,,1,2,9,1,,,,,,,,,,,,,,,,,,,,,,,,,,,,,,,,,,,,,,,,3047.6459326299955,None,,,3050.662415505969,None,1.3703703703703702,0.899385852040723,3050.662415505969,None,,,,,,,3048.645884177997,None,3048.829220665968,3048.84583892097,120,001,2023_Jul_11_1731,SpeechDraft1Carolyn_lessNoise_PlusLocalization,2021.2.3,60.37507400672498,
,,,,,,,,nearRight,6.5,0,ch1Sound_localizationTask.wav,6.5,"(1047, 878)","(87, -202)",95,-338,,,,,,,,,,,,,1,3,10,4,,,,,,,,,,,,,,,,,,,,,,,,,,,,,,,,,,,,,,,,3051.562674508954,None,,,3054.579036424984,None,1.5957671957671957,0.6154524579760619,3054.579036424984,None,,,,,,,3052.562503382971,None,3052.745914577972,3052.7625824999996,120,001,2023_Jul_11_1731,SpeechDraft1Carolyn_lessNoise_PlusLocalization,2021.2.3,60.37507400672498,
,,,,,,,,midRight,13.0,3,ch1Sound_localizationTask.wav,13.0,"(1142, 878)","(182, -202)",190,-338,,,,,,,,,,,,,1,4,11,5,,,,,,,,,,,,,,,,,,,,,,,,,,,,,,,,,,,,,,,,3055.195853507961,None,,,3058.2124001639895,None,1.6,0.4155950520071201,3058.2124001639895,None,,,,,,,3056.1958959350013,None,3056.379278106964,3056.3959397429717,120,001,2023_Jul_11_1731,SpeechDraft1Carolyn_lessNoise_PlusLocalization,2021.2.3,60.37507400672498,
,,,,,,,,farLeft,-19.1,5,ch1Sound_localizationTask.wav,-19.1,"(667, 878)","(-293,-202)",-285,-338,,,,,,,,,,,,,1,5,12,0,,,,,,,,,,,,,,,,,,,,,,,,,,,,,,,,,,,,,,,,3058.629253560968,None,,,3061.6457049419987,None,1.3402116402116402,1.0824344449792989,3061.6457049419987,None,,,,,,,3059.6292451069457,None,3059.8124865529826,3059.829160655965,120,001,2023_Jul_11_1731,SpeechDraft1Carolyn_lessNoise_PlusLocalization,2021.2.3,60.37507400672498,
,,,,,,,,nearRight,6.5,0,ch1Sound_localizationTask.wav,6.5,"(1047, 878)","(87, -202)",95,-338,,,,,,,,,,,,,1,6,13,4,,,,,,,,,,,,,,,,,,,,,,,,,,,,,,,,,,,,,,,,3062.7296708669746,None,,,3065.7457899259753,None,1.5862433862433862,1.199903964996338,3065.7457899259753,None,,,,,,,3063.7291188619565,None,3063.9125615209923,3063.9292575529544,120,001,2023_Jul_11_1731,SpeechDraft1Carolyn_lessNoise_PlusLocalization,2021.2.3,60.37507400672498,
,,,,,,,,midRight,13.0,3,ch1Sound_localizationTask.wav,13.0,"(1142, 878)","(182, -202)",190,-338,,,,,,,,,,,,,2,0,14,5,,,,,,,,,,,,,,,,,,,,,,,,,,,,,,,,,,,,,,,,3066.946680886962,None,,,3069.9622251939727,None,1.5878306878306878,0.41582401300547644,3069.9622251939727,None,,,,,,,3067.945958419994,None,3068.129275905958,3068.1458744889824,120,001,2023_Jul_11_1731,SpeechDraft1Carolyn_lessNoise_PlusLocalization,2021.2.3,60.37507400672498,
,,,,,,,,midRight,13.0,3,ch1Sound_localizationTask.wav,13.0,"(1142, 878)","(182, -202)",190,-338,,,,,,,,,,,,,2,1,15,5,,,,,,,,,,,,,,,,,,,,,,,,,,,,,,,,,,,,,,,,3070.3798753809533,None,,,3073.395724613976,None,1.5867724867724866,0.6150709200301208,3073.395724613976,None,,,,,,,3071.3793109659455,None,3071.5626148259616,3071.579338849988,120,001,2023_Jul_11_1731,SpeechDraft1Carolyn_lessNoise_PlusLocalization,2021.2.3,60.37507400672498,
,,,,,,,,midLeft,-13.0,2,ch1Sound_localizationTask.wav,-13.0,"(762, 878)","(-198,-202)",-190,-338,,,,,,,,,,,,,2,2,16,1,,,,,,,,,,,,,,,,,,,,,,,,,,,,,,,,,,,,,,,,3074.0126623909455,None,,,3077.0288864529575,None,1.3878306878306879,0.8824924549553543,3077.0288864529575,None,,,,,,,3075.0126443439513,None,3075.1958812049706,3075.212609686947,120,001,2023_Jul_11_1731,SpeechDraft1Carolyn_lessNoise_PlusLocalization,2021.2.3,60.37507400672498,
,,,,,,,,center,0.0,6,ch1Sound_localizationTask.wav,0.0,"(952, 878)","(-8,-202)",0,-338,,,,,,,,,,,,,2,3,17,3,,,,,,,,,,,,,,,,,,,,,,,,,,,,,,,,,,,,,,,,3077.929262652993,None,,,3080.9458058209857,None,1.5063492063492063,0.9325679769972339,3080.9458058209857,None,,,,,,,3078.92920909595,None,3079.1125334789976,3079.1292409909656,120,001,2023_Jul_11_1731,SpeechDraft1Carolyn_lessNoise_PlusLocalization,2021.2.3,60.37507400672498,
,,,,,,,,farLeft,-19.1,5,ch1Sound_localizationTask.wav,-19.1,"(667, 878)","(-293,-202)",-285,-338,,,,,,,,,,,,,2,4,18,0,,,,,,,,,,,,,,,,,,,,,,,,,,,,,,,,,,,,,,,,3081.87935702299,None,,,3084.8958621170023,None,1.3037037037037038,0.6661594249890186,3084.8958621170023,None,,,,,,,3082.879346310976,None,3083.062742510985,3083.0793038889533,120,001,2023_Jul_11_1731,SpeechDraft1Carolyn_lessNoise_PlusLocalization,2021.2.3,60.37507400672498,
,,,,,,,,farRight,19.1,4,ch1Sound_localizationTask.wav,19.1,"(1237, 878)","(277,-202)",285,-338,,,,,,,,,,,,,2,5,19,6,,,,,,,,,,,,,,,,,,,,,,,,,,,,,,,,,,,,,,,,3085.5627678239834,None,,,3088.579166712996,None,1.687830687830688,0.9317780470009893,3088.579166712996,None,,,,,,,3086.562679625,None,3086.745914561965,3086.762537663977,120,001,2023_Jul_11_1731,SpeechDraft1Carolyn_lessNoise_PlusLocalization,2021.2.3,60.37507400672498,
,,,,,,,,farLeft,-19.1,5,ch1Sound_localizationTask.wav,-19.1,"(667, 878)","(-293,-202)",-285,-338,,,,,,,,,,,,,2,6,20,0,,,,,,,,,,,,,,,,,,,,,,,,,,,,,,,,,,,,,,,,3089.5126510729897,None,,,3092.529117425962,None,1.237037037037037,0.8813397730118595,3092.529117425962,None,,,,,,,3090.512654239952,None,3090.695924701984,3090.7126321139513,120,001,2023_Jul_11_1731,SpeechDraft1Carolyn_lessNoise_PlusLocalization,2021.2.3,60.37507400672498,
,,,,,,,,nearLeft,-6.5,1,ch1Sound_localizationTask.wav,-6.5,"(857, 878)","(-103,-202)",-95,-338,,,,,,,,,,,,,3,0,21,2,,,,,,,,,,,,,,,,,,,,,,,,,,,,,,,,,,,,,,,,3093.4125734049594,None,,,3096.4291350499843,None,1.4126984126984126,1.0670704109943472,3096.4291350499843,None,,,,,,,3094.4126453219797,None,3094.595903351961,3094.6126048619626,120,001,2023_Jul_11_1731,SpeechDraft1Carolyn_lessNoise_PlusLocalization,2021.2.3,60.37507400672498,
,,,,,,,,midRight,13.0,3,ch1Sound_localizationTask.wav,13.0,"(1142, 878)","(182, -202)",190,-338,,,,,,,,,,,,,3,1,22,5,,,,,,,,,,,,,,,,,,,,,,,,,,,,,,,,,,,,,,,,3097.497051087965,None,,,3100.5122356459615,None,1.6068783068783068,0.9333236250095069,3100.5122356459615,None,,,,,,,3098.495921811962,None,3098.679376199958,3098.695897509984,120,001,2023_Jul_11_1731,SpeechDraft1Carolyn_lessNoise_PlusLocalization,2021.2.3,60.37507400672498,
,,,,,,,,midLeft,-13.0,2,ch1Sound_localizationTask.wav,-13.0,"(762, 878)","(-198,-202)",-190,-338,,,,,,,,,,,,,3,2,23,1,,,,,,,,,,,,,,,,,,,,,,,,,,,,,,,,,,,,,,,,3101.462581195985,None,,,3104.478959346947,None,1.3502645502645503,0.7488220020313747,3104.478959346947,None,,,,,,,3102.4627539459616,None,3102.645977580978,3102.6626393369515,120,001,2023_Jul_11_1731,SpeechDraft1Carolyn_lessNoise_PlusLocalization,2021.2.3,60.37507400672498,
,,,,,,,,center,0.0,6,ch1Sound_localizationTask.wav,0.0,"(952, 878)","(-8,-202)",0,-338,,,,,,,,,,,,,3,3,24,3,,,,,,,,,,,,,,,,,,,,,,,,,,,,,,,,,,,,,,,,3105.229290918971,None,,,3108.2456856889767,None,1.525925925925926,0.5160126680275425,3108.2456856889767,None,,,,,,,3106.2292558099725,None,3106.412624855002,3106.429306953971,120,001,2023_Jul_11_1731,SpeechDraft1Carolyn_lessNoise_PlusLocalization,2021.2.3,60.37507400672498,
,,,,,,,,center,0.0,6,ch1Sound_localizationTask.wav,0.0,"(952, 878)","(-8,-202)",0,-338,,,,,,,,,,,,,3,4,25,3,,,,,,,,,,,,,,,,,,,,,,,,,,,,,,,,,,,,,,,,3108.762715706951,None,,,3111.779242354969,None,1.5243386243386243,0.39939296804368496,3111.779242354969,None,,,,,,,3109.7627597219544,None,3109.945962406986,3109.962608942995,120,001,2023_Jul_11_1731,SpeechDraft1Carolyn_lessNoise_PlusLocalization,2021.2.3,60.37507400672498,
,,,,,,,,farRight,19.1,4,ch1Sound_localizationTask.wav,19.1,"(1237, 878)","(277,-202)",285,-338,,,,,,,,,,,,,3,5,26,6,,,,,,,,,,,,,,,,,,,,,,,,,,,,,,,,,,,,,,,,3112.1791814009775,None,,,3115.1956768119708,None,1.6883597883597883,0.9160580059979111,3115.1956768119708,None,,,,,,,3113.1792609059485,None,3113.362785493955,3113.3792671719566,120,001,2023_Jul_11_1731,SpeechDraft1Carolyn_lessNoise_PlusLocalization,2021.2.3,60.37507400672498,
,,,,,,,,midLeft,-13.0,2,ch1Sound_localizationTask.wav,-13.0,"(762, 878)","(-198,-202)",-190,-338,,,,,,,,,,,,,3,6,27,1,,,,,,,,,,,,,,,,,,,,,,,,,,,,,,,,,,,,,,,,3116.11280712398,None,,,3119.129072446958,None,1.3677248677248677,0.5658235189621337,3119.129072446958,None,,,,,,,3117.1126124799484,None,3117.2960734049557,3117.312654462992,120,001,2023_Jul_11_1731,SpeechDraft1Carolyn_lessNoise_PlusLocalization,2021.2.3,60.37507400672498,
,,,,,,,,nearLeft,-6.5,1,ch1Sound_localizationTask.wav,-6.5,"(857, 878)","(-103,-202)",-95,-338,,,,,,,,,,,,,4,0,28,2,,,,,,,,,,,,,,,,,,,,,,,,,,,,,,,,,,,,,,,,3119.6970458009746,None,,,3122.7122455959907,None,1.433862433862434,0.5161288150120527,3122.7122455959907,None,,,,,,,3120.6959750439855,None,3120.879338306957,3120.8960276439902,120,001,2023_Jul_11_1731,SpeechDraft1Carolyn_lessNoise_PlusLocalization,2021.2.3,60.37507400672498,
,,,,,,,,farLeft,-19.1,5,ch1Sound_localizationTask.wav,-19.1,"(667, 878)","(-293,-202)",-285,-338,,,,,,,,,,,,,4,1,29,0,,,,,,,,,,,,,,,,,,,,,,,,,,,,,,,,,,,,,,,,3123.229510763951,None,,,3126.245787844993,None,1.3095238095238095,1.2832935099722818,3126.245787844993,None,,,,,,,3124.2294364659465,None,3124.412705714989,3124.4293407949735,120,001,2023_Jul_11_1731,SpeechDraft1Carolyn_lessNoise_PlusLocalization,2021.2.3,60.37507400672498,
,,,,,,,,farLeft,-19.1,5,ch1Sound_localizationTask.wav,-19.1,"(667, 878)","(-293,-202)",-285,-338,,,,,,,,,,,,,4,2,30,0,,,,,,,,,,,,,,,,,,,,,,,,,,,,,,,,,,,,,,,,3127.5459587029763,None,,,3130.5624258269672,None,1.3137566137566137,0.8150966370012611,3130.5624258269672,None,,,,,,,3128.5461780859623,None,3128.7294889419572,3128.745960011962,120,001,2023_Jul_11_1731,SpeechDraft1Carolyn_lessNoise_PlusLocalization,2021.2.3,60.37507400672498,
,,,,,,,,farLeft,-19.1,5,ch1Sound_localizationTask.wav,-19.1,"(667, 878)","(-293,-202)",-285,-338,,,,,,,,,,,,,4,3,31,0,,,,,,,,,,,,,,,,,,,,,,,,,,,,,,,,,,,,,,,,3131.3793311039917,None,,,3134.395719713997,None,1.3137566137566137,0.4993034710059874,3134.395719713997,None,,,,,,,3132.3792923729634,None,3132.562622139987,3132.5793923229794,120,001,2023_Jul_11_1731,SpeechDraft1Carolyn_lessNoise_PlusLocalization,2021.2.3,60.37507400672498,
,,,,,,,,farRight,19.1,4,ch1Sound_localizationTask.wav,19.1,"(1237, 878)","(277,-202)",285,-338,,,,,,,,,,,,,4,4,32,6,,,,,,,,,,,,,,,,,,,,,,,,,,,,,,,,,,,,,,,,3134.8961217289907,None,,,3137.9124643329997,None,1.6634920634920634,0.8657673220150173,3137.9124643329997,None,,,,,,,3135.8959670579643,None,3136.0794355199905,3136.0959678109502,120,001,2023_Jul_11_1731,SpeechDraft1Carolyn_lessNoise_PlusLocalization,2021.2.3,60.37507400672498,
,,,,,,,,midRight,13.0,3,ch1Sound_localizationTask.wav,13.0,"(1142, 878)","(182, -202)",190,-338,,,,,,,,,,,,,4,5,33,5,,,,,,,,,,,,,,,,,,,,,,,,,,,,,,,,,,,,,,,,3138.7793682479532,None,,,3141.795754580002,None,1.6412698412698412,0.665399367979262,3141.795754580002,None,,,,,,,3139.7793690709514,None,3139.962722169992,3139.9793230389478,120,001,2023_Jul_11_1731,SpeechDraft1Carolyn_lessNoise_PlusLocalization,2021.2.3,60.37507400672498,
,,,,,,,,nearLeft,-6.5,1,ch1Sound_localizationTask.wav,-6.5,"(857, 878)","(-103,-202)",-95,-338,,,,,,,,,,,,,4,6,34,2,,,,,,,,,,,,,,,,,,,,,,,,,,,,,,,,,,,,,,,,3142.462704634003,None,,,3145.4790628739865,None,1.433862433862434,0.6326543570030481,3145.4790628739865,None,,,,,,,3143.4626832079957,None,3143.6460503209964,3143.6626954889507,120,001,2023_Jul_11_1731,SpeechDraft1Carolyn_lessNoise_PlusLocalization,2021.2.3,60.37507400672498,
,,,,,,,,midRight,13.0,3,ch1Sound_localizationTask.wav,13.0,"(1142, 878)","(182, -202)",190,-338,,,,,,,,,,,,,5,0,35,5,,,,,,,,,,,,,,,,,,,,,,,,,,,,,,,,,,,,,,,,3146.1127976989956,None,,,3149.1292765679536,None,1.621164021164021,0.49979464296484366,3149.1292765679536,None,,,,,,,3147.1128275729716,None,3147.2960399949807,3147.3126309709623,120,001,2023_Jul_11_1731,SpeechDraft1Carolyn_lessNoise_PlusLocalization,2021.2.3,60.37507400672498,
,,,,,,,,farLeft,-19.1,5,ch1Sound_localizationTask.wav,-19.1,"(667, 878)","(-293,-202)",-285,-338,,,,,,,,,,,,,5,1,36,0,,,,,,,,,,,,,,,,,,,,,,,,,,,,,,,,,,,,,,,,3149.646003470989,None,,,3152.6625158929965,None,1.3185185185185184,0.74977241497254,3152.6625158929965,None,,,,,,,3150.6460943129496,None,3150.8294741059653,3150.8460359399905,120,001,2023_Jul_11_1731,SpeechDraft1Carolyn_lessNoise_PlusLocalization,2021.2.3,60.37507400672498,
,,,,,,,,midLeft,-13.0,2,ch1Sound_localizationTask.wav,-13.0,"(762, 878)","(-198,-202)",-190,-338,,,,,,,,,,,,,5,2,37,1,,,,,,,,,,,,,,,,,,,,,,,,,,,,,,,,,,,,,,,,3153.412836825999,None,,,3156.4291592019727,None,1.3973544973544973,0.565389689989388,3156.4291592019727,None,,,,,,,3154.412744628964,None,3154.596039834956,3154.6127246059477,120,001,2023_Jul_11_1731,SpeechDraft1Carolyn_lessNoise_PlusLocalization,2021.2.3,60.37507400672498,
,,,,,,,,nearLeft,-6.5,1,ch1Sound_localizationTask.wav,-6.5,"(857, 878)","(-103,-202)",-95,-338,,,,,,,,,,,,,5,3,38,2,,,,,,,,,,,,,,,,,,,,,,,,,,,,,,,,,,,,,,,,3156.996098476986,None,,,3160.0124373220024,None,1.4423280423280422,1.03230442997301,3160.0124373220024,None,,,,,,,3157.9959798019845,None,3158.179311821994,3158.1960339829675,120,001,2023_Jul_11_1731,SpeechDraft1Carolyn_lessNoise_PlusLocalization,2021.2.3,60.37507400672498,
,,,,,,,,center,0.0,6,ch1Sound_localizationTask.wav,0.0,"(952, 878)","(-8,-202)",0,-338,,,,,,,,,,,,,5,4,39,3,,,,,,,,,,,,,,,,,,,,,,,,,,,,,,,,,,,,,,,,3161.0460292259813,None,,,3164.0624733739533,None,1.5074074074074075,0.8327823100262322,3164.0624733739533,None,,,,,,,3162.046086030954,None,3162.2294093389646,3162.2459812960005,120,001,2023_Jul_11_1731,SpeechDraft1Carolyn_lessNoise_PlusLocalization,2021.2.3,60.37507400672498,
,,,,,,,,nearRight,6.5,0,ch1Sound_localizationTask.wav,6.5,"(1047, 878)","(87, -202)",95,-338,,,,,,,,,,,,,5,5,40,4,,,,,,,,,,,,,,,,,,,,,,,,,,,,,,,,,,,,,,,,3164.89625592198,None,,,3167.91256454197,None,1.5613756613756613,0.5495388330309652,3167.91256454197,None,,,,,,,3165.896126223961,None,3166.079410431965,3166.0960877609905,120,001,2023_Jul_11_1731,SpeechDraft1Carolyn_lessNoise_PlusLocalization,2021.2.3,60.37507400672498,
,,,,,,,,nearRight,6.5,0,ch1Sound_localizationTask.wav,6.5,"(1047, 878)","(87, -202)",95,-338,,,,,,,,,,,,,5,6,41,4,,,,,,,,,,,,,,,,,,,,,,,,,,,,,,,,,,,,,,,,3168.4630884829676,None,,,3171.4791461349814,None,1.5613756613756613,0.4492802079766989,3171.4791461349814,None,,,,,,,3169.4627350799856,None,3169.646079580998,3169.662784666987,120,001,2023_Jul_11_1731,SpeechDraft1Carolyn_lessNoise_PlusLocalization,2021.2.3,60.37507400672498,
,,,,,,,,midLeft,-13.0,2,ch1Sound_localizationTask.wav,-13.0,"(762, 878)","(-198,-202)",-190,-338,,,,,,,,,,,,,6,0,42,1,,,,,,,,,,,,,,,,,,,,,,,,,,,,,,,,,,,,,,,,3171.929385632975,None,,,3174.9459050269797,None,1.3793650793650793,0.8157283519976772,3174.9459050269797,None,,,,,,,3172.92953376699,None,3173.11273006798,3173.129364166991,120,001,2023_Jul_11_1731,SpeechDraft1Carolyn_lessNoise_PlusLocalization,2021.2.3,60.37507400672498,
,,,,,,,,nearRight,6.5,0,ch1Sound_localizationTask.wav,6.5,"(1047, 878)","(87, -202)",95,-338,,,,,,,,,,,,,6,1,43,4,,,,,,,,,,,,,,,,,,,,,,,,,,,,,,,,,,,,,,,,3175.7629998899647,None,,,3178.779222609999,None,1.5592592592592593,0.815399732964579,3178.779222609999,None,,,,,,,3176.7626604579855,None,3176.9460601710016,3176.962650610949,120,001,2023_Jul_11_1731,SpeechDraft1Carolyn_lessNoise_PlusLocalization,2021.2.3,60.37507400672498,
,,,,,,,,nearLeft,-6.5,1,ch1Sound_localizationTask.wav,-6.5,"(857, 878)","(-103,-202)",-95,-338,,,,,,,,,,,,,6,2,44,2,,,,,,,,,,,,,,,,,,,,,,,,,,,,,,,,,,,,,,,,3179.5961180769955,None,,,3182.612509791972,None,1.4444444444444444,0.533052179031074,3182.612509791972,None,,,,,,,3180.5961146679474,None,3180.7793453639606,3180.796059477958,120,001,2023_Jul_11_1731,SpeechDraft1Carolyn_lessNoise_PlusLocalization,2021.2.3,60.37507400672498,
,,,,,,,,nearRight,6.5,0,ch1Sound_localizationTask.wav,6.5,"(1047, 878)","(87, -202)",95,-338,,,,,,,,,,,,,6,3,45,4,,,,,,,,,,,,,,,,,,,,,,,,,,,,,,,,,,,,,,,,3183.146366128989,None,,,3186.1626526369946,None,1.5767195767195767,0.4818527869647369,3186.1626526369946,None,,,,,,,3184.146033522964,None,3184.329424579977,3184.3460776009597,120,001,2023_Jul_11_1731,SpeechDraft1Carolyn_lessNoise_PlusLocalization,2021.2.3,60.37507400672498,
,,,,,,,,center,0.0,6,ch1Sound_localizationTask.wav,0.0,"(952, 878)","(-8,-202)",0,-338,,,,,,,,,,,,,6,4,46,3,,,,,,,,,,,,,,,,,,,,,,,,,,,,,,,,,,,,,,,,3186.646110485948,None,,,3189.662738433981,None,1.511111111111111,0.7159847379662097,3189.662738433981,None,,,,,,,3187.6460765829543,None,3187.8293637369643,3187.846114035987,120,001,2023_Jul_11_1731,SpeechDraft1Carolyn_lessNoise_PlusLocalization,2021.2.3,60.37507400672498,
,,,,,,,,center,0.0,6,ch1Sound_localizationTask.wav,0.0,"(952, 878)","(-8,-202)",0,-338,,,,,,,,,,,,,6,5,47,3,,,,,,,,,,,,,,,,,,,,,,,,,,,,,,,,,,,,,,,,3190.3794682309963,None,,,3193.3957983479486,None,1.511111111111111,0.48291349498322234,3193.3957983479486,None,,,,,,,3191.379477476992,None,3191.5628364429576,3191.579410320963,120,001,2023_Jul_11_1731,SpeechDraft1Carolyn_lessNoise_PlusLocalization,2021.2.3,60.37507400672498,
,,,,,,,,midLeft,-13.0,2,ch1Sound_localizationTask.wav,-13.0,"(762, 878)","(-198,-202)",-190,-338,,,,,,,,,,,,,6,6,48,1,,,,,,,,,,,,,,,,,,,,,,,,,,,,,,,,,,,,,,,,3193.879393480951,None,,,3196.8958551059477,None,1.4063492063492062,0.5326283619506285,3196.8958551059477,None,,,,,,,3194.879343253968,None,3195.0627801409573,3195.079361660988,120,001,2023_Jul_11_1731,SpeechDraft1Carolyn_lessNoise_PlusLocalization,2021.2.3,60.37507400672498,
,,,,,,,,nearLeft,-6.5,1,ch1Sound_localizationTask.wav,-6.5,"(857, 878)","(-103,-202)",-95,-338,,,,,,,,,,,,,7,0,49,2,,,,,,,,,,,,,,,,,,,,,,,,,,,,,,,,,,,,,,,,3197.4294756570016,None,,,3200.4458627330023,None,1.4211640211640213,0.5323680490255356,3200.4458627330023,None,,,,,,,3198.4298636079766,None,3198.612751280947,3198.62935119099,120,001,2023_Jul_11_1731,SpeechDraft1Carolyn_lessNoise_PlusLocalization,2021.2.3,60.37507400672498,
,,,,,,,,farRight,19.1,4,ch1Sound_localizationTask.wav,19.1,"(1237, 878)","(277,-202)",285,-338,,,,,,,,,,,,,7,1,50,6,,,,,,,,,,,,,,,,,,,,,,,,,,,,,,,,,,,,,,,,3200.9795135519817,None,,,3203.995998942002,None,1.680952380952381,0.4480299050337635,3203.995998942002,None,,,,,,,3201.9794163099723,None,3202.162811424001,3202.1794696839643,120,001,2023_Jul_11_1731,SpeechDraft1Carolyn_lessNoise_PlusLocalization,2021.2.3,60.37507400672498,
,,,,,,,,farRight,19.1,4,ch1Sound_localizationTask.wav,19.1,"(1237, 878)","(277,-202)",285,-338,,,,,,,,,,,,,7,2,51,6,,,,,,,,,,,,,,,,,,,,,,,,,,,,,,,,,,,,,,,,3204.446101516951,None,,,3207.4625259509776,None,1.680952380952381,0.3994674120331183,3207.4625259509776,None,,,,,,,3205.4460641579935,None,3205.629433271999,3205.645990912977,120,001,2023_Jul_11_1731,SpeechDraft1Carolyn_lessNoise_PlusLocalization,2021.2.3,60.37507400672498,
,,,,,,,,farRight,19.1,4,ch1Sound_localizationTask.wav,19.1,"(1237, 878)","(277,-202)",285,-338,,,,,,,,,,,,,7,3,52,6,,,,,,,,,,,,,,,,,,,,,,,,,,,,,,,,,,,,,,,,3207.862858828972,None,,,3210.8792353509925,None,1.680952380952381,0.4661055359756574,3210.8792353509925,None,,,,,,,3208.8628304309677,None,3209.04608295497,3209.0627897469676,120,001,2023_Jul_11_1731,SpeechDraft1Carolyn_lessNoise_PlusLocalization,2021.2.3,60.37507400672498,
,,,,,,,,farRight,19.1,4,ch1Sound_localizationTask.wav,19.1,"(1237, 878)","(277,-202)",285,-338,,,,,,,,,,,,,7,4,53,6,,,,,,,,,,,,,,,,,,,,,,,,,,,,,,,,,,,,,,,,3211.346419298963,None,,,3214.3625272719655,None,1.680952380952381,0.49962417501956224,3214.3625272719655,None,,,,,,,3212.3460875919554,None,3212.5294626499526,3212.546080473985,120,001,2023_Jul_11_1731,SpeechDraft1Carolyn_lessNoise_PlusLocalization,2021.2.3,60.37507400672498,
,,,,,,,,nearLeft,-6.5,1,ch1Sound_localizationTask.wav,-6.5,"(857, 878)","(-103,-202)",-95,-338,,,,,,,,,,,,,7,5,54,2,,,,,,,,,,,,,,,,,,,,,,,,,,,,,,,,,,,,,,,,3214.863267740002,None,,,3217.879191439948,None,1.444973544973545,1.0158593379892409,3217.879191439948,None,,,,,,,3215.8628130269935,None,3216.04610050295,3216.062674089975,120,001,2023_Jul_11_1731,SpeechDraft1Carolyn_lessNoise_PlusLocalization,2021.2.3,60.37507400672498,
,,,,,,,,midRight,13.0,3,ch1Sound_localizationTask.wav,13.0,"(1142, 878)","(182, -202)",190,-338,,,,,,,,,,,,,7,6,55,5,,,,,,,,,,,,,,,,,,,,,,,,,,,,,,,,,,,,,,,,3218.8961248509586,None,,,3221.9127284169663,None,1.5989417989417989,0.5157938679913059,3221.9127284169663,None,,,,,,,3219.896144324972,None,3220.079493106983,3220.096123849973,120,001,2023_Jul_11_1731,SpeechDraft1Carolyn_lessNoise_PlusLocalization,2021.2.3,60.37507400672498,
