Audio_Only_Files,Video_Files,Original_Word_List,noiseLevelCode,conditionCodes,noiseLevelFile1,noiseLevelFile2,InstrTextVar,targetSpeakerName,targetSpeakerEccen,targetSpkrChannel,targetSpkrSound,targetVisualDegrees,visStimLoc,visStimLoc2,visStimW,visStimH,practiceTrials.thisRepN,practiceTrials.thisTrialN,practiceTrials.thisN,practiceTrials.thisIndex,trials.thisRepN,trials.thisTrialN,trials.thisN,trials.thisIndex,audLocalLoop.thisRepN,audLocalLoop.thisTrialN,audLocalLoop.thisN,audLocalLoop.thisIndex,visualLocalLoop.thisRepN,visualLocalLoop.thisTrialN,visualLocalLoop.thisN,visualLocalLoop.thisIndex,letsGoAlready.keys,letsGoAlready.rt,letsGoAlready.started,letsGoAlready.stopped,text_2.started,text_2.stopped,text_3.started,text_3.stopped,key_resp_2.keys,key_resp_2.rt,key_resp_2.started,key_resp_2.stopped,text_5.started,text_5.stopped,fixCross.started,fixCross.stopped,fixCross2.started,fixCross2.stopped,answerPrompt.started,answerPrompt.stopped,getAnswer.text,getAnswer.started,getAnswer.stopped,goToNext.keys,goToNext.rt,goToNext.started,goToNext.stopped,stretchBreakTxrt.started,stretchBreakTxrt.stopped,key_resp_3.keys,key_resp_3.rt,key_resp_3.started,key_resp_3.stopped,letsGoLocal.keys,letsGoLocal.rt,letsGoLocal.started,letsGoLocal.stopped,text_4.started,text_4.stopped,prepFixTxt.started,prepFixTxt.stopped,prepFixTxt_2.started,prepFixTxt_2.stopped,respPromptLocal.started,respPromptLocal.stopped,slider.response,slider.rt,slider.started,slider.stopped,letsGoLocal_2.keys,letsGoLocal_2.rt,letsGoLocal_2.started,letsGoLocal_2.stopped,text_7.started,text_7.stopped,prepFixTxt_3.started,prepFixTxt_3.stopped,grating.started,grating.stopped,exitTxt.started,exitTxt.stopped,key_resp.keys,key_resp.rt,key_resp.started,key_resp.stopped,participant,session,date,expName,psychopyVersion,frameRate,
,,,,,,,,,,,,,,,,,,,,,,,,,,,,,,,,,space,1.5930990759516135,10.858094285009429,None,,,,,,,,,,,,,,,,,,,,,,,,,,,,,,,,,,,,,,,,,,,,,,,,,,,,,,,,,,,,,,121,001,2023_Jul_21_1754,SpeechDraft1Carolyn_lessNoise_PlusLocalization,2021.2.3,60.02350591495837,
,,,,,,,,,,,,,,,,,,,,,,,,,,,,,,,,,,,,,10.858094285009429,None,12.574361939099617,None,space,875.9974420280196,12.757748275995255,None,,,,,,,,,,,,,,,,,,,,,,,,,,,,,,,,,,,,,,,,,,,,,,,,,,,,,,121,001,2023_Jul_21_1754,SpeechDraft1Carolyn_lessNoise_PlusLocalization,2021.2.3,60.02350591495837,
ash.wav,ash.mpg,ash,1,A,Pink_Noise_1_1.wav,Pink_Noise_1_2.wav,"This is an example of an

AUDIO trial",,,,,,,,,,0,0,0,0,,,,,,,,,,,,,,,,,,,,,,,,,888.8085224780953,None,889.792469537002,None,893.125010067015,None,894.508782220073,None,ash,894.508782220073,None,return,6.043058428913355,894.5920831230469,None,,,,,,,,,,,,,,,,,,,,,,,,,,,,,,,,,,,,,,,121,001,2023_Jul_21_1754,SpeechDraft1Carolyn_lessNoise_PlusLocalization,2021.2.3,60.02350591495837,
ash.wav,ash.mpg,ash,1,AV,Pink_Noise_1_1.wav,Pink_Noise_1_2.wav,"This is an example of an

AUDIO + VIDEO  trial",,,,,,,,,,0,1,1,1,,,,,,,,,,,,,,,,,,,,,,,,,900.675161912106,None,901.6754720550962,None,903.1586588340579,None,904.542048451025,None,ash,904.542048451025,None,return,1.9137990670278668,904.6254298340064,None,,,,,,,,,,,,,,,,,,,,,,,,,,,,,,,,,,,,,,,121,001,2023_Jul_21_1754,SpeechDraft1Carolyn_lessNoise_PlusLocalization,2021.2.3,60.02350591495837,
,,,,,,,,,,,,,,,,,,,,,,,,,,,,,,,,,,,,,,,,,,,,,,,,,,,,,,,,,,,,906.5752950099995,None,space,42.37235178507399,906.7588643931085,None,,,,,,,,,,,,,,,,,,,,,,,,,,,,,,,,,121,001,2023_Jul_21_1754,SpeechDraft1Carolyn_lessNoise_PlusLocalization,2021.2.3,60.02350591495837,
cone.wav,cone.mpg,cone,6,AV,Pink_Noise_6_1.wav,Pink_Noise_6_2.wav,,,,,,,,,,,,,,,0,0,0,67,,,,,,,,,,,,,,,,,,,,,,,949.1919844570803,None,950.6592887950828,None,952.0421264270553,None,"go
",952.0421264270553,None,return,5.333447052980773,952.1257102499949,None,,,,,,,,,,,,,,,,,,,,,,,,,,,,,,,,,,,,,,,121,001,2023_Jul_21_1754,SpeechDraft1Carolyn_lessNoise_PlusLocalization,2021.2.3,60.02350591495837,
drunk.wav,drunk.mpg,drunk,5,A,Pink_Noise_5_1.wav,Pink_Noise_5_2.wav,,,,,,,,,,,,,,,0,1,1,6,,,,,,,,,,,,,,,,,,,,,,,957.4921750200447,None,958.9919085020665,None,960.3755054580979,None,go,960.3755054580979,None,return,1.2882069690385833,960.4590728610056,None,,,,,,,,,,,,,,,,,,,,,,,,,,,,,,,,,,,,,,,121,001,2023_Jul_21_1754,SpeechDraft1Carolyn_lessNoise_PlusLocalization,2021.2.3,60.02350591495837,
glue.wav,glue.mpg,glue,5,A,Pink_Noise_5_1.wav,Pink_Noise_5_2.wav,,,,,,,,,,,,,,,0,2,2,47,,,,,,,,,,,,,,,,,,,,,,,961.7755263780709,None,963.2595891481033,None,964.6422455210704,None,do,964.6422455210704,None,return,13.605714407982305,964.7255369781051,None,,,,,,,,,,,,,,,,,,,,,,,,,,,,,,,,,,,,,,,121,001,2023_Jul_21_1754,SpeechDraft1Carolyn_lessNoise_PlusLocalization,2021.2.3,60.02350591495837,
cold.wav,cold.mpg,cold,4,AV,Pink_Noise_4_1.wav,Pink_Noise_4_2.wav,,,,,,,,,,,,,,,0,3,3,95,,,,,,,,,,,,,,,,,,,,,,,978.3589683760656,None,979.8586246430641,None,981.2421384450281,None,cold,981.2421384450281,None,return,2.213472798001021,981.3257938080933,None,,,,,,,,,,,,,,,,,,,,,,,,,,,,,,,,,,,,,,,121,001,2023_Jul_21_1754,SpeechDraft1Carolyn_lessNoise_PlusLocalization,2021.2.3,60.02350591495837,
camp.wav,camp.mpg,camp,6,A,Pink_Noise_6_1.wav,Pink_Noise_6_2.wav,,,,,,,,,,,,,,,0,4,4,54,,,,,,,,,,,,,,,,,,,,,,,983.5590807250701,None,985.0420194939943,None,986.4257573320065,None,could,986.4257573320065,None,return,20.16625607002061,986.5089939710451,None,,,,,,,,,,,,,,,,,,,,,,,,,,,,,,,,,,,,,,,121,001,2023_Jul_21_1754,SpeechDraft1Carolyn_lessNoise_PlusLocalization,2021.2.3,60.02350591495837,
bun.wav,bun.mpg,bun,3,AV,Pink_Noise_3_1.wav,Pink_Noise_3_2.wav,,,,,,,,,,,,,,,0,5,5,87,,,,,,,,,,,,,,,,,,,,,,,1006.6923017191002,None,1008.1919054080499,None,1009.5756021970883,None,"bun
",1009.5756021970883,None,return,6.336280238931067,1009.6588826200459,None,,,,,,,,,,,,,,,,,,,,,,,,,,,,,,,,,,,,,,,121,001,2023_Jul_21_1754,SpeechDraft1Carolyn_lessNoise_PlusLocalization,2021.2.3,60.02350591495837,
pact.wav,pact.mpg,pact,6,AV,Pink_Noise_6_1.wav,Pink_Noise_6_2.wav,,,,,,,,,,,,,,,0,6,6,81,,,,,,,,,,,,,,,,,,,,,,,1016.0256266810466,None,1017.5090840100311,None,1018.8922465930227,None,pat,1018.8922465930227,None,return,12.763590869959444,1018.9756520210067,None,,,,,,,,,,,,,,,,,,,,,,,,,,,,,,,,,,,,,,,121,001,2023_Jul_21_1754,SpeechDraft1Carolyn_lessNoise_PlusLocalization,2021.2.3,60.02350591495837,
flash.wav,flash.mpg,flash,2,A,Pink_Noise_2_1.wav,Pink_Noise_2_2.wav,,,,,,,,,,,,,,,0,7,7,27,,,,,,,,,,,,,,,,,,,,,,,1031.7590343900956,None,1033.25867590704,None,1034.6422528451076,None,flasj,1034.6422528451076,None,return,7.277234841953032,1034.725908260094,None,,,,,,,,,,,,,,,,,,,,,,,,,,,,,,,,,,,,,,,121,001,2023_Jul_21_1754,SpeechDraft1Carolyn_lessNoise_PlusLocalization,2021.2.3,60.02350591495837,
fast.wav,fast.mpg,fast,5,A,Pink_Noise_5_1.wav,Pink_Noise_5_2.wav,,,,,,,,,,,,,,,0,8,8,24,,,,,,,,,,,,,,,,,,,,,,,1042.0257168570533,None,1043.509415152017,None,1044.8924342941027,None,flask,1044.8924342941027,None,return,8.107587674050592,1044.9755660210503,None,,,,,,,,,,,,,,,,,,,,,,,,,,,,,,,,,,,,,,,121,001,2023_Jul_21_1754,SpeechDraft1Carolyn_lessNoise_PlusLocalization,2021.2.3,60.02350591495837,
stain.wav,stain.mpg,stain,3,A,Pink_Noise_3_1.wav,Pink_Noise_3_2.wav,,,,,,,,,,,,,,,0,9,9,12,,,,,,,,,,,,,,,,,,,,,,,1053.1090875660302,None,1054.592044324032,None,1055.975667076069,None,"stained
",1055.975667076069,None,return,7.400018976069987,1056.0591684620595,None,,,,,,,,,,,,,,,,,,,,,,,,,,,,,,,,,,,,,,,121,001,2023_Jul_21_1754,SpeechDraft1Carolyn_lessNoise_PlusLocalization,2021.2.3,60.02350591495837,
choke.wav,choke.mpg,choke,1,A,Pink_Noise_1_1.wav,Pink_Noise_1_2.wav,,,,,,,,,,,,,,,0,10,10,2,,,,,,,,,,,,,,,,,,,,,,,1063.492577242083,None,1064.9919470230816,None,1066.3757227720926,None,choke,1066.3757227720926,None,return,3.9280847359914333,1066.4591005190741,None,,,,,,,,,,,,,,,,,,,,,,,,,,,,,,,,,,,,,,,121,001,2023_Jul_21_1754,SpeechDraft1Carolyn_lessNoise_PlusLocalization,2021.2.3,60.02350591495837,
grip.wav,grip.mpg,grip,4,AV,Pink_Noise_4_1.wav,Pink_Noise_4_2.wav,,,,,,,,,,,,,,,0,11,11,109,,,,,,,,,,,,,,,,,,,,,,,1070.4089462410193,None,1071.9086571530206,None,1073.2922647510422,None,grip,1073.2922647510422,None,return,5.8274667100049555,1073.3756695400225,None,,,,,,,,,,,,,,,,,,,,,,,,,,,,,,,,,,,,,,,121,001,2023_Jul_21_1754,SpeechDraft1Carolyn_lessNoise_PlusLocalization,2021.2.3,60.02350591495837,
crude.wav,crude.mpg,crude,1,A,Pink_Noise_1_1.wav,Pink_Noise_1_2.wav,,,,,,,,,,,,,,,0,12,12,21,,,,,,,,,,,,,,,,,,,,,,,1079.2258838861017,None,1080.7103402341017,None,1082.0925289280713,None,crude,1082.0925289280713,None,return,1.9074208280071616,1082.175757930032,None,,,,,,,,,,,,,,,,,,,,,,,,,,,,,,,,,,,,,,,121,001,2023_Jul_21_1754,SpeechDraft1Carolyn_lessNoise_PlusLocalization,2021.2.3,60.02350591495837,
peach.wav,peach.mpg,peach,6,AV,Pink_Noise_6_1.wav,Pink_Noise_6_2.wav,,,,,,,,,,,,,,,0,13,13,97,,,,,,,,,,,,,,,,,,,,,,,1084.1091563299997,None,1085.5920522520319,None,1086.9756139790406,None,pinch,1086.9756139790406,None,return,21.504141461104155,1087.0590137570398,None,,,,,,,,,,,,,,,,,,,,,,,,,,,,,,,,,,,,,,,121,001,2023_Jul_21_1754,SpeechDraft1Carolyn_lessNoise_PlusLocalization,2021.2.3,60.02350591495837,
dust.wav,dust.mpg,dust,2,AV,Pink_Noise_2_1.wav,Pink_Noise_2_2.wav,,,,,,,,,,,,,,,0,14,14,111,,,,,,,,,,,,,,,,,,,,,,,1108.5923926990945,None,1110.0923675280064,None,1111.4757607050706,None,dust,1111.4757607050706,None,return,3.9801835159305483,1111.5591035820544,None,,,,,,,,,,,,,,,,,,,,,,,,,,,,,,,,,,,,,,,121,001,2023_Jul_21_1754,SpeechDraft1Carolyn_lessNoise_PlusLocalization,2021.2.3,60.02350591495837,
firm.wav,firm.mpg,firm,5,AV,Pink_Noise_5_1.wav,Pink_Noise_5_2.wav,,,,,,,,,,,,,,,0,15,15,83,,,,,,,,,,,,,,,,,,,,,,,1115.559103748994,None,1117.0420457900036,None,1118.4257081710966,None,"from
",1118.4257081710966,None,return,6.534035728080198,1118.5091281110654,None,,,,,,,,,,,,,,,,,,,,,,,,,,,,,,,,,,,,,,,121,001,2023_Jul_21_1754,SpeechDraft1Carolyn_lessNoise_PlusLocalization,2021.2.3,60.02350591495837,
crush.wav,crush.mpg,crush,5,AV,Pink_Noise_5_1.wav,Pink_Noise_5_2.wav,,,,,,,,,,,,,,,0,16,16,62,,,,,,,,,,,,,,,,,,,,,,,1125.0757532300195,None,1126.5756563410396,None,1127.9589967851061,None,"crush
",1127.9589967851061,None,return,3.6167181780328974,1128.0424292460084,None,,,,,,,,,,,,,,,,,,,,,,,,,,,,,,,,,,,,,,,121,001,2023_Jul_21_1754,SpeechDraft1Carolyn_lessNoise_PlusLocalization,2021.2.3,60.02350591495837,
grow.wav,grow.mpg,grow,4,AV,Pink_Noise_4_1.wav,Pink_Noise_4_2.wav,,,,,,,,,,,,,,,0,17,17,108,,,,,,,,,,,,,,,,,,,,,,,1131.6924973620335,None,1133.19222884404,None,1134.5756891460624,None,grow,1134.5756891460624,None,return,1.9440900039626285,1134.6590461070882,None,,,,,,,,,,,,,,,,,,,,,,,,,,,,,,,,,,,,,,,121,001,2023_Jul_21_1754,SpeechDraft1Carolyn_lessNoise_PlusLocalization,2021.2.3,60.02350591495837,
lie.wav,lie.mpg,lie,4,AV,Pink_Noise_4_1.wav,Pink_Noise_4_2.wav,,,,,,,,,,,,,,,0,18,18,119,,,,,,,,,,,,,,,,,,,,,,,1136.6257763070753,None,1138.1256509290542,None,1139.509444183088,None,lie,1139.509444183088,None,return,2.04273463296704,1139.5924087720923,None,,,,,,,,,,,,,,,,,,,,,,,,,,,,,,,,,,,,,,,121,001,2023_Jul_21_1754,SpeechDraft1Carolyn_lessNoise_PlusLocalization,2021.2.3,60.02350591495837,
gut.wav,gut.mpg,gut,3,AV,Pink_Noise_3_1.wav,Pink_Noise_3_2.wav,,,,,,,,,,,,,,,0,19,19,88,,,,,,,,,,,,,,,,,,,,,,,1141.6591609790921,None,1143.1423077631043,None,1144.526278740028,None,gut,1144.526278740028,None,return,1.6499797640135512,1144.6091608610004,None,,,,,,,,,,,,,,,,,,,,,,,,,,,,,,,,,,,,,,,121,001,2023_Jul_21_1754,SpeechDraft1Carolyn_lessNoise_PlusLocalization,2021.2.3,60.02350591495837,
boil.wav,boil.mpg,boil,5,AV,Pink_Noise_5_1.wav,Pink_Noise_5_2.wav,,,,,,,,,,,,,,,0,20,20,61,,,,,,,,,,,,,,,,,,,,,,,1146.2759904060513,None,1147.7589070930844,None,1149.142455726047,None,"boy
",1149.142455726047,None,return,6.817041293950751,1149.2261260990053,None,,,,,,,,,,,,,,,,,,,,,,,,,,,,,,,,,,,,,,,121,001,2023_Jul_21_1754,SpeechDraft1Carolyn_lessNoise_PlusLocalization,2021.2.3,60.02350591495837,
bank.wav,bank.mpg,bank,6,AV,Pink_Noise_6_1.wav,Pink_Noise_6_2.wav,,,,,,,,,,,,,,,0,21,21,76,,,,,,,,,,,,,,,,,,,,,,,1156.0759667149978,None,1157.5757241829997,None,1158.9591246780474,None,pay,1158.9591246780474,None,return,12.56067792198155,1159.0424816260347,None,,,,,,,,,,,,,,,,,,,,,,,,,,,,,,,,,,,,,,,121,001,2023_Jul_21_1754,SpeechDraft1Carolyn_lessNoise_PlusLocalization,2021.2.3,60.02350591495837,
fruit.wav,fruit.mpg,fruit,4,AV,Pink_Noise_4_1.wav,Pink_Noise_4_2.wav,,,,,,,,,,,,,,,0,22,22,78,,,,,,,,,,,,,,,,,,,,,,,1171.6258228170918,None,1173.1259417660767,None,1174.5091219240567,None,fruit,1174.5091219240567,None,return,3.3387979750987142,1174.5924646760104,None,,,,,,,,,,,,,,,,,,,,,,,,,,,,,,,,,,,,,,,121,001,2023_Jul_21_1754,SpeechDraft1Carolyn_lessNoise_PlusLocalization,2021.2.3,60.02350591495837,
bat.wav,bat.mpg,bat,2,A,Pink_Noise_2_1.wav,Pink_Noise_2_2.wav,,,,,,,,,,,,,,,0,23,23,31,,,,,,,,,,,,,,,,,,,,,,,1177.9591259540757,None,1179.443037990015,None,1180.8258295370033,None,bat,1180.8258295370033,None,return,1.7660688209580258,1180.9091245330637,None,,,,,,,,,,,,,,,,,,,,,,,,,,,,,,,,,,,,,,,121,001,2023_Jul_21_1754,SpeechDraft1Carolyn_lessNoise_PlusLocalization,2021.2.3,60.02350591495837,
dump.wav,dump.mpg,dump,6,AV,Pink_Noise_6_1.wav,Pink_Noise_6_2.wav,,,,,,,,,,,,,,,0,24,24,115,,,,,,,,,,,,,,,,,,,,,,,1182.6925472459989,None,1184.1926258970052,None,1185.575768277049,None,"dump
",1185.575768277049,None,return,1.3517137150047347,1185.659444202087,None,,,,,,,,,,,,,,,,,,,,,,,,,,,,,,,,,,,,,,,121,001,2023_Jul_21_1754,SpeechDraft1Carolyn_lessNoise_PlusLocalization,2021.2.3,60.02350591495837,
build.wav,build.mpg,build,6,AV,Pink_Noise_6_1.wav,Pink_Noise_6_2.wav,,,,,,,,,,,,,,,0,25,25,64,,,,,,,,,,,,,,,,,,,,,,,1187.0425602260511,None,1188.5257068750216,None,1189.9090960520552,None,"build
",1189.9090960520552,None,return,1.9865763030247763,1189.9925829620333,None,,,,,,,,,,,,,,,,,,,,,,,,,,,,,,,,,,,,,,,121,001,2023_Jul_21_1754,SpeechDraft1Carolyn_lessNoise_PlusLocalization,2021.2.3,60.02350591495837,
flea.wav,flea.mpg,flea,1,AV,Pink_Noise_1_1.wav,Pink_Noise_1_2.wav,,,,,,,,,,,,,,,0,26,26,85,,,,,,,,,,,,,,,,,,,,,,,1192.0093203290598,None,1193.5093107700814,None,1194.8924581290921,None,flee,1194.8924581290921,None,return,2.5870865369215608,1194.976080916007,None,,,,,,,,,,,,,,,,,,,,,,,,,,,,,,,,,,,,,,,121,001,2023_Jul_21_1754,SpeechDraft1Carolyn_lessNoise_PlusLocalization,2021.2.3,60.02350591495837,
ban.wav,ban.mpg,ban,6,A,Pink_Noise_6_1.wav,Pink_Noise_6_2.wav,,,,,,,,,,,,,,,0,27,27,45,,,,,,,,,,,,,,,,,,,,,,,1197.5925870450446,None,1199.0756433170754,None,1200.4593948239926,None,squash,1200.4593948239926,None,return,7.948629653081298,1200.542587881093,None,,,,,,,,,,,,,,,,,,,,,,,,,,,,,,,,,,,,,,,121,001,2023_Jul_21_1754,SpeechDraft1Carolyn_lessNoise_PlusLocalization,2021.2.3,60.02350591495837,
grain.wav,grain.mpg,grain,1,A,Pink_Noise_1_1.wav,Pink_Noise_1_2.wav,,,,,,,,,,,,,,,0,28,28,37,,,,,,,,,,,,,,,,,,,,,,,1208.50930654502,None,1210.0088833820773,None,1211.3926480340306,None,grain,1211.3926480340306,None,return,2.2793393429601565,1211.4758351370692,None,,,,,,,,,,,,,,,,,,,,,,,,,,,,,,,,,,,,,,,121,001,2023_Jul_21_1754,SpeechDraft1Carolyn_lessNoise_PlusLocalization,2021.2.3,60.02350591495837,
fuel.wav,fuel.mpg,fuel,1,AV,Pink_Noise_1_1.wav,Pink_Noise_1_2.wav,,,,,,,,,,,,,,,0,29,29,113,,,,,,,,,,,,,,,,,,,,,,,1213.7760640690103,None,1215.2755253610667,None,1216.659543500049,None,"fuel
",1216.659543500049,None,return,1.7006424170685932,1216.7425241800956,None,,,,,,,,,,,,,,,,,,,,,,,,,,,,,,,,,,,,,,,121,001,2023_Jul_21_1754,SpeechDraft1Carolyn_lessNoise_PlusLocalization,2021.2.3,60.02350591495837,
bible.wav,bible.mpg,bible,3,AV,Pink_Noise_3_1.wav,Pink_Noise_3_2.wav,,,,,,,,,,,,,,,0,30,30,116,,,,,,,,,,,,,,,,,,,,,,,1218.4759741660673,None,1219.9755803230219,None,1221.359176924103,None,bible,1221.359176924103,None,return,2.2967198769329116,1221.4425618600799,None,,,,,,,,,,,,,,,,,,,,,,,,,,,,,,,,,,,,,,,121,001,2023_Jul_21_1754,SpeechDraft1Carolyn_lessNoise_PlusLocalization,2021.2.3,60.02350591495837,
dread.wav,dread.mpg,dread,3,A,Pink_Noise_3_1.wav,Pink_Noise_3_2.wav,,,,,,,,,,,,,,,0,31,31,10,,,,,,,,,,,,,,,,,,,,,,,1223.7591968571069,None,1225.2423801410478,None,1226.6259370690677,None,dread,1226.6259370690677,None,return,2.7739633989986032,1226.7092878740514,None,,,,,,,,,,,,,,,,,,,,,,,,,,,,,,,,,,,,,,,121,001,2023_Jul_21_1754,SpeechDraft1Carolyn_lessNoise_PlusLocalization,2021.2.3,60.02350591495837,
bunch.wav,bunch.mpg,bunch,3,A,Pink_Noise_3_1.wav,Pink_Noise_3_2.wav,,,,,,,,,,,,,,,0,32,32,34,,,,,,,,,,,,,,,,,,,,,,,1229.509211327997,None,1230.9923002240248,None,1232.3758912580088,None,flinch,1232.3758912580088,None,return,16.207598175969906,1232.4595426620217,None,,,,,,,,,,,,,,,,,,,,,,,,,,,,,,,,,,,,,,,121,001,2023_Jul_21_1754,SpeechDraft1Carolyn_lessNoise_PlusLocalization,2021.2.3,60.02350591495837,
boat.wav,boat.mpg,boat,4,AV,Pink_Noise_4_1.wav,Pink_Noise_4_2.wav,,,,,,,,,,,,,,,0,33,33,65,,,,,,,,,,,,,,,,,,,,,,,1248.6928062430816,None,1250.1924722010735,None,1251.5761835600715,None,boat,1251.5761835600715,None,return,1.8560446120100096,1251.6592355309986,None,,,,,,,,,,,,,,,,,,,,,,,,,,,,,,,,,,,,,,,121,001,2023_Jul_21_1754,SpeechDraft1Carolyn_lessNoise_PlusLocalization,2021.2.3,60.02350591495837,
ditch.wav,ditch.mpg,ditch,5,A,Pink_Noise_5_1.wav,Pink_Noise_5_2.wav,,,,,,,,,,,,,,,0,34,34,20,,,,,,,,,,,,,,,,,,,,,,,1253.542515873094,None,1255.027025457006,None,1256.4092776770703,None,"ditch
",1256.4092776770703,None,return,2.9185498899314553,1256.4926140561001,None,,,,,,,,,,,,,,,,,,,,,,,,,,,,,,,,,,,,,,,121,001,2023_Jul_21_1754,SpeechDraft1Carolyn_lessNoise_PlusLocalization,2021.2.3,60.02350591495837,
brand.wav,brand.mpg,brand,3,AV,Pink_Noise_3_1.wav,Pink_Noise_3_2.wav,,,,,,,,,,,,,,,0,35,35,80,,,,,,,,,,,,,,,,,,,,,,,1259.442786325002,None,1260.9257422010414,None,1262.3096014760667,None,"brand
",1262.3096014760667,None,return,2.4023497690213844,1262.392808246077,None,,,,,,,,,,,,,,,,,,,,,,,,,,,,,,,,,,,,,,,121,001,2023_Jul_21_1754,SpeechDraft1Carolyn_lessNoise_PlusLocalization,2021.2.3,60.02350591495837,
bite.wav,bite.mpg,bite,4,AV,Pink_Noise_4_1.wav,Pink_Noise_4_2.wav,,,,,,,,,,,,,,,0,36,36,104,,,,,,,,,,,,,,,,,,,,,,,1264.825913042063,None,1266.32559179503,None,1267.7091262580361,None,bite,1267.7091262580361,None,return,1.0264748110203072,1267.7926411930239,None,,,,,,,,,,,,,,,,,,,,,,,,,,,,,,,,,,,,,,,121,001,2023_Jul_21_1754,SpeechDraft1Carolyn_lessNoise_PlusLocalization,2021.2.3,60.02350591495837,
gaze.wav,gaze.mpg,gaze,5,A,Pink_Noise_5_1.wav,Pink_Noise_5_2.wav,,,,,,,,,,,,,,,0,37,37,9,,,,,,,,,,,,,,,,,,,,,,,1268.8427405980183,None,1270.3423222980928,None,1271.726016886998,None,jeans,1271.726016886998,None,return,3.737751130014658,1271.8093965100124,None,,,,,,,,,,,,,,,,,,,,,,,,,,,,,,,,,,,,,,,121,001,2023_Jul_21_1754,SpeechDraft1Carolyn_lessNoise_PlusLocalization,2021.2.3,60.02350591495837,
cuff.wav,cuff.mpg,cuff,5,A,Pink_Noise_5_1.wav,Pink_Noise_5_2.wav,,,,,,,,,,,,,,,0,38,38,11,,,,,,,,,,,,,,,,,,,,,,,1275.5762211610563,None,1277.0605561920675,None,1278.4427819880657,None,touch,1278.4427819880657,None,return,2.805093466071412,1278.5261412099935,None,,,,,,,,,,,,,,,,,,,,,,,,,,,,,,,,,,,,,,,121,001,2023_Jul_21_1754,SpeechDraft1Carolyn_lessNoise_PlusLocalization,2021.2.3,60.02350591495837,
crown.wav,crown.mpg,crown,2,AV,Pink_Noise_2_1.wav,Pink_Noise_2_2.wav,,,,,,,,,,,,,,,0,39,39,70,,,,,,,,,,,,,,,,,,,,,,,1281.3595201380085,None,1282.8590949299978,None,1284.2429201290943,None,"crown
",1284.2429201290943,None,return,2.9011163560207933,1284.3260391660733,None,,,,,,,,,,,,,,,,,,,,,,,,,,,,,,,,,,,,,,,121,001,2023_Jul_21_1754,SpeechDraft1Carolyn_lessNoise_PlusLocalization,2021.2.3,60.02350591495837,
count.wav,count.mpg,count,4,AV,Pink_Noise_4_1.wav,Pink_Noise_4_2.wav,,,,,,,,,,,,,,,0,40,40,60,,,,,,,,,,,,,,,,,,,,,,,1287.2594318561023,None,1288.743500186014,None,1290.1261092850473,None,pout,1290.1261092850473,None,return,4.689865124062635,1290.2093494260916,None,,,,,,,,,,,,,,,,,,,,,,,,,,,,,,,,,,,,,,,121,001,2023_Jul_21_1754,SpeechDraft1Carolyn_lessNoise_PlusLocalization,2021.2.3,60.02350591495837,
claw.wav,claw.mpg,claw,3,AV,Pink_Noise_3_1.wav,Pink_Noise_3_2.wav,,,,,,,,,,,,,,,0,41,41,73,,,,,,,,,,,,,,,,,,,,,,,1294.925886085024,None,1296.425605858094,None,1297.8093847740674,None,claw,1297.8093847740674,None,return,1.3103905250318348,1297.892763763084,None,,,,,,,,,,,,,,,,,,,,,,,,,,,,,,,,,,,,,,,121,001,2023_Jul_21_1754,SpeechDraft1Carolyn_lessNoise_PlusLocalization,2021.2.3,60.02350591495837,
bill.wav,bill.mpg,bill,3,A,Pink_Noise_3_1.wav,Pink_Noise_3_2.wav,,,,,,,,,,,,,,,0,42,42,48,,,,,,,,,,,,,,,,,,,,,,,1299.2261322260601,None,1300.7257584460313,None,1302.1092818160541,None,fill,1302.1092818160541,None,return,4.170237868092954,1302.1928999180673,None,,,,,,,,,,,,,,,,,,,,,,,,,,,,,,,,,,,,,,,121,001,2023_Jul_21_1754,SpeechDraft1Carolyn_lessNoise_PlusLocalization,2021.2.3,60.02350591495837,
phase.wav,phase.mpg,phase,4,AV,Pink_Noise_4_1.wav,Pink_Noise_4_2.wav,,,,,,,,,,,,,,,0,43,43,69,,,,,,,,,,,,,,,,,,,,,,,1306.3926447191043,None,1307.877029018011,None,1309.2593233000953,None,phase,1309.2593233000953,None,return,2.67656159598846,1309.3426355250413,None,,,,,,,,,,,,,,,,,,,,,,,,,,,,,,,,,,,,,,,121,001,2023_Jul_21_1754,SpeechDraft1Carolyn_lessNoise_PlusLocalization,2021.2.3,60.02350591495837,
giant.wav,giant.mpg,giant,1,A,Pink_Noise_1_1.wav,Pink_Noise_1_2.wav,,,,,,,,,,,,,,,0,44,44,1,,,,,,,,,,,,,,,,,,,,,,,1312.0429800910642,None,1313.5426311790943,None,1314.9260008910205,None,"giant
",1314.9260008910205,None,return,2.153735743020661,1315.0094180010492,None,,,,,,,,,,,,,,,,,,,,,,,,,,,,,,,,,,,,,,,121,001,2023_Jul_21_1754,SpeechDraft1Carolyn_lessNoise_PlusLocalization,2021.2.3,60.02350591495837,
beard.wav,beard.mpg,beard,1,AV,Pink_Noise_1_1.wav,Pink_Noise_1_2.wav,,,,,,,,,,,,,,,0,45,45,105,,,,,,,,,,,,,,,,,,,,,,,1317.1929312440334,None,1318.6927704050904,None,1320.0761627480388,None,"beard
",1320.0761627480388,None,return,5.867831815965474,1320.1593322340632,None,,,,,,,,,,,,,,,,,,,,,,,,,,,,,,,,,,,,,,,121,001,2023_Jul_21_1754,SpeechDraft1Carolyn_lessNoise_PlusLocalization,2021.2.3,60.02350591495837,
due.wav,due.mpg,due,2,A,Pink_Noise_2_1.wav,Pink_Noise_2_2.wav,,,,,,,,,,,,,,,0,46,46,5,,,,,,,,,,,,,,,,,,,,,,,1326.0593678890727,None,1327.543058496085,None,1328.9264136460843,None,"do
",1328.9264136460843,None,return,1.601775734918192,1329.0093905660324,None,,,,,,,,,,,,,,,,,,,,,,,,,,,,,,,,,,,,,,,121,001,2023_Jul_21_1754,SpeechDraft1Carolyn_lessNoise_PlusLocalization,2021.2.3,60.02350591495837,
den.wav,den.mpg,den,5,AV,Pink_Noise_5_1.wav,Pink_Noise_5_2.wav,,,,,,,,,,,,,,,0,47,47,79,,,,,,,,,,,,,,,,,,,,,,,1330.6429700530134,None,1332.1426515399944,None,1333.5261250030017,None,"day
",1333.5261250030017,None,return,8.585736001026817,1333.60941731208,None,,,,,,,,,,,,,,,,,,,,,,,,,,,,,,,,,,,,,,,121,001,2023_Jul_21_1754,SpeechDraft1Carolyn_lessNoise_PlusLocalization,2021.2.3,60.02350591495837,
flog.wav,flog.mpg,flog,3,A,Pink_Noise_3_1.wav,Pink_Noise_3_2.wav,,,,,,,,,,,,,,,0,48,48,25,,,,,,,,,,,,,,,,,,,,,,,1342.2261024250183,None,1343.7259887160035,None,1345.1095547310542,None,blog,1345.1095547310542,None,return,4.06645499705337,1345.1927769610193,None,,,,,,,,,,,,,,,,,,,,,,,,,,,,,,,,,,,,,,,121,001,2023_Jul_21_1754,SpeechDraft1Carolyn_lessNoise_PlusLocalization,2021.2.3,60.02350591495837,
castle.wav,castle.mpg,castle,6,AV,Pink_Noise_6_1.wav,Pink_Noise_6_2.wav,,,,,,,,,,,,,,,0,49,49,117,,,,,,,,,,,,,,,,,,,,,,,1349.2762390620774,None,1350.7757666810649,None,1352.1599713440519,None,castle,1352.1599713440519,None,return,2.4642014420824125,1352.2429609310348,None,,,,,,,,,,,,,,,,,,,,,,,,,,,,,,,,,,,,,,,121,001,2023_Jul_21_1754,SpeechDraft1Carolyn_lessNoise_PlusLocalization,2021.2.3,60.02350591495837,
truce.wav,truce.mpg,truce,4,A,Pink_Noise_4_1.wav,Pink_Noise_4_2.wav,,,,,,,,,,,,,,,0,50,50,4,,,,,,,,,,,,,,,,,,,,,,,1354.7260466240114,None,1356.2099519480253,None,1357.5927191980882,None,obtuse,1357.5927191980882,None,return,4.223016628064215,1357.6762000600575,None,,,,,,,,,,,,,,,,,,,,,,,,,,,,,,,,,,,,,,,121,001,2023_Jul_21_1754,SpeechDraft1Carolyn_lessNoise_PlusLocalization,2021.2.3,60.02350591495837,
faint.wav,faint.mpg,faint,5,AV,Pink_Noise_5_1.wav,Pink_Noise_5_2.wav,,,,,,,,,,,,,,,0,51,51,103,,,,,,,,,,,,,,,,,,,,,,,1361.9264407440787,None,1363.4262418100843,None,1364.809310302022,None,faint,1364.809310302022,None,return,8.510322708985768,1364.8928214190528,None,,,,,,,,,,,,,,,,,,,,,,,,,,,,,,,,,,,,,,,121,001,2023_Jul_21_1754,SpeechDraft1Carolyn_lessNoise_PlusLocalization,2021.2.3,60.02350591495837,
bless.wav,bless.mpg,bless,1,AV,Pink_Noise_1_1.wav,Pink_Noise_1_2.wav,,,,,,,,,,,,,,,0,52,52,92,,,,,,,,,,,,,,,,,,,,,,,1373.426049198024,None,1374.9258325150004,None,1376.3095663660206,None,bless,1376.3095663660206,None,return,1.282432064996101,1376.3927443920402,None,,,,,,,,,,,,,,,,,,,,,,,,,,,,,,,,,,,,,,,121,001,2023_Jul_21_1754,SpeechDraft1Carolyn_lessNoise_PlusLocalization,2021.2.3,60.02350591495837,
goal.wav,goal.mpg,goal,2,A,Pink_Noise_2_1.wav,Pink_Noise_2_2.wav,,,,,,,,,,,,,,,0,53,53,42,,,,,,,,,,,,,,,,,,,,,,,1377.6927484160988,None,1379.1775378200691,None,1380.5764073180035,None,goal,1380.5764073180035,None,return,0.8237805999815464,1380.6594870430417,None,,,,,,,,,,,,,,,,,,,,,,,,,,,,,,,,,,,,,,,121,001,2023_Jul_21_1754,SpeechDraft1Carolyn_lessNoise_PlusLocalization,2021.2.3,60.02350591495837,
dad.wav,dad.mpg,dad,1,A,Pink_Noise_1_1.wav,Pink_Noise_1_2.wav,,,,,,,,,,,,,,,0,54,54,59,,,,,,,,,,,,,,,,,,,,,,,1381.509515020065,None,1383.0095715071075,None,1384.3927455610828,None,dad,1384.3927455610828,None,return,0.8630155569408089,1384.4761789439945,None,,,,,,,,,,,,,,,,,,,,,,,,,,,,,,,,,,,,,,,121,001,2023_Jul_21_1754,SpeechDraft1Carolyn_lessNoise_PlusLocalization,2021.2.3,60.02350591495837,
boss.wav,boss.mpg,boss,2,AV,Pink_Noise_2_1.wav,Pink_Noise_2_2.wav,,,,,,,,,,,,,,,0,55,55,101,,,,,,,,,,,,,,,,,,,,,,,1385.359550701105,None,1386.859205653076,None,1388.242729619029,None,floss,1388.242729619029,None,return,1.780908646993339,1388.326246244018,None,,,,,,,,,,,,,,,,,,,,,,,,,,,,,,,,,,,,,,,121,001,2023_Jul_21_1754,SpeechDraft1Carolyn_lessNoise_PlusLocalization,2021.2.3,60.02350591495837,
deem.wav,deem.mpg,deem,6,A,Pink_Noise_6_1.wav,Pink_Noise_6_2.wav,,,,,,,,,,,,,,,0,56,56,15,,,,,,,,,,,,,,,,,,,,,,,1390.1264087730087,None,1391.6259190480923,None,1393.0097464740975,None,date,1393.0097464740975,None,return,7.310295286006294,1393.0928491380764,None,,,,,,,,,,,,,,,,,,,,,,,,,,,,,,,,,,,,,,,121,001,2023_Jul_21_1754,SpeechDraft1Carolyn_lessNoise_PlusLocalization,2021.2.3,60.02350591495837,
strike.wav,strike.mpg,strike,3,A,Pink_Noise_3_1.wav,Pink_Noise_3_2.wav,,,,,,,,,,,,,,,0,57,57,46,,,,,,,,,,,,,,,,,,,,,,,1400.4261064360617,None,1401.9257857020712,None,1403.3096730849938,None,strike,1403.3096730849938,None,return,2.226383747998625,1403.3927599760937,None,,,,,,,,,,,,,,,,,,,,,,,,,,,,,,,,,,,,,,,121,001,2023_Jul_21_1754,SpeechDraft1Carolyn_lessNoise_PlusLocalization,2021.2.3,60.02350591495837,
check.wav,check.mpg,check,3,AV,Pink_Noise_3_1.wav,Pink_Noise_3_2.wav,,,,,,,,,,,,,,,0,58,58,63,,,,,,,,,,,,,,,,,,,,,,,1405.6427923400188,None,1407.1424765030388,None,1408.526018753997,None,check,1408.526018753997,None,return,1.5217789380112663,1408.6094481210457,None,,,,,,,,,,,,,,,,,,,,,,,,,,,,,,,,,,,,,,,121,001,2023_Jul_21_1754,SpeechDraft1Carolyn_lessNoise_PlusLocalization,2021.2.3,60.02350591495837,
row.wav,row.mpg,row,2,A,Pink_Noise_2_1.wav,Pink_Noise_2_2.wav,,,,,,,,,,,,,,,0,59,59,38,,,,,,,,,,,,,,,,,,,,,,,1410.1596930590458,None,1411.6592553730588,None,1413.0428197400179,None,row,1413.0428197400179,None,return,1.0210226819617674,1413.1261390660657,None,,,,,,,,,,,,,,,,,,,,,,,,,,,,,,,,,,,,,,,121,001,2023_Jul_21_1754,SpeechDraft1Carolyn_lessNoise_PlusLocalization,2021.2.3,60.02350591495837,
greed.wav,greed.mpg,greed,4,A,Pink_Noise_4_1.wav,Pink_Noise_4_2.wav,,,,,,,,,,,,,,,0,60,60,50,,,,,,,,,,,,,,,,,,,,,,,1414.1761032330105,None,1415.6761136190034,None,1417.05975584907,None,greedy,1417.05975584907,None,return,2.5403144860174507,1417.142851797049,None,,,,,,,,,,,,,,,,,,,,,,,,,,,,,,,,,,,,,,,121,001,2023_Jul_21_1754,SpeechDraft1Carolyn_lessNoise_PlusLocalization,2021.2.3,60.02350591495837,
blend.wav,blend.mpg,blend,2,AV,Pink_Noise_2_1.wav,Pink_Noise_2_2.wav,,,,,,,,,,,,,,,0,61,61,93,,,,,,,,,,,,,,,,,,,,,,,1419.7097250240622,None,1421.2092364500277,None,1422.5927610920044,None,bled,1422.5927610920044,None,return,1.5588005830068141,1422.676342333085,None,,,,,,,,,,,,,,,,,,,,,,,,,,,,,,,,,,,,,,,121,001,2023_Jul_21_1754,SpeechDraft1Carolyn_lessNoise_PlusLocalization,2021.2.3,60.02350591495837,
built.wav,built.mpg,built,6,AV,Pink_Noise_6_1.wav,Pink_Noise_6_2.wav,,,,,,,,,,,,,,,0,62,62,74,,,,,,,,,,,,,,,,,,,,,,,1424.2595051330281,None,1425.7595258760266,None,1427.1431209180737,None,built,1427.1431209180737,None,return,2.7368207359686494,1427.2263375850162,None,,,,,,,,,,,,,,,,,,,,,,,,,,,,,,,,,,,,,,,121,001,2023_Jul_21_1754,SpeechDraft1Carolyn_lessNoise_PlusLocalization,2021.2.3,60.02350591495837,
deck.wav,deck.mpg,deck,1,A,Pink_Noise_1_1.wav,Pink_Noise_1_2.wav,,,,,,,,,,,,,,,0,63,63,26,,,,,,,,,,,,,,,,,,,,,,,1430.009222894092,None,1431.509208667092,None,1432.8931910600513,None,deck,1432.8931910600513,None,return,1.6587096570292488,1432.9764175940072,None,,,,,,,,,,,,,,,,,,,,,,,,,,,,,,,,,,,,,,,121,001,2023_Jul_21_1754,SpeechDraft1Carolyn_lessNoise_PlusLocalization,2021.2.3,60.02350591495837,
bruise.wav,bruise.mpg,bruise,6,A,Pink_Noise_6_1.wav,Pink_Noise_6_2.wav,,,,,,,,,,,,,,,0,64,64,36,,,,,,,,,,,,,,,,,,,,,,,1434.6595013340702,None,1436.159231566009,None,1437.5431681610644,None,dent,1437.5431681610644,None,return,11.616991678951308,1437.6262526870705,None,,,,,,,,,,,,,,,,,,,,,,,,,,,,,,,,,,,,,,,121,001,2023_Jul_21_1754,SpeechDraft1Carolyn_lessNoise_PlusLocalization,2021.2.3,60.02350591495837,
croak.wav,croak.mpg,croak,2,AV,Pink_Noise_2_1.wav,Pink_Noise_2_2.wav,,,,,,,,,,,,,,,0,65,65,112,,,,,,,,,,,,,,,,,,,,,,,1449.259563217056,None,1450.7592784600565,None,1452.1428387711057,None,croak,1452.1428387711057,None,return,2.048782706959173,1452.2264061390888,None,,,,,,,,,,,,,,,,,,,,,,,,,,,,,,,,,,,,,,,121,001,2023_Jul_21_1754,SpeechDraft1Carolyn_lessNoise_PlusLocalization,2021.2.3,60.02350591495837,
freak.wav,freak.mpg,freak,2,A,Pink_Noise_2_1.wav,Pink_Noise_2_2.wav,,,,,,,,,,,,,,,0,66,66,44,,,,,,,,,,,,,,,,,,,,,,,1454.2929837430129,None,1455.7926761039998,None,1457.1764665480005,None,freak,1457.1764665480005,None,return,1.127627435955219,1457.2595238790382,None,,,,,,,,,,,,,,,,,,,,,,,,,,,,,,,,,,,,,,,121,001,2023_Jul_21_1754,SpeechDraft1Carolyn_lessNoise_PlusLocalization,2021.2.3,60.02350591495837,
clog.wav,clog.mpg,clog,5,A,Pink_Noise_5_1.wav,Pink_Noise_5_2.wav,,,,,,,,,,,,,,,0,67,67,18,,,,,,,,,,,,,,,,,,,,,,,1458.4095719630131,None,1459.9093426120235,None,1461.2928246320225,None,call,1461.2928246320225,None,return,2.9629892859375104,1461.3762127150549,None,,,,,,,,,,,,,,,,,,,,,,,,,,,,,,,,,,,,,,,121,001,2023_Jul_21_1754,SpeechDraft1Carolyn_lessNoise_PlusLocalization,2021.2.3,60.02350591495837,
tool.wav,tool.mpg,tool,3,A,Pink_Noise_3_1.wav,Pink_Noise_3_2.wav,,,,,,,,,,,,,,,0,68,68,51,,,,,,,,,,,,,,,,,,,,,,,1464.3596105710603,None,1465.8593018100364,None,1467.2428536569932,None,tool,1467.2428536569932,None,return,3.124860687996261,1467.3262766801054,None,,,,,,,,,,,,,,,,,,,,,,,,,,,,,,,,,,,,,,,121,001,2023_Jul_21_1754,SpeechDraft1Carolyn_lessNoise_PlusLocalization,2021.2.3,60.02350591495837,
chalk.wav,chalk.mpg,chalk,5,AV,Pink_Noise_5_1.wav,Pink_Noise_5_2.wav,,,,,,,,,,,,,,,0,69,69,86,,,,,,,,,,,,,,,,,,,,,,,1470.4762346830685,None,1471.9760193160037,None,1473.3594592669979,None,chalk,1473.3594592669979,None,return,2.6162825550418347,1473.44294235704,None,,,,,,,,,,,,,,,,,,,,,,,,,,,,,,,,,,,,,,,121,001,2023_Jul_21_1754,SpeechDraft1Carolyn_lessNoise_PlusLocalization,2021.2.3,60.02350591495837,
swamp.wav,swamp.mpg,swamp,6,AV,Pink_Noise_6_1.wav,Pink_Noise_6_2.wav,,,,,,,,,,,,,,,0,70,70,107,,,,,,,,,,,,,,,,,,,,,,,1476.0764177860692,None,1477.5759813970653,None,1478.9595433130162,None,swamp,1478.9595433130162,None,return,2.7281933929771185,1479.042952324031,None,,,,,,,,,,,,,,,,,,,,,,,,,,,,,,,,,,,,,,,121,001,2023_Jul_21_1754,SpeechDraft1Carolyn_lessNoise_PlusLocalization,2021.2.3,60.02350591495837,
flank.wav,flank.mpg,flank,5,A,Pink_Noise_5_1.wav,Pink_Noise_5_2.wav,,,,,,,,,,,,,,,0,71,71,16,,,,,,,,,,,,,,,,,,,,,,,1481.7930010450073,None,1483.2928040151019,None,1484.6765724640572,None,flight,1484.6765724640572,None,return,2.1155346130253747,1484.7596904430538,None,,,,,,,,,,,,,,,,,,,,,,,,,,,,,,,,,,,,,,,121,001,2023_Jul_21_1754,SpeechDraft1Carolyn_lessNoise_PlusLocalization,2021.2.3,60.02350591495837,
choir.wav,choir.mpg,choir,1,AV,Pink_Noise_1_1.wav,Pink_Noise_1_2.wav,,,,,,,,,,,,,,,0,72,72,66,,,,,,,,,,,,,,,,,,,,,,,1486.892902931082,None,1488.392718124087,None,1489.7764790410874,None,"choir
",1489.7764790410874,None,return,8.58339685795363,1489.8597383140586,None,,,,,,,,,,,,,,,,,,,,,,,,,,,,,,,,,,,,,,,121,001,2023_Jul_21_1754,SpeechDraft1Carolyn_lessNoise_PlusLocalization,2021.2.3,60.02350591495837,
fifth.wav,fifth.mpg,fifth,1,A,Pink_Noise_1_1.wav,Pink_Noise_1_2.wav,,,,,,,,,,,,,,,0,73,73,49,,,,,,,,,,,,,,,,,,,,,,,1498.4762744230684,None,1499.976023004041,None,1501.3596022099955,None,fifth,1501.3596022099955,None,return,8.680146900005639,1501.4430970990798,None,,,,,,,,,,,,,,,,,,,,,,,,,,,,,,,,,,,,,,,121,001,2023_Jul_21_1754,SpeechDraft1Carolyn_lessNoise_PlusLocalization,2021.2.3,60.02350591495837,
dip.wav,dip.mpg,dip,6,A,Pink_Noise_6_1.wav,Pink_Noise_6_2.wav,,,,,,,,,,,,,,,0,74,74,41,,,,,,,,,,,,,,,,,,,,,,,1510.1429102401016,None,1511.642838504049,None,1513.0265684530605,None,ditch,1513.0265684530605,None,return,2.933439904008992,1513.1097149481066,None,,,,,,,,,,,,,,,,,,,,,,,,,,,,,,,,,,,,,,,121,001,2023_Jul_21_1754,SpeechDraft1Carolyn_lessNoise_PlusLocalization,2021.2.3,60.02350591495837,
fluent.wav,fluent.mpg,fluent,2,A,Pink_Noise_2_1.wav,Pink_Noise_2_2.wav,,,,,,,,,,,,,,,0,75,75,58,,,,,,,,,,,,,,,,,,,,,,,1516.05962665705,None,1517.5593401410151,None,1518.9432548020268,None,fluid,1518.9432548020268,None,return,0.7927759459707886,1519.0263705190737,None,,,,,,,,,,,,,,,,,,,,,,,,,,,,,,,,,,,,,,,121,001,2023_Jul_21_1754,SpeechDraft1Carolyn_lessNoise_PlusLocalization,2021.2.3,60.02350591495837,
chant.wav,chant.mpg,chant,6,AV,Pink_Noise_6_1.wav,Pink_Noise_6_2.wav,,,,,,,,,,,,,,,0,76,76,98,,,,,,,,,,,,,,,,,,,,,,,1519.8429988190765,None,1521.3427694590064,None,1522.7262848800747,None,jet,1522.7262848800747,None,return,3.281455668970011,1522.8096994780935,None,,,,,,,,,,,,,,,,,,,,,,,,,,,,,,,,,,,,,,,121,001,2023_Jul_21_1754,SpeechDraft1Carolyn_lessNoise_PlusLocalization,2021.2.3,60.02350591495837,
script.wav,script.mpg,script,1,A,Pink_Noise_1_1.wav,Pink_Noise_1_2.wav,,,,,,,,,,,,,,,0,77,77,8,,,,,,,,,,,,,,,,,,,,,,,1526.1095714300172,None,1527.6094950770494,None,1528.9929869050393,None,script,1528.9929869050393,None,return,1.774699282948859,1529.076445949031,None,,,,,,,,,,,,,,,,,,,,,,,,,,,,,,,,,,,,,,,121,001,2023_Jul_21_1754,SpeechDraft1Carolyn_lessNoise_PlusLocalization,2021.2.3,60.02350591495837,
funk.wav,funk.mpg,funk,5,AV,Pink_Noise_5_1.wav,Pink_Noise_5_2.wav,,,,,,,,,,,,,,,0,78,78,82,,,,,,,,,,,,,,,,,,,,,,,1530.8763178890804,None,1532.3760951129952,None,1533.759637089097,None,"fun
",1533.759637089097,None,return,1.9841646739514545,1533.8430063440464,None,,,,,,,,,,,,,,,,,,,,,,,,,,,,,,,,,,,,,,,121,001,2023_Jul_21_1754,SpeechDraft1Carolyn_lessNoise_PlusLocalization,2021.2.3,60.02350591495837,
fail.wav,fail.mpg,fail,1,AV,Pink_Noise_1_1.wav,Pink_Noise_1_2.wav,,,,,,,,,,,,,,,0,79,79,91,,,,,,,,,,,,,,,,,,,,,,,1535.8595812750282,None,1537.3593631400727,None,1538.742844565073,None,fail,1538.742844565073,None,return,1.9925597150577232,1538.8265818140935,None,,,,,,,,,,,,,,,,,,,,,,,,,,,,,,,,,,,,,,,121,001,2023_Jul_21_1754,SpeechDraft1Carolyn_lessNoise_PlusLocalization,2021.2.3,60.02350591495837,
bull.wav,bull.mpg,bull,2,AV,Pink_Noise_2_1.wav,Pink_Noise_2_2.wav,,,,,,,,,,,,,,,0,80,80,99,,,,,,,,,,,,,,,,,,,,,,,1540.843216353096,None,1542.3427451350726,None,1543.7263543180889,None,bull,1543.7263543180889,None,return,1.7295149059500545,1543.8096449919976,None,,,,,,,,,,,,,,,,,,,,,,,,,,,,,,,,,,,,,,,121,001,2023_Jul_21_1754,SpeechDraft1Carolyn_lessNoise_PlusLocalization,2021.2.3,60.02350591495837,
blame.wav,blame.mpg,blame,6,A,Pink_Noise_6_1.wav,Pink_Noise_6_2.wav,,,,,,,,,,,,,,,0,81,81,53,,,,,,,,,,,,,,,,,,,,,,,1545.5596338340547,None,1547.0593736571027,None,1548.4431187980808,None,flush,1548.4431187980808,None,return,2.004690282046795,1548.5264575449983,None,,,,,,,,,,,,,,,,,,,,,,,,,,,,,,,,,,,,,,,121,001,2023_Jul_21_1754,SpeechDraft1Carolyn_lessNoise_PlusLocalization,2021.2.3,60.02350591495837,
wild.wav,wild.mpg,wild,6,A,Pink_Noise_6_1.wav,Pink_Noise_6_2.wav,,,,,,,,,,,,,,,0,82,82,57,,,,,,,,,,,,,,,,,,,,,,,1550.5595856660511,None,1552.0597345459973,None,1553.4430402370635,None,"wire
",1553.4430402370635,None,return,1.4366913130506873,1553.526482869056,None,,,,,,,,,,,,,,,,,,,,,,,,,,,,,,,,,,,,,,,121,001,2023_Jul_21_1754,SpeechDraft1Carolyn_lessNoise_PlusLocalization,2021.2.3,60.02350591495837,
card.wav,card.mpg,card,1,A,Pink_Noise_1_1.wav,Pink_Noise_1_2.wav,,,,,,,,,,,,,,,0,83,83,0,,,,,,,,,,,,,,,,,,,,,,,1554.9930036630249,None,1556.4926720530493,None,1557.8766042210627,None,card,1557.8766042210627,None,return,1.5155582251027226,1557.9596801470034,None,,,,,,,,,,,,,,,,,,,,,,,,,,,,,,,,,,,,,,,121,001,2023_Jul_21_1754,SpeechDraft1Carolyn_lessNoise_PlusLocalization,2021.2.3,60.02350591495837,
foot.wav,foot.mpg,foot,5,A,Pink_Noise_5_1.wav,Pink_Noise_5_2.wav,,,,,,,,,,,,,,,0,84,84,17,,,,,,,,,,,,,,,,,,,,,,,1559.4930441920878,None,1560.9929051850922,None,1562.3764216620475,None,burnt,1562.3764216620475,None,return,4.191459099994972,1562.4596952280262,None,,,,,,,,,,,,,,,,,,,,,,,,,,,,,,,,,,,,,,,121,001,2023_Jul_21_1754,SpeechDraft1Carolyn_lessNoise_PlusLocalization,2021.2.3,60.02350591495837,
book.wav,book.mpg,book,2,A,Pink_Noise_2_1.wav,Pink_Noise_2_2.wav,,,,,,,,,,,,,,,0,85,85,32,,,,,,,,,,,,,,,,,,,,,,,1566.676687758998,None,1568.1761253260775,None,1569.5597030490171,None,book,1569.5597030490171,None,return,1.4079397430177778,1569.6432048960123,None,,,,,,,,,,,,,,,,,,,,,,,,,,,,,,,,,,,,,,,121,001,2023_Jul_21_1754,SpeechDraft1Carolyn_lessNoise_PlusLocalization,2021.2.3,60.02350591495837,
crew.wav,crew.mpg,crew,4,A,Pink_Noise_4_1.wav,Pink_Noise_4_2.wav,,,,,,,,,,,,,,,0,86,86,35,,,,,,,,,,,,,,,,,,,,,,,1571.0763388770865,None,1572.5760223370744,None,1573.959694663994,None,greed,1573.959694663994,None,return,5.264118656981736,1574.0430360570317,None,,,,,,,,,,,,,,,,,,,,,,,,,,,,,,,,,,,,,,,121,001,2023_Jul_21_1754,SpeechDraft1Carolyn_lessNoise_PlusLocalization,2021.2.3,60.02350591495837,
flaw.wav,flaw.mpg,flaw,3,A,Pink_Noise_3_1.wav,Pink_Noise_3_2.wav,,,,,,,,,,,,,,,0,87,87,43,,,,,,,,,,,,,,,,,,,,,,,1579.326358200051,None,1580.826527524041,None,1582.2097310670651,None,"flaw
",1582.2097310670651,None,return,0.9179757710080594,1582.2931807290297,None,,,,,,,,,,,,,,,,,,,,,,,,,,,,,,,,,,,,,,,121,001,2023_Jul_21_1754,SpeechDraft1Carolyn_lessNoise_PlusLocalization,2021.2.3,60.02350591495837,
blood.wav,blood.mpg,blood,4,A,Pink_Noise_4_1.wav,Pink_Noise_4_2.wav,,,,,,,,,,,,,,,0,88,88,30,,,,,,,,,,,,,,,,,,,,,,,1583.2434006880503,None,1584.742900766083,None,1586.1263982790988,None,flood,1586.1263982790988,None,return,1.2414530490059406,1586.2097100270912,None,,,,,,,,,,,,,,,,,,,,,,,,,,,,,,,,,,,,,,,121,001,2023_Jul_21_1754,SpeechDraft1Carolyn_lessNoise_PlusLocalization,2021.2.3,60.02350591495837,
wine.wav,wine.mpg,wine,2,AV,Pink_Noise_2_1.wav,Pink_Noise_2_2.wav,,,,,,,,,,,,,,,0,89,89,118,,,,,,,,,,,,,,,,,,,,,,,1587.4766118440311,None,1588.9760528790066,None,1590.3599581210874,None,wine,1590.3599581210874,None,return,1.296038812957704,1590.4431077620247,None,,,,,,,,,,,,,,,,,,,,,,,,,,,,,,,,,,,,,,,121,001,2023_Jul_21_1754,SpeechDraft1Carolyn_lessNoise_PlusLocalization,2021.2.3,60.02350591495837,
broom.wav,broom.mpg,broom,4,A,Pink_Noise_4_1.wav,Pink_Noise_4_2.wav,,,,,,,,,,,,,,,0,90,90,29,,,,,,,,,,,,,,,,,,,,,,,1591.7601045060437,None,1593.2594181760214,None,1594.6430773420725,None,brain,1594.6430773420725,None,return,1.756764235906303,1594.72645177308,None,,,,,,,,,,,,,,,,,,,,,,,,,,,,,,,,,,,,,,,121,001,2023_Jul_21_1754,SpeechDraft1Carolyn_lessNoise_PlusLocalization,2021.2.3,60.02350591495837,
cape.wav,cape.mpg,cape,4,A,Pink_Noise_4_1.wav,Pink_Noise_4_2.wav,,,,,,,,,,,,,,,0,91,91,28,,,,,,,,,,,,,,,,,,,,,,,1596.5099778540898,None,1598.0094399549998,None,1599.393199923099,None,"cake
",1599.393199923099,None,return,1.33457034395542,1599.476586741046,None,,,,,,,,,,,,,,,,,,,,,,,,,,,,,,,,,,,,,,,121,001,2023_Jul_21_1754,SpeechDraft1Carolyn_lessNoise_PlusLocalization,2021.2.3,60.02350591495837,
drive.wav,drive.mpg,drive,2,AV,Pink_Noise_2_1.wav,Pink_Noise_2_2.wav,,,,,,,,,,,,,,,0,92,92,68,,,,,,,,,,,,,,,,,,,,,,,1600.8433096080553,None,1602.3428009890486,None,1603.7263966180617,None,drive,1603.7263966180617,None,return,1.273375226999633,1603.8099592130166,None,,,,,,,,,,,,,,,,,,,,,,,,,,,,,,,,,,,,,,,121,001,2023_Jul_21_1754,SpeechDraft1Carolyn_lessNoise_PlusLocalization,2021.2.3,60.02350591495837,
eel.wav,eel.mpg,eel,4,A,Pink_Noise_4_1.wav,Pink_Noise_4_2.wav,,,,,,,,,,,,,,,0,93,93,33,,,,,,,,,,,,,,,,,,,,,,,1605.1096587820211,None,1606.6098829220282,None,1607.9931492920732,None,field,1607.9931492920732,None,return,1.9986120229586959,1608.076569306082,None,,,,,,,,,,,,,,,,,,,,,,,,,,,,,,,,,,,,,,,121,001,2023_Jul_21_1754,SpeechDraft1Carolyn_lessNoise_PlusLocalization,2021.2.3,60.02350591495837,
fur.wav,fur.mpg,fur,2,A,Pink_Noise_2_1.wav,Pink_Noise_2_2.wav,,,,,,,,,,,,,,,0,94,94,56,,,,,,,,,,,,,,,,,,,,,,,1610.0932226080913,None,1611.5931006500032,None,1612.9766730010742,None,"fur
",1612.9766730010742,None,return,1.1511108219856396,1613.0600476980908,None,,,,,,,,,,,,,,,,,,,,,,,,,,,,,,,,,,,,,,,121,001,2023_Jul_21_1754,SpeechDraft1Carolyn_lessNoise_PlusLocalization,2021.2.3,60.02350591495837,
chop.wav,chop.mpg,chop,1,AV,Pink_Noise_1_1.wav,Pink_Noise_1_2.wav,,,,,,,,,,,,,,,0,95,95,106,,,,,,,,,,,,,,,,,,,,,,,1614.2435088939965,None,1615.7429837390082,None,1617.126329682069,None,chap,1617.126329682069,None,return,1.6970875229453668,1617.2100672980305,None,,,,,,,,,,,,,,,,,,,,,,,,,,,,,,,,,,,,,,,121,001,2023_Jul_21_1754,SpeechDraft1Carolyn_lessNoise_PlusLocalization,2021.2.3,60.02350591495837,
gush.wav,gush.mpg,gush,3,A,Pink_Noise_3_1.wav,Pink_Noise_3_2.wav,,,,,,,,,,,,,,,0,96,96,7,,,,,,,,,,,,,,,,,,,,,,,1618.9266290740343,None,1620.4260718520964,None,1621.8098579150392,None,"gush
",1621.8098579150392,None,return,1.0700245860498399,1621.8931300120894,None,,,,,,,,,,,,,,,,,,,,,,,,,,,,,,,,,,,,,,,121,001,2023_Jul_21_1754,SpeechDraft1Carolyn_lessNoise_PlusLocalization,2021.2.3,60.02350591495837,
bone.wav,bone.mpg,bone,1,AV,Pink_Noise_1_1.wav,Pink_Noise_1_2.wav,,,,,,,,,,,,,,,0,97,97,89,,,,,,,,,,,,,,,,,,,,,,,1622.9931626840262,None,1624.492762912996,None,1625.876643907046,None,"bonw
",1625.876643907046,None,return,0.8673953718971461,1625.9597437070915,None,,,,,,,,,,,,,,,,,,,,,,,,,,,,,,,,,,,,,,,121,001,2023_Jul_21_1754,SpeechDraft1Carolyn_lessNoise_PlusLocalization,2021.2.3,60.02350591495837,
grill.wav,grill.mpg,grill,4,A,Pink_Noise_4_1.wav,Pink_Noise_4_2.wav,,,,,,,,,,,,,,,0,98,98,40,,,,,,,,,,,,,,,,,,,,,,,1626.859745642054,None,1628.3596756909974,None,1629.7431641290896,None,grill,1629.7431641290896,None,return,1.0486955191008747,1629.8265239309985,None,,,,,,,,,,,,,,,,,,,,,,,,,,,,,,,,,,,,,,,121,001,2023_Jul_21_1754,SpeechDraft1Carolyn_lessNoise_PlusLocalization,2021.2.3,60.02350591495837,
film.wav,film.mpg,film,1,AV,Pink_Noise_1_1.wav,Pink_Noise_1_2.wav,,,,,,,,,,,,,,,0,99,99,84,,,,,,,,,,,,,,,,,,,,,,,1630.8933746720431,None,1632.4094272661023,None,1633.7930751540698,None,"film
",1633.7930751540698,None,return,1.4706841160077602,1633.8764913449995,None,,,,,,,,,,,,,,,,,,,,,,,,,,,,,,,,,,,,,,,121,001,2023_Jul_21_1754,SpeechDraft1Carolyn_lessNoise_PlusLocalization,2021.2.3,60.02350591495837,
pledge.wav,pledge.mpg,pledge,3,AV,Pink_Noise_3_1.wav,Pink_Noise_3_2.wav,,,,,,,,,,,,,,,0,100,100,114,,,,,,,,,,,,,,,,,,,,,,,1635.376472707023,None,1636.8762363051064,None,1638.2597668530652,None,pledge,1638.2597668530652,None,return,3.5399656620575115,1638.343233820051,None,,,,,,,,,,,,,,,,,,,,,,,,,,,,,,,,,,,,,,,121,001,2023_Jul_21_1754,SpeechDraft1Carolyn_lessNoise_PlusLocalization,2021.2.3,60.02350591495837,
swayed.wav,swayed.mpg,swayed,4,A,Pink_Noise_4_1.wav,Pink_Noise_4_2.wav,,,,,,,,,,,,,,,0,101,101,14,,,,,,,,,,,,,,,,,,,,,,,1641.9098058320815,None,1643.4098029960878,None,1644.7930874510203,None,sway,1644.7930874510203,None,return,3.806505520013161,1644.8767419110518,None,,,,,,,,,,,,,,,,,,,,,,,,,,,,,,,,,,,,,,,121,001,2023_Jul_21_1754,SpeechDraft1Carolyn_lessNoise_PlusLocalization,2021.2.3,60.02350591495837,
round.wav,round.mpg,round,1,A,Pink_Noise_1_1.wav,Pink_Noise_1_2.wav,,,,,,,,,,,,,,,0,102,102,22,,,,,,,,,,,,,,,,,,,,,,,1648.7099068160169,None,1650.2095170459943,None,1651.5932665000437,None,round,1651.5932665000437,None,return,3.6143116040620953,1651.6768357980764,None,,,,,,,,,,,,,,,,,,,,,,,,,,,,,,,,,,,,,,,121,001,2023_Jul_21_1754,SpeechDraft1Carolyn_lessNoise_PlusLocalization,2021.2.3,60.02350591495837,
crow.wav,crow.mpg,crow,5,AV,Pink_Noise_5_1.wav,Pink_Noise_5_2.wav,,,,,,,,,,,,,,,0,103,103,94,,,,,,,,,,,,,,,,,,,,,,,1655.3098741250578,None,1656.8095809820807,None,1658.1930685749976,None,crow,1658.1930685749976,None,return,2.398754816967994,1658.2765122700948,None,,,,,,,,,,,,,,,,,,,,,,,,,,,,,,,,,,,,,,,121,001,2023_Jul_21_1754,SpeechDraft1Carolyn_lessNoise_PlusLocalization,2021.2.3,60.02350591495837,
climb.wav,climb.mpg,climb,6,A,Pink_Noise_6_1.wav,Pink_Noise_6_2.wav,,,,,,,,,,,,,,,0,104,104,3,,,,,,,,,,,,,,,,,,,,,,,1660.693175227032,None,1662.193178303074,None,1663.5765014120843,None,fine,1663.5765014120843,None,return,1.8713081349851564,1663.6598578910343,None,,,,,,,,,,,,,,,,,,,,,,,,,,,,,,,,,,,,,,,121,001,2023_Jul_21_1754,SpeechDraft1Carolyn_lessNoise_PlusLocalization,2021.2.3,60.02350591495837,
mass.wav,mass.mpg,mass,5,AV,Pink_Noise_5_1.wav,Pink_Noise_5_2.wav,,,,,,,,,,,,,,,0,105,105,90,,,,,,,,,,,,,,,,,,,,,,,1665.56005417509,None,1667.059619104024,None,1668.4430894750403,None,mass,1668.4430894750403,None,return,2.332145845051855,1668.5270697430242,None,,,,,,,,,,,,,,,,,,,,,,,,,,,,,,,,,,,,,,,121,001,2023_Jul_21_1754,SpeechDraft1Carolyn_lessNoise_PlusLocalization,2021.2.3,60.02350591495837,
freeze.wav,freeze.mpg,freeze,3,AV,Pink_Noise_3_1.wav,Pink_Noise_3_2.wav,,,,,,,,,,,,,,,0,106,106,71,,,,,,,,,,,,,,,,,,,,,,,1670.8764541100245,None,1672.376711208024,None,1673.7599054530729,None,"freeze
",1673.7599054530729,None,return,2.135942535009235,1673.8432205130812,None,,,,,,,,,,,,,,,,,,,,,,,,,,,,,,,,,,,,,,,121,001,2023_Jul_21_1754,SpeechDraft1Carolyn_lessNoise_PlusLocalization,2021.2.3,60.02350591495837,
beer.wav,beer.mpg,beer,5,A,Pink_Noise_5_1.wav,Pink_Noise_5_2.wav,,,,,,,,,,,,,,,0,107,107,52,,,,,,,,,,,,,,,,,,,,,,,1676.0098693290493,None,1677.5098654410103,None,1678.893607552047,None,fear,1678.893607552047,None,return,1.0103331790305674,1678.9768104200484,None,,,,,,,,,,,,,,,,,,,,,,,,,,,,,,,,,,,,,,,121,001,2023_Jul_21_1754,SpeechDraft1Carolyn_lessNoise_PlusLocalization,2021.2.3,60.02350591495837,
coup.wav,coup.mpg,coup,6,A,Pink_Noise_6_1.wav,Pink_Noise_6_2.wav,,,,,,,,,,,,,,,0,108,108,23,,,,,,,,,,,,,,,,,,,,,,,1680.0099382800981,None,1681.5096436390886,None,1682.8934774741065,None,food,1682.8934774741065,None,return,2.4586207419633865,1682.9765529670985,None,,,,,,,,,,,,,,,,,,,,,,,,,,,,,,,,,,,,,,,121,001,2023_Jul_21_1754,SpeechDraft1Carolyn_lessNoise_PlusLocalization,2021.2.3,60.02350591495837,
bell.wav,bell.mpg,bell,1,AV,Pink_Noise_1_1.wav,Pink_Noise_1_2.wav,,,,,,,,,,,,,,,0,109,109,102,,,,,,,,,,,,,,,,,,,,,,,1685.4601038150722,None,1686.9763015290955,None,1688.3602540250868,None,bell,1688.3602540250868,None,return,1.1436641430482268,1688.443478248082,None,,,,,,,,,,,,,,,,,,,,,,,,,,,,,,,,,,,,,,,121,001,2023_Jul_21_1754,SpeechDraft1Carolyn_lessNoise_PlusLocalization,2021.2.3,60.02350591495837,
fad.wav,fad.mpg,fad,2,A,Pink_Noise_2_1.wav,Pink_Noise_2_2.wav,,,,,,,,,,,,,,,0,110,110,13,,,,,,,,,,,,,,,,,,,,,,,1689.6098477100022,None,1691.109610590036,None,1692.4932427241001,None,fad,1692.4932427241001,None,return,0.9946245501050726,1692.576546818018,None,,,,,,,,,,,,,,,,,,,,,,,,,,,,,,,,,,,,,,,121,001,2023_Jul_21_1754,SpeechDraft1Carolyn_lessNoise_PlusLocalization,2021.2.3,60.02350591495837,
floor.wav,floor.mpg,floor,6,A,Pink_Noise_6_1.wav,Pink_Noise_6_2.wav,,,,,,,,,,,,,,,0,111,111,39,,,,,,,,,,,,,,,,,,,,,,,1693.5932292700745,None,1695.1100096650189,None,1696.4932040650165,None,sway,1696.4932040650165,None,return,13.322641874081455,1696.5766429530922,None,,,,,,,,,,,,,,,,,,,,,,,,,,,,,,,,,,,,,,,121,001,2023_Jul_21_1754,SpeechDraft1Carolyn_lessNoise_PlusLocalization,2021.2.3,60.02350591495837,
bar.wav,bar.mpg,bar,3,A,Pink_Noise_3_1.wav,Pink_Noise_3_2.wav,,,,,,,,,,,,,,,0,112,112,19,,,,,,,,,,,,,,,,,,,,,,,1709.9267479490954,None,1711.4429347640835,None,1712.8268148810603,None,"buy
",1712.8268148810603,None,return,2.853082758956589,1712.9100619220408,None,,,,,,,,,,,,,,,,,,,,,,,,,,,,,,,,,,,,,,,121,001,2023_Jul_21_1754,SpeechDraft1Carolyn_lessNoise_PlusLocalization,2021.2.3,60.02350591495837,
cloak.wav,cloak.mpg,cloak,3,AV,Pink_Noise_3_1.wav,Pink_Noise_3_2.wav,,,,,,,,,,,,,,,0,113,113,72,,,,,,,,,,,,,,,,,,,,,,,1715.7932690220186,None,1717.2929549270775,None,1718.6765111720888,None,cloak,1718.6765111720888,None,return,2.323394998908043,1718.7598507500952,None,,,,,,,,,,,,,,,,,,,,,,,,,,,,,,,,,,,,,,,121,001,2023_Jul_21_1754,SpeechDraft1Carolyn_lessNoise_PlusLocalization,2021.2.3,60.02350591495837,
grand.wav,grand.mpg,grand,5,AV,Pink_Noise_5_1.wav,Pink_Noise_5_2.wav,,,,,,,,,,,,,,,0,114,114,110,,,,,,,,,,,,,,,,,,,,,,,1721.1099233620334,None,1722.6262690380681,None,1724.0098605010426,None,"grand
",1724.0098605010426,None,return,1.1337169909384102,1724.0934404750587,None,,,,,,,,,,,,,,,,,,,,,,,,,,,,,,,,,,,,,,,121,001,2023_Jul_21_1754,SpeechDraft1Carolyn_lessNoise_PlusLocalization,2021.2.3,60.02350591495837,
chord.wav,chord.mpg,chord,2,AV,Pink_Noise_2_1.wav,Pink_Noise_2_2.wav,,,,,,,,,,,,,,,0,115,115,75,,,,,,,,,,,,,,,,,,,,,,,1725.2599074810278,None,1726.7596778610023,None,1728.1435600341065,None,cord,1728.1435600341065,None,return,3.0723580949706957,1728.2268687370233,None,,,,,,,,,,,,,,,,,,,,,,,,,,,,,,,,,,,,,,,121,001,2023_Jul_21_1754,SpeechDraft1Carolyn_lessNoise_PlusLocalization,2021.2.3,60.02350591495837,
gone.wav,gone.mpg,gone,4,A,Pink_Noise_4_1.wav,Pink_Noise_4_2.wav,,,,,,,,,,,,,,,0,116,116,55,,,,,,,,,,,,,,,,,,,,,,,1731.326588512049,None,1732.827474423102,None,1734.2099968710681,None,gaunt,1734.2099968710681,None,return,3.0297142390627414,1734.2935525130015,None,,,,,,,,,,,,,,,,,,,,,,,,,,,,,,,,,,,,,,,121,001,2023_Jul_21_1754,SpeechDraft1Carolyn_lessNoise_PlusLocalization,2021.2.3,60.02350591495837,
bread.wav,bread.mpg,bread,3,AV,Pink_Noise_3_1.wav,Pink_Noise_3_2.wav,,,,,,,,,,,,,,,0,117,117,77,,,,,,,,,,,,,,,,,,,,,,,1737.343326343107,None,1738.8430080300895,None,1740.226530949003,None,"bread
",1740.226530949003,None,return,1.2691650009946898,1740.3100000240374,None,,,,,,,,,,,,,,,,,,,,,,,,,,,,,,,,,,,,,,,121,001,2023_Jul_21_1754,SpeechDraft1Carolyn_lessNoise_PlusLocalization,2021.2.3,60.02350591495837,
drab.wav,drab.mpg,drab,4,AV,Pink_Noise_4_1.wav,Pink_Noise_4_2.wav,,,,,,,,,,,,,,,0,118,118,100,,,,,,,,,,,,,,,,,,,,,,,1741.610132841044,None,1743.1095994820353,None,1744.4933980701026,None,drab,1744.4933980701026,None,return,1.0825887109385803,1744.5766524940263,None,,,,,,,,,,,,,,,,,,,,,,,,,,,,,,,,,,,,,,,121,001,2023_Jul_21_1754,SpeechDraft1Carolyn_lessNoise_PlusLocalization,2021.2.3,60.02350591495837,
sock.wav,sock.mpg,sock,2,AV,Pink_Noise_2_1.wav,Pink_Noise_2_2.wav,,,,,,,,,,,,,,,0,119,119,96,,,,,,,,,,,,,,,,,,,,,,,1745.6766690780642,None,1747.176260397071,None,1748.559896342107,None,"sock
",1748.559896342107,None,return,2.1358252729987726,1748.6433263290673,None,,,,,,,,,,,,,,,,,,,,,,,,,,,,,,,,,,,,,,,121,001,2023_Jul_21_1754,SpeechDraft1Carolyn_lessNoise_PlusLocalization,2021.2.3,60.02350591495837,
,,,,,,,,,,,,,,,,,,,,,,,,,,,,,,,,,,,,,,,,,,,,,,,,,,,,,,,,,,,,,,,,,,space,28.95694156596437,1750.9102081120946,None,,,,,,,,,,,,,,,,,,,,,,,,,,,,,121,001,2023_Jul_21_1754,SpeechDraft1Carolyn_lessNoise_PlusLocalization,2021.2.3,60.02350591495837,
,,,,,,,,nearRight,6.5,0,ch1Sound_localizationTask.wav,6.5,"(1047, 878)","(87, -202)",95,-338,,,,,,,,,0,0,0,4,,,,,,,,,,,,,,,,,,,,,,,,,,,,,,,,,,,,,,,,,,1750.9102081120946,None,1779.9097615460632,None,1781.0264052600833,None,1781.9432243320625,None,1.1174603174603175,5.9006628500064835,1781.9432243320625,None,,,,,,,,,,,,,,,,,121,001,2023_Jul_21_1754,SpeechDraft1Carolyn_lessNoise_PlusLocalization,2021.2.3,60.02350591495837,
,,,,,,,,farLeft,-19.1,5,ch1Sound_localizationTask.wav,-19.1,"(667, 878)","(-293,-202)",-285,-338,,,,,,,,,0,1,1,0,,,,,,,,,,,,,,,,,,,,,,,,,,,,,,,,,,,,,,,,,,,,1787.8434850220801,None,1788.9430491070962,None,1789.876415738021,None,1,3.4990266170352697,1789.876415738021,None,,,,,,,,,,,,,,,,,121,001,2023_Jul_21_1754,SpeechDraft1Carolyn_lessNoise_PlusLocalization,2021.2.3,60.02350591495837,
,,,,,,,,farLeft,-19.1,5,ch1Sound_localizationTask.wav,-19.1,"(667, 878)","(-293,-202)",-285,-338,,,,,,,,,0,2,2,0,,,,,,,,,,,,,,,,,,,,,,,,,,,,,,,,,,,,,,,,,,,,1793.3766775859986,None,1794.4765289589996,None,1795.4096843430307,None,1.002116402116402,1.4334735530428588,1795.4096843430307,None,,,,,,,,,,,,,,,,,121,001,2023_Jul_21_1754,SpeechDraft1Carolyn_lessNoise_PlusLocalization,2021.2.3,60.02350591495837,
,,,,,,,,nearLeft,-6.5,1,ch1Sound_localizationTask.wav,-6.5,"(857, 878)","(-103,-202)",-95,-338,,,,,,,,,0,3,3,2,,,,,,,,,,,,,,,,,,,,,,,,,,,,,,,,,,,,,,,,,,,,1796.843661793042,None,1797.9430733390618,None,1798.8764168930938,None,1.1783068783068784,4.033436176017858,1798.8764168930938,None,,,,,,,,,,,,,,,,,121,001,2023_Jul_21_1754,SpeechDraft1Carolyn_lessNoise_PlusLocalization,2021.2.3,60.02350591495837,
,,,,,,,,nearLeft,-6.5,1,ch1Sound_localizationTask.wav,-6.5,"(857, 878)","(-103,-202)",-95,-338,,,,,,,,,0,4,4,2,,,,,,,,,,,,,,,,,,,,,,,,,,,,,,,,,,,,,,,,,,,,1802.910337233101,None,1804.009688250022,None,1804.9430925450288,None,1.1783068783068784,0.8328917269827798,1804.9430925450288,None,,,,,,,,,,,,,,,,,121,001,2023_Jul_21_1754,SpeechDraft1Carolyn_lessNoise_PlusLocalization,2021.2.3,60.02350591495837,
,,,,,,,,midLeft,-13.0,2,ch1Sound_localizationTask.wav,-13.0,"(762, 878)","(-198,-202)",-190,-338,,,,,,,,,0,5,5,1,,,,,,,,,,,,,,,,,,,,,,,,,,,,,,,,,,,,,,,,,,,,1805.7769388760207,None,1806.8763335170224,None,1807.8097822850104,None,1.1317460317460317,1.3505651929881424,1807.8097822850104,None,,,,,,,,,,,,,,,,,121,001,2023_Jul_21_1754,SpeechDraft1Carolyn_lessNoise_PlusLocalization,2021.2.3,60.02350591495837,
,,,,,,,,midLeft,-13.0,2,ch1Sound_localizationTask.wav,-13.0,"(762, 878)","(-198,-202)",-190,-338,,,,,,,,,0,6,6,1,,,,,,,,,,,,,,,,,,,,,,,,,,,,,,,,,,,,,,,,,,,,1809.1600964800455,None,1810.2599121400854,None,1811.1930386360036,None,1.1142857142857143,1.499276930000633,1811.1930386360036,None,,,,,,,,,,,,,,,,,121,001,2023_Jul_21_1754,SpeechDraft1Carolyn_lessNoise_PlusLocalization,2021.2.3,60.02350591495837,
,,,,,,,,farLeft,-19.1,5,ch1Sound_localizationTask.wav,-19.1,"(667, 878)","(-293,-202)",-285,-338,,,,,,,,,1,0,7,0,,,,,,,,,,,,,,,,,,,,,,,,,,,,,,,,,,,,,,,,,,,,1812.6933083730983,None,1813.7931559110293,None,1814.7268145220587,None,1.1883597883597883,0.9494464889867231,1814.7268145220587,None,,,,,,,,,,,,,,,,,121,001,2023_Jul_21_1754,SpeechDraft1Carolyn_lessNoise_PlusLocalization,2021.2.3,60.02350591495837,
,,,,,,,,nearRight,6.5,0,ch1Sound_localizationTask.wav,6.5,"(1047, 878)","(87, -202)",95,-338,,,,,,,,,1,1,8,4,,,,,,,,,,,,,,,,,,,,,,,,,,,,,,,,,,,,,,,,,,,,1815.6767108150525,None,1816.7765494390624,None,1817.7098749430152,None,1.4661375661375662,2.049446680000983,1817.7098749430152,None,,,,,,,,,,,,,,,,,121,001,2023_Jul_21_1754,SpeechDraft1Carolyn_lessNoise_PlusLocalization,2021.2.3,60.02350591495837,
,,,,,,,,midRight,13.0,3,ch1Sound_localizationTask.wav,13.0,"(1142, 878)","(182, -202)",190,-338,,,,,,,,,1,2,9,5,,,,,,,,,,,,,,,,,,,,,,,,,,,,,,,,,,,,,,,,,,,,1819.7602501320653,None,1820.8601434970042,None,1821.7934423740953,None,1.5603174603174603,0.7986315920716152,1821.7934423740953,None,,,,,,,,,,,,,,,,,121,001,2023_Jul_21_1754,SpeechDraft1Carolyn_lessNoise_PlusLocalization,2021.2.3,60.02350591495837,
,,,,,,,,center,0.0,6,ch1Sound_localizationTask.wav,0.0,"(952, 878)","(-8,-202)",0,-338,,,,,,,,,1,3,10,3,,,,,,,,,,,,,,,,,,,,,,,,,,,,,,,,,,,,,,,,,,,,1822.5935796180274,None,1823.6931029420812,None,1824.626464650035,None,1.4873015873015873,5.483099238947034,1824.626464650035,None,,,,,,,,,,,,,,,,,121,001,2023_Jul_21_1754,SpeechDraft1Carolyn_lessNoise_PlusLocalization,2021.2.3,60.02350591495837,
,,,,,,,,midRight,13.0,3,ch1Sound_localizationTask.wav,13.0,"(1142, 878)","(182, -202)",190,-338,,,,,,,,,1,4,11,5,,,,,,,,,,,,,,,,,,,,,,,,,,,,,,,,,,,,,,,,,,,,1830.1103239450604,None,1831.2097774849972,None,1832.143459709012,None,1.632804232804233,0.9662210009992123,1832.143459709012,None,,,,,,,,,,,,,,,,,121,001,2023_Jul_21_1754,SpeechDraft1Carolyn_lessNoise_PlusLocalization,2021.2.3,60.02350591495837,
,,,,,,,,farRight,19.1,4,ch1Sound_localizationTask.wav,19.1,"(1237, 878)","(277,-202)",285,-338,,,,,,,,,1,5,12,6,,,,,,,,,,,,,,,,,,,,,,,,,,,,,,,,,,,,,,,,,,,,1833.1100475750864,None,1834.2098652180284,None,1835.1431945840595,None,1.6666666666666667,0.8652239060029387,1835.1431945840595,None,,,,,,,,,,,,,,,,,121,001,2023_Jul_21_1754,SpeechDraft1Carolyn_lessNoise_PlusLocalization,2021.2.3,60.02350591495837,
,,,,,,,,farLeft,-19.1,5,ch1Sound_localizationTask.wav,-19.1,"(667, 878)","(-293,-202)",-285,-338,,,,,,,,,1,6,13,0,,,,,,,,,,,,,,,,,,,,,,,,,,,,,,,,,,,,,,,,,,,,1836.0102875430603,None,1837.1101682690205,None,1838.0430604540743,None,1.096825396825397,1.9332108419621363,1838.0430604540743,None,,,,,,,,,,,,,,,,,121,001,2023_Jul_21_1754,SpeechDraft1Carolyn_lessNoise_PlusLocalization,2021.2.3,60.02350591495837,
,,,,,,,,midLeft,-13.0,2,ch1Sound_localizationTask.wav,-13.0,"(762, 878)","(-198,-202)",-190,-338,,,,,,,,,2,0,14,1,,,,,,,,,,,,,,,,,,,,,,,,,,,,,,,,,,,,,,,,,,,,1839.9770655171014,None,1841.076781865093,None,1842.0100335580064,None,1.2211640211640211,0.7159236710285768,1842.0100335580064,None,,,,,,,,,,,,,,,,,121,001,2023_Jul_21_1754,SpeechDraft1Carolyn_lessNoise_PlusLocalization,2021.2.3,60.02350591495837,
,,,,,,,,center,0.0,6,ch1Sound_localizationTask.wav,0.0,"(952, 878)","(-8,-202)",0,-338,,,,,,,,,2,1,15,3,,,,,,,,,,,,,,,,,,,,,,,,,,,,,,,,,,,,,,,,,,,,1842.7271333540557,None,1843.8266978040338,None,1844.7598262870451,None,1.2195767195767195,2.7504871890414506,1844.7598262870451,None,,,,,,,,,,,,,,,,,121,001,2023_Jul_21_1754,SpeechDraft1Carolyn_lessNoise_PlusLocalization,2021.2.3,60.02350591495837,
,,,,,,,,midRight,13.0,3,ch1Sound_localizationTask.wav,13.0,"(1142, 878)","(182, -202)",190,-338,,,,,,,,,2,2,16,5,,,,,,,,,,,,,,,,,,,,,,,,,,,,,,,,,,,,,,,,,,,,1847.5100477250526,None,1848.610332655022,None,1849.5434398720972,None,1.565079365079365,0.8831704659387469,1849.5434398720972,None,,,,,,,,,,,,,,,,,121,001,2023_Jul_21_1754,SpeechDraft1Carolyn_lessNoise_PlusLocalization,2021.2.3,60.02350591495837,
,,,,,,,,midLeft,-13.0,2,ch1Sound_localizationTask.wav,-13.0,"(762, 878)","(-198,-202)",-190,-338,,,,,,,,,2,3,17,1,,,,,,,,,,,,,,,,,,,,,,,,,,,,,,,,,,,,,,,,,,,,1850.4435208060313,None,1851.5435213990277,None,1852.476698040031,None,1.3126984126984127,0.8665439459728077,1852.476698040031,None,,,,,,,,,,,,,,,,,121,001,2023_Jul_21_1754,SpeechDraft1Carolyn_lessNoise_PlusLocalization,2021.2.3,60.02350591495837,
,,,,,,,,center,0.0,6,ch1Sound_localizationTask.wav,0.0,"(952, 878)","(-8,-202)",0,-338,,,,,,,,,2,4,18,3,,,,,,,,,,,,,,,,,,,,,,,,,,,,,,,,,,,,,,,,,,,,1853.344291351037,None,1854.4435899500968,None,1855.3764575450914,None,1.3052910052910054,3.499455270008184,1855.3764575450914,None,,,,,,,,,,,,,,,,,121,001,2023_Jul_21_1754,SpeechDraft1Carolyn_lessNoise_PlusLocalization,2021.2.3,60.02350591495837,
,,,,,,,,midLeft,-13.0,2,ch1Sound_localizationTask.wav,-13.0,"(762, 878)","(-198,-202)",-190,-338,,,,,,,,,2,5,19,1,,,,,,,,,,,,,,,,,,,,,,,,,,,,,,,,,,,,,,,,,,,,1858.8769911091076,None,1859.9763980010757,None,1860.9098438380752,None,1.2978835978835979,0.6490957989590243,1860.9098438380752,None,,,,,,,,,,,,,,,,,121,001,2023_Jul_21_1754,SpeechDraft1Carolyn_lessNoise_PlusLocalization,2021.2.3,60.02350591495837,
,,,,,,,,farRight,19.1,4,ch1Sound_localizationTask.wav,19.1,"(1237, 878)","(277,-202)",285,-338,,,,,,,,,2,6,20,6,,,,,,,,,,,,,,,,,,,,,,,,,,,,,,,,,,,,,,,,,,,,1861.5604633620242,None,1862.660029726103,None,1863.593150409055,None,1.6957671957671958,1.3494703649776056,1863.593150409055,None,,,,,,,,,,,,,,,,,121,001,2023_Jul_21_1754,SpeechDraft1Carolyn_lessNoise_PlusLocalization,2021.2.3,60.02350591495837,
,,,,,,,,farRight,19.1,4,ch1Sound_localizationTask.wav,19.1,"(1237, 878)","(277,-202)",285,-338,,,,,,,,,3,0,21,6,,,,,,,,,,,,,,,,,,,,,,,,,,,,,,,,,,,,,,,,,,,,1864.9436868861085,None,1866.0431426640134,None,1866.9769206760684,None,1.7555555555555555,0.7333067239960656,1866.9769206760684,None,,,,,,,,,,,,,,,,,121,001,2023_Jul_21_1754,SpeechDraft1Carolyn_lessNoise_PlusLocalization,2021.2.3,60.02350591495837,
,,,,,,,,farLeft,-19.1,5,ch1Sound_localizationTask.wav,-19.1,"(667, 878)","(-293,-202)",-285,-338,,,,,,,,,3,1,22,0,,,,,,,,,,,,,,,,,,,,,,,,,,,,,,,,,,,,,,,,,,,,1867.710070174071,None,1868.8099160350394,None,1869.7433938350296,None,1.2232804232804233,1.1162159700179473,1869.7433938350296,None,,,,,,,,,,,,,,,,,121,001,2023_Jul_21_1754,SpeechDraft1Carolyn_lessNoise_PlusLocalization,2021.2.3,60.02350591495837,
,,,,,,,,center,0.0,6,ch1Sound_localizationTask.wav,0.0,"(952, 878)","(-8,-202)",0,-338,,,,,,,,,3,2,23,3,,,,,,,,,,,,,,,,,,,,,,,,,,,,,,,,,,,,,,,,,,,,1870.8606732730987,None,1871.9600132990163,None,1872.8933487220202,None,1.5015873015873016,3.199867877061479,1872.8933487220202,None,,,,,,,,,,,,,,,,,121,001,2023_Jul_21_1754,SpeechDraft1Carolyn_lessNoise_PlusLocalization,2021.2.3,60.02350591495837,
,,,,,,,,nearLeft,-6.5,1,ch1Sound_localizationTask.wav,-6.5,"(857, 878)","(-103,-202)",-95,-338,,,,,,,,,3,3,24,2,,,,,,,,,,,,,,,,,,,,,,,,,,,,,,,,,,,,,,,,,,,,1876.0934945840854,None,1877.1933442950249,None,1878.1268837840762,None,1.3608465608465607,0.6487852169666439,1878.1268837840762,None,,,,,,,,,,,,,,,,,121,001,2023_Jul_21_1754,SpeechDraft1Carolyn_lessNoise_PlusLocalization,2021.2.3,60.02350591495837,
,,,,,,,,center,0.0,6,ch1Sound_localizationTask.wav,0.0,"(952, 878)","(-8,-202)",0,-338,,,,,,,,,3,4,25,3,,,,,,,,,,,,,,,,,,,,,,,,,,,,,,,,,,,,,,,,,,,,1878.7767675020732,None,1879.8766346420161,None,1880.8097890591016,None,1.3613756613756614,2.2332652009790763,1880.8097890591016,None,,,,,,,,,,,,,,,,,121,001,2023_Jul_21_1754,SpeechDraft1Carolyn_lessNoise_PlusLocalization,2021.2.3,60.02350591495837,
,,,,,,,,farLeft,-19.1,5,ch1Sound_localizationTask.wav,-19.1,"(667, 878)","(-293,-202)",-285,-338,,,,,,,,,3,5,26,0,,,,,,,,,,,,,,,,,,,,,,,,,,,,,,,,,,,,,,,,,,,,1883.0435022490565,None,1884.1436739290366,None,1885.0765289550181,None,1.2264550264550265,1.0498309989925474,1885.0765289550181,None,,,,,,,,,,,,,,,,,121,001,2023_Jul_21_1754,SpeechDraft1Carolyn_lessNoise_PlusLocalization,2021.2.3,60.02350591495837,
,,,,,,,,farRight,19.1,4,ch1Sound_localizationTask.wav,19.1,"(1237, 878)","(277,-202)",285,-338,,,,,,,,,3,6,27,6,,,,,,,,,,,,,,,,,,,,,,,,,,,,,,,,,,,,,,,,,,,,1886.1271130980458,None,1887.2266169009963,None,1888.1602231950965,None,1.67989417989418,0.6997768610017374,1888.1602231950965,None,,,,,,,,,,,,,,,,,121,001,2023_Jul_21_1754,SpeechDraft1Carolyn_lessNoise_PlusLocalization,2021.2.3,60.02350591495837,
,,,,,,,,nearRight,6.5,0,ch1Sound_localizationTask.wav,6.5,"(1047, 878)","(87, -202)",95,-338,,,,,,,,,4,0,28,4,,,,,,,,,,,,,,,,,,,,,,,,,,,,,,,,,,,,,,,,,,,,1888.8770643490134,None,1889.9767799850088,None,1890.910134616075,None,1.51005291005291,0.6492538129677996,1890.910134616075,None,,,,,,,,,,,,,,,,,121,001,2023_Jul_21_1754,SpeechDraft1Carolyn_lessNoise_PlusLocalization,2021.2.3,60.02350591495837,
,,,,,,,,center,0.0,6,ch1Sound_localizationTask.wav,0.0,"(952, 878)","(-8,-202)",0,-338,,,,,,,,,4,1,29,3,,,,,,,,,,,,,,,,,,,,,,,,,,,,,,,,,,,,,,,,,,,,1891.5603949280921,None,1892.6602057530545,None,1893.5936727490043,None,1.51005291005291,0.8668212030315772,1893.5936727490043,None,,,,,,,,,,,,,,,,,121,001,2023_Jul_21_1754,SpeechDraft1Carolyn_lessNoise_PlusLocalization,2021.2.3,60.02350591495837,
,,,,,,,,midRight,13.0,3,ch1Sound_localizationTask.wav,13.0,"(1142, 878)","(182, -202)",190,-338,,,,,,,,,4,2,30,5,,,,,,,,,,,,,,,,,,,,,,,,,,,,,,,,,,,,,,,,,,,,1894.460360406083,None,1895.5599518920062,None,1896.4934992280323,None,1.5793650793650795,0.5314336769515648,1896.4934992280323,None,,,,,,,,,,,,,,,,,121,001,2023_Jul_21_1754,SpeechDraft1Carolyn_lessNoise_PlusLocalization,2021.2.3,60.02350591495837,
,,,,,,,,farLeft,-19.1,5,ch1Sound_localizationTask.wav,-19.1,"(667, 878)","(-293,-202)",-285,-338,,,,,,,,,4,3,31,0,,,,,,,,,,,,,,,,,,,,,,,,,,,,,,,,,,,,,,,,,,,,1897.0267782830633,None,1898.1269955120515,None,1899.0599869560683,None,1.2984126984126985,0.8000521380454302,1899.0599869560683,None,,,,,,,,,,,,,,,,,121,001,2023_Jul_21_1754,SpeechDraft1Carolyn_lessNoise_PlusLocalization,2021.2.3,60.02350591495837,
,,,,,,,,nearRight,6.5,0,ch1Sound_localizationTask.wav,6.5,"(1047, 878)","(87, -202)",95,-338,,,,,,,,,4,4,32,4,,,,,,,,,,,,,,,,,,,,,,,,,,,,,,,,,,,,,,,,,,,,1899.876861560042,None,1900.9768728080671,None,1901.9100286141038,None,1.3063492063492064,0.9503872640198097,1901.9100286141038,None,,,,,,,,,,,,,,,,,121,001,2023_Jul_21_1754,SpeechDraft1Carolyn_lessNoise_PlusLocalization,2021.2.3,60.02350591495837,
,,,,,,,,nearRight,6.5,0,ch1Sound_localizationTask.wav,6.5,"(1047, 878)","(87, -202)",95,-338,,,,,,,,,4,5,33,4,,,,,,,,,,,,,,,,,,,,,,,,,,,,,,,,,,,,,,,,,,,,1902.860279444023,None,1903.9598739760695,None,1904.8933801930398,None,1.543915343915344,0.667079467093572,1904.8933801930398,None,,,,,,,,,,,,,,,,,121,001,2023_Jul_21_1754,SpeechDraft1Carolyn_lessNoise_PlusLocalization,2021.2.3,60.02350591495837,
,,,,,,,,midRight,13.0,3,ch1Sound_localizationTask.wav,13.0,"(1142, 878)","(182, -202)",190,-338,,,,,,,,,4,6,34,5,,,,,,,,,,,,,,,,,,,,,,,,,,,,,,,,,,,,,,,,,,,,1905.5768929950427,None,1906.67660157301,None,1907.6098417750327,None,1.6365079365079365,0.7004068710375577,1907.6098417750327,None,,,,,,,,,,,,,,,,,121,001,2023_Jul_21_1754,SpeechDraft1Carolyn_lessNoise_PlusLocalization,2021.2.3,60.02350591495837,
,,,,,,,,midLeft,-13.0,2,ch1Sound_localizationTask.wav,-13.0,"(762, 878)","(-198,-202)",-190,-338,,,,,,,,,5,0,35,1,,,,,,,,,,,,,,,,,,,,,,,,,,,,,,,,,,,,,,,,,,,,1908.3110896170838,None,1909.4100161860697,None,1910.3435317940312,None,1.2740740740740741,0.7331519479630515,1910.3435317940312,None,,,,,,,,,,,,,,,,,121,001,2023_Jul_21_1754,SpeechDraft1Carolyn_lessNoise_PlusLocalization,2021.2.3,60.02350591495837,
,,,,,,,,nearLeft,-6.5,1,ch1Sound_localizationTask.wav,-6.5,"(857, 878)","(-103,-202)",-95,-338,,,,,,,,,5,1,36,2,,,,,,,,,,,,,,,,,,,,,,,,,,,,,,,,,,,,,,,,,,,,1911.0772663680837,None,1912.1767055540113,None,1913.1100136761088,None,1.3296296296296295,1.000814219005406,1913.1100136761088,None,,,,,,,,,,,,,,,,,121,001,2023_Jul_21_1754,SpeechDraft1Carolyn_lessNoise_PlusLocalization,2021.2.3,60.02350591495837,
,,,,,,,,nearRight,6.5,0,ch1Sound_localizationTask.wav,6.5,"(1047, 878)","(87, -202)",95,-338,,,,,,,,,5,2,37,4,,,,,,,,,,,,,,,,,,,,,,,,,,,,,,,,,,,,,,,,,,,,1914.126880126074,None,1915.2268298059935,None,1916.1602231020806,None,1.4465608465608466,0.765829790965654,1916.1602231020806,None,,,,,,,,,,,,,,,,,121,001,2023_Jul_21_1754,SpeechDraft1Carolyn_lessNoise_PlusLocalization,2021.2.3,60.02350591495837,
,,,,,,,,farLeft,-19.1,5,ch1Sound_localizationTask.wav,-19.1,"(667, 878)","(-293,-202)",-285,-338,,,,,,,,,5,3,38,0,,,,,,,,,,,,,,,,,,,,,,,,,,,,,,,,,,,,,,,,,,,,1916.9274998410838,None,1918.026979943039,None,1918.959984388086,None,1.1968253968253968,0.6320523830363527,1918.959984388086,None,,,,,,,,,,,,,,,,,121,001,2023_Jul_21_1754,SpeechDraft1Carolyn_lessNoise_PlusLocalization,2021.2.3,60.02350591495837,
,,,,,,,,midRight,13.0,3,ch1Sound_localizationTask.wav,13.0,"(1142, 878)","(182, -202)",190,-338,,,,,,,,,5,4,39,5,,,,,,,,,,,,,,,,,,,,,,,,,,,,,,,,,,,,,,,,,,,,1919.5934036080725,None,1920.6931060469942,None,1921.6266069080448,None,1.5857142857142859,0.8163996239891276,1921.6266069080448,None,,,,,,,,,,,,,,,,,121,001,2023_Jul_21_1754,SpeechDraft1Carolyn_lessNoise_PlusLocalization,2021.2.3,60.02350591495837,
,,,,,,,,nearRight,6.5,0,ch1Sound_localizationTask.wav,6.5,"(1047, 878)","(87, -202)",95,-338,,,,,,,,,5,5,40,4,,,,,,,,,,,,,,,,,,,,,,,,,,,,,,,,,,,,,,,,,,,,1922.4446165650152,None,1923.5434635370038,None,1924.4767189460108,None,1.502116402116402,0.532905058003962,1924.4767189460108,None,,,,,,,,,,,,,,,,,121,001,2023_Jul_21_1754,SpeechDraft1Carolyn_lessNoise_PlusLocalization,2021.2.3,60.02350591495837,
,,,,,,,,farRight,19.1,4,ch1Sound_localizationTask.wav,19.1,"(1237, 878)","(277,-202)",285,-338,,,,,,,,,5,6,41,6,,,,,,,,,,,,,,,,,,,,,,,,,,,,,,,,,,,,,,,,,,,,1925.0103950550547,None,1926.1100279830862,None,1927.0432628660928,None,1.5666666666666667,0.5324035240337253,1927.0432628660928,None,,,,,,,,,,,,,,,,,121,001,2023_Jul_21_1754,SpeechDraft1Carolyn_lessNoise_PlusLocalization,2021.2.3,60.02350591495837,
,,,,,,,,farRight,19.1,4,ch1Sound_localizationTask.wav,19.1,"(1237, 878)","(277,-202)",285,-338,,,,,,,,,6,0,42,6,,,,,,,,,,,,,,,,,,,,,,,,,,,,,,,,,,,,,,,,,,,,1927.576819689013,None,1928.676893186057,None,1929.610057804035,None,1.6465608465608466,0.4999846830032766,1929.610057804035,None,,,,,,,,,,,,,,,,,121,001,2023_Jul_21_1754,SpeechDraft1Carolyn_lessNoise_PlusLocalization,2021.2.3,60.02350591495837,
,,,,,,,,nearLeft,-6.5,1,ch1Sound_localizationTask.wav,-6.5,"(857, 878)","(-103,-202)",-95,-338,,,,,,,,,6,1,43,2,,,,,,,,,,,,,,,,,,,,,,,,,,,,,,,,,,,,,,,,,,,,1930.1105416080682,None,1931.2100309160305,None,1932.143478439073,None,1.4264550264550264,0.7164224210428074,1932.143478439073,None,,,,,,,,,,,,,,,,,121,001,2023_Jul_21_1754,SpeechDraft1Carolyn_lessNoise_PlusLocalization,2021.2.3,60.02350591495837,
,,,,,,,,nearLeft,-6.5,1,ch1Sound_localizationTask.wav,-6.5,"(857, 878)","(-103,-202)",-95,-338,,,,,,,,,6,2,44,2,,,,,,,,,,,,,,,,,,,,,,,,,,,,,,,,,,,,,,,,,,,,1932.8771491691004,None,1933.9766386190895,None,1934.9098595631076,None,1.4153439153439153,1.1166682409821078,1934.9098595631076,None,,,,,,,,,,,,,,,,,121,001,2023_Jul_21_1754,SpeechDraft1Carolyn_lessNoise_PlusLocalization,2021.2.3,60.02350591495837,
,,,,,,,,farRight,19.1,4,ch1Sound_localizationTask.wav,19.1,"(1237, 878)","(277,-202)",285,-338,,,,,,,,,6,3,45,6,,,,,,,,,,,,,,,,,,,,,,,,,,,,,,,,,,,,,,,,,,,,1936.0278724980308,None,1937.126587294042,None,1938.0599227030762,None,1.638095238095238,0.7488233839394525,1938.0599227030762,None,,,,,,,,,,,,,,,,,121,001,2023_Jul_21_1754,SpeechDraft1Carolyn_lessNoise_PlusLocalization,2021.2.3,60.02350591495837,
,,,,,,,,farRight,19.1,4,ch1Sound_localizationTask.wav,19.1,"(1237, 878)","(277,-202)",285,-338,,,,,,,,,6,4,46,6,,,,,,,,,,,,,,,,,,,,,,,,,,,,,,,,,,,,,,,,,,,,1938.8101918640314,None,1939.9103017140878,None,1940.8434368560556,None,1.5925925925925926,0.5989421110134572,1940.8434368560556,None,,,,,,,,,,,,,,,,,121,001,2023_Jul_21_1754,SpeechDraft1Carolyn_lessNoise_PlusLocalization,2021.2.3,60.02350591495837,
,,,,,,,,midLeft,-13.0,2,ch1Sound_localizationTask.wav,-13.0,"(762, 878)","(-198,-202)",-190,-338,,,,,,,,,6,5,47,1,,,,,,,,,,,,,,,,,,,,,,,,,,,,,,,,,,,,,,,,,,,,1941.4437307351036,None,1942.5434021330439,None,1943.4766700860346,None,1.273015873015873,1.6670114339794964,1943.4766700860346,None,,,,,,,,,,,,,,,,,121,001,2023_Jul_21_1754,SpeechDraft1Carolyn_lessNoise_PlusLocalization,2021.2.3,60.02350591495837,
,,,,,,,,center,0.0,6,ch1Sound_localizationTask.wav,0.0,"(952, 878)","(-8,-202)",0,-338,,,,,,,,,6,6,48,3,,,,,,,,,,,,,,,,,,,,,,,,,,,,,,,,,,,,,,,,,,,,1945.1447883290239,None,1946.2600457140943,None,1947.1765824860195,None,1.2751322751322751,1.7165709630353376,1947.1765824860195,None,,,,,,,,,,,,,,,,,121,001,2023_Jul_21_1754,SpeechDraft1Carolyn_lessNoise_PlusLocalization,2021.2.3,60.02350591495837,
,,,,,,,,nearRight,6.5,0,ch1Sound_localizationTask.wav,6.5,"(1047, 878)","(87, -202)",95,-338,,,,,,,,,7,0,49,4,,,,,,,,,,,,,,,,,,,,,,,,,,,,,,,,,,,,,,,,,,,,1948.8936065630987,None,1949.9933891450055,None,1950.9266587730963,None,1.2714285714285714,1.7845029869349673,1950.9266587730963,None,,,,,,,,,,,,,,,,,121,001,2023_Jul_21_1754,SpeechDraft1Carolyn_lessNoise_PlusLocalization,2021.2.3,60.02350591495837,
,,,,,,,,midRight,13.0,3,ch1Sound_localizationTask.wav,13.0,"(1142, 878)","(182, -202)",190,-338,,,,,,,,,7,1,50,5,,,,,,,,,,,,,,,,,,,,,,,,,,,,,,,,,,,,,,,,,,,,1952.7270357270027,None,1953.8268145560287,None,1954.7599166380242,None,1.566137566137566,1.5501872110180557,1954.7599166380242,None,,,,,,,,,,,,,,,,,121,001,2023_Jul_21_1754,SpeechDraft1Carolyn_lessNoise_PlusLocalization,2021.2.3,60.02350591495837,
,,,,,,,,center,0.0,6,ch1Sound_localizationTask.wav,0.0,"(952, 878)","(-8,-202)",0,-338,,,,,,,,,7,2,51,3,,,,,,,,,,,,,,,,,,,,,,,,,,,,,,,,,,,,,,,,,,,,1956.3109369990416,None,1957.4099313990446,None,1958.3433459320804,None,1.552910052910053,1.9169041030108929,1958.3433459320804,None,,,,,,,,,,,,,,,,,121,001,2023_Jul_21_1754,SpeechDraft1Carolyn_lessNoise_PlusLocalization,2021.2.3,60.02350591495837,
,,,,,,,,midLeft,-13.0,2,ch1Sound_localizationTask.wav,-13.0,"(762, 878)","(-198,-202)",-190,-338,,,,,,,,,7,3,52,1,,,,,,,,,,,,,,,,,,,,,,,,,,,,,,,,,,,,,,,,,,,,1960.2602647530148,None,1961.3599433590425,None,1962.2935896660201,None,1.1587301587301586,0.7336335940053686,1962.2935896660201,None,,,,,,,,,,,,,,,,,121,001,2023_Jul_21_1754,SpeechDraft1Carolyn_lessNoise_PlusLocalization,2021.2.3,60.02350591495837,
,,,,,,,,nearLeft,-6.5,1,ch1Sound_localizationTask.wav,-6.5,"(857, 878)","(-103,-202)",-95,-338,,,,,,,,,7,4,53,2,,,,,,,,,,,,,,,,,,,,,,,,,,,,,,,,,,,,,,,,,,,,1963.0271338910097,None,1964.1268165290821,None,1965.0600781179965,None,1.3666666666666667,0.6151802319800481,1965.0600781179965,None,,,,,,,,,,,,,,,,,121,001,2023_Jul_21_1754,SpeechDraft1Carolyn_lessNoise_PlusLocalization,2021.2.3,60.02350591495837,
,,,,,,,,midRight,13.0,3,ch1Sound_localizationTask.wav,13.0,"(1142, 878)","(182, -202)",190,-338,,,,,,,,,7,5,54,5,,,,,,,,,,,,,,,,,,,,,,,,,,,,,,,,,,,,,,,,,,,,1965.6771797800902,None,1966.7767525580712,None,1967.710062357015,None,1.5349206349206348,0.5663428719853982,1967.710062357015,None,,,,,,,,,,,,,,,,,121,001,2023_Jul_21_1754,SpeechDraft1Carolyn_lessNoise_PlusLocalization,2021.2.3,60.02350591495837,
,,,,,,,,nearLeft,-6.5,1,ch1Sound_localizationTask.wav,-6.5,"(857, 878)","(-103,-202)",-95,-338,,,,,,,,,7,6,55,2,,,,,,,,,,,,,,,,,,,,,,,,,,,,,,,,,,,,,,,,,,,,1968.2771457090275,None,1969.3768179990584,None,1970.3101725010201,None,1.3968253968253967,0.6148866299772635,1970.3101725010201,None,,,,,,,,,,,,,,,,,121,001,2023_Jul_21_1754,SpeechDraft1Carolyn_lessNoise_PlusLocalization,2021.2.3,60.02350591495837,
,,,,,,,,,,,,,,,,,,,,,,,,,,,,,,,,,,,,,,,,,,,,,,,,,,,,,,,,,,,,,,,,,,,,,,,,,,,,,,,,,,space,17.176770040998235,1971.0103692100383,None,,,,,,,,,,,,,121,001,2023_Jul_21_1754,SpeechDraft1Carolyn_lessNoise_PlusLocalization,2021.2.3,60.02350591495837,
,,,,,,,,farRight,19.1,4,ch1Sound_localizationTask.wav,19.1,"(1237, 878)","(277,-202)",285,-338,,,,,,,,,,,,,0,0,0,6,,,,,,,,,,,,,,,,,,,,,,,,,,,,,,,,,,,,,,,,1988.2267330239993,None,,,1991.2602397270966,None,1.704232804232804,1.1694744989508763,1991.2602397270966,None,,,,,1971.0103692100383,None,1989.2269776629983,None,1989.410273426096,1989.427120365086,,,,,,,121,001,2023_Jul_21_1754,SpeechDraft1Carolyn_lessNoise_PlusLocalization,2021.2.3,60.02350591495837,
,,,,,,,,midRight,13.0,3,ch1Sound_localizationTask.wav,13.0,"(1142, 878)","(182, -202)",190,-338,,,,,,,,,,,,,0,1,1,5,,,,,,,,,,,,,,,,,,,,,,,,,,,,,,,,,,,,,,,,1992.42757627205,None,,,1995.443561275024,None,1.6264550264550266,1.049506990937516,1995.443561275024,None,,,,,,,1993.4270177209983,None,1993.6102551610675,1993.6270064240089,,,,,,,121,001,2023_Jul_21_1754,SpeechDraft1Carolyn_lessNoise_PlusLocalization,2021.2.3,60.02350591495837,
,,,,,,,,farRight,19.1,4,ch1Sound_localizationTask.wav,19.1,"(1237, 878)","(277,-202)",285,-338,,,,,,,,,,,,,0,2,2,6,,,,,,,,,,,,,,,,,,,,,,,,,,,,,,,,,,,,,,,,1996.4936021200847,None,,,1999.5100852590986,None,1.6291005291005292,0.5322774120140821,1999.5100852590986,None,,,,,,,1997.4935957440175,None,1997.6771688180743,1997.693817309104,,,,,,,121,001,2023_Jul_21_1754,SpeechDraft1Carolyn_lessNoise_PlusLocalization,2021.2.3,60.02350591495837,
,,,,,,,,nearLeft,-6.5,1,ch1Sound_localizationTask.wav,-6.5,"(857, 878)","(-103,-202)",-95,-338,,,,,,,,,,,,,0,3,3,2,,,,,,,,,,,,,,,,,,,,,,,,,,,,,,,,,,,,,,,,2000.0435941680335,None,,,2003.060231673997,None,1.4507936507936507,1.5655970280058682,2003.060231673997,None,,,,,,,2001.0438426079927,None,2001.2271480211057,2001.2435340490192,,,,,,,121,001,2023_Jul_21_1754,SpeechDraft1Carolyn_lessNoise_PlusLocalization,2021.2.3,60.02350591495837,
,,,,,,,,midLeft,-13.0,2,ch1Sound_localizationTask.wav,-13.0,"(762, 878)","(-198,-202)",-190,-338,,,,,,,,,,,,,0,4,4,1,,,,,,,,,,,,,,,,,,,,,,,,,,,,,,,,,,,,,,,,2004.627304251073,None,,,2007.6434157310287,None,1.4142857142857141,1.0827844170853496,2007.6434157310287,None,,,,,,,2005.6269837310538,None,2005.8103027160978,2005.8273040780332,,,,,,,121,001,2023_Jul_21_1754,SpeechDraft1Carolyn_lessNoise_PlusLocalization,2021.2.3,60.02350591495837,
,,,,,,,,nearRight,6.5,0,ch1Sound_localizationTask.wav,6.5,"(1047, 878)","(87, -202)",95,-338,,,,,,,,,,,,,0,5,5,4,,,,,,,,,,,,,,,,,,,,,,,,,,,,,,,,,,,,,,,,2008.7269538110122,None,,,2011.7433799071005,None,1.5354497354497354,1.3333867909386754,2011.7433799071005,None,,,,,,,2009.727231169003,None,2009.9103087430121,2009.9272750050295,,,,,,,121,001,2023_Jul_21_1754,SpeechDraft1Carolyn_lessNoise_PlusLocalization,2021.2.3,60.02350591495837,
,,,,,,,,farRight,19.1,4,ch1Sound_localizationTask.wav,19.1,"(1237, 878)","(277,-202)",285,-338,,,,,,,,,,,,,0,6,6,6,,,,,,,,,,,,,,,,,,,,,,,,,,,,,,,,,,,,,,,,2013.0774010660825,None,,,2016.0937012890354,None,1.6365079365079365,0.9821662380127236,2016.0937012890354,None,,,,,,,2014.077196679078,None,2014.2604542280314,2014.2770292030182,,,,,,,121,001,2023_Jul_21_1754,SpeechDraft1Carolyn_lessNoise_PlusLocalization,2021.2.3,60.02350591495837,
,,,,,,,,midLeft,-13.0,2,ch1Sound_localizationTask.wav,-13.0,"(762, 878)","(-198,-202)",-190,-338,,,,,,,,,,,,,1,0,7,1,,,,,,,,,,,,,,,,,,,,,,,,,,,,,,,,,,,,,,,,2017.077559013036,None,,,2020.0935125810793,None,1.4222222222222223,1.832493701018393,2020.0935125810793,None,,,,,,,2018.0769677110948,None,2018.260303454008,2018.2771227750927,,,,,,,121,001,2023_Jul_21_1754,SpeechDraft1Carolyn_lessNoise_PlusLocalization,2021.2.3,60.02350591495837,
,,,,,,,,midRight,13.0,3,ch1Sound_localizationTask.wav,13.0,"(1142, 878)","(182, -202)",190,-338,,,,,,,,,,,,,1,1,8,5,,,,,,,,,,,,,,,,,,,,,,,,,,,,,,,,,,,,,,,,2021.9274938741,None,,,2024.9435606950428,None,1.6084656084656084,1.1319369709817693,2024.9435606950428,None,,,,,,,2022.9270025480073,None,2023.1103227169951,2023.1272702401038,,,,,,,121,001,2023_Jul_21_1754,SpeechDraft1Carolyn_lessNoise_PlusLocalization,2021.2.3,60.02350591495837,
,,,,,,,,midLeft,-13.0,2,ch1Sound_localizationTask.wav,-13.0,"(762, 878)","(-198,-202)",-190,-338,,,,,,,,,,,,,1,2,9,1,,,,,,,,,,,,,,,,,,,,,,,,,,,,,,,,,,,,,,,,2026.0773271020735,None,,,2029.0933780400082,None,1.4158730158730157,1.1984848319552839,2029.0933780400082,None,,,,,,,2027.0769702329999,None,2027.2603074000217,2027.277034673025,,,,,,,121,001,2023_Jul_21_1754,SpeechDraft1Carolyn_lessNoise_PlusLocalization,2021.2.3,60.02350591495837,
,,,,,,,,farRight,19.1,4,ch1Sound_localizationTask.wav,19.1,"(1237, 878)","(277,-202)",285,-338,,,,,,,,,,,,,1,3,10,6,,,,,,,,,,,,,,,,,,,,,,,,,,,,,,,,,,,,,,,,2030.2939064530656,None,,,2033.310173401027,None,1.6597883597883598,1.1487983729457483,2033.310173401027,None,,,,,,,2031.2936822409974,None,2031.4770616310416,2031.4937138030073,,,,,,,121,001,2023_Jul_21_1754,SpeechDraft1Carolyn_lessNoise_PlusLocalization,2021.2.3,60.02350591495837,
,,,,,,,,farRight,19.1,4,ch1Sound_localizationTask.wav,19.1,"(1237, 878)","(277,-202)",285,-338,,,,,,,,,,,,,1,4,11,6,,,,,,,,,,,,,,,,,,,,,,,,,,,,,,,,,,,,,,,,2034.4607362730894,None,,,2037.4769716180163,None,1.6534391534391535,0.6000702790915966,2037.4769716180163,None,,,,,,,2035.4602265900467,None,2035.643949020072,2035.6603109070566,,,,,,,121,001,2023_Jul_21_1754,SpeechDraft1Carolyn_lessNoise_PlusLocalization,2021.2.3,60.02350591495837,
,,,,,,,,midLeft,-13.0,2,ch1Sound_localizationTask.wav,-13.0,"(762, 878)","(-198,-202)",-190,-338,,,,,,,,,,,,,1,5,12,1,,,,,,,,,,,,,,,,,,,,,,,,,,,,,,,,,,,,,,,,2038.0769848740892,None,,,2041.0938089090632,None,1.428042328042328,1.5326584039721638,2041.0938089090632,None,,,,,,,2039.0769661670784,None,2039.260332223028,2039.2769701160723,,,,,,,121,001,2023_Jul_21_1754,SpeechDraft1Carolyn_lessNoise_PlusLocalization,2021.2.3,60.02350591495837,
,,,,,,,,center,0.0,6,ch1Sound_localizationTask.wav,0.0,"(952, 878)","(-8,-202)",0,-338,,,,,,,,,,,,,1,6,13,3,,,,,,,,,,,,,,,,,,,,,,,,,,,,,,,,,,,,,,,,2042.627262233058,None,,,2045.6435911800945,None,1.524867724867725,0.9816555319121107,2045.6435911800945,None,,,,,,,2043.6272159410873,None,2043.8103787150467,2043.827012283029,,,,,,,121,001,2023_Jul_21_1754,SpeechDraft1Carolyn_lessNoise_PlusLocalization,2021.2.3,60.02350591495837,
,,,,,,,,farLeft,-19.1,5,ch1Sound_localizationTask.wav,-19.1,"(667, 878)","(-293,-202)",-285,-338,,,,,,,,,,,,,2,0,14,0,,,,,,,,,,,,,,,,,,,,,,,,,,,,,,,,,,,,,,,,2046.6272721870337,None,,,2049.6435227360344,None,1.3465608465608465,1.4492351590888575,2049.6435227360344,None,,,,,,,2047.6269836020656,None,2047.810571736074,2047.8272462520981,,,,,,,121,001,2023_Jul_21_1754,SpeechDraft1Carolyn_lessNoise_PlusLocalization,2021.2.3,60.02350591495837,
,,,,,,,,midRight,13.0,3,ch1Sound_localizationTask.wav,13.0,"(1142, 878)","(182, -202)",190,-338,,,,,,,,,,,,,2,1,15,5,,,,,,,,,,,,,,,,,,,,,,,,,,,,,,,,,,,,,,,,2051.093692794093,None,,,2054.1101375350263,None,1.596825396825397,1.1168544420506805,2054.1101375350263,None,,,,,,,2052.093772668042,None,2052.27723585302,2052.2940370360157,,,,,,,121,001,2023_Jul_21_1754,SpeechDraft1Carolyn_lessNoise_PlusLocalization,2021.2.3,60.02350591495837,
,,,,,,,,farLeft,-19.1,5,ch1Sound_localizationTask.wav,-19.1,"(667, 878)","(-293,-202)",-285,-338,,,,,,,,,,,,,2,2,16,0,,,,,,,,,,,,,,,,,,,,,,,,,,,,,,,,,,,,,,,,2055.2272896310315,None,,,2058.2435002550483,None,1.3518518518518519,1.333047908032313,2058.2435002550483,None,,,,,,,2056.227294347016,None,2056.4105232420843,2056.4272396380547,,,,,,,121,001,2023_Jul_21_1754,SpeechDraft1Carolyn_lessNoise_PlusLocalization,2021.2.3,60.02350591495837,
,,,,,,,,center,0.0,6,ch1Sound_localizationTask.wav,0.0,"(952, 878)","(-8,-202)",0,-338,,,,,,,,,,,,,2,3,17,3,,,,,,,,,,,,,,,,,,,,,,,,,,,,,,,,,,,,,,,,2059.577142374008,None,,,2062.59347702004,None,1.5042328042328044,1.082112314994447,2062.59347702004,None,,,,,,,2060.5773137300275,None,2060.760813689092,2060.777151813032,,,,,,,121,001,2023_Jul_21_1754,SpeechDraft1Carolyn_lessNoise_PlusLocalization,2021.2.3,60.02350591495837,
,,,,,,,,nearRight,6.5,0,ch1Sound_localizationTask.wav,6.5,"(1047, 878)","(87, -202)",95,-338,,,,,,,,,,,,,2,4,18,4,,,,,,,,,,,,,,,,,,,,,,,,,,,,,,,,,,,,,,,,2063.6770103140734,None,,,2066.693481352995,None,1.541798941798942,0.7985475088935345,2066.693481352995,None,,,,,,,2064.6770256630844,None,2064.8605700060725,2064.8771920190193,,,,,,,121,001,2023_Jul_21_1754,SpeechDraft1Carolyn_lessNoise_PlusLocalization,2021.2.3,60.02350591495837,
,,,,,,,,nearRight,6.5,0,ch1Sound_localizationTask.wav,6.5,"(1047, 878)","(87, -202)",95,-338,,,,,,,,,,,,,2,5,19,4,,,,,,,,,,,,,,,,,,,,,,,,,,,,,,,,,,,,,,,,2067.493811843102,None,,,2070.5102035331074,None,1.5507936507936508,0.565728547051549,2070.5102035331074,None,,,,,,,2068.4938487550244,None,2068.6770666810917,2068.693849542993,,,,,,,121,001,2023_Jul_21_1754,SpeechDraft1Carolyn_lessNoise_PlusLocalization,2021.2.3,60.02350591495837,
,,,,,,,,nearRight,6.5,0,ch1Sound_localizationTask.wav,6.5,"(1047, 878)","(87, -202)",95,-338,,,,,,,,,,,,,2,6,20,4,,,,,,,,,,,,,,,,,,,,,,,,,,,,,,,,,,,,,,,,2071.0772645890247,None,,,2074.0938870030222,None,1.5492063492063493,0.9150500260293484,2074.0938870030222,None,,,,,,,2072.0770522510866,None,2072.260565169039,2072.277123100008,,,,,,,121,001,2023_Jul_21_1754,SpeechDraft1Carolyn_lessNoise_PlusLocalization,2021.2.3,60.02350591495837,
,,,,,,,,farLeft,-19.1,5,ch1Sound_localizationTask.wav,-19.1,"(667, 878)","(-293,-202)",-285,-338,,,,,,,,,,,,,3,0,21,0,,,,,,,,,,,,,,,,,,,,,,,,,,,,,,,,,,,,,,,,2075.0106610100484,None,,,2078.0269918720005,None,1.3423280423280424,1.332621693960391,2078.0269918720005,None,,,,,,,2076.010739644058,None,2076.19380850601,2076.2106116900686,,,,,,,121,001,2023_Jul_21_1754,SpeechDraft1Carolyn_lessNoise_PlusLocalization,2021.2.3,60.02350591495837,
,,,,,,,,midLeft,-13.0,2,ch1Sound_localizationTask.wav,-13.0,"(762, 878)","(-198,-202)",-190,-338,,,,,,,,,,,,,3,1,22,1,,,,,,,,,,,,,,,,,,,,,,,,,,,,,,,,,,,,,,,,2079.3604377110023,None,,,2082.3769799791044,None,1.3470899470899471,1.0487447449704632,2082.3769799791044,None,,,,,,,2080.3607077910565,None,2080.544137724093,2080.560436427011,,,,,,,121,001,2023_Jul_21_1754,SpeechDraft1Carolyn_lessNoise_PlusLocalization,2021.2.3,60.02350591495837,
,,,,,,,,nearLeft,-6.5,1,ch1Sound_localizationTask.wav,-6.5,"(857, 878)","(-103,-202)",-95,-338,,,,,,,,,,,,,3,2,23,2,,,,,,,,,,,,,,,,,,,,,,,,,,,,,,,,,,,,,,,,2083.4272432270227,None,,,2086.4441576520912,None,1.4317460317460318,1.0826410950394347,2086.4441576520912,None,,,,,,,2084.427288297098,None,2084.610588112031,2084.627129788045,,,,,,,121,001,2023_Jul_21_1754,SpeechDraft1Carolyn_lessNoise_PlusLocalization,2021.2.3,60.02350591495837,
,,,,,,,,center,0.0,6,ch1Sound_localizationTask.wav,0.0,"(952, 878)","(-8,-202)",0,-338,,,,,,,,,,,,,3,3,24,3,,,,,,,,,,,,,,,,,,,,,,,,,,,,,,,,,,,,,,,,2087.5271287020296,None,,,2090.543646452017,None,1.5142857142857142,1.2316187809919938,2090.543646452017,None,,,,,,,2088.527314623003,None,2088.7105508440873,2088.727159021073,,,,,,,121,001,2023_Jul_21_1754,SpeechDraft1Carolyn_lessNoise_PlusLocalization,2021.2.3,60.02350591495837,
,,,,,,,,nearLeft,-6.5,1,ch1Sound_localizationTask.wav,-6.5,"(857, 878)","(-103,-202)",-95,-338,,,,,,,,,,,,,3,4,25,2,,,,,,,,,,,,,,,,,,,,,,,,,,,,,,,,,,,,,,,,2091.7770725860028,None,,,2094.7938703499967,None,1.4402116402116403,0.8499038110021502,2094.7938703499967,None,,,,,,,2092.7771569510223,None,2092.960949452012,2092.9771431920817,,,,,,,121,001,2023_Jul_21_1754,SpeechDraft1Carolyn_lessNoise_PlusLocalization,2021.2.3,60.02350591495837,
,,,,,,,,midRight,13.0,3,ch1Sound_localizationTask.wav,13.0,"(1142, 878)","(182, -202)",190,-338,,,,,,,,,,,,,3,5,26,5,,,,,,,,,,,,,,,,,,,,,,,,,,,,,,,,,,,,,,,,2095.6447903600056,None,,,2098.677019637078,None,1.6296296296296298,0.5991312779951841,2098.677019637078,None,,,,,,,2096.660452419077,None,2096.8438909850083,2096.860732689034,,,,,,,121,001,2023_Jul_21_1754,SpeechDraft1Carolyn_lessNoise_PlusLocalization,2021.2.3,60.02350591495837,
,,,,,,,,farLeft,-19.1,5,ch1Sound_localizationTask.wav,-19.1,"(667, 878)","(-293,-202)",-285,-338,,,,,,,,,,,,,3,6,27,0,,,,,,,,,,,,,,,,,,,,,,,,,,,,,,,,,,,,,,,,2099.2774332510307,None,,,2102.2940483411076,None,1.335978835978836,1.1496645259903744,2102.2940483411076,None,,,,,,,2100.2773600600194,None,2100.4605865150224,2100.477120539057,,,,,,,121,001,2023_Jul_21_1754,SpeechDraft1Carolyn_lessNoise_PlusLocalization,2021.2.3,60.02350591495837,
,,,,,,,,nearLeft,-6.5,1,ch1Sound_localizationTask.wav,-6.5,"(857, 878)","(-103,-202)",-95,-338,,,,,,,,,,,,,4,0,28,2,,,,,,,,,,,,,,,,,,,,,,,,,,,,,,,,,,,,,,,,2103.443687599036,None,,,2106.4603529809974,None,1.4513227513227513,1.0972140149679035,2106.4603529809974,None,,,,,,,2104.4437772009987,None,2104.6271328490693,2104.643842883059,,,,,,,121,001,2023_Jul_21_1754,SpeechDraft1Carolyn_lessNoise_PlusLocalization,2021.2.3,60.02350591495837,
,,,,,,,,farRight,19.1,4,ch1Sound_localizationTask.wav,19.1,"(1237, 878)","(277,-202)",285,-338,,,,,,,,,,,,,4,1,29,6,,,,,,,,,,,,,,,,,,,,,,,,,,,,,,,,,,,,,,,,2107.560462758993,None,,,2110.576925098081,None,1.7063492063492063,1.2986199329607189,2110.576925098081,None,,,,,,,2108.560400267015,None,2108.7441263790242,2108.760432928102,,,,,,,121,001,2023_Jul_21_1754,SpeechDraft1Carolyn_lessNoise_PlusLocalization,2021.2.3,60.02350591495837,
,,,,,,,,nearRight,6.5,0,ch1Sound_localizationTask.wav,6.5,"(1047, 878)","(87, -202)",95,-338,,,,,,,,,,,,,4,2,30,4,,,,,,,,,,,,,,,,,,,,,,,,,,,,,,,,,,,,,,,,2111.8771246520337,None,,,2114.893765590037,None,1.5671957671957673,1.1670590300345793,2114.893765590037,None,,,,,,,2112.87717838306,None,2113.0605050140293,2113.0772726100404,,,,,,,121,001,2023_Jul_21_1754,SpeechDraft1Carolyn_lessNoise_PlusLocalization,2021.2.3,60.02350591495837,
,,,,,,,,farRight,19.1,4,ch1Sound_localizationTask.wav,19.1,"(1237, 878)","(277,-202)",285,-338,,,,,,,,,,,,,4,3,31,6,,,,,,,,,,,,,,,,,,,,,,,,,,,,,,,,,,,,,,,,2116.060683201067,None,,,2119.076950465096,None,1.6888888888888889,0.6648486129706725,2119.076950465096,None,,,,,,,2117.060612695059,None,2117.243850865052,2117.260424228036,,,,,,,121,001,2023_Jul_21_1754,SpeechDraft1Carolyn_lessNoise_PlusLocalization,2021.2.3,60.02350591495837,
,,,,,,,,center,0.0,6,ch1Sound_localizationTask.wav,0.0,"(952, 878)","(-8,-202)",0,-338,,,,,,,,,,,,,4,4,32,3,,,,,,,,,,,,,,,,,,,,,,,,,,,,,,,,,,,,,,,,2119.743925212999,None,,,2122.760558823007,None,1.4841269841269842,0.9655760169262066,2122.760558823007,None,,,,,,,2120.743965813075,None,2120.9273351930315,2120.9438247641083,,,,,,,121,001,2023_Jul_21_1754,SpeechDraft1Carolyn_lessNoise_PlusLocalization,2021.2.3,60.02350591495837,
,,,,,,,,midRight,13.0,3,ch1Sound_localizationTask.wav,13.0,"(1142, 878)","(182, -202)",190,-338,,,,,,,,,,,,,4,5,33,5,,,,,,,,,,,,,,,,,,,,,,,,,,,,,,,,,,,,,,,,2123.7273646451067,None,,,2126.74389092403,None,1.6349206349206349,1.0156857500551268,2126.74389092403,None,,,,,,,2124.7271455250448,None,2124.910471817013,2124.927383613074,,,,,,,121,001,2023_Jul_21_1754,SpeechDraft1Carolyn_lessNoise_PlusLocalization,2021.2.3,60.02350591495837,
,,,,,,,,midLeft,-13.0,2,ch1Sound_localizationTask.wav,-13.0,"(762, 878)","(-198,-202)",-190,-338,,,,,,,,,,,,,4,6,34,1,,,,,,,,,,,,,,,,,,,,,,,,,,,,,,,,,,,,,,,,2127.760607689037,None,,,2130.7768522350816,None,1.3820105820105821,0.6979326009750366,2130.7768522350816,None,,,,,,,2128.7607144300127,None,2128.9441053899936,2128.960573420045,,,,,,,121,001,2023_Jul_21_1754,SpeechDraft1Carolyn_lessNoise_PlusLocalization,2021.2.3,60.02350591495837,
,,,,,,,,nearRight,6.5,0,ch1Sound_localizationTask.wav,6.5,"(1047, 878)","(87, -202)",95,-338,,,,,,,,,,,,,5,0,35,4,,,,,,,,,,,,,,,,,,,,,,,,,,,,,,,,,,,,,,,,2131.4782769239973,None,,,2134.510425372049,None,1.607936507936508,1.2986932880012318,2134.510425372049,None,,,,,,,2132.4938720080536,None,2132.6774621950462,2132.6939316031057,,,,,,,121,001,2023_Jul_21_1754,SpeechDraft1Carolyn_lessNoise_PlusLocalization,2021.2.3,60.02350591495837,
,,,,,,,,midRight,13.0,3,ch1Sound_localizationTask.wav,13.0,"(1142, 878)","(182, -202)",190,-338,,,,,,,,,,,,,5,1,36,5,,,,,,,,,,,,,,,,,,,,,,,,,,,,,,,,,,,,,,,,2135.810452988022,None,,,2138.8271244090283,None,1.596825396825397,0.4492611180758104,2138.8271244090283,None,,,,,,,2136.810544047039,None,2136.993905683048,2137.0106863300316,,,,,,,121,001,2023_Jul_21_1754,SpeechDraft1Carolyn_lessNoise_PlusLocalization,2021.2.3,60.02350591495837,
,,,,,,,,center,0.0,6,ch1Sound_localizationTask.wav,0.0,"(952, 878)","(-8,-202)",0,-338,,,,,,,,,,,,,5,2,37,3,,,,,,,,,,,,,,,,,,,,,,,,,,,,,,,,,,,,,,,,2139.277133273077,None,,,2142.293624482001,None,1.4788359788359788,0.8654301689239219,2142.293624482001,None,,,,,,,2140.2771577950334,None,2140.4607746180845,2140.477265838068,,,,,,,121,001,2023_Jul_21_1754,SpeechDraft1Carolyn_lessNoise_PlusLocalization,2021.2.3,60.02350591495837,
,,,,,,,,center,0.0,6,ch1Sound_localizationTask.wav,0.0,"(952, 878)","(-8,-202)",0,-338,,,,,,,,,,,,,5,3,38,3,,,,,,,,,,,,,,,,,,,,,,,,,,,,,,,,,,,,,,,,2143.1606332910014,None,,,2146.1769622970605,None,1.5052910052910053,0.698505533975549,2146.1769622970605,None,,,,,,,2144.1604340280173,None,2144.3438451440306,2144.3605715410085,,,,,,,121,001,2023_Jul_21_1754,SpeechDraft1Carolyn_lessNoise_PlusLocalization,2021.2.3,60.02350591495837,
,,,,,,,,center,0.0,6,ch1Sound_localizationTask.wav,0.0,"(952, 878)","(-8,-202)",0,-338,,,,,,,,,,,,,5,4,39,3,,,,,,,,,,,,,,,,,,,,,,,,,,,,,,,,,,,,,,,,2146.8771861630958,None,,,2149.893698787084,None,1.475132275132275,0.5318850140320137,2149.893698787084,None,,,,,,,2147.8772460870678,None,2148.06055160705,2148.0771896240767,,,,,,,121,001,2023_Jul_21_1754,SpeechDraft1Carolyn_lessNoise_PlusLocalization,2021.2.3,60.02350591495837,
,,,,,,,,nearLeft,-6.5,1,ch1Sound_localizationTask.wav,-6.5,"(857, 878)","(-103,-202)",-95,-338,,,,,,,,,,,,,5,5,40,2,,,,,,,,,,,,,,,,,,,,,,,,,,,,,,,,,,,,,,,,2150.4273798610084,None,,,2153.4437060150085,None,1.457142857142857,0.9329672199673951,2153.4437060150085,None,,,,,,,2151.4271778709954,None,2151.610578309046,2151.627305069007,,,,,,,121,001,2023_Jul_21_1754,SpeechDraft1Carolyn_lessNoise_PlusLocalization,2021.2.3,60.02350591495837,
,,,,,,,,farLeft,-19.1,5,ch1Sound_localizationTask.wav,-19.1,"(667, 878)","(-293,-202)",-285,-338,,,,,,,,,,,,,5,6,41,0,,,,,,,,,,,,,,,,,,,,,,,,,,,,,,,,,,,,,,,,2154.3775430540554,None,,,2157.393857503077,None,1.344973544973545,1.099394076038152,2157.393857503077,None,,,,,,,2155.3772615590133,None,2155.5608242320595,2155.577230077004,,,,,,,121,001,2023_Jul_21_1754,SpeechDraft1Carolyn_lessNoise_PlusLocalization,2021.2.3,60.02350591495837,
,,,,,,,,midLeft,-13.0,2,ch1Sound_localizationTask.wav,-13.0,"(762, 878)","(-198,-202)",-190,-338,,,,,,,,,,,,,6,0,42,1,,,,,,,,,,,,,,,,,,,,,,,,,,,,,,,,,,,,,,,,2158.4941094450187,None,,,2161.5106939640827,None,1.3793650793650793,1.0497656869702041,2161.5106939640827,None,,,,,,,2159.4938887821045,None,2159.6772649360355,2159.6939374119975,,,,,,,121,001,2023_Jul_21_1754,SpeechDraft1Carolyn_lessNoise_PlusLocalization,2021.2.3,60.02350591495837,
,,,,,,,,nearLeft,-6.5,1,ch1Sound_localizationTask.wav,-6.5,"(857, 878)","(-103,-202)",-95,-338,,,,,,,,,,,,,6,1,43,2,,,,,,,,,,,,,,,,,,,,,,,,,,,,,,,,,,,,,,,,2162.560744543094,None,,,2165.576978277997,None,1.4365079365079365,0.8991386310663074,2165.576978277997,None,,,,,,,2163.5605256879935,None,2163.744116556016,2163.760708693997,,,,,,,121,001,2023_Jul_21_1754,SpeechDraft1Carolyn_lessNoise_PlusLocalization,2021.2.3,60.02350591495837,
,,,,,,,,nearRight,6.5,0,ch1Sound_localizationTask.wav,6.5,"(1047, 878)","(87, -202)",95,-338,,,,,,,,,,,,,6,2,44,4,,,,,,,,,,,,,,,,,,,,,,,,,,,,,,,,,,,,,,,,2166.4772137800464,None,,,2169.4938514230307,None,1.5687830687830688,1.0483067710883915,2169.4938514230307,None,,,,,,,2167.477309879032,None,2167.660723694018,2167.6773423569975,,,,,,,121,001,2023_Jul_21_1754,SpeechDraft1Carolyn_lessNoise_PlusLocalization,2021.2.3,60.02350591495837,
,,,,,,,,farLeft,-19.1,5,ch1Sound_localizationTask.wav,-19.1,"(667, 878)","(-293,-202)",-285,-338,,,,,,,,,,,,,6,3,45,0,,,,,,,,,,,,,,,,,,,,,,,,,,,,,,,,,,,,,,,,2170.5438428700436,None,,,2173.5603714030003,None,1.3772486772486774,0.9986130070174113,2173.5603714030003,None,,,,,,,2171.543918514042,None,2171.7272880520904,2171.743909476092,,,,,,,121,001,2023_Jul_21_1754,SpeechDraft1Carolyn_lessNoise_PlusLocalization,2021.2.3,60.02350591495837,
,,,,,,,,midRight,13.0,3,ch1Sound_localizationTask.wav,13.0,"(1142, 878)","(182, -202)",190,-338,,,,,,,,,,,,,6,4,46,5,,,,,,,,,,,,,,,,,,,,,,,,,,,,,,,,,,,,,,,,2174.560514492099,None,,,2177.5770754320547,None,1.6423280423280424,1.1162085130345076,2177.5770754320547,None,,,,,,,2175.5606837900123,None,2175.7438915780513,2175.7608047520043,,,,,,,121,001,2023_Jul_21_1754,SpeechDraft1Carolyn_lessNoise_PlusLocalization,2021.2.3,60.02350591495837,
,,,,,,,,farRight,19.1,4,ch1Sound_localizationTask.wav,19.1,"(1237, 878)","(277,-202)",285,-338,,,,,,,,,,,,,6,5,47,6,,,,,,,,,,,,,,,,,,,,,,,,,,,,,,,,,,,,,,,,2178.710525088012,None,,,2181.7271080909995,None,1.6566137566137566,0.7319831440690905,2181.7271080909995,None,,,,,,,2179.710865458008,None,2179.893870357075,2179.910571759101,,,,,,,121,001,2023_Jul_21_1754,SpeechDraft1Carolyn_lessNoise_PlusLocalization,2021.2.3,60.02350591495837,
,,,,,,,,nearRight,6.5,0,ch1Sound_localizationTask.wav,6.5,"(1047, 878)","(87, -202)",95,-338,,,,,,,,,,,,,6,6,48,4,,,,,,,,,,,,,,,,,,,,,,,,,,,,,,,,,,,,,,,,2182.4607982200105,None,,,2185.4771501970245,None,1.5698412698412698,1.0650427289074287,2185.4771501970245,None,,,,,,,2183.4605500760954,None,2183.6438813080313,2183.660699576023,,,,,,,121,001,2023_Jul_21_1754,SpeechDraft1Carolyn_lessNoise_PlusLocalization,2021.2.3,60.02350591495837,
,,,,,,,,nearLeft,-6.5,1,ch1Sound_localizationTask.wav,-6.5,"(857, 878)","(-103,-202)",-95,-338,,,,,,,,,,,,,7,0,49,2,,,,,,,,,,,,,,,,,,,,,,,,,,,,,,,,,,,,,,,,2186.544071655022,None,,,2189.56029627705,None,1.4222222222222223,1.2833165579941124,2189.56029627705,None,,,,,,,2187.543832830037,None,2187.7275301540503,2187.743809178006,,,,,,,121,001,2023_Jul_21_1754,SpeechDraft1Carolyn_lessNoise_PlusLocalization,2021.2.3,60.02350591495837,
,,,,,,,,nearLeft,-6.5,1,ch1Sound_localizationTask.wav,-6.5,"(857, 878)","(-103,-202)",-95,-338,,,,,,,,,,,,,7,1,50,2,,,,,,,,,,,,,,,,,,,,,,,,,,,,,,,,,,,,,,,,2190.844690820086,None,,,2193.8604475950124,None,1.4190476190476191,1.3664820810081437,2193.8604475950124,None,,,,,,,2191.8441378670977,None,2192.0274580850964,2192.0441464090254,,,,,,,121,001,2023_Jul_21_1754,SpeechDraft1Carolyn_lessNoise_PlusLocalization,2021.2.3,60.02350591495837,
,,,,,,,,center,0.0,6,ch1Sound_localizationTask.wav,0.0,"(952, 878)","(-8,-202)",0,-338,,,,,,,,,,,,,7,2,51,3,,,,,,,,,,,,,,,,,,,,,,,,,,,,,,,,,,,,,,,,2195.227305143024,None,,,2198.2437194760423,None,1.4947089947089947,0.8989235799526796,2198.2437194760423,None,,,,,,,2196.227251164033,None,2196.410548462998,2196.4272727690404,,,,,,,121,001,2023_Jul_21_1754,SpeechDraft1Carolyn_lessNoise_PlusLocalization,2021.2.3,60.02350591495837,
,,,,,,,,farLeft,-19.1,5,ch1Sound_localizationTask.wav,-19.1,"(667, 878)","(-293,-202)",-285,-338,,,,,,,,,,,,,7,3,52,0,,,,,,,,,,,,,,,,,,,,,,,,,,,,,,,,,,,,,,,,2199.143860123004,None,,,2202.160341814044,None,1.3111111111111111,1.2319875810062513,2202.160341814044,None,,,,,,,2200.1441621870035,None,2200.327271642047,2200.3438763651066,,,,,,,121,001,2023_Jul_21_1754,SpeechDraft1Carolyn_lessNoise_PlusLocalization,2021.2.3,60.02350591495837,
,,,,,,,,midLeft,-13.0,2,ch1Sound_localizationTask.wav,-13.0,"(762, 878)","(-198,-202)",-190,-338,,,,,,,,,,,,,7,4,53,1,,,,,,,,,,,,,,,,,,,,,,,,,,,,,,,,,,,,,,,,2203.3939836630598,None,,,2206.4102894780226,None,1.3724867724867724,0.8995426070177928,2206.4102894780226,None,,,,,,,2204.39419186709,None,2204.577180484077,2204.5939184540184,,,,,,,121,001,2023_Jul_21_1754,SpeechDraft1Carolyn_lessNoise_PlusLocalization,2021.2.3,60.02350591495837,
,,,,,,,,farLeft,-19.1,5,ch1Sound_localizationTask.wav,-19.1,"(667, 878)","(-293,-202)",-285,-338,,,,,,,,,,,,,7,5,54,0,,,,,,,,,,,,,,,,,,,,,,,,,,,,,,,,,,,,,,,,2207.310662642005,None,,,2210.327381993062,None,1.2915343915343915,1.299094695947133,2210.327381993062,None,,,,,,,2208.3105819750344,None,2208.493951698998,2208.510687878006,,,,,,,121,001,2023_Jul_21_1754,SpeechDraft1Carolyn_lessNoise_PlusLocalization,2021.2.3,60.02350591495837,
,,,,,,,,midRight,13.0,3,ch1Sound_localizationTask.wav,13.0,"(1142, 878)","(182, -202)",190,-338,,,,,,,,,,,,,7,6,55,5,,,,,,,,,,,,,,,,,,,,,,,,,,,,,,,,,,,,,,,,2211.6272773490055,None,,,2214.643829904031,None,1.6396825396825396,1.4986788750393316,2214.643829904031,None,,,,,,,2212.627244842006,None,2212.810644052108,2212.8273816050496,,,,,,,121,001,2023_Jul_21_1754,SpeechDraft1Carolyn_lessNoise_PlusLocalization,2021.2.3,60.02350591495837,
,,,,,,,,,,,,,,,,,,,,,,,,,,,,,,,,,,,,,,,,,,,,,,,,,,,,,,,,,,,,,,,,,,,,,,,,,,,,,,,,,,,,,,,,,,,,2216.1442788980203,None,c,32.02789610810578,2217.127279505017,None,121,001,2023_Jul_21_1754,SpeechDraft1Carolyn_lessNoise_PlusLocalization,2021.2.3,60.02350591495837,
