Audio_Only_Files,Video_Files,Original_Word_List,noiseLevelCode,conditionCodes,noiseLevelFile1,noiseLevelFile2,InstrTextVar,targetSpeakerName,targetSpeakerEccen,targetSpkrChannel,targetSpkrSound,targetVisualDegrees,visStimLoc,visStimLoc2,visStimW,visStimH,practiceTrials.thisRepN,practiceTrials.thisTrialN,practiceTrials.thisN,practiceTrials.thisIndex,trials.thisRepN,trials.thisTrialN,trials.thisN,trials.thisIndex,audLocalLoop.thisRepN,audLocalLoop.thisTrialN,audLocalLoop.thisN,audLocalLoop.thisIndex,visualLocalLoop.thisRepN,visualLocalLoop.thisTrialN,visualLocalLoop.thisN,visualLocalLoop.thisIndex,letsGoAlready.keys,letsGoAlready.rt,letsGoAlready.started,letsGoAlready.stopped,text_2.started,text_2.stopped,text_3.started,text_3.stopped,key_resp_2.keys,key_resp_2.rt,key_resp_2.started,key_resp_2.stopped,text_5.started,text_5.stopped,fixCross.started,fixCross.stopped,fixCross2.started,fixCross2.stopped,answerPrompt.started,answerPrompt.stopped,getAnswer.text,getAnswer.started,getAnswer.stopped,goToNext.keys,goToNext.rt,goToNext.started,goToNext.stopped,stretchBreakTxrt.started,stretchBreakTxrt.stopped,key_resp_3.keys,key_resp_3.rt,key_resp_3.started,key_resp_3.stopped,letsGoLocal.keys,letsGoLocal.rt,letsGoLocal.started,letsGoLocal.stopped,text_4.started,text_4.stopped,prepFixTxt.started,prepFixTxt.stopped,prepFixTxt_2.started,prepFixTxt_2.stopped,respPromptLocal.started,respPromptLocal.stopped,slider.response,slider.rt,slider.started,slider.stopped,letsGoLocal_2.keys,letsGoLocal_2.rt,letsGoLocal_2.started,letsGoLocal_2.stopped,text_7.started,text_7.stopped,prepFixTxt_3.started,prepFixTxt_3.stopped,grating.started,grating.stopped,participant,session,date,expName,psychopyVersion,frameRate,
,,,,,,,,,,,,,,,,,,,,,,,,,,,,,,,,,space,1.6001184650231153,13.83176994707901,None,,,,,,,,,,,,,,,,,,,,,,,,,,,,,,,,,,,,,,,,,,,,,,,,,,,,,,,,122,001,2023_Jul_25_1431,SpeechDraft1Carolyn_lessNoise_PlusLocalization,2021.2.3,59.99541596609873,
,,,,,,,,,,,,,,,,,,,,,,,,,,,,,,,,,,,,,13.83176994707901,None,15.564487041090615,None,space,21.275780715979636,15.748154981993139,None,,,,,,,,,,,,,,,,,,,,,,,,,,,,,,,,,,,,,,,,,,,,,,,,122,001,2023_Jul_25_1431,SpeechDraft1Carolyn_lessNoise_PlusLocalization,2021.2.3,59.99541596609873,
ash.wav,ash.mpg,ash,1,A,Pink_Noise_1_1.wav,Pink_Noise_1_2.wav,"This is an example of an

AUDIO trial",,,,,,,,,,0,0,0,0,,,,,,,,,,,,,,,,,,,,,,,,,37.08121627103537,None,38.06477898301091,None,41.381215931032784,None,42.76478800503537,None,ash,42.76478800503537,None,return,7.687728108023293,42.84814544406254,None,,,,,,,,,,,,,,,,,,,,,,,,,,,,,,,,,122,001,2023_Jul_25_1431,SpeechDraft1Carolyn_lessNoise_PlusLocalization,2021.2.3,59.99541596609873,
ash.wav,ash.mpg,ash,1,AV,Pink_Noise_1_1.wav,Pink_Noise_1_2.wav,"This is an example of an

AUDIO + VIDEO  trial",,,,,,,,,,0,1,1,1,,,,,,,,,,,,,,,,,,,,,,,,,50.58120491099544,None,51.581424803007394,None,53.06455710704904,None,54.44813488807995,None,ash,54.44813488807995,None,return,3.516529379063286,54.531407364993356,None,,,,,,,,,,,,,,,,,,,,,,,,,,,,,,,,,122,001,2023_Jul_25_1431,SpeechDraft1Carolyn_lessNoise_PlusLocalization,2021.2.3,59.99541596609873,
,,,,,,,,,,,,,,,,,,,,,,,,,,,,,,,,,,,,,,,,,,,,,,,,,,,,,,,,,,,,58.08123693102971,None,space,27.22306143702008,58.26480978599284,None,,,,,,,,,,,,,,,,,,,,,,,,,,,122,001,2023_Jul_25_1431,SpeechDraft1Carolyn_lessNoise_PlusLocalization,2021.2.3,59.99541596609873,
gab.wav,gab.mpg,gab,3,A,Pink_Noise_3_1.wav,Pink_Noise_3_2.wav,,,,,,,,,,,,,,,0,0,0,8,,,,,,,,,,,,,,,,,,,,,,,85.54799250909127,None,87.01466323109344,None,88.39818515907973,None,"go
",88.39818515907973,None,return,6.934350194991566,88.4815300530754,None,,,,,,,,,,,,,,,,,,,,,,,,,,,,,,,,,122,001,2023_Jul_25_1431,SpeechDraft1Carolyn_lessNoise_PlusLocalization,2021.2.3,59.99541596609873,
clothe.wav,clothe.mpg,clothe,5,A,Pink_Noise_5_1.wav,Pink_Noise_5_2.wav,,,,,,,,,,,,,,,0,1,1,3,,,,,,,,,,,,,,,,,,,,,,,95.44820772809908,None,96.94792241009418,None,98.31490170804318,None,close,98.31490170804318,None,return,5.865704723983072,98.39822547498625,None,,,,,,,,,,,,,,,,,,,,,,,,,,,,,,,,,122,001,2023_Jul_25_1431,SpeechDraft1Carolyn_lessNoise_PlusLocalization,2021.2.3,59.99541596609873,
strike.wav,strike.mpg,strike,1,A,Pink_Noise_1_1.wav,Pink_Noise_1_2.wav,,,,,,,,,,,,,,,0,2,2,16,,,,,,,,,,,,,,,,,,,,,,,104.28160445007961,None,105.78135178308003,None,107.14825039007701,None,strike,107.14825039007701,None,return,2.664392614038661,107.2315310370177,None,,,,,,,,,,,,,,,,,,,,,,,,,,,,,,,,,122,001,2023_Jul_25_1431,SpeechDraft1Carolyn_lessNoise_PlusLocalization,2021.2.3,59.99541596609873,
foam.wav,foam.mpg,foam,2,A,Pink_Noise_2_1.wav,Pink_Noise_2_2.wav,,,,,,,,,,,,,,,0,3,3,5,,,,,,,,,,,,,,,,,,,,,,,109.91486084798817,None,111.39797788707074,None,112.7816285850713,None,"phone
",112.7816285850713,None,return,5.534838367952034,112.86504139308818,None,,,,,,,,,,,,,,,,,,,,,,,,,,,,,,,,,122,001,2023_Jul_25_1431,SpeechDraft1Carolyn_lessNoise_PlusLocalization,2021.2.3,59.99541596609873,
feud.wav,feud.mpg,feud,1,A,Pink_Noise_1_1.wav,Pink_Noise_1_2.wav,,,,,,,,,,,,,,,0,4,4,55,,,,,,,,,,,,,,,,,,,,,,,118.43155300209764,None,119.93131643906236,None,121.29820366005879,None,feud,121.29820366005879,None,return,2.162324449978769,121.38159105007071,None,,,,,,,,,,,,,,,,,,,,,,,,,,,,,,,,,122,001,2023_Jul_25_1431,SpeechDraft1Carolyn_lessNoise_PlusLocalization,2021.2.3,59.99541596609873,
droop.wav,droop.mpg,droop,3,AV,Pink_Noise_3_1.wav,Pink_Noise_3_2.wav,,,,,,,,,,,,,,,0,5,5,71,,,,,,,,,,,,,,,,,,,,,,,123.56502516707405,None,125.04808310302906,None,126.43151493009645,None,"droop
",126.43151493009645,None,return,4.2369741490110755,126.51489902799949,None,,,,,,,,,,,,,,,,,,,,,,,,,,,,,,,,,122,001,2023_Jul_25_1431,SpeechDraft1Carolyn_lessNoise_PlusLocalization,2021.2.3,59.99541596609873,
news.wav,news.mpg,news,1,A,Pink_Noise_1_1.wav,Pink_Noise_1_2.wav,,,,,,,,,,,,,,,0,6,6,59,,,,,,,,,,,,,,,,,,,,,,,130.7815756869968,None,132.2646441750694,None,133.64822491200175,None,news,133.64822491200175,None,return,1.5803444579942152,133.73159553809091,None,,,,,,,,,,,,,,,,,,,,,,,,,,,,,,,,,122,001,2023_Jul_25_1431,SpeechDraft1Carolyn_lessNoise_PlusLocalization,2021.2.3,59.99541596609873,
buzz.wav,buzz.mpg,buzz,5,AV,Pink_Noise_5_1.wav,Pink_Noise_5_2.wav,,,,,,,,,,,,,,,0,7,7,95,,,,,,,,,,,,,,,,,,,,,,,135.33161132305395,None,136.8148351230193,None,138.19824007502757,None,buzz,138.19824007502757,None,return,4.9262714959913865,138.28160601609852,None,,,,,,,,,,,,,,,,,,,,,,,,,,,,,,,,,122,001,2023_Jul_25_1431,SpeechDraft1Carolyn_lessNoise_PlusLocalization,2021.2.3,59.99541596609873,
blank.wav,blank.mpg,blank,3,AV,Pink_Noise_3_1.wav,Pink_Noise_3_2.wav,,,,,,,,,,,,,,,0,8,8,117,,,,,,,,,,,,,,,,,,,,,,,143.23155295208562,None,144.73126615502406,None,146.09830787905958,None,blank,146.09830787905958,None,return,5.53035756398458,146.18159112602007,None,,,,,,,,,,,,,,,,,,,,,,,,,,,,,,,,,122,001,2023_Jul_25_1431,SpeechDraft1Carolyn_lessNoise_PlusLocalization,2021.2.3,59.99541596609873,
cup.wav,cup.mpg,cup,5,A,Pink_Noise_5_1.wav,Pink_Noise_5_2.wav,,,,,,,,,,,,,,,0,9,9,28,,,,,,,,,,,,,,,,,,,,,,,151.73163249902427,None,153.23138791008387,None,154.61503760900814,None,,154.61503760900814,None,return,4.037416337989271,154.69845525501296,None,,,,,,,,,,,,,,,,,,,,,,,,,,,,,,,,,122,001,2023_Jul_25_1431,SpeechDraft1Carolyn_lessNoise_PlusLocalization,2021.2.3,59.99541596609873,
bridge.wav,bridge.mpg,bridge,3,AV,Pink_Noise_3_1.wav,Pink_Noise_3_2.wav,,,,,,,,,,,,,,,0,10,10,106,,,,,,,,,,,,,,,,,,,,,,,158.7649451000616,None,160.26469366799574,None,161.64822625706438,None,ridge,161.64822625706438,None,return,6.532367245992646,161.73157307703514,None,,,,,,,,,,,,,,,,,,,,,,,,,,,,,,,,,122,001,2023_Jul_25_1431,SpeechDraft1Carolyn_lessNoise_PlusLocalization,2021.2.3,59.99541596609873,
drunk.wav,drunk.mpg,drunk,5,AV,Pink_Noise_5_1.wav,Pink_Noise_5_2.wav,,,,,,,,,,,,,,,0,11,11,97,,,,,,,,,,,,,,,,,,,,,,,168.28167283709627,None,169.78138301998843,None,171.16495275101624,None,\,171.16495275101624,None,return,1.8155296510085464,171.2483401420759,None,,,,,,,,,,,,,,,,,,,,,,,,,,,,,,,,,122,001,2023_Jul_25_1431,SpeechDraft1Carolyn_lessNoise_PlusLocalization,2021.2.3,59.99541596609873,
cruel.wav,cruel.mpg,cruel,2,AV,Pink_Noise_2_1.wav,Pink_Noise_2_2.wav,,,,,,,,,,,,,,,0,12,12,110,,,,,,,,,,,,,,,,,,,,,,,173.09843687107787,None,174.5980236280011,None,175.981652655988,None,"cruel
",175.981652655988,None,return,22.48676882404834,176.06511413806584,None,,,,,,,,,,,,,,,,,,,,,,,,,,,,,,,,,122,001,2023_Jul_25_1431,SpeechDraft1Carolyn_lessNoise_PlusLocalization,2021.2.3,59.99541596609873,
teen.wav,teen.mpg,teen,1,A,Pink_Noise_1_1.wav,Pink_Noise_1_2.wav,,,,,,,,,,,,,,,0,13,13,26,,,,,,,,,,,,,,,,,,,,,,,198.58169272099622,None,200.08142981503624,None,201.46516408701427,None,"team
",201.46516408701427,None,return,7.883594006067142,201.5483035480138,None,,,,,,,,,,,,,,,,,,,,,,,,,,,,,,,,,122,001,2023_Jul_25_1431,SpeechDraft1Carolyn_lessNoise_PlusLocalization,2021.2.3,59.99541596609873,
swan.wav,swan.mpg,swan,4,AV,Pink_Noise_4_1.wav,Pink_Noise_4_2.wav,,,,,,,,,,,,,,,0,14,14,103,,,,,,,,,,,,,,,,,,,,,,,209.46497760200873,None,210.9650597940199,None,212.34838752204087,None,swan,212.34838752204087,None,return,6.82417708192952,212.4316976260161,None,,,,,,,,,,,,,,,,,,,,,,,,,,,,,,,,,122,001,2023_Jul_25_1431,SpeechDraft1Carolyn_lessNoise_PlusLocalization,2021.2.3,59.99541596609873,
deed.wav,deed.mpg,deed,4,AV,Pink_Noise_4_1.wav,Pink_Noise_4_2.wav,,,,,,,,,,,,,,,0,15,15,92,,,,,,,,,,,,,,,,,,,,,,,219.2816335450625,None,220.7814791710116,None,222.1651216200553,None,"
",222.1651216200553,None,return,1.9834729210706428,222.2483833320439,None,,,,,,,,,,,,,,,,,,,,,,,,,,,,,,,,,122,001,2023_Jul_25_1431,SpeechDraft1Carolyn_lessNoise_PlusLocalization,2021.2.3,59.99541596609873,
bell.wav,bell.mpg,bell,3,A,Pink_Noise_3_1.wav,Pink_Noise_3_2.wav,,,,,,,,,,,,,,,0,16,16,6,,,,,,,,,,,,,,,,,,,,,,,224.26516625203658,None,225.74836797709577,None,227.13178668904584,None,bell,227.13178668904584,None,return,1.6247499140445143,227.21511693205684,None,,,,,,,,,,,,,,,,,,,,,,,,,,,,,,,,,122,001,2023_Jul_25_1431,SpeechDraft1Carolyn_lessNoise_PlusLocalization,2021.2.3,59.99541596609873,
flee.wav,flee.mpg,flee,6,AV,Pink_Noise_6_1.wav,Pink_Noise_6_2.wav,,,,,,,,,,,,,,,0,17,17,100,,,,,,,,,,,,,,,,,,,,,,,228.8650948050199,None,230.35015016701072,None,231.73171247402206,None,free,231.73171247402206,None,return,6.904757829965092,231.81518291006796,None,,,,,,,,,,,,,,,,,,,,,,,,,,,,,,,,,122,001,2023_Jul_25_1431,SpeechDraft1Carolyn_lessNoise_PlusLocalization,2021.2.3,59.99541596609873,
grip.wav,grip.mpg,grip,5,AV,Pink_Noise_5_1.wav,Pink_Noise_5_2.wav,,,,,,,,,,,,,,,0,18,18,107,,,,,,,,,,,,,,,,,,,,,,,238.74856129207183,None,240.24824700201862,None,241.63179836107884,None,"grip
",241.63179836107884,None,return,2.8848602259531617,241.71503287600353,None,,,,,,,,,,,,,,,,,,,,,,,,,,,,,,,,,122,001,2023_Jul_25_1431,SpeechDraft1Carolyn_lessNoise_PlusLocalization,2021.2.3,59.99541596609873,
brash.wav,brash.mpg,brash,1,AV,Pink_Noise_1_1.wav,Pink_Noise_1_2.wav,,,,,,,,,,,,,,,0,19,19,98,,,,,,,,,,,,,,,,,,,,,,,244.63169274502434,None,246.1315106090624,None,247.49845504609402,None,"brush
",247.49845504609402,None,return,3.3858951840084046,247.5819924090756,None,,,,,,,,,,,,,,,,,,,,,,,,,,,,,,,,,122,001,2023_Jul_25_1431,SpeechDraft1Carolyn_lessNoise_PlusLocalization,2021.2.3,59.99541596609873,
bill.wav,bill.mpg,bill,4,A,Pink_Noise_4_1.wav,Pink_Noise_4_2.wav,,,,,,,,,,,,,,,0,20,20,40,,,,,,,,,,,,,,,,,,,,,,,250.99840832699556,None,252.49819290300366,None,253.8817218510667,None,,253.8817218510667,None,return,1.5547596849501133,253.96515192301013,None,,,,,,,,,,,,,,,,,,,,,,,,,,,,,,,,,122,001,2023_Jul_25_1431,SpeechDraft1Carolyn_lessNoise_PlusLocalization,2021.2.3,59.99541596609873,
guess.wav,guess.mpg,guess,4,A,Pink_Noise_4_1.wav,Pink_Noise_4_2.wav,,,,,,,,,,,,,,,0,21,21,17,,,,,,,,,,,,,,,,,,,,,,,255.54850325302687,None,257.0482898460468,None,258.4318199080881,None,"guess
",258.4318199080881,None,return,1.8367679249495268,258.51509190001525,None,,,,,,,,,,,,,,,,,,,,,,,,,,,,,,,,,122,001,2023_Jul_25_1431,SpeechDraft1Carolyn_lessNoise_PlusLocalization,2021.2.3,59.99541596609873,
pants.wav,pants.mpg,pants,4,AV,Pink_Noise_4_1.wav,Pink_Noise_4_2.wav,,,,,,,,,,,,,,,0,22,22,109,,,,,,,,,,,,,,,,,,,,,,,260.3817704950925,None,261.8815957620973,None,263.26507828501053,None,pants,263.26507828501053,None,return,5.931502328021452,263.3484286990715,None,,,,,,,,,,,,,,,,,,,,,,,,,,,,,,,,,122,001,2023_Jul_25_1431,SpeechDraft1Carolyn_lessNoise_PlusLocalization,2021.2.3,59.99541596609873,
guilt.wav,guilt.mpg,guilt,3,A,Pink_Noise_3_1.wav,Pink_Noise_3_2.wav,,,,,,,,,,,,,,,0,23,23,7,,,,,,,,,,,,,,,,,,,,,,,269.29845252109226,None,270.79825995804276,None,272.1819768350106,None,guilt,272.1819768350106,None,return,5.95865780999884,272.26522126805503,None,,,,,,,,,,,,,,,,,,,,,,,,,,,,,,,,,122,001,2023_Jul_25_1431,SpeechDraft1Carolyn_lessNoise_PlusLocalization,2021.2.3,59.99541596609873,
dry.wav,dry.mpg,dry,5,AV,Pink_Noise_5_1.wav,Pink_Noise_5_2.wav,,,,,,,,,,,,,,,0,24,24,102,,,,,,,,,,,,,,,,,,,,,,,278.248470549006,None,279.73286771203857,None,281.1150823170319,None,dry,281.1150823170319,None,return,2.5135329590411857,281.1984196350677,None,,,,,,,,,,,,,,,,,,,,,,,,,,,,,,,,,122,001,2023_Jul_25_1431,SpeechDraft1Carolyn_lessNoise_PlusLocalization,2021.2.3,59.99541596609873,
desk.wav,desk.mpg,desk,6,A,Pink_Noise_6_1.wav,Pink_Noise_6_2.wav,,,,,,,,,,,,,,,0,25,25,38,,,,,,,,,,,,,,,,,,,,,,,283.73187704000156,None,285.231607366004,None,286.6151734830346,None,,286.6151734830346,None,return,2.1414410379948094,286.69842211005744,None,,,,,,,,,,,,,,,,,,,,,,,,,,,,,,,,,122,001,2023_Jul_25_1431,SpeechDraft1Carolyn_lessNoise_PlusLocalization,2021.2.3,59.99541596609873,
bruise.wav,bruise.mpg,bruise,6,AV,Pink_Noise_6_1.wav,Pink_Noise_6_2.wav,,,,,,,,,,,,,,,0,26,26,113,,,,,,,,,,,,,,,,,,,,,,,288.8650936760241,None,290.36499278608244,None,291.7318932689959,None,rules,291.7318932689959,None,return,2.8327006610343233,291.81521255604457,None,,,,,,,,,,,,,,,,,,,,,,,,,,,,,,,,,122,001,2023_Jul_25_1431,SpeechDraft1Carolyn_lessNoise_PlusLocalization,2021.2.3,59.99541596609873,
cry.wav,cry.mpg,cry,3,A,Pink_Noise_3_1.wav,Pink_Noise_3_2.wav,,,,,,,,,,,,,,,0,27,27,39,,,,,,,,,,,,,,,,,,,,,,,294.6651907770429,None,296.16490305704065,None,297.5486514340155,None,cry,297.5486514340155,None,return,1.224050923017785,297.6318256719969,None,,,,,,,,,,,,,,,,,,,,,,,,,,,,,,,,,122,001,2023_Jul_25_1431,SpeechDraft1Carolyn_lessNoise_PlusLocalization,2021.2.3,59.99541596609873,
frost.wav,frost.mpg,frost,2,AV,Pink_Noise_2_1.wav,Pink_Noise_2_2.wav,,,,,,,,,,,,,,,0,28,28,91,,,,,,,,,,,,,,,,,,,,,,,298.88187762198504,None,300.3815195449861,None,301.76513853902,None,"frost
",301.76513853902,None,return,3.951201139949262,301.84867247508373,None,,,,,,,,,,,,,,,,,,,,,,,,,,,,,,,,,122,001,2023_Jul_25_1431,SpeechDraft1Carolyn_lessNoise_PlusLocalization,2021.2.3,59.99541596609873,
club.wav,club.mpg,club,5,A,Pink_Noise_5_1.wav,Pink_Noise_5_2.wav,,,,,,,,,,,,,,,0,29,29,56,,,,,,,,,,,,,,,,,,,,,,,305.8318421650911,None,307.33161549898796,None,308.69852198509034,None,,308.69852198509034,None,return,2.7940575090469792,308.7818175450666,None,,,,,,,,,,,,,,,,,,,,,,,,,,,,,,,,,122,001,2023_Jul_25_1431,SpeechDraft1Carolyn_lessNoise_PlusLocalization,2021.2.3,59.99541596609873,
guard.wav,guard.mpg,guard,5,AV,Pink_Noise_5_1.wav,Pink_Noise_5_2.wav,,,,,,,,,,,,,,,0,30,30,93,,,,,,,,,,,,,,,,,,,,,,,311.5985132480273,None,313.0982297040755,None,314.4817446960369,None,,314.4817446960369,None,return,2.514655394013971,314.5652268320555,None,,,,,,,,,,,,,,,,,,,,,,,,,,,,,,,,,122,001,2023_Jul_25_1431,SpeechDraft1Carolyn_lessNoise_PlusLocalization,2021.2.3,59.99541596609873,
grunt.wav,grunt.mpg,grunt,2,AV,Pink_Noise_2_1.wav,Pink_Noise_2_2.wav,,,,,,,,,,,,,,,0,31,31,80,,,,,,,,,,,,,,,,,,,,,,,317.0984771520598,None,318.5983416340314,None,319.98179707699455,None,grunt,319.98179707699455,None,return,6.982729919021949,320.06519771309104,None,,,,,,,,,,,,,,,,,,,,,,,,,,,,,,,,,122,001,2023_Jul_25_1431,SpeechDraft1Carolyn_lessNoise_PlusLocalization,2021.2.3,59.99541596609873,
unit.wav,unit.mpg,unit,1,AV,Pink_Noise_1_1.wav,Pink_Noise_1_2.wav,,,,,,,,,,,,,,,0,32,32,68,,,,,,,,,,,,,,,,,,,,,,,327.0652373540215,None,328.5649191820994,None,329.9484966910677,None,"unit
",329.9484966910677,None,return,1.6000216440297663,330.0318487060722,None,,,,,,,,,,,,,,,,,,,,,,,,,,,,,,,,,122,001,2023_Jul_25_1431,SpeechDraft1Carolyn_lessNoise_PlusLocalization,2021.2.3,59.99541596609873,
dare.wav,dare.mpg,dare,4,AV,Pink_Noise_4_1.wav,Pink_Noise_4_2.wav,,,,,,,,,,,,,,,0,33,33,105,,,,,,,,,,,,,,,,,,,,,,,331.66520127805416,None,333.1650073910132,None,334.54848884406965,None,drae,334.54848884406965,None,return,1.2959793499903753,334.6318988240091,None,,,,,,,,,,,,,,,,,,,,,,,,,,,,,,,,,122,001,2023_Jul_25_1431,SpeechDraft1Carolyn_lessNoise_PlusLocalization,2021.2.3,59.99541596609873,
roast.wav,roast.mpg,roast,2,A,Pink_Noise_2_1.wav,Pink_Noise_2_2.wav,,,,,,,,,,,,,,,0,34,34,1,,,,,,,,,,,,,,,,,,,,,,,335.9485083310865,None,337.4482553200796,None,338.8319171690382,None,roast,338.8319171690382,None,return,9.124599314993247,338.91526296304073,None,,,,,,,,,,,,,,,,,,,,,,,,,,,,,,,,,122,001,2023_Jul_25_1431,SpeechDraft1Carolyn_lessNoise_PlusLocalization,2021.2.3,59.99541596609873,
rod.wav,rod.mpg,rod,2,A,Pink_Noise_2_1.wav,Pink_Noise_2_2.wav,,,,,,,,,,,,,,,0,35,35,49,,,,,,,,,,,,,,,,,,,,,,,348.065205788007,None,349.5648926870199,None,350.94861684704665,None,rod,350.94861684704665,None,return,1.6319389319978654,351.03204484807793,None,,,,,,,,,,,,,,,,,,,,,,,,,,,,,,,,,122,001,2023_Jul_25_1431,SpeechDraft1Carolyn_lessNoise_PlusLocalization,2021.2.3,59.99541596609873,
tear.wav,tear.mpg,tear,1,A,Pink_Noise_1_1.wav,Pink_Noise_1_2.wav,,,,,,,,,,,,,,,0,36,36,57,,,,,,,,,,,,,,,,,,,,,,,352.68185026408173,None,354.1817021040479,None,355.56532330205664,None,tear,355.56532330205664,None,return,4.295300008961931,355.6485981850419,None,,,,,,,,,,,,,,,,,,,,,,,,,,,,,,,,,122,001,2023_Jul_25_1431,SpeechDraft1Carolyn_lessNoise_PlusLocalization,2021.2.3,59.99541596609873,
sue.wav,sue.mpg,sue,2,AV,Pink_Noise_2_1.wav,Pink_Noise_2_2.wav,,,,,,,,,,,,,,,0,37,37,115,,,,,,,,,,,,,,,,,,,,,,,359.96526207600255,None,361.4650472160429,None,362.84853609406855,None,sew,362.84853609406855,None,return,1.9159835799364373,362.93192437302787,None,,,,,,,,,,,,,,,,,,,,,,,,,,,,,,,,,122,001,2023_Jul_25_1431,SpeechDraft1Carolyn_lessNoise_PlusLocalization,2021.2.3,59.99541596609873,
fog.wav,fog.mpg,fog,4,AV,Pink_Noise_4_1.wav,Pink_Noise_4_2.wav,,,,,,,,,,,,,,,0,38,38,75,,,,,,,,,,,,,,,,,,,,,,,364.8652832960943,None,366.36512049206067,None,367.7484708080301,None,"fun
",367.7484708080301,None,return,1.5678505920805037,367.83203183009755,None,,,,,,,,,,,,,,,,,,,,,,,,,,,,,,,,,122,001,2023_Jul_25_1431,SpeechDraft1Carolyn_lessNoise_PlusLocalization,2021.2.3,59.99541596609873,
glass.wav,glass.mpg,glass,5,A,Pink_Noise_5_1.wav,Pink_Noise_5_2.wav,,,,,,,,,,,,,,,0,39,39,46,,,,,,,,,,,,,,,,,,,,,,,369.43193509301636,None,370.9317016490968,None,372.3151646970073,None,"glass
",372.3151646970073,None,return,2.9372876950073987,372.39858575805556,None,,,,,,,,,,,,,,,,,,,,,,,,,,,,,,,,,122,001,2023_Jul_25_1431,SpeechDraft1Carolyn_lessNoise_PlusLocalization,2021.2.3,59.99541596609873,
pact.wav,pact.mpg,pact,4,A,Pink_Noise_4_1.wav,Pink_Noise_4_2.wav,,,,,,,,,,,,,,,0,40,40,47,,,,,,,,,,,,,,,,,,,,,,,375.3652261700481,None,376.8649452030659,None,378.2486142780399,None,pt,378.2486142780399,None,return,1.8759618749609217,378.3319084580289,None,,,,,,,,,,,,,,,,,,,,,,,,,,,,,,,,,122,001,2023_Jul_25_1431,SpeechDraft1Carolyn_lessNoise_PlusLocalization,2021.2.3,59.99541596609873,
fried.wav,fried.mpg,fried,1,AV,Pink_Noise_1_1.wav,Pink_Noise_1_2.wav,,,,,,,,,,,,,,,0,41,41,111,,,,,,,,,,,,,,,,,,,,,,,380.2318865470588,None,381.7317188750021,None,383.11537892604247,None,"fried
",383.11537892604247,None,return,9.137272877967916,383.19860184099525,None,,,,,,,,,,,,,,,,,,,,,,,,,,,,,,,,,122,001,2023_Jul_25_1431,SpeechDraft1Carolyn_lessNoise_PlusLocalization,2021.2.3,59.99541596609873,
bun.wav,bun.mpg,bun,6,AV,Pink_Noise_6_1.wav,Pink_Noise_6_2.wav,,,,,,,,,,,,,,,0,42,42,119,,,,,,,,,,,,,,,,,,,,,,,392.36523894104175,None,393.8651135030668,None,395.2485632870812,None,bun,395.2485632870812,None,return,2.947957849013619,395.3319405290531,None,,,,,,,,,,,,,,,,,,,,,,,,,,,,,,,,,122,001,2023_Jul_25_1431,SpeechDraft1Carolyn_lessNoise_PlusLocalization,2021.2.3,59.99541596609873,
guest.wav,guest.mpg,guest,4,AV,Pink_Noise_4_1.wav,Pink_Noise_4_2.wav,,,,,,,,,,,,,,,0,43,43,82,,,,,,,,,,,,,,,,,,,,,,,398.29868206800893,None,399.7983756790636,None,401.1820616410114,None,guest,401.1820616410114,None,return,2.4786478970199823,401.26523756200913,None,,,,,,,,,,,,,,,,,,,,,,,,,,,,,,,,,122,001,2023_Jul_25_1431,SpeechDraft1Carolyn_lessNoise_PlusLocalization,2021.2.3,59.99541596609873,
choir.wav,choir.mpg,choir,3,A,Pink_Noise_3_1.wav,Pink_Noise_3_2.wav,,,,,,,,,,,,,,,0,44,44,37,,,,,,,,,,,,,,,,,,,,,,,403.7652497329982,None,405.265003120061,None,406.6487401900813,None,quiet,406.6487401900813,None,return,6.643852830980904,406.73201519809663,None,,,,,,,,,,,,,,,,,,,,,,,,,,,,,,,,,122,001,2023_Jul_25_1431,SpeechDraft1Carolyn_lessNoise_PlusLocalization,2021.2.3,59.99541596609873,
ham.wav,ham.mpg,ham,6,A,Pink_Noise_6_1.wav,Pink_Noise_6_2.wav,,,,,,,,,,,,,,,0,45,45,31,,,,,,,,,,,,,,,,,,,,,,,413.3986745340517,None,414.89846273500007,None,416.2820414620219,None,storm,416.2820414620219,None,return,7.31450183596462,416.365371832042,None,,,,,,,,,,,,,,,,,,,,,,,,,,,,,,,,,122,001,2023_Jul_25_1431,SpeechDraft1Carolyn_lessNoise_PlusLocalization,2021.2.3,59.99541596609873,
croak.wav,croak.mpg,croak,2,A,Pink_Noise_2_1.wav,Pink_Noise_2_2.wav,,,,,,,,,,,,,,,0,46,46,44,,,,,,,,,,,,,,,,,,,,,,,423.6986497120233,None,425.19841431907844,None,426.5820243060589,None,crook,426.5820243060589,None,return,3.414613793953322,426.6652562950039,None,,,,,,,,,,,,,,,,,,,,,,,,,,,,,,,,,122,001,2023_Jul_25_1431,SpeechDraft1Carolyn_lessNoise_PlusLocalization,2021.2.3,59.99541596609873,
hug.wav,hug.mpg,hug,1,A,Pink_Noise_1_1.wav,Pink_Noise_1_2.wav,,,,,,,,,,,,,,,0,47,47,41,,,,,,,,,,,,,,,,,,,,,,,430.09868294000626,None,431.5988611410139,None,432.9820903619984,None,"hug
",432.9820903619984,None,return,1.086554353008978,433.06532627309207,None,,,,,,,,,,,,,,,,,,,,,,,,,,,,,,,,,122,001,2023_Jul_25_1431,SpeechDraft1Carolyn_lessNoise_PlusLocalization,2021.2.3,59.99541596609873,
golf.wav,golf.mpg,golf,3,A,Pink_Noise_3_1.wav,Pink_Noise_3_2.wav,,,,,,,,,,,,,,,0,48,48,2,,,,,,,,,,,,,,,,,,,,,,,434.1819691770943,None,435.6817811660003,None,437.0654044650728,None,golf,437.0654044650728,None,return,11.147291424917057,437.14869185199495,None,,,,,,,,,,,,,,,,,,,,,,,,,,,,,,,,,122,001,2023_Jul_25_1431,SpeechDraft1Carolyn_lessNoise_PlusLocalization,2021.2.3,59.99541596609873,
bite.wav,bite.mpg,bite,1,A,Pink_Noise_1_1.wav,Pink_Noise_1_2.wav,,,,,,,,,,,,,,,0,49,49,21,,,,,,,,,,,,,,,,,,,,,,,448.3153741119895,None,449.81509967602324,None,451.19870558800176,None,bite,451.19870558800176,None,return,2.72586251294706,451.28201731306035,None,,,,,,,,,,,,,,,,,,,,,,,,,,,,,,,,,122,001,2023_Jul_25_1431,SpeechDraft1Carolyn_lessNoise_PlusLocalization,2021.2.3,59.99541596609873,
clay.wav,clay.mpg,clay,6,A,Pink_Noise_6_1.wav,Pink_Noise_6_2.wav,,,,,,,,,,,,,,,0,50,50,19,,,,,,,,,,,,,,,,,,,,,,,454.03204324503895,None,455.5319172880845,None,456.9154145109933,None,"
",456.9154145109933,None,return,2.7691865779925138,456.99870413704775,None,,,,,,,,,,,,,,,,,,,,,,,,,,,,,,,,,122,001,2023_Jul_25_1431,SpeechDraft1Carolyn_lessNoise_PlusLocalization,2021.2.3,59.99541596609873,
eat.wav,eat.mpg,eat,1,AV,Pink_Noise_1_1.wav,Pink_Noise_1_2.wav,,,,,,,,,,,,,,,0,51,51,104,,,,,,,,,,,,,,,,,,,,,,,459.79872400604654,None,461.29856616200414,None,462.6819039940601,None,it,462.6819039940601,None,return,1.0745018949965015,462.7653750280151,None,,,,,,,,,,,,,,,,,,,,,,,,,,,,,,,,,122,001,2023_Jul_25_1431,SpeechDraft1Carolyn_lessNoise_PlusLocalization,2021.2.3,59.99541596609873,
cause.wav,cause.mpg,cause,3,AV,Pink_Noise_3_1.wav,Pink_Noise_3_2.wav,,,,,,,,,,,,,,,0,52,52,85,,,,,,,,,,,,,,,,,,,,,,,463.8653743620962,None,465.3652073420817,None,466.7487400090322,None,cause,466.7487400090322,None,return,5.055884814006276,466.8320636190474,None,,,,,,,,,,,,,,,,,,,,,,,,,,,,,,,,,122,001,2023_Jul_25_1431,SpeechDraft1Carolyn_lessNoise_PlusLocalization,2021.2.3,59.99541596609873,
duct.wav,duct.mpg,duct,2,AV,Pink_Noise_2_1.wav,Pink_Noise_2_2.wav,,,,,,,,,,,,,,,0,53,53,79,,,,,,,,,,,,,,,,,,,,,,,471.91540964809246,None,473.41527450305875,None,474.79874316300265,None,"duct 
",474.79874316300265,None,return,2.0698177239391953,474.8820748870494,None,,,,,,,,,,,,,,,,,,,,,,,,,,,,,,,,,122,001,2023_Jul_25_1431,SpeechDraft1Carolyn_lessNoise_PlusLocalization,2021.2.3,59.99541596609873,
flag.wav,flag.mpg,flag,6,AV,Pink_Noise_6_1.wav,Pink_Noise_6_2.wav,,,,,,,,,,,,,,,0,54,54,116,,,,,,,,,,,,,,,,,,,,,,,476.9820496160537,None,478.4818632400129,None,479.8652704550186,None,fan,479.8652704550186,None,return,2.1470111379167065,479.9489215230569,None,,,,,,,,,,,,,,,,,,,,,,,,,,,,,,,,,122,001,2023_Jul_25_1431,SpeechDraft1Carolyn_lessNoise_PlusLocalization,2021.2.3,59.99541596609873,
cheek.wav,cheek.mpg,cheek,2,A,Pink_Noise_2_1.wav,Pink_Noise_2_2.wav,,,,,,,,,,,,,,,0,55,55,53,,,,,,,,,,,,,,,,,,,,,,,482.1153976999922,None,483.61516046500765,None,484.9987647020025,None,cheek,484.9987647020025,None,return,2.957810093066655,485.0820774619933,None,,,,,,,,,,,,,,,,,,,,,,,,,,,,,,,,,122,001,2023_Jul_25_1431,SpeechDraft1Carolyn_lessNoise_PlusLocalization,2021.2.3,59.99541596609873,
cent.wav,cent.mpg,cent,4,A,Pink_Noise_4_1.wav,Pink_Noise_4_2.wav,,,,,,,,,,,,,,,0,56,56,20,,,,,,,,,,,,,,,,,,,,,,,488.065430005081,None,489.56558391300496,None,490.9489384450717,None,set,490.9489384450717,None,return,6.2399320940021425,491.03203030105215,None,,,,,,,,,,,,,,,,,,,,,,,,,,,,,,,,,122,001,2023_Jul_25_1431,SpeechDraft1Carolyn_lessNoise_PlusLocalization,2021.2.3,59.99541596609873,
broil.wav,broil.mpg,broil,3,AV,Pink_Noise_3_1.wav,Pink_Noise_3_2.wav,,,,,,,,,,,,,,,0,57,57,99,,,,,,,,,,,,,,,,,,,,,,,497.2986584570026,None,498.79847131308634,None,500.18200604303274,None,"broil
",500.18200604303274,None,return,15.718417480937205,500.26548497506883,None,,,,,,,,,,,,,,,,,,,,,,,,,,,,,,,,,122,001,2023_Jul_25_1431,SpeechDraft1Carolyn_lessNoise_PlusLocalization,2021.2.3,59.99541596609873,
dual.wav,dual.mpg,dual,3,AV,Pink_Noise_3_1.wav,Pink_Noise_3_2.wav,,,,,,,,,,,,,,,0,58,58,60,,,,,,,,,,,,,,,,,,,,,,,516.0154012640705,None,517.5502900090069,None,518.948763692053,None,dual,518.948763692053,None,return,8.80801647703629,519.0158543530852,None,,,,,,,,,,,,,,,,,,,,,,,,,,,,,,,,,122,001,2023_Jul_25_1431,SpeechDraft1Carolyn_lessNoise_PlusLocalization,2021.2.3,59.99541596609873,
fraud.wav,fraud.mpg,fraud,4,A,Pink_Noise_4_1.wav,Pink_Noise_4_2.wav,,,,,,,,,,,,,,,0,59,59,25,,,,,,,,,,,,,,,,,,,,,,,527.8490334980888,None,529.3834295300767,None,530.7660609279992,None,"broth
",530.7660609279992,None,return,5.367113359970972,530.8487648800947,None,,,,,,,,,,,,,,,,,,,,,,,,,,,,,,,,,122,001,2023_Jul_25_1431,SpeechDraft1Carolyn_lessNoise_PlusLocalization,2021.2.3,59.99541596609873,
dent.wav,dent.mpg,dent,5,A,Pink_Noise_5_1.wav,Pink_Noise_5_2.wav,,,,,,,,,,,,,,,0,60,60,12,,,,,,,,,,,,,,,,,,,,,,,536.2488058370072,None,537.7490530239884,None,539.1322358510224,None,dent,539.1322358510224,None,return,3.048418730031699,539.2155886740657,None,,,,,,,,,,,,,,,,,,,,,,,,,,,,,,,,,122,001,2023_Jul_25_1431,SpeechDraft1Carolyn_lessNoise_PlusLocalization,2021.2.3,59.99541596609873,
box.wav,box.mpg,box,5,A,Pink_Noise_5_1.wav,Pink_Noise_5_2.wav,,,,,,,,,,,,,,,0,61,61,18,,,,,,,,,,,,,,,,,,,,,,,542.2822230490856,None,543.815350904013,None,545.1989190460881,None,,545.1989190460881,None,return,4.093728993902914,545.2821446640883,None,,,,,,,,,,,,,,,,,,,,,,,,,,,,,,,,,122,001,2023_Jul_25_1431,SpeechDraft1Carolyn_lessNoise_PlusLocalization,2021.2.3,59.99541596609873,
crate.wav,crate.mpg,crate,3,AV,Pink_Noise_3_1.wav,Pink_Noise_3_2.wav,,,,,,,,,,,,,,,0,62,62,70,,,,,,,,,,,,,,,,,,,,,,,549.3988930220949,None,550.899379700073,None,552.2823833900038,None,"crate
",552.2823833900038,None,return,2.834165708045475,552.3657185269985,None,,,,,,,,,,,,,,,,,,,,,,,,,,,,,,,,,122,001,2023_Jul_25_1431,SpeechDraft1Carolyn_lessNoise_PlusLocalization,2021.2.3,59.99541596609873,
damn.wav,damn.mpg,damn,4,A,Pink_Noise_4_1.wav,Pink_Noise_4_2.wav,,,,,,,,,,,,,,,0,63,63,54,,,,,,,,,,,,,,,,,,,,,,,555.2323293089867,None,556.7319304370321,None,558.1155709429877,None,damn,558.1155709429877,None,return,4.064898572978564,558.1990440550726,None,,,,,,,,,,,,,,,,,,,,,,,,,,,,,,,,,122,001,2023_Jul_25_1431,SpeechDraft1Carolyn_lessNoise_PlusLocalization,2021.2.3,59.99541596609873,
fish.wav,fish.mpg,fish,5,AV,Pink_Noise_5_1.wav,Pink_Noise_5_2.wav,,,,,,,,,,,,,,,0,64,64,61,,,,,,,,,,,,,,,,,,,,,,,562.282281566062,None,563.783936756081,None,565.1655620500678,None,fish,565.1655620500678,None,return,2.8390762719791383,565.2488737379899,None,,,,,,,,,,,,,,,,,,,,,,,,,,,,,,,,,122,001,2023_Jul_25_1431,SpeechDraft1Carolyn_lessNoise_PlusLocalization,2021.2.3,59.99541596609873,
coy.wav,coy.mpg,coy,1,AV,Pink_Noise_1_1.wav,Pink_Noise_1_2.wav,,,,,,,,,,,,,,,0,65,65,69,,,,,,,,,,,,,,,,,,,,,,,568.1157973390073,None,569.6490393760614,None,571.0322343680309,None,koy,571.0322343680309,None,return,5.324415064998902,571.1155440460425,None,,,,,,,,,,,,,,,,,,,,,,,,,,,,,,,,,122,001,2023_Jul_25_1431,SpeechDraft1Carolyn_lessNoise_PlusLocalization,2021.2.3,59.99541596609873,
forth.wav,forth.mpg,forth,1,AV,Pink_Noise_1_1.wav,Pink_Noise_1_2.wav,,,,,,,,,,,,,,,0,66,66,108,,,,,,,,,,,,,,,,,,,,,,,576.4656004740391,None,577.9820529010613,None,579.3655773220817,None,fourth,579.3655773220817,None,return,3.4306594639783725,579.4492336910916,None,,,,,,,,,,,,,,,,,,,,,,,,,,,,,,,,,122,001,2023_Jul_25_1431,SpeechDraft1Carolyn_lessNoise_PlusLocalization,2021.2.3,59.99541596609873,
brag.wav,brag.mpg,brag,1,A,Pink_Noise_1_1.wav,Pink_Noise_1_2.wav,,,,,,,,,,,,,,,0,67,67,22,,,,,,,,,,,,,,,,,,,,,,,582.8989660220686,None,584.4320736450609,None,585.815639973036,None,brag,585.815639973036,None,return,3.4608692900510505,585.8990192930214,None,,,,,,,,,,,,,,,,,,,,,,,,,,,,,,,,,122,001,2023_Jul_25_1431,SpeechDraft1Carolyn_lessNoise_PlusLocalization,2021.2.3,59.99541596609873,
bloom.wav,bloom.mpg,bloom,3,A,Pink_Noise_3_1.wav,Pink_Noise_3_2.wav,,,,,,,,,,,,,,,0,68,68,42,,,,,,,,,,,,,,,,,,,,,,,589.382319809054,None,590.8828492130851,None,592.2656468510395,None,bloom,592.2656468510395,None,return,3.330970367998816,592.3489076680271,None,,,,,,,,,,,,,,,,,,,,,,,,,,,,,,,,,122,001,2023_Jul_25_1431,SpeechDraft1Carolyn_lessNoise_PlusLocalization,2021.2.3,59.99541596609873,
brief.wav,brief.mpg,brief,6,AV,Pink_Noise_6_1.wav,Pink_Noise_6_2.wav,,,,,,,,,,,,,,,0,69,69,96,,,,,,,,,,,,,,,,,,,,,,,595.698919196031,None,597.2321440679953,None,598.6155409880448,None,free,598.6155409880448,None,return,4.1887990379473194,598.6992273090873,None,,,,,,,,,,,,,,,,,,,,,,,,,,,,,,,,,122,001,2023_Jul_25_1431,SpeechDraft1Carolyn_lessNoise_PlusLocalization,2021.2.3,59.99541596609873,
fool.wav,fool.mpg,fool,3,A,Pink_Noise_3_1.wav,Pink_Noise_3_2.wav,,,,,,,,,,,,,,,0,70,70,15,,,,,,,,,,,,,,,,,,,,,,,602.9156145220622,None,604.4153589520138,None,605.7989318680484,None,"pool
",605.7989318680484,None,return,6.653580591082573,605.8822941490216,None,,,,,,,,,,,,,,,,,,,,,,,,,,,,,,,,,122,001,2023_Jul_25_1431,SpeechDraft1Carolyn_lessNoise_PlusLocalization,2021.2.3,59.99541596609873,
fold.wav,fold.mpg,fold,6,AV,Pink_Noise_6_1.wav,Pink_Noise_6_2.wav,,,,,,,,,,,,,,,0,71,71,63,,,,,,,,,,,,,,,,,,,,,,,612.5655857420061,None,614.0653778529959,None,615.4488751339959,None,"
",615.4488751339959,None,return,3.867588848923333,615.5323035480687,None,,,,,,,,,,,,,,,,,,,,,,,,,,,,,,,,,122,001,2023_Jul_25_1431,SpeechDraft1Carolyn_lessNoise_PlusLocalization,2021.2.3,59.99541596609873,
wheat.wav,wheat.mpg,wheat,1,AV,Pink_Noise_1_1.wav,Pink_Noise_1_2.wav,,,,,,,,,,,,,,,0,72,72,87,,,,,,,,,,,,,,,,,,,,,,,619.432360387058,None,620.9321744079934,None,622.3157169700135,None,wait,622.3157169700135,None,return,5.833002441911958,622.3989250800805,None,,,,,,,,,,,,,,,,,,,,,,,,,,,,,,,,,122,001,2023_Jul_25_1431,SpeechDraft1Carolyn_lessNoise_PlusLocalization,2021.2.3,59.99541596609873,
built.wav,built.mpg,built,6,A,Pink_Noise_6_1.wav,Pink_Noise_6_2.wav,,,,,,,,,,,,,,,0,73,73,48,,,,,,,,,,,,,,,,,,,,,,,628.248938785051,None,629.7487933350494,None,631.1323367870646,None,guilt,631.1323367870646,None,return,4.528258442063816,631.215618721093,None,,,,,,,,,,,,,,,,,,,,,,,,,,,,,,,,,122,001,2023_Jul_25_1431,SpeechDraft1Carolyn_lessNoise_PlusLocalization,2021.2.3,59.99541596609873,
coat.wav,coat.mpg,coat,2,AV,Pink_Noise_2_1.wav,Pink_Noise_2_2.wav,,,,,,,,,,,,,,,0,74,74,83,,,,,,,,,,,,,,,,,,,,,,,635.7656026660698,None,637.2653316879878,None,638.6489064560737,None,coat,638.6489064560737,None,return,6.627608533017337,638.7323385290802,None,,,,,,,,,,,,,,,,,,,,,,,,,,,,,,,,,122,001,2023_Jul_25_1431,SpeechDraft1Carolyn_lessNoise_PlusLocalization,2021.2.3,59.99541596609873,
beam.wav,beam.mpg,beam,5,AV,Pink_Noise_5_1.wav,Pink_Noise_5_2.wav,,,,,,,,,,,,,,,0,75,75,72,,,,,,,,,,,,,,,,,,,,,,,645.3822838329943,None,646.8820599220926,None,648.2657035100274,None,"me
",648.2657035100274,None,return,1.9868238280760124,648.349049440003,None,,,,,,,,,,,,,,,,,,,,,,,,,,,,,,,,,122,001,2023_Jul_25_1431,SpeechDraft1Carolyn_lessNoise_PlusLocalization,2021.2.3,59.99541596609873,
claim.wav,claim.mpg,claim,4,AV,Pink_Noise_4_1.wav,Pink_Noise_4_2.wav,,,,,,,,,,,,,,,0,76,76,86,,,,,,,,,,,,,,,,,,,,,,,650.365624396014,None,651.8654759600759,None,653.2489003710216,None,claim,653.2489003710216,None,return,3.9716397159500048,653.3323133590166,None,,,,,,,,,,,,,,,,,,,,,,,,,,,,,,,,,122,001,2023_Jul_25_1431,SpeechDraft1Carolyn_lessNoise_PlusLocalization,2021.2.3,59.99541596609873,
grand.wav,grand.mpg,grand,3,AV,Pink_Noise_3_1.wav,Pink_Noise_3_2.wav,,,,,,,,,,,,,,,0,77,77,84,,,,,,,,,,,,,,,,,,,,,,,657.3323466420406,None,658.8321006430779,None,660.2155523489928,None,"grand
",660.2155523489928,None,return,3.100954119930975,660.2989290030673,None,,,,,,,,,,,,,,,,,,,,,,,,,,,,,,,,,122,001,2023_Jul_25_1431,SpeechDraft1Carolyn_lessNoise_PlusLocalization,2021.2.3,59.99541596609873,
clumps.wav,clumps.mpg,clumps,2,A,Pink_Noise_2_1.wav,Pink_Noise_2_2.wav,,,,,,,,,,,,,,,0,78,78,52,,,,,,,,,,,,,,,,,,,,,,,663.4323313590139,None,664.9321265280014,None,666.315740028047,None,clumps,666.315740028047,None,return,3.4088238179683685,666.399050276028,None,,,,,,,,,,,,,,,,,,,,,,,,,,,,,,,,,122,001,2023_Jul_25_1431,SpeechDraft1Carolyn_lessNoise_PlusLocalization,2021.2.3,59.99541596609873,
fleet.wav,fleet.mpg,fleet,5,A,Pink_Noise_5_1.wav,Pink_Noise_5_2.wav,,,,,,,,,,,,,,,0,79,79,58,,,,,,,,,,,,,,,,,,,,,,,669.8322665609885,None,671.3322373650735,None,672.7158025969984,None,"sweet
",672.7158025969984,None,return,4.20089028601069,672.7989761449862,None,,,,,,,,,,,,,,,,,,,,,,,,,,,,,,,,,122,001,2023_Jul_25_1431,SpeechDraft1Carolyn_lessNoise_PlusLocalization,2021.2.3,59.99541596609873,
cash.wav,cash.mpg,cash,6,AV,Pink_Noise_6_1.wav,Pink_Noise_6_2.wav,,,,,,,,,,,,,,,0,80,80,73,,,,,,,,,,,,,,,,,,,,,,,677.0325283340644,None,678.53209237603,None,679.915614010999,None,"clash
",679.915614010999,None,return,4.816861484083347,679.9990190020762,None,,,,,,,,,,,,,,,,,,,,,,,,,,,,,,,,,122,001,2023_Jul_25_1431,SpeechDraft1Carolyn_lessNoise_PlusLocalization,2021.2.3,59.99541596609873,
sake.wav,sake.mpg,sake,4,AV,Pink_Noise_4_1.wav,Pink_Noise_4_2.wav,,,,,,,,,,,,,,,0,81,81,81,,,,,,,,,,,,,,,,,,,,,,,684.8489555720007,None,686.3487925910158,None,687.7324712499976,None,sick,687.7324712499976,None,return,2.4961467490065843,687.8157455130713,None,,,,,,,,,,,,,,,,,,,,,,,,,,,,,,,,,122,001,2023_Jul_25_1431,SpeechDraft1Carolyn_lessNoise_PlusLocalization,2021.2.3,59.99541596609873,
brick.wav,brick.mpg,brick,1,AV,Pink_Noise_1_1.wav,Pink_Noise_1_2.wav,,,,,,,,,,,,,,,0,82,82,112,,,,,,,,,,,,,,,,,,,,,,,690.3325337880524,None,691.8321813479997,None,693.2157299650135,None,brick,693.2157299650135,None,return,3.4448913040105253,693.2989856840577,None,,,,,,,,,,,,,,,,,,,,,,,,,,,,,,,,,122,001,2023_Jul_25_1431,SpeechDraft1Carolyn_lessNoise_PlusLocalization,2021.2.3,59.99541596609873,
clash.wav,clash.mpg,clash,1,AV,Pink_Noise_1_1.wav,Pink_Noise_1_2.wav,,,,,,,,,,,,,,,0,83,83,76,,,,,,,,,,,,,,,,,,,,,,,696.7658581230789,None,698.2653566900408,None,699.6490508670686,None,clash,699.6490508670686,None,return,4.107574050081894,699.7323026490631,None,,,,,,,,,,,,,,,,,,,,,,,,,,,,,,,,,122,001,2023_Jul_25_1431,SpeechDraft1Carolyn_lessNoise_PlusLocalization,2021.2.3,59.99541596609873,
due.wav,due.mpg,due,1,A,Pink_Noise_1_1.wav,Pink_Noise_1_2.wav,,,,,,,,,,,,,,,0,84,84,32,,,,,,,,,,,,,,,,,,,,,,,703.8657299680635,None,705.3654446350411,None,706.7490405840799,None,"do
",706.7490405840799,None,return,2.3515659980475903,706.8323367510457,None,,,,,,,,,,,,,,,,,,,,,,,,,,,,,,,,,122,001,2023_Jul_25_1431,SpeechDraft1Carolyn_lessNoise_PlusLocalization,2021.2.3,59.99541596609873,
dive.wav,dive.mpg,dive,3,A,Pink_Noise_3_1.wav,Pink_Noise_3_2.wav,,,,,,,,,,,,,,,0,85,85,45,,,,,,,,,,,,,,,,,,,,,,,709.2156972370576,None,710.7155234230449,None,712.0989786430728,None,die,712.0989786430728,None,return,7.2733751179184765,712.1825650410028,None,,,,,,,,,,,,,,,,,,,,,,,,,,,,,,,,,122,001,2023_Jul_25_1431,SpeechDraft1Carolyn_lessNoise_PlusLocalization,2021.2.3,59.99541596609873,
stain.wav,stain.mpg,stain,4,AV,Pink_Noise_4_1.wav,Pink_Noise_4_2.wav,,,,,,,,,,,,,,,0,86,86,65,,,,,,,,,,,,,,,,,,,,,,,719.4825531120878,None,720.9835372139933,None,722.3657305060187,None,stand,722.3657305060187,None,return,2.7747563869925216,722.4491207030369,None,,,,,,,,,,,,,,,,,,,,,,,,,,,,,,,,,122,001,2023_Jul_25_1431,SpeechDraft1Carolyn_lessNoise_PlusLocalization,2021.2.3,59.99541596609873,
mars.wav,mars.mpg,mars,6,A,Pink_Noise_6_1.wav,Pink_Noise_6_2.wav,,,,,,,,,,,,,,,0,87,87,50,,,,,,,,,,,,,,,,,,,,,,,725.249158182065,None,726.7489932529861,None,728.1324012450641,None,"hugs
",728.1324012450641,None,return,8.536122328019701,728.2157616610639,None,,,,,,,,,,,,,,,,,,,,,,,,,,,,,,,,,122,001,2023_Jul_25_1431,SpeechDraft1Carolyn_lessNoise_PlusLocalization,2021.2.3,59.99541596609873,
spire.wav,spire.mpg,spire,1,A,Pink_Noise_1_1.wav,Pink_Noise_1_2.wav,,,,,,,,,,,,,,,0,88,88,35,,,,,,,,,,,,,,,,,,,,,,,736.7824834210332,None,738.2823182630818,None,739.6657440580893,None,spider,739.6657440580893,None,return,3.010820384020917,739.7491050880635,None,,,,,,,,,,,,,,,,,,,,,,,,,,,,,,,,,122,001,2023_Jul_25_1431,SpeechDraft1Carolyn_lessNoise_PlusLocalization,2021.2.3,59.99541596609873,
wine.wav,wine.mpg,wine,3,AV,Pink_Noise_3_1.wav,Pink_Noise_3_2.wav,,,,,,,,,,,,,,,0,89,89,77,,,,,,,,,,,,,,,,,,,,,,,742.7824005300645,None,744.2991553950123,None,745.6657945790794,None,"why
",745.6657945790794,None,return,2.018751422991045,745.7491135280579,None,,,,,,,,,,,,,,,,,,,,,,,,,,,,,,,,,122,001,2023_Jul_25_1431,SpeechDraft1Carolyn_lessNoise_PlusLocalization,2021.2.3,59.99541596609873,
edge.wav,edge.mpg,edge,5,AV,Pink_Noise_5_1.wav,Pink_Noise_5_2.wav,,,,,,,,,,,,,,,0,90,90,94,,,,,,,,,,,,,,,,,,,,,,,747.7991450050613,None,749.3000748120248,None,750.6823868120555,None,edge,750.6823868120555,None,return,6.090229852939956,750.7657386270585,None,,,,,,,,,,,,,,,,,,,,,,,,,,,,,,,,,122,001,2023_Jul_25_1431,SpeechDraft1Carolyn_lessNoise_PlusLocalization,2021.2.3,59.99541596609873,
flow.wav,flow.mpg,flow,2,A,Pink_Noise_2_1.wav,Pink_Noise_2_2.wav,,,,,,,,,,,,,,,0,91,91,27,,,,,,,,,,,,,,,,,,,,,,,756.882425163989,None,758.3821830090601,None,759.7658114710357,None,flow,759.7658114710357,None,return,3.9828270649304613,759.8491431850707,None,,,,,,,,,,,,,,,,,,,,,,,,,,,,,,,,,122,001,2023_Jul_25_1431,SpeechDraft1Carolyn_lessNoise_PlusLocalization,2021.2.3,59.99541596609873,
dance.wav,dance.mpg,dance,5,A,Pink_Noise_5_1.wav,Pink_Noise_5_2.wav,,,,,,,,,,,,,,,0,92,92,34,,,,,,,,,,,,,,,,,,,,,,,763.8490568799898,None,765.3488469410222,None,766.7326463490026,None,dance,766.7326463490026,None,return,4.896050506038591,766.8158053610241,None,,,,,,,,,,,,,,,,,,,,,,,,,,,,,,,,,122,001,2023_Jul_25_1431,SpeechDraft1Carolyn_lessNoise_PlusLocalization,2021.2.3,59.99541596609873,
toast.wav,toast.mpg,toast,2,A,Pink_Noise_2_1.wav,Pink_Noise_2_2.wav,,,,,,,,,,,,,,,0,93,93,10,,,,,,,,,,,,,,,,,,,,,,,771.7326244560536,None,773.2488881150493,None,774.6324863220798,None,"toast
",774.6324863220798,None,return,5.252044220920652,774.7158488390269,None,,,,,,,,,,,,,,,,,,,,,,,,,,,,,,,,,122,001,2023_Jul_25_1431,SpeechDraft1Carolyn_lessNoise_PlusLocalization,2021.2.3,59.99541596609873,
bean.wav,bean.mpg,bean,6,A,Pink_Noise_6_1.wav,Pink_Noise_6_2.wav,,,,,,,,,,,,,,,0,94,94,0,,,,,,,,,,,,,,,,,,,,,,,779.9991884030169,None,781.5155380450888,None,782.8993336730637,None,"sleep
",782.8993336730637,None,return,8.753468748996966,782.9824114129879,None,,,,,,,,,,,,,,,,,,,,,,,,,,,,,,,,,122,001,2023_Jul_25_1431,SpeechDraft1Carolyn_lessNoise_PlusLocalization,2021.2.3,59.99541596609873,
coast.wav,coast.mpg,coast,4,A,Pink_Noise_4_1.wav,Pink_Noise_4_2.wav,,,,,,,,,,,,,,,0,95,95,4,,,,,,,,,,,,,,,,,,,,,,,791.765837916988,None,793.2821962350281,None,794.6492232109886,None,coast,794.6492232109886,None,return,4.139257965958677,794.7327111510094,None,,,,,,,,,,,,,,,,,,,,,,,,,,,,,,,,,122,001,2023_Jul_25_1431,SpeechDraft1Carolyn_lessNoise_PlusLocalization,2021.2.3,59.99541596609873,
slick.wav,slick.mpg,slick,6,A,Pink_Noise_6_1.wav,Pink_Noise_6_2.wav,,,,,,,,,,,,,,,0,96,96,23,,,,,,,,,,,,,,,,,,,,,,,798.8991627270589,None,800.4155812570825,None,801.7992118120892,None,step,801.7992118120892,None,return,2.2934003389673308,801.882460448076,None,,,,,,,,,,,,,,,,,,,,,,,,,,,,,,,,,122,001,2023_Jul_25_1431,SpeechDraft1Carolyn_lessNoise_PlusLocalization,2021.2.3,59.99541596609873,
snake.wav,snake.mpg,snake,6,AV,Pink_Noise_6_1.wav,Pink_Noise_6_2.wav,,,,,,,,,,,,,,,0,97,97,66,,,,,,,,,,,,,,,,,,,,,,,804.1991874340456,None,805.7155387530802,None,807.0991106850561,None,"stay
",807.0991106850561,None,return,2.2173607010627165,807.1825195550919,None,,,,,,,,,,,,,,,,,,,,,,,,,,,,,,,,,122,001,2023_Jul_25_1431,SpeechDraft1Carolyn_lessNoise_PlusLocalization,2021.2.3,59.99541596609873,
round.wav,round.mpg,round,2,A,Pink_Noise_2_1.wav,Pink_Noise_2_2.wav,,,,,,,,,,,,,,,0,98,98,51,,,,,,,,,,,,,,,,,,,,,,,809.4325337810442,None,810.9489999900106,None,812.3326321610948,None,rpund,812.3326321610948,None,return,6.8241547549841926,812.4158224560088,None,,,,,,,,,,,,,,,,,,,,,,,,,,,,,,,,,122,001,2023_Jul_25_1431,SpeechDraft1Carolyn_lessNoise_PlusLocalization,2021.2.3,59.99541596609873,
coal.wav,coal.mpg,coal,6,AV,Pink_Noise_6_1.wav,Pink_Noise_6_2.wav,,,,,,,,,,,,,,,0,99,99,89,,,,,,,,,,,,,,,,,,,,,,,819.2658599830465,None,820.7657366520725,None,822.1491238120943,None,whole,822.1491238120943,None,return,5.0154449889669195,822.2325538430596,None,,,,,,,,,,,,,,,,,,,,,,,,,,,,,,,,,122,001,2023_Jul_25_1431,SpeechDraft1Carolyn_lessNoise_PlusLocalization,2021.2.3,59.99541596609873,
fetch.wav,fetch.mpg,fetch,4,AV,Pink_Noise_4_1.wav,Pink_Noise_4_2.wav,,,,,,,,,,,,,,,0,100,100,114,,,,,,,,,,,,,,,,,,,,,,,827.2659444630845,None,828.7657061890932,None,830.1492290840251,None,"fetch
",830.1492290840251,None,return,4.935215160017833,830.232656825101,None,,,,,,,,,,,,,,,,,,,,,,,,,,,,,,,,,122,001,2023_Jul_25_1431,SpeechDraft1Carolyn_lessNoise_PlusLocalization,2021.2.3,59.99541596609873,
gram.wav,gram.mpg,gram,6,A,Pink_Noise_6_1.wav,Pink_Noise_6_2.wav,,,,,,,,,,,,,,,0,101,101,29,,,,,,,,,,,,,,,,,,,,,,,835.1992462880444,None,836.7159024070716,None,838.0993136510951,None,strand,838.0993136510951,None,return,4.937265410088003,838.1826274819905,None,,,,,,,,,,,,,,,,,,,,,,,,,,,,,,,,,122,001,2023_Jul_25_1431,SpeechDraft1Carolyn_lessNoise_PlusLocalization,2021.2.3,59.99541596609873,
cloud.wav,cloud.mpg,cloud,5,AV,Pink_Noise_5_1.wav,Pink_Noise_5_2.wav,,,,,,,,,,,,,,,0,102,102,78,,,,,,,,,,,,,,,,,,,,,,,843.1492356630042,None,844.6657493950333,None,846.0491613210179,None,cloud,846.0491613210179,None,return,4.7792843650095165,846.1325873620808,None,,,,,,,,,,,,,,,,,,,,,,,,,,,,,,,,,122,001,2023_Jul_25_1431,SpeechDraft1Carolyn_lessNoise_PlusLocalization,2021.2.3,59.99541596609873,
bring.wav,bring.mpg,bring,2,AV,Pink_Noise_2_1.wav,Pink_Noise_2_2.wav,,,,,,,,,,,,,,,0,103,103,88,,,,,,,,,,,,,,,,,,,,,,,850.932559026056,None,852.4491883760784,None,853.832563929027,None,brim,853.832563929027,None,return,3.4279692929703742,853.9158964310773,None,,,,,,,,,,,,,,,,,,,,,,,,,,,,,,,,,122,001,2023_Jul_25_1431,SpeechDraft1Carolyn_lessNoise_PlusLocalization,2021.2.3,59.99541596609873,
cop.wav,cop.mpg,cop,3,AV,Pink_Noise_3_1.wav,Pink_Noise_3_2.wav,,,,,,,,,,,,,,,0,104,104,90,,,,,,,,,,,,,,,,,,,,,,,857.3659197830129,None,858.8660031560576,None,860.2492265860783,None,"cop
",860.2492265860783,None,return,3.0353075599996373,860.3325726190815,None,,,,,,,,,,,,,,,,,,,,,,,,,,,,,,,,,122,001,2023_Jul_25_1431,SpeechDraft1Carolyn_lessNoise_PlusLocalization,2021.2.3,59.99541596609873,
chant.wav,chant.mpg,chant,5,A,Pink_Noise_5_1.wav,Pink_Noise_5_2.wav,,,,,,,,,,,,,,,0,105,105,9,,,,,,,,,,,,,,,,,,,,,,,863.3992872360395,None,864.91573079105,None,866.2993363370188,None,chant,866.2993363370188,None,return,3.6091596629703417,866.382708907011,None,,,,,,,,,,,,,,,,,,,,,,,,,,,,,,,,,122,001,2023_Jul_25_1431,SpeechDraft1Carolyn_lessNoise_PlusLocalization,2021.2.3,59.99541596609873,
flex.wav,flex.mpg,flex,1,AV,Pink_Noise_1_1.wav,Pink_Noise_1_2.wav,,,,,,,,,,,,,,,0,106,106,74,,,,,,,,,,,,,,,,,,,,,,,870.016051359009,None,871.5324661399936,None,872.9159077020595,None,flaps,872.9159077020595,None,return,4.144665437983349,872.9992523430847,None,,,,,,,,,,,,,,,,,,,,,,,,,,,,,,,,,122,001,2023_Jul_25_1431,SpeechDraft1Carolyn_lessNoise_PlusLocalization,2021.2.3,59.99541596609873,
castle.wav,castle.mpg,castle,3,A,Pink_Noise_3_1.wav,Pink_Noise_3_2.wav,,,,,,,,,,,,,,,0,107,107,30,,,,,,,,,,,,,,,,,,,,,,,877.1659793270519,None,878.6824389200192,None,880.0493667779956,None,"castle
",880.0493667779956,None,return,3.8350420059869066,880.1328469649889,None,,,,,,,,,,,,,,,,,,,,,,,,,,,,,,,,,122,001,2023_Jul_25_1431,SpeechDraft1Carolyn_lessNoise_PlusLocalization,2021.2.3,59.99541596609873,
bye.wav,bye.mpg,bye,2,AV,Pink_Noise_2_1.wav,Pink_Noise_2_2.wav,,,,,,,,,,,,,,,0,108,108,118,,,,,,,,,,,,,,,,,,,,,,,883.9993393460754,None,885.5157053420553,None,886.8993029290577,None,bye,886.8993029290577,None,return,1.9612840419868007,886.982586683007,None,,,,,,,,,,,,,,,,,,,,,,,,,,,,,,,,,122,001,2023_Jul_25_1431,SpeechDraft1Carolyn_lessNoise_PlusLocalization,2021.2.3,59.99541596609873,
flog.wav,flog.mpg,flog,5,A,Pink_Noise_5_1.wav,Pink_Noise_5_2.wav,,,,,,,,,,,,,,,0,109,109,36,,,,,,,,,,,,,,,,,,,,,,,888.9660291780019,None,890.4657472060062,None,891.8494493010221,None,dog,891.8494493010221,None,return,3.3790892889956012,891.9328182260506,None,,,,,,,,,,,,,,,,,,,,,,,,,,,,,,,,,122,001,2023_Jul_25_1431,SpeechDraft1Carolyn_lessNoise_PlusLocalization,2021.2.3,59.99541596609873,
blink.wav,blink.mpg,blink,4,A,Pink_Noise_4_1.wav,Pink_Noise_4_2.wav,,,,,,,,,,,,,,,0,110,110,13,,,,,,,,,,,,,,,,,,,,,,,895.3327069240622,None,896.849094666075,None,898.2326636640355,None,lick,898.2326636640355,None,return,2.155937099014409,898.3160465670517,None,,,,,,,,,,,,,,,,,,,,,,,,,,,,,,,,,122,001,2023_Jul_25_1431,SpeechDraft1Carolyn_lessNoise_PlusLocalization,2021.2.3,59.99541596609873,
crank.wav,crank.mpg,crank,2,AV,Pink_Noise_2_1.wav,Pink_Noise_2_2.wav,,,,,,,,,,,,,,,0,111,111,101,,,,,,,,,,,,,,,,,,,,,,,900.499321519048,None,902.0159346089931,None,903.3993127940921,None,crank,903.3993127940921,None,return,5.565290288068354,903.4826833230909,None,,,,,,,,,,,,,,,,,,,,,,,,,,,,,,,,,122,001,2023_Jul_25_1431,SpeechDraft1Carolyn_lessNoise_PlusLocalization,2021.2.3,59.99541596609873,
fix.wav,fix.mpg,fix,4,A,Pink_Noise_4_1.wav,Pink_Noise_4_2.wav,,,,,,,,,,,,,,,0,112,112,33,,,,,,,,,,,,,,,,,,,,,,,909.0660352290142,None,910.5656850690721,None,911.9493652629899,None,fix,911.9493652629899,None,return,3.399077013018541,912.0328434479889,None,,,,,,,,,,,,,,,,,,,,,,,,,,,,,,,,,122,001,2023_Jul_25_1431,SpeechDraft1Carolyn_lessNoise_PlusLocalization,2021.2.3,59.99541596609873,
chalk.wav,chalk.mpg,chalk,6,A,Pink_Noise_6_1.wav,Pink_Noise_6_2.wav,,,,,,,,,,,,,,,0,113,113,11,,,,,,,,,,,,,,,,,,,,,,,915.4493335559964,None,916.9657429020153,None,918.349294956075,None,chug,918.349294956075,None,return,4.111013644025661,918.4328556350665,None,,,,,,,,,,,,,,,,,,,,,,,,,,,,,,,,,122,001,2023_Jul_25_1431,SpeechDraft1Carolyn_lessNoise_PlusLocalization,2021.2.3,59.99541596609873,
bleed.wav,bleed.mpg,bleed,6,AV,Pink_Noise_6_1.wav,Pink_Noise_6_2.wav,,,,,,,,,,,,,,,0,114,114,62,,,,,,,,,,,,,,,,,,,,,,,922.5660422440851,None,924.0824567670934,None,925.4660460470477,None,cleaming,925.4660460470477,None,return,4.0584966180613264,925.5493640060304,None,,,,,,,,,,,,,,,,,,,,,,,,,,,,,,,,,122,001,2023_Jul_25_1431,SpeechDraft1Carolyn_lessNoise_PlusLocalization,2021.2.3,59.99541596609873,
brain.wav,brain.mpg,brain,4,A,Pink_Noise_4_1.wav,Pink_Noise_4_2.wav,,,,,,,,,,,,,,,0,115,115,24,,,,,,,,,,,,,,,,,,,,,,,929.6326884829905,None,931.1490224200534,None,932.5328124869848,None,,932.5328124869848,None,return,1.9759128510486335,932.6159718050621,None,,,,,,,,,,,,,,,,,,,,,,,,,,,,,,,,,122,001,2023_Jul_25_1431,SpeechDraft1Carolyn_lessNoise_PlusLocalization,2021.2.3,59.99541596609873,
folk.wav,folk.mpg,folk,2,A,Pink_Noise_2_1.wav,Pink_Noise_2_2.wav,,,,,,,,,,,,,,,0,116,116,14,,,,,,,,,,,,,,,,,,,,,,,934.6160358070629,None,936.132482198067,None,937.5160199370002,None,foot,937.5160199370002,None,return,4.671595980995335,937.6003372890409,None,,,,,,,,,,,,,,,,,,,,,,,,,,,,,,,,,122,001,2023_Jul_25_1431,SpeechDraft1Carolyn_lessNoise_PlusLocalization,2021.2.3,59.99541596609873,
flash.wav,flash.mpg,flash,6,A,Pink_Noise_6_1.wav,Pink_Noise_6_2.wav,,,,,,,,,,,,,,,0,117,117,43,,,,,,,,,,,,,,,,,,,,,,,942.2994888150133,None,943.7990929890657,None,945.1827443800867,None,dash,945.1827443800867,None,return,1.8778209009906277,945.2660578190116,None,,,,,,,,,,,,,,,,,,,,,,,,,,,,,,,,,122,001,2023_Jul_25_1431,SpeechDraft1Carolyn_lessNoise_PlusLocalization,2021.2.3,59.99541596609873,
germ.wav,germ.mpg,germ,2,AV,Pink_Noise_2_1.wav,Pink_Noise_2_2.wav,,,,,,,,,,,,,,,0,118,118,67,,,,,,,,,,,,,,,,,,,,,,,947.1659956109943,None,948.6824112030445,None,950.049277118058,None,germs,950.049277118058,None,return,3.395131331984885,950.1327601390658,None,,,,,,,,,,,,,,,,,,,,,,,,,,,,,,,,,122,001,2023_Jul_25_1431,SpeechDraft1Carolyn_lessNoise_PlusLocalization,2021.2.3,59.99541596609873,
dish.wav,dish.mpg,dish,5,AV,Pink_Noise_5_1.wav,Pink_Noise_5_2.wav,,,,,,,,,,,,,,,0,119,119,64,,,,,,,,,,,,,,,,,,,,,,,953.5496282820823,None,955.0825643490534,None,956.4660281670513,None,dishh,956.4660281670513,None,return,12.242466298979707,956.5493897770066,None,,,,,,,,,,,,,,,,,,,,,,,,,,,,,,,,,122,001,2023_Jul_25_1431,SpeechDraft1Carolyn_lessNoise_PlusLocalization,2021.2.3,59.99541596609873,
,,,,,,,,,,,,,,,,,,,,,,,,,,,,,,,,,,,,,,,,,,,,,,,,,,,,,,,,,,,,,,,,,,space,19.02050202502869,968.8994776470354,None,,,,,,,,,,,,,,,,,,,,,,,122,001,2023_Jul_25_1431,SpeechDraft1Carolyn_lessNoise_PlusLocalization,2021.2.3,59.99541596609873,
,,,,,,,,midRight,13.0,3,ch1Sound_localizationTask.wav,13.0,"(1142, 878)","(182, -202)",190,-338,,,,,,,,,0,0,0,5,,,,,,,,,,,,,,,,,,,,,,,,,,,,,,,,,,,,,,,,,,968.8994776470354,None,987.965940069058,None,989.0671316230437,None,989.9992766440846,None,1.107936507936508,6.404016918968409,989.9992766440846,None,,,,,,,,,,,122,001,2023_Jul_25_1431,SpeechDraft1Carolyn_lessNoise_PlusLocalization,2021.2.3,59.99541596609873,
,,,,,,,,nearLeft,-6.5,1,ch1Sound_localizationTask.wav,-6.5,"(857, 878)","(-103,-202)",-95,-338,,,,,,,,,0,1,1,2,,,,,,,,,,,,,,,,,,,,,,,,,,,,,,,,,,,,,,,,,,,,996.4006090040784,None,997.5160439920146,None,998.4325804400723,None,1.2571428571428571,0.7997367059579119,998.4325804400723,None,,,,,,,,,,,122,001,2023_Jul_25_1431,SpeechDraft1Carolyn_lessNoise_PlusLocalization,2021.2.3,59.99541596609873,
,,,,,,,,midRight,13.0,3,ch1Sound_localizationTask.wav,13.0,"(1142, 878)","(182, -202)",190,-338,,,,,,,,,0,2,2,5,,,,,,,,,,,,,,,,,,,,,,,,,,,,,,,,,,,,,,,,,,,,999.2328006330645,None,1000.3325705929892,None,1001.2660367731005,None,1.5582010582010581,1.3991832649335265,1001.2660367731005,None,,,,,,,,,,,122,001,2023_Jul_25_1431,SpeechDraft1Carolyn_lessNoise_PlusLocalization,2021.2.3,59.99541596609873,
,,,,,,,,farLeft,-19.1,5,ch1Sound_localizationTask.wav,-19.1,"(667, 878)","(-293,-202)",-285,-338,,,,,,,,,0,3,3,0,,,,,,,,,,,,,,,,,,,,,,,,,,,,,,,,,,,,,,,,,,,,1002.6662098180968,None,1003.7659783450654,None,1004.699391456088,None,1.2412698412698413,0.949607421993278,1004.699391456088,None,,,,,,,,,,,122,001,2023_Jul_25_1431,SpeechDraft1Carolyn_lessNoise_PlusLocalization,2021.2.3,59.99541596609873,
,,,,,,,,nearRight,6.5,0,ch1Sound_localizationTask.wav,6.5,"(1047, 878)","(87, -202)",95,-338,,,,,,,,,0,4,4,4,,,,,,,,,,,,,,,,,,,,,,,,,,,,,,,,,,,,,,,,,,,,1005.6499856900191,None,1006.7491877410794,None,1007.6826690540183,None,1.4804232804232804,1.8156008690129966,1007.6826690540183,None,,,,,,,,,,,122,001,2023_Jul_25_1431,SpeechDraft1Carolyn_lessNoise_PlusLocalization,2021.2.3,59.99541596609873,
,,,,,,,,center,0.0,6,ch1Sound_localizationTask.wav,0.0,"(952, 878)","(-8,-202)",0,-338,,,,,,,,,0,5,5,3,,,,,,,,,,,,,,,,,,,,,,,,,,,,,,,,,,,,,,,,,,,,1009.4994509060634,None,1010.5991729300003,None,1011.532637402066,None,1,4.0333536569960415,1011.532637402066,None,,,,,,,,,,,122,001,2023_Jul_25_1431,SpeechDraft1Carolyn_lessNoise_PlusLocalization,2021.2.3,59.99541596609873,
,,,,,,,,nearLeft,-6.5,1,ch1Sound_localizationTask.wav,-6.5,"(857, 878)","(-103,-202)",-95,-338,,,,,,,,,0,6,6,2,,,,,,,,,,,,,,,,,,,,,,,,,,,,,,,,,,,,,,,,,,,,1015.5669585110154,None,1016.6658103750087,None,1017.599304237985,None,1.3470899470899471,2.516489556990564,1017.599304237985,None,,,,,,,,,,,122,001,2023_Jul_25_1431,SpeechDraft1Carolyn_lessNoise_PlusLocalization,2021.2.3,59.99541596609873,
,,,,,,,,farLeft,-19.1,5,ch1Sound_localizationTask.wav,-19.1,"(667, 878)","(-293,-202)",-285,-338,,,,,,,,,1,0,7,0,,,,,,,,,,,,,,,,,,,,,,,,,,,,,,,,,,,,,,,,,,,,1020.1166087100282,None,1021.2158821370685,None,1022.1494159630965,None,1.3116402116402117,0.833047301042825,1022.1494159630965,None,,,,,,,,,,,122,001,2023_Jul_25_1431,SpeechDraft1Carolyn_lessNoise_PlusLocalization,2021.2.3,59.99541596609873,
,,,,,,,,farRight,19.1,4,ch1Sound_localizationTask.wav,19.1,"(1237, 878)","(277,-202)",285,-338,,,,,,,,,1,1,8,6,,,,,,,,,,,,,,,,,,,,,,,,,,,,,,,,,,,,,,,,,,,,1022.9832512000576,None,1024.082514078007,None,1025.0158905010903,None,1.5746031746031746,0.9652296520071104,1025.0158905010903,None,,,,,,,,,,,122,001,2023_Jul_25_1431,SpeechDraft1Carolyn_lessNoise_PlusLocalization,2021.2.3,59.99541596609873,
,,,,,,,,farLeft,-19.1,5,ch1Sound_localizationTask.wav,-19.1,"(667, 878)","(-293,-202)",-285,-338,,,,,,,,,1,2,9,0,,,,,,,,,,,,,,,,,,,,,,,,,,,,,,,,,,,,,,,,,,,,1025.9828325260896,None,1027.0825601260876,None,1028.0159157240996,None,1.2576719576719577,0.9663494679844007,1028.0159157240996,None,,,,,,,,,,,122,001,2023_Jul_25_1431,SpeechDraft1Carolyn_lessNoise_PlusLocalization,2021.2.3,59.99541596609873,
,,,,,,,,center,0.0,6,ch1Sound_localizationTask.wav,0.0,"(952, 878)","(-8,-202)",0,-338,,,,,,,,,1,3,10,3,,,,,,,,,,,,,,,,,,,,,,,,,,,,,,,,,,,,,,,,,,,,1028.9828247900587,None,1030.0824776510708,None,1031.016008428065,None,1.2862433862433862,1.2170741381123662,1031.016008428065,None,,,,,,,,,,,122,001,2023_Jul_25_1431,SpeechDraft1Carolyn_lessNoise_PlusLocalization,2021.2.3,59.99541596609873,
,,,,,,,,midRight,13.0,3,ch1Sound_localizationTask.wav,13.0,"(1142, 878)","(182, -202)",190,-338,,,,,,,,,1,4,11,5,,,,,,,,,,,,,,,,,,,,,,,,,,,,,,,,,,,,,,,,,,,,1032.249635009095,None,1033.349200051045,None,1034.2827221850166,None,1.5465608465608467,1.166412659920752,1034.2827221850166,None,,,,,,,,,,,122,001,2023_Jul_25_1431,SpeechDraft1Carolyn_lessNoise_PlusLocalization,2021.2.3,59.99541596609873,
,,,,,,,,midLeft,-13.0,2,ch1Sound_localizationTask.wav,-13.0,"(762, 878)","(-198,-202)",-190,-338,,,,,,,,,1,5,12,1,,,,,,,,,,,,,,,,,,,,,,,,,,,,,,,,,,,,,,,,,,,,1035.4495439491002,None,1036.5492426700657,None,1037.4831804510904,None,1.317989417989418,0.7988188250456005,1037.4831804510904,None,,,,,,,,,,,122,001,2023_Jul_25_1431,SpeechDraft1Carolyn_lessNoise_PlusLocalization,2021.2.3,59.99541596609873,
,,,,,,,,nearRight,6.5,0,ch1Sound_localizationTask.wav,6.5,"(1047, 878)","(87, -202)",95,-338,,,,,,,,,1,6,13,4,,,,,,,,,,,,,,,,,,,,,,,,,,,,,,,,,,,,,,,,,,,,1038.283033961081,None,1039.3826615090948,None,1040.3159246310825,None,1.5349206349206348,1.19979642808903,1040.3159246310825,None,,,,,,,,,,,122,001,2023_Jul_25_1431,SpeechDraft1Carolyn_lessNoise_PlusLocalization,2021.2.3,59.99541596609873,
,,,,,,,,midRight,13.0,3,ch1Sound_localizationTask.wav,13.0,"(1142, 878)","(182, -202)",190,-338,,,,,,,,,2,0,14,5,,,,,,,,,,,,,,,,,,,,,,,,,,,,,,,,,,,,,,,,,,,,1041.5160760220606,None,1042.6159225130687,None,1043.549320602091,None,1.5433862433862435,0.9170525739900768,1043.549320602091,None,,,,,,,,,,,122,001,2023_Jul_25_1431,SpeechDraft1Carolyn_lessNoise_PlusLocalization,2021.2.3,59.99541596609873,
,,,,,,,,nearRight,6.5,0,ch1Sound_localizationTask.wav,6.5,"(1047, 878)","(87, -202)",95,-338,,,,,,,,,2,1,15,4,,,,,,,,,,,,,,,,,,,,,,,,,,,,,,,,,,,,,,,,,,,,1044.4664778329898,None,1045.5659334320808,None,1046.499333159998,None,1.4428571428571428,0.7996038140263408,1046.499333159998,None,,,,,,,,,,,122,001,2023_Jul_25_1431,SpeechDraft1Carolyn_lessNoise_PlusLocalization,2021.2.3,59.99541596609873,
,,,,,,,,farLeft,-19.1,5,ch1Sound_localizationTask.wav,-19.1,"(667, 878)","(-293,-202)",-285,-338,,,,,,,,,2,2,16,0,,,,,,,,,,,,,,,,,,,,,,,,,,,,,,,,,,,,,,,,,,,,1047.2995664100163,None,1048.3993358210428,None,1049.3329603290185,None,1.3042328042328042,1.0996250370517373,1049.3329603290185,None,,,,,,,,,,,122,001,2023_Jul_25_1431,SpeechDraft1Carolyn_lessNoise_PlusLocalization,2021.2.3,59.99541596609873,
,,,,,,,,midRight,13.0,3,ch1Sound_localizationTask.wav,13.0,"(1142, 878)","(182, -202)",190,-338,,,,,,,,,2,3,17,5,,,,,,,,,,,,,,,,,,,,,,,,,,,,,,,,,,,,,,,,,,,,1050.4335028850473,None,1051.5326936310157,None,1052.466117541073,None,1.5375661375661376,1.4328081930289045,1052.466117541073,None,,,,,,,,,,,122,001,2023_Jul_25_1431,SpeechDraft1Carolyn_lessNoise_PlusLocalization,2021.2.3,59.99541596609873,
,,,,,,,,nearRight,6.5,0,ch1Sound_localizationTask.wav,6.5,"(1047, 878)","(87, -202)",95,-338,,,,,,,,,2,4,18,4,,,,,,,,,,,,,,,,,,,,,,,,,,,,,,,,,,,,,,,,,,,,1053.8996210960904,None,1054.9993391440948,None,1055.932789855986,None,1.4978835978835978,1.0656258889939636,1055.932789855986,None,,,,,,,,,,,122,001,2023_Jul_25_1431,SpeechDraft1Carolyn_lessNoise_PlusLocalization,2021.2.3,59.99541596609873,
,,,,,,,,center,0.0,6,ch1Sound_localizationTask.wav,0.0,"(952, 878)","(-8,-202)",0,-338,,,,,,,,,2,5,19,3,,,,,,,,,,,,,,,,,,,,,,,,,,,,,,,,,,,,,,,,,,,,1056.9995121080428,None,1058.0992772930767,None,1059.0327236580197,None,1.4936507936507937,1.7166545719373971,1059.0327236580197,None,,,,,,,,,,,122,001,2023_Jul_25_1431,SpeechDraft1Carolyn_lessNoise_PlusLocalization,2021.2.3,59.99541596609873,
,,,,,,,,midLeft,-13.0,2,ch1Sound_localizationTask.wav,-13.0,"(762, 878)","(-198,-202)",-190,-338,,,,,,,,,2,6,20,1,,,,,,,,,,,,,,,,,,,,,,,,,,,,,,,,,,,,,,,,,,,,1060.7495028380072,None,1061.849203849095,None,1062.7826018700143,None,1.2941798941798943,1.000179109047167,1062.7826018700143,None,,,,,,,,,,,122,001,2023_Jul_25_1431,SpeechDraft1Carolyn_lessNoise_PlusLocalization,2021.2.3,59.99541596609873,
,,,,,,,,farLeft,-19.1,5,ch1Sound_localizationTask.wav,-19.1,"(667, 878)","(-293,-202)",-285,-338,,,,,,,,,3,0,21,0,,,,,,,,,,,,,,,,,,,,,,,,,,,,,,,,,,,,,,,,,,,,1063.7832722880412,None,1064.8827462900663,None,1065.8159503720235,None,1.2365079365079366,0.8162257760995999,1065.8159503720235,None,,,,,,,,,,,122,001,2023_Jul_25_1431,SpeechDraft1Carolyn_lessNoise_PlusLocalization,2021.2.3,59.99541596609873,
,,,,,,,,midLeft,-13.0,2,ch1Sound_localizationTask.wav,-13.0,"(762, 878)","(-198,-202)",-190,-338,,,,,,,,,3,1,22,1,,,,,,,,,,,,,,,,,,,,,,,,,,,,,,,,,,,,,,,,,,,,1066.6330352739897,None,1067.7326512150466,None,1068.6660404920112,None,1.2746031746031745,0.6984648640500382,1068.6660404920112,None,,,,,,,,,,,122,001,2023_Jul_25_1431,SpeechDraft1Carolyn_lessNoise_PlusLocalization,2021.2.3,59.99541596609873,
,,,,,,,,farLeft,-19.1,5,ch1Sound_localizationTask.wav,-19.1,"(667, 878)","(-293,-202)",-285,-338,,,,,,,,,3,2,23,0,,,,,,,,,,,,,,,,,,,,,,,,,,,,,,,,,,,,,,,,,,,,1069.3662308120402,None,1070.4660433920799,None,1071.3993556380738,None,1.2333333333333334,0.5990782959852368,1071.3993556380738,None,,,,,,,,,,,122,001,2023_Jul_25_1431,SpeechDraft1Carolyn_lessNoise_PlusLocalization,2021.2.3,59.99541596609873,
,,,,,,,,farRight,19.1,4,ch1Sound_localizationTask.wav,19.1,"(1237, 878)","(277,-202)",285,-338,,,,,,,,,3,3,24,6,,,,,,,,,,,,,,,,,,,,,,,,,,,,,,,,,,,,,,,,,,,,1071.9994769730838,None,1073.099391616066,None,1074.032766327029,None,1.6396825396825396,1.0506014860002324,1074.032766327029,None,,,,,,,,,,,122,001,2023_Jul_25_1431,SpeechDraft1Carolyn_lessNoise_PlusLocalization,2021.2.3,59.99541596609873,
,,,,,,,,nearRight,6.5,0,ch1Sound_localizationTask.wav,6.5,"(1047, 878)","(87, -202)",95,-338,,,,,,,,,3,4,25,4,,,,,,,,,,,,,,,,,,,,,,,,,,,,,,,,,,,,,,,,,,,,1075.0997296700953,None,1076.1994196960004,None,1077.1326523730531,None,1.4037037037037037,0.8821877120062709,1077.1326523730531,None,,,,,,,,,,,122,001,2023_Jul_25_1431,SpeechDraft1Carolyn_lessNoise_PlusLocalization,2021.2.3,59.99541596609873,
,,,,,,,,nearLeft,-6.5,1,ch1Sound_localizationTask.wav,-6.5,"(857, 878)","(-103,-202)",-95,-338,,,,,,,,,3,5,26,2,,,,,,,,,,,,,,,,,,,,,,,,,,,,,,,,,,,,,,,,,,,,1078.0162820460973,None,1079.116138142068,None,1080.0493362130364,None,1.3148148148148149,0.5167359649203718,1080.0493362130364,None,,,,,,,,,,,122,001,2023_Jul_25_1431,SpeechDraft1Carolyn_lessNoise_PlusLocalization,2021.2.3,59.99541596609873,
,,,,,,,,farRight,19.1,4,ch1Sound_localizationTask.wav,19.1,"(1237, 878)","(277,-202)",285,-338,,,,,,,,,3,6,27,6,,,,,,,,,,,,,,,,,,,,,,,,,,,,,,,,,,,,,,,,,,,,1080.5664713580627,None,1081.6660063799936,None,1082.599317161017,None,1.6216931216931219,0.6155952650588006,1082.599317161017,None,,,,,,,,,,,122,001,2023_Jul_25_1431,SpeechDraft1Carolyn_lessNoise_PlusLocalization,2021.2.3,59.99541596609873,
,,,,,,,,nearLeft,-6.5,1,ch1Sound_localizationTask.wav,-6.5,"(857, 878)","(-103,-202)",-95,-338,,,,,,,,,4,0,28,2,,,,,,,,,,,,,,,,,,,,,,,,,,,,,,,,,,,,,,,,,,,,1083.2162286069943,None,1084.31604441104,None,1085.249519966077,None,1.4291005291005292,0.7162037470843643,1085.249519966077,None,,,,,,,,,,,122,001,2023_Jul_25_1431,SpeechDraft1Carolyn_lessNoise_PlusLocalization,2021.2.3,59.99541596609873,
,,,,,,,,nearLeft,-6.5,1,ch1Sound_localizationTask.wav,-6.5,"(857, 878)","(-103,-202)",-95,-338,,,,,,,,,4,1,29,2,,,,,,,,,,,,,,,,,,,,,,,,,,,,,,,,,,,,,,,,,,,,1085.9662945900345,None,1087.0660463470267,None,1087.9993805210106,None,1.3825396825396825,0.7323981591034681,1087.9993805210106,None,,,,,,,,,,,122,001,2023_Jul_25_1431,SpeechDraft1Carolyn_lessNoise_PlusLocalization,2021.2.3,59.99541596609873,
,,,,,,,,center,0.0,6,ch1Sound_localizationTask.wav,0.0,"(952, 878)","(-8,-202)",0,-338,,,,,,,,,4,2,30,3,,,,,,,,,,,,,,,,,,,,,,,,,,,,,,,,,,,,,,,,,,,,1088.733051570016,None,1089.8327664480312,None,1090.766046385048,None,1.3857142857142857,0.799969669082202,1090.766046385048,None,,,,,,,,,,,122,001,2023_Jul_25_1431,SpeechDraft1Carolyn_lessNoise_PlusLocalization,2021.2.3,59.99541596609873,
,,,,,,,,midLeft,-13.0,2,ch1Sound_localizationTask.wav,-13.0,"(762, 878)","(-198,-202)",-190,-338,,,,,,,,,4,3,31,1,,,,,,,,,,,,,,,,,,,,,,,,,,,,,,,,,,,,,,,,,,,,1091.566253468045,None,1092.6659827739932,None,1093.5994780670153,None,1.2835978835978836,0.632886802079156,1093.5994780670153,None,,,,,,,,,,,122,001,2023_Jul_25_1431,SpeechDraft1Carolyn_lessNoise_PlusLocalization,2021.2.3,59.99541596609873,
,,,,,,,,midRight,13.0,3,ch1Sound_localizationTask.wav,13.0,"(1142, 878)","(182, -202)",190,-338,,,,,,,,,4,4,32,5,,,,,,,,,,,,,,,,,,,,,,,,,,,,,,,,,,,,,,,,,,,,1094.2329186000861,None,1095.3326856089989,None,1096.2660306990147,None,1.564021164021164,1.3825933589832857,1096.2660306990147,None,,,,,,,,,,,122,001,2023_Jul_25_1431,SpeechDraft1Carolyn_lessNoise_PlusLocalization,2021.2.3,59.99541596609873,
,,,,,,,,nearLeft,-6.5,1,ch1Sound_localizationTask.wav,-6.5,"(857, 878)","(-103,-202)",-95,-338,,,,,,,,,4,5,33,2,,,,,,,,,,,,,,,,,,,,,,,,,,,,,,,,,,,,,,,,,,,,1097.649593815091,None,1098.7493794300826,None,1099.6827761620516,None,1.4158730158730157,0.8827076939633116,1099.6827761620516,None,,,,,,,,,,,122,001,2023_Jul_25_1431,SpeechDraft1Carolyn_lessNoise_PlusLocalization,2021.2.3,59.99541596609873,
,,,,,,,,farLeft,-19.1,5,ch1Sound_localizationTask.wav,-19.1,"(667, 878)","(-293,-202)",-285,-338,,,,,,,,,4,6,34,0,,,,,,,,,,,,,,,,,,,,,,,,,,,,,,,,,,,,,,,,,,,,1100.566315802047,None,1101.6659945650026,None,1102.599395106081,None,1.2550264550264552,0.6830296519910917,1102.599395106081,None,,,,,,,,,,,122,001,2023_Jul_25_1431,SpeechDraft1Carolyn_lessNoise_PlusLocalization,2021.2.3,59.99541596609873,
,,,,,,,,midLeft,-13.0,2,ch1Sound_localizationTask.wav,-13.0,"(762, 878)","(-198,-202)",-190,-338,,,,,,,,,5,0,35,1,,,,,,,,,,,,,,,,,,,,,,,,,,,,,,,,,,,,,,,,,,,,1103.2833227550145,None,1104.3826541639864,None,1105.3162668040022,None,1.276190476190476,0.53338692500256,1105.3162668040022,None,,,,,,,,,,,122,001,2023_Jul_25_1431,SpeechDraft1Carolyn_lessNoise_PlusLocalization,2021.2.3,59.99541596609873,
,,,,,,,,midRight,13.0,3,ch1Sound_localizationTask.wav,13.0,"(1142, 878)","(182, -202)",190,-338,,,,,,,,,5,1,36,5,,,,,,,,,,,,,,,,,,,,,,,,,,,,,,,,,,,,,,,,,,,,1105.8501095420215,None,1106.9493737859884,None,1107.8826963840984,None,1.4407407407407407,0.6487459719646722,1107.8826963840984,None,,,,,,,,,,,122,001,2023_Jul_25_1431,SpeechDraft1Carolyn_lessNoise_PlusLocalization,2021.2.3,59.99541596609873,
,,,,,,,,nearLeft,-6.5,1,ch1Sound_localizationTask.wav,-6.5,"(857, 878)","(-103,-202)",-95,-338,,,,,,,,,5,2,37,2,,,,,,,,,,,,,,,,,,,,,,,,,,,,,,,,,,,,,,,,,,,,1108.532914809999,None,1109.6326540170703,None,1110.566116486094,None,1.331216931216931,0.34875921707134694,1110.566116486094,None,,,,,,,,,,,122,001,2023_Jul_25_1431,SpeechDraft1Carolyn_lessNoise_PlusLocalization,2021.2.3,59.99541596609873,
,,,,,,,,farRight,19.1,4,ch1Sound_localizationTask.wav,19.1,"(1237, 878)","(277,-202)",285,-338,,,,,,,,,5,3,38,6,,,,,,,,,,,,,,,,,,,,,,,,,,,,,,,,,,,,,,,,,,,,1110.916295076022,None,1112.0160894480068,None,1112.9492843110347,None,1.6206349206349207,1.0506228250451386,1112.9492843110347,None,,,,,,,,,,,122,001,2023_Jul_25_1431,SpeechDraft1Carolyn_lessNoise_PlusLocalization,2021.2.3,59.99541596609873,
,,,,,,,,farRight,19.1,4,ch1Sound_localizationTask.wav,19.1,"(1237, 878)","(277,-202)",285,-338,,,,,,,,,5,4,39,6,,,,,,,,,,,,,,,,,,,,,,,,,,,,,,,,,,,,,,,,,,,,1114.000027902075,None,1115.0993872300023,None,1116.032783420058,None,1.6174603174603175,0.5159081310266629,1116.032783420058,None,,,,,,,,,,,122,001,2023_Jul_25_1431,SpeechDraft1Carolyn_lessNoise_PlusLocalization,2021.2.3,59.99541596609873,
,,,,,,,,farRight,19.1,4,ch1Sound_localizationTask.wav,19.1,"(1237, 878)","(277,-202)",285,-338,,,,,,,,,5,5,40,6,,,,,,,,,,,,,,,,,,,,,,,,,,,,,,,,,,,,,,,,,,,,1116.5496082820464,None,1117.6492800370324,None,1118.5827803100692,None,1.5947089947089947,0.4834885869640857,1118.5827803100692,None,,,,,,,,,,,122,001,2023_Jul_25_1431,SpeechDraft1Carolyn_lessNoise_PlusLocalization,2021.2.3,59.99541596609873,
,,,,,,,,nearLeft,-6.5,1,ch1Sound_localizationTask.wav,-6.5,"(857, 878)","(-103,-202)",-95,-338,,,,,,,,,5,6,41,2,,,,,,,,,,,,,,,,,,,,,,,,,,,,,,,,,,,,,,,,,,,,1119.0663141140249,None,1120.1659949580207,None,1121.0993850100785,None,1.402116402116402,0.51632957207039,1121.0993850100785,None,,,,,,,,,,,122,001,2023_Jul_25_1431,SpeechDraft1Carolyn_lessNoise_PlusLocalization,2021.2.3,59.99541596609873,
,,,,,,,,center,0.0,6,ch1Sound_localizationTask.wav,0.0,"(952, 878)","(-8,-202)",0,-338,,,,,,,,,6,0,42,3,,,,,,,,,,,,,,,,,,,,,,,,,,,,,,,,,,,,,,,,,,,,1121.6164983280469,None,1122.716000888031,None,1123.6494085619925,None,1.4068783068783068,1.4496415009489283,1123.6494085619925,None,,,,,,,,,,,122,001,2023_Jul_25_1431,SpeechDraft1Carolyn_lessNoise_PlusLocalization,2021.2.3,59.99541596609873,
,,,,,,,,farRight,19.1,4,ch1Sound_localizationTask.wav,19.1,"(1237, 878)","(277,-202)",285,-338,,,,,,,,,6,1,43,6,,,,,,,,,,,,,,,,,,,,,,,,,,,,,,,,,,,,,,,,,,,,1125.0997664741008,None,1126.1994289429858,None,1127.1328093759948,None,1.5873015873015874,0.881869537057355,1127.1328093759948,None,,,,,,,,,,,122,001,2023_Jul_25_1431,SpeechDraft1Carolyn_lessNoise_PlusLocalization,2021.2.3,59.99541596609873,
,,,,,,,,midLeft,-13.0,2,ch1Sound_localizationTask.wav,-13.0,"(762, 878)","(-198,-202)",-190,-338,,,,,,,,,6,2,44,1,,,,,,,,,,,,,,,,,,,,,,,,,,,,,,,,,,,,,,,,,,,,1128.016349496087,None,1129.1162212900817,None,1130.0496362210251,None,1.4148148148148147,0.6323185090441257,1130.0496362210251,None,,,,,,,,,,,122,001,2023_Jul_25_1431,SpeechDraft1Carolyn_lessNoise_PlusLocalization,2021.2.3,59.99541596609873,
,,,,,,,,center,0.0,6,ch1Sound_localizationTask.wav,0.0,"(952, 878)","(-8,-202)",0,-338,,,,,,,,,6,3,45,3,,,,,,,,,,,,,,,,,,,,,,,,,,,,,,,,,,,,,,,,,,,,1130.6830405200599,None,1131.7826862049988,None,1132.7160917150322,None,1.9968253968253968,2.399870453053154,1132.7160917150322,None,,,,,,,,,,,122,001,2023_Jul_25_1431,SpeechDraft1Carolyn_lessNoise_PlusLocalization,2021.2.3,59.99541596609873,
,,,,,,,,farRight,19.1,4,ch1Sound_localizationTask.wav,19.1,"(1237, 878)","(277,-202)",285,-338,,,,,,,,,6,4,46,6,,,,,,,,,,,,,,,,,,,,,,,,,,,,,,,,,,,,,,,,,,,,1135.1164598719915,None,1136.2162093000952,None,1137.1493617011001,None,1.7031746031746031,0.9168032240122557,1137.1493617011001,None,,,,,,,,,,,122,001,2023_Jul_25_1431,SpeechDraft1Carolyn_lessNoise_PlusLocalization,2021.2.3,59.99541596609873,
,,,,,,,,nearRight,6.5,0,ch1Sound_localizationTask.wav,6.5,"(1047, 878)","(87, -202)",95,-338,,,,,,,,,6,5,47,4,,,,,,,,,,,,,,,,,,,,,,,,,,,,,,,,,,,,,,,,,,,,1138.0669788350351,None,1139.1662127150921,None,1140.0994575350778,None,1.4925925925925925,0.8325797270517796,1140.0994575350778,None,,,,,,,,,,,122,001,2023_Jul_25_1431,SpeechDraft1Carolyn_lessNoise_PlusLocalization,2021.2.3,59.99541596609873,
,,,,,,,,midRight,13.0,3,ch1Sound_localizationTask.wav,13.0,"(1142, 878)","(182, -202)",190,-338,,,,,,,,,6,6,48,5,,,,,,,,,,,,,,,,,,,,,,,,,,,,,,,,,,,,,,,,,,,,1140.9330312780803,None,1142.0328574150335,None,1142.9662863600533,None,1.5026455026455028,0.5815046320203692,1142.9662863600533,None,,,,,,,,,,,122,001,2023_Jul_25_1431,SpeechDraft1Carolyn_lessNoise_PlusLocalization,2021.2.3,59.99541596609873,
,,,,,,,,midLeft,-13.0,2,ch1Sound_localizationTask.wav,-13.0,"(762, 878)","(-198,-202)",-190,-338,,,,,,,,,7,0,49,1,,,,,,,,,,,,,,,,,,,,,,,,,,,,,,,,,,,,,,,,,,,,1143.549583391985,None,1144.6493467930704,None,1145.5828131880844,None,1.3417989417989418,0.9503041539574042,1145.5828131880844,None,,,,,,,,,,,122,001,2023_Jul_25_1431,SpeechDraft1Carolyn_lessNoise_PlusLocalization,2021.2.3,59.99541596609873,
,,,,,,,,center,0.0,6,ch1Sound_localizationTask.wav,0.0,"(952, 878)","(-8,-202)",0,-338,,,,,,,,,7,1,50,3,,,,,,,,,,,,,,,,,,,,,,,,,,,,,,,,,,,,,,,,,,,,1146.5337563100038,None,1147.6328742170008,None,1148.566270103096,None,1.3417989417989418,0.7830181469907984,1148.566270103096,None,,,,,,,,,,,122,001,2023_Jul_25_1431,SpeechDraft1Carolyn_lessNoise_PlusLocalization,2021.2.3,59.99541596609873,
,,,,,,,,midLeft,-13.0,2,ch1Sound_localizationTask.wav,-13.0,"(762, 878)","(-198,-202)",-190,-338,,,,,,,,,7,2,51,1,,,,,,,,,,,,,,,,,,,,,,,,,,,,,,,,,,,,,,,,,,,,1149.3496778800618,None,1150.449704555096,None,1151.3828084720299,None,1.2603174603174603,0.5161208920180798,1151.3828084720299,None,,,,,,,,,,,122,001,2023_Jul_25_1431,SpeechDraft1Carolyn_lessNoise_PlusLocalization,2021.2.3,59.99541596609873,
,,,,,,,,nearRight,6.5,0,ch1Sound_localizationTask.wav,6.5,"(1047, 878)","(87, -202)",95,-338,,,,,,,,,7,3,52,4,,,,,,,,,,,,,,,,,,,,,,,,,,,,,,,,,,,,,,,,,,,,1151.8996637529926,None,1152.9994568730472,None,1153.9327674390515,None,1.4518518518518517,0.8317053930368274,1153.9327674390515,None,,,,,,,,,,,122,001,2023_Jul_25_1431,SpeechDraft1Carolyn_lessNoise_PlusLocalization,2021.2.3,59.99541596609873,
,,,,,,,,nearRight,6.5,0,ch1Sound_localizationTask.wav,6.5,"(1047, 878)","(87, -202)",95,-338,,,,,,,,,7,4,53,4,,,,,,,,,,,,,,,,,,,,,,,,,,,,,,,,,,,,,,,,,,,,1154.7662621940253,None,1155.8661365020089,None,1156.7995588980848,None,1.42010582010582,0.3667938909493387,1156.7995588980848,None,,,,,,,,,,,122,001,2023_Jul_25_1431,SpeechDraft1Carolyn_lessNoise_PlusLocalization,2021.2.3,59.99541596609873,
,,,,,,,,farLeft,-19.1,5,ch1Sound_localizationTask.wav,-19.1,"(667, 878)","(-293,-202)",-285,-338,,,,,,,,,7,5,54,0,,,,,,,,,,,,,,,,,,,,,,,,,,,,,,,,,,,,,,,,,,,,1157.1663354720222,None,1158.2661000650842,None,1159.1995065159863,None,1.2947089947089947,0.9337432869942859,1159.1995065159863,None,,,,,,,,,,,122,001,2023_Jul_25_1431,SpeechDraft1Carolyn_lessNoise_PlusLocalization,2021.2.3,59.99541596609873,
,,,,,,,,center,0.0,6,ch1Sound_localizationTask.wav,0.0,"(952, 878)","(-8,-202)",0,-338,,,,,,,,,7,6,55,3,,,,,,,,,,,,,,,,,,,,,,,,,,,,,,,,,,,,,,,,,,,,1160.149640024989,None,1161.2494963180507,None,1162.182745447033,None,1.2968253968253969,0.8838084740564227,1162.182745447033,None,,,,,,,,,,,122,001,2023_Jul_25_1431,SpeechDraft1Carolyn_lessNoise_PlusLocalization,2021.2.3,59.99541596609873,
,,,,,,,,,,,,,,,,,,,,,,,,,,,,,,,,,,,,,,,,,,,,,,,,,,,,,,,,,,,,,,,,,,,,,,,,,,,,,,,,,,space,17.658206307096407,1163.1496643550927,None,,,,,,,122,001,2023_Jul_25_1431,SpeechDraft1Carolyn_lessNoise_PlusLocalization,2021.2.3,59.99541596609873,
,,,,,,,,midLeft,-13.0,2,ch1Sound_localizationTask.wav,-13.0,"(762, 878)","(-198,-202)",-190,-338,,,,,,,,,,,,,0,0,0,1,,,,,,,,,,,,,,,,,,,,,,,,,,,,,,,,,,,,,,,,1180.8495321900118,None,,,1183.8827991740545,None,1.4,0.8858443730277941,1183.8827991740545,None,,,,,1163.1496643550927,None,1181.8497392639983,None,1182.0332055530744,1182.0498284000205,122,001,2023_Jul_25_1431,SpeechDraft1Carolyn_lessNoise_PlusLocalization,2021.2.3,59.99541596609873,
,,,,,,,,nearRight,6.5,0,ch1Sound_localizationTask.wav,6.5,"(1047, 878)","(87, -202)",95,-338,,,,,,,,,,,,,0,1,1,4,,,,,,,,,,,,,,,,,,,,,,,,,,,,,,,,,,,,,,,,1184.7664123110007,None,,,1187.782810614095,None,1.574074074074074,1.3158072700025514,1187.782810614095,None,,,,,,,1185.7663742990699,None,1185.9497319100192,1185.9663817920955,122,001,2023_Jul_25_1431,SpeechDraft1Carolyn_lessNoise_PlusLocalization,2021.2.3,59.99541596609873,
,,,,,,,,midLeft,-13.0,2,ch1Sound_localizationTask.wav,-13.0,"(762, 878)","(-198,-202)",-190,-338,,,,,,,,,,,,,0,2,2,1,,,,,,,,,,,,,,,,,,,,,,,,,,,,,,,,,,,,,,,,1189.0996771040373,None,,,1192.1163351440337,None,1.3904761904761904,0.9669368050526828,1192.1163351440337,None,,,,,,,1190.0997782320483,None,1190.2830673720455,1190.3002111900132,122,001,2023_Jul_25_1431,SpeechDraft1Carolyn_lessNoise_PlusLocalization,2021.2.3,59.99541596609873,
,,,,,,,,center,0.0,6,ch1Sound_localizationTask.wav,0.0,"(952, 878)","(-8,-202)",0,-338,,,,,,,,,,,,,0,3,3,3,,,,,,,,,,,,,,,,,,,,,,,,,,,,,,,,,,,,,,,,1193.099819064024,None,,,1196.1162479040213,None,1.5,0.5828144890256226,1196.1162479040213,None,,,,,,,1194.0997918620706,None,1194.2830512190703,1194.2997305260506,122,001,2023_Jul_25_1431,SpeechDraft1Carolyn_lessNoise_PlusLocalization,2021.2.3,59.99541596609873,
,,,,,,,,midRight,13.0,3,ch1Sound_localizationTask.wav,13.0,"(1142, 878)","(182, -202)",190,-338,,,,,,,,,,,,,0,4,4,5,,,,,,,,,,,,,,,,,,,,,,,,,,,,,,,,,,,,,,,,1196.699801589013,None,,,1199.71612730599,None,1.6333333333333333,0.8480957860592753,1199.71612730599,None,,,,,,,1197.6997292460874,None,1197.8833859170554,1197.900010086014,122,001,2023_Jul_25_1431,SpeechDraft1Carolyn_lessNoise_PlusLocalization,2021.2.3,59.99541596609873,
,,,,,,,,midLeft,-13.0,2,ch1Sound_localizationTask.wav,-13.0,"(762, 878)","(-198,-202)",-190,-338,,,,,,,,,,,,,0,5,5,1,,,,,,,,,,,,,,,,,,,,,,,,,,,,,,,,,,,,,,,,1200.5665652590105,None,,,1203.5828677710379,None,1.4116402116402116,1.3993755659321323,1203.5828677710379,None,,,,,,,1201.5663044480607,None,1201.7497184470994,1201.7663975340547,122,001,2023_Jul_25_1431,SpeechDraft1Carolyn_lessNoise_PlusLocalization,2021.2.3,59.99541596609873,
,,,,,,,,nearLeft,-6.5,1,ch1Sound_localizationTask.wav,-6.5,"(857, 878)","(-103,-202)",-95,-338,,,,,,,,,,,,,0,6,6,2,,,,,,,,,,,,,,,,,,,,,,,,,,,,,,,,,,,,,,,,1204.9836280830204,None,,,1207.9995893710293,None,1.457142857142857,0.7323595590423793,1207.9995893710293,None,,,,,,,1205.9833420020295,None,1206.166450218996,1206.1830899839988,122,001,2023_Jul_25_1431,SpeechDraft1Carolyn_lessNoise_PlusLocalization,2021.2.3,59.99541596609873,
,,,,,,,,nearRight,6.5,0,ch1Sound_localizationTask.wav,6.5,"(1047, 878)","(87, -202)",95,-338,,,,,,,,,,,,,1,0,7,4,,,,,,,,,,,,,,,,,,,,,,,,,,,,,,,,,,,,,,,,1208.7330330560217,None,,,1211.7497534219874,None,1.5724867724867724,0.4661520810332149,1211.7497534219874,None,,,,,,,1209.7330521820113,None,1209.916421703063,1209.9330466050887,122,001,2023_Jul_25_1431,SpeechDraft1Carolyn_lessNoise_PlusLocalization,2021.2.3,59.99541596609873,
,,,,,,,,nearRight,6.5,0,ch1Sound_localizationTask.wav,6.5,"(1047, 878)","(87, -202)",95,-338,,,,,,,,,,,,,1,1,8,4,,,,,,,,,,,,,,,,,,,,,,,,,,,,,,,,,,,,,,,,1212.216457614093,None,,,1215.2328082160093,None,1.5603174603174603,0.4825557920848951,1215.2328082160093,None,,,,,,,1213.2164797669975,None,1213.399793536053,1213.4164762530709,122,001,2023_Jul_25_1431,SpeechDraft1Carolyn_lessNoise_PlusLocalization,2021.2.3,59.99541596609873,
,,,,,,,,farLeft,-19.1,5,ch1Sound_localizationTask.wav,-19.1,"(667, 878)","(-293,-202)",-285,-338,,,,,,,,,,,,,1,2,9,0,,,,,,,,,,,,,,,,,,,,,,,,,,,,,,,,,,,,,,,,1215.7165259330068,None,,,1218.732874413021,None,1.284126984126984,0.8832909080665559,1218.732874413021,None,,,,,,,1216.7164450869896,None,1216.8997919620015,1216.9164442060282,122,001,2023_Jul_25_1431,SpeechDraft1Carolyn_lessNoise_PlusLocalization,2021.2.3,59.99541596609873,
,,,,,,,,farRight,19.1,4,ch1Sound_localizationTask.wav,19.1,"(1237, 878)","(277,-202)",285,-338,,,,,,,,,,,,,1,3,10,6,,,,,,,,,,,,,,,,,,,,,,,,,,,,,,,,,,,,,,,,1219.6332899810513,None,,,1222.6495168200927,None,1.6275132275132276,1.6664245859719813,1222.6495168200927,None,,,,,,,1220.6331833710428,None,1220.8167406610446,1220.8333665140672,122,001,2023_Jul_25_1431,SpeechDraft1Carolyn_lessNoise_PlusLocalization,2021.2.3,59.99541596609873,
,,,,,,,,nearLeft,-6.5,1,ch1Sound_localizationTask.wav,-6.5,"(857, 878)","(-103,-202)",-95,-338,,,,,,,,,,,,,1,4,11,2,,,,,,,,,,,,,,,,,,,,,,,,,,,,,,,,,,,,,,,,1224.3167095680255,None,,,1227.3328980350634,None,1.4333333333333333,1.0168245930690318,1227.3328980350634,None,,,,,,,1225.3166362420889,None,1225.4998190370388,1225.5164376380853,122,001,2023_Jul_25_1431,SpeechDraft1Carolyn_lessNoise_PlusLocalization,2021.2.3,59.99541596609873,
,,,,,,,,farLeft,-19.1,5,ch1Sound_localizationTask.wav,-19.1,"(667, 878)","(-293,-202)",-285,-338,,,,,,,,,,,,,1,5,12,0,,,,,,,,,,,,,,,,,,,,,,,,,,,,,,,,,,,,,,,,1228.3503513790201,None,,,1231.3662937770132,None,1.334920634920635,1.082972554024309,1231.3662937770132,None,,,,,,,1229.349766845,None,1229.533119047992,1229.549819593085,122,001,2023_Jul_25_1431,SpeechDraft1Carolyn_lessNoise_PlusLocalization,2021.2.3,59.99541596609873,
,,,,,,,,farRight,19.1,4,ch1Sound_localizationTask.wav,19.1,"(1237, 878)","(277,-202)",285,-338,,,,,,,,,,,,,1,6,13,6,,,,,,,,,,,,,,,,,,,,,,,,,,,,,,,,,,,,,,,,1232.4497578589944,None,,,1235.4662184020272,None,1.6857142857142857,1.3824874630663544,1235.4662184020272,None,,,,,,,1233.4500006360468,None,1233.6331654189853,1233.6498546199873,122,001,2023_Jul_25_1431,SpeechDraft1Carolyn_lessNoise_PlusLocalization,2021.2.3,59.99541596609873,
,,,,,,,,midRight,13.0,3,ch1Sound_localizationTask.wav,13.0,"(1142, 878)","(182, -202)",190,-338,,,,,,,,,,,,,2,0,14,5,,,,,,,,,,,,,,,,,,,,,,,,,,,,,,,,,,,,,,,,1236.849956533988,None,,,1239.86626527505,None,1.580952380952381,1.3496321709826589,1239.86626527505,None,,,,,,,1237.8497611250496,None,1238.0334659930086,1238.0498043770203,122,001,2023_Jul_25_1431,SpeechDraft1Carolyn_lessNoise_PlusLocalization,2021.2.3,59.99541596609873,
,,,,,,,,midLeft,-13.0,2,ch1Sound_localizationTask.wav,-13.0,"(762, 878)","(-198,-202)",-190,-338,,,,,,,,,,,,,2,1,15,1,,,,,,,,,,,,,,,,,,,,,,,,,,,,,,,,,,,,,,,,1241.2164943210082,None,,,1244.2329138340428,None,1.3931216931216932,1.232503482955508,1244.2329138340428,None,,,,,,,1242.216500670067,None,1242.3998504680349,1242.416673000087,122,001,2023_Jul_25_1431,SpeechDraft1Carolyn_lessNoise_PlusLocalization,2021.2.3,59.99541596609873,
,,,,,,,,midRight,13.0,3,ch1Sound_localizationTask.wav,13.0,"(1142, 878)","(182, -202)",190,-338,,,,,,,,,,,,,2,2,16,5,,,,,,,,,,,,,,,,,,,,,,,,,,,,,,,,,,,,,,,,1245.4664965380216,None,,,1248.4829057340976,None,1.6322751322751323,1.2498387219384313,1248.4829057340976,None,,,,,,,1246.466542283073,None,1246.6497253320413,1246.6665523980046,122,001,2023_Jul_25_1431,SpeechDraft1Carolyn_lessNoise_PlusLocalization,2021.2.3,59.99541596609873,
,,,,,,,,midRight,13.0,3,ch1Sound_localizationTask.wav,13.0,"(1142, 878)","(182, -202)",190,-338,,,,,,,,,,,,,2,3,17,5,,,,,,,,,,,,,,,,,,,,,,,,,,,,,,,,,,,,,,,,1249.7336420750944,None,,,1252.7494869430084,None,1.588888888888889,0.7324372170260176,1252.7494869430084,None,,,,,,,1250.7331121410243,None,1250.916509899078,1250.9331153680105,122,001,2023_Jul_25_1431,SpeechDraft1Carolyn_lessNoise_PlusLocalization,2021.2.3,59.99541596609873,
,,,,,,,,nearLeft,-6.5,1,ch1Sound_localizationTask.wav,-6.5,"(857, 878)","(-103,-202)",-95,-338,,,,,,,,,,,,,2,4,18,2,,,,,,,,,,,,,,,,,,,,,,,,,,,,,,,,,,,,,,,,1253.4831721300725,None,,,1256.4996181050083,None,1.4354497354497355,0.8660518929827958,1256.4996181050083,None,,,,,,,1254.4831247980474,None,1254.6665111100301,1254.6831373540917,122,001,2023_Jul_25_1431,SpeechDraft1Carolyn_lessNoise_PlusLocalization,2021.2.3,59.99541596609873,
,,,,,,,,midRight,13.0,3,ch1Sound_localizationTask.wav,13.0,"(1142, 878)","(182, -202)",190,-338,,,,,,,,,,,,,2,5,19,5,,,,,,,,,,,,,,,,,,,,,,,,,,,,,,,,,,,,,,,,1257.366646522074,None,,,1260.3830433870899,None,1.6126984126984127,0.5162854669615626,1260.3830433870899,None,,,,,,,1258.366452287999,None,1258.5497931260616,1258.5664719630731,122,001,2023_Jul_25_1431,SpeechDraft1Carolyn_lessNoise_PlusLocalization,2021.2.3,59.99541596609873,
,,,,,,,,nearRight,6.5,0,ch1Sound_localizationTask.wav,6.5,"(1047, 878)","(87, -202)",95,-338,,,,,,,,,,,,,2,6,20,4,,,,,,,,,,,,,,,,,,,,,,,,,,,,,,,,,,,,,,,,1260.9000026030699,None,,,1263.916279500001,None,1.57989417989418,0.8155440150294453,1263.916279500001,None,,,,,,,1261.899867063039,None,1262.0831101980293,1262.0998836240033,122,001,2023_Jul_25_1431,SpeechDraft1Carolyn_lessNoise_PlusLocalization,2021.2.3,59.99541596609873,
,,,,,,,,center,0.0,6,ch1Sound_localizationTask.wav,0.0,"(952, 878)","(-8,-202)",0,-338,,,,,,,,,,,,,3,0,21,3,,,,,,,,,,,,,,,,,,,,,,,,,,,,,,,,,,,,,,,,1264.7330710690003,None,,,1267.7496009930037,None,1.4936507936507937,0.5328876751009375,1267.7496009930037,None,,,,,,,1265.7331797420047,None,1265.9165009830613,1265.9331386660924,122,001,2023_Jul_25_1431,SpeechDraft1Carolyn_lessNoise_PlusLocalization,2021.2.3,59.99541596609873,
,,,,,,,,midLeft,-13.0,2,ch1Sound_localizationTask.wav,-13.0,"(762, 878)","(-198,-202)",-190,-338,,,,,,,,,,,,,3,1,22,1,,,,,,,,,,,,,,,,,,,,,,,,,,,,,,,,,,,,,,,,1268.2831882770406,None,,,1271.299690140062,None,1.425925925925926,0.4663112839916721,1271.299690140062,None,,,,,,,1269.28314082406,None,1269.466484891018,1269.4831587070366,122,001,2023_Jul_25_1431,SpeechDraft1Carolyn_lessNoise_PlusLocalization,2021.2.3,59.99541596609873,
,,,,,,,,center,0.0,6,ch1Sound_localizationTask.wav,0.0,"(952, 878)","(-8,-202)",0,-338,,,,,,,,,,,,,3,2,23,3,,,,,,,,,,,,,,,,,,,,,,,,,,,,,,,,,,,,,,,,1271.7664785130182,None,,,1274.7829792040866,None,1.4835978835978836,0.9331350449938327,1274.7829792040866,None,,,,,,,1272.7665052610682,None,1272.9498616660712,1272.9665242580231,122,001,2023_Jul_25_1431,SpeechDraft1Carolyn_lessNoise_PlusLocalization,2021.2.3,59.99541596609873,
,,,,,,,,midLeft,-13.0,2,ch1Sound_localizationTask.wav,-13.0,"(762, 878)","(-198,-202)",-190,-338,,,,,,,,,,,,,3,3,24,1,,,,,,,,,,,,,,,,,,,,,,,,,,,,,,,,,,,,,,,,1275.7164856760064,None,,,1278.7330083940178,None,1.3656084656084655,0.8326429709559307,1278.7330083940178,None,,,,,,,1276.7167315100087,None,1276.899808698101,1276.9165479349904,122,001,2023_Jul_25_1431,SpeechDraft1Carolyn_lessNoise_PlusLocalization,2021.2.3,59.99541596609873,
,,,,,,,,nearRight,6.5,0,ch1Sound_localizationTask.wav,6.5,"(1047, 878)","(87, -202)",95,-338,,,,,,,,,,,,,3,4,25,4,,,,,,,,,,,,,,,,,,,,,,,,,,,,,,,,,,,,,,,,1279.5665047210641,None,,,1282.5830396430101,None,1.574074074074074,1.399015233037062,1282.5830396430101,None,,,,,,,1280.566463658004,None,1280.7498692150693,1280.7665362620028,122,001,2023_Jul_25_1431,SpeechDraft1Carolyn_lessNoise_PlusLocalization,2021.2.3,59.99541596609873,
,,,,,,,,midRight,13.0,3,ch1Sound_localizationTask.wav,13.0,"(1142, 878)","(182, -202)",190,-338,,,,,,,,,,,,,3,5,26,5,,,,,,,,,,,,,,,,,,,,,,,,,,,,,,,,,,,,,,,,1283.9831882250728,None,,,1286.9998301540036,None,1.5756613756613755,0.6663393209455535,1286.9998301540036,None,,,,,,,1284.9831749980804,None,1285.166521943058,1285.1832381210988,122,001,2023_Jul_25_1431,SpeechDraft1Carolyn_lessNoise_PlusLocalization,2021.2.3,59.99541596609873,
,,,,,,,,farLeft,-19.1,5,ch1Sound_localizationTask.wav,-19.1,"(667, 878)","(-293,-202)",-285,-338,,,,,,,,,,,,,3,6,27,0,,,,,,,,,,,,,,,,,,,,,,,,,,,,,,,,,,,,,,,,1287.666546863038,None,,,1290.6829412180232,None,1.253968253968254,2.249762160005048,1290.6829412180232,None,,,,,,,1288.6665083470289,None,1288.8499307850143,1288.8665468590334,122,001,2023_Jul_25_1431,SpeechDraft1Carolyn_lessNoise_PlusLocalization,2021.2.3,59.99541596609873,
,,,,,,,,center,0.0,6,ch1Sound_localizationTask.wav,0.0,"(952, 878)","(-8,-202)",0,-338,,,,,,,,,,,,,4,0,28,3,,,,,,,,,,,,,,,,,,,,,,,,,,,,,,,,,,,,,,,,1292.9332590040285,None,,,1295.9497292320011,None,1.4835978835978836,0.7486709560034797,1295.9497292320011,None,,,,,,,1293.9332010360667,None,1294.116643661051,1294.1331353150308,122,001,2023_Jul_25_1431,SpeechDraft1Carolyn_lessNoise_PlusLocalization,2021.2.3,59.99541596609873,
,,,,,,,,farRight,19.1,4,ch1Sound_localizationTask.wav,19.1,"(1237, 878)","(277,-202)",285,-338,,,,,,,,,,,,,4,1,29,6,,,,,,,,,,,,,,,,,,,,,,,,,,,,,,,,,,,,,,,,1296.6998830930097,None,,,1299.7163979550824,None,1.664021164021164,1.116755541996099,1299.7163979550824,None,,,,,,,1297.699865126051,None,1297.8832543720491,1297.8998341329861,122,001,2023_Jul_25_1431,SpeechDraft1Carolyn_lessNoise_PlusLocalization,2021.2.3,59.99541596609873,
,,,,,,,,farLeft,-19.1,5,ch1Sound_localizationTask.wav,-19.1,"(667, 878)","(-293,-202)",-285,-338,,,,,,,,,,,,,4,2,30,0,,,,,,,,,,,,,,,,,,,,,,,,,,,,,,,,,,,,,,,,1300.8500845710514,None,,,1303.8663451970788,None,1.3227513227513228,0.949936522054486,1303.8663451970788,None,,,,,,,1301.8500817030435,None,1302.0334439920262,1302.0497487630928,122,001,2023_Jul_25_1431,SpeechDraft1Carolyn_lessNoise_PlusLocalization,2021.2.3,59.99541596609873,
,,,,,,,,midLeft,-13.0,2,ch1Sound_localizationTask.wav,-13.0,"(762, 878)","(-198,-202)",-190,-338,,,,,,,,,,,,,4,3,31,1,,,,,,,,,,,,,,,,,,,,,,,,,,,,,,,,,,,,,,,,1304.8332779890625,None,,,1307.8498302190565,None,1.391005291005291,1.2821350579615682,1307.8498302190565,None,,,,,,,1305.8333822670393,None,1306.016670969082,1306.0333114510868,122,001,2023_Jul_25_1431,SpeechDraft1Carolyn_lessNoise_PlusLocalization,2021.2.3,59.99541596609873,
,,,,,,,,center,0.0,6,ch1Sound_localizationTask.wav,0.0,"(952, 878)","(-8,-202)",0,-338,,,,,,,,,,,,,4,4,32,3,,,,,,,,,,,,,,,,,,,,,,,,,,,,,,,,,,,,,,,,1309.1332409300376,None,,,1312.1496452570427,None,1.5211640211640212,0.9323216800112277,1312.1496452570427,None,,,,,,,1310.1333948000101,None,1310.3165826210752,1310.3332125690067,122,001,2023_Jul_25_1431,SpeechDraft1Carolyn_lessNoise_PlusLocalization,2021.2.3,59.99541596609873,
,,,,,,,,nearRight,6.5,0,ch1Sound_localizationTask.wav,6.5,"(1047, 878)","(87, -202)",95,-338,,,,,,,,,,,,,4,5,33,4,,,,,,,,,,,,,,,,,,,,,,,,,,,,,,,,,,,,,,,,1313.083408051054,None,,,1316.099725216045,None,1.5629629629629629,0.7827827630098909,1316.099725216045,None,,,,,,,1314.0832595250104,None,1314.2668168870732,1314.2831959760515,122,001,2023_Jul_25_1431,SpeechDraft1Carolyn_lessNoise_PlusLocalization,2021.2.3,59.99541596609873,
,,,,,,,,center,0.0,6,ch1Sound_localizationTask.wav,0.0,"(952, 878)","(-8,-202)",0,-338,,,,,,,,,,,,,4,6,34,3,,,,,,,,,,,,,,,,,,,,,,,,,,,,,,,,,,,,,,,,1316.8833000850864,None,,,1319.89980831102,None,1.5391534391534392,0.6323660649359226,1319.89980831102,None,,,,,,,1317.8832675640006,None,1318.0667944910238,1318.0834251450142,122,001,2023_Jul_25_1431,SpeechDraft1Carolyn_lessNoise_PlusLocalization,2021.2.3,59.99541596609873,
,,,,,,,,midRight,13.0,3,ch1Sound_localizationTask.wav,13.0,"(1142, 878)","(182, -202)",190,-338,,,,,,,,,,,,,5,0,35,5,,,,,,,,,,,,,,,,,,,,,,,,,,,,,,,,,,,,,,,,1320.533319876995,None,,,1323.5497142090462,None,1.5783068783068783,0.6999868339626119,1323.5497142090462,None,,,,,,,1321.5332734470721,None,1321.7166126690572,1321.7332039140165,122,001,2023_Jul_25_1431,SpeechDraft1Carolyn_lessNoise_PlusLocalization,2021.2.3,59.99541596609873,
,,,,,,,,nearRight,6.5,0,ch1Sound_localizationTask.wav,6.5,"(1047, 878)","(87, -202)",95,-338,,,,,,,,,,,,,5,1,36,4,,,,,,,,,,,,,,,,,,,,,,,,,,,,,,,,,,,,,,,,1324.2499162320746,None,,,1327.266438115039,None,1.5322751322751322,0.0317720309831202,1327.266438115039,None,,,,,,,1325.2499054369982,None,1325.4333374660928,1325.4498823380563,122,001,2023_Jul_25_1431,SpeechDraft1Carolyn_lessNoise_PlusLocalization,2021.2.3,59.99541596609873,
,,,,,,,,center,0.0,6,ch1Sound_localizationTask.wav,0.0,"(952, 878)","(-8,-202)",0,-338,,,,,,,,,,,,,5,2,37,3,,,,,,,,,,,,,,,,,,,,,,,,,,,,,,,,,,,,,,,,1327.299838009989,None,,,1330.3163510280428,None,1.494179894179894,0.6660236759344116,1330.3163510280428,None,,,,,,,1328.2999151770491,None,1328.4832460610196,1328.4998893910088,122,001,2023_Jul_25_1431,SpeechDraft1Carolyn_lessNoise_PlusLocalization,2021.2.3,59.99541596609873,
,,,,,,,,farLeft,-19.1,5,ch1Sound_localizationTask.wav,-19.1,"(667, 878)","(-293,-202)",-285,-338,,,,,,,,,,,,,5,3,38,0,,,,,,,,,,,,,,,,,,,,,,,,,,,,,,,,,,,,,,,,1330.9832204340491,None,,,1333.9997457470745,None,1.2560846560846561,4.198433491052128,1333.9997457470745,None,,,,,,,1331.9832931490382,None,1332.1665945780696,1332.1832593440777,122,001,2023_Jul_25_1431,SpeechDraft1Carolyn_lessNoise_PlusLocalization,2021.2.3,59.99541596609873,
,,,,,,,,nearLeft,-6.5,1,ch1Sound_localizationTask.wav,-6.5,"(857, 878)","(-103,-202)",-95,-338,,,,,,,,,,,,,5,4,39,2,,,,,,,,,,,,,,,,,,,,,,,,,,,,,,,,,,,,,,,,1338.199906607042,None,,,1341.2163142220816,None,1.4158730158730157,0.8322655449155718,1341.2163142220816,None,,,,,,,1339.199912615004,None,1339.3833070590626,1339.4000233050901,122,001,2023_Jul_25_1431,SpeechDraft1Carolyn_lessNoise_PlusLocalization,2021.2.3,59.99541596609873,
,,,,,,,,nearLeft,-6.5,1,ch1Sound_localizationTask.wav,-6.5,"(857, 878)","(-103,-202)",-95,-338,,,,,,,,,,,,,5,5,40,2,,,,,,,,,,,,,,,,,,,,,,,,,,,,,,,,,,,,,,,,1342.0499326270074,None,,,1345.0664375060005,None,1.4544973544973545,0.9325360060902312,1345.0664375060005,None,,,,,,,1343.0500796519918,None,1343.2332174560288,1343.2501526289852,122,001,2023_Jul_25_1431,SpeechDraft1Carolyn_lessNoise_PlusLocalization,2021.2.3,59.99541596609873,
,,,,,,,,farRight,19.1,4,ch1Sound_localizationTask.wav,19.1,"(1237, 878)","(277,-202)",285,-338,,,,,,,,,,,,,5,6,41,6,,,,,,,,,,,,,,,,,,,,,,,,,,,,,,,,,,,,,,,,1345.9999152790988,None,,,1349.016447284026,None,1.6788359788359788,1.349332705955021,1349.016447284026,None,,,,,,,1347.0000022540335,None,1347.1832749079913,1347.1999287010403,122,001,2023_Jul_25_1431,SpeechDraft1Carolyn_lessNoise_PlusLocalization,2021.2.3,59.99541596609873,
,,,,,,,,farLeft,-19.1,5,ch1Sound_localizationTask.wav,-19.1,"(667, 878)","(-293,-202)",-285,-338,,,,,,,,,,,,,6,0,42,0,,,,,,,,,,,,,,,,,,,,,,,,,,,,,,,,,,,,,,,,1350.3665722610895,None,,,1353.3830664750421,None,1.3380952380952382,1.2327725370414555,1353.3830664750421,None,,,,,,,1351.3667796860682,None,1351.5499163350323,1351.566682468052,122,001,2023_Jul_25_1431,SpeechDraft1Carolyn_lessNoise_PlusLocalization,2021.2.3,59.99541596609873,
,,,,,,,,nearLeft,-6.5,1,ch1Sound_localizationTask.wav,-6.5,"(857, 878)","(-103,-202)",-95,-338,,,,,,,,,,,,,6,1,43,2,,,,,,,,,,,,,,,,,,,,,,,,,,,,,,,,,,,,,,,,1354.6168168670265,None,,,1357.6330939950421,None,1.4767195767195767,0.615757902036421,1357.6330939950421,None,,,,,,,1355.6166053330526,None,1355.7999763539992,1355.8167794920737,122,001,2023_Jul_25_1431,SpeechDraft1Carolyn_lessNoise_PlusLocalization,2021.2.3,59.99541596609873,
,,,,,,,,farRight,19.1,4,ch1Sound_localizationTask.wav,19.1,"(1237, 878)","(277,-202)",285,-338,,,,,,,,,,,,,6,2,44,6,,,,,,,,,,,,,,,,,,,,,,,,,,,,,,,,,,,,,,,,1358.2501490170835,None,,,1361.2664121770067,None,1.668783068783069,1.1485127960331738,1361.2664121770067,None,,,,,,,1359.2499604520854,None,1359.4333834800636,1359.4499152289936,122,001,2023_Jul_25_1431,SpeechDraft1Carolyn_lessNoise_PlusLocalization,2021.2.3,59.99541596609873,
,,,,,,,,farRight,19.1,4,ch1Sound_localizationTask.wav,19.1,"(1237, 878)","(277,-202)",285,-338,,,,,,,,,,,,,6,3,45,6,,,,,,,,,,,,,,,,,,,,,,,,,,,,,,,,,,,,,,,,1362.4166361960815,None,,,1365.4331485560397,None,1.6317460317460317,1.0494055399904028,1365.4331485560397,None,,,,,,,1363.4166209420655,None,1363.6001472630305,1363.6165844890056,122,001,2023_Jul_25_1431,SpeechDraft1Carolyn_lessNoise_PlusLocalization,2021.2.3,59.99541596609873,
,,,,,,,,midRight,13.0,3,ch1Sound_localizationTask.wav,13.0,"(1142, 878)","(182, -202)",190,-338,,,,,,,,,,,,,6,4,46,5,,,,,,,,,,,,,,,,,,,,,,,,,,,,,,,,,,,,,,,,1366.483224392985,None,,,1369.4997933140257,None,1.6052910052910052,1.132895593997091,1369.4997933140257,None,,,,,,,1367.483377018012,None,1367.66671319108,1367.683292982052,122,001,2023_Jul_25_1431,SpeechDraft1Carolyn_lessNoise_PlusLocalization,2021.2.3,59.99541596609873,
,,,,,,,,farLeft,-19.1,5,ch1Sound_localizationTask.wav,-19.1,"(667, 878)","(-293,-202)",-285,-338,,,,,,,,,,,,,6,5,47,0,,,,,,,,,,,,,,,,,,,,,,,,,,,,,,,,,,,,,,,,1370.6332448290195,None,,,1373.6497576920083,None,1.3735449735449734,0.9158795169787481,1373.6497576920083,None,,,,,,,1371.633241183008,None,1371.816670797998,1371.833472404047,122,001,2023_Jul_25_1431,SpeechDraft1Carolyn_lessNoise_PlusLocalization,2021.2.3,59.99541596609873,
,,,,,,,,farLeft,-19.1,5,ch1Sound_localizationTask.wav,-19.1,"(667, 878)","(-293,-202)",-285,-338,,,,,,,,,,,,,6,6,48,0,,,,,,,,,,,,,,,,,,,,,,,,,,,,,,,,,,,,,,,,1374.566626219079,None,,,1377.5831152860774,None,1.374074074074074,0.6495455420808867,1377.5831152860774,None,,,,,,,1375.5667134770192,None,1375.750028987066,1375.7666830180679,122,001,2023_Jul_25_1431,SpeechDraft1Carolyn_lessNoise_PlusLocalization,2021.2.3,59.99541596609873,
,,,,,,,,farRight,19.1,4,ch1Sound_localizationTask.wav,19.1,"(1237, 878)","(277,-202)",285,-338,,,,,,,,,,,,,7,0,49,6,,,,,,,,,,,,,,,,,,,,,,,,,,,,,,,,,,,,,,,,1378.233304428053,None,,,1381.2498168679886,None,1.6047619047619048,0.7825956409797072,1381.2498168679886,None,,,,,,,1379.2333027620334,None,1379.4168024350656,1379.4334399449872,122,001,2023_Jul_25_1431,SpeechDraft1Carolyn_lessNoise_PlusLocalization,2021.2.3,59.99541596609873,
,,,,,,,,farRight,19.1,4,ch1Sound_localizationTask.wav,19.1,"(1237, 878)","(277,-202)",285,-338,,,,,,,,,,,,,7,1,50,6,,,,,,,,,,,,,,,,,,,,,,,,,,,,,,,,,,,,,,,,1382.0336683520582,None,,,1385.0497623980045,None,1.6317460317460317,0.48169977008365095,1385.0497623980045,None,,,,,,,1383.0333703180077,None,1383.2166377640096,1383.2333273290424,122,001,2023_Jul_25_1431,SpeechDraft1Carolyn_lessNoise_PlusLocalization,2021.2.3,59.99541596609873,
,,,,,,,,nearLeft,-6.5,1,ch1Sound_localizationTask.wav,-6.5,"(857, 878)","(-103,-202)",-95,-338,,,,,,,,,,,,,7,2,51,2,,,,,,,,,,,,,,,,,,,,,,,,,,,,,,,,,,,,,,,,1385.5333431850886,None,,,1388.5497905589873,None,1.4492063492063492,0.6997756559867412,1388.5497905589873,None,,,,,,,1386.5334422360174,None,1386.7166738130618,1386.7333159570117,122,001,2023_Jul_25_1431,SpeechDraft1Carolyn_lessNoise_PlusLocalization,2021.2.3,59.99541596609873,
,,,,,,,,center,0.0,6,ch1Sound_localizationTask.wav,0.0,"(952, 878)","(-8,-202)",0,-338,,,,,,,,,,,,,7,3,52,3,,,,,,,,,,,,,,,,,,,,,,,,,,,,,,,,,,,,,,,,1389.250182696036,None,,,1392.2664568050532,None,1.4994708994708994,0.8161880041006953,1392.2664568050532,None,,,,,,,1390.250015216996,None,1390.4335190310376,1390.4501586270053,122,001,2023_Jul_25_1431,SpeechDraft1Carolyn_lessNoise_PlusLocalization,2021.2.3,59.99541596609873,
,,,,,,,,midLeft,-13.0,2,ch1Sound_localizationTask.wav,-13.0,"(762, 878)","(-198,-202)",-190,-338,,,,,,,,,,,,,7,4,53,1,,,,,,,,,,,,,,,,,,,,,,,,,,,,,,,,,,,,,,,,1393.0833041670267,None,,,1396.0998657700839,None,1.3883597883597885,0.7988193240016699,1396.0998657700839,None,,,,,,,1394.0832758340985,None,1394.266635447042,1394.2833413550397,122,001,2023_Jul_25_1431,SpeechDraft1Carolyn_lessNoise_PlusLocalization,2021.2.3,59.99541596609873,
,,,,,,,,nearLeft,-6.5,1,ch1Sound_localizationTask.wav,-6.5,"(857, 878)","(-103,-202)",-95,-338,,,,,,,,,,,,,7,5,54,2,,,,,,,,,,,,,,,,,,,,,,,,,,,,,,,,,,,,,,,,1396.9000778330956,None,,,1399.9165950620081,None,1.444973544973545,0.4992639049887657,1399.9165950620081,None,,,,,,,1397.9001988860546,None,1398.0833434270462,1398.1000270700315,122,001,2023_Jul_25_1431,SpeechDraft1Carolyn_lessNoise_PlusLocalization,2021.2.3,59.99541596609873,
,,,,,,,,nearRight,6.5,0,ch1Sound_localizationTask.wav,6.5,"(1047, 878)","(87, -202)",95,-338,,,,,,,,,,,,,7,6,55,4,,,,,,,,,,,,,,,,,,,,,,,,,,,,,,,,,,,,,,,,1400.4166909870692,None,,,1403.4330595160136,None,1.5656084656084657,0.49888812098652124,1403.4330595160136,None,,,,,,,1401.4166747560957,None,1401.6003367530648,1401.6167345920112,122,001,2023_Jul_25_1431,SpeechDraft1Carolyn_lessNoise_PlusLocalization,2021.2.3,59.99541596609873,
