Audio_Only_Files,Video_Files,Original_Word_List,noiseLevelCode,conditionCodes,noiseLevelFile1,noiseLevelFile2,InstrTextVar,targetSpeakerName,targetSpeakerEccen,targetSpkrChannel,targetSpkrSound,targetVisualDegrees,visStimLoc,visStimLoc2,visStimW,visStimH,practiceTrials.thisRepN,practiceTrials.thisTrialN,practiceTrials.thisN,practiceTrials.thisIndex,trials.thisRepN,trials.thisTrialN,trials.thisN,trials.thisIndex,audLocalLoop.thisRepN,audLocalLoop.thisTrialN,audLocalLoop.thisN,audLocalLoop.thisIndex,visualLocalLoop.thisRepN,visualLocalLoop.thisTrialN,visualLocalLoop.thisN,visualLocalLoop.thisIndex,letsGoAlready.keys,letsGoAlready.rt,letsGoAlready.started,letsGoAlready.stopped,text_2.started,text_2.stopped,text_3.started,text_3.stopped,key_resp_2.keys,key_resp_2.rt,key_resp_2.started,key_resp_2.stopped,text_5.started,text_5.stopped,fixCross.started,fixCross.stopped,fixCross2.started,fixCross2.stopped,answerPrompt.started,answerPrompt.stopped,getAnswer.text,getAnswer.started,getAnswer.stopped,goToNext.keys,goToNext.rt,goToNext.started,goToNext.stopped,stretchBreakTxrt.started,stretchBreakTxrt.stopped,key_resp_3.keys,key_resp_3.rt,key_resp_3.started,key_resp_3.stopped,letsGoLocal.keys,letsGoLocal.rt,letsGoLocal.started,letsGoLocal.stopped,text_4.started,text_4.stopped,prepFixTxt.started,prepFixTxt.stopped,prepFixTxt_2.started,prepFixTxt_2.stopped,respPromptLocal.started,respPromptLocal.stopped,slider.response,slider.rt,slider.started,slider.stopped,letsGoLocal_2.keys,letsGoLocal_2.rt,letsGoLocal_2.started,letsGoLocal_2.stopped,text_7.started,text_7.stopped,prepFixTxt_3.started,prepFixTxt_3.stopped,grating.started,grating.stopped,exitTxt.started,exitTxt.stopped,key_resp.keys,key_resp.rt,key_resp.started,key_resp.stopped,participant,session,date,expName,psychopyVersion,frameRate,
,,,,,,,,,,,,,,,,,,,,,,,,,,,,,,,,,space,4.633266410091892,10.127245613140985,None,,,,,,,,,,,,,,,,,,,,,,,,,,,,,,,,,,,,,,,,,,,,,,,,,,,,,,,,,,,,,,125,001,2023_Oct_10_1508,SpeechDraft1Carolyn_lessNoise_locIncl_Mach2,2021.2.3,60.015427645575414,
,,,,,,,,,,,,,,,,,,,,,,,,,,,,,,,,,,,,,10.127245613140985,None,14.77734131901525,None,space,1.5199016071856022,14.960625070147216,None,,,,,,,,,,,,,,,,,,,,,,,,,,,,,,,,,,,,,,,,,,,,,,,,,,,,,,125,001,2023_Oct_10_1508,SpeechDraft1Carolyn_lessNoise_locIncl_Mach2,2021.2.3,60.015427645575414,
ash.wav,ash.mpg,ash,1,A,Pink_Noise_1_1.wav,Pink_Noise_1_2.wav,"This is an example of an

AUDIO trial",,,,,,,,,,0,0,0,0,,,,,,,,,,,,,,,,,,,,,,,,,16.54366211895831,None,17.52728626714088,None,20.743750665104017,None,22.127317507052794,None,"ash
",22.127317507052794,None,return,3.917822706978768,22.210634420160204,None,,,,,,,,,,,,,,,,,,,,,,,,,,,,,,,,,,,,,,,125,001,2023_Oct_10_1508,SpeechDraft1Carolyn_lessNoise_locIncl_Mach2,2021.2.3,60.015427645575414,
ash.wav,ash.mpg,ash,1,AV,Pink_Noise_1_1.wav,Pink_Noise_1_2.wav,"This is an example of an

AUDIO + VIDEO  trial",,,,,,,,,,0,1,1,1,,,,,,,,,,,,,,,,,,,,,,,,,26.17709575407207,None,27.177324219141155,None,28.66041732300073,None,30.043996789027005,None,ash,30.043996789027005,None,return,7.480953693157062,30.127503231167793,None,,,,,,,,,,,,,,,,,,,,,,,,,,,,,,,,,,,,,,,125,001,2023_Oct_10_1508,SpeechDraft1Carolyn_lessNoise_locIncl_Mach2,2021.2.3,60.015427645575414,
,,,,,,,,,,,,,,,,,,,,,,,,,,,,,,,,,,,,,,,,,,,,,,,,,,,,,,,,,,,,37.64368003816344,None,space,1.053226422984153,37.82734363107011,None,,,,,,,,,,,,,,,,,,,,,,,,,,,,,,,,,125,001,2023_Oct_10_1508,SpeechDraft1Carolyn_lessNoise_locIncl_Mach2,2021.2.3,60.015427645575414,
cheap.wav,cheap.mpg,cheap,6,AV,Pink_Noise_6_1.wav,Pink_Noise_6_2.wav,,,,,,,,,,,,,,,0,0,0,63,,,,,,,,,,,,,,,,,,,,,,,38.943738331086934,None,40.42710742610507,None,41.7939431311097,None,"cheap
",41.7939431311097,None,return,5.251095182960853,41.87736380798742,None,,,,,,,,,,,,,,,,,,,,,,,,,,,,,,,,,,,,,,,125,001,2023_Oct_10_1508,SpeechDraft1Carolyn_lessNoise_locIncl_Mach2,2021.2.3,60.015427645575414,
blot.wav,blot.mpg,blot,2,AV,Pink_Noise_2_1.wav,Pink_Noise_2_2.wav,,,,,,,,,,,,,,,0,1,1,101,,,,,,,,,,,,,,,,,,,,,,,47.16073659295216,None,48.66044645011425,None,50.027264536125585,None,"brought
",50.027264536125585,None,return,6.369783841073513,50.110672996146604,None,,,,,,,,,,,,,,,,,,,,,,,,,,,,,,,,,,,,,,,125,001,2023_Oct_10_1508,SpeechDraft1Carolyn_lessNoise_locIncl_Mach2,2021.2.3,60.015427645575414,
egg.wav,egg.mpg,egg,2,A,Pink_Noise_2_1.wav,Pink_Noise_2_2.wav,,,,,,,,,,,,,,,0,2,2,38,,,,,,,,,,,,,,,,,,,,,,,56.510694548953325,None,57.99379460909404,None,59.37749909795821,None,egg,59.37749909795821,None,return,4.659620989114046,59.460823331959546,None,,,,,,,,,,,,,,,,,,,,,,,,,,,,,,,,,,,,,,,125,001,2023_Oct_10_1508,SpeechDraft1Carolyn_lessNoise_locIncl_Mach2,2021.2.3,60.015427645575414,
croak.wav,croak.mpg,croak,3,AV,Pink_Noise_3_1.wav,Pink_Noise_3_2.wav,,,,,,,,,,,,,,,0,3,3,65,,,,,,,,,,,,,,,,,,,,,,,64.14404382416978,None,65.64374891202897,None,67.01059871609323,None,croak,67.01059871609323,None,return,8.546484292950481,67.09414920397103,None,,,,,,,,,,,,,,,,,,,,,,,,,,,,,,,,,,,,,,,125,001,2023_Oct_10_1508,SpeechDraft1Carolyn_lessNoise_locIncl_Mach2,2021.2.3,60.015427645575414,
lie.wav,lie.mpg,lie,3,A,Pink_Noise_3_1.wav,Pink_Noise_3_2.wav,,,,,,,,,,,,,,,0,4,4,34,,,,,,,,,,,,,,,,,,,,,,,75.6606953421142,None,77.16041385498829,None,78.52736350917257,None,lie,78.52736350917257,None,return,3.741740798112005,78.61070280196145,None,,,,,,,,,,,,,,,,,,,,,,,,,,,,,,,,,,,,,,,125,001,2023_Oct_10_1508,SpeechDraft1Carolyn_lessNoise_locIncl_Mach2,2021.2.3,60.015427645575414,
edge.wav,edge.mpg,edge,4,AV,Pink_Noise_4_1.wav,Pink_Noise_4_2.wav,,,,,,,,,,,,,,,0,5,5,104,,,,,,,,,,,,,,,,,,,,,,,82.37744218716398,None,83.87704966310412,None,85.24395492998883,None,edge,85.24395492998883,None,return,3.833134606014937,85.32737667998299,None,,,,,,,,,,,,,,,,,,,,,,,,,,,,,,,,,,,,,,,125,001,2023_Oct_10_1508,SpeechDraft1Carolyn_lessNoise_locIncl_Mach2,2021.2.3,60.015427645575414,
grow.wav,grow.mpg,grow,6,AV,Pink_Noise_6_1.wav,Pink_Noise_6_2.wav,,,,,,,,,,,,,,,0,6,6,71,,,,,,,,,,,,,,,,,,,,,,,89.17748563596979,None,90.67710904800333,None,92.04401548416354,None,row,92.04401548416354,None,return,2.1369773659389466,92.12746167602018,None,,,,,,,,,,,,,,,,,,,,,,,,,,,,,,,,,,,,,,,125,001,2023_Oct_10_1508,SpeechDraft1Carolyn_lessNoise_locIncl_Mach2,2021.2.3,60.015427645575414,
deem.wav,deem.mpg,deem,5,A,Pink_Noise_5_1.wav,Pink_Noise_5_2.wav,,,,,,,,,,,,,,,0,7,7,42,,,,,,,,,,,,,,,,,,,,,,,94.29405515408143,None,95.79374223412015,None,97.17743357317522,None,food,97.17743357317522,None,return,3.403663323028013,97.26078677317128,None,,,,,,,,,,,,,,,,,,,,,,,,,,,,,,,,,,,,,,,125,001,2023_Oct_10_1508,SpeechDraft1Carolyn_lessNoise_locIncl_Mach2,2021.2.3,60.015427645575414,
pact.wav,pact.mpg,pact,4,A,Pink_Noise_4_1.wav,Pink_Noise_4_2.wav,,,,,,,,,,,,,,,0,8,8,19,,,,,,,,,,,,,,,,,,,,,,,100.694098635111,None,102.19383506011218,None,103.56075711315498,None,"kept
",103.56075711315498,None,return,4.820349086076021,103.6441082060337,None,,,,,,,,,,,,,,,,,,,,,,,,,,,,,,,,,,,,,,,125,001,2023_Oct_10_1508,SpeechDraft1Carolyn_lessNoise_locIncl_Mach2,2021.2.3,60.015427645575414,
drain.wav,drain.mpg,drain,1,A,Pink_Noise_1_1.wav,Pink_Noise_1_2.wav,,,,,,,,,,,,,,,0,9,9,27,,,,,,,,,,,,,,,,,,,,,,,108.49408505810425,None,109.97711188509129,None,111.36086823302321,None,drain,111.36086823302321,None,return,3.163976308889687,111.44448301498778,None,,,,,,,,,,,,,,,,,,,,,,,,,,,,,,,,,,,,,,,125,001,2023_Oct_10_1508,SpeechDraft1Carolyn_lessNoise_locIncl_Mach2,2021.2.3,60.015427645575414,
flesh.wav,flesh.mpg,flesh,3,A,Pink_Noise_3_1.wav,Pink_Noise_3_2.wav,,,,,,,,,,,,,,,0,10,10,29,,,,,,,,,,,,,,,,,,,,,,,114.62787713599391,None,116.12715187110007,None,117.4941627481021,None,flush,117.4941627481021,None,return,7.830942853121087,117.57753907702863,None,,,,,,,,,,,,,,,,,,,,,,,,,,,,,,,,,,,,,,,125,001,2023_Oct_10_1508,SpeechDraft1Carolyn_lessNoise_locIncl_Mach2,2021.2.3,60.015427645575414,
bear.wav,bear.mpg,bear,2,A,Pink_Noise_2_1.wav,Pink_Noise_2_2.wav,,,,,,,,,,,,,,,0,11,11,44,,,,,,,,,,,,,,,,,,,,,,,125.42758068395779,None,126.92728113103658,None,128.29424616205506,None,bear,128.29424616205506,None,return,1.7748300039675087,128.37763339304365,None,,,,,,,,,,,,,,,,,,,,,,,,,,,,,,,,,,,,,,,125,001,2023_Oct_10_1508,SpeechDraft1Carolyn_lessNoise_locIncl_Mach2,2021.2.3,60.015427645575414,
drip.wav,drip.mpg,drip,2,AV,Pink_Noise_2_1.wav,Pink_Noise_2_2.wav,,,,,,,,,,,,,,,0,12,12,85,,,,,,,,,,,,,,,,,,,,,,,130.177463357104,None,131.67719215108082,None,133.06071794917807,None,drip,133.06071794917807,None,return,6.392258368898183,133.14417788898572,None,,,,,,,,,,,,,,,,,,,,,,,,,,,,,,,,,,,,,,,125,001,2023_Oct_10_1508,SpeechDraft1Carolyn_lessNoise_locIncl_Mach2,2021.2.3,60.015427645575414,
draw.wav,draw.mpg,draw,2,AV,Pink_Noise_2_1.wav,Pink_Noise_2_2.wav,,,,,,,,,,,,,,,0,13,13,82,,,,,,,,,,,,,,,,,,,,,,,139.56084434804507,None,141.06067870603874,None,142.42751466901973,None,draw,142.42751466901973,None,return,3.4896394649986178,142.51093354611658,None,,,,,,,,,,,,,,,,,,,,,,,,,,,,,,,,,,,,,,,125,001,2023_Oct_10_1508,SpeechDraft1Carolyn_lessNoise_locIncl_Mach2,2021.2.3,60.015427645575414,
cute.wav,cute.mpg,cute,5,AV,Pink_Noise_5_1.wav,Pink_Noise_5_2.wav,,,,,,,,,,,,,,,0,14,14,70,,,,,,,,,,,,,,,,,,,,,,,146.02751678507775,None,147.52725811605342,None,148.89402279513888,None,cute,148.89402279513888,None,return,3.694968990981579,148.97750657913275,None,,,,,,,,,,,,,,,,,,,,,,,,,,,,,,,,,,,,,,,125,001,2023_Oct_10_1508,SpeechDraft1Carolyn_lessNoise_locIncl_Mach2,2021.2.3,60.015427645575414,
snake.wav,snake.mpg,snake,4,AV,Pink_Noise_4_1.wav,Pink_Noise_4_2.wav,,,,,,,,,,,,,,,0,15,15,75,,,,,,,,,,,,,,,,,,,,,,,152.69414229202084,None,154.1772947940044,None,155.56081753014587,None,snake,155.56081753014587,None,return,3.788325516972691,155.64425590797327,None,,,,,,,,,,,,,,,,,,,,,,,,,,,,,,,,,,,,,,,125,001,2023_Oct_10_1508,SpeechDraft1Carolyn_lessNoise_locIncl_Mach2,2021.2.3,60.015427645575414,
led.wav,led.mpg,led,4,AV,Pink_Noise_4_1.wav,Pink_Noise_4_2.wav,,,,,,,,,,,,,,,0,16,16,67,,,,,,,,,,,,,,,,,,,,,,,159.4608110601548,None,160.96056101913564,None,162.32755025406368,None,leg,162.32755025406368,None,return,6.925541467964649,162.41090259398334,None,,,,,,,,,,,,,,,,,,,,,,,,,,,,,,,,,,,,,,,125,001,2023_Oct_10_1508,SpeechDraft1Carolyn_lessNoise_locIncl_Mach2,2021.2.3,60.015427645575414,
chef.wav,chef.mpg,chef,2,A,Pink_Noise_2_1.wav,Pink_Noise_2_2.wav,,,,,,,,,,,,,,,0,17,17,12,,,,,,,,,,,,,,,,,,,,,,,169.36090619512834,None,170.84390362817794,None,172.2275797210168,None,chef,172.2275797210168,None,return,3.4656211340334266,172.3108945370186,None,,,,,,,,,,,,,,,,,,,,,,,,,,,,,,,,,,,,,,,125,001,2023_Oct_10_1508,SpeechDraft1Carolyn_lessNoise_locIncl_Mach2,2021.2.3,60.015427645575414,
chick.wav,chick.mpg,chick,5,AV,Pink_Noise_5_1.wav,Pink_Noise_5_2.wav,,,,,,,,,,,,,,,0,18,18,106,,,,,,,,,,,,,,,,,,,,,,,175.79426496196538,None,177.2941451810766,None,178.66099941101857,None,chick,178.66099941101857,None,return,4.808293896028772,178.7441810639575,None,,,,,,,,,,,,,,,,,,,,,,,,,,,,,,,,,,,,,,,125,001,2023_Oct_10_1508,SpeechDraft1Carolyn_lessNoise_locIncl_Mach2,2021.2.3,60.015427645575414,
bond.wav,bond.mpg,bond,6,A,Pink_Noise_6_1.wav,Pink_Noise_6_2.wav,,,,,,,,,,,,,,,0,19,19,33,,,,,,,,,,,,,,,,,,,,,,,183.57759243506007,None,185.06049903901294,None,186.4442616631277,None,row,186.4442616631277,None,return,4.240778737002984,186.52767160604708,None,,,,,,,,,,,,,,,,,,,,,,,,,,,,,,,,,,,,,,,125,001,2023_Oct_10_1508,SpeechDraft1Carolyn_lessNoise_locIncl_Mach2,2021.2.3,60.015427645575414,
gaze.wav,gaze.mpg,gaze,6,A,Pink_Noise_6_1.wav,Pink_Noise_6_2.wav,,,,,,,,,,,,,,,0,20,20,23,,,,,,,,,,,,,,,,,,,,,,,190.79420115915127,None,192.29391964897513,None,193.66093021817505,None,"hears
",193.66093021817505,None,return,12.768257338088006,193.74419933906756,None,,,,,,,,,,,,,,,,,,,,,,,,,,,,,,,,,,,,,,,125,001,2023_Oct_10_1508,SpeechDraft1Carolyn_lessNoise_locIncl_Mach2,2021.2.3,60.015427645575414,
brash.wav,brash.mpg,brash,1,A,Pink_Noise_1_1.wav,Pink_Noise_1_2.wav,,,,,,,,,,,,,,,0,21,21,14,,,,,,,,,,,,,,,,,,,,,,,206.54423183901235,None,208.04401320614852,None,209.42758864397183,None,"brush
",209.42758864397183,None,return,12.553466663928702,209.5109706860967,None,,,,,,,,,,,,,,,,,,,,,,,,,,,,,,,,,,,,,,,125,001,2023_Oct_10_1508,SpeechDraft1Carolyn_lessNoise_locIncl_Mach2,2021.2.3,60.015427645575414,
east.wav,east.mpg,east,3,AV,Pink_Noise_3_1.wav,Pink_Noise_3_2.wav,,,,,,,,,,,,,,,0,22,22,61,,,,,,,,,,,,,,,,,,,,,,,222.09418404195458,None,223.59399470617063,None,224.97756631602533,None,east,224.97756631602533,None,return,1.6275076558813453,225.0609365629498,None,,,,,,,,,,,,,,,,,,,,,,,,,,,,,,,,,,,,,,,125,001,2023_Oct_10_1508,SpeechDraft1Carolyn_lessNoise_locIncl_Mach2,2021.2.3,60.015427645575414,
shed.wav,shed.mpg,shed,1,AV,Pink_Noise_1_1.wav,Pink_Noise_1_2.wav,,,,,,,,,,,,,,,0,23,23,69,,,,,,,,,,,,,,,,,,,,,,,226.71092408197,None,228.19404344214126,None,229.57762246299535,None,shed,229.57762246299535,None,return,3.0755435649771243,229.6609087230172,None,,,,,,,,,,,,,,,,,,,,,,,,,,,,,,,,,,,,,,,125,001,2023_Oct_10_1508,SpeechDraft1Carolyn_lessNoise_locIncl_Mach2,2021.2.3,60.015427645575414,
wild.wav,wild.mpg,wild,3,AV,Pink_Noise_3_1.wav,Pink_Noise_3_2.wav,,,,,,,,,,,,,,,0,24,24,99,,,,,,,,,,,,,,,,,,,,,,,232.76094940607436,None,234.2606627859641,None,235.62754300097004,None,"wild
",235.62754300097004,None,return,3.3535190778784454,235.71094004716724,None,,,,,,,,,,,,,,,,,,,,,,,,,,,,,,,,,,,,,,,125,001,2023_Oct_10_1508,SpeechDraft1Carolyn_lessNoise_locIncl_Mach2,2021.2.3,60.015427645575414,
chant.wav,chant.mpg,chant,1,A,Pink_Noise_1_1.wav,Pink_Noise_1_2.wav,,,,,,,,,,,,,,,0,25,25,9,,,,,,,,,,,,,,,,,,,,,,,239.09429236105643,None,240.59395906701684,None,241.97775968303904,None,chant,241.97775968303904,None,return,2.915533198043704,242.06103901704773,None,,,,,,,,,,,,,,,,,,,,,,,,,,,,,,,,,,,,,,,125,001,2023_Oct_10_1508,SpeechDraft1Carolyn_lessNoise_locIncl_Mach2,2021.2.3,60.015427645575414,
chase.wav,chase.mpg,chase,5,AV,Pink_Noise_5_1.wav,Pink_Noise_5_2.wav,,,,,,,,,,,,,,,0,26,26,97,,,,,,,,,,,,,,,,,,,,,,,244.9942431859672,None,246.49403879395686,None,247.86093702400103,None,chase,247.86093702400103,None,return,4.088096896884963,247.944419213105,None,,,,,,,,,,,,,,,,,,,,,,,,,,,,,,,,,,,,,,,125,001,2023_Oct_10_1508,SpeechDraft1Carolyn_lessNoise_locIncl_Mach2,2021.2.3,60.015427645575414,
guess.wav,guess.mpg,guess,6,AV,Pink_Noise_6_1.wav,Pink_Noise_6_2.wav,,,,,,,,,,,,,,,0,27,27,80,,,,,,,,,,,,,,,,,,,,,,,252.06097300117835,None,253.54396696714684,None,254.92786347004585,None,guess,254.92786347004585,None,return,11.229415175039321,255.01104858098552,None,,,,,,,,,,,,,,,,,,,,,,,,,,,,,,,,,,,,,,,125,001,2023_Oct_10_1508,SpeechDraft1Carolyn_lessNoise_locIncl_Mach2,2021.2.3,60.015427645575414,
frost.wav,frost.mpg,frost,1,AV,Pink_Noise_1_1.wav,Pink_Noise_1_2.wav,,,,,,,,,,,,,,,0,28,28,79,,,,,,,,,,,,,,,,,,,,,,,266.2609365801327,None,267.76072449912317,None,269.12849499611184,None,frost,269.12849499611184,None,return,5.7334601290058345,269.2109945041593,None,,,,,,,,,,,,,,,,,,,,,,,,,,,,,,,,,,,,,,,125,001,2023_Oct_10_1508,SpeechDraft1Carolyn_lessNoise_locIncl_Mach2,2021.2.3,60.015427645575414,
clerk.wav,clerk.mpg,clerk,5,A,Pink_Noise_5_1.wav,Pink_Noise_5_2.wav,,,,,,,,,,,,,,,0,29,29,40,,,,,,,,,,,,,,,,,,,,,,,274.96103078708984,None,276.46072728116997,None,277.84446881199256,None,growth,277.84446881199256,None,return,8.280716965906322,277.92774126213044,None,,,,,,,,,,,,,,,,,,,,,,,,,,,,,,,,,,,,,,,125,001,2023_Oct_10_1508,SpeechDraft1Carolyn_lessNoise_locIncl_Mach2,2021.2.3,60.015427645575414,
clip.wav,clip.mpg,clip,3,A,Pink_Noise_3_1.wav,Pink_Noise_3_2.wav,,,,,,,,,,,,,,,0,30,30,5,,,,,,,,,,,,,,,,,,,,,,,286.22763946512714,None,287.7107237139717,None,289.09450860205106,None,cliff,289.09450860205106,None,return,5.326661398867145,289.1778048509732,None,,,,,,,,,,,,,,,,,,,,,,,,,,,,,,,,,,,,,,,125,001,2023_Oct_10_1508,SpeechDraft1Carolyn_lessNoise_locIncl_Mach2,2021.2.3,60.015427645575414,
druid.wav,druid.mpg,druid,1,A,Pink_Noise_1_1.wav,Pink_Noise_1_2.wav,,,,,,,,,,,,,,,0,31,31,15,,,,,,,,,,,,,,,,,,,,,,,294.5278573189862,None,296.02778298198245,None,297.39435492502525,None,druid,297.39435492502525,None,return,3.122841404983774,297.47772297798656,None,,,,,,,,,,,,,,,,,,,,,,,,,,,,,,,,,,,,,,,125,001,2023_Oct_10_1508,SpeechDraft1Carolyn_lessNoise_locIncl_Mach2,2021.2.3,60.015427645575414,
bridge.wav,bridge.mpg,bridge,6,AV,Pink_Noise_6_1.wav,Pink_Noise_6_2.wav,,,,,,,,,,,,,,,0,32,32,74,,,,,,,,,,,,,,,,,,,,,,,300.62772419303656,None,302.1274605661165,None,303.51098906295374,None,bridge,303.51098906295374,None,return,6.438125300919637,303.59435734315775,None,,,,,,,,,,,,,,,,,,,,,,,,,,,,,,,,,,,,,,,125,001,2023_Oct_10_1508,SpeechDraft1Carolyn_lessNoise_locIncl_Mach2,2021.2.3,60.015427645575414,
birth.wav,birth.mpg,birth,5,A,Pink_Noise_5_1.wav,Pink_Noise_5_2.wav,,,,,,,,,,,,,,,0,33,33,6,,,,,,,,,,,,,,,,,,,,,,,310.06105810496956,None,311.5607717339881,None,312.94454835914075,None,"wood
",312.94454835914075,None,return,6.868751866975799,313.0277479661163,None,,,,,,,,,,,,,,,,,,,,,,,,,,,,,,,,,,,,,,,125,001,2023_Oct_10_1508,SpeechDraft1Carolyn_lessNoise_locIncl_Mach2,2021.2.3,60.015427645575414,
belch.wav,belch.mpg,belch,6,AV,Pink_Noise_6_1.wav,Pink_Noise_6_2.wav,,,,,,,,,,,,,,,0,34,34,100,,,,,,,,,,,,,,,,,,,,,,,319.9277406320907,None,321.42746255896054,None,322.81102281203493,None,bench,322.81102281203493,None,return,2.241847102995962,322.8946211130824,None,,,,,,,,,,,,,,,,,,,,,,,,,,,,,,,,,,,,,,,125,001,2023_Oct_10_1508,SpeechDraft1Carolyn_lessNoise_locIncl_Mach2,2021.2.3,60.015427645575414,
beast.wav,beast.mpg,beast,1,AV,Pink_Noise_1_1.wav,Pink_Noise_1_2.wav,,,,,,,,,,,,,,,0,35,35,78,,,,,,,,,,,,,,,,,,,,,,,325.1610918280203,None,326.6445131029468,None,328.027636080049,None,"beast
",328.027636080049,None,return,1.7692961120046675,328.1111329430714,None,,,,,,,,,,,,,,,,,,,,,,,,,,,,,,,,,,,,,,,125,001,2023_Oct_10_1508,SpeechDraft1Carolyn_lessNoise_locIncl_Mach2,2021.2.3,60.015427645575414,
feud.wav,feud.mpg,feud,6,A,Pink_Noise_6_1.wav,Pink_Noise_6_2.wav,,,,,,,,,,,,,,,0,36,36,57,,,,,,,,,,,,,,,,,,,,,,,329.9110753759742,None,331.4108314909972,None,332.7944320810493,None,cue,332.7944320810493,None,return,3.506766265956685,332.87777065997943,None,,,,,,,,,,,,,,,,,,,,,,,,,,,,,,,,,,,,,,,125,001,2023_Oct_10_1508,SpeechDraft1Carolyn_lessNoise_locIncl_Mach2,2021.2.3,60.015427645575414,
blank.wav,blank.mpg,blank,6,A,Pink_Noise_6_1.wav,Pink_Noise_6_2.wav,,,,,,,,,,,,,,,0,37,37,16,,,,,,,,,,,,,,,,,,,,,,,336.411113047041,None,337.9108277859632,None,339.2945987449493,None,"run
",339.2945987449493,None,return,1.734673366183415,339.3777832230553,None,,,,,,,,,,,,,,,,,,,,,,,,,,,,,,,,,,,,,,,125,001,2023_Oct_10_1508,SpeechDraft1Carolyn_lessNoise_locIncl_Mach2,2021.2.3,60.015427645575414,
nice.wav,nice.mpg,nice,2,A,Pink_Noise_2_1.wav,Pink_Noise_2_2.wav,,,,,,,,,,,,,,,0,38,38,58,,,,,,,,,,,,,,,,,,,,,,,341.14443441014737,None,342.6274825730361,None,344.0111393900588,None,"nice
",344.0111393900588,None,return,7.418026169994846,344.094420731999,None,,,,,,,,,,,,,,,,,,,,,,,,,,,,,,,,,,,,,,,125,001,2023_Oct_10_1508,SpeechDraft1Carolyn_lessNoise_locIncl_Mach2,2021.2.3,60.015427645575414,
brick.wav,brick.mpg,brick,2,AV,Pink_Noise_2_1.wav,Pink_Noise_2_2.wav,,,,,,,,,,,,,,,0,39,39,111,,,,,,,,,,,,,,,,,,,,,,,351.544416483026,None,353.0274752920959,None,354.41115625808015,None,"brick
",354.41115625808015,None,return,4.634013728937134,354.49444078607485,None,,,,,,,,,,,,,,,,,,,,,,,,,,,,,,,,,,,,,,,125,001,2023_Oct_10_1508,SpeechDraft1Carolyn_lessNoise_locIncl_Mach2,2021.2.3,60.015427645575414,
stone.wav,stone.mpg,stone,4,A,Pink_Noise_4_1.wav,Pink_Noise_4_2.wav,,,,,,,,,,,,,,,0,40,40,50,,,,,,,,,,,,,,,,,,,,,,,359.1610668699723,None,360.6608973040711,None,362.0444709020667,None,"stove
",362.0444709020667,None,return,3.984658069908619,362.1277996720746,None,,,,,,,,,,,,,,,,,,,,,,,,,,,,,,,,,,,,,,,125,001,2023_Oct_10_1508,SpeechDraft1Carolyn_lessNoise_locIncl_Mach2,2021.2.3,60.015427645575414,
goat.wav,goat.mpg,goat,3,A,Pink_Noise_3_1.wav,Pink_Noise_3_2.wav,,,,,,,,,,,,,,,0,41,41,35,,,,,,,,,,,,,,,,,,,,,,,366.14446727209724,None,367.6442651010584,None,369.0278515450191,None,goat,369.0278515450191,None,return,9.425295496825129,369.1111612841487,None,,,,,,,,,,,,,,,,,,,,,,,,,,,,,,,,,,,,,,,125,001,2023_Oct_10_1508,SpeechDraft1Carolyn_lessNoise_locIncl_Mach2,2021.2.3,60.015427645575414,
bust.wav,bust.mpg,bust,6,AV,Pink_Noise_6_1.wav,Pink_Noise_6_2.wav,,,,,,,,,,,,,,,0,42,42,95,,,,,,,,,,,,,,,,,,,,,,,378.5611546600703,None,380.06088997400366,None,381.4444297531154,None,bus,381.4444297531154,None,return,2.70475687389262,381.52781894104555,None,,,,,,,,,,,,,,,,,,,,,,,,,,,,,,,,,,,,,,,125,001,2023_Oct_10_1508,SpeechDraft1Carolyn_lessNoise_locIncl_Mach2,2021.2.3,60.015427645575414,
crawl.wav,crawl.mpg,crawl,1,A,Pink_Noise_1_1.wav,Pink_Noise_1_2.wav,,,,,,,,,,,,,,,0,43,43,49,,,,,,,,,,,,,,,,,,,,,,,384.2611180481035,None,385.74516173102893,None,387.1278763730079,None,crawl,387.1278763730079,None,return,6.021323040127754,387.21115439012647,None,,,,,,,,,,,,,,,,,,,,,,,,,,,,,,,,,,,,,,,125,001,2023_Oct_10_1508,SpeechDraft1Carolyn_lessNoise_locIncl_Mach2,2021.2.3,60.015427645575414,
grail.wav,grail.mpg,grail,2,AV,Pink_Noise_2_1.wav,Pink_Noise_2_2.wav,,,,,,,,,,,,,,,0,44,44,94,,,,,,,,,,,,,,,,,,,,,,,393.26124987402,None,394.7611615189817,None,396.1444423440844,None,grail,396.1444423440844,None,return,4.932684218976647,396.22784129413776,None,,,,,,,,,,,,,,,,,,,,,,,,,,,,,,,,,,,,,,,125,001,2023_Oct_10_1508,SpeechDraft1Carolyn_lessNoise_locIncl_Mach2,2021.2.3,60.015427645575414,
oats.wav,oats.mpg,oats,6,AV,Pink_Noise_6_1.wav,Pink_Noise_6_2.wav,,,,,,,,,,,,,,,0,45,45,98,,,,,,,,,,,,,,,,,,,,,,,401.17780797416344,None,402.67747495905496,None,404.0611346079968,None,goats,404.0611346079968,None,return,4.703902157023549,404.14454573299736,None,,,,,,,,,,,,,,,,,,,,,,,,,,,,,,,,,,,,,,,125,001,2023_Oct_10_1508,SpeechDraft1Carolyn_lessNoise_locIncl_Mach2,2021.2.3,60.015427645575414,
thrown.wav,thrown.mpg,thrown,4,AV,Pink_Noise_4_1.wav,Pink_Noise_4_2.wav,,,,,,,,,,,,,,,0,46,46,66,,,,,,,,,,,,,,,,,,,,,,,408.87783497502096,None,410.36139207100496,None,411.74452711013146,None,"thrown
",411.74452711013146,None,return,4.668565530097112,411.82790123601444,None,,,,,,,,,,,,,,,,,,,,,,,,,,,,,,,,,,,,,,,125,001,2023_Oct_10_1508,SpeechDraft1Carolyn_lessNoise_locIncl_Mach2,2021.2.3,60.015427645575414,
flask.wav,flask.mpg,flask,1,AV,Pink_Noise_1_1.wav,Pink_Noise_1_2.wav,,,,,,,,,,,,,,,0,47,47,115,,,,,,,,,,,,,,,,,,,,,,,416.5279611540027,None,418.0285629760474,None,419.41137073514983,None,flask,419.41137073514983,None,return,3.306033531902358,419.4945104869548,None,,,,,,,,,,,,,,,,,,,,,,,,,,,,,,,,,,,,,,,125,001,2023_Oct_10_1508,SpeechDraft1Carolyn_lessNoise_locIncl_Mach2,2021.2.3,60.015427645575414,
beam.wav,beam.mpg,beam,4,AV,Pink_Noise_4_1.wav,Pink_Noise_4_2.wav,,,,,,,,,,,,,,,0,48,48,68,,,,,,,,,,,,,,,,,,,,,,,422.82786120916717,None,424.31172428512946,None,425.6945067550987,None,"beam
",425.6945067550987,None,return,6.134537759004161,425.7779318189714,None,,,,,,,,,,,,,,,,,,,,,,,,,,,,,,,,,,,,,,,125,001,2023_Oct_10_1508,SpeechDraft1Carolyn_lessNoise_locIncl_Mach2,2021.2.3,60.015427645575414,
funk.wav,funk.mpg,funk,1,A,Pink_Noise_1_1.wav,Pink_Noise_1_2.wav,,,,,,,,,,,,,,,0,49,49,1,,,,,,,,,,,,,,,,,,,,,,,431.9444982490968,None,433.44430607603863,None,434.8279932900332,None,"funk
",434.8279932900332,None,return,2.2009853560011834,434.9114778339863,None,,,,,,,,,,,,,,,,,,,,,,,,,,,,,,,,,,,,,,,125,001,2023_Oct_10_1508,SpeechDraft1Carolyn_lessNoise_locIncl_Mach2,2021.2.3,60.015427645575414,
dust.wav,dust.mpg,dust,6,A,Pink_Noise_6_1.wav,Pink_Noise_6_2.wav,,,,,,,,,,,,,,,0,50,50,45,,,,,,,,,,,,,,,,,,,,,,,437.1446431481745,None,438.6279362440109,None,440.0112253970001,None,desk,440.0112253970001,None,return,6.441830429015681,440.0946041820571,None,,,,,,,,,,,,,,,,,,,,,,,,,,,,,,,,,,,,,,,125,001,2023_Oct_10_1508,SpeechDraft1Carolyn_lessNoise_locIncl_Mach2,2021.2.3,60.015427645575414,
hit.wav,hit.mpg,hit,3,AV,Pink_Noise_3_1.wav,Pink_Noise_3_2.wav,,,,,,,,,,,,,,,0,51,51,60,,,,,,,,,,,,,,,,,,,,,,,446.56132964603603,None,448.06100712902844,None,449.44448295608163,None,hit,449.44448295608163,None,return,2.0486200731247663,449.52790520899,None,,,,,,,,,,,,,,,,,,,,,,,,,,,,,,,,,,,,,,,125,001,2023_Oct_10_1508,SpeechDraft1Carolyn_lessNoise_locIncl_Mach2,2021.2.3,60.015427645575414,
cork.wav,cork.mpg,cork,2,A,Pink_Noise_2_1.wav,Pink_Noise_2_2.wav,,,,,,,,,,,,,,,0,52,52,36,,,,,,,,,,,,,,,,,,,,,,,451.59462287905626,None,453.0780370400753,None,454.46137626096606,None,cork,454.46137626096606,None,return,5.0959175899624825,454.5445507860277,None,,,,,,,,,,,,,,,,,,,,,,,,,,,,,,,,,,,,,,,125,001,2023_Oct_10_1508,SpeechDraft1Carolyn_lessNoise_locIncl_Mach2,2021.2.3,60.015427645575414,
fun.wav,fun.mpg,fun,5,A,Pink_Noise_5_1.wav,Pink_Noise_5_2.wav,,,,,,,,,,,,,,,0,53,53,7,,,,,,,,,,,,,,,,,,,,,,,459.6612564390525,None,461.16112870397046,None,462.5445361100137,None,bus,462.5445361100137,None,return,6.180623216088861,462.62792100198567,None,,,,,,,,,,,,,,,,,,,,,,,,,,,,,,,,,,,,,,,125,001,2023_Oct_10_1508,SpeechDraft1Carolyn_lessNoise_locIncl_Mach2,2021.2.3,60.015427645575414,
cent.wav,cent.mpg,cent,6,A,Pink_Noise_6_1.wav,Pink_Noise_6_2.wav,,,,,,,,,,,,,,,0,54,54,53,,,,,,,,,,,,,,,,,,,,,,,468.82807897403836,None,470.3126942280214,None,471.69467405602336,None,torque,471.69467405602336,None,return,18.046609478071332,471.77799226902425,None,,,,,,,,,,,,,,,,,,,,,,,,,,,,,,,,,,,,,,,125,001,2023_Oct_10_1508,SpeechDraft1Carolyn_lessNoise_locIncl_Mach2,2021.2.3,60.015427645575414,
carve.wav,carve.mpg,carve,4,A,Pink_Noise_4_1.wav,Pink_Noise_4_2.wav,,,,,,,,,,,,,,,0,55,55,43,,,,,,,,,,,,,,,,,,,,,,,489.84466485097073,None,491.344419577159,None,492.7280164430849,None,"car
",492.7280164430849,None,return,1.8531611838843673,492.81128596910276,None,,,,,,,,,,,,,,,,,,,,,,,,,,,,,,,,,,,,,,,125,001,2023_Oct_10_1508,SpeechDraft1Carolyn_lessNoise_locIncl_Mach2,2021.2.3,60.015427645575414,
coast.wav,coast.mpg,coast,3,A,Pink_Noise_3_1.wav,Pink_Noise_3_2.wav,,,,,,,,,,,,,,,0,56,56,41,,,,,,,,,,,,,,,,,,,,,,,494.6945974251721,None,496.17846493795514,None,497.5612714760937,None,coast,497.5612714760937,None,return,4.003820511046797,497.64463786315173,None,,,,,,,,,,,,,,,,,,,,,,,,,,,,,,,,,,,,,,,125,001,2023_Oct_10_1508,SpeechDraft1Carolyn_lessNoise_locIncl_Mach2,2021.2.3,60.015427645575414,
fool.wav,fool.mpg,fool,1,AV,Pink_Noise_1_1.wav,Pink_Noise_1_2.wav,,,,,,,,,,,,,,,0,57,57,89,,,,,,,,,,,,,,,,,,,,,,,501.6780467471108,None,503.16151309898123,None,504.5445897439495,None,fool,504.5445897439495,None,return,1.9724415941163898,504.628065593075,None,,,,,,,,,,,,,,,,,,,,,,,,,,,,,,,,,,,,,,,125,001,2023_Oct_10_1508,SpeechDraft1Carolyn_lessNoise_locIncl_Mach2,2021.2.3,60.015427645575414,
dark.wav,dark.mpg,dark,3,AV,Pink_Noise_3_1.wav,Pink_Noise_3_2.wav,,,,,,,,,,,,,,,0,58,58,103,,,,,,,,,,,,,,,,,,,,,,,506.6278689589817,None,508.12775578699075,None,509.5113710621372,None,dark,509.5113710621372,None,return,3.8538320190273225,509.594622625038,None,,,,,,,,,,,,,,,,,,,,,,,,,,,,,,,,,,,,,,,125,001,2023_Oct_10_1508,SpeechDraft1Carolyn_lessNoise_locIncl_Mach2,2021.2.3,60.015427645575414,
ball.wav,ball.mpg,ball,1,A,Pink_Noise_1_1.wav,Pink_Noise_1_2.wav,,,,,,,,,,,,,,,0,59,59,52,,,,,,,,,,,,,,,,,,,,,,,513.4780350711662,None,514.9614103641361,None,516.3447166599799,None,ball,516.3447166599799,None,return,2.148507419973612,516.4280211231671,None,,,,,,,,,,,,,,,,,,,,,,,,,,,,,,,,,,,,,,,125,001,2023_Oct_10_1508,SpeechDraft1Carolyn_lessNoise_locIncl_Mach2,2021.2.3,60.015427645575414,
bunch.wav,bunch.mpg,bunch,6,AV,Pink_Noise_6_1.wav,Pink_Noise_6_2.wav,,,,,,,,,,,,,,,0,60,60,112,,,,,,,,,,,,,,,,,,,,,,,518.5947466760408,None,520.0944931099657,None,521.4779714420438,None,brunch,521.4779714420438,None,return,11.679077548906207,521.5614054501057,None,,,,,,,,,,,,,,,,,,,,,,,,,,,,,,,,,,,,,,,125,001,2023_Oct_10_1508,SpeechDraft1Carolyn_lessNoise_locIncl_Mach2,2021.2.3,60.015427645575414,
gulf.wav,gulf.mpg,gulf,1,AV,Pink_Noise_1_1.wav,Pink_Noise_1_2.wav,,,,,,,,,,,,,,,0,61,61,116,,,,,,,,,,,,,,,,,,,,,,,533.2614119839855,None,534.7610926739872,None,536.1446468050126,None,golf,536.1446468050126,None,return,4.972504873061553,536.2280576080084,None,,,,,,,,,,,,,,,,,,,,,,,,,,,,,,,,,,,,,,,125,001,2023_Oct_10_1508,SpeechDraft1Carolyn_lessNoise_locIncl_Mach2,2021.2.3,60.015427645575414,
crisp.wav,crisp.mpg,crisp,2,AV,Pink_Noise_2_1.wav,Pink_Noise_2_2.wav,,,,,,,,,,,,,,,0,62,62,118,,,,,,,,,,,,,,,,,,,,,,,541.2280940050259,None,542.7279757231008,None,544.1113539109938,None,"crisp
",544.1113539109938,None,return,4.301795945037156,544.1946504150983,None,,,,,,,,,,,,,,,,,,,,,,,,,,,,,,,,,,,,,,,125,001,2023_Oct_10_1508,SpeechDraft1Carolyn_lessNoise_locIncl_Mach2,2021.2.3,60.015427645575414,
frail.wav,frail.mpg,frail,5,AV,Pink_Noise_5_1.wav,Pink_Noise_5_2.wav,,,,,,,,,,,,,,,0,63,63,108,,,,,,,,,,,,,,,,,,,,,,,548.5281242481433,None,550.0280639191624,None,551.4112797479611,None,tell,551.4112797479611,None,return,15.497792621143162,551.4946695980616,None,,,,,,,,,,,,,,,,,,,,,,,,,,,,,,,,,,,,,,,125,001,2023_Oct_10_1508,SpeechDraft1Carolyn_lessNoise_locIncl_Mach2,2021.2.3,60.015427645575414,
deal.wav,deal.mpg,deal,2,A,Pink_Noise_2_1.wav,Pink_Noise_2_2.wav,,,,,,,,,,,,,,,0,64,64,17,,,,,,,,,,,,,,,,,,,,,,,567.0114297100808,None,568.511214270955,None,569.894800339127,None,deal,569.894800339127,None,return,2.214362778933719,569.9780885749497,None,,,,,,,,,,,,,,,,,,,,,,,,,,,,,,,,,,,,,,,125,001,2023_Oct_10_1508,SpeechDraft1Carolyn_lessNoise_locIncl_Mach2,2021.2.3,60.015427645575414,
none.wav,none.mpg,none,3,AV,Pink_Noise_3_1.wav,Pink_Noise_3_2.wav,,,,,,,,,,,,,,,0,65,65,96,,,,,,,,,,,,,,,,,,,,,,,572.2114151611459,None,573.6959401411004,None,575.07804175606,None,none,575.07804175606,None,return,2.12710617412813,575.1613730699755,None,,,,,,,,,,,,,,,,,,,,,,,,,,,,,,,,,,,,,,,125,001,2023_Oct_10_1508,SpeechDraft1Carolyn_lessNoise_locIncl_Mach2,2021.2.3,60.015427645575414,
bell.wav,bell.mpg,bell,4,A,Pink_Noise_4_1.wav,Pink_Noise_4_2.wav,,,,,,,,,,,,,,,0,66,66,51,,,,,,,,,,,,,,,,,,,,,,,577.311458965065,None,578.8112013989594,None,580.1947740591131,None,"bow
",580.1947740591131,None,return,5.0183076239191,580.2781131609809,None,,,,,,,,,,,,,,,,,,,,,,,,,,,,,,,,,,,,,,,125,001,2023_Oct_10_1508,SpeechDraft1Carolyn_lessNoise_locIncl_Mach2,2021.2.3,60.015427645575414,
cope.wav,cope.mpg,cope,4,AV,Pink_Noise_4_1.wav,Pink_Noise_4_2.wav,,,,,,,,,,,,,,,0,67,67,109,,,,,,,,,,,,,,,,,,,,,,,585.328054987127,None,586.8278642010409,None,588.2114390830975,None,cork,588.2114390830975,None,return,5.513784842798486,588.2947746340651,None,,,,,,,,,,,,,,,,,,,,,,,,,,,,,,,,,,,,,,,125,001,2023_Oct_10_1508,SpeechDraft1Carolyn_lessNoise_locIncl_Mach2,2021.2.3,60.015427645575414,
tear.wav,tear.mpg,tear,2,A,Pink_Noise_2_1.wav,Pink_Noise_2_2.wav,,,,,,,,,,,,,,,0,68,68,32,,,,,,,,,,,,,,,,,,,,,,,593.8281387551688,None,595.3281059239525,None,596.7114797099493,None,tear,596.7114797099493,None,return,2.813742110040039,596.7948046040256,None,,,,,,,,,,,,,,,,,,,,,,,,,,,,,,,,,,,,,,,125,001,2023_Oct_10_1508,SpeechDraft1Carolyn_lessNoise_locIncl_Mach2,2021.2.3,60.015427645575414,
golf.wav,golf.mpg,golf,3,AV,Pink_Noise_3_1.wav,Pink_Noise_3_2.wav,,,,,,,,,,,,,,,0,69,69,81,,,,,,,,,,,,,,,,,,,,,,,599.6281262561679,None,601.127882916946,None,602.5113384451251,None,"golf
",602.5113384451251,None,return,4.485642267158255,602.594832370989,None,,,,,,,,,,,,,,,,,,,,,,,,,,,,,,,,,,,,,,,125,001,2023_Oct_10_1508,SpeechDraft1Carolyn_lessNoise_locIncl_Mach2,2021.2.3,60.015427645575414,
grant.wav,grant.mpg,grant,3,A,Pink_Noise_3_1.wav,Pink_Noise_3_2.wav,,,,,,,,,,,,,,,0,70,70,31,,,,,,,,,,,,,,,,,,,,,,,607.1115340010729,None,608.6114604100585,None,609.9948074179702,None,grant,609.9948074179702,None,return,3.290411378024146,610.0781416550744,None,,,,,,,,,,,,,,,,,,,,,,,,,,,,,,,,,,,,,,,125,001,2023_Oct_10_1508,SpeechDraft1Carolyn_lessNoise_locIncl_Mach2,2021.2.3,60.015427645575414,
gain.wav,gain.mpg,gain,3,AV,Pink_Noise_3_1.wav,Pink_Noise_3_2.wav,,,,,,,,,,,,,,,0,71,71,110,,,,,,,,,,,,,,,,,,,,,,,613.3948415231425,None,614.8796660921071,None,616.2615905390121,None,gain,616.2615905390121,None,return,8.999273105990142,616.34525415604,None,,,,,,,,,,,,,,,,,,,,,,,,,,,,,,,,,,,,,,,125,001,2023_Oct_10_1508,SpeechDraft1Carolyn_lessNoise_locIncl_Mach2,2021.2.3,60.015427645575414,
boil.wav,boil.mpg,boil,5,AV,Pink_Noise_5_1.wav,Pink_Noise_5_2.wav,,,,,,,,,,,,,,,0,72,72,86,,,,,,,,,,,,,,,,,,,,,,,625.3615344210993,None,626.8615715131164,None,628.2281511770561,None,win,628.2281511770561,None,return,5.289021112024784,628.3115263171494,None,,,,,,,,,,,,,,,,,,,,,,,,,,,,,,,,,,,,,,,125,001,2023_Oct_10_1508,SpeechDraft1Carolyn_lessNoise_locIncl_Mach2,2021.2.3,60.015427645575414,
gulp.wav,gulp.mpg,gulp,4,A,Pink_Noise_4_1.wav,Pink_Noise_4_2.wav,,,,,,,,,,,,,,,0,73,73,10,,,,,,,,,,,,,,,,,,,,,,,633.628152652178,None,635.1278664211277,None,636.5115464201663,None,gulf,636.5115464201663,None,return,12.693624826148152,636.5948106839787,None,,,,,,,,,,,,,,,,,,,,,,,,,,,,,,,,,,,,,,,125,001,2023_Oct_10_1508,SpeechDraft1Carolyn_lessNoise_locIncl_Mach2,2021.2.3,60.015427645575414,
broad.wav,broad.mpg,broad,4,A,Pink_Noise_4_1.wav,Pink_Noise_4_2.wav,,,,,,,,,,,,,,,0,74,74,56,,,,,,,,,,,,,,,,,,,,,,,649.3115986410994,None,650.8112348811701,None,652.1950411510188,None,fraud,652.1950411510188,None,return,2.914219078840688,652.2782611520961,None,,,,,,,,,,,,,,,,,,,,,,,,,,,,,,,,,,,,,,,125,001,2023_Oct_10_1508,SpeechDraft1Carolyn_lessNoise_locIncl_Mach2,2021.2.3,60.015427645575414,
bloat.wav,bloat.mpg,bloat,6,AV,Pink_Noise_6_1.wav,Pink_Noise_6_2.wav,,,,,,,,,,,,,,,0,75,75,119,,,,,,,,,,,,,,,,,,,,,,,655.2115272700321,None,656.7113115601242,None,658.0948569171596,None,wrote,658.0948569171596,None,return,8.05413599894382,658.1783011320513,None,,,,,,,,,,,,,,,,,,,,,,,,,,,,,,,,,,,,,,,125,001,2023_Oct_10_1508,SpeechDraft1Carolyn_lessNoise_locIncl_Mach2,2021.2.3,60.015427645575414,
clog.wav,clog.mpg,clog,5,AV,Pink_Noise_5_1.wav,Pink_Noise_5_2.wav,,,,,,,,,,,,,,,0,76,76,76,,,,,,,,,,,,,,,,,,,,,,,666.2615588491317,None,667.7613753280602,None,669.1448224610649,None,climb,669.1448224610649,None,return,4.292051563039422,669.2283814561088,None,,,,,,,,,,,,,,,,,,,,,,,,,,,,,,,,,,,,,,,125,001,2023_Oct_10_1508,SpeechDraft1Carolyn_lessNoise_locIncl_Mach2,2021.2.3,60.015427645575414,
quit.wav,quit.mpg,quit,5,A,Pink_Noise_5_1.wav,Pink_Noise_5_2.wav,,,,,,,,,,,,,,,0,77,77,11,,,,,,,,,,,,,,,,,,,,,,,673.5448815349955,None,675.0613070831168,None,676.4448959019501,None,crisp,676.4448959019501,None,return,8.464189500082284,676.5282831140794,None,,,,,,,,,,,,,,,,,,,,,,,,,,,,,,,,,,,,,,,125,001,2023_Oct_10_1508,SpeechDraft1Carolyn_lessNoise_locIncl_Mach2,2021.2.3,60.015427645575414,
cycle.wav,cycle.mpg,cycle,1,AV,Pink_Noise_1_1.wav,Pink_Noise_1_2.wav,,,,,,,,,,,,,,,0,78,78,62,,,,,,,,,,,,,,,,,,,,,,,685.0115639469586,None,686.5112472320907,None,687.8949116789736,None,cycle,687.8949116789736,None,return,3.2062788219191134,687.9782781570684,None,,,,,,,,,,,,,,,,,,,,,,,,,,,,,,,,,,,,,,,125,001,2023_Oct_10_1508,SpeechDraft1Carolyn_lessNoise_locIncl_Mach2,2021.2.3,60.015427645575414,
pike.wav,pike.mpg,pike,4,A,Pink_Noise_4_1.wav,Pink_Noise_4_2.wav,,,,,,,,,,,,,,,0,79,79,39,,,,,,,,,,,,,,,,,,,,,,,691.2116247301456,None,692.7112974801566,None,694.0951754769776,None,pike,694.0951754769776,None,return,7.757992530008778,694.1784487450495,None,,,,,,,,,,,,,,,,,,,,,,,,,,,,,,,,,,,,,,,125,001,2023_Oct_10_1508,SpeechDraft1Carolyn_lessNoise_locIncl_Mach2,2021.2.3,60.015427645575414,
crowd.wav,crowd.mpg,crowd,3,A,Pink_Noise_3_1.wav,Pink_Noise_3_2.wav,,,,,,,,,,,,,,,0,80,80,4,,,,,,,,,,,,,,,,,,,,,,,701.9615722391754,None,703.4613283951767,None,704.8450855130795,None,crowd,704.8450855130795,None,return,3.7761549479328096,704.9282876581419,None,,,,,,,,,,,,,,,,,,,,,,,,,,,,,,,,,,,,,,,125,001,2023_Oct_10_1508,SpeechDraft1Carolyn_lessNoise_locIncl_Mach2,2021.2.3,60.015427645575414,
broil.wav,broil.mpg,broil,1,A,Pink_Noise_1_1.wav,Pink_Noise_1_2.wav,,,,,,,,,,,,,,,0,81,81,0,,,,,,,,,,,,,,,,,,,,,,,708.728262493154,None,710.2447210459504,None,711.61168309208,None,broil,711.61168309208,None,return,3.1375123399775475,711.6949535030872,None,,,,,,,,,,,,,,,,,,,,,,,,,,,,,,,,,,,,,,,125,001,2023_Oct_10_1508,SpeechDraft1Carolyn_lessNoise_locIncl_Mach2,2021.2.3,60.015427645575414,
drab.wav,drab.mpg,drab,4,AV,Pink_Noise_4_1.wav,Pink_Noise_4_2.wav,,,,,,,,,,,,,,,0,82,82,117,,,,,,,,,,,,,,,,,,,,,,,714.8618296659552,None,716.3613671700004,None,717.7450513180811,None,drab,717.7450513180811,None,return,4.308001867029816,717.828440047102,None,,,,,,,,,,,,,,,,,,,,,,,,,,,,,,,,,,,,,,,125,001,2023_Oct_10_1508,SpeechDraft1Carolyn_lessNoise_locIncl_Mach2,2021.2.3,60.015427645575414,
ton.wav,ton.mpg,ton,2,A,Pink_Noise_2_1.wav,Pink_Noise_2_2.wav,,,,,,,,,,,,,,,0,83,83,21,,,,,,,,,,,,,,,,,,,,,,,722.1616433809977,None,723.6613624610472,None,725.0449533890933,None,tongue,725.0449533890933,None,return,4.376088130986318,725.1283467181493,None,,,,,,,,,,,,,,,,,,,,,,,,,,,,,,,,,,,,,,,125,001,2023_Oct_10_1508,SpeechDraft1Carolyn_lessNoise_locIncl_Mach2,2021.2.3,60.015427645575414,
gate.wav,gate.mpg,gate,3,A,Pink_Noise_3_1.wav,Pink_Noise_3_2.wav,,,,,,,,,,,,,,,0,84,84,55,,,,,,,,,,,,,,,,,,,,,,,729.5283099559601,None,731.0279535751324,None,732.4116764680948,None,gate,732.4116764680948,None,return,2.9453946258872747,732.4950603169855,None,,,,,,,,,,,,,,,,,,,,,,,,,,,,,,,,,,,,,,,125,001,2023_Oct_10_1508,SpeechDraft1Carolyn_lessNoise_locIncl_Mach2,2021.2.3,60.015427645575414,
cook.wav,cook.mpg,cook,2,AV,Pink_Noise_2_1.wav,Pink_Noise_2_2.wav,,,,,,,,,,,,,,,0,85,85,113,,,,,,,,,,,,,,,,,,,,,,,735.4616286880337,None,736.9781275950372,None,738.3449470750056,None,cook,738.3449470750056,None,return,2.1801630118861794,738.4283814870287,None,,,,,,,,,,,,,,,,,,,,,,,,,,,,,,,,,,,,,,,125,001,2023_Oct_10_1508,SpeechDraft1Carolyn_lessNoise_locIncl_Mach2,2021.2.3,60.015427645575414,
fate.wav,fate.mpg,fate,3,AV,Pink_Noise_3_1.wav,Pink_Noise_3_2.wav,,,,,,,,,,,,,,,0,86,86,87,,,,,,,,,,,,,,,,,,,,,,,740.6283207549714,None,742.14472157415,None,743.52828378696,None,"fate
",743.52828378696,None,return,3.4367120270617306,743.6117401411757,None,,,,,,,,,,,,,,,,,,,,,,,,,,,,,,,,,,,,,,,125,001,2023_Oct_10_1508,SpeechDraft1Carolyn_lessNoise_locIncl_Mach2,2021.2.3,60.015427645575414,
game.wav,game.mpg,game,2,A,Pink_Noise_2_1.wav,Pink_Noise_2_2.wav,,,,,,,,,,,,,,,0,87,87,22,,,,,,,,,,,,,,,,,,,,,,,747.0786167280748,None,748.5948923151009,None,749.9784862350207,None,"gain
",749.9784862350207,None,return,3.002753250999376,750.0617140750401,None,,,,,,,,,,,,,,,,,,,,,,,,,,,,,,,,,,,,,,,125,001,2023_Oct_10_1508,SpeechDraft1Carolyn_lessNoise_locIncl_Mach2,2021.2.3,60.015427645575414,
born.wav,born.mpg,born,6,A,Pink_Noise_6_1.wav,Pink_Noise_6_2.wav,,,,,,,,,,,,,,,0,88,88,8,,,,,,,,,,,,,,,,,,,,,,,753.095356603153,None,754.6114055779763,None,755.9949818670284,None,fell,755.9949818670284,None,return,5.289930131053552,756.0786134081427,None,,,,,,,,,,,,,,,,,,,,,,,,,,,,,,,,,,,,,,,125,001,2023_Oct_10_1508,SpeechDraft1Carolyn_lessNoise_locIncl_Mach2,2021.2.3,60.015427645575414,
craft.wav,craft.mpg,craft,2,AV,Pink_Noise_2_1.wav,Pink_Noise_2_2.wav,,,,,,,,,,,,,,,0,89,89,102,,,,,,,,,,,,,,,,,,,,,,,761.3949885801412,None,762.8946744201239,None,764.2783149529714,None,"craft
",764.2783149529714,None,return,2.550732997013256,764.36175082298,None,,,,,,,,,,,,,,,,,,,,,,,,,,,,,,,,,,,,,,,125,001,2023_Oct_10_1508,SpeechDraft1Carolyn_lessNoise_locIncl_Mach2,2021.2.3,60.015427645575414,
flip.wav,flip.mpg,flip,4,A,Pink_Noise_4_1.wav,Pink_Noise_4_2.wav,,,,,,,,,,,,,,,0,90,90,3,,,,,,,,,,,,,,,,,,,,,,,766.9449524930678,None,768.4447861961089,None,769.8284590370022,None,"brick
",769.8284590370022,None,return,4.416774207027629,769.9117510630749,None,,,,,,,,,,,,,,,,,,,,,,,,,,,,,,,,,,,,,,,125,001,2023_Oct_10_1508,SpeechDraft1Carolyn_lessNoise_locIncl_Mach2,2021.2.3,60.015427645575414,
roast.wav,roast.mpg,roast,1,AV,Pink_Noise_1_1.wav,Pink_Noise_1_2.wav,,,,,,,,,,,,,,,0,91,91,93,,,,,,,,,,,,,,,,,,,,,,,774.3617273101117,None,775.8781739240512,None,777.2616218971089,None,roast,777.2616218971089,None,return,2.4873032548930496,777.3451502721291,None,,,,,,,,,,,,,,,,,,,,,,,,,,,,,,,,,,,,,,,125,001,2023_Oct_10_1508,SpeechDraft1Carolyn_lessNoise_locIncl_Mach2,2021.2.3,60.015427645575414,
grand.wav,grand.mpg,grand,5,A,Pink_Noise_5_1.wav,Pink_Noise_5_2.wav,,,,,,,,,,,,,,,0,92,92,20,,,,,,,,,,,,,,,,,,,,,,,779.8617922230624,None,781.3780871981289,None,782.7617341121659,None,grail,782.7617341121659,None,return,2.915546353906393,782.8450178231578,None,,,,,,,,,,,,,,,,,,,,,,,,,,,,,,,,,,,,,,,125,001,2023_Oct_10_1508,SpeechDraft1Carolyn_lessNoise_locIncl_Mach2,2021.2.3,60.015427645575414,
fed.wav,fed.mpg,fed,2,A,Pink_Noise_2_1.wav,Pink_Noise_2_2.wav,,,,,,,,,,,,,,,0,93,93,26,,,,,,,,,,,,,,,,,,,,,,,785.7783965349663,None,787.2947622740176,None,788.6785930690821,None,ged,788.6785930690821,None,return,1.3747668820433319,788.7616757990327,None,,,,,,,,,,,,,,,,,,,,,,,,,,,,,,,,,,,,,,,125,001,2023_Oct_10_1508,SpeechDraft1Carolyn_lessNoise_locIncl_Mach2,2021.2.3,60.015427645575414,
fluent.wav,fluent.mpg,fluent,5,A,Pink_Noise_5_1.wav,Pink_Noise_5_2.wav,,,,,,,,,,,,,,,0,94,94,2,,,,,,,,,,,,,,,,,,,,,,,790.1617378820665,None,791.6622393880971,None,793.0452458590735,None,real,793.0452458590735,None,return,2.447958336910233,793.1285281721503,None,,,,,,,,,,,,,,,,,,,,,,,,,,,,,,,,,,,,,,,125,001,2023_Oct_10_1508,SpeechDraft1Carolyn_lessNoise_locIncl_Mach2,2021.2.3,60.015427645575414,
grin.wav,grin.mpg,grin,4,AV,Pink_Noise_4_1.wav,Pink_Noise_4_2.wav,,,,,,,,,,,,,,,0,95,95,105,,,,,,,,,,,,,,,,,,,,,,,795.5950919401366,None,797.0948692241218,None,798.4783179301303,None,grin,798.4783179301303,None,return,5.278657515067607,798.5618022580165,None,,,,,,,,,,,,,,,,,,,,,,,,,,,,,,,,,,,,,,,125,001,2023_Oct_10_1508,SpeechDraft1Carolyn_lessNoise_locIncl_Mach2,2021.2.3,60.015427645575414,
dice.wav,dice.mpg,dice,4,AV,Pink_Noise_4_1.wav,Pink_Noise_4_2.wav,,,,,,,,,,,,,,,0,96,96,114,,,,,,,,,,,,,,,,,,,,,,,803.8618283791002,None,805.361410878133,None,806.745183861116,None,dice,806.745183861116,None,return,4.18808666896075,806.8284228481352,None,,,,,,,,,,,,,,,,,,,,,,,,,,,,,,,,,,,,,,,125,001,2023_Oct_10_1508,SpeechDraft1Carolyn_lessNoise_locIncl_Mach2,2021.2.3,60.015427645575414,
grass.wav,grass.mpg,grass,3,A,Pink_Noise_3_1.wav,Pink_Noise_3_2.wav,,,,,,,,,,,,,,,0,97,97,30,,,,,,,,,,,,,,,,,,,,,,,811.0450794571079,None,812.5615265890956,None,813.945264272159,None,"grass
",813.945264272159,None,return,2.6680132600013167,814.0284379110672,None,,,,,,,,,,,,,,,,,,,,,,,,,,,,,,,,,,,,,,,125,001,2023_Oct_10_1508,SpeechDraft1Carolyn_lessNoise_locIncl_Mach2,2021.2.3,60.015427645575414,
badge.wav,badge.mpg,badge,4,AV,Pink_Noise_4_1.wav,Pink_Noise_4_2.wav,,,,,,,,,,,,,,,0,98,98,64,,,,,,,,,,,,,,,,,,,,,,,816.7285518050194,None,818.2448525470681,None,819.628760284977,None,badge,819.628760284977,None,return,2.5287513330113143,819.7117209101561,None,,,,,,,,,,,,,,,,,,,,,,,,,,,,,,,,,,,,,,,125,001,2023_Oct_10_1508,SpeechDraft1Carolyn_lessNoise_locIncl_Mach2,2021.2.3,60.015427645575414,
warmth.wav,warmth.mpg,warmth,6,A,Pink_Noise_6_1.wav,Pink_Noise_6_2.wav,,,,,,,,,,,,,,,0,99,99,25,,,,,,,,,,,,,,,,,,,,,,,822.2619244630914,None,823.778203858994,None,825.1618372660596,None,"walk
",825.1618372660596,None,return,2.6353067830204964,825.2451329361647,None,,,,,,,,,,,,,,,,,,,,,,,,,,,,,,,,,,,,,,,125,001,2023_Oct_10_1508,SpeechDraft1Carolyn_lessNoise_locIncl_Mach2,2021.2.3,60.015427645575414,
flex.wav,flex.mpg,flex,4,A,Pink_Noise_4_1.wav,Pink_Noise_4_2.wav,,,,,,,,,,,,,,,0,100,100,47,,,,,,,,,,,,,,,,,,,,,,,827.9118098551407,None,829.4281512680463,None,830.795267421985,None,flex,830.795267421985,None,return,3.4900432031136006,830.8784910009708,None,,,,,,,,,,,,,,,,,,,,,,,,,,,,,,,,,,,,,,,125,001,2023_Oct_10_1508,SpeechDraft1Carolyn_lessNoise_locIncl_Mach2,2021.2.3,60.015427645575414,
crew.wav,crew.mpg,crew,2,AV,Pink_Noise_2_1.wav,Pink_Noise_2_2.wav,,,,,,,,,,,,,,,0,101,101,84,,,,,,,,,,,,,,,,,,,,,,,834.3951817359775,None,835.8950821049511,None,837.2785733870696,None,crew,837.2785733870696,None,return,2.0306643689982593,837.361836811062,None,,,,,,,,,,,,,,,,,,,,,,,,,,,,,,,,,,,,,,,125,001,2023_Oct_10_1508,SpeechDraft1Carolyn_lessNoise_locIncl_Mach2,2021.2.3,60.015427645575414,
bail.wav,bail.mpg,bail,5,AV,Pink_Noise_5_1.wav,Pink_Noise_5_2.wav,,,,,,,,,,,,,,,0,102,102,91,,,,,,,,,,,,,,,,,,,,,,,839.4117690960411,None,840.9115916190203,None,842.2951464671642,None,"bail
",842.2951464671642,None,return,2.8699906810652465,842.3784623639658,None,,,,,,,,,,,,,,,,,,,,,,,,,,,,,,,,,,,,,,,125,001,2023_Oct_10_1508,SpeechDraft1Carolyn_lessNoise_locIncl_Mach2,2021.2.3,60.015427645575414,
grip.wav,grip.mpg,grip,5,A,Pink_Noise_5_1.wav,Pink_Noise_5_2.wav,,,,,,,,,,,,,,,0,103,103,54,,,,,,,,,,,,,,,,,,,,,,,845.2784706831444,None,846.7781748950947,None,848.1618121790234,None,grit,848.1618121790234,None,return,2.179341749055311,848.2451446929481,None,,,,,,,,,,,,,,,,,,,,,,,,,,,,,,,,,,,,,,,125,001,2023_Oct_10_1508,SpeechDraft1Carolyn_lessNoise_locIncl_Mach2,2021.2.3,60.015427645575414,
cry.wav,cry.mpg,cry,1,AV,Pink_Noise_1_1.wav,Pink_Noise_1_2.wav,,,,,,,,,,,,,,,0,104,104,107,,,,,,,,,,,,,,,,,,,,,,,850.4451727829874,None,851.9453578409739,None,853.3284522220492,None,cry,853.3284522220492,None,return,2.0764930059667677,853.4119821630884,None,,,,,,,,,,,,,,,,,,,,,,,,,,,,,,,,,,,,,,,125,001,2023_Oct_10_1508,SpeechDraft1Carolyn_lessNoise_locIncl_Mach2,2021.2.3,60.015427645575414,
fill.wav,fill.mpg,fill,5,AV,Pink_Noise_5_1.wav,Pink_Noise_5_2.wav,,,,,,,,,,,,,,,0,105,105,83,,,,,,,,,,,,,,,,,,,,,,,855.5119145179633,None,857.0449766609818,None,858.4286132859997,None,"fill
",858.4286132859997,None,return,4.56868094089441,858.5117671820335,None,,,,,,,,,,,,,,,,,,,,,,,,,,,,,,,,,,,,,,,125,001,2023_Oct_10_1508,SpeechDraft1Carolyn_lessNoise_locIncl_Mach2,2021.2.3,60.015427645575414,
dope.wav,dope.mpg,dope,4,A,Pink_Noise_4_1.wav,Pink_Noise_4_2.wav,,,,,,,,,,,,,,,0,106,106,18,,,,,,,,,,,,,,,,,,,,,,,863.1118050089572,None,864.6283636819571,None,866.0283983361442,None,goat,866.0283983361442,None,return,4.129345603985712,866.0951076871715,None,,,,,,,,,,,,,,,,,,,,,,,,,,,,,,,,,,,,,,,125,001,2023_Oct_10_1508,SpeechDraft1Carolyn_lessNoise_locIncl_Mach2,2021.2.3,60.015427645575414,
cause.wav,cause.mpg,cause,3,AV,Pink_Noise_3_1.wav,Pink_Noise_3_2.wav,,,,,,,,,,,,,,,0,107,107,88,,,,,,,,,,,,,,,,,,,,,,,870.2452403069474,None,871.7455785861239,None,873.1285561351106,None,cause,873.1285561351106,None,return,3.8604625300504267,873.2119987620972,None,,,,,,,,,,,,,,,,,,,,,,,,,,,,,,,,,,,,,,,125,001,2023_Oct_10_1508,SpeechDraft1Carolyn_lessNoise_locIncl_Mach2,2021.2.3,60.015427645575414,
beef.wav,beef.mpg,beef,6,A,Pink_Noise_6_1.wav,Pink_Noise_6_2.wav,,,,,,,,,,,,,,,0,108,108,13,,,,,,,,,,,,,,,,,,,,,,,877.0952053070068,None,878.5963690611534,None,879.9786259459797,None,will,879.9786259459797,None,return,2.490646201884374,880.0618830439635,None,,,,,,,,,,,,,,,,,,,,,,,,,,,,,,,,,,,,,,,125,001,2023_Oct_10_1508,SpeechDraft1Carolyn_lessNoise_locIncl_Mach2,2021.2.3,60.015427645575414,
germ.wav,germ.mpg,germ,5,AV,Pink_Noise_5_1.wav,Pink_Noise_5_2.wav,,,,,,,,,,,,,,,0,109,109,72,,,,,,,,,,,,,,,,,,,,,,,882.5783903731499,None,884.0783429050352,None,885.4617963051423,None,"germ
",885.4617963051423,None,return,3.3351615599822253,885.5452928231098,None,,,,,,,,,,,,,,,,,,,,,,,,,,,,,,,,,,,,,,,125,001,2023_Oct_10_1508,SpeechDraft1Carolyn_lessNoise_locIncl_Mach2,2021.2.3,60.015427645575414,
strike.wav,strike.mpg,strike,3,A,Pink_Noise_3_1.wav,Pink_Noise_3_2.wav,,,,,,,,,,,,,,,0,110,110,46,,,,,,,,,,,,,,,,,,,,,,,888.9118358311243,None,890.4282269461546,None,891.8120038760826,None,strike,891.8120038760826,None,return,2.7611829210072756,891.895239199046,None,,,,,,,,,,,,,,,,,,,,,,,,,,,,,,,,,,,,,,,125,001,2023_Oct_10_1508,SpeechDraft1Carolyn_lessNoise_locIncl_Mach2,2021.2.3,60.015427645575414,
claw.wav,claw.mpg,claw,6,AV,Pink_Noise_6_1.wav,Pink_Noise_6_2.wav,,,,,,,,,,,,,,,0,111,111,90,,,,,,,,,,,,,,,,,,,,,,,894.6785213551484,None,896.2117309621535,None,897.5952124651521,None,lock,897.5952124651521,None,return,2.3299447228200734,897.6785585170146,None,,,,,,,,,,,,,,,,,,,,,,,,,,,,,,,,,,,,,,,125,001,2023_Oct_10_1508,SpeechDraft1Carolyn_lessNoise_locIncl_Mach2,2021.2.3,60.015427645575414,
fruit.wav,fruit.mpg,fruit,5,AV,Pink_Noise_5_1.wav,Pink_Noise_5_2.wav,,,,,,,,,,,,,,,0,112,112,92,,,,,,,,,,,,,,,,,,,,,,,900.0285863189492,None,901.5283715170808,None,902.9119455551263,None,"fruit
",902.9119455551263,None,return,3.2531289411708713,902.9953239550814,None,,,,,,,,,,,,,,,,,,,,,,,,,,,,,,,,,,,,,,,125,001,2023_Oct_10_1508,SpeechDraft1Carolyn_lessNoise_locIncl_Mach2,2021.2.3,60.015427645575414,
clay.wav,clay.mpg,clay,1,A,Pink_Noise_1_1.wav,Pink_Noise_1_2.wav,,,,,,,,,,,,,,,0,113,113,59,,,,,,,,,,,,,,,,,,,,,,,906.2785933921114,None,907.7949482940603,None,909.1785255081486,None,clay,909.1785255081486,None,return,8.506627078168094,909.2619298479985,None,,,,,,,,,,,,,,,,,,,,,,,,,,,,,,,,,,,,,,,125,001,2023_Oct_10_1508,SpeechDraft1Carolyn_lessNoise_locIncl_Mach2,2021.2.3,60.015427645575414,
guard.wav,guard.mpg,guard,1,A,Pink_Noise_1_1.wav,Pink_Noise_1_2.wav,,,,,,,,,,,,,,,0,114,114,24,,,,,,,,,,,,,,,,,,,,,,,917.7952577969991,None,919.2949338289909,None,920.6785754121374,None,guard,920.6785754121374,None,return,1.9905298019293696,920.7619323721156,None,,,,,,,,,,,,,,,,,,,,,,,,,,,,,,,,,,,,,,,125,001,2023_Oct_10_1508,SpeechDraft1Carolyn_lessNoise_locIncl_Mach2,2021.2.3,60.015427645575414,
freak.wav,freak.mpg,freak,6,A,Pink_Noise_6_1.wav,Pink_Noise_6_2.wav,,,,,,,,,,,,,,,0,115,115,37,,,,,,,,,,,,,,,,,,,,,,,922.7786590589676,None,924.3117437469773,None,925.6954525650945,None,week,925.6954525650945,None,return,3.2218451348599046,925.778712076135,None,,,,,,,,,,,,,,,,,,,,,,,,,,,,,,,,,,,,,,,125,001,2023_Oct_10_1508,SpeechDraft1Carolyn_lessNoise_locIncl_Mach2,2021.2.3,60.015427645575414,
fist.wav,fist.mpg,fist,2,AV,Pink_Noise_2_1.wav,Pink_Noise_2_2.wav,,,,,,,,,,,,,,,0,116,116,73,,,,,,,,,,,,,,,,,,,,,,,929.0288517221343,None,930.5450441541616,None,931.9119098260999,None,"fist
",931.9119098260999,None,return,11.317168961977586,931.9952848199755,None,,,,,,,,,,,,,,,,,,,,,,,,,,,,,,,,,,,,,,,125,001,2023_Oct_10_1508,SpeechDraft1Carolyn_lessNoise_locIncl_Mach2,2021.2.3,60.015427645575414,
eat.wav,eat.mpg,eat,5,A,Pink_Noise_5_1.wav,Pink_Noise_5_2.wav,,,,,,,,,,,,,,,0,117,117,28,,,,,,,,,,,,,,,,,,,,,,,943.345318831969,None,944.8450693041086,None,946.2287528200541,None,eat,946.2287528200541,None,return,1.6966300748754293,946.3119146020617,None,,,,,,,,,,,,,,,,,,,,,,,,,,,,,,,,,,,,,,,125,001,2023_Oct_10_1508,SpeechDraft1Carolyn_lessNoise_locIncl_Mach2,2021.2.3,60.015427645575414,
gift.wav,gift.mpg,gift,5,A,Pink_Noise_5_1.wav,Pink_Noise_5_2.wav,,,,,,,,,,,,,,,0,118,118,48,,,,,,,,,,,,,,,,,,,,,,,948.0286398811731,None,949.5450709259603,None,950.9286308200099,None,fist,950.9286308200099,None,return,3.564336078008637,951.0120835569687,None,,,,,,,,,,,,,,,,,,,,,,,,,,,,,,,,,,,,,,,125,001,2023_Oct_10_1508,SpeechDraft1Carolyn_lessNoise_locIncl_Mach2,2021.2.3,60.015427645575414,
wine.wav,wine.mpg,wine,1,AV,Pink_Noise_1_1.wav,Pink_Noise_1_2.wav,,,,,,,,,,,,,,,0,119,119,77,,,,,,,,,,,,,,,,,,,,,,,954.595429466106,None,956.0951279241126,None,957.4785595340654,None,"wine
",957.4785595340654,None,return,1.5184842110611498,957.5619719319511,None,,,,,,,,,,,,,,,,,,,,,,,,,,,,,,,,,,,,,,,125,001,2023_Oct_10_1508,SpeechDraft1Carolyn_lessNoise_locIncl_Mach2,2021.2.3,60.015427645575414,
,,,,,,,,,,,,,,,,,,,,,,,,,,,,,,,,,,,,,,,,,,,,,,,,,,,,,,,,,,,,,,,,,,space,12.452597880968824,959.2119762040675,None,,,,,,,,,,,,,,,,,,,,,,,,,,,,,125,001,2023_Oct_10_1508,SpeechDraft1Carolyn_lessNoise_locIncl_Mach2,2021.2.3,60.015427645575414,
,,,,,,,,midLeft,-13.0,2,ch1Sound_localizationTask.wav,-13.0,"(762, 878)","(-198,-202)",-190,-338,,,,,,,,,0,0,0,1,,,,,,,,,,,,,,,,,,,,,,,,,,,,,,,,,,,,,,,,,,959.2119762040675,None,971.7119030391332,None,972.81173123396,None,973.7450943221338,None,1.2661375661375662,1.3243994801305234,973.7450943221338,None,,,,,,,,,,,,,,,,,125,001,2023_Oct_10_1508,SpeechDraft1Carolyn_lessNoise_locIncl_Mach2,2021.2.3,60.015427645575414,
,,,,,,,,midLeft,-13.0,2,ch1Sound_localizationTask.wav,-13.0,"(762, 878)","(-198,-202)",-190,-338,,,,,,,,,0,1,1,1,,,,,,,,,,,,,,,,,,,,,,,,,,,,,,,,,,,,,,,,,,,,975.0620882201474,None,976.161707628984,None,977.0949479881674,None,1.3650793650793651,1.1853089828509837,977.0949479881674,None,,,,,,,,,,,,,,,,,125,001,2023_Oct_10_1508,SpeechDraft1Carolyn_lessNoise_locIncl_Mach2,2021.2.3,60.015427645575414,
,,,,,,,,midLeft,-13.0,2,ch1Sound_localizationTask.wav,-13.0,"(762, 878)","(-198,-202)",-190,-338,,,,,,,,,0,2,2,1,,,,,,,,,,,,,,,,,,,,,,,,,,,,,,,,,,,,,,,,,,,,978.295456700027,None,979.3951553981751,None,980.328419120051,None,1.2571428571428571,1.0323932671453804,980.328419120051,None,,,,,,,,,,,,,,,,,125,001,2023_Oct_10_1508,SpeechDraft1Carolyn_lessNoise_locIncl_Mach2,2021.2.3,60.015427645575414,
,,,,,,,,midLeft,-13.0,2,ch1Sound_localizationTask.wav,-13.0,"(762, 878)","(-198,-202)",-190,-338,,,,,,,,,0,3,3,1,,,,,,,,,,,,,,,,,,,,,,,,,,,,,,,,,,,,,,,,,,,,981.3621258190833,None,982.4617853709497,None,983.395094081061,None,1.3444444444444446,1.183143886970356,983.395094081061,None,,,,,,,,,,,,,,,,,125,001,2023_Oct_10_1508,SpeechDraft1Carolyn_lessNoise_locIncl_Mach2,2021.2.3,60.015427645575414,
,,,,,,,,nearLeft,-6.5,1,ch1Sound_localizationTask.wav,-6.5,"(857, 878)","(-103,-202)",-95,-338,,,,,,,,,0,4,4,2,,,,,,,,,,,,,,,,,,,,,,,,,,,,,,,,,,,,,,,,,,,,984.5786088439636,None,985.6784172761254,None,986.61177317705,None,1.433862433862434,1.2657418281305581,986.61177317705,None,,,,,,,,,,,,,,,,,125,001,2023_Oct_10_1508,SpeechDraft1Carolyn_lessNoise_locIncl_Mach2,2021.2.3,60.015427645575414,
,,,,,,,,farLeft,-19.1,5,ch1Sound_localizationTask.wav,-19.1,"(667, 878)","(-293,-202)",-285,-338,,,,,,,,,0,5,5,0,,,,,,,,,,,,,,,,,,,,,,,,,,,,,,,,,,,,,,,,,,,,987.8785824431106,None,988.9784388551489,None,989.9116494040936,None,1.1507936507936507,1.7819164299871773,989.9116494040936,None,,,,,,,,,,,,,,,,,125,001,2023_Oct_10_1508,SpeechDraft1Carolyn_lessNoise_locIncl_Mach2,2021.2.3,60.015427645575414,
,,,,,,,,farLeft,-19.1,5,ch1Sound_localizationTask.wav,-19.1,"(667, 878)","(-293,-202)",-285,-338,,,,,,,,,0,6,6,0,,,,,,,,,,,,,,,,,,,,,,,,,,,,,,,,,,,,,,,,,,,,991.6954131841194,None,992.7951828050427,None,993.728433782002,None,1.1074074074074074,1.8169408289249986,993.728433782002,None,,,,,,,,,,,,,,,,,125,001,2023_Oct_10_1508,SpeechDraft1Carolyn_lessNoise_locIncl_Mach2,2021.2.3,60.015427645575414,
,,,,,,,,nearLeft,-6.5,1,ch1Sound_localizationTask.wav,-6.5,"(857, 878)","(-103,-202)",-95,-338,,,,,,,,,1,0,7,2,,,,,,,,,,,,,,,,,,,,,,,,,,,,,,,,,,,,,,,,,,,,995.5453465559985,None,996.645124695031,None,997.5785261720885,None,1.4248677248677248,1.4658437299076468,997.5785261720885,None,,,,,,,,,,,,,,,,,125,001,2023_Oct_10_1508,SpeechDraft1Carolyn_lessNoise_locIncl_Mach2,2021.2.3,60.015427645575414,
,,,,,,,,farRight,19.1,4,ch1Sound_localizationTask.wav,19.1,"(1237, 878)","(277,-202)",285,-338,,,,,,,,,1,1,8,6,,,,,,,,,,,,,,,,,,,,,,,,,,,,,,,,,,,,,,,,,,,,999.0454029941466,None,1000.1451797410846,None,1001.0783255810384,None,1.7068783068783069,1.3163063598331064,1001.0783255810384,None,,,,,,,,,,,,,,,,,125,001,2023_Oct_10_1508,SpeechDraft1Carolyn_lessNoise_locIncl_Mach2,2021.2.3,60.015427645575414,
,,,,,,,,midRight,13.0,3,ch1Sound_localizationTask.wav,13.0,"(1142, 878)","(182, -202)",190,-338,,,,,,,,,1,2,9,5,,,,,,,,,,,,,,,,,,,,,,,,,,,,,,,,,,,,,,,,,,,,1002.3952872201335,None,1003.4950605491176,None,1004.4284446730744,None,1.5507936507936508,0.8163181389681995,1004.4284446730744,None,,,,,,,,,,,,,,,,,125,001,2023_Oct_10_1508,SpeechDraft1Carolyn_lessNoise_locIncl_Mach2,2021.2.3,60.015427645575414,
,,,,,,,,center,0.0,6,ch1Sound_localizationTask.wav,0.0,"(952, 878)","(-8,-202)",0,-338,,,,,,,,,1,3,10,3,,,,,,,,,,,,,,,,,,,,,,,,,,,,,,,,,,,,,,,,,,,,1005.2460892910603,None,1006.3451477619819,None,1007.2785154189914,None,1.480952380952381,1.166799850994721,1007.2785154189914,None,,,,,,,,,,,,,,,,,125,001,2023_Oct_10_1508,SpeechDraft1Carolyn_lessNoise_locIncl_Mach2,2021.2.3,60.015427645575414,
,,,,,,,,farRight,19.1,4,ch1Sound_localizationTask.wav,19.1,"(1237, 878)","(277,-202)",285,-338,,,,,,,,,1,4,11,6,,,,,,,,,,,,,,,,,,,,,,,,,,,,,,,,,,,,,,,,,,,,1008.4453489831649,None,1009.5453878180124,None,1010.4783762050793,None,1.723809523809524,1.4493778869509697,1010.4783762050793,None,,,,,,,,,,,,,,,,,125,001,2023_Oct_10_1508,SpeechDraft1Carolyn_lessNoise_locIncl_Mach2,2021.2.3,60.015427645575414,
,,,,,,,,center,0.0,6,ch1Sound_localizationTask.wav,0.0,"(952, 878)","(-8,-202)",0,-338,,,,,,,,,1,5,12,3,,,,,,,,,,,,,,,,,,,,,,,,,,,,,,,,,,,,,,,,,,,,1011.9287746350747,None,1013.0285160641652,None,1013.9617308040615,None,1.48994708994709,1.9670699900016189,1013.9617308040615,None,,,,,,,,,,,,,,,,,125,001,2023_Oct_10_1508,SpeechDraft1Carolyn_lessNoise_locIncl_Mach2,2021.2.3,60.015427645575414,
,,,,,,,,nearLeft,-6.5,1,ch1Sound_localizationTask.wav,-6.5,"(857, 878)","(-103,-202)",-95,-338,,,,,,,,,1,6,13,2,,,,,,,,,,,,,,,,,,,,,,,,,,,,,,,,,,,,,,,,,,,,1015.9291726569645,None,1017.0283698991407,None,1017.9618073559832,None,1.4582010582010583,1.0507069868035614,1017.9618073559832,None,,,,,,,,,,,,,,,,,125,001,2023_Oct_10_1508,SpeechDraft1Carolyn_lessNoise_locIncl_Mach2,2021.2.3,60.015427645575414,
,,,,,,,,farLeft,-19.1,5,ch1Sound_localizationTask.wav,-19.1,"(667, 878)","(-293,-202)",-285,-338,,,,,,,,,2,0,14,0,,,,,,,,,,,,,,,,,,,,,,,,,,,,,,,,,,,,,,,,,,,,1019.0128146479838,None,1020.1117554251105,None,1021.0451050030533,None,1.3206349206349206,1.349249460035935,1021.0451050030533,None,,,,,,,,,,,,,,,,,125,001,2023_Oct_10_1508,SpeechDraft1Carolyn_lessNoise_locIncl_Mach2,2021.2.3,60.015427645575414,
,,,,,,,,farRight,19.1,4,ch1Sound_localizationTask.wav,19.1,"(1237, 878)","(277,-202)",285,-338,,,,,,,,,2,1,15,6,,,,,,,,,,,,,,,,,,,,,,,,,,,,,,,,,,,,,,,,,,,,1022.3954053041525,None,1023.495174548123,None,1024.4286000551656,None,1.7619047619047619,1.666035186033696,1024.4286000551656,None,,,,,,,,,,,,,,,,,125,001,2023_Oct_10_1508,SpeechDraft1Carolyn_lessNoise_locIncl_Mach2,2021.2.3,60.015427645575414,
,,,,,,,,nearLeft,-6.5,1,ch1Sound_localizationTask.wav,-6.5,"(857, 878)","(-103,-202)",-95,-338,,,,,,,,,2,2,16,2,,,,,,,,,,,,,,,,,,,,,,,,,,,,,,,,,,,,,,,,,,,,1026.0953956949525,None,1027.1950563411228,None,1028.1283960980363,None,1.397883597883598,1.2667214411776513,1028.1283960980363,None,,,,,,,,,,,,,,,,,125,001,2023_Oct_10_1508,SpeechDraft1Carolyn_lessNoise_locIncl_Mach2,2021.2.3,60.015427645575414,
,,,,,,,,nearLeft,-6.5,1,ch1Sound_localizationTask.wav,-6.5,"(857, 878)","(-103,-202)",-95,-338,,,,,,,,,2,3,17,2,,,,,,,,,,,,,,,,,,,,,,,,,,,,,,,,,,,,,,,,,,,,1029.3954101339914,None,1030.4950796461198,None,1031.4284766530618,None,1.4185185185185185,1.0324092390947044,1031.4284766530618,None,,,,,,,,,,,,,,,,,125,001,2023_Oct_10_1508,SpeechDraft1Carolyn_lessNoise_locIncl_Mach2,2021.2.3,60.015427645575414,
,,,,,,,,nearLeft,-6.5,1,ch1Sound_localizationTask.wav,-6.5,"(857, 878)","(-103,-202)",-95,-338,,,,,,,,,2,4,18,2,,,,,,,,,,,,,,,,,,,,,,,,,,,,,,,,,,,,,,,,,,,,1032.4620112271514,None,1033.561809365172,None,1034.4952229929622,None,1.4185185185185185,0.4834950959775597,1034.4952229929622,None,,,,,,,,,,,,,,,,,125,001,2023_Oct_10_1508,SpeechDraft1Carolyn_lessNoise_locIncl_Mach2,2021.2.3,60.015427645575414,
,,,,,,,,nearRight,6.5,0,ch1Sound_localizationTask.wav,6.5,"(1047, 878)","(87, -202)",95,-338,,,,,,,,,2,5,19,4,,,,,,,,,,,,,,,,,,,,,,,,,,,,,,,,,,,,,,,,,,,,1034.9788032220677,None,1036.0785499240737,None,1037.0117995410692,None,1.5936507936507938,1.2168398031499237,1037.0117995410692,None,,,,,,,,,,,,,,,,,125,001,2023_Oct_10_1508,SpeechDraft1Carolyn_lessNoise_locIncl_Mach2,2021.2.3,60.015427645575414,
,,,,,,,,farLeft,-19.1,5,ch1Sound_localizationTask.wav,-19.1,"(667, 878)","(-293,-202)",-285,-338,,,,,,,,,2,6,20,0,,,,,,,,,,,,,,,,,,,,,,,,,,,,,,,,,,,,,,,,,,,,1038.2289649189916,None,1039.3285588449799,None,1040.2618371811695,None,1.306878306878307,1.4674764380324632,1040.2618371811695,None,,,,,,,,,,,,,,,,,125,001,2023_Oct_10_1508,SpeechDraft1Carolyn_lessNoise_locIncl_Mach2,2021.2.3,60.015427645575414,
,,,,,,,,center,0.0,6,ch1Sound_localizationTask.wav,0.0,"(952, 878)","(-8,-202)",0,-338,,,,,,,,,3,0,21,3,,,,,,,,,,,,,,,,,,,,,,,,,,,,,,,,,,,,,,,,,,,,1041.7454656660557,None,1042.845185438171,None,1043.7786143920384,None,1.378835978835979,1.2164496660698205,1043.7786143920384,None,,,,,,,,,,,,,,,,,125,001,2023_Oct_10_1508,SpeechDraft1Carolyn_lessNoise_locIncl_Mach2,2021.2.3,60.015427645575414,
,,,,,,,,nearLeft,-6.5,1,ch1Sound_localizationTask.wav,-6.5,"(857, 878)","(-103,-202)",-95,-338,,,,,,,,,3,1,22,2,,,,,,,,,,,,,,,,,,,,,,,,,,,,,,,,,,,,,,,,,,,,1044.9954239099752,None,1046.0951559480745,None,1047.0284990700893,None,1.3412698412698414,0.7011531970929354,1047.0284990700893,None,,,,,,,,,,,,,,,,,125,001,2023_Oct_10_1508,SpeechDraft1Carolyn_lessNoise_locIncl_Mach2,2021.2.3,60.015427645575414,
,,,,,,,,nearRight,6.5,0,ch1Sound_localizationTask.wav,6.5,"(1047, 878)","(87, -202)",95,-338,,,,,,,,,3,2,23,4,,,,,,,,,,,,,,,,,,,,,,,,,,,,,,,,,,,,,,,,,,,,1047.7455408580136,None,1048.8452372399624,None,1049.7785953141283,None,1.4878306878306877,0.9666643170639873,1049.7785953141283,None,,,,,,,,,,,,,,,,,125,001,2023_Oct_10_1508,SpeechDraft1Carolyn_lessNoise_locIncl_Mach2,2021.2.3,60.015427645575414,
,,,,,,,,nearRight,6.5,0,ch1Sound_localizationTask.wav,6.5,"(1047, 878)","(87, -202)",95,-338,,,,,,,,,3,3,24,4,,,,,,,,,,,,,,,,,,,,,,,,,,,,,,,,,,,,,,,,,,,,1050.7454866950866,None,1051.8450945189688,None,1052.778589264024,None,1.5121693121693123,0.6667212420143187,1052.778589264024,None,,,,,,,,,,,,,,,,,125,001,2023_Oct_10_1508,SpeechDraft1Carolyn_lessNoise_locIncl_Mach2,2021.2.3,60.015427645575414,
,,,,,,,,farRight,19.1,4,ch1Sound_localizationTask.wav,19.1,"(1237, 878)","(277,-202)",285,-338,,,,,,,,,3,4,25,6,,,,,,,,,,,,,,,,,,,,,,,,,,,,,,,,,,,,,,,,,,,,1053.4454292200971,None,1054.5451559601352,None,1055.4785982549656,None,1.7037037037037037,0.9330222229473293,1055.4785982549656,None,,,,,,,,,,,,,,,,,125,001,2023_Oct_10_1508,SpeechDraft1Carolyn_lessNoise_locIncl_Mach2,2021.2.3,60.015427645575414,
,,,,,,,,farLeft,-19.1,5,ch1Sound_localizationTask.wav,-19.1,"(667, 878)","(-293,-202)",-285,-338,,,,,,,,,3,5,26,0,,,,,,,,,,,,,,,,,,,,,,,,,,,,,,,,,,,,,,,,,,,,1056.412123439135,None,1057.5118214781396,None,1058.4451120069716,None,1.1984126984126984,1.5667885527946055,1058.4451120069716,None,,,,,,,,,,,,,,,,,125,001,2023_Oct_10_1508,SpeechDraft1Carolyn_lessNoise_locIncl_Mach2,2021.2.3,60.015427645575414,
,,,,,,,,midRight,13.0,3,ch1Sound_localizationTask.wav,13.0,"(1142, 878)","(182, -202)",190,-338,,,,,,,,,3,6,27,5,,,,,,,,,,,,,,,,,,,,,,,,,,,,,,,,,,,,,,,,,,,,1060.0127501920797,None,1061.111813313095,None,1062.0451967371628,None,1.5486772486772487,1.1161038631107658,1062.0451967371628,None,,,,,,,,,,,,,,,,,125,001,2023_Oct_10_1508,SpeechDraft1Carolyn_lessNoise_locIncl_Mach2,2021.2.3,60.015427645575414,
,,,,,,,,center,0.0,6,ch1Sound_localizationTask.wav,0.0,"(952, 878)","(-8,-202)",0,-338,,,,,,,,,4,0,28,3,,,,,,,,,,,,,,,,,,,,,,,,,,,,,,,,,,,,,,,,,,,,1063.1620242169593,None,1064.2617343300954,None,1065.1953509370796,None,1.4878306878306877,0.9828935309778899,1065.1953509370796,None,,,,,,,,,,,,,,,,,125,001,2023_Oct_10_1508,SpeechDraft1Carolyn_lessNoise_locIncl_Mach2,2021.2.3,60.015427645575414,
,,,,,,,,midLeft,-13.0,2,ch1Sound_localizationTask.wav,-13.0,"(762, 878)","(-198,-202)",-190,-338,,,,,,,,,4,1,29,1,,,,,,,,,,,,,,,,,,,,,,,,,,,,,,,,,,,,,,,,,,,,1066.17876908998,None,1067.278524008114,None,1068.2120249799918,None,1.3820105820105821,0.9490492681507021,1068.2120249799918,None,,,,,,,,,,,,,,,,,125,001,2023_Oct_10_1508,SpeechDraft1Carolyn_lessNoise_locIncl_Mach2,2021.2.3,60.015427645575414,
,,,,,,,,farRight,19.1,4,ch1Sound_localizationTask.wav,19.1,"(1237, 878)","(277,-202)",285,-338,,,,,,,,,4,2,30,6,,,,,,,,,,,,,,,,,,,,,,,,,,,,,,,,,,,,,,,,,,,,1069.1622486161068,None,1070.2617965671234,None,1071.1951828571036,None,1.6656084656084655,1.2005922610405833,1071.1951828571036,None,,,,,,,,,,,,,,,,,125,001,2023_Oct_10_1508,SpeechDraft1Carolyn_lessNoise_locIncl_Mach2,2021.2.3,60.015427645575414,
,,,,,,,,nearRight,6.5,0,ch1Sound_localizationTask.wav,6.5,"(1047, 878)","(87, -202)",95,-338,,,,,,,,,4,3,31,4,,,,,,,,,,,,,,,,,,,,,,,,,,,,,,,,,,,,,,,,,,,,1072.4122065191623,None,1073.5118350889534,None,1074.4452117430046,None,1.585185185185185,0.9664962699171156,1074.4452117430046,None,,,,,,,,,,,,,,,,,125,001,2023_Oct_10_1508,SpeechDraft1Carolyn_lessNoise_locIncl_Mach2,2021.2.3,60.015427645575414,
,,,,,,,,midLeft,-13.0,2,ch1Sound_localizationTask.wav,-13.0,"(762, 878)","(-198,-202)",-190,-338,,,,,,,,,4,4,32,1,,,,,,,,,,,,,,,,,,,,,,,,,,,,,,,,,,,,,,,,,,,,1075.412139049964,None,1076.5117939510383,None,1077.4451756931376,None,1.3693121693121693,1.1835384359583259,1077.4451756931376,None,,,,,,,,,,,,,,,,,125,001,2023_Oct_10_1508,SpeechDraft1Carolyn_lessNoise_locIncl_Mach2,2021.2.3,60.015427645575414,
,,,,,,,,nearRight,6.5,0,ch1Sound_localizationTask.wav,6.5,"(1047, 878)","(87, -202)",95,-338,,,,,,,,,4,5,33,4,,,,,,,,,,,,,,,,,,,,,,,,,,,,,,,,,,,,,,,,,,,,1078.6289878161624,None,1079.7285933510866,None,1080.6618892999832,None,1.5772486772486771,0.7327066040597856,1080.6618892999832,None,,,,,,,,,,,,,,,,,125,001,2023_Oct_10_1508,SpeechDraft1Carolyn_lessNoise_locIncl_Mach2,2021.2.3,60.015427645575414,
,,,,,,,,farRight,19.1,4,ch1Sound_localizationTask.wav,19.1,"(1237, 878)","(277,-202)",285,-338,,,,,,,,,4,6,34,6,,,,,,,,,,,,,,,,,,,,,,,,,,,,,,,,,,,,,,,,,,,,1081.3956067881081,None,1082.4951913361438,None,1083.4285293340217,None,1.726984126984127,1.1668736790306866,1083.4285293340217,None,,,,,,,,,,,,,,,,,125,001,2023_Oct_10_1508,SpeechDraft1Carolyn_lessNoise_locIncl_Mach2,2021.2.3,60.015427645575414,
,,,,,,,,midLeft,-13.0,2,ch1Sound_localizationTask.wav,-13.0,"(762, 878)","(-198,-202)",-190,-338,,,,,,,,,5,0,35,1,,,,,,,,,,,,,,,,,,,,,,,,,,,,,,,,,,,,,,,,,,,,1084.5955784521066,None,1085.695107145002,None,1086.6286418810487,None,1.3232804232804232,1.2493936968967319,1086.6286418810487,None,,,,,,,,,,,,,,,,,125,001,2023_Oct_10_1508,SpeechDraft1Carolyn_lessNoise_locIncl_Mach2,2021.2.3,60.015427645575414,
,,,,,,,,nearRight,6.5,0,ch1Sound_localizationTask.wav,6.5,"(1047, 878)","(87, -202)",95,-338,,,,,,,,,5,1,36,4,,,,,,,,,,,,,,,,,,,,,,,,,,,,,,,,,,,,,,,,,,,,1087.878843170125,None,1088.9786083609797,None,1089.911779216025,None,1.5788359788359787,0.6326390739995986,1089.911779216025,None,,,,,,,,,,,,,,,,,125,001,2023_Oct_10_1508,SpeechDraft1Carolyn_lessNoise_locIncl_Mach2,2021.2.3,60.015427645575414,
,,,,,,,,midRight,13.0,3,ch1Sound_localizationTask.wav,13.0,"(1142, 878)","(182, -202)",190,-338,,,,,,,,,5,2,37,5,,,,,,,,,,,,,,,,,,,,,,,,,,,,,,,,,,,,,,,,,,,,1090.5455145069864,None,1091.6451926040463,None,1092.5785901260097,None,1.5216931216931218,0.9499797050375491,1092.5785901260097,None,,,,,,,,,,,,,,,,,125,001,2023_Oct_10_1508,SpeechDraft1Carolyn_lessNoise_locIncl_Mach2,2021.2.3,60.015427645575414,
,,,,,,,,center,0.0,6,ch1Sound_localizationTask.wav,0.0,"(952, 878)","(-8,-202)",0,-338,,,,,,,,,5,3,38,3,,,,,,,,,,,,,,,,,,,,,,,,,,,,,,,,,,,,,,,,,,,,1093.5291299761739,None,1094.6286189220846,None,1095.562032547081,None,1.4285714285714286,0.7998700491152704,1095.562032547081,None,,,,,,,,,,,,,,,,,125,001,2023_Oct_10_1508,SpeechDraft1Carolyn_lessNoise_locIncl_Mach2,2021.2.3,60.015427645575414,
,,,,,,,,midRight,13.0,3,ch1Sound_localizationTask.wav,13.0,"(1142, 878)","(182, -202)",190,-338,,,,,,,,,5,4,39,5,,,,,,,,,,,,,,,,,,,,,,,,,,,,,,,,,,,,,,,,,,,,1096.3790278399829,None,1097.4785166969523,None,1098.411819195142,None,1.5582010582010581,0.8162609110586345,1098.411819195142,None,,,,,,,,,,,,,,,,,125,001,2023_Oct_10_1508,SpeechDraft1Carolyn_lessNoise_locIncl_Mach2,2021.2.3,60.015427645575414,
,,,,,,,,midRight,13.0,3,ch1Sound_localizationTask.wav,13.0,"(1142, 878)","(182, -202)",190,-338,,,,,,,,,5,5,40,5,,,,,,,,,,,,,,,,,,,,,,,,,,,,,,,,,,,,,,,,,,,,1099.228968610987,None,1100.3285520649515,None,1101.2618909219746,None,1.5587301587301587,0.6657154229469597,1101.2618909219746,None,,,,,,,,,,,,,,,,,125,001,2023_Oct_10_1508,SpeechDraft1Carolyn_lessNoise_locIncl_Mach2,2021.2.3,60.015427645575414,
,,,,,,,,midRight,13.0,3,ch1Sound_localizationTask.wav,13.0,"(1142, 878)","(182, -202)",190,-338,,,,,,,,,5,6,41,5,,,,,,,,,,,,,,,,,,,,,,,,,,,,,,,,,,,,,,,,,,,,1101.9288416700438,None,1103.028716797009,None,1103.9619135891553,None,1.5587301587301587,0.4662910499610007,1103.9619135891553,None,,,,,,,,,,,,,,,,,125,001,2023_Oct_10_1508,SpeechDraft1Carolyn_lessNoise_locIncl_Mach2,2021.2.3,60.015427645575414,
,,,,,,,,midRight,13.0,3,ch1Sound_localizationTask.wav,13.0,"(1142, 878)","(182, -202)",190,-338,,,,,,,,,6,0,42,5,,,,,,,,,,,,,,,,,,,,,,,,,,,,,,,,,,,,,,,,,,,,1104.4288490260951,None,1105.5284724039957,None,1106.4618723611347,None,1.668783068783069,0.6163601349107921,1106.4618723611347,None,,,,,,,,,,,,,,,,,125,001,2023_Oct_10_1508,SpeechDraft1Carolyn_lessNoise_locIncl_Mach2,2021.2.3,60.015427645575414,
,,,,,,,,midRight,13.0,3,ch1Sound_localizationTask.wav,13.0,"(1142, 878)","(182, -202)",190,-338,,,,,,,,,6,1,43,5,,,,,,,,,,,,,,,,,,,,,,,,,,,,,,,,,,,,,,,,,,,,1107.0788062370848,None,1108.1785033049528,None,1109.1119392130058,None,1.6386243386243386,0.6159091291483492,1109.1119392130058,None,,,,,,,,,,,,,,,,,125,001,2023_Oct_10_1508,SpeechDraft1Carolyn_lessNoise_locIncl_Mach2,2021.2.3,60.015427645575414,
,,,,,,,,farLeft,-19.1,5,ch1Sound_localizationTask.wav,-19.1,"(667, 878)","(-293,-202)",-285,-338,,,,,,,,,6,2,44,0,,,,,,,,,,,,,,,,,,,,,,,,,,,,,,,,,,,,,,,,,,,,1109.7290209559724,None,1110.828538649017,None,1111.7619700031355,None,1.2952380952380953,1.8338343449868262,1111.7619700031355,None,,,,,,,,,,,,,,,,,125,001,2023_Oct_10_1508,SpeechDraft1Carolyn_lessNoise_locIncl_Mach2,2021.2.3,60.015427645575414,
,,,,,,,,farRight,19.1,4,ch1Sound_localizationTask.wav,19.1,"(1237, 878)","(277,-202)",285,-338,,,,,,,,,6,3,45,6,,,,,,,,,,,,,,,,,,,,,,,,,,,,,,,,,,,,,,,,,,,,1113.5955791850574,None,1114.6952740540728,None,1115.6286188620143,None,1.7671957671957672,1.6151292040012777,1115.6286188620143,None,,,,,,,,,,,,,,,,,125,001,2023_Oct_10_1508,SpeechDraft1Carolyn_lessNoise_locIncl_Mach2,2021.2.3,60.015427645575414,
,,,,,,,,nearRight,6.5,0,ch1Sound_localizationTask.wav,6.5,"(1047, 878)","(87, -202)",95,-338,,,,,,,,,6,4,46,4,,,,,,,,,,,,,,,,,,,,,,,,,,,,,,,,,,,,,,,,,,,,1117.245561658172,None,1118.3452630860265,None,1119.2786254910752,None,1.6232804232804234,1.0491766931954771,1119.2786254910752,None,,,,,,,,,,,,,,,,,125,001,2023_Oct_10_1508,SpeechDraft1Carolyn_lessNoise_locIncl_Mach2,2021.2.3,60.015427645575414,
,,,,,,,,farLeft,-19.1,5,ch1Sound_localizationTask.wav,-19.1,"(667, 878)","(-293,-202)",-285,-338,,,,,,,,,6,5,47,0,,,,,,,,,,,,,,,,,,,,,,,,,,,,,,,,,,,,,,,,,,,,1120.329023199156,None,1121.428628938971,None,1122.3619692160282,None,1.2809523809523808,1.6328884568065405,1122.3619692160282,None,,,,,,,,,,,,,,,,,125,001,2023_Oct_10_1508,SpeechDraft1Carolyn_lessNoise_locIncl_Mach2,2021.2.3,60.015427645575414,
,,,,,,,,midLeft,-13.0,2,ch1Sound_localizationTask.wav,-13.0,"(762, 878)","(-198,-202)",-190,-338,,,,,,,,,6,6,48,1,,,,,,,,,,,,,,,,,,,,,,,,,,,,,,,,,,,,,,,,,,,,1123.9955872311257,None,1125.0953124661464,None,1126.0285021660384,None,1.3544973544973544,0.9990767489653081,1126.0285021660384,None,,,,,,,,,,,,,,,,,125,001,2023_Oct_10_1508,SpeechDraft1Carolyn_lessNoise_locIncl_Mach2,2021.2.3,60.015427645575414,
,,,,,,,,farRight,19.1,4,ch1Sound_localizationTask.wav,19.1,"(1237, 878)","(277,-202)",285,-338,,,,,,,,,7,0,49,6,,,,,,,,,,,,,,,,,,,,,,,,,,,,,,,,,,,,,,,,,,,,1127.0288402070291,None,1128.1286023100838,None,1129.061942679109,None,1.6666666666666667,1.2156369620934129,1129.061942679109,None,,,,,,,,,,,,,,,,,125,001,2023_Oct_10_1508,SpeechDraft1Carolyn_lessNoise_locIncl_Mach2,2021.2.3,60.015427645575414,
,,,,,,,,center,0.0,6,ch1Sound_localizationTask.wav,0.0,"(952, 878)","(-8,-202)",0,-338,,,,,,,,,7,1,50,3,,,,,,,,,,,,,,,,,,,,,,,,,,,,,,,,,,,,,,,,,,,,1130.278932610061,None,1131.378619837109,None,1132.3119928280357,None,1.4576719576719577,1.2005380091723055,1132.3119928280357,None,,,,,,,,,,,,,,,,,125,001,2023_Oct_10_1508,SpeechDraft1Carolyn_lessNoise_locIncl_Mach2,2021.2.3,60.015427645575414,
,,,,,,,,center,0.0,6,ch1Sound_localizationTask.wav,0.0,"(952, 878)","(-8,-202)",0,-338,,,,,,,,,7,2,51,3,,,,,,,,,,,,,,,,,,,,,,,,,,,,,,,,,,,,,,,,,,,,1133.5122245161328,None,1134.6121177240275,None,1135.5453165089712,None,1.48994708994709,0.5823000459931791,1135.5453165089712,None,,,,,,,,,,,,,,,,,125,001,2023_Oct_10_1508,SpeechDraft1Carolyn_lessNoise_locIncl_Mach2,2021.2.3,60.015427645575414,
,,,,,,,,nearLeft,-6.5,1,ch1Sound_localizationTask.wav,-6.5,"(857, 878)","(-103,-202)",-95,-338,,,,,,,,,7,3,52,2,,,,,,,,,,,,,,,,,,,,,,,,,,,,,,,,,,,,,,,,,,,,1136.1288410411216,None,1137.228664037073,None,1138.1620696331374,None,1.373015873015873,0.7995190888177603,1138.1620696331374,None,,,,,,,,,,,,,,,,,125,001,2023_Oct_10_1508,SpeechDraft1Carolyn_lessNoise_locIncl_Mach2,2021.2.3,60.015427645575414,
,,,,,,,,center,0.0,6,ch1Sound_localizationTask.wav,0.0,"(952, 878)","(-8,-202)",0,-338,,,,,,,,,7,4,53,3,,,,,,,,,,,,,,,,,,,,,,,,,,,,,,,,,,,,,,,,,,,,1138.962177254958,None,1140.0620441511273,None,1140.9953690401744,None,1.4174603174603175,0.7994695839006454,1140.9953690401744,None,,,,,,,,,,,,,,,,,125,001,2023_Oct_10_1508,SpeechDraft1Carolyn_lessNoise_locIncl_Mach2,2021.2.3,60.015427645575414,
,,,,,,,,nearRight,6.5,0,ch1Sound_localizationTask.wav,6.5,"(1047, 878)","(87, -202)",95,-338,,,,,,,,,7,5,54,4,,,,,,,,,,,,,,,,,,,,,,,,,,,,,,,,,,,,,,,,,,,,1141.795503762085,None,1142.8952165050432,None,1143.8286817870103,None,1.5296296296296297,0.983223315095529,1143.8286817870103,None,,,,,,,,,,,,,,,,,125,001,2023_Oct_10_1508,SpeechDraft1Carolyn_lessNoise_locIncl_Mach2,2021.2.3,60.015427645575414,
,,,,,,,,farLeft,-19.1,5,ch1Sound_localizationTask.wav,-19.1,"(667, 878)","(-293,-202)",-285,-338,,,,,,,,,7,6,55,0,,,,,,,,,,,,,,,,,,,,,,,,,,,,,,,,,,,,,,,,,,,,1144.8129771251697,None,1145.9119735141285,None,1146.8453074891586,None,1.2656084656084656,1.6825330620631576,1146.8453074891586,None,,,,,,,,,,,,,,,,,125,001,2023_Oct_10_1508,SpeechDraft1Carolyn_lessNoise_locIncl_Mach2,2021.2.3,60.015427645575414,
,,,,,,,,,,,,,,,,,,,,,,,,,,,,,,,,,,,,,,,,,,,,,,,,,,,,,,,,,,,,,,,,,,,,,,,,,,,,,,,,,,space,15.084226426901296,1148.612221985124,None,,,,,,,,,,,,,125,001,2023_Oct_10_1508,SpeechDraft1Carolyn_lessNoise_locIncl_Mach2,2021.2.3,60.015427645575414,
,,,,,,,,midLeft,-13.0,2,ch1Sound_localizationTask.wav,-13.0,"(762, 878)","(-198,-202)",-190,-338,,,,,,,,,,,,,0,0,0,1,,,,,,,,,,,,,,,,,,,,,,,,,,,,,,,,,,,,,,,,1163.7453238861635,None,,,1166.7620744290762,None,1.3936507936507936,1.3107197128701955,1166.7620744290762,None,,,,,1148.612221985124,None,1164.745743442094,None,1164.928962686099,1164.945635426091,,,,,,,125,001,2023_Oct_10_1508,SpeechDraft1Carolyn_lessNoise_locIncl_Mach2,2021.2.3,60.015427645575414,
,,,,,,,,nearLeft,-6.5,1,ch1Sound_localizationTask.wav,-6.5,"(857, 878)","(-103,-202)",-95,-338,,,,,,,,,,,,,0,1,1,2,,,,,,,,,,,,,,,,,,,,,,,,,,,,,,,,,,,,,,,,1168.0792721160688,None,,,1171.0953234331682,None,1.4587301587301587,1.216095854062587,1171.0953234331682,None,,,,,,,1169.0789453829639,None,1169.2622737339698,1169.2789806451183,,,,,,,125,001,2023_Oct_10_1508,SpeechDraft1Carolyn_lessNoise_locIncl_Mach2,2021.2.3,60.015427645575414,
,,,,,,,,nearRight,6.5,0,ch1Sound_localizationTask.wav,6.5,"(1047, 878)","(87, -202)",95,-338,,,,,,,,,,,,,0,2,2,4,,,,,,,,,,,,,,,,,,,,,,,,,,,,,,,,,,,,,,,,1172.3123404199723,None,,,1175.3292007180862,None,1.5476190476190477,1.194335393840447,1175.3292007180862,None,,,,,,,1173.3125054561533,None,1173.4956845040433,1173.5122477931436,,,,,,,125,001,2023_Oct_10_1508,SpeechDraft1Carolyn_lessNoise_locIncl_Mach2,2021.2.3,60.015427645575414,
,,,,,,,,center,0.0,6,ch1Sound_localizationTask.wav,0.0,"(952, 878)","(-8,-202)",0,-338,,,,,,,,,,,,,0,3,3,3,,,,,,,,,,,,,,,,,,,,,,,,,,,,,,,,,,,,,,,,1176.529005987104,None,,,1179.5454072700813,None,1.493121693121693,1.0328846769407392,1179.5454072700813,None,,,,,,,1177.5288960221224,None,1177.7122377040796,1177.7288956111297,,,,,,,125,001,2023_Oct_10_1508,SpeechDraft1Carolyn_lessNoise_locIncl_Mach2,2021.2.3,60.015427645575414,
,,,,,,,,farLeft,-19.1,5,ch1Sound_localizationTask.wav,-19.1,"(667, 878)","(-293,-202)",-285,-338,,,,,,,,,,,,,0,4,4,0,,,,,,,,,,,,,,,,,,,,,,,,,,,,,,,,,,,,,,,,1180.579443861032,None,,,1183.5954624339938,None,1.3650793650793651,1.3334269018378109,1183.5954624339938,None,,,,,,,1181.5791415600106,None,1181.762278797105,1181.7791616341565,,,,,,,125,001,2023_Oct_10_1508,SpeechDraft1Carolyn_lessNoise_locIncl_Mach2,2021.2.3,60.015427645575414,
,,,,,,,,nearRight,6.5,0,ch1Sound_localizationTask.wav,6.5,"(1047, 878)","(87, -202)",95,-338,,,,,,,,,,,,,0,5,5,4,,,,,,,,,,,,,,,,,,,,,,,,,,,,,,,,,,,,,,,,1184.945687809959,None,,,1187.962135655107,None,1.5666666666666667,1.4160488790366799,1187.962135655107,None,,,,,,,1185.9456266141497,None,1186.1291556539945,1186.1455822340213,,,,,,,125,001,2023_Oct_10_1508,SpeechDraft1Carolyn_lessNoise_locIncl_Mach2,2021.2.3,60.015427645575414,
,,,,,,,,nearLeft,-6.5,1,ch1Sound_localizationTask.wav,-6.5,"(857, 878)","(-103,-202)",-95,-338,,,,,,,,,,,,,0,6,6,2,,,,,,,,,,,,,,,,,,,,,,,,,,,,,,,,,,,,,,,,1189.3789606899954,None,,,1192.3953973699827,None,1.4597883597883599,0.9824867339339107,1192.3953973699827,None,,,,,,,1190.379009647062,None,1190.5623080569785,1190.5790050250944,,,,,,,125,001,2023_Oct_10_1508,SpeechDraft1Carolyn_lessNoise_locIncl_Mach2,2021.2.3,60.015427645575414,
,,,,,,,,nearRight,6.5,0,ch1Sound_localizationTask.wav,6.5,"(1047, 878)","(87, -202)",95,-338,,,,,,,,,,,,,1,0,7,4,,,,,,,,,,,,,,,,,,,,,,,,,,,,,,,,,,,,,,,,1193.3791741880123,None,,,1196.3953202799894,None,1.5492063492063493,0.9989742969628423,1196.3953202799894,None,,,,,,,1194.3789615570568,None,1194.5622817459516,1194.5791041781195,,,,,,,125,001,2023_Oct_10_1508,SpeechDraft1Carolyn_lessNoise_locIncl_Mach2,2021.2.3,60.015427645575414,
,,,,,,,,farRight,19.1,4,ch1Sound_localizationTask.wav,19.1,"(1237, 878)","(277,-202)",285,-338,,,,,,,,,,,,,1,1,8,6,,,,,,,,,,,,,,,,,,,,,,,,,,,,,,,,,,,,,,,,1197.3956193879712,None,,,1200.4121340520214,None,1.6433862433862434,1.1991002121940255,1200.4121340520214,None,,,,,,,1198.3956605789717,None,1198.578998530982,1198.5956445350312,,,,,,,125,001,2023_Oct_10_1508,SpeechDraft1Carolyn_lessNoise_locIncl_Mach2,2021.2.3,60.015427645575414,
,,,,,,,,nearRight,6.5,0,ch1Sound_localizationTask.wav,6.5,"(1047, 878)","(87, -202)",95,-338,,,,,,,,,,,,,1,2,9,4,,,,,,,,,,,,,,,,,,,,,,,,,,,,,,,,,,,,,,,,1201.6123074670322,None,,,1204.6287477971055,None,1.552910052910053,0.9821573351509869,1204.6287477971055,None,,,,,,,1202.6124415970407,None,1202.7956674341112,1202.812379627023,,,,,,,125,001,2023_Oct_10_1508,SpeechDraft1Carolyn_lessNoise_locIncl_Mach2,2021.2.3,60.015427645575414,
,,,,,,,,nearLeft,-6.5,1,ch1Sound_localizationTask.wav,-6.5,"(857, 878)","(-103,-202)",-95,-338,,,,,,,,,,,,,1,3,10,2,,,,,,,,,,,,,,,,,,,,,,,,,,,,,,,,,,,,,,,,1205.6122885851655,None,,,1208.6286954539828,None,1.4613756613756614,0.8996625090949237,1208.6286954539828,None,,,,,,,1206.6124281741213,None,1206.7956501219887,1206.812343706144,,,,,,,125,001,2023_Oct_10_1508,SpeechDraft1Carolyn_lessNoise_locIncl_Mach2,2021.2.3,60.015427645575414,
,,,,,,,,center,0.0,6,ch1Sound_localizationTask.wav,0.0,"(952, 878)","(-8,-202)",0,-338,,,,,,,,,,,,,1,4,11,3,,,,,,,,,,,,,,,,,,,,,,,,,,,,,,,,,,,,,,,,1209.5292907899711,None,,,1212.5454011419788,None,1.5185185185185186,0.8655296978540719,1212.5454011419788,None,,,,,,,1210.5290233830456,None,1210.7124479261693,1210.7291607521474,,,,,,,125,001,2023_Oct_10_1508,SpeechDraft1Carolyn_lessNoise_locIncl_Mach2,2021.2.3,60.015427645575414,
,,,,,,,,center,0.0,6,ch1Sound_localizationTask.wav,0.0,"(952, 878)","(-8,-202)",0,-338,,,,,,,,,,,,,1,5,12,3,,,,,,,,,,,,,,,,,,,,,,,,,,,,,,,,,,,,,,,,1213.4123786529526,None,,,1216.428742401069,None,1.4968253968253968,0.9671717418823391,1216.428742401069,None,,,,,,,1214.4124183340464,None,1214.5955832130276,1214.6123193609528,,,,,,,125,001,2023_Oct_10_1508,SpeechDraft1Carolyn_lessNoise_locIncl_Mach2,2021.2.3,60.015427645575414,
,,,,,,,,center,0.0,6,ch1Sound_localizationTask.wav,0.0,"(952, 878)","(-8,-202)",0,-338,,,,,,,,,,,,,1,6,13,3,,,,,,,,,,,,,,,,,,,,,,,,,,,,,,,,,,,,,,,,1217.3963399261702,None,,,1220.4120777591597,None,1.5015873015873016,0.9661410660482943,1220.4120777591597,None,,,,,,,1218.3958389000036,None,1218.5790207430255,1218.5958120471332,,,,,,,125,001,2023_Oct_10_1508,SpeechDraft1Carolyn_lessNoise_locIncl_Mach2,2021.2.3,60.015427645575414,
,,,,,,,,nearLeft,-6.5,1,ch1Sound_localizationTask.wav,-6.5,"(857, 878)","(-103,-202)",-95,-338,,,,,,,,,,,,,2,0,14,2,,,,,,,,,,,,,,,,,,,,,,,,,,,,,,,,,,,,,,,,1221.3789812400937,None,,,1224.395370410988,None,1.4333333333333333,0.9830567608587444,1224.395370410988,None,,,,,,,1222.379092212068,None,1222.5625689311419,1222.5793478621636,,,,,,,125,001,2023_Oct_10_1508,SpeechDraft1Carolyn_lessNoise_locIncl_Mach2,2021.2.3,60.015427645575414,
,,,,,,,,midLeft,-13.0,2,ch1Sound_localizationTask.wav,-13.0,"(762, 878)","(-198,-202)",-190,-338,,,,,,,,,,,,,2,1,15,1,,,,,,,,,,,,,,,,,,,,,,,,,,,,,,,,,,,,,,,,1225.3789641731419,None,,,1228.3954633821268,None,1.408994708994709,0.999237276846543,1228.3954633821268,None,,,,,,,1226.379133420065,None,1226.5625576979946,1226.5790757101495,,,,,,,125,001,2023_Oct_10_1508,SpeechDraft1Carolyn_lessNoise_locIncl_Mach2,2021.2.3,60.015427645575414,
,,,,,,,,midRight,13.0,3,ch1Sound_localizationTask.wav,13.0,"(1142, 878)","(182, -202)",190,-338,,,,,,,,,,,,,2,2,16,5,,,,,,,,,,,,,,,,,,,,,,,,,,,,,,,,,,,,,,,,1229.3956799691077,None,,,1232.4120654000435,None,1.607936507936508,1.3326351838186383,1232.4120654000435,None,,,,,,,1230.3957286481746,None,1230.5789888449945,1230.595745597966,,,,,,,125,001,2023_Oct_10_1508,SpeechDraft1Carolyn_lessNoise_locIncl_Mach2,2021.2.3,60.015427645575414,
,,,,,,,,farLeft,-19.1,5,ch1Sound_localizationTask.wav,-19.1,"(667, 878)","(-293,-202)",-285,-338,,,,,,,,,,,,,2,3,17,0,,,,,,,,,,,,,,,,,,,,,,,,,,,,,,,,,,,,,,,,1233.7456680231262,None,,,1236.7620843381155,None,1.4052910052910053,1.0656276470981538,1236.7620843381155,None,,,,,,,1234.7457630131394,None,1234.9290493321605,1234.945711095119,,,,,,,125,001,2023_Oct_10_1508,SpeechDraft1Carolyn_lessNoise_locIncl_Mach2,2021.2.3,60.015427645575414,
,,,,,,,,farRight,19.1,4,ch1Sound_localizationTask.wav,19.1,"(1237, 878)","(277,-202)",285,-338,,,,,,,,,,,,,2,4,18,6,,,,,,,,,,,,,,,,,,,,,,,,,,,,,,,,,,,,,,,,1237.8291204031557,None,,,1240.8453094430733,None,1.638095238095238,1.1827672231011093,1240.8453094430733,None,,,,,,,1238.8289993479848,None,1239.0123196900822,1239.0289807571098,,,,,,,125,001,2023_Oct_10_1508,SpeechDraft1Carolyn_lessNoise_locIncl_Mach2,2021.2.3,60.015427645575414,
,,,,,,,,midRight,13.0,3,ch1Sound_localizationTask.wav,13.0,"(1142, 878)","(182, -202)",190,-338,,,,,,,,,,,,,2,5,19,5,,,,,,,,,,,,,,,,,,,,,,,,,,,,,,,,,,,,,,,,1242.0290485830046,None,,,1245.0454344330356,None,1.5957671957671957,0.7825974540319294,1245.0454344330356,None,,,,,,,1243.0290501720738,None,1243.212316852063,1243.2290206369944,,,,,,,125,001,2023_Oct_10_1508,SpeechDraft1Carolyn_lessNoise_locIncl_Mach2,2021.2.3,60.015427645575414,
,,,,,,,,farRight,19.1,4,ch1Sound_localizationTask.wav,19.1,"(1237, 878)","(277,-202)",285,-338,,,,,,,,,,,,,2,6,20,6,,,,,,,,,,,,,,,,,,,,,,,,,,,,,,,,,,,,,,,,1245.8290294839535,None,,,1248.8453398749698,None,1.646031746031746,1.266323602059856,1248.8453398749698,None,,,,,,,1246.829053974012,None,1247.0124426800758,1247.0290138570126,,,,,,,125,001,2023_Oct_10_1508,SpeechDraft1Carolyn_lessNoise_locIncl_Mach2,2021.2.3,60.015427645575414,
,,,,,,,,farLeft,-19.1,5,ch1Sound_localizationTask.wav,-19.1,"(667, 878)","(-293,-202)",-285,-338,,,,,,,,,,,,,3,0,21,0,,,,,,,,,,,,,,,,,,,,,,,,,,,,,,,,,,,,,,,,1250.1122593621258,None,,,1253.1287600530777,None,1.3851851851851853,1.2998450919985771,1253.1287600530777,None,,,,,,,1251.1123021161184,None,1251.2957984739915,1251.3123012920842,,,,,,,125,001,2023_Oct_10_1508,SpeechDraft1Carolyn_lessNoise_locIncl_Mach2,2021.2.3,60.015427645575414,
,,,,,,,,farLeft,-19.1,5,ch1Sound_localizationTask.wav,-19.1,"(667, 878)","(-293,-202)",-285,-338,,,,,,,,,,,,,3,1,22,0,,,,,,,,,,,,,,,,,,,,,,,,,,,,,,,,,,,,,,,,1254.4292429699562,None,,,1257.4455798550043,None,1.3825396825396825,0.8486964260227978,1257.4455798550043,None,,,,,,,1255.42917858297,None,1255.612459124066,1255.629208220169,,,,,,,125,001,2023_Oct_10_1508,SpeechDraft1Carolyn_lessNoise_locIncl_Mach2,2021.2.3,60.015427645575414,
,,,,,,,,farLeft,-19.1,5,ch1Sound_localizationTask.wav,-19.1,"(667, 878)","(-293,-202)",-285,-338,,,,,,,,,,,,,3,2,23,0,,,,,,,,,,,,,,,,,,,,,,,,,,,,,,,,,,,,,,,,1258.295759074157,None,,,1261.3120365401264,None,1.3470899470899471,0.882546701002866,1261.3120365401264,None,,,,,,,1259.295782878995,None,1259.4790053700563,1259.495833212044,,,,,,,125,001,2023_Oct_10_1508,SpeechDraft1Carolyn_lessNoise_locIncl_Mach2,2021.2.3,60.015427645575414,
,,,,,,,,midRight,13.0,3,ch1Sound_localizationTask.wav,13.0,"(1142, 878)","(182, -202)",190,-338,,,,,,,,,,,,,3,3,24,5,,,,,,,,,,,,,,,,,,,,,,,,,,,,,,,,,,,,,,,,1262.1956362479832,None,,,1265.2121663880534,None,1.5952380952380953,1.0818121009506285,1265.2121663880534,None,,,,,,,1263.195734797977,None,1263.3790438140277,1263.3956735341344,,,,,,,125,001,2023_Oct_10_1508,SpeechDraft1Carolyn_lessNoise_locIncl_Mach2,2021.2.3,60.015427645575414,
,,,,,,,,nearRight,6.5,0,ch1Sound_localizationTask.wav,6.5,"(1047, 878)","(87, -202)",95,-338,,,,,,,,,,,,,3,4,25,4,,,,,,,,,,,,,,,,,,,,,,,,,,,,,,,,,,,,,,,,1266.2958204951137,None,,,1269.312238387065,None,1.5597883597883597,1.099344324087724,1269.312238387065,None,,,,,,,1267.2956662280485,None,1267.479048686102,1267.495632992126,,,,,,,125,001,2023_Oct_10_1508,SpeechDraft1Carolyn_lessNoise_locIncl_Mach2,2021.2.3,60.015427645575414,
,,,,,,,,nearRight,6.5,0,ch1Sound_localizationTask.wav,6.5,"(1047, 878)","(87, -202)",95,-338,,,,,,,,,,,,,3,5,26,4,,,,,,,,,,,,,,,,,,,,,,,,,,,,,,,,,,,,,,,,1270.412416095147,None,,,1273.4288051670883,None,1.5486772486772487,1.2656855368986726,1273.4288051670883,None,,,,,,,1271.412415156141,None,1271.5957489639986,1271.612504950026,,,,,,,125,001,2023_Oct_10_1508,SpeechDraft1Carolyn_lessNoise_locIncl_Mach2,2021.2.3,60.015427645575414,
,,,,,,,,center,0.0,6,ch1Sound_localizationTask.wav,0.0,"(952, 878)","(-8,-202)",0,-338,,,,,,,,,,,,,3,6,27,3,,,,,,,,,,,,,,,,,,,,,,,,,,,,,,,,,,,,,,,,1274.6957585711498,None,,,1277.7120641430374,None,1.5,1.68305155611597,1277.7120641430374,None,,,,,,,1275.6957326370757,None,1275.879106844077,1275.8959690870252,,,,,,,125,001,2023_Oct_10_1508,SpeechDraft1Carolyn_lessNoise_locIncl_Mach2,2021.2.3,60.015427645575414,
,,,,,,,,midRight,13.0,3,ch1Sound_localizationTask.wav,13.0,"(1142, 878)","(182, -202)",190,-338,,,,,,,,,,,,,4,0,28,5,,,,,,,,,,,,,,,,,,,,,,,,,,,,,,,,,,,,,,,,1279.3957018749788,None,,,1282.4122145900037,None,1.6306878306878307,1.9325483159627765,1282.4122145900037,None,,,,,,,1280.3957567620091,None,1280.579071717104,1280.5957789150998,,,,,,,125,001,2023_Oct_10_1508,SpeechDraft1Carolyn_lessNoise_locIncl_Mach2,2021.2.3,60.015427645575414,
,,,,,,,,farRight,19.1,4,ch1Sound_localizationTask.wav,19.1,"(1237, 878)","(277,-202)",285,-338,,,,,,,,,,,,,4,1,29,6,,,,,,,,,,,,,,,,,,,,,,,,,,,,,,,,,,,,,,,,1284.3457681951113,None,,,1287.3621608221438,None,1.6867724867724867,1.1327773830853403,1287.3621608221438,None,,,,,,,1285.3458308430854,None,1285.529066635063,1285.5457886341028,,,,,,,125,001,2023_Oct_10_1508,SpeechDraft1Carolyn_lessNoise_locIncl_Mach2,2021.2.3,60.015427645575414,
,,,,,,,,midLeft,-13.0,2,ch1Sound_localizationTask.wav,-13.0,"(762, 878)","(-198,-202)",-190,-338,,,,,,,,,,,,,4,2,30,1,,,,,,,,,,,,,,,,,,,,,,,,,,,,,,,,,,,,,,,,1288.4957219110802,None,,,1291.512165067019,None,1.434920634920635,1.399477920960635,1291.512165067019,None,,,,,,,1289.4957895891275,None,1289.6792253691237,1289.6957122520544,,,,,,,125,001,2023_Oct_10_1508,SpeechDraft1Carolyn_lessNoise_locIncl_Mach2,2021.2.3,60.015427645575414,
,,,,,,,,midRight,13.0,3,ch1Sound_localizationTask.wav,13.0,"(1142, 878)","(182, -202)",190,-338,,,,,,,,,,,,,4,3,31,5,,,,,,,,,,,,,,,,,,,,,,,,,,,,,,,,,,,,,,,,1292.912510340102,None,,,1295.928723525023,None,1.6185185185185185,1.1987185769248754,1295.928723525023,None,,,,,,,1293.9124492199626,None,1294.095720347017,1294.1125568449497,,,,,,,125,001,2023_Oct_10_1508,SpeechDraft1Carolyn_lessNoise_locIncl_Mach2,2021.2.3,60.015427645575414,
,,,,,,,,center,0.0,6,ch1Sound_localizationTask.wav,0.0,"(952, 878)","(-8,-202)",0,-338,,,,,,,,,,,,,4,4,32,3,,,,,,,,,,,,,,,,,,,,,,,,,,,,,,,,,,,,,,,,1297.1291077241767,None,,,1300.1454221620224,None,1.4957671957671956,1.1657301189843565,1300.1454221620224,None,,,,,,,1298.1291979071684,None,1298.3125286679715,1298.3291024609935,,,,,,,125,001,2023_Oct_10_1508,SpeechDraft1Carolyn_lessNoise_locIncl_Mach2,2021.2.3,60.015427645575414,
,,,,,,,,midLeft,-13.0,2,ch1Sound_localizationTask.wav,-13.0,"(762, 878)","(-198,-202)",-190,-338,,,,,,,,,,,,,4,5,33,1,,,,,,,,,,,,,,,,,,,,,,,,,,,,,,,,,,,,,,,,1301.312739718007,None,,,1304.3287785090506,None,1.426984126984127,0.9496578830294311,1304.3287785090506,None,,,,,,,1302.3124566620681,None,1302.4957719331142,1302.512496793177,,,,,,,125,001,2023_Oct_10_1508,SpeechDraft1Carolyn_lessNoise_locIncl_Mach2,2021.2.3,60.015427645575414,
,,,,,,,,nearRight,6.5,0,ch1Sound_localizationTask.wav,6.5,"(1047, 878)","(87, -202)",95,-338,,,,,,,,,,,,,4,6,34,4,,,,,,,,,,,,,,,,,,,,,,,,,,,,,,,,,,,,,,,,1305.2791200550273,None,,,1308.295454150997,None,1.5666666666666667,1.2315580109134316,1308.295454150997,None,,,,,,,1306.2791670691222,None,1306.4624945551623,1306.4791533760726,,,,,,,125,001,2023_Oct_10_1508,SpeechDraft1Carolyn_lessNoise_locIncl_Mach2,2021.2.3,60.015427645575414,
,,,,,,,,midLeft,-13.0,2,ch1Sound_localizationTask.wav,-13.0,"(762, 878)","(-198,-202)",-190,-338,,,,,,,,,,,,,5,0,35,1,,,,,,,,,,,,,,,,,,,,,,,,,,,,,,,,,,,,,,,,1309.5291063671466,None,,,1312.5455638989806,None,1.4137566137566138,1.1660524439066648,1312.5455638989806,None,,,,,,,1310.5291230219882,None,1310.7124664660078,1310.729068859946,,,,,,,125,001,2023_Oct_10_1508,SpeechDraft1Carolyn_lessNoise_locIncl_Mach2,2021.2.3,60.015427645575414,
,,,,,,,,center,0.0,6,ch1Sound_localizationTask.wav,0.0,"(952, 878)","(-8,-202)",0,-338,,,,,,,,,,,,,5,1,36,3,,,,,,,,,,,,,,,,,,,,,,,,,,,,,,,,,,,,,,,,1313.7124667051248,None,,,1316.7288571840618,None,1.5026455026455028,1.0987539140041918,1316.7288571840618,None,,,,,,,1314.7124897860922,None,1314.8958777871449,1314.912515182048,,,,,,,125,001,2023_Oct_10_1508,SpeechDraft1Carolyn_lessNoise_locIncl_Mach2,2021.2.3,60.015427645575414,
,,,,,,,,farRight,19.1,4,ch1Sound_localizationTask.wav,19.1,"(1237, 878)","(277,-202)",285,-338,,,,,,,,,,,,,5,2,37,6,,,,,,,,,,,,,,,,,,,,,,,,,,,,,,,,,,,,,,,,1317.8291265580337,None,,,1320.8454726040363,None,1.6756613756613756,1.3163580149412155,1320.8454726040363,None,,,,,,,1318.829119865084,None,1319.0124296420254,1319.0292823000345,,,,,,,125,001,2023_Oct_10_1508,SpeechDraft1Carolyn_lessNoise_locIncl_Mach2,2021.2.3,60.015427645575414,
,,,,,,,,nearRight,6.5,0,ch1Sound_localizationTask.wav,6.5,"(1047, 878)","(87, -202)",95,-338,,,,,,,,,,,,,5,3,38,4,,,,,,,,,,,,,,,,,,,,,,,,,,,,,,,,,,,,,,,,1322.1624769431073,None,,,1325.1788994320668,None,1.5603174603174603,1.8999527129344642,1325.1788994320668,None,,,,,,,1323.1626989629585,None,1323.3458521759603,1323.3625491431449,,,,,,,125,001,2023_Oct_10_1508,SpeechDraft1Carolyn_lessNoise_locIncl_Mach2,2021.2.3,60.015427645575414,
,,,,,,,,farLeft,-19.1,5,ch1Sound_localizationTask.wav,-19.1,"(667, 878)","(-293,-202)",-285,-338,,,,,,,,,,,,,5,4,39,0,,,,,,,,,,,,,,,,,,,,,,,,,,,,,,,,,,,,,,,,1327.079134710133,None,,,1330.0953912890982,None,1.3735449735449734,1.0486421489622444,1330.0953912890982,None,,,,,,,1328.079111142084,None,1328.2625905340537,1328.2791320141405,,,,,,,125,001,2023_Oct_10_1508,SpeechDraft1Carolyn_lessNoise_locIncl_Mach2,2021.2.3,60.015427645575414,
,,,,,,,,farLeft,-19.1,5,ch1Sound_localizationTask.wav,-19.1,"(667, 878)","(-293,-202)",-285,-338,,,,,,,,,,,,,5,5,40,0,,,,,,,,,,,,,,,,,,,,,,,,,,,,,,,,,,,,,,,,1331.1459975750186,None,,,1334.1621560330968,None,1.3566137566137566,1.2995691739488393,1334.1621560330968,None,,,,,,,1332.1458144290373,None,1332.3291080531199,1332.3457889501005,,,,,,,125,001,2023_Oct_10_1508,SpeechDraft1Carolyn_lessNoise_locIncl_Mach2,2021.2.3,60.015427645575414,
,,,,,,,,farRight,19.1,4,ch1Sound_localizationTask.wav,19.1,"(1237, 878)","(277,-202)",285,-338,,,,,,,,,,,,,5,6,41,6,,,,,,,,,,,,,,,,,,,,,,,,,,,,,,,,,,,,,,,,1335.462522156071,None,,,1338.4788908381015,None,1.6714285714285715,1.0156496251001954,1338.4788908381015,None,,,,,,,1336.4626341420226,None,1336.6460257130675,1336.6626417001244,,,,,,,125,001,2023_Oct_10_1508,SpeechDraft1Carolyn_lessNoise_locIncl_Mach2,2021.2.3,60.015427645575414,
,,,,,,,,midLeft,-13.0,2,ch1Sound_localizationTask.wav,-13.0,"(762, 878)","(-198,-202)",-190,-338,,,,,,,,,,,,,6,0,42,1,,,,,,,,,,,,,,,,,,,,,,,,,,,,,,,,,,,,,,,,1339.4958518620115,None,,,1342.5121131469496,None,1.4354497354497355,1.1984939810354263,1342.5121131469496,None,,,,,,,1340.4958595880307,None,1340.6792709799483,1340.6958738190588,,,,,,,125,001,2023_Oct_10_1508,SpeechDraft1Carolyn_lessNoise_locIncl_Mach2,2021.2.3,60.015427645575414,
,,,,,,,,nearLeft,-6.5,1,ch1Sound_localizationTask.wav,-6.5,"(857, 878)","(-103,-202)",-95,-338,,,,,,,,,,,,,6,1,43,2,,,,,,,,,,,,,,,,,,,,,,,,,,,,,,,,,,,,,,,,1343.7125008951407,None,,,1346.7289515021257,None,1.4386243386243387,0.5994379729963839,1346.7289515021257,None,,,,,,,1344.7124541499652,None,1344.8959059531335,1344.9124971330166,,,,,,,125,001,2023_Oct_10_1508,SpeechDraft1Carolyn_lessNoise_locIncl_Mach2,2021.2.3,60.015427645575414,
,,,,,,,,midRight,13.0,3,ch1Sound_localizationTask.wav,13.0,"(1142, 878)","(182, -202)",190,-338,,,,,,,,,,,,,6,2,44,5,,,,,,,,,,,,,,,,,,,,,,,,,,,,,,,,,,,,,,,,1347.3292509899475,None,,,1350.3455108150374,None,1.5693121693121692,0.8997429891023785,1350.3455108150374,None,,,,,,,1348.3291714850347,None,1348.5126431961544,1348.529165832093,,,,,,,125,001,2023_Oct_10_1508,SpeechDraft1Carolyn_lessNoise_locIncl_Mach2,2021.2.3,60.015427645575414,
,,,,,,,,midRight,13.0,3,ch1Sound_localizationTask.wav,13.0,"(1142, 878)","(182, -202)",190,-338,,,,,,,,,,,,,6,3,45,5,,,,,,,,,,,,,,,,,,,,,,,,,,,,,,,,,,,,,,,,1351.2465485141147,None,,,1354.2622215410229,None,1.6,0.5330081030260772,1354.2622215410229,None,,,,,,,1352.2458773520775,None,1352.4291708080564,1352.4457706131507,,,,,,,125,001,2023_Oct_10_1508,SpeechDraft1Carolyn_lessNoise_locIncl_Mach2,2021.2.3,60.015427645575414,
,,,,,,,,midRight,13.0,3,ch1Sound_localizationTask.wav,13.0,"(1142, 878)","(182, -202)",190,-338,,,,,,,,,,,,,6,4,46,5,,,,,,,,,,,,,,,,,,,,,,,,,,,,,,,,,,,,,,,,1354.7958350479603,None,,,1357.8121111011133,None,1.6179894179894179,1.1330110668204725,1357.8121111011133,None,,,,,,,1355.7958367620595,None,1355.9791727240663,1355.9958193770144,,,,,,,125,001,2023_Oct_10_1508,SpeechDraft1Carolyn_lessNoise_locIncl_Mach2,2021.2.3,60.015427645575414,
,,,,,,,,nearLeft,-6.5,1,ch1Sound_localizationTask.wav,-6.5,"(857, 878)","(-103,-202)",-95,-338,,,,,,,,,,,,,6,5,47,2,,,,,,,,,,,,,,,,,,,,,,,,,,,,,,,,,,,,,,,,1358.9458208221477,None,,,1361.9624873111024,None,1.4772486772486773,0.8987183819990605,1361.9624873111024,None,,,,,,,1359.9458654939663,None,1360.1291702680755,1360.1458994389977,,,,,,,125,001,2023_Oct_10_1508,SpeechDraft1Carolyn_lessNoise_locIncl_Mach2,2021.2.3,60.015427645575414,
,,,,,,,,center,0.0,6,ch1Sound_localizationTask.wav,0.0,"(952, 878)","(-8,-202)",0,-338,,,,,,,,,,,,,6,6,48,3,,,,,,,,,,,,,,,,,,,,,,,,,,,,,,,,,,,,,,,,1362.8625279520638,None,,,1365.8788892689627,None,1.5047619047619047,0.5988675788976252,1365.8788892689627,None,,,,,,,1363.862573672086,None,1364.0458680321462,1364.0625494471751,,,,,,,125,001,2023_Oct_10_1508,SpeechDraft1Carolyn_lessNoise_locIncl_Mach2,2021.2.3,60.015427645575414,
,,,,,,,,farLeft,-19.1,5,ch1Sound_localizationTask.wav,-19.1,"(667, 878)","(-293,-202)",-285,-338,,,,,,,,,,,,,7,0,49,0,,,,,,,,,,,,,,,,,,,,,,,,,,,,,,,,,,,,,,,,1366.4792766650207,None,,,1369.4956760189962,None,1.4137566137566138,0.9817705911118537,1369.4956760189962,None,,,,,,,1367.4792939680628,None,1367.6625074569602,1367.679175058147,,,,,,,125,001,2023_Oct_10_1508,SpeechDraft1Carolyn_lessNoise_locIncl_Mach2,2021.2.3,60.015427645575414,
,,,,,,,,nearLeft,-6.5,1,ch1Sound_localizationTask.wav,-6.5,"(857, 878)","(-103,-202)",-95,-338,,,,,,,,,,,,,7,1,50,2,,,,,,,,,,,,,,,,,,,,,,,,,,,,,,,,,,,,,,,,1370.479269325966,None,,,1373.495616959175,None,1.4603174603174602,0.9828089780639857,1373.495616959175,None,,,,,,,1371.479200777132,None,1371.6626177560538,1371.6792821390554,,,,,,,125,001,2023_Oct_10_1508,SpeechDraft1Carolyn_lessNoise_locIncl_Mach2,2021.2.3,60.015427645575414,
,,,,,,,,farRight,19.1,4,ch1Sound_localizationTask.wav,19.1,"(1237, 878)","(277,-202)",285,-338,,,,,,,,,,,,,7,2,51,6,,,,,,,,,,,,,,,,,,,,,,,,,,,,,,,,,,,,,,,,1374.4792303070426,None,,,1377.4957304140553,None,1.665079365079365,1.5818132869899273,1377.4957304140553,None,,,,,,,1375.4792020770255,None,1375.6625166949816,1375.6792574580759,,,,,,,125,001,2023_Oct_10_1508,SpeechDraft1Carolyn_lessNoise_locIncl_Mach2,2021.2.3,60.015427645575414,
,,,,,,,,nearLeft,-6.5,1,ch1Sound_localizationTask.wav,-6.5,"(857, 878)","(-103,-202)",-95,-338,,,,,,,,,,,,,7,3,52,2,,,,,,,,,,,,,,,,,,,,,,,,,,,,,,,,,,,,,,,,1379.0792930871248,None,,,1382.0955959570128,None,1.483068783068783,0.916277701035142,1382.0955959570128,None,,,,,,,1380.0792148739565,None,1380.2625428149477,1380.2791989629623,,,,,,,125,001,2023_Oct_10_1508,SpeechDraft1Carolyn_lessNoise_locIncl_Mach2,2021.2.3,60.015427645575414,
,,,,,,,,midLeft,-13.0,2,ch1Sound_localizationTask.wav,-13.0,"(762, 878)","(-198,-202)",-190,-338,,,,,,,,,,,,,7,4,53,1,,,,,,,,,,,,,,,,,,,,,,,,,,,,,,,,,,,,,,,,1383.0124495429918,None,,,1386.028937584022,None,1.416931216931217,1.2985565878916532,1386.028937584022,None,,,,,,,1384.0125206890516,None,1384.1958831390366,1384.212787522003,,,,,,,125,001,2023_Oct_10_1508,SpeechDraft1Carolyn_lessNoise_locIncl_Mach2,2021.2.3,60.015427645575414,
,,,,,,,,farRight,19.1,4,ch1Sound_localizationTask.wav,19.1,"(1237, 878)","(277,-202)",285,-338,,,,,,,,,,,,,7,5,54,6,,,,,,,,,,,,,,,,,,,,,,,,,,,,,,,,,,,,,,,,1387.3291491281707,None,,,1390.345747440122,None,1.671957671957672,1.3156088520772755,1390.345747440122,None,,,,,,,1388.3292709139641,None,1388.512820973061,1388.5293296361342,,,,,,,125,001,2023_Oct_10_1508,SpeechDraft1Carolyn_lessNoise_locIncl_Mach2,2021.2.3,60.015427645575414,
,,,,,,,,midLeft,-13.0,2,ch1Sound_localizationTask.wav,-13.0,"(762, 878)","(-198,-202)",-190,-338,,,,,,,,,,,,,7,6,55,1,,,,,,,,,,,,,,,,,,,,,,,,,,,,,,,,,,,,,,,,1391.6625099519733,None,,,1394.6790231310297,None,1.4455026455026454,1.0826254419516772,1394.6790231310297,None,,,,,,,1392.6626740051433,None,1392.8459861651063,1392.8626097871456,,,,,,,125,001,2023_Oct_10_1508,SpeechDraft1Carolyn_lessNoise_locIncl_Mach2,2021.2.3,60.015427645575414,
,,,,,,,,,,,,,,,,,,,,,,,,,,,,,,,,,,,,,,,,,,,,,,,,,,,,,,,,,,,,,,,,,,,,,,,,,,,,,,,,,,,,,,,,,,,,1395.7626798821148,None,c,21.694456672063097,1396.7460104629863,None,125,001,2023_Oct_10_1508,SpeechDraft1Carolyn_lessNoise_locIncl_Mach2,2021.2.3,60.015427645575414,
