Audio_Only_Files,Video_Files,Original_Word_List,noiseLevelCode,conditionCodes,noiseLevelFile1,noiseLevelFile2,InstrTextVar,practiceTrials.thisRepN,practiceTrials.thisTrialN,practiceTrials.thisN,practiceTrials.thisIndex,trials.thisRepN,trials.thisTrialN,trials.thisN,trials.thisIndex,letsGoAlready.keys,letsGoAlready.rt,letsGoAlready.started,letsGoAlready.stopped,text_2.started,text_2.stopped,text_3.started,text_3.stopped,key_resp_2.keys,key_resp_2.rt,key_resp_2.started,key_resp_2.stopped,text_5.started,text_5.stopped,fixCross.started,fixCross.stopped,fixCross2.started,fixCross2.stopped,answerPrompt.started,answerPrompt.stopped,getAnswer.text,getAnswer.started,getAnswer.stopped,goToNext.keys,goToNext.rt,goToNext.started,goToNext.stopped,stretchBreakTxrt.started,stretchBreakTxrt.stopped,key_resp_3.keys,key_resp_3.rt,key_resp_3.started,key_resp_3.stopped,exitTxt.started,exitTxt.stopped,key_resp.keys,key_resp.rt,key_resp.started,key_resp.stopped,participant,session,date,expName,psychopyVersion,frameRate,
,,,,,,,,,,,,,,,,space,1.8779779440374114,8.718568796000909,None,,,,,,,,,,,,,,,,,,,,,,,,,,,,,,,,,,,,12,001,2023_Feb_09_1202,SpeechDraft1Carolyn_lessNoise,2021.2.3,59.99956032350616,
,,,,,,,,,,,,,,,,,,,,8.718568796000909,None,10.619057787000202,None,space,4.770747505011968,10.801874155993573,None,,,,,,,,,,,,,,,,,,,,,,,,,,,,12,001,2023_Feb_09_1202,SpeechDraft1Carolyn_lessNoise,2021.2.3,59.99956032350616,
ash.wav,ash.mpg,ash,1,A,Pink_Noise_1_1.wav,Pink_Noise_1_2.wav,"This is an example of an

AUDIO trial",0,0,0,0,,,,,,,,,,,,,,,,,15.635090911993757,None,16.618426222994458,None,19.75211322196992,None,21.135852468956728,None,ash,21.135852468956728,None,return,4.666155717044603,21.21843234996777,None,,,,,,,,,,,,,12,001,2023_Feb_09_1202,SpeechDraft1Carolyn_lessNoise,2021.2.3,59.99956032350616,
ash.wav,ash.mpg,ash,1,AV,Pink_Noise_1_1.wav,Pink_Noise_1_2.wav,"This is an example of an

AUDIO + VIDEO  trial",0,1,1,1,,,,,,,,,,,,,,,,,25.91852533700876,None,26.918209224008024,None,28.401556479977444,None,29.785166960966308,None,"ash
",29.785166960966308,None,return,1.9842619490227662,29.8683200609521,None,,,,,,,,,,,,,12,001,2023_Feb_09_1202,SpeechDraft1Carolyn_lessNoise,2021.2.3,59.99956032350616,
,,,,,,,,,,,,,,,,,,,,,,,,,,,,,,,,,,,,,,,,,,,31.901448591961525,None,space,9.815647475945298,32.08494896098273,None,,,,,,,12,001,2023_Feb_09_1202,SpeechDraft1Carolyn_lessNoise,2021.2.3,59.99956032350616,
faint.wav,faint.mpg,faint,2,A,Pink_Noise_2_1.wav,Pink_Noise_2_2.wav,,,,,,0,0,0,26,,,,,,,,,,,,,,,41.951308991003316,None,43.417999826953746,None,44.801891587965656,None,"faint
",44.801891587965656,None,return,3.1514933219878003,44.885048544965684,None,,,,,,,,,,,,,12,001,2023_Feb_09_1202,SpeechDraft1Carolyn_lessNoise,2021.2.3,59.99956032350616,
guess.wav,guess.mpg,guess,1,AV,Pink_Noise_1_1.wav,Pink_Noise_1_2.wav,,,,,,0,1,1,119,,,,,,,,,,,,,,,48.06842367595527,None,49.55135467700893,None,50.95139737095451,None,guess,50.95139737095451,None,return,2.689931010012515,51.018603370001074,None,,,,,,,,,,,,,12,001,2023_Feb_09_1202,SpeechDraft1Carolyn_lessNoise,2021.2.3,59.99956032350616,
hit.wav,hit.mpg,hit,5,A,Pink_Noise_5_1.wav,Pink_Noise_5_2.wav,,,,,,0,2,2,34,,,,,,,,,,,,,,,53.735195974004455,None,55.21871731500141,None,56.60192730597919,None,"himt
",56.60192730597919,None,return,1.5355272709857672,56.68501216499135,None,,,,,,,,,,,,,12,001,2023_Feb_09_1202,SpeechDraft1Carolyn_lessNoise,2021.2.3,59.99956032350616,
fuse.wav,fuse.mpg,fuse,2,A,Pink_Noise_2_1.wav,Pink_Noise_2_2.wav,,,,,,0,3,3,54,,,,,,,,,,,,,,,58.25181954499567,None,59.73606948199449,None,61.11866802000441,None,hims,61.11866802000441,None,return,2.1627892589895055,61.20174897299148,None,,,,,,,,,,,,,12,001,2023_Feb_09_1202,SpeechDraft1Carolyn_lessNoise,2021.2.3,59.99956032350616,
groan.wav,groan.mpg,groan,5,A,Pink_Noise_5_1.wav,Pink_Noise_5_2.wav,,,,,,0,4,4,27,,,,,,,,,,,,,,,63.385134501964785,None,64.86856459296541,None,66.25170926895225,None,bone,66.25170926895225,None,return,9.8614930260228,66.33506961300736,None,,,,,,,,,,,,,12,001,2023_Feb_09_1202,SpeechDraft1Carolyn_lessNoise,2021.2.3,59.99956032350616,
fowl.wav,fowl.mpg,fowl,3,AV,Pink_Noise_3_1.wav,Pink_Noise_3_2.wav,,,,,,0,5,5,76,,,,,,,,,,,,,,,76.21864647598704,None,77.70292154100025,None,79.08505924796918,None,foam,79.08505924796918,None,return,1.6600789689691737,79.16844314296031,None,,,,,,,,,,,,,12,001,2023_Feb_09_1202,SpeechDraft1Carolyn_lessNoise,2021.2.3,59.99956032350616,
tomb.wav,tomb.mpg,tomb,4,A,Pink_Noise_4_1.wav,Pink_Noise_4_2.wav,,,,,,0,6,6,31,,,,,,,,,,,,,,,80.85173688596115,None,82.35157630796311,None,83.73523030296201,None,tune,83.73523030296201,None,return,1.0900154470000416,83.81862642598571,None,,,,,,,,,,,,,12,001,2023_Feb_09_1202,SpeechDraft1Carolyn_lessNoise,2021.2.3,59.99956032350616,
date.wav,date.mpg,date,3,AV,Pink_Noise_3_1.wav,Pink_Noise_3_2.wav,,,,,,0,7,7,118,,,,,,,,,,,,,,,84.9352397689945,None,86.4180567379808,None,87.8015999479685,None,date,87.8015999479685,None,return,1.391566310019698,87.88501468999311,None,,,,,,,,,,,,,12,001,2023_Feb_09_1202,SpeechDraft1Carolyn_lessNoise,2021.2.3,59.99956032350616,
duet.wav,duet.mpg,duet,1,AV,Pink_Noise_1_1.wav,Pink_Noise_1_2.wav,,,,,,0,8,8,67,,,,,,,,,,,,,,,89.30167655798141,None,90.80159902595915,None,92.16840975597734,None,duet,92.16840975597734,None,return,0.8963391190045513,92.25226871395716,None,,,,,,,,,,,,,12,001,2023_Feb_09_1202,SpeechDraft1Carolyn_lessNoise,2021.2.3,59.99956032350616,
fad.wav,fad.mpg,fad,4,A,Pink_Noise_4_1.wav,Pink_Noise_4_2.wav,,,,,,0,9,9,46,,,,,,,,,,,,,,,93.1683843130013,None,94.65163727098843,None,96.0353152329917,None,fan,96.0353152329917,None,return,0.9260328039526939,96.1184988039895,None,,,,,,,,,,,,,12,001,2023_Feb_09_1202,SpeechDraft1Carolyn_lessNoise,2021.2.3,59.99956032350616,
clean.wav,clean.mpg,clean,1,A,Pink_Noise_1_1.wav,Pink_Noise_1_2.wav,,,,,,0,10,10,12,,,,,,,,,,,,,,,97.06849320995389,None,98.55161391897127,None,99.9351476279553,None,clean,99.9351476279553,None,return,7.313619951019064,100.03503709699726,None,,,,,,,,,,,,,12,001,2023_Feb_09_1202,SpeechDraft1Carolyn_lessNoise,2021.2.3,59.99956032350616,
fifth.wav,fifth.mpg,fifth,6,AV,Pink_Noise_6_1.wav,Pink_Noise_6_2.wav,,,,,,0,11,11,69,,,,,,,,,,,,,,,107.36850281100487,None,108.86826777097303,None,110.25175171898445,None,filth,110.25175171898445,None,return,3.9970806860364974,110.33544803695986,None,,,,,,,,,,,,,12,001,2023_Feb_09_1202,SpeechDraft1Carolyn_lessNoise,2021.2.3,59.99956032350616,
bride.wav,bride.mpg,bride,2,A,Pink_Noise_2_1.wav,Pink_Noise_2_2.wav,,,,,,0,12,12,10,,,,,,,,,,,,,,,114.35184484597994,None,115.83549105096608,None,117.21864918398205,None,"bride
",117.21864918398205,None,return,0.9345855109859258,117.30195787199773,None,,,,,,,,,,,,,12,001,2023_Feb_09_1202,SpeechDraft1Carolyn_lessNoise,2021.2.3,59.99956032350616,
globe.wav,globe.mpg,globe,6,A,Pink_Noise_6_1.wav,Pink_Noise_6_2.wav,,,,,,0,13,13,28,,,,,,,,,,,,,,,118.26871718099574,None,119.76848538196646,None,121.13527190097375,None,cone,121.13527190097375,None,return,1.0901872809627093,121.21844197099563,None,,,,,,,,,,,,,12,001,2023_Feb_09_1202,SpeechDraft1Carolyn_lessNoise,2021.2.3,59.99956032350616,
drag.wav,drag.mpg,drag,3,AV,Pink_Noise_3_1.wav,Pink_Noise_3_2.wav,,,,,,0,14,14,81,,,,,,,,,,,,,,,122.33530819800217,None,123.81921059795422,None,125.20169099100167,None,drag,125.20169099100167,None,return,1.0715007609687746,125.28509327198844,None,,,,,,,,,,,,,12,001,2023_Feb_09_1202,SpeechDraft1Carolyn_lessNoise,2021.2.3,59.99956032350616,
bind.wav,bind.mpg,bind,6,A,Pink_Noise_6_1.wav,Pink_Noise_6_2.wav,,,,,,0,15,15,15,,,,,,,,,,,,,,,126.38516083796276,None,127.868452463008,None,129.2520394329913,None,fine,129.2520394329913,None,return,1.061411617032718,129.33515529497527,None,,,,,,,,,,,,,12,001,2023_Feb_09_1202,SpeechDraft1Carolyn_lessNoise,2021.2.3,59.99956032350616,
cap.wav,cap.mpg,cap,2,AV,Pink_Noise_2_1.wav,Pink_Noise_2_2.wav,,,,,,0,16,16,78,,,,,,,,,,,,,,,130.41841724095866,None,131.9016370829777,None,133.28513464098796,None,cap,133.28513464098796,None,return,0.7561892800149508,133.36838901095325,None,,,,,,,,,,,,,12,001,2023_Feb_09_1202,SpeechDraft1Carolyn_lessNoise,2021.2.3,59.99956032350616,
blob.wav,blob.mpg,blob,2,AV,Pink_Noise_2_1.wav,Pink_Noise_2_2.wav,,,,,,0,17,17,113,,,,,,,,,,,,,,,134.15177262900397,None,135.6350541319698,None,137.01837079797406,None,"blob
",137.01837079797406,None,return,1.9348032109555788,137.10174652497517,None,,,,,,,,,,,,,12,001,2023_Feb_09_1202,SpeechDraft1Carolyn_lessNoise,2021.2.3,59.99956032350616,
flush.wav,flush.mpg,flush,1,A,Pink_Noise_1_1.wav,Pink_Noise_1_2.wav,,,,,,0,18,18,35,,,,,,,,,,,,,,,139.068457516958,None,140.55181160499342,None,141.93505504197674,None,"flusg
",141.93505504197674,None,return,3.817758472985588,142.01878662098898,None,,,,,,,,,,,,,12,001,2023_Feb_09_1202,SpeechDraft1Carolyn_lessNoise,2021.2.3,59.99956032350616,
shrimp.wav,shrimp.mpg,shrimp,3,A,Pink_Noise_3_1.wav,Pink_Noise_3_2.wav,,,,,,0,19,19,30,,,,,,,,,,,,,,,145.86868200998288,None,147.35188613599166,None,148.73531479400117,None,shrimp,148.73531479400117,None,return,1.642008937022183,148.81852239795262,None,,,,,,,,,,,,,12,001,2023_Feb_09_1202,SpeechDraft1Carolyn_lessNoise,2021.2.3,59.99956032350616,
crop.wav,crop.mpg,crop,4,A,Pink_Noise_4_1.wav,Pink_Noise_4_2.wav,,,,,,0,20,20,22,,,,,,,,,,,,,,,150.48512709798524,None,151.9685115509783,None,153.35192395595368,None,clap,153.35192395595368,None,return,1.5931947270291857,153.43535701895598,None,,,,,,,,,,,,,12,001,2023_Feb_09_1202,SpeechDraft1Carolyn_lessNoise,2021.2.3,59.99956032350616,
fuss.wav,fuss.mpg,fuss,1,A,Pink_Noise_1_1.wav,Pink_Noise_1_2.wav,,,,,,0,21,21,24,,,,,,,,,,,,,,,155.05180878099054,None,156.55153382598655,None,157.935257273959,None,"fuss
",157.935257273959,None,return,0.986100637994241,158.0184560029884,None,,,,,,,,,,,,,12,001,2023_Feb_09_1202,SpeechDraft1Carolyn_lessNoise,2021.2.3,59.99956032350616,
bribe.wav,bribe.mpg,bribe,6,A,Pink_Noise_6_1.wav,Pink_Noise_6_2.wav,,,,,,0,22,22,42,,,,,,,,,,,,,,,159.03528715699213,None,160.51831367000705,None,161.90180691797286,None,drive,161.90180691797286,None,return,1.723335858026985,161.98523950198432,None,,,,,,,,,,,,,12,001,2023_Feb_09_1202,SpeechDraft1Carolyn_lessNoise,2021.2.3,59.99956032350616,
dig.wav,dig.mpg,dig,2,AV,Pink_Noise_2_1.wav,Pink_Noise_2_2.wav,,,,,,0,23,23,65,,,,,,,,,,,,,,,163.73551879095612,None,165.2352321119979,None,166.60178478399757,None,"dig
",166.60178478399757,None,return,0.9349790679989383,166.6855465999688,None,,,,,,,,,,,,,12,001,2023_Feb_09_1202,SpeechDraft1Carolyn_lessNoise,2021.2.3,59.99956032350616,
bruise.wav,bruise.mpg,bruise,4,AV,Pink_Noise_4_1.wav,Pink_Noise_4_2.wav,,,,,,0,24,24,93,,,,,,,,,,,,,,,167.6518271979876,None,169.13536073599244,None,170.51845009898534,None,bruise,170.51845009898534,None,return,1.5627264410140924,170.60179046698613,None,,,,,,,,,,,,,12,001,2023_Feb_09_1202,SpeechDraft1Carolyn_lessNoise,2021.2.3,59.99956032350616,
bomb.wav,bomb.mpg,bomb,1,AV,Pink_Noise_1_1.wav,Pink_Noise_1_2.wav,,,,,,0,25,25,107,,,,,,,,,,,,,,,172.18523417698452,None,173.66828295600135,None,175.05180792999454,None,bomb,175.05180792999454,None,return,0.6611789090093225,175.13533607899444,None,,,,,,,,,,,,,12,001,2023_Feb_09_1202,SpeechDraft1Carolyn_lessNoise,2021.2.3,59.99956032350616,
gem.wav,gem.mpg,gem,5,A,Pink_Noise_5_1.wav,Pink_Noise_5_2.wav,,,,,,0,26,26,53,,,,,,,,,,,,,,,175.81847221998032,None,177.30165643396322,None,178.68545769300545,None,jem,178.68545769300545,None,return,1.4038856539991684,178.76863356900867,None,,,,,,,,,,,,,12,001,2023_Feb_09_1202,SpeechDraft1Carolyn_lessNoise,2021.2.3,59.99956032350616,
blunt.wav,blunt.mpg,blunt,4,AV,Pink_Noise_4_1.wav,Pink_Noise_4_2.wav,,,,,,0,27,27,77,,,,,,,,,,,,,,,180.20190713997,None,181.68506495695328,None,183.0689072359819,None,blunt,183.0689072359819,None,return,1.3327697539934888,183.15181249496527,None,,,,,,,,,,,,,12,001,2023_Feb_09_1202,SpeechDraft1Carolyn_lessNoise,2021.2.3,59.99956032350616,
damp.wav,damp.mpg,damp,1,AV,Pink_Noise_1_1.wav,Pink_Noise_1_2.wav,,,,,,0,28,28,110,,,,,,,,,,,,,,,184.502094061987,None,186.00192528695334,None,187.36847761896206,None,damp,187.36847761896206,None,return,0.672831344010774,187.45184702600818,None,,,,,,,,,,,,,12,001,2023_Feb_09_1202,SpeechDraft1Carolyn_lessNoise,2021.2.3,59.99956032350616,
dawn.wav,dawn.mpg,dawn,3,A,Pink_Noise_3_1.wav,Pink_Noise_3_2.wav,,,,,,0,29,29,47,,,,,,,,,,,,,,,188.1518541050027,None,189.6348529009847,None,191.01854039297905,None,dog,191.01854039297905,None,return,0.7827688690158539,191.1018462589709,None,,,,,,,,,,,,,12,001,2023_Feb_09_1202,SpeechDraft1Carolyn_lessNoise,2021.2.3,59.99956032350616,
pants.wav,pants.mpg,pants,1,AV,Pink_Noise_1_1.wav,Pink_Noise_1_2.wav,,,,,,0,30,30,84,,,,,,,,,,,,,,,191.9020989019773,None,193.4016124579939,None,194.78514924796764,None,"pants
",194.78514924796764,None,return,0.6000491809681989,194.86849638796411,None,,,,,,,,,,,,,12,001,2023_Feb_09_1202,SpeechDraft1Carolyn_lessNoise,2021.2.3,59.99956032350616,
ask.wav,ask.mpg,ask,4,A,Pink_Noise_4_1.wav,Pink_Noise_4_2.wav,,,,,,0,31,31,11,,,,,,,,,,,,,,,195.50193474197295,None,197.001702051959,None,198.38520128297387,None,ask,198.38520128297387,None,return,0.8959808290237561,198.468554010964,None,,,,,,,,,,,,,12,001,2023_Feb_09_1202,SpeechDraft1Carolyn_lessNoise,2021.2.3,59.99956032350616,
grab.wav,grab.mpg,grab,3,AV,Pink_Noise_3_1.wav,Pink_Noise_3_2.wav,,,,,,0,32,32,75,,,,,,,,,,,,,,,199.38522502797423,None,200.88519322796492,None,202.26840395195177,None,grab,202.26840395195177,None,return,0.8126531299785711,202.3519044269924,None,,,,,,,,,,,,,12,001,2023_Feb_09_1202,SpeechDraft1Carolyn_lessNoise,2021.2.3,59.99956032350616,
guest.wav,guest.mpg,guest,6,A,Pink_Noise_6_1.wav,Pink_Noise_6_2.wav,,,,,,0,33,33,0,,,,,,,,,,,,,,,203.18519920198014,None,204.6684255709988,None,206.0518821909791,None,nasty,206.0518821909791,None,return,2.477039897989016,206.13548022595933,None,,,,,,,,,,,,,12,001,2023_Feb_09_1202,SpeechDraft1Carolyn_lessNoise,2021.2.3,59.99956032350616,
fierce.wav,fierce.mpg,fierce,6,AV,Pink_Noise_6_1.wav,Pink_Noise_6_2.wav,,,,,,0,34,34,89,,,,,,,,,,,,,,,208.6352491430007,None,210.1185938239796,None,211.5018205230008,None,"first
",211.5018205230008,None,return,1.0192535709938966,211.58528325299267,None,,,,,,,,,,,,,12,001,2023_Feb_09_1202,SpeechDraft1Carolyn_lessNoise,2021.2.3,59.99956032350616,
coast.wav,coast.mpg,coast,2,A,Pink_Noise_2_1.wav,Pink_Noise_2_2.wav,,,,,,0,35,35,45,,,,,,,,,,,,,,,212.63520676799817,None,214.13531863800017,None,215.5021052119555,None,coast,215.5021052119555,None,return,0.8433865699917078,215.58515470696148,None,,,,,,,,,,,,,12,001,2023_Feb_09_1202,SpeechDraft1Carolyn_lessNoise,2021.2.3,59.99956032350616,
ditch.wav,ditch.mpg,ditch,4,AV,Pink_Noise_4_1.wav,Pink_Noise_4_2.wav,,,,,,0,36,36,61,,,,,,,,,,,,,,,216.45194772497052,None,217.93543939496158,None,219.318739446986,None,ditch,219.318739446986,None,return,1.39460694801528,219.40192295698216,None,,,,,,,,,,,,,12,001,2023_Feb_09_1202,SpeechDraft1Carolyn_lessNoise,2021.2.3,59.99956032350616,
bell.wav,bell.mpg,bell,1,A,Pink_Noise_1_1.wav,Pink_Noise_1_2.wav,,,,,,0,37,37,32,,,,,,,,,,,,,,,220.81852139998227,None,222.318463100004,None,223.70202929899096,None,bell,223.70202929899096,None,return,0.6993372809956782,223.78524114796892,None,,,,,,,,,,,,,12,001,2023_Feb_09_1202,SpeechDraft1Carolyn_lessNoise,2021.2.3,59.99956032350616,
broil.wav,broil.mpg,broil,5,A,Pink_Noise_5_1.wav,Pink_Noise_5_2.wav,,,,,,0,38,38,3,,,,,,,,,,,,,,,224.50198188598733,None,225.9850908399676,None,227.36855678196298,None,broil,227.36855678196298,None,return,1.5765820509986952,227.45194061897928,None,,,,,,,,,,,,,12,001,2023_Feb_09_1202,SpeechDraft1Carolyn_lessNoise,2021.2.3,59.99956032350616,
cone.wav,cone.mpg,cone,4,A,Pink_Noise_4_1.wav,Pink_Noise_4_2.wav,,,,,,0,39,39,20,,,,,,,,,,,,,,,229.05209429195384,None,230.5349965489586,None,231.91853423800785,None,cone,231.91853423800785,None,return,0.4986790730035864,232.0019145209808,None,,,,,,,,,,,,,12,001,2023_Feb_09_1202,SpeechDraft1Carolyn_lessNoise,2021.2.3,59.99956032350616,
tool.wav,tool.mpg,tool,6,AV,Pink_Noise_6_1.wav,Pink_Noise_6_2.wav,,,,,,0,40,40,87,,,,,,,,,,,,,,,232.51870989700546,None,234.0019741290016,None,235.38548064796487,None,tool,235.38548064796487,None,return,0.8396397850010544,235.4689286109642,None,,,,,,,,,,,,,12,001,2023_Feb_09_1202,SpeechDraft1Carolyn_lessNoise,2021.2.3,59.99956032350616,
grand.wav,grand.mpg,grand,3,AV,Pink_Noise_3_1.wav,Pink_Noise_3_2.wav,,,,,,0,41,41,73,,,,,,,,,,,,,,,236.33532515499974,None,237.8184422699851,None,239.2020559560042,None,grand,239.2020559560042,None,return,1.92715062800562,239.28538652096177,None,,,,,,,,,,,,,12,001,2023_Feb_09_1202,SpeechDraft1Carolyn_lessNoise,2021.2.3,59.99956032350616,
drunk.wav,drunk.mpg,drunk,2,AV,Pink_Noise_2_1.wav,Pink_Noise_2_2.wav,,,,,,0,42,42,100,,,,,,,,,,,,,,,241.23525733000133,None,242.73527452000417,None,244.11875436396804,None,drubk,244.11875436396804,None,return,0.7785547109670006,244.20200212695636,None,,,,,,,,,,,,,12,001,2023_Feb_09_1202,SpeechDraft1Carolyn_lessNoise,2021.2.3,59.99956032350616,
leapt.wav,leapt.mpg,leapt,4,A,Pink_Noise_4_1.wav,Pink_Noise_4_2.wav,,,,,,0,43,43,1,,,,,,,,,,,,,,,245.0019668249879,None,246.48515520396177,None,247.86891185399145,None,";et
",247.86891185399145,None,return,0.8366394269978628,247.9519009849755,None,,,,,,,,,,,,,12,001,2023_Feb_09_1202,SpeechDraft1Carolyn_lessNoise,2021.2.3,59.99956032350616,
grin.wav,grin.mpg,grin,6,A,Pink_Noise_6_1.wav,Pink_Noise_6_2.wav,,,,,,0,44,44,41,,,,,,,,,,,,,,,248.81854972499423,None,250.30193881399464,None,251.6852325469954,None,green,251.6852325469954,None,return,2.7320367179927416,251.76858056196943,None,,,,,,,,,,,,,12,001,2023_Feb_09_1202,SpeechDraft1Carolyn_lessNoise,2021.2.3,59.99956032350616,
gulp.wav,gulp.mpg,gulp,1,A,Pink_Noise_1_1.wav,Pink_Noise_1_2.wav,,,,,,0,45,45,13,,,,,,,,,,,,,,,254.51863933098502,None,256.01829094300047,None,257.40204913698835,None,gulp,257.40204913698835,None,return,2.5750207399833016,257.48551123199286,None,,,,,,,,,,,,,12,001,2023_Feb_09_1202,SpeechDraft1Carolyn_lessNoise,2021.2.3,59.99956032350616,
cheat.wav,cheat.mpg,cheat,5,AV,Pink_Noise_5_1.wav,Pink_Noise_5_2.wav,,,,,,0,46,46,88,,,,,,,,,,,,,,,260.0856078559882,None,261.5851348050055,None,262.9690633859718,None,"cheat
",262.9690633859718,None,return,1.1685319819953293,263.0520038739778,None,,,,,,,,,,,,,12,001,2023_Feb_09_1202,SpeechDraft1Carolyn_lessNoise,2021.2.3,59.99956032350616,
built.wav,built.mpg,built,3,A,Pink_Noise_3_1.wav,Pink_Noise_3_2.wav,,,,,,0,47,47,8,,,,,,,,,,,,,,,264.25216803199146,None,265.7351767119835,None,267.118651908997,None,built,267.118651908997,None,return,1.1067215090151876,267.2019505329663,None,,,,,,,,,,,,,12,001,2023_Feb_09_1202,SpeechDraft1Carolyn_lessNoise,2021.2.3,59.99956032350616,
ear.wav,ear.mpg,ear,2,A,Pink_Noise_2_1.wav,Pink_Noise_2_2.wav,,,,,,0,48,48,36,,,,,,,,,,,,,,,268.33529826195445,None,269.82002741098404,None,271.2019357520039,None,gear,271.2019357520039,None,return,0.8232754840282723,271.28533949900884,None,,,,,,,,,,,,,12,001,2023_Feb_09_1202,SpeechDraft1Carolyn_lessNoise,2021.2.3,59.99956032350616,
gloom.wav,gloom.mpg,gloom,2,AV,Pink_Noise_2_1.wav,Pink_Noise_2_2.wav,,,,,,0,49,49,62,,,,,,,,,,,,,,,272.13526884897146,None,273.6354611089919,None,275.0186137079727,None,gloom,275.0186137079727,None,return,1.1105790389701724,275.1019428849686,None,,,,,,,,,,,,,12,001,2023_Feb_09_1202,SpeechDraft1Carolyn_lessNoise,2021.2.3,59.99956032350616,
chunk.wav,chunk.mpg,chunk,4,AV,Pink_Noise_4_1.wav,Pink_Noise_4_2.wav,,,,,,0,50,50,105,,,,,,,,,,,,,,,276.2352645039791,None,277.7184879090055,None,279.10198075597873,None,chalk,279.10198075597873,None,return,0.8829364689881913,279.18565944599686,None,,,,,,,,,,,,,12,001,2023_Feb_09_1202,SpeechDraft1Carolyn_lessNoise,2021.2.3,59.99956032350616,
guard.wav,guard.mpg,guard,5,AV,Pink_Noise_5_1.wav,Pink_Noise_5_2.wav,,,,,,0,51,51,98,,,,,,,,,,,,,,,280.085346517968,None,281.58534102898557,None,282.96855231997324,None,guard,282.96855231997324,None,return,1.4884065900114365,283.0521664679982,None,,,,,,,,,,,,,12,001,2023_Feb_09_1202,SpeechDraft1Carolyn_lessNoise,2021.2.3,59.99956032350616,
chef.wav,chef.mpg,chef,1,A,Pink_Noise_1_1.wav,Pink_Noise_1_2.wav,,,,,,0,52,52,6,,,,,,,,,,,,,,,284.56862987496424,None,286.05198019597447,None,287.43563476298004,None,chef,287.43563476298004,None,return,0.6377000480424613,287.51887953595724,None,,,,,,,,,,,,,12,001,2023_Feb_09_1202,SpeechDraft1Carolyn_lessNoise,2021.2.3,59.99956032350616,
snake.wav,snake.mpg,snake,2,A,Pink_Noise_2_1.wav,Pink_Noise_2_2.wav,,,,,,0,53,53,2,,,,,,,,,,,,,,,288.1854221429676,None,289.6684276209562,None,291.05197570699966,None,snake,291.05197570699966,None,return,0.941039863973856,291.1355162289692,None,,,,,,,,,,,,,12,001,2023_Feb_09_1202,SpeechDraft1Carolyn_lessNoise,2021.2.3,59.99956032350616,
cork.wav,cork.mpg,cork,4,A,Pink_Noise_4_1.wav,Pink_Noise_4_2.wav,,,,,,0,54,54,59,,,,,,,,,,,,,,,292.1020326789585,None,293.58694139000727,None,294.96861373999855,None,cork,294.96861373999855,None,return,0.808464311005082,295.0520494459779,None,,,,,,,,,,,,,12,001,2023_Feb_09_1202,SpeechDraft1Carolyn_lessNoise,2021.2.3,59.99956032350616,
champ.wav,champ.mpg,champ,2,A,Pink_Noise_2_1.wav,Pink_Noise_2_2.wav,,,,,,0,55,55,48,,,,,,,,,,,,,,,295.88568149897037,None,297.3691948989872,None,298.7520549389883,None,champ,298.7520549389883,None,return,0.760943474015221,298.8355970690027,None,,,,,,,,,,,,,12,001,2023_Feb_09_1202,SpeechDraft1Carolyn_lessNoise,2021.2.3,59.99956032350616,
dine.wav,dine.mpg,dine,6,A,Pink_Noise_6_1.wav,Pink_Noise_6_2.wav,,,,,,0,56,56,39,,,,,,,,,,,,,,,299.61873493297026,None,301.1017973459675,None,302.48540343000786,None,"knive
",302.48540343000786,None,return,1.0836196799646132,302.56890889198985,None,,,,,,,,,,,,,12,001,2023_Feb_09_1202,SpeechDraft1Carolyn_lessNoise,2021.2.3,59.99956032350616,
curse.wav,curse.mpg,curse,1,A,Pink_Noise_1_1.wav,Pink_Noise_1_2.wav,,,,,,0,57,57,33,,,,,,,,,,,,,,,303.68532609695103,None,305.18549385195365,None,306.568920058955,None,curse,306.568920058955,None,return,0.8643560949712992,306.6521770989639,None,,,,,,,,,,,,,12,001,2023_Feb_09_1202,SpeechDraft1Carolyn_lessNoise,2021.2.3,59.99956032350616,
build.wav,build.mpg,build,1,A,Pink_Noise_1_1.wav,Pink_Noise_1_2.wav,,,,,,0,58,58,16,,,,,,,,,,,,,,,307.53528354800073,None,309.0353840009775,None,310.4021803360083,None,build,310.4021803360083,None,return,1.7992392819724046,310.48538958700374,None,,,,,,,,,,,,,12,001,2023_Feb_09_1202,SpeechDraft1Carolyn_lessNoise,2021.2.3,59.99956032350616,
crust.wav,crust.mpg,crust,1,A,Pink_Noise_1_1.wav,Pink_Noise_1_2.wav,,,,,,0,59,59,43,,,,,,,,,,,,,,,312.30203366297064,None,313.80225611297647,None,315.1853671289864,None,crust,315.1853671289864,None,return,0.8078273860155605,315.2686954389792,None,,,,,,,,,,,,,12,001,2023_Feb_09_1202,SpeechDraft1Carolyn_lessNoise,2021.2.3,59.99956032350616,
cult.wav,cult.mpg,cult,6,AV,Pink_Noise_6_1.wav,Pink_Noise_6_2.wav,,,,,,0,60,60,117,,,,,,,,,,,,,,,316.10212315496756,None,317.6019315419835,None,318.98537299595773,None,cult,318.98537299595773,None,return,1.4319139479775913,319.06871684698854,None,,,,,,,,,,,,,12,001,2023_Feb_09_1202,SpeechDraft1Carolyn_lessNoise,2021.2.3,59.99956032350616,
grunt.wav,grunt.mpg,grunt,6,AV,Pink_Noise_6_1.wav,Pink_Noise_6_2.wav,,,,,,0,61,61,103,,,,,,,,,,,,,,,320.518748048984,None,322.0029107859591,None,323.38548729900504,None,crate,323.38548729900504,None,return,1.6877599459839985,323.4687544159824,None,,,,,,,,,,,,,12,001,2023_Feb_09_1202,SpeechDraft1Carolyn_lessNoise,2021.2.3,59.99956032350616,
truck.wav,truck.mpg,truck,6,AV,Pink_Noise_6_1.wav,Pink_Noise_6_2.wav,,,,,,0,62,62,86,,,,,,,,,,,,,,,325.18547993700486,None,326.6854218179942,None,328.05197468795814,None,trunk,328.05197468795814,None,return,1.1411729599931277,328.13536844495684,None,,,,,,,,,,,,,12,001,2023_Feb_09_1202,SpeechDraft1Carolyn_lessNoise,2021.2.3,59.99956032350616,
dad.wav,dad.mpg,dad,2,A,Pink_Noise_2_1.wav,Pink_Noise_2_2.wav,,,,,,0,63,63,44,,,,,,,,,,,,,,,329.3022164729773,None,330.7867225909722,None,332.16863578598714,None,dad,332.16863578598714,None,return,0.49651912396075204,332.2520497579826,None,,,,,,,,,,,,,12,001,2023_Feb_09_1202,SpeechDraft1Carolyn_lessNoise,2021.2.3,59.99956032350616,
drum.wav,drum.mpg,drum,2,A,Pink_Noise_2_1.wav,Pink_Noise_2_2.wav,,,,,,0,64,64,51,,,,,,,,,,,,,,,332.76903099700576,None,334.26854227500735,None,335.65215572097804,None,draw,335.65215572097804,None,return,1.0130064660334028,335.73560398898553,None,,,,,,,,,,,,,12,001,2023_Feb_09_1202,SpeechDraft1Carolyn_lessNoise,2021.2.3,59.99956032350616,
clumps.wav,clumps.mpg,clumps,5,AV,Pink_Noise_5_1.wav,Pink_Noise_5_2.wav,,,,,,0,65,65,64,,,,,,,,,,,,,,,336.76898582896683,None,338.2686071289936,None,339.63528114696965,None,clubs,339.63528114696965,None,return,4.021803409967106,339.71879669395275,None,,,,,,,,,,,,,12,001,2023_Feb_09_1202,SpeechDraft1Carolyn_lessNoise,2021.2.3,59.99956032350616,
cloud.wav,cloud.mpg,cloud,5,A,Pink_Noise_5_1.wav,Pink_Noise_5_2.wav,,,,,,0,66,66,55,,,,,,,,,,,,,,,343.76892220799346,None,345.2685073110042,None,346.65204973198706,None,crowd,346.65204973198706,None,return,1.4129276109742932,346.7356595089659,None,,,,,,,,,,,,,12,001,2023_Feb_09_1202,SpeechDraft1Carolyn_lessNoise,2021.2.3,59.99956032350616,
fish.wav,fish.mpg,fish,5,A,Pink_Noise_5_1.wav,Pink_Noise_5_2.wav,,,,,,0,67,67,23,,,,,,,,,,,,,,,348.1689956919872,None,349.65296976896934,None,351.0355139710009,None,"fsh
",351.0355139710009,None,return,0.9176967740058899,351.1188451880007,None,,,,,,,,,,,,,12,001,2023_Feb_09_1202,SpeechDraft1Carolyn_lessNoise,2021.2.3,59.99956032350616,
grace.wav,grace.mpg,grace,3,A,Pink_Noise_3_1.wav,Pink_Noise_3_2.wav,,,,,,0,68,68,14,,,,,,,,,,,,,,,352.06870570400497,None,353.553076251992,None,354.93544882599963,None,grace,354.93544882599963,None,return,2.025463416997809,355.0190601889626,None,,,,,,,,,,,,,12,001,2023_Feb_09_1202,SpeechDraft1Carolyn_lessNoise,2021.2.3,59.99956032350616,
wind.wav,wind.mpg,wind,2,AV,Pink_Noise_2_1.wav,Pink_Noise_2_2.wav,,,,,,0,69,69,108,,,,,,,,,,,,,,,357.0687004759675,None,358.55312582297483,None,359.93548768997425,None,wind,359.93548768997425,None,return,0.5215437830192968,360.01903348998167,None,,,,,,,,,,,,,12,001,2023_Feb_09_1202,SpeechDraft1Carolyn_lessNoise,2021.2.3,59.99956032350616,
dip.wav,dip.mpg,dip,6,AV,Pink_Noise_6_1.wav,Pink_Noise_6_2.wav,,,,,,0,70,70,90,,,,,,,,,,,,,,,360.5690922399517,None,362.0684888419928,None,363.43530394596746,None,"dip
",363.43530394596746,None,return,0.8697811879683286,363.51875485497294,None,,,,,,,,,,,,,12,001,2023_Feb_09_1202,SpeechDraft1Carolyn_lessNoise,2021.2.3,59.99956032350616,
debt.wav,debt.mpg,debt,4,AV,Pink_Noise_4_1.wav,Pink_Noise_4_2.wav,,,,,,0,71,71,60,,,,,,,,,,,,,,,364.4190316599561,None,365.903414624976,None,367.2853163239779,None,debt,367.2853163239779,None,return,1.1318103950470686,367.3687882969971,None,,,,,,,,,,,,,12,001,2023_Feb_09_1202,SpeechDraft1Carolyn_lessNoise,2021.2.3,59.99956032350616,
bib.wav,bib.mpg,bib,4,A,Pink_Noise_4_1.wav,Pink_Noise_4_2.wav,,,,,,0,72,72,38,,,,,,,,,,,,,,,368.51872935995925,None,370.0186516569811,None,371.38549184496514,None,thin,371.38549184496514,None,return,1.631491651001852,371.46908303699456,None,,,,,,,,,,,,,12,001,2023_Feb_09_1202,SpeechDraft1Carolyn_lessNoise,2021.2.3,59.99956032350616,
dual.wav,dual.mpg,dual,6,A,Pink_Noise_6_1.wav,Pink_Noise_6_2.wav,,,,,,0,73,73,29,,,,,,,,,,,,,,,373.118961059954,None,374.618542325974,None,376.00200523698004,None,wood,376.00200523698004,None,return,0.9908000850118697,376.08572063496104,None,,,,,,,,,,,,,12,001,2023_Feb_09_1202,SpeechDraft1Carolyn_lessNoise,2021.2.3,59.99956032350616,
choir.wav,choir.mpg,choir,3,A,Pink_Noise_3_1.wav,Pink_Noise_3_2.wav,,,,,,0,74,74,37,,,,,,,,,,,,,,,377.1021515269531,None,378.60181420698063,None,379.96881621697685,None,"quiet
",379.96881621697685,None,return,1.1844315510243177,380.05209555797046,None,,,,,,,,,,,,,12,001,2023_Feb_09_1202,SpeechDraft1Carolyn_lessNoise,2021.2.3,59.99956032350616,
grown.wav,grown.mpg,grown,5,A,Pink_Noise_5_1.wav,Pink_Noise_5_2.wav,,,,,,0,75,75,18,,,,,,,,,,,,,,,381.26904916297644,None,382.76875599398045,None,384.1354660069919,None,grow,384.1354660069919,None,return,0.8097706360276788,384.2187553590047,None,,,,,,,,,,,,,12,001,2023_Feb_09_1202,SpeechDraft1Carolyn_lessNoise,2021.2.3,59.99956032350616,
base.wav,base.mpg,base,3,A,Pink_Noise_3_1.wav,Pink_Noise_3_2.wav,,,,,,0,76,76,56,,,,,,,,,,,,,,,385.05209848098457,None,386.55198329500854,None,387.93564257898834,None,face,387.93564257898834,None,return,1.1937449150136672,388.0187804349698,None,,,,,,,,,,,,,12,001,2023_Feb_09_1202,SpeechDraft1Carolyn_lessNoise,2021.2.3,59.99956032350616,
wear.wav,wear.mpg,wear,4,AV,Pink_Noise_4_1.wav,Pink_Noise_4_2.wav,,,,,,0,77,77,114,,,,,,,,,,,,,,,389.23565209895605,None,390.7204922339879,None,392.10217604297213,None,"where
",392.10217604297213,None,return,1.8347823380026966,392.18574579496635,None,,,,,,,,,,,,,12,001,2023_Feb_09_1202,SpeechDraft1Carolyn_lessNoise,2021.2.3,59.99956032350616,
card.wav,card.mpg,card,2,AV,Pink_Noise_2_1.wav,Pink_Noise_2_2.wav,,,,,,0,78,78,74,,,,,,,,,,,,,,,394.05213367799297,None,395.5521248719888,None,396.9355280039599,None,card,396.9355280039599,None,return,2.4575298910494894,397.01899045397295,None,,,,,,,,,,,,,12,001,2023_Feb_09_1202,SpeechDraft1Carolyn_lessNoise,2021.2.3,59.99956032350616,
flick.wav,flick.mpg,flick,4,AV,Pink_Noise_4_1.wav,Pink_Noise_4_2.wav,,,,,,0,79,79,104,,,,,,,,,,,,,,,399.5021657960024,None,401.00193259795196,None,402.3857151999837,None,flake,402.3857151999837,None,return,1.791711327037774,402.46881099499296,None,,,,,,,,,,,,,12,001,2023_Feb_09_1202,SpeechDraft1Carolyn_lessNoise,2021.2.3,59.99956032350616,
pike.wav,pike.mpg,pike,6,AV,Pink_Noise_6_1.wav,Pink_Noise_6_2.wav,,,,,,0,80,80,97,,,,,,,,,,,,,,,404.28558595798677,None,405.78555498900823,None,407.15212066599634,None,bike,407.15212066599634,None,return,1.3050352270365693,407.2355852529872,None,,,,,,,,,,,,,12,001,2023_Feb_09_1202,SpeechDraft1Carolyn_lessNoise,2021.2.3,59.99956032350616,
paid.wav,paid.mpg,paid,5,A,Pink_Noise_5_1.wav,Pink_Noise_5_2.wav,,,,,,0,81,81,49,,,,,,,,,,,,,,,408.5690397329745,None,410.0686092780088,None,411.4522383809672,None,aim,411.4522383809672,None,return,2.2052172149997205,411.5354546550079,None,,,,,,,,,,,,,12,001,2023_Feb_09_1202,SpeechDraft1Carolyn_lessNoise,2021.2.3,59.99956032350616,
bald.wav,bald.mpg,bald,3,AV,Pink_Noise_3_1.wav,Pink_Noise_3_2.wav,,,,,,0,82,82,70,,,,,,,,,,,,,,,413.7688597579836,None,415.26858190097846,None,416.6525451609632,None,bald,416.6525451609632,None,return,0.5408970949938521,416.73561592696933,None,,,,,,,,,,,,,12,001,2023_Feb_09_1202,SpeechDraft1Carolyn_lessNoise,2021.2.3,59.99956032350616,
beat.wav,beat.mpg,beat,2,AV,Pink_Noise_2_1.wav,Pink_Noise_2_2.wav,,,,,,0,83,83,66,,,,,,,,,,,,,,,417.30250789097045,None,418.8020964489551,None,420.1854461649782,None,beat,420.1854461649782,None,return,1.0317732849507593,420.2688234439702,None,,,,,,,,,,,,,12,001,2023_Feb_09_1202,SpeechDraft1Carolyn_lessNoise,2021.2.3,59.99956032350616,
bleed.wav,bleed.mpg,bleed,4,A,Pink_Noise_4_1.wav,Pink_Noise_4_2.wav,,,,,,0,84,84,21,,,,,,,,,,,,,,,421.31893919897266,None,422.8189774409984,None,424.2023249869817,None,leave,424.2023249869817,None,return,3.423025457013864,424.2856167599675,None,,,,,,,,,,,,,12,001,2023_Feb_09_1202,SpeechDraft1Carolyn_lessNoise,2021.2.3,59.99956032350616,
gun.wav,gun.mpg,gun,2,A,Pink_Noise_2_1.wav,Pink_Noise_2_2.wav,,,,,,0,85,85,5,,,,,,,,,,,,,,,427.7358384979889,None,429.2353865689947,None,430.6027625469724,None,gun,430.6027625469724,None,return,1.09503023797879,430.6855061170063,None,,,,,,,,,,,,,12,001,2023_Feb_09_1202,SpeechDraft1Carolyn_lessNoise,2021.2.3,59.99956032350616,
dial.wav,dial.mpg,dial,5,AV,Pink_Noise_5_1.wav,Pink_Noise_5_2.wav,,,,,,0,86,86,106,,,,,,,,,,,,,,,431.8024552859715,None,433.30197589599993,None,434.6856881509884,None,dial,434.6856881509884,None,return,1.659777163004037,434.76877954398515,None,,,,,,,,,,,,,12,001,2023_Feb_09_1202,SpeechDraft1Carolyn_lessNoise,2021.2.3,59.99956032350616,
bun.wav,bun.mpg,bun,5,AV,Pink_Noise_5_1.wav,Pink_Noise_5_2.wav,,,,,,0,87,87,101,,,,,,,,,,,,,,,436.45219599996926,None,437.9521032689954,None,439.3361432380043,None,bun,439.3361432380043,None,return,2.009529103001114,439.4189968580031,None,,,,,,,,,,,,,12,001,2023_Feb_09_1202,SpeechDraft1Carolyn_lessNoise,2021.2.3,59.99956032350616,
fog.wav,fog.mpg,fog,6,A,Pink_Noise_6_1.wav,Pink_Noise_6_2.wav,,,,,,0,88,88,57,,,,,,,,,,,,,,,441.45220250898274,None,442.95222597697284,None,444.31897174200276,None,loud,444.31897174200276,None,return,1.6102982489974238,444.40222954098135,None,,,,,,,,,,,,,12,001,2023_Feb_09_1202,SpeechDraft1Carolyn_lessNoise,2021.2.3,59.99956032350616,
bay.wav,bay.mpg,bay,1,AV,Pink_Noise_1_1.wav,Pink_Noise_1_2.wav,,,,,,0,89,89,85,,,,,,,,,,,,,,,446.03565287200036,None,447.5353034340078,None,448.90211114595877,None,bay,448.90211114595877,None,return,1.530847885995172,448.98569412500365,None,,,,,,,,,,,,,12,001,2023_Feb_09_1202,SpeechDraft1Carolyn_lessNoise,2021.2.3,59.99956032350616,
birch.wav,birch.mpg,birch,3,A,Pink_Noise_3_1.wav,Pink_Noise_3_2.wav,,,,,,0,90,90,40,,,,,,,,,,,,,,,450.53560305398423,None,452.035358558991,None,453.41887302097166,None,perch,453.41887302097166,None,return,2.15822569798911,453.50229802000104,None,,,,,,,,,,,,,12,001,2023_Feb_09_1202,SpeechDraft1Carolyn_lessNoise,2021.2.3,59.99956032350616,
click.wav,click.mpg,click,3,A,Pink_Noise_3_1.wav,Pink_Noise_3_2.wav,,,,,,0,91,91,58,,,,,,,,,,,,,,,455.6855579519761,None,457.21881257899804,None,458.6023490729858,None,"clicl
",458.6023490729858,None,return,0.9349630729993805,458.6855752769625,None,,,,,,,,,,,,,12,001,2023_Feb_09_1202,SpeechDraft1Carolyn_lessNoise,2021.2.3,59.99956032350616,
climb.wav,climb.mpg,climb,1,AV,Pink_Noise_1_1.wav,Pink_Noise_1_2.wav,,,,,,0,92,92,111,,,,,,,,,,,,,,,459.65259901899844,None,461.15225611499045,None,462.53572036197875,None,limb,462.53572036197875,None,return,0.8734661779599264,462.61910448095296,None,,,,,,,,,,,,,12,001,2023_Feb_09_1202,SpeechDraft1Carolyn_lessNoise,2021.2.3,59.99956032350616,
dense.wav,dense.mpg,dense,6,A,Pink_Noise_6_1.wav,Pink_Noise_6_2.wav,,,,,,0,93,93,4,,,,,,,,,,,,,,,463.51891349395737,None,465.0188842979842,None,466.3855359859881,None,agst,466.3855359859881,None,return,2.039589405001607,466.4691139939823,None,,,,,,,,,,,,,12,001,2023_Feb_09_1202,SpeechDraft1Carolyn_lessNoise,2021.2.3,59.99956032350616,
drain.wav,drain.mpg,drain,1,A,Pink_Noise_1_1.wav,Pink_Noise_1_2.wav,,,,,,0,94,94,50,,,,,,,,,,,,,,,468.5357685179915,None,470.03538935800316,None,471.4024240349536,None,drain,471.4024240349536,None,return,1.0630182570312172,471.48557665600674,None,,,,,,,,,,,,,12,001,2023_Feb_09_1202,SpeechDraft1Carolyn_lessNoise,2021.2.3,59.99956032350616,
rod.wav,rod.mpg,rod,2,AV,Pink_Noise_2_1.wav,Pink_Noise_2_2.wav,,,,,,0,95,95,92,,,,,,,,,,,,,,,472.5691852719756,None,474.06855154799996,None,475.4354494449799,None,ride,475.4354494449799,None,return,0.8455032100318931,475.5190341519774,None,,,,,,,,,,,,,12,001,2023_Feb_09_1202,SpeechDraft1Carolyn_lessNoise,2021.2.3,59.99956032350616,
wine.wav,wine.mpg,wine,1,AV,Pink_Noise_1_1.wav,Pink_Noise_1_2.wav,,,,,,0,96,96,116,,,,,,,,,,,,,,,476.38580920698587,None,477.885388776951,None,479.252411732974,None,"wine
",479.252411732974,None,return,2.6848621829994954,479.3356703299796,None,,,,,,,,,,,,,12,001,2023_Feb_09_1202,SpeechDraft1Carolyn_lessNoise,2021.2.3,59.99956032350616,
feud.wav,feud.mpg,feud,3,AV,Pink_Noise_3_1.wav,Pink_Noise_3_2.wav,,,,,,0,97,97,71,,,,,,,,,,,,,,,482.0524606019608,None,483.55203511199215,None,484.9355313749984,None,feud,484.9355313749984,None,return,2.1136741589871235,485.01893437700346,None,,,,,,,,,,,,,12,001,2023_Feb_09_1202,SpeechDraft1Carolyn_lessNoise,2021.2.3,59.99956032350616,
catch.wav,catch.mpg,catch,5,AV,Pink_Noise_5_1.wav,Pink_Noise_5_2.wav,,,,,,0,98,98,83,,,,,,,,,,,,,,,487.1522449349868,None,488.6520927899983,None,490.0355600019684,None,catch,490.0355600019684,None,return,1.3651253320276737,490.1194636419532,None,,,,,,,,,,,,,12,001,2023_Feb_09_1202,SpeechDraft1Carolyn_lessNoise,2021.2.3,59.99956032350616,
flirt.wav,flirt.mpg,flirt,1,AV,Pink_Noise_1_1.wav,Pink_Noise_1_2.wav,,,,,,0,99,99,109,,,,,,,,,,,,,,,491.5022611769964,None,493.00245848699706,None,494.3858954629977,None,"flirt
",494.3858954629977,None,return,1.7676607660250738,494.468878346961,None,,,,,,,,,,,,,12,001,2023_Feb_09_1202,SpeechDraft1Carolyn_lessNoise,2021.2.3,59.99956032350616,
fraud.wav,fraud.mpg,fraud,6,AV,Pink_Noise_6_1.wav,Pink_Noise_6_2.wav,,,,,,0,100,100,96,,,,,,,,,,,,,,,496.2690370680066,None,497.7689236989827,None,499.1524838010082,None,fraud,499.1524838010082,None,return,1.480926672986243,499.23562786797993,None,,,,,,,,,,,,,12,001,2023_Feb_09_1202,SpeechDraft1Carolyn_lessNoise,2021.2.3,59.99956032350616,
quit.wav,quit.mpg,quit,5,AV,Pink_Noise_5_1.wav,Pink_Noise_5_2.wav,,,,,,0,101,101,102,,,,,,,,,,,,,,,500.73562268796377,None,502.2207881489885,None,503.6021851639962,None,quit,503.6021851639962,None,return,0.9671144019812346,503.68553669098765,None,,,,,,,,,,,,,12,001,2023_Feb_09_1202,SpeechDraft1Carolyn_lessNoise,2021.2.3,59.99956032350616,
clam.wav,clam.mpg,clam,4,AV,Pink_Noise_4_1.wav,Pink_Noise_4_2.wav,,,,,,0,102,102,82,,,,,,,,,,,,,,,504.66904769599205,None,506.1690794969909,None,507.5357963019633,None,"clam
",507.5357963019633,None,return,0.8175720000290312,507.61895715096034,None,,,,,,,,,,,,,12,001,2023_Feb_09_1202,SpeechDraft1Carolyn_lessNoise,2021.2.3,59.99956032350616,
cliff.wav,cliff.mpg,cliff,5,A,Pink_Noise_5_1.wav,Pink_Noise_5_2.wav,,,,,,0,103,103,9,,,,,,,,,,,,,,,508.46900369995274,None,509.96872107998934,None,511.3523187619867,None,flake,511.3523187619867,None,return,1.1766700869775377,511.43586776795564,None,,,,,,,,,,,,,12,001,2023_Feb_09_1202,SpeechDraft1Carolyn_lessNoise,2021.2.3,59.99956032350616,
grape.wav,grape.mpg,grape,4,AV,Pink_Noise_4_1.wav,Pink_Noise_4_2.wav,,,,,,0,104,104,94,,,,,,,,,,,,,,,512.6356080379919,None,514.1357261199737,None,515.5189053049544,None,grape,515.5189053049544,None,return,1.2101875849766657,515.6023191339918,None,,,,,,,,,,,,,12,001,2023_Feb_09_1202,SpeechDraft1Carolyn_lessNoise,2021.2.3,59.99956032350616,
client.wav,client.mpg,client,4,AV,Pink_Noise_4_1.wav,Pink_Noise_4_2.wav,,,,,,0,105,105,99,,,,,,,,,,,,,,,516.8357727630064,None,518.3355543639627,None,519.7025619309861,None,"client
",519.7025619309861,None,return,1.0346829449990764,519.7858271549921,None,,,,,,,,,,,,,12,001,2023_Feb_09_1202,SpeechDraft1Carolyn_lessNoise,2021.2.3,59.99956032350616,
thrown.wav,thrown.mpg,thrown,5,AV,Pink_Noise_5_1.wav,Pink_Noise_5_2.wav,,,,,,0,106,106,91,,,,,,,,,,,,,,,520.8522757339524,None,522.3523741889512,None,523.7355989309726,None,throw,523.7355989309726,None,return,1.2737158210366033,523.8189897229895,None,,,,,,,,,,,,,12,001,2023_Feb_09_1202,SpeechDraft1Carolyn_lessNoise,2021.2.3,59.99956032350616,
cease.wav,cease.mpg,cease,3,A,Pink_Noise_3_1.wav,Pink_Noise_3_2.wav,,,,,,0,107,107,19,,,,,,,,,,,,,,,525.1193210969795,None,526.6190319439629,None,527.9858630379895,None,decease,527.9858630379895,None,return,3.2955026350100525,528.0690338689601,None,,,,,,,,,,,,,12,001,2023_Feb_09_1202,SpeechDraft1Carolyn_lessNoise,2021.2.3,59.99956032350616,
oats.wav,oats.mpg,oats,5,AV,Pink_Noise_5_1.wav,Pink_Noise_5_2.wav,,,,,,0,108,108,72,,,,,,,,,,,,,,,531.3859276849544,None,532.8856024929555,None,534.2692482209532,None,oat,534.2692482209532,None,return,2.132244674023241,534.3523487689672,None,,,,,,,,,,,,,12,001,2023_Feb_09_1202,SpeechDraft1Carolyn_lessNoise,2021.2.3,59.99956032350616,
germ.wav,germ.mpg,germ,2,AV,Pink_Noise_2_1.wav,Pink_Noise_2_2.wav,,,,,,0,109,109,80,,,,,,,,,,,,,,,536.5023152109934,None,538.0020284029888,None,539.3859567989712,None,germ,539.3859567989712,None,return,1.5915319650084712,539.4689778689644,None,,,,,,,,,,,,,12,001,2023_Feb_09_1202,SpeechDraft1Carolyn_lessNoise,2021.2.3,59.99956032350616,
boat.wav,boat.mpg,boat,4,A,Pink_Noise_4_1.wav,Pink_Noise_4_2.wav,,,,,,0,110,110,7,,,,,,,,,,,,,,,541.0856500119553,None,542.5857004959835,None,543.9689692989923,None,boat,543.9689692989923,None,return,0.8402196579845622,544.0523994939867,None,,,,,,,,,,,,,12,001,2023_Feb_09_1202,SpeechDraft1Carolyn_lessNoise,2021.2.3,59.99956032350616,
fail.wav,fail.mpg,fail,6,A,Pink_Noise_6_1.wav,Pink_Noise_6_2.wav,,,,,,0,111,111,25,,,,,,,,,,,,,,,544.919052976009,None,546.4187645170023,None,547.8023569919751,None,"clam
",547.8023569919751,None,return,1.5185717169661075,547.8859649960068,None,,,,,,,,,,,,,12,001,2023_Feb_09_1202,SpeechDraft1Carolyn_lessNoise,2021.2.3,59.99956032350616,
fault.wav,fault.mpg,fault,3,AV,Pink_Noise_3_1.wav,Pink_Noise_3_2.wav,,,,,,0,112,112,63,,,,,,,,,,,,,,,549.4356611089897,None,550.9355593199725,None,552.3190102700028,None,"faul
",552.3190102700028,None,return,0.8341705370112322,552.4023766269675,None,,,,,,,,,,,,,12,001,2023_Feb_09_1202,SpeechDraft1Carolyn_lessNoise,2021.2.3,59.99956032350616,
coat.wav,coat.mpg,coat,3,A,Pink_Noise_3_1.wav,Pink_Noise_3_2.wav,,,,,,0,113,113,17,,,,,,,,,,,,,,,553.2689851140021,None,554.7690614349558,None,556.1523600159562,None,coat,556.1523600159562,None,return,0.6568619740428403,556.2357846749946,None,,,,,,,,,,,,,12,001,2023_Feb_09_1202,SpeechDraft1Carolyn_lessNoise,2021.2.3,59.99956032350616,
gate.wav,gate.mpg,gate,1,AV,Pink_Noise_1_1.wav,Pink_Noise_1_2.wav,,,,,,0,114,114,79,,,,,,,,,,,,,,,556.9189945560065,None,558.4190778809716,None,559.8027102839551,None,"gate
",559.8027102839551,None,return,0.7507939810166135,559.8857501249877,None,,,,,,,,,,,,,12,001,2023_Feb_09_1202,SpeechDraft1Carolyn_lessNoise,2021.2.3,59.99956032350616,
fleet.wav,fleet.mpg,fleet,5,A,Pink_Noise_5_1.wav,Pink_Noise_5_2.wav,,,,,,0,115,115,52,,,,,,,,,,,,,,,560.6693143110024,None,562.1691082720063,None,563.5525455639581,None,feet,563.5525455639581,None,return,1.2408799080294557,563.6357175519806,None,,,,,,,,,,,,,12,001,2023_Feb_09_1202,SpeechDraft1Carolyn_lessNoise,2021.2.3,59.99956032350616,
cough.wav,cough.mpg,cough,3,AV,Pink_Noise_3_1.wav,Pink_Noise_3_2.wav,,,,,,0,116,116,68,,,,,,,,,,,,,,,564.9023930249969,None,566.4023351109936,None,567.7857715269784,None,cough,567.7857715269784,None,return,0.7755653740023263,567.8690289019723,None,,,,,,,,,,,,,12,001,2023_Feb_09_1202,SpeechDraft1Carolyn_lessNoise,2021.2.3,59.99956032350616,
dirt.wav,dirt.mpg,dirt,6,AV,Pink_Noise_6_1.wav,Pink_Noise_6_2.wav,,,,,,0,117,117,112,,,,,,,,,,,,,,,568.6692526449915,None,570.1688777969684,None,571.5357082349947,None,shirt,571.5357082349947,None,return,3.4494319679797627,571.6191492750077,None,,,,,,,,,,,,,12,001,2023_Feb_09_1202,SpeechDraft1Carolyn_lessNoise,2021.2.3,59.99956032350616,
glove.wav,glove.mpg,glove,3,AV,Pink_Noise_3_1.wav,Pink_Noise_3_2.wav,,,,,,0,118,118,115,,,,,,,,,,,,,,,575.08581292897,None,576.5856650149799,None,577.9692332179984,None,glove,577.9692332179984,None,return,0.9200213149888441,578.0525178060052,None,,,,,,,,,,,,,12,001,2023_Feb_09_1202,SpeechDraft1Carolyn_lessNoise,2021.2.3,59.99956032350616,
bake.wav,bake.mpg,bake,5,AV,Pink_Noise_5_1.wav,Pink_Noise_5_2.wav,,,,,,0,119,119,95,,,,,,,,,,,,,,,579.0025749549968,None,580.5024428679608,None,581.8856622150051,None,bake,581.8856622150051,None,return,3.5395546790095977,581.9690729199792,None,,,,,,,,,,,,,12,001,2023_Feb_09_1202,SpeechDraft1Carolyn_lessNoise,2021.2.3,59.99956032350616,
,,,,,,,,,,,,,,,,,,,,,,,,,,,,,,,,,,,,,,,,,,,,,,,,,585.5358963959734,None,c,334.613386632991,586.5192135829711,None,12,001,2023_Feb_09_1202,SpeechDraft1Carolyn_lessNoise,2021.2.3,59.99956032350616,
