Audio_Only_Files,Video_Files,Original_Word_List,noiseLevelCode,conditionCodes,noiseLevelFile1,noiseLevelFile2,InstrTextVar,targetSpeakerName,targetSpeakerEccen,targetSpkrChannel,targetSpkrSound,targetVisualDegrees,visStimLoc,visStimLoc2,visStimW,visStimH,practiceTrials.thisRepN,practiceTrials.thisTrialN,practiceTrials.thisN,practiceTrials.thisIndex,trials.thisRepN,trials.thisTrialN,trials.thisN,trials.thisIndex,audLocalLoop.thisRepN,audLocalLoop.thisTrialN,audLocalLoop.thisN,audLocalLoop.thisIndex,visualLocalLoop.thisRepN,visualLocalLoop.thisTrialN,visualLocalLoop.thisN,visualLocalLoop.thisIndex,letsGoAlready.keys,letsGoAlready.rt,letsGoAlready.started,letsGoAlready.stopped,text_2.started,text_2.stopped,text_3.started,text_3.stopped,key_resp_2.keys,key_resp_2.rt,key_resp_2.started,key_resp_2.stopped,text_5.started,text_5.stopped,fixCross.started,fixCross.stopped,fixCross2.started,fixCross2.stopped,answerPrompt.started,answerPrompt.stopped,getAnswer.text,getAnswer.started,getAnswer.stopped,goToNext.keys,goToNext.rt,goToNext.started,goToNext.stopped,stretchBreakTxrt.started,stretchBreakTxrt.stopped,key_resp_3.keys,key_resp_3.rt,key_resp_3.started,key_resp_3.stopped,letsGoLocal.keys,letsGoLocal.rt,letsGoLocal.started,letsGoLocal.stopped,text_4.started,text_4.stopped,prepFixTxt.started,prepFixTxt.stopped,prepFixTxt_2.started,prepFixTxt_2.stopped,respPromptLocal.started,respPromptLocal.stopped,slider.response,slider.rt,slider.started,slider.stopped,letsGoLocal_2.keys,letsGoLocal_2.rt,letsGoLocal_2.started,letsGoLocal_2.stopped,text_7.started,text_7.stopped,prepFixTxt_3.started,prepFixTxt_3.stopped,grating.started,grating.stopped,participant,session,date,expName,psychopyVersion,frameRate,
,,,,,,,,,,,,,,,,,,,,,,,,,,,,,,,,,space,23.728315954096615,14.474054021760821,None,,,,,,,,,,,,,,,,,,,,,,,,,,,,,,,,,,,,,,,,,,,,,,,,,,,,,,,,133,001,2023_Nov_13_1430,SpeechDraft1Carolyn_lessNoise_PlusLocalization,2021.2.3,59.999036487763604,
,,,,,,,,,,,,,,,,,,,,,,,,,,,,,,,,,,,,,14.474054021760821,None,38.32360889064148,None,space,10.64714263472706,38.50728386687115,None,,,,,,,,,,,,,,,,,,,,,,,,,,,,,,,,,,,,,,,,,,,,,,,,133,001,2023_Nov_13_1430,SpeechDraft1Carolyn_lessNoise_PlusLocalization,2021.2.3,59.999036487763604,
ash.wav,ash.mpg,ash,1,A,Pink_Noise_1_1.wav,Pink_Noise_1_2.wav,"This is an example of an

AUDIO trial",,,,,,,,,,0,0,0,0,,,,,,,,,,,,,,,,,,,,,,,,,49.206984180025756,None,50.190655543934554,None,54.290394491981715,None,55.673920723609626,None,ash,55.673920723609626,None,return,5.637033934239298,55.75735595403239,None,,,,,,,,,,,,,,,,,,,,,,,,,,,,,,,,,133,001,2023_Nov_13_1430,SpeechDraft1Carolyn_lessNoise_PlusLocalization,2021.2.3,59.999036487763604,
ash.wav,ash.mpg,ash,1,AV,Pink_Noise_1_1.wav,Pink_Noise_1_2.wav,"This is an example of an

AUDIO + VIDEO  trial",,,,,,,,,,0,1,1,1,,,,,,,,,,,,,,,,,,,,,,,,,61.44027155498043,None,62.44054294889793,None,63.940244579687715,None,65.32398205064237,None,ash,65.32398205064237,None,return,3.1951845921576023,65.40718843461946,None,,,,,,,,,,,,,,,,,,,,,,,,,,,,,,,,,133,001,2023_Nov_13_1430,SpeechDraft1Carolyn_lessNoise_PlusLocalization,2021.2.3,59.999036487763604,
,,,,,,,,,,,,,,,,,,,,,,,,,,,,,,,,,,,,,,,,,,,,,,,,,,,,,,,,,,,,68.6404146309942,None,space,57.21834488492459,68.8240213766694,None,,,,,,,,,,,,,,,,,,,,,,,,,,,133,001,2023_Nov_13_1430,SpeechDraft1Carolyn_lessNoise_PlusLocalization,2021.2.3,59.999036487763604,
bloat.wav,bloat.mpg,bloat,5,A,Pink_Noise_5_1.wav,Pink_Noise_5_2.wav,,,,,,,,,,,,,,,0,0,0,38,,,,,,,,,,,,,,,,,,,,,,,126.10696846991777,None,127.59039626363665,None,128.97412073984742,None,which,128.97412073984742,None,return,6.945041481871158,129.05731846392155,None,,,,,,,,,,,,,,,,,,,,,,,,,,,,,,,,,133,001,2023_Nov_13_1430,SpeechDraft1Carolyn_lessNoise_PlusLocalization,2021.2.3,59.999036487763604,
eve.wav,eve.mpg,eve,2,A,Pink_Noise_2_1.wav,Pink_Noise_2_2.wav,,,,,,,,,,,,,,,0,1,1,28,,,,,,,,,,,,,,,,,,,,,,,136.02402821462601,None,137.52372059598565,None,138.90733065502718,None,eve,138.90733065502718,None,return,2.1638337429612875,138.99064422491938,None,,,,,,,,,,,,,,,,,,,,,,,,,,,,,,,,,133,001,2023_Nov_13_1430,SpeechDraft1Carolyn_lessNoise_PlusLocalization,2021.2.3,59.999036487763604,
cape.wav,cape.mpg,cape,1,A,Pink_Noise_1_1.wav,Pink_Noise_1_2.wav,,,,,,,,,,,,,,,0,2,2,58,,,,,,,,,,,,,,,,,,,,,,,141.174013458658,None,142.6737647820264,None,144.0574673418887,None,"cape
",144.0574673418887,None,return,1.317703695036471,144.14065030496567,None,,,,,,,,,,,,,,,,,,,,,,,,,,,,,,,,,133,001,2023_Nov_13_1430,SpeechDraft1Carolyn_lessNoise_PlusLocalization,2021.2.3,59.999036487763604,
duck.wav,duck.mpg,duck,6,A,Pink_Noise_6_1.wav,Pink_Noise_6_2.wav,,,,,,,,,,,,,,,0,3,3,32,,,,,,,,,,,,,,,,,,,,,,,145.49064202979207,None,146.99033228075132,None,148.3740279879421,None,word,148.3740279879421,None,return,3.6571446238085628,148.45732976775616,None,,,,,,,,,,,,,,,,,,,,,,,,,,,,,,,,,133,001,2023_Nov_13_1430,SpeechDraft1Carolyn_lessNoise_PlusLocalization,2021.2.3,59.999036487763604,
crook.wav,crook.mpg,crook,4,AV,Pink_Noise_4_1.wav,Pink_Noise_4_2.wav,,,,,,,,,,,,,,,0,4,4,111,,,,,,,,,,,,,,,,,,,,,,,152.14072134159505,None,153.6404451909475,None,155.02394720586017,None,"crook
",155.02394720586017,None,return,2.567084706854075,155.1072851778008,None,,,,,,,,,,,,,,,,,,,,,,,,,,,,,,,,,133,001,2023_Nov_13_1430,SpeechDraft1Carolyn_lessNoise_PlusLocalization,2021.2.3,59.999036487763604,
fill.wav,fill.mpg,fill,3,AV,Pink_Noise_3_1.wav,Pink_Noise_3_2.wav,,,,,,,,,,,,,,,0,5,5,61,,,,,,,,,,,,,,,,,,,,,,,157.70739111164585,None,159.20700261369348,None,160.59067041194066,None,film,160.59067041194066,None,return,4.832427526824176,160.6739809247665,None,,,,,,,,,,,,,,,,,,,,,,,,,,,,,,,,,133,001,2023_Nov_13_1430,SpeechDraft1Carolyn_lessNoise_PlusLocalization,2021.2.3,59.999036487763604,
gem.wav,gem.mpg,gem,1,A,Pink_Noise_1_1.wav,Pink_Noise_1_2.wav,,,,,,,,,,,,,,,0,6,6,15,,,,,,,,,,,,,,,,,,,,,,,165.52402281062678,None,167.02389349602163,None,168.40745085990056,None,"gem
",168.40745085990056,None,return,5.951590345241129,168.490772373043,None,,,,,,,,,,,,,,,,,,,,,,,,,,,,,,,,,133,001,2023_Nov_13_1430,SpeechDraft1Carolyn_lessNoise_PlusLocalization,2021.2.3,59.999036487763604,
fat.wav,fat.mpg,fat,2,A,Pink_Noise_2_1.wav,Pink_Noise_2_2.wav,,,,,,,,,,,,,,,0,7,7,44,,,,,,,,,,,,,,,,,,,,,,,174.47408080101013,None,175.97383844759315,None,177.3573491727002,None,pet,177.3573491727002,None,return,1.641607126686722,177.44075648579746,None,,,,,,,,,,,,,,,,,,,,,,,,,,,,,,,,,133,001,2023_Nov_13_1430,SpeechDraft1Carolyn_lessNoise_PlusLocalization,2021.2.3,59.999036487763604,
dull.wav,dull.mpg,dull,5,AV,Pink_Noise_5_1.wav,Pink_Noise_5_2.wav,,,,,,,,,,,,,,,0,8,8,116,,,,,,,,,,,,,,,,,,,,,,,179.10738733084872,None,180.60709772491828,None,181.99066973803565,None,dull,181.99066973803565,None,return,9.008251392282546,182.0741129820235,None,,,,,,,,,,,,,,,,,,,,,,,,,,,,,,,,,133,001,2023_Nov_13_1430,SpeechDraft1Carolyn_lessNoise_PlusLocalization,2021.2.3,59.999036487763604,
pride.wav,pride.mpg,pride,2,AV,Pink_Noise_2_1.wav,Pink_Noise_2_2.wav,,,,,,,,,,,,,,,0,9,9,95,,,,,,,,,,,,,,,,,,,,,,,191.10739362891763,None,192.60715848673135,None,193.99062040960416,None,prime,193.99062040960416,None,return,2.1042956081219018,194.0740648387,None,,,,,,,,,,,,,,,,,,,,,,,,,,,,,,,,,133,001,2023_Nov_13_1430,SpeechDraft1Carolyn_lessNoise_PlusLocalization,2021.2.3,59.999036487763604,
freeze.wav,freeze.mpg,freeze,4,A,Pink_Noise_4_1.wav,Pink_Noise_4_2.wav,,,,,,,,,,,,,,,0,10,10,54,,,,,,,,,,,,,,,,,,,,,,,196.20749984076247,None,197.7071386128664,None,199.09087626682594,None,"breeze
",199.09087626682594,None,return,3.684183078352362,199.17417817469686,None,,,,,,,,,,,,,,,,,,,,,,,,,,,,,,,,,133,001,2023_Nov_13_1430,SpeechDraft1Carolyn_lessNoise_PlusLocalization,2021.2.3,59.999036487763604,
fine.wav,fine.mpg,fine,6,A,Pink_Noise_6_1.wav,Pink_Noise_6_2.wav,,,,,,,,,,,,,,,0,11,11,9,,,,,,,,,,,,,,,,,,,,,,,202.89077185792848,None,204.3906141826883,None,205.77411591401324,None,"run
",205.77411591401324,None,return,2.952910983003676,205.85745488479733,None,,,,,,,,,,,,,,,,,,,,,,,,,,,,,,,,,133,001,2023_Nov_13_1430,SpeechDraft1Carolyn_lessNoise_PlusLocalization,2021.2.3,59.999036487763604,
bathe.wav,bathe.mpg,bathe,5,A,Pink_Noise_5_1.wav,Pink_Noise_5_2.wav,,,,,,,,,,,,,,,0,12,12,24,,,,,,,,,,,,,,,,,,,,,,,208.8408022839576,None,210.34053501160815,None,211.72407064866275,None,believe,211.72407064866275,None,return,2.5230453251861036,211.80740737868473,None,,,,,,,,,,,,,,,,,,,,,,,,,,,,,,,,,133,001,2023_Nov_13_1430,SpeechDraft1Carolyn_lessNoise_PlusLocalization,2021.2.3,59.999036487763604,
dig.wav,dig.mpg,dig,5,A,Pink_Noise_5_1.wav,Pink_Noise_5_2.wav,,,,,,,,,,,,,,,0,13,13,40,,,,,,,,,,,,,,,,,,,,,,,214.3574799168855,None,215.85737924976274,None,217.24092871462926,None,dig,217.24092871462926,None,return,3.9102703724056482,217.3240887708962,None,,,,,,,,,,,,,,,,,,,,,,,,,,,,,,,,,133,001,2023_Nov_13_1430,SpeechDraft1Carolyn_lessNoise_PlusLocalization,2021.2.3,59.999036487763604,
client.wav,client.mpg,client,6,A,Pink_Noise_6_1.wav,Pink_Noise_6_2.wav,,,,,,,,,,,,,,,0,14,14,23,,,,,,,,,,,,,,,,,,,,,,,221.25744637381285,None,222.75716004380956,None,224.14102151058614,None,way,224.14102151058614,None,return,3.1941728820092976,224.2241791728884,None,,,,,,,,,,,,,,,,,,,,,,,,,,,,,,,,,133,001,2023_Nov_13_1430,SpeechDraft1Carolyn_lessNoise_PlusLocalization,2021.2.3,59.999036487763604,
foul.wav,foul.mpg,foul,4,AV,Pink_Noise_4_1.wav,Pink_Noise_4_2.wav,,,,,,,,,,,,,,,0,15,15,73,,,,,,,,,,,,,,,,,,,,,,,227.44086247961968,None,228.94055870873854,None,230.32411209167913,None,"foul
",230.32411209167913,None,return,3.186886770185083,230.40748604480177,None,,,,,,,,,,,,,,,,,,,,,,,,,,,,,,,,,133,001,2023_Nov_13_1430,SpeechDraft1Carolyn_lessNoise_PlusLocalization,2021.2.3,59.999036487763604,
creep.wav,creep.mpg,creep,4,AV,Pink_Noise_4_1.wav,Pink_Noise_4_2.wav,,,,,,,,,,,,,,,0,16,16,76,,,,,,,,,,,,,,,,,,,,,,,233.62413504486904,None,235.12395088374615,None,236.50744283292443,None,creep,236.50744283292443,None,return,1.8835852988995612,236.59083206392825,None,,,,,,,,,,,,,,,,,,,,,,,,,,,,,,,,,133,001,2023_Nov_13_1430,SpeechDraft1Carolyn_lessNoise_PlusLocalization,2021.2.3,59.999036487763604,
cross.wav,cross.mpg,cross,1,AV,Pink_Noise_1_1.wav,Pink_Noise_1_2.wav,,,,,,,,,,,,,,,0,17,17,93,,,,,,,,,,,,,,,,,,,,,,,238.49256084300578,None,240.00715043302625,None,241.39084305567667,None,cross,241.39084305567667,None,return,1.7922823471017182,241.4740713238716,None,,,,,,,,,,,,,,,,,,,,,,,,,,,,,,,,,133,001,2023_Nov_13_1430,SpeechDraft1Carolyn_lessNoise_PlusLocalization,2021.2.3,59.999036487763604,
booth.wav,booth.mpg,booth,6,AV,Pink_Noise_6_1.wav,Pink_Noise_6_2.wav,,,,,,,,,,,,,,,0,18,18,60,,,,,,,,,,,,,,,,,,,,,,,243.2909827339463,None,244.79056175472215,None,246.1741027967073,None,booth,246.1741027967073,None,return,5.520874148700386,246.25748419202864,None,,,,,,,,,,,,,,,,,,,,,,,,,,,,,,,,,133,001,2023_Nov_13_1430,SpeechDraft1Carolyn_lessNoise_PlusLocalization,2021.2.3,59.999036487763604,
birch.wav,birch.mpg,birch,6,AV,Pink_Noise_6_1.wav,Pink_Noise_6_2.wav,,,,,,,,,,,,,,,0,19,19,115,,,,,,,,,,,,,,,,,,,,,,,251.80754790175706,None,253.3072664057836,None,254.69095947779715,None,butch,254.69095947779715,None,return,12.292179056908935,254.7741819648072,None,,,,,,,,,,,,,,,,,,,,,,,,,,,,,,,,,133,001,2023_Nov_13_1430,SpeechDraft1Carolyn_lessNoise_PlusLocalization,2021.2.3,59.999036487763604,
smack.wav,smack.mpg,smack,4,AV,Pink_Noise_4_1.wav,Pink_Noise_4_2.wav,,,,,,,,,,,,,,,0,20,20,102,,,,,,,,,,,,,,,,,,,,,,,267.0908409897238,None,268.5910045746714,None,269.97408728674054,None,smell,269.97408728674054,None,return,5.2248217216692865,270.05753115098923,None,,,,,,,,,,,,,,,,,,,,,,,,,,,,,,,,,133,001,2023_Nov_13_1430,SpeechDraft1Carolyn_lessNoise_PlusLocalization,2021.2.3,59.999036487763604,
blur.wav,blur.mpg,blur,2,AV,Pink_Noise_2_1.wav,Pink_Noise_2_2.wav,,,,,,,,,,,,,,,0,21,21,88,,,,,,,,,,,,,,,,,,,,,,,275.3075447208248,None,276.8073042058386,None,278.1907782750204,None,blur,278.1907782750204,None,return,1.8641961659304798,278.27418225072324,None,,,,,,,,,,,,,,,,,,,,,,,,,,,,,,,,,133,001,2023_Nov_13_1430,SpeechDraft1Carolyn_lessNoise_PlusLocalization,2021.2.3,59.999036487763604,
sock.wav,sock.mpg,sock,1,A,Pink_Noise_1_1.wav,Pink_Noise_1_2.wav,,,,,,,,,,,,,,,0,22,22,46,,,,,,,,,,,,,,,,,,,,,,,280.15754331601784,None,281.6739325337112,None,283.05759299872443,None,sought,283.05759299872443,None,return,1.909500818233937,283.1408610967919,None,,,,,,,,,,,,,,,,,,,,,,,,,,,,,,,,,133,001,2023_Nov_13_1430,SpeechDraft1Carolyn_lessNoise_PlusLocalization,2021.2.3,59.999036487763604,
badge.wav,badge.mpg,badge,4,A,Pink_Noise_4_1.wav,Pink_Noise_4_2.wav,,,,,,,,,,,,,,,0,23,23,31,,,,,,,,,,,,,,,,,,,,,,,285.0741727706045,None,286.575831880793,None,287.9576043128036,None,edge,287.9576043128036,None,return,2.089588054921478,288.0408980017528,None,,,,,,,,,,,,,,,,,,,,,,,,,,,,,,,,,133,001,2023_Nov_13_1430,SpeechDraft1Carolyn_lessNoise_PlusLocalization,2021.2.3,59.999036487763604,
live.wav,live.mpg,live,1,A,Pink_Noise_1_1.wav,Pink_Noise_1_2.wav,,,,,,,,,,,,,,,0,24,24,37,,,,,,,,,,,,,,,,,,,,,,,290.1575692589395,None,291.6572448806837,None,293.0409274897538,None,"leg
",293.0409274897538,None,return,4.702074903994799,293.12428673170507,None,,,,,,,,,,,,,,,,,,,,,,,,,,,,,,,,,133,001,2023_Nov_13_1430,SpeechDraft1Carolyn_lessNoise_PlusLocalization,2021.2.3,59.999036487763604,
burn.wav,burn.mpg,burn,6,AV,Pink_Noise_6_1.wav,Pink_Noise_6_2.wav,,,,,,,,,,,,,,,0,25,25,104,,,,,,,,,,,,,,,,,,,,,,,297.8575862888247,None,299.35743764881045,None,300.7412390918471,None,purr,300.7412390918471,None,return,15.794146380852908,300.82421622797847,None,,,,,,,,,,,,,,,,,,,,,,,,,,,,,,,,,133,001,2023_Nov_13_1430,SpeechDraft1Carolyn_lessNoise_PlusLocalization,2021.2.3,59.999036487763604,
ham.wav,ham.mpg,ham,2,AV,Pink_Noise_2_1.wav,Pink_Noise_2_2.wav,,,,,,,,,,,,,,,0,26,26,107,,,,,,,,,,,,,,,,,,,,,,,316.64091961458325,None,318.17413324303925,None,319.5577090908773,None,ham,319.5577090908773,None,return,1.441495036240667,319.6409118208103,None,,,,,,,,,,,,,,,,,,,,,,,,,,,,,,,,,133,001,2023_Nov_13_1430,SpeechDraft1Carolyn_lessNoise_PlusLocalization,2021.2.3,59.999036487763604,
blend.wav,blend.mpg,blend,5,AV,Pink_Noise_5_1.wav,Pink_Noise_5_2.wav,,,,,,,,,,,,,,,0,27,27,71,,,,,,,,,,,,,,,,,,,,,,,321.1076726648025,None,322.60958629800007,None,323.9908196227625,None,blend,323.9908196227625,None,return,6.3599827899597585,324.0743699236773,None,,,,,,,,,,,,,,,,,,,,,,,,,,,,,,,,,133,001,2023_Nov_13_1430,SpeechDraft1Carolyn_lessNoise_PlusLocalization,2021.2.3,59.999036487763604,
cruel.wav,cruel.mpg,cruel,3,AV,Pink_Noise_3_1.wav,Pink_Noise_3_2.wav,,,,,,,,,,,,,,,0,28,28,106,,,,,,,,,,,,,,,,,,,,,,,330.4575798236765,None,331.97414392093197,None,333.35751764988527,None,cruel,333.35751764988527,None,return,2.761190989986062,333.44116609171033,None,,,,,,,,,,,,,,,,,,,,,,,,,,,,,,,,,133,001,2023_Nov_13_1430,SpeechDraft1Carolyn_lessNoise_PlusLocalization,2021.2.3,59.999036487763604,
clap.wav,clap.mpg,clap,5,A,Pink_Noise_5_1.wav,Pink_Noise_5_2.wav,,,,,,,,,,,,,,,0,29,29,6,,,,,,,,,,,,,,,,,,,,,,,336.2242841180414,None,337.72581499582157,None,339.10766482399777,None,flat,339.10766482399777,None,return,1.4993395921774209,339.19107162579894,None,,,,,,,,,,,,,,,,,,,,,,,,,,,,,,,,,133,001,2023_Nov_13_1430,SpeechDraft1Carolyn_lessNoise_PlusLocalization,2021.2.3,59.999036487763604,
drug.wav,drug.mpg,drug,6,A,Pink_Noise_6_1.wav,Pink_Noise_6_2.wav,,,,,,,,,,,,,,,0,30,30,30,,,,,,,,,,,,,,,,,,,,,,,340.7076344466768,None,342.22411946579814,None,343.60766062280163,None,will,343.60766062280163,None,return,7.391400336753577,343.69096098374575,None,,,,,,,,,,,,,,,,,,,,,,,,,,,,,,,,,133,001,2023_Nov_13_1430,SpeechDraft1Carolyn_lessNoise_PlusLocalization,2021.2.3,59.999036487763604,
chore.wav,chore.mpg,chore,2,AV,Pink_Noise_2_1.wav,Pink_Noise_2_2.wav,,,,,,,,,,,,,,,0,31,31,67,,,,,,,,,,,,,,,,,,,,,,,351.107774944976,None,352.6241490817629,None,354.0075849997811,None,chore,354.0075849997811,None,return,2.375412479043007,354.0909462720156,None,,,,,,,,,,,,,,,,,,,,,,,,,,,,,,,,,133,001,2023_Nov_13_1430,SpeechDraft1Carolyn_lessNoise_PlusLocalization,2021.2.3,59.999036487763604,
curb.wav,curb.mpg,curb,3,A,Pink_Noise_3_1.wav,Pink_Noise_3_2.wav,,,,,,,,,,,,,,,0,32,32,34,,,,,,,,,,,,,,,,,,,,,,,356.4909725319594,None,358.0074225589633,None,359.39109965460375,None,curl,359.39109965460375,None,return,1.8000073391012847,359.47434663167223,None,,,,,,,,,,,,,,,,,,,,,,,,,,,,,,,,,133,001,2023_Nov_13_1430,SpeechDraft1Carolyn_lessNoise_PlusLocalization,2021.2.3,59.999036487763604,
cute.wav,cute.mpg,cute,6,A,Pink_Noise_6_1.wav,Pink_Noise_6_2.wav,,,,,,,,,,,,,,,0,33,33,33,,,,,,,,,,,,,,,,,,,,,,,361.29094003979117,None,362.7924966108985,None,364.1743580987677,None,crease,364.1743580987677,None,return,3.3286762316711247,364.2576767639257,None,,,,,,,,,,,,,,,,,,,,,,,,,,,,,,,,,133,001,2023_Nov_13_1430,SpeechDraft1Carolyn_lessNoise_PlusLocalization,2021.2.3,59.999036487763604,
belt.wav,belt.mpg,belt,4,AV,Pink_Noise_4_1.wav,Pink_Noise_4_2.wav,,,,,,,,,,,,,,,0,34,34,108,,,,,,,,,,,,,,,,,,,,,,,367.60764235490933,None,369.12408448569477,None,370.5078330319375,None,belt,370.5078330319375,None,return,1.5714489873498678,370.59101493190974,None,,,,,,,,,,,,,,,,,,,,,,,,,,,,,,,,,133,001,2023_Nov_13_1430,SpeechDraft1Carolyn_lessNoise_PlusLocalization,2021.2.3,59.999036487763604,
gift.wav,gift.mpg,gift,4,A,Pink_Noise_4_1.wav,Pink_Noise_4_2.wav,,,,,,,,,,,,,,,0,35,35,17,,,,,,,,,,,,,,,,,,,,,,,372.19100724859163,None,373.6918774959631,None,375.07434239890426,None,"gift
",375.07434239890426,None,return,2.068706235848367,375.1576914838515,None,,,,,,,,,,,,,,,,,,,,,,,,,,,,,,,,,133,001,2023_Nov_13_1430,SpeechDraft1Carolyn_lessNoise_PlusLocalization,2021.2.3,59.999036487763604,
flow.wav,flow.mpg,flow,5,A,Pink_Noise_5_1.wav,Pink_Noise_5_2.wav,,,,,,,,,,,,,,,0,36,36,4,,,,,,,,,,,,,,,,,,,,,,,377.25765599682927,None,378.7585418126546,None,380.14104459201917,None,adore,380.14104459201917,None,return,2.945984924212098,380.22436138801277,None,,,,,,,,,,,,,,,,,,,,,,,,,,,,,,,,,133,001,2023_Nov_13_1430,SpeechDraft1Carolyn_lessNoise_PlusLocalization,2021.2.3,59.999036487763604,
file.wav,file.mpg,file,6,AV,Pink_Noise_6_1.wav,Pink_Noise_6_2.wav,,,,,,,,,,,,,,,0,37,37,79,,,,,,,,,,,,,,,,,,,,,,,383.1910564620048,None,384.70740540791303,None,386.0909165586345,None,fell,386.0909165586345,None,return,6.915981767699122,386.17444290267304,None,,,,,,,,,,,,,,,,,,,,,,,,,,,,,,,,,133,001,2023_Nov_13_1430,SpeechDraft1Carolyn_lessNoise_PlusLocalization,2021.2.3,59.999036487763604,
clock.wav,clock.mpg,clock,3,AV,Pink_Noise_3_1.wav,Pink_Noise_3_2.wav,,,,,,,,,,,,,,,0,38,38,74,,,,,,,,,,,,,,,,,,,,,,,393.1077107540332,None,394.6241084029898,None,396.0077472468838,None,clock,396.0077472468838,None,return,2.759318523108959,396.0910421148874,None,,,,,,,,,,,,,,,,,,,,,,,,,,,,,,,,,133,001,2023_Nov_13_1430,SpeechDraft1Carolyn_lessNoise_PlusLocalization,2021.2.3,59.999036487763604,
cope.wav,cope.mpg,cope,2,AV,Pink_Noise_2_1.wav,Pink_Noise_2_2.wav,,,,,,,,,,,,,,,0,39,39,96,,,,,,,,,,,,,,,,,,,,,,,398.87439004471526,None,400.3742760797031,None,401.75784426089376,None,cope,401.75784426089376,None,return,1.265385797712952,401.8410772876814,None,,,,,,,,,,,,,,,,,,,,,,,,,,,,,,,,,133,001,2023_Nov_13_1430,SpeechDraft1Carolyn_lessNoise_PlusLocalization,2021.2.3,59.999036487763604,
flight.wav,flight.mpg,flight,2,A,Pink_Noise_2_1.wav,Pink_Noise_2_2.wav,,,,,,,,,,,,,,,0,40,40,29,,,,,,,,,,,,,,,,,,,,,,,403.1244329768233,None,404.64081550668925,None,406.024302277714,None,flight,406.024302277714,None,return,1.2706386800855398,406.10770857473835,None,,,,,,,,,,,,,,,,,,,,,,,,,,,,,,,,,133,001,2023_Nov_13_1430,SpeechDraft1Carolyn_lessNoise_PlusLocalization,2021.2.3,59.999036487763604,
crime.wav,crime.mpg,crime,1,A,Pink_Noise_1_1.wav,Pink_Noise_1_2.wav,,,,,,,,,,,,,,,0,41,41,11,,,,,,,,,,,,,,,,,,,,,,,407.40772932581604,None,408.9073955519125,None,410.2911670887843,None,"crime
",410.2911670887843,None,return,2.8199037611484528,410.3744609747082,None,,,,,,,,,,,,,,,,,,,,,,,,,,,,,,,,,133,001,2023_Nov_13_1430,SpeechDraft1Carolyn_lessNoise_PlusLocalization,2021.2.3,59.999036487763604,
gag.wav,gag.mpg,gag,3,AV,Pink_Noise_3_1.wav,Pink_Noise_3_2.wav,,,,,,,,,,,,,,,0,42,42,110,,,,,,,,,,,,,,,,,,,,,,,413.2243823129684,None,414.74076268589124,None,416.1076417597942,None,gag,416.1076417597942,None,return,1.5631450968794525,416.1912945075892,None,,,,,,,,,,,,,,,,,,,,,,,,,,,,,,,,,133,001,2023_Nov_13_1430,SpeechDraft1Carolyn_lessNoise_PlusLocalization,2021.2.3,59.999036487763604,
crane.wav,crane.mpg,crane,5,A,Pink_Noise_5_1.wav,Pink_Noise_5_2.wav,,,,,,,,,,,,,,,0,43,43,36,,,,,,,,,,,,,,,,,,,,,,,417.77445550775155,None,419.2907608766109,None,420.6744920630008,None,faint,420.6744920630008,None,return,7.69260419998318,420.7577493977733,None,,,,,,,,,,,,,,,,,,,,,,,,,,,,,,,,,133,001,2023_Nov_13_1430,SpeechDraft1Carolyn_lessNoise_PlusLocalization,2021.2.3,59.999036487763604,
globe.wav,globe.mpg,globe,5,A,Pink_Noise_5_1.wav,Pink_Noise_5_2.wav,,,,,,,,,,,,,,,0,44,44,35,,,,,,,,,,,,,,,,,,,,,,,428.4743810836226,None,429.9908341378905,None,431.3744065547362,None,rope,431.3744065547362,None,return,2.3125850982032716,431.45777699397877,None,,,,,,,,,,,,,,,,,,,,,,,,,,,,,,,,,133,001,2023_Nov_13_1430,SpeechDraft1Carolyn_lessNoise_PlusLocalization,2021.2.3,59.999036487763604,
bald.wav,bald.mpg,bald,4,A,Pink_Noise_4_1.wav,Pink_Noise_4_2.wav,,,,,,,,,,,,,,,0,45,45,0,,,,,,,,,,,,,,,,,,,,,,,433.7911002920009,None,435.30742417881265,None,436.69121011858806,None,"balls
",436.69121011858806,None,return,6.451972314156592,436.77439503883943,None,,,,,,,,,,,,,,,,,,,,,,,,,,,,,,,,,133,001,2023_Nov_13_1430,SpeechDraft1Carolyn_lessNoise_PlusLocalization,2021.2.3,59.999036487763604,
hug.wav,hug.mpg,hug,6,AV,Pink_Noise_6_1.wav,Pink_Noise_6_2.wav,,,,,,,,,,,,,,,0,46,46,70,,,,,,,,,,,,,,,,,,,,,,,443.25773740466684,None,444.7741991416551,None,446.1577326548286,None,heart,446.1577326548286,None,return,3.057201593182981,446.2412291406654,None,,,,,,,,,,,,,,,,,,,,,,,,,,,,,,,,,133,001,2023_Nov_13_1430,SpeechDraft1Carolyn_lessNoise_PlusLocalization,2021.2.3,59.999036487763604,
blow.wav,blow.mpg,blow,1,A,Pink_Noise_1_1.wav,Pink_Noise_1_2.wav,,,,,,,,,,,,,,,0,47,47,59,,,,,,,,,,,,,,,,,,,,,,,449.32453277986497,None,450.8407507627271,None,452.22438839497045,None,blow,452.22438839497045,None,return,2.542581162415445,452.30778017966077,None,,,,,,,,,,,,,,,,,,,,,,,,,,,,,,,,,133,001,2023_Nov_13_1430,SpeechDraft1Carolyn_lessNoise_PlusLocalization,2021.2.3,59.999036487763604,
pact.wav,pact.mpg,pact,1,AV,Pink_Noise_1_1.wav,Pink_Noise_1_2.wav,,,,,,,,,,,,,,,0,48,48,99,,,,,,,,,,,,,,,,,,,,,,,454.87441945960745,None,456.37422963092104,None,457.75775303598493,None,packed,457.75775303598493,None,return,3.9613036140799522,457.8410979700275,None,,,,,,,,,,,,,,,,,,,,,,,,,,,,,,,,,133,001,2023_Nov_13_1430,SpeechDraft1Carolyn_lessNoise_PlusLocalization,2021.2.3,59.999036487763604,
fate.wav,fate.mpg,fate,3,AV,Pink_Noise_3_1.wav,Pink_Noise_3_2.wav,,,,,,,,,,,,,,,0,49,49,85,,,,,,,,,,,,,,,,,,,,,,,461.82452566176653,None,463.34108197083697,None,464.7245300686918,None,fate,464.7245300686918,None,return,2.322634373791516,464.80782131897286,None,,,,,,,,,,,,,,,,,,,,,,,,,,,,,,,,,133,001,2023_Nov_13_1430,SpeechDraft1Carolyn_lessNoise_PlusLocalization,2021.2.3,59.999036487763604,
flex.wav,flex.mpg,flex,3,AV,Pink_Noise_3_1.wav,Pink_Noise_3_2.wav,,,,,,,,,,,,,,,0,50,50,98,,,,,,,,,,,,,,,,,,,,,,,467.15777307376266,None,468.6759506878443,None,470.05780135281384,None,"flex
",470.05780135281384,None,return,2.8851854619570076,470.1411816589534,None,,,,,,,,,,,,,,,,,,,,,,,,,,,,,,,,,133,001,2023_Nov_13_1430,SpeechDraft1Carolyn_lessNoise_PlusLocalization,2021.2.3,59.999036487763604,
clot.wav,clot.mpg,clot,2,A,Pink_Noise_2_1.wav,Pink_Noise_2_2.wav,,,,,,,,,,,,,,,0,51,51,43,,,,,,,,,,,,,,,,,,,,,,,473.05783530604094,None,474.5741913188249,None,475.95791696663946,None,"clapped
",475.95791696663946,None,return,6.169239277951419,476.04111886862665,None,,,,,,,,,,,,,,,,,,,,,,,,,,,,,,,,,133,001,2023_Nov_13_1430,SpeechDraft1Carolyn_lessNoise_PlusLocalization,2021.2.3,59.999036487763604,
dot.wav,dot.mpg,dot,4,A,Pink_Noise_4_1.wav,Pink_Noise_4_2.wav,,,,,,,,,,,,,,,0,52,52,48,,,,,,,,,,,,,,,,,,,,,,,482.2412585807033,None,483.7575312387198,None,485.1412147837691,None,"got
",485.1412147837691,None,return,1.4338348200544715,485.22452341066673,None,,,,,,,,,,,,,,,,,,,,,,,,,,,,,,,,,133,001,2023_Nov_13_1430,SpeechDraft1Carolyn_lessNoise_PlusLocalization,2021.2.3,59.999036487763604,
quit.wav,quit.mpg,quit,4,AV,Pink_Noise_4_1.wav,Pink_Noise_4_2.wav,,,,,,,,,,,,,,,0,53,53,109,,,,,,,,,,,,,,,,,,,,,,,486.6911768806167,None,488.20752445375547,None,489.5911027067341,None,quit,489.5911027067341,None,return,2.2878258018754423,489.67461434658617,None,,,,,,,,,,,,,,,,,,,,,,,,,,,,,,,,,133,001,2023_Nov_13_1430,SpeechDraft1Carolyn_lessNoise_PlusLocalization,2021.2.3,59.999036487763604,
swamp.wav,swamp.mpg,swamp,2,A,Pink_Noise_2_1.wav,Pink_Noise_2_2.wav,,,,,,,,,,,,,,,0,54,54,20,,,,,,,,,,,,,,,,,,,,,,,491.9911341359839,None,493.50752917164937,None,494.89128144364804,None,swung,494.89128144364804,None,return,2.443831820972264,494.9745277748443,None,,,,,,,,,,,,,,,,,,,,,,,,,,,,,,,,,133,001,2023_Nov_13_1430,SpeechDraft1Carolyn_lessNoise_PlusLocalization,2021.2.3,59.999036487763604,
flirt.wav,flirt.mpg,flirt,6,A,Pink_Noise_6_1.wav,Pink_Noise_6_2.wav,,,,,,,,,,,,,,,0,55,55,27,,,,,,,,,,,,,,,,,,,,,,,497.44117337372154,None,498.97423345269635,None,500.3578402539715,None,wit,500.3578402539715,None,return,6.6811490640975535,500.4412076449953,None,,,,,,,,,,,,,,,,,,,,,,,,,,,,,,,,,133,001,2023_Nov_13_1430,SpeechDraft1Carolyn_lessNoise_PlusLocalization,2021.2.3,59.999036487763604,
teen.wav,teen.mpg,teen,1,AV,Pink_Noise_1_1.wav,Pink_Noise_1_2.wav,,,,,,,,,,,,,,,0,56,56,80,,,,,,,,,,,,,,,,,,,,,,,507.141183310654,None,508.6575393266976,None,510.04116380773485,None,teen,510.04116380773485,None,return,6.421778932213783,510.12463130103424,None,,,,,,,,,,,,,,,,,,,,,,,,,,,,,,,,,133,001,2023_Nov_13_1430,SpeechDraft1Carolyn_lessNoise_PlusLocalization,2021.2.3,59.999036487763604,
row.wav,row.mpg,row,3,AV,Pink_Noise_3_1.wav,Pink_Noise_3_2.wav,,,,,,,,,,,,,,,0,57,57,103,,,,,,,,,,,,,,,,,,,,,,,516.5745555046014,None,518.0909946537577,None,519.4747715289705,None,"road
",519.4747715289705,None,return,6.9004393317736685,519.5579177327454,None,,,,,,,,,,,,,,,,,,,,,,,,,,,,,,,,,133,001,2023_Nov_13_1430,SpeechDraft1Carolyn_lessNoise_PlusLocalization,2021.2.3,59.999036487763604,
chalk.wav,chalk.mpg,chalk,5,AV,Pink_Noise_5_1.wav,Pink_Noise_5_2.wav,,,,,,,,,,,,,,,0,58,58,62,,,,,,,,,,,,,,,,,,,,,,,526.4912054617889,None,528.0077449958771,None,529.3912966540083,None,chalk,529.3912966540083,None,return,3.0878012450411916,529.474570910912,None,,,,,,,,,,,,,,,,,,,,,,,,,,,,,,,,,133,001,2023_Nov_13_1430,SpeechDraft1Carolyn_lessNoise_PlusLocalization,2021.2.3,59.999036487763604,
bag.wav,bag.mpg,bag,2,AV,Pink_Noise_2_1.wav,Pink_Noise_2_2.wav,,,,,,,,,,,,,,,0,59,59,117,,,,,,,,,,,,,,,,,,,,,,,532.5912104477175,None,534.1243165568449,None,535.5077802026644,None,beg,535.5077802026644,None,return,6.027086763642728,535.5912568988279,None,,,,,,,,,,,,,,,,,,,,,,,,,,,,,,,,,133,001,2023_Nov_13_1430,SpeechDraft1Carolyn_lessNoise_PlusLocalization,2021.2.3,59.999036487763604,
built.wav,built.mpg,built,3,A,Pink_Noise_3_1.wav,Pink_Noise_3_2.wav,,,,,,,,,,,,,,,0,60,60,57,,,,,,,,,,,,,,,,,,,,,,,541.6413557166234,None,543.1577672506683,None,544.5412491257302,None,built,544.5412491257302,None,return,5.865609559230506,544.6248032688163,None,,,,,,,,,,,,,,,,,,,,,,,,,,,,,,,,,133,001,2023_Nov_13_1430,SpeechDraft1Carolyn_lessNoise_PlusLocalization,2021.2.3,59.999036487763604,
slick.wav,slick.mpg,slick,3,AV,Pink_Noise_3_1.wav,Pink_Noise_3_2.wav,,,,,,,,,,,,,,,0,61,61,68,,,,,,,,,,,,,,,,,,,,,,,550.5079007367603,None,552.0244687786326,None,553.4078217670321,None,slick,553.4078217670321,None,return,1.8308301819488406,553.4915362349711,None,,,,,,,,,,,,,,,,,,,,,,,,,,,,,,,,,133,001,2023_Nov_13_1430,SpeechDraft1Carolyn_lessNoise_PlusLocalization,2021.2.3,59.999036487763604,
flag.wav,flag.mpg,flag,2,A,Pink_Noise_2_1.wav,Pink_Noise_2_2.wav,,,,,,,,,,,,,,,0,62,62,12,,,,,,,,,,,,,,,,,,,,,,,555.3413050076924,None,556.8576533966698,None,558.2413586280309,None,flag,558.2413586280309,None,return,1.629845974035561,558.3245807737112,None,,,,,,,,,,,,,,,,,,,,,,,,,,,,,,,,,133,001,2023_Nov_13_1430,SpeechDraft1Carolyn_lessNoise_PlusLocalization,2021.2.3,59.999036487763604,
code.wav,code.mpg,code,4,AV,Pink_Noise_4_1.wav,Pink_Noise_4_2.wav,,,,,,,,,,,,,,,0,63,63,72,,,,,,,,,,,,,,,,,,,,,,,559.9746375749819,None,561.491083486937,None,562.8745472757146,None,coal,562.8745472757146,None,return,25.42841323139146,562.9579666676,None,,,,,,,,,,,,,,,,,,,,,,,,,,,,,,,,,133,001,2023_Nov_13_1430,SpeechDraft1Carolyn_lessNoise_PlusLocalization,2021.2.3,59.999036487763604,
curl.wav,curl.mpg,curl,1,A,Pink_Noise_1_1.wav,Pink_Noise_1_2.wav,,,,,,,,,,,,,,,0,64,64,47,,,,,,,,,,,,,,,,,,,,,,,588.4079820089974,None,589.9410214936361,None,591.3246949026361,None,curl,591.3246949026361,None,return,1.842430534772575,591.407918243669,None,,,,,,,,,,,,,,,,,,,,,,,,,,,,,,,,,133,001,2023_Nov_13_1430,SpeechDraft1Carolyn_lessNoise_PlusLocalization,2021.2.3,59.999036487763604,
dial.wav,dial.mpg,dial,3,A,Pink_Noise_3_1.wav,Pink_Noise_3_2.wav,,,,,,,,,,,,,,,0,65,65,18,,,,,,,,,,,,,,,,,,,,,,,593.2747036595829,None,594.7910840306431,None,596.1745721027255,None,dial,596.1745721027255,None,return,1.0403758813627064,596.2580280955881,None,,,,,,,,,,,,,,,,,,,,,,,,,,,,,,,,,133,001,2023_Nov_13_1430,SpeechDraft1Carolyn_lessNoise_PlusLocalization,2021.2.3,59.999036487763604,
frail.wav,frail.mpg,frail,5,AV,Pink_Noise_5_1.wav,Pink_Noise_5_2.wav,,,,,,,,,,,,,,,0,66,66,92,,,,,,,,,,,,,,,,,,,,,,,597.3246813840233,None,598.8412147639319,None,600.2244988298044,None,fell,600.2244988298044,None,return,10.790466795209795,600.307944945991,None,,,,,,,,,,,,,,,,,,,,,,,,,,,,,,,,,133,001,2023_Nov_13_1430,SpeechDraft1Carolyn_lessNoise_PlusLocalization,2021.2.3,59.999036487763604,
chess.wav,chess.mpg,chess,5,AV,Pink_Noise_5_1.wav,Pink_Noise_5_2.wav,,,,,,,,,,,,,,,0,67,67,89,,,,,,,,,,,,,,,,,,,,,,,611.125088121742,None,612.6409748815931,None,614.024621619843,None,chess,614.024621619843,None,return,1.99846733501181,614.1079483348876,None,,,,,,,,,,,,,,,,,,,,,,,,,,,,,,,,,133,001,2023_Nov_13_1430,SpeechDraft1Carolyn_lessNoise_PlusLocalization,2021.2.3,59.999036487763604,
grasp.wav,grasp.mpg,grasp,6,A,Pink_Noise_6_1.wav,Pink_Noise_6_2.wav,,,,,,,,,,,,,,,0,68,68,51,,,,,,,,,,,,,,,,,,,,,,,616.1246744366363,None,617.6410349556245,None,619.0247135958634,None,flit,619.0247135958634,None,return,2.830498962663114,619.1079747639596,None,,,,,,,,,,,,,,,,,,,,,,,,,,,,,,,,,133,001,2023_Nov_13_1430,SpeechDraft1Carolyn_lessNoise_PlusLocalization,2021.2.3,59.999036487763604,
brown.wav,brown.mpg,brown,6,A,Pink_Noise_6_1.wav,Pink_Noise_6_2.wav,,,,,,,,,,,,,,,0,69,69,55,,,,,,,,,,,,,,,,,,,,,,,621.9580126418732,None,623.4743932979181,None,624.8580607329495,None,dog,624.8580607329495,None,return,2.460981317330152,624.9414161578752,None,,,,,,,,,,,,,,,,,,,,,,,,,,,,,,,,,133,001,2023_Nov_13_1430,SpeechDraft1Carolyn_lessNoise_PlusLocalization,2021.2.3,59.999036487763604,
tart.wav,tart.mpg,tart,6,AV,Pink_Noise_6_1.wav,Pink_Noise_6_2.wav,,,,,,,,,,,,,,,0,70,70,63,,,,,,,,,,,,,,,,,,,,,,,627.424680236727,None,628.9577951016836,None,630.3247759616934,None,touch,630.3247759616934,None,return,2.1065161488950253,630.4080490479246,None,,,,,,,,,,,,,,,,,,,,,,,,,,,,,,,,,133,001,2023_Nov_13_1430,SpeechDraft1Carolyn_lessNoise_PlusLocalization,2021.2.3,59.999036487763604,
brisk.wav,brisk.mpg,brisk,6,A,Pink_Noise_6_1.wav,Pink_Noise_6_2.wav,,,,,,,,,,,,,,,0,71,71,19,,,,,,,,,,,,,,,,,,,,,,,632.5416086008772,None,634.0577548886649,None,635.4413866386749,None,fix,635.4413866386749,None,return,1.5416499911807477,635.5247018658556,None,,,,,,,,,,,,,,,,,,,,,,,,,,,,,,,,,133,001,2023_Nov_13_1430,SpeechDraft1Carolyn_lessNoise_PlusLocalization,2021.2.3,59.999036487763604,
style.wav,style.mpg,style,3,A,Pink_Noise_3_1.wav,Pink_Noise_3_2.wav,,,,,,,,,,,,,,,0,72,72,56,,,,,,,,,,,,,,,,,,,,,,,637.0913904770277,None,638.6077893166803,None,639.9913949547336,None,style,639.9913949547336,None,return,1.8397158500738442,640.0747345676646,None,,,,,,,,,,,,,,,,,,,,,,,,,,,,,,,,,133,001,2023_Nov_13_1430,SpeechDraft1Carolyn_lessNoise_PlusLocalization,2021.2.3,59.999036487763604,
bank.wav,bank.mpg,bank,1,AV,Pink_Noise_1_1.wav,Pink_Noise_1_2.wav,,,,,,,,,,,,,,,0,73,73,112,,,,,,,,,,,,,,,,,,,,,,,641.9414332187735,None,643.4578342377208,None,644.8414474297315,None,bank,644.8414474297315,None,return,11.205812094267458,644.9246892477386,None,,,,,,,,,,,,,,,,,,,,,,,,,,,,,,,,,133,001,2023_Nov_13_1430,SpeechDraft1Carolyn_lessNoise_PlusLocalization,2021.2.3,59.999036487763604,
brand.wav,brand.mpg,brand,5,A,Pink_Noise_5_1.wav,Pink_Noise_5_2.wav,,,,,,,,,,,,,,,0,74,74,8,,,,,,,,,,,,,,,,,,,,,,,656.1580806267448,None,657.6743523739278,None,659.0581866549328,None,flame,659.0581866549328,None,return,54.41305586369708,659.1413470688276,None,,,,,,,,,,,,,,,,,,,,,,,,,,,,,,,,,133,001,2023_Nov_13_1430,SpeechDraft1Carolyn_lessNoise_PlusLocalization,2021.2.3,59.999036487763604,
block.wav,block.mpg,block,5,AV,Pink_Noise_5_1.wav,Pink_Noise_5_2.wav,,,,,,,,,,,,,,,0,75,75,113,,,,,,,,,,,,,,,,,,,,,,,713.5748061989434,None,715.1078749536537,None,716.4913768018596,None,blunt,716.4913768018596,None,return,3.107513525057584,716.5748282489367,None,,,,,,,,,,,,,,,,,,,,,,,,,,,,,,,,,133,001,2023_Nov_13_1430,SpeechDraft1Carolyn_lessNoise_PlusLocalization,2021.2.3,59.999036487763604,
fall.wav,fall.mpg,fall,3,A,Pink_Noise_3_1.wav,Pink_Noise_3_2.wav,,,,,,,,,,,,,,,0,76,76,50,,,,,,,,,,,,,,,,,,,,,,,719.7081093587913,None,721.2245498755947,None,722.6081546228379,None,ball,722.6081546228379,None,return,2.3428589859977365,722.6914946157485,None,,,,,,,,,,,,,,,,,,,,,,,,,,,,,,,,,133,001,2023_Nov_13_1430,SpeechDraft1Carolyn_lessNoise_PlusLocalization,2021.2.3,59.999036487763604,
flog.wav,flog.mpg,flog,3,A,Pink_Noise_3_1.wav,Pink_Noise_3_2.wav,,,,,,,,,,,,,,,0,77,77,2,,,,,,,,,,,,,,,,,,,,,,,725.0582550726831,None,726.5745796225965,None,727.9582492099144,None,flog,727.9582492099144,None,return,3.24085464887321,728.0415037167259,None,,,,,,,,,,,,,,,,,,,,,,,,,,,,,,,,,133,001,2023_Nov_13_1430,SpeechDraft1Carolyn_lessNoise_PlusLocalization,2021.2.3,59.999036487763604,
bread.wav,bread.mpg,bread,1,AV,Pink_Noise_1_1.wav,Pink_Noise_1_2.wav,,,,,,,,,,,,,,,0,78,78,86,,,,,,,,,,,,,,,,,,,,,,,731.3081171279773,None,732.8417818159796,None,734.2246657349169,None,bread,734.2246657349169,None,return,1.430165664292872,734.3082453408279,None,,,,,,,,,,,,,,,,,,,,,,,,,,,,,,,,,133,001,2023_Nov_13_1430,SpeechDraft1Carolyn_lessNoise_PlusLocalization,2021.2.3,59.999036487763604,
crow.wav,crow.mpg,crow,5,A,Pink_Noise_5_1.wav,Pink_Noise_5_2.wav,,,,,,,,,,,,,,,0,79,79,16,,,,,,,,,,,,,,,,,,,,,,,735.7582115847617,None,737.2745893648826,None,738.6582037387416,None,play,738.6582037387416,None,return,1.9248902290128171,738.7415279136039,None,,,,,,,,,,,,,,,,,,,,,,,,,,,,,,,,,133,001,2023_Nov_13_1430,SpeechDraft1Carolyn_lessNoise_PlusLocalization,2021.2.3,59.999036487763604,
clothe.wav,clothe.mpg,clothe,3,A,Pink_Noise_3_1.wav,Pink_Noise_3_2.wav,,,,,,,,,,,,,,,0,80,80,1,,,,,,,,,,,,,,,,,,,,,,,740.6914745708928,None,742.207935793791,None,743.5914920489304,None,"clothed
",743.5914920489304,None,return,4.935468127951026,743.6749218446203,None,,,,,,,,,,,,,,,,,,,,,,,,,,,,,,,,,133,001,2023_Nov_13_1430,SpeechDraft1Carolyn_lessNoise_PlusLocalization,2021.2.3,59.999036487763604,
broad.wav,broad.mpg,broad,2,AV,Pink_Noise_2_1.wav,Pink_Noise_2_2.wav,,,,,,,,,,,,,,,0,81,81,118,,,,,,,,,,,,,,,,,,,,,,,748.6415164726786,None,750.1579031907022,None,751.5414983099326,None,broad,751.5414983099326,None,return,1.4254491138271987,751.6248987377621,None,,,,,,,,,,,,,,,,,,,,,,,,,,,,,,,,,133,001,2023_Nov_13_1430,SpeechDraft1Carolyn_lessNoise_PlusLocalization,2021.2.3,59.999036487763604,
bring.wav,bring.mpg,bring,4,AV,Pink_Noise_4_1.wav,Pink_Noise_4_2.wav,,,,,,,,,,,,,,,0,82,82,114,,,,,,,,,,,,,,,,,,,,,,,753.0748575818725,None,754.5912053068168,None,755.9747729417868,None,"brim
",755.9747729417868,None,return,6.5200683288276196,756.0583077026531,None,,,,,,,,,,,,,,,,,,,,,,,,,,,,,,,,,133,001,2023_Nov_13_1430,SpeechDraft1Carolyn_lessNoise_PlusLocalization,2021.2.3,59.999036487763604,
axe.wav,axe.mpg,axe,1,A,Pink_Noise_1_1.wav,Pink_Noise_1_2.wav,,,,,,,,,,,,,,,0,83,83,3,,,,,,,,,,,,,,,,,,,,,,,762.6082407790236,None,764.1246036849916,None,765.5082338568754,None,axe,765.5082338568754,None,return,1.3549410537816584,765.5915518049151,None,,,,,,,,,,,,,,,,,,,,,,,,,,,,,,,,,133,001,2023_Nov_13_1430,SpeechDraft1Carolyn_lessNoise_PlusLocalization,2021.2.3,59.999036487763604,
bait.wav,bait.mpg,bait,2,A,Pink_Noise_2_1.wav,Pink_Noise_2_2.wav,,,,,,,,,,,,,,,0,84,84,22,,,,,,,,,,,,,,,,,,,,,,,766.9749017246068,None,768.4912051996216,None,769.8748996276408,None,"bait
",769.8748996276408,None,return,2.2680811467580497,769.9582886840217,None,,,,,,,,,,,,,,,,,,,,,,,,,,,,,,,,,133,001,2023_Nov_13_1430,SpeechDraft1Carolyn_lessNoise_PlusLocalization,2021.2.3,59.999036487763604,
traps.wav,traps.mpg,traps,1,AV,Pink_Noise_1_1.wav,Pink_Noise_1_2.wav,,,,,,,,,,,,,,,0,85,85,69,,,,,,,,,,,,,,,,,,,,,,,772.2582031409256,None,773.7751600118354,None,775.1581207648851,None,"traps
",775.1581207648851,None,return,1.152804708108306,775.2415622938424,None,,,,,,,,,,,,,,,,,,,,,,,,,,,,,,,,,133,001,2023_Nov_13_1430,SpeechDraft1Carolyn_lessNoise_PlusLocalization,2021.2.3,59.999036487763604,
greek.wav,greek.mpg,greek,1,AV,Pink_Noise_1_1.wav,Pink_Noise_1_2.wav,,,,,,,,,,,,,,,0,86,86,82,,,,,,,,,,,,,,,,,,,,,,,776.4249956049025,None,777.9412716026418,None,779.3248002748005,None,"greek
",779.3248002748005,None,return,5.386152453254908,779.4082133630291,None,,,,,,,,,,,,,,,,,,,,,,,,,,,,,,,,,133,001,2023_Nov_13_1430,SpeechDraft1Carolyn_lessNoise_PlusLocalization,2021.2.3,59.999036487763604,
fluff.wav,fluff.mpg,fluff,6,A,Pink_Noise_6_1.wav,Pink_Noise_6_2.wav,,,,,,,,,,,,,,,0,87,87,10,,,,,,,,,,,,,,,,,,,,,,,784.8248728066683,None,786.3412825227715,None,787.7248758007772,None,flung,787.7248758007772,None,return,2.7461664169095457,787.8082162160426,None,,,,,,,,,,,,,,,,,,,,,,,,,,,,,,,,,133,001,2023_Nov_13_1430,SpeechDraft1Carolyn_lessNoise_PlusLocalization,2021.2.3,59.999036487763604,
born.wav,born.mpg,born,3,A,Pink_Noise_3_1.wav,Pink_Noise_3_2.wav,,,,,,,,,,,,,,,0,88,88,41,,,,,,,,,,,,,,,,,,,,,,,790.5749022290111,None,792.1079835258424,None,793.4915993199684,None,board,793.4915993199684,None,return,10.95552858710289,793.5749187506735,None,,,,,,,,,,,,,,,,,,,,,,,,,,,,,,,,,133,001,2023_Nov_13_1430,SpeechDraft1Carolyn_lessNoise_PlusLocalization,2021.2.3,59.999036487763604,
cheat.wav,cheat.mpg,cheat,5,AV,Pink_Noise_5_1.wav,Pink_Noise_5_2.wav,,,,,,,,,,,,,,,0,89,89,75,,,,,,,,,,,,,,,,,,,,,,,804.5582189518027,None,806.0913574136794,None,807.4749628705904,None,"cheat
",807.4749628705904,None,return,1.6840596399269998,807.5583076928742,None,,,,,,,,,,,,,,,,,,,,,,,,,,,,,,,,,133,001,2023_Nov_13_1430,SpeechDraft1Carolyn_lessNoise_PlusLocalization,2021.2.3,59.999036487763604,
gap.wav,gap.mpg,gap,3,A,Pink_Noise_3_1.wav,Pink_Noise_3_2.wav,,,,,,,,,,,,,,,0,90,90,5,,,,,,,,,,,,,,,,,,,,,,,809.2749287430197,None,810.807909569703,None,812.1749064326286,None,gap,812.1749064326286,None,return,1.6080942656844854,812.2582593415864,None,,,,,,,,,,,,,,,,,,,,,,,,,,,,,,,,,133,001,2023_Nov_13_1430,SpeechDraft1Carolyn_lessNoise_PlusLocalization,2021.2.3,59.999036487763604,
route.wav,route.mpg,route,2,A,Pink_Noise_2_1.wav,Pink_Noise_2_2.wav,,,,,,,,,,,,,,,0,91,91,39,,,,,,,,,,,,,,,,,,,,,,,813.8916741795838,None,815.4080258747563,None,816.7916264059022,None,breach,816.7916264059022,None,return,3.607324075885117,816.8751241127029,None,,,,,,,,,,,,,,,,,,,,,,,,,,,,,,,,,133,001,2023_Nov_13_1430,SpeechDraft1Carolyn_lessNoise_PlusLocalization,2021.2.3,59.999036487763604,
castle.wav,castle.mpg,castle,2,AV,Pink_Noise_2_1.wav,Pink_Noise_2_2.wav,,,,,,,,,,,,,,,0,92,92,100,,,,,,,,,,,,,,,,,,,,,,,820.5083544389345,None,822.024631343782,None,823.408261699602,None,castle,823.408261699602,None,return,1.4786932659335434,823.4916916796938,None,,,,,,,,,,,,,,,,,,,,,,,,,,,,,,,,,133,001,2023_Nov_13_1430,SpeechDraft1Carolyn_lessNoise_PlusLocalization,2021.2.3,59.999036487763604,
else.wav,else.mpg,else,1,AV,Pink_Noise_1_1.wav,Pink_Noise_1_2.wav,,,,,,,,,,,,,,,0,93,93,87,,,,,,,,,,,,,,,,,,,,,,,824.9916214179248,None,826.5091385808773,None,827.8916452405974,None,else,827.8916452405974,None,return,7.883443895261735,827.9749628617428,None,,,,,,,,,,,,,,,,,,,,,,,,,,,,,,,,,133,001,2023_Nov_13_1430,SpeechDraft1Carolyn_lessNoise_PlusLocalization,2021.2.3,59.999036487763604,
deem.wav,deem.mpg,deem,4,A,Pink_Noise_4_1.wav,Pink_Noise_4_2.wav,,,,,,,,,,,,,,,0,94,94,26,,,,,,,,,,,,,,,,,,,,,,,835.8749703019857,None,837.3913388396613,None,838.7751242090017,None,"deem
",838.7751242090017,None,return,2.751998702995479,838.8583659077995,None,,,,,,,,,,,,,,,,,,,,,,,,,,,,,,,,,133,001,2023_Nov_13_1430,SpeechDraft1Carolyn_lessNoise_PlusLocalization,2021.2.3,59.999036487763604,
cloud.wav,cloud.mpg,cloud,5,AV,Pink_Noise_5_1.wav,Pink_Noise_5_2.wav,,,,,,,,,,,,,,,0,95,95,105,,,,,,,,,,,,,,,,,,,,,,,841.6416539195925,None,843.1580564356409,None,844.5415994548239,None,cloud,844.5415994548239,None,return,2.8972343229688704,844.625168742612,None,,,,,,,,,,,,,,,,,,,,,,,,,,,,,,,,,133,001,2023_Nov_13_1430,SpeechDraft1Carolyn_lessNoise_PlusLocalization,2021.2.3,59.999036487763604,
swan.wav,swan.mpg,swan,6,AV,Pink_Noise_6_1.wav,Pink_Noise_6_2.wav,,,,,,,,,,,,,,,0,96,96,64,,,,,,,,,,,,,,,,,,,,,,,847.541790057905,None,849.0584196927957,None,850.4415017217398,None,dwell,850.4415017217398,None,return,3.173455889336765,850.5250106980093,None,,,,,,,,,,,,,,,,,,,,,,,,,,,,,,,,,133,001,2023_Nov_13_1430,SpeechDraft1Carolyn_lessNoise_PlusLocalization,2021.2.3,59.999036487763604,
dim.wav,dim.mpg,dim,3,A,Pink_Noise_3_1.wav,Pink_Noise_3_2.wav,,,,,,,,,,,,,,,0,97,97,25,,,,,,,,,,,,,,,,,,,,,,,853.7251393860206,None,855.2413415717892,None,856.6250418359414,None,dim,856.6250418359414,None,return,1.3100270400755107,856.7083745086566,None,,,,,,,,,,,,,,,,,,,,,,,,,,,,,,,,,133,001,2023_Nov_13_1430,SpeechDraft1Carolyn_lessNoise_PlusLocalization,2021.2.3,59.999036487763604,
wet.wav,wet.mpg,wet,5,AV,Pink_Noise_5_1.wav,Pink_Noise_5_2.wav,,,,,,,,,,,,,,,0,98,98,83,,,,,,,,,,,,,,,,,,,,,,,858.0416748216376,None,859.5581266726367,None,860.9416052466258,None,"what
",860.9416052466258,None,return,1.2013550363481045,861.0250061689876,None,,,,,,,,,,,,,,,,,,,,,,,,,,,,,,,,,133,001,2023_Nov_13_1430,SpeechDraft1Carolyn_lessNoise_PlusLocalization,2021.2.3,59.999036487763604,
food.wav,food.mpg,food,1,AV,Pink_Noise_1_1.wav,Pink_Noise_1_2.wav,,,,,,,,,,,,,,,0,99,99,84,,,,,,,,,,,,,,,,,,,,,,,862.2583495327272,None,863.7746977927163,None,865.1582228257321,None,"food
",865.1582228257321,None,return,1.5364061230793595,865.2579324017279,None,,,,,,,,,,,,,,,,,,,,,,,,,,,,,,,,,133,001,2023_Nov_13_1430,SpeechDraft1Carolyn_lessNoise_PlusLocalization,2021.2.3,59.999036487763604,
cause.wav,cause.mpg,cause,4,A,Pink_Noise_4_1.wav,Pink_Noise_4_2.wav,,,,,,,,,,,,,,,0,100,100,52,,,,,,,,,,,,,,,,,,,,,,,866.8250014600344,None,868.3429705100134,None,869.7250457080081,None,cause,869.7250457080081,None,return,1.1459560892544687,869.8083910876885,None,,,,,,,,,,,,,,,,,,,,,,,,,,,,,,,,,133,001,2023_Nov_13_1430,SpeechDraft1Carolyn_lessNoise_PlusLocalization,2021.2.3,59.999036487763604,
fun.wav,fun.mpg,fun,3,AV,Pink_Noise_3_1.wav,Pink_Noise_3_2.wav,,,,,,,,,,,,,,,0,101,101,119,,,,,,,,,,,,,,,,,,,,,,,870.9750503576361,None,872.4916588389315,None,873.8755970760249,None,"fun
",873.8755970760249,None,return,6.235986588988453,873.9583768877201,None,,,,,,,,,,,,,,,,,,,,,,,,,,,,,,,,,133,001,2023_Nov_13_1430,SpeechDraft1Carolyn_lessNoise_PlusLocalization,2021.2.3,59.999036487763604,
crop.wav,crop.mpg,crop,5,AV,Pink_Noise_5_1.wav,Pink_Noise_5_2.wav,,,,,,,,,,,,,,,0,102,102,65,,,,,,,,,,,,,,,,,,,,,,,880.2250285376795,None,881.7582168206573,None,883.1417607679032,None,trap,883.1417607679032,None,return,1.5053820181638002,883.2250429326668,None,,,,,,,,,,,,,,,,,,,,,,,,,,,,,,,,,133,001,2023_Nov_13_1430,SpeechDraft1Carolyn_lessNoise_PlusLocalization,2021.2.3,59.999036487763604,
gate.wav,gate.mpg,gate,2,A,Pink_Noise_2_1.wav,Pink_Noise_2_2.wav,,,,,,,,,,,,,,,0,103,103,21,,,,,,,,,,,,,,,,,,,,,,,884.7585750697181,None,886.2748481696472,None,887.6583865466528,None,gate,887.6583865466528,None,return,1.0125947538763285,887.7417616336606,None,,,,,,,,,,,,,,,,,,,,,,,,,,,,,,,,,133,001,2023_Nov_13_1430,SpeechDraft1Carolyn_lessNoise_PlusLocalization,2021.2.3,59.999036487763604,
fee.wav,fee.mpg,fee,2,A,Pink_Noise_2_1.wav,Pink_Noise_2_2.wav,,,,,,,,,,,,,,,0,104,104,53,,,,,,,,,,,,,,,,,,,,,,,888.7750841756351,None,890.2915731519461,None,891.6751502687111,None,key,891.6751502687111,None,return,0.9320009057410061,891.758442346938,None,,,,,,,,,,,,,,,,,,,,,,,,,,,,,,,,,133,001,2023_Nov_13_1430,SpeechDraft1Carolyn_lessNoise_PlusLocalization,2021.2.3,59.999036487763604,
base.wav,base.mpg,base,2,AV,Pink_Noise_2_1.wav,Pink_Noise_2_2.wav,,,,,,,,,,,,,,,0,105,105,91,,,,,,,,,,,,,,,,,,,,,,,892.7084305388853,None,894.2249059686437,None,895.6083095530048,None,"base
",895.6083095530048,None,return,1.3025955478660762,895.6917716907337,None,,,,,,,,,,,,,,,,,,,,,,,,,,,,,,,,,133,001,2023_Nov_13_1430,SpeechDraft1Carolyn_lessNoise_PlusLocalization,2021.2.3,59.999036487763604,
dumb.wav,dumb.mpg,dumb,1,A,Pink_Noise_1_1.wav,Pink_Noise_1_2.wav,,,,,,,,,,,,,,,0,106,106,14,,,,,,,,,,,,,,,,,,,,,,,897.0250687529333,None,898.5414407895878,None,899.9250106257387,None,"dull
",899.9250106257387,None,return,1.5859814500436187,900.0083784000017,None,,,,,,,,,,,,,,,,,,,,,,,,,,,,,,,,,133,001,2023_Nov_13_1430,SpeechDraft1Carolyn_lessNoise_PlusLocalization,2021.2.3,59.999036487763604,
flop.wav,flop.mpg,flop,5,A,Pink_Noise_5_1.wav,Pink_Noise_5_2.wav,,,,,,,,,,,,,,,0,107,107,45,,,,,,,,,,,,,,,,,,,,,,,901.6251146886498,None,903.1581255826168,None,904.5416840929538,None,plot,904.5416840929538,None,return,5.529166745953262,904.625243157614,None,,,,,,,,,,,,,,,,,,,,,,,,,,,,,,,,,133,001,2023_Nov_13_1430,SpeechDraft1Carolyn_lessNoise_PlusLocalization,2021.2.3,59.999036487763604,
coy.wav,coy.mpg,coy,4,AV,Pink_Noise_4_1.wav,Pink_Noise_4_2.wav,,,,,,,,,,,,,,,0,108,108,78,,,,,,,,,,,,,,,,,,,,,,,910.1751029170118,None,911.7248856346123,None,913.1082985065877,None,core,913.1082985065877,None,return,4.994587535969913,913.1917853979394,None,,,,,,,,,,,,,,,,,,,,,,,,,,,,,,,,,133,001,2023_Nov_13_1430,SpeechDraft1Carolyn_lessNoise_PlusLocalization,2021.2.3,59.999036487763604,
flask.wav,flask.mpg,flask,1,A,Pink_Noise_1_1.wav,Pink_Noise_1_2.wav,,,,,,,,,,,,,,,0,109,109,13,,,,,,,,,,,,,,,,,,,,,,,918.2084147809073,None,919.7580642248504,None,921.1417361940257,None,"flask
",921.1417361940257,None,return,4.7853035046719015,921.2250557946973,None,,,,,,,,,,,,,,,,,,,,,,,,,,,,,,,,,133,001,2023_Nov_13_1430,SpeechDraft1Carolyn_lessNoise_PlusLocalization,2021.2.3,59.999036487763604,
tense.wav,tense.mpg,tense,2,AV,Pink_Noise_2_1.wav,Pink_Noise_2_2.wav,,,,,,,,,,,,,,,0,110,110,94,,,,,,,,,,,,,,,,,,,,,,,926.0417400426231,None,927.5748377288692,None,928.9585378626361,None,tense,928.9585378626361,None,return,1.2085241270251572,929.0418278109282,None,,,,,,,,,,,,,,,,,,,,,,,,,,,,,,,,,133,001,2023_Nov_13_1430,SpeechDraft1Carolyn_lessNoise_PlusLocalization,2021.2.3,59.999036487763604,
cheek.wav,cheek.mpg,cheek,6,AV,Pink_Noise_6_1.wav,Pink_Noise_6_2.wav,,,,,,,,,,,,,,,0,111,111,97,,,,,,,,,,,,,,,,,,,,,,,930.2751376219094,None,931.8082153475843,None,933.1918602688238,None,cheat,933.1918602688238,None,return,3.5912607959471643,933.2751030419022,None,,,,,,,,,,,,,,,,,,,,,,,,,,,,,,,,,133,001,2023_Nov_13_1430,SpeechDraft1Carolyn_lessNoise_PlusLocalization,2021.2.3,59.999036487763604,
spire.wav,spire.mpg,spire,6,AV,Pink_Noise_6_1.wav,Pink_Noise_6_2.wav,,,,,,,,,,,,,,,0,112,112,81,,,,,,,,,,,,,,,,,,,,,,,936.8917659316212,None,938.4248845088296,None,939.7917814617977,None,smile,939.7917814617977,None,return,2.7271582880057395,939.8751917346381,None,,,,,,,,,,,,,,,,,,,,,,,,,,,,,,,,,133,001,2023_Nov_13_1430,SpeechDraft1Carolyn_lessNoise_PlusLocalization,2021.2.3,59.999036487763604,
mars.wav,mars.mpg,mars,3,AV,Pink_Noise_3_1.wav,Pink_Noise_3_2.wav,,,,,,,,,,,,,,,0,113,113,101,,,,,,,,,,,,,,,,,,,,,,,942.625150677748,None,944.1582313249819,None,945.5418936079368,None,"mars
",945.5418936079368,None,return,5.3691276223398745,945.6252436046489,None,,,,,,,,,,,,,,,,,,,,,,,,,,,,,,,,,133,001,2023_Nov_13_1430,SpeechDraft1Carolyn_lessNoise_PlusLocalization,2021.2.3,59.999036487763604,
bib.wav,bib.mpg,bib,4,A,Pink_Noise_4_1.wav,Pink_Noise_4_2.wav,,,,,,,,,,,,,,,0,114,114,42,,,,,,,,,,,,,,,,,,,,,,,951.0251757958904,None,952.5581850670278,None,953.9421318969689,None,big,953.9421318969689,None,return,1.9371758862398565,954.0251907627098,None,,,,,,,,,,,,,,,,,,,,,,,,,,,,,,,,,133,001,2023_Nov_13_1430,SpeechDraft1Carolyn_lessNoise_PlusLocalization,2021.2.3,59.999036487763604,
bet.wav,bet.mpg,bet,6,AV,Pink_Noise_6_1.wav,Pink_Noise_6_2.wav,,,,,,,,,,,,,,,0,115,115,90,,,,,,,,,,,,,,,,,,,,,,,955.991858324036,None,957.5248088417575,None,958.9084113650024,None,nut,958.9084113650024,None,return,9.578607174567878,958.9917595055886,None,,,,,,,,,,,,,,,,,,,,,,,,,,,,,,,,,133,001,2023_Nov_13_1430,SpeechDraft1Carolyn_lessNoise_PlusLocalization,2021.2.3,59.999036487763604,
bone.wav,bone.mpg,bone,4,A,Pink_Noise_4_1.wav,Pink_Noise_4_2.wav,,,,,,,,,,,,,,,0,116,116,49,,,,,,,,,,,,,,,,,,,,,,,968.5918580689467,None,970.124864040874,None,971.5095938290469,None,"road
",971.5095938290469,None,return,2.1860144091770053,971.5923484768718,None,,,,,,,,,,,,,,,,,,,,,,,,,,,,,,,,,133,001,2023_Nov_13_1430,SpeechDraft1Carolyn_lessNoise_PlusLocalization,2021.2.3,59.999036487763604,
tomb.wav,tomb.mpg,tomb,1,AV,Pink_Noise_1_1.wav,Pink_Noise_1_2.wav,,,,,,,,,,,,,,,0,117,117,66,,,,,,,,,,,,,,,,,,,,,,,973.8085184800439,None,975.3249095226638,None,976.7085047666915,None,two,976.7085047666915,None,return,2.3784114457666874,976.7919563036412,None,,,,,,,,,,,,,,,,,,,,,,,,,,,,,,,,,133,001,2023_Nov_13_1430,SpeechDraft1Carolyn_lessNoise_PlusLocalization,2021.2.3,59.999036487763604,
glide.wav,glide.mpg,glide,4,AV,Pink_Noise_4_1.wav,Pink_Noise_4_2.wav,,,,,,,,,,,,,,,0,118,118,77,,,,,,,,,,,,,,,,,,,,,,,979.191816475708,None,980.7248949366622,None,982.1084571229294,None,glide,982.1084571229294,None,return,3.4264932610094547,982.1918558008038,None,,,,,,,,,,,,,,,,,,,,,,,,,,,,,,,,,133,001,2023_Nov_13_1430,SpeechDraft1Carolyn_lessNoise_PlusLocalization,2021.2.3,59.999036487763604,
cash.wav,cash.mpg,cash,4,A,Pink_Noise_4_1.wav,Pink_Noise_4_2.wav,,,,,,,,,,,,,,,0,119,119,7,,,,,,,,,,,,,,,,,,,,,,,985.6418070527725,None,987.1583435926586,None,988.5419135759585,None,posh,988.5419135759585,None,return,3.11330487113446,988.6251861508936,None,,,,,,,,,,,,,,,,,,,,,,,,,,,,,,,,,133,001,2023_Nov_13_1430,SpeechDraft1Carolyn_lessNoise_PlusLocalization,2021.2.3,59.999036487763604,
,,,,,,,,,,,,,,,,,,,,,,,,,,,,,,,,,,,,,,,,,,,,,,,,,,,,,,,,,,,,,,,,,,space,24.73657197225839,991.8418773636222,None,,,,,,,,,,,,,,,,,,,,,,,133,001,2023_Nov_13_1430,SpeechDraft1Carolyn_lessNoise_PlusLocalization,2021.2.3,59.999036487763604,
,,,,,,,,farLeft,-19.1,5,ch1Sound_localizationTask.wav,-19.1,"(667, 878)","(-293,-202)",-285,-338,,,,,,,,,0,0,0,0,,,,,,,,,,,,,,,,,,,,,,,,,,,,,,,,,,,,,,,,,,991.8418773636222,None,1016.6249587535858,None,1017.7263977876864,None,1018.6583099039271,None,1.3206349206349206,4.369835222139955,1018.6583099039271,None,,,,,,,,,,,133,001,2023_Nov_13_1430,SpeechDraft1Carolyn_lessNoise_PlusLocalization,2021.2.3,59.999036487763604,
,,,,,,,,nearRight,6.5,0,ch1Sound_localizationTask.wav,6.5,"(1047, 878)","(87, -202)",95,-338,,,,,,,,,0,1,1,4,,,,,,,,,,,,,,,,,,,,,,,,,,,,,,,,,,,,,,,,,,,,1023.0257620858029,None,1024.1251557739452,None,1025.058259604033,None,1.5201058201058202,1.7661271477118134,1025.058259604033,None,,,,,,,,,,,133,001,2023_Nov_13_1430,SpeechDraft1Carolyn_lessNoise_PlusLocalization,2021.2.3,59.999036487763604,
,,,,,,,,farLeft,-19.1,5,ch1Sound_localizationTask.wav,-19.1,"(667, 878)","(-293,-202)",-285,-338,,,,,,,,,0,2,2,0,,,,,,,,,,,,,,,,,,,,,,,,,,,,,,,,,,,,,,,,,,,,1026.8252772870474,None,1027.9249412389472,None,1028.8582362700254,None,1.3555555555555556,0.9833583640865982,1028.8582362700254,None,,,,,,,,,,,133,001,2023_Nov_13_1430,SpeechDraft1Carolyn_lessNoise_PlusLocalization,2021.2.3,59.999036487763604,
,,,,,,,,farLeft,-19.1,5,ch1Sound_localizationTask.wav,-19.1,"(667, 878)","(-293,-202)",-285,-338,,,,,,,,,0,3,3,0,,,,,,,,,,,,,,,,,,,,,,,,,,,,,,,,,,,,,,,,,,,,1029.841905970592,None,1030.9417056557722,None,1031.8749881209806,None,1.2682539682539682,0.9831675910390913,1031.8749881209806,None,,,,,,,,,,,133,001,2023_Nov_13_1430,SpeechDraft1Carolyn_lessNoise_PlusLocalization,2021.2.3,59.999036487763604,
,,,,,,,,midRight,13.0,3,ch1Sound_localizationTask.wav,13.0,"(1142, 878)","(182, -202)",190,-338,,,,,,,,,0,4,4,5,,,,,,,,,,,,,,,,,,,,,,,,,,,,,,,,,,,,,,,,,,,,1032.8586228406057,None,1033.9582751910202,None,1034.89178566169,None,1.5687830687830688,1.4505458110943437,1034.89178566169,None,,,,,,,,,,,133,001,2023_Nov_13_1430,SpeechDraft1Carolyn_lessNoise_PlusLocalization,2021.2.3,59.999036487763604,
,,,,,,,,midLeft,-13.0,2,ch1Sound_localizationTask.wav,-13.0,"(762, 878)","(-198,-202)",-190,-338,,,,,,,,,0,5,5,1,,,,,,,,,,,,,,,,,,,,,,,,,,,,,,,,,,,,,,,,,,,,1036.3582520168275,None,1037.458325709682,None,1038.3748225187883,None,1.2671957671957672,0.9661745210178196,1038.3748225187883,None,,,,,,,,,,,133,001,2023_Nov_13_1430,SpeechDraft1Carolyn_lessNoise_PlusLocalization,2021.2.3,59.999036487763604,
,,,,,,,,center,0.0,6,ch1Sound_localizationTask.wav,0.0,"(952, 878)","(-8,-202)",0,-338,,,,,,,,,0,6,6,3,,,,,,,,,,,,,,,,,,,,,,,,,,,,,,,,,,,,,,,,,,,,1039.3425283269025,None,1040.4416249860078,None,1041.3748846608214,None,1.4962962962962962,1.20017860410735,1041.3748846608214,None,,,,,,,,,,,133,001,2023_Nov_13_1430,SpeechDraft1Carolyn_lessNoise_PlusLocalization,2021.2.3,59.999036487763604,
,,,,,,,,nearRight,6.5,0,ch1Sound_localizationTask.wav,6.5,"(1047, 878)","(87, -202)",95,-338,,,,,,,,,1,0,7,4,,,,,,,,,,,,,,,,,,,,,,,,,,,,,,,,,,,,,,,,,,,,1042.5753248538822,None,1043.6749918255955,None,1044.608299410902,None,1.4994708994708994,0.9489932600408792,1044.608299410902,None,,,,,,,,,,,133,001,2023_Nov_13_1430,SpeechDraft1Carolyn_lessNoise_PlusLocalization,2021.2.3,59.999036487763604,
,,,,,,,,farRight,19.1,4,ch1Sound_localizationTask.wav,19.1,"(1237, 878)","(277,-202)",285,-338,,,,,,,,,1,1,8,6,,,,,,,,,,,,,,,,,,,,,,,,,,,,,,,,,,,,,,,,,,,,1045.5586385638453,None,1046.658306344878,None,1047.5917890695855,None,1.574074074074074,0.6667673299089074,1047.5917890695855,None,,,,,,,,,,,133,001,2023_Nov_13_1430,SpeechDraft1Carolyn_lessNoise_PlusLocalization,2021.2.3,59.999036487763604,
,,,,,,,,nearLeft,-6.5,1,ch1Sound_localizationTask.wav,-6.5,"(857, 878)","(-103,-202)",-95,-338,,,,,,,,,1,2,9,2,,,,,,,,,,,,,,,,,,,,,,,,,,,,,,,,,,,,,,,,,,,,1048.2586342426948,None,1049.3583543179557,None,1050.2917136717588,None,1.3904761904761904,0.6823219750076532,1050.2917136717588,None,,,,,,,,,,,133,001,2023_Nov_13_1430,SpeechDraft1Carolyn_lessNoise_PlusLocalization,2021.2.3,59.999036487763604,
,,,,,,,,center,0.0,6,ch1Sound_localizationTask.wav,0.0,"(952, 878)","(-8,-202)",0,-338,,,,,,,,,1,3,10,3,,,,,,,,,,,,,,,,,,,,,,,,,,,,,,,,,,,,,,,,,,,,1050.9752892227843,None,1052.0751218069345,None,1053.0082642207853,None,1.4412698412698413,0.8320265216752887,1053.0082642207853,None,,,,,,,,,,,133,001,2023_Nov_13_1430,SpeechDraft1Carolyn_lessNoise_PlusLocalization,2021.2.3,59.999036487763604,
,,,,,,,,nearRight,6.5,0,ch1Sound_localizationTask.wav,6.5,"(1047, 878)","(87, -202)",95,-338,,,,,,,,,1,4,11,4,,,,,,,,,,,,,,,,,,,,,,,,,,,,,,,,,,,,,,,,,,,,1053.8419213169254,None,1054.9416557238437,None,1055.8750544018112,None,1.4957671957671956,0.866116345860064,1055.8750544018112,None,,,,,,,,,,,133,001,2023_Nov_13_1430,SpeechDraft1Carolyn_lessNoise_PlusLocalization,2021.2.3,59.999036487763604,
,,,,,,,,midRight,13.0,3,ch1Sound_localizationTask.wav,13.0,"(1142, 878)","(182, -202)",190,-338,,,,,,,,,1,5,12,5,,,,,,,,,,,,,,,,,,,,,,,,,,,,,,,,,,,,,,,,,,,,1056.7419297629967,None,1057.841699515935,None,1058.7750556278042,None,1.560846560846561,0.8336822842247784,1058.7750556278042,None,,,,,,,,,,,133,001,2023_Nov_13_1430,SpeechDraft1Carolyn_lessNoise_PlusLocalization,2021.2.3,59.999036487763604,
,,,,,,,,farRight,19.1,4,ch1Sound_localizationTask.wav,19.1,"(1237, 878)","(277,-202)",285,-338,,,,,,,,,1,6,13,6,,,,,,,,,,,,,,,,,,,,,,,,,,,,,,,,,,,,,,,,,,,,1059.6251777349971,None,1060.724994649645,None,1061.658360691741,None,1.6497354497354497,0.8830676847137511,1061.658360691741,None,,,,,,,,,,,133,001,2023_Nov_13_1430,SpeechDraft1Carolyn_lessNoise_PlusLocalization,2021.2.3,59.999036487763604,
,,,,,,,,farLeft,-19.1,5,ch1Sound_localizationTask.wav,-19.1,"(667, 878)","(-293,-202)",-285,-338,,,,,,,,,2,0,14,0,,,,,,,,,,,,,,,,,,,,,,,,,,,,,,,,,,,,,,,,,,,,1062.5420135017484,None,1063.641714354977,None,1064.5751125616953,None,1.3375661375661376,0.6816811389289796,1064.5751125616953,None,,,,,,,,,,,133,001,2023_Nov_13_1430,SpeechDraft1Carolyn_lessNoise_PlusLocalization,2021.2.3,59.999036487763604,
,,,,,,,,midRight,13.0,3,ch1Sound_localizationTask.wav,13.0,"(1142, 878)","(182, -202)",190,-338,,,,,,,,,2,1,15,5,,,,,,,,,,,,,,,,,,,,,,,,,,,,,,,,,,,,,,,,,,,,1065.2586023840122,None,1066.358404721599,None,1067.291792445816,None,1.5544973544973546,1.0163904540240765,1067.291792445816,None,,,,,,,,,,,133,001,2023_Nov_13_1430,SpeechDraft1Carolyn_lessNoise_PlusLocalization,2021.2.3,59.999036487763604,
,,,,,,,,center,0.0,6,ch1Sound_localizationTask.wav,0.0,"(952, 878)","(-8,-202)",0,-338,,,,,,,,,2,2,16,3,,,,,,,,,,,,,,,,,,,,,,,,,,,,,,,,,,,,,,,,,,,,1068.3086550347507,None,1069.4084338815883,None,1070.3418386299163,None,1.4894179894179893,1.1161734722554684,1070.3418386299163,None,,,,,,,,,,,133,001,2023_Nov_13_1430,SpeechDraft1Carolyn_lessNoise_PlusLocalization,2021.2.3,59.999036487763604,
,,,,,,,,farRight,19.1,4,ch1Sound_localizationTask.wav,19.1,"(1237, 878)","(277,-202)",285,-338,,,,,,,,,2,3,17,6,,,,,,,,,,,,,,,,,,,,,,,,,,,,,,,,,,,,,,,,,,,,1071.4586929487996,None,1072.5584608577192,None,1073.4917174968868,None,1.6264550264550266,1.0330297499895096,1073.4917174968868,None,,,,,,,,,,,133,001,2023_Nov_13_1430,SpeechDraft1Carolyn_lessNoise_PlusLocalization,2021.2.3,59.999036487763604,
,,,,,,,,center,0.0,6,ch1Sound_localizationTask.wav,0.0,"(952, 878)","(-8,-202)",0,-338,,,,,,,,,2,4,18,3,,,,,,,,,,,,,,,,,,,,,,,,,,,,,,,,,,,,,,,,,,,,1074.525291999802,None,1075.6249737599865,None,1076.5584455346689,None,1.491005291005291,0.9997897068969905,1076.5584455346689,None,,,,,,,,,,,133,001,2023_Nov_13_1430,SpeechDraft1Carolyn_lessNoise_PlusLocalization,2021.2.3,59.999036487763604,
,,,,,,,,farLeft,-19.1,5,ch1Sound_localizationTask.wav,-19.1,"(667, 878)","(-293,-202)",-285,-338,,,,,,,,,2,5,19,0,,,,,,,,,,,,,,,,,,,,,,,,,,,,,,,,,,,,,,,,,,,,1077.5587875796482,None,1078.6582895098254,None,1079.5916571808048,None,1.331216931216931,1.0153653211891651,1079.5916571808048,None,,,,,,,,,,,133,001,2023_Nov_13_1430,SpeechDraft1Carolyn_lessNoise_PlusLocalization,2021.2.3,59.999036487763604,
,,,,,,,,farRight,19.1,4,ch1Sound_localizationTask.wav,19.1,"(1237, 878)","(277,-202)",285,-338,,,,,,,,,2,6,20,6,,,,,,,,,,,,,,,,,,,,,,,,,,,,,,,,,,,,,,,,,,,,1080.6087852758355,None,1081.7084173909388,None,1082.6416926258244,None,1.6,0.9828313370235264,1082.6416926258244,None,,,,,,,,,,,133,001,2023_Nov_13_1430,SpeechDraft1Carolyn_lessNoise_PlusLocalization,2021.2.3,59.999036487763604,
,,,,,,,,center,0.0,6,ch1Sound_localizationTask.wav,0.0,"(952, 878)","(-8,-202)",0,-338,,,,,,,,,3,0,21,3,,,,,,,,,,,,,,,,,,,,,,,,,,,,,,,,,,,,,,,,,,,,1083.6253480827436,None,1084.725123800803,None,1085.658261751756,None,1.4862433862433861,1.0494202272966504,1085.658261751756,None,,,,,,,,,,,133,001,2023_Nov_13_1430,SpeechDraft1Carolyn_lessNoise_PlusLocalization,2021.2.3,59.999036487763604,
,,,,,,,,midLeft,-13.0,2,ch1Sound_localizationTask.wav,-13.0,"(762, 878)","(-198,-202)",-190,-338,,,,,,,,,3,1,22,1,,,,,,,,,,,,,,,,,,,,,,,,,,,,,,,,,,,,,,,,,,,,1086.708946893923,None,1087.8083916846663,None,1088.7419170867652,None,1.3634920634920635,0.8156354753300548,1088.7419170867652,None,,,,,,,,,,,133,001,2023_Nov_13_1430,SpeechDraft1Carolyn_lessNoise_PlusLocalization,2021.2.3,59.999036487763604,
,,,,,,,,nearLeft,-6.5,1,ch1Sound_localizationTask.wav,-6.5,"(857, 878)","(-103,-202)",-95,-338,,,,,,,,,3,2,23,2,,,,,,,,,,,,,,,,,,,,,,,,,,,,,,,,,,,,,,,,,,,,1089.558670933824,None,1090.6583855557255,None,1091.5920739499852,None,1.4576719576719577,0.7784195891581476,1091.5920739499852,None,,,,,,,,,,,133,001,2023_Nov_13_1430,SpeechDraft1Carolyn_lessNoise_PlusLocalization,2021.2.3,59.999036487763604,
,,,,,,,,nearRight,6.5,0,ch1Sound_localizationTask.wav,6.5,"(1047, 878)","(87, -202)",95,-338,,,,,,,,,3,3,24,4,,,,,,,,,,,,,,,,,,,,,,,,,,,,,,,,,,,,,,,,,,,,1092.3753529936075,None,1093.4750383729115,None,1094.4083450627513,None,1.4973544973544972,0.7821903759613633,1094.4083450627513,None,,,,,,,,,,,133,001,2023_Nov_13_1430,SpeechDraft1Carolyn_lessNoise_PlusLocalization,2021.2.3,59.999036487763604,
,,,,,,,,farLeft,-19.1,5,ch1Sound_localizationTask.wav,-19.1,"(667, 878)","(-293,-202)",-285,-338,,,,,,,,,3,4,25,0,,,,,,,,,,,,,,,,,,,,,,,,,,,,,,,,,,,,,,,,,,,,1095.1920338287018,None,1096.2917500687763,None,1097.2249995525926,None,1.3915343915343916,0.6161202820949256,1097.2249995525926,None,,,,,,,,,,,133,001,2023_Nov_13_1430,SpeechDraft1Carolyn_lessNoise_PlusLocalization,2021.2.3,59.999036487763604,
,,,,,,,,nearLeft,-6.5,1,ch1Sound_localizationTask.wav,-6.5,"(857, 878)","(-103,-202)",-95,-338,,,,,,,,,3,5,26,2,,,,,,,,,,,,,,,,,,,,,,,,,,,,,,,,,,,,,,,,,,,,1097.842007133644,None,1098.9417609716766,None,1099.8753079529852,None,1.4375661375661375,0.816656784620136,1099.8753079529852,None,,,,,,,,,,,133,001,2023_Nov_13_1430,SpeechDraft1Carolyn_lessNoise_PlusLocalization,2021.2.3,59.999036487763604,
,,,,,,,,midLeft,-13.0,2,ch1Sound_localizationTask.wav,-13.0,"(762, 878)","(-198,-202)",-190,-338,,,,,,,,,3,6,27,1,,,,,,,,,,,,,,,,,,,,,,,,,,,,,,,,,,,,,,,,,,,,1100.691953934729,None,1101.7916191946715,None,1102.7251199437305,None,1.3862433862433863,0.649322772398591,1102.7251199437305,None,,,,,,,,,,,133,001,2023_Nov_13_1430,SpeechDraft1Carolyn_lessNoise_PlusLocalization,2021.2.3,59.999036487763604,
,,,,,,,,nearRight,6.5,0,ch1Sound_localizationTask.wav,6.5,"(1047, 878)","(87, -202)",95,-338,,,,,,,,,4,0,28,4,,,,,,,,,,,,,,,,,,,,,,,,,,,,,,,,,,,,,,,,,,,,1103.3762186379172,None,1104.4751217546873,None,1105.4083979870193,None,1.511111111111111,0.9984926939941943,1105.4083979870193,None,,,,,,,,,,,133,001,2023_Nov_13_1430,SpeechDraft1Carolyn_lessNoise_PlusLocalization,2021.2.3,59.999036487763604,
,,,,,,,,midLeft,-13.0,2,ch1Sound_localizationTask.wav,-13.0,"(762, 878)","(-198,-202)",-190,-338,,,,,,,,,4,1,29,1,,,,,,,,,,,,,,,,,,,,,,,,,,,,,,,,,,,,,,,,,,,,1106.4087959509343,None,1107.5084285498597,None,1108.4419095828198,None,1.4238095238095239,0.6493875030428171,1108.4419095828198,None,,,,,,,,,,,133,001,2023_Nov_13_1430,SpeechDraft1Carolyn_lessNoise_PlusLocalization,2021.2.3,59.999036487763604,
,,,,,,,,nearLeft,-6.5,1,ch1Sound_localizationTask.wav,-6.5,"(857, 878)","(-103,-202)",-95,-338,,,,,,,,,4,2,30,2,,,,,,,,,,,,,,,,,,,,,,,,,,,,,,,,,,,,,,,,,,,,1109.0920746140182,None,1110.1918161208741,None,1111.1250903429464,None,1.4582010582010583,0.681878968141973,1111.1250903429464,None,,,,,,,,,,,133,001,2023_Nov_13_1430,SpeechDraft1Carolyn_lessNoise_PlusLocalization,2021.2.3,59.999036487763604,
,,,,,,,,midLeft,-13.0,2,ch1Sound_localizationTask.wav,-13.0,"(762, 878)","(-198,-202)",-190,-338,,,,,,,,,4,3,31,1,,,,,,,,,,,,,,,,,,,,,,,,,,,,,,,,,,,,,,,,,,,,1111.8087534056976,None,1112.9085704027675,None,1113.8417882230133,None,1.378835978835979,0.649121702183038,1113.8417882230133,None,,,,,,,,,,,133,001,2023_Nov_13_1430,SpeechDraft1Carolyn_lessNoise_PlusLocalization,2021.2.3,59.999036487763604,
,,,,,,,,midRight,13.0,3,ch1Sound_localizationTask.wav,13.0,"(1142, 878)","(182, -202)",190,-338,,,,,,,,,4,4,32,5,,,,,,,,,,,,,,,,,,,,,,,,,,,,,,,,,,,,,,,,,,,,1114.4920476889238,None,1115.591856146697,None,1116.525043877773,None,1.5455026455026455,0.6822096752002835,1116.525043877773,None,,,,,,,,,,,133,001,2023_Nov_13_1430,SpeechDraft1Carolyn_lessNoise_PlusLocalization,2021.2.3,59.999036487763604,
,,,,,,,,nearLeft,-6.5,1,ch1Sound_localizationTask.wav,-6.5,"(857, 878)","(-103,-202)",-95,-338,,,,,,,,,4,5,33,2,,,,,,,,,,,,,,,,,,,,,,,,,,,,,,,,,,,,,,,,,,,,1117.2086973870173,None,1118.308416208718,None,1119.2418441036716,None,1.4333333333333333,0.6150314840488136,1119.2418441036716,None,,,,,,,,,,,133,001,2023_Nov_13_1430,SpeechDraft1Carolyn_lessNoise_PlusLocalization,2021.2.3,59.999036487763604,
,,,,,,,,midRight,13.0,3,ch1Sound_localizationTask.wav,13.0,"(1142, 878)","(182, -202)",190,-338,,,,,,,,,4,6,34,5,,,,,,,,,,,,,,,,,,,,,,,,,,,,,,,,,,,,,,,,,,,,1119.8587198639289,None,1120.9584006308578,None,1121.8918423010036,None,1.5603174603174603,0.5495509901084006,1121.8918423010036,None,,,,,,,,,,,133,001,2023_Nov_13_1430,SpeechDraft1Carolyn_lessNoise_PlusLocalization,2021.2.3,59.999036487763604,
,,,,,,,,center,0.0,6,ch1Sound_localizationTask.wav,0.0,"(952, 878)","(-8,-202)",0,-338,,,,,,,,,5,0,35,3,,,,,,,,,,,,,,,,,,,,,,,,,,,,,,,,,,,,,,,,,,,,1122.4423243580386,None,1123.5418094638735,None,1124.4752519368194,None,1.5042328042328044,0.8328036037273705,1124.4752519368194,None,,,,,,,,,,,133,001,2023_Nov_13_1430,SpeechDraft1Carolyn_lessNoise_PlusLocalization,2021.2.3,59.999036487763604,
,,,,,,,,midRight,13.0,3,ch1Sound_localizationTask.wav,13.0,"(1142, 878)","(182, -202)",190,-338,,,,,,,,,5,1,36,5,,,,,,,,,,,,,,,,,,,,,,,,,,,,,,,,,,,,,,,,,,,,1125.3087176056579,None,1126.4084916189313,None,1127.3418036126532,None,1.560846560846561,0.7990334611386061,1127.3418036126532,None,,,,,,,,,,,133,001,2023_Nov_13_1430,SpeechDraft1Carolyn_lessNoise_PlusLocalization,2021.2.3,59.999036487763604,
,,,,,,,,midRight,13.0,3,ch1Sound_localizationTask.wav,13.0,"(1142, 878)","(182, -202)",190,-338,,,,,,,,,5,2,37,5,,,,,,,,,,,,,,,,,,,,,,,,,,,,,,,,,,,,,,,,,,,,1128.1419685198925,None,1129.2416463806294,None,1130.1752028018236,None,1.5820105820105819,0.766812345944345,1130.1752028018236,None,,,,,,,,,,,133,001,2023_Nov_13_1430,SpeechDraft1Carolyn_lessNoise_PlusLocalization,2021.2.3,59.999036487763604,
,,,,,,,,farRight,19.1,4,ch1Sound_localizationTask.wav,19.1,"(1237, 878)","(277,-202)",285,-338,,,,,,,,,5,3,38,6,,,,,,,,,,,,,,,,,,,,,,,,,,,,,,,,,,,,,,,,,,,,1130.9430219866335,None,1132.0417421436869,None,1132.9751175600104,None,1.6253968253968254,0.8663495872169733,1132.9751175600104,None,,,,,,,,,,,133,001,2023_Nov_13_1430,SpeechDraft1Carolyn_lessNoise_PlusLocalization,2021.2.3,59.999036487763604,
,,,,,,,,nearRight,6.5,0,ch1Sound_localizationTask.wav,6.5,"(1047, 878)","(87, -202)",95,-338,,,,,,,,,5,4,39,4,,,,,,,,,,,,,,,,,,,,,,,,,,,,,,,,,,,,,,,,,,,,1133.8420440410264,None,1134.9417047798634,None,1135.8751487759873,None,1.4994708994708994,0.7669924451038241,1135.8751487759873,None,,,,,,,,,,,133,001,2023_Nov_13_1430,SpeechDraft1Carolyn_lessNoise_PlusLocalization,2021.2.3,59.999036487763604,
,,,,,,,,midLeft,-13.0,2,ch1Sound_localizationTask.wav,-13.0,"(762, 878)","(-198,-202)",-190,-338,,,,,,,,,5,5,40,1,,,,,,,,,,,,,,,,,,,,,,,,,,,,,,,,,,,,,,,,,,,,1136.6425069239922,None,1137.741973420605,None,1138.6751143597066,None,1.384126984126984,0.6163925179280341,1138.6751143597066,None,,,,,,,,,,,133,001,2023_Nov_13_1430,SpeechDraft1Carolyn_lessNoise_PlusLocalization,2021.2.3,59.999036487763604,
,,,,,,,,nearRight,6.5,0,ch1Sound_localizationTask.wav,6.5,"(1047, 878)","(87, -202)",95,-338,,,,,,,,,5,6,41,4,,,,,,,,,,,,,,,,,,,,,,,,,,,,,,,,,,,,,,,,,,,,1139.2919919779524,None,1140.3917883187532,None,1141.3252834640443,None,1.506878306878307,0.7324819252826273,1141.3252834640443,None,,,,,,,,,,,133,001,2023_Nov_13_1430,SpeechDraft1Carolyn_lessNoise_PlusLocalization,2021.2.3,59.999036487763604,
,,,,,,,,midLeft,-13.0,2,ch1Sound_localizationTask.wav,-13.0,"(762, 878)","(-198,-202)",-190,-338,,,,,,,,,6,0,42,1,,,,,,,,,,,,,,,,,,,,,,,,,,,,,,,,,,,,,,,,,,,,1142.0588336358778,None,1143.158383066766,None,1144.0920531237498,None,1.3830687830687831,0.5655803391709924,1144.0920531237498,None,,,,,,,,,,,133,001,2023_Nov_13_1430,SpeechDraft1Carolyn_lessNoise_PlusLocalization,2021.2.3,59.999036487763604,
,,,,,,,,center,0.0,6,ch1Sound_localizationTask.wav,0.0,"(952, 878)","(-8,-202)",0,-338,,,,,,,,,6,1,43,3,,,,,,,,,,,,,,,,,,,,,,,,,,,,,,,,,,,,,,,,,,,,1144.6589006446302,None,1145.758427332621,None,1146.691870502662,None,1.4158730158730157,0.5658785169944167,1146.691870502662,None,,,,,,,,,,,133,001,2023_Nov_13_1430,SpeechDraft1Carolyn_lessNoise_PlusLocalization,2021.2.3,59.999036487763604,
,,,,,,,,nearLeft,-6.5,1,ch1Sound_localizationTask.wav,-6.5,"(857, 878)","(-103,-202)",-95,-338,,,,,,,,,6,2,44,2,,,,,,,,,,,,,,,,,,,,,,,,,,,,,,,,,,,,,,,,,,,,1147.2588290008716,None,1148.3585338979028,None,1149.2917385199107,None,1.4164021164021166,0.7498720888979733,1149.2917385199107,None,,,,,,,,,,,133,001,2023_Nov_13_1430,SpeechDraft1Carolyn_lessNoise_PlusLocalization,2021.2.3,59.999036487763604,
,,,,,,,,midRight,13.0,3,ch1Sound_localizationTask.wav,13.0,"(1142, 878)","(182, -202)",190,-338,,,,,,,,,6,3,45,5,,,,,,,,,,,,,,,,,,,,,,,,,,,,,,,,,,,,,,,,,,,,1150.0421338938177,None,1151.1420017909259,None,1152.0751449926756,None,1.544973544973545,0.7993903239257634,1152.0751449926756,None,,,,,,,,,,,133,001,2023_Nov_13_1430,SpeechDraft1Carolyn_lessNoise_PlusLocalization,2021.2.3,59.999036487763604,
,,,,,,,,farLeft,-19.1,5,ch1Sound_localizationTask.wav,-19.1,"(667, 878)","(-293,-202)",-285,-338,,,,,,,,,6,4,46,0,,,,,,,,,,,,,,,,,,,,,,,,,,,,,,,,,,,,,,,,,,,,1152.8754496867768,None,1153.9751884667203,None,1154.9085238608532,None,1.3492063492063493,0.7499968959018588,1154.9085238608532,None,,,,,,,,,,,133,001,2023_Nov_13_1430,SpeechDraft1Carolyn_lessNoise_PlusLocalization,2021.2.3,59.999036487763604,
,,,,,,,,farLeft,-19.1,5,ch1Sound_localizationTask.wav,-19.1,"(667, 878)","(-293,-202)",-285,-338,,,,,,,,,6,5,47,0,,,,,,,,,,,,,,,,,,,,,,,,,,,,,,,,,,,,,,,,,,,,1155.6755934436806,None,1156.7751519028097,None,1157.708440371789,None,1.3222222222222222,0.5659533790312707,1157.708440371789,None,,,,,,,,,,,133,001,2023_Nov_13_1430,SpeechDraft1Carolyn_lessNoise_PlusLocalization,2021.2.3,59.999036487763604,
,,,,,,,,farRight,19.1,4,ch1Sound_localizationTask.wav,19.1,"(1237, 878)","(277,-202)",285,-338,,,,,,,,,6,6,48,6,,,,,,,,,,,,,,,,,,,,,,,,,,,,,,,,,,,,,,,,,,,,1158.2756199557334,None,1159.3751450679265,None,1160.308454951737,None,1.6206349206349207,0.9668688983656466,1160.308454951737,None,,,,,,,,,,,133,001,2023_Nov_13_1430,SpeechDraft1Carolyn_lessNoise_PlusLocalization,2021.2.3,59.999036487763604,
,,,,,,,,midLeft,-13.0,2,ch1Sound_localizationTask.wav,-13.0,"(762, 878)","(-198,-202)",-190,-338,,,,,,,,,7,0,49,1,,,,,,,,,,,,,,,,,,,,,,,,,,,,,,,,,,,,,,,,,,,,1161.2759976526722,None,1162.3751796688884,None,1163.3085390436463,None,1.3719576719576718,0.9663916961289942,1163.3085390436463,None,,,,,,,,,,,133,001,2023_Nov_13_1430,SpeechDraft1Carolyn_lessNoise_PlusLocalization,2021.2.3,59.999036487763604,
,,,,,,,,nearRight,6.5,0,ch1Sound_localizationTask.wav,6.5,"(1047, 878)","(87, -202)",95,-338,,,,,,,,,7,1,50,4,,,,,,,,,,,,,,,,,,,,,,,,,,,,,,,,,,,,,,,,,,,,1164.2754804366268,None,1165.3751876098104,None,1166.30845516501,None,1.4962962962962962,0.6832949831150472,1166.30845516501,None,,,,,,,,,,,133,001,2023_Nov_13_1430,SpeechDraft1Carolyn_lessNoise_PlusLocalization,2021.2.3,59.999036487763604,
,,,,,,,,nearLeft,-6.5,1,ch1Sound_localizationTask.wav,-6.5,"(857, 878)","(-103,-202)",-95,-338,,,,,,,,,7,2,51,2,,,,,,,,,,,,,,,,,,,,,,,,,,,,,,,,,,,,,,,,,,,,1166.9921646518633,None,1168.0918000629172,None,1169.025130444672,None,1.4492063492063492,0.43376308400183916,1169.025130444672,None,,,,,,,,,,,133,001,2023_Nov_13_1430,SpeechDraft1Carolyn_lessNoise_PlusLocalization,2021.2.3,59.999036487763604,
,,,,,,,,nearLeft,-6.5,1,ch1Sound_localizationTask.wav,-6.5,"(857, 878)","(-103,-202)",-95,-338,,,,,,,,,7,3,52,2,,,,,,,,,,,,,,,,,,,,,,,,,,,,,,,,,,,,,,,,,,,,1169.4591629067436,None,1170.5583718917333,None,1171.491893822793,None,1.446031746031746,0.8833384863100946,1171.491893822793,None,,,,,,,,,,,133,001,2023_Nov_13_1430,SpeechDraft1Carolyn_lessNoise_PlusLocalization,2021.2.3,59.999036487763604,
,,,,,,,,farRight,19.1,4,ch1Sound_localizationTask.wav,19.1,"(1237, 878)","(277,-202)",285,-338,,,,,,,,,7,4,53,6,,,,,,,,,,,,,,,,,,,,,,,,,,,,,,,,,,,,,,,,,,,,1172.3756783367135,None,1173.4751727646217,None,1174.408446284011,None,1.6058201058201058,0.7485117223113775,1174.408446284011,None,,,,,,,,,,,133,001,2023_Nov_13_1430,SpeechDraft1Carolyn_lessNoise_PlusLocalization,2021.2.3,59.999036487763604,
,,,,,,,,center,0.0,6,ch1Sound_localizationTask.wav,0.0,"(952, 878)","(-8,-202)",0,-338,,,,,,,,,7,5,54,3,,,,,,,,,,,,,,,,,,,,,,,,,,,,,,,,,,,,,,,,,,,,1175.1587241836824,None,1176.2586014526896,None,1177.191820052918,None,1.48994708994709,0.6332378070801497,1177.191820052918,None,,,,,,,,,,,133,001,2023_Nov_13_1430,SpeechDraft1Carolyn_lessNoise_PlusLocalization,2021.2.3,59.999036487763604,
,,,,,,,,farRight,19.1,4,ch1Sound_localizationTask.wav,19.1,"(1237, 878)","(277,-202)",285,-338,,,,,,,,,7,6,55,6,,,,,,,,,,,,,,,,,,,,,,,,,,,,,,,,,,,,,,,,,,,,1177.8254601736553,None,1178.92516709771,None,1179.858480566647,None,1.580952380952381,0.8496335865929723,1179.858480566647,None,,,,,,,,,,,133,001,2023_Nov_13_1430,SpeechDraft1Carolyn_lessNoise_PlusLocalization,2021.2.3,59.999036487763604,
,,,,,,,,,,,,,,,,,,,,,,,,,,,,,,,,,,,,,,,,,,,,,,,,,,,,,,,,,,,,,,,,,,,,,,,,,,,,,,,,,,space,31.178244004026055,1180.7921306397766,None,,,,,,,133,001,2023_Nov_13_1430,SpeechDraft1Carolyn_lessNoise_PlusLocalization,2021.2.3,59.999036487763604,
,,,,,,,,nearRight,6.5,0,ch1Sound_localizationTask.wav,6.5,"(1047, 878)","(87, -202)",95,-338,,,,,,,,,,,,,0,0,0,4,,,,,,,,,,,,,,,,,,,,,,,,,,,,,,,,,,,,,,,,1212.0086064008065,None,,,1215.0421020388603,None,1.5513227513227514,0.8044205983169377,1215.0421020388603,None,,,,,1180.7921306397766,None,1213.008889110759,None,1213.192260720767,1213.2088001118973,133,001,2023_Nov_13_1430,SpeechDraft1Carolyn_lessNoise_PlusLocalization,2021.2.3,59.999036487763604,
,,,,,,,,farLeft,-19.1,5,ch1Sound_localizationTask.wav,-19.1,"(667, 878)","(-293,-202)",-285,-338,,,,,,,,,,,,,0,1,1,0,,,,,,,,,,,,,,,,,,,,,,,,,,,,,,,,,,,,,,,,1215.8432573890314,None,,,1218.8752892618068,None,1.342857142857143,1.2162135648541152,1218.8752892618068,None,,,,,,,1216.858828410972,None,1217.0421965946443,1217.058850381989,133,001,2023_Nov_13_1430,SpeechDraft1Carolyn_lessNoise_PlusLocalization,2021.2.3,59.999036487763604,
,,,,,,,,midLeft,-13.0,2,ch1Sound_localizationTask.wav,-13.0,"(762, 878)","(-198,-202)",-190,-338,,,,,,,,,,,,,0,2,2,1,,,,,,,,,,,,,,,,,,,,,,,,,,,,,,,,,,,,,,,,1220.0930618019775,None,,,1223.1087629590183,None,1.4,0.6327602239325643,1223.1087629590183,None,,,,,,,1221.0922101628967,None,1221.2755220988765,1221.2921858918853,133,001,2023_Nov_13_1430,SpeechDraft1Carolyn_lessNoise_PlusLocalization,2021.2.3,59.999036487763604,
,,,,,,,,farLeft,-19.1,5,ch1Sound_localizationTask.wav,-19.1,"(667, 878)","(-293,-202)",-285,-338,,,,,,,,,,,,,0,3,3,0,,,,,,,,,,,,,,,,,,,,,,,,,,,,,,,,,,,,,,,,1223.7429268117994,None,,,1226.7587508950382,None,1.3412698412698414,1.0169361648149788,1226.7587508950382,None,,,,,,,1224.7421763800085,None,1224.9255296196789,1224.9421810759231,133,001,2023_Nov_13_1430,SpeechDraft1Carolyn_lessNoise_PlusLocalization,2021.2.3,59.999036487763604,
,,,,,,,,center,0.0,6,ch1Sound_localizationTask.wav,0.0,"(952, 878)","(-8,-202)",0,-338,,,,,,,,,,,,,0,4,4,3,,,,,,,,,,,,,,,,,,,,,,,,,,,,,,,,,,,,,,,,1227.7762126689777,None,,,1230.791912436951,None,1.5026455026455028,1.3330913297832012,1230.791912436951,None,,,,,,,1228.7755356268026,None,1228.9588297097944,1228.975502862595,133,001,2023_Nov_13_1430,SpeechDraft1Carolyn_lessNoise_PlusLocalization,2021.2.3,59.999036487763604,
,,,,,,,,midLeft,-13.0,2,ch1Sound_localizationTask.wav,-13.0,"(762, 878)","(-198,-202)",-190,-338,,,,,,,,,,,,,0,5,5,1,,,,,,,,,,,,,,,,,,,,,,,,,,,,,,,,,,,,,,,,1232.125524985604,None,,,1235.1419537467882,None,1.4005291005291005,1.3829149277880788,1235.1419537467882,None,,,,,,,1233.1257527698763,None,1233.3089281106368,1233.3255771896802,133,001,2023_Nov_13_1430,SpeechDraft1Carolyn_lessNoise_PlusLocalization,2021.2.3,59.999036487763604,
,,,,,,,,farLeft,-19.1,5,ch1Sound_localizationTask.wav,-19.1,"(667, 878)","(-293,-202)",-285,-338,,,,,,,,,,,,,0,6,6,0,,,,,,,,,,,,,,,,,,,,,,,,,,,,,,,,,,,,,,,,1236.5255183167756,None,,,1239.5418530078605,None,1.3534391534391534,1.4986904221586883,1239.5418530078605,None,,,,,,,1237.5255332640372,None,1237.7089068717323,1237.7255686749704,133,001,2023_Nov_13_1430,SpeechDraft1Carolyn_lessNoise_PlusLocalization,2021.2.3,59.999036487763604,
,,,,,,,,nearRight,6.5,0,ch1Sound_localizationTask.wav,6.5,"(1047, 878)","(87, -202)",95,-338,,,,,,,,,,,,,1,0,7,4,,,,,,,,,,,,,,,,,,,,,,,,,,,,,,,,,,,,,,,,1241.0422444497235,None,,,1244.0586932878941,None,1.5502645502645502,0.9159997520036995,1244.0586932878941,None,,,,,,,1242.0422086450271,None,1242.2255786228925,1242.2424333225936,133,001,2023_Nov_13_1430,SpeechDraft1Carolyn_lessNoise_PlusLocalization,2021.2.3,59.999036487763604,
,,,,,,,,nearRight,6.5,0,ch1Sound_localizationTask.wav,6.5,"(1047, 878)","(87, -202)",95,-338,,,,,,,,,,,,,1,1,8,4,,,,,,,,,,,,,,,,,,,,,,,,,,,,,,,,,,,,,,,,1244.975770436693,None,,,1247.992000755854,None,1.5476190476190477,0.9835155070759356,1247.992000755854,None,,,,,,,1245.97562572686,None,1246.1589458626695,1246.1756248730235,133,001,2023_Nov_13_1430,SpeechDraft1Carolyn_lessNoise_PlusLocalization,2021.2.3,59.999036487763604,
,,,,,,,,farRight,19.1,4,ch1Sound_localizationTask.wav,19.1,"(1237, 878)","(277,-202)",285,-338,,,,,,,,,,,,,1,2,9,6,,,,,,,,,,,,,,,,,,,,,,,,,,,,,,,,,,,,,,,,1248.9763374296017,None,,,1251.9920945167542,None,1.6523809523809523,1.583323901053518,1251.9920945167542,None,,,,,,,1249.9756655818783,None,1250.1590488199145,1250.175637783017,133,001,2023_Nov_13_1430,SpeechDraft1Carolyn_lessNoise_PlusLocalization,2021.2.3,59.999036487763604,
,,,,,,,,midRight,13.0,3,ch1Sound_localizationTask.wav,13.0,"(1142, 878)","(182, -202)",190,-338,,,,,,,,,,,,,1,3,10,5,,,,,,,,,,,,,,,,,,,,,,,,,,,,,,,,,,,,,,,,1253.5759235098958,None,,,1256.5920081418008,None,1.6031746031746033,0.8492296407930553,1256.5920081418008,None,,,,,,,1254.5755493319593,None,1254.758915480692,1254.7755166729912,133,001,2023_Nov_13_1430,SpeechDraft1Carolyn_lessNoise_PlusLocalization,2021.2.3,59.999036487763604,
,,,,,,,,nearLeft,-6.5,1,ch1Sound_localizationTask.wav,-6.5,"(857, 878)","(-103,-202)",-95,-338,,,,,,,,,,,,,1,4,11,2,,,,,,,,,,,,,,,,,,,,,,,,,,,,,,,,,,,,,,,,1257.4422024246305,None,,,1260.458649131935,None,1.4576719576719577,2.1823181370273232,1260.458649131935,None,,,,,,,1258.4422788717784,None,1258.6255703419447,1258.642159816809,133,001,2023_Nov_13_1430,SpeechDraft1Carolyn_lessNoise_PlusLocalization,2021.2.3,59.999036487763604,
,,,,,,,,center,0.0,6,ch1Sound_localizationTask.wav,0.0,"(952, 878)","(-8,-202)",0,-338,,,,,,,,,,,,,1,5,12,3,,,,,,,,,,,,,,,,,,,,,,,,,,,,,,,,,,,,,,,,1262.642216554843,None,,,1265.6587314377539,None,1.506878306878307,0.916142444126308,1265.6587314377539,None,,,,,,,1263.6424047248438,None,1263.8256589067169,1263.8423796957359,133,001,2023_Nov_13_1430,SpeechDraft1Carolyn_lessNoise_PlusLocalization,2021.2.3,59.999036487763604,
,,,,,,,,midLeft,-13.0,2,ch1Sound_localizationTask.wav,-13.0,"(762, 878)","(-198,-202)",-190,-338,,,,,,,,,,,,,1,6,13,1,,,,,,,,,,,,,,,,,,,,,,,,,,,,,,,,,,,,,,,,1266.5755110597238,None,,,1269.5918251336552,None,1.398941798941799,0.8653991241008043,1269.5918251336552,None,,,,,,,1267.5755735598505,None,1267.7588458256796,1267.775601958856,133,001,2023_Nov_13_1430,SpeechDraft1Carolyn_lessNoise_PlusLocalization,2021.2.3,59.999036487763604,
,,,,,,,,midRight,13.0,3,ch1Sound_localizationTask.wav,13.0,"(1142, 878)","(182, -202)",190,-338,,,,,,,,,,,,,2,0,14,5,,,,,,,,,,,,,,,,,,,,,,,,,,,,,,,,,,,,,,,,1270.4588925228454,None,,,1273.475479658693,None,1.6052910052910052,1.1327323629520833,1273.475479658693,None,,,,,,,1271.4589306856506,None,1271.6422645826824,1271.658918119967,133,001,2023_Nov_13_1430,SpeechDraft1Carolyn_lessNoise_PlusLocalization,2021.2.3,59.999036487763604,
,,,,,,,,midLeft,-13.0,2,ch1Sound_localizationTask.wav,-13.0,"(762, 878)","(-198,-202)",-190,-338,,,,,,,,,,,,,2,1,15,1,,,,,,,,,,,,,,,,,,,,,,,,,,,,,,,,,,,,,,,,1274.6090345820412,None,,,1277.6252676979639,None,1.391005291005291,1.2335489760152996,1277.6252676979639,None,,,,,,,1275.6089009935968,None,1275.7922044969164,1275.8089198288508,133,001,2023_Nov_13_1430,SpeechDraft1Carolyn_lessNoise_PlusLocalization,2021.2.3,59.999036487763604,
,,,,,,,,nearRight,6.5,0,ch1Sound_localizationTask.wav,6.5,"(1047, 878)","(87, -202)",95,-338,,,,,,,,,,,,,2,2,16,4,,,,,,,,,,,,,,,,,,,,,,,,,,,,,,,,,,,,,,,,1278.8600645619445,None,,,1281.8921070620418,None,1.543915343915344,1.2988340258598328,1281.8921070620418,None,,,,,,,1279.8758272109553,None,1280.058936420828,1280.075596685987,133,001,2023_Nov_13_1430,SpeechDraft1Carolyn_lessNoise_PlusLocalization,2021.2.3,59.999036487763604,
,,,,,,,,farRight,19.1,4,ch1Sound_localizationTask.wav,19.1,"(1237, 878)","(277,-202)",285,-338,,,,,,,,,,,,,2,3,17,6,,,,,,,,,,,,,,,,,,,,,,,,,,,,,,,,,,,,,,,,1283.1922890036367,None,,,1286.2087732949294,None,1.6470899470899472,0.6995975570753217,1286.2087732949294,None,,,,,,,1284.1922956039198,None,1284.375578471925,1284.3923610737547,133,001,2023_Nov_13_1430,SpeechDraft1Carolyn_lessNoise_PlusLocalization,2021.2.3,59.999036487763604,
,,,,,,,,farLeft,-19.1,5,ch1Sound_localizationTask.wav,-19.1,"(667, 878)","(-293,-202)",-285,-338,,,,,,,,,,,,,2,4,18,0,,,,,,,,,,,,,,,,,,,,,,,,,,,,,,,,,,,,,,,,1286.9089525938034,None,,,1289.9252885328606,None,1.3476190476190477,0.9489139188081026,1289.9252885328606,None,,,,,,,1287.908928620629,None,1288.092311671935,1288.1089432439767,133,001,2023_Nov_13_1430,SpeechDraft1Carolyn_lessNoise_PlusLocalization,2021.2.3,59.999036487763604,
,,,,,,,,farLeft,-19.1,5,ch1Sound_localizationTask.wav,-19.1,"(667, 878)","(-293,-202)",-285,-338,,,,,,,,,,,,,2,5,19,0,,,,,,,,,,,,,,,,,,,,,,,,,,,,,,,,,,,,,,,,1290.875679351855,None,,,1293.8918780819513,None,1.3656084656084655,1.766819932963699,1293.8918780819513,None,,,,,,,1291.8756439019926,None,1292.0589746879414,1292.075589506887,133,001,2023_Nov_13_1430,SpeechDraft1Carolyn_lessNoise_PlusLocalization,2021.2.3,59.999036487763604,
,,,,,,,,nearLeft,-6.5,1,ch1Sound_localizationTask.wav,-6.5,"(857, 878)","(-103,-202)",-95,-338,,,,,,,,,,,,,2,6,20,2,,,,,,,,,,,,,,,,,,,,,,,,,,,,,,,,,,,,,,,,1295.6589312348515,None,,,1298.6753354598768,None,1.452910052910053,0.9320064699277282,1298.6753354598768,None,,,,,,,1296.6588556799106,None,1296.8423194158822,1296.8588825468905,133,001,2023_Nov_13_1430,SpeechDraft1Carolyn_lessNoise_PlusLocalization,2021.2.3,59.999036487763604,
,,,,,,,,center,0.0,6,ch1Sound_localizationTask.wav,0.0,"(952, 878)","(-8,-202)",0,-338,,,,,,,,,,,,,3,0,21,3,,,,,,,,,,,,,,,,,,,,,,,,,,,,,,,,,,,,,,,,1299.608991318848,None,,,1302.6253565978259,None,1.4968253968253968,1.165959666017443,1302.6253565978259,None,,,,,,,1300.6088991519064,None,1300.7923089717515,1300.8089937148616,133,001,2023_Nov_13_1430,SpeechDraft1Carolyn_lessNoise_PlusLocalization,2021.2.3,59.999036487763604,
,,,,,,,,nearRight,6.5,0,ch1Sound_localizationTask.wav,6.5,"(1047, 878)","(87, -202)",95,-338,,,,,,,,,,,,,3,1,22,4,,,,,,,,,,,,,,,,,,,,,,,,,,,,,,,,,,,,,,,,1303.7922831438482,None,,,1306.8085830546916,None,1.546031746031746,0.8146835542283952,1306.8085830546916,None,,,,,,,1304.7923548389226,None,1304.975570304785,1304.992403944023,133,001,2023_Nov_13_1430,SpeechDraft1Carolyn_lessNoise_PlusLocalization,2021.2.3,59.999036487763604,
,,,,,,,,farRight,19.1,4,ch1Sound_localizationTask.wav,19.1,"(1237, 878)","(277,-202)",285,-338,,,,,,,,,,,,,3,2,23,6,,,,,,,,,,,,,,,,,,,,,,,,,,,,,,,,,,,,,,,,1307.6256007929333,None,,,1310.6420448897406,None,1.651851851851852,0.915719201322645,1310.6420448897406,None,,,,,,,1308.6256092288531,None,1308.809192745015,1308.8256051666103,133,001,2023_Nov_13_1430,SpeechDraft1Carolyn_lessNoise_PlusLocalization,2021.2.3,59.999036487763604,
,,,,,,,,farRight,19.1,4,ch1Sound_localizationTask.wav,19.1,"(1237, 878)","(277,-202)",285,-338,,,,,,,,,,,,,3,3,24,6,,,,,,,,,,,,,,,,,,,,,,,,,,,,,,,,,,,,,,,,1311.5589911416173,None,,,1314.5753030967899,None,1.6497354497354497,0.9988616397604346,1314.5753030967899,None,,,,,,,1312.558943968732,None,1312.742420090828,1312.7589683448896,133,001,2023_Nov_13_1430,SpeechDraft1Carolyn_lessNoise_PlusLocalization,2021.2.3,59.999036487763604,
,,,,,,,,center,0.0,6,ch1Sound_localizationTask.wav,0.0,"(952, 878)","(-8,-202)",0,-338,,,,,,,,,,,,,3,4,25,3,,,,,,,,,,,,,,,,,,,,,,,,,,,,,,,,,,,,,,,,1315.575650936924,None,,,1318.5920530236326,None,1.5005291005291004,1.015652114059776,1318.5920530236326,None,,,,,,,1316.5756885679439,None,1316.7590353619307,1316.7756724348292,133,001,2023_Nov_13_1430,SpeechDraft1Carolyn_lessNoise_PlusLocalization,2021.2.3,59.999036487763604,
,,,,,,,,center,0.0,6,ch1Sound_localizationTask.wav,0.0,"(952, 878)","(-8,-202)",0,-338,,,,,,,,,,,,,3,5,26,3,,,,,,,,,,,,,,,,,,,,,,,,,,,,,,,,,,,,,,,,1319.6089754318818,None,,,1322.6253933627158,None,1.4968253968253968,0.49946809373795986,1322.6253933627158,None,,,,,,,1320.6089647477493,None,1320.7923073028214,1320.8089739619754,133,001,2023_Nov_13_1430,SpeechDraft1Carolyn_lessNoise_PlusLocalization,2021.2.3,59.999036487763604,
,,,,,,,,center,0.0,6,ch1Sound_localizationTask.wav,0.0,"(952, 878)","(-8,-202)",0,-338,,,,,,,,,,,,,3,6,27,3,,,,,,,,,,,,,,,,,,,,,,,,,,,,,,,,,,,,,,,,1323.125741683878,None,,,1326.1422787788324,None,1.498941798941799,1.049453520681709,1326.1422787788324,None,,,,,,,1324.1256817476824,None,1324.3088440489955,1324.3257603989914,133,001,2023_Nov_13_1430,SpeechDraft1Carolyn_lessNoise_PlusLocalization,2021.2.3,59.999036487763604,
,,,,,,,,nearRight,6.5,0,ch1Sound_localizationTask.wav,6.5,"(1047, 878)","(87, -202)",95,-338,,,,,,,,,,,,,4,0,28,4,,,,,,,,,,,,,,,,,,,,,,,,,,,,,,,,,,,,,,,,1327.192316677887,None,,,1330.2087191748433,None,1.544973544973545,1.2520280061289668,1330.2087191748433,None,,,,,,,1328.1923352796584,None,1328.375647809822,1328.392408741638,133,001,2023_Nov_13_1430,SpeechDraft1Carolyn_lessNoise_PlusLocalization,2021.2.3,59.999036487763604,
,,,,,,,,midRight,13.0,3,ch1Sound_localizationTask.wav,13.0,"(1142, 878)","(182, -202)",190,-338,,,,,,,,,,,,,4,1,29,5,,,,,,,,,,,,,,,,,,,,,,,,,,,,,,,,,,,,,,,,1331.4763054386713,None,,,1334.4921768847853,None,1.601058201058201,0.931795425247401,1334.4921768847853,None,,,,,,,1332.4757247976959,None,1332.6590271079913,1332.6756869158708,133,001,2023_Nov_13_1430,SpeechDraft1Carolyn_lessNoise_PlusLocalization,2021.2.3,59.999036487763604,
,,,,,,,,nearLeft,-6.5,1,ch1Sound_localizationTask.wav,-6.5,"(857, 878)","(-103,-202)",-95,-338,,,,,,,,,,,,,4,2,30,2,,,,,,,,,,,,,,,,,,,,,,,,,,,,,,,,,,,,,,,,1335.4257497647777,None,,,1338.4420467647724,None,1.4455026455026454,0.9155003679916263,1338.4420467647724,None,,,,,,,1336.4258868959732,None,1336.6090039666742,1336.625709201675,133,001,2023_Nov_13_1430,SpeechDraft1Carolyn_lessNoise_PlusLocalization,2021.2.3,59.999036487763604,
,,,,,,,,farLeft,-19.1,5,ch1Sound_localizationTask.wav,-19.1,"(667, 878)","(-293,-202)",-285,-338,,,,,,,,,,,,,4,3,31,0,,,,,,,,,,,,,,,,,,,,,,,,,,,,,,,,,,,,,,,,1339.3590890467167,None,,,1342.375326919835,None,1.3566137566137566,0.7828645249828696,1342.375326919835,None,,,,,,,1340.359066973906,None,1340.5424576038495,1340.558997196611,133,001,2023_Nov_13_1430,SpeechDraft1Carolyn_lessNoise_PlusLocalization,2021.2.3,59.999036487763604,
,,,,,,,,farRight,19.1,4,ch1Sound_localizationTask.wav,19.1,"(1237, 878)","(277,-202)",285,-338,,,,,,,,,,,,,4,4,32,6,,,,,,,,,,,,,,,,,,,,,,,,,,,,,,,,,,,,,,,,1343.1594768599607,None,,,1346.1753933047876,None,1.637037037037037,0.8838106961920857,1346.1753933047876,None,,,,,,,1344.159009480849,None,1344.3423306448385,1344.3591444939375,133,001,2023_Nov_13_1430,SpeechDraft1Carolyn_lessNoise_PlusLocalization,2021.2.3,59.999036487763604,
,,,,,,,,midRight,13.0,3,ch1Sound_localizationTask.wav,13.0,"(1142, 878)","(182, -202)",190,-338,,,,,,,,,,,,,4,5,33,5,,,,,,,,,,,,,,,,,,,,,,,,,,,,,,,,,,,,,,,,1347.075709620025,None,,,1350.0921599627472,None,1.5936507936507938,0.5824856897816062,1350.0921599627472,None,,,,,,,1348.0757540636696,None,1348.259021723643,1348.27567141084,133,001,2023_Nov_13_1430,SpeechDraft1Carolyn_lessNoise_PlusLocalization,2021.2.3,59.999036487763604,
,,,,,,,,farRight,19.1,4,ch1Sound_localizationTask.wav,19.1,"(1237, 878)","(277,-202)",285,-338,,,,,,,,,,,,,4,6,34,6,,,,,,,,,,,,,,,,,,,,,,,,,,,,,,,,,,,,,,,,1350.675726877991,None,,,1353.6920284959488,None,1.656084656084656,1.0334660122171044,1353.6920284959488,None,,,,,,,1351.6757383639924,None,1351.8591955378652,1351.8756903610192,133,001,2023_Nov_13_1430,SpeechDraft1Carolyn_lessNoise_PlusLocalization,2021.2.3,59.999036487763604,
,,,,,,,,nearLeft,-6.5,1,ch1Sound_localizationTask.wav,-6.5,"(857, 878)","(-103,-202)",-95,-338,,,,,,,,,,,,,5,0,35,2,,,,,,,,,,,,,,,,,,,,,,,,,,,,,,,,,,,,,,,,1354.7257121447474,None,,,1357.742196188774,None,1.4497354497354498,0.898328716866672,1357.742196188774,None,,,,,,,1355.7257401249371,None,1355.909062044695,1355.9259149548598,133,001,2023_Nov_13_1430,SpeechDraft1Carolyn_lessNoise_PlusLocalization,2021.2.3,59.999036487763604,
,,,,,,,,midRight,13.0,3,ch1Sound_localizationTask.wav,13.0,"(1142, 878)","(182, -202)",190,-338,,,,,,,,,,,,,5,1,36,5,,,,,,,,,,,,,,,,,,,,,,,,,,,,,,,,,,,,,,,,1358.6423643250018,None,,,1361.6587316426449,None,1.5957671957671957,1.0494132437743247,1361.6587316426449,None,,,,,,,1359.6423824746162,None,1359.8257470359094,1359.8423527996056,133,001,2023_Nov_13_1430,SpeechDraft1Carolyn_lessNoise_PlusLocalization,2021.2.3,59.999036487763604,
,,,,,,,,nearLeft,-6.5,1,ch1Sound_localizationTask.wav,-6.5,"(857, 878)","(-103,-202)",-95,-338,,,,,,,,,,,,,5,2,37,2,,,,,,,,,,,,,,,,,,,,,,,,,,,,,,,,,,,,,,,,1362.7090518828481,None,,,1365.7253624466248,None,1.4455026455026454,1.0479209148325026,1365.7253624466248,None,,,,,,,1363.7090767249465,None,1363.8926414130256,1363.9090764010325,133,001,2023_Nov_13_1430,SpeechDraft1Carolyn_lessNoise_PlusLocalization,2021.2.3,59.999036487763604,
,,,,,,,,nearRight,6.5,0,ch1Sound_localizationTask.wav,6.5,"(1047, 878)","(87, -202)",95,-338,,,,,,,,,,,,,5,3,38,4,,,,,,,,,,,,,,,,,,,,,,,,,,,,,,,,,,,,,,,,1366.7756875599734,None,,,1369.7921919119544,None,1.5476190476190477,1.0991500657983124,1369.7921919119544,None,,,,,,,1367.7756989346817,None,1367.9590534428135,1367.975763397757,133,001,2023_Nov_13_1430,SpeechDraft1Carolyn_lessNoise_PlusLocalization,2021.2.3,59.999036487763604,
,,,,,,,,farLeft,-19.1,5,ch1Sound_localizationTask.wav,-19.1,"(667, 878)","(-293,-202)",-285,-338,,,,,,,,,,,,,5,4,39,0,,,,,,,,,,,,,,,,,,,,,,,,,,,,,,,,,,,,,,,,1370.8924235049635,None,,,1373.9088309979998,None,1.3343915343915345,0.9329038350842893,1373.9088309979998,None,,,,,,,1371.8924812129699,None,1372.0757783316076,1372.0924158999696,133,001,2023_Nov_13_1430,SpeechDraft1Carolyn_lessNoise_PlusLocalization,2021.2.3,59.999036487763604,
,,,,,,,,midRight,13.0,3,ch1Sound_localizationTask.wav,13.0,"(1142, 878)","(182, -202)",190,-338,,,,,,,,,,,,,5,5,40,5,,,,,,,,,,,,,,,,,,,,,,,,,,,,,,,,,,,,,,,,1374.8423732509837,None,,,1377.858853295911,None,1.6005291005291005,1.749951281119138,1377.858853295911,None,,,,,,,1375.8423976176418,None,1376.02573019173,1376.0424153245986,133,001,2023_Nov_13_1430,SpeechDraft1Carolyn_lessNoise_PlusLocalization,2021.2.3,59.999036487763604,
,,,,,,,,nearLeft,-6.5,1,ch1Sound_localizationTask.wav,-6.5,"(857, 878)","(-103,-202)",-95,-338,,,,,,,,,,,,,5,6,41,2,,,,,,,,,,,,,,,,,,,,,,,,,,,,,,,,,,,,,,,,1379.6097762747668,None,,,1382.6255033989437,None,1.4433862433862434,0.8332286961376667,1382.6255033989437,None,,,,,,,1380.6090756580234,None,1380.792457671836,1380.808996019885,133,001,2023_Nov_13_1430,SpeechDraft1Carolyn_lessNoise_PlusLocalization,2021.2.3,59.999036487763604,
,,,,,,,,midRight,13.0,3,ch1Sound_localizationTask.wav,13.0,"(1142, 878)","(182, -202)",190,-338,,,,,,,,,,,,,6,0,42,5,,,,,,,,,,,,,,,,,,,,,,,,,,,,,,,,,,,,,,,,1383.4591633537784,None,,,1386.4755945419893,None,1.5883597883597882,0.6492099519819021,1386.4755945419893,None,,,,,,,1384.4590983185917,None,1384.6424493007362,1384.659147309605,133,001,2023_Nov_13_1430,SpeechDraft1Carolyn_lessNoise_PlusLocalization,2021.2.3,59.999036487763604,
,,,,,,,,farRight,19.1,4,ch1Sound_localizationTask.wav,19.1,"(1237, 878)","(277,-202)",285,-338,,,,,,,,,,,,,6,1,43,6,,,,,,,,,,,,,,,,,,,,,,,,,,,,,,,,,,,,,,,,1387.1259829467162,None,,,1390.1421534917317,None,1.662962962962963,0.8821037570014596,1390.1421534917317,None,,,,,,,1388.1257785526104,None,1388.3090936490335,1388.3259105077013,133,001,2023_Nov_13_1430,SpeechDraft1Carolyn_lessNoise_PlusLocalization,2021.2.3,59.999036487763604,
,,,,,,,,midLeft,-13.0,2,ch1Sound_localizationTask.wav,-13.0,"(762, 878)","(-198,-202)",-190,-338,,,,,,,,,,,,,6,2,44,1,,,,,,,,,,,,,,,,,,,,,,,,,,,,,,,,,,,,,,,,1391.025772814639,None,,,1394.0421551419422,None,1.408994708994709,0.9991841102018952,1394.0421551419422,None,,,,,,,1392.025903612841,None,1392.2090762606822,1392.2258281828836,133,001,2023_Nov_13_1430,SpeechDraft1Carolyn_lessNoise_PlusLocalization,2021.2.3,59.999036487763604,
,,,,,,,,nearLeft,-6.5,1,ch1Sound_localizationTask.wav,-6.5,"(857, 878)","(-103,-202)",-95,-338,,,,,,,,,,,,,6,3,45,2,,,,,,,,,,,,,,,,,,,,,,,,,,,,,,,,,,,,,,,,1395.0425030239858,None,,,1398.0589206237346,None,1.4502645502645501,0.8662775158882141,1398.0589206237346,None,,,,,,,1396.042461742647,None,1396.2258102209307,1396.2424380597658,133,001,2023_Nov_13_1430,SpeechDraft1Carolyn_lessNoise_PlusLocalization,2021.2.3,59.999036487763604,
,,,,,,,,nearLeft,-6.5,1,ch1Sound_localizationTask.wav,-6.5,"(857, 878)","(-103,-202)",-95,-338,,,,,,,,,,,,,6,4,46,2,,,,,,,,,,,,,,,,,,,,,,,,,,,,,,,,,,,,,,,,1398.9257908388972,None,,,1401.9421554827131,None,1.452910052910053,0.9492325661703944,1401.9421554827131,None,,,,,,,1399.9257077397779,None,1400.1090437457897,1400.125745171681,133,001,2023_Nov_13_1430,SpeechDraft1Carolyn_lessNoise_PlusLocalization,2021.2.3,59.999036487763604,
,,,,,,,,center,0.0,6,ch1Sound_localizationTask.wav,0.0,"(952, 878)","(-8,-202)",0,-338,,,,,,,,,,,,,6,5,47,3,,,,,,,,,,,,,,,,,,,,,,,,,,,,,,,,,,,,,,,,1402.8925272487104,None,,,1405.9088022969663,None,1.5015873015873016,0.8165351571515203,1405.9088022969663,None,,,,,,,1403.8924192008562,None,1404.075877469033,1404.0924113825895,133,001,2023_Nov_13_1430,SpeechDraft1Carolyn_lessNoise_PlusLocalization,2021.2.3,59.999036487763604,
,,,,,,,,midLeft,-13.0,2,ch1Sound_localizationTask.wav,-13.0,"(762, 878)","(-198,-202)",-190,-338,,,,,,,,,,,,,6,6,48,1,,,,,,,,,,,,,,,,,,,,,,,,,,,,,,,,,,,,,,,,1406.7259484478272,None,,,1409.7422015578486,None,1.4005291005291005,1.0327019221149385,1409.7422015578486,None,,,,,,,1407.7258114418946,None,1407.9091109549627,1407.925765868742,133,001,2023_Nov_13_1430,SpeechDraft1Carolyn_lessNoise_PlusLocalization,2021.2.3,59.999036487763604,
,,,,,,,,midLeft,-13.0,2,ch1Sound_localizationTask.wav,-13.0,"(762, 878)","(-198,-202)",-190,-338,,,,,,,,,,,,,7,0,49,1,,,,,,,,,,,,,,,,,,,,,,,,,,,,,,,,,,,,,,,,1410.7763197566383,None,,,1413.7922253189608,None,1.3984126984126983,0.6667319932021201,1413.7922253189608,None,,,,,,,1411.7758047929965,None,1411.959163355641,1411.9757435959764,133,001,2023_Nov_13_1430,SpeechDraft1Carolyn_lessNoise_PlusLocalization,2021.2.3,59.999036487763604,
,,,,,,,,nearRight,6.5,0,ch1Sound_localizationTask.wav,6.5,"(1047, 878)","(87, -202)",95,-338,,,,,,,,,,,,,7,1,50,4,,,,,,,,,,,,,,,,,,,,,,,,,,,,,,,,,,,,,,,,1414.4594481047243,None,,,1417.4755770820193,None,1.5513227513227514,0.8665292770601809,1417.4755770820193,None,,,,,,,1415.4591374276206,None,1415.6424326817505,1415.6591355786659,133,001,2023_Nov_13_1430,SpeechDraft1Carolyn_lessNoise_PlusLocalization,2021.2.3,59.999036487763604,
,,,,,,,,midLeft,-13.0,2,ch1Sound_localizationTask.wav,-13.0,"(762, 878)","(-198,-202)",-190,-338,,,,,,,,,,,,,7,2,51,1,,,,,,,,,,,,,,,,,,,,,,,,,,,,,,,,,,,,,,,,1418.3426746358164,None,,,1421.3589009358548,None,1.403174603174603,0.8323935191147029,1421.3589009358548,None,,,,,,,1419.342496917583,None,1419.5258556250483,1419.542549234815,133,001,2023_Nov_13_1430,SpeechDraft1Carolyn_lessNoise_PlusLocalization,2021.2.3,59.999036487763604,
,,,,,,,,farLeft,-19.1,5,ch1Sound_localizationTask.wav,-19.1,"(667, 878)","(-293,-202)",-285,-338,,,,,,,,,,,,,7,3,52,0,,,,,,,,,,,,,,,,,,,,,,,,,,,,,,,,,,,,,,,,1422.192523024045,None,,,1425.2087955977768,None,1.3375661375661376,0.9330843761563301,1425.2087955977768,None,,,,,,,1423.1926612057723,None,1423.3759434260428,1423.392643790692,133,001,2023_Nov_13_1430,SpeechDraft1Carolyn_lessNoise_PlusLocalization,2021.2.3,59.999036487763604,
,,,,,,,,midRight,13.0,3,ch1Sound_localizationTask.wav,13.0,"(1142, 878)","(182, -202)",190,-338,,,,,,,,,,,,,7,4,53,5,,,,,,,,,,,,,,,,,,,,,,,,,,,,,,,,,,,,,,,,1426.1432524640113,None,,,1429.1588831609115,None,1.6121693121693121,0.9661743771284819,1429.1588831609115,None,,,,,,,1427.1424558898434,None,1427.325798409991,1427.342486680951,133,001,2023_Nov_13_1430,SpeechDraft1Carolyn_lessNoise_PlusLocalization,2021.2.3,59.999036487763604,
,,,,,,,,center,0.0,6,ch1Sound_localizationTask.wav,0.0,"(952, 878)","(-8,-202)",0,-338,,,,,,,,,,,,,7,5,54,3,,,,,,,,,,,,,,,,,,,,,,,,,,,,,,,,,,,,,,,,1430.1261242800392,None,,,1433.1421977030113,None,1.5005291005291004,1.26492064492777,1433.1421977030113,None,,,,,,,1431.1258328887634,None,1431.3091130638495,1431.3258857089095,133,001,2023_Nov_13_1430,SpeechDraft1Carolyn_lessNoise_PlusLocalization,2021.2.3,59.999036487763604,
,,,,,,,,farRight,19.1,4,ch1Sound_localizationTask.wav,19.1,"(1237, 878)","(277,-202)",285,-338,,,,,,,,,,,,,7,6,55,6,,,,,,,,,,,,,,,,,,,,,,,,,,,,,,,,,,,,,,,,1434.40905834781,None,,,1437.4256216287613,None,1.6507936507936507,1.6489264201372862,1437.4256216287613,None,,,,,,,1435.409102757927,None,1435.5924755418673,1435.609105014708,133,001,2023_Nov_13_1430,SpeechDraft1Carolyn_lessNoise_PlusLocalization,2021.2.3,59.999036487763604,
