Audio_Only_Files,Video_Files,Original_Word_List,noiseLevelCode,conditionCodes,noiseLevelFile1,noiseLevelFile2,InstrTextVar,targetSpeakerName,targetSpeakerEccen,targetSpkrChannel,targetSpkrSound,targetVisualDegrees,visStimLoc,visStimLoc2,visStimW,visStimH,practiceTrials.thisRepN,practiceTrials.thisTrialN,practiceTrials.thisN,practiceTrials.thisIndex,trials.thisRepN,trials.thisTrialN,trials.thisN,trials.thisIndex,audLocalLoop.thisRepN,audLocalLoop.thisTrialN,audLocalLoop.thisN,audLocalLoop.thisIndex,visualLocalLoop.thisRepN,visualLocalLoop.thisTrialN,visualLocalLoop.thisN,visualLocalLoop.thisIndex,letsGoAlready.keys,letsGoAlready.rt,letsGoAlready.started,letsGoAlready.stopped,text_2.started,text_2.stopped,text_3.started,text_3.stopped,key_resp_2.keys,key_resp_2.rt,key_resp_2.started,key_resp_2.stopped,text_5.started,text_5.stopped,fixCross.started,fixCross.stopped,fixCross2.started,fixCross2.stopped,answerPrompt.started,answerPrompt.stopped,getAnswer.text,getAnswer.started,getAnswer.stopped,goToNext.keys,goToNext.rt,goToNext.started,goToNext.stopped,stretchBreakTxrt.started,stretchBreakTxrt.stopped,key_resp_3.keys,key_resp_3.rt,key_resp_3.started,key_resp_3.stopped,letsGoLocal.keys,letsGoLocal.rt,letsGoLocal.started,letsGoLocal.stopped,text_4.started,text_4.stopped,prepFixTxt.started,prepFixTxt.stopped,prepFixTxt_2.started,prepFixTxt_2.stopped,respPromptLocal.started,respPromptLocal.stopped,slider.response,slider.rt,slider.started,slider.stopped,letsGoLocal_2.keys,letsGoLocal_2.rt,letsGoLocal_2.started,letsGoLocal_2.stopped,text_7.started,text_7.stopped,prepFixTxt_3.started,prepFixTxt_3.stopped,grating.started,grating.stopped,exitTxt.started,exitTxt.stopped,key_resp.keys,key_resp.rt,key_resp.started,key_resp.stopped,participant,session,date,expName,psychopyVersion,frameRate,
,,,,,,,,,,,,,,,,,,,,,,,,,,,,,,,,,space,49.201084727887064,1141.5370305930264,None,,,,,,,,,,,,,,,,,,,,,,,,,,,,,,,,,,,,,,,,,,,,,,,,,,,,,,,,,,,,,,134,001,2023_Nov_14_1120,SpeechDraft1Carolyn_lessNoise_PlusLocalization,2021.2.3,59.98433350906526,
,,,,,,,,,,,,,,,,,,,,,,,,,,,,,,,,,,,,,1141.5370305930264,None,1190.8700376171619,None,space,37.12451483402401,1191.0535746519454,None,,,,,,,,,,,,,,,,,,,,,,,,,,,,,,,,,,,,,,,,,,,,,,,,,,,,,,134,001,2023_Nov_14_1120,SpeechDraft1Carolyn_lessNoise_PlusLocalization,2021.2.3,59.98433350906526,
ash.wav,ash.mpg,ash,1,A,Pink_Noise_1_1.wav,Pink_Noise_1_2.wav,"This is an example of an

AUDIO trial",,,,,,,,,,0,0,0,0,,,,,,,,,,,,,,,,,,,,,,,,,1228.2204744210467,None,1229.2202779282816,None,1232.4041230040602,None,1233.7869827952236,None,ash,1233.7869827952236,None,return,5.79570397734642,1233.870441808831,None,,,,,,,,,,,,,,,,,,,,,,,,,,,,,,,,,,,,,,,134,001,2023_Nov_14_1120,SpeechDraft1Carolyn_lessNoise_PlusLocalization,2021.2.3,59.98433350906526,
ash.wav,ash.mpg,ash,1,AV,Pink_Noise_1_1.wav,Pink_Noise_1_2.wav,"This is an example of an

AUDIO + VIDEO  trial",,,,,,,,,,0,1,1,1,,,,,,,,,,,,,,,,,,,,,,,,,1239.7034074421972,None,1240.7036173171364,None,1242.2034748890437,None,1243.586912625935,None,ash,1243.586912625935,None,return,39.963857328053564,1243.6702799228951,None,,,,,,,,,,,,,,,,,,,,,,,,,,,,,,,,,,,,,,,134,001,2023_Nov_14_1120,SpeechDraft1Carolyn_lessNoise_PlusLocalization,2021.2.3,59.98433350906526,
,,,,,,,,,,,,,,,,,,,,,,,,,,,,,,,,,,,,,,,,,,,,,,,,,,,,,,,,,,,,1283.67005738616,None,space,8.716424020007253,1283.8537410139106,None,,,,,,,,,,,,,,,,,,,,,,,,,,,,,,,,,134,001,2023_Nov_14_1120,SpeechDraft1Carolyn_lessNoise_PlusLocalization,2021.2.3,59.98433350906526,
flag.wav,flag.mpg,flag,2,A,Pink_Noise_2_1.wav,Pink_Noise_2_2.wav,,,,,,,,,,,,,,,0,0,0,52,,,,,,,,,,,,,,,,,,,,,,,1292.6200871830806,None,1294.1035411860794,None,1295.487031065859,None,bug,1295.487031065859,None,return,5.887772191781551,1295.5703190141357,None,,,,,,,,,,,,,,,,,,,,,,,,,,,,,,,,,,,,,,,134,001,2023_Nov_14_1120,SpeechDraft1Carolyn_lessNoise_PlusLocalization,2021.2.3,59.98433350906526,
cough.wav,cough.mpg,cough,2,A,Pink_Noise_2_1.wav,Pink_Noise_2_2.wav,,,,,,,,,,,,,,,0,1,1,36,,,,,,,,,,,,,,,,,,,,,,,1301.4870664812624,None,1302.9868059502915,None,1304.3703707521781,None,"car
",1304.3703707521781,None,return,1.2843953678384423,1304.4537104289047,None,,,,,,,,,,,,,,,,,,,,,,,,,,,,,,,,,,,,,,,134,001,2023_Nov_14_1120,SpeechDraft1Carolyn_lessNoise_PlusLocalization,2021.2.3,59.98433350906526,
goat.wav,goat.mpg,goat,1,AV,Pink_Noise_1_1.wav,Pink_Noise_1_2.wav,,,,,,,,,,,,,,,0,2,2,66,,,,,,,,,,,,,,,,,,,,,,,1305.7703460128978,None,1307.270119685214,None,1308.653659384232,None,goat,1308.653659384232,None,return,3.5050699240528047,1308.737074457109,None,,,,,,,,,,,,,,,,,,,,,,,,,,,,,,,,,,,,,,,134,001,2023_Nov_14_1120,SpeechDraft1Carolyn_lessNoise_PlusLocalization,2021.2.3,59.98433350906526,
clean.wav,clean.mpg,clean,6,AV,Pink_Noise_6_1.wav,Pink_Noise_6_2.wav,,,,,,,,,,,,,,,0,3,3,74,,,,,,,,,,,,,,,,,,,,,,,1312.2704181671143,None,1313.7700628940947,None,1315.1536341272295,None,key,1315.1536341272295,None,return,5.597073887009174,1315.2370944642462,None,,,,,,,,,,,,,,,,,,,,,,,,,,,,,,,,,,,,,,,134,001,2023_Nov_14_1120,SpeechDraft1Carolyn_lessNoise_PlusLocalization,2021.2.3,59.98433350906526,
bench.wav,bench.mpg,bench,3,A,Pink_Noise_3_1.wav,Pink_Noise_3_2.wav,,,,,,,,,,,,,,,0,4,4,8,,,,,,,,,,,,,,,,,,,,,,,1320.8537655309774,None,1322.3701633759774,None,1323.753770666197,None,"fish
",1323.753770666197,None,return,3.7009925399906933,1323.8371313288808,None,,,,,,,,,,,,,,,,,,,,,,,,,,,,,,,,,,,,,,,134,001,2023_Nov_14_1120,SpeechDraft1Carolyn_lessNoise_PlusLocalization,2021.2.3,59.98433350906526,
dual.wav,dual.mpg,dual,1,A,Pink_Noise_1_1.wav,Pink_Noise_1_2.wav,,,,,,,,,,,,,,,0,5,5,19,,,,,,,,,,,,,,,,,,,,,,,1327.5704054408707,None,1329.0701129999943,None,1330.4537233780138,None,"dual
",1330.4537233780138,None,return,1.401044727768749,1330.5370585578494,None,,,,,,,,,,,,,,,,,,,,,,,,,,,,,,,,,,,,,,,134,001,2023_Nov_14_1120,SpeechDraft1Carolyn_lessNoise_PlusLocalization,2021.2.3,59.98433350906526,
gush.wav,gush.mpg,gush,4,AV,Pink_Noise_4_1.wav,Pink_Noise_4_2.wav,,,,,,,,,,,,,,,0,6,6,83,,,,,,,,,,,,,,,,,,,,,,,1331.970466652885,None,1333.4701570849866,None,1334.8537278212607,None,gush,1334.8537278212607,None,return,2.265100972726941,1334.9371008989401,None,,,,,,,,,,,,,,,,,,,,,,,,,,,,,,,,,,,,,,,134,001,2023_Nov_14_1120,SpeechDraft1Carolyn_lessNoise_PlusLocalization,2021.2.3,59.98433350906526,
fluent.wav,fluent.mpg,fluent,4,A,Pink_Noise_4_1.wav,Pink_Noise_4_2.wav,,,,,,,,,,,,,,,0,7,7,57,,,,,,,,,,,,,,,,,,,,,,,1337.2203639629297,None,1338.7203637901694,None,1340.1037625968456,None,bruin,1340.1037625968456,None,return,3.470955717843026,1340.187163099181,None,,,,,,,,,,,,,,,,,,,,,,,,,,,,,,,,,,,,,,,134,001,2023_Nov_14_1120,SpeechDraft1Carolyn_lessNoise_PlusLocalization,2021.2.3,59.98433350906526,
traps.wav,traps.mpg,traps,5,A,Pink_Noise_5_1.wav,Pink_Noise_5_2.wav,,,,,,,,,,,,,,,0,8,8,25,,,,,,,,,,,,,,,,,,,,,,,1343.6871049199253,None,1345.1867332872935,None,1346.5704258759506,None,task,1346.5704258759506,None,return,1.7563858078792691,1346.6538242120296,None,,,,,,,,,,,,,,,,,,,,,,,,,,,,,,,,,,,,,,,134,001,2023_Nov_14_1120,SpeechDraft1Carolyn_lessNoise_PlusLocalization,2021.2.3,59.98433350906526,
crust.wav,crust.mpg,crust,1,AV,Pink_Noise_1_1.wav,Pink_Noise_1_2.wav,,,,,,,,,,,,,,,0,9,9,96,,,,,,,,,,,,,,,,,,,,,,,1348.437079358846,None,1349.9368345942348,None,1351.3204114572145,None,"crust
",1351.3204114572145,None,return,3.286323667038232,1351.4037774568424,None,,,,,,,,,,,,,,,,,,,,,,,,,,,,,,,,,,,,,,,134,001,2023_Nov_14_1120,SpeechDraft1Carolyn_lessNoise_PlusLocalization,2021.2.3,59.98433350906526,
bleak.wav,bleak.mpg,bleak,3,AV,Pink_Noise_3_1.wav,Pink_Noise_3_2.wav,,,,,,,,,,,,,,,0,10,10,87,,,,,,,,,,,,,,,,,,,,,,,1354.7204918870702,None,1356.2202081880532,None,1357.6037146458402,None,"mick
\",1357.6037146458402,None,return,2.602955020032823,1357.6871479339898,None,,,,,,,,,,,,,,,,,,,,,,,,,,,,,,,,,,,,,,,134,001,2023_Nov_14_1120,SpeechDraft1Carolyn_lessNoise_PlusLocalization,2021.2.3,59.98433350906526,
flee.wav,flee.mpg,flee,5,A,Pink_Noise_5_1.wav,Pink_Noise_5_2.wav,,,,,,,,,,,,,,,0,11,11,40,,,,,,,,,,,,,,,,,,,,,,,1360.3204140309244,None,1361.8202300448902,None,1363.2039018832147,None,pig,1363.2039018832147,None,return,3.2910370151512325,1363.2870733179152,None,,,,,,,,,,,,,,,,,,,,,,,,,,,,,,,,,,,,,,,134,001,2023_Nov_14_1120,SpeechDraft1Carolyn_lessNoise_PlusLocalization,2021.2.3,59.98433350906526,
forth.wav,forth.mpg,forth,3,AV,Pink_Noise_3_1.wav,Pink_Noise_3_2.wav,,,,,,,,,,,,,,,0,12,12,109,,,,,,,,,,,,,,,,,,,,,,,1366.6039622868411,None,1368.1035355450585,None,1369.487096354831,None,fourth,1369.487096354831,None,return,4.103607182856649,1369.5704865171574,None,,,,,,,,,,,,,,,,,,,,,,,,,,,,,,,,,,,,,,,134,001,2023_Nov_14_1120,SpeechDraft1Carolyn_lessNoise_PlusLocalization,2021.2.3,59.98433350906526,
book.wav,book.mpg,book,4,A,Pink_Noise_4_1.wav,Pink_Noise_4_2.wav,,,,,,,,,,,,,,,0,13,13,26,,,,,,,,,,,,,,,,,,,,,,,1373.7037908998318,None,1375.2034311732277,None,1376.5872566760518,None,book,1376.5872566760518,None,return,1.7796301641501486,1376.6705187442712,None,,,,,,,,,,,,,,,,,,,,,,,,,,,,,,,,,,,,,,,134,001,2023_Nov_14_1120,SpeechDraft1Carolyn_lessNoise_PlusLocalization,2021.2.3,59.98433350906526,
bear.wav,bear.mpg,bear,6,A,Pink_Noise_6_1.wav,Pink_Noise_6_2.wav,,,,,,,,,,,,,,,0,14,14,30,,,,,,,,,,,,,,,,,,,,,,,1378.470484321937,None,1379.9702162411995,None,1381.3538287491538,None,four,1381.3538287491538,None,return,2.6289251390844584,1381.4371997560374,None,,,,,,,,,,,,,,,,,,,,,,,,,,,,,,,,,,,,,,,134,001,2023_Nov_14_1120,SpeechDraft1Carolyn_lessNoise_PlusLocalization,2021.2.3,59.98433350906526,
wound.wav,wound.mpg,wound,2,A,Pink_Noise_2_1.wav,Pink_Noise_2_2.wav,,,,,,,,,,,,,,,0,15,15,17,,,,,,,,,,,,,,,,,,,,,,,1384.0871257861145,None,1385.5869750371203,None,1386.9706104709767,None,will,1386.9706104709767,None,return,3.004240360110998,1387.0538542978466,None,,,,,,,,,,,,,,,,,,,,,,,,,,,,,,,,,,,,,,,134,001,2023_Nov_14_1120,SpeechDraft1Carolyn_lessNoise_PlusLocalization,2021.2.3,59.98433350906526,
drip.wav,drip.mpg,drip,6,AV,Pink_Noise_6_1.wav,Pink_Noise_6_2.wav,,,,,,,,,,,,,,,0,16,16,111,,,,,,,,,,,,,,,,,,,,,,,1390.0872100279666,None,1391.5870109479874,None,1392.9704706319608,None,"leg
",1392.9704706319608,None,return,1.2682387488894165,1393.053877945058,None,,,,,,,,,,,,,,,,,,,,,,,,,,,,,,,,,,,,,,,134,001,2023_Nov_14_1120,SpeechDraft1Carolyn_lessNoise_PlusLocalization,2021.2.3,59.98433350906526,
brag.wav,brag.mpg,brag,6,AV,Pink_Noise_6_1.wav,Pink_Noise_6_2.wav,,,,,,,,,,,,,,,0,17,17,108,,,,,,,,,,,,,,,,,,,,,,,1394.3538874550723,None,1395.853663414251,None,1397.2371583119966,None,"squirrel
",1397.2371583119966,None,return,2.4335636026225984,1397.3205331009813,None,,,,,,,,,,,,,,,,,,,,,,,,,,,,,,,,,,,,,,,134,001,2023_Nov_14_1120,SpeechDraft1Carolyn_lessNoise_PlusLocalization,2021.2.3,59.98433350906526,
barn.wav,barn.mpg,barn,6,A,Pink_Noise_6_1.wav,Pink_Noise_6_2.wav,,,,,,,,,,,,,,,0,18,18,7,,,,,,,,,,,,,,,,,,,,,,,1399.7871662732214,None,1401.2868479122408,None,1402.6705460748635,None,car,1402.6705460748635,None,return,0.7282612300477922,1402.753856914118,None,,,,,,,,,,,,,,,,,,,,,,,,,,,,,,,,,,,,,,,134,001,2023_Nov_14_1120,SpeechDraft1Carolyn_lessNoise_PlusLocalization,2021.2.3,59.98433350906526,
foul.wav,foul.mpg,foul,4,AV,Pink_Noise_4_1.wav,Pink_Noise_4_2.wav,,,,,,,,,,,,,,,0,19,19,97,,,,,,,,,,,,,,,,,,,,,,,1403.5039562690072,None,1405.0036434908397,None,1406.3871740298346,None,foul,1406.3871740298346,None,return,1.3154924102127552,1406.4706496712752,None,,,,,,,,,,,,,,,,,,,,,,,,,,,,,,,,,,,,,,,134,001,2023_Nov_14_1120,SpeechDraft1Carolyn_lessNoise_PlusLocalization,2021.2.3,59.98433350906526,
dog.wav,dog.mpg,dog,1,AV,Pink_Noise_1_1.wav,Pink_Noise_1_2.wav,,,,,,,,,,,,,,,0,20,20,85,,,,,,,,,,,,,,,,,,,,,,,1407.8038710369729,None,1409.3036270989105,None,1410.6871169051155,None,dog,1410.6871169051155,None,return,2.0716734547168016,1410.770514845848,None,,,,,,,,,,,,,,,,,,,,,,,,,,,,,,,,,,,,,,,134,001,2023_Nov_14_1120,SpeechDraft1Carolyn_lessNoise_PlusLocalization,2021.2.3,59.98433350906526,
grim.wav,grim.mpg,grim,6,AV,Pink_Noise_6_1.wav,Pink_Noise_6_2.wav,,,,,,,,,,,,,,,0,21,21,67,,,,,,,,,,,,,,,,,,,,,,,1412.8705900991336,None,1414.3720903960057,None,1415.753812063951,None,crim,1415.753812063951,None,return,2.3809450077824295,1415.8371558310464,None,,,,,,,,,,,,,,,,,,,,,,,,,,,,,,,,,,,,,,,134,001,2023_Nov_14_1120,SpeechDraft1Carolyn_lessNoise_PlusLocalization,2021.2.3,59.98433350906526,
brief.wav,brief.mpg,brief,2,A,Pink_Noise_2_1.wav,Pink_Noise_2_2.wav,,,,,,,,,,,,,,,0,22,22,49,,,,,,,,,,,,,,,,,,,,,,,1418.2371454369277,None,1419.7377791041508,None,1421.120569438208,None,breathe,1421.120569438208,None,return,2.206297814846039,1421.2039568908513,None,,,,,,,,,,,,,,,,,,,,,,,,,,,,,,,,,,,,,,,134,001,2023_Nov_14_1120,SpeechDraft1Carolyn_lessNoise_PlusLocalization,2021.2.3,59.98433350906526,
fade.wav,fade.mpg,fade,1,A,Pink_Noise_1_1.wav,Pink_Noise_1_2.wav,,,,,,,,,,,,,,,0,23,23,15,,,,,,,,,,,,,,,,,,,,,,,1423.4372433498502,None,1424.9369565672241,None,1426.320583697874,None,fade,1426.320583697874,None,return,1.5581340556964278,1426.4039538581856,None,,,,,,,,,,,,,,,,,,,,,,,,,,,,,,,,,,,,,,,134,001,2023_Nov_14_1120,SpeechDraft1Carolyn_lessNoise_PlusLocalization,2021.2.3,59.98433350906526,
ham.wav,ham.mpg,ham,3,AV,Pink_Noise_3_1.wav,Pink_Noise_3_2.wav,,,,,,,,,,,,,,,0,24,24,61,,,,,,,,,,,,,,,,,,,,,,,1427.9873785530217,None,1429.486936565023,None,1430.870520196855,None,hair,1430.870520196855,None,return,2.0081799146719277,1430.9539105300792,None,,,,,,,,,,,,,,,,,,,,,,,,,,,,,,,,,,,,,,,134,001,2023_Nov_14_1120,SpeechDraft1Carolyn_lessNoise_PlusLocalization,2021.2.3,59.98433350906526,
glide.wav,glide.mpg,glide,2,A,Pink_Noise_2_1.wav,Pink_Noise_2_2.wav,,,,,,,,,,,,,,,0,25,25,0,,,,,,,,,,,,,,,,,,,,,,,1432.987252577208,None,1434.4870108119212,None,1435.8705274122767,None,glide,1435.8705274122767,None,return,2.080137114971876,1435.954055215232,None,,,,,,,,,,,,,,,,,,,,,,,,,,,,,,,,,,,,,,,134,001,2023_Nov_14_1120,SpeechDraft1Carolyn_lessNoise_PlusLocalization,2021.2.3,59.98433350906526,
fault.wav,fault.mpg,fault,3,A,Pink_Noise_3_1.wav,Pink_Noise_3_2.wav,,,,,,,,,,,,,,,0,26,26,3,,,,,,,,,,,,,,,,,,,,,,,1438.0539243118837,None,1439.553613350261,None,1440.937311860267,None,bald,1440.937311860267,None,return,2.525353486649692,1441.0207513459027,None,,,,,,,,,,,,,,,,,,,,,,,,,,,,,,,,,,,,,,,134,001,2023_Nov_14_1120,SpeechDraft1Carolyn_lessNoise_PlusLocalization,2021.2.3,59.98433350906526,
bend.wav,bend.mpg,bend,5,AV,Pink_Noise_5_1.wav,Pink_Noise_5_2.wav,,,,,,,,,,,,,,,0,27,27,75,,,,,,,,,,,,,,,,,,,,,,,1443.5706136580557,None,1445.0712529141456,None,1446.4539059270173,None,beg,1446.4539059270173,None,return,1.89699551416561,1446.5372068621218,None,,,,,,,,,,,,,,,,,,,,,,,,,,,,,,,,,,,,,,,134,001,2023_Nov_14_1120,SpeechDraft1Carolyn_lessNoise_PlusLocalization,2021.2.3,59.98433350906526,
crypt.wav,crypt.mpg,crypt,3,AV,Pink_Noise_3_1.wav,Pink_Noise_3_2.wav,,,,,,,,,,,,,,,0,28,28,115,,,,,,,,,,,,,,,,,,,,,,,1448.4539872002788,None,1449.9702780209482,None,1451.337278404273,None,"cripped
",1451.337278404273,None,return,3.253508165013045,1451.4205897659995,None,,,,,,,,,,,,,,,,,,,,,,,,,,,,,,,,,,,,,,,134,001,2023_Nov_14_1120,SpeechDraft1Carolyn_lessNoise_PlusLocalization,2021.2.3,59.98433350906526,
dice.wav,dice.mpg,dice,5,AV,Pink_Noise_5_1.wav,Pink_Noise_5_2.wav,,,,,,,,,,,,,,,0,29,29,77,,,,,,,,,,,,,,,,,,,,,,,1454.703959110193,None,1456.2050976990722,None,1457.5872154370882,None,desk,1457.5872154370882,None,return,1.8434534966945648,1457.6706385030411,None,,,,,,,,,,,,,,,,,,,,,,,,,,,,,,,,,,,,,,,134,001,2023_Nov_14_1120,SpeechDraft1Carolyn_lessNoise_PlusLocalization,2021.2.3,59.98433350906526,
glow.wav,glow.mpg,glow,6,AV,Pink_Noise_6_1.wav,Pink_Noise_6_2.wav,,,,,,,,,,,,,,,0,30,30,62,,,,,,,,,,,,,,,,,,,,,,,1459.5373147041537,None,1461.037030682899,None,1462.420499984175,None,glow,1462.420499984175,None,return,2.3301750500686467,1462.5039826170541,None,,,,,,,,,,,,,,,,,,,,,,,,,,,,,,,,,,,,,,,134,001,2023_Nov_14_1120,SpeechDraft1Carolyn_lessNoise_PlusLocalization,2021.2.3,59.98433350906526,
crack.wav,crack.mpg,crack,4,AV,Pink_Noise_4_1.wav,Pink_Noise_4_2.wav,,,,,,,,,,,,,,,0,31,31,81,,,,,,,,,,,,,,,,,,,,,,,1464.8539991951548,None,1466.3536507189274,None,1467.7373522212729,None,"crack
",1467.7373522212729,None,return,2.2694254107773304,1467.820678330958,None,,,,,,,,,,,,,,,,,,,,,,,,,,,,,,,,,,,,,,,134,001,2023_Nov_14_1120,SpeechDraft1Carolyn_lessNoise_PlusLocalization,2021.2.3,59.98433350906526,
creep.wav,creep.mpg,creep,4,A,Pink_Noise_4_1.wav,Pink_Noise_4_2.wav,,,,,,,,,,,,,,,0,32,32,41,,,,,,,,,,,,,,,,,,,,,,,1470.120773626957,None,1471.6203525038436,None,1473.0046535078436,None,see,1473.0046535078436,None,return,1.2989399242214859,1473.0872537051328,None,,,,,,,,,,,,,,,,,,,,,,,,,,,,,,,,,,,,,,,134,001,2023_Nov_14_1120,SpeechDraft1Carolyn_lessNoise_PlusLocalization,2021.2.3,59.98433350906526,
chow.wav,chow.mpg,chow,5,AV,Pink_Noise_5_1.wav,Pink_Noise_5_2.wav,,,,,,,,,,,,,,,0,33,33,86,,,,,,,,,,,,,,,,,,,,,,,1474.403935554903,None,1475.9203412490897,None,1477.303850601893,None,chow,1477.303850601893,None,return,3.6308327191509306,1477.387339273002,None,,,,,,,,,,,,,,,,,,,,,,,,,,,,,,,,,,,,,,,134,001,2023_Nov_14_1120,SpeechDraft1Carolyn_lessNoise_PlusLocalization,2021.2.3,59.98433350906526,
crew.wav,crew.mpg,crew,6,A,Pink_Noise_6_1.wav,Pink_Noise_6_2.wav,,,,,,,,,,,,,,,0,34,34,11,,,,,,,,,,,,,,,,,,,,,,,1481.0373294060118,None,1482.5536253149621,None,1483.9206296382472,None,think,1483.9206296382472,None,return,2.21413047099486,1484.0039756102487,None,,,,,,,,,,,,,,,,,,,,,,,,,,,,,,,,,,,,,,,134,001,2023_Nov_14_1120,SpeechDraft1Carolyn_lessNoise_PlusLocalization,2021.2.3,59.98433350906526,
bark.wav,bark.mpg,bark,3,A,Pink_Noise_3_1.wav,Pink_Noise_3_2.wav,,,,,,,,,,,,,,,0,35,35,10,,,,,,,,,,,,,,,,,,,,,,,1486.237277352251,None,1487.7370349932462,None,1489.1206075078808,None,fart,1489.1206075078808,None,return,2.862110541202128,1489.2040030770004,None,,,,,,,,,,,,,,,,,,,,,,,,,,,,,,,,,,,,,,,134,001,2023_Nov_14_1120,SpeechDraft1Carolyn_lessNoise_PlusLocalization,2021.2.3,59.98433350906526,
groom.wav,groom.mpg,groom,2,AV,Pink_Noise_2_1.wav,Pink_Noise_2_2.wav,,,,,,,,,,,,,,,0,36,36,72,,,,,,,,,,,,,,,,,,,,,,,1492.0873281122185,None,1493.5870786812156,None,1494.9706644290127,None,groom,1494.9706644290127,None,return,3.6040738010779023,1495.0540318018757,None,,,,,,,,,,,,,,,,,,,,,,,,,,,,,,,,,,,,,,,134,001,2023_Nov_14_1120,SpeechDraft1Carolyn_lessNoise_PlusLocalization,2021.2.3,59.98433350906526,
claim.wav,claim.mpg,claim,4,A,Pink_Noise_4_1.wav,Pink_Noise_4_2.wav,,,,,,,,,,,,,,,0,37,37,13,,,,,,,,,,,,,,,,,,,,,,,1498.6872502178885,None,1500.2036971570924,None,1501.5875114281662,None,"claim
",1501.5875114281662,None,return,2.835492304060608,1501.67061762698,None,,,,,,,,,,,,,,,,,,,,,,,,,,,,,,,,,,,,,,,134,001,2023_Nov_14_1120,SpeechDraft1Carolyn_lessNoise_PlusLocalization,2021.2.3,59.98433350906526,
badge.wav,badge.mpg,badge,1,AV,Pink_Noise_1_1.wav,Pink_Noise_1_2.wav,,,,,,,,,,,,,,,0,38,38,100,,,,,,,,,,,,,,,,,,,,,,,1504.53736479301,None,1506.0373425479047,None,1507.4206135170534,None,badge,1507.4206135170534,None,return,5.098156560212374,1507.5039397170767,None,,,,,,,,,,,,,,,,,,,,,,,,,,,,,,,,,,,,,,,134,001,2023_Nov_14_1120,SpeechDraft1Carolyn_lessNoise_PlusLocalization,2021.2.3,59.98433350906526,
globe.wav,globe.mpg,globe,5,AV,Pink_Noise_5_1.wav,Pink_Noise_5_2.wav,,,,,,,,,,,,,,,0,39,39,79,,,,,,,,,,,,,,,,,,,,,,,1512.6225380729884,None,1514.1370497099124,None,1515.5206027030945,None,globe,1515.5206027030945,None,return,6.054062523879111,1515.6040417822078,None,,,,,,,,,,,,,,,,,,,,,,,,,,,,,,,,,,,,,,,134,001,2023_Nov_14_1120,SpeechDraft1Carolyn_lessNoise_PlusLocalization,2021.2.3,59.98433350906526,
foil.wav,foil.mpg,foil,1,AV,Pink_Noise_1_1.wav,Pink_Noise_1_2.wav,,,,,,,,,,,,,,,0,40,40,60,,,,,,,,,,,,,,,,,,,,,,,1521.6873827688396,None,1523.2039360832423,None,1524.587287266273,None,"foil
",1524.587287266273,None,return,1.26733579300344,1524.6707696639933,None,,,,,,,,,,,,,,,,,,,,,,,,,,,,,,,,,,,,,,,134,001,2023_Nov_14_1120,SpeechDraft1Carolyn_lessNoise_PlusLocalization,2021.2.3,59.98433350906526,
built.wav,built.mpg,built,6,AV,Pink_Noise_6_1.wav,Pink_Noise_6_2.wav,,,,,,,,,,,,,,,0,41,41,71,,,,,,,,,,,,,,,,,,,,,,,1525.970678626094,None,1527.4703632001765,None,1528.8540668822825,None,dipp,1528.8540668822825,None,return,5.592750953976065,1528.937372038141,None,,,,,,,,,,,,,,,,,,,,,,,,,,,,,,,,,,,,,,,134,001,2023_Nov_14_1120,SpeechDraft1Carolyn_lessNoise_PlusLocalization,2021.2.3,59.98433350906526,
flat.wav,flat.mpg,flat,4,A,Pink_Noise_4_1.wav,Pink_Noise_4_2.wav,,,,,,,,,,,,,,,0,42,42,20,,,,,,,,,,,,,,,,,,,,,,,1534.5540384668857,None,1536.0704143098556,None,1537.4541413979605,None,flat,1537.4541413979605,None,return,1.4087903928011656,1537.537334445864,None,,,,,,,,,,,,,,,,,,,,,,,,,,,,,,,,,,,,,,,134,001,2023_Nov_14_1120,SpeechDraft1Carolyn_lessNoise_PlusLocalization,2021.2.3,59.98433350906526,
style.wav,style.mpg,style,2,AV,Pink_Noise_2_1.wav,Pink_Noise_2_2.wav,,,,,,,,,,,,,,,0,43,43,91,,,,,,,,,,,,,,,,,,,,,,,1538.9706867630593,None,1540.4705895520747,None,1541.8538667699322,None,stzle,1541.8538667699322,None,return,2.0166921499185264,1541.9374282802455,None,,,,,,,,,,,,,,,,,,,,,,,,,,,,,,,,,,,,,,,134,001,2023_Nov_14_1120,SpeechDraft1Carolyn_lessNoise_PlusLocalization,2021.2.3,59.98433350906526,
drive.wav,drive.mpg,drive,5,A,Pink_Noise_5_1.wav,Pink_Noise_5_2.wav,,,,,,,,,,,,,,,0,44,44,28,,,,,,,,,,,,,,,,,,,,,,,1543.9706877912395,None,1545.4871396841481,None,1546.87075358117,None,drag,1546.87075358117,None,return,2.392064190004021,1546.954025884159,None,,,,,,,,,,,,,,,,,,,,,,,,,,,,,,,,,,,,,,,134,001,2023_Nov_14_1120,SpeechDraft1Carolyn_lessNoise_PlusLocalization,2021.2.3,59.98433350906526,
brisk.wav,brisk.mpg,brisk,4,A,Pink_Noise_4_1.wav,Pink_Noise_4_2.wav,,,,,,,,,,,,,,,0,45,45,35,,,,,,,,,,,,,,,,,,,,,,,1549.3707224540412,None,1550.8704200200737,None,1552.254106190987,None,crisp,1552.254106190987,None,return,2.776728694792837,1552.3373609450646,None,,,,,,,,,,,,,,,,,,,,,,,,,,,,,,,,,,,,,,,134,001,2023_Nov_14_1120,SpeechDraft1Carolyn_lessNoise_PlusLocalization,2021.2.3,59.98433350906526,
beef.wav,beef.mpg,beef,1,AV,Pink_Noise_1_1.wav,Pink_Noise_1_2.wav,,,,,,,,,,,,,,,0,46,46,117,,,,,,,,,,,,,,,,,,,,,,,1555.1373960389756,None,1556.6538268690929,None,1558.0372914308682,None,beef,1558.0372914308682,None,return,1.0973335639573634,1558.1207699761726,None,,,,,,,,,,,,,,,,,,,,,,,,,,,,,,,,,,,,,,,134,001,2023_Nov_14_1120,SpeechDraft1Carolyn_lessNoise_PlusLocalization,2021.2.3,59.98433350906526,
led.wav,led.mpg,led,1,AV,Pink_Noise_1_1.wav,Pink_Noise_1_2.wav,,,,,,,,,,,,,,,0,47,47,65,,,,,,,,,,,,,,,,,,,,,,,1559.2374059390277,None,1560.753818999976,None,1562.1207428891212,None,led,1562.1207428891212,None,return,1.1500102481804788,1562.2040827670135,None,,,,,,,,,,,,,,,,,,,,,,,,,,,,,,,,,,,,,,,134,001,2023_Nov_14_1120,SpeechDraft1Carolyn_lessNoise_PlusLocalization,2021.2.3,59.98433350906526,
quart.wav,quart.mpg,quart,2,AV,Pink_Noise_2_1.wav,Pink_Noise_2_2.wav,,,,,,,,,,,,,,,0,48,48,102,,,,,,,,,,,,,,,,,,,,,,,1563.370809008833,None,1564.8873590258881,None,1566.2706752349623,None,cort,1566.2706752349623,None,return,4.528030497953296,1566.3540671709925,None,,,,,,,,,,,,,,,,,,,,,,,,,,,,,,,,,,,,,,,134,001,2023_Nov_14_1120,SpeechDraft1Carolyn_lessNoise_PlusLocalization,2021.2.3,59.98433350906526,
layer.wav,layer.mpg,layer,6,A,Pink_Noise_6_1.wav,Pink_Noise_6_2.wav,,,,,,,,,,,,,,,0,49,49,31,,,,,,,,,,,,,,,,,,,,,,,1570.9042571852915,None,1572.4205675008707,None,1573.8041248060763,None,r,1573.8041248060763,None,return,0.9786819629371166,1573.8874635640532,None,,,,,,,,,,,,,,,,,,,,,,,,,,,,,,,,,,,,,,,134,001,2023_Nov_14_1120,SpeechDraft1Carolyn_lessNoise_PlusLocalization,2021.2.3,59.98433350906526,
guilt.wav,guilt.mpg,guilt,3,AV,Pink_Noise_3_1.wav,Pink_Noise_3_2.wav,,,,,,,,,,,,,,,0,50,50,104,,,,,,,,,,,,,,,,,,,,,,,1574.8874137522653,None,1576.4037758689374,None,1577.7874223631807,None,goat,1577.7874223631807,None,return,2.5232922937721014,1577.8709126352333,None,,,,,,,,,,,,,,,,,,,,,,,,,,,,,,,,,,,,,,,134,001,2023_Nov_14_1120,SpeechDraft1Carolyn_lessNoise_PlusLocalization,2021.2.3,59.98433350906526,
broil.wav,broil.mpg,broil,4,AV,Pink_Noise_4_1.wav,Pink_Noise_4_2.wav,,,,,,,,,,,,,,,0,51,51,103,,,,,,,,,,,,,,,,,,,,,,,1580.4208822790533,None,1581.9371697562747,None,1583.3206403600052,None,squirrel,1583.3206403600052,None,return,4.174061066005379,1583.4041058202274,None,,,,,,,,,,,,,,,,,,,,,,,,,,,,,,,,,,,,,,,134,001,2023_Nov_14_1120,SpeechDraft1Carolyn_lessNoise_PlusLocalization,2021.2.3,59.98433350906526,
dump.wav,dump.mpg,dump,2,AV,Pink_Noise_2_1.wav,Pink_Noise_2_2.wav,,,,,,,,,,,,,,,0,52,52,76,,,,,,,,,,,,,,,,,,,,,,,1587.604149599094,None,1589.1205473681912,None,1590.5040733632632,None,dog,1590.5040733632632,None,return,1.1266563711687922,1590.5874650529586,None,,,,,,,,,,,,,,,,,,,,,,,,,,,,,,,,,,,,,,,134,001,2023_Nov_14_1120,SpeechDraft1Carolyn_lessNoise_PlusLocalization,2021.2.3,59.98433350906526,
burn.wav,burn.mpg,burn,2,A,Pink_Noise_2_1.wav,Pink_Noise_2_2.wav,,,,,,,,,,,,,,,0,53,53,55,,,,,,,,,,,,,,,,,,,,,,,1591.737445503939,None,1593.2539022220299,None,1594.6374282529578,None,bird,1594.6374282529578,None,return,2.0093372729606926,1594.7207590169273,None,,,,,,,,,,,,,,,,,,,,,,,,,,,,,,,,,,,,,,,134,001,2023_Nov_14_1120,SpeechDraft1Carolyn_lessNoise_PlusLocalization,2021.2.3,59.98433350906526,
skull.wav,skull.mpg,skull,1,A,Pink_Noise_1_1.wav,Pink_Noise_1_2.wav,,,,,,,,,,,,,,,0,54,54,27,,,,,,,,,,,,,,,,,,,,,,,1596.754145550076,None,1598.2705168179236,None,1599.654073473066,None,skull,1599.654073473066,None,return,3.2166101839393377,1599.737553277053,None,,,,,,,,,,,,,,,,,,,,,,,,,,,,,,,,,,,,,,,134,001,2023_Nov_14_1120,SpeechDraft1Carolyn_lessNoise_PlusLocalization,2021.2.3,59.98433350906526,
cook.wav,cook.mpg,cook,4,AV,Pink_Noise_4_1.wav,Pink_Noise_4_2.wav,,,,,,,,,,,,,,,0,55,55,88,,,,,,,,,,,,,,,,,,,,,,,1602.9707506280392,None,1604.487229180988,None,1605.870713146869,None,crust,1605.870713146869,None,return,1.2639781553298235,1605.9541510520503,None,,,,,,,,,,,,,,,,,,,,,,,,,,,,,,,,,,,,,,,134,001,2023_Nov_14_1120,SpeechDraft1Carolyn_lessNoise_PlusLocalization,2021.2.3,59.98433350906526,
flush.wav,flush.mpg,flush,2,AV,Pink_Noise_2_1.wav,Pink_Noise_2_2.wav,,,,,,,,,,,,,,,0,56,56,78,,,,,,,,,,,,,,,,,,,,,,,1607.2374461949803,None,1608.7390099610202,None,1610.1207584738731,None,blush,1610.1207584738731,None,return,2.6300127459689975,1610.2041860222816,None,,,,,,,,,,,,,,,,,,,,,,,,,,,,,,,,,,,,,,,134,001,2023_Nov_14_1120,SpeechDraft1Carolyn_lessNoise_PlusLocalization,2021.2.3,59.98433350906526,
duke.wav,duke.mpg,duke,3,A,Pink_Noise_3_1.wav,Pink_Noise_3_2.wav,,,,,,,,,,,,,,,0,57,57,33,,,,,,,,,,,,,,,,,,,,,,,1612.8542075911537,None,1614.3704829989001,None,1615.7542661949992,None,duke,1615.7542661949992,None,return,2.2445974540896714,1615.8375003691763,None,,,,,,,,,,,,,,,,,,,,,,,,,,,,,,,,,,,,,,,134,001,2023_Nov_14_1120,SpeechDraft1Carolyn_lessNoise_PlusLocalization,2021.2.3,59.98433350906526,
grape.wav,grape.mpg,grape,3,A,Pink_Noise_3_1.wav,Pink_Noise_3_2.wav,,,,,,,,,,,,,,,0,58,58,6,,,,,,,,,,,,,,,,,,,,,,,1618.104369459208,None,1619.6211372022517,None,1621.0041905152611,None,grape,1621.0041905152611,None,return,1.7626114850863814,1621.0874650408514,None,,,,,,,,,,,,,,,,,,,,,,,,,,,,,,,,,,,,,,,134,001,2023_Nov_14_1120,SpeechDraft1Carolyn_lessNoise_PlusLocalization,2021.2.3,59.98433350906526,
booth.wav,booth.mpg,booth,6,A,Pink_Noise_6_1.wav,Pink_Noise_6_2.wav,,,,,,,,,,,,,,,0,59,59,21,,,,,,,,,,,,,,,,,,,,,,,1622.8709306060337,None,1624.403926573228,None,1625.7876143101603,None,fish,1625.7876143101603,None,return,1.5393702909350395,1625.8708180971444,None,,,,,,,,,,,,,,,,,,,,,,,,,,,,,,,,,,,,,,,134,001,2023_Nov_14_1120,SpeechDraft1Carolyn_lessNoise_PlusLocalization,2021.2.3,59.98433350906526,
bloat.wav,bloat.mpg,bloat,4,AV,Pink_Noise_4_1.wav,Pink_Noise_4_2.wav,,,,,,,,,,,,,,,0,60,60,107,,,,,,,,,,,,,,,,,,,,,,,1627.4374913368374,None,1628.9539324571379,None,1630.3374593569897,None,float,1630.3374593569897,None,return,1.9812412532046437,1630.420840329025,None,,,,,,,,,,,,,,,,,,,,,,,,,,,,,,,,,,,,,,,134,001,2023_Nov_14_1120,SpeechDraft1Carolyn_lessNoise_PlusLocalization,2021.2.3,59.98433350906526,
pipe.wav,pipe.mpg,pipe,2,A,Pink_Noise_2_1.wav,Pink_Noise_2_2.wav,,,,,,,,,,,,,,,0,61,61,58,,,,,,,,,,,,,,,,,,,,,,,1632.4208739320748,None,1633.937321308069,None,1635.3209669608623,None,"pipe
",1635.3209669608623,None,return,4.501920565031469,1635.4041991382837,None,,,,,,,,,,,,,,,,,,,,,,,,,,,,,,,,,,,,,,,134,001,2023_Nov_14_1120,SpeechDraft1Carolyn_lessNoise_PlusLocalization,2021.2.3,59.98433350906526,
nine.wav,nine.mpg,nine,5,A,Pink_Noise_5_1.wav,Pink_Noise_5_2.wav,,,,,,,,,,,,,,,0,62,62,48,,,,,,,,,,,,,,,,,,,,,,,1639.9374909461476,None,1641.4539623982273,None,1642.8375429492444,None,dive,1642.8375429492444,None,return,2.257375962100923,1642.920823304914,None,,,,,,,,,,,,,,,,,,,,,,,,,,,,,,,,,,,,,,,134,001,2023_Nov_14_1120,SpeechDraft1Carolyn_lessNoise_PlusLocalization,2021.2.3,59.98433350906526,
coach.wav,coach.mpg,coach,4,A,Pink_Noise_4_1.wav,Pink_Noise_4_2.wav,,,,,,,,,,,,,,,0,63,63,50,,,,,,,,,,,,,,,,,,,,,,,1645.20416784985,None,1646.7205793429166,None,1648.104267762974,None,coach,1648.104267762974,None,return,1.926600726787001,1648.187511720229,None,,,,,,,,,,,,,,,,,,,,,,,,,,,,,,,,,,,,,,,134,001,2023_Nov_14_1120,SpeechDraft1Carolyn_lessNoise_PlusLocalization,2021.2.3,59.98433350906526,
clue.wav,clue.mpg,clue,6,A,Pink_Noise_6_1.wav,Pink_Noise_6_2.wav,,,,,,,,,,,,,,,0,64,64,44,,,,,,,,,,,,,,,,,,,,,,,1650.1376386042684,None,1651.6706063090824,None,1653.0552755659446,None,"squirrel
",1653.0552755659446,None,return,2.600557297002524,1653.1375363469124,None,,,,,,,,,,,,,,,,,,,,,,,,,,,,,,,,,,,,,,,134,001,2023_Nov_14_1120,SpeechDraft1Carolyn_lessNoise_PlusLocalization,2021.2.3,59.98433350906526,
dine.wav,dine.mpg,dine,2,A,Pink_Noise_2_1.wav,Pink_Noise_2_2.wav,,,,,,,,,,,,,,,0,65,65,9,,,,,,,,,,,,,,,,,,,,,,,1655.7708591991104,None,1657.2872821809724,None,1658.6708548059687,None,"dive
",1658.6708548059687,None,return,2.1839113449677825,1658.7541925702244,None,,,,,,,,,,,,,,,,,,,,,,,,,,,,,,,,,,,,,,,134,001,2023_Nov_14_1120,SpeechDraft1Carolyn_lessNoise_PlusLocalization,2021.2.3,59.98433350906526,
fine.wav,fine.mpg,fine,5,A,Pink_Noise_5_1.wav,Pink_Noise_5_2.wav,,,,,,,,,,,,,,,0,66,66,56,,,,,,,,,,,,,,,,,,,,,,,1660.9709413959645,None,1662.4872906501405,None,1663.8708955640905,None,m,1663.8708955640905,None,return,4.911800756119192,1663.9543081680313,None,,,,,,,,,,,,,,,,,,,,,,,,,,,,,,,,,,,,,,,134,001,2023_Nov_14_1120,SpeechDraft1Carolyn_lessNoise_PlusLocalization,2021.2.3,59.98433350906526,
gift.wav,gift.mpg,gift,4,AV,Pink_Noise_4_1.wav,Pink_Noise_4_2.wav,,,,,,,,,,,,,,,0,67,67,98,,,,,,,,,,,,,,,,,,,,,,,1668.8877476728521,None,1670.40408528829,None,1671.7874278579839,None,"gift
",1671.7874278579839,None,return,3.251193809323013,1671.8709104708396,None,,,,,,,,,,,,,,,,,,,,,,,,,,,,,,,,,,,,,,,134,001,2023_Nov_14_1120,SpeechDraft1Carolyn_lessNoise_PlusLocalization,2021.2.3,59.98433350906526,
climb.wav,climb.mpg,climb,3,AV,Pink_Noise_3_1.wav,Pink_Noise_3_2.wav,,,,,,,,,,,,,,,0,68,68,89,,,,,,,,,,,,,,,,,,,,,,,1675.154182089027,None,1676.6706689819694,None,1678.0543683608994,None,climb,1678.0543683608994,None,return,3.0565959149971604,1678.1376461219043,None,,,,,,,,,,,,,,,,,,,,,,,,,,,,,,,,,,,,,,,134,001,2023_Nov_14_1120,SpeechDraft1Carolyn_lessNoise_PlusLocalization,2021.2.3,59.98433350906526,
druid.wav,druid.mpg,druid,6,AV,Pink_Noise_6_1.wav,Pink_Noise_6_2.wav,,,,,,,,,,,,,,,0,69,69,69,,,,,,,,,,,,,,,,,,,,,,,1681.2209561229683,None,1682.7540114172734,None,1684.137574878987,None,seal,1684.137574878987,None,return,2.0132372858934104,1684.2209204290994,None,,,,,,,,,,,,,,,,,,,,,,,,,,,,,,,,,,,,,,,134,001,2023_Nov_14_1120,SpeechDraft1Carolyn_lessNoise_PlusLocalization,2021.2.3,59.98433350906526,
goal.wav,goal.mpg,goal,4,A,Pink_Noise_4_1.wav,Pink_Noise_4_2.wav,,,,,,,,,,,,,,,0,70,70,54,,,,,,,,,,,,,,,,,,,,,,,1686.2542734090239,None,1687.7707195142284,None,1689.1542673329823,None,bold,1689.1542673329823,None,return,1.9565940340980887,1689.2376048970036,None,,,,,,,,,,,,,,,,,,,,,,,,,,,,,,,,,,,,,,,134,001,2023_Nov_14_1120,SpeechDraft1Carolyn_lessNoise_PlusLocalization,2021.2.3,59.98433350906526,
box.wav,box.mpg,box,4,AV,Pink_Noise_4_1.wav,Pink_Noise_4_2.wav,,,,,,,,,,,,,,,0,71,71,68,,,,,,,,,,,,,,,,,,,,,,,1691.220889674034,None,1692.7374259438366,None,1694.1209571892396,None,bamst,1694.1209571892396,None,return,2.781908629927784,1694.2042484572157,None,,,,,,,,,,,,,,,,,,,,,,,,,,,,,,,,,,,,,,,134,001,2023_Nov_14_1120,SpeechDraft1Carolyn_lessNoise_PlusLocalization,2021.2.3,59.98433350906526,
tomb.wav,tomb.mpg,tomb,1,AV,Pink_Noise_1_1.wav,Pink_Noise_1_2.wav,,,,,,,,,,,,,,,0,72,72,92,,,,,,,,,,,,,,,,,,,,,,,1697.0043324609287,None,1698.5208036759868,None,1699.9041692311876,None,two,1699.9041692311876,None,return,5.278518023435026,1699.9875984559767,None,,,,,,,,,,,,,,,,,,,,,,,,,,,,,,,,,,,,,,,134,001,2023_Nov_14_1120,SpeechDraft1Carolyn_lessNoise_PlusLocalization,2021.2.3,59.98433350906526,
cab.wav,cab.mpg,cab,1,A,Pink_Noise_1_1.wav,Pink_Noise_1_2.wav,,,,,,,,,,,,,,,0,73,73,39,,,,,,,,,,,,,,,,,,,,,,,1705.287617768161,None,1706.8039778661914,None,1708.1876771640964,None,cab,1708.1876771640964,None,return,1.3791875359602273,1708.2709698122926,None,,,,,,,,,,,,,,,,,,,,,,,,,,,,,,,,,,,,,,,134,001,2023_Nov_14_1120,SpeechDraft1Carolyn_lessNoise_PlusLocalization,2021.2.3,59.98433350906526,
fat.wav,fat.mpg,fat,2,AV,Pink_Noise_2_1.wav,Pink_Noise_2_2.wav,,,,,,,,,,,,,,,0,74,74,95,,,,,,,,,,,,,,,,,,,,,,,1709.6708782380447,None,1711.1873636171222,None,1712.5723673109896,None,fat,1712.5723673109896,None,return,0.8118570572696626,1712.6542509049177,None,,,,,,,,,,,,,,,,,,,,,,,,,,,,,,,,,,,,,,,134,001,2023_Nov_14_1120,SpeechDraft1Carolyn_lessNoise_PlusLocalization,2021.2.3,59.98433350906526,
fee.wav,fee.mpg,fee,5,AV,Pink_Noise_5_1.wav,Pink_Noise_5_2.wav,,,,,,,,,,,,,,,0,75,75,73,,,,,,,,,,,,,,,,,,,,,,,1713.487552146893,None,1715.0042716390453,None,1716.3874898850918,None,beef,1716.3874898850918,None,return,1.6109642698429525,1716.471133475192,None,,,,,,,,,,,,,,,,,,,,,,,,,,,,,,,,,,,,,,,134,001,2023_Nov_14_1120,SpeechDraft1Carolyn_lessNoise_PlusLocalization,2021.2.3,59.98433350906526,
food.wav,food.mpg,food,4,AV,Pink_Noise_4_1.wav,Pink_Noise_4_2.wav,,,,,,,,,,,,,,,0,76,76,112,,,,,,,,,,,,,,,,,,,,,,,1718.1043734601699,None,1719.6205954500474,None,1721.0042210570537,None,beef,1721.0042210570537,None,return,1.6105077252723277,1721.0875828969292,None,,,,,,,,,,,,,,,,,,,,,,,,,,,,,,,,,,,,,,,134,001,2023_Nov_14_1120,SpeechDraft1Carolyn_lessNoise_PlusLocalization,2021.2.3,59.98433350906526,
blue.wav,blue.mpg,blue,2,AV,Pink_Noise_2_1.wav,Pink_Noise_2_2.wav,,,,,,,,,,,,,,,0,77,77,110,,,,,,,,,,,,,,,,,,,,,,,1722.721039223019,None,1724.2374127050862,None,1725.6209073099308,None,blue,1725.6209073099308,None,return,3.0899839270859957,1725.7042404818349,None,,,,,,,,,,,,,,,,,,,,,,,,,,,,,,,,,,,,,,,134,001,2023_Nov_14_1120,SpeechDraft1Carolyn_lessNoise_PlusLocalization,2021.2.3,59.98433350906526,
bowl.wav,bowl.mpg,bowl,6,AV,Pink_Noise_6_1.wav,Pink_Noise_6_2.wav,,,,,,,,,,,,,,,0,78,78,80,,,,,,,,,,,,,,,,,,,,,,,1728.8210314731114,None,1730.3708447450772,None,1731.7542949002236,None,"bald
",1731.7542949002236,None,return,1.7004364170134068,1731.8376597999595,None,,,,,,,,,,,,,,,,,,,,,,,,,,,,,,,,,,,,,,,134,001,2023_Nov_14_1120,SpeechDraft1Carolyn_lessNoise_PlusLocalization,2021.2.3,59.98433350906526,
frail.wav,frail.mpg,frail,5,AV,Pink_Noise_5_1.wav,Pink_Noise_5_2.wav,,,,,,,,,,,,,,,0,79,79,94,,,,,,,,,,,,,,,,,,,,,,,1733.5710307909176,None,1735.0874971281737,None,1736.4709117989987,None,strech,1736.4709117989987,None,return,2.311789670959115,1736.5543199949898,None,,,,,,,,,,,,,,,,,,,,,,,,,,,,,,,,,,,,,,,134,001,2023_Nov_14_1120,SpeechDraft1Carolyn_lessNoise_PlusLocalization,2021.2.3,59.98433350906526,
cry.wav,cry.mpg,cry,6,A,Pink_Noise_6_1.wav,Pink_Noise_6_2.wav,,,,,,,,,,,,,,,0,80,80,42,,,,,,,,,,,,,,,,,,,,,,,1738.8877408900298,None,1740.4207844161429,None,1741.804298907984,None,"r
",1741.804298907984,None,return,1.25047657918185,1741.8876084010117,None,,,,,,,,,,,,,,,,,,,,,,,,,,,,,,,,,,,,,,,134,001,2023_Nov_14_1120,SpeechDraft1Carolyn_lessNoise_PlusLocalization,2021.2.3,59.98433350906526,
bare.wav,bare.mpg,bare,1,A,Pink_Noise_1_1.wav,Pink_Noise_1_2.wav,,,,,,,,,,,,,,,0,81,81,51,,,,,,,,,,,,,,,,,,,,,,,1743.1876683281735,None,1744.7040102211758,None,1746.087625388056,None,bear,1746.087625388056,None,return,2.439205878879875,1746.1710259909742,None,,,,,,,,,,,,,,,,,,,,,,,,,,,,,,,,,,,,,,,134,001,2023_Nov_14_1120,SpeechDraft1Carolyn_lessNoise_PlusLocalization,2021.2.3,59.98433350906526,
blot.wav,blot.mpg,blot,5,AV,Pink_Noise_5_1.wav,Pink_Noise_5_2.wav,,,,,,,,,,,,,,,0,82,82,99,,,,,,,,,,,,,,,,,,,,,,,1748.6376497182064,None,1750.1874271160923,None,1751.570973584894,None,rocks,1751.570973584894,None,return,5.555880656931549,1751.6543261711486,None,,,,,,,,,,,,,,,,,,,,,,,,,,,,,,,,,,,,,,,134,001,2023_Nov_14_1120,SpeechDraft1Carolyn_lessNoise_PlusLocalization,2021.2.3,59.98433350906526,
beat.wav,beat.mpg,beat,5,AV,Pink_Noise_5_1.wav,Pink_Noise_5_2.wav,,,,,,,,,,,,,,,0,83,83,101,,,,,,,,,,,,,,,,,,,,,,,1757.2376997182146,None,1758.7540970812552,None,1760.1376420571469,None,beat,1760.1376420571469,None,return,2.093020571395755,1760.221061467193,None,,,,,,,,,,,,,,,,,,,,,,,,,,,,,,,,,,,,,,,134,001,2023_Nov_14_1120,SpeechDraft1Carolyn_lessNoise_PlusLocalization,2021.2.3,59.98433350906526,
pact.wav,pact.mpg,pact,6,A,Pink_Noise_6_1.wav,Pink_Noise_6_2.wav,,,,,,,,,,,,,,,0,84,84,12,,,,,,,,,,,,,,,,,,,,,,,1762.3377015609294,None,1763.8540939441882,None,1765.2377313519828,None,d,1765.2377313519828,None,return,4.209071788936853,1765.321011191234,None,,,,,,,,,,,,,,,,,,,,,,,,,,,,,,,,,,,,,,,134,001,2023_Nov_14_1120,SpeechDraft1Carolyn_lessNoise_PlusLocalization,2021.2.3,59.98433350906526,
floor.wav,floor.mpg,floor,3,A,Pink_Noise_3_1.wav,Pink_Noise_3_2.wav,,,,,,,,,,,,,,,0,85,85,37,,,,,,,,,,,,,,,,,,,,,,,1769.554350592196,None,1771.0716170738451,None,1772.4544029738754,None,"door
",1772.4544029738754,None,return,4.200403343420476,1772.5377051010728,None,,,,,,,,,,,,,,,,,,,,,,,,,,,,,,,,,,,,,,,134,001,2023_Nov_14_1120,SpeechDraft1Carolyn_lessNoise_PlusLocalization,2021.2.3,59.98433350906526,
frog.wav,frog.mpg,frog,2,A,Pink_Noise_2_1.wav,Pink_Noise_2_2.wav,,,,,,,,,,,,,,,0,86,86,47,,,,,,,,,,,,,,,,,,,,,,,1776.7710437080823,None,1778.304245563224,None,1779.6877390672453,None,frog,1779.6877390672453,None,return,2.879061645362526,1779.771049187053,None,,,,,,,,,,,,,,,,,,,,,,,,,,,,,,,,,,,,,,,134,001,2023_Nov_14_1120,SpeechDraft1Carolyn_lessNoise_PlusLocalization,2021.2.3,59.98433350906526,
chore.wav,chore.mpg,chore,1,A,Pink_Noise_1_1.wav,Pink_Noise_1_2.wav,,,,,,,,,,,,,,,0,87,87,2,,,,,,,,,,,,,,,,,,,,,,,1782.6710959179327,None,1784.18729483895,None,1785.5710181659088,None,chore,1785.5710181659088,None,return,3.011671300046146,1785.654424174223,None,,,,,,,,,,,,,,,,,,,,,,,,,,,,,,,,,,,,,,,134,001,2023_Nov_14_1120,SpeechDraft1Carolyn_lessNoise_PlusLocalization,2021.2.3,59.98433350906526,
squat.wav,squat.mpg,squat,1,AV,Pink_Noise_1_1.wav,Pink_Noise_1_2.wav,,,,,,,,,,,,,,,0,88,88,116,,,,,,,,,,,,,,,,,,,,,,,1788.6877774950117,None,1790.2040556161664,None,1791.5876771071926,None,squat,1791.5876771071926,None,return,2.79499776288867,1791.6711222520098,None,,,,,,,,,,,,,,,,,,,,,,,,,,,,,,,,,,,,,,,134,001,2023_Nov_14_1120,SpeechDraft1Carolyn_lessNoise_PlusLocalization,2021.2.3,59.98433350906526,
tool.wav,tool.mpg,tool,3,A,Pink_Noise_3_1.wav,Pink_Noise_3_2.wav,,,,,,,,,,,,,,,0,89,89,38,,,,,,,,,,,,,,,,,,,,,,,1794.487709576264,None,1796.0040557649918,None,1797.3877120371908,None,tool,1797.3877120371908,None,return,3.0108896121382713,1797.4712027600035,None,,,,,,,,,,,,,,,,,,,,,,,,,,,,,,,,,,,,,,,134,001,2023_Nov_14_1120,SpeechDraft1Carolyn_lessNoise_PlusLocalization,2021.2.3,59.98433350906526,
buzz.wav,buzz.mpg,buzz,5,A,Pink_Noise_5_1.wav,Pink_Noise_5_2.wav,,,,,,,,,,,,,,,0,90,90,29,,,,,,,,,,,,,,,,,,,,,,,1800.5044162650593,None,1802.0207178629935,None,1803.4043716578744,None,bnes,1803.4043716578744,None,return,4.690515452064574,1803.4876931938343,None,,,,,,,,,,,,,,,,,,,,,,,,,,,,,,,,,,,,,,,134,001,2023_Nov_14_1120,SpeechDraft1Carolyn_lessNoise_PlusLocalization,2021.2.3,59.98433350906526,
grip.wav,grip.mpg,grip,3,AV,Pink_Noise_3_1.wav,Pink_Noise_3_2.wav,,,,,,,,,,,,,,,0,91,91,93,,,,,,,,,,,,,,,,,,,,,,,1808.2043313602917,None,1809.7374426708557,None,1811.121030646842,None,grape,1811.121030646842,None,return,3.0058154491707683,1811.2043985072523,None,,,,,,,,,,,,,,,,,,,,,,,,,,,,,,,,,,,,,,,134,001,2023_Nov_14_1120,SpeechDraft1Carolyn_lessNoise_PlusLocalization,2021.2.3,59.98433350906526,
pop.wav,pop.mpg,pop,1,AV,Pink_Noise_1_1.wav,Pink_Noise_1_2.wav,,,,,,,,,,,,,,,0,92,92,118,,,,,,,,,,,,,,,,,,,,,,,1814.2377888699993,None,1815.7541015530005,None,1817.1377784600481,None,"pott
",1817.1377784600481,None,return,1.6529760207049549,1817.2211185898632,None,,,,,,,,,,,,,,,,,,,,,,,,,,,,,,,,,,,,,,,134,001,2023_Nov_14_1120,SpeechDraft1Carolyn_lessNoise_PlusLocalization,2021.2.3,59.98433350906526,
ton.wav,ton.mpg,ton,2,AV,Pink_Noise_2_1.wav,Pink_Noise_2_2.wav,,,,,,,,,,,,,,,0,93,93,119,,,,,,,,,,,,,,,,,,,,,,,1818.90442403825,None,1820.4208361809142,None,1821.8043268839829,None,tie,1821.8043268839829,None,return,3.994435470085591,1821.8876715591177,None,,,,,,,,,,,,,,,,,,,,,,,,,,,,,,,,,,,,,,,134,001,2023_Nov_14_1120,SpeechDraft1Carolyn_lessNoise_PlusLocalization,2021.2.3,59.98433350906526,
bug.wav,bug.mpg,bug,6,AV,Pink_Noise_6_1.wav,Pink_Noise_6_2.wav,,,,,,,,,,,,,,,0,94,94,82,,,,,,,,,,,,,,,,,,,,,,,1825.9044074341655,None,1827.4878780250438,None,1828.8713766238652,None,bar,1828.8713766238652,None,return,2.095430080778897,1828.9546732068993,None,,,,,,,,,,,,,,,,,,,,,,,,,,,,,,,,,,,,,,,134,001,2023_Nov_14_1120,SpeechDraft1Carolyn_lessNoise_PlusLocalization,2021.2.3,59.98433350906526,
flow.wav,flow.mpg,flow,3,AV,Pink_Noise_3_1.wav,Pink_Noise_3_2.wav,,,,,,,,,,,,,,,0,95,95,90,,,,,,,,,,,,,,,,,,,,,,,1831.071188783273,None,1832.6375786531717,None,1834.0214618272148,None,flow,1834.0214618272148,None,return,2.7297380240634084,1834.104456254281,None,,,,,,,,,,,,,,,,,,,,,,,,,,,,,,,,,,,,,,,134,001,2023_Nov_14_1120,SpeechDraft1Carolyn_lessNoise_PlusLocalization,2021.2.3,59.98433350906526,
fleet.wav,fleet.mpg,fleet,5,A,Pink_Noise_5_1.wav,Pink_Noise_5_2.wav,,,,,,,,,,,,,,,0,96,96,53,,,,,,,,,,,,,,,,,,,,,,,1836.8546463800594,None,1838.404096250888,None,1839.7879436188377,None,"feet
",1839.7879436188377,None,return,1.3546949299052358,1839.871404063888,None,,,,,,,,,,,,,,,,,,,,,,,,,,,,,,,,,,,,,,,134,001,2023_Nov_14_1120,SpeechDraft1Carolyn_lessNoise_PlusLocalization,2021.2.3,59.98433350906526,
grade.wav,grade.mpg,grade,3,AV,Pink_Noise_3_1.wav,Pink_Noise_3_2.wav,,,,,,,,,,,,,,,0,97,97,63,,,,,,,,,,,,,,,,,,,,,,,1841.2545476518571,None,1842.7875138381496,None,1844.1712534078397,None,grey,1844.1712534078397,None,return,3.3153565120883286,1844.2547804801725,None,,,,,,,,,,,,,,,,,,,,,,,,,,,,,,,,,,,,,,,134,001,2023_Nov_14_1120,SpeechDraft1Carolyn_lessNoise_PlusLocalization,2021.2.3,59.98433350906526,
strive.wav,strive.mpg,strive,1,A,Pink_Noise_1_1.wav,Pink_Noise_1_2.wav,,,,,,,,,,,,,,,0,98,98,45,,,,,,,,,,,,,,,,,,,,,,,1847.5878859269433,None,1849.1207918529399,None,1850.504847460892,None,strive,1850.504847460892,None,return,2.3262549261562526,1850.5878365579993,None,,,,,,,,,,,,,,,,,,,,,,,,,,,,,,,,,,,,,,,134,001,2023_Nov_14_1120,SpeechDraft1Carolyn_lessNoise_PlusLocalization,2021.2.3,59.98433350906526,
farm.wav,farm.mpg,farm,2,AV,Pink_Noise_2_1.wav,Pink_Noise_2_2.wav,,,,,,,,,,,,,,,0,99,99,70,,,,,,,,,,,,,,,,,,,,,,,1852.9380091321655,None,1854.454267701134,None,1855.837750542909,None,"farm
",1855.837750542909,None,return,1.3688803180120885,1855.9212155779824,None,,,,,,,,,,,,,,,,,,,,,,,,,,,,,,,,,,,,,,,134,001,2023_Nov_14_1120,SpeechDraft1Carolyn_lessNoise_PlusLocalization,2021.2.3,59.98433350906526,
cold.wav,cold.mpg,cold,3,A,Pink_Noise_3_1.wav,Pink_Noise_3_2.wav,,,,,,,,,,,,,,,0,100,100,5,,,,,,,,,,,,,,,,,,,,,,,1857.3211444551125,None,1858.8384407539852,None,1860.221163770184,None,cold,1860.221163770184,None,return,0.961481855250895,1860.304603592027,None,,,,,,,,,,,,,,,,,,,,,,,,,,,,,,,,,,,,,,,134,001,2023_Nov_14_1120,SpeechDraft1Carolyn_lessNoise_PlusLocalization,2021.2.3,59.98433350906526,
grind.wav,grind.mpg,grind,5,AV,Pink_Noise_5_1.wav,Pink_Noise_5_2.wav,,,,,,,,,,,,,,,0,101,101,64,,,,,,,,,,,,,,,,,,,,,,,1861.2879428649321,None,1862.804214214906,None,1864.1877632662654,None,grind,1864.1877632662654,None,return,1.0829666890203953,1864.271203494165,None,,,,,,,,,,,,,,,,,,,,,,,,,,,,,,,,,,,,,,,134,001,2023_Nov_14_1120,SpeechDraft1Carolyn_lessNoise_PlusLocalization,2021.2.3,59.98433350906526,
gate.wav,gate.mpg,gate,4,A,Pink_Noise_4_1.wav,Pink_Noise_4_2.wav,,,,,,,,,,,,,,,0,102,102,59,,,,,,,,,,,,,,,,,,,,,,,1865.3711906229146,None,1866.887442333158,None,1868.271214751061,None,"gate
",1868.271214751061,None,return,1.735613969154656,1868.354506149888,None,,,,,,,,,,,,,,,,,,,,,,,,,,,,,,,,,,,,,,,134,001,2023_Nov_14_1120,SpeechDraft1Carolyn_lessNoise_PlusLocalization,2021.2.3,59.98433350906526,
lie.wav,lie.mpg,lie,6,A,Pink_Noise_6_1.wav,Pink_Noise_6_2.wav,,,,,,,,,,,,,,,0,103,103,32,,,,,,,,,,,,,,,,,,,,,,,1870.1211401540786,None,1871.654554896988,None,1873.0378770292737,None,drive,1873.0378770292737,None,return,3.6405845219269395,1873.1215067519806,None,,,,,,,,,,,,,,,,,,,,,,,,,,,,,,,,,,,,,,,134,001,2023_Nov_14_1120,SpeechDraft1Carolyn_lessNoise_PlusLocalization,2021.2.3,59.98433350906526,
chick.wav,chick.mpg,chick,5,A,Pink_Noise_5_1.wav,Pink_Noise_5_2.wav,,,,,,,,,,,,,,,0,104,104,18,,,,,,,,,,,,,,,,,,,,,,,1876.7878803829663,None,1878.3041824810207,None,1879.6879487619735,None,s,1879.6879487619735,None,return,0.406908034812659,1879.7712856312282,None,,,,,,,,,,,,,,,,,,,,,,,,,,,,,,,,,,,,,,,134,001,2023_Nov_14_1120,SpeechDraft1Carolyn_lessNoise_PlusLocalization,2021.2.3,59.98433350906526,
dusk.wav,dusk.mpg,dusk,6,A,Pink_Noise_6_1.wav,Pink_Noise_6_2.wav,,,,,,,,,,,,,,,0,105,105,4,,,,,,,,,,,,,,,,,,,,,,,1880.2045418652706,None,1881.720821348019,None,1883.104536372237,None,"
",1883.104536372237,None,return,0.0703018270432949,1883.187801354099,None,,,,,,,,,,,,,,,,,,,,,,,,,,,,,,,,,,,,,,,134,001,2023_Nov_14_1120,SpeechDraft1Carolyn_lessNoise_PlusLocalization,2021.2.3,59.98433350906526,
cling.wav,cling.mpg,cling,1,A,Pink_Noise_1_1.wav,Pink_Noise_1_2.wav,,,,,,,,,,,,,,,0,106,106,1,,,,,,,,,,,,,,,,,,,,,,,1883.2878425428644,None,1884.8042127620429,None,1886.1878987862729,None,cling,1886.1878987862729,None,return,2.7949071805924177,1886.2711965912022,None,,,,,,,,,,,,,,,,,,,,,,,,,,,,,,,,,,,,,,,134,001,2023_Nov_14_1120,SpeechDraft1Carolyn_lessNoise_PlusLocalization,2021.2.3,59.98433350906526,
chunk.wav,chunk.mpg,chunk,3,AV,Pink_Noise_3_1.wav,Pink_Noise_3_2.wav,,,,,,,,,,,,,,,0,107,107,105,,,,,,,,,,,,,,,,,,,,,,,1889.0879564820789,None,1890.6042799451388,None,1891.9879200942814,None,chunk,1891.9879200942814,None,return,3.13088285503909,1892.0712195672095,None,,,,,,,,,,,,,,,,,,,,,,,,,,,,,,,,,,,,,,,134,001,2023_Nov_14_1120,SpeechDraft1Carolyn_lessNoise_PlusLocalization,2021.2.3,59.98433350906526,
thief.wav,thief.mpg,thief,1,A,Pink_Noise_1_1.wav,Pink_Noise_1_2.wav,,,,,,,,,,,,,,,0,108,108,14,,,,,,,,,,,,,,,,,,,,,,,1895.2212314452045,None,1896.7376362401992,None,1898.1212185961194,None,thief,1898.1212185961194,None,return,2.8294226080179214,1898.2047640159726,None,,,,,,,,,,,,,,,,,,,,,,,,,,,,,,,,,,,,,,,134,001,2023_Nov_14_1120,SpeechDraft1Carolyn_lessNoise_PlusLocalization,2021.2.3,59.98433350906526,
dune.wav,dune.mpg,dune,5,A,Pink_Noise_5_1.wav,Pink_Noise_5_2.wav,,,,,,,,,,,,,,,0,109,109,22,,,,,,,,,,,,,,,,,,,,,,,1901.0545992171392,None,1902.5709887370467,None,1903.9545793039724,None,doo,1903.9545793039724,None,return,2.756340983789414,1904.0379305020906,None,,,,,,,,,,,,,,,,,,,,,,,,,,,,,,,,,,,,,,,134,001,2023_Nov_14_1120,SpeechDraft1Carolyn_lessNoise_PlusLocalization,2021.2.3,59.98433350906526,
chess.wav,chess.mpg,chess,5,A,Pink_Noise_5_1.wav,Pink_Noise_5_2.wav,,,,,,,,,,,,,,,0,110,110,24,,,,,,,,,,,,,,,,,,,,,,,1906.8213372919708,None,1908.3377195629291,None,1909.7212762990966,None,chest,1909.7212762990966,None,return,2.389555751811713,1909.8046164349653,None,,,,,,,,,,,,,,,,,,,,,,,,,,,,,,,,,,,,,,,134,001,2023_Nov_14_1120,SpeechDraft1Carolyn_lessNoise_PlusLocalization,2021.2.3,59.98433350906526,
stain.wav,stain.mpg,stain,3,A,Pink_Noise_3_1.wav,Pink_Noise_3_2.wav,,,,,,,,,,,,,,,0,111,111,34,,,,,,,,,,,,,,,,,,,,,,,1912.2211815519258,None,1913.7375795282423,None,1915.1212393329479,None,stain,1915.1212393329479,None,return,1.7655844907276332,1915.204581438098,None,,,,,,,,,,,,,,,,,,,,,,,,,,,,,,,,,,,,,,,134,001,2023_Nov_14_1120,SpeechDraft1Carolyn_lessNoise_PlusLocalization,2021.2.3,59.98433350906526,
fright.wav,fright.mpg,fright,2,A,Pink_Noise_2_1.wav,Pink_Noise_2_2.wav,,,,,,,,,,,,,,,0,112,112,43,,,,,,,,,,,,,,,,,,,,,,,1916.987884229049,None,1918.520958066918,None,1919.904600340873,None,bright,1919.904600340873,None,return,2.654208517167717,1919.987888453994,None,,,,,,,,,,,,,,,,,,,,,,,,,,,,,,,,,,,,,,,134,001,2023_Nov_14_1120,SpeechDraft1Carolyn_lessNoise_PlusLocalization,2021.2.3,59.98433350906526,
jam.wav,jam.mpg,jam,5,AV,Pink_Noise_5_1.wav,Pink_Noise_5_2.wav,,,,,,,,,,,,,,,0,113,113,106,,,,,,,,,,,,,,,,,,,,,,,1922.6711709881201,None,1924.187865966931,None,1925.5712874559686,None,jam,1925.5712874559686,None,return,1.611531828995794,1925.6545785390772,None,,,,,,,,,,,,,,,,,,,,,,,,,,,,,,,,,,,,,,,134,001,2023_Nov_14_1120,SpeechDraft1Carolyn_lessNoise_PlusLocalization,2021.2.3,59.98433350906526,
gain.wav,gain.mpg,gain,3,A,Pink_Noise_3_1.wav,Pink_Noise_3_2.wav,,,,,,,,,,,,,,,0,114,114,23,,,,,,,,,,,,,,,,,,,,,,,1927.2879171650857,None,1928.8209695289843,None,1930.1879079332575,None,gay,1930.1879079332575,None,return,2.3708174456842244,1930.271270015277,None,,,,,,,,,,,,,,,,,,,,,,,,,,,,,,,,,,,,,,,134,001,2023_Nov_14_1120,SpeechDraft1Carolyn_lessNoise_PlusLocalization,2021.2.3,59.98433350906526,
stone.wav,stone.mpg,stone,4,A,Pink_Noise_4_1.wav,Pink_Noise_4_2.wav,,,,,,,,,,,,,,,0,115,115,46,,,,,,,,,,,,,,,,,,,,,,,1932.6712579550222,None,1934.1876274221577,None,1935.5712840878405,None,dtove,1935.5712840878405,None,return,4.307475801091641,1935.6546052899212,None,,,,,,,,,,,,,,,,,,,,,,,,,,,,,,,,,,,,,,,134,001,2023_Nov_14_1120,SpeechDraft1Carolyn_lessNoise_PlusLocalization,2021.2.3,59.98433350906526,
dip.wav,dip.mpg,dip,2,AV,Pink_Noise_2_1.wav,Pink_Noise_2_2.wav,,,,,,,,,,,,,,,0,116,116,84,,,,,,,,,,,,,,,,,,,,,,,1939.9880565740168,None,1941.504437033087,None,1942.8878847220913,None,dip,1942.8878847220913,None,return,2.4389323121868074,1942.9712683642283,None,,,,,,,,,,,,,,,,,,,,,,,,,,,,,,,,,,,,,,,134,001,2023_Nov_14_1120,SpeechDraft1Carolyn_lessNoise_PlusLocalization,2021.2.3,59.98433350906526,
blob.wav,blob.mpg,blob,4,AV,Pink_Noise_4_1.wav,Pink_Noise_4_2.wav,,,,,,,,,,,,,,,0,117,117,114,,,,,,,,,,,,,,,,,,,,,,,1945.4379443498328,None,1946.9548826832324,None,1948.3378172311932,None,blobb,1948.3378172311932,None,return,3.132816064171493,1948.4213160662912,None,,,,,,,,,,,,,,,,,,,,,,,,,,,,,,,,,,,,,,,134,001,2023_Nov_14_1120,SpeechDraft1Carolyn_lessNoise_PlusLocalization,2021.2.3,59.98433350906526,
cork.wav,cork.mpg,cork,1,A,Pink_Noise_1_1.wav,Pink_Noise_1_2.wav,,,,,,,,,,,,,,,0,118,118,16,,,,,,,,,,,,,,,,,,,,,,,1951.5713843801059,None,1953.1211115601473,None,1954.5046781920828,None,kork,1954.5046781920828,None,return,1.9661675062961876,1954.5879980898462,None,,,,,,,,,,,,,,,,,,,,,,,,,,,,,,,,,,,,,,,134,001,2023_Nov_14_1120,SpeechDraft1Carolyn_lessNoise_PlusLocalization,2021.2.3,59.98433350906526,
catch.wav,catch.mpg,catch,6,AV,Pink_Noise_6_1.wav,Pink_Noise_6_2.wav,,,,,,,,,,,,,,,0,119,119,113,,,,,,,,,,,,,,,,,,,,,,,1956.571250682231,None,1958.087953911163,None,1959.4711822411045,None,"relax
",1959.4711822411045,None,return,2.3034757678397,1959.5546267260797,None,,,,,,,,,,,,,,,,,,,,,,,,,,,,,,,,,,,,,,,134,001,2023_Nov_14_1120,SpeechDraft1Carolyn_lessNoise_PlusLocalization,2021.2.3,59.98433350906526,
,,,,,,,,,,,,,,,,,,,,,,,,,,,,,,,,,,,,,,,,,,,,,,,,,,,,,,,,,,,,,,,,,,space,15.710770196747035,1961.971319608856,None,,,,,,,,,,,,,,,,,,,,,,,,,,,,,134,001,2023_Nov_14_1120,SpeechDraft1Carolyn_lessNoise_PlusLocalization,2021.2.3,59.98433350906526,
,,,,,,,,farRight,19.1,4,ch1Sound_localizationTask.wav,19.1,"(1237, 878)","(277,-202)",285,-338,,,,,,,,,0,0,0,6,,,,,,,,,,,,,,,,,,,,,,,,,,,,,,,,,,,,,,,,,,1961.971319608856,None,1977.7211043350399,None,1978.8210426848382,None,1979.7543362290598,None,1.457142857142857,3.5861606965772808,1979.7543362290598,None,,,,,,,,,,,,,,,,,134,001,2023_Nov_14_1120,SpeechDraft1Carolyn_lessNoise_PlusLocalization,2021.2.3,59.98433350906526,
,,,,,,,,midRight,13.0,3,ch1Sound_localizationTask.wav,13.0,"(1142, 878)","(182, -202)",190,-338,,,,,,,,,0,1,1,5,,,,,,,,,,,,,,,,,,,,,,,,,,,,,,,,,,,,,,,,,,,,1983.338051815983,None,1984.4378185961396,None,1985.3709960919805,None,1.752910052910053,1.351843514945358,1985.3709960919805,None,,,,,,,,,,,,,,,,,134,001,2023_Nov_14_1120,SpeechDraft1Carolyn_lessNoise_PlusLocalization,2021.2.3,59.98433350906526,
,,,,,,,,center,0.0,6,ch1Sound_localizationTask.wav,0.0,"(952, 878)","(-8,-202)",0,-338,,,,,,,,,0,2,2,3,,,,,,,,,,,,,,,,,,,,,,,,,,,,,,,,,,,,,,,,,,,,1986.7543370979838,None,1987.8543691230007,None,1988.7711214702576,None,1.4735449735449735,1.1330042500048876,1988.7711214702576,None,,,,,,,,,,,,,,,,,134,001,2023_Nov_14_1120,SpeechDraft1Carolyn_lessNoise_PlusLocalization,2021.2.3,59.98433350906526,
,,,,,,,,nearLeft,-6.5,1,ch1Sound_localizationTask.wav,-6.5,"(857, 878)","(-103,-202)",-95,-338,,,,,,,,,0,3,3,2,,,,,,,,,,,,,,,,,,,,,,,,,,,,,,,,,,,,,,,,,,,,1989.9051294089295,None,1991.0043924711645,None,1991.937858697027,None,1.4502645502645501,0.7657124437391758,1991.937858697027,None,,,,,,,,,,,,,,,,,134,001,2023_Nov_14_1120,SpeechDraft1Carolyn_lessNoise_PlusLocalization,2021.2.3,59.98433350906526,
,,,,,,,,farLeft,-19.1,5,ch1Sound_localizationTask.wav,-19.1,"(667, 878)","(-293,-202)",-285,-338,,,,,,,,,0,4,4,0,,,,,,,,,,,,,,,,,,,,,,,,,,,,,,,,,,,,,,,,,,,,1992.7047106991522,None,1993.804395176936,None,1994.7377337669022,None,1.1746031746031746,0.8167185047641397,1994.7377337669022,None,,,,,,,,,,,,,,,,,134,001,2023_Nov_14_1120,SpeechDraft1Carolyn_lessNoise_PlusLocalization,2021.2.3,59.98433350906526,
,,,,,,,,nearRight,6.5,0,ch1Sound_localizationTask.wav,6.5,"(1047, 878)","(87, -202)",95,-338,,,,,,,,,0,5,5,4,,,,,,,,,,,,,,,,,,,,,,,,,,,,,,,,,,,,,,,,,,,,1995.571403616108,None,1996.6710498309694,None,1997.6044204081409,None,1.6174603174603175,1.049279697239399,1997.6044204081409,None,,,,,,,,,,,,,,,,,134,001,2023_Nov_14_1120,SpeechDraft1Carolyn_lessNoise_PlusLocalization,2021.2.3,59.98433350906526,
,,,,,,,,center,0.0,6,ch1Sound_localizationTask.wav,0.0,"(952, 878)","(-8,-202)",0,-338,,,,,,,,,0,6,6,3,,,,,,,,,,,,,,,,,,,,,,,,,,,,,,,,,,,,,,,,,,,,1998.655117496848,None,1999.7545033032075,None,2000.6877187960781,None,1.5216931216931218,0.6319382162764668,2000.6877187960781,None,,,,,,,,,,,,,,,,,134,001,2023_Nov_14_1120,SpeechDraft1Carolyn_lessNoise_PlusLocalization,2021.2.3,59.98433350906526,
,,,,,,,,midLeft,-13.0,2,ch1Sound_localizationTask.wav,-13.0,"(762, 878)","(-198,-202)",-190,-338,,,,,,,,,1,0,7,1,,,,,,,,,,,,,,,,,,,,,,,,,,,,,,,,,,,,,,,,,,,,2001.3214139770716,None,2002.4211353482679,None,2003.3544391291216,None,1.3486772486772487,0.6669590310193598,2003.3544391291216,None,,,,,,,,,,,,,,,,,134,001,2023_Nov_14_1120,SpeechDraft1Carolyn_lessNoise_PlusLocalization,2021.2.3,59.98433350906526,
,,,,,,,,farLeft,-19.1,5,ch1Sound_localizationTask.wav,-19.1,"(667, 878)","(-293,-202)",-285,-338,,,,,,,,,1,1,8,0,,,,,,,,,,,,,,,,,,,,,,,,,,,,,,,,,,,,,,,,,,,,2004.038054636214,None,2005.1377359051257,None,2006.0711365249008,None,1.2116402116402116,0.6152889379300177,2006.0711365249008,None,,,,,,,,,,,,,,,,,134,001,2023_Nov_14_1120,SpeechDraft1Carolyn_lessNoise_PlusLocalization,2021.2.3,59.98433350906526,
,,,,,,,,farRight,19.1,4,ch1Sound_localizationTask.wav,19.1,"(1237, 878)","(277,-202)",285,-338,,,,,,,,,1,2,9,6,,,,,,,,,,,,,,,,,,,,,,,,,,,,,,,,,,,,,,,,,,,,2006.6880924589932,None,2007.787765729241,None,2008.7210213220678,None,1.7354497354497354,1.3993213353678584,2008.7210213220678,None,,,,,,,,,,,,,,,,,134,001,2023_Nov_14_1120,SpeechDraft1Carolyn_lessNoise_PlusLocalization,2021.2.3,59.98433350906526,
,,,,,,,,farLeft,-19.1,5,ch1Sound_localizationTask.wav,-19.1,"(667, 878)","(-293,-202)",-285,-338,,,,,,,,,1,3,10,0,,,,,,,,,,,,,,,,,,,,,,,,,,,,,,,,,,,,,,,,,,,,2010.1214034729637,None,2011.2210449818522,None,2012.154339114204,None,1.2,0.8867436279542744,2012.154339114204,None,,,,,,,,,,,,,,,,,134,001,2023_Nov_14_1120,SpeechDraft1Carolyn_lessNoise_PlusLocalization,2021.2.3,59.98433350906526,
,,,,,,,,midRight,13.0,3,ch1Sound_localizationTask.wav,13.0,"(1142, 878)","(182, -202)",190,-338,,,,,,,,,1,4,11,5,,,,,,,,,,,,,,,,,,,,,,,,,,,,,,,,,,,,,,,,,,,,2013.0558004020713,None,2014.1711085089482,None,2015.087868208997,None,1.716931216931217,1.1498528351075947,2015.087868208997,None,,,,,,,,,,,,,,,,,134,001,2023_Nov_14_1120,SpeechDraft1Carolyn_lessNoise_PlusLocalization,2021.2.3,59.98433350906526,
,,,,,,,,midLeft,-13.0,2,ch1Sound_localizationTask.wav,-13.0,"(762, 878)","(-198,-202)",-190,-338,,,,,,,,,1,5,12,1,,,,,,,,,,,,,,,,,,,,,,,,,,,,,,,,,,,,,,,,,,,,2016.2383504151367,None,2017.3378581772558,None,2018.2711196052842,None,1.1814814814814816,0.8002739399671555,2018.2711196052842,None,,,,,,,,,,,,,,,,,134,001,2023_Nov_14_1120,SpeechDraft1Carolyn_lessNoise_PlusLocalization,2021.2.3,59.98433350906526,
,,,,,,,,nearLeft,-6.5,1,ch1Sound_localizationTask.wav,-6.5,"(857, 878)","(-103,-202)",-95,-338,,,,,,,,,1,6,13,2,,,,,,,,,,,,,,,,,,,,,,,,,,,,,,,,,,,,,,,,,,,,2019.0725293122232,None,2020.1877391319722,None,2021.1044247779064,None,1.4666666666666668,1.3823935370892286,2021.1044247779064,None,,,,,,,,,,,,,,,,,134,001,2023_Nov_14_1120,SpeechDraft1Carolyn_lessNoise_PlusLocalization,2021.2.3,59.98433350906526,
,,,,,,,,nearRight,6.5,0,ch1Sound_localizationTask.wav,6.5,"(1047, 878)","(87, -202)",95,-338,,,,,,,,,2,0,14,4,,,,,,,,,,,,,,,,,,,,,,,,,,,,,,,,,,,,,,,,,,,,2022.488266472239,None,2023.5878338571638,None,2024.5211105998605,None,1.5206349206349206,0.6663280939683318,2024.5211105998605,None,,,,,,,,,,,,,,,,,134,001,2023_Nov_14_1120,SpeechDraft1Carolyn_lessNoise_PlusLocalization,2021.2.3,59.98433350906526,
,,,,,,,,nearLeft,-6.5,1,ch1Sound_localizationTask.wav,-6.5,"(857, 878)","(-103,-202)",-95,-338,,,,,,,,,2,1,15,2,,,,,,,,,,,,,,,,,,,,,,,,,,,,,,,,,,,,,,,,,,,,2025.1880741328932,None,2026.2878543301485,None,2027.2211201032624,None,1.435978835978836,0.8497308860532939,2027.2211201032624,None,,,,,,,,,,,,,,,,,134,001,2023_Nov_14_1120,SpeechDraft1Carolyn_lessNoise_PlusLocalization,2021.2.3,59.98433350906526,
,,,,,,,,center,0.0,6,ch1Sound_localizationTask.wav,0.0,"(952, 878)","(-8,-202)",0,-338,,,,,,,,,2,2,16,3,,,,,,,,,,,,,,,,,,,,,,,,,,,,,,,,,,,,,,,,,,,,2028.0713816229254,None,2029.1711958181113,None,2030.1044140448794,None,1.4333333333333333,0.6825163192115724,2030.1044140448794,None,,,,,,,,,,,,,,,,,134,001,2023_Nov_14_1120,SpeechDraft1Carolyn_lessNoise_PlusLocalization,2021.2.3,59.98433350906526,
,,,,,,,,nearLeft,-6.5,1,ch1Sound_localizationTask.wav,-6.5,"(857, 878)","(-103,-202)",-95,-338,,,,,,,,,2,3,17,2,,,,,,,,,,,,,,,,,,,,,,,,,,,,,,,,,,,,,,,,,,,,2030.7881158730015,None,2031.8877693628892,None,2032.82113077119,None,1.4322751322751324,0.38297741394490004,2032.82113077119,None,,,,,,,,,,,,,,,,,134,001,2023_Nov_14_1120,SpeechDraft1Carolyn_lessNoise_PlusLocalization,2021.2.3,59.98433350906526,
,,,,,,,,nearLeft,-6.5,1,ch1Sound_localizationTask.wav,-6.5,"(857, 878)","(-103,-202)",-95,-338,,,,,,,,,2,4,18,2,,,,,,,,,,,,,,,,,,,,,,,,,,,,,,,,,,,,,,,,,,,,2033.204837067984,None,2034.3045106022619,None,2035.2378314058296,None,1.4322751322751324,0.38305729907006025,2035.2378314058296,None,,,,,,,,,,,,,,,,,134,001,2023_Nov_14_1120,SpeechDraft1Carolyn_lessNoise_PlusLocalization,2021.2.3,59.98433350906526,
,,,,,,,,nearRight,6.5,0,ch1Sound_localizationTask.wav,6.5,"(1047, 878)","(87, -202)",95,-338,,,,,,,,,2,5,19,4,,,,,,,,,,,,,,,,,,,,,,,,,,,,,,,,,,,,,,,,,,,,2035.6215251539834,None,2036.7211284548976,None,2037.6546308551915,None,1.4788359788359788,0.5496602300554514,2037.6546308551915,None,,,,,,,,,,,,,,,,,134,001,2023_Nov_14_1120,SpeechDraft1Carolyn_lessNoise_PlusLocalization,2021.2.3,59.98433350906526,
,,,,,,,,nearLeft,-6.5,1,ch1Sound_localizationTask.wav,-6.5,"(857, 878)","(-103,-202)",-95,-338,,,,,,,,,2,6,20,2,,,,,,,,,,,,,,,,,,,,,,,,,,,,,,,,,,,,,,,,,,,,2038.204703043215,None,2039.3044615662657,None,2040.237881984096,None,1.4058201058201059,0.5164761249907315,2040.237881984096,None,,,,,,,,,,,,,,,,,134,001,2023_Nov_14_1120,SpeechDraft1Carolyn_lessNoise_PlusLocalization,2021.2.3,59.98433350906526,
,,,,,,,,center,0.0,6,ch1Sound_localizationTask.wav,0.0,"(952, 878)","(-8,-202)",0,-338,,,,,,,,,3,0,21,3,,,,,,,,,,,,,,,,,,,,,,,,,,,,,,,,,,,,,,,,,,,,2040.7714001778513,None,2041.871191663202,None,2042.8044752269052,None,1.4534391534391533,0.5156167261302471,2042.8044752269052,None,,,,,,,,,,,,,,,,,134,001,2023_Nov_14_1120,SpeechDraft1Carolyn_lessNoise_PlusLocalization,2021.2.3,59.98433350906526,
,,,,,,,,nearRight,6.5,0,ch1Sound_localizationTask.wav,6.5,"(1047, 878)","(87, -202)",95,-338,,,,,,,,,3,1,22,4,,,,,,,,,,,,,,,,,,,,,,,,,,,,,,,,,,,,,,,,,,,,2043.3215138469823,None,2044.4211911712773,None,2045.3545771902427,None,1.506878306878307,0.4986116993241012,2045.3545771902427,None,,,,,,,,,,,,,,,,,134,001,2023_Nov_14_1120,SpeechDraft1Carolyn_lessNoise_PlusLocalization,2021.2.3,59.98433350906526,
,,,,,,,,center,0.0,6,ch1Sound_localizationTask.wav,0.0,"(952, 878)","(-8,-202)",0,-338,,,,,,,,,3,2,23,3,,,,,,,,,,,,,,,,,,,,,,,,,,,,,,,,,,,,,,,,,,,,2045.8547594579868,None,2046.9545651860535,None,2047.8878319980577,None,1.4873015873015873,0.7325807819142938,2047.8878319980577,None,,,,,,,,,,,,,,,,,134,001,2023_Nov_14_1120,SpeechDraft1Carolyn_lessNoise_PlusLocalization,2021.2.3,59.98433350906526,
,,,,,,,,midLeft,-13.0,2,ch1Sound_localizationTask.wav,-13.0,"(762, 878)","(-198,-202)",-190,-338,,,,,,,,,3,3,24,1,,,,,,,,,,,,,,,,,,,,,,,,,,,,,,,,,,,,,,,,,,,,2048.6214539832436,None,2049.721065700054,None,2050.6544914492406,None,1.3761904761904762,0.6659088390879333,2050.6544914492406,None,,,,,,,,,,,,,,,,,134,001,2023_Nov_14_1120,SpeechDraft1Carolyn_lessNoise_PlusLocalization,2021.2.3,59.98433350906526,
,,,,,,,,nearRight,6.5,0,ch1Sound_localizationTask.wav,6.5,"(1047, 878)","(87, -202)",95,-338,,,,,,,,,3,4,25,4,,,,,,,,,,,,,,,,,,,,,,,,,,,,,,,,,,,,,,,,,,,,2051.3213802971877,None,2052.4210948939435,None,2053.3544678241014,None,1.471957671957672,0.6996799469925463,2053.3544678241014,None,,,,,,,,,,,,,,,,,134,001,2023_Nov_14_1120,SpeechDraft1Carolyn_lessNoise_PlusLocalization,2021.2.3,59.98433350906526,
,,,,,,,,midRight,13.0,3,ch1Sound_localizationTask.wav,13.0,"(1142, 878)","(182, -202)",190,-338,,,,,,,,,3,5,26,5,,,,,,,,,,,,,,,,,,,,,,,,,,,,,,,,,,,,,,,,,,,,2054.055563650094,None,2055.1545484899543,None,2056.087865083944,None,1.7624338624338625,1.1167104640044272,2056.087865083944,None,,,,,,,,,,,,,,,,,134,001,2023_Nov_14_1120,SpeechDraft1Carolyn_lessNoise_PlusLocalization,2021.2.3,59.98433350906526,
,,,,,,,,farRight,19.1,4,ch1Sound_localizationTask.wav,19.1,"(1237, 878)","(277,-202)",285,-338,,,,,,,,,3,6,27,6,,,,,,,,,,,,,,,,,,,,,,,,,,,,,,,,,,,,,,,,,,,,2057.204765068833,None,2058.3044298049062,None,2059.2378342528827,None,1.6619047619047618,0.650138352997601,2059.2378342528827,None,,,,,,,,,,,,,,,,,134,001,2023_Nov_14_1120,SpeechDraft1Carolyn_lessNoise_PlusLocalization,2021.2.3,59.98433350906526,
,,,,,,,,midLeft,-13.0,2,ch1Sound_localizationTask.wav,-13.0,"(762, 878)","(-198,-202)",-190,-338,,,,,,,,,4,0,28,1,,,,,,,,,,,,,,,,,,,,,,,,,,,,,,,,,,,,,,,,,,,,2059.8882877351716,None,2060.9877582681365,None,2061.9212610600516,None,1.3333333333333333,0.9160969462245703,2061.9212610600516,None,,,,,,,,,,,,,,,,,134,001,2023_Nov_14_1120,SpeechDraft1Carolyn_lessNoise_PlusLocalization,2021.2.3,59.98433350906526,
,,,,,,,,midRight,13.0,3,ch1Sound_localizationTask.wav,13.0,"(1142, 878)","(182, -202)",190,-338,,,,,,,,,4,1,29,5,,,,,,,,,,,,,,,,,,,,,,,,,,,,,,,,,,,,,,,,,,,,2062.8381593381055,None,2063.937821974978,None,2064.8712346660905,None,1.7084656084656085,0.9323579808697104,2064.8712346660905,None,,,,,,,,,,,,,,,,,134,001,2023_Nov_14_1120,SpeechDraft1Carolyn_lessNoise_PlusLocalization,2021.2.3,59.98433350906526,
,,,,,,,,farRight,19.1,4,ch1Sound_localizationTask.wav,19.1,"(1237, 878)","(277,-202)",285,-338,,,,,,,,,4,2,30,6,,,,,,,,,,,,,,,,,,,,,,,,,,,,,,,,,,,,,,,,,,,,2065.804758613929,None,2066.9043988510966,None,2067.8379319398664,None,1.665079365079365,0.6829156461171806,2067.8379319398664,None,,,,,,,,,,,,,,,,,134,001,2023_Nov_14_1120,SpeechDraft1Carolyn_lessNoise_PlusLocalization,2021.2.3,59.98433350906526,
,,,,,,,,nearLeft,-6.5,1,ch1Sound_localizationTask.wav,-6.5,"(857, 878)","(-103,-202)",-95,-338,,,,,,,,,4,3,31,2,,,,,,,,,,,,,,,,,,,,,,,,,,,,,,,,,,,,,,,,,,,,2068.5217664362863,None,2069.6211431832053,None,2070.554524233099,None,1.3804232804232806,0.7833371628075838,2070.554524233099,None,,,,,,,,,,,,,,,,,134,001,2023_Nov_14_1120,SpeechDraft1Carolyn_lessNoise_PlusLocalization,2021.2.3,59.98433350906526,
,,,,,,,,center,0.0,6,ch1Sound_localizationTask.wav,0.0,"(952, 878)","(-8,-202)",0,-338,,,,,,,,,4,4,32,3,,,,,,,,,,,,,,,,,,,,,,,,,,,,,,,,,,,,,,,,,,,,2071.338253290858,None,2072.437829918228,None,2073.371294255834,None,1.5560846560846562,0.7007899302989244,2073.371294255834,None,,,,,,,,,,,,,,,,,134,001,2023_Nov_14_1120,SpeechDraft1Carolyn_lessNoise_PlusLocalization,2021.2.3,59.98433350906526,
,,,,,,,,farRight,19.1,4,ch1Sound_localizationTask.wav,19.1,"(1237, 878)","(277,-202)",285,-338,,,,,,,,,4,5,33,6,,,,,,,,,,,,,,,,,,,,,,,,,,,,,,,,,,,,,,,,,,,,2074.0880570658483,None,2075.187881493941,None,2076.121033057105,None,1.6873015873015873,0.6668084538541734,2076.121033057105,None,,,,,,,,,,,,,,,,,134,001,2023_Nov_14_1120,SpeechDraft1Carolyn_lessNoise_PlusLocalization,2021.2.3,59.98433350906526,
,,,,,,,,midLeft,-13.0,2,ch1Sound_localizationTask.wav,-13.0,"(762, 878)","(-198,-202)",-190,-338,,,,,,,,,4,6,34,1,,,,,,,,,,,,,,,,,,,,,,,,,,,,,,,,,,,,,,,,,,,,2076.8048691111617,None,2077.904499330092,None,2078.8378976262175,None,1.3613756613756614,0.7674004430882633,2078.8378976262175,None,,,,,,,,,,,,,,,,,134,001,2023_Nov_14_1120,SpeechDraft1Carolyn_lessNoise_PlusLocalization,2021.2.3,59.98433350906526,
,,,,,,,,midRight,13.0,3,ch1Sound_localizationTask.wav,13.0,"(1142, 878)","(182, -202)",190,-338,,,,,,,,,5,0,35,5,,,,,,,,,,,,,,,,,,,,,,,,,,,,,,,,,,,,,,,,,,,,2079.6215538419783,None,2080.721286356915,None,2081.654635607265,None,1.6095238095238096,0.6829760600812733,2081.654635607265,None,,,,,,,,,,,,,,,,,134,001,2023_Nov_14_1120,SpeechDraft1Carolyn_lessNoise_PlusLocalization,2021.2.3,59.98433350906526,
,,,,,,,,midLeft,-13.0,2,ch1Sound_localizationTask.wav,-13.0,"(762, 878)","(-198,-202)",-190,-338,,,,,,,,,5,1,36,1,,,,,,,,,,,,,,,,,,,,,,,,,,,,,,,,,,,,,,,,,,,,2082.3381963148713,None,2083.437872360926,None,2084.371222172864,None,1.3333333333333333,0.7832195269875228,2084.371222172864,None,,,,,,,,,,,,,,,,,134,001,2023_Nov_14_1120,SpeechDraft1Carolyn_lessNoise_PlusLocalization,2021.2.3,59.98433350906526,
,,,,,,,,nearLeft,-6.5,1,ch1Sound_localizationTask.wav,-6.5,"(857, 878)","(-103,-202)",-95,-338,,,,,,,,,5,2,37,2,,,,,,,,,,,,,,,,,,,,,,,,,,,,,,,,,,,,,,,,,,,,2085.154806463979,None,2086.254572506994,None,2087.188006667886,None,1.491005291005291,0.5501711731776595,2087.188006667886,None,,,,,,,,,,,,,,,,,134,001,2023_Nov_14_1120,SpeechDraft1Carolyn_lessNoise_PlusLocalization,2021.2.3,59.98433350906526,
,,,,,,,,farLeft,-19.1,5,ch1Sound_localizationTask.wav,-19.1,"(667, 878)","(-293,-202)",-285,-338,,,,,,,,,5,3,38,0,,,,,,,,,,,,,,,,,,,,,,,,,,,,,,,,,,,,,,,,,,,,2087.7549241040833,None,2088.854541023262,None,2089.7878956939094,None,1.3380952380952382,0.7164938598871231,2089.7878956939094,None,,,,,,,,,,,,,,,,,134,001,2023_Nov_14_1120,SpeechDraft1Carolyn_lessNoise_PlusLocalization,2021.2.3,59.98433350906526,
,,,,,,,,nearRight,6.5,0,ch1Sound_localizationTask.wav,6.5,"(1047, 878)","(87, -202)",95,-338,,,,,,,,,5,4,39,4,,,,,,,,,,,,,,,,,,,,,,,,,,,,,,,,,,,,,,,,,,,,2090.5047775548883,None,2091.604442562908,None,2092.537845785264,None,1.4968253968253968,0.6994677297770977,2092.537845785264,None,,,,,,,,,,,,,,,,,134,001,2023_Nov_14_1120,SpeechDraft1Carolyn_lessNoise_PlusLocalization,2021.2.3,59.98433350906526,
,,,,,,,,midRight,13.0,3,ch1Sound_localizationTask.wav,13.0,"(1142, 878)","(182, -202)",190,-338,,,,,,,,,5,5,40,5,,,,,,,,,,,,,,,,,,,,,,,,,,,,,,,,,,,,,,,,,,,,2093.2381989900023,None,2094.337856045924,None,2095.2712801112793,None,1.6793650793650794,0.5831638858653605,2095.2712801112793,None,,,,,,,,,,,,,,,,,134,001,2023_Nov_14_1120,SpeechDraft1Carolyn_lessNoise_PlusLocalization,2021.2.3,59.98433350906526,
,,,,,,,,nearRight,6.5,0,ch1Sound_localizationTask.wav,6.5,"(1047, 878)","(87, -202)",95,-338,,,,,,,,,5,6,41,4,,,,,,,,,,,,,,,,,,,,,,,,,,,,,,,,,,,,,,,,,,,,2095.8557189181447,None,2096.9545285040513,None,2097.887917580083,None,1.4915343915343915,0.6168573307804763,2097.887917580083,None,,,,,,,,,,,,,,,,,134,001,2023_Nov_14_1120,SpeechDraft1Carolyn_lessNoise_PlusLocalization,2021.2.3,59.98433350906526,
,,,,,,,,farLeft,-19.1,5,ch1Sound_localizationTask.wav,-19.1,"(667, 878)","(-293,-202)",-285,-338,,,,,,,,,6,0,42,0,,,,,,,,,,,,,,,,,,,,,,,,,,,,,,,,,,,,,,,,,,,,2098.5216389442794,None,2099.6214777450077,None,2100.5545936059207,None,1.3994708994708995,0.7169314180500805,2100.5545936059207,None,,,,,,,,,,,,,,,,,134,001,2023_Nov_14_1120,SpeechDraft1Carolyn_lessNoise_PlusLocalization,2021.2.3,59.98433350906526,
,,,,,,,,farRight,19.1,4,ch1Sound_localizationTask.wav,19.1,"(1237, 878)","(277,-202)",285,-338,,,,,,,,,6,1,43,6,,,,,,,,,,,,,,,,,,,,,,,,,,,,,,,,,,,,,,,,,,,,2101.271603043191,None,2102.37130208686,None,2103.304515749216,None,1.708994708994709,0.6661979630589485,2103.304515749216,None,,,,,,,,,,,,,,,,,134,001,2023_Nov_14_1120,SpeechDraft1Carolyn_lessNoise_PlusLocalization,2021.2.3,59.98433350906526,
,,,,,,,,farRight,19.1,4,ch1Sound_localizationTask.wav,19.1,"(1237, 878)","(277,-202)",285,-338,,,,,,,,,6,2,44,6,,,,,,,,,,,,,,,,,,,,,,,,,,,,,,,,,,,,,,,,,,,,2103.9715138790198,None,2105.071195272263,None,2106.0045719551854,None,1.6582010582010582,0.5153029155917466,2106.0045719551854,None,,,,,,,,,,,,,,,,,134,001,2023_Nov_14_1120,SpeechDraft1Carolyn_lessNoise_PlusLocalization,2021.2.3,59.98433350906526,
,,,,,,,,midLeft,-13.0,2,ch1Sound_localizationTask.wav,-13.0,"(762, 878)","(-198,-202)",-190,-338,,,,,,,,,6,3,45,1,,,,,,,,,,,,,,,,,,,,,,,,,,,,,,,,,,,,,,,,,,,,2106.521524681244,None,2107.6211757850833,None,2108.5545883201994,None,1.2338624338624338,0.782853040844202,2108.5545883201994,None,,,,,,,,,,,,,,,,,134,001,2023_Nov_14_1120,SpeechDraft1Carolyn_lessNoise_PlusLocalization,2021.2.3,59.98433350906526,
,,,,,,,,farLeft,-19.1,5,ch1Sound_localizationTask.wav,-19.1,"(667, 878)","(-293,-202)",-285,-338,,,,,,,,,6,4,46,0,,,,,,,,,,,,,,,,,,,,,,,,,,,,,,,,,,,,,,,,,,,,2109.338183686137,None,2110.4378057708964,None,2111.3713409281336,None,1.271957671957672,0.4494684459641576,2111.3713409281336,None,,,,,,,,,,,,,,,,,134,001,2023_Nov_14_1120,SpeechDraft1Carolyn_lessNoise_PlusLocalization,2021.2.3,59.98433350906526,
,,,,,,,,nearRight,6.5,0,ch1Sound_localizationTask.wav,6.5,"(1047, 878)","(87, -202)",95,-338,,,,,,,,,6,5,47,4,,,,,,,,,,,,,,,,,,,,,,,,,,,,,,,,,,,,,,,,,,,,2111.8213846022263,None,2112.9212044999003,None,2113.854574616067,None,1.51005291005291,0.9996423721313477,2113.854574616067,None,,,,,,,,,,,,,,,,,134,001,2023_Nov_14_1120,SpeechDraft1Carolyn_lessNoise_PlusLocalization,2021.2.3,59.98433350906526,
,,,,,,,,farLeft,-19.1,5,ch1Sound_localizationTask.wav,-19.1,"(667, 878)","(-293,-202)",-285,-338,,,,,,,,,6,6,48,0,,,,,,,,,,,,,,,,,,,,,,,,,,,,,,,,,,,,,,,,,,,,2114.855012886226,None,2115.9544986928813,None,2116.888262852095,None,1.2936507936507937,0.7661816962063313,2116.888262852095,None,,,,,,,,,,,,,,,,,134,001,2023_Nov_14_1120,SpeechDraft1Carolyn_lessNoise_PlusLocalization,2021.2.3,59.98433350906526,
,,,,,,,,midLeft,-13.0,2,ch1Sound_localizationTask.wav,-13.0,"(762, 878)","(-198,-202)",-190,-338,,,,,,,,,7,0,49,1,,,,,,,,,,,,,,,,,,,,,,,,,,,,,,,,,,,,,,,,,,,,2117.6568662812933,None,2118.771439471282,None,2119.687938472256,None,1.3243386243386244,0.5497504379600286,2119.687938472256,None,,,,,,,,,,,,,,,,,134,001,2023_Nov_14_1120,SpeechDraft1Carolyn_lessNoise_PlusLocalization,2021.2.3,59.98433350906526,
,,,,,,,,midRight,13.0,3,ch1Sound_localizationTask.wav,13.0,"(1142, 878)","(182, -202)",190,-338,,,,,,,,,7,1,50,5,,,,,,,,,,,,,,,,,,,,,,,,,,,,,,,,,,,,,,,,,,,,2120.2717762398534,None,2121.3712668558583,None,2122.287889072206,None,1.673015873015873,1.1492599141784012,2122.287889072206,None,,,,,,,,,,,,,,,,,134,001,2023_Nov_14_1120,SpeechDraft1Carolyn_lessNoise_PlusLocalization,2021.2.3,59.98433350906526,
,,,,,,,,midRight,13.0,3,ch1Sound_localizationTask.wav,13.0,"(1142, 878)","(182, -202)",190,-338,,,,,,,,,7,2,51,5,,,,,,,,,,,,,,,,,,,,,,,,,,,,,,,,,,,,,,,,,,,,2123.4381923200563,None,2124.5379913221113,None,2125.471162940841,None,1.5952380952380953,0.4824474030174315,2125.471162940841,None,,,,,,,,,,,,,,,,,134,001,2023_Nov_14_1120,SpeechDraft1Carolyn_lessNoise_PlusLocalization,2021.2.3,59.98433350906526,
,,,,,,,,farLeft,-19.1,5,ch1Sound_localizationTask.wav,-19.1,"(667, 878)","(-293,-202)",-285,-338,,,,,,,,,7,3,52,0,,,,,,,,,,,,,,,,,,,,,,,,,,,,,,,,,,,,,,,,,,,,2125.9548505172133,None,2127.0546606108546,None,2127.9879910051823,None,1.364021164021164,0.7331139459274709,2127.9879910051823,None,,,,,,,,,,,,,,,,,134,001,2023_Nov_14_1120,SpeechDraft1Carolyn_lessNoise_PlusLocalization,2021.2.3,59.98433350906526,
,,,,,,,,center,0.0,6,ch1Sound_localizationTask.wav,0.0,"(952, 878)","(-8,-202)",0,-338,,,,,,,,,7,4,53,3,,,,,,,,,,,,,,,,,,,,,,,,,,,,,,,,,,,,,,,,,,,,2128.721658951137,None,2129.8212362709455,None,2130.754657378886,None,1.505820105820106,0.6165904789231718,2130.754657378886,None,,,,,,,,,,,,,,,,,134,001,2023_Nov_14_1120,SpeechDraft1Carolyn_lessNoise_PlusLocalization,2021.2.3,59.98433350906526,
,,,,,,,,farRight,19.1,4,ch1Sound_localizationTask.wav,19.1,"(1237, 878)","(277,-202)",285,-338,,,,,,,,,7,5,54,6,,,,,,,,,,,,,,,,,,,,,,,,,,,,,,,,,,,,,,,,,,,,2131.371798833832,None,2132.4712331220508,None,2133.404587874189,None,1.6243386243386242,0.5661337501369417,2133.404587874189,None,,,,,,,,,,,,,,,,,134,001,2023_Nov_14_1120,SpeechDraft1Carolyn_lessNoise_PlusLocalization,2021.2.3,59.98433350906526,
,,,,,,,,center,0.0,6,ch1Sound_localizationTask.wav,0.0,"(952, 878)","(-8,-202)",0,-338,,,,,,,,,7,6,55,3,,,,,,,,,,,,,,,,,,,,,,,,,,,,,,,,,,,,,,,,,,,,2133.9715852681547,None,2135.0712199108675,None,2136.0047604162246,None,1.492063492063492,0.7139408560469747,2136.0047604162246,None,,,,,,,,,,,,,,,,,134,001,2023_Nov_14_1120,SpeechDraft1Carolyn_lessNoise_PlusLocalization,2021.2.3,59.98433350906526,
,,,,,,,,,,,,,,,,,,,,,,,,,,,,,,,,,,,,,,,,,,,,,,,,,,,,,,,,,,,,,,,,,,,,,,,,,,,,,,,,,,space,11.71722688805312,2136.8048860598356,None,,,,,,,,,,,,,134,001,2023_Nov_14_1120,SpeechDraft1Carolyn_lessNoise_PlusLocalization,2021.2.3,59.98433350906526,
,,,,,,,,farRight,19.1,4,ch1Sound_localizationTask.wav,19.1,"(1237, 878)","(277,-202)",285,-338,,,,,,,,,,,,,0,0,0,6,,,,,,,,,,,,,,,,,,,,,,,,,,,,,,,,,,,,,,,,2148.5713356332853,None,,,2151.5884164222516,None,1.673015873015873,1.604838472791016,2151.5884164222516,None,,,,,2136.8048860598356,None,2149.5715541732498,None,2149.7550123492256,2149.7715193228796,,,,,,,134,001,2023_Nov_14_1120,SpeechDraft1Carolyn_lessNoise_PlusLocalization,2021.2.3,59.98433350906526,
,,,,,,,,farRight,19.1,4,ch1Sound_localizationTask.wav,19.1,"(1237, 878)","(277,-202)",285,-338,,,,,,,,,,,,,0,1,1,6,,,,,,,,,,,,,,,,,,,,,,,,,,,,,,,,,,,,,,,,2153.204952912871,None,,,2156.2213266151957,None,1.6576719576719576,1.032494283746928,2156.2213266151957,None,,,,,,,2154.204955983907,None,2154.388318385929,2154.404989925213,,,,,,,134,001,2023_Nov_14_1120,SpeechDraft1Carolyn_lessNoise_PlusLocalization,2021.2.3,59.98433350906526,
,,,,,,,,nearLeft,-6.5,1,ch1Sound_localizationTask.wav,-6.5,"(857, 878)","(-103,-202)",-95,-338,,,,,,,,,,,,,0,2,2,2,,,,,,,,,,,,,,,,,,,,,,,,,,,,,,,,,,,,,,,,2157.2549049709924,None,,,2160.271193501074,None,1.4396825396825397,0.9161982210353017,2160.271193501074,None,,,,,,,2158.2549411100335,None,2158.438249805011,2158.4549588649534,,,,,,,134,001,2023_Nov_14_1120,SpeechDraft1Carolyn_lessNoise_PlusLocalization,2021.2.3,59.98433350906526,
,,,,,,,,nearRight,6.5,0,ch1Sound_localizationTask.wav,6.5,"(1047, 878)","(87, -202)",95,-338,,,,,,,,,,,,,0,3,3,4,,,,,,,,,,,,,,,,,,,,,,,,,,,,,,,,,,,,,,,,2161.1885506981052,None,,,2164.2046098900028,None,1.5518518518518518,0.8830761290155351,2164.2046098900028,None,,,,,,,2162.1882132561877,None,2162.371636297088,2162.3882522531785,,,,,,,134,001,2023_Nov_14_1120,SpeechDraft1Carolyn_lessNoise_PlusLocalization,2021.2.3,59.98433350906526,
,,,,,,,,nearLeft,-6.5,1,ch1Sound_localizationTask.wav,-6.5,"(857, 878)","(-103,-202)",-95,-338,,,,,,,,,,,,,0,4,4,2,,,,,,,,,,,,,,,,,,,,,,,,,,,,,,,,,,,,,,,,2165.0882453741506,None,,,2168.1045607440174,None,1.4317460317460318,0.5823057708330452,2168.1045607440174,None,,,,,,,2166.0882203462534,None,2166.2715858658776,2166.2882478469983,,,,,,,134,001,2023_Nov_14_1120,SpeechDraft1Carolyn_lessNoise_PlusLocalization,2021.2.3,59.98433350906526,
,,,,,,,,nearRight,6.5,0,ch1Sound_localizationTask.wav,6.5,"(1047, 878)","(87, -202)",95,-338,,,,,,,,,,,,,0,5,5,4,,,,,,,,,,,,,,,,,,,,,,,,,,,,,,,,,,,,,,,,2168.688257913105,None,,,2171.7045732820407,None,1.5592592592592593,0.7315661050379276,2171.7045732820407,None,,,,,,,2169.6882903059013,None,2169.871609174181,2169.888300993014,,,,,,,134,001,2023_Nov_14_1120,SpeechDraft1Carolyn_lessNoise_PlusLocalization,2021.2.3,59.98433350906526,
,,,,,,,,midLeft,-13.0,2,ch1Sound_localizationTask.wav,-13.0,"(762, 878)","(-198,-202)",-190,-338,,,,,,,,,,,,,0,6,6,1,,,,,,,,,,,,,,,,,,,,,,,,,,,,,,,,,,,,,,,,2172.438251131214,None,,,2175.454548205249,None,1.391005291005291,1.4665701668709517,2175.454548205249,None,,,,,,,2173.438335812185,None,2173.621558504179,2173.6382547831163,,,,,,,134,001,2023_Nov_14_1120,SpeechDraft1Carolyn_lessNoise_PlusLocalization,2021.2.3,59.98433350906526,
,,,,,,,,center,0.0,6,ch1Sound_localizationTask.wav,0.0,"(952, 878)","(-8,-202)",0,-338,,,,,,,,,,,,,1,0,7,3,,,,,,,,,,,,,,,,,,,,,,,,,,,,,,,,,,,,,,,,2176.922614376992,None,,,2179.9380216002464,None,1.4962962962962962,0.9825712912715971,2179.9380216002464,None,,,,,,,2177.9216076601297,None,2178.1049198410474,2178.1216176999733,,,,,,,134,001,2023_Nov_14_1120,SpeechDraft1Carolyn_lessNoise_PlusLocalization,2021.2.3,59.98433350906526,
,,,,,,,,nearLeft,-6.5,1,ch1Sound_localizationTask.wav,-6.5,"(857, 878)","(-103,-202)",-95,-338,,,,,,,,,,,,,1,1,8,2,,,,,,,,,,,,,,,,,,,,,,,,,,,,,,,,,,,,,,,,2180.9217110201716,None,,,2183.937929603271,None,1.4402116402116403,0.6002305489964783,2183.937929603271,None,,,,,,,2181.921615838073,None,2182.105009191204,2182.1216112612747,,,,,,,134,001,2023_Nov_14_1120,SpeechDraft1Carolyn_lessNoise_PlusLocalization,2021.2.3,59.98433350906526,
,,,,,,,,nearRight,6.5,0,ch1Sound_localizationTask.wav,6.5,"(1047, 878)","(87, -202)",95,-338,,,,,,,,,,,,,1,2,9,4,,,,,,,,,,,,,,,,,,,,,,,,,,,,,,,,,,,,,,,,2184.5385052100755,None,,,2187.55477739498,None,1.5634920634920635,0.8324322090484202,2187.55477739498,None,,,,,,,2185.5383185250685,None,2185.721556958277,2185.7383054429665,,,,,,,134,001,2023_Nov_14_1120,SpeechDraft1Carolyn_lessNoise_PlusLocalization,2021.2.3,59.98433350906526,
,,,,,,,,nearRight,6.5,0,ch1Sound_localizationTask.wav,6.5,"(1047, 878)","(87, -202)",95,-338,,,,,,,,,,,,,1,3,10,4,,,,,,,,,,,,,,,,,,,,,,,,,,,,,,,,,,,,,,,,2188.388356976211,None,,,2191.4046475682408,None,1.5349206349206348,0.6663573570549488,2191.4046475682408,None,,,,,,,2189.3884453321807,None,2189.571602619253,2189.588319391012,,,,,,,134,001,2023_Nov_14_1120,SpeechDraft1Carolyn_lessNoise_PlusLocalization,2021.2.3,59.98433350906526,
,,,,,,,,center,0.0,6,ch1Sound_localizationTask.wav,0.0,"(952, 878)","(-8,-202)",0,-338,,,,,,,,,,,,,1,4,11,3,,,,,,,,,,,,,,,,,,,,,,,,,,,,,,,,,,,,,,,,2192.0716850571334,None,,,2195.0879069720395,None,1.491005291005291,0.6990168783813715,2195.0879069720395,None,,,,,,,2193.0716132530943,None,2193.2549564349465,2193.2716126400046,,,,,,,134,001,2023_Nov_14_1120,SpeechDraft1Carolyn_lessNoise_PlusLocalization,2021.2.3,59.98433350906526,
,,,,,,,,midRight,13.0,3,ch1Sound_localizationTask.wav,13.0,"(1142, 878)","(182, -202)",190,-338,,,,,,,,,,,,,1,5,12,5,,,,,,,,,,,,,,,,,,,,,,,,,,,,,,,,,,,,,,,,2195.7882867520675,None,,,2198.80489535816,None,1.5962962962962963,0.6983671053312719,2198.80489535816,None,,,,,,,2196.7882925719023,None,2196.9715207819827,2196.9884342411533,,,,,,,134,001,2023_Nov_14_1120,SpeechDraft1Carolyn_lessNoise_PlusLocalization,2021.2.3,59.98433350906526,
,,,,,,,,center,0.0,6,ch1Sound_localizationTask.wav,0.0,"(952, 878)","(-8,-202)",0,-338,,,,,,,,,,,,,1,6,13,3,,,,,,,,,,,,,,,,,,,,,,,,,,,,,,,,,,,,,,,,2199.5050328918733,None,,,2202.5213360679336,None,1.4936507936507937,0.6824357709847391,2202.5213360679336,None,,,,,,,2200.504997482989,None,2200.6883624689654,2200.704995695036,,,,,,,134,001,2023_Nov_14_1120,SpeechDraft1Carolyn_lessNoise_PlusLocalization,2021.2.3,59.98433350906526,
,,,,,,,,farRight,19.1,4,ch1Sound_localizationTask.wav,19.1,"(1237, 878)","(277,-202)",285,-338,,,,,,,,,,,,,2,0,14,6,,,,,,,,,,,,,,,,,,,,,,,,,,,,,,,,,,,,,,,,2203.204947718885,None,,,2206.2215111749247,None,1.6788359788359788,0.6989049608819187,2206.2215111749247,None,,,,,,,2204.204953886103,None,2204.3883365131915,2204.4050195780583,,,,,,,134,001,2023_Nov_14_1120,SpeechDraft1Carolyn_lessNoise_PlusLocalization,2021.2.3,59.98433350906526,
,,,,,,,,midRight,13.0,3,ch1Sound_localizationTask.wav,13.0,"(1142, 878)","(182, -202)",190,-338,,,,,,,,,,,,,2,1,15,5,,,,,,,,,,,,,,,,,,,,,,,,,,,,,,,,,,,,,,,,2206.921672626864,None,,,2209.9380577062257,None,1.602116402116402,0.56554746767506,2209.9380577062257,None,,,,,,,2207.9216183079407,None,2208.1049655941315,2208.121730414219,,,,,,,134,001,2023_Nov_14_1120,SpeechDraft1Carolyn_lessNoise_PlusLocalization,2021.2.3,59.98433350906526,
,,,,,,,,center,0.0,6,ch1Sound_localizationTask.wav,0.0,"(952, 878)","(-8,-202)",0,-338,,,,,,,,,,,,,2,2,16,3,,,,,,,,,,,,,,,,,,,,,,,,,,,,,,,,,,,,,,,,2210.505017227959,None,,,2213.521311726887,None,1.4978835978835978,0.866811147890985,2213.521311726887,None,,,,,,,2211.505024285987,None,2211.688242994249,2211.705042633228,,,,,,,134,001,2023_Nov_14_1120,SpeechDraft1Carolyn_lessNoise_PlusLocalization,2021.2.3,59.98433350906526,
,,,,,,,,midLeft,-13.0,2,ch1Sound_localizationTask.wav,-13.0,"(762, 878)","(-198,-202)",-190,-338,,,,,,,,,,,,,2,3,17,1,,,,,,,,,,,,,,,,,,,,,,,,,,,,,,,,,,,,,,,,2214.4049580348656,None,,,2217.4213757361285,None,1.4121693121693122,1.09874485200271,2217.4213757361285,None,,,,,,,2215.404977792874,None,2215.5883565940894,2215.6049320721067,,,,,,,134,001,2023_Nov_14_1120,SpeechDraft1Carolyn_lessNoise_PlusLocalization,2021.2.3,59.98433350906526,
,,,,,,,,midLeft,-13.0,2,ch1Sound_localizationTask.wav,-13.0,"(762, 878)","(-198,-202)",-190,-338,,,,,,,,,,,,,2,4,18,1,,,,,,,,,,,,,,,,,,,,,,,,,,,,,,,,,,,,,,,,2218.5218863361515,None,,,2221.5379766621627,None,1.3984126984126983,0.7158188726752996,2221.5379766621627,None,,,,,,,2219.5216897660866,None,2219.7049790429883,2219.721802601125,,,,,,,134,001,2023_Nov_14_1120,SpeechDraft1Carolyn_lessNoise_PlusLocalization,2021.2.3,59.98433350906526,
,,,,,,,,nearLeft,-6.5,1,ch1Sound_localizationTask.wav,-6.5,"(857, 878)","(-103,-202)",-95,-338,,,,,,,,,,,,,2,5,19,2,,,,,,,,,,,,,,,,,,,,,,,,,,,,,,,,,,,,,,,,2222.254960249178,None,,,2225.2715058922768,None,1.4433862433862434,0.9660394298844039,2225.2715058922768,None,,,,,,,2223.2549827182665,None,2223.438293592073,2223.4551206552424,,,,,,,134,001,2023_Nov_14_1120,SpeechDraft1Carolyn_lessNoise_PlusLocalization,2021.2.3,59.98433350906526,
,,,,,,,,farLeft,-19.1,5,ch1Sound_localizationTask.wav,-19.1,"(667, 878)","(-293,-202)",-285,-338,,,,,,,,,,,,,2,6,20,0,,,,,,,,,,,,,,,,,,,,,,,,,,,,,,,,,,,,,,,,2226.238346117083,None,,,2229.2547934269533,None,1.3497354497354497,0.6993161160498857,2229.2547934269533,None,,,,,,,2227.2384193171747,None,2227.421684468165,2227.438426663168,,,,,,,134,001,2023_Nov_14_1120,SpeechDraft1Carolyn_lessNoise_PlusLocalization,2021.2.3,59.98433350906526,
,,,,,,,,farLeft,-19.1,5,ch1Sound_localizationTask.wav,-19.1,"(667, 878)","(-293,-202)",-285,-338,,,,,,,,,,,,,3,0,21,0,,,,,,,,,,,,,,,,,,,,,,,,,,,,,,,,,,,,,,,,2229.9549616668373,None,,,2232.971563798841,None,1.3412698412698414,0.8661242597736418,2232.971563798841,None,,,,,,,2230.95498366002,None,2231.138313913252,2231.1550266630948,,,,,,,134,001,2023_Nov_14_1120,SpeechDraft1Carolyn_lessNoise_PlusLocalization,2021.2.3,59.98433350906526,
,,,,,,,,farLeft,-19.1,5,ch1Sound_localizationTask.wav,-19.1,"(667, 878)","(-293,-202)",-285,-338,,,,,,,,,,,,,3,1,22,0,,,,,,,,,,,,,,,,,,,,,,,,,,,,,,,,,,,,,,,,2233.8382548699155,None,,,2236.8547539701685,None,1.348148148148148,0.5496112410910428,2236.8547539701685,None,,,,,,,2234.838328721933,None,2235.0216570021585,2235.0383078232408,,,,,,,134,001,2023_Nov_14_1120,SpeechDraft1Carolyn_lessNoise_PlusLocalization,2021.2.3,59.98433350906526,
,,,,,,,,center,0.0,6,ch1Sound_localizationTask.wav,0.0,"(952, 878)","(-8,-202)",0,-338,,,,,,,,,,,,,3,2,23,3,,,,,,,,,,,,,,,,,,,,,,,,,,,,,,,,,,,,,,,,2237.405051498208,None,,,2240.421452953946,None,1.4904761904761905,0.9155420968309045,2240.421452953946,None,,,,,,,2238.405059360899,None,2238.5883329021744,2238.605071600061,,,,,,,134,001,2023_Nov_14_1120,SpeechDraft1Carolyn_lessNoise_PlusLocalization,2021.2.3,59.98433350906526,
,,,,,,,,center,0.0,6,ch1Sound_localizationTask.wav,0.0,"(952, 878)","(-8,-202)",0,-338,,,,,,,,,,,,,3,3,24,3,,,,,,,,,,,,,,,,,,,,,,,,,,,,,,,,,,,,,,,,2241.3383584721014,None,,,2244.3549618669786,None,1.4846560846560846,0.4492021892219782,2244.3549618669786,None,,,,,,,2242.3383927140385,None,2242.52166251326,2242.5385566828772,,,,,,,134,001,2023_Nov_14_1120,SpeechDraft1Carolyn_lessNoise_PlusLocalization,2021.2.3,59.98433350906526,
,,,,,,,,midLeft,-13.0,2,ch1Sound_localizationTask.wav,-13.0,"(762, 878)","(-198,-202)",-190,-338,,,,,,,,,,,,,3,4,25,1,,,,,,,,,,,,,,,,,,,,,,,,,,,,,,,,,,,,,,,,2244.8049744539894,None,,,2247.821494024247,None,1.4047619047619047,1.0480485879816115,2247.821494024247,None,,,,,,,2245.8051129672676,None,2245.988433519844,2246.005029220134,,,,,,,134,001,2023_Nov_14_1120,SpeechDraft1Carolyn_lessNoise_PlusLocalization,2021.2.3,59.98433350906526,
,,,,,,,,nearRight,6.5,0,ch1Sound_localizationTask.wav,6.5,"(1047, 878)","(87, -202)",95,-338,,,,,,,,,,,,,3,5,26,4,,,,,,,,,,,,,,,,,,,,,,,,,,,,,,,,,,,,,,,,2248.871759076137,None,,,2251.8879826650955,None,1.5386243386243388,0.7990718935616314,2251.8879826650955,None,,,,,,,2249.871647520922,None,2250.0550701012835,2250.071694341954,,,,,,,134,001,2023_Nov_14_1120,SpeechDraft1Carolyn_lessNoise_PlusLocalization,2021.2.3,59.98433350906526,
,,,,,,,,farRight,19.1,4,ch1Sound_localizationTask.wav,19.1,"(1237, 878)","(277,-202)",285,-338,,,,,,,,,,,,,3,6,27,6,,,,,,,,,,,,,,,,,,,,,,,,,,,,,,,,,,,,,,,,2252.6883781128563,None,,,2255.704853273928,None,1.6873015873015873,0.7664990839548409,2255.704853273928,None,,,,,,,2253.6884151468985,None,2253.8717542379163,2253.8883465630934,,,,,,,134,001,2023_Nov_14_1120,SpeechDraft1Carolyn_lessNoise_PlusLocalization,2021.2.3,59.98433350906526,
,,,,,,,,nearLeft,-6.5,1,ch1Sound_localizationTask.wav,-6.5,"(857, 878)","(-103,-202)",-95,-338,,,,,,,,,,,,,4,0,28,2,,,,,,,,,,,,,,,,,,,,,,,,,,,,,,,,,,,,,,,,2256.4717306410894,None,,,2259.4881552420557,None,1.4322751322751324,1.5330107170157135,2259.4881552420557,None,,,,,,,2257.4716988541186,None,2257.655047315173,2257.671640367247,,,,,,,134,001,2023_Nov_14_1120,SpeechDraft1Carolyn_lessNoise_PlusLocalization,2021.2.3,59.98433350906526,
,,,,,,,,farRight,19.1,4,ch1Sound_localizationTask.wav,19.1,"(1237, 878)","(277,-202)",285,-338,,,,,,,,,,,,,4,1,29,6,,,,,,,,,,,,,,,,,,,,,,,,,,,,,,,,,,,,,,,,2261.0226027620956,None,,,2264.038125302177,None,1.6756613756613756,0.6490709790959954,2264.038125302177,None,,,,,,,2262.0217050909996,None,2262.205048972275,2262.2219912540168,,,,,,,134,001,2023_Nov_14_1120,SpeechDraft1Carolyn_lessNoise_PlusLocalization,2021.2.3,59.98433350906526,
,,,,,,,,farRight,19.1,4,ch1Sound_localizationTask.wav,19.1,"(1237, 878)","(277,-202)",285,-338,,,,,,,,,,,,,4,2,30,6,,,,,,,,,,,,,,,,,,,,,,,,,,,,,,,,,,,,,,,,2264.6885919030756,None,,,2267.7048382330686,None,1.6814814814814816,0.5660056555643678,2267.7048382330686,None,,,,,,,2265.6883091502823,None,2265.8716917228885,2265.8883327529766,,,,,,,134,001,2023_Nov_14_1120,SpeechDraft1Carolyn_lessNoise_PlusLocalization,2021.2.3,59.98433350906526,
,,,,,,,,nearLeft,-6.5,1,ch1Sound_localizationTask.wav,-6.5,"(857, 878)","(-103,-202)",-95,-338,,,,,,,,,,,,,4,3,31,2,,,,,,,,,,,,,,,,,,,,,,,,,,,,,,,,,,,,,,,,2268.2718197642826,None,,,2271.288083541207,None,1.4354497354497355,1.032409437932074,2271.288083541207,None,,,,,,,2269.2717869509943,None,2269.4552075671963,2269.4717559688725,,,,,,,134,001,2023_Nov_14_1120,SpeechDraft1Carolyn_lessNoise_PlusLocalization,2021.2.3,59.98433350906526,
,,,,,,,,center,0.0,6,ch1Sound_localizationTask.wav,0.0,"(952, 878)","(-8,-202)",0,-338,,,,,,,,,,,,,4,4,32,3,,,,,,,,,,,,,,,,,,,,,,,,,,,,,,,,,,,,,,,,2272.321809471119,None,,,2275.3380539231002,None,1.4936507936507937,0.5492241261526942,2275.3380539231002,None,,,,,,,2273.3217712719925,None,2273.5051053711213,2273.521775988862,,,,,,,134,001,2023_Nov_14_1120,SpeechDraft1Carolyn_lessNoise_PlusLocalization,2021.2.3,59.98433350906526,
,,,,,,,,nearLeft,-6.5,1,ch1Sound_localizationTask.wav,-6.5,"(857, 878)","(-103,-202)",-95,-338,,,,,,,,,,,,,4,5,33,2,,,,,,,,,,,,,,,,,,,,,,,,,,,,,,,,,,,,,,,,2275.888392041903,None,,,2278.904763265047,None,1.4312169312169312,0.6315901889465749,2278.904763265047,None,,,,,,,2276.8883974291384,None,2277.071845778264,2277.08840094693,,,,,,,134,001,2023_Nov_14_1120,SpeechDraft1Carolyn_lessNoise_PlusLocalization,2021.2.3,59.98433350906526,
,,,,,,,,midLeft,-13.0,2,ch1Sound_localizationTask.wav,-13.0,"(762, 878)","(-198,-202)",-190,-338,,,,,,,,,,,,,4,6,34,1,,,,,,,,,,,,,,,,,,,,,,,,,,,,,,,,,,,,,,,,2279.5383942611516,None,,,2282.554920932278,None,1.37989417989418,0.6995089650154114,2282.554920932278,None,,,,,,,2280.53840087587,None,2280.7217165338807,2280.738392677158,,,,,,,134,001,2023_Nov_14_1120,SpeechDraft1Carolyn_lessNoise_PlusLocalization,2021.2.3,59.98433350906526,
,,,,,,,,nearRight,6.5,0,ch1Sound_localizationTask.wav,6.5,"(1047, 878)","(87, -202)",95,-338,,,,,,,,,,,,,5,0,35,4,,,,,,,,,,,,,,,,,,,,,,,,,,,,,,,,,,,,,,,,2283.255083421245,None,,,2286.27144113509,None,1.529100529100529,1.0989072290249169,2286.27144113509,None,,,,,,,2284.255046787206,None,2284.438386436086,2284.4551048781723,,,,,,,134,001,2023_Nov_14_1120,SpeechDraft1Carolyn_lessNoise_PlusLocalization,2021.2.3,59.98433350906526,
,,,,,,,,farRight,19.1,4,ch1Sound_localizationTask.wav,19.1,"(1237, 878)","(277,-202)",285,-338,,,,,,,,,,,,,5,1,36,6,,,,,,,,,,,,,,,,,,,,,,,,,,,,,,,,,,,,,,,,2287.371782348957,None,,,2290.3882698561065,None,1.6544973544973545,0.6819517039693892,2290.3882698561065,None,,,,,,,2288.3717645350844,None,2288.555126905907,2288.571754531935,,,,,,,134,001,2023_Nov_14_1120,SpeechDraft1Carolyn_lessNoise_PlusLocalization,2021.2.3,59.98433350906526,
,,,,,,,,farLeft,-19.1,5,ch1Sound_localizationTask.wav,-19.1,"(667, 878)","(-293,-202)",-285,-338,,,,,,,,,,,,,5,2,37,0,,,,,,,,,,,,,,,,,,,,,,,,,,,,,,,,,,,,,,,,2291.0717624309473,None,,,2294.088140467182,None,1.3597883597883598,0.7664818870835006,2294.088140467182,None,,,,,,,2292.071756976191,None,2292.255137613043,2292.2718318831176,,,,,,,134,001,2023_Nov_14_1120,SpeechDraft1Carolyn_lessNoise_PlusLocalization,2021.2.3,59.98433350906526,
,,,,,,,,farLeft,-19.1,5,ch1Sound_localizationTask.wav,-19.1,"(667, 878)","(-293,-202)",-285,-338,,,,,,,,,,,,,5,3,38,0,,,,,,,,,,,,,,,,,,,,,,,,,,,,,,,,,,,,,,,,2294.856325122062,None,,,2297.88810789492,None,1.3296296296296295,0.8484759088605642,2297.88810789492,None,,,,,,,2295.8717353041284,None,2296.0552036282606,2296.0717583941296,,,,,,,134,001,2023_Nov_14_1120,SpeechDraft1Carolyn_lessNoise_PlusLocalization,2021.2.3,59.98433350906526,
,,,,,,,,midRight,13.0,3,ch1Sound_localizationTask.wav,13.0,"(1142, 878)","(182, -202)",190,-338,,,,,,,,,,,,,5,4,39,5,,,,,,,,,,,,,,,,,,,,,,,,,,,,,,,,,,,,,,,,2298.738401125185,None,,,2301.7548665092327,None,1.5989417989417989,0.9994260491803288,2301.7548665092327,None,,,,,,,2299.738473428879,None,2299.921839892864,2299.938453333918,,,,,,,134,001,2023_Nov_14_1120,SpeechDraft1Carolyn_lessNoise_PlusLocalization,2021.2.3,59.98433350906526,
,,,,,,,,midRight,13.0,3,ch1Sound_localizationTask.wav,13.0,"(1142, 878)","(182, -202)",190,-338,,,,,,,,,,,,,5,5,40,5,,,,,,,,,,,,,,,,,,,,,,,,,,,,,,,,,,,,,,,,2302.7550757671706,None,,,2305.7716219900176,None,1.5973544973544973,0.6160259181633592,2305.7716219900176,None,,,,,,,2303.7552025578916,None,2303.938459082041,2303.9553456790745,,,,,,,134,001,2023_Nov_14_1120,SpeechDraft1Carolyn_lessNoise_PlusLocalization,2021.2.3,59.98433350906526,
,,,,,,,,nearRight,6.5,0,ch1Sound_localizationTask.wav,6.5,"(1047, 878)","(87, -202)",95,-338,,,,,,,,,,,,,5,6,41,4,,,,,,,,,,,,,,,,,,,,,,,,,,,,,,,,,,,,,,,,2306.388426092919,None,,,2309.4047694779,None,1.555026455026455,0.66645463462919,2309.4047694779,None,,,,,,,2307.388420896139,None,2307.571750768926,2307.588431891054,,,,,,,134,001,2023_Nov_14_1120,SpeechDraft1Carolyn_lessNoise_PlusLocalization,2021.2.3,59.98433350906526,
,,,,,,,,midRight,13.0,3,ch1Sound_localizationTask.wav,13.0,"(1142, 878)","(182, -202)",190,-338,,,,,,,,,,,,,6,0,42,5,,,,,,,,,,,,,,,,,,,,,,,,,,,,,,,,,,,,,,,,2310.0885104490444,None,,,2313.104830723256,None,1.6164021164021163,0.6659224540926516,2313.104830723256,None,,,,,,,2311.0884876078926,None,2311.27174113784,2311.288494677283,,,,,,,134,001,2023_Nov_14_1120,SpeechDraft1Carolyn_lessNoise_PlusLocalization,2021.2.3,59.98433350906526,
,,,,,,,,midLeft,-13.0,2,ch1Sound_localizationTask.wav,-13.0,"(762, 878)","(-198,-202)",-190,-338,,,,,,,,,,,,,6,1,43,1,,,,,,,,,,,,,,,,,,,,,,,,,,,,,,,,,,,,,,,,2313.771846116986,None,,,2316.788460251875,None,1.3555555555555556,0.9654951952397823,2316.788460251875,None,,,,,,,2314.771958567202,None,2314.9551154421642,2314.9718037392013,,,,,,,134,001,2023_Nov_14_1120,SpeechDraft1Carolyn_lessNoise_PlusLocalization,2021.2.3,59.98433350906526,
,,,,,,,,midLeft,-13.0,2,ch1Sound_localizationTask.wav,-13.0,"(762, 878)","(-198,-202)",-190,-338,,,,,,,,,,,,,6,2,44,1,,,,,,,,,,,,,,,,,,,,,,,,,,,,,,,,,,,,,,,,2317.7551869428717,None,,,2320.7714623198844,None,1.3820105820105821,1.2657594988122582,2320.7714623198844,None,,,,,,,2318.75501765823,None,2318.9383706268854,2318.955105867237,,,,,,,134,001,2023_Nov_14_1120,SpeechDraft1Carolyn_lessNoise_PlusLocalization,2021.2.3,59.98433350906526,
,,,,,,,,farLeft,-19.1,5,ch1Sound_localizationTask.wav,-19.1,"(667, 878)","(-293,-202)",-285,-338,,,,,,,,,,,,,6,3,45,0,,,,,,,,,,,,,,,,,,,,,,,,,,,,,,,,,,,,,,,,2322.038713022135,None,,,2325.0548769598827,None,1.355026455026455,0.6488207043148577,2325.0548769598827,None,,,,,,,2323.0385250239633,None,2323.221803955268,2323.2385172951035,,,,,,,134,001,2023_Nov_14_1120,SpeechDraft1Carolyn_lessNoise_PlusLocalization,2021.2.3,59.98433350906526,
,,,,,,,,nearLeft,-6.5,1,ch1Sound_localizationTask.wav,-6.5,"(857, 878)","(-103,-202)",-95,-338,,,,,,,,,,,,,6,4,46,2,,,,,,,,,,,,,,,,,,,,,,,,,,,,,,,,,,,,,,,,2325.7052235971205,None,,,2328.7215041290037,None,1.435978835978836,0.8159408811479807,2328.7215041290037,None,,,,,,,2326.705082987901,None,2326.888501643203,2326.9051599432714,,,,,,,134,001,2023_Nov_14_1120,SpeechDraft1Carolyn_lessNoise_PlusLocalization,2021.2.3,59.98433350906526,
,,,,,,,,midRight,13.0,3,ch1Sound_localizationTask.wav,13.0,"(1142, 878)","(182, -202)",190,-338,,,,,,,,,,,,,6,5,47,5,,,,,,,,,,,,,,,,,,,,,,,,,,,,,,,,,,,,,,,,2329.538455975242,None,,,2332.5548989060335,None,1.61005291005291,0.9661414413712919,2332.5548989060335,None,,,,,,,2330.538535877131,None,2330.7218485591,2330.738493432291,,,,,,,134,001,2023_Nov_14_1120,SpeechDraft1Carolyn_lessNoise_PlusLocalization,2021.2.3,59.98433350906526,
,,,,,,,,center,0.0,6,ch1Sound_localizationTask.wav,0.0,"(952, 878)","(-8,-202)",0,-338,,,,,,,,,,,,,6,6,48,3,,,,,,,,,,,,,,,,,,,,,,,,,,,,,,,,,,,,,,,,2333.521838580258,None,,,2336.5383154358715,None,1.5,0.7994281300343573,2336.5383154358715,None,,,,,,,2334.521762753837,None,2334.7051410418935,2334.7218548040837,,,,,,,134,001,2023_Nov_14_1120,SpeechDraft1Carolyn_lessNoise_PlusLocalization,2021.2.3,59.98433350906526,
,,,,,,,,farLeft,-19.1,5,ch1Sound_localizationTask.wav,-19.1,"(667, 878)","(-293,-202)",-285,-338,,,,,,,,,,,,,7,0,49,0,,,,,,,,,,,,,,,,,,,,,,,,,,,,,,,,,,,,,,,,2337.338618000038,None,,,2340.3549684141763,None,1.3756613756613758,0.8320398037321866,2340.3549684141763,None,,,,,,,2338.338544140104,None,2338.5217584171332,2338.5384357501753,,,,,,,134,001,2023_Nov_14_1120,SpeechDraft1Carolyn_lessNoise_PlusLocalization,2021.2.3,59.98433350906526,
,,,,,,,,midRight,13.0,3,ch1Sound_localizationTask.wav,13.0,"(1142, 878)","(182, -202)",190,-338,,,,,,,,,,,,,7,1,50,5,,,,,,,,,,,,,,,,,,,,,,,,,,,,,,,,,,,,,,,,2341.205150768161,None,,,2344.2216107901186,None,1.6052910052910052,0.8326256810687482,2344.2216107901186,None,,,,,,,2342.205165434163,None,2342.388474566862,2342.4053536821157,,,,,,,134,001,2023_Nov_14_1120,SpeechDraft1Carolyn_lessNoise_PlusLocalization,2021.2.3,59.98433350906526,
,,,,,,,,midRight,13.0,3,ch1Sound_localizationTask.wav,13.0,"(1142, 878)","(182, -202)",190,-338,,,,,,,,,,,,,7,2,51,5,,,,,,,,,,,,,,,,,,,,,,,,,,,,,,,,,,,,,,,,2345.0552239562385,None,,,2348.0714994939044,None,1.6391534391534393,0.8323646830394864,2348.0714994939044,None,,,,,,,2346.055268364027,None,2346.2384794731624,2346.255186174996,,,,,,,134,001,2023_Nov_14_1120,SpeechDraft1Carolyn_lessNoise_PlusLocalization,2021.2.3,59.98433350906526,
,,,,,,,,farLeft,-19.1,5,ch1Sound_localizationTask.wav,-19.1,"(667, 878)","(-293,-202)",-285,-338,,,,,,,,,,,,,7,3,52,0,,,,,,,,,,,,,,,,,,,,,,,,,,,,,,,,,,,,,,,,2348.905100293923,None,,,2351.9214605381712,None,1.3544973544973544,0.7659420319832861,2351.9214605381712,None,,,,,,,2349.9052005172707,None,2350.088523356244,2350.1052600992844,,,,,,,134,001,2023_Nov_14_1120,SpeechDraft1Carolyn_lessNoise_PlusLocalization,2021.2.3,59.98433350906526,
,,,,,,,,farRight,19.1,4,ch1Sound_localizationTask.wav,19.1,"(1237, 878)","(277,-202)",285,-338,,,,,,,,,,,,,7,4,53,6,,,,,,,,,,,,,,,,,,,,,,,,,,,,,,,,,,,,,,,,2352.688505287282,None,,,2355.704855172895,None,1.6761904761904762,0.9656401127576828,2355.704855172895,None,,,,,,,2353.688602352049,None,2353.871827682946,2353.888496894855,,,,,,,134,001,2023_Nov_14_1120,SpeechDraft1Carolyn_lessNoise_PlusLocalization,2021.2.3,59.98433350906526,
,,,,,,,,midLeft,-13.0,2,ch1Sound_localizationTask.wav,-13.0,"(762, 878)","(-198,-202)",-190,-338,,,,,,,,,,,,,7,5,54,1,,,,,,,,,,,,,,,,,,,,,,,,,,,,,,,,,,,,,,,,2356.67189264996,None,,,2359.688210534863,None,1.384126984126984,0.7991801248863339,2359.688210534863,None,,,,,,,2357.6718339310028,None,2357.855338198133,2357.8718901858665,,,,,,,134,001,2023_Nov_14_1120,SpeechDraft1Carolyn_lessNoise_PlusLocalization,2021.2.3,59.98433350906526,
,,,,,,,,nearRight,6.5,0,ch1Sound_localizationTask.wav,6.5,"(1047, 878)","(87, -202)",95,-338,,,,,,,,,,,,,7,6,55,4,,,,,,,,,,,,,,,,,,,,,,,,,,,,,,,,,,,,,,,,2360.4885826241225,None,,,2363.504843804054,None,1.5481481481481483,0.9657348967157304,2363.504843804054,None,,,,,,,2361.488533196971,None,2361.671943882946,2361.688498077914,,,,,,,134,001,2023_Nov_14_1120,SpeechDraft1Carolyn_lessNoise_PlusLocalization,2021.2.3,59.98433350906526,
,,,,,,,,,,,,,,,,,,,,,,,,,,,,,,,,,,,,,,,,,,,,,,,,,,,,,,,,,,,,,,,,,,,,,,,,,,,,,,,,,,,,,,,,,,,,2364.4718373510987,None,c,26.186935488134623,2365.455223075114,None,134,001,2023_Nov_14_1120,SpeechDraft1Carolyn_lessNoise_PlusLocalization,2021.2.3,59.98433350906526,
