Audio_Only_Files,Video_Files,Original_Word_List,noiseLevelCode,conditionCodes,noiseLevelFile1,noiseLevelFile2,InstrTextVar,targetSpeakerName,targetSpeakerEccen,targetSpkrChannel,targetSpkrSound,targetVisualDegrees,visStimLoc,visStimLoc2,visStimW,visStimH,practiceTrials.thisRepN,practiceTrials.thisTrialN,practiceTrials.thisN,practiceTrials.thisIndex,trials.thisRepN,trials.thisTrialN,trials.thisN,trials.thisIndex,audLocalLoop.thisRepN,audLocalLoop.thisTrialN,audLocalLoop.thisN,audLocalLoop.thisIndex,visualLocalLoop.thisRepN,visualLocalLoop.thisTrialN,visualLocalLoop.thisN,visualLocalLoop.thisIndex,letsGoAlready.keys,letsGoAlready.rt,letsGoAlready.started,letsGoAlready.stopped,text_2.started,text_2.stopped,text_3.started,text_3.stopped,key_resp_2.keys,key_resp_2.rt,key_resp_2.started,key_resp_2.stopped,text_5.started,text_5.stopped,fixCross.started,fixCross.stopped,fixCross2.started,fixCross2.stopped,answerPrompt.started,answerPrompt.stopped,getAnswer.text,getAnswer.started,getAnswer.stopped,goToNext.keys,goToNext.rt,goToNext.started,goToNext.stopped,stretchBreakTxrt.started,stretchBreakTxrt.stopped,key_resp_3.keys,key_resp_3.rt,key_resp_3.started,key_resp_3.stopped,letsGoLocal.keys,letsGoLocal.rt,letsGoLocal.started,letsGoLocal.stopped,text_4.started,text_4.stopped,prepFixTxt.started,prepFixTxt.stopped,prepFixTxt_2.started,prepFixTxt_2.stopped,respPromptLocal.started,respPromptLocal.stopped,slider.response,slider.rt,slider.started,slider.stopped,letsGoLocal_2.keys,letsGoLocal_2.rt,letsGoLocal_2.started,letsGoLocal_2.stopped,text_7.started,text_7.stopped,prepFixTxt_3.started,prepFixTxt_3.stopped,grating.started,grating.stopped,participant,session,date,expName,psychopyVersion,frameRate,
,,,,,,,,,,,,,,,,,,,,,,,,,,,,,,,,,space,16.44874874688685,23.433345812838525,None,,,,,,,,,,,,,,,,,,,,,,,,,,,,,,,,,,,,,,,,,,,,,,,,,,,,,,,,135,001,2023_Nov_15_1609,SpeechDraft1Carolyn_lessNoise_PlusLocalization,2021.2.3,59.98585741986363,
,,,,,,,,,,,,,,,,,,,,,,,,,,,,,,,,,,,,,23.433345812838525,None,40.00017006415874,None,space,6.403023357037455,40.183135360013694,None,,,,,,,,,,,,,,,,,,,,,,,,,,,,,,,,,,,,,,,,,,,,,,,,135,001,2023_Nov_15_1609,SpeechDraft1Carolyn_lessNoise_PlusLocalization,2021.2.3,59.98585741986363,
ash.wav,ash.mpg,ash,1,A,Pink_Noise_1_1.wav,Pink_Noise_1_2.wav,"This is an example of an

AUDIO trial",,,,,,,,,,0,0,0,0,,,,,,,,,,,,,,,,,,,,,,,,,46.63397470721975,None,47.633085880894214,None,50.816210336983204,None,52.183092067949474,None,ash ,52.183092067949474,None,return,34.60755673283711,52.26643328694627,None,,,,,,,,,,,,,,,,,,,,,,,,,,,,,,,,,135,001,2023_Nov_15_1609,SpeechDraft1Carolyn_lessNoise_PlusLocalization,2021.2.3,59.98585741986363,
ash.wav,ash.mpg,ash,1,AV,Pink_Noise_1_1.wav,Pink_Noise_1_2.wav,"This is an example of an

AUDIO + VIDEO  trial",,,,,,,,,,0,1,1,1,,,,,,,,,,,,,,,,,,,,,,,,,86.91618206724524,None,87.91654076706618,None,89.41629883414134,None,90.79964850191027,None,ash,90.79964850191027,None,return,6.990708383731544,90.88327000383288,None,,,,,,,,,,,,,,,,,,,,,,,,,,,,,,,,,135,001,2023_Nov_15_1609,SpeechDraft1Carolyn_lessNoise_PlusLocalization,2021.2.3,59.98585741986363,
,,,,,,,,,,,,,,,,,,,,,,,,,,,,,,,,,,,,,,,,,,,,,,,,,,,,,,,,,,,,97.91625379025936,None,space,10.494138090871274,98.09986471803859,None,,,,,,,,,,,,,,,,,,,,,,,,,,,135,001,2023_Nov_15_1609,SpeechDraft1Carolyn_lessNoise_PlusLocalization,2021.2.3,59.98585741986363,
flank.wav,flank.mpg,flank,3,A,Pink_Noise_3_1.wav,Pink_Noise_3_2.wav,,,,,,,,,,,,,,,0,0,0,44,,,,,,,,,,,,,,,,,,,,,,,108.63391186622903,None,110.14951739786193,None,111.5332166692242,None,"drank
",111.5332166692242,None,return,20.553497886750847,111.61651748698205,None,,,,,,,,,,,,,,,,,,,,,,,,,,,,,,,,,135,001,2023_Nov_15_1609,SpeechDraft1Carolyn_lessNoise_PlusLocalization,2021.2.3,59.98585741986363,
bruise.wav,bruise.mpg,bruise,6,AV,Pink_Noise_6_1.wav,Pink_Noise_6_2.wav,,,,,,,,,,,,,,,0,1,1,78,,,,,,,,,,,,,,,,,,,,,,,132.19986749393865,None,133.69951671501622,None,135.0831180838868,None,woo,135.0831180838868,None,return,14.09948171582073,135.16657376522198,None,,,,,,,,,,,,,,,,,,,,,,,,,,,,,,,,,135,001,2023_Nov_15_1609,SpeechDraft1Carolyn_lessNoise_PlusLocalization,2021.2.3,59.98585741986363,
fix.wav,fix.mpg,fix,2,A,Pink_Noise_2_1.wav,Pink_Noise_2_2.wav,,,,,,,,,,,,,,,0,2,2,56,,,,,,,,,,,,,,,,,,,,,,,149.28323536505923,None,150.78297010809183,None,152.1666374481283,None,fix,152.1666374481283,None,return,30.12810868723318,152.24987100018188,None,,,,,,,,,,,,,,,,,,,,,,,,,,,,,,,,,135,001,2023_Nov_15_1609,SpeechDraft1Carolyn_lessNoise_PlusLocalization,2021.2.3,59.98585741986363,
none.wav,none.mpg,none,4,A,Pink_Noise_4_1.wav,Pink_Noise_4_2.wav,,,,,,,,,,,,,,,0,3,3,34,,,,,,,,,,,,,,,,,,,,,,,182.3999339779839,None,183.89957386814058,None,185.28327430505306,None,done,185.28327430505306,None,return,8.371506807859987,185.3665853990242,None,,,,,,,,,,,,,,,,,,,,,,,,,,,,,,,,,135,001,2023_Nov_15_1609,SpeechDraft1Carolyn_lessNoise_PlusLocalization,2021.2.3,59.98585741986363,
bust.wav,bust.mpg,bust,2,A,Pink_Noise_2_1.wav,Pink_Noise_2_2.wav,,,,,,,,,,,,,,,0,4,4,42,,,,,,,,,,,,,,,,,,,,,,,193.76666343118995,None,195.2662762668915,None,196.65001274924725,None,bust,196.65001274924725,None,return,14.564689096063375,196.73330054897815,None,,,,,,,,,,,,,,,,,,,,,,,,,,,,,,,,,135,001,2023_Nov_15_1609,SpeechDraft1Carolyn_lessNoise_PlusLocalization,2021.2.3,59.98585741986363,
fade.wav,fade.mpg,fade,5,A,Pink_Noise_5_1.wav,Pink_Noise_5_2.wav,,,,,,,,,,,,,,,0,5,5,38,,,,,,,,,,,,,,,,,,,,,,,211.31672473810613,None,212.81664170324802,None,214.20013342797756,None,"chain
",214.20013342797756,None,return,33.11868616519496,214.28330618608743,None,,,,,,,,,,,,,,,,,,,,,,,,,,,,,,,,,135,001,2023_Nov_15_1609,SpeechDraft1Carolyn_lessNoise_PlusLocalization,2021.2.3,59.98585741986363,
flair.wav,flair.mpg,flair,5,A,Pink_Noise_5_1.wav,Pink_Noise_5_2.wav,,,,,,,,,,,,,,,0,6,6,16,,,,,,,,,,,,,,,,,,,,,,,247.43329414119944,None,248.93302360223606,None,250.31675580702722,None,plane,250.31675580702722,None,return,6.666075191926211,250.4000446330756,None,,,,,,,,,,,,,,,,,,,,,,,,,,,,,,,,,135,001,2023_Nov_15_1609,SpeechDraft1Carolyn_lessNoise_PlusLocalization,2021.2.3,59.98585741986363,
hike.wav,hike.mpg,hike,6,A,Pink_Noise_6_1.wav,Pink_Noise_6_2.wav,,,,,,,,,,,,,,,0,7,7,1,,,,,,,,,,,,,,,,,,,,,,,257.08337967889383,None,258.58311377698556,None,259.96667536813766,None,lame,259.96667536813766,None,return,64.1119065596722,260.0500880009495,None,,,,,,,,,,,,,,,,,,,,,,,,,,,,,,,,,135,001,2023_Nov_15_1609,SpeechDraft1Carolyn_lessNoise_PlusLocalization,2021.2.3,59.98585741986363,
cloak.wav,cloak.mpg,cloak,6,AV,Pink_Noise_6_1.wav,Pink_Noise_6_2.wav,,,,,,,,,,,,,,,0,8,8,82,,,,,,,,,,,,,,,,,,,,,,,324.1835908489302,None,325.6838344889693,None,327.0667688008398,None,low,327.0667688008398,None,return,11.299869637005031,327.15016672806814,None,,,,,,,,,,,,,,,,,,,,,,,,,,,,,,,,,135,001,2023_Nov_15_1609,SpeechDraft1Carolyn_lessNoise_PlusLocalization,2021.2.3,59.98585741986363,
burn.wav,burn.mpg,burn,5,A,Pink_Noise_5_1.wav,Pink_Noise_5_2.wav,,,,,,,,,,,,,,,0,9,9,8,,,,,,,,,,,,,,,,,,,,,,,338.4668873171322,None,339.9666222720407,None,341.3501256769523,None,"run
",341.3501256769523,None,return,8.920488584786654,341.43350115511566,None,,,,,,,,,,,,,,,,,,,,,,,,,,,,,,,,,135,001,2023_Nov_15_1609,SpeechDraft1Carolyn_lessNoise_PlusLocalization,2021.2.3,59.98585741986363,
weep.wav,weep.mpg,weep,3,A,Pink_Noise_3_1.wav,Pink_Noise_3_2.wav,,,,,,,,,,,,,,,0,10,10,4,,,,,,,,,,,,,,,,,,,,,,,350.38348394213244,None,351.88326808204874,None,353.2668657810427,None,"wait
",353.2668657810427,None,return,24.483795389998704,353.3501959401183,None,,,,,,,,,,,,,,,,,,,,,,,,,,,,,,,,,135,001,2023_Nov_15_1609,SpeechDraft1Carolyn_lessNoise_PlusLocalization,2021.2.3,59.98585741986363,
sake.wav,sake.mpg,sake,1,AV,Pink_Noise_1_1.wav,Pink_Noise_1_2.wav,,,,,,,,,,,,,,,0,11,11,90,,,,,,,,,,,,,,,,,,,,,,,377.86691067321226,None,379.36662646383047,None,380.75016797706485,None,sick,380.75016797706485,None,return,12.344399012625217,380.8335990170017,None,,,,,,,,,,,,,,,,,,,,,,,,,,,,,,,,,135,001,2023_Nov_15_1609,SpeechDraft1Carolyn_lessNoise_PlusLocalization,2021.2.3,59.98585741986363,
grace.wav,grace.mpg,grace,5,A,Pink_Noise_5_1.wav,Pink_Noise_5_2.wav,,,,,,,,,,,,,,,0,12,12,30,,,,,,,,,,,,,,,,,,,,,,,393.20040479209274,None,394.70000656414777,None,396.0853249710053,None,grace,396.0853249710053,None,return,6.954625396057963,396.1674813660793,None,,,,,,,,,,,,,,,,,,,,,,,,,,,,,,,,,135,001,2023_Nov_15_1609,SpeechDraft1Carolyn_lessNoise_PlusLocalization,2021.2.3,59.98585741986363,
bump.wav,bump.mpg,bump,2,A,Pink_Noise_2_1.wav,Pink_Noise_2_2.wav,,,,,,,,,,,,,,,0,13,13,5,,,,,,,,,,,,,,,,,,,,,,,403.15024271188304,None,404.64985198294744,None,406.0335862468928,None,love,406.0335862468928,None,return,14.173110690899193,406.11699161026627,None,,,,,,,,,,,,,,,,,,,,,,,,,,,,,,,,,135,001,2023_Nov_15_1609,SpeechDraft1Carolyn_lessNoise_PlusLocalization,2021.2.3,59.98585741986363,
wheat.wav,wheat.mpg,wheat,3,AV,Pink_Noise_3_1.wav,Pink_Noise_3_2.wav,,,,,,,,,,,,,,,0,14,14,98,,,,,,,,,,,,,,,,,,,,,,,420.3169271592051,None,421.8167790421285,None,423.2001838949509,None,wait,423.2001838949509,None,return,19.646369560156018,423.283673201222,None,,,,,,,,,,,,,,,,,,,,,,,,,,,,,,,,,135,001,2023_Nov_15_1609,SpeechDraft1Carolyn_lessNoise_PlusLocalization,2021.2.3,59.98585741986363,
code.wav,code.mpg,code,5,AV,Pink_Noise_5_1.wav,Pink_Noise_5_2.wav,,,,,,,,,,,,,,,0,15,15,84,,,,,,,,,,,,,,,,,,,,,,,442.9502879171632,None,444.45017515914515,None,445.83360109385103,None,"cone
",445.83360109385103,None,return,11.853026332799345,445.9169626189396,None,,,,,,,,,,,,,,,,,,,,,,,,,,,,,,,,,135,001,2023_Nov_15_1609,SpeechDraft1Carolyn_lessNoise_PlusLocalization,2021.2.3,59.98585741986363,
cheap.wav,cheap.mpg,cheap,4,AV,Pink_Noise_4_1.wav,Pink_Noise_4_2.wav,,,,,,,,,,,,,,,0,16,16,107,,,,,,,,,,,,,,,,,,,,,,,457.800292941276,None,459.3018302679993,None,460.6835677679628,None,"cheap
",460.6835677679628,None,return,10.186978606972843,460.7670004758984,None,,,,,,,,,,,,,,,,,,,,,,,,,,,,,,,,,135,001,2023_Nov_15_1609,SpeechDraft1Carolyn_lessNoise_PlusLocalization,2021.2.3,59.98585741986363,
eat.wav,eat.mpg,eat,4,A,Pink_Noise_4_1.wav,Pink_Noise_4_2.wav,,,,,,,,,,,,,,,0,17,17,46,,,,,,,,,,,,,,,,,,,,,,,470.98372713522986,None,472.48391773505136,None,473.8670886652544,None,eat,473.8670886652544,None,return,4.955537268891931,473.9505667919293,None,,,,,,,,,,,,,,,,,,,,,,,,,,,,,,,,,135,001,2023_Nov_15_1609,SpeechDraft1Carolyn_lessNoise_PlusLocalization,2021.2.3,59.98585741986363,
bear.wav,bear.mpg,bear,1,A,Pink_Noise_1_1.wav,Pink_Noise_1_2.wav,,,,,,,,,,,,,,,0,18,18,26,,,,,,,,,,,,,,,,,,,,,,,478.93367433408275,None,480.4333748649806,None,481.8169851289131,None,"bear
",481.8169851289131,None,return,3.933418387081474,481.90058046393096,None,,,,,,,,,,,,,,,,,,,,,,,,,,,,,,,,,135,001,2023_Nov_15_1609,SpeechDraft1Carolyn_lessNoise_PlusLocalization,2021.2.3,59.98585741986363,
grunt.wav,grunt.mpg,grunt,4,A,Pink_Noise_4_1.wav,Pink_Noise_4_2.wav,,,,,,,,,,,,,,,0,19,19,24,,,,,,,,,,,,,,,,,,,,,,,485.86707382602617,None,487.38339918199927,None,488.7670896840282,None,rat,488.7670896840282,None,return,10.775526983197778,488.8504497902468,None,,,,,,,,,,,,,,,,,,,,,,,,,,,,,,,,,135,001,2023_Nov_15_1609,SpeechDraft1Carolyn_lessNoise_PlusLocalization,2021.2.3,59.98585741986363,
grave.wav,grave.mpg,grave,2,AV,Pink_Noise_2_1.wav,Pink_Noise_2_2.wav,,,,,,,,,,,,,,,0,20,20,117,,,,,,,,,,,,,,,,,,,,,,,499.6503338748589,None,501.1667919140309,None,502.5505784279667,None,grave,502.5505784279667,None,return,6.112290223129094,502.6337166191079,None,,,,,,,,,,,,,,,,,,,,,,,,,,,,,,,,,135,001,2023_Nov_15_1609,SpeechDraft1Carolyn_lessNoise_PlusLocalization,2021.2.3,59.98585741986363,
fame.wav,fame.mpg,fame,5,AV,Pink_Noise_5_1.wav,Pink_Noise_5_2.wav,,,,,,,,,,,,,,,0,21,21,110,,,,,,,,,,,,,,,,,,,,,,,508.76705982908607,None,510.26754057593644,None,511.6503383042291,None,"fame
",511.6503383042291,None,return,7.836251672357321,511.7337449109182,None,,,,,,,,,,,,,,,,,,,,,,,,,,,,,,,,,135,001,2023_Nov_15_1609,SpeechDraft1Carolyn_lessNoise_PlusLocalization,2021.2.3,59.98585741986363,
live.wav,live.mpg,live,5,A,Pink_Noise_5_1.wav,Pink_Noise_5_2.wav,,,,,,,,,,,,,,,0,22,22,19,,,,,,,,,,,,,,,,,,,,,,,519.6004350748844,None,521.1001313799061,None,522.4836918339133,None,leg,522.4836918339133,None,return,5.378912763204426,522.5670732092112,None,,,,,,,,,,,,,,,,,,,,,,,,,,,,,,,,,135,001,2023_Nov_15_1609,SpeechDraft1Carolyn_lessNoise_PlusLocalization,2021.2.3,59.98585741986363,
brand.wav,brand.mpg,brand,6,A,Pink_Noise_6_1.wav,Pink_Noise_6_2.wav,,,,,,,,,,,,,,,0,23,23,33,,,,,,,,,,,,,,,,,,,,,,,527.9671548400074,None,529.4669311251491,None,530.8505333438516,None,lay,530.8505333438516,None,return,15.164259830024093,530.9337359359488,None,,,,,,,,,,,,,,,,,,,,,,,,,,,,,,,,,135,001,2023_Nov_15_1609,SpeechDraft1Carolyn_lessNoise_PlusLocalization,2021.2.3,59.98585741986363,
grail.wav,grail.mpg,grail,3,AV,Pink_Noise_3_1.wav,Pink_Noise_3_2.wav,,,,,,,,,,,,,,,0,24,24,72,,,,,,,,,,,,,,,,,,,,,,,546.1182587030344,None,547.6501769758761,None,549.0170818660408,None,grail,549.0170818660408,None,return,19.01354270800948,549.1005283668637,None,,,,,,,,,,,,,,,,,,,,,,,,,,,,,,,,,135,001,2023_Nov_15_1609,SpeechDraft1Carolyn_lessNoise_PlusLocalization,2021.2.3,59.98585741986363,
blood.wav,blood.mpg,blood,2,AV,Pink_Noise_2_1.wav,Pink_Noise_2_2.wav,,,,,,,,,,,,,,,0,25,25,89,,,,,,,,,,,,,,,,,,,,,,,568.1339477039874,None,569.6502556861378,None,571.0337721779943,None,blood,571.0337721779943,None,return,10.796936073806137,571.1171314809471,None,,,,,,,,,,,,,,,,,,,,,,,,,,,,,,,,,135,001,2023_Nov_15_1609,SpeechDraft1Carolyn_lessNoise_PlusLocalization,2021.2.3,59.98585741986363,
shut.wav,shut.mpg,shut,4,A,Pink_Noise_4_1.wav,Pink_Noise_4_2.wav,,,,,,,,,,,,,,,0,26,26,55,,,,,,,,,,,,,,,,,,,,,,,581.9338043308817,None,583.4503285079263,None,584.8338053622283,None,shot,584.8338053622283,None,return,6.7968963398598135,584.9171699252911,None,,,,,,,,,,,,,,,,,,,,,,,,,,,,,,,,,135,001,2023_Nov_15_1609,SpeechDraft1Carolyn_lessNoise_PlusLocalization,2021.2.3,59.98585741986363,
barn.wav,barn.mpg,barn,4,AV,Pink_Noise_4_1.wav,Pink_Noise_4_2.wav,,,,,,,,,,,,,,,0,27,27,91,,,,,,,,,,,,,,,,,,,,,,,591.7339121759869,None,593.2352194110863,None,594.6170087759383,None,party,594.6170087759383,None,return,6.565625666640699,594.700480110012,None,,,,,,,,,,,,,,,,,,,,,,,,,,,,,,,,,135,001,2023_Nov_15_1609,SpeechDraft1Carolyn_lessNoise_PlusLocalization,2021.2.3,59.98585741986363,
blond.wav,blond.mpg,blond,1,AV,Pink_Noise_1_1.wav,Pink_Noise_1_2.wav,,,,,,,,,,,,,,,0,28,28,62,,,,,,,,,,,,,,,,,,,,,,,601.2838633162901,None,602.8003006600775,None,604.1839432278648,None,blood,604.1839432278648,None,return,10.87077193101868,604.2672198521905,None,,,,,,,,,,,,,,,,,,,,,,,,,,,,,,,,,135,001,2023_Nov_15_1609,SpeechDraft1Carolyn_lessNoise_PlusLocalization,2021.2.3,59.98585741986363,
wind.wav,wind.mpg,wind,3,AV,Pink_Noise_3_1.wav,Pink_Noise_3_2.wav,,,,,,,,,,,,,,,0,29,29,85,,,,,,,,,,,,,,,,,,,,,,,615.1672572828829,None,616.683766731061,None,618.0671145408414,None,wind,618.0671145408414,None,return,8.059495036955923,618.1505131502636,None,,,,,,,,,,,,,,,,,,,,,,,,,,,,,,,,,135,001,2023_Nov_15_1609,SpeechDraft1Carolyn_lessNoise_PlusLocalization,2021.2.3,59.98585741986363,
bye.wav,bye.mpg,bye,2,A,Pink_Noise_2_1.wav,Pink_Noise_2_2.wav,,,,,,,,,,,,,,,0,30,30,54,,,,,,,,,,,,,,,,,,,,,,,626.2338276212104,None,627.7335325931199,None,629.1173659800552,None,bye,629.1173659800552,None,return,7.19343204703182,629.2005445570685,None,,,,,,,,,,,,,,,,,,,,,,,,,,,,,,,,,135,001,2023_Nov_15_1609,SpeechDraft1Carolyn_lessNoise_PlusLocalization,2021.2.3,59.98585741986363,
clock.wav,clock.mpg,clock,1,AV,Pink_Noise_1_1.wav,Pink_Noise_1_2.wav,,,,,,,,,,,,,,,0,31,31,111,,,,,,,,,,,,,,,,,,,,,,,636.4172692680731,None,637.9170355228707,None,639.3005660129711,None,clock,639.3005660129711,None,return,11.89020112901926,639.3839048771188,None,,,,,,,,,,,,,,,,,,,,,,,,,,,,,,,,,135,001,2023_Nov_15_1609,SpeechDraft1Carolyn_lessNoise_PlusLocalization,2021.2.3,59.98585741986363,
damp.wav,damp.mpg,damp,2,AV,Pink_Noise_2_1.wav,Pink_Noise_2_2.wav,,,,,,,,,,,,,,,0,32,32,96,,,,,,,,,,,,,,,,,,,,,,,651.300572770182,None,652.8170425891876,None,654.2005734122358,None,damp,654.2005734122358,None,return,5.57411242602393,654.2839597868733,None,,,,,,,,,,,,,,,,,,,,,,,,,,,,,,,,,135,001,2023_Nov_15_1609,SpeechDraft1Carolyn_lessNoise_PlusLocalization,2021.2.3,59.98585741986363,
birth.wav,birth.mpg,birth,6,AV,Pink_Noise_6_1.wav,Pink_Noise_6_2.wav,,,,,,,,,,,,,,,0,33,33,102,,,,,,,,,,,,,,,,,,,,,,,659.8839173922315,None,661.3837261949666,None,662.7672373261303,None,"money
",662.7672373261303,None,return,13.351331041194499,662.8506550570019,None,,,,,,,,,,,,,,,,,,,,,,,,,,,,,,,,,135,001,2023_Nov_15_1609,SpeechDraft1Carolyn_lessNoise_PlusLocalization,2021.2.3,59.98585741986363,
chew.wav,chew.mpg,chew,5,AV,Pink_Noise_5_1.wav,Pink_Noise_5_2.wav,,,,,,,,,,,,,,,0,34,34,83,,,,,,,,,,,,,,,,,,,,,,,676.233928786125,None,677.7336987652816,None,679.1173031292856,None,chew,679.1173031292856,None,return,19.873415754176676,679.2006547232158,None,,,,,,,,,,,,,,,,,,,,,,,,,,,,,,,,,135,001,2023_Nov_15_1609,SpeechDraft1Carolyn_lessNoise_PlusLocalization,2021.2.3,59.98585741986363,
blimp.wav,blimp.mpg,blimp,2,A,Pink_Noise_2_1.wav,Pink_Noise_2_2.wav,,,,,,,,,,,,,,,0,35,35,18,,,,,,,,,,,,,,,,,,,,,,,699.1008744919673,None,700.6170720858499,None,702.000896666199,None,lip,702.000896666199,None,return,3.6619768226519227,702.084018716123,None,,,,,,,,,,,,,,,,,,,,,,,,,,,,,,,,,135,001,2023_Nov_15_1609,SpeechDraft1Carolyn_lessNoise_PlusLocalization,2021.2.3,59.98585741986363,
bald.wav,bald.mpg,bald,2,AV,Pink_Noise_2_1.wav,Pink_Noise_2_2.wav,,,,,,,,,,,,,,,0,36,36,70,,,,,,,,,,,,,,,,,,,,,,,705.7673662882298,None,707.2671255189925,None,708.6506336810999,None,bald,708.6506336810999,None,return,4.87597982166335,708.7340240930207,None,,,,,,,,,,,,,,,,,,,,,,,,,,,,,,,,,135,001,2023_Nov_15_1609,SpeechDraft1Carolyn_lessNoise_PlusLocalization,2021.2.3,59.98585741986363,
traps.wav,traps.mpg,traps,4,A,Pink_Noise_4_1.wav,Pink_Noise_4_2.wav,,,,,,,,,,,,,,,0,37,37,13,,,,,,,,,,,,,,,,,,,,,,,713.6340174009092,None,715.1337181832641,None,716.5174098052084,None,dress,716.5174098052084,None,return,5.52924643503502,716.6007067211904,None,,,,,,,,,,,,,,,,,,,,,,,,,,,,,,,,,135,001,2023_Nov_15_1609,SpeechDraft1Carolyn_lessNoise_PlusLocalization,2021.2.3,59.98585741986363,
flex.wav,flex.mpg,flex,4,AV,Pink_Noise_4_1.wav,Pink_Noise_4_2.wav,,,,,,,,,,,,,,,0,38,38,116,,,,,,,,,,,,,,,,,,,,,,,722.1506386538967,None,723.6504498580471,None,725.0340612190776,None,flight,725.0340612190776,None,return,13.972674611955881,725.1174186868593,None,,,,,,,,,,,,,,,,,,,,,,,,,,,,,,,,,135,001,2023_Nov_15_1609,SpeechDraft1Carolyn_lessNoise_PlusLocalization,2021.2.3,59.98585741986363,
cry.wav,cry.mpg,cry,5,AV,Pink_Noise_5_1.wav,Pink_Noise_5_2.wav,,,,,,,,,,,,,,,0,39,39,86,,,,,,,,,,,,,,,,,,,,,,,739.1175534911454,None,740.6169658629224,None,742.0007283710875,None,"car
",742.0007283710875,None,return,7.286022101994604,742.0839669760317,None,,,,,,,,,,,,,,,,,,,,,,,,,,,,,,,,,135,001,2023_Nov_15_1609,SpeechDraft1Carolyn_lessNoise_PlusLocalization,2021.2.3,59.98585741986363,
dine.wav,dine.mpg,dine,4,A,Pink_Noise_4_1.wav,Pink_Noise_4_2.wav,,,,,,,,,,,,,,,0,40,40,35,,,,,,,,,,,,,,,,,,,,,,,749.4008183600381,None,750.9004606050439,None,752.2840895582922,None,"sorry
",752.2840895582922,None,return,6.002597809769213,752.3673913432285,None,,,,,,,,,,,,,,,,,,,,,,,,,,,,,,,,,135,001,2023_Nov_15_1609,SpeechDraft1Carolyn_lessNoise_PlusLocalization,2021.2.3,59.98585741986363,
broil.wav,broil.mpg,broil,4,A,Pink_Noise_4_1.wav,Pink_Noise_4_2.wav,,,,,,,,,,,,,,,0,41,41,0,,,,,,,,,,,,,,,,,,,,,,,758.4007736439817,None,759.9003554629162,None,761.2840480292216,None,gray,761.2840480292216,None,return,3.4585034558549523,761.3674736549146,None,,,,,,,,,,,,,,,,,,,,,,,,,,,,,,,,,135,001,2023_Nov_15_1609,SpeechDraft1Carolyn_lessNoise_PlusLocalization,2021.2.3,59.98585741986363,
cruel.wav,cruel.mpg,cruel,1,A,Pink_Noise_1_1.wav,Pink_Noise_1_2.wav,,,,,,,,,,,,,,,0,42,42,37,,,,,,,,,,,,,,,,,,,,,,,764.8507646759972,None,766.3504317132756,None,767.7340617352165,None,cruel,767.7340617352165,None,return,3.4645590628497303,767.8174949679524,None,,,,,,,,,,,,,,,,,,,,,,,,,,,,,,,,,135,001,2023_Nov_15_1609,SpeechDraft1Carolyn_lessNoise_PlusLocalization,2021.2.3,59.98585741986363,
gulf.wav,gulf.mpg,gulf,2,A,Pink_Noise_2_1.wav,Pink_Noise_2_2.wav,,,,,,,,,,,,,,,0,43,43,2,,,,,,,,,,,,,,,,,,,,,,,771.3007839270867,None,772.81716538826,None,774.2007565270178,None,"golf
",774.2007565270178,None,return,6.469913762994111,774.284076592885,None,,,,,,,,,,,,,,,,,,,,,,,,,,,,,,,,,135,001,2023_Nov_15_1609,SpeechDraft1Carolyn_lessNoise_PlusLocalization,2021.2.3,59.98585741986363,
gloom.wav,gloom.mpg,gloom,5,AV,Pink_Noise_5_1.wav,Pink_Noise_5_2.wav,,,,,,,,,,,,,,,0,44,44,108,,,,,,,,,,,,,,,,,,,,,,,780.7841005502269,None,782.2838510759175,None,783.6673509548418,None,crew,783.6673509548418,None,return,8.899311787914485,783.750765896868,None,,,,,,,,,,,,,,,,,,,,,,,,,,,,,,,,,135,001,2023_Nov_15_1609,SpeechDraft1Carolyn_lessNoise_PlusLocalization,2021.2.3,59.98585741986363,
tank.wav,tank.mpg,tank,1,A,Pink_Noise_1_1.wav,Pink_Noise_1_2.wav,,,,,,,,,,,,,,,0,45,45,43,,,,,,,,,,,,,,,,,,,,,,,792.6674082512036,None,794.1838299189694,None,795.5674345111474,None,take,795.5674345111474,None,return,2.3993093562312424,795.6507679470815,None,,,,,,,,,,,,,,,,,,,,,,,,,,,,,,,,,135,001,2023_Nov_15_1609,SpeechDraft1Carolyn_lessNoise_PlusLocalization,2021.2.3,59.98585741986363,
beach.wav,beach.mpg,beach,6,AV,Pink_Noise_6_1.wav,Pink_Noise_6_2.wav,,,,,,,,,,,,,,,0,46,46,87,,,,,,,,,,,,,,,,,,,,,,,798.0675549688749,None,799.5682925060391,None,800.9507764922455,None,"beach
",800.9507764922455,None,return,10.303871702868491,801.0341105000116,None,,,,,,,,,,,,,,,,,,,,,,,,,,,,,,,,,135,001,2023_Nov_15_1609,SpeechDraft1Carolyn_lessNoise_PlusLocalization,2021.2.3,59.98585741986363,
fur.wav,fur.mpg,fur,1,A,Pink_Noise_1_1.wav,Pink_Noise_1_2.wav,,,,,,,,,,,,,,,0,47,47,59,,,,,,,,,,,,,,,,,,,,,,,811.3676219251938,None,812.8672239659354,None,814.2508552512154,None,firm,814.2508552512154,None,return,6.779913080856204,814.334153954871,None,,,,,,,,,,,,,,,,,,,,,,,,,,,,,,,,,135,001,2023_Nov_15_1609,SpeechDraft1Carolyn_lessNoise_PlusLocalization,2021.2.3,59.98585741986363,
freak.wav,freak.mpg,freak,2,A,Pink_Noise_2_1.wav,Pink_Noise_2_2.wav,,,,,,,,,,,,,,,0,48,48,22,,,,,,,,,,,,,,,,,,,,,,,821.1341363512911,None,822.650538164191,None,824.03445118526,None,brick,824.03445118526,None,return,6.956577626056969,824.1175223700702,None,,,,,,,,,,,,,,,,,,,,,,,,,,,,,,,,,135,001,2023_Nov_15_1609,SpeechDraft1Carolyn_lessNoise_PlusLocalization,2021.2.3,59.98585741986363,
fail.wav,fail.mpg,fail,6,A,Pink_Noise_6_1.wav,Pink_Noise_6_2.wav,,,,,,,,,,,,,,,0,49,49,45,,,,,,,,,,,,,,,,,,,,,,,831.1007807771675,None,832.617178899236,None,834.0008881720714,None,"man
",834.0008881720714,None,return,8.533770538400859,834.0842259419151,None,,,,,,,,,,,,,,,,,,,,,,,,,,,,,,,,,135,001,2023_Nov_15_1609,SpeechDraft1Carolyn_lessNoise_PlusLocalization,2021.2.3,59.98585741986363,
mass.wav,mass.mpg,mass,1,AV,Pink_Noise_1_1.wav,Pink_Noise_1_2.wav,,,,,,,,,,,,,,,0,50,50,119,,,,,,,,,,,,,,,,,,,,,,,842.6509270798415,None,844.167273697909,None,845.5508095179684,None,mass,845.5508095179684,None,return,3.8078823257237673,845.6341522899456,None,,,,,,,,,,,,,,,,,,,,,,,,,,,,,,,,,135,001,2023_Nov_15_1609,SpeechDraft1Carolyn_lessNoise_PlusLocalization,2021.2.3,59.98585741986363,
grand.wav,grand.mpg,grand,2,AV,Pink_Noise_2_1.wav,Pink_Noise_2_2.wav,,,,,,,,,,,,,,,0,51,51,103,,,,,,,,,,,,,,,,,,,,,,,849.4675215119496,None,850.983874740079,None,852.3675391650759,None,"grand
",852.3675391650759,None,return,3.9510640162043273,852.4509392101318,None,,,,,,,,,,,,,,,,,,,,,,,,,,,,,,,,,135,001,2023_Nov_15_1609,SpeechDraft1Carolyn_lessNoise_PlusLocalization,2021.2.3,59.98585741986363,
crust.wav,crust.mpg,crust,5,AV,Pink_Noise_5_1.wav,Pink_Noise_5_2.wav,,,,,,,,,,,,,,,0,52,52,104,,,,,,,,,,,,,,,,,,,,,,,856.4342070640996,None,857.9346208581701,None,859.317553950008,None,great,859.317553950008,None,return,8.345147099811584,859.4008503411897,None,,,,,,,,,,,,,,,,,,,,,,,,,,,,,,,,,135,001,2023_Nov_15_1609,SpeechDraft1Carolyn_lessNoise_PlusLocalization,2021.2.3,59.98585741986363,
clown.wav,clown.mpg,clown,4,AV,Pink_Noise_4_1.wav,Pink_Noise_4_2.wav,,,,,,,,,,,,,,,0,53,53,106,,,,,,,,,,,,,,,,,,,,,,,867.7676164880395,None,869.2840748019516,None,870.6675870781764,None,"loud
",870.6675870781764,None,return,9.667109591886401,870.7508865781128,None,,,,,,,,,,,,,,,,,,,,,,,,,,,,,,,,,135,001,2023_Nov_15_1609,SpeechDraft1Carolyn_lessNoise_PlusLocalization,2021.2.3,59.98585741986363,
ear.wav,ear.mpg,ear,3,A,Pink_Noise_3_1.wav,Pink_Noise_3_2.wav,,,,,,,,,,,,,,,0,54,54,39,,,,,,,,,,,,,,,,,,,,,,,880.4508850960992,None,881.9672544728965,None,883.3510818569921,None,"ear
",883.3510818569921,None,return,4.919734925031662,883.4342449838296,None,,,,,,,,,,,,,,,,,,,,,,,,,,,,,,,,,135,001,2023_Nov_15_1609,SpeechDraft1Carolyn_lessNoise_PlusLocalization,2021.2.3,59.98585741986363,
grade.wav,grade.mpg,grade,5,A,Pink_Noise_5_1.wav,Pink_Noise_5_2.wav,,,,,,,,,,,,,,,0,55,55,11,,,,,,,,,,,,,,,,,,,,,,,888.384287961293,None,889.8840063302778,None,891.2676499802619,None,jelly,891.2676499802619,None,return,7.715223170351237,891.3508732239716,None,,,,,,,,,,,,,,,,,,,,,,,,,,,,,,,,,135,001,2023_Nov_15_1609,SpeechDraft1Carolyn_lessNoise_PlusLocalization,2021.2.3,59.98585741986363,
card.wav,card.mpg,card,6,A,Pink_Noise_6_1.wav,Pink_Noise_6_2.wav,,,,,,,,,,,,,,,0,56,56,6,,,,,,,,,,,,,,,,,,,,,,,899.0842155269347,None,900.6006639618427,None,901.9842188679613,None,barely,901.9842188679613,None,return,13.798386615235358,902.0676841889508,None,,,,,,,,,,,,,,,,,,,,,,,,,,,,,,,,,135,001,2023_Nov_15_1609,SpeechDraft1Carolyn_lessNoise_PlusLocalization,2021.2.3,59.98585741986363,
dull.wav,dull.mpg,dull,1,AV,Pink_Noise_1_1.wav,Pink_Noise_1_2.wav,,,,,,,,,,,,,,,0,57,57,65,,,,,,,,,,,,,,,,,,,,,,,915.8843201161362,None,917.3840209390037,None,918.7675619502552,None,doll,918.7675619502552,None,return,6.2390326699242,918.8510337951593,None,,,,,,,,,,,,,,,,,,,,,,,,,,,,,,,,,135,001,2023_Nov_15_1609,SpeechDraft1Carolyn_lessNoise_PlusLocalization,2021.2.3,59.98585741986363,
swamp.wav,swamp.mpg,swamp,4,AV,Pink_Noise_4_1.wav,Pink_Noise_4_2.wav,,,,,,,,,,,,,,,0,58,58,94,,,,,,,,,,,,,,,,,,,,,,,925.1176698789932,None,926.6183460839093,None,928.0009322068654,None,"swamp
",928.0009322068654,None,return,7.917682053986937,928.0843102429062,None,,,,,,,,,,,,,,,,,,,,,,,,,,,,,,,,,135,001,2023_Nov_15_1609,SpeechDraft1Carolyn_lessNoise_PlusLocalization,2021.2.3,59.98585741986363,
crook.wav,crook.mpg,crook,6,AV,Pink_Noise_6_1.wav,Pink_Noise_6_2.wav,,,,,,,,,,,,,,,0,59,59,71,,,,,,,,,,,,,,,,,,,,,,,936.0343107869849,None,937.5351962000132,None,938.9177131950855,None,cold,938.9177131950855,None,return,9.089102742262185,939.0009856522083,None,,,,,,,,,,,,,,,,,,,,,,,,,,,,,,,,,135,001,2023_Nov_15_1609,SpeechDraft1Carolyn_lessNoise_PlusLocalization,2021.2.3,59.98585741986363,
sue.wav,sue.mpg,sue,4,AV,Pink_Noise_4_1.wav,Pink_Noise_4_2.wav,,,,,,,,,,,,,,,0,60,60,93,,,,,,,,,,,,,,,,,,,,,,,948.1176522788592,None,949.6341396672651,None,951.0176449459977,None,"soon
",951.0176449459977,None,return,18.836942707188427,951.1010454492643,None,,,,,,,,,,,,,,,,,,,,,,,,,,,,,,,,,135,001,2023_Nov_15_1609,SpeechDraft1Carolyn_lessNoise_PlusLocalization,2021.2.3,59.98585741986363,
paid.wav,paid.mpg,paid,5,A,Pink_Noise_5_1.wav,Pink_Noise_5_2.wav,,,,,,,,,,,,,,,0,61,61,15,,,,,,,,,,,,,,,,,,,,,,,969.967826304026,None,971.4840394142084,None,972.8677082210779,None,lane,972.8677082210779,None,return,4.482937501277775,972.9511129362509,None,,,,,,,,,,,,,,,,,,,,,,,,,,,,,,,,,135,001,2023_Nov_15_1609,SpeechDraft1Carolyn_lessNoise_PlusLocalization,2021.2.3,59.98585741986363,
gulp.wav,gulp.mpg,gulp,5,AV,Pink_Noise_5_1.wav,Pink_Noise_5_2.wav,,,,,,,,,,,,,,,0,62,62,97,,,,,,,,,,,,,,,,,,,,,,,977.4510734542273,None,978.9674226762727,None,980.3509864150546,None,"gulp
",980.3509864150546,None,return,7.1516324039548635,980.4343489781022,None,,,,,,,,,,,,,,,,,,,,,,,,,,,,,,,,,135,001,2023_Nov_15_1609,SpeechDraft1Carolyn_lessNoise_PlusLocalization,2021.2.3,59.98585741986363,
mars.wav,mars.mpg,mars,2,AV,Pink_Noise_2_1.wav,Pink_Noise_2_2.wav,,,,,,,,,,,,,,,0,63,63,63,,,,,,,,,,,,,,,,,,,,,,,987.6176965180784,None,989.1190210678615,None,990.5010237218812,None,mars,990.5010237218812,None,return,3.2976464377716184,990.5843728450127,None,,,,,,,,,,,,,,,,,,,,,,,,,,,,,,,,,135,001,2023_Nov_15_1609,SpeechDraft1Carolyn_lessNoise_PlusLocalization,2021.2.3,59.98585741986363,
flag.wav,flag.mpg,flag,6,A,Pink_Noise_6_1.wav,Pink_Noise_6_2.wav,,,,,,,,,,,,,,,0,64,64,29,,,,,,,,,,,,,,,,,,,,,,,993.9011716200039,None,995.4009698331356,None,996.7844347101636,None,jumping,996.7844347101636,None,return,15.638244105968624,996.8677420541644,None,,,,,,,,,,,,,,,,,,,,,,,,,,,,,,,,,135,001,2023_Nov_15_1609,SpeechDraft1Carolyn_lessNoise_PlusLocalization,2021.2.3,59.98585741986363,
chill.wav,chill.mpg,chill,4,A,Pink_Noise_4_1.wav,Pink_Noise_4_2.wav,,,,,,,,,,,,,,,0,65,65,53,,,,,,,,,,,,,,,,,,,,,,,1012.5344146522693,None,1014.0509209642187,None,1015.434422090184,None,"chill
",1015.434422090184,None,return,7.652188614010811,1015.5177999450825,None,,,,,,,,,,,,,,,,,,,,,,,,,,,,,,,,,135,001,2023_Nov_15_1609,SpeechDraft1Carolyn_lessNoise_PlusLocalization,2021.2.3,59.98585741986363,
bone.wav,bone.mpg,bone,4,AV,Pink_Noise_4_1.wav,Pink_Noise_4_2.wav,,,,,,,,,,,,,,,0,66,66,61,,,,,,,,,,,,,,,,,,,,,,,1023.2012374340557,None,1024.7175135249272,None,1026.1029204521328,None,broke,1026.1029204521328,None,return,5.745451097376645,1026.1845445912331,None,,,,,,,,,,,,,,,,,,,,,,,,,,,,,,,,,135,001,2023_Nov_15_1609,SpeechDraft1Carolyn_lessNoise_PlusLocalization,2021.2.3,59.98585741986363,
chop.wav,chop.mpg,chop,1,AV,Pink_Noise_1_1.wav,Pink_Noise_1_2.wav,,,,,,,,,,,,,,,0,67,67,115,,,,,,,,,,,,,,,,,,,,,,,1031.951094598975,None,1033.468097594101,None,1034.851048334036,None,chap,1034.851048334036,None,return,4.131517537403852,1034.9345049220137,None,,,,,,,,,,,,,,,,,,,,,,,,,,,,,,,,,135,001,2023_Nov_15_1609,SpeechDraft1Carolyn_lessNoise_PlusLocalization,2021.2.3,59.98585741986363,
bail.wav,bail.mpg,bail,3,A,Pink_Noise_3_1.wav,Pink_Noise_3_2.wav,,,,,,,,,,,,,,,0,68,68,36,,,,,,,,,,,,,,,,,,,,,,,1039.0846265261061,None,1040.6008820058778,None,1041.9847215618938,None,fan,1041.9847215618938,None,return,6.110121292993426,1042.0678787571378,None,,,,,,,,,,,,,,,,,,,,,,,,,,,,,,,,,135,001,2023_Nov_15_1609,SpeechDraft1Carolyn_lessNoise_PlusLocalization,2021.2.3,59.98585741986363,
bond.wav,bond.mpg,bond,2,A,Pink_Noise_2_1.wav,Pink_Noise_2_2.wav,,,,,,,,,,,,,,,0,69,69,17,,,,,,,,,,,,,,,,,,,,,,,1048.2011696691625,None,1049.717505367007,None,1051.101239237003,None,found,1051.101239237003,None,return,4.9295340408571064,1051.1844581491314,None,,,,,,,,,,,,,,,,,,,,,,,,,,,,,,,,,135,001,2023_Nov_15_1609,SpeechDraft1Carolyn_lessNoise_PlusLocalization,2021.2.3,59.98585741986363,
droop.wav,droop.mpg,droop,6,AV,Pink_Noise_6_1.wav,Pink_Noise_6_2.wav,,,,,,,,,,,,,,,0,70,70,99,,,,,,,,,,,,,,,,,,,,,,,1056.1354779219255,None,1057.6508116931655,None,1059.034347190056,None,group,1059.034347190056,None,return,7.788201021030545,1059.1178588531911,None,,,,,,,,,,,,,,,,,,,,,,,,,,,,,,,,,135,001,2023_Nov_15_1609,SpeechDraft1Carolyn_lessNoise_PlusLocalization,2021.2.3,59.98585741986363,
glass.wav,glass.mpg,glass,6,A,Pink_Noise_6_1.wav,Pink_Noise_6_2.wav,,,,,,,,,,,,,,,0,71,71,3,,,,,,,,,,,,,,,,,,,,,,,1066.9344257898629,None,1068.4509081239812,None,1069.8345247469842,None,"lost
",1069.8345247469842,None,return,4.604166330303997,1069.9178142729215,None,,,,,,,,,,,,,,,,,,,,,,,,,,,,,,,,,135,001,2023_Nov_15_1609,SpeechDraft1Carolyn_lessNoise_PlusLocalization,2021.2.3,59.98585741986363,
client.wav,client.mpg,client,1,AV,Pink_Noise_1_1.wav,Pink_Noise_1_2.wav,,,,,,,,,,,,,,,0,72,72,73,,,,,,,,,,,,,,,,,,,,,,,1074.5512095000595,None,1076.0527796032839,None,1077.4344578790478,None,client,1077.4344578790478,None,return,4.964203699026257,1077.517832038924,None,,,,,,,,,,,,,,,,,,,,,,,,,,,,,,,,,135,001,2023_Nov_15_1609,SpeechDraft1Carolyn_lessNoise_PlusLocalization,2021.2.3,59.98585741986363,
duct.wav,duct.mpg,duct,3,A,Pink_Noise_3_1.wav,Pink_Noise_3_2.wav,,,,,,,,,,,,,,,0,73,73,51,,,,,,,,,,,,,,,,,,,,,,,1082.5012160451151,None,1084.0175569769926,None,1085.4012090298347,None,sucked,1085.4012090298347,None,return,5.8934623771347106,1085.4845863920636,None,,,,,,,,,,,,,,,,,,,,,,,,,,,,,,,,,135,001,2023_Nov_15_1609,SpeechDraft1Carolyn_lessNoise_PlusLocalization,2021.2.3,59.98585741986363,
bench.wav,bench.mpg,bench,3,AV,Pink_Noise_3_1.wav,Pink_Noise_3_2.wav,,,,,,,,,,,,,,,0,74,74,101,,,,,,,,,,,,,,,,,,,,,,,1091.401244499255,None,1092.9175141048618,None,1094.3012100998312,None,bench,1094.3012100998312,None,return,4.665617438033223,1094.3844959042035,None,,,,,,,,,,,,,,,,,,,,,,,,,,,,,,,,,135,001,2023_Nov_15_1609,SpeechDraft1Carolyn_lessNoise_PlusLocalization,2021.2.3,59.98585741986363,
toast.wav,toast.mpg,toast,5,AV,Pink_Noise_5_1.wav,Pink_Noise_5_2.wav,,,,,,,,,,,,,,,0,75,75,77,,,,,,,,,,,,,,,,,,,,,,,1099.0679993508384,None,1100.5842121648602,None,1101.9678921932355,None,chose,1101.9678921932355,None,return,10.25478198286146,1102.0512077109888,None,,,,,,,,,,,,,,,,,,,,,,,,,,,,,,,,,135,001,2023_Nov_15_1609,SpeechDraft1Carolyn_lessNoise_PlusLocalization,2021.2.3,59.98585741986363,
blaze.wav,blaze.mpg,blaze,5,A,Pink_Noise_5_1.wav,Pink_Noise_5_2.wav,,,,,,,,,,,,,,,0,76,76,25,,,,,,,,,,,,,,,,,,,,,,,1112.3346616388299,None,1113.8509675431997,None,1115.2344887820072,None,lillies,1115.2344887820072,None,return,9.556090663652867,1115.318005997222,None,,,,,,,,,,,,,,,,,,,,,,,,,,,,,,,,,135,001,2023_Nov_15_1609,SpeechDraft1Carolyn_lessNoise_PlusLocalization,2021.2.3,59.98585741986363,
jeep.wav,jeep.mpg,jeep,3,AV,Pink_Noise_3_1.wav,Pink_Noise_3_2.wav,,,,,,,,,,,,,,,0,77,77,109,,,,,,,,,,,,,,,,,,,,,,,1124.901386748068,None,1126.4175770850852,None,1127.801219156012,None,jeep,1127.801219156012,None,return,3.309398215264082,1127.8845704472624,None,,,,,,,,,,,,,,,,,,,,,,,,,,,,,,,,,135,001,2023_Nov_15_1609,SpeechDraft1Carolyn_lessNoise_PlusLocalization,2021.2.3,59.98585741986363,
cap.wav,cap.mpg,cap,4,A,Pink_Noise_4_1.wav,Pink_Noise_4_2.wav,,,,,,,,,,,,,,,0,78,78,48,,,,,,,,,,,,,,,,,,,,,,,1131.2179419472814,None,1132.7342365710065,None,1134.1179776368663,None,"cat
",1134.1179776368663,None,return,4.400529731065035,1134.2014777599834,None,,,,,,,,,,,,,,,,,,,,,,,,,,,,,,,,,135,001,2023_Nov_15_1609,SpeechDraft1Carolyn_lessNoise_PlusLocalization,2021.2.3,59.98585741986363,
glare.wav,glare.mpg,glare,4,AV,Pink_Noise_4_1.wav,Pink_Noise_4_2.wav,,,,,,,,,,,,,,,0,79,79,64,,,,,,,,,,,,,,,,,,,,,,,1138.6346072638407,None,1140.1511859600432,None,1141.5345353619196,None,"liar
",1141.5345353619196,None,return,12.184043074958026,1141.6179466499016,None,,,,,,,,,,,,,,,,,,,,,,,,,,,,,,,,,135,001,2023_Nov_15_1609,SpeechDraft1Carolyn_lessNoise_PlusLocalization,2021.2.3,59.98585741986363,
fleet.wav,fleet.mpg,fleet,3,A,Pink_Noise_3_1.wav,Pink_Noise_3_2.wav,,,,,,,,,,,,,,,0,80,80,14,,,,,,,,,,,,,,,,,,,,,,,1153.8345990669914,None,1155.351026491262,None,1156.7346384720877,None,feet,1156.7346384720877,None,return,4.463970903772861,1156.8180651171133,None,,,,,,,,,,,,,,,,,,,,,,,,,,,,,,,,,135,001,2023_Nov_15_1609,SpeechDraft1Carolyn_lessNoise_PlusLocalization,2021.2.3,59.98585741986363,
cheek.wav,cheek.mpg,cheek,1,A,Pink_Noise_1_1.wav,Pink_Noise_1_2.wav,,,,,,,,,,,,,,,0,81,81,31,,,,,,,,,,,,,,,,,,,,,,,1161.301287070848,None,1162.8176842499524,None,1164.2013086429797,None,cheek,1164.2013086429797,None,return,4.525290599092841,1164.2846896820702,None,,,,,,,,,,,,,,,,,,,,,,,,,,,,,,,,,135,001,2023_Nov_15_1609,SpeechDraft1Carolyn_lessNoise_PlusLocalization,2021.2.3,59.98585741986363,
tomb.wav,tomb.mpg,tomb,2,AV,Pink_Noise_2_1.wav,Pink_Noise_2_2.wav,,,,,,,,,,,,,,,0,82,82,66,,,,,,,,,,,,,,,,,,,,,,,1168.8346951440908,None,1170.351062442176,None,1171.7345790881664,None,two,1171.7345790881664,None,return,3.2560899541713297,1171.8180219731294,None,,,,,,,,,,,,,,,,,,,,,,,,,,,,,,,,,135,001,2023_Nov_15_1609,SpeechDraft1Carolyn_lessNoise_PlusLocalization,2021.2.3,59.98585741986363,
bias.wav,bias.mpg,bias,1,AV,Pink_Noise_1_1.wav,Pink_Noise_1_2.wav,,,,,,,,,,,,,,,0,83,83,112,,,,,,,,,,,,,,,,,,,,,,,1175.1013582539745,None,1176.6177025330253,None,1178.0012663099915,None,bias,1178.0012663099915,None,return,4.549302538856864,1178.0847834260203,None,,,,,,,,,,,,,,,,,,,,,,,,,,,,,,,,,135,001,2023_Nov_15_1609,SpeechDraft1Carolyn_lessNoise_PlusLocalization,2021.2.3,59.98585741986363,
flip.wav,flip.mpg,flip,1,AV,Pink_Noise_1_1.wav,Pink_Noise_1_2.wav,,,,,,,,,,,,,,,0,84,84,67,,,,,,,,,,,,,,,,,,,,,,,1182.6512781269848,None,1184.1678186319768,None,1185.551228127908,None,flip,1185.551228127908,None,return,6.063334067817777,1185.6347287409008,None,,,,,,,,,,,,,,,,,,,,,,,,,,,,,,,,,135,001,2023_Nov_15_1609,SpeechDraft1Carolyn_lessNoise_PlusLocalization,2021.2.3,59.98585741986363,
core.wav,core.mpg,core,2,A,Pink_Noise_2_1.wav,Pink_Noise_2_2.wav,,,,,,,,,,,,,,,0,85,85,10,,,,,,,,,,,,,,,,,,,,,,,1191.717980449088,None,1193.2345569762401,None,1194.6181171978824,None,"core
",1194.6181171978824,None,return,3.8525772970169783,1194.701411018148,None,,,,,,,,,,,,,,,,,,,,,,,,,,,,,,,,,135,001,2023_Nov_15_1609,SpeechDraft1Carolyn_lessNoise_PlusLocalization,2021.2.3,59.98585741986363,
greek.wav,greek.mpg,greek,3,AV,Pink_Noise_3_1.wav,Pink_Noise_3_2.wav,,,,,,,,,,,,,,,0,86,86,80,,,,,,,,,,,,,,,,,,,,,,,1198.58471396612,None,1200.101087088231,None,1201.4846642790362,None,greek,1201.4846642790362,None,return,13.425896937027574,1201.5680819260888,None,,,,,,,,,,,,,,,,,,,,,,,,,,,,,,,,,135,001,2023_Nov_15_1609,SpeechDraft1Carolyn_lessNoise_PlusLocalization,2021.2.3,59.98585741986363,
booth.wav,booth.mpg,booth,1,A,Pink_Noise_1_1.wav,Pink_Noise_1_2.wav,,,,,,,,,,,,,,,0,87,87,32,,,,,,,,,,,,,,,,,,,,,,,1215.017980484292,None,1216.534597992897,None,1217.918055342976,None,booth,1217.918055342976,None,return,5.69669902138412,1218.0013783159666,None,,,,,,,,,,,,,,,,,,,,,,,,,,,,,,,,,135,001,2023_Nov_15_1609,SpeechDraft1Carolyn_lessNoise_PlusLocalization,2021.2.3,59.98585741986363,
chunk.wav,chunk.mpg,chunk,2,A,Pink_Noise_2_1.wav,Pink_Noise_2_2.wav,,,,,,,,,,,,,,,0,88,88,58,,,,,,,,,,,,,,,,,,,,,,,1223.7180749899708,None,1225.234409079887,None,1226.6180763472803,None,"chug
",1226.6180763472803,None,return,13.036608790047467,1226.701363596134,None,,,,,,,,,,,,,,,,,,,,,,,,,,,,,,,,,135,001,2023_Nov_15_1609,SpeechDraft1Carolyn_lessNoise_PlusLocalization,2021.2.3,59.98585741986363,
coy.wav,coy.mpg,coy,6,AV,Pink_Noise_6_1.wav,Pink_Noise_6_2.wav,,,,,,,,,,,,,,,0,89,89,60,,,,,,,,,,,,,,,,,,,,,,,1239.7681082650088,None,1241.2844705432653,None,1242.6679986631498,None,"toy
",1242.6679986631498,None,return,7.602612384594977,1242.7513906438835,None,,,,,,,,,,,,,,,,,,,,,,,,,,,,,,,,,135,001,2023_Nov_15_1609,SpeechDraft1Carolyn_lessNoise_PlusLocalization,2021.2.3,59.98585741986363,
buff.wav,buff.mpg,buff,1,A,Pink_Noise_1_1.wav,Pink_Noise_1_2.wav,,,,,,,,,,,,,,,0,90,90,40,,,,,,,,,,,,,,,,,,,,,,,1250.3847870612517,None,1251.9012527498417,None,1253.284852806013,None,buff,1253.284852806013,None,return,9.041854541748762,1253.3681316482835,None,,,,,,,,,,,,,,,,,,,,,,,,,,,,,,,,,135,001,2023_Nov_15_1609,SpeechDraft1Carolyn_lessNoise_PlusLocalization,2021.2.3,59.98585741986363,
dock.wav,dock.mpg,dock,3,A,Pink_Noise_3_1.wav,Pink_Noise_3_2.wav,,,,,,,,,,,,,,,0,91,91,21,,,,,,,,,,,,,,,,,,,,,,,1262.4347493080422,None,1263.9519990431145,None,1265.3347933818586,None,"duck
",1265.3347933818586,None,return,4.903829229064286,1265.4181708102114,None,,,,,,,,,,,,,,,,,,,,,,,,,,,,,,,,,135,001,2023_Nov_15_1609,SpeechDraft1Carolyn_lessNoise_PlusLocalization,2021.2.3,59.98585741986363,
food.wav,food.mpg,food,2,AV,Pink_Noise_2_1.wav,Pink_Noise_2_2.wav,,,,,,,,,,,,,,,0,92,92,95,,,,,,,,,,,,,,,,,,,,,,,1270.3517242791131,None,1271.867847184185,None,1273.2513405508362,None,"food
",1273.2513405508362,None,return,5.467086503282189,1273.3348913029768,None,,,,,,,,,,,,,,,,,,,,,,,,,,,,,,,,,135,001,2023_Nov_15_1609,SpeechDraft1Carolyn_lessNoise_PlusLocalization,2021.2.3,59.98585741986363,
crate.wav,crate.mpg,crate,5,A,Pink_Noise_5_1.wav,Pink_Noise_5_2.wav,,,,,,,,,,,,,,,0,93,93,7,,,,,,,,,,,,,,,,,,,,,,,1278.8348322380334,None,1280.3512248629704,None,1281.734820730053,None,"crate
",1281.734820730053,None,return,7.319777281023562,1281.8182037142105,None,,,,,,,,,,,,,,,,,,,,,,,,,,,,,,,,,135,001,2023_Nov_15_1609,SpeechDraft1Carolyn_lessNoise_PlusLocalization,2021.2.3,59.98585741986363,
fluff.wav,fluff.mpg,fluff,2,AV,Pink_Noise_2_1.wav,Pink_Noise_2_2.wav,,,,,,,,,,,,,,,0,94,94,76,,,,,,,,,,,,,,,,,,,,,,,1289.1681977729313,None,1290.6844592890702,None,1292.0682503129356,None,fluff,1292.0682503129356,None,return,16.162608668673784,1292.1514062602073,None,,,,,,,,,,,,,,,,,,,,,,,,,,,,,,,,,135,001,2023_Nov_15_1609,SpeechDraft1Carolyn_lessNoise_PlusLocalization,2021.2.3,59.98585741986363,
oats.wav,oats.mpg,oats,6,A,Pink_Noise_6_1.wav,Pink_Noise_6_2.wav,,,,,,,,,,,,,,,0,95,95,49,,,,,,,,,,,,,,,,,,,,,,,1308.3348294789903,None,1309.8512426759116,None,1311.2347645931877,None,wait,1311.2347645931877,None,return,6.059776705224067,1311.318189588841,None,,,,,,,,,,,,,,,,,,,,,,,,,,,,,,,,,135,001,2023_Nov_15_1609,SpeechDraft1Carolyn_lessNoise_PlusLocalization,2021.2.3,59.98585741986363,
dope.wav,dope.mpg,dope,4,AV,Pink_Noise_4_1.wav,Pink_Noise_4_2.wav,,,,,,,,,,,,,,,0,96,96,79,,,,,,,,,,,,,,,,,,,,,,,1317.4015955640934,None,1318.917884082999,None,1320.3014460462146,None,"dope
",1320.3014460462146,None,return,4.7851295582950115,1320.3848600299098,None,,,,,,,,,,,,,,,,,,,,,,,,,,,,,,,,,135,001,2023_Nov_15_1609,SpeechDraft1Carolyn_lessNoise_PlusLocalization,2021.2.3,59.98585741986363,
camp.wav,camp.mpg,camp,1,A,Pink_Noise_1_1.wav,Pink_Noise_1_2.wav,,,,,,,,,,,,,,,0,97,97,20,,,,,,,,,,,,,,,,,,,,,,,1325.2014975571074,None,1326.7179907532409,None,1328.1015334278345,None,kill,1328.1015334278345,None,return,7.9290733630768955,1328.184928218834,None,,,,,,,,,,,,,,,,,,,,,,,,,,,,,,,,,135,001,2023_Nov_15_1609,SpeechDraft1Carolyn_lessNoise_PlusLocalization,2021.2.3,59.98585741986363,
grape.wav,grape.mpg,grape,3,A,Pink_Noise_3_1.wav,Pink_Noise_3_2.wav,,,,,,,,,,,,,,,0,98,98,12,,,,,,,,,,,,,,,,,,,,,,,1336.1348450342193,None,1337.6512724030763,None,1339.0347796729766,None,great,1339.0347796729766,None,return,8.67574880598113,1339.118236172013,None,,,,,,,,,,,,,,,,,,,,,,,,,,,,,,,,,135,001,2023_Nov_15_1609,SpeechDraft1Carolyn_lessNoise_PlusLocalization,2021.2.3,59.98585741986363,
script.wav,script.mpg,script,3,AV,Pink_Noise_3_1.wav,Pink_Noise_3_2.wav,,,,,,,,,,,,,,,0,99,99,68,,,,,,,,,,,,,,,,,,,,,,,1347.8183071590029,None,1349.336188740097,None,1350.718119031284,None,"script
",1350.718119031284,None,return,7.3681730180978775,1350.8018356729299,None,,,,,,,,,,,,,,,,,,,,,,,,,,,,,,,,,135,001,2023_Nov_15_1609,SpeechDraft1Carolyn_lessNoise_PlusLocalization,2021.2.3,59.98585741986363,
champ.wav,champ.mpg,champ,3,AV,Pink_Noise_3_1.wav,Pink_Noise_3_2.wav,,,,,,,,,,,,,,,0,100,100,88,,,,,,,,,,,,,,,,,,,,,,,1358.2015788010322,None,1359.7180706360377,None,1361.1015178281814,None,champ,1361.1015178281814,None,return,4.833168039098382,1361.184877349995,None,,,,,,,,,,,,,,,,,,,,,,,,,,,,,,,,,135,001,2023_Nov_15_1609,SpeechDraft1Carolyn_lessNoise_PlusLocalization,2021.2.3,59.98585741986363,
bib.wav,bib.mpg,bib,6,AV,Pink_Noise_6_1.wav,Pink_Noise_6_2.wav,,,,,,,,,,,,,,,0,101,101,114,,,,,,,,,,,,,,,,,,,,,,,1366.0349678699858,None,1367.5515244188718,None,1368.9350326750427,None,"bib
",1368.9350326750427,None,return,5.919722678139806,1369.0182777089067,None,,,,,,,,,,,,,,,,,,,,,,,,,,,,,,,,,135,001,2023_Nov_15_1609,SpeechDraft1Carolyn_lessNoise_PlusLocalization,2021.2.3,59.98585741986363,
bed.wav,bed.mpg,bed,3,AV,Pink_Noise_3_1.wav,Pink_Noise_3_2.wav,,,,,,,,,,,,,,,0,102,102,113,,,,,,,,,,,,,,,,,,,,,,,1374.968335119076,None,1376.4846586580388,None,1377.8681044462137,None,"bed
",1377.8681044462137,None,return,3.2342595644295216,1377.951732432004,None,,,,,,,,,,,,,,,,,,,,,,,,,,,,,,,,,135,001,2023_Nov_15_1609,SpeechDraft1Carolyn_lessNoise_PlusLocalization,2021.2.3,59.98585741986363,
chick.wav,chick.mpg,chick,6,A,Pink_Noise_6_1.wav,Pink_Noise_6_2.wav,,,,,,,,,,,,,,,0,103,103,50,,,,,,,,,,,,,,,,,,,,,,,1381.2182178292423,None,1382.7346759778447,None,1384.1185670602135,None,"change
",1384.1185670602135,None,return,8.368393199052662,1384.2016068510711,None,,,,,,,,,,,,,,,,,,,,,,,,,,,,,,,,,135,001,2023_Nov_15_1609,SpeechDraft1Carolyn_lessNoise_PlusLocalization,2021.2.3,59.98585741986363,
bet.wav,bet.mpg,bet,1,A,Pink_Noise_1_1.wav,Pink_Noise_1_2.wav,,,,,,,,,,,,,,,0,104,104,52,,,,,,,,,,,,,,,,,,,,,,,1392.6016250881366,None,1394.118151219096,None,1395.5015560318716,None,bat,1395.5015560318716,None,return,4.177018928807229,1395.584958882071,None,,,,,,,,,,,,,,,,,,,,,,,,,,,,,,,,,135,001,2023_Nov_15_1609,SpeechDraft1Carolyn_lessNoise_PlusLocalization,2021.2.3,59.98585741986363,
glad.wav,glad.mpg,glad,6,AV,Pink_Noise_6_1.wav,Pink_Noise_6_2.wav,,,,,,,,,,,,,,,0,105,105,100,,,,,,,,,,,,,,,,,,,,,,,1399.785092413891,None,1401.3014436862431,None,1402.6849108231254,None,lie,1402.6849108231254,None,return,9.393621989060193,1402.7683563749306,None,,,,,,,,,,,,,,,,,,,,,,,,,,,,,,,,,135,001,2023_Nov_15_1609,SpeechDraft1Carolyn_lessNoise_PlusLocalization,2021.2.3,59.98585741986363,
break.wav,break.mpg,break,3,A,Pink_Noise_3_1.wav,Pink_Noise_3_2.wav,,,,,,,,,,,,,,,0,106,106,27,,,,,,,,,,,,,,,,,,,,,,,1412.1850114208646,None,1413.7017752672546,None,1415.085116240196,None,"break
",1415.085116240196,None,return,6.233683588914573,1415.1682979972102,None,,,,,,,,,,,,,,,,,,,,,,,,,,,,,,,,,135,001,2023_Nov_15_1609,SpeechDraft1Carolyn_lessNoise_PlusLocalization,2021.2.3,59.98585741986363,
dance.wav,dance.mpg,dance,2,AV,Pink_Noise_2_1.wav,Pink_Noise_2_2.wav,,,,,,,,,,,,,,,0,107,107,74,,,,,,,,,,,,,,,,,,,,,,,1421.4350549359806,None,1422.9515104768798,None,1424.3349766531028,None,dance,1424.3349766531028,None,return,8.159648714121431,1424.4183349139057,None,,,,,,,,,,,,,,,,,,,,,,,,,,,,,,,,,135,001,2023_Nov_15_1609,SpeechDraft1Carolyn_lessNoise_PlusLocalization,2021.2.3,59.98585741986363,
count.wav,count.mpg,count,4,AV,Pink_Noise_4_1.wav,Pink_Noise_4_2.wav,,,,,,,,,,,,,,,0,108,108,75,,,,,,,,,,,,,,,,,,,,,,,1432.6018190458417,None,1434.1181792770512,None,1435.5015975092538,None,"count
",1435.5015975092538,None,return,8.01690725190565,1435.5850852779113,None,,,,,,,,,,,,,,,,,,,,,,,,,,,,,,,,,135,001,2023_Nov_15_1609,SpeechDraft1Carolyn_lessNoise_PlusLocalization,2021.2.3,59.98585741986363,
blast.wav,blast.mpg,blast,3,AV,Pink_Noise_3_1.wav,Pink_Noise_3_2.wav,,,,,,,,,,,,,,,0,109,109,92,,,,,,,,,,,,,,,,,,,,,,,1443.6350602721795,None,1445.151495511178,None,1446.5349493492395,None,blast,1446.5349493492395,None,return,4.471574262715876,1446.6184129291214,None,,,,,,,,,,,,,,,,,,,,,,,,,,,,,,,,,135,001,2023_Nov_15_1609,SpeechDraft1Carolyn_lessNoise_PlusLocalization,2021.2.3,59.98585741986363,
pike.wav,pike.mpg,pike,1,AV,Pink_Noise_1_1.wav,Pink_Noise_1_2.wav,,,,,,,,,,,,,,,0,110,110,105,,,,,,,,,,,,,,,,,,,,,,,1451.11837276211,None,1452.6349547519349,None,1454.0183104118332,None,pike,1454.0183104118332,None,return,4.388330155983567,1454.1016749250703,None,,,,,,,,,,,,,,,,,,,,,,,,,,,,,,,,,135,001,2023_Nov_15_1609,SpeechDraft1Carolyn_lessNoise_PlusLocalization,2021.2.3,59.98585741986363,
rod.wav,rod.mpg,rod,5,AV,Pink_Noise_5_1.wav,Pink_Noise_5_2.wav,,,,,,,,,,,,,,,0,111,111,69,,,,,,,,,,,,,,,,,,,,,,,1458.5184088451788,None,1460.0347657850944,None,1461.4183059539646,None,ride,1461.4183059539646,None,return,6.516308196820319,1461.5017772600986,None,,,,,,,,,,,,,,,,,,,,,,,,,,,,,,,,,135,001,2023_Nov_15_1609,SpeechDraft1Carolyn_lessNoise_PlusLocalization,2021.2.3,59.98585741986363,
roar.wav,roar.mpg,roar,6,AV,Pink_Noise_6_1.wav,Pink_Noise_6_2.wav,,,,,,,,,,,,,,,0,112,112,118,,,,,,,,,,,,,,,,,,,,,,,1468.0350580899976,None,1469.5514250108972,None,1470.9349853591993,None,word,1470.9349853591993,None,return,7.847687344066799,1471.0183194009587,None,,,,,,,,,,,,,,,,,,,,,,,,,,,,,,,,,135,001,2023_Nov_15_1609,SpeechDraft1Carolyn_lessNoise_PlusLocalization,2021.2.3,59.98585741986363,
flush.wav,flush.mpg,flush,6,A,Pink_Noise_6_1.wav,Pink_Noise_6_2.wav,,,,,,,,,,,,,,,0,113,113,28,,,,,,,,,,,,,,,,,,,,,,,1478.88509041816,None,1480.4014618801884,None,1481.7850874490105,None,catch,1481.7850874490105,None,return,6.125548264943063,1481.8684283662587,None,,,,,,,,,,,,,,,,,,,,,,,,,,,,,,,,,135,001,2023_Nov_15_1609,SpeechDraft1Carolyn_lessNoise_PlusLocalization,2021.2.3,59.98585741986363,
dirt.wav,dirt.mpg,dirt,6,A,Pink_Noise_6_1.wav,Pink_Noise_6_2.wav,,,,,,,,,,,,,,,0,114,114,57,,,,,,,,,,,,,,,,,,,,,,,1488.018529204186,None,1489.5362545060925,None,1490.9185929330997,None,flip,1490.9185929330997,None,return,6.9921955158934,1491.0018127160147,None,,,,,,,,,,,,,,,,,,,,,,,,,,,,,,,,,135,001,2023_Nov_15_1609,SpeechDraft1Carolyn_lessNoise_PlusLocalization,2021.2.3,59.98585741986363,
bay.wav,bay.mpg,bay,4,A,Pink_Noise_4_1.wav,Pink_Noise_4_2.wav,,,,,,,,,,,,,,,0,115,115,41,,,,,,,,,,,,,,,,,,,,,,,1498.018412895035,None,1499.5348792169243,None,1500.918456660118,None,beg,1500.918456660118,None,return,4.27233398007229,1501.001791593153,None,,,,,,,,,,,,,,,,,,,,,,,,,,,,,,,,,135,001,2023_Nov_15_1609,SpeechDraft1Carolyn_lessNoise_PlusLocalization,2021.2.3,59.98585741986363,
hug.wav,hug.mpg,hug,1,A,Pink_Noise_1_1.wav,Pink_Noise_1_2.wav,,,,,,,,,,,,,,,0,116,116,23,,,,,,,,,,,,,,,,,,,,,,,1505.301940223202,None,1506.8182583930902,None,1508.2018718849868,None,hug,1508.2018718849868,None,return,4.004789711907506,1508.2851967671886,None,,,,,,,,,,,,,,,,,,,,,,,,,,,,,,,,,135,001,2023_Nov_15_1609,SpeechDraft1Carolyn_lessNoise_PlusLocalization,2021.2.3,59.98585741986363,
duke.wav,duke.mpg,duke,3,A,Pink_Noise_3_1.wav,Pink_Noise_3_2.wav,,,,,,,,,,,,,,,0,117,117,9,,,,,,,,,,,,,,,,,,,,,,,1512.3184989308938,None,1513.8347854930907,None,1515.2184150922112,None,shoot,1515.2184150922112,None,return,3.988065070938319,1515.3019268661737,None,,,,,,,,,,,,,,,,,,,,,,,,,,,,,,,,,135,001,2023_Nov_15_1609,SpeechDraft1Carolyn_lessNoise_PlusLocalization,2021.2.3,59.98585741986363,
fit.wav,fit.mpg,fit,5,A,Pink_Noise_5_1.wav,Pink_Noise_5_2.wav,,,,,,,,,,,,,,,0,118,118,47,,,,,,,,,,,,,,,,,,,,,,,1519.3184314980172,None,1520.8348670620471,None,1522.2185255922377,None,fix,1522.2185255922377,None,return,7.3722664676606655,1522.30181935383,None,,,,,,,,,,,,,,,,,,,,,,,,,,,,,,,,,135,001,2023_Nov_15_1609,SpeechDraft1Carolyn_lessNoise_PlusLocalization,2021.2.3,59.98585741986363,
freeze.wav,freeze.mpg,freeze,5,AV,Pink_Noise_5_1.wav,Pink_Noise_5_2.wav,,,,,,,,,,,,,,,0,119,119,81,,,,,,,,,,,,,,,,,,,,,,,1529.7018214431591,None,1531.2183068301529,None,1532.6017200578935,None,freeze,1532.6017200578935,None,return,7.812602167017758,1532.685369225219,None,,,,,,,,,,,,,,,,,,,,,,,,,,,,,,,,,135,001,2023_Nov_15_1609,SpeechDraft1Carolyn_lessNoise_PlusLocalization,2021.2.3,59.98585741986363,
,,,,,,,,,,,,,,,,,,,,,,,,,,,,,,,,,,,,,,,,,,,,,,,,,,,,,,,,,,,,,,,,,,space,17.23213860904798,1540.6019322979264,None,,,,,,,,,,,,,,,,,,,,,,,135,001,2023_Nov_15_1609,SpeechDraft1Carolyn_lessNoise_PlusLocalization,2021.2.3,59.98585741986363,
,,,,,,,,farLeft,-19.1,5,ch1Sound_localizationTask.wav,-19.1,"(667, 878)","(-293,-202)",-285,-338,,,,,,,,,0,0,0,0,,,,,,,,,,,,,,,,,,,,,,,,,,,,,,,,,,,,,,,,,,1540.6019322979264,None,1557.8682667538524,None,1558.9681931529194,None,1559.9017674149945,None,1.102116402116402,4.003851171117276,1559.9017674149945,None,,,,,,,,,,,135,001,2023_Nov_15_1609,SpeechDraft1Carolyn_lessNoise_PlusLocalization,2021.2.3,59.98585741986363,
,,,,,,,,farLeft,-19.1,5,ch1Sound_localizationTask.wav,-19.1,"(667, 878)","(-293,-202)",-285,-338,,,,,,,,,0,1,1,0,,,,,,,,,,,,,,,,,,,,,,,,,,,,,,,,,,,,,,,,,,,,1563.918807852082,None,1565.0184144042432,None,1565.9515146068297,None,1.1708994708994709,1.6169965020380914,1565.9515146068297,None,,,,,,,,,,,135,001,2023_Nov_15_1609,SpeechDraft1Carolyn_lessNoise_PlusLocalization,2021.2.3,59.98585741986363,
,,,,,,,,nearRight,6.5,0,ch1Sound_localizationTask.wav,6.5,"(1047, 878)","(87, -202)",95,-338,,,,,,,,,0,2,2,4,,,,,,,,,,,,,,,,,,,,,,,,,,,,,,,,,,,,,,,,,,,,1567.5702433101833,None,1568.6848828461953,None,1569.6015517702326,None,1.4714285714285715,2.5337159167975187,1569.6015517702326,None,,,,,,,,,,,135,001,2023_Nov_15_1609,SpeechDraft1Carolyn_lessNoise_PlusLocalization,2021.2.3,59.98585741986363,
,,,,,,,,midLeft,-13.0,2,ch1Sound_localizationTask.wav,-13.0,"(762, 878)","(-198,-202)",-190,-338,,,,,,,,,0,3,3,1,,,,,,,,,,,,,,,,,,,,,,,,,,,,,,,,,,,,,,,,,,,,1572.1363526298665,None,1573.2518132189289,None,1574.1683404180221,None,1.2878306878306878,1.8999105510301888,1574.1683404180221,None,,,,,,,,,,,135,001,2023_Nov_15_1609,SpeechDraft1Carolyn_lessNoise_PlusLocalization,2021.2.3,59.98585741986363,
,,,,,,,,midLeft,-13.0,2,ch1Sound_localizationTask.wav,-13.0,"(762, 878)","(-198,-202)",-190,-338,,,,,,,,,0,4,4,1,,,,,,,,,,,,,,,,,,,,,,,,,,,,,,,,,,,,,,,,,,,,1576.085319914855,None,1577.1849985630251,None,1578.1182742700912,None,1.284126984126984,1.183762121014297,1578.1182742700912,None,,,,,,,,,,,135,001,2023_Nov_15_1609,SpeechDraft1Carolyn_lessNoise_PlusLocalization,2021.2.3,59.98585741986363,
,,,,,,,,farRight,19.1,4,ch1Sound_localizationTask.wav,19.1,"(1237, 878)","(277,-202)",285,-338,,,,,,,,,0,5,5,6,,,,,,,,,,,,,,,,,,,,,,,,,,,,,,,,,,,,,,,,,,,,1579.3039516760036,None,1580.4184418278746,None,1581.3352482332848,None,1.7693121693121694,2.6666320050135255,1581.3352482332848,None,,,,,,,,,,,135,001,2023_Nov_15_1609,SpeechDraft1Carolyn_lessNoise_PlusLocalization,2021.2.3,59.98585741986363,
,,,,,,,,farLeft,-19.1,5,ch1Sound_localizationTask.wav,-19.1,"(667, 878)","(-293,-202)",-285,-338,,,,,,,,,0,6,6,0,,,,,,,,,,,,,,,,,,,,,,,,,,,,,,,,,,,,,,,,,,,,1584.0189864309505,None,1585.118400966283,None,1586.0519315418787,None,1.2095238095238097,2.000542887020856,1586.0519315418787,None,,,,,,,,,,,135,001,2023_Nov_15_1609,SpeechDraft1Carolyn_lessNoise_PlusLocalization,2021.2.3,59.98585741986363,
,,,,,,,,nearRight,6.5,0,ch1Sound_localizationTask.wav,6.5,"(1047, 878)","(87, -202)",95,-338,,,,,,,,,1,0,7,4,,,,,,,,,,,,,,,,,,,,,,,,,,,,,,,,,,,,,,,,,,,,1588.0687842718326,None,1589.1682638609782,None,1590.1017450452782,None,1.493121693121693,1.14964962285012,1590.1017450452782,None,,,,,,,,,,,135,001,2023_Nov_15_1609,SpeechDraft1Carolyn_lessNoise_PlusLocalization,2021.2.3,59.98585741986363,
,,,,,,,,midLeft,-13.0,2,ch1Sound_localizationTask.wav,-13.0,"(762, 878)","(-198,-202)",-190,-338,,,,,,,,,1,1,8,1,,,,,,,,,,,,,,,,,,,,,,,,,,,,,,,,,,,,,,,,,,,,1591.2530938419513,None,1592.3683650172316,None,1593.2852423111908,None,1.1957671957671958,1.431911604013294,1593.2852423111908,None,,,,,,,,,,,135,001,2023_Nov_15_1609,SpeechDraft1Carolyn_lessNoise_PlusLocalization,2021.2.3,59.98585741986363,
,,,,,,,,nearLeft,-6.5,1,ch1Sound_localizationTask.wav,-6.5,"(857, 878)","(-103,-202)",-95,-338,,,,,,,,,1,2,9,2,,,,,,,,,,,,,,,,,,,,,,,,,,,,,,,,,,,,,,,,,,,,1594.7197650261223,None,1595.8351787938736,None,1596.7517046392895,None,1.3074074074074074,1.5515826889313757,1596.7517046392895,None,,,,,,,,,,,135,001,2023_Nov_15_1609,SpeechDraft1Carolyn_lessNoise_PlusLocalization,2021.2.3,59.98585741986363,
,,,,,,,,farRight,19.1,4,ch1Sound_localizationTask.wav,19.1,"(1237, 878)","(277,-202)",285,-338,,,,,,,,,1,3,10,6,,,,,,,,,,,,,,,,,,,,,,,,,,,,,,,,,,,,,,,,,,,,1598.3186442740262,None,1599.418418241199,None,1600.3517356682569,None,1.6148148148148147,1.0331317586824298,1600.3517356682569,None,,,,,,,,,,,135,001,2023_Nov_15_1609,SpeechDraft1Carolyn_lessNoise_PlusLocalization,2021.2.3,59.98585741986363,
,,,,,,,,nearLeft,-6.5,1,ch1Sound_localizationTask.wav,-6.5,"(857, 878)","(-103,-202)",-95,-338,,,,,,,,,1,4,11,2,,,,,,,,,,,,,,,,,,,,,,,,,,,,,,,,,,,,,,,,,,,,1601.3869303679094,None,1602.501834539231,None,1603.4183072242886,None,1.4,1.4342325548641384,1603.4183072242886,None,,,,,,,,,,,135,001,2023_Nov_15_1609,SpeechDraft1Carolyn_lessNoise_PlusLocalization,2021.2.3,59.98585741986363,
,,,,,,,,midRight,13.0,3,ch1Sound_localizationTask.wav,13.0,"(1142, 878)","(182, -202)",190,-338,,,,,,,,,1,5,12,5,,,,,,,,,,,,,,,,,,,,,,,,,,,,,,,,,,,,,,,,,,,,1604.8685890869237,None,1605.9682934680022,None,1606.9017172469757,None,1.4851851851851852,1.2325180848129094,1606.9017172469757,None,,,,,,,,,,,135,001,2023_Nov_15_1609,SpeechDraft1Carolyn_lessNoise_PlusLocalization,2021.2.3,59.98585741986363,
,,,,,,,,midRight,13.0,3,ch1Sound_localizationTask.wav,13.0,"(1142, 878)","(182, -202)",190,-338,,,,,,,,,1,6,13,5,,,,,,,,,,,,,,,,,,,,,,,,,,,,,,,,,,,,,,,,,,,,1608.136031031143,None,1609.2350214188918,None,1610.1683531608433,None,1.5185185185185186,0.8992548896931112,1610.1683531608433,None,,,,,,,,,,,135,001,2023_Nov_15_1609,SpeechDraft1Carolyn_lessNoise_PlusLocalization,2021.2.3,59.98585741986363,
,,,,,,,,farRight,19.1,4,ch1Sound_localizationTask.wav,19.1,"(1237, 878)","(277,-202)",285,-338,,,,,,,,,2,0,14,6,,,,,,,,,,,,,,,,,,,,,,,,,,,,,,,,,,,,,,,,,,,,1611.0694188331254,None,1612.1683314288966,None,1613.1018251860514,None,1.6756613756613756,1.116685135755688,1613.1018251860514,None,,,,,,,,,,,135,001,2023_Nov_15_1609,SpeechDraft1Carolyn_lessNoise_PlusLocalization,2021.2.3,59.98585741986363,
,,,,,,,,midLeft,-13.0,2,ch1Sound_localizationTask.wav,-13.0,"(762, 878)","(-198,-202)",-190,-338,,,,,,,,,2,1,15,1,,,,,,,,,,,,,,,,,,,,,,,,,,,,,,,,,,,,,,,,,,,,1614.2354237390682,None,1615.3349565379322,None,1616.2682753000408,None,1.3116402116402117,1.6685292860493064,1616.2682753000408,None,,,,,,,,,,,135,001,2023_Nov_15_1609,SpeechDraft1Carolyn_lessNoise_PlusLocalization,2021.2.3,59.98585741986363,
,,,,,,,,farLeft,-19.1,5,ch1Sound_localizationTask.wav,-19.1,"(667, 878)","(-293,-202)",-285,-338,,,,,,,,,2,2,16,0,,,,,,,,,,,,,,,,,,,,,,,,,,,,,,,,,,,,,,,,,,,,1617.9523909501731,None,1619.0516324210912,None,1619.9850426609628,None,1.2513227513227514,1.7667263899929821,1619.9850426609628,None,,,,,,,,,,,135,001,2023_Nov_15_1609,SpeechDraft1Carolyn_lessNoise_PlusLocalization,2021.2.3,59.98585741986363,
,,,,,,,,nearLeft,-6.5,1,ch1Sound_localizationTask.wav,-6.5,"(857, 878)","(-103,-202)",-95,-338,,,,,,,,,2,3,17,2,,,,,,,,,,,,,,,,,,,,,,,,,,,,,,,,,,,,,,,,,,,,1621.7531317048706,None,1622.8684710962698,None,1623.7848861631937,None,1.291005291005291,1.0158085245639086,1623.7848861631937,None,,,,,,,,,,,135,001,2023_Nov_15_1609,SpeechDraft1Carolyn_lessNoise_PlusLocalization,2021.2.3,59.98585741986363,
,,,,,,,,center,0.0,6,ch1Sound_localizationTask.wav,0.0,"(952, 878)","(-8,-202)",0,-338,,,,,,,,,2,4,18,3,,,,,,,,,,,,,,,,,,,,,,,,,,,,,,,,,,,,,,,,,,,,1624.8023314420134,None,1625.9016077350825,None,1626.8352196859196,None,1.3285714285714285,1.0328097604215145,1626.8352196859196,None,,,,,,,,,,,135,001,2023_Nov_15_1609,SpeechDraft1Carolyn_lessNoise_PlusLocalization,2021.2.3,59.98585741986363,
,,,,,,,,farRight,19.1,4,ch1Sound_localizationTask.wav,19.1,"(1237, 878)","(277,-202)",285,-338,,,,,,,,,2,5,19,6,,,,,,,,,,,,,,,,,,,,,,,,,,,,,,,,,,,,,,,,,,,,1627.870075498242,None,1628.9849981009029,None,1629.9016256812029,None,1.715873015873016,1.4337455960921943,1629.9016256812029,None,,,,,,,,,,,135,001,2023_Nov_15_1609,SpeechDraft1Carolyn_lessNoise_PlusLocalization,2021.2.3,59.98585741986363,
,,,,,,,,nearLeft,-6.5,1,ch1Sound_localizationTask.wav,-6.5,"(857, 878)","(-103,-202)",-95,-338,,,,,,,,,2,6,20,2,,,,,,,,,,,,,,,,,,,,,,,,,,,,,,,,,,,,,,,,,,,,1631.335968382191,None,1632.435009338893,None,1633.3684150651097,None,1.271957671957672,1.9501084289513528,1633.3684150651097,None,,,,,,,,,,,135,001,2023_Nov_15_1609,SpeechDraft1Carolyn_lessNoise_PlusLocalization,2021.2.3,59.98585741986363,
,,,,,,,,midRight,13.0,3,ch1Sound_localizationTask.wav,13.0,"(1142, 878)","(182, -202)",190,-338,,,,,,,,,3,0,21,5,,,,,,,,,,,,,,,,,,,,,,,,,,,,,,,,,,,,,,,,,,,,1635.3356019589119,None,1636.435031066183,None,1637.3682523448952,None,1.5587301587301587,1.2997296312823892,1637.3682523448952,None,,,,,,,,,,,135,001,2023_Nov_15_1609,SpeechDraft1Carolyn_lessNoise_PlusLocalization,2021.2.3,59.98585741986363,
,,,,,,,,midLeft,-13.0,2,ch1Sound_localizationTask.wav,-13.0,"(762, 878)","(-198,-202)",-190,-338,,,,,,,,,3,1,22,1,,,,,,,,,,,,,,,,,,,,,,,,,,,,,,,,,,,,,,,,,,,,1638.66933078086,None,1639.7683440018445,None,1640.7018958572298,None,1.2243386243386243,1.3165278919041157,1640.7018958572298,None,,,,,,,,,,,135,001,2023_Nov_15_1609,SpeechDraft1Carolyn_lessNoise_PlusLocalization,2021.2.3,59.98585741986363,
,,,,,,,,nearRight,6.5,0,ch1Sound_localizationTask.wav,6.5,"(1047, 878)","(87, -202)",95,-338,,,,,,,,,3,2,23,4,,,,,,,,,,,,,,,,,,,,,,,,,,,,,,,,,,,,,,,,,,,,1642.019800961949,None,1643.1349908588454,None,1644.0519820330665,None,1.375132275132275,1.082784216850996,1644.0519820330665,None,,,,,,,,,,,135,001,2023_Nov_15_1609,SpeechDraft1Carolyn_lessNoise_PlusLocalization,2021.2.3,59.98585741986363,
,,,,,,,,midRight,13.0,3,ch1Sound_localizationTask.wav,13.0,"(1142, 878)","(182, -202)",190,-338,,,,,,,,,3,3,24,5,,,,,,,,,,,,,,,,,,,,,,,,,,,,,,,,,,,,,,,,,,,,1645.1357631501742,None,1646.2349350289442,None,1647.1683790199459,None,1.5576719576719578,1.3348425766453147,1647.1683790199459,None,,,,,,,,,,,135,001,2023_Nov_15_1609,SpeechDraft1Carolyn_lessNoise_PlusLocalization,2021.2.3,59.98585741986363,
,,,,,,,,nearRight,6.5,0,ch1Sound_localizationTask.wav,6.5,"(1047, 878)","(87, -202)",95,-338,,,,,,,,,3,4,25,4,,,,,,,,,,,,,,,,,,,,,,,,,,,,,,,,,,,,,,,,,,,,1648.5189856211655,None,1649.6183856958523,None,1650.5518106892705,None,1.4703703703703703,1.250246006064117,1650.5518106892705,None,,,,,,,,,,,135,001,2023_Nov_15_1609,SpeechDraft1Carolyn_lessNoise_PlusLocalization,2021.2.3,59.98585741986363,
,,,,,,,,farRight,19.1,4,ch1Sound_localizationTask.wav,19.1,"(1237, 878)","(277,-202)",285,-338,,,,,,,,,3,5,26,6,,,,,,,,,,,,,,,,,,,,,,,,,,,,,,,,,,,,,,,,,,,,1651.818846009206,None,1652.9184818109497,None,1653.8516704631038,None,1.728042328042328,1.3525799121707678,1653.8516704631038,None,,,,,,,,,,,135,001,2023_Nov_15_1609,SpeechDraft1Carolyn_lessNoise_PlusLocalization,2021.2.3,59.98585741986363,
,,,,,,,,nearRight,6.5,0,ch1Sound_localizationTask.wav,6.5,"(1047, 878)","(87, -202)",95,-338,,,,,,,,,3,6,27,4,,,,,,,,,,,,,,,,,,,,,,,,,,,,,,,,,,,,,,,,,,,,1655.2190530761145,None,1656.3183370581828,None,1657.2517297649756,None,1.3513227513227513,1.6681960700079799,1657.2517297649756,None,,,,,,,,,,,135,001,2023_Nov_15_1609,SpeechDraft1Carolyn_lessNoise_PlusLocalization,2021.2.3,59.98585741986363,
,,,,,,,,midLeft,-13.0,2,ch1Sound_localizationTask.wav,-13.0,"(762, 878)","(-198,-202)",-190,-338,,,,,,,,,4,0,28,1,,,,,,,,,,,,,,,,,,,,,,,,,,,,,,,,,,,,,,,,,,,,1658.93561034929,None,1660.0350668681785,None,1660.9683798872866,None,1.276190476190476,1.4346834179013968,1660.9683798872866,None,,,,,,,,,,,135,001,2023_Nov_15_1609,SpeechDraft1Carolyn_lessNoise_PlusLocalization,2021.2.3,59.98585741986363,
,,,,,,,,nearLeft,-6.5,1,ch1Sound_localizationTask.wav,-6.5,"(857, 878)","(-103,-202)",-95,-338,,,,,,,,,4,1,29,2,,,,,,,,,,,,,,,,,,,,,,,,,,,,,,,,,,,,,,,,,,,,1662.4186647739261,None,1663.5182782160118,None,1664.4517624918371,None,1.3962962962962964,1.2004310758784413,1664.4517624918371,None,,,,,,,,,,,135,001,2023_Nov_15_1609,SpeechDraft1Carolyn_lessNoise_PlusLocalization,2021.2.3,59.98585741986363,
,,,,,,,,midRight,13.0,3,ch1Sound_localizationTask.wav,13.0,"(1142, 878)","(182, -202)",190,-338,,,,,,,,,4,2,30,5,,,,,,,,,,,,,,,,,,,,,,,,,,,,,,,,,,,,,,,,,,,,1665.6528514851816,None,1666.7519543091767,None,1667.6850666040555,None,1.6444444444444444,1.6666967771016061,1667.6850666040555,None,,,,,,,,,,,135,001,2023_Nov_15_1609,SpeechDraft1Carolyn_lessNoise_PlusLocalization,2021.2.3,59.98585741986363,
,,,,,,,,nearRight,6.5,0,ch1Sound_localizationTask.wav,6.5,"(1047, 878)","(87, -202)",95,-338,,,,,,,,,4,3,31,4,,,,,,,,,,,,,,,,,,,,,,,,,,,,,,,,,,,,,,,,,,,,1669.3532872558571,None,1670.468433032278,None,1671.3850142150186,None,1.470899470899471,1.2162535171955824,1671.3850142150186,None,,,,,,,,,,,135,001,2023_Nov_15_1609,SpeechDraft1Carolyn_lessNoise_PlusLocalization,2021.2.3,59.98585741986363,
,,,,,,,,center,0.0,6,ch1Sound_localizationTask.wav,0.0,"(952, 878)","(-8,-202)",0,-338,,,,,,,,,4,4,32,3,,,,,,,,,,,,,,,,,,,,,,,,,,,,,,,,,,,,,,,,,,,,1672.6024291939102,None,1673.7017318592407,None,1674.6351197869517,None,1.5296296296296297,3.3334577628411353,1674.6351197869517,None,,,,,,,,,,,135,001,2023_Nov_15_1609,SpeechDraft1Carolyn_lessNoise_PlusLocalization,2021.2.3,59.98585741986363,
,,,,,,,,midLeft,-13.0,2,ch1Sound_localizationTask.wav,-13.0,"(762, 878)","(-198,-202)",-190,-338,,,,,,,,,4,5,33,1,,,,,,,,,,,,,,,,,,,,,,,,,,,,,,,,,,,,,,,,,,,,1677.9693322889507,None,1679.0685236272402,None,1680.0017594662495,None,1.2936507936507937,1.868135173805058,1680.0017594662495,None,,,,,,,,,,,135,001,2023_Nov_15_1609,SpeechDraft1Carolyn_lessNoise_PlusLocalization,2021.2.3,59.98585741986363,
,,,,,,,,farRight,19.1,4,ch1Sound_localizationTask.wav,19.1,"(1237, 878)","(277,-202)",285,-338,,,,,,,,,4,6,34,6,,,,,,,,,,,,,,,,,,,,,,,,,,,,,,,,,,,,,,,,,,,,1681.885453150142,None,1682.9851251561195,None,1683.9183718138374,None,1.7407407407407407,1.333905786741525,1683.9183718138374,None,,,,,,,,,,,135,001,2023_Nov_15_1609,SpeechDraft1Carolyn_lessNoise_PlusLocalization,2021.2.3,59.98585741986363,
,,,,,,,,center,0.0,6,ch1Sound_localizationTask.wav,0.0,"(952, 878)","(-8,-202)",0,-338,,,,,,,,,5,0,35,3,,,,,,,,,,,,,,,,,,,,,,,,,,,,,,,,,,,,,,,,,,,,1685.2689355481416,None,1686.3684026552364,None,1687.301731408108,None,1.7375661375661375,0.5680245109833777,1687.301731408108,None,,,,,,,,,,,135,001,2023_Nov_15_1609,SpeechDraft1Carolyn_lessNoise_PlusLocalization,2021.2.3,59.98585741986363,
,,,,,,,,farRight,19.1,4,ch1Sound_localizationTask.wav,19.1,"(1237, 878)","(277,-202)",285,-338,,,,,,,,,5,1,36,6,,,,,,,,,,,,,,,,,,,,,,,,,,,,,,,,,,,,,,,,,,,,1687.8857167721726,None,1688.9851343440823,None,1689.9183851410635,None,1.6978835978835978,0.884452672675252,1689.9183851410635,None,,,,,,,,,,,135,001,2023_Nov_15_1609,SpeechDraft1Carolyn_lessNoise_PlusLocalization,2021.2.3,59.98585741986363,
,,,,,,,,center,0.0,6,ch1Sound_localizationTask.wav,0.0,"(952, 878)","(-8,-202)",0,-338,,,,,,,,,5,2,37,3,,,,,,,,,,,,,,,,,,,,,,,,,,,,,,,,,,,,,,,,,,,,1690.8190984819084,None,1691.9184275311418,None,1692.851940323133,None,1.5386243386243388,1.7508147903718054,1692.851940323133,None,,,,,,,,,,,135,001,2023_Nov_15_1609,SpeechDraft1Carolyn_lessNoise_PlusLocalization,2021.2.3,59.98585741986363,
,,,,,,,,midLeft,-13.0,2,ch1Sound_localizationTask.wav,-13.0,"(762, 878)","(-198,-202)",-190,-338,,,,,,,,,5,3,38,1,,,,,,,,,,,,,,,,,,,,,,,,,,,,,,,,,,,,,,,,,,,,1694.6189623419195,None,1695.7184575060382,None,1696.652113899123,None,1.3153439153439153,1.0003658449277282,1696.652113899123,None,,,,,,,,,,,135,001,2023_Nov_15_1609,SpeechDraft1Carolyn_lessNoise_PlusLocalization,2021.2.3,59.98585741986363,
,,,,,,,,center,0.0,6,ch1Sound_localizationTask.wav,0.0,"(952, 878)","(-8,-202)",0,-338,,,,,,,,,5,4,39,3,,,,,,,,,,,,,,,,,,,,,,,,,,,,,,,,,,,,,,,,,,,,1697.6687286081724,None,1698.7684881091118,None,1699.7018893421628,None,1.4544973544973545,0.8993275151588023,1699.7018893421628,None,,,,,,,,,,,135,001,2023_Nov_15_1609,SpeechDraft1Carolyn_lessNoise_PlusLocalization,2021.2.3,59.98585741986363,
,,,,,,,,farLeft,-19.1,5,ch1Sound_localizationTask.wav,-19.1,"(667, 878)","(-293,-202)",-285,-338,,,,,,,,,5,5,40,0,,,,,,,,,,,,,,,,,,,,,,,,,,,,,,,,,,,,,,,,,,,,1700.6026304848492,None,1701.7017975240014,None,1702.6350177722052,None,1.2656084656084656,1.5165214235894382,1702.6350177722052,None,,,,,,,,,,,135,001,2023_Nov_15_1609,SpeechDraft1Carolyn_lessNoise_PlusLocalization,2021.2.3,59.98585741986363,
,,,,,,,,farLeft,-19.1,5,ch1Sound_localizationTask.wav,-19.1,"(667, 878)","(-293,-202)",-285,-338,,,,,,,,,5,6,41,0,,,,,,,,,,,,,,,,,,,,,,,,,,,,,,,,,,,,,,,,,,,,1704.1525659961626,None,1705.2517553018406,None,1706.1854974911548,None,1.2550264550264552,0.8832052247598767,1706.1854974911548,None,,,,,,,,,,,135,001,2023_Nov_15_1609,SpeechDraft1Carolyn_lessNoise_PlusLocalization,2021.2.3,59.98585741986363,
,,,,,,,,farLeft,-19.1,5,ch1Sound_localizationTask.wav,-19.1,"(667, 878)","(-293,-202)",-285,-338,,,,,,,,,6,0,42,0,,,,,,,,,,,,,,,,,,,,,,,,,,,,,,,,,,,,,,,,,,,,1707.0694601060823,None,1708.1685115918517,None,1709.1018208772875,None,1.2550264550264552,0.8321794108487666,1709.1018208772875,None,,,,,,,,,,,135,001,2023_Nov_15_1609,SpeechDraft1Carolyn_lessNoise_PlusLocalization,2021.2.3,59.98585741986363,
,,,,,,,,farLeft,-19.1,5,ch1Sound_localizationTask.wav,-19.1,"(667, 878)","(-293,-202)",-285,-338,,,,,,,,,6,1,43,0,,,,,,,,,,,,,,,,,,,,,,,,,,,,,,,,,,,,,,,,,,,,1709.9359686551616,None,1711.035131896846,None,1711.9684931938536,None,1.1883597883597883,1.567063826136291,1711.9684931938536,None,,,,,,,,,,,135,001,2023_Nov_15_1609,SpeechDraft1Carolyn_lessNoise_PlusLocalization,2021.2.3,59.98585741986363,
,,,,,,,,nearLeft,-6.5,1,ch1Sound_localizationTask.wav,-6.5,"(857, 878)","(-103,-202)",-95,-338,,,,,,,,,6,2,44,2,,,,,,,,,,,,,,,,,,,,,,,,,,,,,,,,,,,,,,,,,,,,1713.5521871312521,None,1714.6516774538904,None,1715.585154383909,None,1.1894179894179895,0.7670106687583029,1715.585154383909,None,,,,,,,,,,,135,001,2023_Nov_15_1609,SpeechDraft1Carolyn_lessNoise_PlusLocalization,2021.2.3,59.98585741986363,
,,,,,,,,center,0.0,6,ch1Sound_localizationTask.wav,0.0,"(952, 878)","(-8,-202)",0,-338,,,,,,,,,6,3,45,3,,,,,,,,,,,,,,,,,,,,,,,,,,,,,,,,,,,,,,,,,,,,1716.3530249521136,None,1717.4684545961209,None,1718.385130808223,None,1.3968253968253967,1.2000194289721549,1718.385130808223,None,,,,,,,,,,,135,001,2023_Nov_15_1609,SpeechDraft1Carolyn_lessNoise_PlusLocalization,2021.2.3,59.98585741986363,
,,,,,,,,nearLeft,-6.5,1,ch1Sound_localizationTask.wav,-6.5,"(857, 878)","(-103,-202)",-95,-338,,,,,,,,,6,4,46,2,,,,,,,,,,,,,,,,,,,,,,,,,,,,,,,,,,,,,,,,,,,,1719.5875924532302,None,1720.7019278220832,None,1721.618446067907,None,1.4084656084656084,3.5507868523709476,1721.618446067907,None,,,,,,,,,,,135,001,2023_Nov_15_1609,SpeechDraft1Carolyn_lessNoise_PlusLocalization,2021.2.3,59.98585741986363,
,,,,,,,,midRight,13.0,3,ch1Sound_localizationTask.wav,13.0,"(1142, 878)","(182, -202)",190,-338,,,,,,,,,6,5,47,5,,,,,,,,,,,,,,,,,,,,,,,,,,,,,,,,,,,,,,,,,,,,1725.185707432218,None,1726.2850287668407,None,1727.218454727903,None,1.5772486772486771,3.4175213761627674,1727.218454727903,None,,,,,,,,,,,135,001,2023_Nov_15_1609,SpeechDraft1Carolyn_lessNoise_PlusLocalization,2021.2.3,59.98585741986363,
,,,,,,,,nearLeft,-6.5,1,ch1Sound_localizationTask.wav,-6.5,"(857, 878)","(-103,-202)",-95,-338,,,,,,,,,6,6,48,2,,,,,,,,,,,,,,,,,,,,,,,,,,,,,,,,,,,,,,,,,,,,1730.6524724210612,None,1731.7518700319342,None,1732.6851955698803,None,1.3608465608465607,2.2010898049920797,1732.6851955698803,None,,,,,,,,,,,135,001,2023_Nov_15_1609,SpeechDraft1Carolyn_lessNoise_PlusLocalization,2021.2.3,59.98585741986363,
,,,,,,,,midRight,13.0,3,ch1Sound_localizationTask.wav,13.0,"(1142, 878)","(182, -202)",190,-338,,,,,,,,,7,0,49,5,,,,,,,,,,,,,,,,,,,,,,,,,,,,,,,,,,,,,,,,,,,,1734.9024767582305,None,1736.0017665042542,None,1736.9352219859138,None,1.6417989417989418,1.550137468148023,1736.9352219859138,None,,,,,,,,,,,135,001,2023_Nov_15_1609,SpeechDraft1Carolyn_lessNoise_PlusLocalization,2021.2.3,59.98585741986363,
,,,,,,,,farRight,19.1,4,ch1Sound_localizationTask.wav,19.1,"(1237, 878)","(277,-202)",285,-338,,,,,,,,,7,1,50,6,,,,,,,,,,,,,,,,,,,,,,,,,,,,,,,,,,,,,,,,,,,,1738.5023176949471,None,1739.601809988264,None,1740.5351805621758,None,1.6137566137566137,4.499926612712443,1740.5351805621758,None,,,,,,,,,,,135,001,2023_Nov_15_1609,SpeechDraft1Carolyn_lessNoise_PlusLocalization,2021.2.3,59.98585741986363,
,,,,,,,,nearRight,6.5,0,ch1Sound_localizationTask.wav,6.5,"(1047, 878)","(87, -202)",95,-338,,,,,,,,,7,2,51,4,,,,,,,,,,,,,,,,,,,,,,,,,,,,,,,,,,,,,,,,,,,,1745.052363335155,None,1746.1518332501873,None,1747.0851981719024,None,1.4841269841269842,1.1836861269548535,1747.0851981719024,None,,,,,,,,,,,135,001,2023_Nov_15_1609,SpeechDraft1Carolyn_lessNoise_PlusLocalization,2021.2.3,59.98585741986363,
,,,,,,,,nearRight,6.5,0,ch1Sound_localizationTask.wav,6.5,"(1047, 878)","(87, -202)",95,-338,,,,,,,,,7,3,52,4,,,,,,,,,,,,,,,,,,,,,,,,,,,,,,,,,,,,,,,,,,,,1748.2699096701108,None,1749.3851457089186,None,1750.301905957982,None,1.5513227513227514,2.4662429187446833,1750.301905957982,None,,,,,,,,,,,135,001,2023_Nov_15_1609,SpeechDraft1Carolyn_lessNoise_PlusLocalization,2021.2.3,59.98585741986363,
,,,,,,,,midRight,13.0,3,ch1Sound_localizationTask.wav,13.0,"(1142, 878)","(182, -202)",190,-338,,,,,,,,,7,4,53,5,,,,,,,,,,,,,,,,,,,,,,,,,,,,,,,,,,,,,,,,,,,,1752.7697961619124,None,1753.8851219150238,None,1754.8018862032332,None,1.5211640211640212,0.9992789747193456,1754.8018862032332,None,,,,,,,,,,,135,001,2023_Nov_15_1609,SpeechDraft1Carolyn_lessNoise_PlusLocalization,2021.2.3,59.98585741986363,
,,,,,,,,center,0.0,6,ch1Sound_localizationTask.wav,0.0,"(952, 878)","(-8,-202)",0,-338,,,,,,,,,7,5,54,3,,,,,,,,,,,,,,,,,,,,,,,,,,,,,,,,,,,,,,,,,,,,1755.8024720591493,None,1756.9017943292856,None,1757.8352840072475,None,1.3814814814814815,1.1671950286254287,1757.8352840072475,None,,,,,,,,,,,135,001,2023_Nov_15_1609,SpeechDraft1Carolyn_lessNoise_PlusLocalization,2021.2.3,59.98585741986363,
,,,,,,,,center,0.0,6,ch1Sound_localizationTask.wav,0.0,"(952, 878)","(-8,-202)",0,-338,,,,,,,,,7,6,55,3,,,,,,,,,,,,,,,,,,,,,,,,,,,,,,,,,,,,,,,,,,,,1759.0192027539015,None,1760.1185828661546,None,1761.0518016181886,None,1.3915343915343916,0.7162630241364241,1761.0518016181886,None,,,,,,,,,,,135,001,2023_Nov_15_1609,SpeechDraft1Carolyn_lessNoise_PlusLocalization,2021.2.3,59.98585741986363,
,,,,,,,,,,,,,,,,,,,,,,,,,,,,,,,,,,,,,,,,,,,,,,,,,,,,,,,,,,,,,,,,,,,,,,,,,,,,,,,,,,space,17.701845270115882,1761.8521454501897,None,,,,,,,135,001,2023_Nov_15_1609,SpeechDraft1Carolyn_lessNoise_PlusLocalization,2021.2.3,59.98585741986363,
,,,,,,,,midRight,13.0,3,ch1Sound_localizationTask.wav,13.0,"(1142, 878)","(182, -202)",190,-338,,,,,,,,,,,,,0,0,0,5,,,,,,,,,,,,,,,,,,,,,,,,,,,,,,,,,,,,,,,,1779.6019679629244,None,,,1782.6353808520362,None,1.6095238095238096,2.4207566189579666,1782.6353808520362,None,,,,,1761.8521454501897,None,1780.6021233061329,None,1780.7854686188512,1780.8021115548909,135,001,2023_Nov_15_1609,SpeechDraft1Carolyn_lessNoise_PlusLocalization,2021.2.3,59.98585741986363,
,,,,,,,,midLeft,-13.0,2,ch1Sound_localizationTask.wav,-13.0,"(762, 878)","(-198,-202)",-190,-338,,,,,,,,,,,,,0,1,1,1,,,,,,,,,,,,,,,,,,,,,,,,,,,,,,,,,,,,,,,,1785.0537669891492,None,,,1788.0853419718333,None,1.3634920634920635,1.0825501191429794,1788.0853419718333,None,,,,,,,1786.0689798011445,None,1786.25229153689,1786.2689042808488,135,001,2023_Nov_15_1609,SpeechDraft1Carolyn_lessNoise_PlusLocalization,2021.2.3,59.98585741986363,
,,,,,,,,nearLeft,-6.5,1,ch1Sound_localizationTask.wav,-6.5,"(857, 878)","(-103,-202)",-95,-338,,,,,,,,,,,,,0,2,2,2,,,,,,,,,,,,,,,,,,,,,,,,,,,,,,,,,,,,,,,,1789.1703633340076,None,,,1792.2019628589042,None,1.4428571428571428,1.1516796881332994,1792.2019628589042,None,,,,,,,1790.18551626103,None,1790.3689432828687,1790.3855335721746,135,001,2023_Nov_15_1609,SpeechDraft1Carolyn_lessNoise_PlusLocalization,2021.2.3,59.98585741986363,
,,,,,,,,midLeft,-13.0,2,ch1Sound_localizationTask.wav,-13.0,"(762, 878)","(-198,-202)",-190,-338,,,,,,,,,,,,,0,3,3,1,,,,,,,,,,,,,,,,,,,,,,,,,,,,,,,,,,,,,,,,1793.3688796209171,None,,,1796.3852658178657,None,1.392063492063492,1.1675358056090772,1796.3852658178657,None,,,,,,,1794.3688679048792,None,1794.5522438380867,1794.568796352949,135,001,2023_Nov_15_1609,SpeechDraft1Carolyn_lessNoise_PlusLocalization,2021.2.3,59.98585741986363,
,,,,,,,,nearRight,6.5,0,ch1Sound_localizationTask.wav,6.5,"(1047, 878)","(87, -202)",95,-338,,,,,,,,,,,,,0,4,4,4,,,,,,,,,,,,,,,,,,,,,,,,,,,,,,,,,,,,,,,,1797.5691992300563,None,,,1800.5852159392089,None,1.5492063492063493,1.215986688155681,1800.5852159392089,None,,,,,,,1798.5688682668842,None,1798.752176227048,1798.768848047126,135,001,2023_Nov_15_1609,SpeechDraft1Carolyn_lessNoise_PlusLocalization,2021.2.3,59.98585741986363,
,,,,,,,,center,0.0,6,ch1Sound_localizationTask.wav,0.0,"(952, 878)","(-8,-202)",0,-338,,,,,,,,,,,,,0,5,5,3,,,,,,,,,,,,,,,,,,,,,,,,,,,,,,,,,,,,,,,,1801.8036474762484,None,,,1804.8352321921848,None,1.5052910052910053,0.8667014599777758,1804.8352321921848,None,,,,,,,1802.818849101197,None,1803.0022951872088,1803.0188692309894,135,001,2023_Nov_15_1609,SpeechDraft1Carolyn_lessNoise_PlusLocalization,2021.2.3,59.98585741986363,
,,,,,,,,farRight,19.1,4,ch1Sound_localizationTask.wav,19.1,"(1237, 878)","(277,-202)",285,-338,,,,,,,,,,,,,0,6,6,6,,,,,,,,,,,,,,,,,,,,,,,,,,,,,,,,,,,,,,,,1805.7032281858847,None,,,1808.735198106151,None,1.6507936507936507,1.3001816500909626,1808.735198106151,None,,,,,,,1806.7188940779306,None,1806.90223978227,1806.9188762558624,135,001,2023_Nov_15_1609,SpeechDraft1Carolyn_lessNoise_PlusLocalization,2021.2.3,59.98585741986363,
,,,,,,,,nearLeft,-6.5,1,ch1Sound_localizationTask.wav,-6.5,"(857, 878)","(-103,-202)",-95,-338,,,,,,,,,,,,,1,0,7,2,,,,,,,,,,,,,,,,,,,,,,,,,,,,,,,,,,,,,,,,1810.0366666908376,None,,,1813.0686514331028,None,1.4576719576719577,0.9008442889899015,1813.0686514331028,None,,,,,,,1811.052284999285,None,1811.2355846930295,1811.252207326237,135,001,2023_Nov_15_1609,SpeechDraft1Carolyn_lessNoise_PlusLocalization,2021.2.3,59.98585741986363,
,,,,,,,,nearRight,6.5,0,ch1Sound_localizationTask.wav,6.5,"(1047, 878)","(87, -202)",95,-338,,,,,,,,,,,,,1,1,8,4,,,,,,,,,,,,,,,,,,,,,,,,,,,,,,,,,,,,,,,,1813.9857168402523,None,,,1817.0018937140703,None,1.5666666666666667,0.8499910272657871,1817.0018937140703,None,,,,,,,1814.9855589019135,None,1815.1690111588687,1815.1854922128841,135,001,2023_Nov_15_1609,SpeechDraft1Carolyn_lessNoise_PlusLocalization,2021.2.3,59.98585741986363,
,,,,,,,,center,0.0,6,ch1Sound_localizationTask.wav,0.0,"(952, 878)","(-8,-202)",0,-338,,,,,,,,,,,,,1,2,9,3,,,,,,,,,,,,,,,,,,,,,,,,,,,,,,,,,,,,,,,,1817.8528581410646,None,,,1820.8685514009558,None,1.4862433862433861,0.816115593072027,1820.8685514009558,None,,,,,,,1818.852240613196,None,1819.0356095600873,1819.052274941001,135,001,2023_Nov_15_1609,SpeechDraft1Carolyn_lessNoise_PlusLocalization,2021.2.3,59.98585741986363,
,,,,,,,,farLeft,-19.1,5,ch1Sound_localizationTask.wav,-19.1,"(667, 878)","(-293,-202)",-285,-338,,,,,,,,,,,,,1,3,10,0,,,,,,,,,,,,,,,,,,,,,,,,,,,,,,,,,,,,,,,,1821.685687823221,None,,,1824.7019862700254,None,1.3582010582010582,1.500348555855453,1824.7019862700254,None,,,,,,,1822.685748053249,None,1822.868881384842,1822.8856105240993,135,001,2023_Nov_15_1609,SpeechDraft1Carolyn_lessNoise_PlusLocalization,2021.2.3,59.98585741986363,
,,,,,,,,midLeft,-13.0,2,ch1Sound_localizationTask.wav,-13.0,"(762, 878)","(-198,-202)",-190,-338,,,,,,,,,,,,,1,4,11,1,,,,,,,,,,,,,,,,,,,,,,,,,,,,,,,,,,,,,,,,1826.2192342788912,None,,,1829.2352531291544,None,1.384126984126984,1.7836418901570141,1829.2352531291544,None,,,,,,,1827.2188571919687,None,1827.4022229569964,1827.4188829511404,135,001,2023_Nov_15_1609,SpeechDraft1Carolyn_lessNoise_PlusLocalization,2021.2.3,59.98585741986363,
,,,,,,,,farLeft,-19.1,5,ch1Sound_localizationTask.wav,-19.1,"(667, 878)","(-293,-202)",-285,-338,,,,,,,,,,,,,1,5,12,0,,,,,,,,,,,,,,,,,,,,,,,,,,,,,,,,,,,,,,,,1831.0199815118685,None,,,1834.051937145181,None,1.301058201058201,1.300038445275277,1834.051937145181,None,,,,,,,1832.0355681371875,None,1832.2189173242077,1832.235745168291,135,001,2023_Nov_15_1609,SpeechDraft1Carolyn_lessNoise_PlusLocalization,2021.2.3,59.98585741986363,
,,,,,,,,midRight,13.0,3,ch1Sound_localizationTask.wav,13.0,"(1142, 878)","(182, -202)",190,-338,,,,,,,,,,,,,1,6,13,5,,,,,,,,,,,,,,,,,,,,,,,,,,,,,,,,,,,,,,,,1835.3687084461562,None,,,1838.3853352000006,None,1.619047619047619,1.116132871247828,1838.3853352000006,None,,,,,,,1836.368926004041,None,1836.55225018505,1836.5690438589081,135,001,2023_Nov_15_1609,SpeechDraft1Carolyn_lessNoise_PlusLocalization,2021.2.3,59.98585741986363,
,,,,,,,,nearLeft,-6.5,1,ch1Sound_localizationTask.wav,-6.5,"(857, 878)","(-103,-202)",-95,-338,,,,,,,,,,,,,2,0,14,2,,,,,,,,,,,,,,,,,,,,,,,,,,,,,,,,,,,,,,,,1839.5035294820555,None,,,1842.535334120039,None,1.4402116402116403,0.8164481418207288,1842.535334120039,None,,,,,,,1840.5188340940513,None,1840.702231677249,1840.7189174541272,135,001,2023_Nov_15_1609,SpeechDraft1Carolyn_lessNoise_PlusLocalization,2021.2.3,59.98585741986363,
,,,,,,,,farRight,19.1,4,ch1Sound_localizationTask.wav,19.1,"(1237, 878)","(277,-202)",285,-338,,,,,,,,,,,,,2,1,15,6,,,,,,,,,,,,,,,,,,,,,,,,,,,,,,,,,,,,,,,,1843.352769725956,None,,,1846.3686336432584,None,1.6735449735449737,0.7495958590880036,1846.3686336432584,None,,,,,,,1844.3522241138853,None,1844.5356239732355,1844.5522630838677,135,001,2023_Nov_15_1609,SpeechDraft1Carolyn_lessNoise_PlusLocalization,2021.2.3,59.98585741986363,
,,,,,,,,nearLeft,-6.5,1,ch1Sound_localizationTask.wav,-6.5,"(857, 878)","(-103,-202)",-95,-338,,,,,,,,,,,,,2,2,16,2,,,,,,,,,,,,,,,,,,,,,,,,,,,,,,,,,,,,,,,,1847.1199367670342,None,,,1850.1354168518446,None,1.4238095238095239,1.6656241179443896,1850.1354168518446,None,,,,,,,1848.119084320031,None,1848.3022834542207,1848.318958193995,135,001,2023_Nov_15_1609,SpeechDraft1Carolyn_lessNoise_PlusLocalization,2021.2.3,59.98585741986363,
,,,,,,,,midLeft,-13.0,2,ch1Sound_localizationTask.wav,-13.0,"(762, 878)","(-198,-202)",-190,-338,,,,,,,,,,,,,2,3,17,1,,,,,,,,,,,,,,,,,,,,,,,,,,,,,,,,,,,,,,,,1851.8023565080948,None,,,1854.8187340372242,None,1.4015873015873015,1.1663804510608315,1854.8187340372242,None,,,,,,,1852.8023176840506,None,1852.9855951950885,1853.0023305029608,135,001,2023_Nov_15_1609,SpeechDraft1Carolyn_lessNoise_PlusLocalization,2021.2.3,59.98585741986363,
,,,,,,,,nearLeft,-6.5,1,ch1Sound_localizationTask.wav,-6.5,"(857, 878)","(-103,-202)",-95,-338,,,,,,,,,,,,,2,4,18,2,,,,,,,,,,,,,,,,,,,,,,,,,,,,,,,,,,,,,,,,1855.9863775540143,None,,,1859.0020097931847,None,1.4354497354497355,1.4004826489835978,1859.0020097931847,None,,,,,,,1856.985623836983,None,1857.1690143528394,1857.1856224481016,135,001,2023_Nov_15_1609,SpeechDraft1Carolyn_lessNoise_PlusLocalization,2021.2.3,59.98585741986363,
,,,,,,,,farLeft,-19.1,5,ch1Sound_localizationTask.wav,-19.1,"(667, 878)","(-293,-202)",-285,-338,,,,,,,,,,,,,2,5,19,0,,,,,,,,,,,,,,,,,,,,,,,,,,,,,,,,,,,,,,,,1860.4036155808717,None,,,1863.4354722229764,None,1.3047619047619048,1.4005548609420657,1863.4354722229764,None,,,,,,,1861.4190395902842,None,1861.6023320308886,1861.6190206902102,135,001,2023_Nov_15_1609,SpeechDraft1Carolyn_lessNoise_PlusLocalization,2021.2.3,59.98585741986363,
,,,,,,,,midRight,13.0,3,ch1Sound_localizationTask.wav,13.0,"(1142, 878)","(182, -202)",190,-338,,,,,,,,,,,,,2,6,20,5,,,,,,,,,,,,,,,,,,,,,,,,,,,,,,,,,,,,,,,,1864.8525772788562,None,,,1867.8686554199085,None,1.635978835978836,1.482604119926691,1867.8686554199085,None,,,,,,,1865.852315213997,None,1866.0356303178705,1866.05251796823,135,001,2023_Nov_15_1609,SpeechDraft1Carolyn_lessNoise_PlusLocalization,2021.2.3,59.98585741986363,
,,,,,,,,midRight,13.0,3,ch1Sound_localizationTask.wav,13.0,"(1142, 878)","(182, -202)",190,-338,,,,,,,,,,,,,3,0,21,5,,,,,,,,,,,,,,,,,,,,,,,,,,,,,,,,,,,,,,,,1869.3529964690097,None,,,1872.3687066459097,None,1.5820105820105819,1.0507049290463328,1872.3687066459097,None,,,,,,,1870.3522993740626,None,1870.5356736010872,1870.552278532181,135,001,2023_Nov_15_1609,SpeechDraft1Carolyn_lessNoise_PlusLocalization,2021.2.3,59.98585741986363,
,,,,,,,,farRight,19.1,4,ch1Sound_localizationTask.wav,19.1,"(1237, 878)","(277,-202)",285,-338,,,,,,,,,,,,,3,1,22,6,,,,,,,,,,,,,,,,,,,,,,,,,,,,,,,,,,,,,,,,1873.4356973799877,None,,,1876.452102405019,None,1.6682539682539683,0.950407818891108,1876.452102405019,None,,,,,,,1874.435691832099,None,1874.6189776561223,1874.6358697372489,135,001,2023_Nov_15_1609,SpeechDraft1Carolyn_lessNoise_PlusLocalization,2021.2.3,59.98585741986363,
,,,,,,,,farRight,19.1,4,ch1Sound_localizationTask.wav,19.1,"(1237, 878)","(277,-202)",285,-338,,,,,,,,,,,,,3,2,23,6,,,,,,,,,,,,,,,,,,,,,,,,,,,,,,,,,,,,,,,,1877.4191698241048,None,,,1880.4354561390355,None,1.6396825396825396,0.9664312610402703,1880.4354561390355,None,,,,,,,1878.4190888940357,None,1878.6023052940145,1878.6190276062116,135,001,2023_Nov_15_1609,SpeechDraft1Carolyn_lessNoise_PlusLocalization,2021.2.3,59.98585741986363,
,,,,,,,,center,0.0,6,ch1Sound_localizationTask.wav,0.0,"(952, 878)","(-8,-202)",0,-338,,,,,,,,,,,,,3,3,24,3,,,,,,,,,,,,,,,,,,,,,,,,,,,,,,,,,,,,,,,,1881.4191208281554,None,,,1884.4353302512318,None,1.462962962962963,1.9321887982077897,1884.4353302512318,None,,,,,,,1882.4189814468846,None,1882.602373932954,1882.6189818889834,135,001,2023_Nov_15_1609,SpeechDraft1Carolyn_lessNoise_PlusLocalization,2021.2.3,59.98585741986363,
,,,,,,,,center,0.0,6,ch1Sound_localizationTask.wav,0.0,"(952, 878)","(-8,-202)",0,-338,,,,,,,,,,,,,3,4,25,3,,,,,,,,,,,,,,,,,,,,,,,,,,,,,,,,,,,,,,,,1886.369253066834,None,,,1889.3855611109175,None,1.4841269841269842,1.1654444569721818,1889.3855611109175,None,,,,,,,1887.3691575671546,None,1887.552316477988,1887.5689439368434,135,001,2023_Nov_15_1609,SpeechDraft1Carolyn_lessNoise_PlusLocalization,2021.2.3,59.98585741986363,
,,,,,,,,nearRight,6.5,0,ch1Sound_localizationTask.wav,6.5,"(1047, 878)","(87, -202)",95,-338,,,,,,,,,,,,,3,5,26,4,,,,,,,,,,,,,,,,,,,,,,,,,,,,,,,,,,,,,,,,1890.5528218909167,None,,,1893.5687812711112,None,1.5597883597883597,0.9662199411541224,1893.5687812711112,None,,,,,,,1891.5523054068908,None,1891.7356866942719,1891.7522241161205,135,001,2023_Nov_15_1609,SpeechDraft1Carolyn_lessNoise_PlusLocalization,2021.2.3,59.98585741986363,
,,,,,,,,midLeft,-13.0,2,ch1Sound_localizationTask.wav,-13.0,"(762, 878)","(-198,-202)",-190,-338,,,,,,,,,,,,,3,6,27,1,,,,,,,,,,,,,,,,,,,,,,,,,,,,,,,,,,,,,,,,1894.5368522028439,None,,,1897.5687294821255,None,1.3851851851851853,1.7990835891105235,1897.5687294821255,None,,,,,,,1895.5523553499952,None,1895.735701886937,1895.752332571894,135,001,2023_Nov_15_1609,SpeechDraft1Carolyn_lessNoise_PlusLocalization,2021.2.3,59.98585741986363,
,,,,,,,,farRight,19.1,4,ch1Sound_localizationTask.wav,19.1,"(1237, 878)","(277,-202)",285,-338,,,,,,,,,,,,,4,0,28,6,,,,,,,,,,,,,,,,,,,,,,,,,,,,,,,,,,,,,,,,1899.3696929132566,None,,,1902.3856438631192,None,1.6539682539682539,1.517002664040774,1902.3856438631192,None,,,,,,,1900.3689113319851,None,1900.5523297809996,1900.5690722051077,135,001,2023_Nov_15_1609,SpeechDraft1Carolyn_lessNoise_PlusLocalization,2021.2.3,59.98585741986363,
,,,,,,,,nearRight,6.5,0,ch1Sound_localizationTask.wav,6.5,"(1047, 878)","(87, -202)",95,-338,,,,,,,,,,,,,4,1,29,4,,,,,,,,,,,,,,,,,,,,,,,,,,,,,,,,,,,,,,,,1903.9194454848766,None,,,1906.9354016040452,None,1.5492063492063493,1.3831712710671127,1906.9354016040452,None,,,,,,,1904.9189774501137,None,1905.1023264410906,1905.11899053026,135,001,2023_Nov_15_1609,SpeechDraft1Carolyn_lessNoise_PlusLocalization,2021.2.3,59.98585741986363,
,,,,,,,,farLeft,-19.1,5,ch1Sound_localizationTask.wav,-19.1,"(667, 878)","(-293,-202)",-285,-338,,,,,,,,,,,,,4,2,30,0,,,,,,,,,,,,,,,,,,,,,,,,,,,,,,,,,,,,,,,,1908.3196864491329,None,,,1911.3352700392716,None,1.3412698412698414,1.7662986712530255,1911.3352700392716,None,,,,,,,1909.3190438002348,None,1909.5023332489654,1909.5190884619951,135,001,2023_Nov_15_1609,SpeechDraft1Carolyn_lessNoise_PlusLocalization,2021.2.3,59.98585741986363,
,,,,,,,,center,0.0,6,ch1Sound_localizationTask.wav,0.0,"(952, 878)","(-8,-202)",0,-338,,,,,,,,,,,,,4,3,31,3,,,,,,,,,,,,,,,,,,,,,,,,,,,,,,,,,,,,,,,,1913.1034323349595,None,,,1916.1353369140998,None,1.492063492063492,1.0322008579969406,1916.1353369140998,None,,,,,,,1914.1191706839018,None,1914.30240738485,1914.3190053980798,135,001,2023_Nov_15_1609,SpeechDraft1Carolyn_lessNoise_PlusLocalization,2021.2.3,59.98585741986363,
,,,,,,,,midLeft,-13.0,2,ch1Sound_localizationTask.wav,-13.0,"(762, 878)","(-198,-202)",-190,-338,,,,,,,,,,,,,4,4,32,1,,,,,,,,,,,,,,,,,,,,,,,,,,,,,,,,,,,,,,,,1917.1695325360633,None,,,1920.1854397929274,None,1.4047619047619047,1.4503187667578459,1920.1854397929274,None,,,,,,,1918.1690639019944,None,1918.352291381918,1918.3689797651023,135,001,2023_Nov_15_1609,SpeechDraft1Carolyn_lessNoise_PlusLocalization,2021.2.3,59.98585741986363,
,,,,,,,,farRight,19.1,4,ch1Sound_localizationTask.wav,19.1,"(1237, 878)","(277,-202)",285,-338,,,,,,,,,,,,,4,5,33,6,,,,,,,,,,,,,,,,,,,,,,,,,,,,,,,,,,,,,,,,1921.6370654562488,None,,,1924.6688882792369,None,1.6486772486772487,1.5490286564454436,1924.6688882792369,None,,,,,,,1922.6525748432614,None,1922.835730058141,1922.852387998253,135,001,2023_Nov_15_1609,SpeechDraft1Carolyn_lessNoise_PlusLocalization,2021.2.3,59.98585741986363,
,,,,,,,,midLeft,-13.0,2,ch1Sound_localizationTask.wav,-13.0,"(762, 878)","(-198,-202)",-190,-338,,,,,,,,,,,,,4,6,34,1,,,,,,,,,,,,,,,,,,,,,,,,,,,,,,,,,,,,,,,,1926.2190609122626,None,,,1929.2355143218301,None,1.37989417989418,1.452310777734965,1929.2355143218301,None,,,,,,,1927.2190329339355,None,1927.4023239980452,1927.4190538600087,135,001,2023_Nov_15_1609,SpeechDraft1Carolyn_lessNoise_PlusLocalization,2021.2.3,59.98585741986363,
,,,,,,,,midLeft,-13.0,2,ch1Sound_localizationTask.wav,-13.0,"(762, 878)","(-198,-202)",-190,-338,,,,,,,,,,,,,5,0,35,1,,,,,,,,,,,,,,,,,,,,,,,,,,,,,,,,,,,,,,,,1930.702630393207,None,,,1933.718908532057,None,1.391005291005291,0.9331619027070701,1933.718908532057,None,,,,,,,1931.7023945720866,None,1931.8857345432043,1931.9024585308507,135,001,2023_Nov_15_1609,SpeechDraft1Carolyn_lessNoise_PlusLocalization,2021.2.3,59.98585741986363,
,,,,,,,,farLeft,-19.1,5,ch1Sound_localizationTask.wav,-19.1,"(667, 878)","(-293,-202)",-285,-338,,,,,,,,,,,,,5,1,36,0,,,,,,,,,,,,,,,,,,,,,,,,,,,,,,,,,,,,,,,,1934.6529883211479,None,,,1937.668804896064,None,1.3407407407407408,1.368734760209918,1937.668804896064,None,,,,,,,1935.652367984876,None,1935.8356846179813,1935.8523297752254,135,001,2023_Nov_15_1609,SpeechDraft1Carolyn_lessNoise_PlusLocalization,2021.2.3,59.98585741986363,
,,,,,,,,nearRight,6.5,0,ch1Sound_localizationTask.wav,6.5,"(1047, 878)","(87, -202)",95,-338,,,,,,,,,,,,,5,2,37,4,,,,,,,,,,,,,,,,,,,,,,,,,,,,,,,,,,,,,,,,1939.0524073541164,None,,,1942.068819725886,None,1.475132275132275,1.1663625091314316,1942.068819725886,None,,,,,,,1940.052528880071,None,1940.2357817981392,1940.2525299722329,135,001,2023_Nov_15_1609,SpeechDraft1Carolyn_lessNoise_PlusLocalization,2021.2.3,59.98585741986363,
,,,,,,,,midRight,13.0,3,ch1Sound_localizationTask.wav,13.0,"(1142, 878)","(182, -202)",190,-338,,,,,,,,,,,,,5,3,38,5,,,,,,,,,,,,,,,,,,,,,,,,,,,,,,,,,,,,,,,,1943.2365542608313,None,,,1946.2522943872027,None,1.5693121693121692,1.0503370519727468,1946.2522943872027,None,,,,,,,1944.235793735832,None,1944.419056279119,1944.435682829935,135,001,2023_Nov_15_1609,SpeechDraft1Carolyn_lessNoise_PlusLocalization,2021.2.3,59.98585741986363,
,,,,,,,,nearLeft,-6.5,1,ch1Sound_localizationTask.wav,-6.5,"(857, 878)","(-103,-202)",-95,-338,,,,,,,,,,,,,5,4,39,2,,,,,,,,,,,,,,,,,,,,,,,,,,,,,,,,,,,,,,,,1947.3193113901652,None,,,1950.3355468888767,None,1.4592592592592593,1.0166724980808794,1950.3355468888767,None,,,,,,,1948.3190636648796,None,1948.5024397792295,1948.5189836760983,135,001,2023_Nov_15_1609,SpeechDraft1Carolyn_lessNoise_PlusLocalization,2021.2.3,59.98585741986363,
,,,,,,,,farLeft,-19.1,5,ch1Sound_localizationTask.wav,-19.1,"(667, 878)","(-293,-202)",-285,-338,,,,,,,,,,,,,5,5,40,0,,,,,,,,,,,,,,,,,,,,,,,,,,,,,,,,,,,,,,,,1951.3693034569733,None,,,1954.3854716778733,None,1.3592592592592592,1.1346711409278214,1954.3854716778733,None,,,,,,,1952.3691056179814,None,1952.552388843149,1952.5690396679565,135,001,2023_Nov_15_1609,SpeechDraft1Carolyn_lessNoise_PlusLocalization,2021.2.3,59.98585741986363,
,,,,,,,,midRight,13.0,3,ch1Sound_localizationTask.wav,13.0,"(1142, 878)","(182, -202)",190,-338,,,,,,,,,,,,,5,6,41,5,,,,,,,,,,,,,,,,,,,,,,,,,,,,,,,,,,,,,,,,1955.5357398702763,None,,,1958.5521617061459,None,1.6264550264550266,0.9492911333218217,1958.5521617061459,None,,,,,,,1956.5357582732104,None,1956.7190948352218,1956.7357301879674,135,001,2023_Nov_15_1609,SpeechDraft1Carolyn_lessNoise_PlusLocalization,2021.2.3,59.98585741986363,
,,,,,,,,nearRight,6.5,0,ch1Sound_localizationTask.wav,6.5,"(1047, 878)","(87, -202)",95,-338,,,,,,,,,,,,,6,0,42,4,,,,,,,,,,,,,,,,,,,,,,,,,,,,,,,,,,,,,,,,1959.5033093881793,None,,,1962.518962224014,None,1.566137566137566,1.1165498113259673,1962.518962224014,None,,,,,,,1960.5024014818482,None,1960.685727282893,1960.7024428918958,135,001,2023_Nov_15_1609,SpeechDraft1Carolyn_lessNoise_PlusLocalization,2021.2.3,59.98585741986363,
,,,,,,,,midRight,13.0,3,ch1Sound_localizationTask.wav,13.0,"(1142, 878)","(182, -202)",190,-338,,,,,,,,,,,,,6,1,43,5,,,,,,,,,,,,,,,,,,,,,,,,,,,,,,,,,,,,,,,,1963.6377449668944,None,,,1966.6688247611746,None,1.5952380952380953,0.9996945317834616,1966.6688247611746,None,,,,,,,1964.6524476232007,None,1964.835690470878,1964.8524712980725,135,001,2023_Nov_15_1609,SpeechDraft1Carolyn_lessNoise_PlusLocalization,2021.2.3,59.98585741986363,
,,,,,,,,farLeft,-19.1,5,ch1Sound_localizationTask.wav,-19.1,"(667, 878)","(-293,-202)",-285,-338,,,,,,,,,,,,,6,2,44,0,,,,,,,,,,,,,,,,,,,,,,,,,,,,,,,,,,,,,,,,1967.670548282098,None,,,1970.702172378078,None,1.2925925925925925,1.2354030250571668,1970.702172378078,None,,,,,,,1968.6858734558336,None,1968.869124400895,1968.8857307499275,135,001,2023_Nov_15_1609,SpeechDraft1Carolyn_lessNoise_PlusLocalization,2021.2.3,59.98585741986363,
,,,,,,,,nearLeft,-6.5,1,ch1Sound_localizationTask.wav,-6.5,"(857, 878)","(-103,-202)",-95,-338,,,,,,,,,,,,,6,3,45,2,,,,,,,,,,,,,,,,,,,,,,,,,,,,,,,,,,,,,,,,1971.9526991699822,None,,,1974.9688683580607,None,1.4523809523809523,0.8332619722932577,1974.9688683580607,None,,,,,,,1972.952390928287,None,1973.1358074722812,1973.1523687001318,135,001,2023_Nov_15_1609,SpeechDraft1Carolyn_lessNoise_PlusLocalization,2021.2.3,59.98585741986363,
,,,,,,,,midRight,13.0,3,ch1Sound_localizationTask.wav,13.0,"(1142, 878)","(182, -202)",190,-338,,,,,,,,,,,,,6,4,46,5,,,,,,,,,,,,,,,,,,,,,,,,,,,,,,,,,,,,,,,,1975.8193026119843,None,,,1978.835515268147,None,1.5682539682539682,1.0491697499528527,1978.835515268147,None,,,,,,,1976.8192127179354,None,1977.002474650275,1977.0191391101107,135,001,2023_Nov_15_1609,SpeechDraft1Carolyn_lessNoise_PlusLocalization,2021.2.3,59.98585741986363,
,,,,,,,,farLeft,-19.1,5,ch1Sound_localizationTask.wav,-19.1,"(667, 878)","(-293,-202)",-285,-338,,,,,,,,,,,,,6,5,47,0,,,,,,,,,,,,,,,,,,,,,,,,,,,,,,,,,,,,,,,,1979.8860789588653,None,,,1982.9023681748658,None,1.3677248677248677,1.0325559447519481,1982.9023681748658,None,,,,,,,1980.8858442869969,None,1981.0692674242891,1981.0857820119709,135,001,2023_Nov_15_1609,SpeechDraft1Carolyn_lessNoise_PlusLocalization,2021.2.3,59.98585741986363,
,,,,,,,,nearRight,6.5,0,ch1Sound_localizationTask.wav,6.5,"(1047, 878)","(87, -202)",95,-338,,,,,,,,,,,,,6,6,48,4,,,,,,,,,,,,,,,,,,,,,,,,,,,,,,,,,,,,,,,,1983.9361224151216,None,,,1986.9522143881768,None,1.5312169312169313,1.0829592179507017,1986.9522143881768,None,,,,,,,1984.9357562032528,None,1985.1190852080472,1985.1358802202158,135,001,2023_Nov_15_1609,SpeechDraft1Carolyn_lessNoise_PlusLocalization,2021.2.3,59.98585741986363,
,,,,,,,,center,0.0,6,ch1Sound_localizationTask.wav,0.0,"(952, 878)","(-8,-202)",0,-338,,,,,,,,,,,,,7,0,49,3,,,,,,,,,,,,,,,,,,,,,,,,,,,,,,,,,,,,,,,,1988.0364202982746,None,,,1991.0521798869595,None,1.4814814814814814,0.7317995568737388,1991.0521798869595,None,,,,,,,1989.0357401380315,None,1989.2190346652642,1989.2357516470365,135,001,2023_Nov_15_1609,SpeechDraft1Carolyn_lessNoise_PlusLocalization,2021.2.3,59.98585741986363,
,,,,,,,,nearRight,6.5,0,ch1Sound_localizationTask.wav,6.5,"(1047, 878)","(87, -202)",95,-338,,,,,,,,,,,,,7,1,50,4,,,,,,,,,,,,,,,,,,,,,,,,,,,,,,,,,,,,,,,,1991.7864806172438,None,,,1994.8021970428526,None,1.547089947089947,1.366295883897692,1994.8021970428526,None,,,,,,,1992.785857224837,None,1992.969138334971,1992.9858085610904,135,001,2023_Nov_15_1609,SpeechDraft1Carolyn_lessNoise_PlusLocalization,2021.2.3,59.98585741986363,
,,,,,,,,nearLeft,-6.5,1,ch1Sound_localizationTask.wav,-6.5,"(857, 878)","(-103,-202)",-95,-338,,,,,,,,,,,,,7,2,51,2,,,,,,,,,,,,,,,,,,,,,,,,,,,,,,,,,,,,,,,,1996.1699060052633,None,,,1999.1854308121838,None,1.4439153439153438,0.9162730807438493,1999.1854308121838,None,,,,,,,1997.169179755263,None,1997.3524988088757,1997.3691712901928,135,001,2023_Nov_15_1609,SpeechDraft1Carolyn_lessNoise_PlusLocalization,2021.2.3,59.98585741986363,
,,,,,,,,farRight,19.1,4,ch1Sound_localizationTask.wav,19.1,"(1237, 878)","(277,-202)",285,-338,,,,,,,,,,,,,7,3,52,6,,,,,,,,,,,,,,,,,,,,,,,,,,,,,,,,,,,,,,,,2000.1035465421155,None,,,2003.1355358040892,None,1.651851851851852,1.0499945259653032,2003.1355358040892,None,,,,,,,2001.1191980629228,None,2001.3025322719477,2001.319154864177,135,001,2023_Nov_15_1609,SpeechDraft1Carolyn_lessNoise_PlusLocalization,2021.2.3,59.98585741986363,
,,,,,,,,farRight,19.1,4,ch1Sound_localizationTask.wav,19.1,"(1237, 878)","(277,-202)",285,-338,,,,,,,,,,,,,7,4,53,6,,,,,,,,,,,,,,,,,,,,,,,,,,,,,,,,,,,,,,,,2004.187364880927,None,,,2007.2190688191913,None,1.6724867724867725,0.8172939289361238,2007.2190688191913,None,,,,,,,2005.2024231571704,None,2005.385855015833,2005.4024417889304,135,001,2023_Nov_15_1609,SpeechDraft1Carolyn_lessNoise_PlusLocalization,2021.2.3,59.98585741986363,
,,,,,,,,center,0.0,6,ch1Sound_localizationTask.wav,0.0,"(952, 878)","(-8,-202)",0,-338,,,,,,,,,,,,,7,5,54,3,,,,,,,,,,,,,,,,,,,,,,,,,,,,,,,,,,,,,,,,2008.0526762781665,None,,,2011.0688778338954,None,1.4793650793650794,0.9337187330238521,2011.0688778338954,None,,,,,,,2009.0524911531247,None,2009.235817767214,2009.2524597421288,135,001,2023_Nov_15_1609,SpeechDraft1Carolyn_lessNoise_PlusLocalization,2021.2.3,59.98585741986363,
,,,,,,,,center,0.0,6,ch1Sound_localizationTask.wav,0.0,"(952, 878)","(-8,-202)",0,-338,,,,,,,,,,,,,7,6,55,3,,,,,,,,,,,,,,,,,,,,,,,,,,,,,,,,,,,,,,,,2012.0035252529196,None,,,2015.0356011032127,None,1.5084656084656085,1.0519203543663025,2015.0356011032127,None,,,,,,,2013.019409073051,None,2013.202516795136,2013.219133879058,135,001,2023_Nov_15_1609,SpeechDraft1Carolyn_lessNoise_PlusLocalization,2021.2.3,59.98585741986363,
