Audio_Only_Files,Video_Files,Original_Word_List,noiseLevelCode,conditionCodes,noiseLevelFile1,noiseLevelFile2,InstrTextVar,targetSpeakerName,targetSpeakerEccen,targetSpkrChannel,targetSpkrSound,targetVisualDegrees,visStimLoc,visStimLoc2,visStimW,visStimH,practiceTrials.thisRepN,practiceTrials.thisTrialN,practiceTrials.thisN,practiceTrials.thisIndex,trials.thisRepN,trials.thisTrialN,trials.thisN,trials.thisIndex,audLocalLoop.thisRepN,audLocalLoop.thisTrialN,audLocalLoop.thisN,audLocalLoop.thisIndex,visualLocalLoop.thisRepN,visualLocalLoop.thisTrialN,visualLocalLoop.thisN,visualLocalLoop.thisIndex,letsGoAlready.keys,letsGoAlready.rt,letsGoAlready.started,letsGoAlready.stopped,text_2.started,text_2.stopped,text_3.started,text_3.stopped,key_resp_2.keys,key_resp_2.rt,key_resp_2.started,key_resp_2.stopped,text_5.started,text_5.stopped,fixCross.started,fixCross.stopped,fixCross2.started,fixCross2.stopped,answerPrompt.started,answerPrompt.stopped,getAnswer.text,getAnswer.started,getAnswer.stopped,goToNext.keys,goToNext.rt,goToNext.started,goToNext.stopped,stretchBreakTxrt.started,stretchBreakTxrt.stopped,key_resp_3.keys,key_resp_3.rt,key_resp_3.started,key_resp_3.stopped,letsGoLocal.keys,letsGoLocal.rt,letsGoLocal.started,letsGoLocal.stopped,text_4.started,text_4.stopped,prepFixTxt.started,prepFixTxt.stopped,prepFixTxt_2.started,prepFixTxt_2.stopped,respPromptLocal.started,respPromptLocal.stopped,slider.response,slider.rt,slider.started,slider.stopped,letsGoLocal_2.keys,letsGoLocal_2.rt,letsGoLocal_2.started,letsGoLocal_2.stopped,text_7.started,text_7.stopped,prepFixTxt_3.started,prepFixTxt_3.stopped,grating.started,grating.stopped,exitTxt.started,exitTxt.stopped,key_resp.keys,key_resp.rt,key_resp.started,key_resp.stopped,participant,session,date,expName,psychopyVersion,frameRate,
,,,,,,,,,,,,,,,,,,,,,,,,,,,,,,,,,space,232.47278372896835,14.786453627049923,None,,,,,,,,,,,,,,,,,,,,,,,,,,,,,,,,,,,,,,,,,,,,,,,,,,,,,,,,,,,,,,136,001,2023_Nov_17_1124,SpeechDraft1Carolyn_lessNoise_PlusLocalization,2021.2.3,60.049252618235165,
,,,,,,,,,,,,,,,,,,,,,,,,,,,,,,,,,,,,,14.786453627049923,None,247.3865349572152,None,space,6.8173125591129065,247.56988493492827,None,,,,,,,,,,,,,,,,,,,,,,,,,,,,,,,,,,,,,,,,,,,,,,,,,,,,,,136,001,2023_Nov_17_1124,SpeechDraft1Carolyn_lessNoise_PlusLocalization,2021.2.3,60.049252618235165,
ash.wav,ash.mpg,ash,1,A,Pink_Noise_1_1.wav,Pink_Noise_1_2.wav,"This is an example of an

AUDIO trial",,,,,,,,,,0,0,0,0,,,,,,,,,,,,,,,,,,,,,,,,,254.45299083506688,None,255.43658325495198,None,258.7529371618293,None,260.13667066721246,None,ash,260.13667066721246,None,return,8.871302258688956,260.2198946480639,None,,,,,,,,,,,,,,,,,,,,,,,,,,,,,,,,,,,,,,,136,001,2023_Nov_17_1124,SpeechDraft1Carolyn_lessNoise_PlusLocalization,2021.2.3,60.049252618235165,
ash.wav,ash.mpg,ash,1,AV,Pink_Noise_1_1.wav,Pink_Noise_1_2.wav,"This is an example of an

AUDIO + VIDEO  trial",,,,,,,,,,0,1,1,1,,,,,,,,,,,,,,,,,,,,,,,,,269.1362945442088,None,270.1365385451354,None,271.6204335382208,None,273.0031901160255,None,"ash
",273.0031901160255,None,return,13.052665336057544,273.0865294341929,None,,,,,,,,,,,,,,,,,,,,,,,,,,,,,,,,,,,,,,,136,001,2023_Nov_17_1124,SpeechDraft1Carolyn_lessNoise_PlusLocalization,2021.2.3,60.049252618235165,
,,,,,,,,,,,,,,,,,,,,,,,,,,,,,,,,,,,,,,,,,,,,,,,,,,,,,,,,,,,,286.186296668835,None,space,18.201261850073934,286.36994632100686,None,,,,,,,,,,,,,,,,,,,,,,,,,,,,,,,,,136,001,2023_Nov_17_1124,SpeechDraft1Carolyn_lessNoise_PlusLocalization,2021.2.3,60.049252618235165,
fuss.wav,fuss.mpg,fuss,3,A,Pink_Noise_3_1.wav,Pink_Noise_3_2.wav,,,,,,,,,,,,,,,0,0,0,23,,,,,,,,,,,,,,,,,,,,,,,304.636310136877,None,306.1195829529315,None,307.50321134598926,None,"dusk
",307.50321134598926,None,return,11.520514050032943,307.5866812369786,None,,,,,,,,,,,,,,,,,,,,,,,,,,,,,,,,,,,,,,,136,001,2023_Nov_17_1124,SpeechDraft1Carolyn_lessNoise_PlusLocalization,2021.2.3,60.049252618235165,
bible.wav,bible.mpg,bible,3,A,Pink_Noise_3_1.wav,Pink_Noise_3_2.wav,,,,,,,,,,,,,,,0,1,1,17,,,,,,,,,,,,,,,,,,,,,,,319.13664415478706,None,320.63636435288936,None,322.0200110930018,None,"bible
",322.0200110930018,None,return,11.851916837040335,322.1033030501567,None,,,,,,,,,,,,,,,,,,,,,,,,,,,,,,,,,,,,,,,136,001,2023_Nov_17_1124,SpeechDraft1Carolyn_lessNoise_PlusLocalization,2021.2.3,60.049252618235165,
chase.wav,chase.mpg,chase,6,AV,Pink_Noise_6_1.wav,Pink_Noise_6_2.wav,,,,,,,,,,,,,,,0,2,2,94,,,,,,,,,,,,,,,,,,,,,,,333.98671527719125,None,335.48626672290266,None,336.86988899996504,None,trust,336.86988899996504,None,return,16.345775831025094,336.9534096000716,None,,,,,,,,,,,,,,,,,,,,,,,,,,,,,,,,,,,,,,,136,001,2023_Nov_17_1124,SpeechDraft1Carolyn_lessNoise_PlusLocalization,2021.2.3,60.049252618235165,
tart.wav,tart.mpg,tart,5,A,Pink_Noise_5_1.wav,Pink_Noise_5_2.wav,,,,,,,,,,,,,,,0,3,3,26,,,,,,,,,,,,,,,,,,,,,,,353.32006362779066,None,354.81955374218524,None,356.2032230249606,None,bike,356.2032230249606,None,return,6.044485772028565,356.28672186797485,None,,,,,,,,,,,,,,,,,,,,,,,,,,,,,,,,,,,,,,,136,001,2023_Nov_17_1124,SpeechDraft1Carolyn_lessNoise_PlusLocalization,2021.2.3,60.049252618235165,
bug.wav,bug.mpg,bug,2,A,Pink_Noise_2_1.wav,Pink_Noise_2_2.wav,,,,,,,,,,,,,,,0,4,4,16,,,,,,,,,,,,,,,,,,,,,,,362.3533971128054,None,363.85301858279854,None,365.2366313729435,None,bug,365.2366313729435,None,return,16.027164211962372,365.320019308012,None,,,,,,,,,,,,,,,,,,,,,,,,,,,,,,,,,,,,,,,136,001,2023_Nov_17_1124,SpeechDraft1Carolyn_lessNoise_PlusLocalization,2021.2.3,60.049252618235165,
carve.wav,carve.mpg,carve,6,A,Pink_Noise_6_1.wav,Pink_Noise_6_2.wav,,,,,,,,,,,,,,,0,5,5,58,,,,,,,,,,,,,,,,,,,,,,,381.3700758139603,None,382.8698198730126,None,384.2534073651768,None,morning,384.2534073651768,None,return,39.698600692208856,384.3367036031559,None,,,,,,,,,,,,,,,,,,,,,,,,,,,,,,,,,,,,,,,136,001,2023_Nov_17_1124,SpeechDraft1Carolyn_lessNoise_PlusLocalization,2021.2.3,60.049252618235165,
deal.wav,deal.mpg,deal,4,A,Pink_Noise_4_1.wav,Pink_Noise_4_2.wav,,,,,,,,,,,,,,,0,6,6,34,,,,,,,,,,,,,,,,,,,,,,,424.0534322299063,None,425.55321887601167,None,426.9367955122143,None,new,426.9367955122143,None,return,7.21519838925451,427.02009570319206,None,,,,,,,,,,,,,,,,,,,,,,,,,,,,,,,,,,,,,,,136,001,2023_Nov_17_1124,SpeechDraft1Carolyn_lessNoise_PlusLocalization,2021.2.3,60.049252618235165,
eat.wav,eat.mpg,eat,5,A,Pink_Noise_5_1.wav,Pink_Noise_5_2.wav,,,,,,,,,,,,,,,0,7,7,35,,,,,,,,,,,,,,,,,,,,,,,434.25347525719553,None,435.7531489180401,None,437.13684721896425,None,"weight
",437.13684721896425,None,return,11.166944913100451,437.22024004906416,None,,,,,,,,,,,,,,,,,,,,,,,,,,,,,,,,,,,,,,,136,001,2023_Nov_17_1124,SpeechDraft1Carolyn_lessNoise_PlusLocalization,2021.2.3,60.049252618235165,
germ.wav,germ.mpg,germ,6,A,Pink_Noise_6_1.wav,Pink_Noise_6_2.wav,,,,,,,,,,,,,,,0,8,8,11,,,,,,,,,,,,,,,,,,,,,,,448.4201760790311,None,449.9198376610875,None,451.30345616396517,None,stairs,451.30345616396517,None,return,4.088352030608803,451.3869045372121,None,,,,,,,,,,,,,,,,,,,,,,,,,,,,,,,,,,,,,,,136,001,2023_Nov_17_1124,SpeechDraft1Carolyn_lessNoise_PlusLocalization,2021.2.3,60.049252618235165,
birch.wav,birch.mpg,birch,6,A,Pink_Noise_6_1.wav,Pink_Noise_6_2.wav,,,,,,,,,,,,,,,0,9,9,2,,,,,,,,,,,,,,,,,,,,,,,455.50352471414953,None,457.00323971686885,None,458.3868268178776,None,bush,458.3868268178776,None,return,4.405102933291346,458.4701415998861,None,,,,,,,,,,,,,,,,,,,,,,,,,,,,,,,,,,,,,,,136,001,2023_Nov_17_1124,SpeechDraft1Carolyn_lessNoise_PlusLocalization,2021.2.3,60.049252618235165,
brief.wav,brief.mpg,brief,3,A,Pink_Noise_3_1.wav,Pink_Noise_3_2.wav,,,,,,,,,,,,,,,0,10,10,46,,,,,,,,,,,,,,,,,,,,,,,462.90344605688006,None,464.4031683388166,None,465.7867907779291,None,free,465.7867907779291,None,return,5.389130561612546,465.8702292209491,None,,,,,,,,,,,,,,,,,,,,,,,,,,,,,,,,,,,,,,,136,001,2023_Nov_17_1124,SpeechDraft1Carolyn_lessNoise_PlusLocalization,2021.2.3,60.049252618235165,
drive.wav,drive.mpg,drive,1,AV,Pink_Noise_1_1.wav,Pink_Noise_1_2.wav,,,,,,,,,,,,,,,0,11,11,104,,,,,,,,,,,,,,,,,,,,,,,471.28689508885145,None,472.7867889520712,None,474.17018644697964,None,drive,474.17018644697964,None,return,5.845685701351613,474.25350062176585,None,,,,,,,,,,,,,,,,,,,,,,,,,,,,,,,,,,,,,,,136,001,2023_Nov_17_1124,SpeechDraft1Carolyn_lessNoise_PlusLocalization,2021.2.3,60.049252618235165,
brew.wav,brew.mpg,brew,6,AV,Pink_Noise_6_1.wav,Pink_Noise_6_2.wav,,,,,,,,,,,,,,,0,12,12,72,,,,,,,,,,,,,,,,,,,,,,,480.12012560106814,None,481.6198969488032,None,483.00347597384825,None,room,483.00347597384825,None,return,3.204226925969124,483.086958124768,None,,,,,,,,,,,,,,,,,,,,,,,,,,,,,,,,,,,,,,,136,001,2023_Nov_17_1124,SpeechDraft1Carolyn_lessNoise_PlusLocalization,2021.2.3,60.049252618235165,
cleft.wav,cleft.mpg,cleft,3,AV,Pink_Noise_3_1.wav,Pink_Noise_3_2.wav,,,,,,,,,,,,,,,0,13,13,111,,,,,,,,,,,,,,,,,,,,,,,486.3212748798542,None,487.8365756929852,None,489.22011397592723,None,classroom,489.22011397592723,None,return,24.083734762389213,489.30348535021767,None,,,,,,,,,,,,,,,,,,,,,,,,,,,,,,,,,,,,,,,136,001,2023_Nov_17_1124,SpeechDraft1Carolyn_lessNoise_PlusLocalization,2021.2.3,60.049252618235165,
crush.wav,crush.mpg,crush,4,AV,Pink_Noise_4_1.wav,Pink_Noise_4_2.wav,,,,,,,,,,,,,,,0,14,14,82,,,,,,,,,,,,,,,,,,,,,,,513.4038296169601,None,514.9037790489383,None,516.2868372611701,None,crush,516.2868372611701,None,return,13.59280791785568,516.3703693649732,None,,,,,,,,,,,,,,,,,,,,,,,,,,,,,,,,,,,,,,,136,001,2023_Nov_17_1124,SpeechDraft1Carolyn_lessNoise_PlusLocalization,2021.2.3,60.049252618235165,
thief.wav,thief.mpg,thief,5,AV,Pink_Noise_5_1.wav,Pink_Noise_5_2.wav,,,,,,,,,,,,,,,0,15,15,114,,,,,,,,,,,,,,,,,,,,,,,529.9869210151955,None,531.4866388710216,None,532.8702485538088,None,thief,532.8702485538088,None,return,10.88973894994706,532.9536315118894,None,,,,,,,,,,,,,,,,,,,,,,,,,,,,,,,,,,,,,,,136,001,2023_Nov_17_1124,SpeechDraft1Carolyn_lessNoise_PlusLocalization,2021.2.3,60.049252618235165,
grass.wav,grass.mpg,grass,6,A,Pink_Noise_6_1.wav,Pink_Noise_6_2.wav,,,,,,,,,,,,,,,0,16,16,32,,,,,,,,,,,,,,,,,,,,,,,543.8703250768594,None,545.3699516188353,None,546.7536877780221,None,trust,546.7536877780221,None,return,11.85431812563911,546.8368672900833,None,,,,,,,,,,,,,,,,,,,,,,,,,,,,,,,,,,,,,,,136,001,2023_Nov_17_1124,SpeechDraft1Carolyn_lessNoise_PlusLocalization,2021.2.3,60.049252618235165,
gas.wav,gas.mpg,gas,3,AV,Pink_Noise_3_1.wav,Pink_Noise_3_2.wav,,,,,,,,,,,,,,,0,17,17,71,,,,,,,,,,,,,,,,,,,,,,,558.7203585878015,None,560.2199915321544,None,561.6036111009307,None,gas,561.6036111009307,None,return,4.508247924037278,561.6869335048832,None,,,,,,,,,,,,,,,,,,,,,,,,,,,,,,,,,,,,,,,136,001,2023_Nov_17_1124,SpeechDraft1Carolyn_lessNoise_PlusLocalization,2021.2.3,60.049252618235165,
fund.wav,fund.mpg,fund,4,AV,Pink_Noise_4_1.wav,Pink_Noise_4_2.wav,,,,,,,,,,,,,,,0,18,18,90,,,,,,,,,,,,,,,,,,,,,,,566.2203223719262,None,567.720020622015,None,569.1035657059401,None,funny,569.1035657059401,None,return,6.208123698364943,569.1870596590452,None,,,,,,,,,,,,,,,,,,,,,,,,,,,,,,,,,,,,,,,136,001,2023_Nov_17_1124,SpeechDraft1Carolyn_lessNoise_PlusLocalization,2021.2.3,60.049252618235165,
game.wav,game.mpg,game,2,A,Pink_Noise_2_1.wav,Pink_Noise_2_2.wav,,,,,,,,,,,,,,,0,19,19,25,,,,,,,,,,,,,,,,,,,,,,,575.4203420188278,None,576.9200132600963,None,578.3036354607902,None,gam,578.3036354607902,None,return,3.328005068935454,578.3871940397657,None,,,,,,,,,,,,,,,,,,,,,,,,,,,,,,,,,,,,,,,136,001,2023_Nov_17_1124,SpeechDraft1Carolyn_lessNoise_PlusLocalization,2021.2.3,60.049252618235165,
dry.wav,dry.mpg,dry,4,AV,Pink_Noise_4_1.wav,Pink_Noise_4_2.wav,,,,,,,,,,,,,,,0,20,20,77,,,,,,,,,,,,,,,,,,,,,,,581.7369807781652,None,583.2367133512162,None,584.6201933068223,None,dry,584.6201933068223,None,return,2.9316897969692945,584.7036094088107,None,,,,,,,,,,,,,,,,,,,,,,,,,,,,,,,,,,,,,,,136,001,2023_Nov_17_1124,SpeechDraft1Carolyn_lessNoise_PlusLocalization,2021.2.3,60.049252618235165,
grin.wav,grin.mpg,grin,6,A,Pink_Noise_6_1.wav,Pink_Noise_6_2.wav,,,,,,,,,,,,,,,0,21,21,55,,,,,,,,,,,,,,,,,,,,,,,587.6536527760327,None,589.1534228101373,None,590.5369360209443,None,"race
",590.5369360209443,None,return,12.718805423937738,590.6203916240484,None,,,,,,,,,,,,,,,,,,,,,,,,,,,,,,,,,,,,,,,136,001,2023_Nov_17_1124,SpeechDraft1Carolyn_lessNoise_PlusLocalization,2021.2.3,60.049252618235165,
bag.wav,bag.mpg,bag,5,AV,Pink_Noise_5_1.wav,Pink_Noise_5_2.wav,,,,,,,,,,,,,,,0,22,22,60,,,,,,,,,,,,,,,,,,,,,,,603.3708890951239,None,604.8701425939798,None,606.2536367280409,None,bell,606.2536367280409,None,return,5.914123795926571,606.3370785177685,None,,,,,,,,,,,,,,,,,,,,,,,,,,,,,,,,,,,,,,,136,001,2023_Nov_17_1124,SpeechDraft1Carolyn_lessNoise_PlusLocalization,2021.2.3,60.049252618235165,
pact.wav,pact.mpg,pact,4,A,Pink_Noise_4_1.wav,Pink_Noise_4_2.wav,,,,,,,,,,,,,,,0,23,23,43,,,,,,,,,,,,,,,,,,,,,,,612.2704478511587,None,613.7700738590211,None,615.1538002141751,None,pant,615.1538002141751,None,return,11.622226188890636,615.2370504001155,None,,,,,,,,,,,,,,,,,,,,,,,,,,,,,,,,,,,,,,,136,001,2023_Nov_17_1124,SpeechDraft1Carolyn_lessNoise_PlusLocalization,2021.2.3,60.049252618235165,
grief.wav,grief.mpg,grief,6,A,Pink_Noise_6_1.wav,Pink_Noise_6_2.wav,,,,,,,,,,,,,,,0,24,24,50,,,,,,,,,,,,,,,,,,,,,,,626.8870314480737,None,628.386641012039,None,629.7703685760498,None,race,629.7703685760498,None,return,29.50945216231048,629.8537312080152,None,,,,,,,,,,,,,,,,,,,,,,,,,,,,,,,,,,,,,,,136,001,2023_Nov_17_1124,SpeechDraft1Carolyn_lessNoise_PlusLocalization,2021.2.3,60.049252618235165,
dine.wav,dine.mpg,dine,2,A,Pink_Noise_2_1.wav,Pink_Noise_2_2.wav,,,,,,,,,,,,,,,0,25,25,31,,,,,,,,,,,,,,,,,,,,,,,659.3870619018562,None,660.8867202461697,None,662.2704214151017,None,dime,662.2704214151017,None,return,4.097401340026408,662.3537946599536,None,,,,,,,,,,,,,,,,,,,,,,,,,,,,,,,,,,,,,,,136,001,2023_Nov_17_1124,SpeechDraft1Carolyn_lessNoise_PlusLocalization,2021.2.3,60.049252618235165,
fifth.wav,fifth.mpg,fifth,5,A,Pink_Noise_5_1.wav,Pink_Noise_5_2.wav,,,,,,,,,,,,,,,0,26,26,44,,,,,,,,,,,,,,,,,,,,,,,666.4703398011625,None,667.9719535461627,None,669.3538234070875,None,sick,669.3538234070875,None,return,4.014127992093563,669.4370789378881,None,,,,,,,,,,,,,,,,,,,,,,,,,,,,,,,,,,,,,,,136,001,2023_Nov_17_1124,SpeechDraft1Carolyn_lessNoise_PlusLocalization,2021.2.3,60.049252618235165,
fish.wav,fish.mpg,fish,5,AV,Pink_Noise_5_1.wav,Pink_Noise_5_2.wav,,,,,,,,,,,,,,,0,27,27,83,,,,,,,,,,,,,,,,,,,,,,,673.4703771597706,None,674.9702005051076,None,676.3537680339068,None,fish,676.3537680339068,None,return,5.75808243220672,676.4371326221153,None,,,,,,,,,,,,,,,,,,,,,,,,,,,,,,,,,,,,,,,136,001,2023_Nov_17_1124,SpeechDraft1Carolyn_lessNoise_PlusLocalization,2021.2.3,60.049252618235165,
tear.wav,tear.mpg,tear,3,A,Pink_Noise_3_1.wav,Pink_Noise_3_2.wav,,,,,,,,,,,,,,,0,28,28,41,,,,,,,,,,,,,,,,,,,,,,,682.220461437013,None,683.7201881408691,None,685.1038047578186,None,tear,685.1038047578186,None,return,13.008128813933581,685.1871902379207,None,,,,,,,,,,,,,,,,,,,,,,,,,,,,,,,,,,,,,,,136,001,2023_Nov_17_1124,SpeechDraft1Carolyn_lessNoise_PlusLocalization,2021.2.3,60.049252618235165,
ditch.wav,ditch.mpg,ditch,3,AV,Pink_Noise_3_1.wav,Pink_Noise_3_2.wav,,,,,,,,,,,,,,,0,29,29,75,,,,,,,,,,,,,,,,,,,,,,,698.2207931778394,None,699.7203343398869,None,701.103726177942,None,"dish
",701.103726177942,None,return,12.320006781257689,701.1871877578087,None,,,,,,,,,,,,,,,,,,,,,,,,,,,,,,,,,,,,,,,136,001,2023_Nov_17_1124,SpeechDraft1Carolyn_lessNoise_PlusLocalization,2021.2.3,60.049252618235165,
clerk.wav,clerk.mpg,clerk,3,A,Pink_Noise_3_1.wav,Pink_Noise_3_2.wav,,,,,,,,,,,,,,,0,30,30,6,,,,,,,,,,,,,,,,,,,,,,,713.5372522748075,None,715.0536088719964,None,716.4371904758736,None,cook,716.4371904758736,None,return,4.882727866992354,716.5205267542042,None,,,,,,,,,,,,,,,,,,,,,,,,,,,,,,,,,,,,,,,136,001,2023_Nov_17_1124,SpeechDraft1Carolyn_lessNoise_PlusLocalization,2021.2.3,60.049252618235165,
chill.wav,chill.mpg,chill,6,AV,Pink_Noise_6_1.wav,Pink_Noise_6_2.wav,,,,,,,,,,,,,,,0,31,31,61,,,,,,,,,,,,,,,,,,,,,,,721.4205296128057,None,722.9214289491065,None,724.3040657402016,None,chair,724.3040657402016,None,return,4.112017878331244,724.3872036701068,None,,,,,,,,,,,,,,,,,,,,,,,,,,,,,,,,,,,,,,,136,001,2023_Nov_17_1124,SpeechDraft1Carolyn_lessNoise_PlusLocalization,2021.2.3,60.049252618235165,
chain.wav,chain.mpg,chain,3,AV,Pink_Noise_3_1.wav,Pink_Noise_3_2.wav,,,,,,,,,,,,,,,0,32,32,63,,,,,,,,,,,,,,,,,,,,,,,728.5206712242216,None,730.020352311898,None,731.4038067301735,None,chain,731.4038067301735,None,return,5.35609640693292,731.487171440851,None,,,,,,,,,,,,,,,,,,,,,,,,,,,,,,,,,,,,,,,136,001,2023_Nov_17_1124,SpeechDraft1Carolyn_lessNoise_PlusLocalization,2021.2.3,60.049252618235165,
dense.wav,dense.mpg,dense,4,AV,Pink_Noise_4_1.wav,Pink_Noise_4_2.wav,,,,,,,,,,,,,,,0,33,33,62,,,,,,,,,,,,,,,,,,,,,,,736.8705450398847,None,738.3703897357918,None,739.7538103531115,None,steps,739.7538103531115,None,return,22.709869206883013,739.8373473221436,None,,,,,,,,,,,,,,,,,,,,,,,,,,,,,,,,,,,,,,,136,001,2023_Nov_17_1124,SpeechDraft1Carolyn_lessNoise_PlusLocalization,2021.2.3,60.049252618235165,
glove.wav,glove.mpg,glove,2,AV,Pink_Noise_2_1.wav,Pink_Noise_2_2.wav,,,,,,,,,,,,,,,0,34,34,101,,,,,,,,,,,,,,,,,,,,,,,762.5705355401151,None,764.0702648968436,None,765.4539500190876,None,glove,765.4539500190876,None,return,8.625862080138177,765.5372842769139,None,,,,,,,,,,,,,,,,,,,,,,,,,,,,,,,,,,,,,,,136,001,2023_Nov_17_1124,SpeechDraft1Carolyn_lessNoise_PlusLocalization,2021.2.3,60.049252618235165,
glide.wav,glide.mpg,glide,6,AV,Pink_Noise_6_1.wav,Pink_Noise_6_2.wav,,,,,,,,,,,,,,,0,35,35,115,,,,,,,,,,,,,,,,,,,,,,,774.1872222158127,None,775.6869822451845,None,777.0705145080574,None,glide,777.0705145080574,None,return,6.681124552153051,777.1540946140885,None,,,,,,,,,,,,,,,,,,,,,,,,,,,,,,,,,,,,,,,136,001,2023_Nov_17_1124,SpeechDraft1Carolyn_lessNoise_PlusLocalization,2021.2.3,60.049252618235165,
fall.wav,fall.mpg,fall,6,A,Pink_Noise_6_1.wav,Pink_Noise_6_2.wav,,,,,,,,,,,,,,,0,36,36,39,,,,,,,,,,,,,,,,,,,,,,,783.8539427081123,None,785.353576100897,None,786.7372487238608,None,try,786.7372487238608,None,return,5.254499793052673,786.8206893308088,None,,,,,,,,,,,,,,,,,,,,,,,,,,,,,,,,,,,,,,,136,001,2023_Nov_17_1124,SpeechDraft1Carolyn_lessNoise_PlusLocalization,2021.2.3,60.049252618235165,
cloud.wav,cloud.mpg,cloud,4,AV,Pink_Noise_4_1.wav,Pink_Noise_4_2.wav,,,,,,,,,,,,,,,0,37,37,67,,,,,,,,,,,,,,,,,,,,,,,792.1039653797634,None,793.6036988738924,None,794.9872637907974,None,cloud,794.9872637907974,None,return,10.412609236314893,795.0705740698613,None,,,,,,,,,,,,,,,,,,,,,,,,,,,,,,,,,,,,,,,136,001,2023_Nov_17_1124,SpeechDraft1Carolyn_lessNoise_PlusLocalization,2021.2.3,60.049252618235165,
green.wav,green.mpg,green,4,A,Pink_Noise_4_1.wav,Pink_Noise_4_2.wav,,,,,,,,,,,,,,,0,38,38,57,,,,,,,,,,,,,,,,,,,,,,,805.5039997659624,None,807.0036607659422,None,808.3873713798821,None,tree,808.3873713798821,None,return,4.132697451394051,808.4706031237729,None,,,,,,,,,,,,,,,,,,,,,,,,,,,,,,,,,,,,,,,136,001,2023_Nov_17_1124,SpeechDraft1Carolyn_lessNoise_PlusLocalization,2021.2.3,60.049252618235165,
barge.wav,barge.mpg,barge,1,AV,Pink_Noise_1_1.wav,Pink_Noise_1_2.wav,,,,,,,,,,,,,,,0,39,39,108,,,,,,,,,,,,,,,,,,,,,,,812.6207123608328,None,814.1202975171618,None,815.5040219738148,None,"barge
",815.5040219738148,None,return,7.367839413695037,815.5873475931585,None,,,,,,,,,,,,,,,,,,,,,,,,,,,,,,,,,,,,,,,136,001,2023_Nov_17_1124,SpeechDraft1Carolyn_lessNoise_PlusLocalization,2021.2.3,60.049252618235165,
dump.wav,dump.mpg,dump,6,A,Pink_Noise_6_1.wav,Pink_Noise_6_2.wav,,,,,,,,,,,,,,,0,40,40,49,,,,,,,,,,,,,,,,,,,,,,,822.9873548489995,None,824.4869071501307,None,825.8706598398276,None,duck,825.8706598398276,None,return,3.8091473882086575,825.9540351629257,None,,,,,,,,,,,,,,,,,,,,,,,,,,,,,,,,,,,,,,,136,001,2023_Nov_17_1124,SpeechDraft1Carolyn_lessNoise_PlusLocalization,2021.2.3,60.049252618235165,
chief.wav,chief.mpg,chief,2,AV,Pink_Noise_2_1.wav,Pink_Noise_2_2.wav,,,,,,,,,,,,,,,0,41,41,68,,,,,,,,,,,,,,,,,,,,,,,829.787339920178,None,831.287018192932,None,832.670561467763,None,chief,832.670561467763,None,return,10.25722718006,832.7540271491744,None,,,,,,,,,,,,,,,,,,,,,,,,,,,,,,,,,,,,,,,136,001,2023_Nov_17_1124,SpeechDraft1Carolyn_lessNoise_PlusLocalization,2021.2.3,60.049252618235165,
cope.wav,cope.mpg,cope,4,AV,Pink_Noise_4_1.wav,Pink_Noise_4_2.wav,,,,,,,,,,,,,,,0,42,42,116,,,,,,,,,,,,,,,,,,,,,,,843.0372200780548,None,844.5370948528871,None,845.9206746648997,None,cope,845.9206746648997,None,return,10.559078494086862,846.0040620211512,None,,,,,,,,,,,,,,,,,,,,,,,,,,,,,,,,,,,,,,,136,001,2023_Nov_17_1124,SpeechDraft1Carolyn_lessNoise_PlusLocalization,2021.2.3,60.049252618235165,
fun.wav,fun.mpg,fun,4,A,Pink_Noise_4_1.wav,Pink_Noise_4_2.wav,,,,,,,,,,,,,,,0,43,43,0,,,,,,,,,,,,,,,,,,,,,,,856.5874579469673,None,858.087107820902,None,859.4707253300585,None,sponge,859.4707253300585,None,return,16.233104947954416,859.5541743831709,None,,,,,,,,,,,,,,,,,,,,,,,,,,,,,,,,,,,,,,,136,001,2023_Nov_17_1124,SpeechDraft1Carolyn_lessNoise_PlusLocalization,2021.2.3,60.049252618235165,
hug.wav,hug.mpg,hug,1,A,Pink_Noise_1_1.wav,Pink_Noise_1_2.wav,,,,,,,,,,,,,,,0,44,44,15,,,,,,,,,,,,,,,,,,,,,,,875.8040969450958,None,877.3051789198071,None,878.6874868408777,None,"hug
",878.6874868408777,None,return,3.7204567566514015,878.7707373709418,None,,,,,,,,,,,,,,,,,,,,,,,,,,,,,,,,,,,,,,,136,001,2023_Nov_17_1124,SpeechDraft1Carolyn_lessNoise_PlusLocalization,2021.2.3,60.049252618235165,
care.wav,care.mpg,care,1,AV,Pink_Noise_1_1.wav,Pink_Noise_1_2.wav,,,,,,,,,,,,,,,0,45,45,119,,,,,,,,,,,,,,,,,,,,,,,882.520789613016,None,884.0204849690199,None,885.4041378209367,None,care,885.4041378209367,None,return,6.6758308708667755,885.4873592588119,None,,,,,,,,,,,,,,,,,,,,,,,,,,,,,,,,,,,,,,,136,001,2023_Nov_17_1124,SpeechDraft1Carolyn_lessNoise_PlusLocalization,2021.2.3,60.049252618235165,
boil.wav,boil.mpg,boil,4,AV,Pink_Noise_4_1.wav,Pink_Noise_4_2.wav,,,,,,,,,,,,,,,0,46,46,91,,,,,,,,,,,,,,,,,,,,,,,892.1874487949535,None,893.7039398080669,None,895.0873569380492,None,will,895.0873569380492,None,return,7.832459699828178,895.1708230008371,None,,,,,,,,,,,,,,,,,,,,,,,,,,,,,,,,,,,,,,,136,001,2023_Nov_17_1124,SpeechDraft1Carolyn_lessNoise_PlusLocalization,2021.2.3,60.049252618235165,
crisp.wav,crisp.mpg,crisp,2,AV,Pink_Noise_2_1.wav,Pink_Noise_2_2.wav,,,,,,,,,,,,,,,0,47,47,113,,,,,,,,,,,,,,,,,,,,,,,903.0207612607628,None,904.5217114440165,None,905.9040826167911,None,crisp,905.9040826167911,None,return,10.815783801022917,905.9875154891051,None,,,,,,,,,,,,,,,,,,,,,,,,,,,,,,,,,,,,,,,136,001,2023_Nov_17_1124,SpeechDraft1Carolyn_lessNoise_PlusLocalization,2021.2.3,60.049252618235165,
rent.wav,rent.mpg,rent,4,A,Pink_Noise_4_1.wav,Pink_Noise_4_2.wav,,,,,,,,,,,,,,,0,48,48,21,,,,,,,,,,,,,,,,,,,,,,,916.820878255181,None,918.3206515489146,None,919.7041293429211,None,debt,919.7041293429211,None,return,5.007714897859842,919.7874697810039,None,,,,,,,,,,,,,,,,,,,,,,,,,,,,,,,,,,,,,,,136,001,2023_Nov_17_1124,SpeechDraft1Carolyn_lessNoise_PlusLocalization,2021.2.3,60.049252618235165,
wear.wav,wear.mpg,wear,6,AV,Pink_Noise_6_1.wav,Pink_Noise_6_2.wav,,,,,,,,,,,,,,,0,49,49,105,,,,,,,,,,,,,,,,,,,,,,,924.8208593120798,None,926.3205908681266,None,927.7040309971198,None,"rain
",927.7040309971198,None,return,15.78369102301076,927.7875108788721,None,,,,,,,,,,,,,,,,,,,,,,,,,,,,,,,,,,,,,,,136,001,2023_Nov_17_1124,SpeechDraft1Carolyn_lessNoise_PlusLocalization,2021.2.3,60.049252618235165,
quart.wav,quart.mpg,quart,2,AV,Pink_Noise_2_1.wav,Pink_Noise_2_2.wav,,,,,,,,,,,,,,,0,50,50,84,,,,,,,,,,,,,,,,,,,,,,,943.6041560778394,None,945.1057222820818,None,946.4874370028265,None,quart,946.4874370028265,None,return,3.4883794113993645,946.5708672478795,None,,,,,,,,,,,,,,,,,,,,,,,,,,,,,,,,,,,,,,,136,001,2023_Nov_17_1124,SpeechDraft1Carolyn_lessNoise_PlusLocalization,2021.2.3,60.049252618235165,
crawl.wav,crawl.mpg,crawl,5,A,Pink_Noise_5_1.wav,Pink_Noise_5_2.wav,,,,,,,,,,,,,,,0,51,51,1,,,,,,,,,,,,,,,,,,,,,,,950.087385085877,None,951.5872869491577,None,952.9708606339991,None,fall,952.9708606339991,None,return,4.556953280232847,953.0543141658418,None,,,,,,,,,,,,,,,,,,,,,,,,,,,,,,,,,,,,,,,136,001,2023_Nov_17_1124,SpeechDraft1Carolyn_lessNoise_PlusLocalization,2021.2.3,60.049252618235165,
chest.wav,chest.mpg,chest,3,A,Pink_Noise_3_1.wav,Pink_Noise_3_2.wav,,,,,,,,,,,,,,,0,52,52,4,,,,,,,,,,,,,,,,,,,,,,,957.6375577519648,None,959.1371543509886,None,960.5209317142144,None,chest,960.5209317142144,None,return,8.855182942003012,960.6040929979645,None,,,,,,,,,,,,,,,,,,,,,,,,,,,,,,,,,,,,,,,136,001,2023_Nov_17_1124,SpeechDraft1Carolyn_lessNoise_PlusLocalization,2021.2.3,60.049252618235165,
ham.wav,ham.mpg,ham,6,A,Pink_Noise_6_1.wav,Pink_Noise_6_2.wav,,,,,,,,,,,,,,,0,53,53,37,,,,,,,,,,,,,,,,,,,,,,,969.4875900419429,None,971.0039075920358,None,972.3875403990969,None,space,972.3875403990969,None,return,12.19637191016227,972.4709191960283,None,,,,,,,,,,,,,,,,,,,,,,,,,,,,,,,,,,,,,,,136,001,2023_Nov_17_1124,SpeechDraft1Carolyn_lessNoise_PlusLocalization,2021.2.3,60.049252618235165,
swayed.wav,swayed.mpg,swayed,5,A,Pink_Noise_5_1.wav,Pink_Noise_5_2.wav,,,,,,,,,,,,,,,0,54,54,18,,,,,,,,,,,,,,,,,,,,,,,984.6875698277727,None,986.2039132681675,None,987.5875849667937,None,creatr,987.5875849667937,None,return,12.804282831028104,987.6708842338994,None,,,,,,,,,,,,,,,,,,,,,,,,,,,,,,,,,,,,,,,136,001,2023_Nov_17_1124,SpeechDraft1Carolyn_lessNoise_PlusLocalization,2021.2.3,60.049252618235165,
doom.wav,doom.mpg,doom,4,AV,Pink_Noise_4_1.wav,Pink_Noise_4_2.wav,,,,,,,,,,,,,,,0,55,55,89,,,,,,,,,,,,,,,,,,,,,,,1000.5041942540556,None,1002.0206570620649,None,1003.4042820469476,None,doom,1003.4042820469476,None,return,5.387715307995677,1003.4874710398726,None,,,,,,,,,,,,,,,,,,,,,,,,,,,,,,,,,,,,,,,136,001,2023_Nov_17_1124,SpeechDraft1Carolyn_lessNoise_PlusLocalization,2021.2.3,60.049252618235165,
cheap.wav,cheap.mpg,cheap,3,A,Pink_Noise_3_1.wav,Pink_Noise_3_2.wav,,,,,,,,,,,,,,,0,56,56,59,,,,,,,,,,,,,,,,,,,,,,,1008.9042277322151,None,1010.4205323872156,None,1011.804301276803,None,"chief
",1011.804301276803,None,return,5.2036384348757565,1011.8875659010373,None,,,,,,,,,,,,,,,,,,,,,,,,,,,,,,,,,,,,,,,136,001,2023_Nov_17_1124,SpeechDraft1Carolyn_lessNoise_PlusLocalization,2021.2.3,60.049252618235165,
cry.wav,cry.mpg,cry,1,AV,Pink_Noise_1_1.wav,Pink_Noise_1_2.wav,,,,,,,,,,,,,,,0,57,57,64,,,,,,,,,,,,,,,,,,,,,,,1017.12094323989,None,1018.6206259219907,None,1020.0043187690899,None,"cry
",1020.0043187690899,None,return,3.8195995739661157,1020.0875782892108,None,,,,,,,,,,,,,,,,,,,,,,,,,,,,,,,,,,,,,,,136,001,2023_Nov_17_1124,SpeechDraft1Carolyn_lessNoise_PlusLocalization,2021.2.3,60.049252618235165,
gaze.wav,gaze.mpg,gaze,1,A,Pink_Noise_1_1.wav,Pink_Noise_1_2.wav,,,,,,,,,,,,,,,0,58,58,28,,,,,,,,,,,,,,,,,,,,,,,1023.9376553469338,None,1025.4539412828162,None,1026.8375763758086,None,gaze,1026.8375763758086,None,return,4.066279129125178,1026.9209744399413,None,,,,,,,,,,,,,,,,,,,,,,,,,,,,,,,,,,,,,,,136,001,2023_Nov_17_1124,SpeechDraft1Carolyn_lessNoise_PlusLocalization,2021.2.3,60.049252618235165,
curb.wav,curb.mpg,curb,2,AV,Pink_Noise_2_1.wav,Pink_Noise_2_2.wav,,,,,,,,,,,,,,,0,59,59,107,,,,,,,,,,,,,,,,,,,,,,,1031.0043147797696,None,1032.5040594819002,None,1033.8875650721602,None,curb,1033.8875650721602,None,return,5.440289615187794,1033.9710456430912,None,,,,,,,,,,,,,,,,,,,,,,,,,,,,,,,,,,,,,,,136,001,2023_Nov_17_1124,SpeechDraft1Carolyn_lessNoise_PlusLocalization,2021.2.3,60.049252618235165,
wound.wav,wound.mpg,wound,5,AV,Pink_Noise_5_1.wav,Pink_Noise_5_2.wav,,,,,,,,,,,,,,,0,60,60,109,,,,,,,,,,,,,,,,,,,,,,,1039.4376719300635,None,1040.9539959798567,None,1042.3376544332132,None,wish,1042.3376544332132,None,return,4.182294582016766,1042.4209819831885,None,,,,,,,,,,,,,,,,,,,,,,,,,,,,,,,,,,,,,,,136,001,2023_Nov_17_1124,SpeechDraft1Carolyn_lessNoise_PlusLocalization,2021.2.3,60.049252618235165,
unit.wav,unit.mpg,unit,1,AV,Pink_Noise_1_1.wav,Pink_Noise_1_2.wav,,,,,,,,,,,,,,,0,61,61,76,,,,,,,,,,,,,,,,,,,,,,,1046.6208981019445,None,1048.120639109984,None,1049.5043164948002,None,unit,1049.5043164948002,None,return,3.871474313084036,1049.587685140781,None,,,,,,,,,,,,,,,,,,,,,,,,,,,,,,,,,,,,,,,136,001,2023_Nov_17_1124,SpeechDraft1Carolyn_lessNoise_PlusLocalization,2021.2.3,60.049252618235165,
flank.wav,flank.mpg,flank,2,AV,Pink_Noise_2_1.wav,Pink_Noise_2_2.wav,,,,,,,,,,,,,,,0,62,62,95,,,,,,,,,,,,,,,,,,,,,,,1053.4876598971896,None,1055.0040408321656,None,1056.3875642409548,None,flag,1056.3875642409548,None,return,3.964109652210027,1056.4710856908932,None,,,,,,,,,,,,,,,,,,,,,,,,,,,,,,,,,,,,,,,136,001,2023_Nov_17_1124,SpeechDraft1Carolyn_lessNoise_PlusLocalization,2021.2.3,60.049252618235165,
floor.wav,floor.mpg,floor,1,AV,Pink_Noise_1_1.wav,Pink_Noise_1_2.wav,,,,,,,,,,,,,,,0,63,63,70,,,,,,,,,,,,,,,,,,,,,,,1060.45436861692,None,1061.9540510801598,None,1063.3375551751815,None,"floor
",1063.3375551751815,None,return,8.48624264402315,1063.4209516551346,None,,,,,,,,,,,,,,,,,,,,,,,,,,,,,,,,,,,,,,,136,001,2023_Nov_17_1124,SpeechDraft1Carolyn_lessNoise_PlusLocalization,2021.2.3,60.049252618235165,
cold.wav,cold.mpg,cold,2,AV,Pink_Noise_2_1.wav,Pink_Noise_2_2.wav,,,,,,,,,,,,,,,0,64,64,79,,,,,,,,,,,,,,,,,,,,,,,1071.937617233023,None,1073.454034437891,None,1074.8375616050325,None,cold,1074.8375616050325,None,return,4.394172762986273,1074.9210015111603,None,,,,,,,,,,,,,,,,,,,,,,,,,,,,,,,,,,,,,,,136,001,2023_Nov_17_1124,SpeechDraft1Carolyn_lessNoise_PlusLocalization,2021.2.3,60.049252618235165,
chore.wav,chore.mpg,chore,2,A,Pink_Noise_2_1.wav,Pink_Noise_2_2.wav,,,,,,,,,,,,,,,0,65,65,51,,,,,,,,,,,,,,,,,,,,,,,1079.3376884711906,None,1080.8372581899166,None,1082.2210908089764,None,chore,1082.2210908089764,None,return,5.53889489127323,1082.304370009806,None,,,,,,,,,,,,,,,,,,,,,,,,,,,,,,,,,,,,,,,136,001,2023_Nov_17_1124,SpeechDraft1Carolyn_lessNoise_PlusLocalization,2021.2.3,60.049252618235165,
bar.wav,bar.mpg,bar,1,A,Pink_Noise_1_1.wav,Pink_Noise_1_2.wav,,,,,,,,,,,,,,,0,66,66,48,,,,,,,,,,,,,,,,,,,,,,,1087.8710171608254,None,1089.387389996089,None,1090.7709649759345,None,bar,1090.7709649759345,None,return,3.324870413169265,1090.8543445211835,None,,,,,,,,,,,,,,,,,,,,,,,,,,,,,,,,,,,,,,,136,001,2023_Nov_17_1124,SpeechDraft1Carolyn_lessNoise_PlusLocalization,2021.2.3,60.049252618235165,
club.wav,club.mpg,club,4,A,Pink_Noise_4_1.wav,Pink_Noise_4_2.wav,,,,,,,,,,,,,,,0,67,67,38,,,,,,,,,,,,,,,,,,,,,,,1094.2044030111283,None,1095.7208001138642,None,1097.1043892749585,None,club,1097.1043892749585,None,return,8.543505399022251,1097.1876805201173,None,,,,,,,,,,,,,,,,,,,,,,,,,,,,,,,,,,,,,,,136,001,2023_Nov_17_1124,SpeechDraft1Carolyn_lessNoise_PlusLocalization,2021.2.3,60.049252618235165,
bait.wav,bait.mpg,bait,4,AV,Pink_Noise_4_1.wav,Pink_Noise_4_2.wav,,,,,,,,,,,,,,,0,68,68,118,,,,,,,,,,,,,,,,,,,,,,,1105.7543920450844,None,1107.287491797004,None,1108.6710088760592,None,bait,1108.6710088760592,None,return,4.48885513516143,1108.754337350838,None,,,,,,,,,,,,,,,,,,,,,,,,,,,,,,,,,,,,,,,136,001,2023_Nov_17_1124,SpeechDraft1Carolyn_lessNoise_PlusLocalization,2021.2.3,60.049252618235165,
blob.wav,blob.mpg,blob,3,AV,Pink_Noise_3_1.wav,Pink_Noise_3_2.wav,,,,,,,,,,,,,,,0,69,69,66,,,,,,,,,,,,,,,,,,,,,,,1113.2713339058682,None,1114.78740646597,None,1116.1710774889216,None,club,1116.1710774889216,None,return,7.076840993948281,1116.2543575949967,None,,,,,,,,,,,,,,,,,,,,,,,,,,,,,,,,,,,,,,,136,001,2023_Nov_17_1124,SpeechDraft1Carolyn_lessNoise_PlusLocalization,2021.2.3,60.049252618235165,
dive.wav,dive.mpg,dive,1,AV,Pink_Noise_1_1.wav,Pink_Noise_1_2.wav,,,,,,,,,,,,,,,0,70,70,102,,,,,,,,,,,,,,,,,,,,,,,1123.3543644738384,None,1124.8709092717618,None,1126.254302197136,None,dive,1126.254302197136,None,return,3.5454833172261715,1126.3377195750363,None,,,,,,,,,,,,,,,,,,,,,,,,,,,,,,,,,,,,,,,136,001,2023_Nov_17_1124,SpeechDraft1Carolyn_lessNoise_PlusLocalization,2021.2.3,60.049252618235165,
dusk.wav,dusk.mpg,dusk,2,A,Pink_Noise_2_1.wav,Pink_Noise_2_2.wav,,,,,,,,,,,,,,,0,71,71,36,,,,,,,,,,,,,,,,,,,,,,,1129.9044975861907,None,1131.4208495761268,None,1132.80446005892,None,dusk,1132.80446005892,None,return,5.923498792108148,1132.8878339240327,None,,,,,,,,,,,,,,,,,,,,,,,,,,,,,,,,,,,,,,,136,001,2023_Nov_17_1124,SpeechDraft1Carolyn_lessNoise_PlusLocalization,2021.2.3,60.049252618235165,
foam.wav,foam.mpg,foam,4,A,Pink_Noise_4_1.wav,Pink_Noise_4_2.wav,,,,,,,,,,,,,,,0,72,72,22,,,,,,,,,,,,,,,,,,,,,,,1138.8377146478742,None,1140.3707928429358,None,1141.7543843318708,None,bone,1141.7543843318708,None,return,9.525469505228102,1141.8377320659347,None,,,,,,,,,,,,,,,,,,,,,,,,,,,,,,,,,,,,,,,136,001,2023_Nov_17_1124,SpeechDraft1Carolyn_lessNoise_PlusLocalization,2021.2.3,60.049252618235165,
flood.wav,flood.mpg,flood,1,A,Pink_Noise_1_1.wav,Pink_Noise_1_2.wav,,,,,,,,,,,,,,,0,73,73,29,,,,,,,,,,,,,,,,,,,,,,,1151.3878138698637,None,1152.9040544400923,None,1154.2877563829534,None,blood,1154.2877563829534,None,return,4.5120036862790585,1154.3711909609847,None,,,,,,,,,,,,,,,,,,,,,,,,,,,,,,,,,,,,,,,136,001,2023_Nov_17_1124,SpeechDraft1Carolyn_lessNoise_PlusLocalization,2021.2.3,60.049252618235165,
flask.wav,flask.mpg,flask,3,AV,Pink_Noise_3_1.wav,Pink_Noise_3_2.wav,,,,,,,,,,,,,,,0,74,74,65,,,,,,,,,,,,,,,,,,,,,,,1158.9044827730395,None,1160.4209374408238,None,1161.8043866688386,None,flask,1161.8043866688386,None,return,6.227356364019215,1161.8878336451016,None,,,,,,,,,,,,,,,,,,,,,,,,,,,,,,,,,,,,,,,136,001,2023_Nov_17_1124,SpeechDraft1Carolyn_lessNoise_PlusLocalization,2021.2.3,60.049252618235165,
bride.wav,bride.mpg,bride,2,A,Pink_Noise_2_1.wav,Pink_Noise_2_2.wav,,,,,,,,,,,,,,,0,75,75,8,,,,,,,,,,,,,,,,,,,,,,,1168.1377494349144,None,1169.6542089930736,None,1171.0377444471233,None,"ride
",1171.0377444471233,None,return,5.786077611148357,1171.121113397181,None,,,,,,,,,,,,,,,,,,,,,,,,,,,,,,,,,,,,,,,136,001,2023_Nov_17_1124,SpeechDraft1Carolyn_lessNoise_PlusLocalization,2021.2.3,60.049252618235165,
choir.wav,choir.mpg,choir,2,A,Pink_Noise_2_1.wav,Pink_Noise_2_2.wav,,,,,,,,,,,,,,,0,76,76,27,,,,,,,,,,,,,,,,,,,,,,,1176.9377912459895,None,1178.4541690079495,None,1179.8377138311043,None,quier,1179.8377138311043,None,return,33.26612347224727,1179.921173396986,None,,,,,,,,,,,,,,,,,,,,,,,,,,,,,,,,,,,,,,,136,001,2023_Nov_17_1124,SpeechDraft1Carolyn_lessNoise_PlusLocalization,2021.2.3,60.049252618235165,
creek.wav,creek.mpg,creek,5,A,Pink_Noise_5_1.wav,Pink_Noise_5_2.wav,,,,,,,,,,,,,,,0,77,77,40,,,,,,,,,,,,,,,,,,,,,,,1213.2045460720547,None,1214.7377380449325,None,1216.1212323210202,None,"slee[
",1216.1212323210202,None,return,6.718687602318823,1216.2044980512,None,,,,,,,,,,,,,,,,,,,,,,,,,,,,,,,,,,,,,,,136,001,2023_Nov_17_1124,SpeechDraft1Carolyn_lessNoise_PlusLocalization,2021.2.3,60.049252618235165,
led.wav,led.mpg,led,4,A,Pink_Noise_4_1.wav,Pink_Noise_4_2.wav,,,,,,,,,,,,,,,0,78,78,20,,,,,,,,,,,,,,,,,,,,,,,1222.9546039002016,None,1224.4710146011785,None,1225.854538710788,None,"night
",1225.854538710788,None,return,3.8171834629029036,1225.9380204710178,None,,,,,,,,,,,,,,,,,,,,,,,,,,,,,,,,,,,,,,,136,001,2023_Nov_17_1124,SpeechDraft1Carolyn_lessNoise_PlusLocalization,2021.2.3,60.049252618235165,
crack.wav,crack.mpg,crack,6,AV,Pink_Noise_6_1.wav,Pink_Noise_6_2.wav,,,,,,,,,,,,,,,0,79,79,87,,,,,,,,,,,,,,,,,,,,,,,1229.7879282170907,None,1231.30429472588,None,1232.6878164280206,None,cry,1232.6878164280206,None,return,14.51197052327916,1232.7712279441766,None,,,,,,,,,,,,,,,,,,,,,,,,,,,,,,,,,,,,,,,136,001,2023_Nov_17_1124,SpeechDraft1Carolyn_lessNoise_PlusLocalization,2021.2.3,60.049252618235165,
fan.wav,fan.mpg,fan,1,A,Pink_Noise_1_1.wav,Pink_Noise_1_2.wav,,,,,,,,,,,,,,,0,80,80,5,,,,,,,,,,,,,,,,,,,,,,,1247.3046820671298,None,1248.8210323639214,None,1250.2045959839597,None,"fan
",1250.2045959839597,None,return,5.819189834874123,1250.2880076980218,None,,,,,,,,,,,,,,,,,,,,,,,,,,,,,,,,,,,,,,,136,001,2023_Nov_17_1124,SpeechDraft1Carolyn_lessNoise_PlusLocalization,2021.2.3,60.049252618235165,
gross.wav,gross.mpg,gross,1,A,Pink_Noise_1_1.wav,Pink_Noise_1_2.wav,,,,,,,,,,,,,,,0,81,81,3,,,,,,,,,,,,,,,,,,,,,,,1256.137869508937,None,1257.6543553471565,None,1259.0379317328334,None,gross,1259.0379317328334,None,return,5.30596539657563,1259.121316335164,None,,,,,,,,,,,,,,,,,,,,,,,,,,,,,,,,,,,,,,,136,001,2023_Nov_17_1124,SpeechDraft1Carolyn_lessNoise_PlusLocalization,2021.2.3,60.049252618235165,
grant.wav,grant.mpg,grant,6,AV,Pink_Noise_6_1.wav,Pink_Noise_6_2.wav,,,,,,,,,,,,,,,0,82,82,74,,,,,,,,,,,,,,,,,,,,,,,1264.454571892973,None,1265.9709294778295,None,1267.3545840531588,None,grass,1267.3545840531588,None,return,3.781259497627616,1267.4379767868668,None,,,,,,,,,,,,,,,,,,,,,,,,,,,,,,,,,,,,,,,136,001,2023_Nov_17_1124,SpeechDraft1Carolyn_lessNoise_PlusLocalization,2021.2.3,60.049252618235165,
greek.wav,greek.mpg,greek,1,A,Pink_Noise_1_1.wav,Pink_Noise_1_2.wav,,,,,,,,,,,,,,,0,83,83,54,,,,,,,,,,,,,,,,,,,,,,,1271.2378986501135,None,1272.7710091238841,None,1274.15466036601,None,greek,1274.15466036601,None,return,9.429292218759656,1274.2379279169254,None,,,,,,,,,,,,,,,,,,,,,,,,,,,,,,,,,,,,,,,136,001,2023_Nov_17_1124,SpeechDraft1Carolyn_lessNoise_PlusLocalization,2021.2.3,60.049252618235165,
chunk.wav,chunk.mpg,chunk,3,A,Pink_Noise_3_1.wav,Pink_Noise_3_2.wav,,,,,,,,,,,,,,,0,84,84,52,,,,,,,,,,,,,,,,,,,,,,,1283.6880189618096,None,1285.2042778469622,None,1286.5879394751973,None,chunk,1286.5879394751973,None,return,3.7799662239849567,1286.6713474001735,None,,,,,,,,,,,,,,,,,,,,,,,,,,,,,,,,,,,,,,,136,001,2023_Nov_17_1124,SpeechDraft1Carolyn_lessNoise_PlusLocalization,2021.2.3,60.049252618235165,
check.wav,check.mpg,check,6,AV,Pink_Noise_6_1.wav,Pink_Noise_6_2.wav,,,,,,,,,,,,,,,0,85,85,110,,,,,,,,,,,,,,,,,,,,,,,1290.4713054201566,None,1292.004364170134,None,1293.3893610578962,None,try,1293.3893610578962,None,return,17.02791205001995,1293.4712649681605,None,,,,,,,,,,,,,,,,,,,,,,,,,,,,,,,,,,,,,,,136,001,2023_Nov_17_1124,SpeechDraft1Carolyn_lessNoise_PlusLocalization,2021.2.3,60.049252618235165,
rid.wav,rid.mpg,rid,3,AV,Pink_Noise_3_1.wav,Pink_Noise_3_2.wav,,,,,,,,,,,,,,,0,86,86,96,,,,,,,,,,,,,,,,,,,,,,,1310.5213855439797,None,1312.0381750348024,None,1313.4212177731097,None,red,1313.4212177731097,None,return,2.8423553709872067,1313.5048323431984,None,,,,,,,,,,,,,,,,,,,,,,,,,,,,,,,,,,,,,,,136,001,2023_Nov_17_1124,SpeechDraft1Carolyn_lessNoise_PlusLocalization,2021.2.3,60.049252618235165,
jeep.wav,jeep.mpg,jeep,2,A,Pink_Noise_2_1.wav,Pink_Noise_2_2.wav,,,,,,,,,,,,,,,0,87,87,14,,,,,,,,,,,,,,,,,,,,,,,1316.371320715174,None,1317.887696232181,None,1319.271409757901,None,chief,1319.271409757901,None,return,9.256555828731507,1319.3547545969486,None,,,,,,,,,,,,,,,,,,,,,,,,,,,,,,,,,,,,,,,136,001,2023_Nov_17_1124,SpeechDraft1Carolyn_lessNoise_PlusLocalization,2021.2.3,60.049252618235165,
stone.wav,stone.mpg,stone,4,A,Pink_Noise_4_1.wav,Pink_Noise_4_2.wav,,,,,,,,,,,,,,,0,88,88,53,,,,,,,,,,,,,,,,,,,,,,,1328.6380848018453,None,1330.1543645937927,None,1331.538088676054,None,scone,1331.538088676054,None,return,7.4778918530792,1331.6212907000445,None,,,,,,,,,,,,,,,,,,,,,,,,,,,,,,,,,,,,,,,136,001,2023_Nov_17_1124,SpeechDraft1Carolyn_lessNoise_PlusLocalization,2021.2.3,60.049252618235165,
fit.wav,fit.mpg,fit,5,A,Pink_Noise_5_1.wav,Pink_Noise_5_2.wav,,,,,,,,,,,,,,,0,89,89,19,,,,,,,,,,,,,,,,,,,,,,,1339.121391471941,None,1340.6543906889856,None,1342.0380508201197,None,fate,1342.0380508201197,None,return,16.19378672214225,1342.1213976880535,None,,,,,,,,,,,,,,,,,,,,,,,,,,,,,,,,,,,,,,,136,001,2023_Nov_17_1124,SpeechDraft1Carolyn_lessNoise_PlusLocalization,2021.2.3,60.049252618235165,
ask.wav,ask.mpg,ask,3,AV,Pink_Noise_3_1.wav,Pink_Noise_3_2.wav,,,,,,,,,,,,,,,0,90,90,73,,,,,,,,,,,,,,,,,,,,,,,1358.337990988046,None,1359.8544990438968,None,1361.2380764260888,None,ask,1361.2380764260888,None,return,3.0739421672187746,1361.3213696689345,None,,,,,,,,,,,,,,,,,,,,,,,,,,,,,,,,,,,,,,,136,001,2023_Nov_17_1124,SpeechDraft1Carolyn_lessNoise_PlusLocalization,2021.2.3,60.049252618235165,
sock.wav,sock.mpg,sock,2,AV,Pink_Noise_2_1.wav,Pink_Noise_2_2.wav,,,,,,,,,,,,,,,0,91,91,85,,,,,,,,,,,,,,,,,,,,,,,1364.4213857571594,None,1365.937826895155,None,1367.3214237708598,None,"sock
",1367.3214237708598,None,return,9.054476398974657,1367.4047013460658,None,,,,,,,,,,,,,,,,,,,,,,,,,,,,,,,,,,,,,,,136,001,2023_Nov_17_1124,SpeechDraft1Carolyn_lessNoise_PlusLocalization,2021.2.3,60.049252618235165,
drain.wav,drain.mpg,drain,6,AV,Pink_Noise_6_1.wav,Pink_Noise_6_2.wav,,,,,,,,,,,,,,,0,92,92,100,,,,,,,,,,,,,,,,,,,,,,,1376.4881370412186,None,1378.0045100771822,None,1379.3880078000948,None,strain,1379.3880078000948,None,return,14.979787443764508,1379.4714797069319,None,,,,,,,,,,,,,,,,,,,,,,,,,,,,,,,,,,,,,,,136,001,2023_Nov_17_1124,SpeechDraft1Carolyn_lessNoise_PlusLocalization,2021.2.3,60.049252618235165,
drip.wav,drip.mpg,drip,5,AV,Pink_Noise_5_1.wav,Pink_Noise_5_2.wav,,,,,,,,,,,,,,,0,93,93,86,,,,,,,,,,,,,,,,,,,,,,,1394.471463906113,None,1395.9878611629829,None,1397.371357420925,None,drip,1397.371357420925,None,return,3.5242522596381605,1397.4549542358145,None,,,,,,,,,,,,,,,,,,,,,,,,,,,,,,,,,,,,,,,136,001,2023_Nov_17_1124,SpeechDraft1Carolyn_lessNoise_PlusLocalization,2021.2.3,60.049252618235165,
cork.wav,cork.mpg,cork,3,A,Pink_Noise_3_1.wav,Pink_Noise_3_2.wav,,,,,,,,,,,,,,,0,94,94,45,,,,,,,,,,,,,,,,,,,,,,,1401.0047396291047,None,1402.504704055842,None,1403.8881031079218,None,cork,1403.8881031079218,None,return,15.095676280092448,1403.9714862918481,None,,,,,,,,,,,,,,,,,,,,,,,,,,,,,,,,,,,,,,,136,001,2023_Nov_17_1124,SpeechDraft1Carolyn_lessNoise_PlusLocalization,2021.2.3,60.049252618235165,
blimp.wav,blimp.mpg,blimp,3,AV,Pink_Noise_3_1.wav,Pink_Noise_3_2.wav,,,,,,,,,,,,,,,0,95,95,80,,,,,,,,,,,,,,,,,,,,,,,1419.0881607951596,None,1420.604400063865,None,1421.9881582232192,None,"flip
",1421.9881582232192,None,return,6.635613088030368,1422.0715712350793,None,,,,,,,,,,,,,,,,,,,,,,,,,,,,,,,,,,,,,,,136,001,2023_Nov_17_1124,SpeechDraft1Carolyn_lessNoise_PlusLocalization,2021.2.3,60.049252618235165,
booth.wav,booth.mpg,booth,1,A,Pink_Noise_1_1.wav,Pink_Noise_1_2.wav,,,,,,,,,,,,,,,0,96,96,42,,,,,,,,,,,,,,,,,,,,,,,1428.7382430559956,None,1430.2544954339974,None,1431.6381611358374,None,booth,1431.6381611358374,None,return,9.089620429091156,1431.7216999637894,None,,,,,,,,,,,,,,,,,,,,,,,,,,,,,,,,,,,,,,,136,001,2023_Nov_17_1124,SpeechDraft1Carolyn_lessNoise_PlusLocalization,2021.2.3,60.049252618235165,
gym.wav,gym.mpg,gym,5,AV,Pink_Noise_5_1.wav,Pink_Noise_5_2.wav,,,,,,,,,,,,,,,0,97,97,69,,,,,,,,,,,,,,,,,,,,,,,1440.8381865457632,None,1442.3545640232041,None,1443.7381792361848,None,gym,1443.7381792361848,None,return,4.157592444680631,1443.8216407778673,None,,,,,,,,,,,,,,,,,,,,,,,,,,,,,,,,,,,,,,,136,001,2023_Nov_17_1124,SpeechDraft1Carolyn_lessNoise_PlusLocalization,2021.2.3,60.049252618235165,
fright.wav,fright.mpg,fright,5,AV,Pink_Noise_5_1.wav,Pink_Noise_5_2.wav,,,,,,,,,,,,,,,0,98,98,92,,,,,,,,,,,,,,,,,,,,,,,1448.0048196581192,None,1449.5213510529138,None,1450.9048243938014,None,fright,1450.9048243938014,None,return,12.43108669668436,1450.9881439418532,None,,,,,,,,,,,,,,,,,,,,,,,,,,,,,,,,,,,,,,,136,001,2023_Nov_17_1124,SpeechDraft1Carolyn_lessNoise_PlusLocalization,2021.2.3,60.049252618235165,
clay.wav,clay.mpg,clay,2,AV,Pink_Noise_2_1.wav,Pink_Noise_2_2.wav,,,,,,,,,,,,,,,0,99,99,103,,,,,,,,,,,,,,,,,,,,,,,1463.4382681217976,None,1464.9546277308837,None,1466.3381831417792,None,clay,1466.3381831417792,None,return,4.997643212787807,1466.421549439896,None,,,,,,,,,,,,,,,,,,,,,,,,,,,,,,,,,,,,,,,136,001,2023_Nov_17_1124,SpeechDraft1Carolyn_lessNoise_PlusLocalization,2021.2.3,60.049252618235165,
cord.wav,cord.mpg,cord,4,A,Pink_Noise_4_1.wav,Pink_Noise_4_2.wav,,,,,,,,,,,,,,,0,100,100,24,,,,,,,,,,,,,,,,,,,,,,,1471.4382577128708,None,1472.954552392941,None,1474.338325067889,None,core,1474.338325067889,None,return,9.397599241696298,1474.421607430093,None,,,,,,,,,,,,,,,,,,,,,,,,,,,,,,,,,,,,,,,136,001,2023_Nov_17_1124,SpeechDraft1Carolyn_lessNoise_PlusLocalization,2021.2.3,60.049252618235165,
vest.wav,vest.mpg,vest,6,AV,Pink_Noise_6_1.wav,Pink_Noise_6_2.wav,,,,,,,,,,,,,,,0,101,101,106,,,,,,,,,,,,,,,,,,,,,,,1483.8382654418238,None,1485.3546894700266,None,1486.738159675151,None,fast,1486.738159675151,None,return,3.813608759082854,1486.8216657601297,None,,,,,,,,,,,,,,,,,,,,,,,,,,,,,,,,,,,,,,,136,001,2023_Nov_17_1124,SpeechDraft1Carolyn_lessNoise_PlusLocalization,2021.2.3,60.049252618235165,
nine.wav,nine.mpg,nine,1,AV,Pink_Noise_1_1.wav,Pink_Noise_1_2.wav,,,,,,,,,,,,,,,0,102,102,117,,,,,,,,,,,,,,,,,,,,,,,1490.6550155552104,None,1492.1713141878136,None,1493.5548594798893,None,"nine
",1493.5548594798893,None,return,5.652744072023779,1493.6384498598054,None,,,,,,,,,,,,,,,,,,,,,,,,,,,,,,,,,,,,,,,136,001,2023_Nov_17_1124,SpeechDraft1Carolyn_lessNoise_PlusLocalization,2021.2.3,60.049252618235165,
lost.wav,lost.mpg,lost,1,AV,Pink_Noise_1_1.wav,Pink_Noise_1_2.wav,,,,,,,,,,,,,,,0,103,103,78,,,,,,,,,,,,,,,,,,,,,,,1499.3216831418686,None,1500.822437542025,None,1502.2050967100076,None,lost,1502.2050967100076,None,return,7.042946526315063,1502.288217782043,None,,,,,,,,,,,,,,,,,,,,,,,,,,,,,,,,,,,,,,,136,001,2023_Nov_17_1124,SpeechDraft1Carolyn_lessNoise_PlusLocalization,2021.2.3,60.049252618235165,
creep.wav,creep.mpg,creep,5,A,Pink_Noise_5_1.wav,Pink_Noise_5_2.wav,,,,,,,,,,,,,,,0,104,104,12,,,,,,,,,,,,,,,,,,,,,,,1509.3549438398331,None,1510.8713227421977,None,1512.2549124769866,None,fate,1512.2549124769866,None,return,4.897007243242115,1512.3382496288978,None,,,,,,,,,,,,,,,,,,,,,,,,,,,,,,,,,,,,,,,136,001,2023_Nov_17_1124,SpeechDraft1Carolyn_lessNoise_PlusLocalization,2021.2.3,60.049252618235165,
blame.wav,blame.mpg,blame,5,AV,Pink_Noise_5_1.wav,Pink_Noise_5_2.wav,,,,,,,,,,,,,,,0,105,105,88,,,,,,,,,,,,,,,,,,,,,,,1517.255031929817,None,1518.7714309538715,None,1520.1549385869876,None,blame,1520.1549385869876,None,return,5.357004481833428,1520.238264366053,None,,,,,,,,,,,,,,,,,,,,,,,,,,,,,,,,,,,,,,,136,001,2023_Nov_17_1124,SpeechDraft1Carolyn_lessNoise_PlusLocalization,2021.2.3,60.049252618235165,
depth.wav,depth.mpg,depth,3,AV,Pink_Noise_3_1.wav,Pink_Noise_3_2.wav,,,,,,,,,,,,,,,0,106,106,98,,,,,,,,,,,,,,,,,,,,,,,1525.6216195020825,None,1527.1379556059837,None,1528.5216603581794,None,depth,1528.5216603581794,None,return,4.806192084215581,1528.6050447490998,None,,,,,,,,,,,,,,,,,,,,,,,,,,,,,,,,,,,,,,,136,001,2023_Nov_17_1124,SpeechDraft1Carolyn_lessNoise_PlusLocalization,2021.2.3,60.049252618235165,
warmth.wav,warmth.mpg,warmth,1,A,Pink_Noise_1_1.wav,Pink_Noise_1_2.wav,,,,,,,,,,,,,,,0,107,107,10,,,,,,,,,,,,,,,,,,,,,,,1533.4383968799375,None,1534.9881011471152,None,1536.3715836000629,None,work,1536.3715836000629,None,return,3.7722606169991195,1536.4550043977797,None,,,,,,,,,,,,,,,,,,,,,,,,,,,,,,,,,,,,,,,136,001,2023_Nov_17_1124,SpeechDraft1Carolyn_lessNoise_PlusLocalization,2021.2.3,60.049252618235165,
gloom.wav,gloom.mpg,gloom,3,A,Pink_Noise_3_1.wav,Pink_Noise_3_2.wav,,,,,,,,,,,,,,,0,108,108,56,,,,,,,,,,,,,,,,,,,,,,,1540.2549900119193,None,1541.7713533178903,None,1543.1548900888301,None,"glue
",1543.1548900888301,None,return,3.468940088059753,1543.2382542500272,None,,,,,,,,,,,,,,,,,,,,,,,,,,,,,,,,,,,,,,,136,001,2023_Nov_17_1124,SpeechDraft1Carolyn_lessNoise_PlusLocalization,2021.2.3,60.049252618235165,
glare.wav,glare.mpg,glare,5,A,Pink_Noise_5_1.wav,Pink_Noise_5_2.wav,,,,,,,,,,,,,,,0,109,109,9,,,,,,,,,,,,,,,,,,,,,,,1546.7384264068678,None,1548.254701891914,None,1549.6384433638304,None,sand,1549.6384433638304,None,return,4.289641077164561,1549.7216316908598,None,,,,,,,,,,,,,,,,,,,,,,,,,,,,,,,,,,,,,,,136,001,2023_Nov_17_1124,SpeechDraft1Carolyn_lessNoise_PlusLocalization,2021.2.3,60.049252618235165,
chomp.wav,chomp.mpg,chomp,1,AV,Pink_Noise_1_1.wav,Pink_Noise_1_2.wav,,,,,,,,,,,,,,,0,110,110,99,,,,,,,,,,,,,,,,,,,,,,,1554.0382558112033,None,1555.5546954129823,None,1556.9382636342198,None,chomp,1556.9382636342198,None,return,7.941499738954008,1557.0216842438094,None,,,,,,,,,,,,,,,,,,,,,,,,,,,,,,,,,,,,,,,136,001,2023_Nov_17_1124,SpeechDraft1Carolyn_lessNoise_PlusLocalization,2021.2.3,60.049252618235165,
else.wav,else.mpg,else,5,AV,Pink_Noise_5_1.wav,Pink_Noise_5_2.wav,,,,,,,,,,,,,,,0,111,111,97,,,,,,,,,,,,,,,,,,,,,,,1564.9883726667613,None,1566.5214178310707,None,1567.9049788559787,None,fu=]]\\==,1567.9049788559787,None,return,10.414930070750415,1567.988371280022,None,,,,,,,,,,,,,,,,,,,,,,,,,,,,,,,,,,,,,,,136,001,2023_Nov_17_1124,SpeechDraft1Carolyn_lessNoise_PlusLocalization,2021.2.3,60.049252618235165,
doll.wav,doll.mpg,doll,4,AV,Pink_Noise_4_1.wav,Pink_Noise_4_2.wav,,,,,,,,,,,,,,,0,112,112,112,,,,,,,,,,,,,,,,,,,,,,,1578.421710378956,None,1579.9381153020076,None,1581.3216526121832,None,dive,1581.3216526121832,None,return,6.590309293940663,1581.405010058079,None,,,,,,,,,,,,,,,,,,,,,,,,,,,,,,,,,,,,,,,136,001,2023_Nov_17_1124,SpeechDraft1Carolyn_lessNoise_PlusLocalization,2021.2.3,60.049252618235165,
damn.wav,damn.mpg,damn,2,A,Pink_Noise_2_1.wav,Pink_Noise_2_2.wav,,,,,,,,,,,,,,,0,113,113,47,,,,,,,,,,,,,,,,,,,,,,,1588.0217168568633,None,1589.5382277457975,None,1590.9218809329905,None,"damp
",1590.9218809329905,None,return,6.302085075061768,1591.0051089869812,None,,,,,,,,,,,,,,,,,,,,,,,,,,,,,,,,,,,,,,,136,001,2023_Nov_17_1124,SpeechDraft1Carolyn_lessNoise_PlusLocalization,2021.2.3,60.049252618235165,
croak.wav,croak.mpg,croak,5,AV,Pink_Noise_5_1.wav,Pink_Noise_5_2.wav,,,,,,,,,,,,,,,0,114,114,93,,,,,,,,,,,,,,,,,,,,,,,1597.338427980896,None,1598.854784285184,None,1600.23843380576,None,croak,1600.23843380576,None,return,9.193389943800867,1600.3217935548164,None,,,,,,,,,,,,,,,,,,,,,,,,,,,,,,,,,,,,,,,136,001,2023_Nov_17_1124,SpeechDraft1Carolyn_lessNoise_PlusLocalization,2021.2.3,60.049252618235165,
drink.wav,drink.mpg,drink,5,A,Pink_Noise_5_1.wav,Pink_Noise_5_2.wav,,,,,,,,,,,,,,,0,115,115,30,,,,,,,,,,,,,,,,,,,,,,,1609.5384685709141,None,1611.0547308539972,None,1612.4384689829312,None,wait,1612.4384689829312,None,return,7.297516896855086,1612.5216792859137,None,,,,,,,,,,,,,,,,,,,,,,,,,,,,,,,,,,,,,,,136,001,2023_Nov_17_1124,SpeechDraft1Carolyn_lessNoise_PlusLocalization,2021.2.3,60.049252618235165,
grail.wav,grail.mpg,grail,2,AV,Pink_Noise_2_1.wav,Pink_Noise_2_2.wav,,,,,,,,,,,,,,,0,116,116,81,,,,,,,,,,,,,,,,,,,,,,,1619.8384374789894,None,1621.3715596580878,None,1622.7550301561132,None,gram,1622.7550301561132,None,return,8.0047603296116,1622.838437385857,None,,,,,,,,,,,,,,,,,,,,,,,,,,,,,,,,,,,,,,,136,001,2023_Nov_17_1124,SpeechDraft1Carolyn_lessNoise_PlusLocalization,2021.2.3,60.049252618235165,
cheat.wav,cheat.mpg,cheat,2,A,Pink_Noise_2_1.wav,Pink_Noise_2_2.wav,,,,,,,,,,,,,,,0,117,117,33,,,,,,,,,,,,,,,,,,,,,,,1630.871769133024,None,1632.3880844367668,None,1633.7718805251643,None,shoot,1633.7718805251643,None,return,9.980080724228173,1633.8551757349633,None,,,,,,,,,,,,,,,,,,,,,,,,,,,,,,,,,,,,,,,136,001,2023_Nov_17_1124,SpeechDraft1Carolyn_lessNoise_PlusLocalization,2021.2.3,60.049252618235165,
cried.wav,cried.mpg,cried,6,A,Pink_Noise_6_1.wav,Pink_Noise_6_2.wav,,,,,,,,,,,,,,,0,118,118,7,,,,,,,,,,,,,,,,,,,,,,,1643.8551291511394,None,1645.371434235014,None,1646.7551454962231,None,lie,1646.7551454962231,None,return,11.492689060047269,1646.8385273250751,None,,,,,,,,,,,,,,,,,,,,,,,,,,,,,,,,,,,,,,,136,001,2023_Nov_17_1124,SpeechDraft1Carolyn_lessNoise_PlusLocalization,2021.2.3,60.049252618235165,
brick.wav,brick.mpg,brick,1,A,Pink_Noise_1_1.wav,Pink_Noise_1_2.wav,,,,,,,,,,,,,,,0,119,119,13,,,,,,,,,,,,,,,,,,,,,,,1658.3551556072198,None,1659.871533760801,None,1661.2552416808903,None,brick,1661.2552416808903,None,return,8.640764395706356,1661.3385132038966,None,,,,,,,,,,,,,,,,,,,,,,,,,,,,,,,,,,,,,,,136,001,2023_Nov_17_1124,SpeechDraft1Carolyn_lessNoise_PlusLocalization,2021.2.3,60.049252618235165,
,,,,,,,,,,,,,,,,,,,,,,,,,,,,,,,,,,,,,,,,,,,,,,,,,,,,,,,,,,,,,,,,,,space,35.52995993196964,1670.1052730148658,None,,,,,,,,,,,,,,,,,,,,,,,,,,,,,136,001,2023_Nov_17_1124,SpeechDraft1Carolyn_lessNoise_PlusLocalization,2021.2.3,60.049252618235165,
,,,,,,,,nearLeft,-6.5,1,ch1Sound_localizationTask.wav,-6.5,"(857, 878)","(-103,-202)",-95,-338,,,,,,,,,0,0,0,2,,,,,,,,,,,,,,,,,,,,,,,,,,,,,,,,,,,,,,,,,,1670.1052730148658,None,1705.671627649106,None,1706.7883681291714,None,1707.7049981541932,None,1.2026455026455025,5.136177535634488,1707.7049981541932,None,,,,,,,,,,,,,,,,,136,001,2023_Nov_17_1124,SpeechDraft1Carolyn_lessNoise_PlusLocalization,2021.2.3,60.049252618235165,
,,,,,,,,midRight,13.0,3,ch1Sound_localizationTask.wav,13.0,"(1142, 878)","(182, -202)",190,-338,,,,,,,,,0,1,1,5,,,,,,,,,,,,,,,,,,,,,,,,,,,,,,,,,,,,,,,,,,,,1712.8550276481546,None,1713.9548684521578,None,1714.871682816185,None,1.7560846560846561,2.4823103081434965,1714.871682816185,None,,,,,,,,,,,,,,,,,136,001,2023_Nov_17_1124,SpeechDraft1Carolyn_lessNoise_PlusLocalization,2021.2.3,60.049252618235165,
,,,,,,,,midLeft,-13.0,2,ch1Sound_localizationTask.wav,-13.0,"(762, 878)","(-198,-202)",-190,-338,,,,,,,,,0,2,2,1,,,,,,,,,,,,,,,,,,,,,,,,,,,,,,,,,,,,,,,,,,,,1717.355423801113,None,1718.455051372759,None,1719.4052714169957,None,1.1582010582010582,1.792218139860779,1719.4052714169957,None,,,,,,,,,,,,,,,,,136,001,2023_Nov_17_1124,SpeechDraft1Carolyn_lessNoise_PlusLocalization,2021.2.3,60.049252618235165,
,,,,,,,,farRight,19.1,4,ch1Sound_localizationTask.wav,19.1,"(1237, 878)","(277,-202)",285,-338,,,,,,,,,0,3,3,6,,,,,,,,,,,,,,,,,,,,,,,,,,,,,,,,,,,,,,,,,,,,1721.2054430767894,None,1722.3050176100805,None,1723.23844284378,None,1.9317460317460318,2.334620437119156,1723.23844284378,None,,,,,,,,,,,,,,,,,136,001,2023_Nov_17_1124,SpeechDraft1Carolyn_lessNoise_PlusLocalization,2021.2.3,60.049252618235165,
,,,,,,,,farRight,19.1,4,ch1Sound_localizationTask.wav,19.1,"(1237, 878)","(277,-202)",285,-338,,,,,,,,,0,4,4,6,,,,,,,,,,,,,,,,,,,,,,,,,,,,,,,,,,,,,,,,,,,,1725.5886700008996,None,1726.6883528688923,None,1727.6217026291415,None,1.8158730158730159,1.0331953656859696,1727.6217026291415,None,,,,,,,,,,,,,,,,,136,001,2023_Nov_17_1124,SpeechDraft1Carolyn_lessNoise_PlusLocalization,2021.2.3,60.049252618235165,
,,,,,,,,midRight,13.0,3,ch1Sound_localizationTask.wav,13.0,"(1142, 878)","(182, -202)",190,-338,,,,,,,,,0,5,5,5,,,,,,,,,,,,,,,,,,,,,,,,,,,,,,,,,,,,,,,,,,,,1728.6561159580015,None,1729.7549142460339,None,1730.6883524907753,None,1.5835978835978834,0.6164895091205835,1730.6883524907753,None,,,,,,,,,,,,,,,,,136,001,2023_Nov_17_1124,SpeechDraft1Carolyn_lessNoise_PlusLocalization,2021.2.3,60.049252618235165,
,,,,,,,,nearRight,6.5,0,ch1Sound_localizationTask.wav,6.5,"(1047, 878)","(87, -202)",95,-338,,,,,,,,,0,6,6,4,,,,,,,,,,,,,,,,,,,,,,,,,,,,,,,,,,,,,,,,,,,,1731.3384670438245,None,1732.4383556768298,None,1733.3548772418872,None,1.4835978835978836,0.6649514511227608,1733.3548772418872,None,,,,,,,,,,,,,,,,,136,001,2023_Nov_17_1124,SpeechDraft1Carolyn_lessNoise_PlusLocalization,2021.2.3,60.049252618235165,
,,,,,,,,nearRight,6.5,0,ch1Sound_localizationTask.wav,6.5,"(1047, 878)","(87, -202)",95,-338,,,,,,,,,1,0,7,4,,,,,,,,,,,,,,,,,,,,,,,,,,,,,,,,,,,,,,,,,,,,1734.0220159590244,None,1735.1216958481818,None,1736.0550877330825,None,1.516931216931217,0.48349173506721854,1736.0550877330825,None,,,,,,,,,,,,,,,,,136,001,2023_Nov_17_1124,SpeechDraft1Carolyn_lessNoise_PlusLocalization,2021.2.3,60.049252618235165,
,,,,,,,,farRight,19.1,4,ch1Sound_localizationTask.wav,19.1,"(1237, 878)","(277,-202)",285,-338,,,,,,,,,1,1,8,6,,,,,,,,,,,,,,,,,,,,,,,,,,,,,,,,,,,,,,,,,,,,1736.5393874850124,None,1737.6383380498737,None,1738.571575826034,None,1.682010582010582,0.532293954398483,1738.571575826034,None,,,,,,,,,,,,,,,,,136,001,2023_Nov_17_1124,SpeechDraft1Carolyn_lessNoise_PlusLocalization,2021.2.3,60.049252618235165,
,,,,,,,,nearRight,6.5,0,ch1Sound_localizationTask.wav,6.5,"(1047, 878)","(87, -202)",95,-338,,,,,,,,,1,2,9,4,,,,,,,,,,,,,,,,,,,,,,,,,,,,,,,,,,,,,,,,,,,,1739.105210580863,None,1740.2049537161365,None,1741.1382179618813,None,1.3264550264550263,1.6667951927520335,1741.1382179618813,None,,,,,,,,,,,,,,,,,136,001,2023_Nov_17_1124,SpeechDraft1Carolyn_lessNoise_PlusLocalization,2021.2.3,60.049252618235165,
,,,,,,,,nearRight,6.5,0,ch1Sound_localizationTask.wav,6.5,"(1047, 878)","(87, -202)",95,-338,,,,,,,,,1,3,10,4,,,,,,,,,,,,,,,,,,,,,,,,,,,,,,,,,,,,,,,,,,,,1742.8220056239516,None,1743.9216926931404,None,1744.8551063239574,None,1.3407407407407408,1.217119012027979,1744.8551063239574,None,,,,,,,,,,,,,,,,,136,001,2023_Nov_17_1124,SpeechDraft1Carolyn_lessNoise_PlusLocalization,2021.2.3,60.049252618235165,
,,,,,,,,center,0.0,6,ch1Sound_localizationTask.wav,0.0,"(952, 878)","(-8,-202)",0,-338,,,,,,,,,1,4,11,3,,,,,,,,,,,,,,,,,,,,,,,,,,,,,,,,,,,,,,,,,,,,1746.0886597591452,None,1747.1883372329175,None,1748.1217166162096,None,1.392063492063492,0.6832080627791584,1748.1217166162096,None,,,,,,,,,,,,,,,,,136,001,2023_Nov_17_1124,SpeechDraft1Carolyn_lessNoise_PlusLocalization,2021.2.3,60.049252618235165,
,,,,,,,,farLeft,-19.1,5,ch1Sound_localizationTask.wav,-19.1,"(667, 878)","(-293,-202)",-285,-338,,,,,,,,,1,5,12,0,,,,,,,,,,,,,,,,,,,,,,,,,,,,,,,,,,,,,,,,,,,,1748.80640202621,None,1749.9216342307627,None,1750.8384059811942,None,1.1476190476190475,0.8837722442112863,1750.8384059811942,None,,,,,,,,,,,,,,,,,136,001,2023_Nov_17_1124,SpeechDraft1Carolyn_lessNoise_PlusLocalization,2021.2.3,60.049252618235165,
,,,,,,,,farRight,19.1,4,ch1Sound_localizationTask.wav,19.1,"(1237, 878)","(277,-202)",285,-338,,,,,,,,,1,6,13,6,,,,,,,,,,,,,,,,,,,,,,,,,,,,,,,,,,,,,,,,,,,,1751.7231137128547,None,1752.8383430908434,None,1753.7551405671984,None,1.8306878306878307,1.4173446730710566,1753.7551405671984,None,,,,,,,,,,,,,,,,,136,001,2023_Nov_17_1124,SpeechDraft1Carolyn_lessNoise_PlusLocalization,2021.2.3,60.049252618235165,
,,,,,,,,nearLeft,-6.5,1,ch1Sound_localizationTask.wav,-6.5,"(857, 878)","(-103,-202)",-95,-338,,,,,,,,,2,0,14,2,,,,,,,,,,,,,,,,,,,,,,,,,,,,,,,,,,,,,,,,,,,,1755.1886908169836,None,1756.2884976840578,None,1757.221850701142,None,1.4306878306878308,0.9012121679261327,1757.221850701142,None,,,,,,,,,,,,,,,,,136,001,2023_Nov_17_1124,SpeechDraft1Carolyn_lessNoise_PlusLocalization,2021.2.3,60.049252618235165,
,,,,,,,,center,0.0,6,ch1Sound_localizationTask.wav,0.0,"(952, 878)","(-8,-202)",0,-338,,,,,,,,,2,1,15,3,,,,,,,,,,,,,,,,,,,,,,,,,,,,,,,,,,,,,,,,,,,,1758.1385828647763,None,1759.2383175631985,None,1760.1718042767607,None,1.502116402116402,0.9489461188204587,1760.1718042767607,None,,,,,,,,,,,,,,,,,136,001,2023_Nov_17_1124,SpeechDraft1Carolyn_lessNoise_PlusLocalization,2021.2.3,60.049252618235165,
,,,,,,,,center,0.0,6,ch1Sound_localizationTask.wav,0.0,"(952, 878)","(-8,-202)",0,-338,,,,,,,,,2,2,16,3,,,,,,,,,,,,,,,,,,,,,,,,,,,,,,,,,,,,,,,,,,,,1761.1223572287709,None,1762.2216798919253,None,1763.1550455768593,None,1.366137566137566,0.7826376566663384,1763.1550455768593,None,,,,,,,,,,,,,,,,,136,001,2023_Nov_17_1124,SpeechDraft1Carolyn_lessNoise_PlusLocalization,2021.2.3,60.049252618235165,
,,,,,,,,farRight,19.1,4,ch1Sound_localizationTask.wav,19.1,"(1237, 878)","(277,-202)",285,-338,,,,,,,,,2,3,17,6,,,,,,,,,,,,,,,,,,,,,,,,,,,,,,,,,,,,,,,,,,,,1763.9387614200823,None,1765.0384091679007,None,1765.9716229280457,None,1.6962962962962962,0.9836206249892712,1765.9716229280457,None,,,,,,,,,,,,,,,,,136,001,2023_Nov_17_1124,SpeechDraft1Carolyn_lessNoise_PlusLocalization,2021.2.3,60.049252618235165,
,,,,,,,,midLeft,-13.0,2,ch1Sound_localizationTask.wav,-13.0,"(762, 878)","(-198,-202)",-190,-338,,,,,,,,,2,4,18,1,,,,,,,,,,,,,,,,,,,,,,,,,,,,,,,,,,,,,,,,,,,,1766.9557367879897,None,1768.055156296119,None,1768.9884933191352,None,1.3703703703703702,1.499135154299438,1768.9884933191352,None,,,,,,,,,,,,,,,,,136,001,2023_Nov_17_1124,SpeechDraft1Carolyn_lessNoise_PlusLocalization,2021.2.3,60.049252618235165,
,,,,,,,,farLeft,-19.1,5,ch1Sound_localizationTask.wav,-19.1,"(667, 878)","(-293,-202)",-285,-338,,,,,,,,,2,5,19,0,,,,,,,,,,,,,,,,,,,,,,,,,,,,,,,,,,,,,,,,,,,,1770.4889614498243,None,1771.5883782291785,None,1772.5217483160086,None,1.3211640211640212,0.6663238652981818,1772.5217483160086,None,,,,,,,,,,,,,,,,,136,001,2023_Nov_17_1124,SpeechDraft1Carolyn_lessNoise_PlusLocalization,2021.2.3,60.049252618235165,
,,,,,,,,nearRight,6.5,0,ch1Sound_localizationTask.wav,6.5,"(1047, 878)","(87, -202)",95,-338,,,,,,,,,2,6,20,4,,,,,,,,,,,,,,,,,,,,,,,,,,,,,,,,,,,,,,,,,,,,1773.1887554707937,None,1774.2883497551084,None,1775.221709860023,None,1.6052910052910052,1.6999934520572424,1775.221709860023,None,,,,,,,,,,,,,,,,,136,001,2023_Nov_17_1124,SpeechDraft1Carolyn_lessNoise_PlusLocalization,2021.2.3,60.049252618235165,
,,,,,,,,farRight,19.1,4,ch1Sound_localizationTask.wav,19.1,"(1237, 878)","(277,-202)",285,-338,,,,,,,,,3,0,21,6,,,,,,,,,,,,,,,,,,,,,,,,,,,,,,,,,,,,,,,,,,,,1776.9223765861243,None,1778.02172776917,None,1778.954938992858,None,1.751851851851852,1.016189603600651,1778.954938992858,None,,,,,,,,,,,,,,,,,136,001,2023_Nov_17_1124,SpeechDraft1Carolyn_lessNoise_PlusLocalization,2021.2.3,60.049252618235165,
,,,,,,,,center,0.0,6,ch1Sound_localizationTask.wav,0.0,"(952, 878)","(-8,-202)",0,-338,,,,,,,,,3,1,22,3,,,,,,,,,,,,,,,,,,,,,,,,,,,,,,,,,,,,,,,,,,,,1779.9726821351796,None,1781.0717058070004,None,1782.005025642924,None,1.375132275132275,0.8831017096526921,1782.005025642924,None,,,,,,,,,,,,,,,,,136,001,2023_Nov_17_1124,SpeechDraft1Carolyn_lessNoise_PlusLocalization,2021.2.3,60.049252618235165,
,,,,,,,,nearRight,6.5,0,ch1Sound_localizationTask.wav,6.5,"(1047, 878)","(87, -202)",95,-338,,,,,,,,,3,2,23,4,,,,,,,,,,,,,,,,,,,,,,,,,,,,,,,,,,,,,,,,,,,,1782.8890147730708,None,1783.988433483988,None,1784.9216946731322,None,1.6788359788359788,1.100379940122366,1784.9216946731322,None,,,,,,,,,,,,,,,,,136,001,2023_Nov_17_1124,SpeechDraft1Carolyn_lessNoise_PlusLocalization,2021.2.3,60.049252618235165,
,,,,,,,,midLeft,-13.0,2,ch1Sound_localizationTask.wav,-13.0,"(762, 878)","(-198,-202)",-190,-338,,,,,,,,,3,3,24,1,,,,,,,,,,,,,,,,,,,,,,,,,,,,,,,,,,,,,,,,,,,,1786.0222052880563,None,1787.1216623932123,None,1788.0550908031873,None,1.2661375661375662,0.9170230850577354,1788.0550908031873,None,,,,,,,,,,,,,,,,,136,001,2023_Nov_17_1124,SpeechDraft1Carolyn_lessNoise_PlusLocalization,2021.2.3,60.049252618235165,
,,,,,,,,nearRight,6.5,0,ch1Sound_localizationTask.wav,6.5,"(1047, 878)","(87, -202)",95,-338,,,,,,,,,3,4,25,4,,,,,,,,,,,,,,,,,,,,,,,,,,,,,,,,,,,,,,,,,,,,1788.9886404168792,None,1790.0884077269584,None,1791.021875794977,None,1.6216931216931219,0.8993386719375849,1791.021875794977,None,,,,,,,,,,,,,,,,,136,001,2023_Nov_17_1124,SpeechDraft1Carolyn_lessNoise_PlusLocalization,2021.2.3,60.049252618235165,
,,,,,,,,nearLeft,-6.5,1,ch1Sound_localizationTask.wav,-6.5,"(857, 878)","(-103,-202)",-95,-338,,,,,,,,,3,5,26,2,,,,,,,,,,,,,,,,,,,,,,,,,,,,,,,,,,,,,,,,,,,,1791.922118328046,None,1793.021709419787,None,1793.9549991101958,None,1.3820105820105821,0.8659091838635504,1793.9549991101958,None,,,,,,,,,,,,,,,,,136,001,2023_Nov_17_1124,SpeechDraft1Carolyn_lessNoise_PlusLocalization,2021.2.3,60.049252618235165,
,,,,,,,,nearLeft,-6.5,1,ch1Sound_localizationTask.wav,-6.5,"(857, 878)","(-103,-202)",-95,-338,,,,,,,,,3,6,27,2,,,,,,,,,,,,,,,,,,,,,,,,,,,,,,,,,,,,,,,,,,,,1794.8221752587706,None,1795.9217391870916,None,1796.8551224810071,None,1.408994708994709,0.5331165501847863,1796.8551224810071,None,,,,,,,,,,,,,,,,,136,001,2023_Nov_17_1124,SpeechDraft1Carolyn_lessNoise_PlusLocalization,2021.2.3,60.049252618235165,
,,,,,,,,midLeft,-13.0,2,ch1Sound_localizationTask.wav,-13.0,"(762, 878)","(-198,-202)",-190,-338,,,,,,,,,4,0,28,1,,,,,,,,,,,,,,,,,,,,,,,,,,,,,,,,,,,,,,,,,,,,1797.389375958126,None,1798.4884812440723,None,1799.421721747145,None,1.2883597883597884,0.7172453999519348,1799.421721747145,None,,,,,,,,,,,,,,,,,136,001,2023_Nov_17_1124,SpeechDraft1Carolyn_lessNoise_PlusLocalization,2021.2.3,60.049252618235165,
,,,,,,,,nearLeft,-6.5,1,ch1Sound_localizationTask.wav,-6.5,"(857, 878)","(-103,-202)",-95,-338,,,,,,,,,4,1,29,2,,,,,,,,,,,,,,,,,,,,,,,,,,,,,,,,,,,,,,,,,,,,1800.1553551228717,None,1801.2550807679072,None,1802.1883175801486,None,1.3444444444444446,0.5320492293685675,1802.1883175801486,None,,,,,,,,,,,,,,,,,136,001,2023_Nov_17_1124,SpeechDraft1Carolyn_lessNoise_PlusLocalization,2021.2.3,60.049252618235165,
,,,,,,,,center,0.0,6,ch1Sound_localizationTask.wav,0.0,"(952, 878)","(-8,-202)",0,-338,,,,,,,,,4,2,30,3,,,,,,,,,,,,,,,,,,,,,,,,,,,,,,,,,,,,,,,,,,,,1802.721979745198,None,1803.8217158578336,None,1804.7551595298573,None,1.3994708994708995,0.6987300738692284,1804.7551595298573,None,,,,,,,,,,,,,,,,,136,001,2023_Nov_17_1124,SpeechDraft1Carolyn_lessNoise_PlusLocalization,2021.2.3,60.049252618235165,
,,,,,,,,farRight,19.1,4,ch1Sound_localizationTask.wav,19.1,"(1237, 878)","(277,-202)",285,-338,,,,,,,,,4,3,31,6,,,,,,,,,,,,,,,,,,,,,,,,,,,,,,,,,,,,,,,,,,,,1805.4553909208626,None,1806.5550896958448,None,1807.4884004062042,None,1.638095238095238,0.8993435529991984,1807.4884004062042,None,,,,,,,,,,,,,,,,,136,001,2023_Nov_17_1124,SpeechDraft1Carolyn_lessNoise_PlusLocalization,2021.2.3,60.049252618235165,
,,,,,,,,center,0.0,6,ch1Sound_localizationTask.wav,0.0,"(952, 878)","(-8,-202)",0,-338,,,,,,,,,4,4,32,3,,,,,,,,,,,,,,,,,,,,,,,,,,,,,,,,,,,,,,,,,,,,1808.40536154015,None,1809.5049405451864,None,1810.438495195005,None,1.5492063492063493,0.5167983286082745,1810.438495195005,None,,,,,,,,,,,,,,,,,136,001,2023_Nov_17_1124,SpeechDraft1Carolyn_lessNoise_PlusLocalization,2021.2.3,60.049252618235165,
,,,,,,,,farLeft,-19.1,5,ch1Sound_localizationTask.wav,-19.1,"(667, 878)","(-293,-202)",-285,-338,,,,,,,,,4,5,33,0,,,,,,,,,,,,,,,,,,,,,,,,,,,,,,,,,,,,,,,,,,,,1810.9721740181558,None,1812.0717238029465,None,1813.0051822918467,None,1.33015873015873,0.7835081508383155,1813.0051822918467,None,,,,,,,,,,,,,,,,,136,001,2023_Nov_17_1124,SpeechDraft1Carolyn_lessNoise_PlusLocalization,2021.2.3,60.049252618235165,
,,,,,,,,farLeft,-19.1,5,ch1Sound_localizationTask.wav,-19.1,"(667, 878)","(-293,-202)",-285,-338,,,,,,,,,4,6,34,0,,,,,,,,,,,,,,,,,,,,,,,,,,,,,,,,,,,,,,,,,,,,1813.8055126387626,None,1814.9051501229405,None,1815.838365898002,None,1.25978835978836,0.7180940019898117,1815.838365898002,None,,,,,,,,,,,,,,,,,136,001,2023_Nov_17_1124,SpeechDraft1Carolyn_lessNoise_PlusLocalization,2021.2.3,60.049252618235165,
,,,,,,,,midLeft,-13.0,2,ch1Sound_localizationTask.wav,-13.0,"(762, 878)","(-198,-202)",-190,-338,,,,,,,,,5,0,35,1,,,,,,,,,,,,,,,,,,,,,,,,,,,,,,,,,,,,,,,,,,,,1816.5720627601258,None,1817.671806014143,None,1818.6050960449502,None,1.2894179894179894,0.5490411631762981,1818.6050960449502,None,,,,,,,,,,,,,,,,,136,001,2023_Nov_17_1124,SpeechDraft1Carolyn_lessNoise_PlusLocalization,2021.2.3,60.049252618235165,
,,,,,,,,midRight,13.0,3,ch1Sound_localizationTask.wav,13.0,"(1142, 878)","(182, -202)",190,-338,,,,,,,,,5,1,36,5,,,,,,,,,,,,,,,,,,,,,,,,,,,,,,,,,,,,,,,,,,,,1819.1555088711902,None,1820.2551238187589,None,1821.1884671370499,None,1.4857142857142858,1.0993077298626304,1821.1884671370499,None,,,,,,,,,,,,,,,,,136,001,2023_Nov_17_1124,SpeechDraft1Carolyn_lessNoise_PlusLocalization,2021.2.3,60.049252618235165,
,,,,,,,,midRight,13.0,3,ch1Sound_localizationTask.wav,13.0,"(1142, 878)","(182, -202)",190,-338,,,,,,,,,5,2,37,5,,,,,,,,,,,,,,,,,,,,,,,,,,,,,,,,,,,,,,,,,,,,1822.2888146201149,None,1823.3884525359608,None,1824.3217242378742,None,1.555026455026455,0.6664751847274601,1824.3217242378742,None,,,,,,,,,,,,,,,,,136,001,2023_Nov_17_1124,SpeechDraft1Carolyn_lessNoise_PlusLocalization,2021.2.3,60.049252618235165,
,,,,,,,,farLeft,-19.1,5,ch1Sound_localizationTask.wav,-19.1,"(667, 878)","(-293,-202)",-285,-338,,,,,,,,,5,3,38,0,,,,,,,,,,,,,,,,,,,,,,,,,,,,,,,,,,,,,,,,,,,,1824.9892673771828,None,1826.0885245748796,None,1827.0218251999468,None,1.215873015873016,1.0497598489746451,1827.0218251999468,None,,,,,,,,,,,,,,,,,136,001,2023_Nov_17_1124,SpeechDraft1Carolyn_lessNoise_PlusLocalization,2021.2.3,60.049252618235165,
,,,,,,,,midLeft,-13.0,2,ch1Sound_localizationTask.wav,-13.0,"(762, 878)","(-198,-202)",-190,-338,,,,,,,,,5,4,39,1,,,,,,,,,,,,,,,,,,,,,,,,,,,,,,,,,,,,,,,,,,,,1828.0887693441473,None,1829.1884281788953,None,1830.121780756861,None,1.2804232804232805,0.7328174598515034,1830.121780756861,None,,,,,,,,,,,,,,,,,136,001,2023_Nov_17_1124,SpeechDraft1Carolyn_lessNoise_PlusLocalization,2021.2.3,60.049252618235165,
,,,,,,,,midRight,13.0,3,ch1Sound_localizationTask.wav,13.0,"(1142, 878)","(182, -202)",190,-338,,,,,,,,,5,5,40,5,,,,,,,,,,,,,,,,,,,,,,,,,,,,,,,,,,,,,,,,,,,,1830.8555877078325,None,1831.9551145499572,None,1832.888480529189,None,1.734920634920635,0.7820425839163363,1832.888480529189,None,,,,,,,,,,,,,,,,,136,001,2023_Nov_17_1124,SpeechDraft1Carolyn_lessNoise_PlusLocalization,2021.2.3,60.049252618235165,
,,,,,,,,farRight,19.1,4,ch1Sound_localizationTask.wav,19.1,"(1237, 878)","(277,-202)",285,-338,,,,,,,,,5,6,41,6,,,,,,,,,,,,,,,,,,,,,,,,,,,,,,,,,,,,,,,,,,,,1833.6722771381028,None,1834.7717431308702,None,1835.7049945369363,None,1.7962962962962963,0.5339573752135038,1835.7049945369363,None,,,,,,,,,,,,,,,,,136,001,2023_Nov_17_1124,SpeechDraft1Carolyn_lessNoise_PlusLocalization,2021.2.3,60.049252618235165,
,,,,,,,,nearRight,6.5,0,ch1Sound_localizationTask.wav,6.5,"(1047, 878)","(87, -202)",95,-338,,,,,,,,,6,0,42,4,,,,,,,,,,,,,,,,,,,,,,,,,,,,,,,,,,,,,,,,,,,,1836.2553576570936,None,1837.3550767358392,None,1838.288379994221,None,1.6962962962962962,1.132554397918284,1838.288379994221,None,,,,,,,,,,,,,,,,,136,001,2023_Nov_17_1124,SpeechDraft1Carolyn_lessNoise_PlusLocalization,2021.2.3,60.049252618235165,
,,,,,,,,farLeft,-19.1,5,ch1Sound_localizationTask.wav,-19.1,"(667, 878)","(-293,-202)",-285,-338,,,,,,,,,6,1,43,0,,,,,,,,,,,,,,,,,,,,,,,,,,,,,,,,,,,,,,,,,,,,1839.4386195270345,None,1840.5384093699977,None,1841.455216316972,None,1.3148148148148149,1.6826488869264722,1841.455216316972,None,,,,,,,,,,,,,,,,,136,001,2023_Nov_17_1124,SpeechDraft1Carolyn_lessNoise_PlusLocalization,2021.2.3,60.049252618235165,
,,,,,,,,midLeft,-13.0,2,ch1Sound_localizationTask.wav,-13.0,"(762, 878)","(-198,-202)",-190,-338,,,,,,,,,6,2,44,1,,,,,,,,,,,,,,,,,,,,,,,,,,,,,,,,,,,,,,,,,,,,1843.1387759749778,None,1844.2385914567858,None,1845.1718048457988,None,1.2417989417989417,0.699656086973846,1845.1718048457988,None,,,,,,,,,,,,,,,,,136,001,2023_Nov_17_1124,SpeechDraft1Carolyn_lessNoise_PlusLocalization,2021.2.3,60.049252618235165,
,,,,,,,,midLeft,-13.0,2,ch1Sound_localizationTask.wav,-13.0,"(762, 878)","(-198,-202)",-190,-338,,,,,,,,,6,3,45,1,,,,,,,,,,,,,,,,,,,,,,,,,,,,,,,,,,,,,,,,,,,,1845.8722768952139,None,1846.9717886871658,None,1847.9051208058372,None,1.2714285714285714,0.699793164152652,1847.9051208058372,None,,,,,,,,,,,,,,,,,136,001,2023_Nov_17_1124,SpeechDraft1Carolyn_lessNoise_PlusLocalization,2021.2.3,60.049252618235165,
,,,,,,,,midRight,13.0,3,ch1Sound_localizationTask.wav,13.0,"(1142, 878)","(182, -202)",190,-338,,,,,,,,,6,4,46,5,,,,,,,,,,,,,,,,,,,,,,,,,,,,,,,,,,,,,,,,,,,,1848.6055540288799,None,1849.705155596137,None,1850.6384511231445,None,1.6973544973544974,1.5992325791157782,1850.6384511231445,None,,,,,,,,,,,,,,,,,136,001,2023_Nov_17_1124,SpeechDraft1Carolyn_lessNoise_PlusLocalization,2021.2.3,60.049252618235165,
,,,,,,,,center,0.0,6,ch1Sound_localizationTask.wav,0.0,"(952, 878)","(-8,-202)",0,-338,,,,,,,,,6,5,47,3,,,,,,,,,,,,,,,,,,,,,,,,,,,,,,,,,,,,,,,,,,,,1852.239323595073,None,1853.3385304640979,None,1854.2719034701586,None,1.3957671957671958,0.8844907591119409,1854.2719034701586,None,,,,,,,,,,,,,,,,,136,001,2023_Nov_17_1124,SpeechDraft1Carolyn_lessNoise_PlusLocalization,2021.2.3,60.049252618235165,
,,,,,,,,nearLeft,-6.5,1,ch1Sound_localizationTask.wav,-6.5,"(857, 878)","(-103,-202)",-95,-338,,,,,,,,,6,6,48,2,,,,,,,,,,,,,,,,,,,,,,,,,,,,,,,,,,,,,,,,,,,,1855.1722574201412,None,1856.2718269177713,None,1857.2051692819223,None,1.416931216931217,0.583210816141218,1857.2051692819223,None,,,,,,,,,,,,,,,,,136,001,2023_Nov_17_1124,SpeechDraft1Carolyn_lessNoise_PlusLocalization,2021.2.3,60.049252618235165,
,,,,,,,,midRight,13.0,3,ch1Sound_localizationTask.wav,13.0,"(1142, 878)","(182, -202)",190,-338,,,,,,,,,7,0,49,5,,,,,,,,,,,,,,,,,,,,,,,,,,,,,,,,,,,,,,,,,,,,1857.7901122528128,None,1858.905213479884,None,1859.8217911869287,None,1.6169312169312169,0.6826804410666227,1859.8217911869287,None,,,,,,,,,,,,,,,,,136,001,2023_Nov_17_1124,SpeechDraft1Carolyn_lessNoise_PlusLocalization,2021.2.3,60.049252618235165,
,,,,,,,,nearLeft,-6.5,1,ch1Sound_localizationTask.wav,-6.5,"(857, 878)","(-103,-202)",-95,-338,,,,,,,,,7,1,50,2,,,,,,,,,,,,,,,,,,,,,,,,,,,,,,,,,,,,,,,,,,,,1860.505436705891,None,1861.6053143199533,None,1862.5385602088645,None,1.3571428571428572,0.9996950752101839,1862.5385602088645,None,,,,,,,,,,,,,,,,,136,001,2023_Nov_17_1124,SpeechDraft1Carolyn_lessNoise_PlusLocalization,2021.2.3,60.049252618235165,
,,,,,,,,nearLeft,-6.5,1,ch1Sound_localizationTask.wav,-6.5,"(857, 878)","(-103,-202)",-95,-338,,,,,,,,,7,2,51,2,,,,,,,,,,,,,,,,,,,,,,,,,,,,,,,,,,,,,,,,,,,,1863.5397434630431,None,1864.6385099771433,None,1865.5716707119718,None,1.3984126984126983,0.7835893901064992,1865.5716707119718,None,,,,,,,,,,,,,,,,,136,001,2023_Nov_17_1124,SpeechDraft1Carolyn_lessNoise_PlusLocalization,2021.2.3,60.049252618235165,
,,,,,,,,farLeft,-19.1,5,ch1Sound_localizationTask.wav,-19.1,"(667, 878)","(-293,-202)",-285,-338,,,,,,,,,7,3,52,0,,,,,,,,,,,,,,,,,,,,,,,,,,,,,,,,,,,,,,,,,,,,1866.3556626490317,None,1867.4552484489977,None,1868.3885335079394,None,1.1925925925925926,0.5669421330094337,1868.3885335079394,None,,,,,,,,,,,,,,,,,136,001,2023_Nov_17_1124,SpeechDraft1Carolyn_lessNoise_PlusLocalization,2021.2.3,60.049252618235165,
,,,,,,,,center,0.0,6,ch1Sound_localizationTask.wav,0.0,"(952, 878)","(-8,-202)",0,-338,,,,,,,,,7,4,53,3,,,,,,,,,,,,,,,,,,,,,,,,,,,,,,,,,,,,,,,,,,,,1868.9722414910793,None,1870.0718569080345,None,1871.0051947408356,None,1.434920634920635,0.6159186800941825,1871.0051947408356,None,,,,,,,,,,,,,,,,,136,001,2023_Nov_17_1124,SpeechDraft1Carolyn_lessNoise_PlusLocalization,2021.2.3,60.049252618235165,
,,,,,,,,midRight,13.0,3,ch1Sound_localizationTask.wav,13.0,"(1142, 878)","(182, -202)",190,-338,,,,,,,,,7,5,54,5,,,,,,,,,,,,,,,,,,,,,,,,,,,,,,,,,,,,,,,,,,,,1871.622428161092,None,1872.7220220630988,None,1873.6552270781249,None,1.5153439153439154,0.6998485308140516,1873.6552270781249,None,,,,,,,,,,,,,,,,,136,001,2023_Nov_17_1124,SpeechDraft1Carolyn_lessNoise_PlusLocalization,2021.2.3,60.049252618235165,
,,,,,,,,farLeft,-19.1,5,ch1Sound_localizationTask.wav,-19.1,"(667, 878)","(-293,-202)",-285,-338,,,,,,,,,7,6,55,0,,,,,,,,,,,,,,,,,,,,,,,,,,,,,,,,,,,,,,,,,,,,1874.3561761379242,None,1875.4551160829142,None,1876.3886064821854,None,1.366137566137566,0.8995946035720408,1876.3886064821854,None,,,,,,,,,,,,,,,,,136,001,2023_Nov_17_1124,SpeechDraft1Carolyn_lessNoise_PlusLocalization,2021.2.3,60.049252618235165,
,,,,,,,,,,,,,,,,,,,,,,,,,,,,,,,,,,,,,,,,,,,,,,,,,,,,,,,,,,,,,,,,,,,,,,,,,,,,,,,,,,space,40.03897094307467,1877.372242609039,None,,,,,,,,,,,,,136,001,2023_Nov_17_1124,SpeechDraft1Carolyn_lessNoise_PlusLocalization,2021.2.3,60.049252618235165,
,,,,,,,,center,0.0,6,ch1Sound_localizationTask.wav,0.0,"(952, 878)","(-8,-202)",0,-338,,,,,,,,,,,,,0,0,0,3,,,,,,,,,,,,,,,,,,,,,,,,,,,,,,,,,,,,,,,,1917.4552524061874,None,,,1920.4885657131672,None,1.5026455026455028,2.5855609509162605,1920.4885657131672,None,,,,,1877.372242609039,None,1918.4554576477967,None,1918.6388467517681,1918.655491353944,,,,,,,136,001,2023_Nov_17_1124,SpeechDraft1Carolyn_lessNoise_PlusLocalization,2021.2.3,60.049252618235165,
,,,,,,,,midRight,13.0,3,ch1Sound_localizationTask.wav,13.0,"(1142, 878)","(182, -202)",190,-338,,,,,,,,,,,,,0,1,1,5,,,,,,,,,,,,,,,,,,,,,,,,,,,,,,,,,,,,,,,,1923.072611572221,None,,,1926.0885867527686,None,1.6349206349206349,1.1499919472262263,1926.0885867527686,None,,,,,,,1924.0722601427697,None,1924.2556356778368,1924.272215201985,,,,,,,136,001,2023_Nov_17_1124,SpeechDraft1Carolyn_lessNoise_PlusLocalization,2021.2.3,60.049252618235165,
,,,,,,,,nearLeft,-6.5,1,ch1Sound_localizationTask.wav,-6.5,"(857, 878)","(-103,-202)",-95,-338,,,,,,,,,,,,,0,2,2,2,,,,,,,,,,,,,,,,,,,,,,,,,,,,,,,,,,,,,,,,1927.2555228900164,None,,,1930.2718571228907,None,1.4576719576719577,0.7329040761105716,1930.2718571228907,None,,,,,,,1928.2555346731097,None,1928.4389005140401,1928.4555331761949,,,,,,,136,001,2023_Nov_17_1124,SpeechDraft1Carolyn_lessNoise_PlusLocalization,2021.2.3,60.049252618235165,
,,,,,,,,nearRight,6.5,0,ch1Sound_localizationTask.wav,6.5,"(1047, 878)","(87, -202)",95,-338,,,,,,,,,,,,,0,3,3,4,,,,,,,,,,,,,,,,,,,,,,,,,,,,,,,,,,,,,,,,1931.0221922867931,None,,,1934.0386896119453,None,1.561904761904762,0.616487474180758,1934.0386896119453,None,,,,,,,1932.0221662218682,None,1932.2055154307745,1932.222293870058,,,,,,,136,001,2023_Nov_17_1124,SpeechDraft1Carolyn_lessNoise_PlusLocalization,2021.2.3,60.049252618235165,
,,,,,,,,center,0.0,6,ch1Sound_localizationTask.wav,0.0,"(952, 878)","(-8,-202)",0,-338,,,,,,,,,,,,,0,4,4,3,,,,,,,,,,,,,,,,,,,,,,,,,,,,,,,,,,,,,,,,1934.6560145909898,None,,,1937.672006003093,None,1.5010582010582012,0.7492217621766031,1937.672006003093,None,,,,,,,1935.6556133008562,None,1935.8388107861392,1935.8555959179066,,,,,,,136,001,2023_Nov_17_1124,SpeechDraft1Carolyn_lessNoise_PlusLocalization,2021.2.3,60.049252618235165,
,,,,,,,,farLeft,-19.1,5,ch1Sound_localizationTask.wav,-19.1,"(667, 878)","(-293,-202)",-285,-338,,,,,,,,,,,,,0,5,5,0,,,,,,,,,,,,,,,,,,,,,,,,,,,,,,,,,,,,,,,,1938.4223451879807,None,,,1941.438630323857,None,1.335978835978836,1.1488778907805681,1941.438630323857,None,,,,,,,1939.4220993500203,None,1939.605502070859,1939.6222637682222,,,,,,,136,001,2023_Nov_17_1124,SpeechDraft1Carolyn_lessNoise_PlusLocalization,2021.2.3,60.049252618235165,
,,,,,,,,farRight,19.1,4,ch1Sound_localizationTask.wav,19.1,"(1237, 878)","(277,-202)",285,-338,,,,,,,,,,,,,0,6,6,6,,,,,,,,,,,,,,,,,,,,,,,,,,,,,,,,,,,,,,,,1942.5889847427607,None,,,1945.605285297148,None,1.6703703703703705,1.4484683112241328,1945.605285297148,None,,,,,,,1943.588899394963,None,1943.7724283710122,1943.7888318360783,,,,,,,136,001,2023_Nov_17_1124,SpeechDraft1Carolyn_lessNoise_PlusLocalization,2021.2.3,60.049252618235165,
,,,,,,,,farRight,19.1,4,ch1Sound_localizationTask.wav,19.1,"(1237, 878)","(277,-202)",285,-338,,,,,,,,,,,,,1,0,7,6,,,,,,,,,,,,,,,,,,,,,,,,,,,,,,,,,,,,,,,,1947.055674070958,None,,,1950.072051544208,None,1.6846560846560847,1.0329156541265547,1950.072051544208,None,,,,,,,1948.0555737270042,None,1948.2388249728829,1948.2556335609406,,,,,,,136,001,2023_Nov_17_1124,SpeechDraft1Carolyn_lessNoise_PlusLocalization,2021.2.3,60.049252618235165,
,,,,,,,,nearRight,6.5,0,ch1Sound_localizationTask.wav,6.5,"(1047, 878)","(87, -202)",95,-338,,,,,,,,,,,,,1,1,8,4,,,,,,,,,,,,,,,,,,,,,,,,,,,,,,,,,,,,,,,,1951.1058520749211,None,,,1954.1219920008443,None,1.5444444444444443,1.1498562297783792,1954.1219920008443,None,,,,,,,1952.1055954638869,None,1952.288990186993,1952.305582693778,,,,,,,136,001,2023_Nov_17_1124,SpeechDraft1Carolyn_lessNoise_PlusLocalization,2021.2.3,60.049252618235165,
,,,,,,,,midRight,13.0,3,ch1Sound_localizationTask.wav,13.0,"(1142, 878)","(182, -202)",190,-338,,,,,,,,,,,,,1,2,9,5,,,,,,,,,,,,,,,,,,,,,,,,,,,,,,,,,,,,,,,,1955.2889035400003,None,,,1958.3053100169636,None,1.6031746031746033,1.0497345360927284,1958.3053100169636,None,,,,,,,1956.2889859331772,None,1956.472281164024,1956.4888817197643,,,,,,,136,001,2023_Nov_17_1124,SpeechDraft1Carolyn_lessNoise_PlusLocalization,2021.2.3,60.049252618235165,
,,,,,,,,nearLeft,-6.5,1,ch1Sound_localizationTask.wav,-6.5,"(857, 878)","(-103,-202)",-95,-338,,,,,,,,,,,,,1,3,10,2,,,,,,,,,,,,,,,,,,,,,,,,,,,,,,,,,,,,,,,,1959.3559778789058,None,,,1962.3719957391731,None,1.5957671957671957,0.13445618003606796,1962.3719957391731,None,,,,,,,1960.3557394067757,None,1960.5389134520665,1960.5556415319443,,,,,,,136,001,2023_Nov_17_1124,SpeechDraft1Carolyn_lessNoise_PlusLocalization,2021.2.3,60.049252618235165,
,,,,,,,,nearLeft,-6.5,1,ch1Sound_localizationTask.wav,-6.5,"(857, 878)","(-103,-202)",-95,-338,,,,,,,,,,,,,1,4,11,2,,,,,,,,,,,,,,,,,,,,,,,,,,,,,,,,,,,,,,,,1962.5221690977924,None,,,1965.538642339874,None,1.4232804232804233,0.7493982301093638,1965.538642339874,None,,,,,,,1963.5221991878934,None,1963.7056010658853,1963.722264375072,,,,,,,136,001,2023_Nov_17_1124,SpeechDraft1Carolyn_lessNoise_PlusLocalization,2021.2.3,60.049252618235165,
,,,,,,,,midRight,13.0,3,ch1Sound_localizationTask.wav,13.0,"(1142, 878)","(182, -202)",190,-338,,,,,,,,,,,,,1,5,12,5,,,,,,,,,,,,,,,,,,,,,,,,,,,,,,,,,,,,,,,,1966.2893473161384,None,,,1969.3052973197773,None,1.5873015873015874,1.015085392165929,1969.3052973197773,None,,,,,,,1967.2889616522007,None,1967.4721378912218,1967.488944241777,,,,,,,136,001,2023_Nov_17_1124,SpeechDraft1Carolyn_lessNoise_PlusLocalization,2021.2.3,60.049252618235165,
,,,,,,,,nearRight,6.5,0,ch1Sound_localizationTask.wav,6.5,"(1047, 878)","(87, -202)",95,-338,,,,,,,,,,,,,1,6,13,4,,,,,,,,,,,,,,,,,,,,,,,,,,,,,,,,,,,,,,,,1970.3226508731022,None,,,1973.3386659910902,None,1.564021164021164,0.8159663309343159,1973.3386659910902,None,,,,,,,1971.322459610179,None,1971.5055756550282,1971.5222718701698,,,,,,,136,001,2023_Nov_17_1124,SpeechDraft1Carolyn_lessNoise_PlusLocalization,2021.2.3,60.049252618235165,
,,,,,,,,farLeft,-19.1,5,ch1Sound_localizationTask.wav,-19.1,"(667, 878)","(-293,-202)",-285,-338,,,,,,,,,,,,,2,0,14,0,,,,,,,,,,,,,,,,,,,,,,,,,,,,,,,,,,,,,,,,1974.1556366188452,None,,,1977.1721186200157,None,1.3216931216931216,1.2827446614392102,1977.1721186200157,None,,,,,,,1975.1556164021604,None,1975.3388915578835,1975.3556858338416,,,,,,,136,001,2023_Nov_17_1124,SpeechDraft1Carolyn_lessNoise_PlusLocalization,2021.2.3,60.049252618235165,
,,,,,,,,farRight,19.1,4,ch1Sound_localizationTask.wav,19.1,"(1237, 878)","(277,-202)",285,-338,,,,,,,,,,,,,2,1,15,6,,,,,,,,,,,,,,,,,,,,,,,,,,,,,,,,,,,,,,,,1978.4559526178055,None,,,1981.4719405667856,None,1.673015873015873,1.3826584317721426,1981.4719405667856,None,,,,,,,1979.4555873367935,None,1979.6389533989131,1979.6556487111375,,,,,,,136,001,2023_Nov_17_1124,SpeechDraft1Carolyn_lessNoise_PlusLocalization,2021.2.3,60.049252618235165,
,,,,,,,,farLeft,-19.1,5,ch1Sound_localizationTask.wav,-19.1,"(667, 878)","(-293,-202)",-285,-338,,,,,,,,,,,,,2,2,16,0,,,,,,,,,,,,,,,,,,,,,,,,,,,,,,,,,,,,,,,,1982.855808523018,None,,,1985.8720160378143,None,1.3153439153439153,1.3490850320085883,1985.8720160378143,None,,,,,,,1983.8555454071611,None,1984.0389782120474,1984.055573626887,,,,,,,136,001,2023_Nov_17_1124,SpeechDraft1Carolyn_lessNoise_PlusLocalization,2021.2.3,60.049252618235165,
,,,,,,,,center,0.0,6,ch1Sound_localizationTask.wav,0.0,"(952, 878)","(-8,-202)",0,-338,,,,,,,,,,,,,2,3,17,3,,,,,,,,,,,,,,,,,,,,,,,,,,,,,,,,,,,,,,,,1987.2390056559816,None,,,1990.2553771110252,None,1.5116402116402117,1.2155512343160808,1990.2553771110252,None,,,,,,,1988.2389004388824,None,1988.4224136178382,1988.438930044882,,,,,,,136,001,2023_Nov_17_1124,SpeechDraft1Carolyn_lessNoise_PlusLocalization,2021.2.3,60.049252618235165,
,,,,,,,,center,0.0,6,ch1Sound_localizationTask.wav,0.0,"(952, 878)","(-8,-202)",0,-338,,,,,,,,,,,,,2,4,18,3,,,,,,,,,,,,,,,,,,,,,,,,,,,,,,,,,,,,,,,,1991.472335577011,None,,,1994.488714150153,None,1.5211640211640212,0.798272920306772,1994.488714150153,None,,,,,,,1992.4721694719046,None,1992.655621171929,1992.672258448787,,,,,,,136,001,2023_Nov_17_1124,SpeechDraft1Carolyn_lessNoise_PlusLocalization,2021.2.3,60.049252618235165,
,,,,,,,,center,0.0,6,ch1Sound_localizationTask.wav,0.0,"(952, 878)","(-8,-202)",0,-338,,,,,,,,,,,,,2,5,19,3,,,,,,,,,,,,,,,,,,,,,,,,,,,,,,,,,,,,,,,,1995.2900386052206,None,,,1998.322145361919,None,1.4915343915343915,0.8005133373662829,1998.322145361919,None,,,,,,,1996.3055847547948,None,1996.4889554837719,1996.5056173251942,,,,,,,136,001,2023_Nov_17_1124,SpeechDraft1Carolyn_lessNoise_PlusLocalization,2021.2.3,60.049252618235165,
,,,,,,,,nearRight,6.5,0,ch1Sound_localizationTask.wav,6.5,"(1047, 878)","(87, -202)",95,-338,,,,,,,,,,,,,2,6,20,4,,,,,,,,,,,,,,,,,,,,,,,,,,,,,,,,,,,,,,,,1999.1389413960278,None,,,2002.1553291901946,None,1.5544973544973546,0.965241327881813,2002.1553291901946,None,,,,,,,2000.1390528618358,None,2000.322309345007,2000.3389306669123,,,,,,,136,001,2023_Nov_17_1124,SpeechDraft1Carolyn_lessNoise_PlusLocalization,2021.2.3,60.049252618235165,
,,,,,,,,farRight,19.1,4,ch1Sound_localizationTask.wav,19.1,"(1237, 878)","(277,-202)",285,-338,,,,,,,,,,,,,3,0,21,6,,,,,,,,,,,,,,,,,,,,,,,,,,,,,,,,,,,,,,,,2003.122310818173,None,,,2006.1386604108848,None,1.6899470899470899,0.6831108690239489,2006.1386604108848,None,,,,,,,2004.1223419141024,None,2004.305711640045,2004.3222467522137,,,,,,,136,001,2023_Nov_17_1124,SpeechDraft1Carolyn_lessNoise_PlusLocalization,2021.2.3,60.049252618235165,
,,,,,,,,farRight,19.1,4,ch1Sound_localizationTask.wav,19.1,"(1237, 878)","(277,-202)",285,-338,,,,,,,,,,,,,3,1,22,6,,,,,,,,,,,,,,,,,,,,,,,,,,,,,,,,,,,,,,,,2006.8391222911887,None,,,2009.8554024067707,None,1.783068783068783,0.9658539020456374,2009.8554024067707,None,,,,,,,2007.8390200110152,None,2008.022252404131,2008.039054530207,,,,,,,136,001,2023_Nov_17_1124,SpeechDraft1Carolyn_lessNoise_PlusLocalization,2021.2.3,60.049252618235165,
,,,,,,,,nearLeft,-6.5,1,ch1Sound_localizationTask.wav,-6.5,"(857, 878)","(-103,-202)",-95,-338,,,,,,,,,,,,,3,2,23,2,,,,,,,,,,,,,,,,,,,,,,,,,,,,,,,,,,,,,,,,2010.8230838798918,None,,,2013.838798657991,None,1.428042328042328,1.2160689048469067,2013.838798657991,None,,,,,,,2011.822359006852,None,2012.0058424491435,2012.0223895348608,,,,,,,136,001,2023_Nov_17_1124,SpeechDraft1Carolyn_lessNoise_PlusLocalization,2021.2.3,60.049252618235165,
,,,,,,,,midLeft,-13.0,2,ch1Sound_localizationTask.wav,-13.0,"(762, 878)","(-198,-202)",-190,-338,,,,,,,,,,,,,3,3,24,1,,,,,,,,,,,,,,,,,,,,,,,,,,,,,,,,,,,,,,,,2015.0560522451997,None,,,2018.072078552097,None,1.3465608465608465,0.7663053288124502,2018.072078552097,None,,,,,,,2016.0558488010429,None,2016.239069486037,2016.255661864765,,,,,,,136,001,2023_Nov_17_1124,SpeechDraft1Carolyn_lessNoise_PlusLocalization,2021.2.3,60.049252618235165,
,,,,,,,,nearLeft,-6.5,1,ch1Sound_localizationTask.wav,-6.5,"(857, 878)","(-103,-202)",-95,-338,,,,,,,,,,,,,3,4,25,2,,,,,,,,,,,,,,,,,,,,,,,,,,,,,,,,,,,,,,,,2018.8393474319018,None,,,2021.8553863950074,None,1.4502645502645501,2.0155249158851802,2021.8553863950074,None,,,,,,,2019.8390099448152,None,2020.0222657378763,2020.038987225853,,,,,,,136,001,2023_Nov_17_1124,SpeechDraft1Carolyn_lessNoise_PlusLocalization,2021.2.3,60.049252618235165,
,,,,,,,,farRight,19.1,4,ch1Sound_localizationTask.wav,19.1,"(1237, 878)","(277,-202)",285,-338,,,,,,,,,,,,,3,5,26,6,,,,,,,,,,,,,,,,,,,,,,,,,,,,,,,,,,,,,,,,2023.8722607977688,None,,,2026.8887319141068,None,1.698941798941799,1.0821700538508594,2026.8887319141068,None,,,,,,,2024.8724465947598,None,2025.0556331151165,2025.072356281802,,,,,,,136,001,2023_Nov_17_1124,SpeechDraft1Carolyn_lessNoise_PlusLocalization,2021.2.3,60.049252618235165,
,,,,,,,,nearRight,6.5,0,ch1Sound_localizationTask.wav,6.5,"(1047, 878)","(87, -202)",95,-338,,,,,,,,,,,,,3,6,27,4,,,,,,,,,,,,,,,,,,,,,,,,,,,,,,,,,,,,,,,,2027.9724417878315,None,,,2030.9888121611439,None,1.5756613756613755,1.1661928282119334,2030.9888121611439,None,,,,,,,2028.9723266251385,None,2029.15576220816,2029.1723410352133,,,,,,,136,001,2023_Nov_17_1124,SpeechDraft1Carolyn_lessNoise_PlusLocalization,2021.2.3,60.049252618235165,
,,,,,,,,nearRight,6.5,0,ch1Sound_localizationTask.wav,6.5,"(1047, 878)","(87, -202)",95,-338,,,,,,,,,,,,,4,0,28,4,,,,,,,,,,,,,,,,,,,,,,,,,,,,,,,,,,,,,,,,2032.155833602883,None,,,2035.1720360331237,None,1.5656084656084657,1.4160912833176553,2035.1720360331237,None,,,,,,,2033.1557111521251,None,2033.3391438620165,2033.3557422421873,,,,,,,136,001,2023_Nov_17_1124,SpeechDraft1Carolyn_lessNoise_PlusLocalization,2021.2.3,60.049252618235165,
,,,,,,,,midRight,13.0,3,ch1Sound_localizationTask.wav,13.0,"(1142, 878)","(182, -202)",190,-338,,,,,,,,,,,,,4,1,29,5,,,,,,,,,,,,,,,,,,,,,,,,,,,,,,,,,,,,,,,,2036.5894780620001,None,,,2039.6053635510616,None,1.6195767195767194,0.5992542891763151,2039.6053635510616,None,,,,,,,2037.5890209348872,None,2037.7724421801977,2037.7890487611294,,,,,,,136,001,2023_Nov_17_1124,SpeechDraft1Carolyn_lessNoise_PlusLocalization,2021.2.3,60.049252618235165,
,,,,,,,,midRight,13.0,3,ch1Sound_localizationTask.wav,13.0,"(1142, 878)","(182, -202)",190,-338,,,,,,,,,,,,,4,2,30,5,,,,,,,,,,,,,,,,,,,,,,,,,,,,,,,,,,,,,,,,2040.20609805407,None,,,2043.2223525629379,None,1.6201058201058203,0.7148772939108312,2043.2223525629379,None,,,,,,,2041.2057113880292,None,2041.3889706670307,2041.4057048670948,,,,,,,136,001,2023_Nov_17_1124,SpeechDraft1Carolyn_lessNoise_PlusLocalization,2021.2.3,60.049252618235165,
,,,,,,,,midLeft,-13.0,2,ch1Sound_localizationTask.wav,-13.0,"(762, 878)","(-198,-202)",-190,-338,,,,,,,,,,,,,4,3,31,1,,,,,,,,,,,,,,,,,,,,,,,,,,,,,,,,,,,,,,,,2043.9390848330222,None,,,2046.9555225698277,None,1.3407407407407408,1.0828592577017844,2046.9555225698277,None,,,,,,,2044.938975266181,None,2045.1224646288902,2045.1390236248262,,,,,,,136,001,2023_Nov_17_1124,SpeechDraft1Carolyn_lessNoise_PlusLocalization,2021.2.3,60.049252618235165,
,,,,,,,,midLeft,-13.0,2,ch1Sound_localizationTask.wav,-13.0,"(762, 878)","(-198,-202)",-190,-338,,,,,,,,,,,,,4,4,32,1,,,,,,,,,,,,,,,,,,,,,,,,,,,,,,,,,,,,,,,,2048.039328932762,None,,,2051.0555221578106,None,1.3973544973544973,0.8836129186674953,2051.0555221578106,None,,,,,,,2049.0390855339356,None,2049.2223992981017,2049.2390359537676,,,,,,,136,001,2023_Nov_17_1124,SpeechDraft1Carolyn_lessNoise_PlusLocalization,2021.2.3,60.049252618235165,
,,,,,,,,center,0.0,6,ch1Sound_localizationTask.wav,0.0,"(952, 878)","(-8,-202)",0,-338,,,,,,,,,,,,,4,5,33,3,,,,,,,,,,,,,,,,,,,,,,,,,,,,,,,,,,,,,,,,2051.955722270999,None,,,2054.9722085371614,None,1.502116402116402,1.1666554459370673,2054.9722085371614,None,,,,,,,2052.9556357092224,None,2053.139020774048,2053.155667000916,,,,,,,136,001,2023_Nov_17_1124,SpeechDraft1Carolyn_lessNoise_PlusLocalization,2021.2.3,60.049252618235165,
,,,,,,,,midRight,13.0,3,ch1Sound_localizationTask.wav,13.0,"(1142, 878)","(182, -202)",190,-338,,,,,,,,,,,,,4,6,34,5,,,,,,,,,,,,,,,,,,,,,,,,,,,,,,,,,,,,,,,,2056.1395550179295,None,,,2059.1554730092175,None,1.6661375661375661,1.3328793607652187,2059.1554730092175,None,,,,,,,2057.1389984381385,None,2057.322437928058,2057.339027194772,,,,,,,136,001,2023_Nov_17_1124,SpeechDraft1Carolyn_lessNoise_PlusLocalization,2021.2.3,60.049252618235165,
,,,,,,,,midLeft,-13.0,2,ch1Sound_localizationTask.wav,-13.0,"(762, 878)","(-198,-202)",-190,-338,,,,,,,,,,,,,5,0,35,1,,,,,,,,,,,,,,,,,,,,,,,,,,,,,,,,,,,,,,,,2060.489403691143,None,,,2063.5053719771095,None,1.3761904761904762,1.4156938628293574,2063.5053719771095,None,,,,,,,2061.489250177052,None,2061.6722896061838,2061.6890338440426,,,,,,,136,001,2023_Nov_17_1124,SpeechDraft1Carolyn_lessNoise_PlusLocalization,2021.2.3,60.049252618235165,
,,,,,,,,nearLeft,-6.5,1,ch1Sound_localizationTask.wav,-6.5,"(857, 878)","(-103,-202)",-95,-338,,,,,,,,,,,,,5,1,36,2,,,,,,,,,,,,,,,,,,,,,,,,,,,,,,,,,,,,,,,,2064.9224418238737,None,,,2067.9389086081646,None,1.4693121693121693,1.2332378388382494,2067.9389086081646,None,,,,,,,2065.9223318938166,None,2066.105662231799,2066.122372134123,,,,,,,136,001,2023_Nov_17_1124,SpeechDraft1Carolyn_lessNoise_PlusLocalization,2021.2.3,60.049252618235165,
,,,,,,,,farLeft,-19.1,5,ch1Sound_localizationTask.wav,-19.1,"(667, 878)","(-293,-202)",-285,-338,,,,,,,,,,,,,5,2,37,0,,,,,,,,,,,,,,,,,,,,,,,,,,,,,,,,,,,,,,,,2069.172631879803,None,,,2072.1887481231242,None,1.2777777777777777,1.1362709803506732,2072.1887481231242,None,,,,,,,2070.1724967830814,None,2070.355797864031,2070.372436575126,,,,,,,136,001,2023_Nov_17_1124,SpeechDraft1Carolyn_lessNoise_PlusLocalization,2021.2.3,60.049252618235165,
,,,,,,,,midLeft,-13.0,2,ch1Sound_localizationTask.wav,-13.0,"(762, 878)","(-198,-202)",-190,-338,,,,,,,,,,,,,5,3,38,1,,,,,,,,,,,,,,,,,,,,,,,,,,,,,,,,,,,,,,,,2073.341117212083,None,,,2076.3721282482147,None,1.403174603174603,1.1161029087379575,2076.3721282482147,None,,,,,,,2074.355691492092,None,2074.5391350621358,2074.5557690327987,,,,,,,136,001,2023_Nov_17_1124,SpeechDraft1Carolyn_lessNoise_PlusLocalization,2021.2.3,60.049252618235165,
,,,,,,,,nearRight,6.5,0,ch1Sound_localizationTask.wav,6.5,"(1047, 878)","(87, -202)",95,-338,,,,,,,,,,,,,5,4,39,4,,,,,,,,,,,,,,,,,,,,,,,,,,,,,,,,,,,,,,,,2077.4897656249814,None,,,2080.5054606460035,None,1.6031746031746033,1.2157071270048618,2080.5054606460035,None,,,,,,,2078.4890316491947,None,2078.6725065470673,2078.689064408187,,,,,,,136,001,2023_Nov_17_1124,SpeechDraft1Carolyn_lessNoise_PlusLocalization,2021.2.3,60.049252618235165,
,,,,,,,,nearLeft,-6.5,1,ch1Sound_localizationTask.wav,-6.5,"(857, 878)","(-103,-202)",-95,-338,,,,,,,,,,,,,5,5,40,2,,,,,,,,,,,,,,,,,,,,,,,,,,,,,,,,,,,,,,,,2081.722570292186,None,,,2084.738698070869,None,1.4354497354497355,1.1994716837070882,2084.738698070869,None,,,,,,,2082.7225224701688,None,2082.9058071919717,2082.9224730911665,,,,,,,136,001,2023_Nov_17_1124,SpeechDraft1Carolyn_lessNoise_PlusLocalization,2021.2.3,60.049252618235165,
,,,,,,,,midLeft,-13.0,2,ch1Sound_localizationTask.wav,-13.0,"(762, 878)","(-198,-202)",-190,-338,,,,,,,,,,,,,5,6,41,1,,,,,,,,,,,,,,,,,,,,,,,,,,,,,,,,,,,,,,,,2085.9557939879596,None,,,2088.972097463906,None,1.3846560846560847,0.7660336159169674,2088.972097463906,None,,,,,,,2086.955829515122,None,2087.1391017418355,2087.155740437098,,,,,,,136,001,2023_Nov_17_1124,SpeechDraft1Carolyn_lessNoise_PlusLocalization,2021.2.3,60.049252618235165,
,,,,,,,,farLeft,-19.1,5,ch1Sound_localizationTask.wav,-19.1,"(667, 878)","(-293,-202)",-285,-338,,,,,,,,,,,,,6,0,42,0,,,,,,,,,,,,,,,,,,,,,,,,,,,,,,,,,,,,,,,,2089.7558895521797,None,,,2092.7720311451703,None,1.3206349206349206,1.116500741802156,2092.7720311451703,None,,,,,,,2090.7557527860627,None,2090.9391640238464,2090.95583849214,,,,,,,136,001,2023_Nov_17_1124,SpeechDraft1Carolyn_lessNoise_PlusLocalization,2021.2.3,60.049252618235165,
,,,,,,,,midLeft,-13.0,2,ch1Sound_localizationTask.wav,-13.0,"(762, 878)","(-198,-202)",-190,-338,,,,,,,,,,,,,6,1,43,1,,,,,,,,,,,,,,,,,,,,,,,,,,,,,,,,,,,,,,,,2093.9056820468977,None,,,2096.922217477113,None,1.3735449735449734,0.7482730569317937,2096.922217477113,None,,,,,,,2094.9058210952207,None,2095.0891778990626,2095.1056884559803,,,,,,,136,001,2023_Nov_17_1124,SpeechDraft1Carolyn_lessNoise_PlusLocalization,2021.2.3,60.049252618235165,
,,,,,,,,midRight,13.0,3,ch1Sound_localizationTask.wav,13.0,"(1142, 878)","(182, -202)",190,-338,,,,,,,,,,,,,6,2,44,5,,,,,,,,,,,,,,,,,,,,,,,,,,,,,,,,,,,,,,,,2097.6723993527703,None,,,2100.6887474339455,None,1.6232804232804234,1.5663551050238311,2100.6887474339455,None,,,,,,,2098.6724240989424,None,2098.85580950696,2098.8723446978256,,,,,,,136,001,2023_Nov_17_1124,SpeechDraft1Carolyn_lessNoise_PlusLocalization,2021.2.3,60.049252618235165,
,,,,,,,,center,0.0,6,ch1Sound_localizationTask.wav,0.0,"(952, 878)","(-8,-202)",0,-338,,,,,,,,,,,,,6,3,45,3,,,,,,,,,,,,,,,,,,,,,,,,,,,,,,,,,,,,,,,,2102.272507267073,None,,,2105.2891534748487,None,1.5005291005291004,1.2324383221566677,2105.2891534748487,None,,,,,,,2103.272672933992,None,2103.455821124837,2103.472591947764,,,,,,,136,001,2023_Nov_17_1124,SpeechDraft1Carolyn_lessNoise_PlusLocalization,2021.2.3,60.049252618235165,
,,,,,,,,farLeft,-19.1,5,ch1Sound_localizationTask.wav,-19.1,"(667, 878)","(-293,-202)",-285,-338,,,,,,,,,,,,,6,4,46,0,,,,,,,,,,,,,,,,,,,,,,,,,,,,,,,,,,,,,,,,2106.522539491765,None,,,2109.538910794072,None,1.3576719576719576,1.3995217643678188,2109.538910794072,None,,,,,,,2107.5225054640323,None,2107.705713667907,2107.7226312267594,,,,,,,136,001,2023_Nov_17_1124,SpeechDraft1Carolyn_lessNoise_PlusLocalization,2021.2.3,60.049252618235165,
,,,,,,,,farRight,19.1,4,ch1Sound_localizationTask.wav,19.1,"(1237, 878)","(277,-202)",285,-338,,,,,,,,,,,,,6,5,47,6,,,,,,,,,,,,,,,,,,,,,,,,,,,,,,,,,,,,,,,,2110.9404652118683,None,,,2113.972240150906,None,1.6894179894179895,0.8501706221140921,2113.972240150906,None,,,,,,,2111.9558400190435,None,2112.139041197952,2112.155898474157,,,,,,,136,001,2023_Nov_17_1124,SpeechDraft1Carolyn_lessNoise_PlusLocalization,2021.2.3,60.049252618235165,
,,,,,,,,farLeft,-19.1,5,ch1Sound_localizationTask.wav,-19.1,"(667, 878)","(-293,-202)",-285,-338,,,,,,,,,,,,,6,6,48,0,,,,,,,,,,,,,,,,,,,,,,,,,,,,,,,,,,,,,,,,2114.83922371082,None,,,2117.8555294009857,None,1.270899470899471,1.3334349868819118,2117.8555294009857,None,,,,,,,2115.8391518411227,None,2116.022415202111,2116.0391453681514,,,,,,,136,001,2023_Nov_17_1124,SpeechDraft1Carolyn_lessNoise_PlusLocalization,2021.2.3,60.049252618235165,
,,,,,,,,midRight,13.0,3,ch1Sound_localizationTask.wav,13.0,"(1142, 878)","(182, -202)",190,-338,,,,,,,,,,,,,7,0,49,5,,,,,,,,,,,,,,,,,,,,,,,,,,,,,,,,,,,,,,,,2119.2059612278827,None,,,2122.2221995708533,None,1.6470899470899472,1.1000454262830317,2122.2221995708533,None,,,,,,,2120.205977357924,None,2120.389236899093,2120.405882835854,,,,,,,136,001,2023_Nov_17_1124,SpeechDraft1Carolyn_lessNoise_PlusLocalization,2021.2.3,60.049252618235165,
,,,,,,,,midLeft,-13.0,2,ch1Sound_localizationTask.wav,-13.0,"(762, 878)","(-198,-202)",-190,-338,,,,,,,,,,,,,7,1,50,1,,,,,,,,,,,,,,,,,,,,,,,,,,,,,,,,,,,,,,,,2123.3390750521794,None,,,2126.355564188212,None,1.3613756613756614,0.9999384130351245,2126.355564188212,None,,,,,,,2124.339157090988,None,2124.5224920278415,2124.539117148146,,,,,,,136,001,2023_Nov_17_1124,SpeechDraft1Carolyn_lessNoise_PlusLocalization,2021.2.3,60.049252618235165,
,,,,,,,,center,0.0,6,ch1Sound_localizationTask.wav,0.0,"(952, 878)","(-8,-202)",0,-338,,,,,,,,,,,,,7,2,51,3,,,,,,,,,,,,,,,,,,,,,,,,,,,,,,,,,,,,,,,,2127.3563417401165,None,,,2130.3722370788455,None,1.5052910052910053,0.6991802328266203,2130.3722370788455,None,,,,,,,2128.355866559781,None,2128.5392644470558,2128.5558708668686,,,,,,,136,001,2023_Nov_17_1124,SpeechDraft1Carolyn_lessNoise_PlusLocalization,2021.2.3,60.049252618235165,
,,,,,,,,nearRight,6.5,0,ch1Sound_localizationTask.wav,6.5,"(1047, 878)","(87, -202)",95,-338,,,,,,,,,,,,,7,3,52,4,,,,,,,,,,,,,,,,,,,,,,,,,,,,,,,,,,,,,,,,2131.0729250470176,None,,,2134.0887788161635,None,1.5873015873015874,0.6825377768836915,2134.0887788161635,None,,,,,,,2132.07249174593,None,2132.2557668611407,2132.2724901922047,,,,,,,136,001,2023_Nov_17_1124,SpeechDraft1Carolyn_lessNoise_PlusLocalization,2021.2.3,60.049252618235165,
,,,,,,,,nearLeft,-6.5,1,ch1Sound_localizationTask.wav,-6.5,"(857, 878)","(-103,-202)",-95,-338,,,,,,,,,,,,,7,4,53,2,,,,,,,,,,,,,,,,,,,,,,,,,,,,,,,,,,,,,,,,2134.773020950146,None,,,2137.788912325166,None,1.428042328042328,0.8487672260962427,2137.788912325166,None,,,,,,,2135.772549807094,None,2135.9558139927685,2135.9724815110676,,,,,,,136,001,2023_Nov_17_1124,SpeechDraft1Carolyn_lessNoise_PlusLocalization,2021.2.3,60.049252618235165,
,,,,,,,,farRight,19.1,4,ch1Sound_localizationTask.wav,19.1,"(1237, 878)","(277,-202)",285,-338,,,,,,,,,,,,,7,5,54,6,,,,,,,,,,,,,,,,,,,,,,,,,,,,,,,,,,,,,,,,2138.6390992081724,None,,,2141.6554955421016,None,1.7047619047619047,1.766974528785795,2141.6554955421016,None,,,,,,,2139.639315128792,None,2139.822444187943,2139.8391247717664,,,,,,,136,001,2023_Nov_17_1124,SpeechDraft1Carolyn_lessNoise_PlusLocalization,2021.2.3,60.049252618235165,
,,,,,,,,farLeft,-19.1,5,ch1Sound_localizationTask.wav,-19.1,"(667, 878)","(-293,-202)",-285,-338,,,,,,,,,,,,,7,6,55,0,,,,,,,,,,,,,,,,,,,,,,,,,,,,,,,,,,,,,,,,2143.423150325194,None,,,2146.4388693720102,None,1.2814814814814814,1.518530126195401,2146.4388693720102,None,,,,,,,2144.4224656037986,None,2144.6059648091905,2144.622453473974,,,,,,,136,001,2023_Nov_17_1124,SpeechDraft1Carolyn_lessNoise_PlusLocalization,2021.2.3,60.049252618235165,
,,,,,,,,,,,,,,,,,,,,,,,,,,,,,,,,,,,,,,,,,,,,,,,,,,,,,,,,,,,,,,,,,,,,,,,,,,,,,,,,,,,,,,,,,,,,2147.9725891691633,None,c,63.71122518694028,2148.9559792829677,None,136,001,2023_Nov_17_1124,SpeechDraft1Carolyn_lessNoise_PlusLocalization,2021.2.3,60.049252618235165,
