Audio_Only_Files,Video_Files,Original_Word_List,noiseLevelCode,conditionCodes,noiseLevelFile1,noiseLevelFile2,InstrTextVar,targetSpeakerName,targetSpeakerEccen,targetSpkrChannel,targetSpkrSound,targetVisualDegrees,visStimLoc,visStimLoc2,visStimW,visStimH,practiceTrials.thisRepN,practiceTrials.thisTrialN,practiceTrials.thisN,practiceTrials.thisIndex,trials.thisRepN,trials.thisTrialN,trials.thisN,trials.thisIndex,audLocalLoop.thisRepN,audLocalLoop.thisTrialN,audLocalLoop.thisN,audLocalLoop.thisIndex,visualLocalLoop.thisRepN,visualLocalLoop.thisTrialN,visualLocalLoop.thisN,visualLocalLoop.thisIndex,letsGoAlready.keys,letsGoAlready.rt,letsGoAlready.started,letsGoAlready.stopped,text_2.started,text_2.stopped,text_3.started,text_3.stopped,key_resp_2.keys,key_resp_2.rt,key_resp_2.started,key_resp_2.stopped,text_5.started,text_5.stopped,fixCross.started,fixCross.stopped,fixCross2.started,fixCross2.stopped,answerPrompt.started,answerPrompt.stopped,getAnswer.text,getAnswer.started,getAnswer.stopped,goToNext.keys,goToNext.rt,goToNext.started,goToNext.stopped,stretchBreakTxrt.started,stretchBreakTxrt.stopped,key_resp_3.keys,key_resp_3.rt,key_resp_3.started,key_resp_3.stopped,letsGoLocal.keys,letsGoLocal.rt,letsGoLocal.started,letsGoLocal.stopped,text_4.started,text_4.stopped,prepFixTxt.started,prepFixTxt.stopped,prepFixTxt_2.started,prepFixTxt_2.stopped,respPromptLocal.started,respPromptLocal.stopped,slider.response,slider.rt,slider.started,slider.stopped,letsGoLocal_2.keys,letsGoLocal_2.rt,letsGoLocal_2.started,letsGoLocal_2.stopped,text_7.started,text_7.stopped,prepFixTxt_3.started,prepFixTxt_3.stopped,grating.started,grating.stopped,exitTxt.started,exitTxt.stopped,key_resp.keys,key_resp.rt,key_resp.started,key_resp.stopped,participant,session,date,expName,psychopyVersion,frameRate,
,,,,,,,,,,,,,,,,,,,,,,,,,,,,,,,,,space,18.448137575294822,253.10606195777655,None,,,,,,,,,,,,,,,,,,,,,,,,,,,,,,,,,,,,,,,,,,,,,,,,,,,,,,,,,,,,,,137,001,2023_Nov_17_1628,SpeechDraft1Carolyn_lessNoise_PlusLocalization,2021.2.3,60.02706820708412,
,,,,,,,,,,,,,,,,,,,,,,,,,,,,,,,,,,,,,253.10606195777655,None,271.6727410349995,None,space,11.338466275949031,271.85584459779784,None,,,,,,,,,,,,,,,,,,,,,,,,,,,,,,,,,,,,,,,,,,,,,,,,,,,,,,137,001,2023_Nov_17_1628,SpeechDraft1Carolyn_lessNoise_PlusLocalization,2021.2.3,60.02706820708412,
ash.wav,ash.mpg,ash,1,A,Pink_Noise_1_1.wav,Pink_Noise_1_2.wav,"This is an example of an

AUDIO trial",,,,,,,,,,0,0,0,0,,,,,,,,,,,,,,,,,,,,,,,,,283.25550200697035,None,284.2393162930384,None,287.4391488120891,None,288.8390814960003,None,ash,288.8390814960003,None,return,11.431653518695384,288.9225382041186,None,,,,,,,,,,,,,,,,,,,,,,,,,,,,,,,,,,,,,,,137,001,2023_Nov_17_1628,SpeechDraft1Carolyn_lessNoise_PlusLocalization,2021.2.3,60.02706820708412,
ash.wav,ash.mpg,ash,1,AV,Pink_Noise_1_1.wav,Pink_Noise_1_2.wav,"This is an example of an

AUDIO + VIDEO  trial",,,,,,,,,,0,1,1,1,,,,,,,,,,,,,,,,,,,,,,,,,300.38885629177094,None,301.3892847551033,None,302.88914875872433,None,304.27277814690024,None,ash,304.27277814690024,None,return,7.078366491943598,304.3557689827867,None,,,,,,,,,,,,,,,,,,,,,,,,,,,,,,,,,,,,,,,137,001,2023_Nov_17_1628,SpeechDraft1Carolyn_lessNoise_PlusLocalization,2021.2.3,60.02706820708412,
,,,,,,,,,,,,,,,,,,,,,,,,,,,,,,,,,,,,,,,,,,,,,,,,,,,,,,,,,,,,311.4723716028966,None,space,48.00208659470081,311.6560321380384,None,,,,,,,,,,,,,,,,,,,,,,,,,,,,,,,,,137,001,2023_Nov_17_1628,SpeechDraft1Carolyn_lessNoise_PlusLocalization,2021.2.3,60.02706820708412,
cent.wav,cent.mpg,cent,5,A,Pink_Noise_5_1.wav,Pink_Noise_5_2.wav,,,,,,,,,,,,,,,0,0,0,0,,,,,,,,,,,,,,,,,,,,,,,359.7222709399648,None,361.20571636175737,None,362.58946958882734,None,"bit
",362.58946958882734,None,return,7.953566239215434,362.67254067072645,None,,,,,,,,,,,,,,,,,,,,,,,,,,,,,,,,,,,,,,,137,001,2023_Nov_17_1628,SpeechDraft1Carolyn_lessNoise_PlusLocalization,2021.2.3,60.02706820708412,
glow.wav,glow.mpg,glow,5,A,Pink_Noise_5_1.wav,Pink_Noise_5_2.wav,,,,,,,,,,,,,,,0,1,1,33,,,,,,,,,,,,,,,,,,,,,,,370.6561308577657,None,372.1555090909824,None,373.5394466877915,None,"throw
",373.5394466877915,None,return,9.00336074270308,373.622753249947,None,,,,,,,,,,,,,,,,,,,,,,,,,,,,,,,,,,,,,,,137,001,2023_Nov_17_1628,SpeechDraft1Carolyn_lessNoise_PlusLocalization,2021.2.3,60.02706820708412,
shock.wav,shock.mpg,shock,4,AV,Pink_Noise_4_1.wav,Pink_Noise_4_2.wav,,,,,,,,,,,,,,,0,2,2,101,,,,,,,,,,,,,,,,,,,,,,,382.65607490576804,None,384.15584903070703,None,385.53937404975295,None,"shock
",385.53937404975295,None,return,4.6672865860164165,385.6228444967419,None,,,,,,,,,,,,,,,,,,,,,,,,,,,,,,,,,,,,,,,137,001,2023_Nov_17_1628,SpeechDraft1Carolyn_lessNoise_PlusLocalization,2021.2.3,60.02706820708412,
clumps.wav,clumps.mpg,clumps,4,A,Pink_Noise_4_1.wav,Pink_Noise_4_2.wav,,,,,,,,,,,,,,,0,3,3,26,,,,,,,,,,,,,,,,,,,,,,,390.3226900040172,None,391.8225990687497,None,393.20603277813643,None,close,393.20603277813643,None,return,5.832939901854843,393.28927002102137,None,,,,,,,,,,,,,,,,,,,,,,,,,,,,,,,,,,,,,,,137,001,2023_Nov_17_1628,SpeechDraft1Carolyn_lessNoise_PlusLocalization,2021.2.3,60.02706820708412,
fond.wav,fond.mpg,fond,4,A,Pink_Noise_4_1.wav,Pink_Noise_4_2.wav,,,,,,,,,,,,,,,0,4,4,51,,,,,,,,,,,,,,,,,,,,,,,399.1394137837924,None,400.6391871799715,None,402.02288456307724,None,vine,402.02288456307724,None,return,3.4240686437115073,402.10609583277255,None,,,,,,,,,,,,,,,,,,,,,,,,,,,,,,,,,,,,,,,137,001,2023_Nov_17_1628,SpeechDraft1Carolyn_lessNoise_PlusLocalization,2021.2.3,60.02706820708412,
shrimp.wav,shrimp.mpg,shrimp,2,AV,Pink_Noise_2_1.wav,Pink_Noise_2_2.wav,,,,,,,,,,,,,,,0,5,5,82,,,,,,,,,,,,,,,,,,,,,,,405.5559739419259,None,407.0558570898138,None,408.4392458717339,None,shrimp,408.4392458717339,None,return,6.759302258025855,408.5228342991322,None,,,,,,,,,,,,,,,,,,,,,,,,,,,,,,,,,,,,,,,137,001,2023_Nov_17_1628,SpeechDraft1Carolyn_lessNoise_PlusLocalization,2021.2.3,60.02706820708412,
grave.wav,grave.mpg,grave,5,A,Pink_Noise_5_1.wav,Pink_Noise_5_2.wav,,,,,,,,,,,,,,,0,6,6,28,,,,,,,,,,,,,,,,,,,,,,,415.30613983701915,None,416.8056454481557,None,418.18941241083667,None,gray,418.18941241083667,None,return,7.305372012313455,418.2728147227317,None,,,,,,,,,,,,,,,,,,,,,,,,,,,,,,,,,,,,,,,137,001,2023_Nov_17_1628,SpeechDraft1Carolyn_lessNoise_PlusLocalization,2021.2.3,60.02706820708412,
bath.wav,bath.mpg,bath,2,A,Pink_Noise_2_1.wav,Pink_Noise_2_2.wav,,,,,,,,,,,,,,,0,7,7,7,,,,,,,,,,,,,,,,,,,,,,,425.6058974927291,None,427.08930866606534,None,428.4728304678574,None,"cant
",428.4728304678574,None,return,6.149913529865444,428.55619464814663,None,,,,,,,,,,,,,,,,,,,,,,,,,,,,,,,,,,,,,,,137,001,2023_Nov_17_1628,SpeechDraft1Carolyn_lessNoise_PlusLocalization,2021.2.3,60.02706820708412,
cycle.wav,cycle.mpg,cycle,1,AV,Pink_Noise_1_1.wav,Pink_Noise_1_2.wav,,,,,,,,,,,,,,,0,8,8,65,,,,,,,,,,,,,,,,,,,,,,,434.7394167990424,None,436.2392204320058,None,437.62295219069347,None,"cycle
",437.62295219069347,None,return,5.96797709306702,437.70614437386394,None,,,,,,,,,,,,,,,,,,,,,,,,,,,,,,,,,,,,,,,137,001,2023_Nov_17_1628,SpeechDraft1Carolyn_lessNoise_PlusLocalization,2021.2.3,60.02706820708412,
fad.wav,fad.mpg,fad,4,A,Pink_Noise_4_1.wav,Pink_Noise_4_2.wav,,,,,,,,,,,,,,,0,9,9,57,,,,,,,,,,,,,,,,,,,,,,,443.7059629880823,None,445.2056927457452,None,446.5895545659587,None,"fell
",446.5895545659587,None,return,8.017511314246804,446.67260769801214,None,,,,,,,,,,,,,,,,,,,,,,,,,,,,,,,,,,,,,,,137,001,2023_Nov_17_1628,SpeechDraft1Carolyn_lessNoise_PlusLocalization,2021.2.3,60.02706820708412,
gate.wav,gate.mpg,gate,4,AV,Pink_Noise_4_1.wav,Pink_Noise_4_2.wav,,,,,,,,,,,,,,,0,10,10,87,,,,,,,,,,,,,,,,,,,,,,,454.7227652980946,None,456.2224041200243,None,457.60587008297443,None,gate,457.60587008297443,None,return,3.7448398298583925,457.6892965119332,None,,,,,,,,,,,,,,,,,,,,,,,,,,,,,,,,,,,,,,,137,001,2023_Nov_17_1628,SpeechDraft1Carolyn_lessNoise_PlusLocalization,2021.2.3,60.02706820708412,
code.wav,code.mpg,code,6,A,Pink_Noise_6_1.wav,Pink_Noise_6_2.wav,,,,,,,,,,,,,,,0,11,11,55,,,,,,,,,,,,,,,,,,,,,,,461.4561884268187,None,462.9560178508982,None,464.33954561594874,None,"night
",464.33954561594874,None,return,18.40318368608132,464.42292662570253,None,,,,,,,,,,,,,,,,,,,,,,,,,,,,,,,,,,,,,,,137,001,2023_Nov_17_1628,SpeechDraft1Carolyn_lessNoise_PlusLocalization,2021.2.3,60.02706820708412,
stain.wav,stain.mpg,stain,3,A,Pink_Noise_3_1.wav,Pink_Noise_3_2.wav,,,,,,,,,,,,,,,0,12,12,13,,,,,,,,,,,,,,,,,,,,,,,482.85608477192,None,484.35585120972246,None,485.7394988848828,None,stain,485.7394988848828,None,return,3.739544008858502,485.8226843900047,None,,,,,,,,,,,,,,,,,,,,,,,,,,,,,,,,,,,,,,,137,001,2023_Nov_17_1628,SpeechDraft1Carolyn_lessNoise_PlusLocalization,2021.2.3,60.02706820708412,
drink.wav,drink.mpg,drink,5,A,Pink_Noise_5_1.wav,Pink_Noise_5_2.wav,,,,,,,,,,,,,,,0,13,13,43,,,,,,,,,,,,,,,,,,,,,,,489.5895245359279,None,491.0726383929141,None,492.45629192888737,None,limp,492.45629192888737,None,return,9.974520788062364,492.53957586176693,None,,,,,,,,,,,,,,,,,,,,,,,,,,,,,,,,,,,,,,,137,001,2023_Nov_17_1628,SpeechDraft1Carolyn_lessNoise_PlusLocalization,2021.2.3,60.02706820708412,
faith.wav,faith.mpg,faith,5,AV,Pink_Noise_5_1.wav,Pink_Noise_5_2.wav,,,,,,,,,,,,,,,0,14,14,100,,,,,,,,,,,,,,,,,,,,,,,502.53943538386375,None,504.03919180715457,None,505.4226193437353,None,faith,505.4226193437353,None,return,6.5278292265720665,505.50628576008603,None,,,,,,,,,,,,,,,,,,,,,,,,,,,,,,,,,,,,,,,137,001,2023_Nov_17_1628,SpeechDraft1Carolyn_lessNoise_PlusLocalization,2021.2.3,60.02706820708412,
ditch.wav,ditch.mpg,ditch,2,AV,Pink_Noise_2_1.wav,Pink_Noise_2_2.wav,,,,,,,,,,,,,,,0,15,15,99,,,,,,,,,,,,,,,,,,,,,,,512.056320218835,None,513.5561341671273,None,514.93947716197,None,dish,514.93947716197,None,return,4.87536587100476,515.0227381810546,None,,,,,,,,,,,,,,,,,,,,,,,,,,,,,,,,,,,,,,,137,001,2023_Nov_17_1628,SpeechDraft1Carolyn_lessNoise_PlusLocalization,2021.2.3,60.02706820708412,
wheat.wav,wheat.mpg,wheat,2,A,Pink_Noise_2_1.wav,Pink_Noise_2_2.wav,,,,,,,,,,,,,,,0,16,16,17,,,,,,,,,,,,,,,,,,,,,,,519.9227828821167,None,521.4226603200659,None,522.8062200318091,None,wheat,522.8062200318091,None,return,10.048603296279907,522.8896286077797,None,,,,,,,,,,,,,,,,,,,,,,,,,,,,,,,,,,,,,,,137,001,2023_Nov_17_1628,SpeechDraft1Carolyn_lessNoise_PlusLocalization,2021.2.3,60.02706820708412,
beach.wav,beach.mpg,beach,4,AV,Pink_Noise_4_1.wav,Pink_Noise_4_2.wav,,,,,,,,,,,,,,,0,17,17,80,,,,,,,,,,,,,,,,,,,,,,,532.9562726649456,None,534.4559039277956,None,535.839358184021,None,"beach
",535.839358184021,None,return,9.535120816435665,535.9229957689531,None,,,,,,,,,,,,,,,,,,,,,,,,,,,,,,,,,,,,,,,137,001,2023_Nov_17_1628,SpeechDraft1Carolyn_lessNoise_PlusLocalization,2021.2.3,60.02706820708412,
cash.wav,cash.mpg,cash,3,AV,Pink_Noise_3_1.wav,Pink_Noise_3_2.wav,,,,,,,,,,,,,,,0,18,18,108,,,,,,,,,,,,,,,,,,,,,,,545.489651883021,None,546.9892915557139,None,548.3727698279545,None,cash,548.3727698279545,None,return,3.1460721218027174,548.4560628519394,None,,,,,,,,,,,,,,,,,,,,,,,,,,,,,,,,,,,,,,,137,001,2023_Nov_17_1628,SpeechDraft1Carolyn_lessNoise_PlusLocalization,2021.2.3,60.02706820708412,
fit.wav,fit.mpg,fit,3,AV,Pink_Noise_3_1.wav,Pink_Noise_3_2.wav,,,,,,,,,,,,,,,0,19,19,113,,,,,,,,,,,,,,,,,,,,,,,551.6229253238998,None,553.1069594677538,None,554.4896644037217,None,fit,554.4896644037217,None,return,3.981097756884992,554.5730314981192,None,,,,,,,,,,,,,,,,,,,,,,,,,,,,,,,,,,,,,,,137,001,2023_Nov_17_1628,SpeechDraft1Carolyn_lessNoise_PlusLocalization,2021.2.3,60.02706820708412,
bind.wav,bind.mpg,bind,2,A,Pink_Noise_2_1.wav,Pink_Noise_2_2.wav,,,,,,,,,,,,,,,0,20,20,14,,,,,,,,,,,,,,,,,,,,,,,558.5895290700719,None,560.0893785608932,None,561.472873182036,None,"bind
",561.472873182036,None,return,5.333705173805356,561.5564021789469,None,,,,,,,,,,,,,,,,,,,,,,,,,,,,,,,,,,,,,,,137,001,2023_Nov_17_1628,SpeechDraft1Carolyn_lessNoise_PlusLocalization,2021.2.3,60.02706820708412,
flank.wav,flank.mpg,flank,6,AV,Pink_Noise_6_1.wav,Pink_Noise_6_2.wav,,,,,,,,,,,,,,,0,21,21,66,,,,,,,,,,,,,,,,,,,,,,,566.9230065178126,None,568.4226446268149,None,569.8064423757605,None,fling,569.8064423757605,None,return,19.1606598761864,569.8894367790781,None,,,,,,,,,,,,,,,,,,,,,,,,,,,,,,,,,,,,,,,137,001,2023_Nov_17_1628,SpeechDraft1Carolyn_lessNoise_PlusLocalization,2021.2.3,60.02706820708412,
sock.wav,sock.mpg,sock,5,A,Pink_Noise_5_1.wav,Pink_Noise_5_2.wav,,,,,,,,,,,,,,,0,22,22,22,,,,,,,,,,,,,,,,,,,,,,,589.073013890069,None,590.5725780217908,None,591.9562457296997,None,socks,591.9562457296997,None,return,3.610365780070424,592.0397381349467,None,,,,,,,,,,,,,,,,,,,,,,,,,,,,,,,,,,,,,,,137,001,2023_Nov_17_1628,SpeechDraft1Carolyn_lessNoise_PlusLocalization,2021.2.3,60.02706820708412,
swayed.wav,swayed.mpg,swayed,1,AV,Pink_Noise_1_1.wav,Pink_Noise_1_2.wav,,,,,,,,,,,,,,,0,23,23,64,,,,,,,,,,,,,,,,,,,,,,,595.6728084338829,None,597.1725426279008,None,598.5563538880087,None,suede,598.5563538880087,None,return,3.8584258630871773,598.6396778346971,None,,,,,,,,,,,,,,,,,,,,,,,,,,,,,,,,,,,,,,,137,001,2023_Nov_17_1628,SpeechDraft1Carolyn_lessNoise_PlusLocalization,2021.2.3,60.02706820708412,
round.wav,round.mpg,round,4,AV,Pink_Noise_4_1.wav,Pink_Noise_4_2.wav,,,,,,,,,,,,,,,0,24,24,71,,,,,,,,,,,,,,,,,,,,,,,602.5231135459617,None,604.0228872960433,None,605.4060553358868,None,round,605.4060553358868,None,return,10.272445972077549,605.4897298370488,None,,,,,,,,,,,,,,,,,,,,,,,,,,,,,,,,,,,,,,,137,001,2023_Nov_17_1628,SpeechDraft1Carolyn_lessNoise_PlusLocalization,2021.2.3,60.02706820708412,
fur.wav,fur.mpg,fur,6,A,Pink_Noise_6_1.wav,Pink_Noise_6_2.wav,,,,,,,,,,,,,,,0,25,25,54,,,,,,,,,,,,,,,,,,,,,,,615.7897855467163,None,617.289275711868,None,618.6731513137929,None,earth,618.6731513137929,None,return,3.581783674657345,618.7564476220869,None,,,,,,,,,,,,,,,,,,,,,,,,,,,,,,,,,,,,,,,137,001,2023_Nov_17_1628,SpeechDraft1Carolyn_lessNoise_PlusLocalization,2021.2.3,60.02706820708412,
crust.wav,crust.mpg,crust,4,AV,Pink_Noise_4_1.wav,Pink_Noise_4_2.wav,,,,,,,,,,,,,,,0,26,26,115,,,,,,,,,,,,,,,,,,,,,,,622.356317778118,None,623.8561943187378,None,625.2395997978747,None,crust,625.2395997978747,None,return,4.47117769299075,625.3229369837791,None,,,,,,,,,,,,,,,,,,,,,,,,,,,,,,,,,,,,,,,137,001,2023_Nov_17_1628,SpeechDraft1Carolyn_lessNoise_PlusLocalization,2021.2.3,60.02706820708412,
pike.wav,pike.mpg,pike,1,A,Pink_Noise_1_1.wav,Pink_Noise_1_2.wav,,,,,,,,,,,,,,,0,27,27,38,,,,,,,,,,,,,,,,,,,,,,,629.8231063527055,None,631.3228281028569,None,632.7062136018649,None,"pike
",632.7062136018649,None,return,2.868494597263634,632.7896285210736,None,,,,,,,,,,,,,,,,,,,,,,,,,,,,,,,,,,,,,,,137,001,2023_Nov_17_1628,SpeechDraft1Carolyn_lessNoise_PlusLocalization,2021.2.3,60.02706820708412,
buff.wav,buff.mpg,buff,1,AV,Pink_Noise_1_1.wav,Pink_Noise_1_2.wav,,,,,,,,,,,,,,,0,28,28,103,,,,,,,,,,,,,,,,,,,,,,,635.6895614089444,None,637.1893534790725,None,638.5728495349176,None,buff,638.5728495349176,None,return,10.361634755972773,638.6564876288176,None,,,,,,,,,,,,,,,,,,,,,,,,,,,,,,,,,,,,,,,137,001,2023_Nov_17_1628,SpeechDraft1Carolyn_lessNoise_PlusLocalization,2021.2.3,60.02706820708412,
dusk.wav,dusk.mpg,dusk,3,A,Pink_Noise_3_1.wav,Pink_Noise_3_2.wav,,,,,,,,,,,,,,,0,29,29,45,,,,,,,,,,,,,,,,,,,,,,,649.039942973759,None,650.5395571021363,None,651.9231350556947,None,dusk,651.9231350556947,None,return,3.059498001821339,652.006596759893,None,,,,,,,,,,,,,,,,,,,,,,,,,,,,,,,,,,,,,,,137,001,2023_Nov_17_1628,SpeechDraft1Carolyn_lessNoise_PlusLocalization,2021.2.3,60.02706820708412,
clap.wav,clap.mpg,clap,3,A,Pink_Noise_3_1.wav,Pink_Noise_3_2.wav,,,,,,,,,,,,,,,0,30,30,48,,,,,,,,,,,,,,,,,,,,,,,655.0897314050235,None,656.5894741690718,None,657.9732446568087,None,clap,657.9732446568087,None,return,4.145697856787592,658.0564542729408,None,,,,,,,,,,,,,,,,,,,,,,,,,,,,,,,,,,,,,,,137,001,2023_Nov_17_1628,SpeechDraft1Carolyn_lessNoise_PlusLocalization,2021.2.3,60.02706820708412,
gab.wav,gab.mpg,gab,4,AV,Pink_Noise_4_1.wav,Pink_Noise_4_2.wav,,,,,,,,,,,,,,,0,31,31,117,,,,,,,,,,,,,,,,,,,,,,,662.2231244747527,None,663.7229315750301,None,665.1065675220452,None,"gab
",665.1065675220452,None,return,8.468477917835116,665.1896395380609,None,,,,,,,,,,,,,,,,,,,,,,,,,,,,,,,,,,,,,,,137,001,2023_Nov_17_1628,SpeechDraft1Carolyn_lessNoise_PlusLocalization,2021.2.3,60.02706820708412,
bank.wav,bank.mpg,bank,2,A,Pink_Noise_2_1.wav,Pink_Noise_2_2.wav,,,,,,,,,,,,,,,0,32,32,42,,,,,,,,,,,,,,,,,,,,,,,673.6898145531304,None,675.1894030310214,None,676.5730979307555,None,ache,676.5730979307555,None,return,9.449819653760642,676.656340349,None,,,,,,,,,,,,,,,,,,,,,,,,,,,,,,,,,,,,,,,137,001,2023_Nov_17_1628,SpeechDraft1Carolyn_lessNoise_PlusLocalization,2021.2.3,60.02706820708412,
date.wav,date.mpg,date,1,A,Pink_Noise_1_1.wav,Pink_Noise_1_2.wav,,,,,,,,,,,,,,,0,33,33,6,,,,,,,,,,,,,,,,,,,,,,,686.1231867517345,None,687.6229842677712,None,689.0064753857441,None,date,689.0064753857441,None,return,3.040648275986314,689.0896797850728,None,,,,,,,,,,,,,,,,,,,,,,,,,,,,,,,,,,,,,,,137,001,2023_Nov_17_1628,SpeechDraft1Carolyn_lessNoise_PlusLocalization,2021.2.3,60.02706820708412,
bird.wav,bird.mpg,bird,2,A,Pink_Noise_2_1.wav,Pink_Noise_2_2.wav,,,,,,,,,,,,,,,0,34,34,59,,,,,,,,,,,,,,,,,,,,,,,692.1564835160971,None,693.6560230129398,None,695.0397241469473,None,nird,695.0397241469473,None,return,3.3589601991698146,695.123138545081,None,,,,,,,,,,,,,,,,,,,,,,,,,,,,,,,,,,,,,,,137,001,2023_Nov_17_1628,SpeechDraft1Carolyn_lessNoise_PlusLocalization,2021.2.3,60.02706820708412,
giant.wav,giant.mpg,giant,3,AV,Pink_Noise_3_1.wav,Pink_Noise_3_2.wav,,,,,,,,,,,,,,,0,35,35,77,,,,,,,,,,,,,,,,,,,,,,,698.5063623497263,None,700.0061145490035,None,701.3897295119241,None,giant,701.3897295119241,None,return,4.713004044722766,701.473159966059,None,,,,,,,,,,,,,,,,,,,,,,,,,,,,,,,,,,,,,,,137,001,2023_Nov_17_1628,SpeechDraft1Carolyn_lessNoise_PlusLocalization,2021.2.3,60.02706820708412,
slush.wav,slush.mpg,slush,2,A,Pink_Noise_2_1.wav,Pink_Noise_2_2.wav,,,,,,,,,,,,,,,0,36,36,20,,,,,,,,,,,,,,,,,,,,,,,706.2064777668566,None,707.7061072271317,None,709.0898029888049,None,slush,709.0898029888049,None,return,4.388929390814155,709.1732458500192,None,,,,,,,,,,,,,,,,,,,,,,,,,,,,,,,,,,,,,,,137,001,2023_Nov_17_1628,SpeechDraft1Carolyn_lessNoise_PlusLocalization,2021.2.3,60.02706820708412,
tank.wav,tank.mpg,tank,4,A,Pink_Noise_4_1.wav,Pink_Noise_4_2.wav,,,,,,,,,,,,,,,0,37,37,44,,,,,,,,,,,,,,,,,,,,,,,713.5896287360229,None,715.0894452338107,None,716.4731914787553,None,take,716.4731914787553,None,return,3.093848983757198,716.556334938854,None,,,,,,,,,,,,,,,,,,,,,,,,,,,,,,,,,,,,,,,137,001,2023_Nov_17_1628,SpeechDraft1Carolyn_lessNoise_PlusLocalization,2021.2.3,60.02706820708412,
glue.wav,glue.mpg,glue,6,A,Pink_Noise_6_1.wav,Pink_Noise_6_2.wav,,,,,,,,,,,,,,,0,38,38,5,,,,,,,,,,,,,,,,,,,,,,,719.6730036181398,None,721.1729506100528,None,722.5565251349472,None,wood,722.5565251349472,None,return,3.2984066419303417,722.6397842718288,None,,,,,,,,,,,,,,,,,,,,,,,,,,,,,,,,,,,,,,,137,001,2023_Nov_17_1628,SpeechDraft1Carolyn_lessNoise_PlusLocalization,2021.2.3,60.02706820708412,
chalk.wav,chalk.mpg,chalk,5,A,Pink_Noise_5_1.wav,Pink_Noise_5_2.wav,,,,,,,,,,,,,,,0,39,39,29,,,,,,,,,,,,,,,,,,,,,,,725.9564852351323,None,727.4726480571553,None,728.8566976538859,None,chop,728.8566976538859,None,return,2.9902930040843785,728.9399069678038,None,,,,,,,,,,,,,,,,,,,,,,,,,,,,,,,,,,,,,,,137,001,2023_Nov_17_1628,SpeechDraft1Carolyn_lessNoise_PlusLocalization,2021.2.3,60.02706820708412,
clam.wav,clam.mpg,clam,1,A,Pink_Noise_1_1.wav,Pink_Noise_1_2.wav,,,,,,,,,,,,,,,0,40,40,37,,,,,,,,,,,,,,,,,,,,,,,731.956605121959,None,733.4562444118783,None,734.839871969074,None,"clam
",734.839871969074,None,return,3.367058635223657,734.9230533191003,None,,,,,,,,,,,,,,,,,,,,,,,,,,,,,,,,,,,,,,,137,001,2023_Nov_17_1628,SpeechDraft1Carolyn_lessNoise_PlusLocalization,2021.2.3,60.02706820708412,
bell.wav,bell.mpg,bell,5,A,Pink_Noise_5_1.wav,Pink_Noise_5_2.wav,,,,,,,,,,,,,,,0,41,41,4,,,,,,,,,,,,,,,,,,,,,,,738.32328137476,None,739.8230409291573,None,741.2064504278824,None,round,741.2064504278824,None,return,7.128171597607434,741.2899638488889,None,,,,,,,,,,,,,,,,,,,,,,,,,,,,,,,,,,,,,,,137,001,2023_Nov_17_1628,SpeechDraft1Carolyn_lessNoise_PlusLocalization,2021.2.3,60.02706820708412,
dog.wav,dog.mpg,dog,6,A,Pink_Noise_6_1.wav,Pink_Noise_6_2.wav,,,,,,,,,,,,,,,0,42,42,52,,,,,,,,,,,,,,,,,,,,,,,748.4398772958666,None,749.9396976088174,None,751.3232734808698,None,throw,751.3232734808698,None,return,6.547713464125991,751.4064443558455,None,,,,,,,,,,,,,,,,,,,,,,,,,,,,,,,,,,,,,,,137,001,2023_Nov_17_1628,SpeechDraft1Carolyn_lessNoise_PlusLocalization,2021.2.3,60.02706820708412,
dense.wav,dense.mpg,dense,6,A,Pink_Noise_6_1.wav,Pink_Noise_6_2.wav,,,,,,,,,,,,,,,0,43,43,18,,,,,,,,,,,,,,,,,,,,,,,757.9733748608269,None,759.4727060929872,None,760.8566867779009,None,dust,760.8566867779009,None,return,5.3903244929388165,760.939915346913,None,,,,,,,,,,,,,,,,,,,,,,,,,,,,,,,,,,,,,,,137,001,2023_Nov_17_1628,SpeechDraft1Carolyn_lessNoise_PlusLocalization,2021.2.3,60.02706820708412,
glide.wav,glide.mpg,glide,4,A,Pink_Noise_4_1.wav,Pink_Noise_4_2.wav,,,,,,,,,,,,,,,0,44,44,50,,,,,,,,,,,,,,,,,,,,,,,766.3565789018758,None,767.8561219349504,None,769.2399185090326,None,glide,769.2399185090326,None,return,3.0948196523822844,769.3232883540913,None,,,,,,,,,,,,,,,,,,,,,,,,,,,,,,,,,,,,,,,137,001,2023_Nov_17_1628,SpeechDraft1Carolyn_lessNoise_PlusLocalization,2021.2.3,60.02706820708412,
jeep.wav,jeep.mpg,jeep,5,AV,Pink_Noise_5_1.wav,Pink_Noise_5_2.wav,,,,,,,,,,,,,,,0,45,45,70,,,,,,,,,,,,,,,,,,,,,,,772.4400160708465,None,773.9397809198126,None,775.3231418230571,None,cheap,775.3231418230571,None,return,4.915711861103773,775.4065102469176,None,,,,,,,,,,,,,,,,,,,,,,,,,,,,,,,,,,,,,,,137,001,2023_Nov_17_1628,SpeechDraft1Carolyn_lessNoise_PlusLocalization,2021.2.3,60.02706820708412,
bare.wav,bare.mpg,bare,3,A,Pink_Noise_3_1.wav,Pink_Noise_3_2.wav,,,,,,,,,,,,,,,0,46,46,21,,,,,,,,,,,,,,,,,,,,,,,780.3400795687921,None,781.8397349901497,None,783.2232489967719,None,bear,783.2232489967719,None,return,6.3275995487347245,783.3065063310787,None,,,,,,,,,,,,,,,,,,,,,,,,,,,,,,,,,,,,,,,137,001,2023_Nov_17_1628,SpeechDraft1Carolyn_lessNoise_PlusLocalization,2021.2.3,60.02706820708412,
deck.wav,deck.mpg,deck,2,AV,Pink_Noise_2_1.wav,Pink_Noise_2_2.wav,,,,,,,,,,,,,,,0,47,47,93,,,,,,,,,,,,,,,,,,,,,,,789.6566671840847,None,791.1560894241557,None,792.5398320630193,None,"kin
",792.5398320630193,None,return,30.634799051098526,792.6233192491345,None,,,,,,,,,,,,,,,,,,,,,,,,,,,,,,,,,,,,,,,137,001,2023_Nov_17_1628,SpeechDraft1Carolyn_lessNoise_PlusLocalization,2021.2.3,60.02706820708412,
peach.wav,peach.mpg,peach,2,A,Pink_Noise_2_1.wav,Pink_Noise_2_2.wav,,,,,,,,,,,,,,,0,48,48,25,,,,,,,,,,,,,,,,,,,,,,,823.2900253999978,None,824.7894751420245,None,826.1732043949887,None,leech,826.1732043949887,None,return,12.761440652888268,826.2567243198864,None,,,,,,,,,,,,,,,,,,,,,,,,,,,,,,,,,,,,,,,137,001,2023_Nov_17_1628,SpeechDraft1Carolyn_lessNoise_PlusLocalization,2021.2.3,60.02706820708412,
fish.wav,fish.mpg,fish,3,AV,Pink_Noise_3_1.wav,Pink_Noise_3_2.wav,,,,,,,,,,,,,,,0,49,49,92,,,,,,,,,,,,,,,,,,,,,,,839.039826054126,None,840.5398930357769,None,841.9233658839948,None,fish,841.9233658839948,None,return,3.3314711493439972,842.0066358800977,None,,,,,,,,,,,,,,,,,,,,,,,,,,,,,,,,,,,,,,,137,001,2023_Nov_17_1628,SpeechDraft1Carolyn_lessNoise_PlusLocalization,2021.2.3,60.02706820708412,
clue.wav,clue.mpg,clue,3,A,Pink_Noise_3_1.wav,Pink_Noise_3_2.wav,,,,,,,,,,,,,,,0,50,50,24,,,,,,,,,,,,,,,,,,,,,,,845.3564903307706,None,846.8563501727767,None,848.2399771520868,None,"clue
",848.2399771520868,None,return,3.3346966421231627,848.3234211569652,None,,,,,,,,,,,,,,,,,,,,,,,,,,,,,,,,,,,,,,,137,001,2023_Nov_17_1628,SpeechDraft1Carolyn_lessNoise_PlusLocalization,2021.2.3,60.02706820708412,
bulb.wav,bulb.mpg,bulb,5,A,Pink_Noise_5_1.wav,Pink_Noise_5_2.wav,,,,,,,,,,,,,,,0,51,51,34,,,,,,,,,,,,,,,,,,,,,,,851.6900834878907,None,853.1896561337635,None,854.5732013909146,None,"hold
",854.5732013909146,None,return,3.417349142022431,854.6567709287629,None,,,,,,,,,,,,,,,,,,,,,,,,,,,,,,,,,,,,,,,137,001,2023_Nov_17_1628,SpeechDraft1Carolyn_lessNoise_PlusLocalization,2021.2.3,60.02706820708412,
dust.wav,dust.mpg,dust,3,A,Pink_Noise_3_1.wav,Pink_Noise_3_2.wav,,,,,,,,,,,,,,,0,52,52,9,,,,,,,,,,,,,,,,,,,,,,,858.1064779208973,None,859.6063269679435,None,860.9902265458368,None,dust,860.9902265458368,None,return,3.8570268568582833,861.0731727769598,None,,,,,,,,,,,,,,,,,,,,,,,,,,,,,,,,,,,,,,,137,001,2023_Nov_17_1628,SpeechDraft1Carolyn_lessNoise_PlusLocalization,2021.2.3,60.02706820708412,
squat.wav,squat.mpg,squat,3,AV,Pink_Noise_3_1.wav,Pink_Noise_3_2.wav,,,,,,,,,,,,,,,0,53,53,95,,,,,,,,,,,,,,,,,,,,,,,864.956783818081,None,866.4564579511061,None,867.8400388611481,None,twat,867.8400388611481,None,return,11.078657296020538,867.9234607038088,None,,,,,,,,,,,,,,,,,,,,,,,,,,,,,,,,,,,,,,,137,001,2023_Nov_17_1628,SpeechDraft1Carolyn_lessNoise_PlusLocalization,2021.2.3,60.02706820708412,
gulp.wav,gulp.mpg,gulp,4,AV,Pink_Noise_4_1.wav,Pink_Noise_4_2.wav,,,,,,,,,,,,,,,0,54,54,81,,,,,,,,,,,,,,,,,,,,,,,879.0233091320843,None,880.5245161037892,None,881.9066016110592,None,"golp
",881.9066016110592,None,return,9.068100243806839,881.9900079020299,None,,,,,,,,,,,,,,,,,,,,,,,,,,,,,,,,,,,,,,,137,001,2023_Nov_17_1628,SpeechDraft1Carolyn_lessNoise_PlusLocalization,2021.2.3,60.02706820708412,
cling.wav,cling.mpg,cling,1,A,Pink_Noise_1_1.wav,Pink_Noise_1_2.wav,,,,,,,,,,,,,,,0,55,55,49,,,,,,,,,,,,,,,,,,,,,,,891.0900878980756,None,892.6063919248991,None,893.9900658307597,None,cling,893.9900658307597,None,return,8.376842586323619,894.0732508241199,None,,,,,,,,,,,,,,,,,,,,,,,,,,,,,,,,,,,,,,,137,001,2023_Nov_17_1628,SpeechDraft1Carolyn_lessNoise_PlusLocalization,2021.2.3,60.02706820708412,
blunt.wav,blunt.mpg,blunt,2,A,Pink_Noise_2_1.wav,Pink_Noise_2_2.wav,,,,,,,,,,,,,,,0,56,56,56,,,,,,,,,,,,,,,,,,,,,,,902.4733968279324,None,903.9732024990954,None,905.3566254209727,None,blunt,905.3566254209727,None,return,4.882121849805117,905.4400848736987,None,,,,,,,,,,,,,,,,,,,,,,,,,,,,,,,,,,,,,,,137,001,2023_Nov_17_1628,SpeechDraft1Carolyn_lessNoise_PlusLocalization,2021.2.3,60.02706820708412,
bark.wav,bark.mpg,bark,6,A,Pink_Noise_6_1.wav,Pink_Noise_6_2.wav,,,,,,,,,,,,,,,0,57,57,2,,,,,,,,,,,,,,,,,,,,,,,910.3400947130285,None,911.8398136179894,None,913.2234562369995,None,earth,913.2234562369995,None,return,7.815472002141178,913.3067381139845,None,,,,,,,,,,,,,,,,,,,,,,,,,,,,,,,,,,,,,,,137,001,2023_Nov_17_1628,SpeechDraft1Carolyn_lessNoise_PlusLocalization,2021.2.3,60.02706820708412,
feud.wav,feud.mpg,feud,6,AV,Pink_Noise_6_1.wav,Pink_Noise_6_2.wav,,,,,,,,,,,,,,,0,58,58,90,,,,,,,,,,,,,,,,,,,,,,,921.1399250607938,None,922.6403653249145,None,924.0235859961249,None,food,924.0235859961249,None,return,4.095421755220741,924.106695599854,None,,,,,,,,,,,,,,,,,,,,,,,,,,,,,,,,,,,,,,,137,001,2023_Nov_17_1628,SpeechDraft1Carolyn_lessNoise_PlusLocalization,2021.2.3,60.02706820708412,
chain.wav,chain.mpg,chain,6,AV,Pink_Noise_6_1.wav,Pink_Noise_6_2.wav,,,,,,,,,,,,,,,0,59,59,112,,,,,,,,,,,,,,,,,,,,,,,928.2235878189094,None,929.723015035037,None,931.1067647249438,None,chain,931.1067647249438,None,return,6.611869811080396,931.1902339789085,None,,,,,,,,,,,,,,,,,,,,,,,,,,,,,,,,,,,,,,,137,001,2023_Nov_17_1628,SpeechDraft1Carolyn_lessNoise_PlusLocalization,2021.2.3,60.02706820708412,
teen.wav,teen.mpg,teen,2,AV,Pink_Noise_2_1.wav,Pink_Noise_2_2.wav,,,,,,,,,,,,,,,0,60,60,68,,,,,,,,,,,,,,,,,,,,,,,937.8236244800501,None,939.3233980387449,None,940.7067137369886,None,teen,940.7067137369886,None,return,4.892013099975884,940.7901600087062,None,,,,,,,,,,,,,,,,,,,,,,,,,,,,,,,,,,,,,,,137,001,2023_Nov_17_1628,SpeechDraft1Carolyn_lessNoise_PlusLocalization,2021.2.3,60.02706820708412,
rent.wav,rent.mpg,rent,6,AV,Pink_Noise_6_1.wav,Pink_Noise_6_2.wav,,,,,,,,,,,,,,,0,61,61,96,,,,,,,,,,,,,,,,,,,,,,,945.7067516110837,None,947.2066038297489,None,948.5899313930422,None,what,948.5899313930422,None,return,3.9206411158666015,948.6734797330573,None,,,,,,,,,,,,,,,,,,,,,,,,,,,,,,,,,,,,,,,137,001,2023_Nov_17_1628,SpeechDraft1Carolyn_lessNoise_PlusLocalization,2021.2.3,60.02706820708412,
fraud.wav,fraud.mpg,fraud,1,A,Pink_Noise_1_1.wav,Pink_Noise_1_2.wav,,,,,,,,,,,,,,,0,62,62,41,,,,,,,,,,,,,,,,,,,,,,,952.623506590724,None,954.123033342883,None,955.5066518997774,None,"fraud
",955.5066518997774,None,return,3.0679018669761717,955.5902058309875,None,,,,,,,,,,,,,,,,,,,,,,,,,,,,,,,,,,,,,,,137,001,2023_Nov_17_1628,SpeechDraft1Carolyn_lessNoise_PlusLocalization,2021.2.3,60.02706820708412,
gust.wav,gust.mpg,gust,1,AV,Pink_Noise_1_1.wav,Pink_Noise_1_2.wav,,,,,,,,,,,,,,,0,63,63,78,,,,,,,,,,,,,,,,,,,,,,,958.6902058380656,None,960.1898698718287,None,961.5733376168646,None,gust,961.5733376168646,None,return,2.1215380039066076,961.65662358189,None,,,,,,,,,,,,,,,,,,,,,,,,,,,,,,,,,,,,,,,137,001,2023_Nov_17_1628,SpeechDraft1Carolyn_lessNoise_PlusLocalization,2021.2.3,60.02706820708412,
truck.wav,truck.mpg,truck,1,AV,Pink_Noise_1_1.wav,Pink_Noise_1_2.wav,,,,,,,,,,,,,,,0,64,64,76,,,,,,,,,,,,,,,,,,,,,,,963.8067984390073,None,965.3065010397695,None,966.6901262528263,None,truck,966.6901262528263,None,return,2.548686658963561,966.7735143909231,None,,,,,,,,,,,,,,,,,,,,,,,,,,,,,,,,,,,,,,,137,001,2023_Nov_17_1628,SpeechDraft1Carolyn_lessNoise_PlusLocalization,2021.2.3,60.02706820708412,
fresh.wav,fresh.mpg,fresh,2,AV,Pink_Noise_2_1.wav,Pink_Noise_2_2.wav,,,,,,,,,,,,,,,0,65,65,102,,,,,,,,,,,,,,,,,,,,,,,969.3403584579937,None,970.8411277760752,None,972.2400217601098,None,fresh,972.2400217601098,None,return,4.670293004717678,972.3078766181134,None,,,,,,,,,,,,,,,,,,,,,,,,,,,,,,,,,,,,,,,137,001,2023_Nov_17_1628,SpeechDraft1Carolyn_lessNoise_PlusLocalization,2021.2.3,60.02706820708412,
swan.wav,swan.mpg,swan,5,AV,Pink_Noise_5_1.wav,Pink_Noise_5_2.wav,,,,,,,,,,,,,,,0,66,66,72,,,,,,,,,,,,,,,,,,,,,,,977.0069929147139,None,978.5232100831345,None,979.9068653178401,None,twenty,979.9068653178401,None,return,17.140203311108053,979.9900163947605,None,,,,,,,,,,,,,,,,,,,,,,,,,,,,,,,,,,,,,,,137,001,2023_Nov_17_1628,SpeechDraft1Carolyn_lessNoise_PlusLocalization,2021.2.3,60.02706820708412,
guard.wav,guard.mpg,guard,3,A,Pink_Noise_3_1.wav,Pink_Noise_3_2.wav,,,,,,,,,,,,,,,0,67,67,36,,,,,,,,,,,,,,,,,,,,,,,997.1571382288821,None,998.6732089687139,None,1000.0570301357657,None,"guard
",1000.0570301357657,None,return,2.869833645876497,1000.1402667909861,None,,,,,,,,,,,,,,,,,,,,,,,,,,,,,,,,,,,,,,,137,001,2023_Nov_17_1628,SpeechDraft1Carolyn_lessNoise_PlusLocalization,2021.2.3,60.02706820708412,
fault.wav,fault.mpg,fault,3,AV,Pink_Noise_3_1.wav,Pink_Noise_3_2.wav,,,,,,,,,,,,,,,0,68,68,98,,,,,,,,,,,,,,,,,,,,,,,1003.0401949910447,None,1004.5566979469731,None,1005.9400433069095,None,"fault
",1005.9400433069095,None,return,5.60249107517302,1006.023631230928,None,,,,,,,,,,,,,,,,,,,,,,,,,,,,,,,,,,,,,,,137,001,2023_Nov_17_1628,SpeechDraft1Carolyn_lessNoise_PlusLocalization,2021.2.3,60.02706820708412,
blink.wav,blink.mpg,blink,1,A,Pink_Noise_1_1.wav,Pink_Noise_1_2.wav,,,,,,,,,,,,,,,0,69,69,16,,,,,,,,,,,,,,,,,,,,,,,1011.6568843079731,None,1013.1577526507899,None,1014.5402340837754,None,lake,1014.5402340837754,None,return,4.794597742613405,1014.623506735079,None,,,,,,,,,,,,,,,,,,,,,,,,,,,,,,,,,,,,,,,137,001,2023_Nov_17_1628,SpeechDraft1Carolyn_lessNoise_PlusLocalization,2021.2.3,60.02706820708412,
gown.wav,gown.mpg,gown,6,AV,Pink_Noise_6_1.wav,Pink_Noise_6_2.wav,,,,,,,,,,,,,,,0,70,70,62,,,,,,,,,,,,,,,,,,,,,,,1019.4404321881011,None,1020.9399529621005,None,1022.323347886093,None,gown,1022.323347886093,None,return,4.491089530289173,1022.407013618853,None,,,,,,,,,,,,,,,,,,,,,,,,,,,,,,,,,,,,,,,137,001,2023_Nov_17_1628,SpeechDraft1Carolyn_lessNoise_PlusLocalization,2021.2.3,60.02706820708412,
live.wav,live.mpg,live,6,AV,Pink_Noise_6_1.wav,Pink_Noise_6_2.wav,,,,,,,,,,,,,,,0,71,71,63,,,,,,,,,,,,,,,,,,,,,,,1026.9235430900007,None,1028.4400073490106,None,1029.8235415951349,None,live,1029.8235415951349,None,return,9.831210975069553,1029.9069227050059,None,,,,,,,,,,,,,,,,,,,,,,,,,,,,,,,,,,,,,,,137,001,2023_Nov_17_1628,SpeechDraft1Carolyn_lessNoise_PlusLocalization,2021.2.3,60.02706820708412,
clown.wav,clown.mpg,clown,6,A,Pink_Noise_6_1.wav,Pink_Noise_6_2.wav,,,,,,,,,,,,,,,0,72,72,3,,,,,,,,,,,,,,,,,,,,,,,1039.7569856219925,None,1041.2565822810866,None,1042.6401936379261,None,kow,1042.6401936379261,None,return,6.158533615060151,1042.7235712348484,None,,,,,,,,,,,,,,,,,,,,,,,,,,,,,,,,,,,,,,,137,001,2023_Nov_17_1628,SpeechDraft1Carolyn_lessNoise_PlusLocalization,2021.2.3,60.02706820708412,
crude.wav,crude.mpg,crude,1,A,Pink_Noise_1_1.wav,Pink_Noise_1_2.wav,,,,,,,,,,,,,,,0,73,73,40,,,,,,,,,,,,,,,,,,,,,,,1048.9068442769349,None,1050.4066599807702,None,1051.7903351318091,None,crude,1051.7903351318091,None,return,3.6966203479096293,1051.8735805461183,None,,,,,,,,,,,,,,,,,,,,,,,,,,,,,,,,,,,,,,,137,001,2023_Nov_17_1628,SpeechDraft1Carolyn_lessNoise_PlusLocalization,2021.2.3,60.02706820708412,
golf.wav,golf.mpg,golf,1,AV,Pink_Noise_1_1.wav,Pink_Noise_1_2.wav,,,,,,,,,,,,,,,0,74,74,116,,,,,,,,,,,,,,,,,,,,,,,1055.5904262508266,None,1057.0901970621198,None,1058.4735636748374,None,golf,1058.4735636748374,None,return,3.1490648589096963,1058.5571543378755,None,,,,,,,,,,,,,,,,,,,,,,,,,,,,,,,,,,,,,,,137,001,2023_Nov_17_1628,SpeechDraft1Carolyn_lessNoise_PlusLocalization,2021.2.3,60.02706820708412,
ball.wav,ball.mpg,ball,2,AV,Pink_Noise_2_1.wav,Pink_Noise_2_2.wav,,,,,,,,,,,,,,,0,75,75,89,,,,,,,,,,,,,,,,,,,,,,,1061.723650983069,None,1063.2240421636961,None,1064.6069592349231,None,ball,1064.6069592349231,None,return,3.2238693861290812,1064.6903705908917,None,,,,,,,,,,,,,,,,,,,,,,,,,,,,,,,,,,,,,,,137,001,2023_Nov_17_1628,SpeechDraft1Carolyn_lessNoise_PlusLocalization,2021.2.3,60.02706820708412,
bond.wav,bond.mpg,bond,3,AV,Pink_Noise_3_1.wav,Pink_Noise_3_2.wav,,,,,,,,,,,,,,,0,76,76,104,,,,,,,,,,,,,,,,,,,,,,,1067.9401961020194,None,1069.4566219290718,None,1070.840159774758,None,bond,1070.840159774758,None,return,2.654607863165438,1070.9235006677918,None,,,,,,,,,,,,,,,,,,,,,,,,,,,,,,,,,,,,,,,137,001,2023_Nov_17_1628,SpeechDraft1Carolyn_lessNoise_PlusLocalization,2021.2.3,60.02706820708412,
cube.wav,cube.mpg,cube,3,A,Pink_Noise_3_1.wav,Pink_Noise_3_2.wav,,,,,,,,,,,,,,,0,77,77,32,,,,,,,,,,,,,,,,,,,,,,,1073.6070152600296,None,1075.1066497960128,None,1076.490146763157,None,cute,1076.490146763157,None,return,2.556726205162704,1076.5735401618294,None,,,,,,,,,,,,,,,,,,,,,,,,,,,,,,,,,,,,,,,137,001,2023_Nov_17_1628,SpeechDraft1Carolyn_lessNoise_PlusLocalization,2021.2.3,60.02706820708412,
flag.wav,flag.mpg,flag,5,AV,Pink_Noise_5_1.wav,Pink_Noise_5_2.wav,,,,,,,,,,,,,,,0,78,78,74,,,,,,,,,,,,,,,,,,,,,,,1079.1570092458278,None,1080.6566691668704,None,1082.040098868776,None,flag,1082.040098868776,None,return,9.030494983308017,1082.1236925697885,None,,,,,,,,,,,,,,,,,,,,,,,,,,,,,,,,,,,,,,,137,001,2023_Nov_17_1628,SpeechDraft1Carolyn_lessNoise_PlusLocalization,2021.2.3,60.02706820708412,
dip.wav,dip.mpg,dip,5,AV,Pink_Noise_5_1.wav,Pink_Noise_5_2.wav,,,,,,,,,,,,,,,0,79,79,114,,,,,,,,,,,,,,,,,,,,,,,1091.1736050918698,None,1092.6899702311493,None,1094.0736228879541,None,dip,1094.0736228879541,None,return,2.6211552820168436,1094.1570560708642,None,,,,,,,,,,,,,,,,,,,,,,,,,,,,,,,,,,,,,,,137,001,2023_Nov_17_1628,SpeechDraft1Carolyn_lessNoise_PlusLocalization,2021.2.3,60.02706820708412,
card.wav,card.mpg,card,5,A,Pink_Noise_5_1.wav,Pink_Noise_5_2.wav,,,,,,,,,,,,,,,0,80,80,31,,,,,,,,,,,,,,,,,,,,,,,1096.807052404154,None,1098.3080012388527,None,1099.6902729501016,None,puddle,1099.6902729501016,None,return,4.924418385140598,1099.7736790580675,None,,,,,,,,,,,,,,,,,,,,,,,,,,,,,,,,,,,,,,,137,001,2023_Nov_17_1628,SpeechDraft1Carolyn_lessNoise_PlusLocalization,2021.2.3,60.02706820708412,
bug.wav,bug.mpg,bug,3,AV,Pink_Noise_3_1.wav,Pink_Noise_3_2.wav,,,,,,,,,,,,,,,0,81,81,79,,,,,,,,,,,,,,,,,,,,,,,1104.7237245077267,None,1106.2232756079175,None,1107.607144874055,None,"bug
",1107.607144874055,None,return,2.1355064059607685,1107.6906183669344,None,,,,,,,,,,,,,,,,,,,,,,,,,,,,,,,,,,,,,,,137,001,2023_Nov_17_1628,SpeechDraft1Carolyn_lessNoise_PlusLocalization,2021.2.3,60.02706820708412,
brawl.wav,brawl.mpg,brawl,6,A,Pink_Noise_6_1.wav,Pink_Noise_6_2.wav,,,,,,,,,,,,,,,0,82,82,23,,,,,,,,,,,,,,,,,,,,,,,1109.857029648032,None,1111.3567319400609,None,1112.7404407947324,None,strong,1112.7404407947324,None,return,11.866640731226653,1112.8235540441237,None,,,,,,,,,,,,,,,,,,,,,,,,,,,,,,,,,,,,,,,137,001,2023_Nov_17_1628,SpeechDraft1Carolyn_lessNoise_PlusLocalization,2021.2.3,60.02706820708412,
coast.wav,coast.mpg,coast,2,AV,Pink_Noise_2_1.wav,Pink_Noise_2_2.wav,,,,,,,,,,,,,,,0,83,83,69,,,,,,,,,,,,,,,,,,,,,,,1124.7070083287545,None,1126.223764476832,None,1127.6072022737935,None,coast,1127.6072022737935,None,return,2.743542439304292,1127.6905525638722,None,,,,,,,,,,,,,,,,,,,,,,,,,,,,,,,,,,,,,,,137,001,2023_Nov_17_1628,SpeechDraft1Carolyn_lessNoise_PlusLocalization,2021.2.3,60.02706820708412,
gray.wav,gray.mpg,gray,6,AV,Pink_Noise_6_1.wav,Pink_Noise_6_2.wav,,,,,,,,,,,,,,,0,84,84,60,,,,,,,,,,,,,,,,,,,,,,,1130.4571258020587,None,1131.973447016906,None,1133.3571183737367,None,"grey
",1133.3571183737367,None,return,3.6176384328864515,1133.4404703350738,None,,,,,,,,,,,,,,,,,,,,,,,,,,,,,,,,,,,,,,,137,001,2023_Nov_17_1628,SpeechDraft1Carolyn_lessNoise_PlusLocalization,2021.2.3,60.02706820708412,
bloom.wav,bloom.mpg,bloom,4,A,Pink_Noise_4_1.wav,Pink_Noise_4_2.wav,,,,,,,,,,,,,,,0,85,85,11,,,,,,,,,,,,,,,,,,,,,,,1137.0903933080845,None,1138.6068693050183,None,1139.9904360240325,None,lift,1139.9904360240325,None,return,7.960254021920264,1140.0738489590585,None,,,,,,,,,,,,,,,,,,,,,,,,,,,,,,,,,,,,,,,137,001,2023_Nov_17_1628,SpeechDraft1Carolyn_lessNoise_PlusLocalization,2021.2.3,60.02706820708412,
fence.wav,fence.mpg,fence,4,A,Pink_Noise_4_1.wav,Pink_Noise_4_2.wav,,,,,,,,,,,,,,,0,86,86,12,,,,,,,,,,,,,,,,,,,,,,,1148.0570626049303,None,1149.573521060869,None,1150.9571463600732,None,bounce,1150.9571463600732,None,return,3.825762060005218,1151.040340391919,None,,,,,,,,,,,,,,,,,,,,,,,,,,,,,,,,,,,,,,,137,001,2023_Nov_17_1628,SpeechDraft1Carolyn_lessNoise_PlusLocalization,2021.2.3,60.02706820708412,
brand.wav,brand.mpg,brand,5,AV,Pink_Noise_5_1.wav,Pink_Noise_5_2.wav,,,,,,,,,,,,,,,0,87,87,119,,,,,,,,,,,,,,,,,,,,,,,1154.890562437009,None,1156.3902415307239,None,1157.7737463801168,None,play,1157.7737463801168,None,return,17.52887575607747,1157.857230877038,None,,,,,,,,,,,,,,,,,,,,,,,,,,,,,,,,,,,,,,,137,001,2023_Nov_17_1628,SpeechDraft1Carolyn_lessNoise_PlusLocalization,2021.2.3,60.02706820708412,
eight.wav,eight.mpg,eight,4,A,Pink_Noise_4_1.wav,Pink_Noise_4_2.wav,,,,,,,,,,,,,,,0,88,88,10,,,,,,,,,,,,,,,,,,,,,,,1175.407071677968,None,1176.923509258777,None,1178.306938789785,None,ate,1178.306938789785,None,return,4.69157307036221,1178.390528445132,None,,,,,,,,,,,,,,,,,,,,,,,,,,,,,,,,,,,,,,,137,001,2023_Nov_17_1628,SpeechDraft1Carolyn_lessNoise_PlusLocalization,2021.2.3,60.02706820708412,
depth.wav,depth.mpg,depth,3,A,Pink_Noise_3_1.wav,Pink_Noise_3_2.wav,,,,,,,,,,,,,,,0,89,89,1,,,,,,,,,,,,,,,,,,,,,,,1183.1072251778096,None,1184.6066801589914,None,1185.990457884036,None,depth,1185.990457884036,None,return,2.416326198261231,1186.073880857788,None,,,,,,,,,,,,,,,,,,,,,,,,,,,,,,,,,,,,,,,137,001,2023_Nov_17_1628,SpeechDraft1Carolyn_lessNoise_PlusLocalization,2021.2.3,60.02706820708412,
crew.wav,crew.mpg,crew,2,A,Pink_Noise_2_1.wav,Pink_Noise_2_2.wav,,,,,,,,,,,,,,,0,90,90,15,,,,,,,,,,,,,,,,,,,,,,,1188.5072530470788,None,1190.0232198657468,None,1191.4072896270081,None,crew,1191.4072896270081,None,return,2.0557593940757215,1191.490478774067,None,,,,,,,,,,,,,,,,,,,,,,,,,,,,,,,,,,,,,,,137,001,2023_Nov_17_1628,SpeechDraft1Carolyn_lessNoise_PlusLocalization,2021.2.3,60.02706820708412,
bowl.wav,bowl.mpg,bowl,2,AV,Pink_Noise_2_1.wav,Pink_Noise_2_2.wav,,,,,,,,,,,,,,,0,91,91,105,,,,,,,,,,,,,,,,,,,,,,,1193.5737280980684,None,1195.074021691922,None,1196.456976451911,None,bowl,1196.456976451911,None,return,2.7255600970238447,1196.5405796607956,None,,,,,,,,,,,,,,,,,,,,,,,,,,,,,,,,,,,,,,,137,001,2023_Nov_17_1628,SpeechDraft1Carolyn_lessNoise_PlusLocalization,2021.2.3,60.02706820708412,
claw.wav,claw.mpg,claw,6,AV,Pink_Noise_6_1.wav,Pink_Noise_6_2.wav,,,,,,,,,,,,,,,0,92,92,107,,,,,,,,,,,,,,,,,,,,,,,1199.290595157072,None,1200.8068398740143,None,1202.1903619589284,None,lock,1202.1903619589284,None,return,5.688236177898943,1202.273963560816,None,,,,,,,,,,,,,,,,,,,,,,,,,,,,,,,,,,,,,,,137,001,2023_Nov_17_1628,SpeechDraft1Carolyn_lessNoise_PlusLocalization,2021.2.3,60.02706820708412,
frog.wav,frog.mpg,frog,5,AV,Pink_Noise_5_1.wav,Pink_Noise_5_2.wav,,,,,,,,,,,,,,,0,93,93,67,,,,,,,,,,,,,,,,,,,,,,,1207.9904887559824,None,1209.5068105468526,None,1210.8905501510017,None,fraud,1210.8905501510017,None,return,6.228369950316846,1210.9737421260215,None,,,,,,,,,,,,,,,,,,,,,,,,,,,,,,,,,,,,,,,137,001,2023_Nov_17_1628,SpeechDraft1Carolyn_lessNoise_PlusLocalization,2021.2.3,60.02706820708412,
tomb.wav,tomb.mpg,tomb,3,AV,Pink_Noise_3_1.wav,Pink_Noise_3_2.wav,,,,,,,,,,,,,,,0,94,94,91,,,,,,,,,,,,,,,,,,,,,,,1217.2238724650815,None,1218.7402510531247,None,1220.1237396090291,None,chew,1220.1237396090291,None,return,3.210956868249923,1220.2071549380198,None,,,,,,,,,,,,,,,,,,,,,,,,,,,,,,,,,,,,,,,137,001,2023_Nov_17_1628,SpeechDraft1Carolyn_lessNoise_PlusLocalization,2021.2.3,60.02706820708412,
cop.wav,cop.mpg,cop,1,A,Pink_Noise_1_1.wav,Pink_Noise_1_2.wav,,,,,,,,,,,,,,,0,95,95,39,,,,,,,,,,,,,,,,,,,,,,,1223.4406062900089,None,1224.957154943142,None,1226.3407107139938,None,cop,1226.3407107139938,None,return,1.9303276939317584,1226.4238227088936,None,,,,,,,,,,,,,,,,,,,,,,,,,,,,,,,,,,,,,,,137,001,2023_Nov_17_1628,SpeechDraft1Carolyn_lessNoise_PlusLocalization,2021.2.3,60.02706820708412,
drive.wav,drive.mpg,drive,1,AV,Pink_Noise_1_1.wav,Pink_Noise_1_2.wav,,,,,,,,,,,,,,,0,96,96,73,,,,,,,,,,,,,,,,,,,,,,,1228.3739654147066,None,1229.8737872298807,None,1231.257157809101,None,"drive
",1231.257157809101,None,return,7.317568276077509,1231.3405547928996,None,,,,,,,,,,,,,,,,,,,,,,,,,,,,,,,,,,,,,,,137,001,2023_Nov_17_1628,SpeechDraft1Carolyn_lessNoise_PlusLocalization,2021.2.3,60.02706820708412,
gas.wav,gas.mpg,gas,6,A,Pink_Noise_6_1.wav,Pink_Noise_6_2.wav,,,,,,,,,,,,,,,0,97,97,27,,,,,,,,,,,,,,,,,,,,,,,1238.6906546819955,None,1240.2068415530957,None,1241.5906604127958,None,down,1241.5906604127958,None,return,6.696427071001381,1241.6738195638172,None,,,,,,,,,,,,,,,,,,,,,,,,,,,,,,,,,,,,,,,137,001,2023_Nov_17_1628,SpeechDraft1Carolyn_lessNoise_PlusLocalization,2021.2.3,60.02706820708412,
blob.wav,blob.mpg,blob,4,A,Pink_Noise_4_1.wav,Pink_Noise_4_2.wav,,,,,,,,,,,,,,,0,98,98,19,,,,,,,,,,,,,,,,,,,,,,,1248.390452245716,None,1249.8902682699263,None,1251.2740949797444,None,flg,1251.2740949797444,None,return,6.0610580570064485,1251.357058038935,None,,,,,,,,,,,,,,,,,,,,,,,,,,,,,,,,,,,,,,,137,001,2023_Nov_17_1628,SpeechDraft1Carolyn_lessNoise_PlusLocalization,2021.2.3,60.02706820708412,
dad.wav,dad.mpg,dad,6,AV,Pink_Noise_6_1.wav,Pink_Noise_6_2.wav,,,,,,,,,,,,,,,0,99,99,75,,,,,,,,,,,,,,,,,,,,,,,1257.4405619669706,None,1258.956825967878,None,1260.3404087689705,None,dad,1260.3404087689705,None,return,3.7621656111441553,1260.4239453161135,None,,,,,,,,,,,,,,,,,,,,,,,,,,,,,,,,,,,,,,,137,001,2023_Nov_17_1628,SpeechDraft1Carolyn_lessNoise_PlusLocalization,2021.2.3,60.02706820708412,
wild.wav,wild.mpg,wild,1,AV,Pink_Noise_1_1.wav,Pink_Noise_1_2.wav,,,,,,,,,,,,,,,0,100,100,110,,,,,,,,,,,,,,,,,,,,,,,1264.207137980964,None,1265.723585556727,None,1267.1071083131246,None,wild,1267.1071083131246,None,return,6.131393082905561,1267.1907904958352,None,,,,,,,,,,,,,,,,,,,,,,,,,,,,,,,,,,,,,,,137,001,2023_Nov_17_1628,SpeechDraft1Carolyn_lessNoise_PlusLocalization,2021.2.3,60.02706820708412,
den.wav,den.mpg,den,5,A,Pink_Noise_5_1.wav,Pink_Noise_5_2.wav,,,,,,,,,,,,,,,0,101,101,58,,,,,,,,,,,,,,,,,,,,,,,1273.340631334111,None,1274.8571743979119,None,1276.2405323181301,None,dam,1276.2405323181301,None,return,8.158041979651898,1276.324051498901,None,,,,,,,,,,,,,,,,,,,,,,,,,,,,,,,,,,,,,,,137,001,2023_Nov_17_1628,SpeechDraft1Carolyn_lessNoise_PlusLocalization,2021.2.3,60.02706820708412,
chunk.wav,chunk.mpg,chunk,4,AV,Pink_Noise_4_1.wav,Pink_Noise_4_2.wav,,,,,,,,,,,,,,,0,102,102,61,,,,,,,,,,,,,,,,,,,,,,,1284.5071189398877,None,1286.023883078713,None,1287.4071902381256,None,chug,1287.4071902381256,None,return,4.031449839007109,1287.490753327962,None,,,,,,,,,,,,,,,,,,,,,,,,,,,,,,,,,,,,,,,137,001,2023_Nov_17_1628,SpeechDraft1Carolyn_lessNoise_PlusLocalization,2021.2.3,60.02706820708412,
fix.wav,fix.mpg,fix,5,AV,Pink_Noise_5_1.wav,Pink_Noise_5_2.wav,,,,,,,,,,,,,,,0,103,103,118,,,,,,,,,,,,,,,,,,,,,,,1291.54056304181,None,1293.0570836118422,None,1294.4405745468102,None,"fix
",1294.4405745468102,None,return,4.550332149025053,1294.5237982808612,None,,,,,,,,,,,,,,,,,,,,,,,,,,,,,,,,,,,,,,,137,001,2023_Nov_17_1628,SpeechDraft1Carolyn_lessNoise_PlusLocalization,2021.2.3,60.02706820708412,
cheek.wav,cheek.mpg,cheek,2,AV,Pink_Noise_2_1.wav,Pink_Noise_2_2.wav,,,,,,,,,,,,,,,0,104,104,84,,,,,,,,,,,,,,,,,,,,,,,1299.107589086052,None,1300.6568724177778,None,1302.0238052951172,None,"cheek
",1302.0238052951172,None,return,11.902818467933685,1302.107301516924,None,,,,,,,,,,,,,,,,,,,,,,,,,,,,,,,,,,,,,,,137,001,2023_Nov_17_1628,SpeechDraft1Carolyn_lessNoise_PlusLocalization,2021.2.3,60.02706820708412,
cook.wav,cook.mpg,cook,3,AV,Pink_Noise_3_1.wav,Pink_Noise_3_2.wav,,,,,,,,,,,,,,,0,105,105,83,,,,,,,,,,,,,,,,,,,,,,,1314.040751399938,None,1315.5569890858606,None,1316.9404509561136,None,cook,1316.9404509561136,None,return,1.9623048063367605,1317.0238001267426,None,,,,,,,,,,,,,,,,,,,,,,,,,,,,,,,,,,,,,,,137,001,2023_Nov_17_1628,SpeechDraft1Carolyn_lessNoise_PlusLocalization,2021.2.3,60.02706820708412,
fate.wav,fate.mpg,fate,2,AV,Pink_Noise_2_1.wav,Pink_Noise_2_2.wav,,,,,,,,,,,,,,,0,106,106,106,,,,,,,,,,,,,,,,,,,,,,,1319.0074369697832,None,1320.5236571799032,None,1321.907413115725,None,faint,1321.907413115725,None,return,4.387449042871594,1321.9906415049918,None,,,,,,,,,,,,,,,,,,,,,,,,,,,,,,,,,,,,,,,137,001,2023_Nov_17_1628,SpeechDraft1Carolyn_lessNoise_PlusLocalization,2021.2.3,60.02706820708412,
clot.wav,clot.mpg,clot,4,A,Pink_Noise_4_1.wav,Pink_Noise_4_2.wav,,,,,,,,,,,,,,,0,107,107,30,,,,,,,,,,,,,,,,,,,,,,,1326.407262319699,None,1327.9235486928374,None,1329.30747818714,None,glad,1329.30747818714,None,return,8.163572264835238,1329.3907413948327,None,,,,,,,,,,,,,,,,,,,,,,,,,,,,,,,,,,,,,,,137,001,2023_Nov_17_1628,SpeechDraft1Carolyn_lessNoise_PlusLocalization,2021.2.3,60.02706820708412,
eat.wav,eat.mpg,eat,3,A,Pink_Noise_3_1.wav,Pink_Noise_3_2.wav,,,,,,,,,,,,,,,0,108,108,35,,,,,,,,,,,,,,,,,,,,,,,1337.574202687014,None,1339.0740442327224,None,1340.457399892155,None,beat,1340.457399892155,None,return,1.8053001160733402,1340.5408222787082,None,,,,,,,,,,,,,,,,,,,,,,,,,,,,,,,,,,,,,,,137,001,2023_Nov_17_1628,SpeechDraft1Carolyn_lessNoise_PlusLocalization,2021.2.3,60.02706820708412,
fluent.wav,fluent.mpg,fluent,1,A,Pink_Noise_1_1.wav,Pink_Noise_1_2.wav,,,,,,,,,,,,,,,0,109,109,53,,,,,,,,,,,,,,,,,,,,,,,1342.3740986906923,None,1343.8904717909172,None,1345.2739595528692,None,fluent,1345.2739595528692,None,return,3.20465897815302,1345.3574592359364,None,,,,,,,,,,,,,,,,,,,,,,,,,,,,,,,,,,,,,,,137,001,2023_Nov_17_1628,SpeechDraft1Carolyn_lessNoise_PlusLocalization,2021.2.3,60.02706820708412,
cream.wav,cream.mpg,cream,6,AV,Pink_Noise_6_1.wav,Pink_Noise_6_2.wav,,,,,,,,,,,,,,,0,110,110,94,,,,,,,,,,,,,,,,,,,,,,,1348.5905953780748,None,1350.1071271779947,None,1351.490497848019,None,early,1351.490497848019,None,return,14.412042192183435,1351.5740880318917,None,,,,,,,,,,,,,,,,,,,,,,,,,,,,,,,,,,,,,,,137,001,2023_Nov_17_1628,SpeechDraft1Carolyn_lessNoise_PlusLocalization,2021.2.3,60.02706820708412,
fist.wav,fist.mpg,fist,1,A,Pink_Noise_1_1.wav,Pink_Noise_1_2.wav,,,,,,,,,,,,,,,0,111,111,47,,,,,,,,,,,,,,,,,,,,,,,1366.0074658389203,None,1367.5404535317793,None,1368.9241150110029,None,fist,1368.9241150110029,None,return,4.522778061684221,1369.0074357730336,None,,,,,,,,,,,,,,,,,,,,,,,,,,,,,,,,,,,,,,,137,001,2023_Nov_17_1628,SpeechDraft1Carolyn_lessNoise_PlusLocalization,2021.2.3,60.02706820708412,
blade.wav,blade.mpg,blade,4,AV,Pink_Noise_4_1.wav,Pink_Noise_4_2.wav,,,,,,,,,,,,,,,0,112,112,88,,,,,,,,,,,,,,,,,,,,,,,1373.5574933891185,None,1375.0903868358582,None,1376.4739850279875,None,blade,1376.4739850279875,None,return,2.5326686981134117,1376.5575349298306,None,,,,,,,,,,,,,,,,,,,,,,,,,,,,,,,,,,,,,,,137,001,2023_Nov_17_1628,SpeechDraft1Carolyn_lessNoise_PlusLocalization,2021.2.3,60.02706820708412,
guess.wav,guess.mpg,guess,6,A,Pink_Noise_6_1.wav,Pink_Noise_6_2.wav,,,,,,,,,,,,,,,0,113,113,46,,,,,,,,,,,,,,,,,,,,,,,1379.107481162995,None,1380.6237091068178,None,1382.007335470058,None,duck,1382.007335470058,None,return,3.0234737507998943,1382.090810147114,None,,,,,,,,,,,,,,,,,,,,,,,,,,,,,,,,,,,,,,,137,001,2023_Nov_17_1628,SpeechDraft1Carolyn_lessNoise_PlusLocalization,2021.2.3,60.02706820708412,
duke.wav,duke.mpg,duke,2,A,Pink_Noise_2_1.wav,Pink_Noise_2_2.wav,,,,,,,,,,,,,,,0,114,114,8,,,,,,,,,,,,,,,,,,,,,,,1385.1407830826938,None,1386.6904766228981,None,1388.0740371588618,None,dupe,1388.0740371588618,None,return,3.372841600794345,1388.157462712843,None,,,,,,,,,,,,,,,,,,,,,,,,,,,,,,,,,,,,,,,137,001,2023_Nov_17_1628,SpeechDraft1Carolyn_lessNoise_PlusLocalization,2021.2.3,60.02706820708412,
priest.wav,priest.mpg,priest,5,AV,Pink_Noise_5_1.wav,Pink_Noise_5_2.wav,,,,,,,,,,,,,,,0,115,115,85,,,,,,,,,,,,,,,,,,,,,,,1391.5572949070483,None,1393.0738262557425,None,1394.457461419981,None,priest,1394.457461419981,None,return,3.3734124121256173,1394.5408419258893,None,,,,,,,,,,,,,,,,,,,,,,,,,,,,,,,,,,,,,,,137,001,2023_Nov_17_1628,SpeechDraft1Carolyn_lessNoise_PlusLocalization,2021.2.3,60.02706820708412,
cap.wav,cap.mpg,cap,1,AV,Pink_Noise_1_1.wav,Pink_Noise_1_2.wav,,,,,,,,,,,,,,,0,116,116,111,,,,,,,,,,,,,,,,,,,,,,,1397.940882938914,None,1399.47385672573,None,1400.8575729057193,None,cap,1400.8575729057193,None,return,1.7495193663053215,1400.9406600161456,None,,,,,,,,,,,,,,,,,,,,,,,,,,,,,,,,,,,,,,,137,001,2023_Nov_17_1628,SpeechDraft1Carolyn_lessNoise_PlusLocalization,2021.2.3,60.02706820708412,
roar.wav,roar.mpg,roar,5,AV,Pink_Noise_5_1.wav,Pink_Noise_5_2.wav,,,,,,,,,,,,,,,0,117,117,86,,,,,,,,,,,,,,,,,,,,,,,1402.707350664772,None,1404.2405281751417,None,1405.6239859270863,None,wore,1405.6239859270863,None,return,5.6547338319942355,1405.7073874347843,None,,,,,,,,,,,,,,,,,,,,,,,,,,,,,,,,,,,,,,,137,001,2023_Nov_17_1628,SpeechDraft1Carolyn_lessNoise_PlusLocalization,2021.2.3,60.02706820708412,
grim.wav,grim.mpg,grim,4,AV,Pink_Noise_4_1.wav,Pink_Noise_4_2.wav,,,,,,,,,,,,,,,0,118,118,97,,,,,,,,,,,,,,,,,,,,,,,1411.3908769227564,None,1412.9072539177723,None,1414.2905432297848,None,grim,1414.2905432297848,None,return,5.323951858095825,1414.3742619520053,None,,,,,,,,,,,,,,,,,,,,,,,,,,,,,,,,,,,,,,,137,001,2023_Nov_17_1628,SpeechDraft1Carolyn_lessNoise_PlusLocalization,2021.2.3,60.02706820708412,
grain.wav,grain.mpg,grain,1,AV,Pink_Noise_1_1.wav,Pink_Noise_1_2.wav,,,,,,,,,,,,,,,0,119,119,109,,,,,,,,,,,,,,,,,,,,,,,1419.724219945725,None,1421.2905819579028,None,1422.6741154580377,None,"grain
",1422.6741154580377,None,return,3.8686242550611496,1422.7574959658086,None,,,,,,,,,,,,,,,,,,,,,,,,,,,,,,,,,,,,,,,137,001,2023_Nov_17_1628,SpeechDraft1Carolyn_lessNoise_PlusLocalization,2021.2.3,60.02706820708412,
,,,,,,,,,,,,,,,,,,,,,,,,,,,,,,,,,,,,,,,,,,,,,,,,,,,,,,,,,,,,,,,,,,space,22.0134059288539,1426.740834924858,None,,,,,,,,,,,,,,,,,,,,,,,,,,,,,137,001,2023_Nov_17_1628,SpeechDraft1Carolyn_lessNoise_PlusLocalization,2021.2.3,60.02706820708412,
,,,,,,,,farRight,19.1,4,ch1Sound_localizationTask.wav,19.1,"(1237, 878)","(277,-202)",285,-338,,,,,,,,,0,0,0,6,,,,,,,,,,,,,,,,,,,,,,,,,,,,,,,,,,,,,,,,,,1426.740834924858,None,1448.7904976238497,None,1449.8906402597204,None,1450.8239370840602,None,1.626984126984127,3.7707716077566147,1450.8239370840602,None,,,,,,,,,,,,,,,,,137,001,2023_Nov_17_1628,SpeechDraft1Carolyn_lessNoise_PlusLocalization,2021.2.3,60.02706820708412,
,,,,,,,,farLeft,-19.1,5,ch1Sound_localizationTask.wav,-19.1,"(667, 878)","(-293,-202)",-285,-338,,,,,,,,,0,1,1,0,,,,,,,,,,,,,,,,,,,,,,,,,,,,,,,,,,,,,,,,,,,,1454.607508903835,None,1455.7071608928964,None,1456.6406241790392,None,1.3015873015873016,1.566227245144546,1456.6406241790392,None,,,,,,,,,,,,,,,,,137,001,2023_Nov_17_1628,SpeechDraft1Carolyn_lessNoise_PlusLocalization,2021.2.3,60.02706820708412,
,,,,,,,,nearLeft,-6.5,1,ch1Sound_localizationTask.wav,-6.5,"(857, 878)","(-103,-202)",-95,-338,,,,,,,,,0,2,2,2,,,,,,,,,,,,,,,,,,,,,,,,,,,,,,,,,,,,,,,,,,,,1458.2074661017396,None,1459.3071847851388,None,1460.2406658581458,None,1.3582010582010582,0.7817611680366099,1460.2406658581458,None,,,,,,,,,,,,,,,,,137,001,2023_Nov_17_1628,SpeechDraft1Carolyn_lessNoise_PlusLocalization,2021.2.3,60.02706820708412,
,,,,,,,,center,0.0,6,ch1Sound_localizationTask.wav,0.0,"(952, 878)","(-8,-202)",0,-338,,,,,,,,,0,3,3,3,,,,,,,,,,,,,,,,,,,,,,,,,,,,,,,,,,,,,,,,,,,,1461.0240429439582,None,1462.1238105897792,None,1463.0571866258979,None,1.4047619047619047,1.0667130891233683,1463.0571866258979,None,,,,,,,,,,,,,,,,,137,001,2023_Nov_17_1628,SpeechDraft1Carolyn_lessNoise_PlusLocalization,2021.2.3,60.02706820708412,
,,,,,,,,midLeft,-13.0,2,ch1Sound_localizationTask.wav,-13.0,"(762, 878)","(-198,-202)",-190,-338,,,,,,,,,0,4,4,1,,,,,,,,,,,,,,,,,,,,,,,,,,,,,,,,,,,,,,,,,,,,1464.1245500887744,None,1465.223874494899,None,1466.1574427140877,None,1.3724867724867724,0.7332401489838958,1466.1574427140877,None,,,,,,,,,,,,,,,,,137,001,2023_Nov_17_1628,SpeechDraft1Carolyn_lessNoise_PlusLocalization,2021.2.3,60.02706820708412,
,,,,,,,,midLeft,-13.0,2,ch1Sound_localizationTask.wav,-13.0,"(762, 878)","(-198,-202)",-190,-338,,,,,,,,,0,5,5,1,,,,,,,,,,,,,,,,,,,,,,,,,,,,,,,,,,,,,,,,,,,,1466.8910804940388,None,1467.9904071809724,None,1468.923925105948,None,1.3687830687830687,0.9666019752621651,1468.923925105948,None,,,,,,,,,,,,,,,,,137,001,2023_Nov_17_1628,SpeechDraft1Carolyn_lessNoise_PlusLocalization,2021.2.3,60.02706820708412,
,,,,,,,,farLeft,-19.1,5,ch1Sound_localizationTask.wav,-19.1,"(667, 878)","(-293,-202)",-285,-338,,,,,,,,,0,6,6,0,,,,,,,,,,,,,,,,,,,,,,,,,,,,,,,,,,,,,,,,,,,,1469.8910023560748,None,1470.9904979350977,None,1471.9240489248186,None,1.33015873015873,0.8994795740582049,1471.9240489248186,None,,,,,,,,,,,,,,,,,137,001,2023_Nov_17_1628,SpeechDraft1Carolyn_lessNoise_PlusLocalization,2021.2.3,60.02706820708412,
,,,,,,,,farRight,19.1,4,ch1Sound_localizationTask.wav,19.1,"(1237, 878)","(277,-202)",285,-338,,,,,,,,,1,0,7,6,,,,,,,,,,,,,,,,,,,,,,,,,,,,,,,,,,,,,,,,,,,,1472.8241977808066,None,1473.924088427797,None,1474.8573299879208,None,1.6830687830687832,1.30194140272215,1474.8573299879208,None,,,,,,,,,,,,,,,,,137,001,2023_Nov_17_1628,SpeechDraft1Carolyn_lessNoise_PlusLocalization,2021.2.3,60.02706820708412,
,,,,,,,,midRight,13.0,3,ch1Sound_localizationTask.wav,13.0,"(1142, 878)","(182, -202)",190,-338,,,,,,,,,1,1,8,5,,,,,,,,,,,,,,,,,,,,,,,,,,,,,,,,,,,,,,,,,,,,1476.1742876078933,None,1477.2740053418092,None,1478.2072348156944,None,1.5534391534391534,1.2665548529475927,1478.2072348156944,None,,,,,,,,,,,,,,,,,137,001,2023_Nov_17_1628,SpeechDraft1Carolyn_lessNoise_PlusLocalization,2021.2.3,60.02706820708412,
,,,,,,,,farRight,19.1,4,ch1Sound_localizationTask.wav,19.1,"(1237, 878)","(277,-202)",285,-338,,,,,,,,,1,2,9,6,,,,,,,,,,,,,,,,,,,,,,,,,,,,,,,,,,,,,,,,,,,,1479.4757321989164,None,1480.5905351331457,None,1481.5071605280973,None,1.6613756613756614,0.6997578772716224,1481.5071605280973,None,,,,,,,,,,,,,,,,,137,001,2023_Nov_17_1628,SpeechDraft1Carolyn_lessNoise_PlusLocalization,2021.2.3,60.02706820708412,
,,,,,,,,nearRight,6.5,0,ch1Sound_localizationTask.wav,6.5,"(1047, 878)","(87, -202)",95,-338,,,,,,,,,1,3,10,4,,,,,,,,,,,,,,,,,,,,,,,,,,,,,,,,,,,,,,,,,,,,1482.208280691877,None,1483.3074511578307,None,1484.2405405598693,None,1.51005291005291,0.649662199895829,1484.2405405598693,None,,,,,,,,,,,,,,,,,137,001,2023_Nov_17_1628,SpeechDraft1Carolyn_lessNoise_PlusLocalization,2021.2.3,60.02706820708412,
,,,,,,,,nearLeft,-6.5,1,ch1Sound_localizationTask.wav,-6.5,"(857, 878)","(-103,-202)",-95,-338,,,,,,,,,1,4,11,2,,,,,,,,,,,,,,,,,,,,,,,,,,,,,,,,,,,,,,,,,,,,1484.8913419088349,None,1485.9906227798201,None,1486.9239213750698,None,1.4476190476190476,0.7181407418102026,1486.9239213750698,None,,,,,,,,,,,,,,,,,137,001,2023_Nov_17_1628,SpeechDraft1Carolyn_lessNoise_PlusLocalization,2021.2.3,60.02706820708412,
,,,,,,,,midRight,13.0,3,ch1Sound_localizationTask.wav,13.0,"(1142, 878)","(182, -202)",190,-338,,,,,,,,,1,5,12,5,,,,,,,,,,,,,,,,,,,,,,,,,,,,,,,,,,,,,,,,,,,,1487.6575460769236,None,1488.757528277114,None,1489.690636837855,None,1.5343915343915344,0.816513319965452,1489.690636837855,None,,,,,,,,,,,,,,,,,137,001,2023_Nov_17_1628,SpeechDraft1Carolyn_lessNoise_PlusLocalization,2021.2.3,60.02706820708412,
,,,,,,,,nearLeft,-6.5,1,ch1Sound_localizationTask.wav,-6.5,"(857, 878)","(-103,-202)",-95,-338,,,,,,,,,1,6,13,2,,,,,,,,,,,,,,,,,,,,,,,,,,,,,,,,,,,,,,,,,,,,1490.5079772807658,None,1491.6074853339233,None,1492.5406553749926,None,1.408994708994709,0.8831981527619064,1492.5406553749926,None,,,,,,,,,,,,,,,,,137,001,2023_Nov_17_1628,SpeechDraft1Carolyn_lessNoise_PlusLocalization,2021.2.3,60.02706820708412,
,,,,,,,,midLeft,-13.0,2,ch1Sound_localizationTask.wav,-13.0,"(762, 878)","(-198,-202)",-190,-338,,,,,,,,,2,0,14,1,,,,,,,,,,,,,,,,,,,,,,,,,,,,,,,,,,,,,,,,,,,,1493.4246899327263,None,1494.5239713811316,None,1495.457290402148,None,1.4063492063492062,0.7330320212058723,1495.457290402148,None,,,,,,,,,,,,,,,,,137,001,2023_Nov_17_1628,SpeechDraft1Carolyn_lessNoise_PlusLocalization,2021.2.3,60.02706820708412,
,,,,,,,,nearRight,6.5,0,ch1Sound_localizationTask.wav,6.5,"(1047, 878)","(87, -202)",95,-338,,,,,,,,,2,1,15,4,,,,,,,,,,,,,,,,,,,,,,,,,,,,,,,,,,,,,,,,,,,,1496.191974659916,None,1497.2904313877225,None,1498.2238789917901,None,1.5296296296296297,0.5832281582988799,1498.2238789917901,None,,,,,,,,,,,,,,,,,137,001,2023_Nov_17_1628,SpeechDraft1Carolyn_lessNoise_PlusLocalization,2021.2.3,60.02706820708412,
,,,,,,,,nearLeft,-6.5,1,ch1Sound_localizationTask.wav,-6.5,"(857, 878)","(-103,-202)",-95,-338,,,,,,,,,2,2,16,2,,,,,,,,,,,,,,,,,,,,,,,,,,,,,,,,,,,,,,,,,,,,1498.8085082140751,None,1499.9071911619976,None,1500.8406712408178,None,1.438095238095238,1.0157589060254395,1500.8406712408178,None,,,,,,,,,,,,,,,,,137,001,2023_Nov_17_1628,SpeechDraft1Carolyn_lessNoise_PlusLocalization,2021.2.3,60.02706820708412,
,,,,,,,,center,0.0,6,ch1Sound_localizationTask.wav,0.0,"(952, 878)","(-8,-202)",0,-338,,,,,,,,,2,3,17,3,,,,,,,,,,,,,,,,,,,,,,,,,,,,,,,,,,,,,,,,,,,,1501.8578821551055,None,1502.957224495709,None,1503.890499369707,None,1.482010582010582,0.6994869490154088,1503.890499369707,None,,,,,,,,,,,,,,,,,137,001,2023_Nov_17_1628,SpeechDraft1Carolyn_lessNoise_PlusLocalization,2021.2.3,60.02706820708412,
,,,,,,,,midRight,13.0,3,ch1Sound_localizationTask.wav,13.0,"(1142, 878)","(182, -202)",190,-338,,,,,,,,,2,4,18,5,,,,,,,,,,,,,,,,,,,,,,,,,,,,,,,,,,,,,,,,,,,,1504.5911649637856,None,1505.6906058159657,None,1506.6241027847864,None,1.561904761904762,1.1165734399110079,1506.6241027847864,None,,,,,,,,,,,,,,,,,137,001,2023_Nov_17_1628,SpeechDraft1Carolyn_lessNoise_PlusLocalization,2021.2.3,60.02706820708412,
,,,,,,,,farLeft,-19.1,5,ch1Sound_localizationTask.wav,-19.1,"(667, 878)","(-293,-202)",-285,-338,,,,,,,,,2,5,19,0,,,,,,,,,,,,,,,,,,,,,,,,,,,,,,,,,,,,,,,,,,,,1507.741231505759,None,1508.840731928125,None,1509.7738273111172,None,1.3021164021164022,0.7665938069112599,1509.7738273111172,None,,,,,,,,,,,,,,,,,137,001,2023_Nov_17_1628,SpeechDraft1Carolyn_lessNoise_PlusLocalization,2021.2.3,60.02706820708412,
,,,,,,,,nearRight,6.5,0,ch1Sound_localizationTask.wav,6.5,"(1047, 878)","(87, -202)",95,-338,,,,,,,,,2,6,20,4,,,,,,,,,,,,,,,,,,,,,,,,,,,,,,,,,,,,,,,,,,,,1510.5576439867727,None,1511.657257982064,None,1512.5906473346986,None,1.5343915343915344,0.8326196200214326,1512.5906473346986,None,,,,,,,,,,,,,,,,,137,001,2023_Nov_17_1628,SpeechDraft1Carolyn_lessNoise_PlusLocalization,2021.2.3,60.02706820708412,
,,,,,,,,farRight,19.1,4,ch1Sound_localizationTask.wav,19.1,"(1237, 878)","(277,-202)",285,-338,,,,,,,,,3,0,21,6,,,,,,,,,,,,,,,,,,,,,,,,,,,,,,,,,,,,,,,,,,,,1513.4244096898474,None,1514.523879850749,None,1515.4573138081469,None,1.626984126984127,0.6160888681188226,1515.4573138081469,None,,,,,,,,,,,,,,,,,137,001,2023_Nov_17_1628,SpeechDraft1Carolyn_lessNoise_PlusLocalization,2021.2.3,60.02706820708412,
,,,,,,,,center,0.0,6,ch1Sound_localizationTask.wav,0.0,"(952, 878)","(-8,-202)",0,-338,,,,,,,,,3,1,22,3,,,,,,,,,,,,,,,,,,,,,,,,,,,,,,,,,,,,,,,,,,,,1516.0744495680556,None,1517.1739314021543,None,1518.1072979527526,None,1.433862433862434,0.8654981921426952,1518.1072979527526,None,,,,,,,,,,,,,,,,,137,001,2023_Nov_17_1628,SpeechDraft1Carolyn_lessNoise_PlusLocalization,2021.2.3,60.02706820708412,
,,,,,,,,midRight,13.0,3,ch1Sound_localizationTask.wav,13.0,"(1142, 878)","(182, -202)",190,-338,,,,,,,,,3,2,23,5,,,,,,,,,,,,,,,,,,,,,,,,,,,,,,,,,,,,,,,,,,,,1518.97438301472,None,1520.0741778630763,None,1521.0073052248918,None,1.5756613756613755,0.932589893694967,1521.0073052248918,None,,,,,,,,,,,,,,,,,137,001,2023_Nov_17_1628,SpeechDraft1Carolyn_lessNoise_PlusLocalization,2021.2.3,60.02706820708412,
,,,,,,,,midLeft,-13.0,2,ch1Sound_localizationTask.wav,-13.0,"(762, 878)","(-198,-202)",-190,-338,,,,,,,,,3,3,24,1,,,,,,,,,,,,,,,,,,,,,,,,,,,,,,,,,,,,,,,,,,,,1521.9412843538448,None,1523.040627737064,None,1523.9739437699318,None,1.3492063492063493,0.6347354780882597,1523.9739437699318,None,,,,,,,,,,,,,,,,,137,001,2023_Nov_17_1628,SpeechDraft1Carolyn_lessNoise_PlusLocalization,2021.2.3,60.02706820708412,
,,,,,,,,farLeft,-19.1,5,ch1Sound_localizationTask.wav,-19.1,"(667, 878)","(-293,-202)",-285,-338,,,,,,,,,3,4,25,0,,,,,,,,,,,,,,,,,,,,,,,,,,,,,,,,,,,,,,,,,,,,1524.6245641871355,None,1525.7239735871553,None,1526.6574416649528,None,1.295767195767196,0.6166902901604772,1526.6574416649528,None,,,,,,,,,,,,,,,,,137,001,2023_Nov_17_1628,SpeechDraft1Carolyn_lessNoise_PlusLocalization,2021.2.3,60.02706820708412,
,,,,,,,,nearRight,6.5,0,ch1Sound_localizationTask.wav,6.5,"(1047, 878)","(87, -202)",95,-338,,,,,,,,,3,5,26,4,,,,,,,,,,,,,,,,,,,,,,,,,,,,,,,,,,,,,,,,,,,,1527.2744970498607,None,1528.3739992007613,None,1529.3072002497502,None,1.5518518518518518,0.983171840198338,1529.3072002497502,None,,,,,,,,,,,,,,,,,137,001,2023_Nov_17_1628,SpeechDraft1Carolyn_lessNoise_PlusLocalization,2021.2.3,60.02706820708412,
,,,,,,,,farLeft,-19.1,5,ch1Sound_localizationTask.wav,-19.1,"(667, 878)","(-293,-202)",-285,-338,,,,,,,,,3,6,27,0,,,,,,,,,,,,,,,,,,,,,,,,,,,,,,,,,,,,,,,,,,,,1530.2918530837633,None,1531.390675978735,None,1532.3240346699022,None,1.3650793650793651,0.7499890248291194,1532.3240346699022,None,,,,,,,,,,,,,,,,,137,001,2023_Nov_17_1628,SpeechDraft1Carolyn_lessNoise_PlusLocalization,2021.2.3,60.02706820708412,
,,,,,,,,midRight,13.0,3,ch1Sound_localizationTask.wav,13.0,"(1142, 878)","(182, -202)",190,-338,,,,,,,,,4,0,28,5,,,,,,,,,,,,,,,,,,,,,,,,,,,,,,,,,,,,,,,,,,,,1533.0749010047875,None,1534.1739291581325,None,1535.1073709819466,None,1.5455026455026455,1.8332134410738945,1535.1073709819466,None,,,,,,,,,,,,,,,,,137,001,2023_Nov_17_1628,SpeechDraft1Carolyn_lessNoise_PlusLocalization,2021.2.3,60.02706820708412,
,,,,,,,,nearRight,6.5,0,ch1Sound_localizationTask.wav,6.5,"(1047, 878)","(87, -202)",95,-338,,,,,,,,,4,1,29,4,,,,,,,,,,,,,,,,,,,,,,,,,,,,,,,,,,,,,,,,,,,,1536.9413703009486,None,1538.0406685527414,None,1538.9739066609181,None,1.5121693121693123,0.7665241360664368,1538.9739066609181,None,,,,,,,,,,,,,,,,,137,001,2023_Nov_17_1628,SpeechDraft1Carolyn_lessNoise_PlusLocalization,2021.2.3,60.02706820708412,
,,,,,,,,center,0.0,6,ch1Sound_localizationTask.wav,0.0,"(952, 878)","(-8,-202)",0,-338,,,,,,,,,4,2,30,3,,,,,,,,,,,,,,,,,,,,,,,,,,,,,,,,,,,,,,,,,,,,1539.7408691239543,None,1540.8406818709336,None,1541.7738446248695,None,1.4862433862433861,0.4318738030269742,1541.7738446248695,None,,,,,,,,,,,,,,,,,137,001,2023_Nov_17_1628,SpeechDraft1Carolyn_lessNoise_PlusLocalization,2021.2.3,60.02706820708412,
,,,,,,,,nearRight,6.5,0,ch1Sound_localizationTask.wav,6.5,"(1047, 878)","(87, -202)",95,-338,,,,,,,,,4,3,31,4,,,,,,,,,,,,,,,,,,,,,,,,,,,,,,,,,,,,,,,,,,,,1542.2076657847501,None,1543.3075415031053,None,1544.2406633258797,None,1.4984126984126984,0.3001979701220989,1544.2406633258797,None,,,,,,,,,,,,,,,,,137,001,2023_Nov_17_1628,SpeechDraft1Carolyn_lessNoise_PlusLocalization,2021.2.3,60.02706820708412,
,,,,,,,,midRight,13.0,3,ch1Sound_localizationTask.wav,13.0,"(1142, 878)","(182, -202)",190,-338,,,,,,,,,4,4,32,5,,,,,,,,,,,,,,,,,,,,,,,,,,,,,,,,,,,,,,,,,,,,1544.5414507328533,None,1545.6410057530738,None,1546.5740560409613,None,1.5227513227513227,0.21598121104761958,1546.5740560409613,None,,,,,,,,,,,,,,,,,137,001,2023_Nov_17_1628,SpeechDraft1Carolyn_lessNoise_PlusLocalization,2021.2.3,60.02706820708412,
,,,,,,,,center,0.0,6,ch1Sound_localizationTask.wav,0.0,"(952, 878)","(-8,-202)",0,-338,,,,,,,,,4,5,33,3,,,,,,,,,,,,,,,,,,,,,,,,,,,,,,,,,,,,,,,,,,,,1546.7909717410803,None,1547.8905715178698,None,1548.8240889157169,None,1.5015873015873016,0.48266672575846314,1548.8240889157169,None,,,,,,,,,,,,,,,,,137,001,2023_Nov_17_1628,SpeechDraft1Carolyn_lessNoise_PlusLocalization,2021.2.3,60.02706820708412,
,,,,,,,,nearLeft,-6.5,1,ch1Sound_localizationTask.wav,-6.5,"(857, 878)","(-103,-202)",-95,-338,,,,,,,,,4,6,34,2,,,,,,,,,,,,,,,,,,,,,,,,,,,,,,,,,,,,,,,,,,,,1549.3077280288562,None,1550.4075408359058,None,1551.3407043721527,None,1.4597883597883599,0.4662611777894199,1551.3407043721527,None,,,,,,,,,,,,,,,,,137,001,2023_Nov_17_1628,SpeechDraft1Carolyn_lessNoise_PlusLocalization,2021.2.3,60.02706820708412,
,,,,,,,,farRight,19.1,4,ch1Sound_localizationTask.wav,19.1,"(1237, 878)","(277,-202)",285,-338,,,,,,,,,5,0,35,6,,,,,,,,,,,,,,,,,,,,,,,,,,,,,,,,,,,,,,,,,,,,1551.8082870729268,None,1552.9073241949081,None,1553.8407479058951,None,1.6412698412698412,0.7833324237726629,1553.8407479058951,None,,,,,,,,,,,,,,,,,137,001,2023_Nov_17_1628,SpeechDraft1Carolyn_lessNoise_PlusLocalization,2021.2.3,60.02706820708412,
,,,,,,,,midRight,13.0,3,ch1Sound_localizationTask.wav,13.0,"(1142, 878)","(182, -202)",190,-338,,,,,,,,,5,1,36,5,,,,,,,,,,,,,,,,,,,,,,,,,,,,,,,,,,,,,,,,,,,,1554.6243196837604,None,1555.7241741521284,None,1556.6573935849592,None,1.5497354497354499,1.0172483711503446,1556.6573935849592,None,,,,,,,,,,,,,,,,,137,001,2023_Nov_17_1628,SpeechDraft1Carolyn_lessNoise_PlusLocalization,2021.2.3,60.02706820708412,
,,,,,,,,center,0.0,6,ch1Sound_localizationTask.wav,0.0,"(952, 878)","(-8,-202)",0,-338,,,,,,,,,5,2,37,3,,,,,,,,,,,,,,,,,,,,,,,,,,,,,,,,,,,,,,,,,,,,1557.6749073117971,None,1558.7740720179863,None,1559.7071662489325,None,1.5015873015873016,0.6824892638251185,1559.7071662489325,None,,,,,,,,,,,,,,,,,137,001,2023_Nov_17_1628,SpeechDraft1Carolyn_lessNoise_PlusLocalization,2021.2.3,60.02706820708412,
,,,,,,,,farLeft,-19.1,5,ch1Sound_localizationTask.wav,-19.1,"(667, 878)","(-293,-202)",-285,-338,,,,,,,,,5,3,38,0,,,,,,,,,,,,,,,,,,,,,,,,,,,,,,,,,,,,,,,,,,,,1560.391592551954,None,1561.4909470747225,None,1562.4240328767337,None,1.3846560846560847,0.7173470389097929,1562.4240328767337,None,,,,,,,,,,,,,,,,,137,001,2023_Nov_17_1628,SpeechDraft1Carolyn_lessNoise_PlusLocalization,2021.2.3,60.02706820708412,
,,,,,,,,midRight,13.0,3,ch1Sound_localizationTask.wav,13.0,"(1142, 878)","(182, -202)",190,-338,,,,,,,,,5,4,39,5,,,,,,,,,,,,,,,,,,,,,,,,,,,,,,,,,,,,,,,,,,,,1563.157790465746,None,1564.2574005280621,None,1565.1910731927492,None,1.5333333333333332,0.6324651739560068,1565.1910731927492,None,,,,,,,,,,,,,,,,,137,001,2023_Nov_17_1628,SpeechDraft1Carolyn_lessNoise_PlusLocalization,2021.2.3,60.02706820708412,
,,,,,,,,farLeft,-19.1,5,ch1Sound_localizationTask.wav,-19.1,"(667, 878)","(-293,-202)",-285,-338,,,,,,,,,5,5,40,0,,,,,,,,,,,,,,,,,,,,,,,,,,,,,,,,,,,,,,,,,,,,1565.8247311580926,None,1566.9237876548432,None,1567.8574318741448,None,1.3846560846560847,0.8993716309778392,1567.8574318741448,None,,,,,,,,,,,,,,,,,137,001,2023_Nov_17_1628,SpeechDraft1Carolyn_lessNoise_PlusLocalization,2021.2.3,60.02706820708412,
,,,,,,,,farRight,19.1,4,ch1Sound_localizationTask.wav,19.1,"(1237, 878)","(277,-202)",285,-338,,,,,,,,,5,6,41,6,,,,,,,,,,,,,,,,,,,,,,,,,,,,,,,,,,,,,,,,,,,,1568.7577086980455,None,1569.8574985959567,None,1570.7906820778735,None,1.6661375661375661,0.832791515160352,1570.7906820778735,None,,,,,,,,,,,,,,,,,137,001,2023_Nov_17_1628,SpeechDraft1Carolyn_lessNoise_PlusLocalization,2021.2.3,60.02706820708412,
,,,,,,,,farRight,19.1,4,ch1Sound_localizationTask.wav,19.1,"(1237, 878)","(277,-202)",285,-338,,,,,,,,,6,0,42,6,,,,,,,,,,,,,,,,,,,,,,,,,,,,,,,,,,,,,,,,,,,,1571.624807661865,None,1572.7240426130593,None,1573.657382484991,None,1.6835978835978835,0.8156640310771763,1573.657382484991,None,,,,,,,,,,,,,,,,,137,001,2023_Nov_17_1628,SpeechDraft1Carolyn_lessNoise_PlusLocalization,2021.2.3,60.02706820708412,
,,,,,,,,midLeft,-13.0,2,ch1Sound_localizationTask.wav,-13.0,"(762, 878)","(-198,-202)",-190,-338,,,,,,,,,6,1,43,1,,,,,,,,,,,,,,,,,,,,,,,,,,,,,,,,,,,,,,,,,,,,1574.4745437940583,None,1575.5740212169476,None,1576.507417076733,None,1.3492063492063493,0.7832610821351409,1576.507417076733,None,,,,,,,,,,,,,,,,,137,001,2023_Nov_17_1628,SpeechDraft1Carolyn_lessNoise_PlusLocalization,2021.2.3,60.02706820708412,
,,,,,,,,nearLeft,-6.5,1,ch1Sound_localizationTask.wav,-6.5,"(857, 878)","(-103,-202)",-95,-338,,,,,,,,,6,2,44,2,,,,,,,,,,,,,,,,,,,,,,,,,,,,,,,,,,,,,,,,,,,,1577.291573613882,None,1578.3905086149462,None,1579.324052460026,None,1.4232804232804233,0.7162559786811471,1579.324052460026,None,,,,,,,,,,,,,,,,,137,001,2023_Nov_17_1628,SpeechDraft1Carolyn_lessNoise_PlusLocalization,2021.2.3,60.02706820708412,
,,,,,,,,center,0.0,6,ch1Sound_localizationTask.wav,0.0,"(952, 878)","(-8,-202)",0,-338,,,,,,,,,6,3,45,3,,,,,,,,,,,,,,,,,,,,,,,,,,,,,,,,,,,,,,,,,,,,1580.0408019879833,None,1581.1405663890764,None,1582.0743059930392,None,1.4365079365079365,0.549994682893157,1582.0743059930392,None,,,,,,,,,,,,,,,,,137,001,2023_Nov_17_1628,SpeechDraft1Carolyn_lessNoise_PlusLocalization,2021.2.3,60.02706820708412,
,,,,,,,,nearRight,6.5,0,ch1Sound_localizationTask.wav,6.5,"(1047, 878)","(87, -202)",95,-338,,,,,,,,,6,4,46,4,,,,,,,,,,,,,,,,,,,,,,,,,,,,,,,,,,,,,,,,,,,,1582.6258556907997,None,1583.7407007617876,None,1584.6571677718312,None,1.5063492063492063,0.932676438242197,1584.6571677718312,None,,,,,,,,,,,,,,,,,137,001,2023_Nov_17_1628,SpeechDraft1Carolyn_lessNoise_PlusLocalization,2021.2.3,60.02706820708412,
,,,,,,,,center,0.0,6,ch1Sound_localizationTask.wav,0.0,"(952, 878)","(-8,-202)",0,-338,,,,,,,,,6,5,47,3,,,,,,,,,,,,,,,,,,,,,,,,,,,,,,,,,,,,,,,,,,,,1585.5912223849446,None,1586.690785153769,None,1587.6240737708285,None,1.4867724867724867,0.7658230387605727,1587.6240737708285,None,,,,,,,,,,,,,,,,,137,001,2023_Nov_17_1628,SpeechDraft1Carolyn_lessNoise_PlusLocalization,2021.2.3,60.02706820708412,
,,,,,,,,nearLeft,-6.5,1,ch1Sound_localizationTask.wav,-6.5,"(857, 878)","(-103,-202)",-95,-338,,,,,,,,,6,6,48,2,,,,,,,,,,,,,,,,,,,,,,,,,,,,,,,,,,,,,,,,,,,,1588.3913233219646,None,1589.4907146119513,None,1590.4242416908965,None,1.4582010582010583,0.5328609608113766,1590.4242416908965,None,,,,,,,,,,,,,,,,,137,001,2023_Nov_17_1628,SpeechDraft1Carolyn_lessNoise_PlusLocalization,2021.2.3,60.02706820708412,
,,,,,,,,farLeft,-19.1,5,ch1Sound_localizationTask.wav,-19.1,"(667, 878)","(-293,-202)",-285,-338,,,,,,,,,7,0,49,0,,,,,,,,,,,,,,,,,,,,,,,,,,,,,,,,,,,,,,,,,,,,1590.9576165238395,None,1592.0576048600487,None,1592.9907460231334,None,1.3777777777777778,0.7986782998777926,1592.9907460231334,None,,,,,,,,,,,,,,,,,137,001,2023_Nov_17_1628,SpeechDraft1Carolyn_lessNoise_PlusLocalization,2021.2.3,60.02706820708412,
,,,,,,,,midLeft,-13.0,2,ch1Sound_localizationTask.wav,-13.0,"(762, 878)","(-198,-202)",-190,-338,,,,,,,,,7,1,50,1,,,,,,,,,,,,,,,,,,,,,,,,,,,,,,,,,,,,,,,,,,,,1593.7910886011086,None,1594.8909471761435,None,1595.8240723279305,None,1.3566137566137566,0.800258771982044,1595.8240723279305,None,,,,,,,,,,,,,,,,,137,001,2023_Nov_17_1628,SpeechDraft1Carolyn_lessNoise_PlusLocalization,2021.2.3,60.02706820708412,
,,,,,,,,nearRight,6.5,0,ch1Sound_localizationTask.wav,6.5,"(1047, 878)","(87, -202)",95,-338,,,,,,,,,7,2,51,4,,,,,,,,,,,,,,,,,,,,,,,,,,,,,,,,,,,,,,,,,,,,1596.6264678938314,None,1597.740753049031,None,1598.657298667822,None,1.5185185185185186,0.8667343161068857,1598.657298667822,None,,,,,,,,,,,,,,,,,137,001,2023_Nov_17_1628,SpeechDraft1Carolyn_lessNoise_PlusLocalization,2021.2.3,60.02706820708412,
,,,,,,,,farRight,19.1,4,ch1Sound_localizationTask.wav,19.1,"(1237, 878)","(277,-202)",285,-338,,,,,,,,,7,3,52,6,,,,,,,,,,,,,,,,,,,,,,,,,,,,,,,,,,,,,,,,,,,,1599.5247536296956,None,1600.62404865399,None,1601.5575246298686,None,1.6904761904761905,0.6489851768128574,1601.5575246298686,None,,,,,,,,,,,,,,,,,137,001,2023_Nov_17_1628,SpeechDraft1Carolyn_lessNoise_PlusLocalization,2021.2.3,60.02706820708412,
,,,,,,,,nearLeft,-6.5,1,ch1Sound_localizationTask.wav,-6.5,"(857, 878)","(-103,-202)",-95,-338,,,,,,,,,7,4,53,2,,,,,,,,,,,,,,,,,,,,,,,,,,,,,,,,,,,,,,,,,,,,1602.2080664108507,None,1603.307650292758,None,1604.2405375679955,None,1.4375661375661375,1.8335108309984207,1604.2405375679955,None,,,,,,,,,,,,,,,,,137,001,2023_Nov_17_1628,SpeechDraft1Carolyn_lessNoise_PlusLocalization,2021.2.3,60.02706820708412,
,,,,,,,,midLeft,-13.0,2,ch1Sound_localizationTask.wav,-13.0,"(762, 878)","(-198,-202)",-190,-338,,,,,,,,,7,5,54,1,,,,,,,,,,,,,,,,,,,,,,,,,,,,,,,,,,,,,,,,,,,,1606.0911411088891,None,1607.190694235731,None,1608.1240461859852,None,1.3793650793650793,0.6666098963469267,1608.1240461859852,None,,,,,,,,,,,,,,,,,137,001,2023_Nov_17_1628,SpeechDraft1Carolyn_lessNoise_PlusLocalization,2021.2.3,60.02706820708412,
,,,,,,,,midLeft,-13.0,2,ch1Sound_localizationTask.wav,-13.0,"(762, 878)","(-198,-202)",-190,-338,,,,,,,,,7,6,55,1,,,,,,,,,,,,,,,,,,,,,,,,,,,,,,,,,,,,,,,,,,,,1608.791556567885,None,1609.8906264239922,None,1610.824238707777,None,1.3862433862433863,0.4993923790752888,1610.824238707777,None,,,,,,,,,,,,,,,,,137,001,2023_Nov_17_1628,SpeechDraft1Carolyn_lessNoise_PlusLocalization,2021.2.3,60.02706820708412,
,,,,,,,,,,,,,,,,,,,,,,,,,,,,,,,,,,,,,,,,,,,,,,,,,,,,,,,,,,,,,,,,,,,,,,,,,,,,,,,,,,space,21.498470878694206,1611.4077448849566,None,,,,,,,,,,,,,137,001,2023_Nov_17_1628,SpeechDraft1Carolyn_lessNoise_PlusLocalization,2021.2.3,60.02706820708412,
,,,,,,,,nearRight,6.5,0,ch1Sound_localizationTask.wav,6.5,"(1047, 878)","(87, -202)",95,-338,,,,,,,,,,,,,0,0,0,4,,,,,,,,,,,,,,,,,,,,,,,,,,,,,,,,,,,,,,,,1632.9406766537577,None,,,1635.9742340189405,None,1.5693121693121692,1.6861079707741737,1635.9742340189405,None,,,,,1611.4077448849566,None,1633.9409125917591,None,1634.1245784228668,1634.1411631857045,,,,,,,137,001,2023_Nov_17_1628,SpeechDraft1Carolyn_lessNoise_PlusLocalization,2021.2.3,60.02706820708412,
,,,,,,,,farRight,19.1,4,ch1Sound_localizationTask.wav,19.1,"(1237, 878)","(277,-202)",285,-338,,,,,,,,,,,,,0,1,1,6,,,,,,,,,,,,,,,,,,,,,,,,,,,,,,,,,,,,,,,,1637.6578302280977,None,,,1640.674423635006,None,1.665079365079365,1.1994599578902125,1640.674423635006,None,,,,,,,1638.6575442771427,None,1638.8412003708072,1638.8577999137342,,,,,,,137,001,2023_Nov_17_1628,SpeechDraft1Carolyn_lessNoise_PlusLocalization,2021.2.3,60.02706820708412,
,,,,,,,,center,0.0,6,ch1Sound_localizationTask.wav,0.0,"(952, 878)","(-8,-202)",0,-338,,,,,,,,,,,,,0,2,2,3,,,,,,,,,,,,,,,,,,,,,,,,,,,,,,,,,,,,,,,,1641.8751350357197,None,,,1644.8907411899418,None,1.502116402116402,1.1826412752270699,1644.8907411899418,None,,,,,,,1642.8741967300884,None,1643.057673253119,1643.0743411877193,,,,,,,137,001,2023_Nov_17_1628,SpeechDraft1Carolyn_lessNoise_PlusLocalization,2021.2.3,60.02706820708412,
,,,,,,,,midRight,13.0,3,ch1Sound_localizationTask.wav,13.0,"(1142, 878)","(182, -202)",190,-338,,,,,,,,,,,,,0,3,3,5,,,,,,,,,,,,,,,,,,,,,,,,,,,,,,,,,,,,,,,,1646.0745478440076,None,,,1649.0909987688065,None,1.6216931216931219,1.0497156288474798,1649.0909987688065,None,,,,,,,1647.0748020829633,None,1647.257889226079,1647.2744995718822,,,,,,,137,001,2023_Nov_17_1628,SpeechDraft1Carolyn_lessNoise_PlusLocalization,2021.2.3,60.02706820708412,
,,,,,,,,farLeft,-19.1,5,ch1Sound_localizationTask.wav,-19.1,"(667, 878)","(-293,-202)",-285,-338,,,,,,,,,,,,,0,4,4,0,,,,,,,,,,,,,,,,,,,,,,,,,,,,,,,,,,,,,,,,1650.1412632707506,None,,,1653.157454031054,None,1.328042328042328,0.9499080521054566,1653.157454031054,None,,,,,,,1651.14090087777,None,1651.3245250638574,1651.3411062611267,,,,,,,137,001,2023_Nov_17_1628,SpeechDraft1Carolyn_lessNoise_PlusLocalization,2021.2.3,60.02706820708412,
,,,,,,,,midLeft,-13.0,2,ch1Sound_localizationTask.wav,-13.0,"(762, 878)","(-198,-202)",-190,-338,,,,,,,,,,,,,0,5,5,1,,,,,,,,,,,,,,,,,,,,,,,,,,,,,,,,,,,,,,,,1654.1084209848195,None,,,1657.1242877817713,None,1.4015873015873015,0.7501077316701412,1657.1242877817713,None,,,,,,,1655.1077239108272,None,1655.29094431689,1655.307763224002,,,,,,,137,001,2023_Nov_17_1628,SpeechDraft1Carolyn_lessNoise_PlusLocalization,2021.2.3,60.02706820708412,
,,,,,,,,midRight,13.0,3,ch1Sound_localizationTask.wav,13.0,"(1142, 878)","(182, -202)",190,-338,,,,,,,,,,,,,0,6,6,5,,,,,,,,,,,,,,,,,,,,,,,,,,,,,,,,,,,,,,,,1657.8745581647381,None,,,1660.8907825299539,None,1.591005291005291,1.7822556821629405,1660.8907825299539,None,,,,,,,1658.8743510651402,None,1659.0576054421254,1659.0743861049414,,,,,,,137,001,2023_Nov_17_1628,SpeechDraft1Carolyn_lessNoise_PlusLocalization,2021.2.3,60.02706820708412,
,,,,,,,,farLeft,-19.1,5,ch1Sound_localizationTask.wav,-19.1,"(667, 878)","(-293,-202)",-285,-338,,,,,,,,,,,,,1,0,7,0,,,,,,,,,,,,,,,,,,,,,,,,,,,,,,,,,,,,,,,,1662.6746430667117,None,,,1665.690832003951,None,1.2804232804232805,1.782143259420991,1665.690832003951,None,,,,,,,1663.6745929918252,None,1663.8577939807437,1663.8745893388987,,,,,,,137,001,2023_Nov_17_1628,SpeechDraft1Carolyn_lessNoise_PlusLocalization,2021.2.3,60.02706820708412,
,,,,,,,,midRight,13.0,3,ch1Sound_localizationTask.wav,13.0,"(1142, 878)","(182, -202)",190,-338,,,,,,,,,,,,,1,1,8,5,,,,,,,,,,,,,,,,,,,,,,,,,,,,,,,,,,,,,,,,1667.4743430051021,None,,,1670.4908875729889,None,1.6026455026455027,0.9828818342648447,1670.4908875729889,None,,,,,,,1668.4744853288867,None,1668.6576313409023,1668.6744397459552,,,,,,,137,001,2023_Nov_17_1628,SpeechDraft1Carolyn_lessNoise_PlusLocalization,2021.2.3,60.02706820708412,
,,,,,,,,midLeft,-13.0,2,ch1Sound_localizationTask.wav,-13.0,"(762, 878)","(-198,-202)",-190,-338,,,,,,,,,,,,,1,2,9,1,,,,,,,,,,,,,,,,,,,,,,,,,,,,,,,,,,,,,,,,1671.4750750451349,None,,,1674.490922100842,None,1.4116402116402116,1.5178405060432851,1674.490922100842,None,,,,,,,1672.4744553500786,None,1672.6577950129285,1672.6745381508954,,,,,,,137,001,2023_Nov_17_1628,SpeechDraft1Carolyn_lessNoise_PlusLocalization,2021.2.3,60.02706820708412,
,,,,,,,,center,0.0,6,ch1Sound_localizationTask.wav,0.0,"(952, 878)","(-8,-202)",0,-338,,,,,,,,,,,,,1,3,10,3,,,,,,,,,,,,,,,,,,,,,,,,,,,,,,,,,,,,,,,,1676.0246097557247,None,,,1679.0409775357693,None,1.4952380952380953,1.249524672050029,1679.0409775357693,None,,,,,,,1677.0244279848412,None,1677.2078692130744,1677.2244672770612,,,,,,,137,001,2023_Nov_17_1628,SpeechDraft1Carolyn_lessNoise_PlusLocalization,2021.2.3,60.02706820708412,
,,,,,,,,center,0.0,6,ch1Sound_localizationTask.wav,0.0,"(952, 878)","(-8,-202)",0,-338,,,,,,,,,,,,,1,4,11,3,,,,,,,,,,,,,,,,,,,,,,,,,,,,,,,,,,,,,,,,1680.2915995367803,None,,,1683.3074829936959,None,1.5,0.7327884188853204,1683.3074829936959,None,,,,,,,1681.2909964667633,None,1681.4743511490524,1681.4911185228266,,,,,,,137,001,2023_Nov_17_1628,SpeechDraft1Carolyn_lessNoise_PlusLocalization,2021.2.3,60.02706820708412,
,,,,,,,,midLeft,-13.0,2,ch1Sound_localizationTask.wav,-13.0,"(762, 878)","(-198,-202)",-190,-338,,,,,,,,,,,,,1,5,12,1,,,,,,,,,,,,,,,,,,,,,,,,,,,,,,,,,,,,,,,,1684.0415334268473,None,,,1687.0575143638998,None,1.4037037037037037,1.1162883839569986,1687.0575143638998,None,,,,,,,1685.0410477188416,None,1685.2244802447967,1685.2412080741487,,,,,,,137,001,2023_Nov_17_1628,SpeechDraft1Carolyn_lessNoise_PlusLocalization,2021.2.3,60.02706820708412,
,,,,,,,,nearLeft,-6.5,1,ch1Sound_localizationTask.wav,-6.5,"(857, 878)","(-103,-202)",-95,-338,,,,,,,,,,,,,1,6,13,2,,,,,,,,,,,,,,,,,,,,,,,,,,,,,,,,,,,,,,,,1688.1747821881436,None,,,1691.1907006329857,None,1.4476190476190476,1.0489042131230235,1691.1907006329857,None,,,,,,,1689.1743432730436,None,1689.3576920549385,1689.3745248848572,,,,,,,137,001,2023_Nov_17_1628,SpeechDraft1Carolyn_lessNoise_PlusLocalization,2021.2.3,60.02706820708412,
,,,,,,,,center,0.0,6,ch1Sound_localizationTask.wav,0.0,"(952, 878)","(-8,-202)",0,-338,,,,,,,,,,,,,2,0,14,3,,,,,,,,,,,,,,,,,,,,,,,,,,,,,,,,,,,,,,,,1692.241243951954,None,,,1695.2573154140264,None,1.5037037037037035,0.9821335319429636,1695.2573154140264,None,,,,,,,1693.2413190067746,None,1693.4245199798606,1693.4410305609927,,,,,,,137,001,2023_Nov_17_1628,SpeechDraft1Carolyn_lessNoise_PlusLocalization,2021.2.3,60.02706820708412,
,,,,,,,,nearRight,6.5,0,ch1Sound_localizationTask.wav,6.5,"(1047, 878)","(87, -202)",95,-338,,,,,,,,,,,,,2,1,15,4,,,,,,,,,,,,,,,,,,,,,,,,,,,,,,,,,,,,,,,,1696.2414839747362,None,,,1699.257552019786,None,1.5534391534391534,0.6660077818669379,1699.257552019786,None,,,,,,,1697.2411361751147,None,1697.4245699429885,1697.4410785199143,,,,,,,137,001,2023_Nov_17_1628,SpeechDraft1Carolyn_lessNoise_PlusLocalization,2021.2.3,60.02706820708412,
,,,,,,,,farRight,19.1,4,ch1Sound_localizationTask.wav,19.1,"(1237, 878)","(277,-202)",285,-338,,,,,,,,,,,,,2,2,16,6,,,,,,,,,,,,,,,,,,,,,,,,,,,,,,,,,,,,,,,,1699.9245428177528,None,,,1702.9410392357968,None,1.6513227513227513,1.400194721762091,1702.9410392357968,None,,,,,,,1700.9243069761433,None,1701.1077830567956,1701.124581801705,,,,,,,137,001,2023_Nov_17_1628,SpeechDraft1Carolyn_lessNoise_PlusLocalization,2021.2.3,60.02706820708412,
,,,,,,,,nearRight,6.5,0,ch1Sound_localizationTask.wav,6.5,"(1047, 878)","(87, -202)",95,-338,,,,,,,,,,,,,2,3,17,4,,,,,,,,,,,,,,,,,,,,,,,,,,,,,,,,,,,,,,,,1704.3577544889413,None,,,1707.3743123831227,None,1.5433862433862435,0.8163296193815768,1707.3743123831227,None,,,,,,,1705.357934015803,None,1705.5411851988174,1705.5579482391477,,,,,,,137,001,2023_Nov_17_1628,SpeechDraft1Carolyn_lessNoise_PlusLocalization,2021.2.3,60.02706820708412,
,,,,,,,,nearLeft,-6.5,1,ch1Sound_localizationTask.wav,-6.5,"(857, 878)","(-103,-202)",-95,-338,,,,,,,,,,,,,2,4,18,2,,,,,,,,,,,,,,,,,,,,,,,,,,,,,,,,,,,,,,,,1708.1913975519128,None,,,1711.2076562377624,None,1.452910052910053,0.9997163587249815,1711.2076562377624,None,,,,,,,1709.1912185321562,None,1709.3746325639077,1709.391154262703,,,,,,,137,001,2023_Nov_17_1628,SpeechDraft1Carolyn_lessNoise_PlusLocalization,2021.2.3,60.02706820708412,
,,,,,,,,farRight,19.1,4,ch1Sound_localizationTask.wav,19.1,"(1237, 878)","(277,-202)",285,-338,,,,,,,,,,,,,2,5,19,6,,,,,,,,,,,,,,,,,,,,,,,,,,,,,,,,,,,,,,,,1712.2085450808518,None,,,1715.2241935199127,None,1.6783068783068784,0.4500779416412115,1715.2241935199127,None,,,,,,,1713.2077335938811,None,1713.3910021567717,1713.407999793999,,,,,,,137,001,2023_Nov_17_1628,SpeechDraft1Carolyn_lessNoise_PlusLocalization,2021.2.3,60.02706820708412,
,,,,,,,,nearLeft,-6.5,1,ch1Sound_localizationTask.wav,-6.5,"(857, 878)","(-103,-202)",-95,-338,,,,,,,,,,,,,2,6,20,2,,,,,,,,,,,,,,,,,,,,,,,,,,,,,,,,,,,,,,,,1715.6751303579658,None,,,1718.6907880357467,None,1.4333333333333333,0.7335547660477459,1718.6907880357467,None,,,,,,,1716.674580717925,None,1716.8576728501357,1716.8745843721554,,,,,,,137,001,2023_Nov_17_1628,SpeechDraft1Carolyn_lessNoise_PlusLocalization,2021.2.3,60.02706820708412,
,,,,,,,,farLeft,-19.1,5,ch1Sound_localizationTask.wav,-19.1,"(667, 878)","(-293,-202)",-285,-338,,,,,,,,,,,,,3,0,21,0,,,,,,,,,,,,,,,,,,,,,,,,,,,,,,,,,,,,,,,,1719.4413072308525,None,,,1722.4573802878149,None,1.3444444444444446,1.2671195813454688,1722.4573802878149,None,,,,,,,1720.4413104639389,None,1720.6245449781418,1720.6411770908162,,,,,,,137,001,2023_Nov_17_1628,SpeechDraft1Carolyn_lessNoise_PlusLocalization,2021.2.3,60.02706820708412,
,,,,,,,,nearLeft,-6.5,1,ch1Sound_localizationTask.wav,-6.5,"(857, 878)","(-103,-202)",-95,-338,,,,,,,,,,,,,3,1,22,2,,,,,,,,,,,,,,,,,,,,,,,,,,,,,,,,,,,,,,,,1723.7412438029423,None,,,1726.7574659278616,None,1.4486772486772486,0.7828459232114255,1726.7574659278616,None,,,,,,,1724.7411856427789,None,1724.924414416775,1724.941247384064,,,,,,,137,001,2023_Nov_17_1628,SpeechDraft1Carolyn_lessNoise_PlusLocalization,2021.2.3,60.02706820708412,
,,,,,,,,midRight,13.0,3,ch1Sound_localizationTask.wav,13.0,"(1142, 878)","(182, -202)",190,-338,,,,,,,,,,,,,3,2,23,5,,,,,,,,,,,,,,,,,,,,,,,,,,,,,,,,,,,,,,,,1727.5415440937504,None,,,1730.5577738611028,None,1.5973544973544973,0.6163376299664378,1730.5577738611028,None,,,,,,,1728.5412613688968,None,1728.7245112429373,1728.7412679498084,,,,,,,137,001,2023_Nov_17_1628,SpeechDraft1Carolyn_lessNoise_PlusLocalization,2021.2.3,60.02706820708412,
,,,,,,,,nearRight,6.5,0,ch1Sound_localizationTask.wav,6.5,"(1047, 878)","(87, -202)",95,-338,,,,,,,,,,,,,3,3,24,4,,,,,,,,,,,,,,,,,,,,,,,,,,,,,,,,,,,,,,,,1731.1748830140568,None,,,1734.1908962288871,None,1.5206349206349206,0.5660912040621042,1734.1908962288871,None,,,,,,,1732.1744404011406,None,1732.357859076932,1732.3745444477536,,,,,,,137,001,2023_Nov_17_1628,SpeechDraft1Carolyn_lessNoise_PlusLocalization,2021.2.3,60.02706820708412,
,,,,,,,,midLeft,-13.0,2,ch1Sound_localizationTask.wav,-13.0,"(762, 878)","(-198,-202)",-190,-338,,,,,,,,,,,,,3,4,25,1,,,,,,,,,,,,,,,,,,,,,,,,,,,,,,,,,,,,,,,,1734.7581524150446,None,,,1737.7740548737347,None,1.4116402116402116,0.9327911692671478,1737.7740548737347,None,,,,,,,1735.7577283079736,None,1735.9410832817666,1735.9577692421153,,,,,,,137,001,2023_Nov_17_1628,SpeechDraft1Carolyn_lessNoise_PlusLocalization,2021.2.3,60.02706820708412,
,,,,,,,,midLeft,-13.0,2,ch1Sound_localizationTask.wav,-13.0,"(762, 878)","(-198,-202)",-190,-338,,,,,,,,,,,,,3,5,26,1,,,,,,,,,,,,,,,,,,,,,,,,,,,,,,,,,,,,,,,,1738.7081007929519,None,,,1741.7242199559696,None,1.3915343915343916,0.9348965417593718,1741.7242199559696,None,,,,,,,1739.7079398627393,None,1739.891220798716,1739.9079976049252,,,,,,,137,001,2023_Nov_17_1628,SpeechDraft1Carolyn_lessNoise_PlusLocalization,2021.2.3,60.02706820708412,
,,,,,,,,nearRight,6.5,0,ch1Sound_localizationTask.wav,6.5,"(1047, 878)","(87, -202)",95,-338,,,,,,,,,,,,,3,6,27,4,,,,,,,,,,,,,,,,,,,,,,,,,,,,,,,,,,,,,,,,1742.674763651099,None,,,1745.6910133678466,None,1.5555555555555556,0.9165380341000855,1745.6910133678466,None,,,,,,,1743.6746883029118,None,1743.857936538756,1743.8744499878958,,,,,,,137,001,2023_Nov_17_1628,SpeechDraft1Carolyn_lessNoise_PlusLocalization,2021.2.3,60.02706820708412,
,,,,,,,,nearRight,6.5,0,ch1Sound_localizationTask.wav,6.5,"(1047, 878)","(87, -202)",95,-338,,,,,,,,,,,,,4,0,28,4,,,,,,,,,,,,,,,,,,,,,,,,,,,,,,,,,,,,,,,,1746.6246066447347,None,,,1749.6411099848337,None,1.5571428571428572,1.0662793861702085,1749.6411099848337,None,,,,,,,1747.6244274489582,None,1747.8080145888962,1747.824689536821,,,,,,,137,001,2023_Nov_17_1628,SpeechDraft1Carolyn_lessNoise_PlusLocalization,2021.2.3,60.02706820708412,
,,,,,,,,midLeft,-13.0,2,ch1Sound_localizationTask.wav,-13.0,"(762, 878)","(-198,-202)",-190,-338,,,,,,,,,,,,,4,1,29,1,,,,,,,,,,,,,,,,,,,,,,,,,,,,,,,,,,,,,,,,1750.7085000388324,None,,,1753.724406437017,None,1.402116402116402,0.7161542871035635,1753.724406437017,None,,,,,,,1751.7079117489047,None,1751.8913179561496,1751.9079302530736,,,,,,,137,001,2023_Nov_17_1628,SpeechDraft1Carolyn_lessNoise_PlusLocalization,2021.2.3,60.02706820708412,
,,,,,,,,center,0.0,6,ch1Sound_localizationTask.wav,0.0,"(952, 878)","(-8,-202)",0,-338,,,,,,,,,,,,,4,2,30,3,,,,,,,,,,,,,,,,,,,,,,,,,,,,,,,,,,,,,,,,1754.4420033660717,None,,,1757.4575449600816,None,1.5063492063492063,0.9840217190794647,1757.4575449600816,None,,,,,,,1755.4412071071565,None,1755.624481654726,1755.6412939471193,,,,,,,137,001,2023_Nov_17_1628,SpeechDraft1Carolyn_lessNoise_PlusLocalization,2021.2.3,60.02706820708412,
,,,,,,,,midLeft,-13.0,2,ch1Sound_localizationTask.wav,-13.0,"(762, 878)","(-198,-202)",-190,-338,,,,,,,,,,,,,4,3,31,1,,,,,,,,,,,,,,,,,,,,,,,,,,,,,,,,,,,,,,,,1758.458159823902,None,,,1761.4740369338542,None,1.38994708994709,0.9154338929802179,1761.4740369338542,None,,,,,,,1759.4579032380134,None,1759.6413942179643,1759.6583434618078,,,,,,,137,001,2023_Nov_17_1628,SpeechDraft1Carolyn_lessNoise_PlusLocalization,2021.2.3,60.02706820708412,
,,,,,,,,midRight,13.0,3,ch1Sound_localizationTask.wav,13.0,"(1142, 878)","(182, -202)",190,-338,,,,,,,,,,,,,4,4,32,5,,,,,,,,,,,,,,,,,,,,,,,,,,,,,,,,,,,,,,,,1762.3912790771574,None,,,1765.4078090800904,None,1.6126984126984127,0.9819309543818235,1765.4078090800904,None,,,,,,,1763.3911090740003,None,1763.5745247737505,1763.5913679427467,,,,,,,137,001,2023_Nov_17_1628,SpeechDraft1Carolyn_lessNoise_PlusLocalization,2021.2.3,60.02706820708412,
,,,,,,,,nearRight,6.5,0,ch1Sound_localizationTask.wav,6.5,"(1047, 878)","(87, -202)",95,-338,,,,,,,,,,,,,4,5,33,4,,,,,,,,,,,,,,,,,,,,,,,,,,,,,,,,,,,,,,,,1766.391422451008,None,,,1769.407566384878,None,1.5497354497354499,1.0332060558721423,1769.407566384878,None,,,,,,,1767.3911453709006,None,1767.5745302229188,1767.5910867759958,,,,,,,137,001,2023_Nov_17_1628,SpeechDraft1Carolyn_lessNoise_PlusLocalization,2021.2.3,60.02706820708412,
,,,,,,,,farLeft,-19.1,5,ch1Sound_localizationTask.wav,-19.1,"(667, 878)","(-293,-202)",-285,-338,,,,,,,,,,,,,4,6,34,0,,,,,,,,,,,,,,,,,,,,,,,,,,,,,,,,,,,,,,,,1770.442294114735,None,,,1773.4576615900733,None,1.3232804232804232,1.1508220490068197,1773.4576615900733,None,,,,,,,1771.4413977209479,None,1771.6245244238526,1771.6413423446938,,,,,,,137,001,2023_Nov_17_1628,SpeechDraft1Carolyn_lessNoise_PlusLocalization,2021.2.3,60.02706820708412,
,,,,,,,,center,0.0,6,ch1Sound_localizationTask.wav,0.0,"(952, 878)","(-8,-202)",0,-338,,,,,,,,,,,,,5,0,35,3,,,,,,,,,,,,,,,,,,,,,,,,,,,,,,,,,,,,,,,,1774.6244384637102,None,,,1777.6410518507473,None,1.5015873015873016,0.9332222789525986,1777.6410518507473,None,,,,,,,1775.6246862900443,None,1775.808024797123,1775.824625611771,,,,,,,137,001,2023_Nov_17_1628,SpeechDraft1Carolyn_lessNoise_PlusLocalization,2021.2.3,60.02706820708412,
,,,,,,,,farRight,19.1,4,ch1Sound_localizationTask.wav,19.1,"(1237, 878)","(277,-202)",285,-338,,,,,,,,,,,,,5,1,36,6,,,,,,,,,,,,,,,,,,,,,,,,,,,,,,,,,,,,,,,,1778.59145604074,None,,,1781.6076447968371,None,1.737037037037037,0.8161630760878325,1781.6076447968371,None,,,,,,,1779.5912067587487,None,1779.7745948238298,1779.791480138898,,,,,,,137,001,2023_Nov_17_1628,SpeechDraft1Carolyn_lessNoise_PlusLocalization,2021.2.3,60.02706820708412,
,,,,,,,,farRight,19.1,4,ch1Sound_localizationTask.wav,19.1,"(1237, 878)","(277,-202)",285,-338,,,,,,,,,,,,,5,2,37,6,,,,,,,,,,,,,,,,,,,,,,,,,,,,,,,,,,,,,,,,1782.4252596758306,None,,,1785.4413571939804,None,1.6285714285714286,0.7160095698200166,1785.4413571939804,None,,,,,,,1783.4244579491206,None,1783.6078699431382,1783.6244843667373,,,,,,,137,001,2023_Nov_17_1628,SpeechDraft1Carolyn_lessNoise_PlusLocalization,2021.2.3,60.02706820708412,
,,,,,,,,nearRight,6.5,0,ch1Sound_localizationTask.wav,6.5,"(1047, 878)","(87, -202)",95,-338,,,,,,,,,,,,,5,3,38,4,,,,,,,,,,,,,,,,,,,,,,,,,,,,,,,,,,,,,,,,1786.1579142929986,None,,,1789.1744254017249,None,1.5486772486772487,0.7168190842494369,1789.1744254017249,None,,,,,,,1787.158008692786,None,1787.3411661749706,1787.3581127598882,,,,,,,137,001,2023_Nov_17_1628,SpeechDraft1Carolyn_lessNoise_PlusLocalization,2021.2.3,60.02706820708412,
,,,,,,,,nearLeft,-6.5,1,ch1Sound_localizationTask.wav,-6.5,"(857, 878)","(-103,-202)",-95,-338,,,,,,,,,,,,,5,4,39,2,,,,,,,,,,,,,,,,,,,,,,,,,,,,,,,,,,,,,,,,1789.8919373657554,None,,,1792.9079644880258,None,1.446031746031746,0.7994530280120671,1792.9079644880258,None,,,,,,,1790.8913088678382,None,1791.0746222469024,1791.0913721830584,,,,,,,137,001,2023_Nov_17_1628,SpeechDraft1Carolyn_lessNoise_PlusLocalization,2021.2.3,60.02706820708412,
,,,,,,,,farRight,19.1,4,ch1Sound_localizationTask.wav,19.1,"(1237, 878)","(277,-202)",285,-338,,,,,,,,,,,,,5,5,40,6,,,,,,,,,,,,,,,,,,,,,,,,,,,,,,,,,,,,,,,,1793.7081158678047,None,,,1796.7242713747546,None,1.6587301587301586,0.8501156540587544,1796.7242713747546,None,,,,,,,1794.7079418357462,None,1794.8912350479513,1794.907975624781,,,,,,,137,001,2023_Nov_17_1628,SpeechDraft1Carolyn_lessNoise_PlusLocalization,2021.2.3,60.02706820708412,
,,,,,,,,midLeft,-13.0,2,ch1Sound_localizationTask.wav,-13.0,"(762, 878)","(-198,-202)",-190,-338,,,,,,,,,,,,,5,6,41,1,,,,,,,,,,,,,,,,,,,,,,,,,,,,,,,,,,,,,,,,1797.5756135378033,None,,,1800.590957141947,None,1.4121693121693122,0.8159553301520646,1800.590957141947,None,,,,,,,1798.5746417227201,None,1798.7579450858757,1798.7746485881507,,,,,,,137,001,2023_Nov_17_1628,SpeechDraft1Carolyn_lessNoise_PlusLocalization,2021.2.3,60.02706820708412,
,,,,,,,,farRight,19.1,4,ch1Sound_localizationTask.wav,19.1,"(1237, 878)","(277,-202)",285,-338,,,,,,,,,,,,,6,0,42,6,,,,,,,,,,,,,,,,,,,,,,,,,,,,,,,,,,,,,,,,1801.4083992228843,None,,,1804.4243739279918,None,1.6671957671957671,0.8156009009107947,1804.4243739279918,None,,,,,,,1802.4079925031401,None,1802.5912743760273,1802.6079257638194,,,,,,,137,001,2023_Nov_17_1628,SpeechDraft1Carolyn_lessNoise_PlusLocalization,2021.2.3,60.02706820708412,
,,,,,,,,farLeft,-19.1,5,ch1Sound_localizationTask.wav,-19.1,"(667, 878)","(-293,-202)",-285,-338,,,,,,,,,,,,,6,1,43,0,,,,,,,,,,,,,,,,,,,,,,,,,,,,,,,,,,,,,,,,1805.2415125109255,None,,,1808.2575651700608,None,1.3555555555555556,1.0828456860035658,1808.2575651700608,None,,,,,,,1806.2413167627528,None,1806.424709071871,1806.441343182698,,,,,,,137,001,2023_Nov_17_1628,SpeechDraft1Carolyn_lessNoise_PlusLocalization,2021.2.3,60.02706820708412,
,,,,,,,,center,0.0,6,ch1Sound_localizationTask.wav,0.0,"(952, 878)","(-8,-202)",0,-338,,,,,,,,,,,,,6,2,44,3,,,,,,,,,,,,,,,,,,,,,,,,,,,,,,,,,,,,,,,,1809.3418533648364,None,,,1812.3576779589057,None,1.4978835978835978,0.6522973091341555,1812.3576779589057,None,,,,,,,1810.3411876368336,None,1810.5248066969216,1810.5412472258322,,,,,,,137,001,2023_Nov_17_1628,SpeechDraft1Carolyn_lessNoise_PlusLocalization,2021.2.3,60.02706820708412,
,,,,,,,,farLeft,-19.1,5,ch1Sound_localizationTask.wav,-19.1,"(667, 878)","(-293,-202)",-285,-338,,,,,,,,,,,,,6,3,45,0,,,,,,,,,,,,,,,,,,,,,,,,,,,,,,,,,,,,,,,,1813.024575959891,None,,,1816.0410461989231,None,1.355026455026455,0.5165116381831467,1816.0410461989231,None,,,,,,,1814.0247785709798,None,1814.2080893111415,1814.224777692929,,,,,,,137,001,2023_Nov_17_1628,SpeechDraft1Carolyn_lessNoise_PlusLocalization,2021.2.3,60.02706820708412,
,,,,,,,,nearLeft,-6.5,1,ch1Sound_localizationTask.wav,-6.5,"(857, 878)","(-103,-202)",-95,-338,,,,,,,,,,,,,6,4,46,2,,,,,,,,,,,,,,,,,,,,,,,,,,,,,,,,,,,,,,,,1816.5584162957966,None,,,1819.5743729700334,None,1.4597883597883599,0.8997400538064539,1819.5743729700334,None,,,,,,,1817.5578670860268,None,1817.7413351568393,1817.757983322721,,,,,,,137,001,2023_Nov_17_1628,SpeechDraft1Carolyn_lessNoise_PlusLocalization,2021.2.3,60.02706820708412,
,,,,,,,,center,0.0,6,ch1Sound_localizationTask.wav,0.0,"(952, 878)","(-8,-202)",0,-338,,,,,,,,,,,,,6,5,47,3,,,,,,,,,,,,,,,,,,,,,,,,,,,,,,,,,,,,,,,,1820.4748396757059,None,,,1823.4912218269892,None,1.5005291005291004,0.8994614128023386,1823.4912218269892,None,,,,,,,1821.4747899197973,None,1821.6579850898124,1821.6747612780891,,,,,,,137,001,2023_Nov_17_1628,SpeechDraft1Carolyn_lessNoise_PlusLocalization,2021.2.3,60.02706820708412,
,,,,,,,,farLeft,-19.1,5,ch1Sound_localizationTask.wav,-19.1,"(667, 878)","(-293,-202)",-285,-338,,,,,,,,,,,,,6,6,48,0,,,,,,,,,,,,,,,,,,,,,,,,,,,,,,,,,,,,,,,,1824.3917169459164,None,,,1827.4076751391403,None,1.3825396825396825,0.4833767176605761,1827.4076751391403,None,,,,,,,1825.3915494428948,None,1825.574599527754,1825.5913881701417,,,,,,,137,001,2023_Nov_17_1628,SpeechDraft1Carolyn_lessNoise_PlusLocalization,2021.2.3,60.02706820708412,
,,,,,,,,midRight,13.0,3,ch1Sound_localizationTask.wav,13.0,"(1142, 878)","(182, -202)",190,-338,,,,,,,,,,,,,7,0,49,5,,,,,,,,,,,,,,,,,,,,,,,,,,,,,,,,,,,,,,,,1827.8916051071137,None,,,1830.907721877098,None,1.5936507936507938,0.915799047332257,1830.907721877098,None,,,,,,,1828.8915463178419,None,1829.074726877734,1829.0913289417513,,,,,,,137,001,2023_Nov_17_1628,SpeechDraft1Carolyn_lessNoise_PlusLocalization,2021.2.3,60.02706820708412,
,,,,,,,,midRight,13.0,3,ch1Sound_localizationTask.wav,13.0,"(1142, 878)","(182, -202)",190,-338,,,,,,,,,,,,,7,1,50,5,,,,,,,,,,,,,,,,,,,,,,,,,,,,,,,,,,,,,,,,1831.8247137451544,None,,,1834.841281007044,None,1.5560846560846562,0.6996240541338921,1834.841281007044,None,,,,,,,1832.824590458069,None,1833.0081083378755,1833.0245605241507,,,,,,,137,001,2023_Nov_17_1628,SpeechDraft1Carolyn_lessNoise_PlusLocalization,2021.2.3,60.02706820708412,
,,,,,,,,nearLeft,-6.5,1,ch1Sound_localizationTask.wav,-6.5,"(857, 878)","(-103,-202)",-95,-338,,,,,,,,,,,,,7,2,51,2,,,,,,,,,,,,,,,,,,,,,,,,,,,,,,,,,,,,,,,,1835.541825627908,None,,,1838.5578775750473,None,1.435978835978836,0.7828329056501389,1838.5578775750473,None,,,,,,,1836.5412968317978,None,1836.7245044140145,1836.7412724820897,,,,,,,137,001,2023_Nov_17_1628,SpeechDraft1Carolyn_lessNoise_PlusLocalization,2021.2.3,60.02706820708412,
,,,,,,,,midRight,13.0,3,ch1Sound_localizationTask.wav,13.0,"(1142, 878)","(182, -202)",190,-338,,,,,,,,,,,,,7,3,52,5,,,,,,,,,,,,,,,,,,,,,,,,,,,,,,,,,,,,,,,,1839.341182502918,None,,,1842.3579240618274,None,1.5857142857142859,0.9663770846091211,1842.3579240618274,None,,,,,,,1840.3413557400927,None,1840.524728119839,1840.5413840827532,,,,,,,137,001,2023_Nov_17_1628,SpeechDraft1Carolyn_lessNoise_PlusLocalization,2021.2.3,60.02706820708412,
,,,,,,,,farRight,19.1,4,ch1Sound_localizationTask.wav,19.1,"(1237, 878)","(277,-202)",285,-338,,,,,,,,,,,,,7,4,53,6,,,,,,,,,,,,,,,,,,,,,,,,,,,,,,,,,,,,,,,,1843.325118673034,None,,,1846.3412197181024,None,1.6984126984126984,0.7167336819693446,1846.3412197181024,None,,,,,,,1844.3246118240058,None,1844.5081663299352,1844.5245975768194,,,,,,,137,001,2023_Nov_17_1628,SpeechDraft1Carolyn_lessNoise_PlusLocalization,2021.2.3,60.02706820708412,
,,,,,,,,nearLeft,-6.5,1,ch1Sound_localizationTask.wav,-6.5,"(857, 878)","(-103,-202)",-95,-338,,,,,,,,,,,,,7,5,54,2,,,,,,,,,,,,,,,,,,,,,,,,,,,,,,,,,,,,,,,,1847.0590720698237,None,,,1850.074389077723,None,1.4365079365079365,1.299003581982106,1850.074389077723,None,,,,,,,1848.0581617010757,None,1848.241344558075,1848.2580497399904,,,,,,,137,001,2023_Nov_17_1628,SpeechDraft1Carolyn_lessNoise_PlusLocalization,2021.2.3,60.02706820708412,
,,,,,,,,farLeft,-19.1,5,ch1Sound_localizationTask.wav,-19.1,"(667, 878)","(-293,-202)",-285,-338,,,,,,,,,,,,,7,6,55,0,,,,,,,,,,,,,,,,,,,,,,,,,,,,,,,,,,,,,,,,1851.374710407108,None,,,1854.391261245124,None,1.355026455026455,0.5815539611503482,1854.391261245124,None,,,,,,,1852.3747151801363,None,1852.5579522657208,1852.5748946811073,,,,,,,137,001,2023_Nov_17_1628,SpeechDraft1Carolyn_lessNoise_PlusLocalization,2021.2.3,60.02706820708412,
,,,,,,,,,,,,,,,,,,,,,,,,,,,,,,,,,,,,,,,,,,,,,,,,,,,,,,,,,,,,,,,,,,,,,,,,,,,,,,,,,,,,,,,,,,,,1854.974756305106,None,c,30.7321165506728,1855.9581097178161,None,137,001,2023_Nov_17_1628,SpeechDraft1Carolyn_lessNoise_PlusLocalization,2021.2.3,60.02706820708412,
