Audio_Only_Files,Video_Files,Original_Word_List,noiseLevelCode,conditionCodes,noiseLevelFile1,noiseLevelFile2,InstrTextVar,targetSpeakerName,targetSpeakerEccen,targetSpkrChannel,targetSpkrSound,targetVisualDegrees,visStimLoc,visStimLoc2,visStimW,visStimH,practiceTrials.thisRepN,practiceTrials.thisTrialN,practiceTrials.thisN,practiceTrials.thisIndex,trials.thisRepN,trials.thisTrialN,trials.thisN,trials.thisIndex,audLocalLoop.thisRepN,audLocalLoop.thisTrialN,audLocalLoop.thisN,audLocalLoop.thisIndex,visualLocalLoop.thisRepN,visualLocalLoop.thisTrialN,visualLocalLoop.thisN,visualLocalLoop.thisIndex,letsGoAlready.keys,letsGoAlready.rt,letsGoAlready.started,letsGoAlready.stopped,text_2.started,text_2.stopped,text_3.started,text_3.stopped,key_resp_2.keys,key_resp_2.rt,key_resp_2.started,key_resp_2.stopped,text_5.started,text_5.stopped,fixCross.started,fixCross.stopped,fixCross2.started,fixCross2.stopped,answerPrompt.started,answerPrompt.stopped,getAnswer.text,getAnswer.started,getAnswer.stopped,goToNext.keys,goToNext.rt,goToNext.started,goToNext.stopped,stretchBreakTxrt.started,stretchBreakTxrt.stopped,key_resp_3.keys,key_resp_3.rt,key_resp_3.started,key_resp_3.stopped,letsGoLocal.keys,letsGoLocal.rt,letsGoLocal.started,letsGoLocal.stopped,text_4.started,text_4.stopped,prepFixTxt.started,prepFixTxt.stopped,prepFixTxt_2.started,prepFixTxt_2.stopped,respPromptLocal.started,respPromptLocal.stopped,slider.response,slider.rt,slider.started,slider.stopped,letsGoLocal_2.keys,letsGoLocal_2.rt,letsGoLocal_2.started,letsGoLocal_2.stopped,text_7.started,text_7.stopped,prepFixTxt_3.started,prepFixTxt_3.stopped,grating.started,grating.stopped,exitTxt.started,exitTxt.stopped,key_resp.keys,key_resp.rt,key_resp.started,key_resp.stopped,participant,session,date,expName,psychopyVersion,frameRate,
,,,,,,,,,,,,,,,,,,,,,,,,,,,,,,,,,space,39.57645607087761,15.787119999993593,None,,,,,,,,,,,,,,,,,,,,,,,,,,,,,,,,,,,,,,,,,,,,,,,,,,,,,,,,,,,,,,139,001,2023_Nov_27_1642,SpeechDraft1Carolyn_lessNoise_PlusLocalization,2021.2.3,59.99347092858948,
,,,,,,,,,,,,,,,,,,,,,,,,,,,,,,,,,,,,,15.787119999993593,None,55.486894662026316,None,space,9.509276897180825,55.67031756229699,None,,,,,,,,,,,,,,,,,,,,,,,,,,,,,,,,,,,,,,,,,,,,,,,,,,,,,,139,001,2023_Nov_27_1642,SpeechDraft1Carolyn_lessNoise_PlusLocalization,2021.2.3,59.99347092858948,
ash.wav,ash.mpg,ash,1,A,Pink_Noise_1_1.wav,Pink_Noise_1_2.wav,"This is an example of an

AUDIO trial",,,,,,,,,,0,0,0,0,,,,,,,,,,,,,,,,,,,,,,,,,65.23676939029247,None,66.22026371909305,None,69.4702027332969,None,70.85364964418113,None,fish,70.85364964418113,None,return,21.882674425374717,70.93697952805087,None,,,,,,,,,,,,,,,,,,,,,,,,,,,,,,,,,,,,,,,139,001,2023_Nov_27_1642,SpeechDraft1Carolyn_lessNoise_PlusLocalization,2021.2.3,59.99347092858948,
ash.wav,ash.mpg,ash,1,AV,Pink_Noise_1_1.wav,Pink_Noise_1_2.wav,"This is an example of an

AUDIO + VIDEO  trial",,,,,,,,,,0,1,1,1,,,,,,,,,,,,,,,,,,,,,,,,,92.85363129293546,None,93.85379802202806,None,95.33703039819375,None,96.72043287521228,None,flesh,96.72043287521228,None,return,11.191827754955739,96.80370782501996,None,,,,,,,,,,,,,,,,,,,,,,,,,,,,,,,,,,,,,,,139,001,2023_Nov_27_1642,SpeechDraft1Carolyn_lessNoise_PlusLocalization,2021.2.3,59.99347092858948,
,,,,,,,,,,,,,,,,,,,,,,,,,,,,,,,,,,,,,,,,,,,,,,,,,,,,,,,,,,,,108.03701025201008,None,space,15.527145492844284,108.22040427289903,None,,,,,,,,,,,,,,,,,,,,,,,,,,,,,,,,,139,001,2023_Nov_27_1642,SpeechDraft1Carolyn_lessNoise_PlusLocalization,2021.2.3,59.99347092858948,
dock.wav,dock.mpg,dock,1,AV,Pink_Noise_1_1.wav,Pink_Noise_1_2.wav,,,,,,,,,,,,,,,0,0,0,94,,,,,,,,,,,,,,,,,,,,,,,123.80343716824427,None,125.27029134100303,None,126.65361095033586,None,dock,126.65361095033586,None,return,5.514377910178155,126.73716608202085,None,,,,,,,,,,,,,,,,,,,,,,,,,,,,,,,,,,,,,,,139,001,2023_Nov_27_1642,SpeechDraft1Carolyn_lessNoise_PlusLocalization,2021.2.3,59.99347092858948,
crow.wav,crow.mpg,crow,3,A,Pink_Noise_3_1.wav,Pink_Noise_3_2.wav,,,,,,,,,,,,,,,0,1,1,33,,,,,,,,,,,,,,,,,,,,,,,132.27076241420582,None,133.7535976790823,None,135.13710069004446,None,"crow
",135.13710069004446,None,return,6.767190824728459,135.2203563451767,None,,,,,,,,,,,,,,,,,,,,,,,,,,,,,,,,,,,,,,,139,001,2023_Nov_27_1642,SpeechDraft1Carolyn_lessNoise_PlusLocalization,2021.2.3,59.99347092858948,
toy.wav,toy.mpg,toy,6,A,Pink_Noise_6_1.wav,Pink_Noise_6_2.wav,,,,,,,,,,,,,,,0,2,2,27,,,,,,,,,,,,,,,,,,,,,,,142.02035651821643,None,143.52021544100717,None,144.9040060210973,None,fin,144.9040060210973,None,return,8.19254963984713,144.98703331500292,None,,,,,,,,,,,,,,,,,,,,,,,,,,,,,,,,,,,,,,,139,001,2023_Nov_27_1642,SpeechDraft1Carolyn_lessNoise_PlusLocalization,2021.2.3,59.99347092858948,
brew.wav,brew.mpg,brew,6,AV,Pink_Noise_6_1.wav,Pink_Noise_6_2.wav,,,,,,,,,,,,,,,0,3,3,69,,,,,,,,,,,,,,,,,,,,,,,153.2037476641126,None,154.70371157722548,None,156.08717948803678,None,"brew
",156.08717948803678,None,return,4.136880388949066,156.1706696599722,None,,,,,,,,,,,,,,,,,,,,,,,,,,,,,,,,,,,,,,,139,001,2023_Nov_27_1642,SpeechDraft1Carolyn_lessNoise_PlusLocalization,2021.2.3,59.99347092858948,
cried.wav,cried.mpg,cried,5,A,Pink_Noise_5_1.wav,Pink_Noise_5_2.wav,,,,,,,,,,,,,,,0,4,4,40,,,,,,,,,,,,,,,,,,,,,,,160.33728336310014,None,161.8368905670941,None,163.22048665210605,None,light,163.22048665210605,None,return,8.187512518838048,163.30402849894017,None,,,,,,,,,,,,,,,,,,,,,,,,,,,,,,,,,,,,,,,139,001,2023_Nov_27_1642,SpeechDraft1Carolyn_lessNoise_PlusLocalization,2021.2.3,59.99347092858948,
clam.wav,clam.mpg,clam,3,AV,Pink_Noise_3_1.wav,Pink_Noise_3_2.wav,,,,,,,,,,,,,,,0,5,5,109,,,,,,,,,,,,,,,,,,,,,,,171.52050422132015,None,173.02046747412533,None,174.40376006206498,None,clam,174.40376006206498,None,return,4.164485041983426,174.4871178669855,None,,,,,,,,,,,,,,,,,,,,,,,,,,,,,,,,,,,,,,,139,001,2023_Nov_27_1642,SpeechDraft1Carolyn_lessNoise_PlusLocalization,2021.2.3,59.99347092858948,
gem.wav,gem.mpg,gem,5,A,Pink_Noise_5_1.wav,Pink_Noise_5_2.wav,,,,,,,,,,,,,,,0,6,6,45,,,,,,,,,,,,,,,,,,,,,,,178.67059171618894,None,180.17030824208632,None,181.53730778489262,None,loan,181.53730778489262,None,return,10.895025736652315,181.62052871100605,None,,,,,,,,,,,,,,,,,,,,,,,,,,,,,,,,,,,,,,,139,001,2023_Nov_27_1642,SpeechDraft1Carolyn_lessNoise_PlusLocalization,2021.2.3,59.99347092858948,
bread.wav,bread.mpg,bread,3,AV,Pink_Noise_3_1.wav,Pink_Noise_3_2.wav,,,,,,,,,,,,,,,0,7,7,104,,,,,,,,,,,,,,,,,,,,,,,192.53713234188035,None,194.0369684449397,None,195.420402798336,None,bread,195.420402798336,None,return,3.8116645817644894,195.503880020231,None,,,,,,,,,,,,,,,,,,,,,,,,,,,,,,,,,,,,,,,139,001,2023_Nov_27_1642,SpeechDraft1Carolyn_lessNoise_PlusLocalization,2021.2.3,59.99347092858948,
germ.wav,germ.mpg,germ,5,AV,Pink_Noise_5_1.wav,Pink_Noise_5_2.wav,,,,,,,,,,,,,,,0,8,8,82,,,,,,,,,,,,,,,,,,,,,,,199.3372269528918,None,200.8370925891213,None,202.220464871265,None,chew,202.220464871265,None,return,4.907778901979327,202.30380633100867,None,,,,,,,,,,,,,,,,,,,,,,,,,,,,,,,,,,,,,,,139,001,2023_Nov_27_1642,SpeechDraft1Carolyn_lessNoise_PlusLocalization,2021.2.3,59.99347092858948,
chart.wav,chart.mpg,chart,4,A,Pink_Noise_4_1.wav,Pink_Noise_4_2.wav,,,,,,,,,,,,,,,0,9,9,19,,,,,,,,,,,,,,,,,,,,,,,207.23728254111484,None,208.73697362327948,None,210.12053540395573,None,chart,210.12053540395573,None,return,3.191739410161972,210.2038176250644,None,,,,,,,,,,,,,,,,,,,,,,,,,,,,,,,,,,,,,,,139,001,2023_Nov_27_1642,SpeechDraft1Carolyn_lessNoise_PlusLocalization,2021.2.3,59.99347092858948,
clash.wav,clash.mpg,clash,3,A,Pink_Noise_3_1.wav,Pink_Noise_3_2.wav,,,,,,,,,,,,,,,0,10,10,2,,,,,,,,,,,,,,,,,,,,,,,213.4204789409414,None,214.92024554591626,None,216.30394361214712,None,rush,216.30394361214712,None,return,3.2163330339826643,216.38724612630904,None,,,,,,,,,,,,,,,,,,,,,,,,,,,,,,,,,,,,,,,139,001,2023_Nov_27_1642,SpeechDraft1Carolyn_lessNoise_PlusLocalization,2021.2.3,59.99347092858948,
solve.wav,solve.mpg,solve,4,AV,Pink_Noise_4_1.wav,Pink_Noise_4_2.wav,,,,,,,,,,,,,,,0,11,11,91,,,,,,,,,,,,,,,,,,,,,,,219.6206731661223,None,221.12022268027067,None,222.50376135995612,None,"solve
",222.50376135995612,None,return,5.2004274083301425,222.5871180179529,None,,,,,,,,,,,,,,,,,,,,,,,,,,,,,,,,,,,,,,,139,001,2023_Nov_27_1642,SpeechDraft1Carolyn_lessNoise_PlusLocalization,2021.2.3,59.99347092858948,
gang.wav,gang.mpg,gang,5,A,Pink_Noise_5_1.wav,Pink_Noise_5_2.wav,,,,,,,,,,,,,,,0,12,12,37,,,,,,,,,,,,,,,,,,,,,,,227.82051303004846,None,229.32031984999776,None,230.68717465689406,None,care,230.68717465689406,None,return,3.6971237240359187,230.77048943005502,None,,,,,,,,,,,,,,,,,,,,,,,,,,,,,,,,,,,,,,,139,001,2023_Nov_27_1642,SpeechDraft1Carolyn_lessNoise_PlusLocalization,2021.2.3,59.99347092858948,
calm.wav,calm.mpg,calm,6,A,Pink_Noise_6_1.wav,Pink_Noise_6_2.wav,,,,,,,,,,,,,,,0,13,13,9,,,,,,,,,,,,,,,,,,,,,,,234.48720581829548,None,235.97169669903815,None,237.3538669529371,None,now,237.3538669529371,None,return,12.526285653933883,237.4372490053065,None,,,,,,,,,,,,,,,,,,,,,,,,,,,,,,,,,,,,,,,139,001,2023_Nov_27_1642,SpeechDraft1Carolyn_lessNoise_PlusLocalization,2021.2.3,59.99347092858948,
curve.wav,curve.mpg,curve,5,AV,Pink_Noise_5_1.wav,Pink_Noise_5_2.wav,,,,,,,,,,,,,,,0,14,14,65,,,,,,,,,,,,,,,,,,,,,,,249.9872084632516,None,251.48708070907742,None,252.87055975710973,None,goof,252.87055975710973,None,return,5.057665531989187,252.95386677002534,None,,,,,,,,,,,,,,,,,,,,,,,,,,,,,,,,,,,,,,,139,001,2023_Nov_27_1642,SpeechDraft1Carolyn_lessNoise_PlusLocalization,2021.2.3,59.99347092858948,
vest.wav,vest.mpg,vest,6,AV,Pink_Noise_6_1.wav,Pink_Noise_6_2.wav,,,,,,,,,,,,,,,0,15,15,72,,,,,,,,,,,,,,,,,,,,,,,258.0372123271227,None,259.5370243242942,None,260.9205013238825,None,fret,260.9205013238825,None,return,15.255627173930407,261.00398880196735,None,,,,,,,,,,,,,,,,,,,,,,,,,,,,,,,,,,,,,,,139,001,2023_Nov_27_1642,SpeechDraft1Carolyn_lessNoise_PlusLocalization,2021.2.3,59.99347092858948,
beat.wav,beat.mpg,beat,6,AV,Pink_Noise_6_1.wav,Pink_Noise_6_2.wav,,,,,,,,,,,,,,,0,16,16,90,,,,,,,,,,,,,,,,,,,,,,,276.2874894202687,None,277.787042748183,None,279.17067224904895,None,beat,279.17067224904895,None,return,2.8455176898278296,279.25403174292296,None,,,,,,,,,,,,,,,,,,,,,,,,,,,,,,,,,,,,,,,139,001,2023_Nov_27_1642,SpeechDraft1Carolyn_lessNoise_PlusLocalization,2021.2.3,59.99347092858948,
ham.wav,ham.mpg,ham,2,A,Pink_Noise_2_1.wav,Pink_Noise_2_2.wav,,,,,,,,,,,,,,,0,17,17,26,,,,,,,,,,,,,,,,,,,,,,,282.12084127403796,None,283.6037466232665,None,284.9873302481137,None,hail,284.9873302481137,None,return,7.373043330851942,285.07061864528805,None,,,,,,,,,,,,,,,,,,,,,,,,,,,,,,,,,,,,,,,139,001,2023_Nov_27_1642,SpeechDraft1Carolyn_lessNoise_PlusLocalization,2021.2.3,59.99347092858948,
bring.wav,bring.mpg,bring,2,A,Pink_Noise_2_1.wav,Pink_Noise_2_2.wav,,,,,,,,,,,,,,,0,18,18,20,,,,,,,,,,,,,,,,,,,,,,,292.47064203815535,None,293.97069163108245,None,295.3540362329222,None,brin,295.3540362329222,None,return,5.0382891041226685,295.4373743571341,None,,,,,,,,,,,,,,,,,,,,,,,,,,,,,,,,,,,,,,,139,001,2023_Nov_27_1642,SpeechDraft1Carolyn_lessNoise_PlusLocalization,2021.2.3,59.99347092858948,
gag.wav,gag.mpg,gag,6,AV,Pink_Noise_6_1.wav,Pink_Noise_6_2.wav,,,,,,,,,,,,,,,0,19,19,87,,,,,,,,,,,,,,,,,,,,,,,300.50394737022,None,302.0038392483257,None,303.38735803822055,None,"gay
",303.38735803822055,None,return,14.900965679902583,303.4705703770742,None,,,,,,,,,,,,,,,,,,,,,,,,,,,,,,,,,,,,,,,139,001,2023_Nov_27_1642,SpeechDraft1Carolyn_lessNoise_PlusLocalization,2021.2.3,59.99347092858948,
clown.wav,clown.mpg,clown,3,AV,Pink_Noise_3_1.wav,Pink_Noise_3_2.wav,,,,,,,,,,,,,,,0,20,20,108,,,,,,,,,,,,,,,,,,,,,,,318.40397418802604,None,319.9036629702896,None,321.28741638408974,None,clown,321.28741638408974,None,return,5.024815297219902,321.3707173280418,None,,,,,,,,,,,,,,,,,,,,,,,,,,,,,,,,,,,,,,,139,001,2023_Nov_27_1642,SpeechDraft1Carolyn_lessNoise_PlusLocalization,2021.2.3,59.99347092858948,
flank.wav,flank.mpg,flank,2,AV,Pink_Noise_2_1.wav,Pink_Noise_2_2.wav,,,,,,,,,,,,,,,0,21,21,101,,,,,,,,,,,,,,,,,,,,,,,326.4207521039061,None,327.92040100414306,None,329.3039746610448,None,flank,329.3039746610448,None,return,2.9601013897918165,329.3874555788934,None,,,,,,,,,,,,,,,,,,,,,,,,,,,,,,,,,,,,,,,139,001,2023_Nov_27_1642,SpeechDraft1Carolyn_lessNoise_PlusLocalization,2021.2.3,59.99347092858948,
fleet.wav,fleet.mpg,fleet,1,A,Pink_Noise_1_1.wav,Pink_Noise_1_2.wav,,,,,,,,,,,,,,,0,22,22,32,,,,,,,,,,,,,,,,,,,,,,,332.3707478651777,None,333.87051471322775,None,335.2539990223013,None,fleet,335.2539990223013,None,return,4.0903632352128625,335.3372407639399,None,,,,,,,,,,,,,,,,,,,,,,,,,,,,,,,,,,,,,,,139,001,2023_Nov_27_1642,SpeechDraft1Carolyn_lessNoise_PlusLocalization,2021.2.3,59.99347092858948,
brisk.wav,brisk.mpg,brisk,4,AV,Pink_Noise_4_1.wav,Pink_Noise_4_2.wav,,,,,,,,,,,,,,,0,23,23,71,,,,,,,,,,,,,,,,,,,,,,,339.4540082830936,None,340.93811899702996,None,342.32063873205334,None,brisk,342.32063873205334,None,return,6.759421490132809,342.40413267724216,None,,,,,,,,,,,,,,,,,,,,,,,,,,,,,,,,,,,,,,,139,001,2023_Nov_27_1642,SpeechDraft1Carolyn_lessNoise_PlusLocalization,2021.2.3,59.99347092858948,
dense.wav,dense.mpg,dense,6,AV,Pink_Noise_6_1.wav,Pink_Noise_6_2.wav,,,,,,,,,,,,,,,0,24,24,116,,,,,,,,,,,,,,,,,,,,,,,349.1876032082364,None,350.6872391072102,None,352.07063245400786,None,night,352.07063245400786,None,return,2.4655882720835507,352.15408702287823,None,,,,,,,,,,,,,,,,,,,,,,,,,,,,,,,,,,,,,,,139,001,2023_Nov_27_1642,SpeechDraft1Carolyn_lessNoise_PlusLocalization,2021.2.3,59.99347092858948,
belt.wav,belt.mpg,belt,6,AV,Pink_Noise_6_1.wav,Pink_Noise_6_2.wav,,,,,,,,,,,,,,,0,25,25,119,,,,,,,,,,,,,,,,,,,,,,,354.637511018198,None,356.1373908580281,None,357.52060825703666,None,belt,357.52060825703666,None,return,2.063558164983988,357.6040309802629,None,,,,,,,,,,,,,,,,,,,,,,,,,,,,,,,,,,,,,,,139,001,2023_Nov_27_1642,SpeechDraft1Carolyn_lessNoise_PlusLocalization,2021.2.3,59.99347092858948,
bare.wav,bare.mpg,bare,1,A,Pink_Noise_1_1.wav,Pink_Noise_1_2.wav,,,,,,,,,,,,,,,0,26,26,29,,,,,,,,,,,,,,,,,,,,,,,359.6874106018804,None,361.1871210918762,None,362.57068764511496,None,"bear
",362.57068764511496,None,return,1.3174804649315774,362.65406293515116,None,,,,,,,,,,,,,,,,,,,,,,,,,,,,,,,,,,,,,,,139,001,2023_Nov_27_1642,SpeechDraft1Carolyn_lessNoise_PlusLocalization,2021.2.3,59.99347092858948,
cork.wav,cork.mpg,cork,3,A,Pink_Noise_3_1.wav,Pink_Noise_3_2.wav,,,,,,,,,,,,,,,0,27,27,18,,,,,,,,,,,,,,,,,,,,,,,364.0041551319882,None,365.50382722495124,None,366.8874546480365,None,"cork
",366.8874546480365,None,return,2.8168289880268276,366.97071776306257,None,,,,,,,,,,,,,,,,,,,,,,,,,,,,,,,,,,,,,,,139,001,2023_Nov_27_1642,SpeechDraft1Carolyn_lessNoise_PlusLocalization,2021.2.3,59.99347092858948,
fate.wav,fate.mpg,fate,5,AV,Pink_Noise_5_1.wav,Pink_Noise_5_2.wav,,,,,,,,,,,,,,,0,28,28,70,,,,,,,,,,,,,,,,,,,,,,,369.8208071491681,None,371.32075640931726,None,372.7041129982099,None,fate,372.7041129982099,None,return,2.080112762283534,372.7874874123372,None,,,,,,,,,,,,,,,,,,,,,,,,,,,,,,,,,,,,,,,139,001,2023_Nov_27_1642,SpeechDraft1Carolyn_lessNoise_PlusLocalization,2021.2.3,59.99347092858948,
flu.wav,flu.mpg,flu,2,AV,Pink_Noise_2_1.wav,Pink_Noise_2_2.wav,,,,,,,,,,,,,,,0,29,29,66,,,,,,,,,,,,,,,,,,,,,,,374.8873746423051,None,376.3873560130596,None,377.7707192483358,None,"flu
",377.7707192483358,None,return,4.469466666691005,377.85407799715176,None,,,,,,,,,,,,,,,,,,,,,,,,,,,,,,,,,,,,,,,139,001,2023_Nov_27_1642,SpeechDraft1Carolyn_lessNoise_PlusLocalization,2021.2.3,59.99347092858948,
eight.wav,eight.mpg,eight,6,AV,Pink_Noise_6_1.wav,Pink_Noise_6_2.wav,,,,,,,,,,,,,,,0,30,30,83,,,,,,,,,,,,,,,,,,,,,,,382.3542561130598,None,383.85379906510934,None,385.2374803451821,None,hate,385.2374803451821,None,return,2.378705805633217,385.3208740982227,None,,,,,,,,,,,,,,,,,,,,,,,,,,,,,,,,,,,,,,,139,001,2023_Nov_27_1642,SpeechDraft1Carolyn_lessNoise_PlusLocalization,2021.2.3,59.99347092858948,
goose.wav,goose.mpg,goose,5,AV,Pink_Noise_5_1.wav,Pink_Noise_5_2.wav,,,,,,,,,,,,,,,0,31,31,62,,,,,,,,,,,,,,,,,,,,,,,387.7208150322549,None,389.2205346492119,None,390.60404042201117,None,goose,390.60404042201117,None,return,2.612144460901618,390.6874052011408,None,,,,,,,,,,,,,,,,,,,,,,,,,,,,,,,,,,,,,,,139,001,2023_Nov_27_1642,SpeechDraft1Carolyn_lessNoise_PlusLocalization,2021.2.3,59.99347092858948,
row.wav,row.mpg,row,4,A,Pink_Noise_4_1.wav,Pink_Noise_4_2.wav,,,,,,,,,,,,,,,0,32,32,28,,,,,,,,,,,,,,,,,,,,,,,393.32084276527166,None,394.8205431839451,None,396.2040965212509,None,rogue,396.2040965212509,None,return,3.580092958174646,396.28750180313364,None,,,,,,,,,,,,,,,,,,,,,,,,,,,,,,,,,,,,,,,139,001,2023_Nov_27_1642,SpeechDraft1Carolyn_lessNoise_PlusLocalization,2021.2.3,59.99347092858948,
blend.wav,blend.mpg,blend,1,A,Pink_Noise_1_1.wav,Pink_Noise_1_2.wav,,,,,,,,,,,,,,,0,33,33,46,,,,,,,,,,,,,,,,,,,,,,,399.88739546295255,None,401.38716773921624,None,402.7707628943026,None,bled,402.7707628943026,None,return,4.325441878754646,402.8540940871462,None,,,,,,,,,,,,,,,,,,,,,,,,,,,,,,,,,,,,,,,139,001,2023_Nov_27_1642,SpeechDraft1Carolyn_lessNoise_PlusLocalization,2021.2.3,59.99347092858948,
bird.wav,bird.mpg,bird,4,AV,Pink_Noise_4_1.wav,Pink_Noise_4_2.wav,,,,,,,,,,,,,,,0,34,34,96,,,,,,,,,,,,,,,,,,,,,,,407.2041407311335,None,408.70392730506137,None,410.07082624407485,None,bird,410.07082624407485,None,return,2.0814316691830754,410.15413500508294,None,,,,,,,,,,,,,,,,,,,,,,,,,,,,,,,,,,,,,,,139,001,2023_Nov_27_1642,SpeechDraft1Carolyn_lessNoise_PlusLocalization,2021.2.3,59.99347092858948,
faith.wav,faith.mpg,faith,4,AV,Pink_Noise_4_1.wav,Pink_Noise_4_2.wav,,,,,,,,,,,,,,,0,35,35,68,,,,,,,,,,,,,,,,,,,,,,,412.25418274104595,None,413.75388642633334,None,415.1374073862098,None,fake,415.1374073862098,None,return,2.4547285600565374,415.2208568211645,None,,,,,,,,,,,,,,,,,,,,,,,,,,,,,,,,,,,,,,,139,001,2023_Nov_27_1642,SpeechDraft1Carolyn_lessNoise_PlusLocalization,2021.2.3,59.99347092858948,
roar.wav,roar.mpg,roar,2,AV,Pink_Noise_2_1.wav,Pink_Noise_2_2.wav,,,,,,,,,,,,,,,0,36,36,77,,,,,,,,,,,,,,,,,,,,,,,417.7041634260677,None,419.2039923090488,None,420.5873974291608,None,roar,420.5873974291608,None,return,1.1967302169650793,420.6708598169498,None,,,,,,,,,,,,,,,,,,,,,,,,,,,,,,,,,,,,,,,139,001,2023_Nov_27_1642,SpeechDraft1Carolyn_lessNoise_PlusLocalization,2021.2.3,59.99347092858948,
flight.wav,flight.mpg,flight,2,AV,Pink_Noise_2_1.wav,Pink_Noise_2_2.wav,,,,,,,,,,,,,,,0,37,37,86,,,,,,,,,,,,,,,,,,,,,,,421.8876448622905,None,423.38729338813573,None,424.7707942533307,None,flight,424.7707942533307,None,return,2.725213724654168,424.8543231082149,None,,,,,,,,,,,,,,,,,,,,,,,,,,,,,,,,,,,,,,,139,001,2023_Nov_27_1642,SpeechDraft1Carolyn_lessNoise_PlusLocalization,2021.2.3,59.99347092858948,
grasp.wav,grasp.mpg,grasp,3,AV,Pink_Noise_3_1.wav,Pink_Noise_3_2.wav,,,,,,,,,,,,,,,0,38,38,100,,,,,,,,,,,,,,,,,,,,,,,427.60422471910715,None,429.10390685126185,None,430.4874102459289,None,grass,430.4874102459289,None,return,1.696740142069757,430.5708991731517,None,,,,,,,,,,,,,,,,,,,,,,,,,,,,,,,,,,,,,,,139,001,2023_Nov_27_1642,SpeechDraft1Carolyn_lessNoise_PlusLocalization,2021.2.3,59.99347092858948,
quest.wav,quest.mpg,quest,1,AV,Pink_Noise_1_1.wav,Pink_Noise_1_2.wav,,,,,,,,,,,,,,,0,39,39,117,,,,,,,,,,,,,,,,,,,,,,,432.28748452523723,None,433.7875727810897,None,435.1707283621654,None,quest,435.1707283621654,None,return,2.7412931411527097,435.25426175026223,None,,,,,,,,,,,,,,,,,,,,,,,,,,,,,,,,,,,,,,,139,001,2023_Nov_27_1642,SpeechDraft1Carolyn_lessNoise_PlusLocalization,2021.2.3,59.99347092858948,
nine.wav,nine.mpg,nine,3,A,Pink_Noise_3_1.wav,Pink_Noise_3_2.wav,,,,,,,,,,,,,,,0,40,40,3,,,,,,,,,,,,,,,,,,,,,,,438.0210313471034,None,439.52058565989137,None,440.9041127678938,None,nine,440.9041127678938,None,return,3.6321731321513653,440.98748088721186,None,,,,,,,,,,,,,,,,,,,,,,,,,,,,,,,,,,,,,,,139,001,2023_Nov_27_1642,SpeechDraft1Carolyn_lessNoise_PlusLocalization,2021.2.3,59.99347092858948,
crude.wav,crude.mpg,crude,6,A,Pink_Noise_6_1.wav,Pink_Noise_6_2.wav,,,,,,,,,,,,,,,0,41,41,43,,,,,,,,,,,,,,,,,,,,,,,444.6374565339647,None,446.137200623285,None,447.5208419910632,None,fay,447.5208419910632,None,return,5.943363565951586,447.6041806479916,None,,,,,,,,,,,,,,,,,,,,,,,,,,,,,,,,,,,,,,,139,001,2023_Nov_27_1642,SpeechDraft1Carolyn_lessNoise_PlusLocalization,2021.2.3,59.99347092858948,
brain.wav,brain.mpg,brain,3,AV,Pink_Noise_3_1.wav,Pink_Noise_3_2.wav,,,,,,,,,,,,,,,0,42,42,97,,,,,,,,,,,,,,,,,,,,,,,453.5708244550042,None,455.07061885809526,None,456.45436290698126,None,"brain
",456.45436290698126,None,return,2.3859804682433605,456.5375680439174,None,,,,,,,,,,,,,,,,,,,,,,,,,,,,,,,,,,,,,,,139,001,2023_Nov_27_1642,SpeechDraft1Carolyn_lessNoise_PlusLocalization,2021.2.3,59.99347092858948,
blade.wav,blade.mpg,blade,6,AV,Pink_Noise_6_1.wav,Pink_Noise_6_2.wav,,,,,,,,,,,,,,,0,43,43,98,,,,,,,,,,,,,,,,,,,,,,,458.95422217296436,None,460.453848590143,None,461.8375297281891,None,"big
",461.8375297281891,None,return,9.234730845317245,461.9208286451176,None,,,,,,,,,,,,,,,,,,,,,,,,,,,,,,,,,,,,,,,139,001,2023_Nov_27_1642,SpeechDraft1Carolyn_lessNoise_PlusLocalization,2021.2.3,59.99347092858948,
axe.wav,axe.mpg,axe,6,A,Pink_Noise_6_1.wav,Pink_Noise_6_2.wav,,,,,,,,,,,,,,,0,44,44,5,,,,,,,,,,,,,,,,,,,,,,,471.18765816418454,None,472.6872652419843,None,474.0708943102509,None,"voice
",474.0708943102509,None,return,1.3371672430075705,474.15438539208844,None,,,,,,,,,,,,,,,,,,,,,,,,,,,,,,,,,,,,,,,139,001,2023_Nov_27_1642,SpeechDraft1Carolyn_lessNoise_PlusLocalization,2021.2.3,59.99347092858948,
grip.wav,grip.mpg,grip,2,AV,Pink_Noise_2_1.wav,Pink_Noise_2_2.wav,,,,,,,,,,,,,,,0,45,45,111,,,,,,,,,,,,,,,,,,,,,,,475.52085574390367,None,477.02066318597645,None,478.40442211925983,None,grip,478.40442211925983,None,return,3.3237878642976284,478.4877456529066,None,,,,,,,,,,,,,,,,,,,,,,,,,,,,,,,,,,,,,,,139,001,2023_Nov_27_1642,SpeechDraft1Carolyn_lessNoise_PlusLocalization,2021.2.3,59.99347092858948,
duct.wav,duct.mpg,duct,1,AV,Pink_Noise_1_1.wav,Pink_Noise_1_2.wav,,,,,,,,,,,,,,,0,46,46,75,,,,,,,,,,,,,,,,,,,,,,,481.83762165904045,None,483.33895369432867,None,484.72084856731817,None,duct,484.72084856731817,None,return,2.8313399013131857,484.80420499900356,None,,,,,,,,,,,,,,,,,,,,,,,,,,,,,,,,,,,,,,,139,001,2023_Nov_27_1642,SpeechDraft1Carolyn_lessNoise_PlusLocalization,2021.2.3,59.99347092858948,
clothe.wav,clothe.mpg,clothe,4,A,Pink_Noise_4_1.wav,Pink_Noise_4_2.wav,,,,,,,,,,,,,,,0,47,47,15,,,,,,,,,,,,,,,,,,,,,,,487.65420394111425,None,489.1541987559758,None,490.5377721749246,None,close,490.5377721749246,None,return,2.7266531311906874,490.62089060619473,None,,,,,,,,,,,,,,,,,,,,,,,,,,,,,,,,,,,,,,,139,001,2023_Nov_27_1642,SpeechDraft1Carolyn_lessNoise_PlusLocalization,2021.2.3,59.99347092858948,
blink.wav,blink.mpg,blink,3,AV,Pink_Noise_3_1.wav,Pink_Noise_3_2.wav,,,,,,,,,,,,,,,0,48,48,81,,,,,,,,,,,,,,,,,,,,,,,493.37137796729803,None,494.8705849479884,None,496.2542382022366,None,blink,496.2542382022366,None,return,1.522071206010878,496.3375221872702,None,,,,,,,,,,,,,,,,,,,,,,,,,,,,,,,,,,,,,,,139,001,2023_Nov_27_1642,SpeechDraft1Carolyn_lessNoise_PlusLocalization,2021.2.3,59.99347092858948,
rid.wav,rid.mpg,rid,6,A,Pink_Noise_6_1.wav,Pink_Noise_6_2.wav,,,,,,,,,,,,,,,0,49,49,42,,,,,,,,,,,,,,,,,,,,,,,497.887501987163,None,499.3877139762044,None,500.7710447339341,None,"did
",500.7710447339341,None,return,2.117258687969297,500.85427225288004,None,,,,,,,,,,,,,,,,,,,,,,,,,,,,,,,,,,,,,,,139,001,2023_Nov_27_1642,SpeechDraft1Carolyn_lessNoise_PlusLocalization,2021.2.3,59.99347092858948,
fake.wav,fake.mpg,fake,1,AV,Pink_Noise_1_1.wav,Pink_Noise_1_2.wav,,,,,,,,,,,,,,,0,50,50,103,,,,,,,,,,,,,,,,,,,,,,,503.004555770196,None,504.5372562999837,None,505.9209212772548,None,"fake
",505.9209212772548,None,return,1.119250995106995,506.0042881919071,None,,,,,,,,,,,,,,,,,,,,,,,,,,,,,,,,,,,,,,,139,001,2023_Nov_27_1642,SpeechDraft1Carolyn_lessNoise_PlusLocalization,2021.2.3,59.99347092858948,
clad.wav,clad.mpg,clad,5,AV,Pink_Noise_5_1.wav,Pink_Noise_5_2.wav,,,,,,,,,,,,,,,0,51,51,112,,,,,,,,,,,,,,,,,,,,,,,507.15419468004256,None,508.6540703428909,None,510.03761244006455,None,loud,510.03761244006455,None,return,3.7066816058941185,510.1209502359852,None,,,,,,,,,,,,,,,,,,,,,,,,,,,,,,,,,,,,,,,139,001,2023_Nov_27_1642,SpeechDraft1Carolyn_lessNoise_PlusLocalization,2021.2.3,59.99347092858948,
aunt.wav,aunt.mpg,aunt,5,A,Pink_Noise_5_1.wav,Pink_Noise_5_2.wav,,,,,,,,,,,,,,,0,52,52,49,,,,,,,,,,,,,,,,,,,,,,,513.8542821411975,None,515.3540555750951,None,516.7377390912734,None,night,516.7377390912734,None,return,2.3745075636543334,516.8210407849401,None,,,,,,,,,,,,,,,,,,,,,,,,,,,,,,,,,,,,,,,139,001,2023_Nov_27_1642,SpeechDraft1Carolyn_lessNoise_PlusLocalization,2021.2.3,59.99347092858948,
chord.wav,chord.mpg,chord,3,A,Pink_Noise_3_1.wav,Pink_Noise_3_2.wav,,,,,,,,,,,,,,,0,53,53,41,,,,,,,,,,,,,,,,,,,,,,,519.2209946368821,None,520.7206201241352,None,522.1043220120482,None,"cord
",522.1043220120482,None,return,4.567985265981406,522.187548709102,None,,,,,,,,,,,,,,,,,,,,,,,,,,,,,,,,,,,,,,,139,001,2023_Nov_27_1642,SpeechDraft1Carolyn_lessNoise_PlusLocalization,2021.2.3,59.99347092858948,
champ.wav,champ.mpg,champ,4,AV,Pink_Noise_4_1.wav,Pink_Noise_4_2.wav,,,,,,,,,,,,,,,0,54,54,79,,,,,,,,,,,,,,,,,,,,,,,526.7876039203256,None,528.2873914032243,None,529.6709643201903,None,jump,529.6709643201903,None,return,5.537275409791619,529.7542593940161,None,,,,,,,,,,,,,,,,,,,,,,,,,,,,,,,,,,,,,,,139,001,2023_Nov_27_1642,SpeechDraft1Carolyn_lessNoise_PlusLocalization,2021.2.3,59.99347092858948,
flood.wav,flood.mpg,flood,5,A,Pink_Noise_5_1.wav,Pink_Noise_5_2.wav,,,,,,,,,,,,,,,0,55,55,24,,,,,,,,,,,,,,,,,,,,,,,535.3209430230781,None,536.8207124383189,None,538.2044408721849,None,doubt,538.2044408721849,None,return,1.9560000100173056,538.2876057312824,None,,,,,,,,,,,,,,,,,,,,,,,,,,,,,,,,,,,,,,,139,001,2023_Nov_27_1642,SpeechDraft1Carolyn_lessNoise_PlusLocalization,2021.2.3,59.99347092858948,
duet.wav,duet.mpg,duet,6,A,Pink_Noise_6_1.wav,Pink_Noise_6_2.wav,,,,,,,,,,,,,,,0,56,56,17,,,,,,,,,,,,,,,,,,,,,,,540.271007054951,None,541.7707981420681,None,543.1542895808816,None,dance,543.1542895808816,None,return,1.3258221768774092,543.2377115692943,None,,,,,,,,,,,,,,,,,,,,,,,,,,,,,,,,,,,,,,,139,001,2023_Nov_27_1642,SpeechDraft1Carolyn_lessNoise_PlusLocalization,2021.2.3,59.99347092858948,
cloak.wav,cloak.mpg,cloak,6,AV,Pink_Noise_6_1.wav,Pink_Noise_6_2.wav,,,,,,,,,,,,,,,0,57,57,61,,,,,,,,,,,,,,,,,,,,,,,544.587702837307,None,546.1043263450265,None,547.4876874382608,None,glow,547.4876874382608,None,return,1.9205817352049053,547.5709540760145,None,,,,,,,,,,,,,,,,,,,,,,,,,,,,,,,,,,,,,,,139,001,2023_Nov_27_1642,SpeechDraft1Carolyn_lessNoise_PlusLocalization,2021.2.3,59.99347092858948,
eat.wav,eat.mpg,eat,3,A,Pink_Noise_3_1.wav,Pink_Noise_3_2.wav,,,,,,,,,,,,,,,0,58,58,36,,,,,,,,,,,,,,,,,,,,,,,549.5209846622311,None,551.0206400849856,None,552.4043589490466,None,beat,552.4043589490466,None,return,1.3718372378498316,552.487756872084,None,,,,,,,,,,,,,,,,,,,,,,,,,,,,,,,,,,,,,,,139,001,2023_Nov_27_1642,SpeechDraft1Carolyn_lessNoise_PlusLocalization,2021.2.3,59.99347092858948,
gas.wav,gas.mpg,gas,3,AV,Pink_Noise_3_1.wav,Pink_Noise_3_2.wav,,,,,,,,,,,,,,,0,59,59,110,,,,,,,,,,,,,,,,,,,,,,,553.8877461599186,None,555.3875425639562,None,556.7710408992134,None,gass,556.7710408992134,None,return,1.1812542099505663,556.8543032081798,None,,,,,,,,,,,,,,,,,,,,,,,,,,,,,,,,,,,,,,,139,001,2023_Nov_27_1642,SpeechDraft1Carolyn_lessNoise_PlusLocalization,2021.2.3,59.99347092858948,
fuse.wav,fuse.mpg,fuse,1,A,Pink_Noise_1_1.wav,Pink_Noise_1_2.wav,,,,,,,,,,,,,,,0,60,60,4,,,,,,,,,,,,,,,,,,,,,,,558.0542798591778,None,559.554080395028,None,560.9377468680032,None,fuse,560.9377468680032,None,return,2.0944963921792805,561.0210438189097,None,,,,,,,,,,,,,,,,,,,,,,,,,,,,,,,,,,,,,,,139,001,2023_Nov_27_1642,SpeechDraft1Carolyn_lessNoise_PlusLocalization,2021.2.3,59.99347092858948,
dog.wav,dog.mpg,dog,4,A,Pink_Noise_4_1.wav,Pink_Noise_4_2.wav,,,,,,,,,,,,,,,0,61,61,52,,,,,,,,,,,,,,,,,,,,,,,563.1377031649463,None,564.6375366542488,None,566.0210390142165,None,god,566.0210390142165,None,return,2.9471790376119316,566.1044339272194,None,,,,,,,,,,,,,,,,,,,,,,,,,,,,,,,,,,,,,,,139,001,2023_Nov_27_1642,SpeechDraft1Carolyn_lessNoise_PlusLocalization,2021.2.3,59.99347092858948,
dumb.wav,dumb.mpg,dumb,1,AV,Pink_Noise_1_1.wav,Pink_Noise_1_2.wav,,,,,,,,,,,,,,,0,62,62,60,,,,,,,,,,,,,,,,,,,,,,,569.0711561962962,None,570.5708448262885,None,571.9544533831067,None,dumb,571.9544533831067,None,return,5.965966393239796,572.0376784922555,None,,,,,,,,,,,,,,,,,,,,,,,,,,,,,,,,,,,,,,,139,001,2023_Nov_27_1642,SpeechDraft1Carolyn_lessNoise_PlusLocalization,2021.2.3,59.99347092858948,
peach.wav,peach.mpg,peach,2,A,Pink_Noise_2_1.wav,Pink_Noise_2_2.wav,,,,,,,,,,,,,,,0,63,63,48,,,,,,,,,,,,,,,,,,,,,,,578.0209580520168,None,579.5374720641412,None,580.9209732371382,None,"beach
",580.9209732371382,None,return,1.4869442749768496,581.0045985532925,None,,,,,,,,,,,,,,,,,,,,,,,,,,,,,,,,,,,,,,,139,001,2023_Nov_27_1642,SpeechDraft1Carolyn_lessNoise_PlusLocalization,2021.2.3,59.99347092858948,
barn.wav,barn.mpg,barn,2,A,Pink_Noise_2_1.wav,Pink_Noise_2_2.wav,,,,,,,,,,,,,,,0,64,64,12,,,,,,,,,,,,,,,,,,,,,,,582.521036257036,None,584.0208383733407,None,585.404381822329,None,barn,585.404381822329,None,return,1.011168158147484,585.5043797232211,None,,,,,,,,,,,,,,,,,,,,,,,,,,,,,,,,,,,,,,,139,001,2023_Nov_27_1642,SpeechDraft1Carolyn_lessNoise_PlusLocalization,2021.2.3,59.99347092858948,
bless.wav,bless.mpg,bless,3,AV,Pink_Noise_3_1.wav,Pink_Noise_3_2.wav,,,,,,,,,,,,,,,0,65,65,107,,,,,,,,,,,,,,,,,,,,,,,586.5376462959684,None,588.0376766719855,None,589.4210102092475,None,bless,589.4210102092475,None,return,6.691249135881662,589.5042842212133,None,,,,,,,,,,,,,,,,,,,,,,,,,,,,,,,,,,,,,,,139,001,2023_Nov_27_1642,SpeechDraft1Carolyn_lessNoise_PlusLocalization,2021.2.3,59.99347092858948,
route.wav,route.mpg,route,2,AV,Pink_Noise_2_1.wav,Pink_Noise_2_2.wav,,,,,,,,,,,,,,,0,66,66,102,,,,,,,,,,,,,,,,,,,,,,,596.2210322110914,None,597.721966153942,None,599.1043483852409,None,root,599.1043483852409,None,return,2.9757885891012847,599.1877802968957,None,,,,,,,,,,,,,,,,,,,,,,,,,,,,,,,,,,,,,,,139,001,2023_Nov_27_1642,SpeechDraft1Carolyn_lessNoise_PlusLocalization,2021.2.3,59.99347092858948,
cramp.wav,cramp.mpg,cramp,2,AV,Pink_Noise_2_1.wav,Pink_Noise_2_2.wav,,,,,,,,,,,,,,,0,67,67,89,,,,,,,,,,,,,,,,,,,,,,,602.1876851390116,None,603.6879998259246,None,605.0711774490774,None,"cramp
",605.0711774490774,None,return,7.417203600984067,605.1543577252887,None,,,,,,,,,,,,,,,,,,,,,,,,,,,,,,,,,,,,,,,139,001,2023_Nov_27_1642,SpeechDraft1Carolyn_lessNoise_PlusLocalization,2021.2.3,59.99347092858948,
bald.wav,bald.mpg,bald,2,A,Pink_Noise_2_1.wav,Pink_Noise_2_2.wav,,,,,,,,,,,,,,,0,68,68,23,,,,,,,,,,,,,,,,,,,,,,,612.6044337679632,None,614.10525796609,None,615.4877460110001,None,bald,615.4877460110001,None,return,1.2885055411607027,615.5711140963249,None,,,,,,,,,,,,,,,,,,,,,,,,,,,,,,,,,,,,,,,139,001,2023_Nov_27_1642,SpeechDraft1Carolyn_lessNoise_PlusLocalization,2021.2.3,59.99347092858948,
wild.wav,wild.mpg,wild,2,A,Pink_Noise_2_1.wav,Pink_Noise_2_2.wav,,,,,,,,,,,,,,,0,69,69,55,,,,,,,,,,,,,,,,,,,,,,,616.887813791167,None,618.3874943032861,None,619.7720645703375,None,wild,619.7720645703375,None,return,0.724984108004719,619.8545370860957,None,,,,,,,,,,,,,,,,,,,,,,,,,,,,,,,,,,,,,,,139,001,2023_Nov_27_1642,SpeechDraft1Carolyn_lessNoise_PlusLocalization,2021.2.3,59.99347092858948,
bath.wav,bath.mpg,bath,4,A,Pink_Noise_4_1.wav,Pink_Noise_4_2.wav,,,,,,,,,,,,,,,0,70,70,51,,,,,,,,,,,,,,,,,,,,,,,620.6044771200977,None,622.1043813810684,None,623.4877981711179,None,bat,623.4877981711179,None,return,1.216427553910762,623.5711652659811,None,,,,,,,,,,,,,,,,,,,,,,,,,,,,,,,,,,,,,,,139,001,2023_Nov_27_1642,SpeechDraft1Carolyn_lessNoise_PlusLocalization,2021.2.3,59.99347092858948,
fowl.wav,fowl.mpg,fowl,6,A,Pink_Noise_6_1.wav,Pink_Noise_6_2.wav,,,,,,,,,,,,,,,0,71,71,25,,,,,,,,,,,,,,,,,,,,,,,624.8044113460928,None,626.3041253453121,None,627.6877999240533,None,time,627.6877999240533,None,return,1.816504254937172,627.7711360938847,None,,,,,,,,,,,,,,,,,,,,,,,,,,,,,,,,,,,,,,,139,001,2023_Nov_27_1642,SpeechDraft1Carolyn_lessNoise_PlusLocalization,2021.2.3,59.99347092858948,
priest.wav,priest.mpg,priest,4,AV,Pink_Noise_4_1.wav,Pink_Noise_4_2.wav,,,,,,,,,,,,,,,0,72,72,64,,,,,,,,,,,,,,,,,,,,,,,629.6044651772827,None,631.1208228371106,None,632.504468827974,None,wrist,632.504468827974,None,return,1.679846046026796,632.5878149271011,None,,,,,,,,,,,,,,,,,,,,,,,,,,,,,,,,,,,,,,,139,001,2023_Nov_27_1642,SpeechDraft1Carolyn_lessNoise_PlusLocalization,2021.2.3,59.99347092858948,
bail.wav,bail.mpg,bail,3,A,Pink_Noise_3_1.wav,Pink_Noise_3_2.wav,,,,,,,,,,,,,,,0,73,73,57,,,,,,,,,,,,,,,,,,,,,,,634.2877402659506,None,635.7886794260703,None,637.1710895029828,None,bail,637.1710895029828,None,return,2.3491574027575552,637.2544682151638,None,,,,,,,,,,,,,,,,,,,,,,,,,,,,,,,,,,,,,,,139,001,2023_Nov_27_1642,SpeechDraft1Carolyn_lessNoise_PlusLocalization,2021.2.3,59.99347092858948,
club.wav,club.mpg,club,3,A,Pink_Noise_3_1.wav,Pink_Noise_3_2.wav,,,,,,,,,,,,,,,0,74,74,30,,,,,,,,,,,,,,,,,,,,,,,639.6212360803038,None,641.1210369812325,None,642.5044876718894,None,cloak,642.5044876718894,None,return,2.3997315671294928,642.5878498931415,None,,,,,,,,,,,,,,,,,,,,,,,,,,,,,,,,,,,,,,,139,001,2023_Nov_27_1642,SpeechDraft1Carolyn_lessNoise_PlusLocalization,2021.2.3,59.99347092858948,
die.wav,die.mpg,die,4,AV,Pink_Noise_4_1.wav,Pink_Noise_4_2.wav,,,,,,,,,,,,,,,0,75,75,115,,,,,,,,,,,,,,,,,,,,,,,645.0045071588829,None,646.5209707813337,None,647.9044420290738,None,sigh,647.9044420290738,None,return,4.4638099251315,647.9877723250538,None,,,,,,,,,,,,,,,,,,,,,,,,,,,,,,,,,,,,,,,139,001,2023_Nov_27_1642,SpeechDraft1Carolyn_lessNoise_PlusLocalization,2021.2.3,59.99347092858948,
brash.wav,brash.mpg,brash,3,AV,Pink_Noise_3_1.wav,Pink_Noise_3_2.wav,,,,,,,,,,,,,,,0,76,76,118,,,,,,,,,,,,,,,,,,,,,,,652.4711313210428,None,654.0041605653241,None,655.3878789660521,None,brush,655.3878789660521,None,return,2.676389812026173,655.471147803124,None,,,,,,,,,,,,,,,,,,,,,,,,,,,,,,,,,,,,,,,139,001,2023_Nov_27_1642,SpeechDraft1Carolyn_lessNoise_PlusLocalization,2021.2.3,59.99347092858948,
clumps.wav,clumps.mpg,clumps,4,AV,Pink_Noise_4_1.wav,Pink_Noise_4_2.wav,,,,,,,,,,,,,,,0,77,77,73,,,,,,,,,,,,,,,,,,,,,,,658.1712872390635,None,659.6875798380934,None,661.0711560319178,None,clumps,661.0711560319178,None,return,4.777049398981035,661.1545123169199,None,,,,,,,,,,,,,,,,,,,,,,,,,,,,,,,,,,,,,,,139,001,2023_Nov_27_1642,SpeechDraft1Carolyn_lessNoise_PlusLocalization,2021.2.3,59.99347092858948,
teen.wav,teen.mpg,teen,1,AV,Pink_Noise_1_1.wav,Pink_Noise_1_2.wav,,,,,,,,,,,,,,,0,78,78,76,,,,,,,,,,,,,,,,,,,,,,,665.9544129450805,None,667.471067563165,None,668.8544236761518,None,"teen
",668.8544236761518,None,return,1.033667627722025,668.937884747982,None,,,,,,,,,,,,,,,,,,,,,,,,,,,,,,,,,,,,,,,139,001,2023_Nov_27_1642,SpeechDraft1Carolyn_lessNoise_PlusLocalization,2021.2.3,59.99347092858948,
crime.wav,crime.mpg,crime,5,AV,Pink_Noise_5_1.wav,Pink_Noise_5_2.wav,,,,,,,,,,,,,,,0,79,79,93,,,,,,,,,,,,,,,,,,,,,,,670.0046383342706,None,671.504401453305,None,672.8879129039124,None,cramp,672.8879129039124,None,return,2.480413156095892,672.9711876851507,None,,,,,,,,,,,,,,,,,,,,,,,,,,,,,,,,,,,,,,,139,001,2023_Nov_27_1642,SpeechDraft1Carolyn_lessNoise_PlusLocalization,2021.2.3,59.99347092858948,
flop.wav,flop.mpg,flop,1,A,Pink_Noise_1_1.wav,Pink_Noise_1_2.wav,,,,,,,,,,,,,,,0,80,80,34,,,,,,,,,,,,,,,,,,,,,,,675.4712161482312,None,676.987564153038,None,678.3712012032047,None,black,678.3712012032047,None,return,2.1650996771641076,678.4545100838877,None,,,,,,,,,,,,,,,,,,,,,,,,,,,,,,,,,,,,,,,139,001,2023_Nov_27_1642,SpeechDraft1Carolyn_lessNoise_PlusLocalization,2021.2.3,59.99347092858948,
hike.wav,hike.mpg,hike,4,A,Pink_Noise_4_1.wav,Pink_Noise_4_2.wav,,,,,,,,,,,,,,,0,81,81,54,,,,,,,,,,,,,,,,,,,,,,,680.63790900819,None,682.1542392373085,None,683.5378401339985,None,"ice
",683.5378401339985,None,return,1.5342575260438025,683.6212886269204,None,,,,,,,,,,,,,,,,,,,,,,,,,,,,,,,,,,,,,,,139,001,2023_Nov_27_1642,SpeechDraft1Carolyn_lessNoise_PlusLocalization,2021.2.3,59.99347092858948,
jeep.wav,jeep.mpg,jeep,3,AV,Pink_Noise_3_1.wav,Pink_Noise_3_2.wav,,,,,,,,,,,,,,,0,82,82,114,,,,,,,,,,,,,,,,,,,,,,,685.1879566381685,None,686.704348821193,None,688.0879802829586,None,"jeep
",688.0879802829586,None,return,1.3203066559508443,688.1712241843343,None,,,,,,,,,,,,,,,,,,,,,,,,,,,,,,,,,,,,,,,139,001,2023_Nov_27_1642,SpeechDraft1Carolyn_lessNoise_PlusLocalization,2021.2.3,59.99347092858948,
depth.wav,depth.mpg,depth,2,A,Pink_Noise_2_1.wav,Pink_Noise_2_2.wav,,,,,,,,,,,,,,,0,83,83,44,,,,,,,,,,,,,,,,,,,,,,,689.5211957502179,None,691.0544833061285,None,692.4380219848827,None,death,692.4380219848827,None,return,0.9065011600032449,692.521148188971,None,,,,,,,,,,,,,,,,,,,,,,,,,,,,,,,,,,,,,,,139,001,2023_Nov_27_1642,SpeechDraft1Carolyn_lessNoise_PlusLocalization,2021.2.3,59.99347092858948,
grace.wav,grace.mpg,grace,6,A,Pink_Noise_6_1.wav,Pink_Noise_6_2.wav,,,,,,,,,,,,,,,0,84,84,56,,,,,,,,,,,,,,,,,,,,,,,693.4545805230737,None,694.9720623972826,None,696.3546216492541,None,"wrist
",696.3546216492541,None,return,1.0695918137207627,696.4379663462751,None,,,,,,,,,,,,,,,,,,,,,,,,,,,,,,,,,,,,,,,139,001,2023_Nov_27_1642,SpeechDraft1Carolyn_lessNoise_PlusLocalization,2021.2.3,59.99347092858948,
cook.wav,cook.mpg,cook,4,AV,Pink_Noise_4_1.wav,Pink_Noise_4_2.wav,,,,,,,,,,,,,,,0,85,85,95,,,,,,,,,,,,,,,,,,,,,,,697.537853424903,None,699.0545378508978,None,700.43804417504,None,cook,700.43804417504,None,return,0.8905281205661595,700.5211491002701,None,,,,,,,,,,,,,,,,,,,,,,,,,,,,,,,,,,,,,,,139,001,2023_Nov_27_1642,SpeechDraft1Carolyn_lessNoise_PlusLocalization,2021.2.3,59.99347092858948,
bell.wav,bell.mpg,bell,3,A,Pink_Noise_3_1.wav,Pink_Noise_3_2.wav,,,,,,,,,,,,,,,0,86,86,10,,,,,,,,,,,,,,,,,,,,,,,701.4380496749654,None,702.9542717160657,None,704.3378339409828,None,bell,704.3378339409828,None,return,6.638399039860815,704.4211932672188,None,,,,,,,,,,,,,,,,,,,,,,,,,,,,,,,,,,,,,,,139,001,2023_Nov_27_1642,SpeechDraft1Carolyn_lessNoise_PlusLocalization,2021.2.3,59.99347092858948,
none.wav,none.mpg,none,1,AV,Pink_Noise_1_1.wav,Pink_Noise_1_2.wav,,,,,,,,,,,,,,,0,87,87,99,,,,,,,,,,,,,,,,,,,,,,,711.087902393192,None,712.6045621801168,None,713.9880212941207,None,"none
",713.9880212941207,None,return,4.684358119033277,714.0711768339388,None,,,,,,,,,,,,,,,,,,,,,,,,,,,,,,,,,,,,,,,139,001,2023_Nov_27_1642,SpeechDraft1Carolyn_lessNoise_PlusLocalization,2021.2.3,59.99347092858948,
drum.wav,drum.mpg,drum,1,A,Pink_Noise_1_1.wav,Pink_Noise_1_2.wav,,,,,,,,,,,,,,,0,88,88,1,,,,,,,,,,,,,,,,,,,,,,,718.7878368361853,None,720.304461222142,None,721.6878476953134,None,"dru,
",721.6878476953134,None,return,6.000207974109799,721.7713386663236,None,,,,,,,,,,,,,,,,,,,,,,,,,,,,,,,,,,,,,,,139,001,2023_Nov_27_1642,SpeechDraft1Carolyn_lessNoise_PlusLocalization,2021.2.3,59.99347092858948,
bright.wav,bright.mpg,bright,4,AV,Pink_Noise_4_1.wav,Pink_Noise_4_2.wav,,,,,,,,,,,,,,,0,89,89,106,,,,,,,,,,,,,,,,,,,,,,,727.8045986932702,None,729.321065640077,None,730.7046566880308,None,bright,730.7046566880308,None,return,4.903578731231391,730.7879622522742,None,,,,,,,,,,,,,,,,,,,,,,,,,,,,,,,,,,,,,,,139,001,2023_Nov_27_1642,SpeechDraft1Carolyn_lessNoise_PlusLocalization,2021.2.3,59.99347092858948,
crew.wav,crew.mpg,crew,2,A,Pink_Noise_2_1.wav,Pink_Noise_2_2.wav,,,,,,,,,,,,,,,0,90,90,16,,,,,,,,,,,,,,,,,,,,,,,735.721130897291,None,737.2542939851992,None,738.6380507149734,None,"crew
",738.6380507149734,None,return,3.2343036900274456,738.7212420459837,None,,,,,,,,,,,,,,,,,,,,,,,,,,,,,,,,,,,,,,,139,001,2023_Nov_27_1642,SpeechDraft1Carolyn_lessNoise_PlusLocalization,2021.2.3,59.99347092858948,
smack.wav,smack.mpg,smack,1,AV,Pink_Noise_1_1.wav,Pink_Noise_1_2.wav,,,,,,,,,,,,,,,0,91,91,74,,,,,,,,,,,,,,,,,,,,,,,741.9879246391356,None,743.5210385369137,None,744.9045633901842,None,"smack
",744.9045633901842,None,return,2.7684465870261192,745.1711792871356,None,,,,,,,,,,,,,,,,,,,,,,,,,,,,,,,,,,,,,,,139,001,2023_Nov_27_1642,SpeechDraft1Carolyn_lessNoise_PlusLocalization,2021.2.3,59.99347092858948,
cough.wav,cough.mpg,cough,5,A,Pink_Noise_5_1.wav,Pink_Noise_5_2.wav,,,,,,,,,,,,,,,0,92,92,31,,,,,,,,,,,,,,,,,,,,,,,747.9712529699318,None,749.4876364241354,None,750.8712910129689,None,"toss
",750.8712910129689,None,return,1.2169731450267136,750.9545802911744,None,,,,,,,,,,,,,,,,,,,,,,,,,,,,,,,,,,,,,,,139,001,2023_Nov_27_1642,SpeechDraft1Carolyn_lessNoise_PlusLocalization,2021.2.3,59.99347092858948,
bridge.wav,bridge.mpg,bridge,5,AV,Pink_Noise_5_1.wav,Pink_Noise_5_2.wav,,,,,,,,,,,,,,,0,93,93,63,,,,,,,,,,,,,,,,,,,,,,,752.2045283550397,None,753.7211938248947,None,755.1045905249193,None,bridge,755.1045905249193,None,return,1.6556571442633867,755.1879778429866,None,,,,,,,,,,,,,,,,,,,,,,,,,,,,,,,,,,,,,,,139,001,2023_Nov_27_1642,SpeechDraft1Carolyn_lessNoise_PlusLocalization,2021.2.3,59.99347092858948,
coast.wav,coast.mpg,coast,1,AV,Pink_Noise_1_1.wav,Pink_Noise_1_2.wav,,,,,,,,,,,,,,,0,94,94,105,,,,,,,,,,,,,,,,,,,,,,,756.8713400401175,None,758.4210830642842,None,759.8046104842797,None,coast,759.8046104842797,None,return,1.387418223079294,759.888123691082,None,,,,,,,,,,,,,,,,,,,,,,,,,,,,,,,,,,,,,,,139,001,2023_Nov_27_1642,SpeechDraft1Carolyn_lessNoise_PlusLocalization,2021.2.3,59.99347092858948,
earth.wav,earth.mpg,earth,2,A,Pink_Noise_2_1.wav,Pink_Noise_2_2.wav,,,,,,,,,,,,,,,0,95,95,8,,,,,,,,,,,,,,,,,,,,,,,761.3046198319644,None,762.8209564131685,None,764.1879395390861,None,earth,764.1879395390861,None,return,4.412290567997843,764.271241737064,None,,,,,,,,,,,,,,,,,,,,,,,,,,,,,,,,,,,,,,,139,001,2023_Nov_27_1642,SpeechDraft1Carolyn_lessNoise_PlusLocalization,2021.2.3,59.99347092858948,
block.wav,block.mpg,block,4,A,Pink_Noise_4_1.wav,Pink_Noise_4_2.wav,,,,,,,,,,,,,,,0,96,96,59,,,,,,,,,,,,,,,,,,,,,,,768.7047470621765,None,770.2209123619832,None,771.6046970100142,None,blood,771.6046970100142,None,return,2.811641274020076,771.6878975969739,None,,,,,,,,,,,,,,,,,,,,,,,,,,,,,,,,,,,,,,,139,001,2023_Nov_27_1642,SpeechDraft1Carolyn_lessNoise_PlusLocalization,2021.2.3,59.99347092858948,
mars.wav,mars.mpg,mars,1,A,Pink_Noise_1_1.wav,Pink_Noise_1_2.wav,,,,,,,,,,,,,,,0,97,97,0,,,,,,,,,,,,,,,,,,,,,,,774.5213021151721,None,776.0376544510946,None,777.4213680909015,None,"mars
",777.4213680909015,None,return,2.2349056438542902,777.5046198102646,None,,,,,,,,,,,,,,,,,,,,,,,,,,,,,,,,,,,,,,,139,001,2023_Nov_27_1642,SpeechDraft1Carolyn_lessNoise_PlusLocalization,2021.2.3,59.99347092858948,
book.wav,book.mpg,book,5,AV,Pink_Noise_5_1.wav,Pink_Noise_5_2.wav,,,,,,,,,,,,,,,0,98,98,113,,,,,,,,,,,,,,,,,,,,,,,779.7713118852116,None,781.3377615292557,None,782.7229557582177,None,book,782.7229557582177,None,return,1.4947517500258982,782.8047832213342,None,,,,,,,,,,,,,,,,,,,,,,,,,,,,,,,,,,,,,,,139,001,2023_Nov_27_1642,SpeechDraft1Carolyn_lessNoise_PlusLocalization,2021.2.3,59.99347092858948,
fun.wav,fun.mpg,fun,4,A,Pink_Noise_4_1.wav,Pink_Noise_4_2.wav,,,,,,,,,,,,,,,0,99,99,22,,,,,,,,,,,,,,,,,,,,,,,784.32135329023,None,785.8377277529798,None,787.2213126742281,None,"come
",787.2213126742281,None,return,1.4028722373768687,787.3046783450991,None,,,,,,,,,,,,,,,,,,,,,,,,,,,,,,,,,,,,,,,139,001,2023_Nov_27_1642,SpeechDraft1Carolyn_lessNoise_PlusLocalization,2021.2.3,59.99347092858948,
thorn.wav,thorn.mpg,thorn,1,AV,Pink_Noise_1_1.wav,Pink_Noise_1_2.wav,,,,,,,,,,,,,,,0,100,100,88,,,,,,,,,,,,,,,,,,,,,,,788.7380081070587,None,790.2377638951875,None,791.6212513712235,None,thorn,791.6212513712235,None,return,9.138929286040366,791.7047132099979,None,,,,,,,,,,,,,,,,,,,,,,,,,,,,,,,,,,,,,,,139,001,2023_Nov_27_1642,SpeechDraft1Carolyn_lessNoise_PlusLocalization,2021.2.3,59.99347092858948,
drop.wav,drop.mpg,drop,1,A,Pink_Noise_1_1.wav,Pink_Noise_1_2.wav,,,,,,,,,,,,,,,0,101,101,11,,,,,,,,,,,,,,,,,,,,,,,800.8714451300912,None,802.3877096809447,None,803.7713077100925,None,drug,803.7713077100925,None,return,2.157044635154307,803.8546362463385,None,,,,,,,,,,,,,,,,,,,,,,,,,,,,,,,,,,,,,,,139,001,2023_Nov_27_1642,SpeechDraft1Carolyn_lessNoise_PlusLocalization,2021.2.3,59.99347092858948,
pledge.wav,pledge.mpg,pledge,5,AV,Pink_Noise_5_1.wav,Pink_Noise_5_2.wav,,,,,,,,,,,,,,,0,102,102,85,,,,,,,,,,,,,,,,,,,,,,,806.0380074721761,None,807.5391558483243,None,808.9213348953053,None,rush,808.9213348953053,None,return,9.526810395997018,809.004722526297,None,,,,,,,,,,,,,,,,,,,,,,,,,,,,,,,,,,,,,,,139,001,2023_Nov_27_1642,SpeechDraft1Carolyn_lessNoise_PlusLocalization,2021.2.3,59.99347092858948,
bear.wav,bear.mpg,bear,1,A,Pink_Noise_1_1.wav,Pink_Noise_1_2.wav,,,,,,,,,,,,,,,0,103,103,47,,,,,,,,,,,,,,,,,,,,,,,818.5547088771127,None,820.0712669971399,None,821.4546778732911,None,"bear
",821.4546778732911,None,return,0.633465239778161,821.5380791551434,None,,,,,,,,,,,,,,,,,,,,,,,,,,,,,,,,,,,,,,,139,001,2023_Nov_27_1642,SpeechDraft1Carolyn_lessNoise_PlusLocalization,2021.2.3,59.99347092858948,
farm.wav,farm.mpg,farm,4,A,Pink_Noise_4_1.wav,Pink_Noise_4_2.wav,,,,,,,,,,,,,,,0,104,104,50,,,,,,,,,,,,,,,,,,,,,,,822.2047017570585,None,823.7044954393059,None,825.0883354339749,None,farm,825.0883354339749,None,return,1.0802719257771969,825.171334523242,None,,,,,,,,,,,,,,,,,,,,,,,,,,,,,,,,,,,,,,,139,001,2023_Nov_27_1642,SpeechDraft1Carolyn_lessNoise_PlusLocalization,2021.2.3,59.99347092858948,
blow.wav,blow.mpg,blow,5,A,Pink_Noise_5_1.wav,Pink_Noise_5_2.wav,,,,,,,,,,,,,,,0,105,105,38,,,,,,,,,,,,,,,,,,,,,,,826.2713730148971,None,827.8377078641206,None,829.221382333897,None,bush,829.221382333897,None,return,2.2427108390256763,829.3048281581141,None,,,,,,,,,,,,,,,,,,,,,,,,,,,,,,,,,,,,,,,139,001,2023_Nov_27_1642,SpeechDraft1Carolyn_lessNoise_PlusLocalization,2021.2.3,59.99347092858948,
your.wav,your.mpg,your,2,AV,Pink_Noise_2_1.wav,Pink_Noise_2_2.wav,,,,,,,,,,,,,,,0,106,106,84,,,,,,,,,,,,,,,,,,,,,,,831.5714786602184,None,833.0882841013372,None,834.4713564929552,None,your,834.4713564929552,None,return,1.0888961520977318,834.5547417183407,None,,,,,,,,,,,,,,,,,,,,,,,,,,,,,,,,,,,,,,,139,001,2023_Nov_27_1642,SpeechDraft1Carolyn_lessNoise_PlusLocalization,2021.2.3,59.99347092858948,
client.wav,client.mpg,client,6,A,Pink_Noise_6_1.wav,Pink_Noise_6_2.wav,,,,,,,,,,,,,,,0,107,107,7,,,,,,,,,,,,,,,,,,,,,,,835.6714115589857,None,837.2045579301193,None,838.5881389440037,None,"try
",838.5881389440037,None,return,4.388173051644117,838.6713633639738,None,,,,,,,,,,,,,,,,,,,,,,,,,,,,,,,,,,,,,,,139,001,2023_Nov_27_1642,SpeechDraft1Carolyn_lessNoise_PlusLocalization,2021.2.3,59.99347092858948,
brand.wav,brand.mpg,brand,5,AV,Pink_Noise_5_1.wav,Pink_Noise_5_2.wav,,,,,,,,,,,,,,,0,108,108,92,,,,,,,,,,,,,,,,,,,,,,,843.1047126948833,None,844.606431026943,None,845.9880758482032,None,bread,845.9880758482032,None,return,1.8758919378742576,846.0716227600351,None,,,,,,,,,,,,,,,,,,,,,,,,,,,,,,,,,,,,,,,139,001,2023_Nov_27_1642,SpeechDraft1Carolyn_lessNoise_PlusLocalization,2021.2.3,59.99347092858948,
bean.wav,bean.mpg,bean,2,AV,Pink_Noise_2_1.wav,Pink_Noise_2_2.wav,,,,,,,,,,,,,,,0,109,109,67,,,,,,,,,,,,,,,,,,,,,,,847.9713893290609,None,849.4711002418771,None,850.8547074371018,None,"bean
",850.8547074371018,None,return,2.801525832619518,850.9380174782127,None,,,,,,,,,,,,,,,,,,,,,,,,,,,,,,,,,,,,,,,139,001,2023_Nov_27_1642,SpeechDraft1Carolyn_lessNoise_PlusLocalization,2021.2.3,59.99347092858948,
shrimp.wav,shrimp.mpg,shrimp,6,AV,Pink_Noise_6_1.wav,Pink_Noise_6_2.wav,,,,,,,,,,,,,,,0,110,110,80,,,,,,,,,,,,,,,,,,,,,,,853.7714423839934,None,855.2878446141258,None,856.6714606941678,None,trip,856.6714606941678,None,return,3.856922565959394,856.7548339492641,None,,,,,,,,,,,,,,,,,,,,,,,,,,,,,,,,,,,,,,,139,001,2023_Nov_27_1642,SpeechDraft1Carolyn_lessNoise_PlusLocalization,2021.2.3,59.99347092858948,
flip.wav,flip.mpg,flip,5,A,Pink_Noise_5_1.wav,Pink_Noise_5_2.wav,,,,,,,,,,,,,,,0,111,111,39,,,,,,,,,,,,,,,,,,,,,,,860.6381906061433,None,862.1378792249598,None,863.5214745909907,None,sit,863.5214745909907,None,return,5.110499910078943,863.6050442219712,None,,,,,,,,,,,,,,,,,,,,,,,,,,,,,,,,,,,,,,,139,001,2023_Nov_27_1642,SpeechDraft1Carolyn_lessNoise_PlusLocalization,2021.2.3,59.99347092858948,
bomb.wav,bomb.mpg,bomb,2,A,Pink_Noise_2_1.wav,Pink_Noise_2_2.wav,,,,,,,,,,,,,,,0,112,112,6,,,,,,,,,,,,,,,,,,,,,,,868.7381256730296,None,870.2715017893352,None,871.6549834972247,None,bomb,871.6549834972247,None,return,1.121467917226255,871.7381301471032,None,,,,,,,,,,,,,,,,,,,,,,,,,,,,,,,,,,,,,,,139,001,2023_Nov_27_1642,SpeechDraft1Carolyn_lessNoise_PlusLocalization,2021.2.3,59.99347092858948,
dig.wav,dig.mpg,dig,3,A,Pink_Noise_3_1.wav,Pink_Noise_3_2.wav,,,,,,,,,,,,,,,0,113,113,13,,,,,,,,,,,,,,,,,,,,,,,872.8881584079936,None,874.421136118006,None,875.8054449083284,None,dig,875.8054449083284,None,return,2.299470713827759,875.8881690269336,None,,,,,,,,,,,,,,,,,,,,,,,,,,,,,,,,,,,,,,,139,001,2023_Nov_27_1642,SpeechDraft1Carolyn_lessNoise_PlusLocalization,2021.2.3,59.99347092858948,
gap.wav,gap.mpg,gap,1,A,Pink_Noise_1_1.wav,Pink_Noise_1_2.wav,,,,,,,,,,,,,,,0,114,114,21,,,,,,,,,,,,,,,,,,,,,,,878.2047878741287,None,879.7379039931111,None,881.1214586272836,None,gap,881.1214586272836,None,return,1.3667219066992402,881.2048234981485,None,,,,,,,,,,,,,,,,,,,,,,,,,,,,,,,,,,,,,,,139,001,2023_Nov_27_1642,SpeechDraft1Carolyn_lessNoise_PlusLocalization,2021.2.3,59.99347092858948,
sun.wav,sun.mpg,sun,5,A,Pink_Noise_5_1.wav,Pink_Noise_5_2.wav,,,,,,,,,,,,,,,0,115,115,14,,,,,,,,,,,,,,,,,,,,,,,882.5881449901499,None,884.1045292499475,None,885.4880672013387,None,cent,885.4880672013387,None,return,9.408132136799395,885.5714503428899,None,,,,,,,,,,,,,,,,,,,,,,,,,,,,,,,,,,,,,,,139,001,2023_Nov_27_1642,SpeechDraft1Carolyn_lessNoise_PlusLocalization,2021.2.3,59.99347092858948,
grade.wav,grade.mpg,grade,5,A,Pink_Noise_5_1.wav,Pink_Noise_5_2.wav,,,,,,,,,,,,,,,0,116,116,35,,,,,,,,,,,,,,,,,,,,,,,895.0048304111697,None,896.5211514648981,None,897.9048594869673,None,raid,897.9048594869673,None,return,1.4313960350118577,897.9881518241018,None,,,,,,,,,,,,,,,,,,,,,,,,,,,,,,,,,,,,,,,139,001,2023_Nov_27_1642,SpeechDraft1Carolyn_lessNoise_PlusLocalization,2021.2.3,59.99347092858948,
bunch.wav,bunch.mpg,bunch,2,AV,Pink_Noise_2_1.wav,Pink_Noise_2_2.wav,,,,,,,,,,,,,,,0,117,117,78,,,,,,,,,,,,,,,,,,,,,,,899.4381080153398,None,900.9711562120356,None,902.354759727139,None,bunch,902.354759727139,None,return,3.8932893299497664,902.4382502143271,None,,,,,,,,,,,,,,,,,,,,,,,,,,,,,,,,,,,,,,,139,001,2023_Nov_27_1642,SpeechDraft1Carolyn_lessNoise_PlusLocalization,2021.2.3,59.99347092858948,
led.wav,led.mpg,led,4,A,Pink_Noise_4_1.wav,Pink_Noise_4_2.wav,,,,,,,,,,,,,,,0,118,118,58,,,,,,,,,,,,,,,,,,,,,,,906.3548161261715,None,907.8711799331941,None,909.2549580889754,None,dread,909.2549580889754,None,return,3.241206659004092,909.3383328109048,None,,,,,,,,,,,,,,,,,,,,,,,,,,,,,,,,,,,,,,,139,001,2023_Nov_27_1642,SpeechDraft1Carolyn_lessNoise_PlusLocalization,2021.2.3,59.99347092858948,
gram.wav,gram.mpg,gram,6,A,Pink_Noise_6_1.wav,Pink_Noise_6_2.wav,,,,,,,,,,,,,,,0,119,119,53,,,,,,,,,,,,,,,,,,,,,,,912.604814958293,None,914.1378024360165,None,915.5214905771427,None,hang,915.5214905771427,None,return,2.7425396889448166,915.6050116810948,None,,,,,,,,,,,,,,,,,,,,,,,,,,,,,,,,,,,,,,,139,001,2023_Nov_27_1642,SpeechDraft1Carolyn_lessNoise_PlusLocalization,2021.2.3,59.99347092858948,
,,,,,,,,,,,,,,,,,,,,,,,,,,,,,,,,,,,,,,,,,,,,,,,,,,,,,,,,,,,,,,,,,,space,16.42796644801274,918.4715480762534,None,,,,,,,,,,,,,,,,,,,,,,,,,,,,,139,001,2023_Nov_27_1642,SpeechDraft1Carolyn_lessNoise_PlusLocalization,2021.2.3,59.99347092858948,
,,,,,,,,farLeft,-19.1,5,ch1Sound_localizationTask.wav,-19.1,"(667, 878)","(-293,-202)",-285,-338,,,,,,,,,0,0,0,0,,,,,,,,,,,,,,,,,,,,,,,,,,,,,,,,,,,,,,,,,,918.4715480762534,None,934.9379300773144,None,936.0553265563212,None,936.9712457740679,None,1.1164021164021163,3.8683021157048643,936.9712457740679,None,,,,,,,,,,,,,,,,,139,001,2023_Nov_27_1642,SpeechDraft1Carolyn_lessNoise_PlusLocalization,2021.2.3,59.99347092858948,
,,,,,,,,nearLeft,-6.5,1,ch1Sound_localizationTask.wav,-6.5,"(857, 878)","(-103,-202)",-95,-338,,,,,,,,,0,1,1,2,,,,,,,,,,,,,,,,,,,,,,,,,,,,,,,,,,,,,,,,,,,,940.8381038969383,None,941.9381971228868,None,942.8713133032434,None,1.0037037037037038,4.216142661869526,942.8713133032434,None,,,,,,,,,,,,,,,,,139,001,2023_Nov_27_1642,SpeechDraft1Carolyn_lessNoise_PlusLocalization,2021.2.3,59.99347092858948,
,,,,,,,,nearRight,6.5,0,ch1Sound_localizationTask.wav,6.5,"(1047, 878)","(87, -202)",95,-338,,,,,,,,,0,2,2,4,,,,,,,,,,,,,,,,,,,,,,,,,,,,,,,,,,,,,,,,,,,,947.0880905808881,None,948.1879797000438,None,949.1212549973279,None,1.9851851851851852,2.8989465851336718,949.1212549973279,None,,,,,,,,,,,,,,,,,139,001,2023_Nov_27_1642,SpeechDraft1Carolyn_lessNoise_PlusLocalization,2021.2.3,59.99347092858948,
,,,,,,,,midRight,13.0,3,ch1Sound_localizationTask.wav,13.0,"(1142, 878)","(182, -202)",190,-338,,,,,,,,,0,3,3,5,,,,,,,,,,,,,,,,,,,,,,,,,,,,,,,,,,,,,,,,,,,,952.0214912332594,None,953.121260151267,None,954.0547782680951,None,1.9772486772486773,1.8159487419761717,954.0547782680951,None,,,,,,,,,,,,,,,,,139,001,2023_Nov_27_1642,SpeechDraft1Carolyn_lessNoise_PlusLocalization,2021.2.3,59.99347092858948,
,,,,,,,,nearRight,6.5,0,ch1Sound_localizationTask.wav,6.5,"(1047, 878)","(87, -202)",95,-338,,,,,,,,,0,4,4,4,,,,,,,,,,,,,,,,,,,,,,,,,,,,,,,,,,,,,,,,,,,,955.8715497492813,None,956.9713308820501,None,957.9047402660362,None,1.5026455026455028,1.633114197757095,957.9047402660362,None,,,,,,,,,,,,,,,,,139,001,2023_Nov_27_1642,SpeechDraft1Carolyn_lessNoise_PlusLocalization,2021.2.3,59.99347092858948,
,,,,,,,,nearRight,6.5,0,ch1Sound_localizationTask.wav,6.5,"(1047, 878)","(87, -202)",95,-338,,,,,,,,,0,5,5,4,,,,,,,,,,,,,,,,,,,,,,,,,,,,,,,,,,,,,,,,,,,,959.5382434469648,None,960.6380361448973,None,961.5714834029786,None,1.671957671957672,0.8158037369139493,961.5714834029786,None,,,,,,,,,,,,,,,,,139,001,2023_Nov_27_1642,SpeechDraft1Carolyn_lessNoise_PlusLocalization,2021.2.3,59.99347092858948,
,,,,,,,,nearLeft,-6.5,1,ch1Sound_localizationTask.wav,-6.5,"(857, 878)","(-103,-202)",-95,-338,,,,,,,,,0,6,6,2,,,,,,,,,,,,,,,,,,,,,,,,,,,,,,,,,,,,,,,,,,,,962.3881188719533,None,963.4882442699745,None,964.4214865071699,None,1.1772486772486772,1.1823216369375587,964.4214865071699,None,,,,,,,,,,,,,,,,,139,001,2023_Nov_27_1642,SpeechDraft1Carolyn_lessNoise_PlusLocalization,2021.2.3,59.99347092858948,
,,,,,,,,farLeft,-19.1,5,ch1Sound_localizationTask.wav,-19.1,"(667, 878)","(-293,-202)",-285,-338,,,,,,,,,1,0,7,0,,,,,,,,,,,,,,,,,,,,,,,,,,,,,,,,,,,,,,,,,,,,965.6048642559908,None,966.7047044010833,None,967.6380587872118,None,1.0671957671957673,1.7322435439564288,967.6380587872118,None,,,,,,,,,,,,,,,,,139,001,2023_Nov_27_1642,SpeechDraft1Carolyn_lessNoise_PlusLocalization,2021.2.3,59.99347092858948,
,,,,,,,,midLeft,-13.0,2,ch1Sound_localizationTask.wav,-13.0,"(762, 878)","(-198,-202)",-190,-338,,,,,,,,,1,1,8,1,,,,,,,,,,,,,,,,,,,,,,,,,,,,,,,,,,,,,,,,,,,,969.3715926948935,None,970.4713769531809,None,971.4047760050744,None,1.1042328042328042,1.2325360737740993,971.4047760050744,None,,,,,,,,,,,,,,,,,139,001,2023_Nov_27_1642,SpeechDraft1Carolyn_lessNoise_PlusLocalization,2021.2.3,59.99347092858948,
,,,,,,,,center,0.0,6,ch1Sound_localizationTask.wav,0.0,"(952, 878)","(-8,-202)",0,-338,,,,,,,,,1,2,9,3,,,,,,,,,,,,,,,,,,,,,,,,,,,,,,,,,,,,,,,,,,,,972.638367980253,None,973.7379965279251,None,974.6714188111946,None,1.5825396825396827,1.0828821640461683,974.6714188111946,None,,,,,,,,,,,,,,,,,139,001,2023_Nov_27_1642,SpeechDraft1Carolyn_lessNoise_PlusLocalization,2021.2.3,59.99347092858948,
,,,,,,,,midLeft,-13.0,2,ch1Sound_localizationTask.wav,-13.0,"(762, 878)","(-198,-202)",-190,-338,,,,,,,,,1,3,10,1,,,,,,,,,,,,,,,,,,,,,,,,,,,,,,,,,,,,,,,,,,,,975.7548611499369,None,976.854615110904,None,977.7880598651245,None,1.0275132275132275,1.7318294811993837,977.7880598651245,None,,,,,,,,,,,,,,,,,139,001,2023_Nov_27_1642,SpeechDraft1Carolyn_lessNoise_PlusLocalization,2021.2.3,59.99347092858948,
,,,,,,,,nearLeft,-6.5,1,ch1Sound_localizationTask.wav,-6.5,"(857, 878)","(-103,-202)",-95,-338,,,,,,,,,1,4,11,2,,,,,,,,,,,,,,,,,,,,,,,,,,,,,,,,,,,,,,,,,,,,979.5218063420616,None,980.6213821163401,None,981.5547802723013,None,1.3338624338624339,1.249576379545033,981.5547802723013,None,,,,,,,,,,,,,,,,,139,001,2023_Nov_27_1642,SpeechDraft1Carolyn_lessNoise_PlusLocalization,2021.2.3,59.99347092858948,
,,,,,,,,center,0.0,6,ch1Sound_localizationTask.wav,0.0,"(952, 878)","(-8,-202)",0,-338,,,,,,,,,1,5,12,3,,,,,,,,,,,,,,,,,,,,,,,,,,,,,,,,,,,,,,,,,,,,982.8049551779404,None,983.9047901299782,None,984.8380822571926,None,1.53015873015873,0.9326907070353627,984.8380822571926,None,,,,,,,,,,,,,,,,,139,001,2023_Nov_27_1642,SpeechDraft1Carolyn_lessNoise_PlusLocalization,2021.2.3,59.99347092858948,
,,,,,,,,midRight,13.0,3,ch1Sound_localizationTask.wav,13.0,"(1142, 878)","(182, -202)",190,-338,,,,,,,,,1,6,13,5,,,,,,,,,,,,,,,,,,,,,,,,,,,,,,,,,,,,,,,,,,,,985.771570822224,None,986.8714353051037,None,987.8048655781895,None,1.9592592592592593,0.9829011289402843,987.8048655781895,None,,,,,,,,,,,,,,,,,139,001,2023_Nov_27_1642,SpeechDraft1Carolyn_lessNoise_PlusLocalization,2021.2.3,59.99347092858948,
,,,,,,,,farRight,19.1,4,ch1Sound_localizationTask.wav,19.1,"(1237, 878)","(277,-202)",285,-338,,,,,,,,,2,0,14,6,,,,,,,,,,,,,,,,,,,,,,,,,,,,,,,,,,,,,,,,,,,,988.7883745962754,None,989.8879915140569,None,990.8213115590625,None,1.6544973544973545,1.0831149937584996,990.8213115590625,None,,,,,,,,,,,,,,,,,139,001,2023_Nov_27_1642,SpeechDraft1Carolyn_lessNoise_PlusLocalization,2021.2.3,59.99347092858948,
,,,,,,,,farRight,19.1,4,ch1Sound_localizationTask.wav,19.1,"(1237, 878)","(277,-202)",285,-338,,,,,,,,,2,1,15,6,,,,,,,,,,,,,,,,,,,,,,,,,,,,,,,,,,,,,,,,,,,,991.9049221421592,None,993.0051678749733,None,993.9382714009844,None,1.6661375661375661,1.2664450290612876,993.9382714009844,None,,,,,,,,,,,,,,,,,139,001,2023_Nov_27_1642,SpeechDraft1Carolyn_lessNoise_PlusLocalization,2021.2.3,59.99347092858948,
,,,,,,,,nearLeft,-6.5,1,ch1Sound_localizationTask.wav,-6.5,"(857, 878)","(-103,-202)",-95,-338,,,,,,,,,2,2,16,2,,,,,,,,,,,,,,,,,,,,,,,,,,,,,,,,,,,,,,,,,,,,995.2049173512496,None,996.3048687451519,None,997.2380727361888,None,1.1761904761904762,1.0979301230981946,997.2380727361888,None,,,,,,,,,,,,,,,,,139,001,2023_Nov_27_1642,SpeechDraft1Carolyn_lessNoise_PlusLocalization,2021.2.3,59.99347092858948,
,,,,,,,,farRight,19.1,4,ch1Sound_localizationTask.wav,19.1,"(1237, 878)","(277,-202)",285,-338,,,,,,,,,2,3,17,6,,,,,,,,,,,,,,,,,,,,,,,,,,,,,,,,,,,,,,,,,,,,998.3382644979283,None,999.438184923958,None,1000.3713790653273,None,1.7798941798941799,1.3320301449857652,1000.3713790653273,None,,,,,,,,,,,,,,,,,139,001,2023_Nov_27_1642,SpeechDraft1Carolyn_lessNoise_PlusLocalization,2021.2.3,59.99347092858948,
,,,,,,,,nearLeft,-6.5,1,ch1Sound_localizationTask.wav,-6.5,"(857, 878)","(-103,-202)",-95,-338,,,,,,,,,2,4,18,2,,,,,,,,,,,,,,,,,,,,,,,,,,,,,,,,,,,,,,,,,,,,1001.7050709002651,None,1002.8047034321353,None,1003.7381394281983,None,1.3396825396825398,1.2498323237523437,1003.7381394281983,None,,,,,,,,,,,,,,,,,139,001,2023_Nov_27_1642,SpeechDraft1Carolyn_lessNoise_PlusLocalization,2021.2.3,59.99347092858948,
,,,,,,,,farRight,19.1,4,ch1Sound_localizationTask.wav,19.1,"(1237, 878)","(277,-202)",285,-338,,,,,,,,,2,5,19,6,,,,,,,,,,,,,,,,,,,,,,,,,,,,,,,,,,,,,,,,,,,,1004.9883082541637,None,1006.0880360160954,None,1007.021482503973,None,1.8608465608465607,0.8993107876740396,1007.021482503973,None,,,,,,,,,,,,,,,,,139,001,2023_Nov_27_1642,SpeechDraft1Carolyn_lessNoise_PlusLocalization,2021.2.3,59.99347092858948,
,,,,,,,,midRight,13.0,3,ch1Sound_localizationTask.wav,13.0,"(1142, 878)","(182, -202)",190,-338,,,,,,,,,2,6,20,5,,,,,,,,,,,,,,,,,,,,,,,,,,,,,,,,,,,,,,,,,,,,1007.9215672109276,None,1009.0215545613319,None,1009.9547671531327,None,1.6767195767195768,0.9162289602681994,1009.9547671531327,None,,,,,,,,,,,,,,,,,139,001,2023_Nov_27_1642,SpeechDraft1Carolyn_lessNoise_PlusLocalization,2021.2.3,59.99347092858948,
,,,,,,,,farRight,19.1,4,ch1Sound_localizationTask.wav,19.1,"(1237, 878)","(277,-202)",285,-338,,,,,,,,,3,0,21,6,,,,,,,,,,,,,,,,,,,,,,,,,,,,,,,,,,,,,,,,,,,,1010.8715685219504,None,1011.971383490134,None,1012.9048456191085,None,1.7534391534391536,0.7991732838563621,1012.9048456191085,None,,,,,,,,,,,,,,,,,139,001,2023_Nov_27_1642,SpeechDraft1Carolyn_lessNoise_PlusLocalization,2021.2.3,59.99347092858948,
,,,,,,,,nearRight,6.5,0,ch1Sound_localizationTask.wav,6.5,"(1047, 878)","(87, -202)",95,-338,,,,,,,,,3,1,22,4,,,,,,,,,,,,,,,,,,,,,,,,,,,,,,,,,,,,,,,,,,,,1013.7049661292695,None,1014.804753378965,None,1015.7380557078868,None,1.4857142857142858,0.599631829187274,1015.7380557078868,None,,,,,,,,,,,,,,,,,139,001,2023_Nov_27_1642,SpeechDraft1Carolyn_lessNoise_PlusLocalization,2021.2.3,59.99347092858948,
,,,,,,,,farLeft,-19.1,5,ch1Sound_localizationTask.wav,-19.1,"(667, 878)","(-293,-202)",-285,-338,,,,,,,,,3,2,23,0,,,,,,,,,,,,,,,,,,,,,,,,,,,,,,,,,,,,,,,,,,,,1016.3383339270949,None,1017.4381652600132,None,1018.3714225352742,None,1.0195767195767196,1.5830166293308139,1018.3714225352742,None,,,,,,,,,,,,,,,,,139,001,2023_Nov_27_1642,SpeechDraft1Carolyn_lessNoise_PlusLocalization,2021.2.3,59.99347092858948,
,,,,,,,,farLeft,-19.1,5,ch1Sound_localizationTask.wav,-19.1,"(667, 878)","(-293,-202)",-285,-338,,,,,,,,,3,3,24,0,,,,,,,,,,,,,,,,,,,,,,,,,,,,,,,,,,,,,,,,,,,,1019.9550010780804,None,1021.0548419589177,None,1021.9880267689005,None,1.0915343915343916,1.3830319452099502,1021.9880267689005,None,,,,,,,,,,,,,,,,,139,001,2023_Nov_27_1642,SpeechDraft1Carolyn_lessNoise_PlusLocalization,2021.2.3,59.99347092858948,
,,,,,,,,midRight,13.0,3,ch1Sound_localizationTask.wav,13.0,"(1142, 878)","(182, -202)",190,-338,,,,,,,,,3,4,25,5,,,,,,,,,,,,,,,,,,,,,,,,,,,,,,,,,,,,,,,,,,,,1023.3719107932411,None,1024.4714355091564,None,1025.4048181762919,None,1.6481481481481481,1.1830465141683817,1025.4048181762919,None,,,,,,,,,,,,,,,,,139,001,2023_Nov_27_1642,SpeechDraft1Carolyn_lessNoise_PlusLocalization,2021.2.3,59.99347092858948,
,,,,,,,,center,0.0,6,ch1Sound_localizationTask.wav,0.0,"(952, 878)","(-8,-202)",0,-338,,,,,,,,,3,5,26,3,,,,,,,,,,,,,,,,,,,,,,,,,,,,,,,,,,,,,,,,,,,,1026.5883311573416,None,1027.6880567362532,None,1028.6215082961135,None,1.4248677248677248,1.0330078108236194,1028.6215082961135,None,,,,,,,,,,,,,,,,,139,001,2023_Nov_27_1642,SpeechDraft1Carolyn_lessNoise_PlusLocalization,2021.2.3,59.99347092858948,
,,,,,,,,nearRight,6.5,0,ch1Sound_localizationTask.wav,6.5,"(1047, 878)","(87, -202)",95,-338,,,,,,,,,3,6,27,4,,,,,,,,,,,,,,,,,,,,,,,,,,,,,,,,,,,,,,,,,,,,1029.6549105159938,None,1030.7546499799937,None,1031.6881151441485,None,1.525925925925926,0.8155676648020744,1031.6881151441485,None,,,,,,,,,,,,,,,,,139,001,2023_Nov_27_1642,SpeechDraft1Carolyn_lessNoise_PlusLocalization,2021.2.3,59.99347092858948,
,,,,,,,,midRight,13.0,3,ch1Sound_localizationTask.wav,13.0,"(1142, 878)","(182, -202)",190,-338,,,,,,,,,4,0,28,5,,,,,,,,,,,,,,,,,,,,,,,,,,,,,,,,,,,,,,,,,,,,1032.5049904049374,None,1033.604763776064,None,1034.5381417302415,None,1.6973544973544974,0.8320697881281376,1034.5381417302415,None,,,,,,,,,,,,,,,,,139,001,2023_Nov_27_1642,SpeechDraft1Carolyn_lessNoise_PlusLocalization,2021.2.3,59.99347092858948,
,,,,,,,,nearLeft,-6.5,1,ch1Sound_localizationTask.wav,-6.5,"(857, 878)","(-103,-202)",-95,-338,,,,,,,,,4,1,29,2,,,,,,,,,,,,,,,,,,,,,,,,,,,,,,,,,,,,,,,,,,,,1035.3716915170662,None,1036.471458752174,None,1037.4048448479734,None,1.2502645502645502,1.2497158111073077,1037.4048448479734,None,,,,,,,,,,,,,,,,,139,001,2023_Nov_27_1642,SpeechDraft1Carolyn_lessNoise_PlusLocalization,2021.2.3,59.99347092858948,
,,,,,,,,nearRight,6.5,0,ch1Sound_localizationTask.wav,6.5,"(1047, 878)","(87, -202)",95,-338,,,,,,,,,4,2,30,4,,,,,,,,,,,,,,,,,,,,,,,,,,,,,,,,,,,,,,,,,,,,1038.6550014410168,None,1039.7547672418877,None,1040.6881112451665,None,1.5407407407407407,0.9659590828232467,1040.6881112451665,None,,,,,,,,,,,,,,,,,139,001,2023_Nov_27_1642,SpeechDraft1Carolyn_lessNoise_PlusLocalization,2021.2.3,59.99347092858948,
,,,,,,,,farRight,19.1,4,ch1Sound_localizationTask.wav,19.1,"(1237, 878)","(277,-202)",285,-338,,,,,,,,,4,3,31,6,,,,,,,,,,,,,,,,,,,,,,,,,,,,,,,,,,,,,,,,,,,,1041.655159395188,None,1042.7548191673122,None,1043.6882035708986,None,1.75978835978836,0.8824950009584427,1043.6882035708986,None,,,,,,,,,,,,,,,,,139,001,2023_Nov_27_1642,SpeechDraft1Carolyn_lessNoise_PlusLocalization,2021.2.3,59.99347092858948,
,,,,,,,,midLeft,-13.0,2,ch1Sound_localizationTask.wav,-13.0,"(762, 878)","(-198,-202)",-190,-338,,,,,,,,,4,4,32,1,,,,,,,,,,,,,,,,,,,,,,,,,,,,,,,,,,,,,,,,,,,,1044.571687669959,None,1045.6715656640008,None,1046.6048908242956,None,1.1333333333333333,0.9818513565696776,1046.6048908242956,None,,,,,,,,,,,,,,,,,139,001,2023_Nov_27_1642,SpeechDraft1Carolyn_lessNoise_PlusLocalization,2021.2.3,59.99347092858948,
,,,,,,,,midRight,13.0,3,ch1Sound_localizationTask.wav,13.0,"(1142, 878)","(182, -202)",190,-338,,,,,,,,,4,5,33,5,,,,,,,,,,,,,,,,,,,,,,,,,,,,,,,,,,,,,,,,,,,,1047.5883420142345,None,1048.688024987001,None,1049.621644211933,None,1.6333333333333333,0.8659063540399075,1049.621644211933,None,,,,,,,,,,,,,,,,,139,001,2023_Nov_27_1642,SpeechDraft1Carolyn_lessNoise_PlusLocalization,2021.2.3,59.99347092858948,
,,,,,,,,farRight,19.1,4,ch1Sound_localizationTask.wav,19.1,"(1237, 878)","(277,-202)",285,-338,,,,,,,,,4,6,34,6,,,,,,,,,,,,,,,,,,,,,,,,,,,,,,,,,,,,,,,,,,,,1050.4883266221732,None,1051.5882393880747,None,1052.5214550420642,None,1.7687830687830688,1.0499859410338104,1052.5214550420642,None,,,,,,,,,,,,,,,,,139,001,2023_Nov_27_1642,SpeechDraft1Carolyn_lessNoise_PlusLocalization,2021.2.3,59.99347092858948,
,,,,,,,,center,0.0,6,ch1Sound_localizationTask.wav,0.0,"(952, 878)","(-8,-202)",0,-338,,,,,,,,,5,0,35,3,,,,,,,,,,,,,,,,,,,,,,,,,,,,,,,,,,,,,,,,,,,,1053.5718831298873,None,1054.6715746829286,None,1055.604842192959,None,1.3883597883597885,1.0817740140482783,1055.604842192959,None,,,,,,,,,,,,,,,,,139,001,2023_Nov_27_1642,SpeechDraft1Carolyn_lessNoise_PlusLocalization,2021.2.3,59.99347092858948,
,,,,,,,,midRight,13.0,3,ch1Sound_localizationTask.wav,13.0,"(1142, 878)","(182, -202)",190,-338,,,,,,,,,5,1,36,5,,,,,,,,,,,,,,,,,,,,,,,,,,,,,,,,,,,,,,,,,,,,1056.6883409773,None,1057.7881827270612,None,1058.721407117322,None,1.6423280423280424,0.8486906299367547,1058.721407117322,None,,,,,,,,,,,,,,,,,139,001,2023_Nov_27_1642,SpeechDraft1Carolyn_lessNoise_PlusLocalization,2021.2.3,59.99347092858948,
,,,,,,,,midLeft,-13.0,2,ch1Sound_localizationTask.wav,-13.0,"(762, 878)","(-198,-202)",-190,-338,,,,,,,,,5,2,37,1,,,,,,,,,,,,,,,,,,,,,,,,,,,,,,,,,,,,,,,,,,,,1059.5717908609658,None,1060.6716282232665,None,1061.6048076068982,None,1.2386243386243385,1.06615708488971,1061.6048076068982,None,,,,,,,,,,,,,,,,,139,001,2023_Nov_27_1642,SpeechDraft1Carolyn_lessNoise_PlusLocalization,2021.2.3,59.99347092858948,
,,,,,,,,center,0.0,6,ch1Sound_localizationTask.wav,0.0,"(952, 878)","(-8,-202)",0,-338,,,,,,,,,5,3,38,3,,,,,,,,,,,,,,,,,,,,,,,,,,,,,,,,,,,,,,,,,,,,1062.6717478870414,None,1063.7714862939902,None,1064.7050415892154,None,1.3793650793650793,0.9489715467207134,1064.7050415892154,None,,,,,,,,,,,,,,,,,139,001,2023_Nov_27_1642,SpeechDraft1Carolyn_lessNoise_PlusLocalization,2021.2.3,59.99347092858948,
,,,,,,,,center,0.0,6,ch1Sound_localizationTask.wav,0.0,"(952, 878)","(-8,-202)",0,-338,,,,,,,,,5,4,39,3,,,,,,,,,,,,,,,,,,,,,,,,,,,,,,,,,,,,,,,,,,,,1065.655092956964,None,1066.7548325662501,None,1067.6880835979246,None,1.3793650793650793,0.7003547390922904,1067.6880835979246,None,,,,,,,,,,,,,,,,,139,001,2023_Nov_27_1642,SpeechDraft1Carolyn_lessNoise_PlusLocalization,2021.2.3,59.99347092858948,
,,,,,,,,midRight,13.0,3,ch1Sound_localizationTask.wav,13.0,"(1142, 878)","(182, -202)",190,-338,,,,,,,,,5,5,40,5,,,,,,,,,,,,,,,,,,,,,,,,,,,,,,,,,,,,,,,,,,,,1068.388366447296,None,1069.488081106916,None,1070.4215941210277,None,1.6566137566137566,1.0328837209381163,1070.4215941210277,None,,,,,,,,,,,,,,,,,139,001,2023_Nov_27_1642,SpeechDraft1Carolyn_lessNoise_PlusLocalization,2021.2.3,59.99347092858948,
,,,,,,,,farLeft,-19.1,5,ch1Sound_localizationTask.wav,-19.1,"(667, 878)","(-293,-202)",-285,-338,,,,,,,,,5,6,41,0,,,,,,,,,,,,,,,,,,,,,,,,,,,,,,,,,,,,,,,,,,,,1071.455039049033,None,1072.5552746253088,None,1073.4882992519997,None,1.1285714285714286,1.31765002803877,1073.4882992519997,None,,,,,,,,,,,,,,,,,139,001,2023_Nov_27_1642,SpeechDraft1Carolyn_lessNoise_PlusLocalization,2021.2.3,59.99347092858948,
,,,,,,,,midLeft,-13.0,2,ch1Sound_localizationTask.wav,-13.0,"(762, 878)","(-198,-202)",-190,-338,,,,,,,,,6,0,42,1,,,,,,,,,,,,,,,,,,,,,,,,,,,,,,,,,,,,,,,,,,,,1074.82170835929,None,1075.9215159718879,None,1076.8547797631472,None,1.1105820105820106,1.5328923519700766,1076.8547797631472,None,,,,,,,,,,,,,,,,,139,001,2023_Nov_27_1642,SpeechDraft1Carolyn_lessNoise_PlusLocalization,2021.2.3,59.99347092858948,
,,,,,,,,nearRight,6.5,0,ch1Sound_localizationTask.wav,6.5,"(1047, 878)","(87, -202)",95,-338,,,,,,,,,6,1,43,4,,,,,,,,,,,,,,,,,,,,,,,,,,,,,,,,,,,,,,,,,,,,1078.3883877769113,None,1079.488159656059,None,1080.4216525112279,None,1.5544973544973546,1.1162874740548432,1080.4216525112279,None,,,,,,,,,,,,,,,,,139,001,2023_Nov_27_1642,SpeechDraft1Carolyn_lessNoise_PlusLocalization,2021.2.3,59.99347092858948,
,,,,,,,,farLeft,-19.1,5,ch1Sound_localizationTask.wav,-19.1,"(667, 878)","(-293,-202)",-285,-338,,,,,,,,,6,2,44,0,,,,,,,,,,,,,,,,,,,,,,,,,,,,,,,,,,,,,,,,,,,,1081.5384008572437,None,1082.6380879268982,None,1083.571582352277,None,1.115873015873016,1.1990082850679755,1083.571582352277,None,,,,,,,,,,,,,,,,,139,001,2023_Nov_27_1642,SpeechDraft1Carolyn_lessNoise_PlusLocalization,2021.2.3,59.99347092858948,
,,,,,,,,nearLeft,-6.5,1,ch1Sound_localizationTask.wav,-6.5,"(857, 878)","(-103,-202)",-95,-338,,,,,,,,,6,3,45,2,,,,,,,,,,,,,,,,,,,,,,,,,,,,,,,,,,,,,,,,,,,,1084.7717763013206,None,1085.8716226690449,None,1086.8047943729907,None,1.2751322751322751,0.9505685702897608,1086.8047943729907,None,,,,,,,,,,,,,,,,,139,001,2023_Nov_27_1642,SpeechDraft1Carolyn_lessNoise_PlusLocalization,2021.2.3,59.99347092858948,
,,,,,,,,farLeft,-19.1,5,ch1Sound_localizationTask.wav,-19.1,"(667, 878)","(-293,-202)",-285,-338,,,,,,,,,6,4,46,0,,,,,,,,,,,,,,,,,,,,,,,,,,,,,,,,,,,,,,,,,,,,1087.7556576370262,None,1088.8549547563307,None,1089.7882684660144,None,1.1544973544973545,0.7822972568683326,1089.7882684660144,None,,,,,,,,,,,,,,,,,139,001,2023_Nov_27_1642,SpeechDraft1Carolyn_lessNoise_PlusLocalization,2021.2.3,59.99347092858948,
,,,,,,,,center,0.0,6,ch1Sound_localizationTask.wav,0.0,"(952, 878)","(-8,-202)",0,-338,,,,,,,,,6,5,47,3,,,,,,,,,,,,,,,,,,,,,,,,,,,,,,,,,,,,,,,,,,,,1090.571774638258,None,1091.671584900003,None,1092.6049382402562,None,1.4412698412698413,0.9481267547234893,1092.6049382402562,None,,,,,,,,,,,,,,,,,139,001,2023_Nov_27_1642,SpeechDraft1Carolyn_lessNoise_PlusLocalization,2021.2.3,59.99347092858948,
,,,,,,,,nearLeft,-6.5,1,ch1Sound_localizationTask.wav,-6.5,"(857, 878)","(-103,-202)",-95,-338,,,,,,,,,6,6,48,2,,,,,,,,,,,,,,,,,,,,,,,,,,,,,,,,,,,,,,,,,,,,1093.5550518110394,None,1094.6548889209516,None,1095.5881993561052,None,1.3391534391534392,0.8823118656873703,1095.5881993561052,None,,,,,,,,,,,,,,,,,139,001,2023_Nov_27_1642,SpeechDraft1Carolyn_lessNoise_PlusLocalization,2021.2.3,59.99347092858948,
,,,,,,,,farRight,19.1,4,ch1Sound_localizationTask.wav,19.1,"(1237, 878)","(277,-202)",285,-338,,,,,,,,,7,0,49,6,,,,,,,,,,,,,,,,,,,,,,,,,,,,,,,,,,,,,,,,,,,,1096.4717373372987,None,1097.571537568234,None,1098.504844846204,None,1.825925925925926,1.0152345849201083,1098.504844846204,None,,,,,,,,,,,,,,,,,139,001,2023_Nov_27_1642,SpeechDraft1Carolyn_lessNoise_PlusLocalization,2021.2.3,59.99347092858948,
,,,,,,,,nearRight,6.5,0,ch1Sound_localizationTask.wav,6.5,"(1047, 878)","(87, -202)",95,-338,,,,,,,,,7,1,50,4,,,,,,,,,,,,,,,,,,,,,,,,,,,,,,,,,,,,,,,,,,,,1099.5217493153177,None,1100.6214874051511,None,1101.5548820211552,None,1.5238095238095237,0.6662573032081127,1101.5548820211552,None,,,,,,,,,,,,,,,,,139,001,2023_Nov_27_1642,SpeechDraft1Carolyn_lessNoise_PlusLocalization,2021.2.3,59.99347092858948,
,,,,,,,,midLeft,-13.0,2,ch1Sound_localizationTask.wav,-13.0,"(762, 878)","(-198,-202)",-190,-338,,,,,,,,,7,2,51,1,,,,,,,,,,,,,,,,,,,,,,,,,,,,,,,,,,,,,,,,,,,,1102.2219669972546,None,1103.3215217669494,None,1104.2549286899157,None,1.2962962962962963,0.8502031159587204,1104.2549286899157,None,,,,,,,,,,,,,,,,,139,001,2023_Nov_27_1642,SpeechDraft1Carolyn_lessNoise_PlusLocalization,2021.2.3,59.99347092858948,
,,,,,,,,center,0.0,6,ch1Sound_localizationTask.wav,0.0,"(952, 878)","(-8,-202)",0,-338,,,,,,,,,7,3,52,3,,,,,,,,,,,,,,,,,,,,,,,,,,,,,,,,,,,,,,,,,,,,1105.1218318161555,None,1106.22158991592,None,1107.1548394709826,None,1.4174603174603175,0.8995277578942478,1107.1548394709826,None,,,,,,,,,,,,,,,,,139,001,2023_Nov_27_1642,SpeechDraft1Carolyn_lessNoise_PlusLocalization,2021.2.3,59.99347092858948,
,,,,,,,,farLeft,-19.1,5,ch1Sound_localizationTask.wav,-19.1,"(667, 878)","(-293,-202)",-285,-338,,,,,,,,,7,4,53,0,,,,,,,,,,,,,,,,,,,,,,,,,,,,,,,,,,,,,,,,,,,,1108.0551792900078,None,1109.1548200580291,None,1110.0882469359785,None,1.1492063492063491,0.6817609542049468,1110.0882469359785,None,,,,,,,,,,,,,,,,,139,001,2023_Nov_27_1642,SpeechDraft1Carolyn_lessNoise_PlusLocalization,2021.2.3,59.99347092858948,
,,,,,,,,midLeft,-13.0,2,ch1Sound_localizationTask.wav,-13.0,"(762, 878)","(-198,-202)",-190,-338,,,,,,,,,7,5,54,1,,,,,,,,,,,,,,,,,,,,,,,,,,,,,,,,,,,,,,,,,,,,1110.7716843010858,None,1111.8715642862953,None,1112.8048777673393,None,1.2206349206349207,0.7656529089435935,1112.8048777673393,None,,,,,,,,,,,,,,,,,139,001,2023_Nov_27_1642,SpeechDraft1Carolyn_lessNoise_PlusLocalization,2021.2.3,59.99347092858948,
,,,,,,,,midLeft,-13.0,2,ch1Sound_localizationTask.wav,-13.0,"(762, 878)","(-198,-202)",-190,-338,,,,,,,,,7,6,55,1,,,,,,,,,,,,,,,,,,,,,,,,,,,,,,,,,,,,,,,,,,,,1113.5717880022712,None,1114.6715008732863,None,1115.6048046089709,None,1.3031746031746032,0.7158476747572422,1115.6048046089709,None,,,,,,,,,,,,,,,,,139,001,2023_Nov_27_1642,SpeechDraft1Carolyn_lessNoise_PlusLocalization,2021.2.3,59.99347092858948,
,,,,,,,,,,,,,,,,,,,,,,,,,,,,,,,,,,,,,,,,,,,,,,,,,,,,,,,,,,,,,,,,,,,,,,,,,,,,,,,,,,space,10.718387193977833,1116.4051565648988,None,,,,,,,,,,,,,139,001,2023_Nov_27_1642,SpeechDraft1Carolyn_lessNoise_PlusLocalization,2021.2.3,59.99347092858948,
,,,,,,,,center,0.0,6,ch1Sound_localizationTask.wav,0.0,"(952, 878)","(-8,-202)",0,-338,,,,,,,,,,,,,0,0,0,3,,,,,,,,,,,,,,,,,,,,,,,,,,,,,,,,,,,,,,,,1127.1716087008826,None,,,1130.1906632212922,None,1.4724867724867725,1.6198854800313711,1130.1906632212922,None,,,,,1116.4051565648988,None,1128.1718255309388,None,1128.3551716972142,1128.3717882502824,,,,,,,139,001,2023_Nov_27_1642,SpeechDraft1Carolyn_lessNoise_PlusLocalization,2021.2.3,59.99347092858948,
,,,,,,,,midRight,13.0,3,ch1Sound_localizationTask.wav,13.0,"(1142, 878)","(182, -202)",190,-338,,,,,,,,,,,,,0,1,1,5,,,,,,,,,,,,,,,,,,,,,,,,,,,,,,,,,,,,,,,,1131.821804874111,None,,,1134.838419796899,None,1.6238095238095238,0.8487857030704618,1134.838419796899,None,,,,,,,1132.8218280803412,None,1133.0050758812577,1133.0218268651515,,,,,,,139,001,2023_Nov_27_1642,SpeechDraft1Carolyn_lessNoise_PlusLocalization,2021.2.3,59.99347092858948,
,,,,,,,,center,0.0,6,ch1Sound_localizationTask.wav,0.0,"(952, 878)","(-8,-202)",0,-338,,,,,,,,,,,,,0,2,2,3,,,,,,,,,,,,,,,,,,,,,,,,,,,,,,,,,,,,,,,,1135.6883934750222,None,,,1138.70509756729,None,1.4962962962962962,0.6654489422217011,1138.70509756729,None,,,,,,,1136.6884811823256,None,1136.8717953520827,1136.8886061040685,,,,,,,139,001,2023_Nov_27_1642,SpeechDraft1Carolyn_lessNoise_PlusLocalization,2021.2.3,59.99347092858948,
,,,,,,,,nearRight,6.5,0,ch1Sound_localizationTask.wav,6.5,"(1047, 878)","(87, -202)",95,-338,,,,,,,,,,,,,0,3,3,4,,,,,,,,,,,,,,,,,,,,,,,,,,,,,,,,,,,,,,,,1139.3718010629527,None,,,1142.3882796159014,None,1.5597883597883597,0.9484181515872478,1142.3882796159014,None,,,,,,,1140.3718284931965,None,1140.555145686958,1140.5718572242185,,,,,,,139,001,2023_Nov_27_1642,SpeechDraft1Carolyn_lessNoise_PlusLocalization,2021.2.3,59.99347092858948,
,,,,,,,,midRight,13.0,3,ch1Sound_localizationTask.wav,13.0,"(1142, 878)","(182, -202)",190,-338,,,,,,,,,,,,,0,4,4,5,,,,,,,,,,,,,,,,,,,,,,,,,,,,,,,,,,,,,,,,1143.3385133962147,None,,,1146.355141304899,None,1.6068783068783068,1.3818477857857943,1146.355141304899,None,,,,,,,1144.3385882391594,None,1144.5218675630167,1144.538554515224,,,,,,,139,001,2023_Nov_27_1642,SpeechDraft1Carolyn_lessNoise_PlusLocalization,2021.2.3,59.99347092858948,
,,,,,,,,nearRight,6.5,0,ch1Sound_localizationTask.wav,6.5,"(1047, 878)","(87, -202)",95,-338,,,,,,,,,,,,,0,5,5,4,,,,,,,,,,,,,,,,,,,,,,,,,,,,,,,,,,,,,,,,1147.7384743080474,None,,,1150.754922834225,None,1.5476190476190477,0.8325545210391283,1150.754922834225,None,,,,,,,1148.7385430983268,None,1148.9218510850333,1148.9385305573232,,,,,,,139,001,2023_Nov_27_1642,SpeechDraft1Carolyn_lessNoise_PlusLocalization,2021.2.3,59.99347092858948,
,,,,,,,,center,0.0,6,ch1Sound_localizationTask.wav,0.0,"(952, 878)","(-8,-202)",0,-338,,,,,,,,,,,,,0,6,6,3,,,,,,,,,,,,,,,,,,,,,,,,,,,,,,,,,,,,,,,,1151.5884706829675,None,,,1154.6049546562135,None,1.4238095238095239,2.1829615142196417,1154.6049546562135,None,,,,,,,1152.5885846279562,None,1152.7720069531351,1152.7885301229544,,,,,,,139,001,2023_Nov_27_1642,SpeechDraft1Carolyn_lessNoise_PlusLocalization,2021.2.3,59.99347092858948,
,,,,,,,,nearRight,6.5,0,ch1Sound_localizationTask.wav,6.5,"(1047, 878)","(87, -202)",95,-338,,,,,,,,,,,,,1,0,7,4,,,,,,,,,,,,,,,,,,,,,,,,,,,,,,,,,,,,,,,,1156.7884331392124,None,,,1159.8051070449874,None,1.3291005291005291,2.1144243548624218,1159.8051070449874,None,,,,,,,1157.7884259643033,None,1157.9719140483066,1157.9885329911485,,,,,,,139,001,2023_Nov_27_1642,SpeechDraft1Carolyn_lessNoise_PlusLocalization,2021.2.3,59.99347092858948,
,,,,,,,,center,0.0,6,ch1Sound_localizationTask.wav,0.0,"(952, 878)","(-8,-202)",0,-338,,,,,,,,,,,,,1,1,8,3,,,,,,,,,,,,,,,,,,,,,,,,,,,,,,,,,,,,,,,,1161.9218129590154,None,,,1164.938313018065,None,1.4947089947089947,0.9499587630853057,1164.938313018065,None,,,,,,,1162.9218969410285,None,1163.1051385989413,1163.1218011123128,,,,,,,139,001,2023_Nov_27_1642,SpeechDraft1Carolyn_lessNoise_PlusLocalization,2021.2.3,59.99347092858948,
,,,,,,,,nearLeft,-6.5,1,ch1Sound_localizationTask.wav,-6.5,"(857, 878)","(-103,-202)",-95,-338,,,,,,,,,,,,,1,2,9,2,,,,,,,,,,,,,,,,,,,,,,,,,,,,,,,,,,,,,,,,1165.8885552389547,None,,,1168.9050141819753,None,1.456084656084656,0.9161475850269198,1168.9050141819753,None,,,,,,,1166.8885862901807,None,1167.0718904710375,1167.0884916572832,,,,,,,139,001,2023_Nov_27_1642,SpeechDraft1Carolyn_lessNoise_PlusLocalization,2021.2.3,59.99347092858948,
,,,,,,,,nearRight,6.5,0,ch1Sound_localizationTask.wav,6.5,"(1047, 878)","(87, -202)",95,-338,,,,,,,,,,,,,1,3,10,4,,,,,,,,,,,,,,,,,,,,,,,,,,,,,,,,,,,,,,,,1169.8217964242212,None,,,1172.8384155160747,None,1.5629629629629629,0.7325077028945088,1172.8384155160747,None,,,,,,,1170.8220077911392,None,1171.0051943422295,1171.0218834183179,,,,,,,139,001,2023_Nov_27_1642,SpeechDraft1Carolyn_lessNoise_PlusLocalization,2021.2.3,59.99347092858948,
,,,,,,,,midLeft,-13.0,2,ch1Sound_localizationTask.wav,-13.0,"(762, 878)","(-198,-202)",-190,-338,,,,,,,,,,,,,1,4,11,1,,,,,,,,,,,,,,,,,,,,,,,,,,,,,,,,,,,,,,,,1173.572023006156,None,,,1176.588443507906,None,1.3851851851851853,0.9660364151932299,1176.588443507906,None,,,,,,,1174.5719736972824,None,1174.7552054780535,1174.7719975719228,,,,,,,139,001,2023_Nov_27_1642,SpeechDraft1Carolyn_lessNoise_PlusLocalization,2021.2.3,59.99347092858948,
,,,,,,,,farLeft,-19.1,5,ch1Sound_localizationTask.wav,-19.1,"(667, 878)","(-293,-202)",-285,-338,,,,,,,,,,,,,1,5,12,0,,,,,,,,,,,,,,,,,,,,,,,,,,,,,,,,,,,,,,,,1177.555197100155,None,,,1180.5717243831605,None,1.3597883597883598,1.1487993393093348,1180.5717243831605,None,,,,,,,1178.5553454500623,None,1178.7385310269892,1178.7552447249182,,,,,,,139,001,2023_Nov_27_1642,SpeechDraft1Carolyn_lessNoise_PlusLocalization,2021.2.3,59.99347092858948,
,,,,,,,,farLeft,-19.1,5,ch1Sound_localizationTask.wav,-19.1,"(667, 878)","(-293,-202)",-285,-338,,,,,,,,,,,,,1,6,13,0,,,,,,,,,,,,,,,,,,,,,,,,,,,,,,,,,,,,,,,,1181.72188329231,None,,,1184.7382560130209,None,1.337037037037037,1.3154204613529146,1184.7382560130209,None,,,,,,,1182.721886770334,None,1182.9052990889177,1182.9218238061294,,,,,,,139,001,2023_Nov_27_1642,SpeechDraft1Carolyn_lessNoise_PlusLocalization,2021.2.3,59.99347092858948,
,,,,,,,,center,0.0,6,ch1Sound_localizationTask.wav,0.0,"(952, 878)","(-8,-202)",0,-338,,,,,,,,,,,,,2,0,14,3,,,,,,,,,,,,,,,,,,,,,,,,,,,,,,,,,,,,,,,,1186.0551280309446,None,,,1189.071743008215,None,1.5523809523809524,0.7493468020111322,1189.071743008215,None,,,,,,,1187.0553384511732,None,1187.2385492650792,1187.2552047520876,,,,,,,139,001,2023_Nov_27_1642,SpeechDraft1Carolyn_lessNoise_PlusLocalization,2021.2.3,59.99347092858948,
,,,,,,,,center,0.0,6,ch1Sound_localizationTask.wav,0.0,"(952, 878)","(-8,-202)",0,-338,,,,,,,,,,,,,2,1,15,3,,,,,,,,,,,,,,,,,,,,,,,,,,,,,,,,,,,,,,,,1189.8217665292323,None,,,1192.8383247703314,None,1.5,0.9332847446203232,1192.8383247703314,None,,,,,,,1190.8219149559736,None,1191.005227104295,1191.0218920321204,,,,,,,139,001,2023_Nov_27_1642,SpeechDraft1Carolyn_lessNoise_PlusLocalization,2021.2.3,59.99347092858948,
,,,,,,,,farRight,19.1,4,ch1Sound_localizationTask.wav,19.1,"(1237, 878)","(277,-202)",285,-338,,,,,,,,,,,,,2,2,16,6,,,,,,,,,,,,,,,,,,,,,,,,,,,,,,,,,,,,,,,,1193.7719472711906,None,,,1196.7883867672645,None,1.6529100529100529,1.1327655208297074,1196.7883867672645,None,,,,,,,1194.7718914691359,None,1194.95523645496,1194.971898522228,,,,,,,139,001,2023_Nov_27_1642,SpeechDraft1Carolyn_lessNoise_PlusLocalization,2021.2.3,59.99347092858948,
,,,,,,,,farRight,19.1,4,ch1Sound_localizationTask.wav,19.1,"(1237, 878)","(277,-202)",285,-338,,,,,,,,,,,,,2,3,17,6,,,,,,,,,,,,,,,,,,,,,,,,,,,,,,,,,,,,,,,,1197.9218305572867,None,,,1200.9383846069686,None,1.6761904761904762,1.4150060000829399,1200.9383846069686,None,,,,,,,1198.921915661078,None,1199.105369888246,1199.1218859818764,,,,,,,139,001,2023_Nov_27_1642,SpeechDraft1Carolyn_lessNoise_PlusLocalization,2021.2.3,59.99347092858948,
,,,,,,,,midRight,13.0,3,ch1Sound_localizationTask.wav,13.0,"(1142, 878)","(182, -202)",190,-338,,,,,,,,,,,,,2,4,18,5,,,,,,,,,,,,,,,,,,,,,,,,,,,,,,,,,,,,,,,,1202.3553499719128,None,,,1205.3716678260826,None,1.583068783068783,1.198680561967194,1205.3716678260826,None,,,,,,,1203.3555538491346,None,1203.5385450650938,1203.555287218187,,,,,,,139,001,2023_Nov_27_1642,SpeechDraft1Carolyn_lessNoise_PlusLocalization,2021.2.3,59.99347092858948,
,,,,,,,,center,0.0,6,ch1Sound_localizationTask.wav,0.0,"(952, 878)","(-8,-202)",0,-338,,,,,,,,,,,,,2,5,19,3,,,,,,,,,,,,,,,,,,,,,,,,,,,,,,,,,,,,,,,,1206.5718933749013,None,,,1209.5884007452987,None,1.5010582010582012,1.1155838361009955,1209.5884007452987,None,,,,,,,1207.5719263609499,None,1207.755320860073,1207.7718832190149,,,,,,,139,001,2023_Nov_27_1642,SpeechDraft1Carolyn_lessNoise_PlusLocalization,2021.2.3,59.99347092858948,
,,,,,,,,midRight,13.0,3,ch1Sound_localizationTask.wav,13.0,"(1142, 878)","(182, -202)",190,-338,,,,,,,,,,,,,2,6,20,5,,,,,,,,,,,,,,,,,,,,,,,,,,,,,,,,,,,,,,,,1210.7051993799396,None,,,1213.7217728123069,None,1.6195767195767194,0.8988185659982264,1213.7217728123069,None,,,,,,,1211.705258965958,None,1211.8885566373356,1211.9052397049963,,,,,,,139,001,2023_Nov_27_1642,SpeechDraft1Carolyn_lessNoise_PlusLocalization,2021.2.3,59.99347092858948,
,,,,,,,,nearLeft,-6.5,1,ch1Sound_localizationTask.wav,-6.5,"(857, 878)","(-103,-202)",-95,-338,,,,,,,,,,,,,3,0,21,2,,,,,,,,,,,,,,,,,,,,,,,,,,,,,,,,,,,,,,,,1214.6219256538898,None,,,1217.6383605212905,None,1.4354497354497355,1.0824981639161706,1217.6383605212905,None,,,,,,,1215.6220098170452,None,1215.8054723371752,1215.8219720339403,,,,,,,139,001,2023_Nov_27_1642,SpeechDraft1Carolyn_lessNoise_PlusLocalization,2021.2.3,59.99347092858948,
,,,,,,,,midLeft,-13.0,2,ch1Sound_localizationTask.wav,-13.0,"(762, 878)","(-198,-202)",-190,-338,,,,,,,,,,,,,3,1,22,1,,,,,,,,,,,,,,,,,,,,,,,,,,,,,,,,,,,,,,,,1218.7218793332577,None,,,1221.738477201201,None,1.4042328042328043,1.5818484919145703,1221.738477201201,None,,,,,,,1219.7220294540748,None,1219.905307594221,1219.9218871509656,,,,,,,139,001,2023_Nov_27_1642,SpeechDraft1Carolyn_lessNoise_PlusLocalization,2021.2.3,59.99347092858948,
,,,,,,,,nearRight,6.5,0,ch1Sound_localizationTask.wav,6.5,"(1047, 878)","(87, -202)",95,-338,,,,,,,,,,,,,3,2,23,4,,,,,,,,,,,,,,,,,,,,,,,,,,,,,,,,,,,,,,,,1223.3219024781138,None,,,1226.338442062959,None,1.5936507936507938,1.5652482411824167,1226.338442062959,None,,,,,,,1224.3218763628975,None,1224.5052505000494,1224.521861905232,,,,,,,139,001,2023_Nov_27_1642,SpeechDraft1Carolyn_lessNoise_PlusLocalization,2021.2.3,59.99347092858948,
,,,,,,,,midLeft,-13.0,2,ch1Sound_localizationTask.wav,-13.0,"(762, 878)","(-198,-202)",-190,-338,,,,,,,,,,,,,3,3,24,1,,,,,,,,,,,,,,,,,,,,,,,,,,,,,,,,,,,,,,,,1227.9052618113346,None,,,1230.9218461131677,None,1.3878306878306879,1.0314801433123648,1230.9218461131677,None,,,,,,,1228.905258182902,None,1229.088601408992,1229.1053877212107,,,,,,,139,001,2023_Nov_27_1642,SpeechDraft1Carolyn_lessNoise_PlusLocalization,2021.2.3,59.99347092858948,
,,,,,,,,midRight,13.0,3,ch1Sound_localizationTask.wav,13.0,"(1142, 878)","(182, -202)",190,-338,,,,,,,,,,,,,3,4,25,5,,,,,,,,,,,,,,,,,,,,,,,,,,,,,,,,,,,,,,,,1231.9553607222624,None,,,1234.9716906910762,None,1.6386243386243386,1.0325353173539042,1234.9716906910762,None,,,,,,,1232.9552894462831,None,1233.138533449266,1233.1552321119234,,,,,,,139,001,2023_Nov_27_1642,SpeechDraft1Carolyn_lessNoise_PlusLocalization,2021.2.3,59.99347092858948,
,,,,,,,,farLeft,-19.1,5,ch1Sound_localizationTask.wav,-19.1,"(667, 878)","(-293,-202)",-285,-338,,,,,,,,,,,,,3,5,26,0,,,,,,,,,,,,,,,,,,,,,,,,,,,,,,,,,,,,,,,,1236.005291855894,None,,,1239.0218277061358,None,1.342857142857143,1.131072714459151,1239.0218277061358,None,,,,,,,1237.0052803079598,None,1237.1885894569568,1237.2052748040296,,,,,,,139,001,2023_Nov_27_1642,SpeechDraft1Carolyn_lessNoise_PlusLocalization,2021.2.3,59.99347092858948,
,,,,,,,,midRight,13.0,3,ch1Sound_localizationTask.wav,13.0,"(1142, 878)","(182, -202)",190,-338,,,,,,,,,,,,,3,6,27,5,,,,,,,,,,,,,,,,,,,,,,,,,,,,,,,,,,,,,,,,1240.155228904914,None,,,1243.1717996359803,None,1.655026455026455,1.2324911560863256,1243.1717996359803,None,,,,,,,1241.1552524240687,None,1241.3385745570995,1241.3552782000042,,,,,,,139,001,2023_Nov_27_1642,SpeechDraft1Carolyn_lessNoise_PlusLocalization,2021.2.3,59.99347092858948,
,,,,,,,,farRight,19.1,4,ch1Sound_localizationTask.wav,19.1,"(1237, 878)","(277,-202)",285,-338,,,,,,,,,,,,,4,0,28,6,,,,,,,,,,,,,,,,,,,,,,,,,,,,,,,,,,,,,,,,1244.4054273609072,None,,,1247.421790315304,None,1.6407407407407408,0.5820275191217661,1247.421790315304,None,,,,,,,1245.4053155211732,None,1245.5886064511724,1245.6052662502043,,,,,,,139,001,2023_Nov_27_1642,SpeechDraft1Carolyn_lessNoise_PlusLocalization,2021.2.3,59.99347092858948,
,,,,,,,,farRight,19.1,4,ch1Sound_localizationTask.wav,19.1,"(1237, 878)","(277,-202)",285,-338,,,,,,,,,,,,,4,1,29,6,,,,,,,,,,,,,,,,,,,,,,,,,,,,,,,,,,,,,,,,1248.0052086152136,None,,,1251.0217736149207,None,1.682010582010582,1.565875057131052,1251.0217736149207,None,,,,,,,1249.0053275502287,None,1249.1887331679463,1249.2054006583057,,,,,,,139,001,2023_Nov_27_1642,SpeechDraft1Carolyn_lessNoise_PlusLocalization,2021.2.3,59.99347092858948,
,,,,,,,,midLeft,-13.0,2,ch1Sound_localizationTask.wav,-13.0,"(762, 878)","(-198,-202)",-190,-338,,,,,,,,,,,,,4,2,30,1,,,,,,,,,,,,,,,,,,,,,,,,,,,,,,,,,,,,,,,,1252.5886755869724,None,,,1255.6051722601987,None,1.3767195767195768,1.71589837083593,1255.6051722601987,None,,,,,,,1253.5886527909897,None,1253.771951674018,1253.7887190100737,,,,,,,139,001,2023_Nov_27_1642,SpeechDraft1Carolyn_lessNoise_PlusLocalization,2021.2.3,59.99347092858948,
,,,,,,,,farRight,19.1,4,ch1Sound_localizationTask.wav,19.1,"(1237, 878)","(277,-202)",285,-338,,,,,,,,,,,,,4,3,31,6,,,,,,,,,,,,,,,,,,,,,,,,,,,,,,,,,,,,,,,,1257.321928424295,None,,,1260.3384123821743,None,1.7222222222222223,0.9821831188164651,1260.3384123821743,None,,,,,,,1258.3218729789369,None,1258.5053161112592,1258.522002120968,,,,,,,139,001,2023_Nov_27_1642,SpeechDraft1Carolyn_lessNoise_PlusLocalization,2021.2.3,59.99347092858948,
,,,,,,,,farLeft,-19.1,5,ch1Sound_localizationTask.wav,-19.1,"(667, 878)","(-293,-202)",-285,-338,,,,,,,,,,,,,4,4,32,0,,,,,,,,,,,,,,,,,,,,,,,,,,,,,,,,,,,,,,,,1261.3219389203005,None,,,1264.3384440131485,None,1.3317460317460317,1.6498243580572307,1264.3384440131485,None,,,,,,,1262.3219157722779,None,1262.50530422898,1262.5219108890742,,,,,,,139,001,2023_Nov_27_1642,SpeechDraft1Carolyn_lessNoise_PlusLocalization,2021.2.3,59.99347092858948,
,,,,,,,,nearRight,6.5,0,ch1Sound_localizationTask.wav,6.5,"(1047, 878)","(87, -202)",95,-338,,,,,,,,,,,,,4,5,33,4,,,,,,,,,,,,,,,,,,,,,,,,,,,,,,,,,,,,,,,,1265.9897869550623,None,,,1269.0218922463246,None,1.574074074074074,0.9318154170177877,1269.0218922463246,None,,,,,,,1267.0052947620861,None,1267.1886883452535,1267.205342011992,,,,,,,139,001,2023_Nov_27_1642,SpeechDraft1Carolyn_lessNoise_PlusLocalization,2021.2.3,59.99347092858948,
,,,,,,,,nearRight,6.5,0,ch1Sound_localizationTask.wav,6.5,"(1047, 878)","(87, -202)",95,-338,,,,,,,,,,,,,4,6,34,4,,,,,,,,,,,,,,,,,,,,,,,,,,,,,,,,,,,,,,,,1269.9552974929102,None,,,1272.9717408362776,None,1.5338624338624338,0.849411778151989,1272.9717408362776,None,,,,,,,1270.9554933309555,None,1271.1386153949425,1271.1553445472382,,,,,,,139,001,2023_Nov_27_1642,SpeechDraft1Carolyn_lessNoise_PlusLocalization,2021.2.3,59.99347092858948,
,,,,,,,,midLeft,-13.0,2,ch1Sound_localizationTask.wav,-13.0,"(762, 878)","(-198,-202)",-190,-338,,,,,,,,,,,,,5,0,35,1,,,,,,,,,,,,,,,,,,,,,,,,,,,,,,,,,,,,,,,,1273.8219865839928,None,,,1276.8385253408924,None,1.3830687830687831,1.264647314324975,1276.8385253408924,None,,,,,,,1274.8220603968948,None,1275.005464148242,1275.0220011440106,,,,,,,139,001,2023_Nov_27_1642,SpeechDraft1Carolyn_lessNoise_PlusLocalization,2021.2.3,59.99347092858948,
,,,,,,,,farLeft,-19.1,5,ch1Sound_localizationTask.wav,-19.1,"(667, 878)","(-293,-202)",-285,-338,,,,,,,,,,,,,5,1,36,0,,,,,,,,,,,,,,,,,,,,,,,,,,,,,,,,,,,,,,,,1278.1053108549677,None,,,1281.1216985820793,None,1.3423280423280424,0.9327894169837236,1281.1216985820793,None,,,,,,,1279.1053522280417,None,1279.288689817302,1279.3053833791055,,,,,,,139,001,2023_Nov_27_1642,SpeechDraft1Carolyn_lessNoise_PlusLocalization,2021.2.3,59.99347092858948,
,,,,,,,,nearLeft,-6.5,1,ch1Sound_localizationTask.wav,-6.5,"(857, 878)","(-103,-202)",-95,-338,,,,,,,,,,,,,5,2,37,2,,,,,,,,,,,,,,,,,,,,,,,,,,,,,,,,,,,,,,,,1282.0561435678974,None,,,1285.0717682251707,None,1.446031746031746,0.9654021551832557,1285.0717682251707,None,,,,,,,1283.0553754619323,None,1283.2387678283267,1283.2559549892321,,,,,,,139,001,2023_Nov_27_1642,SpeechDraft1Carolyn_lessNoise_PlusLocalization,2021.2.3,59.99347092858948,
,,,,,,,,nearLeft,-6.5,1,ch1Sound_localizationTask.wav,-6.5,"(857, 878)","(-103,-202)",-95,-338,,,,,,,,,,,,,5,3,38,2,,,,,,,,,,,,,,,,,,,,,,,,,,,,,,,,,,,,,,,,1286.0386523259804,None,,,1289.0552951772697,None,1.433862433862434,0.9332504691556096,1289.0552951772697,None,,,,,,,1287.038716480136,None,1287.2221557339653,1287.238593601156,,,,,,,139,001,2023_Nov_27_1642,SpeechDraft1Carolyn_lessNoise_PlusLocalization,2021.2.3,59.99347092858948,
,,,,,,,,farRight,19.1,4,ch1Sound_localizationTask.wav,19.1,"(1237, 878)","(277,-202)",285,-338,,,,,,,,,,,,,5,4,39,6,,,,,,,,,,,,,,,,,,,,,,,,,,,,,,,,,,,,,,,,1289.9887330182828,None,,,1293.0056634452194,None,1.6793650793650794,1.046175756957382,1293.0056634452194,None,,,,,,,1290.988882028032,None,1291.1720382939093,1291.1886993092485,,,,,,,139,001,2023_Nov_27_1642,SpeechDraft1Carolyn_lessNoise_PlusLocalization,2021.2.3,59.99347092858948,
,,,,,,,,nearLeft,-6.5,1,ch1Sound_localizationTask.wav,-6.5,"(857, 878)","(-103,-202)",-95,-338,,,,,,,,,,,,,5,5,40,2,,,,,,,,,,,,,,,,,,,,,,,,,,,,,,,,,,,,,,,,1294.0567771159112,None,,,1297.0884708371013,None,1.4507936507936507,0.933038217946887,1297.0884708371013,None,,,,,,,1295.0720721012913,None,1295.2553179622628,1295.2719978820533,,,,,,,139,001,2023_Nov_27_1642,SpeechDraft1Carolyn_lessNoise_PlusLocalization,2021.2.3,59.99347092858948,
,,,,,,,,center,0.0,6,ch1Sound_localizationTask.wav,0.0,"(952, 878)","(-8,-202)",0,-338,,,,,,,,,,,,,5,6,41,3,,,,,,,,,,,,,,,,,,,,,,,,,,,,,,,,,,,,,,,,1298.022004748229,None,,,1301.0384917962365,None,1.5042328042328044,0.7153198588639498,1301.0384917962365,None,,,,,,,1299.0221639480442,None,1299.2053547399119,1299.222040625289,,,,,,,139,001,2023_Nov_27_1642,SpeechDraft1Carolyn_lessNoise_PlusLocalization,2021.2.3,59.99347092858948,
,,,,,,,,nearLeft,-6.5,1,ch1Sound_localizationTask.wav,-6.5,"(857, 878)","(-103,-202)",-95,-338,,,,,,,,,,,,,6,0,42,2,,,,,,,,,,,,,,,,,,,,,,,,,,,,,,,,,,,,,,,,1301.7553699682467,None,,,1304.7718731760979,None,1.4455026455026454,1.1148082199506462,1304.7718731760979,None,,,,,,,1302.7553514791653,None,1302.938710348215,1302.9553155410103,,,,,,,139,001,2023_Nov_27_1642,SpeechDraft1Carolyn_lessNoise_PlusLocalization,2021.2.3,59.99347092858948,
,,,,,,,,midLeft,-13.0,2,ch1Sound_localizationTask.wav,-13.0,"(762, 878)","(-198,-202)",-190,-338,,,,,,,,,,,,,6,1,43,1,,,,,,,,,,,,,,,,,,,,,,,,,,,,,,,,,,,,,,,,1305.888720467221,None,,,1308.9053181861527,None,1.3804232804232806,0.8163056769408286,1308.9053181861527,None,,,,,,,1306.8886979729868,None,1307.0720393583179,1307.088817351032,,,,,,,139,001,2023_Nov_27_1642,SpeechDraft1Carolyn_lessNoise_PlusLocalization,2021.2.3,59.99347092858948,
,,,,,,,,farLeft,-19.1,5,ch1Sound_localizationTask.wav,-19.1,"(667, 878)","(-293,-202)",-285,-338,,,,,,,,,,,,,6,2,44,0,,,,,,,,,,,,,,,,,,,,,,,,,,,,,,,,,,,,,,,,1309.7226594649255,None,,,1312.7385861980729,None,1.3492063492063493,1.3141719810664654,1312.7385861980729,None,,,,,,,1310.7220481541008,None,1310.9054170139134,1310.9220251701772,,,,,,,139,001,2023_Nov_27_1642,SpeechDraft1Carolyn_lessNoise_PlusLocalization,2021.2.3,59.99347092858948,
,,,,,,,,farLeft,-19.1,5,ch1Sound_localizationTask.wav,-19.1,"(667, 878)","(-293,-202)",-285,-338,,,,,,,,,,,,,6,3,45,0,,,,,,,,,,,,,,,,,,,,,,,,,,,,,,,,,,,,,,,,1314.055413779337,None,,,1317.0720677892677,None,1.3317460317460317,1.149219776969403,1317.0720677892677,None,,,,,,,1315.0554790790193,None,1315.238694485277,1315.2556428671815,,,,,,,139,001,2023_Nov_27_1642,SpeechDraft1Carolyn_lessNoise_PlusLocalization,2021.2.3,59.99347092858948,
,,,,,,,,farRight,19.1,4,ch1Sound_localizationTask.wav,19.1,"(1237, 878)","(277,-202)",285,-338,,,,,,,,,,,,,6,4,46,6,,,,,,,,,,,,,,,,,,,,,,,,,,,,,,,,,,,,,,,,1318.2220385060646,None,,,1321.2384389922954,None,1.6936507936507936,1.0332190091721714,1321.2384389922954,None,,,,,,,1319.2220437601209,None,1319.405353625305,1319.4221099689603,,,,,,,139,001,2023_Nov_27_1642,SpeechDraft1Carolyn_lessNoise_PlusLocalization,2021.2.3,59.99347092858948,
,,,,,,,,midRight,13.0,3,ch1Sound_localizationTask.wav,13.0,"(1142, 878)","(182, -202)",190,-338,,,,,,,,,,,,,6,5,47,5,,,,,,,,,,,,,,,,,,,,,,,,,,,,,,,,,,,,,,,,1322.2725652451627,None,,,1325.2885469621979,None,1.6322751322751323,1.0323402732610703,1325.2885469621979,None,,,,,,,1323.272089775186,None,1323.455663125962,1323.4721273719333,,,,,,,139,001,2023_Nov_27_1642,SpeechDraft1Carolyn_lessNoise_PlusLocalization,2021.2.3,59.99347092858948,
,,,,,,,,midLeft,-13.0,2,ch1Sound_localizationTask.wav,-13.0,"(762, 878)","(-198,-202)",-190,-338,,,,,,,,,,,,,6,6,48,1,,,,,,,,,,,,,,,,,,,,,,,,,,,,,,,,,,,,,,,,1326.3222459782846,None,,,1329.3385788709857,None,1.3735449735449734,1.2671703910455108,1329.3385788709857,None,,,,,,,1327.3221226660535,None,1327.5053229699843,1327.5219956273213,,,,,,,139,001,2023_Nov_27_1642,SpeechDraft1Carolyn_lessNoise_PlusLocalization,2021.2.3,59.99347092858948,
,,,,,,,,nearLeft,-6.5,1,ch1Sound_localizationTask.wav,-6.5,"(857, 878)","(-103,-202)",-95,-338,,,,,,,,,,,,,7,0,49,2,,,,,,,,,,,,,,,,,,,,,,,,,,,,,,,,,,,,,,,,1330.6220591310412,None,,,1333.6386650279164,None,1.4396825396825397,0.999389701988548,1333.6386650279164,None,,,,,,,1331.6220494420268,None,1331.8054036321118,1331.8220744300634,,,,,,,139,001,2023_Nov_27_1642,SpeechDraft1Carolyn_lessNoise_PlusLocalization,2021.2.3,59.99347092858948,
,,,,,,,,farLeft,-19.1,5,ch1Sound_localizationTask.wav,-19.1,"(667, 878)","(-293,-202)",-285,-338,,,,,,,,,,,,,7,1,50,0,,,,,,,,,,,,,,,,,,,,,,,,,,,,,,,,,,,,,,,,1334.6389781981707,None,,,1337.6551773520187,None,1.3232804232804232,1.1168401027098298,1337.6551773520187,None,,,,,,,1335.6388789219782,None,1335.8220982691273,1335.8387813442387,,,,,,,139,001,2023_Nov_27_1642,SpeechDraft1Carolyn_lessNoise_PlusLocalization,2021.2.3,59.99347092858948,
,,,,,,,,nearLeft,-6.5,1,ch1Sound_localizationTask.wav,-6.5,"(857, 878)","(-103,-202)",-95,-338,,,,,,,,,,,,,7,2,51,2,,,,,,,,,,,,,,,,,,,,,,,,,,,,,,,,,,,,,,,,1338.7721648472361,None,,,1341.7885591681115,None,1.4544973544973545,0.7325606448575854,1341.7885591681115,None,,,,,,,1339.7720614499412,None,1339.9553918959573,1339.9721164782532,,,,,,,139,001,2023_Nov_27_1642,SpeechDraft1Carolyn_lessNoise_PlusLocalization,2021.2.3,59.99347092858948,
,,,,,,,,farRight,19.1,4,ch1Sound_localizationTask.wav,19.1,"(1237, 878)","(277,-202)",285,-338,,,,,,,,,,,,,7,3,52,6,,,,,,,,,,,,,,,,,,,,,,,,,,,,,,,,,,,,,,,,1342.5221227612346,None,,,1345.5385800842196,None,1.7037037037037037,0.9164142110385001,1345.5385800842196,None,,,,,,,1343.522097218316,None,1343.7054143622518,1343.7221533590928,,,,,,,139,001,2023_Nov_27_1642,SpeechDraft1Carolyn_lessNoise_PlusLocalization,2021.2.3,59.99347092858948,
,,,,,,,,nearRight,6.5,0,ch1Sound_localizationTask.wav,6.5,"(1047, 878)","(87, -202)",95,-338,,,,,,,,,,,,,7,4,53,4,,,,,,,,,,,,,,,,,,,,,,,,,,,,,,,,,,,,,,,,1346.455520058982,None,,,1349.4719530190341,None,1.5825396825396827,8.366738036740571,1349.4719530190341,None,,,,,,,1347.4555073399097,None,1347.6389026422985,1347.6554830810055,,,,,,,139,001,2023_Nov_27_1642,SpeechDraft1Carolyn_lessNoise_PlusLocalization,2021.2.3,59.99347092858948,
,,,,,,,,midLeft,-13.0,2,ch1Sound_localizationTask.wav,-13.0,"(762, 878)","(-198,-202)",-190,-338,,,,,,,,,,,,,7,5,54,1,,,,,,,,,,,,,,,,,,,,,,,,,,,,,,,,,,,,,,,,1357.8388631530106,None,,,1360.855345849879,None,1.3677248677248677,0.748476630076766,1360.855345849879,None,,,,,,,1358.8388325832784,None,1359.022412250284,1359.039275240153,,,,,,,139,001,2023_Nov_27_1642,SpeechDraft1Carolyn_lessNoise_PlusLocalization,2021.2.3,59.99347092858948,
,,,,,,,,midRight,13.0,3,ch1Sound_localizationTask.wav,13.0,"(1142, 878)","(182, -202)",190,-338,,,,,,,,,,,,,7,6,55,5,,,,,,,,,,,,,,,,,,,,,,,,,,,,,,,,,,,,,,,,1361.6054147221148,None,,,1364.6219516792335,None,1.6481481481481481,1.2323465049266815,1364.6219516792335,None,,,,,,,1362.6054996331222,None,1362.7887874082662,1362.8055234821513,,,,,,,139,001,2023_Nov_27_1642,SpeechDraft1Carolyn_lessNoise_PlusLocalization,2021.2.3,59.99347092858948,
,,,,,,,,,,,,,,,,,,,,,,,,,,,,,,,,,,,,,,,,,,,,,,,,,,,,,,,,,,,,,,,,,,,,,,,,,,,,,,,,,,,,,,,,,,,,1365.8554689763114,None,c,291.452937182039,1366.8387861740775,None,139,001,2023_Nov_27_1642,SpeechDraft1Carolyn_lessNoise_PlusLocalization,2021.2.3,59.99347092858948,
