Audio_Only_Files,Video_Files,Original_Word_List,noiseLevelCode,conditionCodes,noiseLevelFile1,noiseLevelFile2,InstrTextVar,targetSpeakerName,targetSpeakerEccen,targetSpkrChannel,targetSpkrSound,targetVisualDegrees,visStimLoc,visStimLoc2,visStimW,visStimH,practiceTrials.thisRepN,practiceTrials.thisTrialN,practiceTrials.thisN,practiceTrials.thisIndex,trials.thisRepN,trials.thisTrialN,trials.thisN,trials.thisIndex,audLocalLoop.thisRepN,audLocalLoop.thisTrialN,audLocalLoop.thisN,audLocalLoop.thisIndex,visualLocalLoop.thisRepN,visualLocalLoop.thisTrialN,visualLocalLoop.thisN,visualLocalLoop.thisIndex,letsGoAlready.keys,letsGoAlready.rt,letsGoAlready.started,letsGoAlready.stopped,text_2.started,text_2.stopped,text_3.started,text_3.stopped,key_resp_2.keys,key_resp_2.rt,key_resp_2.started,key_resp_2.stopped,text_5.started,text_5.stopped,fixCross.started,fixCross.stopped,fixCross2.started,fixCross2.stopped,answerPrompt.started,answerPrompt.stopped,getAnswer.text,getAnswer.started,getAnswer.stopped,goToNext.keys,goToNext.rt,goToNext.started,goToNext.stopped,stretchBreakTxrt.started,stretchBreakTxrt.stopped,key_resp_3.keys,key_resp_3.rt,key_resp_3.started,key_resp_3.stopped,letsGoLocal.keys,letsGoLocal.rt,letsGoLocal.started,letsGoLocal.stopped,text_4.started,text_4.stopped,prepFixTxt.started,prepFixTxt.stopped,prepFixTxt_2.started,prepFixTxt_2.stopped,respPromptLocal.started,respPromptLocal.stopped,slider.response,slider.rt,slider.started,slider.stopped,letsGoLocal_2.keys,letsGoLocal_2.rt,letsGoLocal_2.started,letsGoLocal_2.stopped,text_7.started,text_7.stopped,prepFixTxt_3.started,prepFixTxt_3.stopped,grating.started,grating.stopped,exitTxt.started,exitTxt.stopped,key_resp.keys,key_resp.rt,key_resp.started,key_resp.stopped,participant,session,date,expName,psychopyVersion,frameRate,
,,,,,,,,,,,,,,,,,,,,,,,,,,,,,,,,,space,272.9166651801206,16.887313887942582,None,,,,,,,,,,,,,,,,,,,,,,,,,,,,,,,,,,,,,,,,,,,,,,,,,,,,,,,,,,,,,,140,001,2023_Nov_28_1141,SpeechDraft1Carolyn_lessNoise_PlusLocalization,2021.2.3,60.01782125041955,
,,,,,,,,,,,,,,,,,,,,,,,,,,,,,,,,,,,,,16.887313887942582,None,289.92116525396705,None,space,14.50787359662354,290.1040199417621,None,,,,,,,,,,,,,,,,,,,,,,,,,,,,,,,,,,,,,,,,,,,,,,,,,,,,,,140,001,2023_Nov_28_1141,SpeechDraft1Carolyn_lessNoise_PlusLocalization,2021.2.3,60.01782125041955,
ash.wav,ash.mpg,ash,1,A,Pink_Noise_1_1.wav,Pink_Noise_1_2.wav,"This is an example of an

AUDIO trial",,,,,,,,,,0,0,0,0,,,,,,,,,,,,,,,,,,,,,,,,,304.6707162898965,None,305.65427364595234,None,308.95466984109953,None,310.3376505719498,None,ash,310.3376505719498,None,return,7.383292862679809,310.42063505388796,None,,,,,,,,,,,,,,,,,,,,,,,,,,,,,,,,,,,,,,,140,001,2023_Nov_28_1141,SpeechDraft1Carolyn_lessNoise_PlusLocalization,2021.2.3,60.01782125041955,
ash.wav,ash.mpg,ash,1,AV,Pink_Noise_1_1.wav,Pink_Noise_1_2.wav,"This is an example of an

AUDIO + VIDEO  trial",,,,,,,,,,0,1,1,1,,,,,,,,,,,,,,,,,,,,,,,,,317.8370215157047,None,318.83761527901515,None,320.32044088980183,None,321.7040139748715,None,ash,321.7040139748715,None,return,4.176646258216351,321.78724725497887,None,,,,,,,,,,,,,,,,,,,,,,,,,,,,,,,,,,,,,,,140,001,2023_Nov_28_1141,SpeechDraft1Carolyn_lessNoise_PlusLocalization,2021.2.3,60.01782125041955,
,,,,,,,,,,,,,,,,,,,,,,,,,,,,,,,,,,,,,,,,,,,,,,,,,,,,,,,,,,,,326.0037310067564,None,space,48.88850489072502,326.187425209675,None,,,,,,,,,,,,,,,,,,,,,,,,,,,,,,,,,140,001,2023_Nov_28_1141,SpeechDraft1Carolyn_lessNoise_PlusLocalization,2021.2.3,60.01782125041955,
chore.wav,chore.mpg,chore,3,AV,Pink_Noise_3_1.wav,Pink_Noise_3_2.wav,,,,,,,,,,,,,,,0,0,0,72,,,,,,,,,,,,,,,,,,,,,,,375.1371737830341,None,376.62082406366244,None,378.00408608466387,None,chore,378.00408608466387,None,return,10.372620672918856,378.0873651537113,None,,,,,,,,,,,,,,,,,,,,,,,,,,,,,,,,,,,,,,,140,001,2023_Nov_28_1141,SpeechDraft1Carolyn_lessNoise_PlusLocalization,2021.2.3,60.01782125041955,
cross.wav,cross.mpg,cross,4,AV,Pink_Noise_4_1.wav,Pink_Noise_4_2.wav,,,,,,,,,,,,,,,0,1,1,119,,,,,,,,,,,,,,,,,,,,,,,388.48753757495433,None,389.9721429888159,None,391.35400159470737,None,cross,391.35400159470737,None,return,14.574037354905158,391.43785393889993,None,,,,,,,,,,,,,,,,,,,,,,,,,,,,,,,,,,,,,,,140,001,2023_Nov_28_1141,SpeechDraft1Carolyn_lessNoise_PlusLocalization,2021.2.3,60.01782125041955,
cheap.wav,cheap.mpg,cheap,3,A,Pink_Noise_3_1.wav,Pink_Noise_3_2.wav,,,,,,,,,,,,,,,0,2,2,13,,,,,,,,,,,,,,,,,,,,,,,406.0376382637769,None,407.52099356707186,None,408.9042143439874,None,chew,408.9042143439874,None,return,6.040364627260715,408.9876501089893,None,,,,,,,,,,,,,,,,,,,,,,,,,,,,,,,,,,,,,,,140,001,2023_Nov_28_1141,SpeechDraft1Carolyn_lessNoise_PlusLocalization,2021.2.3,60.01782125041955,
fetch.wav,fetch.mpg,fetch,6,A,Pink_Noise_6_1.wav,Pink_Noise_6_2.wav,,,,,,,,,,,,,,,0,3,3,29,,,,,,,,,,,,,,,,,,,,,,,415.0542086069472,None,416.53726131189615,None,417.9209638996981,None,"water
",417.9209638996981,None,return,7.167615658137947,418.0043014306575,None,,,,,,,,,,,,,,,,,,,,,,,,,,,,,,,,,,,,,,,140,001,2023_Nov_28_1141,SpeechDraft1Carolyn_lessNoise_PlusLocalization,2021.2.3,60.01782125041955,
chew.wav,chew.mpg,chew,6,AV,Pink_Noise_6_1.wav,Pink_Noise_6_2.wav,,,,,,,,,,,,,,,0,4,4,64,,,,,,,,,,,,,,,,,,,,,,,425.2041317569092,None,426.7040108977817,None,428.08736529992893,None,chew,428.08736529992893,None,return,3.897077964618802,428.17092092707753,None,,,,,,,,,,,,,,,,,,,,,,,,,,,,,,,,,,,,,,,140,001,2023_Nov_28_1141,SpeechDraft1Carolyn_lessNoise_PlusLocalization,2021.2.3,60.01782125041955,
beige.wav,beige.mpg,beige,3,A,Pink_Noise_3_1.wav,Pink_Noise_3_2.wav,,,,,,,,,,,,,,,0,5,5,43,,,,,,,,,,,,,,,,,,,,,,,432.08744530892,None,433.5708502009511,None,434.95413844287395,None,beige,434.95413844287395,None,return,8.494161160197109,435.0377403800376,None,,,,,,,,,,,,,,,,,,,,,,,,,,,,,,,,,,,,,,,140,001,2023_Nov_28_1141,SpeechDraft1Carolyn_lessNoise_PlusLocalization,2021.2.3,60.01782125041955,
blot.wav,blot.mpg,blot,2,AV,Pink_Noise_2_1.wav,Pink_Noise_2_2.wav,,,,,,,,,,,,,,,0,6,6,82,,,,,,,,,,,,,,,,,,,,,,,443.55432324204594,None,445.037353226915,None,446.4210012629628,None,blut,446.4210012629628,None,return,6.515872566960752,446.5041017080657,None,,,,,,,,,,,,,,,,,,,,,,,,,,,,,,,,,,,,,,,140,001,2023_Nov_28_1141,SpeechDraft1Carolyn_lessNoise_PlusLocalization,2021.2.3,60.01782125041955,
badge.wav,badge.mpg,badge,6,AV,Pink_Noise_6_1.wav,Pink_Noise_6_2.wav,,,,,,,,,,,,,,,0,7,7,116,,,,,,,,,,,,,,,,,,,,,,,453.0374278249219,None,454.53776751691476,None,455.9206890510395,None,bash,455.9206890510395,None,return,3.943590131122619,456.004301419016,None,,,,,,,,,,,,,,,,,,,,,,,,,,,,,,,,,,,,,,,140,001,2023_Nov_28_1141,SpeechDraft1Carolyn_lessNoise_PlusLocalization,2021.2.3,60.01782125041955,
duct.wav,duct.mpg,duct,2,A,Pink_Noise_2_1.wav,Pink_Noise_2_2.wav,,,,,,,,,,,,,,,0,8,8,47,,,,,,,,,,,,,,,,,,,,,,,459.9709416166879,None,461.4706448339857,None,462.85425376705825,None,dot,462.85425376705825,None,return,11.71413734415546,462.9378044810146,None,,,,,,,,,,,,,,,,,,,,,,,,,,,,,,,,,,,,,,,140,001,2023_Nov_28_1141,SpeechDraft1Carolyn_lessNoise_PlusLocalization,2021.2.3,60.01782125041955,
buff.wav,buff.mpg,buff,5,AV,Pink_Noise_5_1.wav,Pink_Noise_5_2.wav,,,,,,,,,,,,,,,0,9,9,117,,,,,,,,,,,,,,,,,,,,,,,474.6710710320622,None,476.17062786687165,None,477.55408207373694,None,bush,477.55408207373694,None,return,11.110148062929511,477.6377187599428,None,,,,,,,,,,,,,,,,,,,,,,,,,,,,,,,,,,,,,,,140,001,2023_Nov_28_1141,SpeechDraft1Carolyn_lessNoise_PlusLocalization,2021.2.3,60.01782125041955,
pike.wav,pike.mpg,pike,5,AV,Pink_Noise_5_1.wav,Pink_Noise_5_2.wav,,,,,,,,,,,,,,,0,10,10,109,,,,,,,,,,,,,,,,,,,,,,,488.77103854808956,None,490.27064439607784,None,491.65435247309506,None,paint,491.65435247309506,None,return,11.50630256626755,491.7377076470293,None,,,,,,,,,,,,,,,,,,,,,,,,,,,,,,,,,,,,,,,140,001,2023_Nov_28_1141,SpeechDraft1Carolyn_lessNoise_PlusLocalization,2021.2.3,60.01782125041955,
fifth.wav,fifth.mpg,fifth,1,AV,Pink_Noise_1_1.wav,Pink_Noise_1_2.wav,,,,,,,,,,,,,,,0,11,11,60,,,,,,,,,,,,,,,,,,,,,,,503.27094091894105,None,504.75412606587633,None,506.13756371708587,None,fifth,506.13756371708587,None,return,5.215085722040385,506.220866499003,None,,,,,,,,,,,,,,,,,,,,,,,,,,,,,,,,,,,,,,,140,001,2023_Nov_28_1141,SpeechDraft1Carolyn_lessNoise_PlusLocalization,2021.2.3,60.01782125041955,
tomb.wav,tomb.mpg,tomb,1,AV,Pink_Noise_1_1.wav,Pink_Noise_1_2.wav,,,,,,,,,,,,,,,0,12,12,66,,,,,,,,,,,,,,,,,,,,,,,511.4541934230365,None,512.9543869160116,None,514.3375707580708,None,tume,514.3375707580708,None,return,13.758779983967543,514.4211137047969,None,,,,,,,,,,,,,,,,,,,,,,,,,,,,,,,,,,,,,,,140,001,2023_Nov_28_1141,SpeechDraft1Carolyn_lessNoise_PlusLocalization,2021.2.3,60.01782125041955,
route.wav,route.mpg,route,6,A,Pink_Noise_6_1.wav,Pink_Noise_6_2.wav,,,,,,,,,,,,,,,0,13,13,45,,,,,,,,,,,,,,,,,,,,,,,528.2044003517367,None,529.7041916670278,None,531.087991878856,None,beach,531.087991878856,None,return,4.792907145805657,531.1709965299815,None,,,,,,,,,,,,,,,,,,,,,,,,,,,,,,,,,,,,,,,140,001,2023_Nov_28_1141,SpeechDraft1Carolyn_lessNoise_PlusLocalization,2021.2.3,60.01782125041955,
grief.wav,grief.mpg,grief,4,AV,Pink_Noise_4_1.wav,Pink_Noise_4_2.wav,,,,,,,,,,,,,,,0,14,14,87,,,,,,,,,,,,,,,,,,,,,,,535.9876490146853,None,537.4708500737324,None,538.8544007968158,None,"grief
",538.8544007968158,None,return,6.050153600051999,538.9377388739958,None,,,,,,,,,,,,,,,,,,,,,,,,,,,,,,,,,,,,,,,140,001,2023_Nov_28_1141,SpeechDraft1Carolyn_lessNoise_PlusLocalization,2021.2.3,60.01782125041955,
batch.wav,batch.mpg,batch,2,A,Pink_Noise_2_1.wav,Pink_Noise_2_2.wav,,,,,,,,,,,,,,,0,15,15,20,,,,,,,,,,,,,,,,,,,,,,,545.0209964746609,None,546.5212439438328,None,547.9044762020931,None,"bach
",547.9044762020931,None,return,76.30400186823681,547.9878975548781,None,,,,,,,,,,,,,,,,,,,,,,,,,,,,,,,,,,,,,,,140,001,2023_Nov_28_1141,SpeechDraft1Carolyn_lessNoise_PlusLocalization,2021.2.3,60.01782125041955,
wear.wav,wear.mpg,wear,6,AV,Pink_Noise_6_1.wav,Pink_Noise_6_2.wav,,,,,,,,,,,,,,,0,16,16,67,,,,,,,,,,,,,,,,,,,,,,,624.321170323994,None,625.8208217537031,None,627.2043944536708,None,wet,627.2043944536708,None,return,4.9001989481039345,627.2877195188776,None,,,,,,,,,,,,,,,,,,,,,,,,,,,,,,,,,,,,,,,140,001,2023_Nov_28_1141,SpeechDraft1Carolyn_lessNoise_PlusLocalization,2021.2.3,60.01782125041955,
droop.wav,droop.mpg,droop,5,AV,Pink_Noise_5_1.wav,Pink_Noise_5_2.wav,,,,,,,,,,,,,,,0,17,17,89,,,,,,,,,,,,,,,,,,,,,,,632.2044711560011,None,633.7042612000369,None,635.0879873759113,None,"droop
",635.0879873759113,None,return,4.368601464200765,635.1713012857363,None,,,,,,,,,,,,,,,,,,,,,,,,,,,,,,,,,,,,,,,140,001,2023_Nov_28_1141,SpeechDraft1Carolyn_lessNoise_PlusLocalization,2021.2.3,60.01782125041955,
chunk.wav,chunk.mpg,chunk,5,AV,Pink_Noise_5_1.wav,Pink_Noise_5_2.wav,,,,,,,,,,,,,,,0,18,18,80,,,,,,,,,,,,,,,,,,,,,,,639.5712292608805,None,641.0709494301118,None,642.4546512197703,None,chuck,642.4546512197703,None,return,5.241871336940676,642.5380393969826,None,,,,,,,,,,,,,,,,,,,,,,,,,,,,,,,,,,,,,,,140,001,2023_Nov_28_1141,SpeechDraft1Carolyn_lessNoise_PlusLocalization,2021.2.3,60.01782125041955,
crew.wav,crew.mpg,crew,1,A,Pink_Noise_1_1.wav,Pink_Noise_1_2.wav,,,,,,,,,,,,,,,0,19,19,38,,,,,,,,,,,,,,,,,,,,,,,647.8044635406695,None,649.3042148379609,None,650.68800250208,None,crew,650.68800250208,None,return,6.488843047060072,650.7711498108692,None,,,,,,,,,,,,,,,,,,,,,,,,,,,,,,,,,,,,,,,140,001,2023_Nov_28_1141,SpeechDraft1Carolyn_lessNoise_PlusLocalization,2021.2.3,60.01782125041955,
round.wav,round.mpg,round,4,AV,Pink_Noise_4_1.wav,Pink_Noise_4_2.wav,,,,,,,,,,,,,,,0,20,20,86,,,,,,,,,,,,,,,,,,,,,,,657.2880762810819,None,658.7710485910065,None,660.1545262807049,None,"whale
",660.1545262807049,None,return,3.3180734901688993,660.2378323958255,None,,,,,,,,,,,,,,,,,,,,,,,,,,,,,,,,,,,,,,,140,001,2023_Nov_28_1141,SpeechDraft1Carolyn_lessNoise_PlusLocalization,2021.2.3,60.01782125041955,
grail.wav,grail.mpg,grail,4,A,Pink_Noise_4_1.wav,Pink_Noise_4_2.wav,,,,,,,,,,,,,,,0,21,21,4,,,,,,,,,,,,,,,,,,,,,,,663.5879538790323,None,665.0878191799857,None,666.4714565528557,None,"grail 
",666.4714565528557,None,return,5.537364650052041,666.5545408199541,None,,,,,,,,,,,,,,,,,,,,,,,,,,,,,,,,,,,,,,,140,001,2023_Nov_28_1141,SpeechDraft1Carolyn_lessNoise_PlusLocalization,2021.2.3,60.01782125041955,
blast.wav,blast.mpg,blast,4,AV,Pink_Noise_4_1.wav,Pink_Noise_4_2.wav,,,,,,,,,,,,,,,0,22,22,108,,,,,,,,,,,,,,,,,,,,,,,672.1210512188263,None,673.6208714330569,None,675.0045190518722,None,"blessed
",675.0045190518722,None,return,28.28385163191706,675.088053539861,None,,,,,,,,,,,,,,,,,,,,,,,,,,,,,,,,,,,,,,,140,001,2023_Nov_28_1141,SpeechDraft1Carolyn_lessNoise_PlusLocalization,2021.2.3,60.01782125041955,
golf.wav,golf.mpg,golf,1,A,Pink_Noise_1_1.wav,Pink_Noise_1_2.wav,,,,,,,,,,,,,,,0,23,23,18,,,,,,,,,,,,,,,,,,,,,,,703.404523064848,None,704.9043605010957,None,706.2879520570859,None,golf,706.2879520570859,None,return,2.5925582540221512,706.3713415251113,None,,,,,,,,,,,,,,,,,,,,,,,,,,,,,,,,,,,,,,,140,001,2023_Nov_28_1141,SpeechDraft1Carolyn_lessNoise_PlusLocalization,2021.2.3,60.01782125041955,
ban.wav,ban.mpg,ban,2,AV,Pink_Noise_2_1.wav,Pink_Noise_2_2.wav,,,,,,,,,,,,,,,0,24,24,98,,,,,,,,,,,,,,,,,,,,,,,708.9879927630536,None,710.4727457277477,None,711.8544373996556,None,ban,711.8544373996556,None,return,2.377726521808654,711.9381651659496,None,,,,,,,,,,,,,,,,,,,,,,,,,,,,,,,,,,,,,,,140,001,2023_Nov_28_1141,SpeechDraft1Carolyn_lessNoise_PlusLocalization,2021.2.3,60.01782125041955,
faith.wav,faith.mpg,faith,3,AV,Pink_Noise_3_1.wav,Pink_Noise_3_2.wav,,,,,,,,,,,,,,,0,25,25,106,,,,,,,,,,,,,,,,,,,,,,,714.3379616108723,None,715.8378688599914,None,717.2212014049292,None,"faith
",717.2212014049292,None,return,2.4672365500591695,717.3046723888256,None,,,,,,,,,,,,,,,,,,,,,,,,,,,,,,,,,,,,,,,140,001,2023_Nov_28_1141,SpeechDraft1Carolyn_lessNoise_PlusLocalization,2021.2.3,60.01782125041955,
fuse.wav,fuse.mpg,fuse,3,A,Pink_Noise_3_1.wav,Pink_Noise_3_2.wav,,,,,,,,,,,,,,,0,26,26,53,,,,,,,,,,,,,,,,,,,,,,,719.8044908060692,None,721.2886467170902,None,722.67116355896,None,muse,722.67116355896,None,return,7.577298172283918,722.7546007698402,None,,,,,,,,,,,,,,,,,,,,,,,,,,,,,,,,,,,,,,,140,001,2023_Nov_28_1141,SpeechDraft1Carolyn_lessNoise_PlusLocalization,2021.2.3,60.01782125041955,
flow.wav,flow.mpg,flow,3,A,Pink_Noise_3_1.wav,Pink_Noise_3_2.wav,,,,,,,,,,,,,,,0,27,27,57,,,,,,,,,,,,,,,,,,,,,,,730.3547573178075,None,731.8542976197787,None,733.2380351037718,None,bowl,733.2380351037718,None,return,7.978603599127382,733.3213074849918,None,,,,,,,,,,,,,,,,,,,,,,,,,,,,,,,,,,,,,,,140,001,2023_Nov_28_1141,SpeechDraft1Carolyn_lessNoise_PlusLocalization,2021.2.3,60.01782125041955,
green.wav,green.mpg,green,1,A,Pink_Noise_1_1.wav,Pink_Noise_1_2.wav,,,,,,,,,,,,,,,0,28,28,30,,,,,,,,,,,,,,,,,,,,,,,741.3213204238564,None,742.8210682407953,None,744.2044265009463,None,green,744.2044265009463,None,return,4.115909242071211,744.288065622095,None,,,,,,,,,,,,,,,,,,,,,,,,,,,,,,,,,,,,,,,140,001,2023_Nov_28_1141,SpeechDraft1Carolyn_lessNoise_PlusLocalization,2021.2.3,60.01782125041955,
fame.wav,fame.mpg,fame,1,AV,Pink_Noise_1_1.wav,Pink_Noise_1_2.wav,,,,,,,,,,,,,,,0,29,29,74,,,,,,,,,,,,,,,,,,,,,,,748.4212773139589,None,749.9210616289638,None,751.3046946390532,None,fame,751.3046946390532,None,return,11.279616869054735,751.3883335669525,None,,,,,,,,,,,,,,,,,,,,,,,,,,,,,,,,,,,,,,,140,001,2023_Nov_28_1141,SpeechDraft1Carolyn_lessNoise_PlusLocalization,2021.2.3,60.01782125041955,
dump.wav,dump.mpg,dump,5,AV,Pink_Noise_5_1.wav,Pink_Noise_5_2.wav,,,,,,,,,,,,,,,0,30,30,112,,,,,,,,,,,,,,,,,,,,,,,762.6878997259773,None,764.1878805737942,None,765.5714321536943,None,dump,765.5714321536943,None,return,4.221102530602366,765.6547952108085,None,,,,,,,,,,,,,,,,,,,,,,,,,,,,,,,,,,,,,,,140,001,2023_Nov_28_1141,SpeechDraft1Carolyn_lessNoise_PlusLocalization,2021.2.3,60.01782125041955,
fake.wav,fake.mpg,fake,1,AV,Pink_Noise_1_1.wav,Pink_Noise_1_2.wav,,,,,,,,,,,,,,,0,31,31,97,,,,,,,,,,,,,,,,,,,,,,,769.9045710349455,None,771.3892850000411,None,772.7713601998985,None,fake,772.7713601998985,None,return,10.749305726028979,772.854670254048,None,,,,,,,,,,,,,,,,,,,,,,,,,,,,,,,,,,,,,,,140,001,2023_Nov_28_1141,SpeechDraft1Carolyn_lessNoise_PlusLocalization,2021.2.3,60.01782125041955,
fund.wav,fund.mpg,fund,3,AV,Pink_Noise_3_1.wav,Pink_Noise_3_2.wav,,,,,,,,,,,,,,,0,32,32,73,,,,,,,,,,,,,,,,,,,,,,,783.6213621636853,None,785.1211790209636,None,786.505091717001,None,"front
",786.505091717001,None,return,4.551500013563782,786.5883963909,None,,,,,,,,,,,,,,,,,,,,,,,,,,,,,,,,,,,,,,,140,001,2023_Nov_28_1141,SpeechDraft1Carolyn_lessNoise_PlusLocalization,2021.2.3,60.01782125041955,
doom.wav,doom.mpg,doom,6,AV,Pink_Noise_6_1.wav,Pink_Noise_6_2.wav,,,,,,,,,,,,,,,0,33,33,111,,,,,,,,,,,,,,,,,,,,,,,791.1712993560359,None,792.6710657868534,None,794.0545589658432,None,doom,794.0545589658432,None,return,6.865713499952108,794.1382581028156,None,,,,,,,,,,,,,,,,,,,,,,,,,,,,,,,,,,,,,,,140,001,2023_Nov_28_1141,SpeechDraft1Carolyn_lessNoise_PlusLocalization,2021.2.3,60.01782125041955,
drug.wav,drug.mpg,drug,5,A,Pink_Noise_5_1.wav,Pink_Noise_5_2.wav,,,,,,,,,,,,,,,0,34,34,6,,,,,,,,,,,,,,,,,,,,,,,801.0214962707832,None,802.5211550239474,None,803.9048758479767,None,"drugs
",803.9048758479767,None,return,12.303840789012611,803.9880735026672,None,,,,,,,,,,,,,,,,,,,,,,,,,,,,,,,,,,,,,,,140,001,2023_Nov_28_1141,SpeechDraft1Carolyn_lessNoise_PlusLocalization,2021.2.3,60.01782125041955,
grave.wav,grave.mpg,grave,2,A,Pink_Noise_2_1.wav,Pink_Noise_2_2.wav,,,,,,,,,,,,,,,0,35,35,39,,,,,,,,,,,,,,,,,,,,,,,816.3214049506932,None,817.821054179687,None,819.20465780003,None,pray,819.20465780003,None,return,9.73198905121535,819.2879743119702,None,,,,,,,,,,,,,,,,,,,,,,,,,,,,,,,,,,,,,,,140,001,2023_Nov_28_1141,SpeechDraft1Carolyn_lessNoise_PlusLocalization,2021.2.3,60.01782125041955,
flea.wav,flea.mpg,flea,6,A,Pink_Noise_6_1.wav,Pink_Noise_6_2.wav,,,,,,,,,,,,,,,0,36,36,44,,,,,,,,,,,,,,,,,,,,,,,829.0381716480479,None,830.5378351700492,None,831.9213852290995,None,broom,831.9213852290995,None,return,17.254979361779988,832.0049618347548,None,,,,,,,,,,,,,,,,,,,,,,,,,,,,,,,,,,,,,,,140,001,2023_Nov_28_1141,SpeechDraft1Carolyn_lessNoise_PlusLocalization,2021.2.3,60.01782125041955,
forth.wav,forth.mpg,forth,3,A,Pink_Noise_3_1.wav,Pink_Noise_3_2.wav,,,,,,,,,,,,,,,0,37,37,32,,,,,,,,,,,,,,,,,,,,,,,849.2880995417945,None,850.7878196318634,None,852.1714211069047,None,"quart
",852.1714211069047,None,return,17.301132976077497,852.2547764601186,None,,,,,,,,,,,,,,,,,,,,,,,,,,,,,,,,,,,,,,,140,001,2023_Nov_28_1141,SpeechDraft1Carolyn_lessNoise_PlusLocalization,2021.2.3,60.01782125041955,
clay.wav,clay.mpg,clay,5,AV,Pink_Noise_5_1.wav,Pink_Noise_5_2.wav,,,,,,,,,,,,,,,0,38,38,65,,,,,,,,,,,,,,,,,,,,,,,869.5881156860851,None,871.087861568667,None,872.4713817788288,None,lay,872.4713817788288,None,return,6.120782369282097,872.5551229841076,None,,,,,,,,,,,,,,,,,,,,,,,,,,,,,,,,,,,,,,,140,001,2023_Nov_28_1141,SpeechDraft1Carolyn_lessNoise_PlusLocalization,2021.2.3,60.01782125041955,
layer.wav,layer.mpg,layer,1,A,Pink_Noise_1_1.wav,Pink_Noise_1_2.wav,,,,,,,,,,,,,,,0,39,39,0,,,,,,,,,,,,,,,,,,,,,,,878.7049060501158,None,880.2044938709587,None,881.588206958957,None,layer,881.588206958957,None,return,2.3083974518813193,881.6714967447333,None,,,,,,,,,,,,,,,,,,,,,,,,,,,,,,,,,,,,,,,140,001,2023_Nov_28_1141,SpeechDraft1Carolyn_lessNoise_PlusLocalization,2021.2.3,60.01782125041955,
cough.wav,cough.mpg,cough,3,AV,Pink_Noise_3_1.wav,Pink_Noise_3_2.wav,,,,,,,,,,,,,,,0,40,40,75,,,,,,,,,,,,,,,,,,,,,,,884.0048934370279,None,885.5047081019729,None,886.8880934319459,None,cough,886.8880934319459,None,return,5.472471606917679,886.9715402540751,None,,,,,,,,,,,,,,,,,,,,,,,,,,,,,,,,,,,,,,,140,001,2023_Nov_28_1141,SpeechDraft1Carolyn_lessNoise_PlusLocalization,2021.2.3,60.01782125041955,
clock.wav,clock.mpg,clock,4,A,Pink_Noise_4_1.wav,Pink_Noise_4_2.wav,,,,,,,,,,,,,,,0,41,41,10,,,,,,,,,,,,,,,,,,,,,,,892.4716033358127,None,893.9881084128283,None,895.3714285399765,None,"clock
",895.3714285399765,None,return,11.51676580728963,895.4551220918074,None,,,,,,,,,,,,,,,,,,,,,,,,,,,,,,,,,,,,,,,140,001,2023_Nov_28_1141,SpeechDraft1Carolyn_lessNoise_PlusLocalization,2021.2.3,60.01782125041955,
check.wav,check.mpg,check,6,A,Pink_Noise_6_1.wav,Pink_Noise_6_2.wav,,,,,,,,,,,,,,,0,42,42,3,,,,,,,,,,,,,,,,,,,,,,,907.0047628437169,None,908.5045104436576,None,909.8881229180843,None,check,909.8881229180843,None,return,2.792360038962215,909.9715327438898,None,,,,,,,,,,,,,,,,,,,,,,,,,,,,,,,,,,,,,,,140,001,2023_Nov_28_1141,SpeechDraft1Carolyn_lessNoise_PlusLocalization,2021.2.3,60.01782125041955,
bless.wav,bless.mpg,bless,2,AV,Pink_Noise_2_1.wav,Pink_Noise_2_2.wav,,,,,,,,,,,,,,,0,43,43,93,,,,,,,,,,,,,,,,,,,,,,,912.7880975869484,None,914.2878894070163,None,915.6715284017846,None,"bless
",915.6715284017846,None,return,6.168916670139879,915.754980194848,None,,,,,,,,,,,,,,,,,,,,,,,,,,,,,,,,,,,,,,,140,001,2023_Nov_28_1141,SpeechDraft1Carolyn_lessNoise_PlusLocalization,2021.2.3,60.01782125041955,
three.wav,three.mpg,three,3,A,Pink_Noise_3_1.wav,Pink_Noise_3_2.wav,,,,,,,,,,,,,,,0,44,44,52,,,,,,,,,,,,,,,,,,,,,,,921.9548132726923,None,923.4546343977563,None,924.8382153930143,None,food,924.8382153930143,None,return,14.59442936629057,924.9214638266712,None,,,,,,,,,,,,,,,,,,,,,,,,,,,,,,,,,,,,,,,140,001,2023_Nov_28_1141,SpeechDraft1Carolyn_lessNoise_PlusLocalization,2021.2.3,60.01782125041955,
dense.wav,dense.mpg,dense,6,A,Pink_Noise_6_1.wav,Pink_Noise_6_2.wav,,,,,,,,,,,,,,,0,45,45,28,,,,,,,,,,,,,,,,,,,,,,,939.5383945400827,None,941.0380495670252,None,942.421819399111,None,beach,942.421819399111,None,return,3.72315408103168,942.5048129349016,None,,,,,,,,,,,,,,,,,,,,,,,,,,,,,,,,,,,,,,,140,001,2023_Nov_28_1141,SpeechDraft1Carolyn_lessNoise_PlusLocalization,2021.2.3,60.01782125041955,
clog.wav,clog.mpg,clog,3,AV,Pink_Noise_3_1.wav,Pink_Noise_3_2.wav,,,,,,,,,,,,,,,0,46,46,81,,,,,,,,,,,,,,,,,,,,,,,946.2552265818231,None,947.754662679974,None,949.1381520670839,None,climb,949.1381520670839,None,return,12.854282961227,949.221624431666,None,,,,,,,,,,,,,,,,,,,,,,,,,,,,,,,,,,,,,,,140,001,2023_Nov_28_1141,SpeechDraft1Carolyn_lessNoise_PlusLocalization,2021.2.3,60.01782125041955,
dead.wav,dead.mpg,dead,6,AV,Pink_Noise_6_1.wav,Pink_Noise_6_2.wav,,,,,,,,,,,,,,,0,47,47,78,,,,,,,,,,,,,,,,,,,,,,,962.1049600187689,None,963.605017661117,None,964.9885216928087,None,death,964.9885216928087,None,return,2.9641448757611215,965.0717499968596,None,,,,,,,,,,,,,,,,,,,,,,,,,,,,,,,,,,,,,,,140,001,2023_Nov_28_1141,SpeechDraft1Carolyn_lessNoise_PlusLocalization,2021.2.3,60.01782125041955,
dad.wav,dad.mpg,dad,4,A,Pink_Noise_4_1.wav,Pink_Noise_4_2.wav,,,,,,,,,,,,,,,0,48,48,51,,,,,,,,,,,,,,,,,,,,,,,968.0549341198057,None,969.5546352188103,None,970.9383016149513,None,dad,970.9383016149513,None,return,3.054163014050573,971.0217429897748,None,,,,,,,,,,,,,,,,,,,,,,,,,,,,,,,,,,,,,,,140,001,2023_Nov_28_1141,SpeechDraft1Carolyn_lessNoise_PlusLocalization,2021.2.3,60.01782125041955,
cult.wav,cult.mpg,cult,4,AV,Pink_Noise_4_1.wav,Pink_Noise_4_2.wav,,,,,,,,,,,,,,,0,49,49,104,,,,,,,,,,,,,,,,,,,,,,,974.105021991767,None,975.6050610709935,None,976.9881609450094,None,cluts,976.9881609450094,None,return,8.092187611851841,977.0716957589611,None,,,,,,,,,,,,,,,,,,,,,,,,,,,,,,,,,,,,,,,140,001,2023_Nov_28_1141,SpeechDraft1Carolyn_lessNoise_PlusLocalization,2021.2.3,60.01782125041955,
budge.wav,budge.mpg,budge,3,AV,Pink_Noise_3_1.wav,Pink_Noise_3_2.wav,,,,,,,,,,,,,,,0,50,50,110,,,,,,,,,,,,,,,,,,,,,,,985.1885446440428,None,986.6882916139439,None,988.0716630918905,None,bunch,988.0716630918905,None,return,9.592804370913655,988.1550874020904,None,,,,,,,,,,,,,,,,,,,,,,,,,,,,,,,,,,,,,,,140,001,2023_Nov_28_1141,SpeechDraft1Carolyn_lessNoise_PlusLocalization,2021.2.3,60.01782125041955,
game.wav,game.mpg,game,4,A,Pink_Noise_4_1.wav,Pink_Noise_4_2.wav,,,,,,,,,,,,,,,0,51,51,26,,,,,,,,,,,,,,,,,,,,,,,997.7717120656744,None,999.2714180420153,None,1000.6552549037151,None,gray,1000.6552549037151,None,return,8.073696956969798,1000.7382756248116,None,,,,,,,,,,,,,,,,,,,,,,,,,,,,,,,,,,,,,,,140,001,2023_Nov_28_1141,SpeechDraft1Carolyn_lessNoise_PlusLocalization,2021.2.3,60.01782125041955,
spire.wav,spire.mpg,spire,6,AV,Pink_Noise_6_1.wav,Pink_Noise_6_2.wav,,,,,,,,,,,,,,,0,52,52,107,,,,,,,,,,,,,,,,,,,,,,,1008.8383147567511,None,1010.3382240016945,None,1011.7216836167499,None,bite,1011.7216836167499,None,return,17.558935361914337,1011.804961675778,None,,,,,,,,,,,,,,,,,,,,,,,,,,,,,,,,,,,,,,,140,001,2023_Nov_28_1141,SpeechDraft1Carolyn_lessNoise_PlusLocalization,2021.2.3,60.01782125041955,
fan.wav,fan.mpg,fan,2,A,Pink_Noise_2_1.wav,Pink_Noise_2_2.wav,,,,,,,,,,,,,,,0,53,53,48,,,,,,,,,,,,,,,,,,,,,,,1029.388308281079,None,1030.8882750007324,None,1032.2717131087556,None,"fan
",1032.2717131087556,None,return,5.352975165005773,1032.3549295207486,None,,,,,,,,,,,,,,,,,,,,,,,,,,,,,,,,,,,,,,,140,001,2023_Nov_28_1141,SpeechDraft1Carolyn_lessNoise_PlusLocalization,2021.2.3,60.01782125041955,
news.wav,news.mpg,news,2,A,Pink_Noise_2_1.wav,Pink_Noise_2_2.wav,,,,,,,,,,,,,,,0,54,54,17,,,,,,,,,,,,,,,,,,,,,,,1037.7385950549506,None,1039.238888276741,None,1040.6220074887387,None,moose,1040.6220074887387,None,return,5.394761449191719,1040.70516067883,None,,,,,,,,,,,,,,,,,,,,,,,,,,,,,,,,,,,,,,,140,001,2023_Nov_28_1141,SpeechDraft1Carolyn_lessNoise_PlusLocalization,2021.2.3,60.01782125041955,
flee.wav,flee.mpg,flee,4,AV,Pink_Noise_4_1.wav,Pink_Noise_4_2.wav,,,,,,,,,,,,,,,0,55,55,105,,,,,,,,,,,,,,,,,,,,,,,1046.1219458319247,None,1047.6216399567202,None,1049.0052493656985,None,flee,1049.0052493656985,None,return,1.3876275699585676,1049.088269524742,None,,,,,,,,,,,,,,,,,,,,,,,,,,,,,,,,,,,,,,,140,001,2023_Nov_28_1141,SpeechDraft1Carolyn_lessNoise_PlusLocalization,2021.2.3,60.01782125041955,
wheat.wav,wheat.mpg,wheat,1,AV,Pink_Noise_1_1.wav,Pink_Noise_1_2.wav,,,,,,,,,,,,,,,0,56,56,103,,,,,,,,,,,,,,,,,,,,,,,1050.5053334459662,None,1052.0050115850754,None,1053.3883330938406,None,"wait
",1053.3883330938406,None,return,6.900227824691683,1053.471664335113,None,,,,,,,,,,,,,,,,,,,,,,,,,,,,,,,,,,,,,,,140,001,2023_Nov_28_1141,SpeechDraft1Carolyn_lessNoise_PlusLocalization,2021.2.3,60.01782125041955,
firm.wav,firm.mpg,firm,2,AV,Pink_Noise_2_1.wav,Pink_Noise_2_2.wav,,,,,,,,,,,,,,,0,57,57,115,,,,,,,,,,,,,,,,,,,,,,,1060.4052967517637,None,1061.90515842475,None,1063.2883248226717,None,firm,1063.2883248226717,None,return,7.312159033957869,1063.3717335727997,None,,,,,,,,,,,,,,,,,,,,,,,,,,,,,,,,,,,,,,,140,001,2023_Nov_28_1141,SpeechDraft1Carolyn_lessNoise_PlusLocalization,2021.2.3,60.01782125041955,
aunt.wav,aunt.mpg,aunt,6,A,Pink_Noise_6_1.wav,Pink_Noise_6_2.wav,,,,,,,,,,,,,,,0,58,58,49,,,,,,,,,,,,,,,,,,,,,,,1070.7050507441163,None,1072.2048326861113,None,1073.5883855638094,None,"bite
",1073.5883855638094,None,return,3.268138850107789,1073.6717589558102,None,,,,,,,,,,,,,,,,,,,,,,,,,,,,,,,,,,,,,,,140,001,2023_Nov_28_1141,SpeechDraft1Carolyn_lessNoise_PlusLocalization,2021.2.3,60.01782125041955,
crack.wav,crack.mpg,crack,1,A,Pink_Noise_1_1.wav,Pink_Noise_1_2.wav,,,,,,,,,,,,,,,0,59,59,23,,,,,,,,,,,,,,,,,,,,,,,1076.971862848848,None,1078.4716643700376,None,1079.8550450340845,None,crack,1079.8550450340845,None,return,3.28140884405002,1079.938548665028,None,,,,,,,,,,,,,,,,,,,,,,,,,,,,,,,,,,,,,,,140,001,2023_Nov_28_1141,SpeechDraft1Carolyn_lessNoise_PlusLocalization,2021.2.3,60.01782125041955,
booth.wav,booth.mpg,booth,5,A,Pink_Noise_5_1.wav,Pink_Noise_5_2.wav,,,,,,,,,,,,,,,0,60,60,12,,,,,,,,,,,,,,,,,,,,,,,1083.2385203638114,None,1084.7385319480672,None,1086.1221016957425,None,flew,1086.1221016957425,None,return,5.3908291552215815,1086.2050625998527,None,,,,,,,,,,,,,,,,,,,,,,,,,,,,,,,,,,,,,,,140,001,2023_Nov_28_1141,SpeechDraft1Carolyn_lessNoise_PlusLocalization,2021.2.3,60.01782125041955,
dress.wav,dress.mpg,dress,5,A,Pink_Noise_5_1.wav,Pink_Noise_5_2.wav,,,,,,,,,,,,,,,0,61,61,1,,,,,,,,,,,,,,,,,,,,,,,1091.621905761771,None,1093.1382096768357,None,1094.5219778837636,None,"bless
",1094.5219778837636,None,return,5.102467609103769,1094.6054505039938,None,,,,,,,,,,,,,,,,,,,,,,,,,,,,,,,,,,,,,,,140,001,2023_Nov_28_1141,SpeechDraft1Carolyn_lessNoise_PlusLocalization,2021.2.3,60.01782125041955,
please.wav,please.mpg,please,5,A,Pink_Noise_5_1.wav,Pink_Noise_5_2.wav,,,,,,,,,,,,,,,0,62,62,59,,,,,,,,,,,,,,,,,,,,,,,1099.7385588800535,None,1101.2383828107268,None,1102.6217206618749,None,"faint 
",1102.6217206618749,None,return,8.818608186673373,1102.70528979972,None,,,,,,,,,,,,,,,,,,,,,,,,,,,,,,,,,,,,,,,140,001,2023_Nov_28_1141,SpeechDraft1Carolyn_lessNoise_PlusLocalization,2021.2.3,60.01782125041955,
dry.wav,dry.mpg,dry,6,AV,Pink_Noise_6_1.wav,Pink_Noise_6_2.wav,,,,,,,,,,,,,,,0,63,63,99,,,,,,,,,,,,,,,,,,,,,,,1111.555091060698,None,1113.0551542676985,None,1114.4385723536834,None,"dry
",1114.4385723536834,None,return,2.570080289617181,1114.5218312209472,None,,,,,,,,,,,,,,,,,,,,,,,,,,,,,,,,,,,,,,,140,001,2023_Nov_28_1141,SpeechDraft1Carolyn_lessNoise_PlusLocalization,2021.2.3,60.01782125041955,
rid.wav,rid.mpg,rid,6,AV,Pink_Noise_6_1.wav,Pink_Noise_6_2.wav,,,,,,,,,,,,,,,0,64,64,61,,,,,,,,,,,,,,,,,,,,,,,1117.1218269877136,None,1118.622085859999,None,1120.0051203877665,None,wait,1120.0051203877665,None,return,4.075295516289771,1120.0885875709355,None,,,,,,,,,,,,,,,,,,,,,,,,,,,,,,,,,,,,,,,140,001,2023_Nov_28_1141,SpeechDraft1Carolyn_lessNoise_PlusLocalization,2021.2.3,60.01782125041955,
toy.wav,toy.mpg,toy,2,A,Pink_Noise_2_1.wav,Pink_Noise_2_2.wav,,,,,,,,,,,,,,,0,65,65,33,,,,,,,,,,,,,,,,,,,,,,,1124.1884914711118,None,1125.6883668140508,None,1127.0720570967533,None,toy,1127.0720570967533,None,return,4.160738796927035,1127.1551964418031,None,,,,,,,,,,,,,,,,,,,,,,,,,,,,,,,,,,,,,,,140,001,2023_Nov_28_1141,SpeechDraft1Carolyn_lessNoise_PlusLocalization,2021.2.3,60.01782125041955,
dive.wav,dive.mpg,dive,4,A,Pink_Noise_4_1.wav,Pink_Noise_4_2.wav,,,,,,,,,,,,,,,0,66,66,8,,,,,,,,,,,,,,,,,,,,,,,1131.338436221704,None,1132.8386644208804,None,1134.222036800813,None,lie,1134.222036800813,None,return,3.3627414810471237,1134.3051528828219,None,,,,,,,,,,,,,,,,,,,,,,,,,,,,,,,,,,,,,,,140,001,2023_Nov_28_1141,SpeechDraft1Carolyn_lessNoise_PlusLocalization,2021.2.3,60.01782125041955,
shut.wav,shut.mpg,shut,2,A,Pink_Noise_2_1.wav,Pink_Noise_2_2.wav,,,,,,,,,,,,,,,0,67,67,42,,,,,,,,,,,,,,,,,,,,,,,1137.6885326099582,None,1139.1882351310924,None,1140.5718061006628,None,shut,1140.5718061006628,None,return,7.27666681073606,1140.655225269962,None,,,,,,,,,,,,,,,,,,,,,,,,,,,,,,,,,,,,,,,140,001,2023_Nov_28_1141,SpeechDraft1Carolyn_lessNoise_PlusLocalization,2021.2.3,60.01782125041955,
wine.wav,wine.mpg,wine,4,AV,Pink_Noise_4_1.wav,Pink_Noise_4_2.wav,,,,,,,,,,,,,,,0,68,68,92,,,,,,,,,,,,,,,,,,,,,,,1147.9551647068001,None,1149.4568078517914,None,1150.8383902008645,None,why,1150.8383902008645,None,return,5.306117901112884,1150.9219555440359,None,,,,,,,,,,,,,,,,,,,,,,,,,,,,,,,,,,,,,,,140,001,2023_Nov_28_1141,SpeechDraft1Carolyn_lessNoise_PlusLocalization,2021.2.3,60.01782125041955,
mold.wav,mold.mpg,mold,6,A,Pink_Noise_6_1.wav,Pink_Noise_6_2.wav,,,,,,,,,,,,,,,0,69,69,50,,,,,,,,,,,,,,,,,,,,,,,1156.2554834666662,None,1157.754882116802,None,1159.1386789036915,None,mold,1159.1386789036915,None,return,3.622056778986007,1159.2219479479827,None,,,,,,,,,,,,,,,,,,,,,,,,,,,,,,,,,,,,,,,140,001,2023_Nov_28_1141,SpeechDraft1Carolyn_lessNoise_PlusLocalization,2021.2.3,60.01782125041955,
phase.wav,phase.mpg,phase,5,A,Pink_Noise_5_1.wav,Pink_Noise_5_2.wav,,,,,,,,,,,,,,,0,70,70,5,,,,,,,,,,,,,,,,,,,,,,,1162.8718903218396,None,1164.371582372114,None,1165.7553665670566,None,finish,1165.7553665670566,None,return,3.965506282169372,1165.8384606870823,None,,,,,,,,,,,,,,,,,,,,,,,,,,,,,,,,,,,,,,,140,001,2023_Nov_28_1141,SpeechDraft1Carolyn_lessNoise_PlusLocalization,2021.2.3,60.01782125041955,
tool.wav,tool.mpg,tool,4,AV,Pink_Noise_4_1.wav,Pink_Noise_4_2.wav,,,,,,,,,,,,,,,0,71,71,70,,,,,,,,,,,,,,,,,,,,,,,1169.8219246249646,None,1171.3219649968669,None,1172.7053366317414,None,tools,1172.7053366317414,None,return,8.6714299749583,1172.7884702747688,None,,,,,,,,,,,,,,,,,,,,,,,,,,,,,,,,,,,,,,,140,001,2023_Nov_28_1141,SpeechDraft1Carolyn_lessNoise_PlusLocalization,2021.2.3,60.01782125041955,
dwell.wav,dwell.mpg,dwell,3,AV,Pink_Noise_3_1.wav,Pink_Noise_3_2.wav,,,,,,,,,,,,,,,0,72,72,96,,,,,,,,,,,,,,,,,,,,,,,1181.4885317590088,None,1182.9894590438344,None,1184.3718113810755,None,dwell,1184.3718113810755,None,return,7.780608133878559,1184.4553559240885,None,,,,,,,,,,,,,,,,,,,,,,,,,,,,,,,,,,,,,,,140,001,2023_Nov_28_1141,SpeechDraft1Carolyn_lessNoise_PlusLocalization,2021.2.3,60.01782125041955,
guest.wav,guest.mpg,guest,6,AV,Pink_Noise_6_1.wav,Pink_Noise_6_2.wav,,,,,,,,,,,,,,,0,73,73,101,,,,,,,,,,,,,,,,,,,,,,,1192.2552385167219,None,1193.7717566089705,None,1195.1554740797728,None,yes,1195.1554740797728,None,return,2.1251700720749795,1195.238722141832,None,,,,,,,,,,,,,,,,,,,,,,,,,,,,,,,,,,,,,,,140,001,2023_Nov_28_1141,SpeechDraft1Carolyn_lessNoise_PlusLocalization,2021.2.3,60.01782125041955,
chick.wav,chick.mpg,chick,6,AV,Pink_Noise_6_1.wav,Pink_Noise_6_2.wav,,,,,,,,,,,,,,,0,74,74,88,,,,,,,,,,,,,,,,,,,,,,,1197.3885627510026,None,1198.8886937187053,None,1200.2718242336996,None,"chick
",1200.2718242336996,None,return,2.6004677112214267,1200.3554295026697,None,,,,,,,,,,,,,,,,,,,,,,,,,,,,,,,,,,,,,,,140,001,2023_Nov_28_1141,SpeechDraft1Carolyn_lessNoise_PlusLocalization,2021.2.3,60.01782125041955,
fat.wav,fat.mpg,fat,1,A,Pink_Noise_1_1.wav,Pink_Noise_1_2.wav,,,,,,,,,,,,,,,0,75,75,2,,,,,,,,,,,,,,,,,,,,,,,1202.9885675110854,None,1204.505100867711,None,1205.888844532892,None,fat,1205.888844532892,None,return,5.312072261702269,1205.9718227828853,None,,,,,,,,,,,,,,,,,,,,,,,,,,,,,,,,,,,,,,,140,001,2023_Nov_28_1141,SpeechDraft1Carolyn_lessNoise_PlusLocalization,2021.2.3,60.01782125041955,
cute.wav,cute.mpg,cute,4,A,Pink_Noise_4_1.wav,Pink_Noise_4_2.wav,,,,,,,,,,,,,,,0,76,76,21,,,,,,,,,,,,,,,,,,,,,,,1211.3052070280537,None,1212.8062796029262,None,1214.188709706068,None,cute,1214.188709706068,None,return,2.0917534232139587,1214.2721454459243,None,,,,,,,,,,,,,,,,,,,,,,,,,,,,,,,,,,,,,,,140,001,2023_Nov_28_1141,SpeechDraft1Carolyn_lessNoise_PlusLocalization,2021.2.3,60.01782125041955,
rod.wav,rod.mpg,rod,3,A,Pink_Noise_3_1.wav,Pink_Noise_3_2.wav,,,,,,,,,,,,,,,0,77,77,35,,,,,,,,,,,,,,,,,,,,,,,1216.3887110659853,None,1217.9050025870092,None,1219.288746946957,None,drive,1219.288746946957,None,return,3.087934044189751,1219.3719691080041,None,,,,,,,,,,,,,,,,,,,,,,,,,,,,,,,,,,,,,,,140,001,2023_Nov_28_1141,SpeechDraft1Carolyn_lessNoise_PlusLocalization,2021.2.3,60.01782125041955,
fill.wav,fill.mpg,fill,2,AV,Pink_Noise_2_1.wav,Pink_Noise_2_2.wav,,,,,,,,,,,,,,,0,78,78,90,,,,,,,,,,,,,,,,,,,,,,,1222.4887904017232,None,1224.005280106794,None,1225.3886582958512,None,fill,1225.3886582958512,None,return,3.5238779271021485,1225.4720138451084,None,,,,,,,,,,,,,,,,,,,,,,,,,,,,,,,,,,,,,,,140,001,2023_Nov_28_1141,SpeechDraft1Carolyn_lessNoise_PlusLocalization,2021.2.3,60.01782125041955,
boat.wav,boat.mpg,boat,1,AV,Pink_Noise_1_1.wav,Pink_Noise_1_2.wav,,,,,,,,,,,,,,,0,79,79,79,,,,,,,,,,,,,,,,,,,,,,,1229.02228001412,None,1230.5240907450207,None,1231.9053039839491,None,boat,1231.9053039839491,None,return,3.879034245852381,1231.988896005787,None,,,,,,,,,,,,,,,,,,,,,,,,,,,,,,,,,,,,,,,140,001,2023_Nov_28_1141,SpeechDraft1Carolyn_lessNoise_PlusLocalization,2021.2.3,60.01782125041955,
stone.wav,stone.mpg,stone,5,A,Pink_Noise_5_1.wav,Pink_Noise_5_2.wav,,,,,,,,,,,,,,,0,80,80,19,,,,,,,,,,,,,,,,,,,,,,,1235.8886420857161,None,1237.3882944369689,None,1238.7722031921148,None,"swim
",1238.7722031921148,None,return,10.28468801593408,1238.8552204361185,None,,,,,,,,,,,,,,,,,,,,,,,,,,,,,,,,,,,,,,,140,001,2023_Nov_28_1141,SpeechDraft1Carolyn_lessNoise_PlusLocalization,2021.2.3,60.01782125041955,
bin.wav,bin.mpg,bin,3,A,Pink_Noise_3_1.wav,Pink_Noise_3_2.wav,,,,,,,,,,,,,,,0,81,81,54,,,,,,,,,,,,,,,,,,,,,,,1249.171996094752,None,1250.6719317329116,None,1252.0553672118112,None,did,1252.0553672118112,None,return,5.505352066364139,1252.1386575088836,None,,,,,,,,,,,,,,,,,,,,,,,,,,,,,,,,,,,,,,,140,001,2023_Nov_28_1141,SpeechDraft1Carolyn_lessNoise_PlusLocalization,2021.2.3,60.01782125041955,
damp.wav,damp.mpg,damp,4,A,Pink_Noise_4_1.wav,Pink_Noise_4_2.wav,,,,,,,,,,,,,,,0,82,82,9,,,,,,,,,,,,,,,,,,,,,,,1257.6721213310957,None,1259.2054710607044,None,1260.5721501046792,None,"dad
",1260.5721501046792,None,return,2.620569874998182,1260.6553423418663,None,,,,,,,,,,,,,,,,,,,,,,,,,,,,,,,,,,,,,,,140,001,2023_Nov_28_1141,SpeechDraft1Carolyn_lessNoise_PlusLocalization,2021.2.3,60.01782125041955,
bat.wav,bat.mpg,bat,2,A,Pink_Noise_2_1.wav,Pink_Noise_2_2.wav,,,,,,,,,,,,,,,0,83,83,16,,,,,,,,,,,,,,,,,,,,,,,1263.3055578549393,None,1264.8220467451029,None,1266.2055181236938,None,bat,1266.2055181236938,None,return,1.1633390355855227,1266.2886340860277,None,,,,,,,,,,,,,,,,,,,,,,,,,,,,,,,,,,,,,,,140,001,2023_Nov_28_1141,SpeechDraft1Carolyn_lessNoise_PlusLocalization,2021.2.3,60.01782125041955,
flu.wav,flu.mpg,flu,3,A,Pink_Noise_3_1.wav,Pink_Noise_3_2.wav,,,,,,,,,,,,,,,0,84,84,27,,,,,,,,,,,,,,,,,,,,,,,1267.4720584540628,None,1268.9884361778386,None,1270.372130556032,None,blue,1270.372130556032,None,return,2.772630076855421,1270.455355152022,None,,,,,,,,,,,,,,,,,,,,,,,,,,,,,,,,,,,,,,,140,001,2023_Nov_28_1141,SpeechDraft1Carolyn_lessNoise_PlusLocalization,2021.2.3,60.01782125041955,
cold.wav,cold.mpg,cold,1,A,Pink_Noise_1_1.wav,Pink_Noise_1_2.wav,,,,,,,,,,,,,,,0,85,85,36,,,,,,,,,,,,,,,,,,,,,,,1273.255384392105,None,1274.7550683668815,None,1276.1388191939332,None,cokd,1276.1388191939332,None,return,6.557580546010286,1276.2223108429462,None,,,,,,,,,,,,,,,,,,,,,,,,,,,,,,,,,,,,,,,140,001,2023_Nov_28_1141,SpeechDraft1Carolyn_lessNoise_PlusLocalization,2021.2.3,60.01782125041955,
brawl.wav,brawl.mpg,brawl,6,A,Pink_Noise_6_1.wav,Pink_Noise_6_2.wav,,,,,,,,,,,,,,,0,86,86,24,,,,,,,,,,,,,,,,,,,,,,,1282.8053872520104,None,1284.3383105336688,None,1285.7220337716863,None,why,1285.7220337716863,None,return,4.37439030688256,1285.8054939717986,None,,,,,,,,,,,,,,,,,,,,,,,,,,,,,,,,,,,,,,,140,001,2023_Nov_28_1141,SpeechDraft1Carolyn_lessNoise_PlusLocalization,2021.2.3,60.01782125041955,
fence.wav,fence.mpg,fence,3,AV,Pink_Noise_3_1.wav,Pink_Noise_3_2.wav,,,,,,,,,,,,,,,0,87,87,85,,,,,,,,,,,,,,,,,,,,,,,1290.205541596748,None,1291.7056456049904,None,1293.089148557745,None,fence,1293.089148557745,None,return,6.655943097081035,1293.1721473168582,None,,,,,,,,,,,,,,,,,,,,,,,,,,,,,,,,,,,,,,,140,001,2023_Nov_28_1141,SpeechDraft1Carolyn_lessNoise_PlusLocalization,2021.2.3,60.01782125041955,
strive.wav,strive.mpg,strive,5,AV,Pink_Noise_5_1.wav,Pink_Noise_5_2.wav,,,,,,,,,,,,,,,0,88,88,71,,,,,,,,,,,,,,,,,,,,,,,1299.855495074764,None,1301.37175818393,None,1302.7562984908,None,strive,1302.7562984908,None,return,4.797292856965214,1302.8387118000537,None,,,,,,,,,,,,,,,,,,,,,,,,,,,,,,,,,,,,,,,140,001,2023_Nov_28_1141,SpeechDraft1Carolyn_lessNoise_PlusLocalization,2021.2.3,60.01782125041955,
pledge.wav,pledge.mpg,pledge,5,A,Pink_Noise_5_1.wav,Pink_Noise_5_2.wav,,,,,,,,,,,,,,,0,89,89,11,,,,,,,,,,,,,,,,,,,,,,,1307.6554098906927,None,1309.1885491968133,None,1310.5720713566989,None,search,1310.5720713566989,None,return,7.324410436209291,1310.6555061237887,None,,,,,,,,,,,,,,,,,,,,,,,,,,,,,,,,,,,,,,,140,001,2023_Nov_28_1141,SpeechDraft1Carolyn_lessNoise_PlusLocalization,2021.2.3,60.01782125041955,
flick.wav,flick.mpg,flick,5,A,Pink_Noise_5_1.wav,Pink_Noise_5_2.wav,,,,,,,,,,,,,,,0,90,90,55,,,,,,,,,,,,,,,,,,,,,,,1318.0053294119425,None,1319.5219458029605,None,1320.9053085590713,None,bless,1320.9053085590713,None,return,4.638988608960062,1320.9890223117545,None,,,,,,,,,,,,,,,,,,,,,,,,,,,,,,,,,,,,,,,140,001,2023_Nov_28_1141,SpeechDraft1Carolyn_lessNoise_PlusLocalization,2021.2.3,60.01782125041955,
blade.wav,blade.mpg,blade,5,AV,Pink_Noise_5_1.wav,Pink_Noise_5_2.wav,,,,,,,,,,,,,,,0,91,91,100,,,,,,,,,,,,,,,,,,,,,,,1325.6554082441144,None,1327.171967748087,None,1328.5554049010389,None,blink,1328.5554049010389,None,return,5.060992394108325,1328.6389270466752,None,,,,,,,,,,,,,,,,,,,,,,,,,,,,,,,,,,,,,,,140,001,2023_Nov_28_1141,SpeechDraft1Carolyn_lessNoise_PlusLocalization,2021.2.3,60.01782125041955,
gross.wav,gross.mpg,gross,5,A,Pink_Noise_5_1.wav,Pink_Noise_5_2.wav,,,,,,,,,,,,,,,0,92,92,15,,,,,,,,,,,,,,,,,,,,,,,1333.7221761890687,None,1335.2221742398106,None,1336.6056408039294,None,close,1336.6056408039294,None,return,7.13123078411445,1336.6886908160523,None,,,,,,,,,,,,,,,,,,,,,,,,,,,,,,,,,,,,,,,140,001,2023_Nov_28_1141,SpeechDraft1Carolyn_lessNoise_PlusLocalization,2021.2.3,60.01782125041955,
brake.wav,brake.mpg,brake,1,AV,Pink_Noise_1_1.wav,Pink_Noise_1_2.wav,,,,,,,,,,,,,,,0,93,93,77,,,,,,,,,,,,,,,,,,,,,,,1343.8389823897742,None,1345.3385653090663,None,1346.722050654702,None,break,1346.722050654702,None,return,2.5263725123368204,1346.8055101847276,None,,,,,,,,,,,,,,,,,,,,,,,,,,,,,,,,,,,,,,,140,001,2023_Nov_28_1141,SpeechDraft1Carolyn_lessNoise_PlusLocalization,2021.2.3,60.01782125041955,
teen.wav,teen.mpg,teen,2,AV,Pink_Noise_2_1.wav,Pink_Noise_2_2.wav,,,,,,,,,,,,,,,0,94,94,94,,,,,,,,,,,,,,,,,,,,,,,1349.3554503079504,None,1350.8553266930394,None,1352.23887912184,None,teen,1352.23887912184,None,return,1.7616321062669158,1352.3222833359614,None,,,,,,,,,,,,,,,,,,,,,,,,,,,,,,,,,,,,,,,140,001,2023_Nov_28_1141,SpeechDraft1Carolyn_lessNoise_PlusLocalization,2021.2.3,60.01782125041955,
bad.wav,bad.mpg,bad,1,AV,Pink_Noise_1_1.wav,Pink_Noise_1_2.wav,,,,,,,,,,,,,,,0,95,95,63,,,,,,,,,,,,,,,,,,,,,,,1354.1055034426972,None,1355.60676744394,None,1356.9887974420562,None,bad,1356.9887974420562,None,return,3.323680373840034,1357.0722721768543,None,,,,,,,,,,,,,,,,,,,,,,,,,,,,,,,,,,,,,,,140,001,2023_Nov_28_1141,SpeechDraft1Carolyn_lessNoise_PlusLocalization,2021.2.3,60.01782125041955,
bake.wav,bake.mpg,bake,4,A,Pink_Noise_4_1.wav,Pink_Noise_4_2.wav,,,,,,,,,,,,,,,0,96,96,58,,,,,,,,,,,,,,,,,,,,,,,1360.4221540167928,None,1361.9386672857217,None,1363.3222901481204,None,bake,1363.3222901481204,None,return,6.078415374737233,1363.405500215944,None,,,,,,,,,,,,,,,,,,,,,,,,,,,,,,,,,,,,,,,140,001,2023_Nov_28_1141,SpeechDraft1Carolyn_lessNoise_PlusLocalization,2021.2.3,60.01782125041955,
due.wav,due.mpg,due,2,A,Pink_Noise_2_1.wav,Pink_Noise_2_2.wav,,,,,,,,,,,,,,,0,97,97,56,,,,,,,,,,,,,,,,,,,,,,,1369.5056370017119,None,1371.0222309837118,None,1372.4053934309632,None,do,1372.4053934309632,None,return,2.747193939052522,1372.4888345487416,None,,,,,,,,,,,,,,,,,,,,,,,,,,,,,,,,,,,,,,,140,001,2023_Nov_28_1141,SpeechDraft1Carolyn_lessNoise_PlusLocalization,2021.2.3,60.01782125041955,
cane.wav,cane.mpg,cane,2,AV,Pink_Noise_2_1.wav,Pink_Noise_2_2.wav,,,,,,,,,,,,,,,0,98,98,102,,,,,,,,,,,,,,,,,,,,,,,1375.2558378647082,None,1376.756254984066,None,1378.1393160368316,None,cane,1378.1393160368316,None,return,7.837755064014345,1378.222148182802,None,,,,,,,,,,,,,,,,,,,,,,,,,,,,,,,,,,,,,,,140,001,2023_Nov_28_1141,SpeechDraft1Carolyn_lessNoise_PlusLocalization,2021.2.3,60.01782125041955,
fog.wav,fog.mpg,fog,1,A,Pink_Noise_1_1.wav,Pink_Noise_1_2.wav,,,,,,,,,,,,,,,0,99,99,31,,,,,,,,,,,,,,,,,,,,,,,1386.0888376687653,None,1387.6055758609436,None,1388.9890177967027,None,fog,1388.9890177967027,None,return,5.25955259706825,1389.0723451180384,None,,,,,,,,,,,,,,,,,,,,,,,,,,,,,,,,,,,,,,,140,001,2023_Nov_28_1141,SpeechDraft1Carolyn_lessNoise_PlusLocalization,2021.2.3,60.01782125041955,
wind.wav,wind.mpg,wind,1,AV,Pink_Noise_1_1.wav,Pink_Noise_1_2.wav,,,,,,,,,,,,,,,0,100,100,68,,,,,,,,,,,,,,,,,,,,,,,1394.3556871106848,None,1395.872383529786,None,1397.2554608876817,None,wind,1397.2554608876817,None,return,2.2969083692878485,1397.3390766098164,None,,,,,,,,,,,,,,,,,,,,,,,,,,,,,,,,,,,,,,,140,001,2023_Nov_28_1141,SpeechDraft1Carolyn_lessNoise_PlusLocalization,2021.2.3,60.01782125041955,
drag.wav,drag.mpg,drag,5,AV,Pink_Noise_5_1.wav,Pink_Noise_5_2.wav,,,,,,,,,,,,,,,0,101,101,118,,,,,,,,,,,,,,,,,,,,,,,1399.6554196137004,None,1401.1551534598693,None,1402.538799222093,None,drag,1402.538799222093,None,return,6.677658815868199,1402.622222816106,None,,,,,,,,,,,,,,,,,,,,,,,,,,,,,,,,,,,,,,,140,001,2023_Nov_28_1141,SpeechDraft1Carolyn_lessNoise_PlusLocalization,2021.2.3,60.01782125041955,
stuck.wav,stuck.mpg,stuck,2,AV,Pink_Noise_2_1.wav,Pink_Noise_2_2.wav,,,,,,,,,,,,,,,0,102,102,62,,,,,,,,,,,,,,,,,,,,,,,1409.3224660288543,None,1410.8387722657062,None,1412.2221622737125,None,"stuck
",1412.2221622737125,None,return,2.0024613314308226,1412.3054525200278,None,,,,,,,,,,,,,,,,,,,,,,,,,,,,,,,,,,,,,,,140,001,2023_Nov_28_1141,SpeechDraft1Carolyn_lessNoise_PlusLocalization,2021.2.3,60.01782125041955,
warmth.wav,warmth.mpg,warmth,1,A,Pink_Noise_1_1.wav,Pink_Noise_1_2.wav,,,,,,,,,,,,,,,0,103,103,7,,,,,,,,,,,,,,,,,,,,,,,1414.338905369863,None,1415.8721550758928,None,1417.2555366558954,None,warmth,1417.2555366558954,None,return,3.249055054038763,1417.338929392863,None,,,,,,,,,,,,,,,,,,,,,,,,,,,,,,,,,,,,,,,140,001,2023_Nov_28_1141,SpeechDraft1Carolyn_lessNoise_PlusLocalization,2021.2.3,60.01782125041955,
spray.wav,spray.mpg,spray,1,AV,Pink_Noise_1_1.wav,Pink_Noise_1_2.wav,,,,,,,,,,,,,,,0,104,104,76,,,,,,,,,,,,,,,,,,,,,,,1420.6057328470051,None,1422.1560067059472,None,1423.5388531158678,None,spray,1423.5388531158678,None,return,6.429346404969692,1423.6225825836882,None,,,,,,,,,,,,,,,,,,,,,,,,,,,,,,,,,,,,,,,140,001,2023_Nov_28_1141,SpeechDraft1Carolyn_lessNoise_PlusLocalization,2021.2.3,60.01782125041955,
ghost.wav,ghost.mpg,ghost,2,AV,Pink_Noise_2_1.wav,Pink_Noise_2_2.wav,,,,,,,,,,,,,,,0,105,105,84,,,,,,,,,,,,,,,,,,,,,,,1430.0723601030186,None,1431.5889653977938,None,1432.9723634570837,None,ghost,1432.9723634570837,None,return,10.260236233938485,1433.0556813240983,None,,,,,,,,,,,,,,,,,,,,,,,,,,,,,,,,,,,,,,,140,001,2023_Nov_28_1141,SpeechDraft1Carolyn_lessNoise_PlusLocalization,2021.2.3,60.01782125041955,
bulb.wav,bulb.mpg,bulb,3,A,Pink_Noise_3_1.wav,Pink_Noise_3_2.wav,,,,,,,,,,,,,,,0,106,106,34,,,,,,,,,,,,,,,,,,,,,,,1443.3389335828833,None,1444.855908372905,None,1446.239053000696,None,bold,1446.239053000696,None,return,5.929515323136002,1446.3224308718927,None,,,,,,,,,,,,,,,,,,,,,,,,,,,,,,,,,,,,,,,140,001,2023_Nov_28_1141,SpeechDraft1Carolyn_lessNoise_PlusLocalization,2021.2.3,60.01782125041955,
bloat.wav,bloat.mpg,bloat,2,AV,Pink_Noise_2_1.wav,Pink_Noise_2_2.wav,,,,,,,,,,,,,,,0,107,107,114,,,,,,,,,,,,,,,,,,,,,,,1452.2723075039685,None,1453.7886693757027,None,1455.172183718998,None,"bloat
",1455.172183718998,None,return,4.452166970353574,1455.2557379379869,None,,,,,,,,,,,,,,,,,,,,,,,,,,,,,,,,,,,,,,,140,001,2023_Nov_28_1141,SpeechDraft1Carolyn_lessNoise_PlusLocalization,2021.2.3,60.01782125041955,
cease.wav,cease.mpg,cease,3,AV,Pink_Noise_3_1.wav,Pink_Noise_3_2.wav,,,,,,,,,,,,,,,0,108,108,69,,,,,,,,,,,,,,,,,,,,,,,1459.7389083937742,None,1461.240089634899,None,1462.622343658004,None,cease,1462.622343658004,None,return,4.666321132332087,1462.7056600218639,None,,,,,,,,,,,,,,,,,,,,,,,,,,,,,,,,,,,,,,,140,001,2023_Nov_28_1141,SpeechDraft1Carolyn_lessNoise_PlusLocalization,2021.2.3,60.01782125041955,
block.wav,block.mpg,block,6,A,Pink_Noise_6_1.wav,Pink_Noise_6_2.wav,,,,,,,,,,,,,,,0,109,109,25,,,,,,,,,,,,,,,,,,,,,,,1467.3889940548688,None,1468.9053783388808,None,1470.2891409378499,None,blut,1470.2891409378499,None,return,9.7996573317796,1470.3722789250314,None,,,,,,,,,,,,,,,,,,,,,,,,,,,,,,,,,,,,,,,140,001,2023_Nov_28_1141,SpeechDraft1Carolyn_lessNoise_PlusLocalization,2021.2.3,60.01782125041955,
sock.wav,sock.mpg,sock,4,AV,Pink_Noise_4_1.wav,Pink_Noise_4_2.wav,,,,,,,,,,,,,,,0,110,110,91,,,,,,,,,,,,,,,,,,,,,,,1480.1889213938266,None,1481.7554294918664,None,1483.1389171876945,None,"sock
",1483.1389171876945,None,return,10.085376498289406,1483.2225278140977,None,,,,,,,,,,,,,,,,,,,,,,,,,,,,,,,,,,,,,,,140,001,2023_Nov_28_1141,SpeechDraft1Carolyn_lessNoise_PlusLocalization,2021.2.3,60.01782125041955,
fee.wav,fee.mpg,fee,4,A,Pink_Noise_4_1.wav,Pink_Noise_4_2.wav,,,,,,,,,,,,,,,0,111,111,14,,,,,,,,,,,,,,,,,,,,,,,1493.3391154338606,None,1494.8554921629839,None,1496.2390430737287,None,bait,1496.2390430737287,None,return,10.70572113711387,1496.3222701488994,None,,,,,,,,,,,,,,,,,,,,,,,,,,,,,,,,,,,,,,,140,001,2023_Nov_28_1141,SpeechDraft1Carolyn_lessNoise_PlusLocalization,2021.2.3,60.01782125041955,
shock.wav,shock.mpg,shock,1,A,Pink_Noise_1_1.wav,Pink_Noise_1_2.wav,,,,,,,,,,,,,,,0,112,112,22,,,,,,,,,,,,,,,,,,,,,,,1507.0557067068294,None,1508.5887374291196,None,1509.972872348968,None,shock,1509.972872348968,None,return,3.94815461570397,1510.0558456201106,None,,,,,,,,,,,,,,,,,,,,,,,,,,,,,,,,,,,,,,,140,001,2023_Nov_28_1141,SpeechDraft1Carolyn_lessNoise_PlusLocalization,2021.2.3,60.01782125041955,
crush.wav,crush.mpg,crush,4,A,Pink_Noise_4_1.wav,Pink_Noise_4_2.wav,,,,,,,,,,,,,,,0,113,113,46,,,,,,,,,,,,,,,,,,,,,,,1514.0223592277616,None,1515.5390240037814,None,1516.92262875475,None,crush,1516.92262875475,None,return,2.374214868992567,1517.005794024095,None,,,,,,,,,,,,,,,,,,,,,,,,,,,,,,,,,,,,,,,140,001,2023_Nov_28_1141,SpeechDraft1Carolyn_lessNoise_PlusLocalization,2021.2.3,60.01782125041955,
beat.wav,beat.mpg,beat,5,A,Pink_Noise_5_1.wav,Pink_Noise_5_2.wav,,,,,,,,,,,,,,,0,114,114,37,,,,,,,,,,,,,,,,,,,,,,,1519.4056870928034,None,1520.9233462368138,None,1522.3059218716808,None,shoot,1522.3059218716808,None,return,4.022821186110377,1522.3891781149432,None,,,,,,,,,,,,,,,,,,,,,,,,,,,,,,,,,,,,,,,140,001,2023_Nov_28_1141,SpeechDraft1Carolyn_lessNoise_PlusLocalization,2021.2.3,60.01782125041955,
pop.wav,pop.mpg,pop,3,AV,Pink_Noise_3_1.wav,Pink_Noise_3_2.wav,,,,,,,,,,,,,,,0,115,115,83,,,,,,,,,,,,,,,,,,,,,,,1526.4391384939663,None,1527.988754299935,None,1529.37229411304,None,pot,1529.37229411304,None,return,0.9723146050237119,1529.455681825988,None,,,,,,,,,,,,,,,,,,,,,,,,,,,,,,,,,,,,,,,140,001,2023_Nov_28_1141,SpeechDraft1Carolyn_lessNoise_PlusLocalization,2021.2.3,60.01782125041955,
beam.wav,beam.mpg,beam,2,A,Pink_Noise_2_1.wav,Pink_Noise_2_2.wav,,,,,,,,,,,,,,,0,116,116,41,,,,,,,,,,,,,,,,,,,,,,,1530.455752318725,None,1531.9721612837166,None,1533.3559528789483,None,fling,1533.3559528789483,None,return,4.41294669220224,1533.439016175922,None,,,,,,,,,,,,,,,,,,,,,,,,,,,,,,,,,,,,,,,140,001,2023_Nov_28_1141,SpeechDraft1Carolyn_lessNoise_PlusLocalization,2021.2.3,60.01782125041955,
flask.wav,flask.mpg,flask,5,AV,Pink_Noise_5_1.wav,Pink_Noise_5_2.wav,,,,,,,,,,,,,,,0,117,117,113,,,,,,,,,,,,,,,,,,,,,,,1537.8723878297023,None,1539.3890920476988,None,1540.7722936798818,None,"frat
",1540.7722936798818,None,return,1.6201406666077673,1540.8557667918503,None,,,,,,,,,,,,,,,,,,,,,,,,,,,,,,,,,,,,,,,140,001,2023_Nov_28_1141,SpeechDraft1Carolyn_lessNoise_PlusLocalization,2021.2.3,60.01782125041955,
chief.wav,chief.mpg,chief,6,A,Pink_Noise_6_1.wav,Pink_Noise_6_2.wav,,,,,,,,,,,,,,,0,118,118,40,,,,,,,,,,,,,,,,,,,,,,,1542.5056710499339,None,1544.0389104289934,None,1545.4225874068215,None,"chase
",1545.4225874068215,None,return,3.9538706089369953,1545.5060254549608,None,,,,,,,,,,,,,,,,,,,,,,,,,,,,,,,,,,,,,,,140,001,2023_Nov_28_1141,SpeechDraft1Carolyn_lessNoise_PlusLocalization,2021.2.3,60.01782125041955,
grade.wav,grade.mpg,grade,4,AV,Pink_Noise_4_1.wav,Pink_Noise_4_2.wav,,,,,,,,,,,,,,,0,119,119,95,,,,,,,,,,,,,,,,,,,,,,,1549.4892348637804,None,1551.0054648928344,None,1552.3892447156832,None,gray,1552.3892447156832,None,return,5.123453170992434,1552.4725110307336,None,,,,,,,,,,,,,,,,,,,,,,,,,,,,,,,,,,,,,,,140,001,2023_Nov_28_1141,SpeechDraft1Carolyn_lessNoise_PlusLocalization,2021.2.3,60.01782125041955,
,,,,,,,,,,,,,,,,,,,,,,,,,,,,,,,,,,,,,,,,,,,,,,,,,,,,,,,,,,,,,,,,,,space,27.43333675293252,1557.7225699629635,None,,,,,,,,,,,,,,,,,,,,,,,,,,,,,140,001,2023_Nov_28_1141,SpeechDraft1Carolyn_lessNoise_PlusLocalization,2021.2.3,60.01782125041955,
,,,,,,,,nearLeft,-6.5,1,ch1Sound_localizationTask.wav,-6.5,"(857, 878)","(-103,-202)",-95,-338,,,,,,,,,0,0,0,2,,,,,,,,,,,,,,,,,,,,,,,,,,,,,,,,,,,,,,,,,,1557.7225699629635,None,1585.2056152187288,None,1586.3055309448391,None,1587.2222218536772,None,1.1841269841269841,2.3703460008837283,1587.2222218536772,None,,,,,,,,,,,,,,,,,140,001,2023_Nov_28_1141,SpeechDraft1Carolyn_lessNoise_PlusLocalization,2021.2.3,60.01782125041955,
,,,,,,,,nearRight,6.5,0,ch1Sound_localizationTask.wav,6.5,"(1047, 878)","(87, -202)",95,-338,,,,,,,,,0,1,1,4,,,,,,,,,,,,,,,,,,,,,,,,,,,,,,,,,,,,,,,,,,,,1589.589408076834,None,1590.689035685733,None,1591.6222676387988,None,1.5947089947089947,1.7994712879881263,1591.6222676387988,None,,,,,,,,,,,,,,,,,140,001,2023_Nov_28_1141,SpeechDraft1Carolyn_lessNoise_PlusLocalization,2021.2.3,60.01782125041955,
,,,,,,,,nearRight,6.5,0,ch1Sound_localizationTask.wav,6.5,"(1047, 878)","(87, -202)",95,-338,,,,,,,,,0,2,2,4,,,,,,,,,,,,,,,,,,,,,,,,,,,,,,,,,,,,,,,,,,,,1593.4223531219177,None,1594.5221685930155,None,1595.455678022001,None,1.596825396825397,0.7171144778840244,1595.455678022001,None,,,,,,,,,,,,,,,,,140,001,2023_Nov_28_1141,SpeechDraft1Carolyn_lessNoise_PlusLocalization,2021.2.3,60.01782125041955,
,,,,,,,,farRight,19.1,4,ch1Sound_localizationTask.wav,19.1,"(1237, 878)","(277,-202)",285,-338,,,,,,,,,0,3,3,6,,,,,,,,,,,,,,,,,,,,,,,,,,,,,,,,,,,,,,,,,,,,1596.1726038521156,None,1597.2722933320329,None,1598.20574557269,None,1.6693121693121693,0.8325944761745632,1598.20574557269,None,,,,,,,,,,,,,,,,,140,001,2023_Nov_28_1141,SpeechDraft1Carolyn_lessNoise_PlusLocalization,2021.2.3,60.01782125041955,
,,,,,,,,center,0.0,6,ch1Sound_localizationTask.wav,0.0,"(952, 878)","(-8,-202)",0,-338,,,,,,,,,0,4,4,3,,,,,,,,,,,,,,,,,,,,,,,,,,,,,,,,,,,,,,,,,,,,1599.0393996508792,None,1600.1389467990957,None,1601.0721352039836,None,1.5497354497354499,0.7330431807786226,1601.0721352039836,None,,,,,,,,,,,,,,,,,140,001,2023_Nov_28_1141,SpeechDraft1Carolyn_lessNoise_PlusLocalization,2021.2.3,60.01782125041955,
,,,,,,,,midLeft,-13.0,2,ch1Sound_localizationTask.wav,-13.0,"(762, 878)","(-198,-202)",-190,-338,,,,,,,,,0,5,5,1,,,,,,,,,,,,,,,,,,,,,,,,,,,,,,,,,,,,,,,,,,,,1601.806417111773,None,1602.9057930018753,None,1603.8390149367042,None,1.2783068783068783,1.0161742917262018,1603.8390149367042,None,,,,,,,,,,,,,,,,,140,001,2023_Nov_28_1141,SpeechDraft1Carolyn_lessNoise_PlusLocalization,2021.2.3,60.01782125041955,
,,,,,,,,midLeft,-13.0,2,ch1Sound_localizationTask.wav,-13.0,"(762, 878)","(-198,-202)",-190,-338,,,,,,,,,0,6,6,1,,,,,,,,,,,,,,,,,,,,,,,,,,,,,,,,,,,,,,,,,,,,1604.8564126440324,None,1605.9556540278718,None,1606.8888831897639,None,1.2449735449735448,0.649215857964009,1606.8888831897639,None,,,,,,,,,,,,,,,,,140,001,2023_Nov_28_1141,SpeechDraft1Carolyn_lessNoise_PlusLocalization,2021.2.3,60.01782125041955,
,,,,,,,,midLeft,-13.0,2,ch1Sound_localizationTask.wav,-13.0,"(762, 878)","(-198,-202)",-190,-338,,,,,,,,,1,0,7,1,,,,,,,,,,,,,,,,,,,,,,,,,,,,,,,,,,,,,,,,,,,,1607.5391972339712,None,1608.6388961328194,None,1609.572258443106,None,1.2365079365079366,0.6995333987288177,1609.572258443106,None,,,,,,,,,,,,,,,,,140,001,2023_Nov_28_1141,SpeechDraft1Carolyn_lessNoise_PlusLocalization,2021.2.3,60.01782125041955,
,,,,,,,,farRight,19.1,4,ch1Sound_localizationTask.wav,19.1,"(1237, 878)","(277,-202)",285,-338,,,,,,,,,1,1,8,6,,,,,,,,,,,,,,,,,,,,,,,,,,,,,,,,,,,,,,,,,,,,1610.2725207079202,None,1611.3724845508114,None,1612.3057207888924,None,1.7624338624338625,1.3163819760084152,1612.3057207888924,None,,,,,,,,,,,,,,,,,140,001,2023_Nov_28_1141,SpeechDraft1Carolyn_lessNoise_PlusLocalization,2021.2.3,60.01782125041955,
,,,,,,,,midRight,13.0,3,ch1Sound_localizationTask.wav,13.0,"(1142, 878)","(182, -202)",190,-338,,,,,,,,,1,2,9,5,,,,,,,,,,,,,,,,,,,,,,,,,,,,,,,,,,,,,,,,,,,,1613.6224597888067,None,1614.72224267805,None,1615.6556118098088,None,1.6238095238095238,0.6161875640973449,1615.6556118098088,None,,,,,,,,,,,,,,,,,140,001,2023_Nov_28_1141,SpeechDraft1Carolyn_lessNoise_PlusLocalization,2021.2.3,60.01782125041955,
,,,,,,,,nearRight,6.5,0,ch1Sound_localizationTask.wav,6.5,"(1047, 878)","(87, -202)",95,-338,,,,,,,,,1,3,10,4,,,,,,,,,,,,,,,,,,,,,,,,,,,,,,,,,,,,,,,,,,,,1616.2725978307426,None,1617.3723716717213,None,1618.3056431459263,None,1.5878306878306878,0.6496361889876425,1618.3056431459263,None,,,,,,,,,,,,,,,,,140,001,2023_Nov_28_1141,SpeechDraft1Carolyn_lessNoise_PlusLocalization,2021.2.3,60.01782125041955,
,,,,,,,,farLeft,-19.1,5,ch1Sound_localizationTask.wav,-19.1,"(667, 878)","(-293,-202)",-285,-338,,,,,,,,,1,4,11,0,,,,,,,,,,,,,,,,,,,,,,,,,,,,,,,,,,,,,,,,,,,,1618.9559843600728,None,1620.055673159659,None,1620.9890447380021,None,1.2195767195767195,1.0829948177561164,1620.9890447380021,None,,,,,,,,,,,,,,,,,140,001,2023_Nov_28_1141,SpeechDraft1Carolyn_lessNoise_PlusLocalization,2021.2.3,60.01782125041955,
,,,,,,,,center,0.0,6,ch1Sound_localizationTask.wav,0.0,"(952, 878)","(-8,-202)",0,-338,,,,,,,,,1,5,12,3,,,,,,,,,,,,,,,,,,,,,,,,,,,,,,,,,,,,,,,,,,,,1622.0724228350446,None,1623.172218800988,None,1624.1054688170552,None,1.5269841269841269,0.83224933501333,1624.1054688170552,None,,,,,,,,,,,,,,,,,140,001,2023_Nov_28_1141,SpeechDraft1Carolyn_lessNoise_PlusLocalization,2021.2.3,60.01782125041955,
,,,,,,,,farRight,19.1,4,ch1Sound_localizationTask.wav,19.1,"(1237, 878)","(277,-202)",285,-338,,,,,,,,,1,6,13,6,,,,,,,,,,,,,,,,,,,,,,,,,,,,,,,,,,,,,,,,,,,,1624.9392608110793,None,1626.0391150470823,None,1626.9724240410142,None,1.708994708994709,1.0173073299229145,1626.9724240410142,None,,,,,,,,,,,,,,,,,140,001,2023_Nov_28_1141,SpeechDraft1Carolyn_lessNoise_PlusLocalization,2021.2.3,60.01782125041955,
,,,,,,,,farLeft,-19.1,5,ch1Sound_localizationTask.wav,-19.1,"(667, 878)","(-293,-202)",-285,-338,,,,,,,,,2,0,14,0,,,,,,,,,,,,,,,,,,,,,,,,,,,,,,,,,,,,,,,,,,,,1628.00603674585,None,1629.1057977327146,None,1630.0391348479316,None,1.3026455026455026,0.8989494172856212,1630.0391348479316,None,,,,,,,,,,,,,,,,,140,001,2023_Nov_28_1141,SpeechDraft1Carolyn_lessNoise_PlusLocalization,2021.2.3,60.01782125041955,
,,,,,,,,farRight,19.1,4,ch1Sound_localizationTask.wav,19.1,"(1237, 878)","(277,-202)",285,-338,,,,,,,,,2,1,15,6,,,,,,,,,,,,,,,,,,,,,,,,,,,,,,,,,,,,,,,,,,,,1630.939108226914,None,1632.0390988127328,None,1632.9724053968675,None,1.6026455026455027,0.7499276306480169,1632.9724053968675,None,,,,,,,,,,,,,,,,,140,001,2023_Nov_28_1141,SpeechDraft1Carolyn_lessNoise_PlusLocalization,2021.2.3,60.01782125041955,
,,,,,,,,nearRight,6.5,0,ch1Sound_localizationTask.wav,6.5,"(1047, 878)","(87, -202)",95,-338,,,,,,,,,2,2,16,4,,,,,,,,,,,,,,,,,,,,,,,,,,,,,,,,,,,,,,,,,,,,1633.739330790937,None,1634.839085558895,None,1635.7721988377161,None,1.5285714285714285,0.6836030771955848,1635.7721988377161,None,,,,,,,,,,,,,,,,,140,001,2023_Nov_28_1141,SpeechDraft1Carolyn_lessNoise_PlusLocalization,2021.2.3,60.01782125041955,
,,,,,,,,farLeft,-19.1,5,ch1Sound_localizationTask.wav,-19.1,"(667, 878)","(-293,-202)",-285,-338,,,,,,,,,2,3,17,0,,,,,,,,,,,,,,,,,,,,,,,,,,,,,,,,,,,,,,,,,,,,1636.4725664127618,None,1637.573405758012,None,1638.5057200677693,None,1.17989417989418,0.8993622800335288,1638.5057200677693,None,,,,,,,,,,,,,,,,,140,001,2023_Nov_28_1141,SpeechDraft1Carolyn_lessNoise_PlusLocalization,2021.2.3,60.01782125041955,
,,,,,,,,midLeft,-13.0,2,ch1Sound_localizationTask.wav,-13.0,"(762, 878)","(-198,-202)",-190,-338,,,,,,,,,2,4,18,1,,,,,,,,,,,,,,,,,,,,,,,,,,,,,,,,,,,,,,,,,,,,1639.4070867169648,None,1640.5222895750776,None,1641.4393385378644,None,1.2994708994708994,0.7823203443549573,1641.4393385378644,None,,,,,,,,,,,,,,,,,140,001,2023_Nov_28_1141,SpeechDraft1Carolyn_lessNoise_PlusLocalization,2021.2.3,60.01782125041955,
,,,,,,,,nearRight,6.5,0,ch1Sound_localizationTask.wav,6.5,"(1047, 878)","(87, -202)",95,-338,,,,,,,,,2,5,19,4,,,,,,,,,,,,,,,,,,,,,,,,,,,,,,,,,,,,,,,,,,,,1642.2227039188147,None,1643.3222717237659,None,1644.2558405557647,None,1.5296296296296297,0.9826905727386475,1644.2558405557647,None,,,,,,,,,,,,,,,,,140,001,2023_Nov_28_1141,SpeechDraft1Carolyn_lessNoise_PlusLocalization,2021.2.3,60.01782125041955,
,,,,,,,,farRight,19.1,4,ch1Sound_localizationTask.wav,19.1,"(1237, 878)","(277,-202)",285,-338,,,,,,,,,2,6,20,6,,,,,,,,,,,,,,,,,,,,,,,,,,,,,,,,,,,,,,,,,,,,1645.2391939386725,None,1646.3389140637591,None,1647.2723853397183,None,1.7137566137566138,0.5992683260701597,1647.2723853397183,None,,,,,,,,,,,,,,,,,140,001,2023_Nov_28_1141,SpeechDraft1Carolyn_lessNoise_PlusLocalization,2021.2.3,60.01782125041955,
,,,,,,,,midLeft,-13.0,2,ch1Sound_localizationTask.wav,-13.0,"(762, 878)","(-198,-202)",-190,-338,,,,,,,,,3,0,21,1,,,,,,,,,,,,,,,,,,,,,,,,,,,,,,,,,,,,,,,,,,,,1647.8727576648816,None,1648.9724236060865,None,1649.905664823018,None,1.2772486772486773,0.9650723915547132,1649.905664823018,None,,,,,,,,,,,,,,,,,140,001,2023_Nov_28_1141,SpeechDraft1Carolyn_lessNoise_PlusLocalization,2021.2.3,60.01782125041955,
,,,,,,,,farRight,19.1,4,ch1Sound_localizationTask.wav,19.1,"(1237, 878)","(277,-202)",285,-338,,,,,,,,,3,1,22,6,,,,,,,,,,,,,,,,,,,,,,,,,,,,,,,,,,,,,,,,,,,,1650.8726941128261,None,1651.9722525468096,None,1652.9056574949063,None,1.6793650793650794,0.8820795794017613,1652.9056574949063,None,,,,,,,,,,,,,,,,,140,001,2023_Nov_28_1141,SpeechDraft1Carolyn_lessNoise_PlusLocalization,2021.2.3,60.01782125041955,
,,,,,,,,farRight,19.1,4,ch1Sound_localizationTask.wav,19.1,"(1237, 878)","(277,-202)",285,-338,,,,,,,,,3,2,23,6,,,,,,,,,,,,,,,,,,,,,,,,,,,,,,,,,,,,,,,,,,,,1653.7891833148897,None,1654.8894229917787,None,1655.8224705127068,None,1.7026455026455025,0.532640852034092,1655.8224705127068,None,,,,,,,,,,,,,,,,,140,001,2023_Nov_28_1141,SpeechDraft1Carolyn_lessNoise_PlusLocalization,2021.2.3,60.01782125041955,
,,,,,,,,nearLeft,-6.5,1,ch1Sound_localizationTask.wav,-6.5,"(857, 878)","(-103,-202)",-95,-338,,,,,,,,,3,3,24,2,,,,,,,,,,,,,,,,,,,,,,,,,,,,,,,,,,,,,,,,,,,,1656.3561848769896,None,1657.455873169005,None,1658.389038965106,None,1.3328042328042329,0.7152748070657253,1658.389038965106,None,,,,,,,,,,,,,,,,,140,001,2023_Nov_28_1141,SpeechDraft1Carolyn_lessNoise_PlusLocalization,2021.2.3,60.01782125041955,
,,,,,,,,center,0.0,6,ch1Sound_localizationTask.wav,0.0,"(952, 878)","(-8,-202)",0,-338,,,,,,,,,3,4,25,3,,,,,,,,,,,,,,,,,,,,,,,,,,,,,,,,,,,,,,,,,,,,1659.105933102779,None,1660.2055685780942,None,1661.1390702598728,None,1.4116402116402116,0.5817346759140491,1661.1390702598728,None,,,,,,,,,,,,,,,,,140,001,2023_Nov_28_1141,SpeechDraft1Carolyn_lessNoise_PlusLocalization,2021.2.3,60.01782125041955,
,,,,,,,,center,0.0,6,ch1Sound_localizationTask.wav,0.0,"(952, 878)","(-8,-202)",0,-338,,,,,,,,,3,5,26,3,,,,,,,,,,,,,,,,,,,,,,,,,,,,,,,,,,,,,,,,,,,,1661.7226742808707,None,1662.8224298148416,None,1663.7557321698405,None,1.416931216931217,0.8000684222206473,1663.7557321698405,None,,,,,,,,,,,,,,,,,140,001,2023_Nov_28_1141,SpeechDraft1Carolyn_lessNoise_PlusLocalization,2021.2.3,60.01782125041955,
,,,,,,,,nearRight,6.5,0,ch1Sound_localizationTask.wav,6.5,"(1047, 878)","(87, -202)",95,-338,,,,,,,,,3,6,27,4,,,,,,,,,,,,,,,,,,,,,,,,,,,,,,,,,,,,,,,,,,,,1664.5558128659613,None,1665.65603222372,None,1666.5889899977483,None,1.4978835978835978,0.7492757900618017,1666.5889899977483,None,,,,,,,,,,,,,,,,,140,001,2023_Nov_28_1141,SpeechDraft1Carolyn_lessNoise_PlusLocalization,2021.2.3,60.01782125041955,
,,,,,,,,midRight,13.0,3,ch1Sound_localizationTask.wav,13.0,"(1142, 878)","(182, -202)",190,-338,,,,,,,,,4,0,28,5,,,,,,,,,,,,,,,,,,,,,,,,,,,,,,,,,,,,,,,,,,,,1667.339161070995,None,1668.4390804329887,None,1669.372331961058,None,1.5751322751322752,0.5153028978966177,1669.372331961058,None,,,,,,,,,,,,,,,,,140,001,2023_Nov_28_1141,SpeechDraft1Carolyn_lessNoise_PlusLocalization,2021.2.3,60.01782125041955,
,,,,,,,,center,0.0,6,ch1Sound_localizationTask.wav,0.0,"(952, 878)","(-8,-202)",0,-338,,,,,,,,,4,1,29,3,,,,,,,,,,,,,,,,,,,,,,,,,,,,,,,,,,,,,,,,,,,,1669.8894577808678,None,1670.9892977396958,None,1671.9225012660027,None,1.4375661375661375,0.7331462008878589,1671.9225012660027,None,,,,,,,,,,,,,,,,,140,001,2023_Nov_28_1141,SpeechDraft1Carolyn_lessNoise_PlusLocalization,2021.2.3,60.01782125041955,
,,,,,,,,center,0.0,6,ch1Sound_localizationTask.wav,0.0,"(952, 878)","(-8,-202)",0,-338,,,,,,,,,4,2,30,3,,,,,,,,,,,,,,,,,,,,,,,,,,,,,,,,,,,,,,,,,,,,1672.655866113957,None,1673.7556021320634,None,1674.68899685191,None,1.416931216931217,0.882905085105449,1674.68899685191,None,,,,,,,,,,,,,,,,,140,001,2023_Nov_28_1141,SpeechDraft1Carolyn_lessNoise_PlusLocalization,2021.2.3,60.01782125041955,
,,,,,,,,farLeft,-19.1,5,ch1Sound_localizationTask.wav,-19.1,"(667, 878)","(-293,-202)",-285,-338,,,,,,,,,4,3,31,0,,,,,,,,,,,,,,,,,,,,,,,,,,,,,,,,,,,,,,,,,,,,1675.5727668777108,None,1676.6727212998085,None,1677.6057979697362,None,1.353968253968254,0.7327379230409861,1677.6057979697362,None,,,,,,,,,,,,,,,,,140,001,2023_Nov_28_1141,SpeechDraft1Carolyn_lessNoise_PlusLocalization,2021.2.3,60.01782125041955,
,,,,,,,,midRight,13.0,3,ch1Sound_localizationTask.wav,13.0,"(1142, 878)","(182, -202)",190,-338,,,,,,,,,4,4,32,5,,,,,,,,,,,,,,,,,,,,,,,,,,,,,,,,,,,,,,,,,,,,1678.339159492869,None,1679.4390202779323,None,1680.3723629987799,None,1.5703703703703704,0.6990011120215058,1680.3723629987799,None,,,,,,,,,,,,,,,,,140,001,2023_Nov_28_1141,SpeechDraft1Carolyn_lessNoise_PlusLocalization,2021.2.3,60.01782125041955,
,,,,,,,,nearLeft,-6.5,1,ch1Sound_localizationTask.wav,-6.5,"(857, 878)","(-103,-202)",-95,-338,,,,,,,,,4,5,33,2,,,,,,,,,,,,,,,,,,,,,,,,,,,,,,,,,,,,,,,,,,,,1681.0727327149361,None,1682.172478267923,None,1683.1057728668675,None,1.3195767195767196,0.6333630518056452,1683.1057728668675,None,,,,,,,,,,,,,,,,,140,001,2023_Nov_28_1141,SpeechDraft1Carolyn_lessNoise_PlusLocalization,2021.2.3,60.01782125041955,
,,,,,,,,farLeft,-19.1,5,ch1Sound_localizationTask.wav,-19.1,"(667, 878)","(-293,-202)",-285,-338,,,,,,,,,4,6,34,0,,,,,,,,,,,,,,,,,,,,,,,,,,,,,,,,,,,,,,,,,,,,1683.755807961803,None,1684.855630098842,None,1685.7890751450323,None,1.2174603174603176,0.6494059283286333,1685.7890751450323,None,,,,,,,,,,,,,,,,,140,001,2023_Nov_28_1141,SpeechDraft1Carolyn_lessNoise_PlusLocalization,2021.2.3,60.01782125041955,
,,,,,,,,midRight,13.0,3,ch1Sound_localizationTask.wav,13.0,"(1142, 878)","(182, -202)",190,-338,,,,,,,,,5,0,35,5,,,,,,,,,,,,,,,,,,,,,,,,,,,,,,,,,,,,,,,,,,,,1686.4393896749243,None,1687.5391424098052,None,1688.4724010280333,None,1.5412698412698411,0.6324725630693138,1688.4724010280333,None,,,,,,,,,,,,,,,,,140,001,2023_Nov_28_1141,SpeechDraft1Carolyn_lessNoise_PlusLocalization,2021.2.3,60.01782125041955,
,,,,,,,,midLeft,-13.0,2,ch1Sound_localizationTask.wav,-13.0,"(762, 878)","(-198,-202)",-190,-338,,,,,,,,,5,1,36,1,,,,,,,,,,,,,,,,,,,,,,,,,,,,,,,,,,,,,,,,,,,,1689.1059375996701,None,1690.2056722128764,None,1691.1391243818216,None,1.3164021164021165,0.9653549492359161,1691.1391243818216,None,,,,,,,,,,,,,,,,,140,001,2023_Nov_28_1141,SpeechDraft1Carolyn_lessNoise_PlusLocalization,2021.2.3,60.01782125041955,
,,,,,,,,farLeft,-19.1,5,ch1Sound_localizationTask.wav,-19.1,"(667, 878)","(-293,-202)",-285,-338,,,,,,,,,5,2,37,0,,,,,,,,,,,,,,,,,,,,,,,,,,,,,,,,,,,,,,,,,,,,1692.1059102998115,None,1693.2056760997511,None,1694.1391428108327,None,1.2703703703703704,0.5656309421174228,1694.1391428108327,None,,,,,,,,,,,,,,,,,140,001,2023_Nov_28_1141,SpeechDraft1Carolyn_lessNoise_PlusLocalization,2021.2.3,60.01782125041955,
,,,,,,,,nearRight,6.5,0,ch1Sound_localizationTask.wav,6.5,"(1047, 878)","(87, -202)",95,-338,,,,,,,,,5,3,38,4,,,,,,,,,,,,,,,,,,,,,,,,,,,,,,,,,,,,,,,,,,,,1694.7059523058124,None,1695.8059121868573,None,1696.7389410580508,None,1.4804232804232804,0.7159352330490947,1696.7389410580508,None,,,,,,,,,,,,,,,,,140,001,2023_Nov_28_1141,SpeechDraft1Carolyn_lessNoise_PlusLocalization,2021.2.3,60.01782125041955,
,,,,,,,,midRight,13.0,3,ch1Sound_localizationTask.wav,13.0,"(1142, 878)","(182, -202)",190,-338,,,,,,,,,5,4,39,5,,,,,,,,,,,,,,,,,,,,,,,,,,,,,,,,,,,,,,,,,,,,1697.45614501182,None,1698.5558272860944,None,1699.48895883793,None,1.5746031746031746,0.6822707829996943,1699.48895883793,None,,,,,,,,,,,,,,,,,140,001,2023_Nov_28_1141,SpeechDraft1Carolyn_lessNoise_PlusLocalization,2021.2.3,60.01782125041955,
,,,,,,,,nearLeft,-6.5,1,ch1Sound_localizationTask.wav,-6.5,"(857, 878)","(-103,-202)",-95,-338,,,,,,,,,5,5,40,2,,,,,,,,,,,,,,,,,,,,,,,,,,,,,,,,,,,,,,,,,,,,1700.172662501689,None,1701.2727846959606,None,1702.2057805540971,None,1.3804232804232806,0.7002299260348082,1702.2057805540971,None,,,,,,,,,,,,,,,,,140,001,2023_Nov_28_1141,SpeechDraft1Carolyn_lessNoise_PlusLocalization,2021.2.3,60.01782125041955,
,,,,,,,,farLeft,-19.1,5,ch1Sound_localizationTask.wav,-19.1,"(667, 878)","(-293,-202)",-285,-338,,,,,,,,,5,6,41,0,,,,,,,,,,,,,,,,,,,,,,,,,,,,,,,,,,,,,,,,,,,,1702.9226131550968,None,1704.0225659878924,None,1704.9557650159113,None,1.2492063492063492,0.6827897387556732,1704.9557650159113,None,,,,,,,,,,,,,,,,,140,001,2023_Nov_28_1141,SpeechDraft1Carolyn_lessNoise_PlusLocalization,2021.2.3,60.01782125041955,
,,,,,,,,midRight,13.0,3,ch1Sound_localizationTask.wav,13.0,"(1142, 878)","(182, -202)",190,-338,,,,,,,,,6,0,42,5,,,,,,,,,,,,,,,,,,,,,,,,,,,,,,,,,,,,,,,,,,,,1705.639298656024,None,1706.7390801128931,None,1707.6723442310467,None,1.553968253968254,0.8335723648779094,1707.6723442310467,None,,,,,,,,,,,,,,,,,140,001,2023_Nov_28_1141,SpeechDraft1Carolyn_lessNoise_PlusLocalization,2021.2.3,60.01782125041955,
,,,,,,,,midLeft,-13.0,2,ch1Sound_localizationTask.wav,-13.0,"(762, 878)","(-198,-202)",-190,-338,,,,,,,,,6,1,43,1,,,,,,,,,,,,,,,,,,,,,,,,,,,,,,,,,,,,,,,,,,,,1708.506376533769,None,1709.6056864811108,None,1710.5390256200917,None,1.3380952380952382,0.749709480907768,1710.5390256200917,None,,,,,,,,,,,,,,,,,140,001,2023_Nov_28_1141,SpeechDraft1Carolyn_lessNoise_PlusLocalization,2021.2.3,60.01782125041955,
,,,,,,,,midRight,13.0,3,ch1Sound_localizationTask.wav,13.0,"(1142, 878)","(182, -202)",190,-338,,,,,,,,,6,2,44,5,,,,,,,,,,,,,,,,,,,,,,,,,,,,,,,,,,,,,,,,,,,,1711.2894564089365,None,1712.3892605388537,None,1713.322451043874,None,1.5735449735449736,0.7501654792577028,1713.322451043874,None,,,,,,,,,,,,,,,,,140,001,2023_Nov_28_1141,SpeechDraft1Carolyn_lessNoise_PlusLocalization,2021.2.3,60.01782125041955,
,,,,,,,,center,0.0,6,ch1Sound_localizationTask.wav,0.0,"(952, 878)","(-8,-202)",0,-338,,,,,,,,,6,3,45,3,,,,,,,,,,,,,,,,,,,,,,,,,,,,,,,,,,,,,,,,,,,,1714.0727436188608,None,1715.1723446669057,None,1716.1057473798282,None,1.32010582010582,0.6832915968261659,1716.1057473798282,None,,,,,,,,,,,,,,,,,140,001,2023_Nov_28_1141,SpeechDraft1Carolyn_lessNoise_PlusLocalization,2021.2.3,60.01782125041955,
,,,,,,,,farLeft,-19.1,5,ch1Sound_localizationTask.wav,-19.1,"(667, 878)","(-293,-202)",-285,-338,,,,,,,,,6,4,46,0,,,,,,,,,,,,,,,,,,,,,,,,,,,,,,,,,,,,,,,,,,,,1716.7894931077026,None,1717.8892651447095,None,1718.822600808926,None,1.2804232804232805,0.8670782120898366,1718.822600808926,None,,,,,,,,,,,,,,,,,140,001,2023_Nov_28_1141,SpeechDraft1Carolyn_lessNoise_PlusLocalization,2021.2.3,60.01782125041955,
,,,,,,,,midRight,13.0,3,ch1Sound_localizationTask.wav,13.0,"(1142, 878)","(182, -202)",190,-338,,,,,,,,,6,5,47,5,,,,,,,,,,,,,,,,,,,,,,,,,,,,,,,,,,,,,,,,,,,,1719.6893675788306,None,1720.7889391868375,None,1721.7224439498968,None,1.5407407407407407,0.8321136580780149,1721.7224439498968,None,,,,,,,,,,,,,,,,,140,001,2023_Nov_28_1141,SpeechDraft1Carolyn_lessNoise_PlusLocalization,2021.2.3,60.01782125041955,
,,,,,,,,nearRight,6.5,0,ch1Sound_localizationTask.wav,6.5,"(1047, 878)","(87, -202)",95,-338,,,,,,,,,6,6,48,4,,,,,,,,,,,,,,,,,,,,,,,,,,,,,,,,,,,,,,,,,,,,1722.5560594010167,None,1723.6558471256867,None,1724.5892118071206,None,1.403174603174603,0.7665634183213115,1724.5892118071206,None,,,,,,,,,,,,,,,,,140,001,2023_Nov_28_1141,SpeechDraft1Carolyn_lessNoise_PlusLocalization,2021.2.3,60.01782125041955,
,,,,,,,,farRight,19.1,4,ch1Sound_localizationTask.wav,19.1,"(1237, 878)","(277,-202)",285,-338,,,,,,,,,7,0,49,6,,,,,,,,,,,,,,,,,,,,,,,,,,,,,,,,,,,,,,,,,,,,1725.3561117667705,None,1726.4556397078559,None,1727.3890988687053,None,1.643915343915344,0.5326423048973083,1727.3890988687053,None,,,,,,,,,,,,,,,,,140,001,2023_Nov_28_1141,SpeechDraft1Carolyn_lessNoise_PlusLocalization,2021.2.3,60.01782125041955,
,,,,,,,,nearLeft,-6.5,1,ch1Sound_localizationTask.wav,-6.5,"(857, 878)","(-103,-202)",-95,-338,,,,,,,,,7,1,50,2,,,,,,,,,,,,,,,,,,,,,,,,,,,,,,,,,,,,,,,,,,,,1727.9227016940713,None,1729.0227687279694,None,1729.955880838912,None,1.3597883597883598,0.7658071890473366,1729.955880838912,None,,,,,,,,,,,,,,,,,140,001,2023_Nov_28_1141,SpeechDraft1Carolyn_lessNoise_PlusLocalization,2021.2.3,60.01782125041955,
,,,,,,,,nearLeft,-6.5,1,ch1Sound_localizationTask.wav,-6.5,"(857, 878)","(-103,-202)",-95,-338,,,,,,,,,7,2,51,2,,,,,,,,,,,,,,,,,,,,,,,,,,,,,,,,,,,,,,,,,,,,1730.7225021827035,None,1731.8224511598237,None,1732.7557407058775,None,1.356084656084656,0.6662255092523992,1732.7557407058775,None,,,,,,,,,,,,,,,,,140,001,2023_Nov_28_1141,SpeechDraft1Carolyn_lessNoise_PlusLocalization,2021.2.3,60.01782125041955,
,,,,,,,,center,0.0,6,ch1Sound_localizationTask.wav,0.0,"(952, 878)","(-8,-202)",0,-338,,,,,,,,,7,3,52,3,,,,,,,,,,,,,,,,,,,,,,,,,,,,,,,,,,,,,,,,,,,,1733.4228253527544,None,1734.5223190397955,None,1735.455711625982,None,1.3555555555555556,0.9004633808508515,1735.455711625982,None,,,,,,,,,,,,,,,,,140,001,2023_Nov_28_1141,SpeechDraft1Carolyn_lessNoise_PlusLocalization,2021.2.3,60.01782125041955,
,,,,,,,,nearLeft,-6.5,1,ch1Sound_localizationTask.wav,-6.5,"(857, 878)","(-103,-202)",-95,-338,,,,,,,,,7,4,53,2,,,,,,,,,,,,,,,,,,,,,,,,,,,,,,,,,,,,,,,,,,,,1736.3727075257339,None,1737.4723852667958,None,1738.4059855886735,None,1.3137566137566137,0.9165557199157774,1738.4059855886735,None,,,,,,,,,,,,,,,,,140,001,2023_Nov_28_1141,SpeechDraft1Carolyn_lessNoise_PlusLocalization,2021.2.3,60.01782125041955,
,,,,,,,,midLeft,-13.0,2,ch1Sound_localizationTask.wav,-13.0,"(762, 878)","(-198,-202)",-190,-338,,,,,,,,,7,5,54,1,,,,,,,,,,,,,,,,,,,,,,,,,,,,,,,,,,,,,,,,,,,,1739.3231132021174,None,1740.4224945050664,None,1741.3556643719785,None,1.2248677248677249,0.08382171811535954,1741.3556643719785,None,,,,,,,,,,,,,,,,,140,001,2023_Nov_28_1141,SpeechDraft1Carolyn_lessNoise_PlusLocalization,2021.2.3,60.01782125041955,
,,,,,,,,nearLeft,-6.5,1,ch1Sound_localizationTask.wav,-6.5,"(857, 878)","(-103,-202)",-95,-338,,,,,,,,,7,6,55,2,,,,,,,,,,,,,,,,,,,,,,,,,,,,,,,,,,,,,,,,,,,,1741.4563763188198,None,1742.5558012761176,None,1743.4889674778096,None,1.1671957671957673,0.81489102775231,1743.4889674778096,None,,,,,,,,,,,,,,,,,140,001,2023_Nov_28_1141,SpeechDraft1Carolyn_lessNoise_PlusLocalization,2021.2.3,60.01782125041955,
,,,,,,,,,,,,,,,,,,,,,,,,,,,,,,,,,,,,,,,,,,,,,,,,,,,,,,,,,,,,,,,,,,,,,,,,,,,,,,,,,,space,13.958433217834681,1744.3894611699507,None,,,,,,,,,,,,,140,001,2023_Nov_28_1141,SpeechDraft1Carolyn_lessNoise_PlusLocalization,2021.2.3,60.01782125041955,
,,,,,,,,center,0.0,6,ch1Sound_localizationTask.wav,0.0,"(952, 878)","(-8,-202)",0,-338,,,,,,,,,,,,,0,0,0,3,,,,,,,,,,,,,,,,,,,,,,,,,,,,,,,,,,,,,,,,1758.3892518300563,None,,,1761.407516285777,None,1.5010582010582012,2.8874815818853676,1761.407516285777,None,,,,,1744.3894611699507,None,1759.389367710799,None,1759.5728171700612,1759.589552786667,,,,,,,140,001,2023_Nov_28_1141,SpeechDraft1Carolyn_lessNoise_PlusLocalization,2021.2.3,60.01782125041955,
,,,,,,,,farRight,19.1,4,ch1Sound_localizationTask.wav,19.1,"(1237, 878)","(277,-202)",285,-338,,,,,,,,,,,,,0,1,1,6,,,,,,,,,,,,,,,,,,,,,,,,,,,,,,,,,,,,,,,,1764.3062417837791,None,,,1767.3223907956854,None,1.6481481481481481,1.2497737347148359,1767.3223907956854,None,,,,,,,1765.3062290977687,None,1765.489607763011,1765.5060003637336,,,,,,,140,001,2023_Nov_28_1141,SpeechDraft1Carolyn_lessNoise_PlusLocalization,2021.2.3,60.01782125041955,
,,,,,,,,farRight,19.1,4,ch1Sound_localizationTask.wav,19.1,"(1237, 878)","(277,-202)",285,-338,,,,,,,,,,,,,0,2,2,6,,,,,,,,,,,,,,,,,,,,,,,,,,,,,,,,,,,,,,,,1768.573502422776,None,,,1771.5893108639866,None,1.6455026455026456,1.2162287668325007,1771.5893108639866,None,,,,,,,1769.5731181306764,None,1769.7559611378238,1769.7729451539926,,,,,,,140,001,2023_Nov_28_1141,SpeechDraft1Carolyn_lessNoise_PlusLocalization,2021.2.3,60.01782125041955,
,,,,,,,,farLeft,-19.1,5,ch1Sound_localizationTask.wav,-19.1,"(667, 878)","(-293,-202)",-285,-338,,,,,,,,,,,,,0,3,3,0,,,,,,,,,,,,,,,,,,,,,,,,,,,,,,,,,,,,,,,,1772.8059523468837,None,,,1775.8227387056686,None,1.3555555555555556,0.9158834237605333,1775.8227387056686,None,,,,,,,1773.8060381989926,None,1773.9894177848473,1774.0060000726953,,,,,,,140,001,2023_Nov_28_1141,SpeechDraft1Carolyn_lessNoise_PlusLocalization,2021.2.3,60.01782125041955,
,,,,,,,,farRight,19.1,4,ch1Sound_localizationTask.wav,19.1,"(1237, 878)","(277,-202)",285,-338,,,,,,,,,,,,,0,4,4,6,,,,,,,,,,,,,,,,,,,,,,,,,,,,,,,,,,,,,,,,1776.73968019709,None,,,1779.7558783558197,None,1.637037037037037,1.0489355861209333,1779.7558783558197,None,,,,,,,1777.7394093167968,None,1777.9229571036994,1777.939442313742,,,,,,,140,001,2023_Nov_28_1141,SpeechDraft1Carolyn_lessNoise_PlusLocalization,2021.2.3,60.01782125041955,
,,,,,,,,midLeft,-13.0,2,ch1Sound_localizationTask.wav,-13.0,"(762, 878)","(-198,-202)",-190,-338,,,,,,,,,,,,,0,5,5,1,,,,,,,,,,,,,,,,,,,,,,,,,,,,,,,,,,,,,,,,1780.8062016209587,None,,,1783.8226747019216,None,1.4227513227513229,0.7159813628531992,1783.8226747019216,None,,,,,,,1781.805985910818,None,1781.98937882483,1782.0059537100606,,,,,,,140,001,2023_Nov_28_1141,SpeechDraft1Carolyn_lessNoise_PlusLocalization,2021.2.3,60.01782125041955,
,,,,,,,,nearLeft,-6.5,1,ch1Sound_localizationTask.wav,-6.5,"(857, 878)","(-103,-202)",-95,-338,,,,,,,,,,,,,0,6,6,2,,,,,,,,,,,,,,,,,,,,,,,,,,,,,,,,,,,,,,,,1784.5396776250564,None,,,1787.5559385106899,None,1.464021164021164,1.0828340663574636,1787.5559385106899,None,,,,,,,1785.5396451228298,None,1785.7227624459192,1785.7393644577824,,,,,,,140,001,2023_Nov_28_1141,SpeechDraft1Carolyn_lessNoise_PlusLocalization,2021.2.3,60.01782125041955,
,,,,,,,,midRight,13.0,3,ch1Sound_localizationTask.wav,13.0,"(1142, 878)","(182, -202)",190,-338,,,,,,,,,,,,,1,0,7,5,,,,,,,,,,,,,,,,,,,,,,,,,,,,,,,,,,,,,,,,1788.6560216466896,None,,,1791.6724398708902,None,1.566137566137566,1.3663429119624197,1791.6724398708902,None,,,,,,,1789.6560918358155,None,1789.8395394231193,1789.8560105268843,,,,,,,140,001,2023_Nov_28_1141,SpeechDraft1Carolyn_lessNoise_PlusLocalization,2021.2.3,60.01782125041955,
,,,,,,,,farRight,19.1,4,ch1Sound_localizationTask.wav,19.1,"(1237, 878)","(277,-202)",285,-338,,,,,,,,,,,,,1,1,8,6,,,,,,,,,,,,,,,,,,,,,,,,,,,,,,,,,,,,,,,,1793.0393788306974,None,,,1796.0561431860551,None,1.6465608465608466,0.8985647279769182,1796.0561431860551,None,,,,,,,1794.0393684878945,None,1794.222876605112,1794.2393159577623,,,,,,,140,001,2023_Nov_28_1141,SpeechDraft1Carolyn_lessNoise_PlusLocalization,2021.2.3,60.01782125041955,
,,,,,,,,farLeft,-19.1,5,ch1Sound_localizationTask.wav,-19.1,"(667, 878)","(-293,-202)",-285,-338,,,,,,,,,,,,,1,2,9,0,,,,,,,,,,,,,,,,,,,,,,,,,,,,,,,,,,,,,,,,1796.9563186867163,None,,,1799.9725678027608,None,1.3328042328042329,0.9833555002696812,1799.9725678027608,None,,,,,,,1797.956400106661,None,1798.1393902227283,1798.1560140047222,,,,,,,140,001,2023_Nov_28_1141,SpeechDraft1Carolyn_lessNoise_PlusLocalization,2021.2.3,60.01782125041955,
,,,,,,,,farLeft,-19.1,5,ch1Sound_localizationTask.wav,-19.1,"(667, 878)","(-293,-202)",-285,-338,,,,,,,,,,,,,1,3,10,0,,,,,,,,,,,,,,,,,,,,,,,,,,,,,,,,,,,,,,,,1800.9565776367672,None,,,1803.9725222699344,None,1.3587301587301588,1.2162664378993213,1803.9725222699344,None,,,,,,,1801.9560890076682,None,1802.1395004387014,1802.156073241029,,,,,,,140,001,2023_Nov_28_1141,SpeechDraft1Carolyn_lessNoise_PlusLocalization,2021.2.3,60.01782125041955,
,,,,,,,,center,0.0,6,ch1Sound_localizationTask.wav,0.0,"(952, 878)","(-8,-202)",0,-338,,,,,,,,,,,,,1,4,11,3,,,,,,,,,,,,,,,,,,,,,,,,,,,,,,,,,,,,,,,,1805.1896572038531,None,,,1808.2061320580542,None,1.464021164021164,2.982298718765378,1808.2061320580542,None,,,,,,,1806.1893434827216,None,1806.3728215890005,1806.3895352897234,,,,,,,140,001,2023_Nov_28_1141,SpeechDraft1Carolyn_lessNoise_PlusLocalization,2021.2.3,60.01782125041955,
,,,,,,,,center,0.0,6,ch1Sound_localizationTask.wav,0.0,"(952, 878)","(-8,-202)",0,-338,,,,,,,,,,,,,1,5,12,3,,,,,,,,,,,,,,,,,,,,,,,,,,,,,,,,,,,,,,,,1811.1898973337375,None,,,1814.2059132577851,None,1.51005291005291,2.182848536875099,1814.2059132577851,None,,,,,,,1812.1895009139553,None,1812.3726655547507,1812.3894428727217,,,,,,,140,001,2023_Nov_28_1141,SpeechDraft1Carolyn_lessNoise_PlusLocalization,2021.2.3,60.01782125041955,
,,,,,,,,nearLeft,-6.5,1,ch1Sound_localizationTask.wav,-6.5,"(857, 878)","(-103,-202)",-95,-338,,,,,,,,,,,,,1,6,13,2,,,,,,,,,,,,,,,,,,,,,,,,,,,,,,,,,,,,,,,,1816.3895295099355,None,,,1819.4059441438876,None,1.4677248677248678,1.749480445869267,1819.4059441438876,None,,,,,,,1817.3895813608542,None,1817.5727776028216,1817.5894205938093,,,,,,,140,001,2023_Nov_28_1141,SpeechDraft1Carolyn_lessNoise_PlusLocalization,2021.2.3,60.01782125041955,
,,,,,,,,farLeft,-19.1,5,ch1Sound_localizationTask.wav,-19.1,"(667, 878)","(-293,-202)",-285,-338,,,,,,,,,,,,,2,0,14,0,,,,,,,,,,,,,,,,,,,,,,,,,,,,,,,,,,,,,,,,1821.1563933030702,None,,,1824.1724980697036,None,1.362962962962963,1.1330463271588087,1824.1724980697036,None,,,,,,,1822.1563506927341,None,1822.3393869018182,1822.3564233547077,,,,,,,140,001,2023_Nov_28_1141,SpeechDraft1Carolyn_lessNoise_PlusLocalization,2021.2.3,60.01782125041955,
,,,,,,,,center,0.0,6,ch1Sound_localizationTask.wav,0.0,"(952, 878)","(-8,-202)",0,-338,,,,,,,,,,,,,2,1,15,3,,,,,,,,,,,,,,,,,,,,,,,,,,,,,,,,,,,,,,,,1825.322964943014,None,,,1828.3393248966895,None,1.4984126984126984,1.2147063529118896,1828.3393248966895,None,,,,,,,1826.3230220410042,None,1826.506084867753,1826.5230108229443,,,,,,,140,001,2023_Nov_28_1141,SpeechDraft1Carolyn_lessNoise_PlusLocalization,2021.2.3,60.01782125041955,
,,,,,,,,midLeft,-13.0,2,ch1Sound_localizationTask.wav,-13.0,"(762, 878)","(-198,-202)",-190,-338,,,,,,,,,,,,,2,2,16,1,,,,,,,,,,,,,,,,,,,,,,,,,,,,,,,,,,,,,,,,1829.5562756001018,None,,,1832.5729024019092,None,1.5306878306878307,4.102443826850504,1832.5729024019092,None,,,,,,,1830.5560999456793,None,1830.739692194853,1830.7560669970699,,,,,,,140,001,2023_Nov_28_1141,SpeechDraft1Carolyn_lessNoise_PlusLocalization,2021.2.3,60.01782125041955,
,,,,,,,,nearLeft,-6.5,1,ch1Sound_localizationTask.wav,-6.5,"(857, 878)","(-103,-202)",-95,-338,,,,,,,,,,,,,2,3,17,2,,,,,,,,,,,,,,,,,,,,,,,,,,,,,,,,,,,,,,,,1836.6909388070926,None,,,1839.7225110707805,None,1.4544973544973545,0.781796797644347,1839.7225110707805,None,,,,,,,1837.7061799950898,None,1837.8894998999313,1837.9062035768293,,,,,,,140,001,2023_Nov_28_1141,SpeechDraft1Carolyn_lessNoise_PlusLocalization,2021.2.3,60.01782125041955,
,,,,,,,,nearLeft,-6.5,1,ch1Sound_localizationTask.wav,-6.5,"(857, 878)","(-103,-202)",-95,-338,,,,,,,,,,,,,2,4,18,2,,,,,,,,,,,,,,,,,,,,,,,,,,,,,,,,,,,,,,,,1840.5060594789684,None,,,1843.5227062129416,None,1.4814814814814814,1.4331333129666746,1843.5227062129416,None,,,,,,,1841.5064137778245,None,1841.6894373330288,1841.7061698948964,,,,,,,140,001,2023_Nov_28_1141,SpeechDraft1Carolyn_lessNoise_PlusLocalization,2021.2.3,60.01782125041955,
,,,,,,,,midRight,13.0,3,ch1Sound_localizationTask.wav,13.0,"(1142, 878)","(182, -202)",190,-338,,,,,,,,,,,,,2,5,19,5,,,,,,,,,,,,,,,,,,,,,,,,,,,,,,,,,,,,,,,,1844.9564634058625,None,,,1847.9726408780552,None,1.5920634920634922,0.9817536640912294,1847.9726408780552,None,,,,,,,1845.9561355616897,None,1846.1394458017312,1846.1561345080845,,,,,,,140,001,2023_Nov_28_1141,SpeechDraft1Carolyn_lessNoise_PlusLocalization,2021.2.3,60.01782125041955,
,,,,,,,,nearRight,6.5,0,ch1Sound_localizationTask.wav,6.5,"(1047, 878)","(87, -202)",95,-338,,,,,,,,,,,,,2,6,20,4,,,,,,,,,,,,,,,,,,,,,,,,,,,,,,,,,,,,,,,,1848.9561429400928,None,,,1851.9725353717804,None,1.5873015873015874,0.8327919193543494,1851.9725353717804,None,,,,,,,1849.9562068670057,None,1850.1395514658652,1850.1563852750696,,,,,,,140,001,2023_Nov_28_1141,SpeechDraft1Carolyn_lessNoise_PlusLocalization,2021.2.3,60.01782125041955,
,,,,,,,,farLeft,-19.1,5,ch1Sound_localizationTask.wav,-19.1,"(667, 878)","(-293,-202)",-285,-338,,,,,,,,,,,,,3,0,21,0,,,,,,,,,,,,,,,,,,,,,,,,,,,,,,,,,,,,,,,,1852.8062073290348,None,,,1855.8226473000832,None,1.348148148148148,1.1157870623283088,1855.8226473000832,None,,,,,,,1853.8063486889005,None,1853.9894200740382,1854.0061363088898,,,,,,,140,001,2023_Nov_28_1141,SpeechDraft1Carolyn_lessNoise_PlusLocalization,2021.2.3,60.01782125041955,
,,,,,,,,midRight,13.0,3,ch1Sound_localizationTask.wav,13.0,"(1142, 878)","(182, -202)",190,-338,,,,,,,,,,,,,3,1,22,5,,,,,,,,,,,,,,,,,,,,,,,,,,,,,,,,,,,,,,,,1856.9397186427377,None,,,1859.9559264788404,None,1.597883597883598,1.4326447593048215,1859.9559264788404,None,,,,,,,1857.9395316806622,None,1858.1228214376606,1858.139490401838,,,,,,,140,001,2023_Nov_28_1141,SpeechDraft1Carolyn_lessNoise_PlusLocalization,2021.2.3,60.01782125041955,
,,,,,,,,center,0.0,6,ch1Sound_localizationTask.wav,0.0,"(952, 878)","(-8,-202)",0,-338,,,,,,,,,,,,,3,2,23,3,,,,,,,,,,,,,,,,,,,,,,,,,,,,,,,,,,,,,,,,1861.3897993788123,None,,,1864.4061493808404,None,1.4883597883597883,0.7991992658935487,1864.4061493808404,None,,,,,,,1862.389519922901,None,1862.5729300570674,1862.5895279087126,,,,,,,140,001,2023_Nov_28_1141,SpeechDraft1Carolyn_lessNoise_PlusLocalization,2021.2.3,60.01782125041955,
,,,,,,,,midLeft,-13.0,2,ch1Sound_localizationTask.wav,-13.0,"(762, 878)","(-198,-202)",-190,-338,,,,,,,,,,,,,3,3,24,1,,,,,,,,,,,,,,,,,,,,,,,,,,,,,,,,,,,,,,,,1865.2065538177267,None,,,1868.2226005559787,None,1.4354497354497355,1.315144207328558,1868.2226005559787,None,,,,,,,1866.2062793080695,None,1866.3897489258088,1866.4062779727392,,,,,,,140,001,2023_Nov_28_1141,SpeechDraft1Carolyn_lessNoise_PlusLocalization,2021.2.3,60.01782125041955,
,,,,,,,,farLeft,-19.1,5,ch1Sound_localizationTask.wav,-19.1,"(667, 878)","(-293,-202)",-285,-338,,,,,,,,,,,,,3,4,25,0,,,,,,,,,,,,,,,,,,,,,,,,,,,,,,,,,,,,,,,,1869.5399240111,None,,,1872.555938324891,None,1.3708994708994708,0.8825025330297649,1872.555938324891,None,,,,,,,1870.539494507946,None,1870.723028622102,1870.7395210289396,,,,,,,140,001,2023_Nov_28_1141,SpeechDraft1Carolyn_lessNoise_PlusLocalization,2021.2.3,60.01782125041955,
,,,,,,,,center,0.0,6,ch1Sound_localizationTask.wav,0.0,"(952, 878)","(-8,-202)",0,-338,,,,,,,,,,,,,3,5,26,3,,,,,,,,,,,,,,,,,,,,,,,,,,,,,,,,,,,,,,,,1873.4395003220998,None,,,1876.4560394207947,None,1.5142857142857142,0.9998860280029476,1876.4560394207947,None,,,,,,,1874.4395588417538,None,1874.6227255570702,1874.6397004849277,,,,,,,140,001,2023_Nov_28_1141,SpeechDraft1Carolyn_lessNoise_PlusLocalization,2021.2.3,60.01782125041955,
,,,,,,,,midRight,13.0,3,ch1Sound_localizationTask.wav,13.0,"(1142, 878)","(182, -202)",190,-338,,,,,,,,,,,,,3,6,27,5,,,,,,,,,,,,,,,,,,,,,,,,,,,,,,,,,,,,,,,,1877.4563485048711,None,,,1880.4725712817162,None,1.6026455026455027,1.082407715730369,1880.4725712817162,None,,,,,,,1878.4564321259968,None,1878.6395500879735,1878.6563545269892,,,,,,,140,001,2023_Nov_28_1141,SpeechDraft1Carolyn_lessNoise_PlusLocalization,2021.2.3,60.01782125041955,
,,,,,,,,midRight,13.0,3,ch1Sound_localizationTask.wav,13.0,"(1142, 878)","(182, -202)",190,-338,,,,,,,,,,,,,4,0,28,5,,,,,,,,,,,,,,,,,,,,,,,,,,,,,,,,,,,,,,,,1881.5564919440076,None,,,1884.5728867640719,None,1.5962962962962963,0.6989830322563648,1884.5728867640719,None,,,,,,,1882.5563523317687,None,1882.739791363012,1882.7560984217562,,,,,,,140,001,2023_Nov_28_1141,SpeechDraft1Carolyn_lessNoise_PlusLocalization,2021.2.3,60.01782125041955,
,,,,,,,,farRight,19.1,4,ch1Sound_localizationTask.wav,19.1,"(1237, 878)","(277,-202)",285,-338,,,,,,,,,,,,,4,1,29,6,,,,,,,,,,,,,,,,,,,,,,,,,,,,,,,,,,,,,,,,1885.2728258250281,None,,,1888.2895381939597,None,1.4904761904761905,3.9329838841222227,1888.2895381939597,None,,,,,,,1886.2728453278542,None,1886.4562137410976,1886.4730207799003,,,,,,,140,001,2023_Nov_28_1141,SpeechDraft1Carolyn_lessNoise_PlusLocalization,2021.2.3,60.01782125041955,
,,,,,,,,nearRight,6.5,0,ch1Sound_localizationTask.wav,6.5,"(1047, 878)","(87, -202)",95,-338,,,,,,,,,,,,,4,2,30,4,,,,,,,,,,,,,,,,,,,,,,,,,,,,,,,,,,,,,,,,1892.223843054846,None,,,1895.239652223885,None,1.5476190476190477,0.6985701322555542,1895.239652223885,None,,,,,,,1893.2228274890222,None,1893.4064656118862,1893.423064735718,,,,,,,140,001,2023_Nov_28_1141,SpeechDraft1Carolyn_lessNoise_PlusLocalization,2021.2.3,60.01782125041955,
,,,,,,,,farRight,19.1,4,ch1Sound_localizationTask.wav,19.1,"(1237, 878)","(277,-202)",285,-338,,,,,,,,,,,,,4,3,31,6,,,,,,,,,,,,,,,,,,,,,,,,,,,,,,,,,,,,,,,,1895.939680535812,None,,,1898.9558356208727,None,1.6597883597883598,0.8496609590947628,1898.9558356208727,None,,,,,,,1896.9396071969531,None,1897.1229532337748,1897.1397507889196,,,,,,,140,001,2023_Nov_28_1141,SpeechDraft1Carolyn_lessNoise_PlusLocalization,2021.2.3,60.01782125041955,
,,,,,,,,midLeft,-13.0,2,ch1Sound_localizationTask.wav,-13.0,"(762, 878)","(-198,-202)",-190,-338,,,,,,,,,,,,,4,4,32,1,,,,,,,,,,,,,,,,,,,,,,,,,,,,,,,,,,,,,,,,1899.8062044167891,None,,,1902.8227516519837,None,1.384126984126984,0.9663657899945974,1902.8227516519837,None,,,,,,,1900.806408018805,None,1900.9896516650915,1901.0064829089679,,,,,,,140,001,2023_Nov_28_1141,SpeechDraft1Carolyn_lessNoise_PlusLocalization,2021.2.3,60.01782125041955,
,,,,,,,,midLeft,-13.0,2,ch1Sound_localizationTask.wav,-13.0,"(762, 878)","(-198,-202)",-190,-338,,,,,,,,,,,,,4,5,33,1,,,,,,,,,,,,,,,,,,,,,,,,,,,,,,,,,,,,,,,,1903.7896980820224,None,,,1906.8060849769972,None,1.398941798941799,0.8489312371239066,1906.8060849769972,None,,,,,,,1904.7895333659835,None,1904.9730375669897,1904.989590936806,,,,,,,140,001,2023_Nov_28_1141,SpeechDraft1Carolyn_lessNoise_PlusLocalization,2021.2.3,60.01782125041955,
,,,,,,,,nearLeft,-6.5,1,ch1Sound_localizationTask.wav,-6.5,"(857, 878)","(-103,-202)",-95,-338,,,,,,,,,,,,,4,6,34,2,,,,,,,,,,,,,,,,,,,,,,,,,,,,,,,,,,,,,,,,1907.6561924749985,None,,,1910.6726903850213,None,1.4486772486772486,0.9986633560620248,1910.6726903850213,None,,,,,,,1908.6562915607356,None,1908.839611907024,1908.8563741170801,,,,,,,140,001,2023_Nov_28_1141,SpeechDraft1Carolyn_lessNoise_PlusLocalization,2021.2.3,60.01782125041955,
,,,,,,,,farLeft,-19.1,5,ch1Sound_localizationTask.wav,-19.1,"(667, 878)","(-293,-202)",-285,-338,,,,,,,,,,,,,5,0,35,0,,,,,,,,,,,,,,,,,,,,,,,,,,,,,,,,,,,,,,,,1911.6731670177542,None,,,1914.6892596720718,None,1.498941798941799,2.383406716864556,1914.6892596720718,None,,,,,,,1912.6730375727639,None,1912.8562488509342,1912.8729969449341,,,,,,,140,001,2023_Nov_28_1141,SpeechDraft1Carolyn_lessNoise_PlusLocalization,2021.2.3,60.01782125041955,
,,,,,,,,midRight,13.0,3,ch1Sound_localizationTask.wav,13.0,"(1142, 878)","(182, -202)",190,-338,,,,,,,,,,,,,5,1,36,5,,,,,,,,,,,,,,,,,,,,,,,,,,,,,,,,,,,,,,,,1917.089625268709,None,,,1920.1061052107252,None,1.6052910052910052,0.6158916079439223,1920.1061052107252,None,,,,,,,1918.0896401829086,None,1918.2730558076873,1918.2898354679346,,,,,,,140,001,2023_Nov_28_1141,SpeechDraft1Carolyn_lessNoise_PlusLocalization,2021.2.3,60.01782125041955,
,,,,,,,,nearRight,6.5,0,ch1Sound_localizationTask.wav,6.5,"(1047, 878)","(87, -202)",95,-338,,,,,,,,,,,,,5,2,37,4,,,,,,,,,,,,,,,,,,,,,,,,,,,,,,,,,,,,,,,,1920.7229264108464,None,,,1923.7394999107346,None,1.5576719576719578,0.633400070015341,1923.7394999107346,None,,,,,,,1921.7229900490493,None,1921.9064375921153,1921.9228195827454,,,,,,,140,001,2023_Nov_28_1141,SpeechDraft1Carolyn_lessNoise_PlusLocalization,2021.2.3,60.01782125041955,
,,,,,,,,farLeft,-19.1,5,ch1Sound_localizationTask.wav,-19.1,"(667, 878)","(-293,-202)",-285,-338,,,,,,,,,,,,,5,3,38,0,,,,,,,,,,,,,,,,,,,,,,,,,,,,,,,,,,,,,,,,1924.3897740030661,None,,,1927.406133288052,None,1.342857142857143,0.76530547067523,1927.406133288052,None,,,,,,,1925.3895644010045,None,1925.573051255662,1925.589503319934,,,,,,,140,001,2023_Nov_28_1141,SpeechDraft1Carolyn_lessNoise_PlusLocalization,2021.2.3,60.01782125041955,
,,,,,,,,center,0.0,6,ch1Sound_localizationTask.wav,0.0,"(952, 878)","(-8,-202)",0,-338,,,,,,,,,,,,,5,4,39,3,,,,,,,,,,,,,,,,,,,,,,,,,,,,,,,,,,,,,,,,1928.1727844770066,None,,,1931.1895506437868,None,1.4761904761904763,0.5494141578674316,1931.1895506437868,None,,,,,,,1929.1728398241103,None,1929.3562601041049,1929.3728256649338,,,,,,,140,001,2023_Nov_28_1141,SpeechDraft1Carolyn_lessNoise_PlusLocalization,2021.2.3,60.01782125041955,
,,,,,,,,nearRight,6.5,0,ch1Sound_localizationTask.wav,6.5,"(1047, 878)","(87, -202)",95,-338,,,,,,,,,,,,,5,5,40,4,,,,,,,,,,,,,,,,,,,,,,,,,,,,,,,,,,,,,,,,1931.7397150718607,None,,,1934.756273789797,None,1.4761904761904763,3.882712061982602,1934.756273789797,None,,,,,,,1932.7396818627603,None,1932.9228661777452,1932.9396479520947,,,,,,,140,001,2023_Nov_28_1141,SpeechDraft1Carolyn_lessNoise_PlusLocalization,2021.2.3,60.01782125041955,
,,,,,,,,midLeft,-13.0,2,ch1Sound_localizationTask.wav,-13.0,"(762, 878)","(-198,-202)",-190,-338,,,,,,,,,,,,,5,6,41,1,,,,,,,,,,,,,,,,,,,,,,,,,,,,,,,,,,,,,,,,1938.6397370300256,None,,,1941.6560431597754,None,1.4126984126984126,9.24987012706697,1941.6560431597754,None,,,,,,,1939.639659083914,None,1939.8232706007548,1939.8395763798617,,,,,,,140,001,2023_Nov_28_1141,SpeechDraft1Carolyn_lessNoise_PlusLocalization,2021.2.3,60.01782125041955,
,,,,,,,,nearRight,6.5,0,ch1Sound_localizationTask.wav,6.5,"(1047, 878)","(87, -202)",95,-338,,,,,,,,,,,,,6,0,42,4,,,,,,,,,,,,,,,,,,,,,,,,,,,,,,,,,,,,,,,,1950.9063144568354,None,,,1953.9231434050016,None,1.552910052910053,1.132478600833565,1953.9231434050016,None,,,,,,,1951.906602412928,None,1952.0895561729558,1952.1065282220952,,,,,,,140,001,2023_Nov_28_1141,SpeechDraft1Carolyn_lessNoise_PlusLocalization,2021.2.3,60.01782125041955,
,,,,,,,,midLeft,-13.0,2,ch1Sound_localizationTask.wav,-13.0,"(762, 878)","(-198,-202)",-190,-338,,,,,,,,,,,,,6,1,43,1,,,,,,,,,,,,,,,,,,,,,,,,,,,,,,,,,,,,,,,,1955.0563325500116,None,,,1958.0726564796641,None,1.4052910052910053,1.7328217956237495,1958.0726564796641,None,,,,,,,1956.056283941958,None,1956.2396451160312,1956.2563367607072,,,,,,,140,001,2023_Nov_28_1141,SpeechDraft1Carolyn_lessNoise_PlusLocalization,2021.2.3,60.01782125041955,
,,,,,,,,farRight,19.1,4,ch1Sound_localizationTask.wav,19.1,"(1237, 878)","(277,-202)",285,-338,,,,,,,,,,,,,6,2,44,6,,,,,,,,,,,,,,,,,,,,,,,,,,,,,,,,,,,,,,,,1959.806505865883,None,,,1962.8228909489699,None,1.6455026455026456,0.698338151909411,1962.8228909489699,None,,,,,,,1960.8064158377238,None,1960.9894909090362,1961.0064267618582,,,,,,,140,001,2023_Nov_28_1141,SpeechDraft1Carolyn_lessNoise_PlusLocalization,2021.2.3,60.01782125041955,
,,,,,,,,farRight,19.1,4,ch1Sound_localizationTask.wav,19.1,"(1237, 878)","(277,-202)",285,-338,,,,,,,,,,,,,6,3,45,6,,,,,,,,,,,,,,,,,,,,,,,,,,,,,,,,,,,,,,,,1963.5228921300732,None,,,1966.5393075076863,None,1.644973544973545,0.5821987460367382,1966.5393075076863,None,,,,,,,1964.5232526636682,None,1964.7062573279254,1964.723273687996,,,,,,,140,001,2023_Nov_28_1141,SpeechDraft1Carolyn_lessNoise_PlusLocalization,2021.2.3,60.01782125041955,
,,,,,,,,nearLeft,-6.5,1,ch1Sound_localizationTask.wav,-6.5,"(857, 878)","(-103,-202)",-95,-338,,,,,,,,,,,,,6,4,46,2,,,,,,,,,,,,,,,,,,,,,,,,,,,,,,,,,,,,,,,,1967.1229049968533,None,,,1970.1393428789452,None,1.4301587301587302,0.6658898736350238,1970.1393428789452,None,,,,,,,1968.123126145918,None,1968.3063288959675,1968.323048017919,,,,,,,140,001,2023_Nov_28_1141,SpeechDraft1Carolyn_lessNoise_PlusLocalization,2021.2.3,60.01782125041955,
,,,,,,,,midRight,13.0,3,ch1Sound_localizationTask.wav,13.0,"(1142, 878)","(182, -202)",190,-338,,,,,,,,,,,,,6,5,47,5,,,,,,,,,,,,,,,,,,,,,,,,,,,,,,,,,,,,,,,,1970.806464530062,None,,,1973.8228754010051,None,1.5984126984126985,0.7499168147332966,1973.8228754010051,None,,,,,,,1971.8062739437446,None,1971.9896987550892,1972.0064504076727,,,,,,,140,001,2023_Nov_28_1141,SpeechDraft1Carolyn_lessNoise_PlusLocalization,2021.2.3,60.01782125041955,
,,,,,,,,nearRight,6.5,0,ch1Sound_localizationTask.wav,6.5,"(1047, 878)","(87, -202)",95,-338,,,,,,,,,,,,,6,6,48,4,,,,,,,,,,,,,,,,,,,,,,,,,,,,,,,,,,,,,,,,1974.573243057821,None,,,1977.5894609796815,None,1.4407407407407407,1.6499246931634843,1977.5894609796815,None,,,,,,,1975.5729504097253,None,1975.7561788428575,1975.7730933306739,,,,,,,140,001,2023_Nov_28_1141,SpeechDraft1Carolyn_lessNoise_PlusLocalization,2021.2.3,60.01782125041955,
,,,,,,,,nearLeft,-6.5,1,ch1Sound_localizationTask.wav,-6.5,"(857, 878)","(-103,-202)",-95,-338,,,,,,,,,,,,,7,0,49,2,,,,,,,,,,,,,,,,,,,,,,,,,,,,,,,,,,,,,,,,1979.2398189678788,None,,,1982.2562689548358,None,1.452910052910053,0.4479804621078074,1982.2562689548358,None,,,,,,,1980.239734924864,None,1980.4231624868698,1980.4396126898937,,,,,,,140,001,2023_Nov_28_1141,SpeechDraft1Carolyn_lessNoise_PlusLocalization,2021.2.3,60.01782125041955,
,,,,,,,,nearLeft,-6.5,1,ch1Sound_localizationTask.wav,-6.5,"(857, 878)","(-103,-202)",-95,-338,,,,,,,,,,,,,7,1,50,2,,,,,,,,,,,,,,,,,,,,,,,,,,,,,,,,,,,,,,,,1982.7063848050311,None,,,1985.7228631959297,None,1.4862433862433861,0.7826532879844308,1985.7228631959297,None,,,,,,,1983.7063250448555,None,1983.8896194878034,1983.9064011578448,,,,,,,140,001,2023_Nov_28_1141,SpeechDraft1Carolyn_lessNoise_PlusLocalization,2021.2.3,60.01782125041955,
,,,,,,,,midRight,13.0,3,ch1Sound_localizationTask.wav,13.0,"(1142, 878)","(182, -202)",190,-338,,,,,,,,,,,,,7,2,51,5,,,,,,,,,,,,,,,,,,,,,,,,,,,,,,,,,,,,,,,,1986.5236855237745,None,,,1989.5393960610963,None,1.5867724867724866,1.0669294842518866,1989.5393960610963,None,,,,,,,1987.5229350049049,None,1987.706532004755,1987.7230501337908,,,,,,,140,001,2023_Nov_28_1141,SpeechDraft1Carolyn_lessNoise_PlusLocalization,2021.2.3,60.01782125041955,
,,,,,,,,nearRight,6.5,0,ch1Sound_localizationTask.wav,6.5,"(1047, 878)","(87, -202)",95,-338,,,,,,,,,,,,,7,3,52,4,,,,,,,,,,,,,,,,,,,,,,,,,,,,,,,,,,,,,,,,1990.6233806926757,None,,,1993.6394366449676,None,1.5841269841269843,0.6320565459318459,1993.6394366449676,None,,,,,,,1991.622942910064,None,1991.8063214607537,1991.8230558829382,,,,,,,140,001,2023_Nov_28_1141,SpeechDraft1Carolyn_lessNoise_PlusLocalization,2021.2.3,60.01782125041955,
,,,,,,,,nearRight,6.5,0,ch1Sound_localizationTask.wav,6.5,"(1047, 878)","(87, -202)",95,-338,,,,,,,,,,,,,7,4,53,4,,,,,,,,,,,,,,,,,,,,,,,,,,,,,,,,,,,,,,,,1994.2729708990082,None,,,1997.289718809072,None,1.5613756613756613,0.8488396648317575,1997.289718809072,None,,,,,,,1995.2729569599032,None,1995.4564591259696,1995.4732355889864,,,,,,,140,001,2023_Nov_28_1141,SpeechDraft1Carolyn_lessNoise_PlusLocalization,2021.2.3,60.01782125041955,
,,,,,,,,center,0.0,6,ch1Sound_localizationTask.wav,0.0,"(952, 878)","(-8,-202)",0,-338,,,,,,,,,,,,,7,5,54,3,,,,,,,,,,,,,,,,,,,,,,,,,,,,,,,,,,,,,,,,1998.1399195748381,None,,,2001.1560856779106,None,1.4936507936507937,0.23258790792897344,2001.1560856779106,None,,,,,,,1999.1397743117996,None,1999.3230852787383,1999.3396963928826,,,,,,,140,001,2023_Nov_28_1141,SpeechDraft1Carolyn_lessNoise_PlusLocalization,2021.2.3,60.01782125041955,
,,,,,,,,midLeft,-13.0,2,ch1Sound_localizationTask.wav,-13.0,"(762, 878)","(-198,-202)",-190,-338,,,,,,,,,,,,,7,6,55,1,,,,,,,,,,,,,,,,,,,,,,,,,,,,,,,,,,,,,,,,2001.3900825618766,None,,,2004.4061160660349,None,1.4190476190476191,0.9493411644361913,2004.4061160660349,None,,,,,,,2002.389741613064,None,2002.5731551838107,2002.5897242878564,,,,,,,140,001,2023_Nov_28_1141,SpeechDraft1Carolyn_lessNoise_PlusLocalization,2021.2.3,60.01782125041955,
,,,,,,,,,,,,,,,,,,,,,,,,,,,,,,,,,,,,,,,,,,,,,,,,,,,,,,,,,,,,,,,,,,,,,,,,,,,,,,,,,,,,,,,,,,,,2005.3562709228136,None,c,52.696192889939994,2006.3397491746582,None,140,001,2023_Nov_28_1141,SpeechDraft1Carolyn_lessNoise_PlusLocalization,2021.2.3,60.01782125041955,
