Audio_Only_Files,Video_Files,Original_Word_List,noiseLevelCode,conditionCodes,noiseLevelFile1,noiseLevelFile2,InstrTextVar,practiceTrials.thisRepN,practiceTrials.thisTrialN,practiceTrials.thisN,practiceTrials.thisIndex,trials.thisRepN,trials.thisTrialN,trials.thisN,trials.thisIndex,letsGoAlready.keys,letsGoAlready.rt,letsGoAlready.started,letsGoAlready.stopped,text_2.started,text_2.stopped,text_3.started,text_3.stopped,key_resp_2.keys,key_resp_2.rt,key_resp_2.started,key_resp_2.stopped,text_5.started,text_5.stopped,fixCross.started,fixCross.stopped,fixCross2.started,fixCross2.stopped,answerPrompt.started,answerPrompt.stopped,getAnswer.text,getAnswer.started,getAnswer.stopped,goToNext.keys,goToNext.rt,goToNext.started,goToNext.stopped,stretchBreakTxrt.started,stretchBreakTxrt.stopped,key_resp_3.keys,key_resp_3.rt,key_resp_3.started,key_resp_3.stopped,participant,session,date,expName,psychopyVersion,frameRate,
,,,,,,,,,,,,,,,,space,0.7919221150223166,10.371629739005584,None,,,,,,,,,,,,,,,,,,,,,,,,,,,,,,14,001,2023_Feb_10_1447,SpeechDraft1Carolyn_lessNoise,2021.2.3,60.03585712551501,
,,,,,,,,,,,,,,,,,,,,10.371629739005584,None,11.187676823989023,None,space,0.39320046099601313,11.35436373599805,None,,,,,,,,,,,,,,,,,,,,,,14,001,2023_Feb_10_1447,SpeechDraft1Carolyn_lessNoise,2021.2.3,60.03585712551501,
ash.wav,ash.mpg,ash,1,A,Pink_Noise_1_1.wav,Pink_Noise_1_2.wav,"This is an example of an

AUDIO trial",0,0,0,0,,,,,,,,,,,,,,,,,11.803827337978873,None,12.787399373017251,None,14.870623843977228,None,16.239188343985006,None,ash,16.239188343985006,None,return,4.562970222963486,16.32073058199603,None,,,,,,,14,001,2023_Feb_10_1447,SpeechDraft1Carolyn_lessNoise,2021.2.3,60.03585712551501,
ash.wav,ash.mpg,ash,1,AV,Pink_Noise_1_1.wav,Pink_Noise_1_2.wav,"This is an example of an

AUDIO + VIDEO  trial",0,1,1,1,,,,,,,,,,,,,,,,,20.92045660398435,None,21.920771469012834,None,23.403998348978348,None,24.787439493986312,None,ash,24.787439493986312,None,return,19.460752002021763,24.870771683985367,None,,,,,,,14,001,2023_Feb_10_1447,SpeechDraft1Carolyn_lessNoise,2021.2.3,60.03585712551501,
,,,,,,,,,,,,,,,,,,,,,,,,,,,,,,,,,,,,,,,,,,,44.37113930599298,None,space,4.377337604004424,44.55421748699155,None,14,001,2023_Feb_10_1447,SpeechDraft1Carolyn_lessNoise,2021.2.3,60.03585712551501,
bald.wav,bald.mpg,bald,6,AV,Pink_Noise_6_1.wav,Pink_Noise_6_2.wav,,,,,,0,0,0,78,,,,,,,,,,,,,,,48.98718001699308,None,50.470777836977504,None,51.8540851160069,None,ball,51.8540851160069,None,return,2.961856189009268,51.93768043798627,None,,,,,,,14,001,2023_Feb_10_1447,SpeechDraft1Carolyn_lessNoise,2021.2.3,60.03585712551501,
read.wav,read.mpg,read,3,A,Pink_Noise_3_1.wav,Pink_Noise_3_2.wav,,,,,,0,1,1,47,,,,,,,,,,,,,,,54.920808191993274,None,56.42053954396397,None,57.80422021698905,None,read,57.80422021698905,None,return,4.332039099012036,57.887558676011395,None,,,,,,,14,001,2023_Feb_10_1447,SpeechDraft1Carolyn_lessNoise,2021.2.3,60.03585712551501,
fleet.wav,fleet.mpg,fleet,2,AV,Pink_Noise_2_1.wav,Pink_Noise_2_2.wav,,,,,,0,2,2,60,,,,,,,,,,,,,,,62.237461789976805,None,63.722899645974394,None,65.1043181970017,None,"fleet
",65.1043181970017,None,return,1.7520368749974295,65.18749724200461,None,,,,,,,14,001,2023_Feb_10_1447,SpeechDraft1Carolyn_lessNoise,2021.2.3,60.03585712551501,
beach.wav,beach.mpg,beach,6,A,Pink_Noise_6_1.wav,Pink_Noise_6_2.wav,,,,,,0,3,3,4,,,,,,,,,,,,,,,66.97088441700907,None,68.45397845096886,None,69.83757304900791,None,"fleet
",69.83757304900791,None,return,2.21867294999538,69.92086114000995,None,,,,,,,14,001,2023_Feb_10_1447,SpeechDraft1Carolyn_lessNoise,2021.2.3,60.03585712551501,
bath.wav,bath.mpg,bath,6,A,Pink_Noise_6_1.wav,Pink_Noise_6_2.wav,,,,,,0,4,4,42,,,,,,,,,,,,,,,72.1708424409735,None,73.65407406596933,None,75.0375505569973,None,sad,75.0375505569973,None,return,1.346670464030467,75.12093028897652,None,,,,,,,14,001,2023_Feb_10_1447,SpeechDraft1Carolyn_lessNoise,2021.2.3,60.03585712551501,
warmth.wav,warmth.mpg,warmth,6,AV,Pink_Noise_6_1.wav,Pink_Noise_6_2.wav,,,,,,0,5,5,92,,,,,,,,,,,,,,,76.4877151880064,None,77.9706553129945,None,79.35413169796811,None,warmth,79.35413169796811,None,return,1.7661017869831994,79.43750457500573,None,,,,,,,14,001,2023_Feb_10_1447,SpeechDraft1Carolyn_lessNoise,2021.2.3,60.03585712551501,
tomb.wav,tomb.mpg,tomb,1,A,Pink_Noise_1_1.wav,Pink_Noise_1_2.wav,,,,,,0,6,6,6,,,,,,,,,,,,,,,81.22083936200943,None,82.70409693697002,None,84.0876553109847,None,till,84.0876553109847,None,return,3.4727784980204888,84.17083981697215,None,,,,,,,14,001,2023_Feb_10_1447,SpeechDraft1Carolyn_lessNoise,2021.2.3,60.03585712551501,
roast.wav,roast.mpg,roast,3,A,Pink_Noise_3_1.wav,Pink_Noise_3_2.wav,,,,,,0,7,7,51,,,,,,,,,,,,,,,87.67084004596109,None,89.1705908930162,None,90.53753690997837,None,roast,90.53753690997837,None,return,0.9987043280270882,90.62089304398978,None,,,,,,,14,001,2023_Feb_10_1447,SpeechDraft1Carolyn_lessNoise,2021.2.3,60.03585712551501,
shrimp.wav,shrimp.mpg,shrimp,4,AV,Pink_Noise_4_1.wav,Pink_Noise_4_2.wav,,,,,,0,8,8,103,,,,,,,,,,,,,,,91.63748710497748,None,93.12181507697096,None,94.50434432300972,None,shrub,94.50434432300972,None,return,0.8240800850326195,94.58752370701404,None,,,,,,,14,001,2023_Feb_10_1447,SpeechDraft1Carolyn_lessNoise,2021.2.3,60.03585712551501,
fowl.wav,fowl.mpg,fowl,1,A,Pink_Noise_1_1.wav,Pink_Noise_1_2.wav,,,,,,0,9,9,7,,,,,,,,,,,,,,,95.43774686998222,None,96.92082508496242,None,98.3041665799683,None,prowl,98.3041665799683,None,return,2.1439235949655995,98.38759553601267,None,,,,,,,14,001,2023_Feb_10_1447,SpeechDraft1Carolyn_lessNoise,2021.2.3,60.03585712551501,
cape.wav,cape.mpg,cape,6,A,Pink_Noise_6_1.wav,Pink_Noise_6_2.wav,,,,,,0,10,10,31,,,,,,,,,,,,,,,100.55419488396728,None,102.05407298495993,None,103.42085387499537,None,mull,103.42085387499537,None,return,3.40319823398022,103.50433124700794,None,,,,,,,14,001,2023_Feb_10_1447,SpeechDraft1Carolyn_lessNoise,2021.2.3,60.03585712551501,
feast.wav,feast.mpg,feast,6,AV,Pink_Noise_6_1.wav,Pink_Noise_6_2.wav,,,,,,0,11,11,115,,,,,,,,,,,,,,,106.93756383599248,None,108.43722187797539,None,109.80415210599313,None,face,109.80415210599313,None,return,4.188067673007026,109.88755257596495,None,,,,,,,14,001,2023_Feb_10_1447,SpeechDraft1Carolyn_lessNoise,2021.2.3,60.03585712551501,
cruel.wav,cruel.mpg,cruel,1,A,Pink_Noise_1_1.wav,Pink_Noise_1_2.wav,,,,,,0,12,12,3,,,,,,,,,,,,,,,114.10433989798184,None,115.60410556400893,None,116.97092577000149,None,cruel,116.97092577000149,None,return,0.6609310149797238,117.0545908799977,None,,,,,,,14,001,2023_Feb_10_1447,SpeechDraft1Carolyn_lessNoise,2021.2.3,60.03585712551501,
cab.wav,cab.mpg,cab,1,AV,Pink_Noise_1_1.wav,Pink_Noise_1_2.wav,,,,,,0,13,13,102,,,,,,,,,,,,,,,117.7376026029815,None,119.22071898600552,None,120.60423228598665,None,cab,120.60423228598665,None,return,1.3479596370016225,120.68757120199734,None,,,,,,,14,001,2023_Feb_10_1447,SpeechDraft1Carolyn_lessNoise,2021.2.3,60.03585712551501,
eat.wav,eat.mpg,eat,6,AV,Pink_Noise_6_1.wav,Pink_Noise_6_2.wav,,,,,,0,14,14,70,,,,,,,,,,,,,,,122.05423974397127,None,123.55395115801366,None,124.9208623690065,None,bleat,124.9208623690065,None,return,1.8472971449955367,125.00427837501047,None,,,,,,,14,001,2023_Feb_10_1447,SpeechDraft1Carolyn_lessNoise,2021.2.3,60.03585712551501,
film.wav,film.mpg,film,6,A,Pink_Noise_6_1.wav,Pink_Noise_6_2.wav,,,,,,0,15,15,15,,,,,,,,,,,,,,,126.87096605496481,None,128.3540221370058,None,129.73767035797937,None,done,129.73767035797937,None,return,3.5986591210239567,129.8209302739706,None,,,,,,,14,001,2023_Feb_10_1447,SpeechDraft1Carolyn_lessNoise,2021.2.3,60.03585712551501,
quit.wav,quit.mpg,quit,1,AV,Pink_Noise_1_1.wav,Pink_Noise_1_2.wav,,,,,,0,16,16,107,,,,,,,,,,,,,,,133.43763246299932,None,134.92081167799188,None,136.32089889701456,None,quir=t,136.32089889701456,None,return,3.4792657460202463,136.4042946450063,None,,,,,,,14,001,2023_Feb_10_1447,SpeechDraft1Carolyn_lessNoise,2021.2.3,60.03585712551501,
bridge.wav,bridge.mpg,bridge,4,A,Pink_Noise_4_1.wav,Pink_Noise_4_2.wav,,,,,,0,17,17,37,,,,,,,,,,,,,,,139.90431885496946,None,141.38765532698017,None,142.77098301198566,None,rage,142.77098301198566,None,return,1.3653622060082853,142.85433015198214,None,,,,,,,14,001,2023_Feb_10_1447,SpeechDraft1Carolyn_lessNoise,2021.2.3,60.03585712551501,
hug.wav,hug.mpg,hug,1,AV,Pink_Noise_1_1.wav,Pink_Noise_1_2.wav,,,,,,0,18,18,85,,,,,,,,,,,,,,,144.23755460401298,None,145.73734499898273,None,147.10417971597053,None,hug,147.10417971597053,None,return,1.1039171239826828,147.1876164909918,None,,,,,,,14,001,2023_Feb_10_1447,SpeechDraft1Carolyn_lessNoise,2021.2.3,60.03585712551501,
budge.wav,budge.mpg,budge,5,AV,Pink_Noise_5_1.wav,Pink_Noise_5_2.wav,,,,,,0,19,19,82,,,,,,,,,,,,,,,148.3209466370172,None,149.85433043097146,None,151.2375083519728,None,"budge
",151.2375083519728,None,return,1.5705450889654458,151.3209794110153,None,,,,,,,14,001,2023_Feb_10_1447,SpeechDraft1Carolyn_lessNoise,2021.2.3,60.03585712551501,
grass.wav,grass.mpg,grass,6,AV,Pink_Noise_6_1.wav,Pink_Noise_6_2.wav,,,,,,0,20,20,65,,,,,,,,,,,,,,,152.92095071298536,None,154.42091724596685,None,155.80415368499234,None,cross,155.80415368499234,None,return,1.4598645670339465,155.88765104697086,None,,,,,,,14,001,2023_Feb_10_1447,SpeechDraft1Carolyn_lessNoise,2021.2.3,60.03585712551501,
live.wav,live.mpg,live,6,AV,Pink_Noise_6_1.wav,Pink_Noise_6_2.wav,,,,,,0,21,21,73,,,,,,,,,,,,,,,157.3710477189743,None,158.87080270296428,None,160.25423378497362,None,thief,160.25423378497362,None,return,2.6738602550467476,160.3377077630139,None,,,,,,,14,001,2023_Feb_10_1447,SpeechDraft1Carolyn_lessNoise,2021.2.3,60.03585712551501,
bat.wav,bat.mpg,bat,1,A,Pink_Noise_1_1.wav,Pink_Noise_1_2.wav,,,,,,0,22,22,22,,,,,,,,,,,,,,,163.03778133098967,None,164.53751821897458,None,165.92101723799715,None,bat,165.92101723799715,None,return,0.6952114220475778,166.00435396196553,None,,,,,,,14,001,2023_Feb_10_1447,SpeechDraft1Carolyn_lessNoise,2021.2.3,60.03585712551501,
flog.wav,flog.mpg,flog,2,AV,Pink_Noise_2_1.wav,Pink_Noise_2_2.wav,,,,,,0,23,23,67,,,,,,,,,,,,,,,166.7209992330172,None,168.20468452497153,None,169.5875813550083,None,flog,169.5875813550083,None,return,2.1566849339869805,169.67101915099192,None,,,,,,,14,001,2023_Feb_10_1447,SpeechDraft1Carolyn_lessNoise,2021.2.3,60.03585712551501,
barn.wav,barn.mpg,barn,5,AV,Pink_Noise_5_1.wav,Pink_Noise_5_2.wav,,,,,,0,24,24,72,,,,,,,,,,,,,,,171.85434133396484,None,173.35418451298028,None,174.7209465909982,None,barn,174.7209465909982,None,return,2.8392201859969646,174.80437972099753,None,,,,,,,14,001,2023_Feb_10_1447,SpeechDraft1Carolyn_lessNoise,2021.2.3,60.03585712551501,
clown.wav,clown.mpg,clown,4,AV,Pink_Noise_4_1.wav,Pink_Noise_4_2.wav,,,,,,0,25,25,96,,,,,,,,,,,,,,,177.67098788399016,None,179.1708411349682,None,180.55418435600586,None,cloud,180.55418435600586,None,return,0.8778590859728865,180.63766261801356,None,,,,,,,14,001,2023_Feb_10_1447,SpeechDraft1Carolyn_lessNoise,2021.2.3,60.03585712551501,
coy.wav,coy.mpg,coy,1,AV,Pink_Noise_1_1.wav,Pink_Noise_1_2.wav,,,,,,0,26,26,74,,,,,,,,,,,,,,,181.53768042096635,None,183.03751761798048,None,184.42100033600582,None,"coy
",184.42100033600582,None,return,0.6511953459703363,184.50433896196773,None,,,,,,,14,001,2023_Feb_10_1447,SpeechDraft1Carolyn_lessNoise,2021.2.3,60.03585712551501,
shut.wav,shut.mpg,shut,6,A,Pink_Noise_6_1.wav,Pink_Noise_6_2.wav,,,,,,0,27,27,19,,,,,,,,,,,,,,,185.18771243997617,None,186.67086214298615,None,188.0543728619814,None,shut,188.0543728619814,None,return,1.1139562129974365,188.1376610849984,None,,,,,,,14,001,2023_Feb_10_1447,SpeechDraft1Carolyn_lessNoise,2021.2.3,60.03585712551501,
curb.wav,curb.mpg,curb,3,A,Pink_Noise_3_1.wav,Pink_Noise_3_2.wav,,,,,,0,28,28,49,,,,,,,,,,,,,,,189.27106936299242,None,190.75416766799754,None,192.1376376739936,None,curel,192.1376376739936,None,return,1.4623872700030915,192.22116357297637,None,,,,,,,14,001,2023_Feb_10_1447,SpeechDraft1Carolyn_lessNoise,2021.2.3,60.03585712551501,
coat.wav,coat.mpg,coat,5,A,Pink_Noise_5_1.wav,Pink_Noise_5_2.wav,,,,,,0,29,29,17,,,,,,,,,,,,,,,193.70437305798987,None,195.18766250798944,None,196.5710967630148,None,croach,196.5710967630148,None,return,3.6210913800168782,196.65443308197428,None,,,,,,,14,001,2023_Feb_10_1447,SpeechDraft1Carolyn_lessNoise,2021.2.3,60.03585712551501,
dare.wav,dare.mpg,dare,4,A,Pink_Noise_4_1.wav,Pink_Noise_4_2.wav,,,,,,0,30,30,14,,,,,,,,,,,,,,,200.30435339099495,None,201.78737899800763,None,203.17103373497957,None,dare,203.17103373497957,None,return,2.5810172790079378,203.25453356601065,None,,,,,,,14,001,2023_Feb_10_1447,SpeechDraft1Carolyn_lessNoise,2021.2.3,60.03585712551501,
brain.wav,brain.mpg,brain,1,AV,Pink_Noise_1_1.wav,Pink_Noise_1_2.wav,,,,,,0,31,31,98,,,,,,,,,,,,,,,205.8546019049827,None,207.35420171299484,None,208.72114902699832,None,brain,208.72114902699832,None,return,0.7832192109781317,208.8043825419736,None,,,,,,,14,001,2023_Feb_10_1447,SpeechDraft1Carolyn_lessNoise,2021.2.3,60.03585712551501,
dust.wav,dust.mpg,dust,3,AV,Pink_Noise_3_1.wav,Pink_Noise_3_2.wav,,,,,,0,32,32,101,,,,,,,,,,,,,,,209.6043577279779,None,211.10411637899233,None,212.4875868909876,None,dust,212.4875868909876,None,return,1.040486318001058,212.57104166597128,None,,,,,,,14,001,2023_Feb_10_1447,SpeechDraft1Carolyn_lessNoise,2021.2.3,60.03585712551501,
fierce.wav,fierce.mpg,fierce,4,A,Pink_Noise_4_1.wav,Pink_Noise_4_2.wav,,,,,,0,33,33,1,,,,,,,,,,,,,,,213.6377413799637,None,215.12081078696065,None,216.50435310497414,None,fierce,216.50435310497414,None,return,1.3437586560030468,216.58776161196874,None,,,,,,,14,001,2023_Feb_10_1447,SpeechDraft1Carolyn_lessNoise,2021.2.3,60.03585712551501,
cold.wav,cold.mpg,cold,4,AV,Pink_Noise_4_1.wav,Pink_Noise_4_2.wav,,,,,,0,34,34,87,,,,,,,,,,,,,,,217.9545426319819,None,219.43861487397226,None,220.82097235199763,None,cold,220.82097235199763,None,return,0.8591482940246351,220.90438926097704,None,,,,,,,14,001,2023_Feb_10_1447,SpeechDraft1Carolyn_lessNoise,2021.2.3,60.03585712551501,
fee.wav,fee.mpg,fee,4,AV,Pink_Noise_4_1.wav,Pink_Noise_4_2.wav,,,,,,0,35,35,95,,,,,,,,,,,,,,,221.78773747198284,None,223.27081946801627,None,224.65433575498173,None,feet,224.65433575498173,None,return,1.281757219985593,224.73782095196657,None,,,,,,,14,001,2023_Feb_10_1447,SpeechDraft1Carolyn_lessNoise,2021.2.3,60.03585712551501,
dope.wav,dope.mpg,dope,2,A,Pink_Noise_2_1.wav,Pink_Noise_2_2.wav,,,,,,0,36,36,53,,,,,,,,,,,,,,,226.03779478900833,None,227.52085045096464,None,228.9045185719733,None,dope,228.9045185719733,None,return,1.2399200630025007,228.9877748360159,None,,,,,,,14,001,2023_Feb_10_1447,SpeechDraft1Carolyn_lessNoise,2021.2.3,60.03585712551501,
dress.wav,dress.mpg,dress,2,AV,Pink_Noise_2_1.wav,Pink_Noise_2_2.wav,,,,,,0,37,37,116,,,,,,,,,,,,,,,230.25439580896636,None,231.73788084898842,None,233.1210169129772,None,"dress
",233.1210169129772,None,return,0.9511793329729699,233.204355467984,None,,,,,,,14,001,2023_Feb_10_1447,SpeechDraft1Carolyn_lessNoise,2021.2.3,60.03585712551501,
bride.wav,bride.mpg,bride,4,A,Pink_Noise_4_1.wav,Pink_Noise_4_2.wav,,,,,,0,38,38,13,,,,,,,,,,,,,,,234.18777355196653,None,235.67096104996745,None,237.05442570196465,None,friend,237.05442570196465,None,return,1.7378355149994604,237.13776020001387,None,,,,,,,14,001,2023_Feb_10_1447,SpeechDraft1Carolyn_lessNoise,2021.2.3,60.03585712551501,
fruit.wav,fruit.mpg,fruit,2,AV,Pink_Noise_2_1.wav,Pink_Noise_2_2.wav,,,,,,0,39,39,114,,,,,,,,,,,,,,,238.90445048199035,None,240.4043930710177,None,241.7876752190059,None,"fruit
",241.7876752190059,None,return,0.8365021380013786,241.8710523559712,None,,,,,,,14,001,2023_Feb_10_1447,SpeechDraft1Carolyn_lessNoise,2021.2.3,60.03585712551501,
goal.wav,goal.mpg,goal,1,AV,Pink_Noise_1_1.wav,Pink_Noise_1_2.wav,,,,,,0,40,40,69,,,,,,,,,,,,,,,242.73774422699353,None,244.2211537839612,None,245.60441605799133,None,"goal
",245.60441605799133,None,return,1.4676959280041046,245.68783267197432,None,,,,,,,14,001,2023_Feb_10_1447,SpeechDraft1Carolyn_lessNoise,2021.2.3,60.03585712551501,
slick.wav,slick.mpg,slick,5,AV,Pink_Noise_5_1.wav,Pink_Noise_5_2.wav,,,,,,0,41,41,84,,,,,,,,,,,,,,,247.18785671098158,None,248.67267242399976,None,250.05439503199887,None,slate,250.05439503199887,None,return,0.9537465910543688,250.13777852297062,None,,,,,,,14,001,2023_Feb_10_1447,SpeechDraft1Carolyn_lessNoise,2021.2.3,60.03585712551501,
buff.wav,buff.mpg,buff,4,AV,Pink_Noise_4_1.wav,Pink_Noise_4_2.wav,,,,,,0,42,42,68,,,,,,,,,,,,,,,251.12114340497646,None,252.60451404296327,None,253.98774386197329,None,buff,253.98774386197329,None,return,1.6044108310015872,254.07117945200298,None,,,,,,,14,001,2023_Feb_10_1447,SpeechDraft1Carolyn_lessNoise,2021.2.3,60.03585712551501,
row.wav,row.mpg,row,5,AV,Pink_Noise_5_1.wav,Pink_Noise_5_2.wav,,,,,,0,43,43,97,,,,,,,,,,,,,,,255.70447381399572,None,257.2042592219659,None,258.58783420099644,None,ro,258.58783420099644,None,return,0.6444521360099316,258.67110532696825,None,,,,,,,14,001,2023_Feb_10_1447,SpeechDraft1Carolyn_lessNoise,2021.2.3,60.03585712551501,
wine.wav,wine.mpg,wine,2,AV,Pink_Noise_2_1.wav,Pink_Noise_2_2.wav,,,,,,0,44,44,91,,,,,,,,,,,,,,,259.33779809996486,None,260.8210736119654,None,262.20439935300965,None,wine,262.20439935300965,None,return,0.5877477469621226,262.28779528598534,None,,,,,,,14,001,2023_Feb_10_1447,SpeechDraft1Carolyn_lessNoise,2021.2.3,60.03585712551501,
gulp.wav,gulp.mpg,gulp,3,AV,Pink_Noise_3_1.wav,Pink_Noise_3_2.wav,,,,,,0,45,45,109,,,,,,,,,,,,,,,262.90435394697124,None,264.38766796997515,None,265.7710550609627,None,"gulp
",265.7710550609627,None,return,1.0850977710215375,265.8544263980002,None,,,,,,,14,001,2023_Feb_10_1447,SpeechDraft1Carolyn_lessNoise,2021.2.3,60.03585712551501,
tart.wav,tart.mpg,tart,3,AV,Pink_Noise_3_1.wav,Pink_Noise_3_2.wav,,,,,,0,46,46,89,,,,,,,,,,,,,,,266.9710899399943,None,268.4708532979712,None,269.85460835596314,None,tart,269.85460835596314,None,return,1.1775089349830523,269.93802141799824,None,,,,,,,14,001,2023_Feb_10_1447,SpeechDraft1Carolyn_lessNoise,2021.2.3,60.03585712551501,
clot.wav,clot.mpg,clot,2,A,Pink_Noise_2_1.wav,Pink_Noise_2_2.wav,,,,,,0,47,47,54,,,,,,,,,,,,,,,271.13780385197606,None,272.6375385230058,None,274.02111535100266,None,clapped,274.02111535100266,None,return,1.3231365809915587,274.10446941497503,None,,,,,,,14,001,2023_Feb_10_1447,SpeechDraft1Carolyn_lessNoise,2021.2.3,60.03585712551501,
grind.wav,grind.mpg,grind,3,AV,Pink_Noise_3_1.wav,Pink_Noise_3_2.wav,,,,,,0,48,48,119,,,,,,,,,,,,,,,275.454457713,None,276.9380314729642,None,278.3210690440028,None,"grind
",278.3210690440028,None,return,0.9349952680058777,278.4045282449806,None,,,,,,,14,001,2023_Feb_10_1447,SpeechDraft1Carolyn_lessNoise,2021.2.3,60.03585712551501,
desk.wav,desk.mpg,desk,1,A,Pink_Noise_1_1.wav,Pink_Noise_1_2.wav,,,,,,0,49,49,41,,,,,,,,,,,,,,,279.3711742089945,None,280.85437937499955,None,282.2378233160125,None,desk,282.2378233160125,None,return,0.7943780369823799,282.32116057997337,None,,,,,,,14,001,2023_Feb_10_1447,SpeechDraft1Carolyn_lessNoise,2021.2.3,60.03585712551501,
fur.wav,fur.mpg,fur,4,A,Pink_Noise_4_1.wav,Pink_Noise_4_2.wav,,,,,,0,50,50,30,,,,,,,,,,,,,,,283.13778280396946,None,284.62134088296443,None,286.00445317896083,None,groomed,286.00445317896083,None,return,10.80371865699999,286.08780696598114,None,,,,,,,14,001,2023_Feb_10_1447,SpeechDraft1Carolyn_lessNoise,2021.2.3,60.03585712551501,
flag.wav,flag.mpg,flag,5,AV,Pink_Noise_5_1.wav,Pink_Noise_5_2.wav,,,,,,0,51,51,79,,,,,,,,,,,,,,,296.92111968196696,None,298.42100894701434,None,299.80463371798396,None,fly,299.80463371798396,None,return,6.243660766980611,299.88785716396524,None,,,,,,,14,001,2023_Feb_10_1447,SpeechDraft1Carolyn_lessNoise,2021.2.3,60.03585712551501,
bet.wav,bet.mpg,bet,6,AV,Pink_Noise_6_1.wav,Pink_Noise_6_2.wav,,,,,,0,52,52,90,,,,,,,,,,,,,,,306.1545980029623,None,307.65451995801413,None,309.0379424599814,None,bat,309.0379424599814,None,return,1.1543101340066642,309.1212301849737,None,,,,,,,14,001,2023_Feb_10_1447,SpeechDraft1Carolyn_lessNoise,2021.2.3,60.03585712551501,
bag.wav,bag.mpg,bag,5,AV,Pink_Noise_5_1.wav,Pink_Noise_5_2.wav,,,,,,0,53,53,63,,,,,,,,,,,,,,,310.3045505429618,None,311.8043137729983,None,313.171133026015,None,bag,313.171133026015,None,return,0.8769993939786218,313.25453963899054,None,,,,,,,14,001,2023_Feb_10_1447,SpeechDraft1Carolyn_lessNoise,2021.2.3,60.03585712551501,
three.wav,three.mpg,three,3,A,Pink_Noise_3_1.wav,Pink_Noise_3_2.wav,,,,,,0,54,54,9,,,,,,,,,,,,,,,314.1545030339621,None,315.654271300009,None,317.02124770800583,None,"fleet
",317.02124770800583,None,return,1.1230072519974783,317.1045286479639,None,,,,,,,14,001,2023_Feb_10_1447,SpeechDraft1Carolyn_lessNoise,2021.2.3,60.03585712551501,
debt.wav,debt.mpg,debt,5,AV,Pink_Noise_5_1.wav,Pink_Noise_5_2.wav,,,,,,0,55,55,61,,,,,,,,,,,,,,,318.2712031150004,None,319.75475008698413,None,321.1377850979916,None,desk,321.1377850979916,None,return,0.7823547950247303,321.2212281419779,None,,,,,,,14,001,2023_Feb_10_1447,SpeechDraft1Carolyn_lessNoise,2021.2.3,60.03585712551501,
bond.wav,bond.mpg,bond,2,A,Pink_Noise_2_1.wav,Pink_Noise_2_2.wav,,,,,,0,56,56,58,,,,,,,,,,,,,,,322.0212651269976,None,323.5210245489725,None,324.887877502013,None,bombed,324.887877502013,None,return,1.288390661997255,324.97122894396307,None,,,,,,,14,001,2023_Feb_10_1447,SpeechDraft1Carolyn_lessNoise,2021.2.3,60.03585712551501,
duke.wav,duke.mpg,duke,6,A,Pink_Noise_6_1.wav,Pink_Noise_6_2.wav,,,,,,0,57,57,16,,,,,,,,,,,,,,,326.2878407239914,None,327.787994209968,None,329.17125293496065,None,fleet,329.17125293496065,None,return,1.8450115959858522,329.25452992797364,None,,,,,,,14,001,2023_Feb_10_1447,SpeechDraft1Carolyn_lessNoise,2021.2.3,60.03585712551501,
chop.wav,chop.mpg,chop,5,A,Pink_Noise_5_1.wav,Pink_Noise_5_2.wav,,,,,,0,58,58,56,,,,,,,,,,,,,,,331.12125216500135,None,332.62113241496263,None,334.0046240729862,None,chapped,334.0046240729862,None,return,2.6757141089765355,334.0878076039953,None,,,,,,,14,001,2023_Feb_10_1447,SpeechDraft1Carolyn_lessNoise,2021.2.3,60.03585712551501,
crow.wav,crow.mpg,crow,2,A,Pink_Noise_2_1.wav,Pink_Noise_2_2.wav,,,,,,0,59,59,48,,,,,,,,,,,,,,,336.7879005029681,None,338.2715713600046,None,339.65451371099334,None,crow,339.65451371099334,None,return,1.089637060998939,339.737997418968,None,,,,,,,14,001,2023_Feb_10_1447,SpeechDraft1Carolyn_lessNoise,2021.2.3,60.03585712551501,
bless.wav,bless.mpg,bless,2,AV,Pink_Noise_2_1.wav,Pink_Noise_2_2.wav,,,,,,0,60,60,66,,,,,,,,,,,,,,,340.85456494096434,None,342.33955552399857,None,343.7212605130044,None,bless,343.7212605130044,None,return,0.8550093650119379,343.80461557296803,None,,,,,,,14,001,2023_Feb_10_1447,SpeechDraft1Carolyn_lessNoise,2021.2.3,60.03585712551501,
flood.wav,flood.mpg,flood,2,A,Pink_Noise_2_1.wav,Pink_Noise_2_2.wav,,,,,,0,61,61,35,,,,,,,,,,,,,,,344.68797345401254,None,346.17179707001196,None,347.571018787974,None,flood,347.571018787974,None,return,2.149650229024701,347.63791798899183,None,,,,,,,14,001,2023_Feb_10_1447,SpeechDraft1Carolyn_lessNoise,2021.2.3,60.03585712551501,
clog.wav,clog.mpg,clog,2,AV,Pink_Noise_2_1.wav,Pink_Noise_2_2.wav,,,,,,0,62,62,112,,,,,,,,,,,,,,,349.8045560379978,None,351.2890973199974,None,352.67114065698115,None,clog,352.67114065698115,None,return,0.9129599799634889,352.75461135897785,None,,,,,,,14,001,2023_Feb_10_1447,SpeechDraft1Carolyn_lessNoise,2021.2.3,60.03585712551501,
crown.wav,crown.mpg,crown,3,A,Pink_Noise_3_1.wav,Pink_Noise_3_2.wav,,,,,,0,63,63,55,,,,,,,,,,,,,,,353.68792315601604,None,355.1878262949758,None,356.5712122590048,None,crowd,356.5712122590048,None,return,1.260921562963631,356.6545989579754,None,,,,,,,14,001,2023_Feb_10_1447,SpeechDraft1Carolyn_lessNoise,2021.2.3,60.03585712551501,
bay.wav,bay.mpg,bay,1,A,Pink_Noise_1_1.wav,Pink_Noise_1_2.wav,,,,,,0,64,64,50,,,,,,,,,,,,,,,357.937912488007,None,359.4209525680053,None,360.8046322679729,None,bay,360.8046322679729,None,return,0.7636545849964023,360.8879672929761,None,,,,,,,14,001,2023_Feb_10_1447,SpeechDraft1Carolyn_lessNoise,2021.2.3,60.03585712551501,
cup.wav,cup.mpg,cup,1,A,Pink_Noise_1_1.wav,Pink_Noise_1_2.wav,,,,,,0,65,65,21,,,,,,,,,,,,,,,361.67124576098286,None,363.1710498749744,None,364.5546735099633,None,cup,364.5546735099633,None,return,0.9095767190447077,364.6379408169887,None,,,,,,,14,001,2023_Feb_10_1447,SpeechDraft1Carolyn_lessNoise,2021.2.3,60.03585712551501,
strive.wav,strive.mpg,strive,4,AV,Pink_Noise_4_1.wav,Pink_Noise_4_2.wav,,,,,,0,66,66,110,,,,,,,,,,,,,,,365.57124099798966,None,367.0710732190055,None,368.43788797897287,None,strive,368.43788797897287,None,return,1.3463013900327496,368.5212769759819,None,,,,,,,14,001,2023_Feb_10_1447,SpeechDraft1Carolyn_lessNoise,2021.2.3,60.03585712551501,
groom.wav,groom.mpg,groom,3,A,Pink_Noise_3_1.wav,Pink_Noise_3_2.wav,,,,,,0,67,67,57,,,,,,,,,,,,,,,369.8880304149934,None,371.3877078969963,None,372.77128556300886,None,grew,372.77128556300886,None,return,1.820678742020391,372.8548520699842,None,,,,,,,14,001,2023_Feb_10_1447,SpeechDraft1Carolyn_lessNoise,2021.2.3,60.03585712551501,
glide.wav,glide.mpg,glide,1,AV,Pink_Noise_1_1.wav,Pink_Noise_1_2.wav,,,,,,0,68,68,94,,,,,,,,,,,,,,,374.704602473008,None,376.20445372798713,None,377.58798538998235,None,"glide
",377.58798538998235,None,return,0.8202305539743975,377.6712923909654,None,,,,,,,14,001,2023_Feb_10_1447,SpeechDraft1Carolyn_lessNoise,2021.2.3,60.03585712551501,
mass.wav,mass.mpg,mass,3,AV,Pink_Noise_3_1.wav,Pink_Noise_3_2.wav,,,,,,0,69,69,81,,,,,,,,,,,,,,,378.5212425789796,None,380.0049388819607,None,381.3879265639698,None,mass,381.3879265639698,None,return,1.5241819580551237,381.4713373800041,None,,,,,,,14,001,2023_Feb_10_1447,SpeechDraft1Carolyn_lessNoise,2021.2.3,60.03585712551501,
route.wav,route.mpg,route,5,AV,Pink_Noise_5_1.wav,Pink_Noise_5_2.wav,,,,,,0,70,70,113,,,,,,,,,,,,,,,383.021437259973,None,384.52105173800373,None,385.90450056799455,None,root,385.90450056799455,None,return,0.7275475159985945,385.98797369998647,None,,,,,,,14,001,2023_Feb_10_1447,SpeechDraft1Carolyn_lessNoise,2021.2.3,60.03585712551501,
gum.wav,gum.mpg,gum,6,A,Pink_Noise_6_1.wav,Pink_Noise_6_2.wav,,,,,,0,71,71,5,,,,,,,,,,,,,,,386.7379487279686,None,388.2218007199699,None,389.60471238399623,None,run,389.60471238399623,None,return,0.7471335029695183,389.68839891598327,None,,,,,,,14,001,2023_Feb_10_1447,SpeechDraft1Carolyn_lessNoise,2021.2.3,60.03585712551501,
fable.wav,fable.mpg,fable,2,A,Pink_Noise_2_1.wav,Pink_Noise_2_2.wav,,,,,,0,72,72,43,,,,,,,,,,,,,,,390.45469629898435,None,391.95448225399014,None,393.3380969829741,None,"fable
",393.3380969829741,None,return,0.9341959209996276,393.42134831799194,None,,,,,,,14,001,2023_Feb_10_1447,SpeechDraft1Carolyn_lessNoise,2021.2.3,60.03585712551501,
freak.wav,freak.mpg,freak,5,A,Pink_Noise_5_1.wav,Pink_Noise_5_2.wav,,,,,,0,73,73,36,,,,,,,,,,,,,,,394.38790929398965,None,395.88779558596434,None,397.2713322439813,None,fleet,397.2713322439813,None,return,1.488717700005509,397.35489164100727,None,,,,,,,14,001,2023_Feb_10_1447,SpeechDraft1Carolyn_lessNoise,2021.2.3,60.03585712551501,
chief.wav,chief.mpg,chief,1,AV,Pink_Noise_1_1.wav,Pink_Noise_1_2.wav,,,,,,0,74,74,111,,,,,,,,,,,,,,,398.8713908480131,None,400.3548151209834,None,401.7379920569947,None,chief,401.7379920569947,None,return,3.3261117980000563,401.82141737197526,None,,,,,,,14,001,2023_Feb_10_1447,SpeechDraft1Carolyn_lessNoise,2021.2.3,60.03585712551501,
date.wav,date.mpg,date,3,AV,Pink_Noise_3_1.wav,Pink_Noise_3_2.wav,,,,,,0,75,75,118,,,,,,,,,,,,,,,405.17129316501087,None,406.65556582197314,None,408.0379729369888,None,date,408.0379729369888,None,return,0.882384697033558,408.121203165967,None,,,,,,,14,001,2023_Feb_10_1447,SpeechDraft1Carolyn_lessNoise,2021.2.3,60.03585712551501,
ghost.wav,ghost.mpg,ghost,1,AV,Pink_Noise_1_1.wav,Pink_Noise_1_2.wav,,,,,,0,76,76,104,,,,,,,,,,,,,,,409.02134243398905,None,410.52103433397133,None,411.90464352600975,None,ghost,411.90464352600975,None,return,1.031658090010751,411.9879729860113,None,,,,,,,14,001,2023_Feb_10_1447,SpeechDraft1Carolyn_lessNoise,2021.2.3,60.03585712551501,
crook.wav,crook.mpg,crook,1,AV,Pink_Noise_1_1.wav,Pink_Noise_1_2.wav,,,,,,0,77,77,64,,,,,,,,,,,,,,,413.0380581819918,None,414.5378278339631,None,415.92130078200717,None,crook,415.92130078200717,None,return,0.942837173002772,416.0046827379847,None,,,,,,,14,001,2023_Feb_10_1447,SpeechDraft1Carolyn_lessNoise,2021.2.3,60.03585712551501,
fluff.wav,fluff.mpg,fluff,5,A,Pink_Noise_5_1.wav,Pink_Noise_5_2.wav,,,,,,0,78,78,2,,,,,,,,,,,,,,,416.9713597589871,None,418.45538512198254,None,419.8380266809836,None,glove,419.8380266809836,None,return,3.610182464995887,419.9213588130078,None,,,,,,,14,001,2023_Feb_10_1447,SpeechDraft1Carolyn_lessNoise,2021.2.3,60.03585712551501,
grown.wav,grown.mpg,grown,3,AV,Pink_Noise_3_1.wav,Pink_Noise_3_2.wav,,,,,,0,79,79,76,,,,,,,,,,,,,,,423.55465913697844,None,425.0378070449806,None,426.4212985999766,None,grow,426.4212985999766,None,return,0.7707993519725278,426.50472512398846,None,,,,,,,14,001,2023_Feb_10_1447,SpeechDraft1Carolyn_lessNoise,2021.2.3,60.03585712551501,
chest.wav,chest.mpg,chest,5,A,Pink_Noise_5_1.wav,Pink_Noise_5_2.wav,,,,,,0,80,80,59,,,,,,,,,,,,,,,427.30478405498434,None,428.804441270011,None,430.188105335983,None,chest,430.188105335983,None,return,0.8601855260203592,430.27134321199264,None,,,,,,,14,001,2023_Feb_10_1447,SpeechDraft1Carolyn_lessNoise,2021.2.3,60.03585712551501,
build.wav,build.mpg,build,3,AV,Pink_Noise_3_1.wav,Pink_Noise_3_2.wav,,,,,,0,81,81,100,,,,,,,,,,,,,,,431.1548025700031,None,432.6379714179784,None,434.0212228439632,None,build,434.0212228439632,None,return,0.9548723070183769,434.1047263770015,None,,,,,,,14,001,2023_Feb_10_1447,SpeechDraft1Carolyn_lessNoise,2021.2.3,60.03585712551501,
cheap.wav,cheap.mpg,cheap,2,AV,Pink_Noise_2_1.wav,Pink_Noise_2_2.wav,,,,,,0,82,82,99,,,,,,,,,,,,,,,435.0880646039732,None,436.57299443596276,None,437.95464060700033,None,cheap,437.95464060700033,None,return,1.1655639380333014,438.0379954400123,None,,,,,,,14,001,2023_Feb_10_1447,SpeechDraft1Carolyn_lessNoise,2021.2.3,60.03585712551501,
clay.wav,clay.mpg,clay,4,A,Pink_Noise_4_1.wav,Pink_Noise_4_2.wav,,,,,,0,83,83,8,,,,,,,,,,,,,,,439.2212785920128,None,440.70474886900047,None,442.0885579069727,None,cliff,442.0885579069727,None,return,0.6961688050068915,442.17139028501697,None,,,,,,,14,001,2023_Feb_10_1447,SpeechDraft1Carolyn_lessNoise,2021.2.3,60.03585712551501,
dig.wav,dig.mpg,dig,5,A,Pink_Noise_5_1.wav,Pink_Noise_5_2.wav,,,,,,0,84,84,44,,,,,,,,,,,,,,,442.8880676290137,None,444.3711263060104,None,445.75472524698125,None,date,445.75472524698125,None,return,0.6054465519846417,445.83814849099144,None,,,,,,,14,001,2023_Feb_10_1447,SpeechDraft1Carolyn_lessNoise,2021.2.3,60.03585712551501,
gone.wav,gone.mpg,gone,6,AV,Pink_Noise_6_1.wav,Pink_Noise_6_2.wav,,,,,,0,85,85,71,,,,,,,,,,,,,,,446.47136866499204,None,447.97331771301106,None,449.35461522999685,None,"hard
",449.35461522999685,None,return,2.269479115959257,449.4380754379672,None,,,,,,,14,001,2023_Feb_10_1447,SpeechDraft1Carolyn_lessNoise,2021.2.3,60.03585712551501,
bleak.wav,bleak.mpg,bleak,6,A,Pink_Noise_6_1.wav,Pink_Noise_6_2.wav,,,,,,0,86,86,27,,,,,,,,,,,,,,,451.7380734849721,None,453.2381078900071,None,454.62136571499286,None,slick,454.62136571499286,None,return,1.3389404049958102,454.7047288370086,None,,,,,,,14,001,2023_Feb_10_1447,SpeechDraft1Carolyn_lessNoise,2021.2.3,60.03585712551501,
deem.wav,deem.mpg,deem,3,AV,Pink_Noise_3_1.wav,Pink_Noise_3_2.wav,,,,,,0,87,87,75,,,,,,,,,,,,,,,456.07135558797745,None,457.5712258410058,None,458.93825435300823,None,"deem
",458.93825435300823,None,return,1.2861371940234676,459.0213948030141,None,,,,,,,14,001,2023_Feb_10_1447,SpeechDraft1Carolyn_lessNoise,2021.2.3,60.03585712551501,
cream.wav,cream.mpg,cream,3,A,Pink_Noise_3_1.wav,Pink_Noise_3_2.wav,,,,,,0,88,88,33,,,,,,,,,,,,,,,460.33829647896346,None,461.8227760170121,None,463.2047747609904,None,"cream
",463.2047747609904,None,return,1.6674874550080858,463.28805952501716,None,,,,,,,14,001,2023_Feb_10_1447,SpeechDraft1Carolyn_lessNoise,2021.2.3,60.03585712551501,
duet.wav,duet.mpg,duet,5,A,Pink_Noise_5_1.wav,Pink_Noise_5_2.wav,,,,,,0,89,89,34,,,,,,,,,,,,,,,464.9880637789611,None,466.4714697590098,None,467.854735439003,None,duet,467.854735439003,None,return,0.6814652690081857,467.93808444496244,None,,,,,,,14,001,2023_Feb_10_1447,SpeechDraft1Carolyn_lessNoise,2021.2.3,60.03585712551501,
coach.wav,coach.mpg,coach,6,AV,Pink_Noise_6_1.wav,Pink_Noise_6_2.wav,,,,,,0,90,90,83,,,,,,,,,,,,,,,468.6380150630139,None,470.13793003500905,None,471.50475094496505,None,coach,471.50475094496505,None,return,1.7434784600045532,471.58803333796095,None,,,,,,,14,001,2023_Feb_10_1447,SpeechDraft1Carolyn_lessNoise,2021.2.3,60.03585712551501,
drug.wav,drug.mpg,drug,6,A,Pink_Noise_6_1.wav,Pink_Noise_6_2.wav,,,,,,0,91,91,39,,,,,,,,,,,,,,,473.3547730179853,None,474.854553408979,None,476.2382584469742,None,dress,476.2382584469742,None,return,0.7620981459622271,476.3214354160009,None,,,,,,,14,001,2023_Feb_10_1447,SpeechDraft1Carolyn_lessNoise,2021.2.3,60.03585712551501,
greek.wav,greek.mpg,greek,6,A,Pink_Noise_6_1.wav,Pink_Noise_6_2.wav,,,,,,0,92,92,24,,,,,,,,,,,,,,,477.1047318209894,None,478.58783673896687,None,479.9721443539602,None,creek,479.9721443539602,None,return,0.6128254109644331,480.0548099540174,None,,,,,,,14,001,2023_Feb_10_1447,SpeechDraft1Carolyn_lessNoise,2021.2.3,60.03585712551501,
bold.wav,bold.mpg,bold,4,AV,Pink_Noise_4_1.wav,Pink_Noise_4_2.wav,,,,,,0,93,93,117,,,,,,,,,,,,,,,480.6881420019781,None,482.187908597989,None,483.5713427439914,None,bold,483.5713427439914,None,return,0.78893074701773,483.6547223199741,None,,,,,,,14,001,2023_Feb_10_1447,SpeechDraft1Carolyn_lessNoise,2021.2.3,60.03585712551501,
fuel.wav,fuel.mpg,fuel,5,A,Pink_Noise_5_1.wav,Pink_Noise_5_2.wav,,,,,,0,94,94,25,,,,,,,,,,,,,,,484.47149426600663,None,485.95441508397926,None,487.3391451999778,None,freeze,487.3391451999778,None,return,3.614209990017116,487.42137391201686,None,,,,,,,14,001,2023_Feb_10_1447,SpeechDraft1Carolyn_lessNoise,2021.2.3,60.03585712551501,
tear.wav,tear.mpg,tear,4,A,Pink_Noise_4_1.wav,Pink_Noise_4_2.wav,,,,,,0,95,95,12,,,,,,,,,,,,,,,491.0547955489601,None,492.5396229539765,None,493.92137649300275,None,twirl,493.92137649300275,None,return,0.990807264985051,494.00478645798285,None,,,,,,,14,001,2023_Feb_10_1447,SpeechDraft1Carolyn_lessNoise,2021.2.3,60.03585712551501,
duck.wav,duck.mpg,duck,4,A,Pink_Noise_4_1.wav,Pink_Noise_4_2.wav,,,,,,0,96,96,38,,,,,,,,,,,,,,,495.0214047610061,None,496.5050993129844,None,497.8881212089909,None,"duck
",497.8881212089909,None,return,0.7521277850028127,497.97140565596055,None,,,,,,,14,001,2023_Feb_10_1447,SpeechDraft1Carolyn_lessNoise,2021.2.3,60.03585712551501,
bun.wav,bun.mpg,bun,4,AV,Pink_Noise_4_1.wav,Pink_Noise_4_2.wav,,,,,,0,97,97,77,,,,,,,,,,,,,,,498.754880574008,None,500.25470123201376,None,501.62158697098494,None,bug,501.62158697098494,None,return,0.810646596015431,501.70486829901347,None,,,,,,,14,001,2023_Feb_10_1447,SpeechDraft1Carolyn_lessNoise,2021.2.3,60.03585712551501,
champ.wav,champ.mpg,champ,2,A,Pink_Noise_2_1.wav,Pink_Noise_2_2.wav,,,,,,0,98,98,32,,,,,,,,,,,,,,,502.5381036460167,None,504.03791029396234,None,505.40470029000426,None,"champ
",505.40470029000426,None,return,0.6353706660447642,505.4881517039612,None,,,,,,,14,001,2023_Feb_10_1447,SpeechDraft1Carolyn_lessNoise,2021.2.3,60.03585712551501,
bark.wav,bark.mpg,bark,2,AV,Pink_Noise_2_1.wav,Pink_Noise_2_2.wav,,,,,,0,99,99,80,,,,,,,,,,,,,,,506.15491271199426,None,507.65465461998247,None,509.0380721979891,None,bark,509.0380721979891,None,return,0.8420375760179013,509.1214739269926,None,,,,,,,14,001,2023_Feb_10_1447,SpeechDraft1Carolyn_lessNoise,2021.2.3,60.03585712551501,
dread.wav,dread.mpg,dread,4,A,Pink_Noise_4_1.wav,Pink_Noise_4_2.wav,,,,,,0,100,100,40,,,,,,,,,,,,,,,509.98813568998594,None,511.4878187479917,None,512.871503930015,None,drag,512.871503930015,None,return,1.5046747300075367,512.9549300160143,None,,,,,,,14,001,2023_Feb_10_1447,SpeechDraft1Carolyn_lessNoise,2021.2.3,60.03585712551501,
coin.wav,coin.mpg,coin,1,A,Pink_Noise_1_1.wav,Pink_Noise_1_2.wav,,,,,,0,101,101,23,,,,,,,,,,,,,,,514.4881369579816,None,515.9728467349778,None,517.3548025920172,None,"coin
",517.3548025920172,None,return,2.71720384596847,517.4383283299976,None,,,,,,,14,001,2023_Feb_10_1447,SpeechDraft1Carolyn_lessNoise,2021.2.3,60.03585712551501,
fool.wav,fool.mpg,fool,2,A,Pink_Noise_2_1.wav,Pink_Noise_2_2.wav,,,,,,0,102,102,10,,,,,,,,,,,,,,,520.188176657015,None,521.6879571059835,None,523.0715426519746,None,pool,523.0715426519746,None,return,0.9126549210050143,523.1548497229815,None,,,,,,,14,001,2023_Feb_10_1447,SpeechDraft1Carolyn_lessNoise,2021.2.3,60.03585712551501,
fresh.wav,fresh.mpg,fresh,4,A,Pink_Noise_4_1.wav,Pink_Noise_4_2.wav,,,,,,0,103,103,46,,,,,,,,,,,,,,,524.0881493249908,None,525.5880498460028,None,526.9714604240144,None,fresh,526.9714604240144,None,return,0.932589266973082,527.0549973669695,None,,,,,,,14,001,2023_Feb_10_1447,SpeechDraft1Carolyn_lessNoise,2021.2.3,60.03585712551501,
clad.wav,clad.mpg,clad,4,AV,Pink_Noise_4_1.wav,Pink_Noise_4_2.wav,,,,,,0,104,104,108,,,,,,,,,,,,,,,528.0048729859991,None,529.4881841369788,None,530.8714951529982,None,"clag
",530.8714951529982,None,return,0.9686551410122775,530.9548776929732,None,,,,,,,14,001,2023_Feb_10_1447,SpeechDraft1Carolyn_lessNoise,2021.2.3,60.03585712551501,
bump.wav,bump.mpg,bump,2,A,Pink_Noise_2_1.wav,Pink_Noise_2_2.wav,,,,,,0,105,105,26,,,,,,,,,,,,,,,531.954782382003,None,533.4394552389858,None,534.8381838299683,None,"bug
",534.8381838299683,None,return,1.5860414869966917,534.921513416979,None,,,,,,,14,001,2023_Feb_10_1447,SpeechDraft1Carolyn_lessNoise,2021.2.3,60.03585712551501,
swan.wav,swan.mpg,swan,1,A,Pink_Noise_1_1.wav,Pink_Noise_1_2.wav,,,,,,0,106,106,11,,,,,,,,,,,,,,,536.5381878939806,None,538.0380697060027,None,539.4214853050071,None,"swan
",539.4214853050071,None,return,0.8027330909972079,539.5048115479876,None,,,,,,,14,001,2023_Feb_10_1447,SpeechDraft1Carolyn_lessNoise,2021.2.3,60.03585712551501,
fad.wav,fad.mpg,fad,5,AV,Pink_Noise_5_1.wav,Pink_Noise_5_2.wav,,,,,,0,107,107,86,,,,,,,,,,,,,,,540.3381764609949,None,541.8220255849883,None,543.2048046209966,None,fry,543.2048046209966,None,return,3.3713796990341507,543.2882383789984,None,,,,,,,14,001,2023_Feb_10_1447,SpeechDraft1Carolyn_lessNoise,2021.2.3,60.03585712551501,
gram.wav,gram.mpg,gram,5,A,Pink_Noise_5_1.wav,Pink_Noise_5_2.wav,,,,,,0,108,108,45,,,,,,,,,,,,,,,546.6881330090109,None,548.187976746005,None,549.5715238999692,None,clam,549.5715238999692,None,return,1.1246942130383104,549.6548282339936,None,,,,,,,14,001,2023_Feb_10_1447,SpeechDraft1Carolyn_lessNoise,2021.2.3,60.03585712551501,
teen.wav,teen.mpg,teen,5,A,Pink_Noise_5_1.wav,Pink_Noise_5_2.wav,,,,,,0,109,109,52,,,,,,,,,,,,,,,550.8049312499934,None,552.3046629710007,None,553.6882420270122,None,tool,553.6882420270122,None,return,1.1279121999978088,553.7716011989978,None,,,,,,,14,001,2023_Feb_10_1447,SpeechDraft1Carolyn_lessNoise,2021.2.3,60.03585712551501,
goose.wav,goose.mpg,goose,5,AV,Pink_Noise_5_1.wav,Pink_Noise_5_2.wav,,,,,,0,110,110,88,,,,,,,,,,,,,,,554.9215435239603,None,556.4214380179765,None,557.8049252940109,None,goose,557.8049252940109,None,return,0.9633859330206178,557.8881902649882,None,,,,,,,14,001,2023_Feb_10_1447,SpeechDraft1Carolyn_lessNoise,2021.2.3,60.03585712551501,
bathe.wav,bathe.mpg,bathe,1,A,Pink_Noise_1_1.wav,Pink_Noise_1_2.wav,,,,,,0,111,111,20,,,,,,,,,,,,,,,558.8715444870177,None,560.3713718809886,None,561.7382374709705,None,bathe,561.7382374709705,None,return,0.9499501480022445,561.821597898961,None,,,,,,,14,001,2023_Feb_10_1447,SpeechDraft1Carolyn_lessNoise,2021.2.3,60.03585712551501,
client.wav,client.mpg,client,4,AV,Pink_Noise_4_1.wav,Pink_Noise_4_2.wav,,,,,,0,112,112,62,,,,,,,,,,,,,,,562.7882387029822,None,564.2880210289732,None,565.6550499409786,None,client,565.6550499409786,None,return,1.6892590200295672,565.738329262007,None,,,,,,,14,001,2023_Feb_10_1447,SpeechDraft1Carolyn_lessNoise,2021.2.3,60.03585712551501,
claw.wav,claw.mpg,claw,3,A,Pink_Noise_3_1.wav,Pink_Noise_3_2.wav,,,,,,0,113,113,29,,,,,,,,,,,,,,,567.4548589769984,None,568.9547499119653,None,570.3383383469773,None,cloth,570.3383383469773,None,return,0.9579821990337223,570.4215328179998,None,,,,,,,14,001,2023_Feb_10_1447,SpeechDraft1Carolyn_lessNoise,2021.2.3,60.03585712551501,
awe.wav,awe.mpg,awe,3,AV,Pink_Noise_3_1.wav,Pink_Noise_3_2.wav,,,,,,0,114,114,105,,,,,,,,,,,,,,,571.4049575419631,None,572.9049760350026,None,574.2883358270046,None,awe,574.2883358270046,None,return,0.7759750479599461,574.3715460050153,None,,,,,,,14,001,2023_Feb_10_1447,SpeechDraft1Carolyn_lessNoise,2021.2.3,60.03585712551501,
bin.wav,bin.mpg,bin,6,AV,Pink_Noise_6_1.wav,Pink_Noise_6_2.wav,,,,,,0,115,115,93,,,,,,,,,,,,,,,575.1715705160168,None,576.7047071660054,None,578.0881299999892,None,bit,578.0881299999892,None,return,1.5119307480053976,578.1716000849847,None,,,,,,,14,001,2023_Feb_10_1447,SpeechDraft1Carolyn_lessNoise,2021.2.3,60.03585712551501,
blimp.wav,blimp.mpg,blimp,3,A,Pink_Noise_3_1.wav,Pink_Noise_3_2.wav,,,,,,0,116,116,0,,,,,,,,,,,,,,,579.7049380399985,None,581.2047851099633,None,582.5882051489898,None,flip,582.5882051489898,None,return,0.7639049820136279,582.6716260779649,None,,,,,,,14,001,2023_Feb_10_1447,SpeechDraft1Carolyn_lessNoise,2021.2.3,60.03585712551501,
gulf.wav,gulf.mpg,gulf,2,A,Pink_Noise_2_1.wav,Pink_Noise_2_2.wav,,,,,,0,117,117,28,,,,,,,,,,,,,,,583.4549368979642,None,584.9547651329776,None,586.3382204219815,None,golf,586.3382204219815,None,return,0.9419359960011207,586.421577045985,None,,,,,,,14,001,2023_Feb_10_1447,SpeechDraft1Carolyn_lessNoise,2021.2.3,60.03585712551501,
pants.wav,pants.mpg,pants,2,AV,Pink_Noise_2_1.wav,Pink_Noise_2_2.wav,,,,,,0,118,118,106,,,,,,,,,,,,,,,587.3882669219747,None,588.8882854609983,None,590.271484396013,None,pants,590.271484396013,None,return,1.488765524001792,590.3548900309834,None,,,,,,,14,001,2023_Feb_10_1447,SpeechDraft1Carolyn_lessNoise,2021.2.3,60.03585712551501,
crush.wav,crush.mpg,crush,3,A,Pink_Noise_3_1.wav,Pink_Noise_3_2.wav,,,,,,0,119,119,18,,,,,,,,,,,,,,,591.8716155230068,None,593.3714658489916,None,594.7549037850113,None,crush,594.7549037850113,None,return,0.9333300100406632,594.8382570730173,None,,,,,,,14,001,2023_Feb_10_1447,SpeechDraft1Carolyn_lessNoise,2021.2.3,60.03585712551501,
