Audio_Only_Files,Video_Files,Original_Word_List,noiseLevelCode,conditionCodes,noiseLevelFile1,noiseLevelFile2,InstrTextVar,targetSpeakerName,targetSpeakerEccen,targetSpkrChannel,targetSpkrSound,targetVisualDegrees,visStimLoc,visStimLoc2,visStimW,visStimH,practiceTrials.thisRepN,practiceTrials.thisTrialN,practiceTrials.thisN,practiceTrials.thisIndex,trials.thisRepN,trials.thisTrialN,trials.thisN,trials.thisIndex,audLocalLoop.thisRepN,audLocalLoop.thisTrialN,audLocalLoop.thisN,audLocalLoop.thisIndex,visualLocalLoop.thisRepN,visualLocalLoop.thisTrialN,visualLocalLoop.thisN,visualLocalLoop.thisIndex,letsGoAlready.keys,letsGoAlready.rt,letsGoAlready.started,letsGoAlready.stopped,text_2.started,text_2.stopped,text_3.started,text_3.stopped,key_resp_2.keys,key_resp_2.rt,key_resp_2.started,key_resp_2.stopped,text_5.started,text_5.stopped,fixCross.started,fixCross.stopped,fixCross2.started,fixCross2.stopped,answerPrompt.started,answerPrompt.stopped,getAnswer.text,getAnswer.started,getAnswer.stopped,goToNext.keys,goToNext.rt,goToNext.started,goToNext.stopped,stretchBreakTxrt.started,stretchBreakTxrt.stopped,key_resp_3.keys,key_resp_3.rt,key_resp_3.started,key_resp_3.stopped,letsGoLocal.keys,letsGoLocal.rt,letsGoLocal.started,letsGoLocal.stopped,text_4.started,text_4.stopped,prepFixTxt.started,prepFixTxt.stopped,prepFixTxt_2.started,prepFixTxt_2.stopped,respPromptLocal.started,respPromptLocal.stopped,slider.response,slider.rt,slider.started,slider.stopped,letsGoLocal_2.keys,letsGoLocal_2.rt,letsGoLocal_2.started,letsGoLocal_2.stopped,text_7.started,text_7.stopped,prepFixTxt_3.started,prepFixTxt_3.stopped,grating.started,grating.stopped,participant,session,date,expName,psychopyVersion,frameRate,
,,,,,,,,,,,,,,,,,,,,,,,,,,,,,,,,,space,7.645228969864547,11.951084333006293,None,,,,,,,,,,,,,,,,,,,,,,,,,,,,,,,,,,,,,,,,,,,,,,,,,,,,,,,,151,001,2024_Jan_18_1731,SpeechDraft1Carolyn_lessNoise_PlusLocalization,2021.2.3,59.93607910133411,
,,,,,,,,,,,,,,,,,,,,,,,,,,,,,,,,,,,,,11.951084333006293,None,19.734353806823492,None,space,1.5749596538953483,19.90133767388761,None,,,,,,,,,,,,,,,,,,,,,,,,,,,,,,,,,,,,,,,,,,,,,,,,151,001,2024_Jan_18_1731,SpeechDraft1Carolyn_lessNoise_PlusLocalization,2021.2.3,59.93607910133411,
ash.wav,ash.mpg,ash,1,A,Pink_Noise_1_1.wav,Pink_Noise_1_2.wav,"This is an example of an

AUDIO trial",,,,,,,,,,0,0,0,0,,,,,,,,,,,,,,,,,,,,,,,,,21.517510662786663,None,22.517930191010237,None,25.73456802405417,None,27.119015018921345,None,ash,27.119015018921345,None,return,1.7311842548660934,27.20116052683443,None,,,,,,,,,,,,,,,,,,,,,,,,,,,,,,,,,151,001,2024_Jan_18_1731,SpeechDraft1Carolyn_lessNoise_PlusLocalization,2021.2.3,59.93607910133411,
ash.wav,ash.mpg,ash,1,AV,Pink_Noise_1_1.wav,Pink_Noise_1_2.wav,"This is an example of an

AUDIO + VIDEO  trial",,,,,,,,,,0,1,1,1,,,,,,,,,,,,,,,,,,,,,,,,,28.967491494957358,None,29.967860323842615,None,31.467484585009515,None,32.85202591493726,None,"ash
",32.85202591493726,None,return,1.3019914207980037,32.93429733579978,None,,,,,,,,,,,,,,,,,,,,,,,,,,,,,,,,,151,001,2024_Jan_18_1731,SpeechDraft1Carolyn_lessNoise_PlusLocalization,2021.2.3,59.93607910133411,
,,,,,,,,,,,,,,,,,,,,,,,,,,,,,,,,,,,,,,,,,,,,,,,,,,,,,,,,,,,,34.28402563696727,None,space,0.9845468569546938,34.46775951003656,None,,,,,,,,,,,,,,,,,,,,,,,,,,,151,001,2024_Jan_18_1731,SpeechDraft1Carolyn_lessNoise_PlusLocalization,2021.2.3,59.93607910133411,
frame.wav,frame.mpg,frame,2,AV,Pink_Noise_2_1.wav,Pink_Noise_2_2.wav,,,,,,,,,,,,,,,0,0,0,93,,,,,,,,,,,,,,,,,,,,,,,35.50099407276139,None,37.000801771879196,None,38.3845950961113,None,frame,38.3845950961113,None,return,5.528577316086739,38.467745712958276,None,,,,,,,,,,,,,,,,,,,,,,,,,,,,,,,,,151,001,2024_Jan_18_1731,SpeechDraft1Carolyn_lessNoise_PlusLocalization,2021.2.3,59.93607910133411,
deal.wav,deal.mpg,deal,4,A,Pink_Noise_4_1.wav,Pink_Noise_4_2.wav,,,,,,,,,,,,,,,0,1,1,1,,,,,,,,,,,,,,,,,,,,,,,44.017931358888745,None,45.51818156475201,None,46.9011387526989,None,"will
",46.9011387526989,None,return,7.803557265084237,46.984754166100174,None,,,,,,,,,,,,,,,,,,,,,,,,,,,,,,,,,151,001,2024_Jan_18_1731,SpeechDraft1Carolyn_lessNoise_PlusLocalization,2021.2.3,59.93607910133411,
bar.wav,bar.mpg,bar,5,A,Pink_Noise_5_1.wav,Pink_Noise_5_2.wav,,,,,,,,,,,,,,,0,2,2,13,,,,,,,,,,,,,,,,,,,,,,,54.81788527779281,None,56.31756840599701,None,57.7014247328043,None,fun,57.7014247328043,None,return,8.811905284877867,57.78440953698009,None,,,,,,,,,,,,,,,,,,,,,,,,,,,,,,,,,151,001,2024_Jan_18_1731,SpeechDraft1Carolyn_lessNoise_PlusLocalization,2021.2.3,59.93607910133411,
clumps.wav,clumps.mpg,clumps,6,AV,Pink_Noise_6_1.wav,Pink_Noise_6_2.wav,,,,,,,,,,,,,,,0,3,3,74,,,,,,,,,,,,,,,,,,,,,,,66.6180068841204,None,68.11825057910755,None,69.50102007901296,None,"clips
",69.50102007901296,None,return,6.283635857980698,69.58466692082584,None,,,,,,,,,,,,,,,,,,,,,,,,,,,,,,,,,151,001,2024_Jan_18_1731,SpeechDraft1Carolyn_lessNoise_PlusLocalization,2021.2.3,59.93607910133411,
eat.wav,eat.mpg,eat,3,AV,Pink_Noise_3_1.wav,Pink_Noise_3_2.wav,,,,,,,,,,,,,,,0,4,4,113,,,,,,,,,,,,,,,,,,,,,,,75.90111836884171,None,77.40256931912154,None,78.78448170609772,None,eat,78.78448170609772,None,return,2.4403754798695445,78.86800430808216,None,,,,,,,,,,,,,,,,,,,,,,,,,,,,,,,,,151,001,2024_Jan_18_1731,SpeechDraft1Carolyn_lessNoise_PlusLocalization,2021.2.3,59.93607910133411,
dog.wav,dog.mpg,dog,2,AV,Pink_Noise_2_1.wav,Pink_Noise_2_2.wav,,,,,,,,,,,,,,,0,5,5,105,,,,,,,,,,,,,,,,,,,,,,,81.33463991479948,None,82.8508385270834,None,84.23456775490195,None,dog,84.23456775490195,None,return,1.878376565873623,84.31795064872131,None,,,,,,,,,,,,,,,,,,,,,,,,,,,,,,,,,151,001,2024_Jan_18_1731,SpeechDraft1Carolyn_lessNoise_PlusLocalization,2021.2.3,59.93607910133411,
dice.wav,dice.mpg,dice,2,AV,Pink_Noise_2_1.wav,Pink_Noise_2_2.wav,,,,,,,,,,,,,,,0,6,6,101,,,,,,,,,,,,,,,,,,,,,,,86.21793181682006,None,87.71754527371377,None,89.10108703700826,None,dice,89.10108703700826,None,return,1.7237342898733914,89.18467850377783,None,,,,,,,,,,,,,,,,,,,,,,,,,,,,,,,,,151,001,2024_Jan_18_1731,SpeechDraft1Carolyn_lessNoise_PlusLocalization,2021.2.3,59.93607910133411,
fun.wav,fun.mpg,fun,4,AV,Pink_Noise_4_1.wav,Pink_Noise_4_2.wav,,,,,,,,,,,,,,,0,7,7,100,,,,,,,,,,,,,,,,,,,,,,,90.9346739538014,None,92.43553803814575,None,93.81792605575174,None,friend,93.81792605575174,None,return,13.655144568067044,93.90121728507802,None,,,,,,,,,,,,,,,,,,,,,,,,,,,,,,,,,151,001,2024_Jan_18_1731,SpeechDraft1Carolyn_lessNoise_PlusLocalization,2021.2.3,59.93607910133411,
chick.wav,chick.mpg,chick,4,AV,Pink_Noise_4_1.wav,Pink_Noise_4_2.wav,,,,,,,,,,,,,,,0,8,8,103,,,,,,,,,,,,,,,,,,,,,,,107.58472386887297,None,109.08442733902484,None,110.4679568069987,None,chair,110.4679568069987,None,return,2.4767192280851305,110.55157745582983,None,,,,,,,,,,,,,,,,,,,,,,,,,,,,,,,,,151,001,2024_Jan_18_1731,SpeechDraft1Carolyn_lessNoise_PlusLocalization,2021.2.3,59.93607910133411,
blow.wav,blow.mpg,blow,2,A,Pink_Noise_2_1.wav,Pink_Noise_2_2.wav,,,,,,,,,,,,,,,0,9,9,24,,,,,,,,,,,,,,,,,,,,,,,113.05151247000322,None,114.55144072277471,None,115.93474134569988,None,"low
",115.93474134569988,None,return,1.450233185198158,116.01808896614239,None,,,,,,,,,,,,,,,,,,,,,,,,,,,,,,,,,151,001,2024_Jan_18_1731,SpeechDraft1Carolyn_lessNoise_PlusLocalization,2021.2.3,59.93607910133411,
lead.wav,lead.mpg,lead,5,AV,Pink_Noise_5_1.wav,Pink_Noise_5_2.wav,,,,,,,,,,,,,,,0,10,10,85,,,,,,,,,,,,,,,,,,,,,,,117.50131421489641,None,119.01780680892989,None,120.4010739508085,None,"leg
",120.4010739508085,None,return,2.983768899925053,120.48454167414457,None,,,,,,,,,,,,,,,,,,,,,,,,,,,,,,,,,151,001,2024_Jan_18_1731,SpeechDraft1Carolyn_lessNoise_PlusLocalization,2021.2.3,59.93607910133411,
thief.wav,thief.mpg,thief,6,AV,Pink_Noise_6_1.wav,Pink_Noise_6_2.wav,,,,,,,,,,,,,,,0,11,11,118,,,,,,,,,,,,,,,,,,,,,,,123.5013492028229,None,125.00111044803634,None,126.38452190393582,None,thief,126.38452190393582,None,return,7.82429158501327,126.46800737502053,None,,,,,,,,,,,,,,,,,,,,,,,,,,,,,,,,,151,001,2024_Jan_18_1731,SpeechDraft1Carolyn_lessNoise_PlusLocalization,2021.2.3,59.93607910133411,
freak.wav,freak.mpg,freak,4,A,Pink_Noise_4_1.wav,Pink_Noise_4_2.wav,,,,,,,,,,,,,,,0,12,12,27,,,,,,,,,,,,,,,,,,,,,,,134.3181154918857,None,135.81764295883477,None,137.2011733581312,None,"sleep
",137.2011733581312,None,return,4.103581145871431,137.2847209200263,None,,,,,,,,,,,,,,,,,,,,,,,,,,,,,,,,,151,001,2024_Jan_18_1731,SpeechDraft1Carolyn_lessNoise_PlusLocalization,2021.2.3,59.93607910133411,
bank.wav,bank.mpg,bank,4,AV,Pink_Noise_4_1.wav,Pink_Noise_4_2.wav,,,,,,,,,,,,,,,0,13,13,84,,,,,,,,,,,,,,,,,,,,,,,141.4181415187195,None,142.91777335712686,None,144.30134954769164,None,"bed
",144.30134954769164,None,return,5.635840815957636,144.38446262013167,None,,,,,,,,,,,,,,,,,,,,,,,,,,,,,,,,,151,001,2024_Jan_18_1731,SpeechDraft1Carolyn_lessNoise_PlusLocalization,2021.2.3,59.93607910133411,
glow.wav,glow.mpg,glow,2,A,Pink_Noise_2_1.wav,Pink_Noise_2_2.wav,,,,,,,,,,,,,,,0,14,14,8,,,,,,,,,,,,,,,,,,,,,,,150.05139401974156,None,151.55127918208018,None,152.93456232501194,None,"glow
",152.93456232501194,None,return,4.434400576166809,153.01790221780539,None,,,,,,,,,,,,,,,,,,,,,,,,,,,,,,,,,151,001,2024_Jan_18_1731,SpeechDraft1Carolyn_lessNoise_PlusLocalization,2021.2.3,59.93607910133411,
strike.wav,strike.mpg,strike,2,A,Pink_Noise_2_1.wav,Pink_Noise_2_2.wav,,,,,,,,,,,,,,,0,15,15,16,,,,,,,,,,,,,,,,,,,,,,,157.4847352169454,None,158.98446589987725,None,160.36809637071565,None,stretch,160.36809637071565,None,return,2.977013267111033,160.45128373801708,None,,,,,,,,,,,,,,,,,,,,,,,,,,,,,,,,,151,001,2024_Jan_18_1731,SpeechDraft1Carolyn_lessNoise_PlusLocalization,2021.2.3,59.93607910133411,
awe.wav,awe.mpg,awe,2,AV,Pink_Noise_2_1.wav,Pink_Noise_2_2.wav,,,,,,,,,,,,,,,0,16,16,82,,,,,,,,,,,,,,,,,,,,,,,163.4515585959889,None,164.95121110370383,None,166.33473146893084,None,arm,166.33473146893084,None,return,4.978401045780629,166.41790679469705,None,,,,,,,,,,,,,,,,,,,,,,,,,,,,,,,,,151,001,2024_Jan_18_1731,SpeechDraft1Carolyn_lessNoise_PlusLocalization,2021.2.3,59.93607910133411,
spire.wav,spire.mpg,spire,5,A,Pink_Noise_5_1.wav,Pink_Noise_5_2.wav,,,,,,,,,,,,,,,0,17,17,12,,,,,,,,,,,,,,,,,,,,,,,171.41810921113938,None,172.91781326197088,None,174.30137117998675,None,smile,174.30137117998675,None,return,2.1156287691555917,174.3847850537859,None,,,,,,,,,,,,,,,,,,,,,,,,,,,,,,,,,151,001,2024_Jan_18_1731,SpeechDraft1Carolyn_lessNoise_PlusLocalization,2021.2.3,59.93607910133411,
spray.wav,spray.mpg,spray,3,A,Pink_Noise_3_1.wav,Pink_Noise_3_2.wav,,,,,,,,,,,,,,,0,18,18,18,,,,,,,,,,,,,,,,,,,,,,,176.51801731390879,None,178.01869714306667,None,179.40144817577675,None,spread,179.40144817577675,None,return,2.679678110871464,179.48468441190198,None,,,,,,,,,,,,,,,,,,,,,,,,,,,,,,,,,151,001,2024_Jan_18_1731,SpeechDraft1Carolyn_lessNoise_PlusLocalization,2021.2.3,59.93607910133411,
phase.wav,phase.mpg,phase,3,A,Pink_Noise_3_1.wav,Pink_Noise_3_2.wav,,,,,,,,,,,,,,,0,19,19,35,,,,,,,,,,,,,,,,,,,,,,,182.18469613278285,None,183.68431627191603,None,185.06795555679128,None,face,185.06795555679128,None,return,1.9648426109924912,185.15154189476743,None,,,,,,,,,,,,,,,,,,,,,,,,,,,,,,,,,151,001,2024_Jan_18_1731,SpeechDraft1Carolyn_lessNoise_PlusLocalization,2021.2.3,59.93607910133411,
crust.wav,crust.mpg,crust,4,AV,Pink_Noise_4_1.wav,Pink_Noise_4_2.wav,,,,,,,,,,,,,,,0,20,20,97,,,,,,,,,,,,,,,,,,,,,,,187.13468845188618,None,188.6347760539502,None,190.01779298577458,None,crust,190.01779298577458,None,return,5.830823133233935,190.10148055572063,None,,,,,,,,,,,,,,,,,,,,,,,,,,,,,,,,,151,001,2024_Jan_18_1731,SpeechDraft1Carolyn_lessNoise_PlusLocalization,2021.2.3,59.93607910133411,
fear.wav,fear.mpg,fear,3,AV,Pink_Noise_3_1.wav,Pink_Noise_3_2.wav,,,,,,,,,,,,,,,0,21,21,110,,,,,,,,,,,,,,,,,,,,,,,195.9513475941494,None,197.46803042013198,None,198.83472789498046,None,fear,198.83472789498046,None,return,1.7583351796492934,198.91797869093716,None,,,,,,,,,,,,,,,,,,,,,,,,,,,,,,,,,151,001,2024_Jan_18_1731,SpeechDraft1Carolyn_lessNoise_PlusLocalization,2021.2.3,59.93607910133411,
brake.wav,brake.mpg,brake,6,AV,Pink_Noise_6_1.wav,Pink_Noise_6_2.wav,,,,,,,,,,,,,,,0,22,22,95,,,,,,,,,,,,,,,,,,,,,,,200.70141087379307,None,202.20302508072928,None,203.58479967573658,None,break,203.58479967573658,None,return,4.112377095967531,203.66794129600748,None,,,,,,,,,,,,,,,,,,,,,,,,,,,,,,,,,151,001,2024_Jan_18_1731,SpeechDraft1Carolyn_lessNoise_PlusLocalization,2021.2.3,59.93607910133411,
cheer.wav,cheer.mpg,cheer,3,AV,Pink_Noise_3_1.wav,Pink_Noise_3_2.wav,,,,,,,,,,,,,,,0,23,23,116,,,,,,,,,,,,,,,,,,,,,,,207.80134211480618,None,209.30163911078125,None,210.68469748273492,None,cheer,210.68469748273492,None,return,2.340306702069938,210.76814376283437,None,,,,,,,,,,,,,,,,,,,,,,,,,,,,,,,,,151,001,2024_Jan_18_1731,SpeechDraft1Carolyn_lessNoise_PlusLocalization,2021.2.3,59.93607910133411,
fierce.wav,fierce.mpg,fierce,2,A,Pink_Noise_2_1.wav,Pink_Noise_2_2.wav,,,,,,,,,,,,,,,0,24,24,19,,,,,,,,,,,,,,,,,,,,,,,213.1349293338135,None,214.63455009972677,None,216.01812652684748,None,"fierce
",216.01812652684748,None,return,7.102888414170593,216.10142594203353,None,,,,,,,,,,,,,,,,,,,,,,,,,,,,,,,,,151,001,2024_Jan_18_1731,SpeechDraft1Carolyn_lessNoise_PlusLocalization,2021.2.3,59.93607910133411,
badge.wav,badge.mpg,badge,6,A,Pink_Noise_6_1.wav,Pink_Noise_6_2.wav,,,,,,,,,,,,,,,0,25,25,44,,,,,,,,,,,,,,,,,,,,,,,223.23470382392406,None,224.73450099071488,None,226.11812848597765,None,forge,226.11812848597765,None,return,5.210901579353958,226.20147589500993,None,,,,,,,,,,,,,,,,,,,,,,,,,,,,,,,,,151,001,2024_Jan_18_1731,SpeechDraft1Carolyn_lessNoise_PlusLocalization,2021.2.3,59.93607910133411,
fill.wav,fill.mpg,fill,5,AV,Pink_Noise_5_1.wav,Pink_Noise_5_2.wav,,,,,,,,,,,,,,,0,26,26,79,,,,,,,,,,,,,,,,,,,,,,,231.43492838181555,None,232.95121174585074,None,234.33489947998896,None,fill,234.33489947998896,None,return,1.874152508098632,234.41823657602072,None,,,,,,,,,,,,,,,,,,,,,,,,,,,,,,,,,151,001,2024_Jan_18_1731,SpeechDraft1Carolyn_lessNoise_PlusLocalization,2021.2.3,59.93607910133411,
thrown.wav,thrown.mpg,thrown,6,AV,Pink_Noise_6_1.wav,Pink_Noise_6_2.wav,,,,,,,,,,,,,,,0,27,27,104,,,,,,,,,,,,,,,,,,,,,,,236.31800173409283,None,237.81812327215448,None,239.20156647311524,None,throw,239.20156647311524,None,return,3.8635179600678384,239.28484416287392,None,,,,,,,,,,,,,,,,,,,,,,,,,,,,,,,,,151,001,2024_Jan_18_1731,SpeechDraft1Carolyn_lessNoise_PlusLocalization,2021.2.3,59.93607910133411,
beat.wav,beat.mpg,beat,1,A,Pink_Noise_1_1.wav,Pink_Noise_1_2.wav,,,,,,,,,,,,,,,0,28,28,40,,,,,,,,,,,,,,,,,,,,,,,243.1680087321438,None,244.66791613213718,None,246.05143881076947,None,beat,246.05143881076947,None,return,1.5254395622760057,246.13485041679814,None,,,,,,,,,,,,,,,,,,,,,,,,,,,,,,,,,151,001,2024_Jan_18_1731,SpeechDraft1Carolyn_lessNoise_PlusLocalization,2021.2.3,59.93607910133411,
coup.wav,coup.mpg,coup,4,AV,Pink_Noise_4_1.wav,Pink_Noise_4_2.wav,,,,,,,,,,,,,,,0,29,29,90,,,,,,,,,,,,,,,,,,,,,,,247.68463256489486,None,249.20138215087354,None,250.5848352550529,None,crew,250.5848352550529,None,return,1.9041444398462772,250.6681487308815,None,,,,,,,,,,,,,,,,,,,,,,,,,,,,,,,,,151,001,2024_Jan_18_1731,SpeechDraft1Carolyn_lessNoise_PlusLocalization,2021.2.3,59.93607910133411,
crate.wav,crate.mpg,crate,4,A,Pink_Noise_4_1.wav,Pink_Noise_4_2.wav,,,,,,,,,,,,,,,0,30,30,59,,,,,,,,,,,,,,,,,,,,,,,252.60151809593663,None,254.10168597009033,None,255.4847272527404,None,quit,255.4847272527404,None,return,4.692239578813314,255.5681060780771,None,,,,,,,,,,,,,,,,,,,,,,,,,,,,,,,,,151,001,2024_Jan_18_1731,SpeechDraft1Carolyn_lessNoise_PlusLocalization,2021.2.3,59.93607910133411,
frail.wav,frail.mpg,frail,1,A,Pink_Noise_1_1.wav,Pink_Noise_1_2.wav,,,,,,,,,,,,,,,0,31,31,25,,,,,,,,,,,,,,,,,,,,,,,260.28476291289553,None,261.7864258280024,None,263.1680106120184,None,frail,263.1680106120184,None,return,6.640496700070798,263.2517939787358,None,,,,,,,,,,,,,,,,,,,,,,,,,,,,,,,,,151,001,2024_Jan_18_1731,SpeechDraft1Carolyn_lessNoise_PlusLocalization,2021.2.3,59.93607910133411,
film.wav,film.mpg,film,3,AV,Pink_Noise_3_1.wav,Pink_Noise_3_2.wav,,,,,,,,,,,,,,,0,32,32,70,,,,,,,,,,,,,,,,,,,,,,,269.91801099991426,None,271.4196581747383,None,272.8014910011552,None,fill,272.8014910011552,None,return,4.127366470173001,272.88492759596556,None,,,,,,,,,,,,,,,,,,,,,,,,,,,,,,,,,151,001,2024_Jan_18_1731,SpeechDraft1Carolyn_lessNoise_PlusLocalization,2021.2.3,59.93607910133411,
freeze.wav,freeze.mpg,freeze,2,AV,Pink_Noise_2_1.wav,Pink_Noise_2_2.wav,,,,,,,,,,,,,,,0,33,33,77,,,,,,,,,,,,,,,,,,,,,,,277.03472180105746,None,278.5344685870223,None,279.91806029202417,None,freeze,279.91806029202417,None,return,2.210705954115838,280.0015577948652,None,,,,,,,,,,,,,,,,,,,,,,,,,,,,,,,,,151,001,2024_Jan_18_1731,SpeechDraft1Carolyn_lessNoise_PlusLocalization,2021.2.3,59.93607910133411,
toy.wav,toy.mpg,toy,6,A,Pink_Noise_6_1.wav,Pink_Noise_6_2.wav,,,,,,,,,,,,,,,0,34,34,14,,,,,,,,,,,,,,,,,,,,,,,282.2348231486976,None,283.7514736317098,None,285.1350081008859,None,throw,285.1350081008859,None,return,3.930205973330885,285.21813919302076,None,,,,,,,,,,,,,,,,,,,,,,,,,,,,,,,,,151,001,2024_Jan_18_1731,SpeechDraft1Carolyn_lessNoise_PlusLocalization,2021.2.3,59.93607910133411,
skull.wav,skull.mpg,skull,4,A,Pink_Noise_4_1.wav,Pink_Noise_4_2.wav,,,,,,,,,,,,,,,0,35,35,50,,,,,,,,,,,,,,,,,,,,,,,289.1680968720466,None,290.6846481608227,None,292.0682830750011,None,skull,292.0682830750011,None,return,2.5888167447410524,292.1516510709189,None,,,,,,,,,,,,,,,,,,,,,,,,,,,,,,,,,151,001,2024_Jan_18_1731,SpeechDraft1Carolyn_lessNoise_PlusLocalization,2021.2.3,59.93607910133411,
four.wav,four.mpg,four,3,AV,Pink_Noise_3_1.wav,Pink_Noise_3_2.wav,,,,,,,,,,,,,,,0,36,36,106,,,,,,,,,,,,,,,,,,,,,,,294.7681579980999,None,296.28475355682895,None,297.6681825607084,None,"for
",297.6681825607084,None,return,1.8688031360507011,297.75149613805115,None,,,,,,,,,,,,,,,,,,,,,,,,,,,,,,,,,151,001,2024_Jan_18_1731,SpeechDraft1Carolyn_lessNoise_PlusLocalization,2021.2.3,59.93607910133411,
fuel.wav,fuel.mpg,fuel,1,AV,Pink_Noise_1_1.wav,Pink_Noise_1_2.wav,,,,,,,,,,,,,,,0,37,37,73,,,,,,,,,,,,,,,,,,,,,,,299.6516101360321,None,301.16790083795786,None,302.551696955692,None,fuel,302.551696955692,None,return,3.4736242359504104,302.63474374311045,None,,,,,,,,,,,,,,,,,,,,,,,,,,,,,,,,,151,001,2024_Jan_18_1731,SpeechDraft1Carolyn_lessNoise_PlusLocalization,2021.2.3,59.93607910133411,
barge.wav,barge.mpg,barge,1,AV,Pink_Noise_1_1.wav,Pink_Noise_1_2.wav,,,,,,,,,,,,,,,0,38,38,67,,,,,,,,,,,,,,,,,,,,,,,306.13497644569725,None,307.6515317019075,None,309.0348136597313,None,"barge
",309.0348136597313,None,return,1.7021403973922133,309.1181460269727,None,,,,,,,,,,,,,,,,,,,,,,,,,,,,,,,,,151,001,2024_Jan_18_1731,SpeechDraft1Carolyn_lessNoise_PlusLocalization,2021.2.3,59.93607910133411,
beige.wav,beige.mpg,beige,1,A,Pink_Noise_1_1.wav,Pink_Noise_1_2.wav,,,,,,,,,,,,,,,0,39,39,36,,,,,,,,,,,,,,,,,,,,,,,310.8517001410946,None,312.3512722919695,None,313.7350666378625,None,beige,313.7350666378625,None,return,1.9620234118774533,313.8182780649513,None,,,,,,,,,,,,,,,,,,,,,,,,,,,,,,,,,151,001,2024_Jan_18_1731,SpeechDraft1Carolyn_lessNoise_PlusLocalization,2021.2.3,59.93607910133411,
chew.wav,chew.mpg,chew,1,A,Pink_Noise_1_1.wav,Pink_Noise_1_2.wav,,,,,,,,,,,,,,,0,40,40,33,,,,,,,,,,,,,,,,,,,,,,,315.8016192037612,None,317.30218125507236,None,318.68491364689544,None,chew,318.68491364689544,None,return,1.060179699677974,318.7681165197864,None,,,,,,,,,,,,,,,,,,,,,,,,,,,,,,,,,151,001,2024_Jan_18_1731,SpeechDraft1Carolyn_lessNoise_PlusLocalization,2021.2.3,59.93607910133411,
chow.wav,chow.mpg,chow,1,A,Pink_Noise_1_1.wav,Pink_Noise_1_2.wav,,,,,,,,,,,,,,,0,41,41,53,,,,,,,,,,,,,,,,,,,,,,,319.85148769104853,None,321.35283028380945,None,322.7347478107549,None,choke,322.7347478107549,None,return,2.577965799253434,322.81832563178614,None,,,,,,,,,,,,,,,,,,,,,,,,,,,,,,,,,151,001,2024_Jan_18_1731,SpeechDraft1Carolyn_lessNoise_PlusLocalization,2021.2.3,59.93607910133411,
cause.wav,cause.mpg,cause,6,A,Pink_Noise_6_1.wav,Pink_Noise_6_2.wav,,,,,,,,,,,,,,,0,42,42,56,,,,,,,,,,,,,,,,,,,,,,,325.41825256170705,None,326.93470143713057,None,328.31845410401,None,rice,328.31845410401,None,return,8.27472821669653,328.4015686758794,None,,,,,,,,,,,,,,,,,,,,,,,,,,,,,,,,,151,001,2024_Jan_18_1731,SpeechDraft1Carolyn_lessNoise_PlusLocalization,2021.2.3,59.93607910133411,
fad.wav,fad.mpg,fad,1,AV,Pink_Noise_1_1.wav,Pink_Noise_1_2.wav,,,,,,,,,,,,,,,0,43,43,112,,,,,,,,,,,,,,,,,,,,,,,336.701672563795,None,338.2180601977743,None,339.58500414993614,None,"fed
",339.58500414993614,None,return,1.9361700261943042,339.66813184600323,None,,,,,,,,,,,,,,,,,,,,,,,,,,,,,,,,,151,001,2024_Jan_18_1731,SpeechDraft1Carolyn_lessNoise_PlusLocalization,2021.2.3,59.93607910133411,
brown.wav,brown.mpg,brown,1,AV,Pink_Noise_1_1.wav,Pink_Noise_1_2.wav,,,,,,,,,,,,,,,0,44,44,96,,,,,,,,,,,,,,,,,,,,,,,341.6349576949142,None,343.1350031537004,None,344.51824745582417,None,"brown
",344.51824745582417,None,return,6.018762880004942,344.601546861697,None,,,,,,,,,,,,,,,,,,,,,,,,,,,,,,,,,151,001,2024_Jan_18_1731,SpeechDraft1Carolyn_lessNoise_PlusLocalization,2021.2.3,59.93607910133411,
flu.wav,flu.mpg,flu,5,A,Pink_Noise_5_1.wav,Pink_Noise_5_2.wav,,,,,,,,,,,,,,,0,45,45,10,,,,,,,,,,,,,,,,,,,,,,,350.6517178299837,None,352.15120598999783,None,353.5350471078418,None,seize,353.5350471078418,None,return,2.722076585981995,353.61830838769674,None,,,,,,,,,,,,,,,,,,,,,,,,,,,,,,,,,151,001,2024_Jan_18_1731,SpeechDraft1Carolyn_lessNoise_PlusLocalization,2021.2.3,59.93607910133411,
tear.wav,tear.mpg,tear,5,AV,Pink_Noise_5_1.wav,Pink_Noise_5_2.wav,,,,,,,,,,,,,,,0,46,46,86,,,,,,,,,,,,,,,,,,,,,,,356.3684438187629,None,357.88457618886605,None,359.2684568450786,None,sell,359.2684568450786,None,return,1.5644563431851566,359.35184765188023,None,,,,,,,,,,,,,,,,,,,,,,,,,,,,,,,,,151,001,2024_Jan_18_1731,SpeechDraft1Carolyn_lessNoise_PlusLocalization,2021.2.3,59.93607910133411,
hug.wav,hug.mpg,hug,5,A,Pink_Noise_5_1.wav,Pink_Noise_5_2.wav,,,,,,,,,,,,,,,0,47,47,22,,,,,,,,,,,,,,,,,,,,,,,360.93506362475455,None,362.4349529040046,None,363.81832123873755,None,spice,363.81832123873755,None,return,3.9105860120616853,363.9017058047466,None,,,,,,,,,,,,,,,,,,,,,,,,,,,,,,,,,151,001,2024_Jan_18_1731,SpeechDraft1Carolyn_lessNoise_PlusLocalization,2021.2.3,59.93607910133411,
bless.wav,bless.mpg,bless,3,A,Pink_Noise_3_1.wav,Pink_Noise_3_2.wav,,,,,,,,,,,,,,,0,48,48,26,,,,,,,,,,,,,,,,,,,,,,,367.8349735341035,None,369.3513211091049,None,370.7181691736914,None,"less
",370.7181691736914,None,return,6.6185467299073935,370.8017577417195,None,,,,,,,,,,,,,,,,,,,,,,,,,,,,,,,,,151,001,2024_Jan_18_1731,SpeechDraft1Carolyn_lessNoise_PlusLocalization,2021.2.3,59.93607910133411,
fade.wav,fade.mpg,fade,5,AV,Pink_Noise_5_1.wav,Pink_Noise_5_2.wav,,,,,,,,,,,,,,,0,49,49,99,,,,,,,,,,,,,,,,,,,,,,,377.4515911419876,None,378.9681229698472,None,380.3518366427161,None,fake,380.3518366427161,None,return,2.2974050622433424,380.4349174480885,None,,,,,,,,,,,,,,,,,,,,,,,,,,,,,,,,,151,001,2024_Jan_18_1731,SpeechDraft1Carolyn_lessNoise_PlusLocalization,2021.2.3,59.93607910133411,
clerk.wav,clerk.mpg,clerk,6,A,Pink_Noise_6_1.wav,Pink_Noise_6_2.wav,,,,,,,,,,,,,,,0,50,50,37,,,,,,,,,,,,,,,,,,,,,,,382.751666193828,None,384.26792889274657,None,385.65167164988816,None,snake,385.65167164988816,None,return,1.6611989070661366,385.7350950730033,None,,,,,,,,,,,,,,,,,,,,,,,,,,,,,,,,,151,001,2024_Jan_18_1731,SpeechDraft1Carolyn_lessNoise_PlusLocalization,2021.2.3,59.93607910133411,
ask.wav,ask.mpg,ask,3,A,Pink_Noise_3_1.wav,Pink_Noise_3_2.wav,,,,,,,,,,,,,,,0,51,51,55,,,,,,,,,,,,,,,,,,,,,,,387.41854934906587,None,388.9345581140369,None,390.3186420891434,None,ask,390.3186420891434,None,return,1.2908076881431043,390.4015570478514,None,,,,,,,,,,,,,,,,,,,,,,,,,,,,,,,,,151,001,2024_Jan_18_1731,SpeechDraft1Carolyn_lessNoise_PlusLocalization,2021.2.3,59.93607910133411,
friend.wav,friend.mpg,friend,2,AV,Pink_Noise_2_1.wav,Pink_Noise_2_2.wav,,,,,,,,,,,,,,,0,52,52,80,,,,,,,,,,,,,,,,,,,,,,,391.7185177919455,None,393.21854081982747,None,394.6016275701113,None,friend,394.6016275701113,None,return,1.6632081870920956,394.68520734878257,None,,,,,,,,,,,,,,,,,,,,,,,,,,,,,,,,,151,001,2024_Jan_18_1731,SpeechDraft1Carolyn_lessNoise_PlusLocalization,2021.2.3,59.93607910133411,
fly.wav,fly.mpg,fly,3,A,Pink_Noise_3_1.wav,Pink_Noise_3_2.wav,,,,,,,,,,,,,,,0,53,53,28,,,,,,,,,,,,,,,,,,,,,,,396.3684926177375,None,397.8680353560485,None,399.25153297604993,None,fly,399.25153297604993,None,return,1.461177243385464,399.33514647977427,None,,,,,,,,,,,,,,,,,,,,,,,,,,,,,,,,,151,001,2024_Jan_18_1731,SpeechDraft1Carolyn_lessNoise_PlusLocalization,2021.2.3,59.93607910133411,
grip.wav,grip.mpg,grip,5,A,Pink_Noise_5_1.wav,Pink_Noise_5_2.wav,,,,,,,,,,,,,,,0,54,54,9,,,,,,,,,,,,,,,,,,,,,,,400.8183283940889,None,402.33487562602386,None,403.71842528507113,None,"switch
",403.71842528507113,None,return,3.0185309345833957,403.8017805661075,None,,,,,,,,,,,,,,,,,,,,,,,,,,,,,,,,,151,001,2024_Jan_18_1731,SpeechDraft1Carolyn_lessNoise_PlusLocalization,2021.2.3,59.93607910133411,
beast.wav,beast.mpg,beast,3,A,Pink_Noise_3_1.wav,Pink_Noise_3_2.wav,,,,,,,,,,,,,,,0,55,55,39,,,,,,,,,,,,,,,,,,,,,,,406.85183178493753,None,408.3524826881476,None,409.73512342898175,None,"beast
",409.73512342898175,None,return,1.8018370401114225,409.818465675693,None,,,,,,,,,,,,,,,,,,,,,,,,,,,,,,,,,151,001,2024_Jan_18_1731,SpeechDraft1Carolyn_lessNoise_PlusLocalization,2021.2.3,59.93607910133411,
script.wav,script.mpg,script,5,AV,Pink_Noise_5_1.wav,Pink_Noise_5_2.wav,,,,,,,,,,,,,,,0,56,56,63,,,,,,,,,,,,,,,,,,,,,,,411.6517344098538,None,413.16787863895297,None,414.5517790080048,None,stripe,414.5517790080048,None,return,3.9291825951077044,414.63514384115115,None,,,,,,,,,,,,,,,,,,,,,,,,,,,,,,,,,151,001,2024_Jan_18_1731,SpeechDraft1Carolyn_lessNoise_PlusLocalization,2021.2.3,59.93607910133411,
ton.wav,ton.mpg,ton,6,A,Pink_Noise_6_1.wav,Pink_Noise_6_2.wav,,,,,,,,,,,,,,,0,57,57,4,,,,,,,,,,,,,,,,,,,,,,,418.5851249718107,None,420.1014283550903,None,421.48526714509353,None,"slay
",421.48526714509353,None,return,5.403914427850395,421.56837464589626,None,,,,,,,,,,,,,,,,,,,,,,,,,,,,,,,,,151,001,2024_Jan_18_1731,SpeechDraft1Carolyn_lessNoise_PlusLocalization,2021.2.3,59.93607910133411,
cloud.wav,cloud.mpg,cloud,4,AV,Pink_Noise_4_1.wav,Pink_Noise_4_2.wav,,,,,,,,,,,,,,,0,58,58,69,,,,,,,,,,,,,,,,,,,,,,,427.00179754570127,None,428.5183772407472,None,429.9017915907316,None,cloud,429.9017915907316,None,return,1.795321743004024,429.9849821017124,None,,,,,,,,,,,,,,,,,,,,,,,,,,,,,,,,,151,001,2024_Jan_18_1731,SpeechDraft1Carolyn_lessNoise_PlusLocalization,2021.2.3,59.93607910133411,
flood.wav,flood.mpg,flood,3,AV,Pink_Noise_3_1.wav,Pink_Noise_3_2.wav,,,,,,,,,,,,,,,0,59,59,119,,,,,,,,,,,,,,,,,,,,,,,431.8016833718866,None,433.3181038671173,None,434.70164953684434,None,"flight
",434.70164953684434,None,return,3.051106413360685,434.78518722672015,None,,,,,,,,,,,,,,,,,,,,,,,,,,,,,,,,,151,001,2024_Jan_18_1731,SpeechDraft1Carolyn_lessNoise_PlusLocalization,2021.2.3,59.93607910133411,
bay.wav,bay.mpg,bay,6,A,Pink_Noise_6_1.wav,Pink_Noise_6_2.wav,,,,,,,,,,,,,,,0,60,60,34,,,,,,,,,,,,,,,,,,,,,,,437.86850924789906,None,439.3850303296931,None,440.7685359539464,None,"fed
",440.7685359539464,None,return,2.784653015434742,440.85165656590834,None,,,,,,,,,,,,,,,,,,,,,,,,,,,,,,,,,151,001,2024_Jan_18_1731,SpeechDraft1Carolyn_lessNoise_PlusLocalization,2021.2.3,59.93607910133411,
bin.wav,bin.mpg,bin,2,A,Pink_Noise_2_1.wav,Pink_Noise_2_2.wav,,,,,,,,,,,,,,,0,61,61,17,,,,,,,,,,,,,,,,,,,,,,,443.6683864677325,None,445.1848070840351,None,446.5685554407537,None,fid,446.5685554407537,None,return,7.328443975187838,446.65186407696456,None,,,,,,,,,,,,,,,,,,,,,,,,,,,,,,,,,151,001,2024_Jan_18_1731,SpeechDraft1Carolyn_lessNoise_PlusLocalization,2021.2.3,59.93607910133411,
cube.wav,cube.mpg,cube,4,A,Pink_Noise_4_1.wav,Pink_Noise_4_2.wav,,,,,,,,,,,,,,,0,62,62,5,,,,,,,,,,,,,,,,,,,,,,,454.00164856994525,None,455.51795453578234,None,456.90168751683086,None,chew,456.90168751683086,None,return,1.283052789978683,456.9853309551254,None,,,,,,,,,,,,,,,,,,,,,,,,,,,,,,,,,151,001,2024_Jan_18_1731,SpeechDraft1Carolyn_lessNoise_PlusLocalization,2021.2.3,59.93607910133411,
eel.wav,eel.mpg,eel,5,AV,Pink_Noise_5_1.wav,Pink_Noise_5_2.wav,,,,,,,,,,,,,,,0,63,63,88,,,,,,,,,,,,,,,,,,,,,,,458.2851943029091,None,459.801550460048,None,461.1850142860785,None,"heal
",461.1850142860785,None,return,2.335788433905691,461.2685159249231,None,,,,,,,,,,,,,,,,,,,,,,,,,,,,,,,,,151,001,2024_Jan_18_1731,SpeechDraft1Carolyn_lessNoise_PlusLocalization,2021.2.3,59.93607910133411,
blur.wav,blur.mpg,blur,5,AV,Pink_Noise_5_1.wav,Pink_Noise_5_2.wav,,,,,,,,,,,,,,,0,64,64,81,,,,,,,,,,,,,,,,,,,,,,,463.63499150797725,None,465.15158046782017,None,466.5349489520304,None,blue,466.5349489520304,None,return,1.681991497054696,466.6183801731095,None,,,,,,,,,,,,,,,,,,,,,,,,,,,,,,,,,151,001,2024_Jan_18_1731,SpeechDraft1Carolyn_lessNoise_PlusLocalization,2021.2.3,59.93607910133411,
crowd.wav,crowd.mpg,crowd,5,A,Pink_Noise_5_1.wav,Pink_Noise_5_2.wav,,,,,,,,,,,,,,,0,65,65,23,,,,,,,,,,,,,,,,,,,,,,,468.3185897888616,None,469.8346650507301,None,471.21830497309566,None,small,471.21830497309566,None,return,6.030702424701303,471.3016404011287,None,,,,,,,,,,,,,,,,,,,,,,,,,,,,,,,,,151,001,2024_Jan_18_1731,SpeechDraft1Carolyn_lessNoise_PlusLocalization,2021.2.3,59.93607910133411,
cape.wav,cape.mpg,cape,3,A,Pink_Noise_3_1.wav,Pink_Noise_3_2.wav,,,,,,,,,,,,,,,0,66,66,48,,,,,,,,,,,,,,,,,,,,,,,477.3518194500357,None,478.86836808593944,None,480.2518545840867,None,"cake
",480.2518545840867,None,return,1.301109260879457,480.33519461285323,None,,,,,,,,,,,,,,,,,,,,,,,,,,,,,,,,,151,001,2024_Jan_18_1731,SpeechDraft1Carolyn_lessNoise_PlusLocalization,2021.2.3,59.93607910133411,
flop.wav,flop.mpg,flop,1,AV,Pink_Noise_1_1.wav,Pink_Noise_1_2.wav,,,,,,,,,,,,,,,0,67,67,75,,,,,,,,,,,,,,,,,,,,,,,481.6683532767929,None,483.2013533147983,None,484.5852960497141,None,flap,484.5852960497141,None,return,1.4877561209723353,484.66854938771576,None,,,,,,,,,,,,,,,,,,,,,,,,,,,,,,,,,151,001,2024_Jan_18_1731,SpeechDraft1Carolyn_lessNoise_PlusLocalization,2021.2.3,59.93607910133411,
traps.wav,traps.mpg,traps,6,AV,Pink_Noise_6_1.wav,Pink_Noise_6_2.wav,,,,,,,,,,,,,,,0,68,68,107,,,,,,,,,,,,,,,,,,,,,,,486.1852074088529,None,487.70160261169076,None,489.08493355382234,None,straps,489.08493355382234,None,return,1.771821612957865,489.1685425778851,None,,,,,,,,,,,,,,,,,,,,,,,,,,,,,,,,,151,001,2024_Jan_18_1731,SpeechDraft1Carolyn_lessNoise_PlusLocalization,2021.2.3,59.93607910133411,
clothe.wav,clothe.mpg,clothe,5,A,Pink_Noise_5_1.wav,Pink_Noise_5_2.wav,,,,,,,,,,,,,,,0,69,69,31,,,,,,,,,,,,,,,,,,,,,,,490.9684490710497,None,492.48492372594774,None,493.86861308291554,None,"slow
",493.86861308291554,None,return,3.4844585759565234,493.95182882482186,None,,,,,,,,,,,,,,,,,,,,,,,,,,,,,,,,,151,001,2024_Jan_18_1731,SpeechDraft1Carolyn_lessNoise_PlusLocalization,2021.2.3,59.93607910133411,
chump.wav,chump.mpg,chump,1,A,Pink_Noise_1_1.wav,Pink_Noise_1_2.wav,,,,,,,,,,,,,,,0,70,70,51,,,,,,,,,,,,,,,,,,,,,,,497.46836933493614,None,498.98489113291726,None,500.36865784600377,None,chunck,500.36865784600377,None,return,1.9925249270163476,500.45174761582166,None,,,,,,,,,,,,,,,,,,,,,,,,,,,,,,,,,151,001,2024_Jan_18_1731,SpeechDraft1Carolyn_lessNoise_PlusLocalization,2021.2.3,59.93607910133411,
guess.wav,guess.mpg,guess,6,A,Pink_Noise_6_1.wav,Pink_Noise_6_2.wav,,,,,,,,,,,,,,,0,71,71,7,,,,,,,,,,,,,,,,,,,,,,,502.4685682901181,None,503.98503341013566,None,505.36852382775396,None,test,505.36852382775396,None,return,4.880453401710838,505.451924439054,None,,,,,,,,,,,,,,,,,,,,,,,,,,,,,,,,,151,001,2024_Jan_18_1731,SpeechDraft1Carolyn_lessNoise_PlusLocalization,2021.2.3,59.93607910133411,
cat.wav,cat.mpg,cat,4,A,Pink_Noise_4_1.wav,Pink_Noise_4_2.wav,,,,,,,,,,,,,,,0,72,72,0,,,,,,,,,,,,,,,,,,,,,,,510.351945776958,None,511.86818504612893,None,513.25197987305,None,"cat
",513.25197987305,None,return,1.3171436223201454,513.3351444918662,None,,,,,,,,,,,,,,,,,,,,,,,,,,,,,,,,,151,001,2024_Jan_18_1731,SpeechDraft1Carolyn_lessNoise_PlusLocalization,2021.2.3,59.93607910133411,
bruise.wav,bruise.mpg,bruise,2,AV,Pink_Noise_2_1.wav,Pink_Noise_2_2.wav,,,,,,,,,,,,,,,0,73,73,114,,,,,,,,,,,,,,,,,,,,,,,514.685088224709,None,516.2015201370232,None,517.5850399150513,None,bruise,517.5850399150513,None,return,1.6238329918123782,517.6685991608538,None,,,,,,,,,,,,,,,,,,,,,,,,,,,,,,,,,151,001,2024_Jan_18_1731,SpeechDraft1Carolyn_lessNoise_PlusLocalization,2021.2.3,59.93607910133411,
blind.wav,blind.mpg,blind,3,A,Pink_Noise_3_1.wav,Pink_Noise_3_2.wav,,,,,,,,,,,,,,,0,74,74,43,,,,,,,,,,,,,,,,,,,,,,,519.3183924029581,None,520.8349503530189,None,522.2184969941154,None,blood,522.2184969941154,None,return,2.078400240279734,522.3019088730216,None,,,,,,,,,,,,,,,,,,,,,,,,,,,,,,,,,151,001,2024_Jan_18_1731,SpeechDraft1Carolyn_lessNoise_PlusLocalization,2021.2.3,59.93607910133411,
dim.wav,dim.mpg,dim,3,AV,Pink_Noise_3_1.wav,Pink_Noise_3_2.wav,,,,,,,,,,,,,,,0,75,75,94,,,,,,,,,,,,,,,,,,,,,,,524.4021280617453,None,525.934737522155,None,527.3186003719456,None,dim,527.3186003719456,None,return,1.14662583777681,527.4017319609411,None,,,,,,,,,,,,,,,,,,,,,,,,,,,,,,,,,151,001,2024_Jan_18_1731,SpeechDraft1Carolyn_lessNoise_PlusLocalization,2021.2.3,59.93607910133411,
bold.wav,bold.mpg,bold,2,AV,Pink_Noise_2_1.wav,Pink_Noise_2_2.wav,,,,,,,,,,,,,,,0,76,76,111,,,,,,,,,,,,,,,,,,,,,,,528.5686646578833,None,530.084875357803,None,531.4684780198149,None,bold,531.4684780198149,None,return,1.260385727044195,531.5519052930176,None,,,,,,,,,,,,,,,,,,,,,,,,,,,,,,,,,151,001,2024_Jan_18_1731,SpeechDraft1Carolyn_lessNoise_PlusLocalization,2021.2.3,59.93607910133411,
forth.wav,forth.mpg,forth,2,A,Pink_Noise_2_1.wav,Pink_Noise_2_2.wav,,,,,,,,,,,,,,,0,77,77,2,,,,,,,,,,,,,,,,,,,,,,,532.8353384449147,None,534.3516175230034,None,535.7352390089072,None,fort,535.7352390089072,None,return,1.5936731840483844,535.8186247968115,None,,,,,,,,,,,,,,,,,,,,,,,,,,,,,,,,,151,001,2024_Jan_18_1731,SpeechDraft1Carolyn_lessNoise_PlusLocalization,2021.2.3,59.93607910133411,
foil.wav,foil.mpg,foil,1,A,Pink_Noise_1_1.wav,Pink_Noise_1_2.wav,,,,,,,,,,,,,,,0,78,78,58,,,,,,,,,,,,,,,,,,,,,,,537.4354126821272,None,538.9523035869934,None,540.3352412777022,None,foil,540.3352412777022,None,return,1.3936870340257883,540.418670069892,None,,,,,,,,,,,,,,,,,,,,,,,,,,,,,,,,,151,001,2024_Jan_18_1731,SpeechDraft1Carolyn_lessNoise_PlusLocalization,2021.2.3,59.93607910133411,
quart.wav,quart.mpg,quart,6,A,Pink_Noise_6_1.wav,Pink_Noise_6_2.wav,,,,,,,,,,,,,,,0,79,79,54,,,,,,,,,,,,,,,,,,,,,,,541.8352750330232,None,543.3514740220271,None,544.7350766118616,None,twitch,544.7350766118616,None,return,8.849705344997346,544.8186608697288,None,,,,,,,,,,,,,,,,,,,,,,,,,,,,,,,,,151,001,2024_Jan_18_1731,SpeechDraft1Carolyn_lessNoise_PlusLocalization,2021.2.3,59.93607910133411,
cup.wav,cup.mpg,cup,4,AV,Pink_Noise_4_1.wav,Pink_Noise_4_2.wav,,,,,,,,,,,,,,,0,80,80,60,,,,,,,,,,,,,,,,,,,,,,,553.6852243458852,None,555.218259328045,None,556.6017086310312,None,"cup
",556.6017086310312,None,return,1.7671513371169567,556.6851338441484,None,,,,,,,,,,,,,,,,,,,,,,,,,,,,,,,,,151,001,2024_Jan_18_1731,SpeechDraft1Carolyn_lessNoise_PlusLocalization,2021.2.3,59.93607910133411,
druid.wav,druid.mpg,druid,3,AV,Pink_Noise_3_1.wav,Pink_Noise_3_2.wav,,,,,,,,,,,,,,,0,81,81,61,,,,,,,,,,,,,,,,,,,,,,,558.4851310690865,None,560.001684281975,None,561.3853839589283,None,jew,561.3853839589283,None,return,8.607940269634128,561.4684247309342,None,,,,,,,,,,,,,,,,,,,,,,,,,,,,,,,,,151,001,2024_Jan_18_1731,SpeechDraft1Carolyn_lessNoise_PlusLocalization,2021.2.3,59.93607910133411,
fraud.wav,fraud.mpg,fraud,6,AV,Pink_Noise_6_1.wav,Pink_Noise_6_2.wav,,,,,,,,,,,,,,,0,82,82,109,,,,,,,,,,,,,,,,,,,,,,,570.1018661460839,None,571.6181762861088,None,573.0017279260792,None,"flow
",573.0017279260792,None,return,3.3509963979013264,573.0853024111129,None,,,,,,,,,,,,,,,,,,,,,,,,,,,,,,,,,151,001,2024_Jan_18_1731,SpeechDraft1Carolyn_lessNoise_PlusLocalization,2021.2.3,59.93607910133411,
dish.wav,dish.mpg,dish,6,A,Pink_Noise_6_1.wav,Pink_Noise_6_2.wav,,,,,,,,,,,,,,,0,83,83,42,,,,,,,,,,,,,,,,,,,,,,,576.4686155728996,None,577.9851064169779,None,579.368697006721,None,"speech
",579.368697006721,None,return,2.568231785669923,579.4520623120479,None,,,,,,,,,,,,,,,,,,,,,,,,,,,,,,,,,151,001,2024_Jan_18_1731,SpeechDraft1Carolyn_lessNoise_PlusLocalization,2021.2.3,59.93607910133411,
broke.wav,broke.mpg,broke,3,A,Pink_Noise_3_1.wav,Pink_Noise_3_2.wav,,,,,,,,,,,,,,,0,84,84,15,,,,,,,,,,,,,,,,,,,,,,,582.0518172588199,None,583.5684237200767,None,584.952370388899,None,fret,584.952370388899,None,return,2.32105376617983,585.0352325467393,None,,,,,,,,,,,,,,,,,,,,,,,,,,,,,,,,,151,001,2024_Jan_18_1731,SpeechDraft1Carolyn_lessNoise_PlusLocalization,2021.2.3,59.93607910133411,
bust.wav,bust.mpg,bust,2,A,Pink_Noise_2_1.wav,Pink_Noise_2_2.wav,,,,,,,,,,,,,,,0,85,85,45,,,,,,,,,,,,,,,,,,,,,,,587.3854316920042,None,588.9184433738701,None,590.3019758760929,None,crust,590.3019758760929,None,return,8.627087480854243,590.3851980660111,None,,,,,,,,,,,,,,,,,,,,,,,,,,,,,,,,,151,001,2024_Jan_18_1731,SpeechDraft1Carolyn_lessNoise_PlusLocalization,2021.2.3,59.93607910133411,
glue.wav,glue.mpg,glue,5,A,Pink_Noise_5_1.wav,Pink_Noise_5_2.wav,,,,,,,,,,,,,,,0,86,86,6,,,,,,,,,,,,,,,,,,,,,,,599.0351497349329,None,600.5681390911341,None,601.9521342781372,None,"fish
",601.9521342781372,None,return,2.5848810179159045,602.0354220657609,None,,,,,,,,,,,,,,,,,,,,,,,,,,,,,,,,,151,001,2024_Jan_18_1731,SpeechDraft1Carolyn_lessNoise_PlusLocalization,2021.2.3,59.93607910133411,
cycle.wav,cycle.mpg,cycle,2,AV,Pink_Noise_2_1.wav,Pink_Noise_2_2.wav,,,,,,,,,,,,,,,0,87,87,102,,,,,,,,,,,,,,,,,,,,,,,604.6518586608581,None,606.168501182925,None,607.5520301689394,None,"cyc;r
",607.5520301689394,None,return,3.5370495547540486,607.6352609107271,None,,,,,,,,,,,,,,,,,,,,,,,,,,,,,,,,,151,001,2024_Jan_18_1731,SpeechDraft1Carolyn_lessNoise_PlusLocalization,2021.2.3,59.93607910133411,
peach.wav,peach.mpg,peach,6,AV,Pink_Noise_6_1.wav,Pink_Noise_6_2.wav,,,,,,,,,,,,,,,0,88,88,83,,,,,,,,,,,,,,,,,,,,,,,611.202058756724,None,612.7186620347202,None,614.101860831026,None,peach,614.101860831026,None,return,2.210969121195376,614.1853176918812,None,,,,,,,,,,,,,,,,,,,,,,,,,,,,,,,,,151,001,2024_Jan_18_1731,SpeechDraft1Carolyn_lessNoise_PlusLocalization,2021.2.3,59.93607910133411,
cliff.wav,cliff.mpg,cliff,6,AV,Pink_Noise_6_1.wav,Pink_Noise_6_2.wav,,,,,,,,,,,,,,,0,89,89,91,,,,,,,,,,,,,,,,,,,,,,,616.4187417938374,None,617.934954745695,None,619.3184178508818,None,lift,619.3184178508818,None,return,2.506312715820968,619.4020925769582,None,,,,,,,,,,,,,,,,,,,,,,,,,,,,,,,,,151,001,2024_Jan_18_1731,SpeechDraft1Carolyn_lessNoise_PlusLocalization,2021.2.3,59.93607910133411,
blob.wav,blob.mpg,blob,3,A,Pink_Noise_3_1.wav,Pink_Noise_3_2.wav,,,,,,,,,,,,,,,0,90,90,21,,,,,,,,,,,,,,,,,,,,,,,621.9355388898402,None,623.4683013698086,None,624.8521200767718,None,flap,624.8521200767718,None,return,2.7888094913214445,624.9355497169308,None,,,,,,,,,,,,,,,,,,,,,,,,,,,,,,,,,151,001,2024_Jan_18_1731,SpeechDraft1Carolyn_lessNoise_PlusLocalization,2021.2.3,59.93607910133411,
claim.wav,claim.mpg,claim,6,AV,Pink_Noise_6_1.wav,Pink_Noise_6_2.wav,,,,,,,,,,,,,,,0,91,91,89,,,,,,,,,,,,,,,,,,,,,,,627.7520860997029,None,629.301635232754,None,630.6852520457469,None,lame,630.6852520457469,None,return,1.2996569368988276,630.7687310948968,None,,,,,,,,,,,,,,,,,,,,,,,,,,,,,,,,,151,001,2024_Jan_18_1731,SpeechDraft1Carolyn_lessNoise_PlusLocalization,2021.2.3,59.93607910133411,
deck.wav,deck.mpg,deck,4,A,Pink_Noise_4_1.wav,Pink_Noise_4_2.wav,,,,,,,,,,,,,,,0,92,92,30,,,,,,,,,,,,,,,,,,,,,,,632.0853305687197,None,633.6020794240758,None,634.9852834860794,None,step,634.9852834860794,None,return,14.447459178045392,635.0688547431491,None,,,,,,,,,,,,,,,,,,,,,,,,,,,,,,,,,151,001,2024_Jan_18_1731,SpeechDraft1Carolyn_lessNoise_PlusLocalization,2021.2.3,59.93607910133411,
route.wav,route.mpg,route,1,A,Pink_Noise_1_1.wav,Pink_Noise_1_2.wav,,,,,,,,,,,,,,,0,93,93,32,,,,,,,,,,,,,,,,,,,,,,,649.5353187806904,None,651.0516944499686,None,652.4354409617372,None,breathe,652.4354409617372,None,return,5.621705322992057,652.5185902710073,None,,,,,,,,,,,,,,,,,,,,,,,,,,,,,,,,,151,001,2024_Jan_18_1731,SpeechDraft1Carolyn_lessNoise_PlusLocalization,2021.2.3,59.93607910133411,
brick.wav,brick.mpg,brick,1,AV,Pink_Noise_1_1.wav,Pink_Noise_1_2.wav,,,,,,,,,,,,,,,0,94,94,115,,,,,,,,,,,,,,,,,,,,,,,658.1688843248412,None,659.685183478985,None,661.068487317767,None,brick,661.068487317767,None,return,1.5483594229444861,661.151993453037,None,,,,,,,,,,,,,,,,,,,,,,,,,,,,,,,,,151,001,2024_Jan_18_1731,SpeechDraft1Carolyn_lessNoise_PlusLocalization,2021.2.3,59.93607910133411,
grant.wav,grant.mpg,grant,4,AV,Pink_Noise_4_1.wav,Pink_Noise_4_2.wav,,,,,,,,,,,,,,,0,95,95,64,,,,,,,,,,,,,,,,,,,,,,,662.7187535148114,None,664.2351013990119,None,665.6186576220207,None,red,665.6186576220207,None,return,1.862298748921603,665.7020030640997,None,,,,,,,,,,,,,,,,,,,,,,,,,,,,,,,,,151,001,2024_Jan_18_1731,SpeechDraft1Carolyn_lessNoise_PlusLocalization,2021.2.3,59.93607910133411,
vest.wav,vest.mpg,vest,2,A,Pink_Noise_2_1.wav,Pink_Noise_2_2.wav,,,,,,,,,,,,,,,0,96,96,49,,,,,,,,,,,,,,,,,,,,,,,667.5854429327883,None,669.1186616551131,None,670.502222656738,None,fast,670.502222656738,None,return,1.7070036218501627,670.5853981599212,None,,,,,,,,,,,,,,,,,,,,,,,,,,,,,,,,,151,001,2024_Jan_18_1731,SpeechDraft1Carolyn_lessNoise_PlusLocalization,2021.2.3,59.93607910133411,
dock.wav,dock.mpg,dock,5,AV,Pink_Noise_5_1.wav,Pink_Noise_5_2.wav,,,,,,,,,,,,,,,0,97,97,108,,,,,,,,,,,,,,,,,,,,,,,672.3187780510634,None,673.8366377190687,None,675.218515181914,None,duck,675.218515181914,None,return,2.582240764051676,675.3021812387742,None,,,,,,,,,,,,,,,,,,,,,,,,,,,,,,,,,151,001,2024_Jan_18_1731,SpeechDraft1Carolyn_lessNoise_PlusLocalization,2021.2.3,59.93607910133411,
deem.wav,deem.mpg,deem,6,AV,Pink_Noise_6_1.wav,Pink_Noise_6_2.wav,,,,,,,,,,,,,,,0,98,98,92,,,,,,,,,,,,,,,,,,,,,,,677.9022978190333,None,679.4184671407565,None,680.802218940109,None,dim,680.802218940109,None,return,1.8710793680511415,680.8852375377901,None,,,,,,,,,,,,,,,,,,,,,,,,,,,,,,,,,151,001,2024_Jan_18_1731,SpeechDraft1Carolyn_lessNoise_PlusLocalization,2021.2.3,59.93607910133411,
dial.wav,dial.mpg,dial,1,AV,Pink_Noise_1_1.wav,Pink_Noise_1_2.wav,,,,,,,,,,,,,,,0,99,99,117,,,,,,,,,,,,,,,,,,,,,,,682.7854673671536,None,684.301943608094,None,685.6853691870347,None,"dial
",685.6853691870347,None,return,3.067596353124827,685.7687024357729,None,,,,,,,,,,,,,,,,,,,,,,,,,,,,,,,,,151,001,2024_Jan_18_1731,SpeechDraft1Carolyn_lessNoise_PlusLocalization,2021.2.3,59.93607910133411,
blue.wav,blue.mpg,blue,2,AV,Pink_Noise_2_1.wav,Pink_Noise_2_2.wav,,,,,,,,,,,,,,,0,100,100,98,,,,,,,,,,,,,,,,,,,,,,,688.8687809109688,None,690.385130813811,None,691.7686484018341,None,"blue
",691.7686484018341,None,return,1.120319298002869,691.8519905121066,None,,,,,,,,,,,,,,,,,,,,,,,,,,,,,,,,,151,001,2024_Jan_18_1731,SpeechDraft1Carolyn_lessNoise_PlusLocalization,2021.2.3,59.93607910133411,
barn.wav,barn.mpg,barn,1,AV,Pink_Noise_1_1.wav,Pink_Noise_1_2.wav,,,,,,,,,,,,,,,0,101,101,71,,,,,,,,,,,,,,,,,,,,,,,693.0019894889556,None,694.5186035758816,None,695.9020599289797,None,barn,695.9020599289797,None,return,3.3469595620408654,695.9854353209957,None,,,,,,,,,,,,,,,,,,,,,,,,,,,,,,,,,151,001,2024_Jan_18_1731,SpeechDraft1Carolyn_lessNoise_PlusLocalization,2021.2.3,59.93607910133411,
gate.wav,gate.mpg,gate,1,AV,Pink_Noise_1_1.wav,Pink_Noise_1_2.wav,,,,,,,,,,,,,,,0,102,102,66,,,,,,,,,,,,,,,,,,,,,,,699.3520716489293,None,700.868606345728,None,702.2520443201065,None,gate,702.2520443201065,None,return,1.3567610238678753,702.3356331158429,None,,,,,,,,,,,,,,,,,,,,,,,,,,,,,,,,,151,001,2024_Jan_18_1731,SpeechDraft1Carolyn_lessNoise_PlusLocalization,2021.2.3,59.93607910133411,
ghost.wav,ghost.mpg,ghost,2,A,Pink_Noise_2_1.wav,Pink_Noise_2_2.wav,,,,,,,,,,,,,,,0,103,103,46,,,,,,,,,,,,,,,,,,,,,,,703.718719731085,None,705.2353020356968,None,706.6188538619317,None,ghost,706.6188538619317,None,return,1.6541696381755173,706.7021505427547,None,,,,,,,,,,,,,,,,,,,,,,,,,,,,,,,,,151,001,2024_Jan_18_1731,SpeechDraft1Carolyn_lessNoise_PlusLocalization,2021.2.3,59.93607910133411,
crow.wav,crow.mpg,crow,6,A,Pink_Noise_6_1.wav,Pink_Noise_6_2.wav,,,,,,,,,,,,,,,0,104,104,52,,,,,,,,,,,,,,,,,,,,,,,708.3853457439691,None,709.918348596897,None,711.302189366892,None,flow,711.302189366892,None,return,1.6667909459210932,711.3855182677507,None,,,,,,,,,,,,,,,,,,,,,,,,,,,,,,,,,151,001,2024_Jan_18_1731,SpeechDraft1Carolyn_lessNoise_PlusLocalization,2021.2.3,59.93607910133411,
bass.wav,bass.mpg,bass,4,AV,Pink_Noise_4_1.wav,Pink_Noise_4_2.wav,,,,,,,,,,,,,,,0,105,105,76,,,,,,,,,,,,,,,,,,,,,,,713.0689522349276,None,714.5855675889179,None,715.9690290978178,None,base,715.9690290978178,None,return,1.128283224068582,716.0520238149911,None,,,,,,,,,,,,,,,,,,,,,,,,,,,,,,,,,151,001,2024_Jan_18_1731,SpeechDraft1Carolyn_lessNoise_PlusLocalization,2021.2.3,59.93607910133411,
dune.wav,dune.mpg,dune,1,AV,Pink_Noise_1_1.wav,Pink_Noise_1_2.wav,,,,,,,,,,,,,,,0,106,106,72,,,,,,,,,,,,,,,,,,,,,,,717.2020352729596,None,718.7186568407342,None,720.1020084419288,None,dume,720.1020084419288,None,return,2.2107121529988945,720.1855784198269,None,,,,,,,,,,,,,,,,,,,,,,,,,,,,,,,,,151,001,2024_Jan_18_1731,SpeechDraft1Carolyn_lessNoise_PlusLocalization,2021.2.3,59.93607910133411,
bush.wav,bush.mpg,bush,3,AV,Pink_Noise_3_1.wav,Pink_Noise_3_2.wav,,,,,,,,,,,,,,,0,107,107,62,,,,,,,,,,,,,,,,,,,,,,,722.4186777868308,None,723.9352844459936,None,725.3185983849689,None,brush,725.3185983849689,None,return,2.3303640787489712,725.4020485100336,None,,,,,,,,,,,,,,,,,,,,,,,,,,,,,,,,,151,001,2024_Jan_18_1731,SpeechDraft1Carolyn_lessNoise_PlusLocalization,2021.2.3,59.93607910133411,
dull.wav,dull.mpg,dull,5,A,Pink_Noise_5_1.wav,Pink_Noise_5_2.wav,,,,,,,,,,,,,,,0,108,108,57,,,,,,,,,,,,,,,,,,,,,,,727.7522710189223,None,729.2685425868258,None,730.6521528307348,None,thrpw,730.6521528307348,None,return,1.6767023289576173,730.7355617359281,None,,,,,,,,,,,,,,,,,,,,,,,,,,,,,,,,,151,001,2024_Jan_18_1731,SpeechDraft1Carolyn_lessNoise_PlusLocalization,2021.2.3,59.93607910133411,
beam.wav,beam.mpg,beam,5,A,Pink_Noise_5_1.wav,Pink_Noise_5_2.wav,,,,,,,,,,,,,,,0,109,109,41,,,,,,,,,,,,,,,,,,,,,,,732.4355738027953,None,733.9518437967636,None,735.3355466979556,None,"sneeze
",735.3355466979556,None,return,2.6015659729018807,735.4187440667301,None,,,,,,,,,,,,,,,,,,,,,,,,,,,,,,,,,151,001,2024_Jan_18_1731,SpeechDraft1Carolyn_lessNoise_PlusLocalization,2021.2.3,59.93607910133411,
thorn.wav,thorn.mpg,thorn,4,A,Pink_Noise_4_1.wav,Pink_Noise_4_2.wav,,,,,,,,,,,,,,,0,110,110,47,,,,,,,,,,,,,,,,,,,,,,,738.0521594630554,None,739.5687675587833,None,740.952308903914,None,storm,740.952308903914,None,return,2.9609246999025345,741.0353650511242,None,,,,,,,,,,,,,,,,,,,,,,,,,,,,,,,,,151,001,2024_Jan_18_1731,SpeechDraft1Carolyn_lessNoise_PlusLocalization,2021.2.3,59.93607910133411,
cow.wav,cow.mpg,cow,1,A,Pink_Noise_1_1.wav,Pink_Noise_1_2.wav,,,,,,,,,,,,,,,0,111,111,11,,,,,,,,,,,,,,,,,,,,,,,744.0189983700402,None,745.5350967547856,None,746.9189008148387,None,cow,746.9189008148387,None,return,2.32209612429142,747.0022805510089,None,,,,,,,,,,,,,,,,,,,,,,,,,,,,,,,,,151,001,2024_Jan_18_1731,SpeechDraft1Carolyn_lessNoise_PlusLocalization,2021.2.3,59.93607910133411,
bee.wav,bee.mpg,bee,2,A,Pink_Noise_2_1.wav,Pink_Noise_2_2.wav,,,,,,,,,,,,,,,0,112,112,3,,,,,,,,,,,,,,,,,,,,,,,749.3520373580977,None,750.8853604109026,None,752.2689133598469,None,beam,752.2689133598469,None,return,2.8920656172558665,752.3522206507623,None,,,,,,,,,,,,,,,,,,,,,,,,,,,,,,,,,151,001,2024_Jan_18_1731,SpeechDraft1Carolyn_lessNoise_PlusLocalization,2021.2.3,59.93607910133411,
bird.wav,bird.mpg,bird,4,A,Pink_Noise_4_1.wav,Pink_Noise_4_2.wav,,,,,,,,,,,,,,,0,113,113,20,,,,,,,,,,,,,,,,,,,,,,,755.2688001948409,None,756.7856317348778,None,758.1688512139954,None,burn,758.1688512139954,None,return,2.08797401888296,758.2523316261359,None,,,,,,,,,,,,,,,,,,,,,,,,,,,,,,,,,151,001,2024_Jan_18_1731,SpeechDraft1Carolyn_lessNoise_PlusLocalization,2021.2.3,59.93607910133411,
fond.wav,fond.mpg,fond,1,A,Pink_Noise_1_1.wav,Pink_Noise_1_2.wav,,,,,,,,,,,,,,,0,114,114,29,,,,,,,,,,,,,,,,,,,,,,,760.3689369247295,None,761.8863892517984,None,763.2689524050802,None,fund,763.2689524050802,None,return,1.2601755079813302,763.3521461058408,None,,,,,,,,,,,,,,,,,,,,,,,,,,,,,,,,,151,001,2024_Jan_18_1731,SpeechDraft1Carolyn_lessNoise_PlusLocalization,2021.2.3,59.93607910133411,
bowl.wav,bowl.mpg,bowl,4,A,Pink_Noise_4_1.wav,Pink_Noise_4_2.wav,,,,,,,,,,,,,,,0,115,115,38,,,,,,,,,,,,,,,,,,,,,,,764.6356073957868,None,766.1520517179742,None,767.5355225247331,None,roll,767.5355225247331,None,return,2.897569455206394,767.6187613108195,None,,,,,,,,,,,,,,,,,,,,,,,,,,,,,,,,,151,001,2024_Jan_18_1731,SpeechDraft1Carolyn_lessNoise_PlusLocalization,2021.2.3,59.93607910133411,
club.wav,club.mpg,club,5,AV,Pink_Noise_5_1.wav,Pink_Noise_5_2.wav,,,,,,,,,,,,,,,0,116,116,87,,,,,,,,,,,,,,,,,,,,,,,770.5355084347539,None,772.0518694981001,None,773.435609602835,None,club,773.435609602835,None,return,3.213514235801995,773.5188908800483,None,,,,,,,,,,,,,,,,,,,,,,,,,,,,,,,,,151,001,2024_Jan_18_1731,SpeechDraft1Carolyn_lessNoise_PlusLocalization,2021.2.3,59.93607910133411,
brawl.wav,brawl.mpg,brawl,3,AV,Pink_Noise_3_1.wav,Pink_Noise_3_2.wav,,,,,,,,,,,,,,,0,117,117,68,,,,,,,,,,,,,,,,,,,,,,,776.7523188428022,None,778.2851157467812,None,779.6850841888227,None,broth,779.6850841888227,None,return,3.0918890801258385,779.7523917518556,None,,,,,,,,,,,,,,,,,,,,,,,,,,,,,,,,,151,001,2024_Jan_18_1731,SpeechDraft1Carolyn_lessNoise_PlusLocalization,2021.2.3,59.93607910133411,
snake.wav,snake.mpg,snake,5,AV,Pink_Noise_5_1.wav,Pink_Noise_5_2.wav,,,,,,,,,,,,,,,0,118,118,78,,,,,,,,,,,,,,,,,,,,,,,782.8687811479904,None,784.4185927929357,None,785.7854571118951,None,"snake
",785.7854571118951,None,return,1.7513485392555594,785.8689467688091,None,,,,,,,,,,,,,,,,,,,,,,,,,,,,,,,,,151,001,2024_Jan_18_1731,SpeechDraft1Carolyn_lessNoise_PlusLocalization,2021.2.3,59.93607910133411,
chop.wav,chop.mpg,chop,4,AV,Pink_Noise_4_1.wav,Pink_Noise_4_2.wav,,,,,,,,,,,,,,,0,119,119,65,,,,,,,,,,,,,,,,,,,,,,,787.6520792278461,None,789.1856168187223,None,790.5688521340489,None,chop,790.5688521340489,None,return,5.679923597257584,790.6524573229253,None,,,,,,,,,,,,,,,,,,,,,,,,,,,,,,,,,151,001,2024_Jan_18_1731,SpeechDraft1Carolyn_lessNoise_PlusLocalization,2021.2.3,59.93607910133411,
,,,,,,,,,,,,,,,,,,,,,,,,,,,,,,,,,,,,,,,,,,,,,,,,,,,,,,,,,,,,,,,,,,space,21.032108842395246,796.4523041788489,None,,,,,,,,,,,,,,,,,,,,,,,151,001,2024_Jan_18_1731,SpeechDraft1Carolyn_lessNoise_PlusLocalization,2021.2.3,59.93607910133411,
,,,,,,,,nearRight,6.5,0,ch1Sound_localizationTask.wav,6.5,"(1047, 878)","(87, -202)",95,-338,,,,,,,,,0,0,0,4,,,,,,,,,,,,,,,,,,,,,,,,,,,,,,,,,,,,,,,,,,796.4523041788489,None,817.5355381830595,None,818.6351464688778,None,819.552373083774,None,1.3486772486772487,7.934758577030152,819.552373083774,None,,,,,,,,,,,151,001,2024_Jan_18_1731,SpeechDraft1Carolyn_lessNoise_PlusLocalization,2021.2.3,59.93607910133411,
,,,,,,,,midLeft,-13.0,2,ch1Sound_localizationTask.wav,-13.0,"(762, 878)","(-198,-202)",-190,-338,,,,,,,,,0,1,1,1,,,,,,,,,,,,,,,,,,,,,,,,,,,,,,,,,,,,,,,,,,,,827.4862804380246,None,828.5854705180973,None,829.5189959676936,None,1.096825396825397,1.7000372940674424,829.5189959676936,None,,,,,,,,,,,151,001,2024_Jan_18_1731,SpeechDraft1Carolyn_lessNoise_PlusLocalization,2021.2.3,59.93607910133411,
,,,,,,,,nearLeft,-6.5,1,ch1Sound_localizationTask.wav,-6.5,"(857, 878)","(-103,-202)",-95,-338,,,,,,,,,0,2,2,2,,,,,,,,,,,,,,,,,,,,,,,,,,,,,,,,,,,,,,,,,,,,831.2357091819867,None,832.3353388020769,None,833.2690418227576,None,1.1502645502645503,0.8794578700326383,833.2690418227576,None,,,,,,,,,,,151,001,2024_Jan_18_1731,SpeechDraft1Carolyn_lessNoise_PlusLocalization,2021.2.3,59.93607910133411,
,,,,,,,,center,0.0,6,ch1Sound_localizationTask.wav,0.0,"(952, 878)","(-8,-202)",0,-338,,,,,,,,,0,3,3,3,,,,,,,,,,,,,,,,,,,,,,,,,,,,,,,,,,,,,,,,,,,,834.1538193221204,None,835.2685338938609,None,836.1855113538913,None,1.4814814814814814,1.3158140857703984,836.1855113538913,None,,,,,,,,,,,151,001,2024_Jan_18_1731,SpeechDraft1Carolyn_lessNoise_PlusLocalization,2021.2.3,59.93607910133411,
,,,,,,,,center,0.0,6,ch1Sound_localizationTask.wav,0.0,"(952, 878)","(-8,-202)",0,-338,,,,,,,,,0,4,4,3,,,,,,,,,,,,,,,,,,,,,,,,,,,,,,,,,,,,,,,,,,,,837.5030812229961,None,838.601839393843,None,839.5353150260635,None,1.5174603174603174,0.7662835270166397,839.5353150260635,None,,,,,,,,,,,151,001,2024_Jan_18_1731,SpeechDraft1Carolyn_lessNoise_PlusLocalization,2021.2.3,59.93607910133411,
,,,,,,,,midLeft,-13.0,2,ch1Sound_localizationTask.wav,-13.0,"(762, 878)","(-198,-202)",-190,-338,,,,,,,,,0,5,5,1,,,,,,,,,,,,,,,,,,,,,,,,,,,,,,,,,,,,,,,,,,,,840.3029563040473,None,841.4021232929081,None,842.335323125124,None,1.1756613756613756,1.8994352668523788,842.335323125124,None,,,,,,,,,,,151,001,2024_Jan_18_1731,SpeechDraft1Carolyn_lessNoise_PlusLocalization,2021.2.3,59.93607910133411,
,,,,,,,,nearLeft,-6.5,1,ch1Sound_localizationTask.wav,-6.5,"(857, 878)","(-103,-202)",-95,-338,,,,,,,,,0,6,6,2,,,,,,,,,,,,,,,,,,,,,,,,,,,,,,,,,,,,,,,,,,,,844.236327839084,None,845.3353356109001,None,846.2684896299616,None,1.2603174603174603,0.749383735936135,846.2684896299616,None,,,,,,,,,,,151,001,2024_Jan_18_1731,SpeechDraft1Carolyn_lessNoise_PlusLocalization,2021.2.3,59.93607910133411,
,,,,,,,,midRight,13.0,3,ch1Sound_localizationTask.wav,13.0,"(1142, 878)","(182, -202)",190,-338,,,,,,,,,1,0,7,5,,,,,,,,,,,,,,,,,,,,,,,,,,,,,,,,,,,,,,,,,,,,847.0191724500619,None,848.118945972994,None,849.051855836995,None,1.6111111111111112,1.1162222288548946,849.051855836995,None,,,,,,,,,,,151,001,2024_Jan_18_1731,SpeechDraft1Carolyn_lessNoise_PlusLocalization,2021.2.3,59.93607910133411,
,,,,,,,,farLeft,-19.1,5,ch1Sound_localizationTask.wav,-19.1,"(667, 878)","(-293,-202)",-285,-338,,,,,,,,,1,1,8,0,,,,,,,,,,,,,,,,,,,,,,,,,,,,,,,,,,,,,,,,,,,,850.1697325441055,None,851.2687662970275,None,852.201953027863,None,1.1423280423280424,0.7829303275793791,852.201953027863,None,,,,,,,,,,,151,001,2024_Jan_18_1731,SpeechDraft1Carolyn_lessNoise_PlusLocalization,2021.2.3,59.93607910133411,
,,,,,,,,midLeft,-13.0,2,ch1Sound_localizationTask.wav,-13.0,"(762, 878)","(-198,-202)",-190,-338,,,,,,,,,1,2,9,1,,,,,,,,,,,,,,,,,,,,,,,,,,,,,,,,,,,,,,,,,,,,852.9865010669455,None,854.0852279597893,None,855.0185466427356,None,1.180952380952381,0.6326130842790008,855.0185466427356,None,,,,,,,,,,,151,001,2024_Jan_18_1731,SpeechDraft1Carolyn_lessNoise_PlusLocalization,2021.2.3,59.93607910133411,
,,,,,,,,farRight,19.1,4,ch1Sound_localizationTask.wav,19.1,"(1237, 878)","(277,-202)",285,-338,,,,,,,,,1,3,10,6,,,,,,,,,,,,,,,,,,,,,,,,,,,,,,,,,,,,,,,,,,,,855.6532230288722,None,856.7519215578213,None,857.6852486380376,None,1.7074074074074075,1.4491061610169709,857.6852486380376,None,,,,,,,,,,,151,001,2024_Jan_18_1731,SpeechDraft1Carolyn_lessNoise_PlusLocalization,2021.2.3,59.93607910133411,
,,,,,,,,nearLeft,-6.5,1,ch1Sound_localizationTask.wav,-6.5,"(857, 878)","(-103,-202)",-95,-338,,,,,,,,,1,4,11,2,,,,,,,,,,,,,,,,,,,,,,,,,,,,,,,,,,,,,,,,,,,,859.1359443017282,None,860.2354132588953,None,861.1690161279403,None,1.1968253968253968,1.0834203772246838,861.1690161279403,None,,,,,,,,,,,151,001,2024_Jan_18_1731,SpeechDraft1Carolyn_lessNoise_PlusLocalization,2021.2.3,59.93607910133411,
,,,,,,,,midLeft,-13.0,2,ch1Sound_localizationTask.wav,-13.0,"(762, 878)","(-198,-202)",-190,-338,,,,,,,,,1,5,12,1,,,,,,,,,,,,,,,,,,,,,,,,,,,,,,,,,,,,,,,,,,,,862.2534763407893,None,863.3519637417048,None,864.2854482498951,None,1.3153439153439153,0.7999380361288786,864.2854482498951,None,,,,,,,,,,,151,001,2024_Jan_18_1731,SpeechDraft1Carolyn_lessNoise_PlusLocalization,2021.2.3,59.93607910133411,
,,,,,,,,center,0.0,6,ch1Sound_localizationTask.wav,0.0,"(952, 878)","(-8,-202)",0,-338,,,,,,,,,1,6,13,3,,,,,,,,,,,,,,,,,,,,,,,,,,,,,,,,,,,,,,,,,,,,865.0865435199812,None,866.1856526080519,None,867.1186286220327,None,1.4264550264550264,0.6496797879226506,867.1186286220327,None,,,,,,,,,,,151,001,2024_Jan_18_1731,SpeechDraft1Carolyn_lessNoise_PlusLocalization,2021.2.3,59.93607910133411,
,,,,,,,,center,0.0,6,ch1Sound_localizationTask.wav,0.0,"(952, 878)","(-8,-202)",0,-338,,,,,,,,,2,0,14,3,,,,,,,,,,,,,,,,,,,,,,,,,,,,,,,,,,,,,,,,,,,,867.7693092678674,None,868.868582022842,None,869.8019782328047,None,1.4481481481481482,0.5489206230267882,869.8019782328047,None,,,,,,,,,,,151,001,2024_Jan_18_1731,SpeechDraft1Carolyn_lessNoise_PlusLocalization,2021.2.3,59.93607910133411,
,,,,,,,,midLeft,-13.0,2,ch1Sound_localizationTask.wav,-13.0,"(762, 878)","(-198,-202)",-190,-338,,,,,,,,,2,1,15,1,,,,,,,,,,,,,,,,,,,,,,,,,,,,,,,,,,,,,,,,,,,,870.3525591529906,None,871.4522602017969,None,872.3854131167755,None,1.2666666666666666,0.9829044630751014,872.3854131167755,None,,,,,,,,,,,151,001,2024_Jan_18_1731,SpeechDraft1Carolyn_lessNoise_PlusLocalization,2021.2.3,59.93607910133411,
,,,,,,,,midRight,13.0,3,ch1Sound_localizationTask.wav,13.0,"(1142, 878)","(182, -202)",190,-338,,,,,,,,,2,2,16,5,,,,,,,,,,,,,,,,,,,,,,,,,,,,,,,,,,,,,,,,,,,,873.369556136895,None,874.4687345959246,None,875.4021068378352,None,1.619047619047619,1.1331036519259214,875.4021068378352,None,,,,,,,,,,,151,001,2024_Jan_18_1731,SpeechDraft1Carolyn_lessNoise_PlusLocalization,2021.2.3,59.93607910133411,
,,,,,,,,midRight,13.0,3,ch1Sound_localizationTask.wav,13.0,"(1142, 878)","(182, -202)",190,-338,,,,,,,,,2,3,17,5,,,,,,,,,,,,,,,,,,,,,,,,,,,,,,,,,,,,,,,,,,,,876.5362926968373,None,877.6353638740256,None,878.5687154028565,None,1.626984126984127,0.7995411762967706,878.5687154028565,None,,,,,,,,,,,151,001,2024_Jan_18_1731,SpeechDraft1Carolyn_lessNoise_PlusLocalization,2021.2.3,59.93607910133411,
,,,,,,,,center,0.0,6,ch1Sound_localizationTask.wav,0.0,"(952, 878)","(-8,-202)",0,-338,,,,,,,,,2,4,18,3,,,,,,,,,,,,,,,,,,,,,,,,,,,,,,,,,,,,,,,,,,,,879.3693776750006,None,880.4689003839158,None,881.4020069940016,None,1.4301587301587302,0.5998807968571782,881.4020069940016,None,,,,,,,,,,,151,001,2024_Jan_18_1731,SpeechDraft1Carolyn_lessNoise_PlusLocalization,2021.2.3,59.93607910133411,
,,,,,,,,nearLeft,-6.5,1,ch1Sound_localizationTask.wav,-6.5,"(857, 878)","(-103,-202)",-95,-338,,,,,,,,,2,5,19,2,,,,,,,,,,,,,,,,,,,,,,,,,,,,,,,,,,,,,,,,,,,,882.0039259707555,None,883.1189675987698,None,884.0352584416978,None,1.378835978835979,0.46704982314258814,884.0352584416978,None,,,,,,,,,,,151,001,2024_Jan_18_1731,SpeechDraft1Carolyn_lessNoise_PlusLocalization,2021.2.3,59.93607910133411,
,,,,,,,,farLeft,-19.1,5,ch1Sound_localizationTask.wav,-19.1,"(667, 878)","(-293,-202)",-285,-338,,,,,,,,,2,6,20,0,,,,,,,,,,,,,,,,,,,,,,,,,,,,,,,,,,,,,,,,,,,,884.502758343704,None,885.6019604159519,None,886.5354744698852,None,1.2185185185185186,0.6828779089264572,886.5354744698852,None,,,,,,,,,,,151,001,2024_Jan_18_1731,SpeechDraft1Carolyn_lessNoise_PlusLocalization,2021.2.3,59.93607910133411,
,,,,,,,,nearRight,6.5,0,ch1Sound_localizationTask.wav,6.5,"(1047, 878)","(87, -202)",95,-338,,,,,,,,,3,0,21,4,,,,,,,,,,,,,,,,,,,,,,,,,,,,,,,,,,,,,,,,,,,,887.2200075038709,None,888.3353858208284,None,889.2519519007765,None,1.5349206349206348,0.8174038860015571,889.2519519007765,None,,,,,,,,,,,151,001,2024_Jan_18_1731,SpeechDraft1Carolyn_lessNoise_PlusLocalization,2021.2.3,59.93607910133411,
,,,,,,,,nearLeft,-6.5,1,ch1Sound_localizationTask.wav,-6.5,"(857, 878)","(-103,-202)",-95,-338,,,,,,,,,3,1,22,2,,,,,,,,,,,,,,,,,,,,,,,,,,,,,,,,,,,,,,,,,,,,890.0859292969108,None,891.185594456736,None,892.118701169733,None,1.2619047619047619,0.5664438959211111,892.118701169733,None,,,,,,,,,,,151,001,2024_Jan_18_1731,SpeechDraft1Carolyn_lessNoise_PlusLocalization,2021.2.3,59.93607910133411,
,,,,,,,,nearLeft,-6.5,1,ch1Sound_localizationTask.wav,-6.5,"(857, 878)","(-103,-202)",-95,-338,,,,,,,,,3,2,23,2,,,,,,,,,,,,,,,,,,,,,,,,,,,,,,,,,,,,,,,,,,,,892.7025007158518,None,893.801940173842,None,894.7353752749041,None,1.2894179894179894,0.5162823349237442,894.7353752749041,None,,,,,,,,,,,151,001,2024_Jan_18_1731,SpeechDraft1Carolyn_lessNoise_PlusLocalization,2021.2.3,59.93607910133411,
,,,,,,,,midLeft,-13.0,2,ch1Sound_localizationTask.wav,-13.0,"(762, 878)","(-198,-202)",-190,-338,,,,,,,,,3,3,24,1,,,,,,,,,,,,,,,,,,,,,,,,,,,,,,,,,,,,,,,,,,,,895.2529662540182,None,896.352028530091,None,897.2854622649029,None,1.1904761904761905,1.4995446219108999,897.2854622649029,None,,,,,,,,,,,151,001,2024_Jan_18_1731,SpeechDraft1Carolyn_lessNoise_PlusLocalization,2021.2.3,59.93607910133411,
,,,,,,,,farLeft,-19.1,5,ch1Sound_localizationTask.wav,-19.1,"(667, 878)","(-293,-202)",-285,-338,,,,,,,,,3,4,25,0,,,,,,,,,,,,,,,,,,,,,,,,,,,,,,,,,,,,,,,,,,,,898.7867977609858,None,899.9020376359113,None,900.8185270917602,None,1.1042328042328042,0.6498572020791471,900.8185270917602,None,,,,,,,,,,,151,001,2024_Jan_18_1731,SpeechDraft1Carolyn_lessNoise_PlusLocalization,2021.2.3,59.93607910133411,
,,,,,,,,midLeft,-13.0,2,ch1Sound_localizationTask.wav,-13.0,"(762, 878)","(-198,-202)",-190,-338,,,,,,,,,3,5,26,1,,,,,,,,,,,,,,,,,,,,,,,,,,,,,,,,,,,,,,,,,,,,901.469503425993,None,902.5686460691504,None,903.5021597971208,None,1.080952380952381,0.5507402489893138,903.5021597971208,None,,,,,,,,,,,151,001,2024_Jan_18_1731,SpeechDraft1Carolyn_lessNoise_PlusLocalization,2021.2.3,59.93607910133411,
,,,,,,,,farLeft,-19.1,5,ch1Sound_localizationTask.wav,-19.1,"(667, 878)","(-293,-202)",-285,-338,,,,,,,,,3,6,27,0,,,,,,,,,,,,,,,,,,,,,,,,,,,,,,,,,,,,,,,,,,,,904.069271592889,None,905.1689132009633,None,906.1021397137083,None,1.1333333333333333,0.39995810482650995,906.1021397137083,None,,,,,,,,,,,151,001,2024_Jan_18_1731,SpeechDraft1Carolyn_lessNoise_PlusLocalization,2021.2.3,59.93607910133411,
,,,,,,,,center,0.0,6,ch1Sound_localizationTask.wav,0.0,"(952, 878)","(-8,-202)",0,-338,,,,,,,,,4,0,28,3,,,,,,,,,,,,,,,,,,,,,,,,,,,,,,,,,,,,,,,,,,,,906.5038227881305,None,907.618778350763,None,908.5357181979343,None,1.2111111111111112,0.8329967209137976,908.5357181979343,None,,,,,,,,,,,151,001,2024_Jan_18_1731,SpeechDraft1Carolyn_lessNoise_PlusLocalization,2021.2.3,59.93607910133411,
,,,,,,,,center,0.0,6,ch1Sound_localizationTask.wav,0.0,"(952, 878)","(-8,-202)",0,-338,,,,,,,,,4,1,29,3,,,,,,,,,,,,,,,,,,,,,,,,,,,,,,,,,,,,,,,,,,,,909.3695124909282,None,910.4687983458862,None,911.4019949510694,None,1.343915343915344,0.7004240988753736,911.4019949510694,None,,,,,,,,,,,151,001,2024_Jan_18_1731,SpeechDraft1Carolyn_lessNoise_PlusLocalization,2021.2.3,59.93607910133411,
,,,,,,,,midRight,13.0,3,ch1Sound_localizationTask.wav,13.0,"(1142, 878)","(182, -202)",190,-338,,,,,,,,,4,2,30,5,,,,,,,,,,,,,,,,,,,,,,,,,,,,,,,,,,,,,,,,,,,,912.1192826530896,None,913.219015893992,None,914.1519436528906,None,1.5322751322751322,0.7835754542611539,914.1519436528906,None,,,,,,,,,,,151,001,2024_Jan_18_1731,SpeechDraft1Carolyn_lessNoise_PlusLocalization,2021.2.3,59.93607910133411,
,,,,,,,,center,0.0,6,ch1Sound_localizationTask.wav,0.0,"(952, 878)","(-8,-202)",0,-338,,,,,,,,,4,3,31,3,,,,,,,,,,,,,,,,,,,,,,,,,,,,,,,,,,,,,,,,,,,,914.9524997249246,None,916.0520718237385,None,916.9854531697929,None,1.4566137566137567,0.6321248570457101,916.9854531697929,None,,,,,,,,,,,151,001,2024_Jan_18_1731,SpeechDraft1Carolyn_lessNoise_PlusLocalization,2021.2.3,59.93607910133411,
,,,,,,,,midRight,13.0,3,ch1Sound_localizationTask.wav,13.0,"(1142, 878)","(182, -202)",190,-338,,,,,,,,,4,4,32,5,,,,,,,,,,,,,,,,,,,,,,,,,,,,,,,,,,,,,,,,,,,,917.6192065319046,None,918.7185687851161,None,919.6520535629243,None,1.5343915343915344,0.4998133019544184,919.6520535629243,None,,,,,,,,,,,151,001,2024_Jan_18_1731,SpeechDraft1Carolyn_lessNoise_PlusLocalization,2021.2.3,59.93607910133411,
,,,,,,,,nearLeft,-6.5,1,ch1Sound_localizationTask.wav,-6.5,"(857, 878)","(-103,-202)",-95,-338,,,,,,,,,4,5,33,2,,,,,,,,,,,,,,,,,,,,,,,,,,,,,,,,,,,,,,,,,,,,920.1530691110529,None,921.2523011858575,None,922.18549240008,None,1.2507936507936508,1.4652924612164497,922.18549240008,None,,,,,,,,,,,151,001,2024_Jan_18_1731,SpeechDraft1Carolyn_lessNoise_PlusLocalization,2021.2.3,59.93607910133411,
,,,,,,,,nearRight,6.5,0,ch1Sound_localizationTask.wav,6.5,"(1047, 878)","(87, -202)",95,-338,,,,,,,,,4,6,34,4,,,,,,,,,,,,,,,,,,,,,,,,,,,,,,,,,,,,,,,,,,,,923.6522134221159,None,924.7522799191065,None,925.6855596918613,None,1.5132275132275133,0.7329207542352378,925.6855596918613,None,,,,,,,,,,,151,001,2024_Jan_18_1731,SpeechDraft1Carolyn_lessNoise_PlusLocalization,2021.2.3,59.93607910133411,
,,,,,,,,midRight,13.0,3,ch1Sound_localizationTask.wav,13.0,"(1142, 878)","(182, -202)",190,-338,,,,,,,,,5,0,35,5,,,,,,,,,,,,,,,,,,,,,,,,,,,,,,,,,,,,,,,,,,,,926.4205093621276,None,927.535388823133,None,928.4521179720759,None,1.564021164021164,0.5828774520196021,928.4521179720759,None,,,,,,,,,,,151,001,2024_Jan_18_1731,SpeechDraft1Carolyn_lessNoise_PlusLocalization,2021.2.3,59.93607910133411,
,,,,,,,,farRight,19.1,4,ch1Sound_localizationTask.wav,19.1,"(1237, 878)","(277,-202)",285,-338,,,,,,,,,5,1,36,6,,,,,,,,,,,,,,,,,,,,,,,,,,,,,,,,,,,,,,,,,,,,929.0364725077525,None,930.1354269818403,None,931.0687883701175,None,1.7116402116402116,0.6832877639681101,931.0687883701175,None,,,,,,,,,,,151,001,2024_Jan_18_1731,SpeechDraft1Carolyn_lessNoise_PlusLocalization,2021.2.3,59.93607910133411,
,,,,,,,,farRight,19.1,4,ch1Sound_localizationTask.wav,19.1,"(1237, 878)","(277,-202)",285,-338,,,,,,,,,5,2,37,6,,,,,,,,,,,,,,,,,,,,,,,,,,,,,,,,,,,,,,,,,,,,931.7531679249369,None,932.8524715071544,None,933.7854428780265,None,1.6613756613756614,0.6827497598715127,933.7854428780265,None,,,,,,,,,,,151,001,2024_Jan_18_1731,SpeechDraft1Carolyn_lessNoise_PlusLocalization,2021.2.3,59.93607910133411,
,,,,,,,,farLeft,-19.1,5,ch1Sound_localizationTask.wav,-19.1,"(667, 878)","(-293,-202)",-285,-338,,,,,,,,,5,3,38,0,,,,,,,,,,,,,,,,,,,,,,,,,,,,,,,,,,,,,,,,,,,,934.4695062497631,None,935.5689994711429,None,936.502302412875,None,1.2624338624338625,0.8328112782910466,936.502302412875,None,,,,,,,,,,,151,001,2024_Jan_18_1731,SpeechDraft1Carolyn_lessNoise_PlusLocalization,2021.2.3,59.93607910133411,
,,,,,,,,midRight,13.0,3,ch1Sound_localizationTask.wav,13.0,"(1142, 878)","(182, -202)",190,-338,,,,,,,,,5,4,39,5,,,,,,,,,,,,,,,,,,,,,,,,,,,,,,,,,,,,,,,,,,,,937.3368890821002,None,938.4521875618957,None,939.3691753987223,None,1.619047619047619,0.967045075725764,939.3691753987223,None,,,,,,,,,,,151,001,2024_Jan_18_1731,SpeechDraft1Carolyn_lessNoise_PlusLocalization,2021.2.3,59.93607910133411,
,,,,,,,,farRight,19.1,4,ch1Sound_localizationTask.wav,19.1,"(1237, 878)","(277,-202)",285,-338,,,,,,,,,5,5,40,6,,,,,,,,,,,,,,,,,,,,,,,,,,,,,,,,,,,,,,,,,,,,940.3528231168166,None,941.4519623238593,None,942.3855697400868,None,1.6037037037037036,0.6829466186463833,942.3855697400868,None,,,,,,,,,,,151,001,2024_Jan_18_1731,SpeechDraft1Carolyn_lessNoise_PlusLocalization,2021.2.3,59.93607910133411,
,,,,,,,,farRight,19.1,4,ch1Sound_localizationTask.wav,19.1,"(1237, 878)","(277,-202)",285,-338,,,,,,,,,5,6,41,6,,,,,,,,,,,,,,,,,,,,,,,,,,,,,,,,,,,,,,,,,,,,943.0696713859215,None,944.1690011280589,None,945.1021851468831,None,1.6084656084656084,0.7837844509631395,945.1021851468831,None,,,,,,,,,,,151,001,2024_Jan_18_1731,SpeechDraft1Carolyn_lessNoise_PlusLocalization,2021.2.3,59.93607910133411,
,,,,,,,,nearRight,6.5,0,ch1Sound_localizationTask.wav,6.5,"(1047, 878)","(87, -202)",95,-338,,,,,,,,,6,0,42,4,,,,,,,,,,,,,,,,,,,,,,,,,,,,,,,,,,,,,,,,,,,,945.8868907047436,None,946.9857438439503,None,947.9189483760856,None,1.5005291005291004,0.582575673237443,947.9189483760856,None,,,,,,,,,,,151,001,2024_Jan_18_1731,SpeechDraft1Carolyn_lessNoise_PlusLocalization,2021.2.3,59.93607910133411,
,,,,,,,,midLeft,-13.0,2,ch1Sound_localizationTask.wav,-13.0,"(762, 878)","(-198,-202)",-190,-338,,,,,,,,,6,1,43,1,,,,,,,,,,,,,,,,,,,,,,,,,,,,,,,,,,,,,,,,,,,,948.5028628017753,None,949.6023005391471,None,950.5354088707827,None,1.2624338624338625,1.1324736960232258,950.5354088707827,None,,,,,,,,,,,151,001,2024_Jan_18_1731,SpeechDraft1Carolyn_lessNoise_PlusLocalization,2021.2.3,59.93607910133411,
,,,,,,,,farLeft,-19.1,5,ch1Sound_localizationTask.wav,-19.1,"(667, 878)","(-293,-202)",-285,-338,,,,,,,,,6,2,44,0,,,,,,,,,,,,,,,,,,,,,,,,,,,,,,,,,,,,,,,,,,,,951.6697573456913,None,952.7687661149539,None,953.7022264567204,None,1.2391534391534391,0.9501269040629268,953.7022264567204,None,,,,,,,,,,,151,001,2024_Jan_18_1731,SpeechDraft1Carolyn_lessNoise_PlusLocalization,2021.2.3,59.93607910133411,
,,,,,,,,farLeft,-19.1,5,ch1Sound_localizationTask.wav,-19.1,"(667, 878)","(-293,-202)",-285,-338,,,,,,,,,6,3,45,0,,,,,,,,,,,,,,,,,,,,,,,,,,,,,,,,,,,,,,,,,,,,954.6529872757383,None,955.7521447599865,None,956.6854360569268,None,1.1703703703703705,0.6498794700019062,956.6854360569268,None,,,,,,,,,,,151,001,2024_Jan_18_1731,SpeechDraft1Carolyn_lessNoise_PlusLocalization,2021.2.3,59.93607910133411,
,,,,,,,,farRight,19.1,4,ch1Sound_localizationTask.wav,19.1,"(1237, 878)","(277,-202)",285,-338,,,,,,,,,6,4,46,6,,,,,,,,,,,,,,,,,,,,,,,,,,,,,,,,,,,,,,,,,,,,957.3365629389882,None,958.4353266907856,None,959.368943173904,None,1.6936507936507936,1.2668711999431252,959.368943173904,None,,,,,,,,,,,151,001,2024_Jan_18_1731,SpeechDraft1Carolyn_lessNoise_PlusLocalization,2021.2.3,59.93607910133411,
,,,,,,,,nearRight,6.5,0,ch1Sound_localizationTask.wav,6.5,"(1047, 878)","(87, -202)",95,-338,,,,,,,,,6,5,47,4,,,,,,,,,,,,,,,,,,,,,,,,,,,,,,,,,,,,,,,,,,,,960.6528515177779,None,961.7521058791317,None,962.6854399158619,None,1.4534391534391533,0.5829770541749895,962.6854399158619,None,,,,,,,,,,,151,001,2024_Jan_18_1731,SpeechDraft1Carolyn_lessNoise_PlusLocalization,2021.2.3,59.93607910133411,
,,,,,,,,nearRight,6.5,0,ch1Sound_localizationTask.wav,6.5,"(1047, 878)","(87, -202)",95,-338,,,,,,,,,6,6,48,4,,,,,,,,,,,,,,,,,,,,,,,,,,,,,,,,,,,,,,,,,,,,963.2696819198318,None,964.3689566571265,None,965.3021599408239,None,1.51005291005291,0.5990766328759491,965.3021599408239,None,,,,,,,,,,,151,001,2024_Jan_18_1731,SpeechDraft1Carolyn_lessNoise_PlusLocalization,2021.2.3,59.93607910133411,
,,,,,,,,nearLeft,-6.5,1,ch1Sound_localizationTask.wav,-6.5,"(857, 878)","(-103,-202)",-95,-338,,,,,,,,,7,0,49,2,,,,,,,,,,,,,,,,,,,,,,,,,,,,,,,,,,,,,,,,,,,,965.9027233901434,None,967.0022109108977,None,967.9356624791399,None,1.2873015873015872,0.7002531317993999,967.9356624791399,None,,,,,,,,,,,151,001,2024_Jan_18_1731,SpeechDraft1Carolyn_lessNoise_PlusLocalization,2021.2.3,59.93607910133411,
,,,,,,,,farLeft,-19.1,5,ch1Sound_localizationTask.wav,-19.1,"(667, 878)","(-293,-202)",-285,-338,,,,,,,,,7,1,50,0,,,,,,,,,,,,,,,,,,,,,,,,,,,,,,,,,,,,,,,,,,,,968.6525230789557,None,969.7520510507748,None,970.6854634978808,None,1.1888888888888889,0.7494120970368385,970.6854634978808,None,,,,,,,,,,,151,001,2024_Jan_18_1731,SpeechDraft1Carolyn_lessNoise_PlusLocalization,2021.2.3,59.93607910133411,
,,,,,,,,midRight,13.0,3,ch1Sound_localizationTask.wav,13.0,"(1142, 878)","(182, -202)",190,-338,,,,,,,,,7,2,51,5,,,,,,,,,,,,,,,,,,,,,,,,,,,,,,,,,,,,,,,,,,,,971.4360873219557,None,972.5359203740954,None,973.4688095999882,None,1.6058201058201058,0.7825531116686761,973.4688095999882,None,,,,,,,,,,,151,001,2024_Jan_18_1731,SpeechDraft1Carolyn_lessNoise_PlusLocalization,2021.2.3,59.93607910133411,
,,,,,,,,farRight,19.1,4,ch1Sound_localizationTask.wav,19.1,"(1237, 878)","(277,-202)",285,-338,,,,,,,,,7,3,52,6,,,,,,,,,,,,,,,,,,,,,,,,,,,,,,,,,,,,,,,,,,,,974.2526888838038,None,975.3522648788057,None,976.2856507287361,None,1.6873015873015873,0.5837449468672276,976.2856507287361,None,,,,,,,,,,,151,001,2024_Jan_18_1731,SpeechDraft1Carolyn_lessNoise_PlusLocalization,2021.2.3,59.93607910133411,
,,,,,,,,nearRight,6.5,0,ch1Sound_localizationTask.wav,6.5,"(1047, 878)","(87, -202)",95,-338,,,,,,,,,7,4,53,4,,,,,,,,,,,,,,,,,,,,,,,,,,,,,,,,,,,,,,,,,,,,976.8859156630933,None,977.9854139620438,None,978.9190535726957,None,1.4841269841269842,0.5997054516337812,978.9190535726957,None,,,,,,,,,,,151,001,2024_Jan_18_1731,SpeechDraft1Carolyn_lessNoise_PlusLocalization,2021.2.3,59.93607910133411,
,,,,,,,,farRight,19.1,4,ch1Sound_localizationTask.wav,19.1,"(1237, 878)","(277,-202)",285,-338,,,,,,,,,7,5,54,6,,,,,,,,,,,,,,,,,,,,,,,,,,,,,,,,,,,,,,,,,,,,979.519876759965,None,980.6187117197551,None,981.5522688077763,None,1.6994708994708994,0.48422843497246504,981.5522688077763,None,,,,,,,,,,,151,001,2024_Jan_18_1731,SpeechDraft1Carolyn_lessNoise_PlusLocalization,2021.2.3,59.93607910133411,
,,,,,,,,nearRight,6.5,0,ch1Sound_localizationTask.wav,6.5,"(1047, 878)","(87, -202)",95,-338,,,,,,,,,7,6,55,4,,,,,,,,,,,,,,,,,,,,,,,,,,,,,,,,,,,,,,,,,,,,982.0526779280044,None,983.152220535092,None,984.0856196777895,None,1.528042328042328,0.7835893593728542,984.0856196777895,None,,,,,,,,,,,151,001,2024_Jan_18_1731,SpeechDraft1Carolyn_lessNoise_PlusLocalization,2021.2.3,59.93607910133411,
,,,,,,,,,,,,,,,,,,,,,,,,,,,,,,,,,,,,,,,,,,,,,,,,,,,,,,,,,,,,,,,,,,,,,,,,,,,,,,,,,,space,13.755925284232944,984.9523624968715,None,,,,,,,151,001,2024_Jan_18_1731,SpeechDraft1Carolyn_lessNoise_PlusLocalization,2021.2.3,59.93607910133411,
,,,,,,,,nearRight,6.5,0,ch1Sound_localizationTask.wav,6.5,"(1047, 878)","(87, -202)",95,-338,,,,,,,,,,,,,0,0,0,4,,,,,,,,,,,,,,,,,,,,,,,,,,,,,,,,,,,,,,,,998.7520938310772,None,,,1001.7698367899284,None,1.574074074074074,1.8883032910525799,1001.7698367899284,None,,,,,984.9523624968715,None,999.7526904637925,None,999.935935400892,999.9525207630359,151,001,2024_Jan_18_1731,SpeechDraft1Carolyn_lessNoise_PlusLocalization,2021.2.3,59.93607910133411,
,,,,,,,,midRight,13.0,3,ch1Sound_localizationTask.wav,13.0,"(1142, 878)","(182, -202)",190,-338,,,,,,,,,,,,,0,1,1,5,,,,,,,,,,,,,,,,,,,,,,,,,,,,,,,,,,,,,,,,1003.6697835577652,None,,,1006.6856097569689,None,1.5936507936507938,1.4334701509214938,1006.6856097569689,None,,,,,,,1004.6693888269365,None,1004.8525850451551,1004.8690778259188,151,001,2024_Jan_18_1731,SpeechDraft1Carolyn_lessNoise_PlusLocalization,2021.2.3,59.93607910133411,
,,,,,,,,farRight,19.1,4,ch1Sound_localizationTask.wav,19.1,"(1237, 878)","(277,-202)",285,-338,,,,,,,,,,,,,0,2,2,6,,,,,,,,,,,,,,,,,,,,,,,,,,,,,,,,,,,,,,,,1008.1359166968614,None,,,1011.1523887487128,None,1.6603174603174602,1.3000346259213984,1011.1523887487128,None,,,,,,,1009.1359358509071,None,1009.3193702148274,1009.336004236713,151,001,2024_Jan_18_1731,SpeechDraft1Carolyn_lessNoise_PlusLocalization,2021.2.3,59.93607910133411,
,,,,,,,,farRight,19.1,4,ch1Sound_localizationTask.wav,19.1,"(1237, 878)","(277,-202)",285,-338,,,,,,,,,,,,,0,3,3,6,,,,,,,,,,,,,,,,,,,,,,,,,,,,,,,,,,,,,,,,1012.453177920077,None,,,1015.4689269587398,None,1.6179894179894179,0.7495961058884859,1015.4689269587398,None,,,,,,,1013.4525778708048,None,1013.6358045251109,1013.6525055509992,151,001,2024_Jan_18_1731,SpeechDraft1Carolyn_lessNoise_PlusLocalization,2021.2.3,59.93607910133411,
,,,,,,,,farLeft,-19.1,5,ch1Sound_localizationTask.wav,-19.1,"(667, 878)","(-293,-202)",-285,-338,,,,,,,,,,,,,0,4,4,0,,,,,,,,,,,,,,,,,,,,,,,,,,,,,,,,,,,,,,,,1016.2202883111313,None,,,1019.2523522339761,None,1.344973544973545,1.0663610086776316,1019.2523522339761,None,,,,,,,1017.2360004857183,None,1017.4190282020718,1017.4360065991059,151,001,2024_Jan_18_1731,SpeechDraft1Carolyn_lessNoise_PlusLocalization,2021.2.3,59.93607910133411,
,,,,,,,,nearLeft,-6.5,1,ch1Sound_localizationTask.wav,-6.5,"(857, 878)","(-103,-202)",-95,-338,,,,,,,,,,,,,0,5,5,2,,,,,,,,,,,,,,,,,,,,,,,,,,,,,,,,,,,,,,,,1020.3201808608137,None,,,1023.3521790029481,None,1.4153439153439153,1.46566939400509,1023.3521790029481,None,,,,,,,1021.3358773188666,None,1021.5191163928248,1021.5358359040692,151,001,2024_Jan_18_1731,SpeechDraft1Carolyn_lessNoise_PlusLocalization,2021.2.3,59.93607910133411,
,,,,,,,,midRight,13.0,3,ch1Sound_localizationTask.wav,13.0,"(1142, 878)","(182, -202)",190,-338,,,,,,,,,,,,,0,6,6,5,,,,,,,,,,,,,,,,,,,,,,,,,,,,,,,,,,,,,,,,1024.8192901248112,None,,,1027.8355419347063,None,1.6042328042328042,1.1825134353712201,1027.8355419347063,None,,,,,,,1025.8191256299615,None,1026.0025172471069,1026.0191776729189,151,001,2024_Jan_18_1731,SpeechDraft1Carolyn_lessNoise_PlusLocalization,2021.2.3,59.93607910133411,
,,,,,,,,nearLeft,-6.5,1,ch1Sound_localizationTask.wav,-6.5,"(857, 878)","(-103,-202)",-95,-338,,,,,,,,,,,,,1,0,7,2,,,,,,,,,,,,,,,,,,,,,,,,,,,,,,,,,,,,,,,,1029.020489468705,None,,,1032.052288163919,None,1.4126984126984126,1.233038427773863,1032.052288163919,None,,,,,,,1030.0359421507455,None,1030.2191181820817,1030.2359672617167,151,001,2024_Jan_18_1731,SpeechDraft1Carolyn_lessNoise_PlusLocalization,2021.2.3,59.93607910133411,
,,,,,,,,farLeft,-19.1,5,ch1Sound_localizationTask.wav,-19.1,"(667, 878)","(-293,-202)",-285,-338,,,,,,,,,,,,,1,1,8,0,,,,,,,,,,,,,,,,,,,,,,,,,,,,,,,,,,,,,,,,1033.2869403618388,None,,,1036.3191298078746,None,1.3206349206349206,2.0000551152043045,1036.3191298078746,None,,,,,,,1034.3028442910872,None,1034.4860142278485,1034.5026227361523,151,001,2024_Jan_18_1731,SpeechDraft1Carolyn_lessNoise_PlusLocalization,2021.2.3,59.93607910133411,
,,,,,,,,center,0.0,6,ch1Sound_localizationTask.wav,0.0,"(952, 878)","(-8,-202)",0,-338,,,,,,,,,,,,,1,2,9,3,,,,,,,,,,,,,,,,,,,,,,,,,,,,,,,,,,,,,,,,1038.3203864106908,None,,,1041.3523360360414,None,1.4984126984126984,0.6663444270379841,1041.3523360360414,None,,,,,,,1039.3359891907312,None,1039.5193911199458,1039.5359901450574,151,001,2024_Jan_18_1731,SpeechDraft1Carolyn_lessNoise_PlusLocalization,2021.2.3,59.93607910133411,
,,,,,,,,farRight,19.1,4,ch1Sound_localizationTask.wav,19.1,"(1237, 878)","(277,-202)",285,-338,,,,,,,,,,,,,1,3,10,6,,,,,,,,,,,,,,,,,,,,,,,,,,,,,,,,,,,,,,,,1042.019999732729,None,,,1045.0358256050386,None,1.6306878306878307,1.13294308912009,1045.0358256050386,None,,,,,,,1043.0191953578033,None,1043.2025275477208,1043.2195140048862,151,001,2024_Jan_18_1731,SpeechDraft1Carolyn_lessNoise_PlusLocalization,2021.2.3,59.93607910133411,
,,,,,,,,midLeft,-13.0,2,ch1Sound_localizationTask.wav,-13.0,"(762, 878)","(-198,-202)",-190,-338,,,,,,,,,,,,,1,4,11,1,,,,,,,,,,,,,,,,,,,,,,,,,,,,,,,,,,,,,,,,1046.169776206836,None,,,1049.1857715668157,None,1.435978835978836,1.0158552746288478,1049.1857715668157,None,,,,,,,1047.1692117308266,None,1047.3524340698496,1047.3692190106958,151,001,2024_Jan_18_1731,SpeechDraft1Carolyn_lessNoise_PlusLocalization,2021.2.3,59.93607910133411,
,,,,,,,,farLeft,-19.1,5,ch1Sound_localizationTask.wav,-19.1,"(667, 878)","(-293,-202)",-285,-338,,,,,,,,,,,,,1,5,12,0,,,,,,,,,,,,,,,,,,,,,,,,,,,,,,,,,,,,,,,,1050.2032533311285,None,,,1053.2188785588369,None,1.3571428571428572,1.0833798670209944,1053.2188785588369,None,,,,,,,1051.2026144578122,None,1051.3858879399486,1051.4026829018258,151,001,2024_Jan_18_1731,SpeechDraft1Carolyn_lessNoise_PlusLocalization,2021.2.3,59.93607910133411,
,,,,,,,,midRight,13.0,3,ch1Sound_localizationTask.wav,13.0,"(1142, 878)","(182, -202)",190,-338,,,,,,,,,,,,,1,6,13,5,,,,,,,,,,,,,,,,,,,,,,,,,,,,,,,,,,,,,,,,1054.3191824168898,None,,,1057.3357290248387,None,1.6074074074074074,1.2332981582731009,1057.3357290248387,None,,,,,,,1055.3192932168022,None,1055.5025106770918,1055.5190289900638,151,001,2024_Jan_18_1731,SpeechDraft1Carolyn_lessNoise_PlusLocalization,2021.2.3,59.93607910133411,
,,,,,,,,farLeft,-19.1,5,ch1Sound_localizationTask.wav,-19.1,"(667, 878)","(-293,-202)",-285,-338,,,,,,,,,,,,,2,0,14,0,,,,,,,,,,,,,,,,,,,,,,,,,,,,,,,,,,,,,,,,1058.5698625780642,None,,,1061.585564929992,None,1.3746031746031746,1.8839296139776707,1061.585564929992,None,,,,,,,1059.5693686241284,None,1059.7526252698153,1059.7695050761104,151,001,2024_Jan_18_1731,SpeechDraft1Carolyn_lessNoise_PlusLocalization,2021.2.3,59.93607910133411,
,,,,,,,,midRight,13.0,3,ch1Sound_localizationTask.wav,13.0,"(1142, 878)","(182, -202)",190,-338,,,,,,,,,,,,,2,1,15,5,,,,,,,,,,,,,,,,,,,,,,,,,,,,,,,,,,,,,,,,1063.4860564931296,None,,,1066.5025150068104,None,1.5666666666666667,1.2652501678094268,1066.5025150068104,None,,,,,,,1064.4858511029743,None,1064.6692132716998,1064.685891140718,151,001,2024_Jan_18_1731,SpeechDraft1Carolyn_lessNoise_PlusLocalization,2021.2.3,59.93607910133411,
,,,,,,,,nearLeft,-6.5,1,ch1Sound_localizationTask.wav,-6.5,"(857, 878)","(-103,-202)",-95,-338,,,,,,,,,,,,,2,2,16,2,,,,,,,,,,,,,,,,,,,,,,,,,,,,,,,,,,,,,,,,1067.769317781087,None,,,1070.7855836777017,None,1.439153439153439,0.9819631529971957,1070.7855836777017,None,,,,,,,1068.7691958318464,None,1068.952677805908,1068.969198946841,151,001,2024_Jan_18_1731,SpeechDraft1Carolyn_lessNoise_PlusLocalization,2021.2.3,59.93607910133411,
,,,,,,,,midLeft,-13.0,2,ch1Sound_localizationTask.wav,-13.0,"(762, 878)","(-198,-202)",-190,-338,,,,,,,,,,,,,2,3,17,1,,,,,,,,,,,,,,,,,,,,,,,,,,,,,,,,,,,,,,,,1071.7693293709308,None,,,1074.785694338847,None,1.4052910052910053,0.9493638747371733,1074.785694338847,None,,,,,,,1072.7692556809634,None,1072.952687558718,1072.9691822067834,151,001,2024_Jan_18_1731,SpeechDraft1Carolyn_lessNoise_PlusLocalization,2021.2.3,59.93607910133411,
,,,,,,,,nearRight,6.5,0,ch1Sound_localizationTask.wav,6.5,"(1047, 878)","(87, -202)",95,-338,,,,,,,,,,,,,2,4,18,4,,,,,,,,,,,,,,,,,,,,,,,,,,,,,,,,,,,,,,,,1075.735946488101,None,,,1078.7520731217228,None,1.5582010582010581,1.2488518399186432,1078.7520731217228,None,,,,,,,1076.7359161488712,None,1076.9193595559336,1076.9360828180797,151,001,2024_Jan_18_1731,SpeechDraft1Carolyn_lessNoise_PlusLocalization,2021.2.3,59.93607910133411,
,,,,,,,,midLeft,-13.0,2,ch1Sound_localizationTask.wav,-13.0,"(762, 878)","(-198,-202)",-190,-338,,,,,,,,,,,,,2,5,19,1,,,,,,,,,,,,,,,,,,,,,,,,,,,,,,,,,,,,,,,,1080.0030421069823,None,,,1083.0188766699284,None,1.4158730158730157,0.949675568845123,1083.0188766699284,None,,,,,,,1081.0025589209981,None,1081.1858823429793,1081.2027642140165,151,001,2024_Jan_18_1731,SpeechDraft1Carolyn_lessNoise_PlusLocalization,2021.2.3,59.93607910133411,
,,,,,,,,farRight,19.1,4,ch1Sound_localizationTask.wav,19.1,"(1237, 878)","(277,-202)",285,-338,,,,,,,,,,,,,2,6,20,6,,,,,,,,,,,,,,,,,,,,,,,,,,,,,,,,,,,,,,,,1083.9698399868794,None,,,1086.9856347297318,None,1.6756613756613756,1.2498202030546963,1086.9856347297318,None,,,,,,,1084.969249538146,None,1085.152613340877,1085.1693259999156,151,001,2024_Jan_18_1731,SpeechDraft1Carolyn_lessNoise_PlusLocalization,2021.2.3,59.93607910133411,
,,,,,,,,nearRight,6.5,0,ch1Sound_localizationTask.wav,6.5,"(1047, 878)","(87, -202)",95,-338,,,,,,,,,,,,,3,0,21,4,,,,,,,,,,,,,,,,,,,,,,,,,,,,,,,,,,,,,,,,1088.2528485739604,None,,,1091.26900848886,None,1.5523809523809524,1.2162045198492706,1091.26900848886,None,,,,,,,1089.2525075720623,None,1089.436067444738,1089.4525655927137,151,001,2024_Jan_18_1731,SpeechDraft1Carolyn_lessNoise_PlusLocalization,2021.2.3,59.93607910133411,
,,,,,,,,midLeft,-13.0,2,ch1Sound_localizationTask.wav,-13.0,"(762, 878)","(-198,-202)",-190,-338,,,,,,,,,,,,,3,1,22,1,,,,,,,,,,,,,,,,,,,,,,,,,,,,,,,,,,,,,,,,1092.4864449179731,None,,,1095.502459264826,None,1.4185185185185185,1.3496158500202,1095.502459264826,None,,,,,,,1093.4860761058517,None,1093.6694881450385,1093.6860461668111,151,001,2024_Jan_18_1731,SpeechDraft1Carolyn_lessNoise_PlusLocalization,2021.2.3,59.93607910133411,
,,,,,,,,farRight,19.1,4,ch1Sound_localizationTask.wav,19.1,"(1237, 878)","(277,-202)",285,-338,,,,,,,,,,,,,3,2,23,6,,,,,,,,,,,,,,,,,,,,,,,,,,,,,,,,,,,,,,,,1096.853625685908,None,,,1099.8857597997412,None,1.651851851851852,0.9663555207662284,1099.8857597997412,None,,,,,,,1097.8693269467913,None,1098.0525579657406,1098.0691525619477,151,001,2024_Jan_18_1731,SpeechDraft1Carolyn_lessNoise_PlusLocalization,2021.2.3,59.93607910133411,
,,,,,,,,center,0.0,6,ch1Sound_localizationTask.wav,0.0,"(952, 878)","(-8,-202)",0,-338,,,,,,,,,,,,,3,3,24,3,,,,,,,,,,,,,,,,,,,,,,,,,,,,,,,,,,,,,,,,1100.853447446134,None,,,1103.8693870399147,None,1.4936507936507937,0.882628611754626,1103.8693870399147,None,,,,,,,1101.85256719077,None,1102.0359072997235,1102.0526896580122,151,001,2024_Jan_18_1731,SpeechDraft1Carolyn_lessNoise_PlusLocalization,2021.2.3,59.93607910133411,
,,,,,,,,nearLeft,-6.5,1,ch1Sound_localizationTask.wav,-6.5,"(857, 878)","(-103,-202)",-95,-338,,,,,,,,,,,,,3,4,25,2,,,,,,,,,,,,,,,,,,,,,,,,,,,,,,,,,,,,,,,,1104.7532605770975,None,,,1107.7691274550743,None,1.4534391534391533,0.8320182110182941,1107.7691274550743,None,,,,,,,1105.7527536191046,None,1105.9359162608162,1105.9527830500156,151,001,2024_Jan_18_1731,SpeechDraft1Carolyn_lessNoise_PlusLocalization,2021.2.3,59.93607910133411,
,,,,,,,,nearRight,6.5,0,ch1Sound_localizationTask.wav,6.5,"(1047, 878)","(87, -202)",95,-338,,,,,,,,,,,,,3,5,26,4,,,,,,,,,,,,,,,,,,,,,,,,,,,,,,,,,,,,,,,,1108.6028693430126,None,,,1111.618876190856,None,1.5534391534391534,0.8330859350971878,1111.618876190856,None,,,,,,,1109.6026594680734,None,1109.7861216771416,1109.802638115827,151,001,2024_Jan_18_1731,SpeechDraft1Carolyn_lessNoise_PlusLocalization,2021.2.3,59.93607910133411,
,,,,,,,,midRight,13.0,3,ch1Sound_localizationTask.wav,13.0,"(1142, 878)","(182, -202)",190,-338,,,,,,,,,,,,,3,6,27,5,,,,,,,,,,,,,,,,,,,,,,,,,,,,,,,,,,,,,,,,1112.4535798858851,None,,,1115.4690001579002,None,1.5841269841269843,0.8988848580047488,1115.4690001579002,None,,,,,,,1113.4528683917597,None,1113.635848226957,1113.652804676909,151,001,2024_Jan_18_1731,SpeechDraft1Carolyn_lessNoise_PlusLocalization,2021.2.3,59.93607910133411,
,,,,,,,,nearRight,6.5,0,ch1Sound_localizationTask.wav,6.5,"(1047, 878)","(87, -202)",95,-338,,,,,,,,,,,,,4,0,28,4,,,,,,,,,,,,,,,,,,,,,,,,,,,,,,,,,,,,,,,,1116.36942236498,None,,,1119.3856011121534,None,1.5497354497354499,0.8328339722938836,1119.3856011121534,None,,,,,,,1117.3692173170857,None,1117.5525660347193,1117.5692729190923,151,001,2024_Jan_18_1731,SpeechDraft1Carolyn_lessNoise_PlusLocalization,2021.2.3,59.93607910133411,
,,,,,,,,center,0.0,6,ch1Sound_localizationTask.wav,0.0,"(952, 878)","(-8,-202)",0,-338,,,,,,,,,,,,,4,1,29,3,,,,,,,,,,,,,,,,,,,,,,,,,,,,,,,,,,,,,,,,1120.2195048457943,None,,,1123.2358416430652,None,1.5,0.8996865679509938,1123.2358416430652,None,,,,,,,1121.219533897005,None,1121.4025886259042,1121.4192743571475,151,001,2024_Jan_18_1731,SpeechDraft1Carolyn_lessNoise_PlusLocalization,2021.2.3,59.93607910133411,
,,,,,,,,midLeft,-13.0,2,ch1Sound_localizationTask.wav,-13.0,"(762, 878)","(-198,-202)",-190,-338,,,,,,,,,,,,,4,2,30,1,,,,,,,,,,,,,,,,,,,,,,,,,,,,,,,,,,,,,,,,1124.1367826741189,None,,,1127.1522682108916,None,1.3962962962962964,2.4326701960526407,1127.1522682108916,None,,,,,,,1125.1361666060984,None,1125.3195829759352,1125.3361421050504,151,001,2024_Jan_18_1731,SpeechDraft1Carolyn_lessNoise_PlusLocalization,2021.2.3,59.93607910133411,
,,,,,,,,farRight,19.1,4,ch1Sound_localizationTask.wav,19.1,"(1237, 878)","(277,-202)",285,-338,,,,,,,,,,,,,4,3,31,6,,,,,,,,,,,,,,,,,,,,,,,,,,,,,,,,,,,,,,,,1129.5865099509247,None,,,1132.6026375009678,None,1.6523809523809523,1.0998037247918546,1132.6026375009678,None,,,,,,,1130.5858993707225,None,1130.7694601970725,1130.7859923979267,151,001,2024_Jan_18_1731,SpeechDraft1Carolyn_lessNoise_PlusLocalization,2021.2.3,59.93607910133411,
,,,,,,,,center,0.0,6,ch1Sound_localizationTask.wav,0.0,"(952, 878)","(-8,-202)",0,-338,,,,,,,,,,,,,4,4,32,3,,,,,,,,,,,,,,,,,,,,,,,,,,,,,,,,,,,,,,,,1133.7194660627283,None,,,1136.7362415296957,None,1.4862433862433861,1.0490195332095027,1136.7362415296957,None,,,,,,,1134.7192500787787,None,1134.902850472834,1134.9192939121276,151,001,2024_Jan_18_1731,SpeechDraft1Carolyn_lessNoise_PlusLocalization,2021.2.3,59.93607910133411,
,,,,,,,,farRight,19.1,4,ch1Sound_localizationTask.wav,19.1,"(1237, 878)","(277,-202)",285,-338,,,,,,,,,,,,,4,5,33,6,,,,,,,,,,,,,,,,,,,,,,,,,,,,,,,,,,,,,,,,1137.7859737328254,None,,,1140.802303248085,None,1.6952380952380952,0.7685666372999549,1140.802303248085,None,,,,,,,1138.7861103131436,None,1138.9695551861078,1138.985851221718,151,001,2024_Jan_18_1731,SpeechDraft1Carolyn_lessNoise_PlusLocalization,2021.2.3,59.93607910133411,
,,,,,,,,midLeft,-13.0,2,ch1Sound_localizationTask.wav,-13.0,"(762, 878)","(-198,-202)",-190,-338,,,,,,,,,,,,,4,6,34,1,,,,,,,,,,,,,,,,,,,,,,,,,,,,,,,,,,,,,,,,1141.5860007470474,None,,,1144.60258482676,None,1.4074074074074074,0.9492166498675942,1144.60258482676,None,,,,,,,1142.5861185500398,None,1142.769381832797,1142.7861322839744,151,001,2024_Jan_18_1731,SpeechDraft1Carolyn_lessNoise_PlusLocalization,2021.2.3,59.93607910133411,
,,,,,,,,nearLeft,-6.5,1,ch1Sound_localizationTask.wav,-6.5,"(857, 878)","(-103,-202)",-95,-338,,,,,,,,,,,,,5,0,35,2,,,,,,,,,,,,,,,,,,,,,,,,,,,,,,,,,,,,,,,,1145.553056219127,None,,,1148.5692676119506,None,1.4433862433862434,0.9329808689653873,1148.5692676119506,None,,,,,,,1146.5525807077065,None,1146.735883701127,1146.752618922852,151,001,2024_Jan_18_1731,SpeechDraft1Carolyn_lessNoise_PlusLocalization,2021.2.3,59.93607910133411,
,,,,,,,,midLeft,-13.0,2,ch1Sound_localizationTask.wav,-13.0,"(762, 878)","(-198,-202)",-190,-338,,,,,,,,,,,,,5,1,36,1,,,,,,,,,,,,,,,,,,,,,,,,,,,,,,,,,,,,,,,,1149.503208505921,None,,,1152.5192456417717,None,1.4121693121693122,0.8166050319559872,1152.5192456417717,None,,,,,,,1150.5027896207757,None,1150.6859881249256,1150.7026755758561,151,001,2024_Jan_18_1731,SpeechDraft1Carolyn_lessNoise_PlusLocalization,2021.2.3,59.93607910133411,
,,,,,,,,center,0.0,6,ch1Sound_localizationTask.wav,0.0,"(952, 878)","(-8,-202)",0,-338,,,,,,,,,,,,,5,2,37,3,,,,,,,,,,,,,,,,,,,,,,,,,,,,,,,,,,,,,,,,1153.3363325051032,None,,,1156.3522637477145,None,1.508994708994709,1.1494013899937272,1156.3522637477145,None,,,,,,,1154.33605566388,None,1154.5192947089672,1154.536230634898,151,001,2024_Jan_18_1731,SpeechDraft1Carolyn_lessNoise_PlusLocalization,2021.2.3,59.93607910133411,
,,,,,,,,nearRight,6.5,0,ch1Sound_localizationTask.wav,6.5,"(1047, 878)","(87, -202)",95,-338,,,,,,,,,,,,,5,3,38,4,,,,,,,,,,,,,,,,,,,,,,,,,,,,,,,,,,,,,,,,1157.5034969830886,None,,,1160.5191295030527,None,1.5349206349206348,0.7988236527889967,1160.5191295030527,None,,,,,,,1158.5027171559632,None,1158.6860139868222,1158.7028067968786,151,001,2024_Jan_18_1731,SpeechDraft1Carolyn_lessNoise_PlusLocalization,2021.2.3,59.93607910133411,
,,,,,,,,nearLeft,-6.5,1,ch1Sound_localizationTask.wav,-6.5,"(857, 878)","(-103,-202)",-95,-338,,,,,,,,,,,,,5,4,39,2,,,,,,,,,,,,,,,,,,,,,,,,,,,,,,,,,,,,,,,,1161.3202826208435,None,,,1164.3361431621015,None,1.4513227513227513,0.7328219660557806,1164.3361431621015,None,,,,,,,1162.3193726208992,None,1162.5026417220943,1162.5194863397628,151,001,2024_Jan_18_1731,SpeechDraft1Carolyn_lessNoise_PlusLocalization,2021.2.3,59.93607910133411,
,,,,,,,,center,0.0,6,ch1Sound_localizationTask.wav,0.0,"(952, 878)","(-8,-202)",0,-338,,,,,,,,,,,,,5,5,40,3,,,,,,,,,,,,,,,,,,,,,,,,,,,,,,,,,,,,,,,,1165.0702054160647,None,,,1168.0857619540766,None,1.5,0.4823876740410924,1168.0857619540766,None,,,,,,,1166.069594165776,None,1166.252773900982,1166.2694659261033,151,001,2024_Jan_18_1731,SpeechDraft1Carolyn_lessNoise_PlusLocalization,2021.2.3,59.93607910133411,
,,,,,,,,nearRight,6.5,0,ch1Sound_localizationTask.wav,6.5,"(1047, 878)","(87, -202)",95,-338,,,,,,,,,,,,,5,6,41,4,,,,,,,,,,,,,,,,,,,,,,,,,,,,,,,,,,,,,,,,1168.569765246939,None,,,1171.58589091897,None,1.546031746031746,0.8495929343625903,1171.58589091897,None,,,,,,,1169.5693491059355,None,1169.7527861939743,1169.7693789559416,151,001,2024_Jan_18_1731,SpeechDraft1Carolyn_lessNoise_PlusLocalization,2021.2.3,59.93607910133411,
,,,,,,,,midRight,13.0,3,ch1Sound_localizationTask.wav,13.0,"(1142, 878)","(182, -202)",190,-338,,,,,,,,,,,,,6,0,42,5,,,,,,,,,,,,,,,,,,,,,,,,,,,,,,,,,,,,,,,,1172.4366585989483,None,,,1175.4526064889506,None,1.5904761904761906,0.8160915961489081,1175.4526064889506,None,,,,,,,1173.4359306278639,None,1173.6192850610241,1173.6360925617628,151,001,2024_Jan_18_1731,SpeechDraft1Carolyn_lessNoise_PlusLocalization,2021.2.3,59.93607910133411,
,,,,,,,,nearLeft,-6.5,1,ch1Sound_localizationTask.wav,-6.5,"(857, 878)","(-103,-202)",-95,-338,,,,,,,,,,,,,6,1,43,2,,,,,,,,,,,,,,,,,,,,,,,,,,,,,,,,,,,,,,,,1176.2703168620355,None,,,1179.2858580760658,None,1.470899470899471,0.8163439710624516,1179.2858580760658,None,,,,,,,1177.2695887018926,None,1177.4526149490848,1177.4693550327793,151,001,2024_Jan_18_1731,SpeechDraft1Carolyn_lessNoise_PlusLocalization,2021.2.3,59.93607910133411,
,,,,,,,,farRight,19.1,4,ch1Sound_localizationTask.wav,19.1,"(1237, 878)","(277,-202)",285,-338,,,,,,,,,,,,,6,2,44,6,,,,,,,,,,,,,,,,,,,,,,,,,,,,,,,,,,,,,,,,1180.1036744988523,None,,,1183.1192636210471,None,1.6576719576719576,0.8661263147369027,1183.1192636210471,None,,,,,,,1181.1028577000834,None,1181.286070250906,1181.3028258900158,151,001,2024_Jan_18_1731,SpeechDraft1Carolyn_lessNoise_PlusLocalization,2021.2.3,59.93607910133411,
,,,,,,,,center,0.0,6,ch1Sound_localizationTask.wav,0.0,"(952, 878)","(-8,-202)",0,-338,,,,,,,,,,,,,6,3,45,3,,,,,,,,,,,,,,,,,,,,,,,,,,,,,,,,,,,,,,,,1183.9869396877475,None,,,1187.0192964188755,None,1.4973544973544972,0.7999271950684488,1187.0192964188755,None,,,,,,,1185.002761373762,None,1185.1863461988978,1185.2028138679452,151,001,2024_Jan_18_1731,SpeechDraft1Carolyn_lessNoise_PlusLocalization,2021.2.3,59.93607910133411,
,,,,,,,,midRight,13.0,3,ch1Sound_localizationTask.wav,13.0,"(1142, 878)","(182, -202)",190,-338,,,,,,,,,,,,,6,4,46,5,,,,,,,,,,,,,,,,,,,,,,,,,,,,,,,,,,,,,,,,1187.8197564668953,None,,,1190.8359368988313,None,1.58994708994709,0.7320238840766251,1190.8359368988313,None,,,,,,,1188.8195519577712,None,1189.0028859036975,1189.0195553661324,151,001,2024_Jan_18_1731,SpeechDraft1Carolyn_lessNoise_PlusLocalization,2021.2.3,59.93607910133411,
,,,,,,,,farLeft,-19.1,5,ch1Sound_localizationTask.wav,-19.1,"(667, 878)","(-293,-202)",-285,-338,,,,,,,,,,,,,6,5,47,0,,,,,,,,,,,,,,,,,,,,,,,,,,,,,,,,,,,,,,,,1191.5695900190622,None,,,1194.5861055809073,None,1.3476190476190477,0.8487197482027113,1194.5861055809073,None,,,,,,,1192.5693347780034,None,1192.7527503967285,1192.7694556070492,151,001,2024_Jan_18_1731,SpeechDraft1Carolyn_lessNoise_PlusLocalization,2021.2.3,59.93607910133411,
,,,,,,,,midRight,13.0,3,ch1Sound_localizationTask.wav,13.0,"(1142, 878)","(182, -202)",190,-338,,,,,,,,,,,,,6,6,48,5,,,,,,,,,,,,,,,,,,,,,,,,,,,,,,,,,,,,,,,,1195.4362277677283,None,,,1198.4527514530346,None,1.608994708994709,0.799654692877084,1198.4527514530346,None,,,,,,,1196.4361140248366,None,1196.6194015187211,1196.63600090798,151,001,2024_Jan_18_1731,SpeechDraft1Carolyn_lessNoise_PlusLocalization,2021.2.3,59.93607910133411,
,,,,,,,,farLeft,-19.1,5,ch1Sound_localizationTask.wav,-19.1,"(667, 878)","(-293,-202)",-285,-338,,,,,,,,,,,,,7,0,49,0,,,,,,,,,,,,,,,,,,,,,,,,,,,,,,,,,,,,,,,,1199.253933381755,None,,,1202.2691563391127,None,1.337037037037037,0.9326319610700011,1202.2691563391127,None,,,,,,,1200.2527942950837,None,1200.4361913870089,1200.4526673839428,151,001,2024_Jan_18_1731,SpeechDraft1Carolyn_lessNoise_PlusLocalization,2021.2.3,59.93607910133411,
,,,,,,,,farLeft,-19.1,5,ch1Sound_localizationTask.wav,-19.1,"(667, 878)","(-293,-202)",-285,-338,,,,,,,,,,,,,7,1,50,0,,,,,,,,,,,,,,,,,,,,,,,,,,,,,,,,,,,,,,,,1203.202822101768,None,,,1206.2194878258742,None,1.3566137566137566,0.9333921102806926,1206.2194878258742,None,,,,,,,1204.2028063638136,None,1204.3863129490055,1204.402728152927,151,001,2024_Jan_18_1731,SpeechDraft1Carolyn_lessNoise_PlusLocalization,2021.2.3,59.93607910133411,
,,,,,,,,nearRight,6.5,0,ch1Sound_localizationTask.wav,6.5,"(1047, 878)","(87, -202)",95,-338,,,,,,,,,,,,,7,2,51,4,,,,,,,,,,,,,,,,,,,,,,,,,,,,,,,,,,,,,,,,1207.169482726138,None,,,1210.1859078439884,None,1.5523809523809524,0.64981434866786,1210.1859078439884,None,,,,,,,1208.1694593927823,None,1208.352921914775,1208.3693521958776,151,001,2024_Jan_18_1731,SpeechDraft1Carolyn_lessNoise_PlusLocalization,2021.2.3,59.93607910133411,
,,,,,,,,nearLeft,-6.5,1,ch1Sound_localizationTask.wav,-6.5,"(857, 878)","(-103,-202)",-95,-338,,,,,,,,,,,,,7,3,52,2,,,,,,,,,,,,,,,,,,,,,,,,,,,,,,,,,,,,,,,,1210.8527792650275,None,,,1213.8692335258238,None,1.4407407407407407,0.6655468731187284,1213.8692335258238,None,,,,,,,1211.8529061260633,None,1212.035976821091,1212.0527599630877,151,001,2024_Jan_18_1731,SpeechDraft1Carolyn_lessNoise_PlusLocalization,2021.2.3,59.93607910133411,
,,,,,,,,midLeft,-13.0,2,ch1Sound_localizationTask.wav,-13.0,"(762, 878)","(-198,-202)",-190,-338,,,,,,,,,,,,,7,4,53,1,,,,,,,,,,,,,,,,,,,,,,,,,,,,,,,,,,,,,,,,1214.5362870548852,None,,,1217.5527191199362,None,1.4285714285714286,0.5495672193355858,1217.5527191199362,None,,,,,,,1215.5361597607844,None,1215.7193997027352,1215.736077465117,151,001,2024_Jan_18_1731,SpeechDraft1Carolyn_lessNoise_PlusLocalization,2021.2.3,59.93607910133411,
,,,,,,,,center,0.0,6,ch1Sound_localizationTask.wav,0.0,"(952, 878)","(-8,-202)",0,-338,,,,,,,,,,,,,7,5,54,3,,,,,,,,,,,,,,,,,,,,,,,,,,,,,,,,,,,,,,,,1218.103288019076,None,,,1221.119175214786,None,1.4862433862433861,0.8000127859413624,1221.119175214786,None,,,,,,,1219.1028769789264,None,1219.286046647001,1219.302987372037,151,001,2024_Jan_18_1731,SpeechDraft1Carolyn_lessNoise_PlusLocalization,2021.2.3,59.93607910133411,
,,,,,,,,farLeft,-19.1,5,ch1Sound_localizationTask.wav,-19.1,"(667, 878)","(-293,-202)",-285,-338,,,,,,,,,,,,,7,6,55,0,,,,,,,,,,,,,,,,,,,,,,,,,,,,,,,,,,,,,,,,1221.920494438149,None,,,1224.9360289769247,None,1.3608465608465607,0.9167645582929254,1224.9360289769247,None,,,,,,,1222.9196346676908,None,1223.1030531330034,1223.1196134048514,151,001,2024_Jan_18_1731,SpeechDraft1Carolyn_lessNoise_PlusLocalization,2021.2.3,59.93607910133411,
