Audio_Only_Files,Video_Files,Original_Word_List,noiseLevelCode,conditionCodes,noiseLevelFile1,noiseLevelFile2,InstrTextVar,targetSpeakerName,targetSpeakerEccen,targetSpkrChannel,targetSpkrSound,targetVisualDegrees,visStimLoc,visStimLoc2,visStimW,visStimH,practiceTrials.thisRepN,practiceTrials.thisTrialN,practiceTrials.thisN,practiceTrials.thisIndex,trials.thisRepN,trials.thisTrialN,trials.thisN,trials.thisIndex,audLocalLoop.thisRepN,audLocalLoop.thisTrialN,audLocalLoop.thisN,audLocalLoop.thisIndex,visualLocalLoop.thisRepN,visualLocalLoop.thisTrialN,visualLocalLoop.thisN,visualLocalLoop.thisIndex,letsGoAlready.keys,letsGoAlready.rt,letsGoAlready.started,letsGoAlready.stopped,text_2.started,text_2.stopped,text_3.started,text_3.stopped,key_resp_2.keys,key_resp_2.rt,key_resp_2.started,key_resp_2.stopped,text_5.started,text_5.stopped,fixCross.started,fixCross.stopped,fixCross2.started,fixCross2.stopped,answerPrompt.started,answerPrompt.stopped,getAnswer.text,getAnswer.started,getAnswer.stopped,goToNext.keys,goToNext.rt,goToNext.started,goToNext.stopped,stretchBreakTxrt.started,stretchBreakTxrt.stopped,key_resp_3.keys,key_resp_3.rt,key_resp_3.started,key_resp_3.stopped,letsGoLocal.keys,letsGoLocal.rt,letsGoLocal.started,letsGoLocal.stopped,text_4.started,text_4.stopped,prepFixTxt.started,prepFixTxt.stopped,prepFixTxt_2.started,prepFixTxt_2.stopped,respPromptLocal.started,respPromptLocal.stopped,slider.response,slider.rt,slider.started,slider.stopped,letsGoLocal_2.keys,letsGoLocal_2.rt,letsGoLocal_2.started,letsGoLocal_2.stopped,text_7.started,text_7.stopped,prepFixTxt_3.started,prepFixTxt_3.stopped,grating.started,grating.stopped,exitTxt.started,exitTxt.stopped,key_resp.keys,key_resp.rt,key_resp.started,key_resp.stopped,participant,session,date,expName,psychopyVersion,frameRate,
,,,,,,,,,,,,,,,,,,,,,,,,,,,,,,,,,space,111.93465483095497,14.0496104513295,None,,,,,,,,,,,,,,,,,,,,,,,,,,,,,,,,,,,,,,,,,,,,,,,,,,,,,,,,,,,,,,152,001,2024_Jan_19_1301,SpeechDraft1Carolyn_lessNoise_PlusLocalization,2021.2.3,59.94613153543705,
,,,,,,,,,,,,,,,,,,,,,,,,,,,,,,,,,,,,,14.0496104513295,None,126.11649945937097,None,space,10.0048813871108,126.299548399169,None,,,,,,,,,,,,,,,,,,,,,,,,,,,,,,,,,,,,,,,,,,,,,,,,,,,,,,152,001,2024_Jan_19_1301,SpeechDraft1Carolyn_lessNoise_PlusLocalization,2021.2.3,59.94613153543705,
ash.wav,ash.mpg,ash,1,A,Pink_Noise_1_1.wav,Pink_Noise_1_2.wav,"This is an example of an

AUDIO trial",,,,,,,,,,0,0,0,0,,,,,,,,,,,,,,,,,,,,,,,,,136.3660168000497,None,137.34957605134696,None,140.51619574707001,None,141.89957996224985,None,H,141.89957996224985,None,return,3.3053344059735537,141.98308674013242,None,,,,,,,,,,,,,,,,,,,,,,,,,,,,,,,,,,,,,,,152,001,2024_Jan_19_1301,SpeechDraft1Carolyn_lessNoise_PlusLocalization,2021.2.3,59.94613153543705,
ash.wav,ash.mpg,ash,1,AV,Pink_Noise_1_1.wav,Pink_Noise_1_2.wav,"This is an example of an

AUDIO + VIDEO  trial",,,,,,,,,,0,1,1,1,,,,,,,,,,,,,,,,,,,,,,,,,145.3326265863143,None,146.33290980011225,None,147.83258633641526,None,149.2163563054055,None,Esh,149.2163563054055,None,return,3.460704438854009,149.2995850960724,None,,,,,,,,,,,,,,,,,,,,,,,,,,,,,,,,,,,,,,,152,001,2024_Jan_19_1301,SpeechDraft1Carolyn_lessNoise_PlusLocalization,2021.2.3,59.94613153543705,
,,,,,,,,,,,,,,,,,,,,,,,,,,,,,,,,,,,,,,,,,,,,,,,,,,,,,,,,,,,,152.79974110238254,None,space,17.785411807708442,152.9828541544266,None,,,,,,,,,,,,,,,,,,,,,,,,,,,,,,,,,152,001,2024_Jan_19_1301,SpeechDraft1Carolyn_lessNoise_PlusLocalization,2021.2.3,59.94613153543705,
read.wav,read.mpg,read,2,AV,Pink_Noise_2_1.wav,Pink_Noise_2_2.wav,,,,,,,,,,,,,,,0,0,0,84,,,,,,,,,,,,,,,,,,,,,,,170.8326089703478,None,172.31607274431735,None,173.6997079020366,None,Read,173.6997079020366,None,return,1.4813102167099714,173.78295513801277,None,,,,,,,,,,,,,,,,,,,,,,,,,,,,,,,,,,,,,,,152,001,2024_Jan_19_1301,SpeechDraft1Carolyn_lessNoise_PlusLocalization,2021.2.3,59.94613153543705,
grind.wav,grind.mpg,grind,2,AV,Pink_Noise_2_1.wav,Pink_Noise_2_2.wav,,,,,,,,,,,,,,,0,1,1,63,,,,,,,,,,,,,,,,,,,,,,,175.28293603099883,None,176.7828857083805,None,178.16638887207955,None,Grind,178.16638887207955,None,return,1.2545722392387688,178.24970738543198,None,,,,,,,,,,,,,,,,,,,,,,,,,,,,,,,,,,,,,,,152,001,2024_Jan_19_1301,SpeechDraft1Carolyn_lessNoise_PlusLocalization,2021.2.3,59.94613153543705,
crowd.wav,crowd.mpg,crowd,1,A,Pink_Noise_1_1.wav,Pink_Noise_1_2.wav,,,,,,,,,,,,,,,0,2,2,45,,,,,,,,,,,,,,,,,,,,,,,179.53297561313957,None,181.03247667336836,None,182.4163380144164,None,crowd,182.4163380144164,None,return,3.0766366235911846,182.49965171236545,None,,,,,,,,,,,,,,,,,,,,,,,,,,,,,,,,,,,,,,,152,001,2024_Jan_19_1301,SpeechDraft1Carolyn_lessNoise_PlusLocalization,2021.2.3,59.94613153543705,
damn.wav,damn.mpg,damn,6,AV,Pink_Noise_6_1.wav,Pink_Noise_6_2.wav,,,,,,,,,,,,,,,0,3,3,82,,,,,,,,,,,,,,,,,,,,,,,185.59962470643222,None,187.0992661952041,None,188.48300315300003,None,de[yj,188.48300315300003,None,return,1.6419183500111103,188.5663489853032,None,,,,,,,,,,,,,,,,,,,,,,,,,,,,,,,,,,,,,,,152,001,2024_Jan_19_1301,SpeechDraft1Carolyn_lessNoise_PlusLocalization,2021.2.3,59.94613153543705,
fun.wav,fun.mpg,fun,1,AV,Pink_Noise_1_1.wav,Pink_Noise_1_2.wav,,,,,,,,,,,,,,,0,4,4,91,,,,,,,,,,,,,,,,,,,,,,,190.2330559999682,None,191.73281106119975,None,193.11632930999622,None,fun,193.11632930999622,None,return,1.6325505110435188,193.19978797622025,None,,,,,,,,,,,,,,,,,,,,,,,,,,,,,,,,,,,,,,,152,001,2024_Jan_19_1301,SpeechDraft1Carolyn_lessNoise_PlusLocalization,2021.2.3,59.94613153543705,
bridge.wav,bridge.mpg,bridge,4,AV,Pink_Noise_4_1.wav,Pink_Noise_4_2.wav,,,,,,,,,,,,,,,0,5,5,119,,,,,,,,,,,,,,,,,,,,,,,194.84968181932345,None,196.34932667808607,None,197.7328957663849,None,bridge,197.7328957663849,None,return,1.4878999781794846,197.81636272603646,None,,,,,,,,,,,,,,,,,,,,,,,,,,,,,,,,,,,,,,,152,001,2024_Jan_19_1301,SpeechDraft1Carolyn_lessNoise_PlusLocalization,2021.2.3,59.94613153543705,
news.wav,news.mpg,news,2,A,Pink_Noise_2_1.wav,Pink_Noise_2_2.wav,,,,,,,,,,,,,,,0,6,6,8,,,,,,,,,,,,,,,,,,,,,,,199.33303525205702,None,200.83268028125167,None,202.21640828810632,None,"news
",202.21640828810632,None,return,1.2365517229773104,202.2997215623036,None,,,,,,,,,,,,,,,,,,,,,,,,,,,,,,,,,,,,,,,152,001,2024_Jan_19_1301,SpeechDraft1Carolyn_lessNoise_PlusLocalization,2021.2.3,59.94613153543705,
cure.wav,cure.mpg,cure,4,A,Pink_Noise_4_1.wav,Pink_Noise_4_2.wav,,,,,,,,,,,,,,,0,7,7,20,,,,,,,,,,,,,,,,,,,,,,,203.56633868115023,None,205.08276484906673,None,206.46658515697345,None,joy,206.46658515697345,None,return,4.394570993259549,206.54971107514575,None,,,,,,,,,,,,,,,,,,,,,,,,,,,,,,,,,,,,,,,152,001,2024_Jan_19_1301,SpeechDraft1Carolyn_lessNoise_PlusLocalization,2021.2.3,59.94613153543705,
mold.wav,mold.mpg,mold,6,A,Pink_Noise_6_1.wav,Pink_Noise_6_2.wav,,,,,,,,,,,,,,,0,8,8,42,,,,,,,,,,,,,,,,,,,,,,,210.96636563818902,None,212.4659099332057,None,213.84968212805688,None,walk,213.84968212805688,None,return,1.5234039728529751,213.93304600333795,None,,,,,,,,,,,,,,,,,,,,,,,,,,,,,,,,,,,,,,,152,001,2024_Jan_19_1301,SpeechDraft1Carolyn_lessNoise_PlusLocalization,2021.2.3,59.94613153543705,
dim.wav,dim.mpg,dim,1,AV,Pink_Noise_1_1.wav,Pink_Noise_1_2.wav,,,,,,,,,,,,,,,0,9,9,102,,,,,,,,,,,,,,,,,,,,,,,215.48301038425416,None,216.98283269722015,None,218.36639413936064,None,dim,218.36639413936064,None,return,1.0785884158685803,218.44968273118138,None,,,,,,,,,,,,,,,,,,,,,,,,,,,,,,,,,,,,,,,152,001,2024_Jan_19_1301,SpeechDraft1Carolyn_lessNoise_PlusLocalization,2021.2.3,59.94613153543705,
duke.wav,duke.mpg,duke,4,AV,Pink_Noise_4_1.wav,Pink_Noise_4_2.wav,,,,,,,,,,,,,,,0,10,10,109,,,,,,,,,,,,,,,,,,,,,,,219.54968755831942,None,221.0493941763416,None,222.43293264415115,None,do,222.43293264415115,None,return,0.7159666619263589,222.51638477528468,None,,,,,,,,,,,,,,,,,,,,,,,,,,,,,,,,,,,,,,,152,001,2024_Jan_19_1301,SpeechDraft1Carolyn_lessNoise_PlusLocalization,2021.2.3,59.94613153543705,
clutch.wav,clutch.mpg,clutch,2,A,Pink_Noise_2_1.wav,Pink_Noise_2_2.wav,,,,,,,,,,,,,,,0,11,11,52,,,,,,,,,,,,,,,,,,,,,,,223.24975178018212,None,224.74937811726704,None,226.13308633025736,None,clutch,226.13308633025736,None,return,1.8079482461325824,226.2164130071178,None,,,,,,,,,,,,,,,,,,,,,,,,,,,,,,,,,,,,,,,152,001,2024_Jan_19_1301,SpeechDraft1Carolyn_lessNoise_PlusLocalization,2021.2.3,59.94613153543705,
cloud.wav,cloud.mpg,cloud,5,A,Pink_Noise_5_1.wav,Pink_Noise_5_2.wav,,,,,,,,,,,,,,,0,12,12,15,,,,,,,,,,,,,,,,,,,,,,,228.04976835800335,None,229.54952410934493,None,230.93304594838992,None,buy,230.93304594838992,None,return,1.4240296659991145,231.01637166319415,None,,,,,,,,,,,,,,,,,,,,,,,,,,,,,,,,,,,,,,,152,001,2024_Jan_19_1301,SpeechDraft1Carolyn_lessNoise_PlusLocalization,2021.2.3,59.94613153543705,
grave.wav,grave.mpg,grave,1,A,Pink_Noise_1_1.wav,Pink_Noise_1_2.wav,,,,,,,,,,,,,,,0,13,13,57,,,,,,,,,,,,,,,,,,,,,,,232.4664000524208,None,233.9660845589824,None,235.34972371719778,None,"grade
",235.34972371719778,None,return,3.8872439633123577,235.4330099420622,None,,,,,,,,,,,,,,,,,,,,,,,,,,,,,,,,,,,,,,,152,001,2024_Jan_19_1301,SpeechDraft1Carolyn_lessNoise_PlusLocalization,2021.2.3,59.94613153543705,
pride.wav,pride.mpg,pride,1,AV,Pink_Noise_1_1.wav,Pink_Noise_1_2.wav,,,,,,,,,,,,,,,0,14,14,101,,,,,,,,,,,,,,,,,,,,,,,239.34976148838177,None,240.8500335579738,None,242.2330463649705,None,pride,242.2330463649705,None,return,3.899964169599116,242.3163846693933,None,,,,,,,,,,,,,,,,,,,,,,,,,,,,,,,,,,,,,,,152,001,2024_Jan_19_1301,SpeechDraft1Carolyn_lessNoise_PlusLocalization,2021.2.3,59.94613153543705,
cry.wav,cry.mpg,cry,2,AV,Pink_Noise_2_1.wav,Pink_Noise_2_2.wav,,,,,,,,,,,,,,,0,15,15,69,,,,,,,,,,,,,,,,,,,,,,,246.23312222212553,None,247.73274530097842,None,249.11637083720416,None,cry,249.11637083720416,None,return,1.2565290438942611,249.1998073454015,None,,,,,,,,,,,,,,,,,,,,,,,,,,,,,,,,,,,,,,,152,001,2024_Jan_19_1301,SpeechDraft1Carolyn_lessNoise_PlusLocalization,2021.2.3,59.94613153543705,
flask.wav,flask.mpg,flask,3,A,Pink_Noise_3_1.wav,Pink_Noise_3_2.wav,,,,,,,,,,,,,,,0,16,16,14,,,,,,,,,,,,,,,,,,,,,,,250.48325954331085,None,251.98275149101391,None,253.36641381913796,None,plans,253.36641381913796,None,return,1.7104535610415041,253.4497974650003,None,,,,,,,,,,,,,,,,,,,,,,,,,,,,,,,,,,,,,,,152,001,2024_Jan_19_1301,SpeechDraft1Carolyn_lessNoise_PlusLocalization,2021.2.3,59.94613153543705,
fly.wav,fly.mpg,fly,3,AV,Pink_Noise_3_1.wav,Pink_Noise_3_2.wav,,,,,,,,,,,,,,,0,17,17,62,,,,,,,,,,,,,,,,,,,,,,,255.18313830532134,None,256.6827683961019,None,258.06636881735176,None,fly,258.06636881735176,None,return,1.1784700830467045,258.1497880462557,None,,,,,,,,,,,,,,,,,,,,,,,,,,,,,,,,,,,,,,,152,001,2024_Jan_19_1301,SpeechDraft1Carolyn_lessNoise_PlusLocalization,2021.2.3,59.94613153543705,
oats.wav,oats.mpg,oats,1,AV,Pink_Noise_1_1.wav,Pink_Noise_1_2.wav,,,,,,,,,,,,,,,0,18,18,96,,,,,,,,,,,,,,,,,,,,,,,259.3496560212225,None,260.8662198060192,None,262.23305956833065,None,"oat
",262.23305956833065,None,return,1.035717573016882,262.31653744820505,None,,,,,,,,,,,,,,,,,,,,,,,,,,,,,,,,,,,,,,,152,001,2024_Jan_19_1301,SpeechDraft1Carolyn_lessNoise_PlusLocalization,2021.2.3,59.94613153543705,
crash.wav,crash.mpg,crash,5,AV,Pink_Noise_5_1.wav,Pink_Noise_5_2.wav,,,,,,,,,,,,,,,0,19,19,90,,,,,,,,,,,,,,,,,,,,,,,263.3830511951819,None,264.8828244372271,None,266.2664792952128,None,crash,266.2664792952128,None,return,1.282534901984036,266.3498341483064,None,,,,,,,,,,,,,,,,,,,,,,,,,,,,,,,,,,,,,,,152,001,2024_Jan_19_1301,SpeechDraft1Carolyn_lessNoise_PlusLocalization,2021.2.3,59.94613153543705,
phase.wav,phase.mpg,phase,3,AV,Pink_Noise_3_1.wav,Pink_Noise_3_2.wav,,,,,,,,,,,,,,,0,20,20,100,,,,,,,,,,,,,,,,,,,,,,,267.649729302153,None,269.1494103302248,None,270.5331001370214,None,face,270.5331001370214,None,return,0.6718038427643478,270.6164640909992,None,,,,,,,,,,,,,,,,,,,,,,,,,,,,,,,,,,,,,,,152,001,2024_Jan_19_1301,SpeechDraft1Carolyn_lessNoise_PlusLocalization,2021.2.3,59.94613153543705,
ton.wav,ton.mpg,ton,5,A,Pink_Noise_5_1.wav,Pink_Noise_5_2.wav,,,,,,,,,,,,,,,0,21,21,29,,,,,,,,,,,,,,,,,,,,,,,271.3165182573721,None,272.8161670733243,None,274.19990090141073,None,squad,274.19990090141073,None,return,5.0051735690794885,274.283088138327,None,,,,,,,,,,,,,,,,,,,,,,,,,,,,,,,,,,,,,,,152,001,2024_Jan_19_1301,SpeechDraft1Carolyn_lessNoise_PlusLocalization,2021.2.3,59.94613153543705,
eat.wav,eat.mpg,eat,5,A,Pink_Noise_5_1.wav,Pink_Noise_5_2.wav,,,,,,,,,,,,,,,0,22,22,27,,,,,,,,,,,,,,,,,,,,,,,279.31646670401096,None,280.8159749042243,None,282.199882785324,None,ditch,282.199882785324,None,return,10.829087521880865,282.28317875415087,None,,,,,,,,,,,,,,,,,,,,,,,,,,,,,,,,,,,,,,,152,001,2024_Jan_19_1301,SpeechDraft1Carolyn_lessNoise_PlusLocalization,2021.2.3,59.94613153543705,
bay.wav,bay.mpg,bay,5,A,Pink_Noise_5_1.wav,Pink_Noise_5_2.wav,,,,,,,,,,,,,,,0,23,23,34,,,,,,,,,,,,,,,,,,,,,,,293.13315119827166,None,294.6326995883137,None,296.01643897918984,None,dance,296.01643897918984,None,return,4.580422977916896,296.0998575971462,None,,,,,,,,,,,,,,,,,,,,,,,,,,,,,,,,,,,,,,,152,001,2024_Jan_19_1301,SpeechDraft1Carolyn_lessNoise_PlusLocalization,2021.2.3,59.94613153543705,
blaze.wav,blaze.mpg,blaze,3,A,Pink_Noise_3_1.wav,Pink_Noise_3_2.wav,,,,,,,,,,,,,,,0,24,24,5,,,,,,,,,,,,,,,,,,,,,,,300.6996893212199,None,302.20014855405316,None,303.5830551930703,None,"place
",303.5830551930703,None,return,0.7177109541371465,303.6665534693748,None,,,,,,,,,,,,,,,,,,,,,,,,,,,,,,,,,,,,,,,152,001,2024_Jan_19_1301,SpeechDraft1Carolyn_lessNoise_PlusLocalization,2021.2.3,59.94613153543705,
blast.wav,blast.mpg,blast,1,A,Pink_Noise_1_1.wav,Pink_Noise_1_2.wav,,,,,,,,,,,,,,,0,25,25,58,,,,,,,,,,,,,,,,,,,,,,,304.41654211236164,None,305.9172311392613,None,307.2998234820552,None,last,307.2998234820552,None,return,1.065112330019474,307.3832527510822,None,,,,,,,,,,,,,,,,,,,,,,,,,,,,,,,,,,,,,,,152,001,2024_Jan_19_1301,SpeechDraft1Carolyn_lessNoise_PlusLocalization,2021.2.3,59.94613153543705,
fluff.wav,fluff.mpg,fluff,1,A,Pink_Noise_1_1.wav,Pink_Noise_1_2.wav,,,,,,,,,,,,,,,0,26,26,28,,,,,,,,,,,,,,,,,,,,,,,308.4665009151213,None,309.9661066350527,None,311.3498731004074,None, love,311.3498731004074,None,return,2.7751788049936295,311.43308831518516,None,,,,,,,,,,,,,,,,,,,,,,,,,,,,,,,,,,,,,,,152,001,2024_Jan_19_1301,SpeechDraft1Carolyn_lessNoise_PlusLocalization,2021.2.3,59.94613153543705,
glow.wav,glow.mpg,glow,3,AV,Pink_Noise_3_1.wav,Pink_Noise_3_2.wav,,,,,,,,,,,,,,,0,27,27,116,,,,,,,,,,,,,,,,,,,,,,,314.2331736981869,None,315.73276653606445,None,317.1163747161627,None,glove,317.1163747161627,None,return,1.472634666133672,317.19984189001843,None,,,,,,,,,,,,,,,,,,,,,,,,,,,,,,,,,,,,,,,152,001,2024_Jan_19_1301,SpeechDraft1Carolyn_lessNoise_PlusLocalization,2021.2.3,59.94613153543705,
bar.wav,bar.mpg,bar,4,A,Pink_Noise_4_1.wav,Pink_Noise_4_2.wav,,,,,,,,,,,,,,,0,28,28,41,,,,,,,,,,,,,,,,,,,,,,,318.699838265311,None,320.1995002310723,None,321.58324347343296,None,man,321.58324347343296,None,return,1.4217805601656437,321.6665231292136,None,,,,,,,,,,,,,,,,,,,,,,,,,,,,,,,,,,,,,,,152,001,2024_Jan_19_1301,SpeechDraft1Carolyn_lessNoise_PlusLocalization,2021.2.3,59.94613153543705,
crane.wav,crane.mpg,crane,5,AV,Pink_Noise_5_1.wav,Pink_Noise_5_2.wav,,,,,,,,,,,,,,,0,29,29,85,,,,,,,,,,,,,,,,,,,,,,,323.116475392133,None,324.6161743970588,None,325.9997919984162,None,face,325.9997919984162,None,return,0.7412182600237429,326.0831532292068,None,,,,,,,,,,,,,,,,,,,,,,,,,,,,,,,,,,,,,,,152,001,2024_Jan_19_1301,SpeechDraft1Carolyn_lessNoise_PlusLocalization,2021.2.3,59.94613153543705,
script.wav,script.mpg,script,1,A,Pink_Noise_1_1.wav,Pink_Noise_1_2.wav,,,,,,,,,,,,,,,0,30,30,2,,,,,,,,,,,,,,,,,,,,,,,326.84991530142725,None,328.34953292133287,None,329.73321916535497,None,squint,329.73321916535497,None,return,5.543750455137342,329.81650181813166,None,,,,,,,,,,,,,,,,,,,,,,,,,,,,,,,,,,,,,,,152,001,2024_Jan_19_1301,SpeechDraft1Carolyn_lessNoise_PlusLocalization,2021.2.3,59.94613153543705,
buff.wav,buff.mpg,buff,3,A,Pink_Noise_3_1.wav,Pink_Noise_3_2.wav,,,,,,,,,,,,,,,0,31,31,54,,,,,,,,,,,,,,,,,,,,,,,335.39969001011923,None,336.9160752701573,None,338.3000600482337,None,"buck
",338.3000600482337,None,return,6.617010361049324,338.38325114222243,None,,,,,,,,,,,,,,,,,,,,,,,,,,,,,,,,,,,,,,,152,001,2024_Jan_19_1301,SpeechDraft1Carolyn_lessNoise_PlusLocalization,2021.2.3,59.94613153543705,
tear.wav,tear.mpg,tear,6,AV,Pink_Noise_6_1.wav,Pink_Noise_6_2.wav,,,,,,,,,,,,,,,0,32,32,97,,,,,,,,,,,,,,,,,,,,,,,345.0334817580879,None,346.5328029813245,None,347.91664915997535,None,"stare
",347.91664915997535,None,return,1.520354759413749,347.9998981920071,None,,,,,,,,,,,,,,,,,,,,,,,,,,,,,,,,,,,,,,,152,001,2024_Jan_19_1301,SpeechDraft1Carolyn_lessNoise_PlusLocalization,2021.2.3,59.94613153543705,
beard.wav,beard.mpg,beard,4,AV,Pink_Noise_4_1.wav,Pink_Noise_4_2.wav,,,,,,,,,,,,,,,0,33,33,71,,,,,,,,,,,,,,,,,,,,,,,349.54991476703435,None,351.0661752172746,None,352.44998767226934,None,"beer
",352.44998767226934,None,return,0.8189678709022701,352.5332948230207,None,,,,,,,,,,,,,,,,,,,,,,,,,,,,,,,,,,,,,,,152,001,2024_Jan_19_1301,SpeechDraft1Carolyn_lessNoise_PlusLocalization,2021.2.3,59.94613153543705,
quart.wav,quart.mpg,quart,6,AV,Pink_Noise_6_1.wav,Pink_Noise_6_2.wav,,,,,,,,,,,,,,,0,34,34,117,,,,,,,,,,,,,,,,,,,,,,,353.38323138142005,None,354.8828284032643,None,356.2666117232293,None,curse,356.2666117232293,None,return,8.24241633201018,356.34986140206456,None,,,,,,,,,,,,,,,,,,,,,,,,,,,,,,,,,,,,,,,152,001,2024_Jan_19_1301,SpeechDraft1Carolyn_lessNoise_PlusLocalization,2021.2.3,59.94613153543705,
crown.wav,crown.mpg,crown,2,A,Pink_Noise_2_1.wav,Pink_Noise_2_2.wav,,,,,,,,,,,,,,,0,35,35,4,,,,,,,,,,,,,,,,,,,,,,,364.6167526911013,None,366.13283433020115,None,367.5167051991448,None,crowd,367.5167051991448,None,return,5.640507471282035,367.59990212041885,None,,,,,,,,,,,,,,,,,,,,,,,,,,,,,,,,,,,,,,,152,001,2024_Jan_19_1301,SpeechDraft1Carolyn_lessNoise_PlusLocalization,2021.2.3,59.94613153543705,
date.wav,date.mpg,date,6,A,Pink_Noise_6_1.wav,Pink_Noise_6_2.wav,,,,,,,,,,,,,,,0,36,36,56,,,,,,,,,,,,,,,,,,,,,,,373.26668959017843,None,374.7829594872892,None,376.16666919598356,None,ditch,376.16666919598356,None,return,1.5423765326850116,376.2499252334237,None,,,,,,,,,,,,,,,,,,,,,,,,,,,,,,,,,,,,,,,152,001,2024_Jan_19_1301,SpeechDraft1Carolyn_lessNoise_PlusLocalization,2021.2.3,59.94613153543705,
foil.wav,foil.mpg,foil,1,AV,Pink_Noise_1_1.wav,Pink_Noise_1_2.wav,,,,,,,,,,,,,,,0,37,37,112,,,,,,,,,,,,,,,,,,,,,,,377.8165751141496,None,379.31626459537074,None,380.6999008352868,None,foil,380.6999008352868,None,return,1.0729509619995952,380.7833998911083,None,,,,,,,,,,,,,,,,,,,,,,,,,,,,,,,,,,,,,,,152,001,2024_Jan_19_1301,SpeechDraft1Carolyn_lessNoise_PlusLocalization,2021.2.3,59.94613153543705,
bathe.wav,bathe.mpg,bathe,6,AV,Pink_Noise_6_1.wav,Pink_Noise_6_2.wav,,,,,,,,,,,,,,,0,38,38,95,,,,,,,,,,,,,,,,,,,,,,,381.88329605804756,None,383.3995881243609,None,384.7833442213014,None,"bake
",384.7833442213014,None,return,2.317653449252248,384.8666081284173,None,,,,,,,,,,,,,,,,,,,,,,,,,,,,,,,,,,,,,,,152,001,2024_Jan_19_1301,SpeechDraft1Carolyn_lessNoise_PlusLocalization,2021.2.3,59.94613153543705,
leapt.wav,leapt.mpg,leapt,6,A,Pink_Noise_6_1.wav,Pink_Noise_6_2.wav,,,,,,,,,,,,,,,0,39,39,44,,,,,,,,,,,,,,,,,,,,,,,387.216598614119,None,388.71630249824375,None,390.1000085202977,None,laugh,390.1000085202977,None,return,1.8809789381921291,390.1832739841193,None,,,,,,,,,,,,,,,,,,,,,,,,,,,,,,,,,,,,,,,152,001,2024_Jan_19_1301,SpeechDraft1Carolyn_lessNoise_PlusLocalization,2021.2.3,59.94613153543705,
drill.wav,drill.mpg,drill,2,A,Pink_Noise_2_1.wav,Pink_Noise_2_2.wav,,,,,,,,,,,,,,,0,40,40,38,,,,,,,,,,,,,,,,,,,,,,,392.0833090431988,None,393.599545694422,None,394.9833174571395,None,"drill
",394.9833174571395,None,return,4.285592871718109,395.06666981009766,None,,,,,,,,,,,,,,,,,,,,,,,,,,,,,,,,,,,,,,,152,001,2024_Jan_19_1301,SpeechDraft1Carolyn_lessNoise_PlusLocalization,2021.2.3,59.94613153543705,
fall.wav,fall.mpg,fall,1,AV,Pink_Noise_1_1.wav,Pink_Noise_1_2.wav,,,,,,,,,,,,,,,0,41,41,111,,,,,,,,,,,,,,,,,,,,,,,399.38328169612214,None,400.89960072841495,None,402.2833377541974,None,fall,402.2833377541974,None,return,1.04972936026752,402.36666396819055,None,,,,,,,,,,,,,,,,,,,,,,,,,,,,,,,,,,,,,,,152,001,2024_Jan_19_1301,SpeechDraft1Carolyn_lessNoise_PlusLocalization,2021.2.3,59.94613153543705,
earth.wav,earth.mpg,earth,4,AV,Pink_Noise_4_1.wav,Pink_Noise_4_2.wav,,,,,,,,,,,,,,,0,42,42,65,,,,,,,,,,,,,,,,,,,,,,,403.433341359254,None,404.9497421630658,None,406.3333786423318,None,earth,406.3333786423318,None,return,1.0315896579995751,406.4167618933134,None,,,,,,,,,,,,,,,,,,,,,,,,,,,,,,,,,,,,,,,152,001,2024_Jan_19_1301,SpeechDraft1Carolyn_lessNoise_PlusLocalization,2021.2.3,59.94613153543705,
clumps.wav,clumps.mpg,clumps,4,AV,Pink_Noise_4_1.wav,Pink_Noise_4_2.wav,,,,,,,,,,,,,,,0,43,43,79,,,,,,,,,,,,,,,,,,,,,,,407.4666559812613,None,408.96632125228643,None,410.34984904900193,None,,410.34984904900193,None,return,0.015164451207965612,410.43322176113725,None,,,,,,,,,,,,,,,,,,,,,,,,,,,,,,,,,,,,,,,152,001,2024_Jan_19_1301,SpeechDraft1Carolyn_lessNoise_PlusLocalization,2021.2.3,59.94613153543705,
strive.wav,strive.mpg,strive,1,AV,Pink_Noise_1_1.wav,Pink_Noise_1_2.wav,,,,,,,,,,,,,,,0,44,44,78,,,,,,,,,,,,,,,,,,,,,,,410.46726700803265,None,411.982948734425,None,413.3666775650345,None,strive,413.3666775650345,None,return,3.1261471761390567,413.45013858238235,None,,,,,,,,,,,,,,,,,,,,,,,,,,,,,,,,,,,,,,,152,001,2024_Jan_19_1301,SpeechDraft1Carolyn_lessNoise_PlusLocalization,2021.2.3,59.94613153543705,
cycle.wav,cycle.mpg,cycle,1,A,Pink_Noise_1_1.wav,Pink_Noise_1_2.wav,,,,,,,,,,,,,,,0,45,45,37,,,,,,,,,,,,,,,,,,,,,,,416.60002748435363,None,418.0996082392521,None,419.4833259093575,None,psycho,419.4833259093575,None,return,1.4897342901676893,419.56659076409414,None,,,,,,,,,,,,,,,,,,,,,,,,,,,,,,,,,,,,,,,152,001,2024_Jan_19_1301,SpeechDraft1Carolyn_lessNoise_PlusLocalization,2021.2.3,59.94613153543705,
brag.wav,brag.mpg,brag,3,A,Pink_Noise_3_1.wav,Pink_Noise_3_2.wav,,,,,,,,,,,,,,,0,46,46,46,,,,,,,,,,,,,,,,,,,,,,,421.0833043414168,None,422.59963950235397,None,423.9833795260638,None,bread,423.9833795260638,None,return,1.7255156110040843,424.0667327553965,None,,,,,,,,,,,,,,,,,,,,,,,,,,,,,,,,,,,,,,,152,001,2024_Jan_19_1301,SpeechDraft1Carolyn_lessNoise_PlusLocalization,2021.2.3,59.94613153543705,
mars.wav,mars.mpg,mars,3,AV,Pink_Noise_3_1.wav,Pink_Noise_3_2.wav,,,,,,,,,,,,,,,0,47,47,67,,,,,,,,,,,,,,,,,,,,,,,425.81667663529515,None,427.3330092281103,None,428.71659606322646,None,"marvs
",428.71659606322646,None,return,2.9202423207461834,428.8000455889851,None,,,,,,,,,,,,,,,,,,,,,,,,,,,,,,,,,,,,,,,152,001,2024_Jan_19_1301,SpeechDraft1Carolyn_lessNoise_PlusLocalization,2021.2.3,59.94613153543705,
cloak.wav,cloak.mpg,cloak,3,AV,Pink_Noise_3_1.wav,Pink_Noise_3_2.wav,,,,,,,,,,,,,,,0,48,48,89,,,,,,,,,,,,,,,,,,,,,,,431.74998047109693,None,433.24963129637763,None,434.633354885038,None,"cloak
",434.633354885038,None,return,1.819543614052236,434.71670847712085,None,,,,,,,,,,,,,,,,,,,,,,,,,,,,,,,,,,,,,,,152,001,2024_Jan_19_1301,SpeechDraft1Carolyn_lessNoise_PlusLocalization,2021.2.3,59.94613153543705,
ban.wav,ban.mpg,ban,5,AV,Pink_Noise_5_1.wav,Pink_Noise_5_2.wav,,,,,,,,,,,,,,,0,49,49,118,,,,,,,,,,,,,,,,,,,,,,,436.5667057191022,None,438.0664509939961,None,439.4500723374076,None,blood,439.4500723374076,None,return,2.3391478289850056,439.5333237051964,None,,,,,,,,,,,,,,,,,,,,,,,,,,,,,,,,,,,,,,,152,001,2024_Jan_19_1301,SpeechDraft1Carolyn_lessNoise_PlusLocalization,2021.2.3,59.94613153543705,
coin.wav,coin.mpg,coin,4,AV,Pink_Noise_4_1.wav,Pink_Noise_4_2.wav,,,,,,,,,,,,,,,0,50,50,66,,,,,,,,,,,,,,,,,,,,,,,441.90008422126994,None,443.4164233864285,None,444.79992071026936,None,corn,444.79992071026936,None,return,0.9730986561626196,444.8833164810203,None,,,,,,,,,,,,,,,,,,,,,,,,,,,,,,,,,,,,,,,152,001,2024_Jan_19_1301,SpeechDraft1Carolyn_lessNoise_PlusLocalization,2021.2.3,59.94613153543705,
clue.wav,clue.mpg,clue,5,A,Pink_Noise_5_1.wav,Pink_Noise_5_2.wav,,,,,,,,,,,,,,,0,51,51,22,,,,,,,,,,,,,,,,,,,,,,,445.88331130426377,None,447.3828446571715,None,448.76682367315516,None,corn,448.76682367315516,None,return,0.894270240329206,448.8500032010488,None,,,,,,,,,,,,,,,,,,,,,,,,,,,,,,,,,,,,,,,152,001,2024_Jan_19_1301,SpeechDraft1Carolyn_lessNoise_PlusLocalization,2021.2.3,59.94613153543705,
bow.wav,bow.mpg,bow,6,A,Pink_Noise_6_1.wav,Pink_Noise_6_2.wav,,,,,,,,,,,,,,,0,52,52,18,,,,,,,,,,,,,,,,,,,,,,,449.76672146096826,None,451.2829219903797,None,452.6667019263841,None,"now
",452.6667019263841,None,return,0.7861093273386359,452.7501501943916,None,,,,,,,,,,,,,,,,,,,,,,,,,,,,,,,,,,,,,,,152,001,2024_Jan_19_1301,SpeechDraft1Carolyn_lessNoise_PlusLocalization,2021.2.3,59.94613153543705,
fast.wav,fast.mpg,fast,2,A,Pink_Noise_2_1.wav,Pink_Noise_2_2.wav,,,,,,,,,,,,,,,0,53,53,16,,,,,,,,,,,,,,,,,,,,,,,453.5667019453831,None,455.08297805301845,None,456.46680380916223,None,fast,456.46680380916223,None,return,0.8823964730836451,456.5500268782489,None,,,,,,,,,,,,,,,,,,,,,,,,,,,,,,,,,,,,,,,152,001,2024_Jan_19_1301,SpeechDraft1Carolyn_lessNoise_PlusLocalization,2021.2.3,59.94613153543705,
crack.wav,crack.mpg,crack,2,A,Pink_Noise_2_1.wav,Pink_Noise_2_2.wav,,,,,,,,,,,,,,,0,54,54,55,,,,,,,,,,,,,,,,,,,,,,,457.4500557752326,None,458.9510957361199,None,460.33336918009445,None,crack,460.33336918009445,None,return,4.879563726019114,460.4167184070684,None,,,,,,,,,,,,,,,,,,,,,,,,,,,,,,,,,,,,,,,152,001,2024_Jan_19_1301,SpeechDraft1Carolyn_lessNoise_PlusLocalization,2021.2.3,59.94613153543705,
foam.wav,foam.mpg,foam,5,AV,Pink_Noise_5_1.wav,Pink_Noise_5_2.wav,,,,,,,,,,,,,,,0,55,55,99,,,,,,,,,,,,,,,,,,,,,,,465.3169261920266,None,466.84965240303427,None,468.2334386194125,None,"vogue
",468.2334386194125,None,return,4.683597842231393,468.31666484242305,None,,,,,,,,,,,,,,,,,,,,,,,,,,,,,,,,,,,,,,,152,001,2024_Jan_19_1301,SpeechDraft1Carolyn_lessNoise_PlusLocalization,2021.2.3,59.94613153543705,
fowl.wav,fowl.mpg,fowl,1,AV,Pink_Noise_1_1.wav,Pink_Noise_1_2.wav,,,,,,,,,,,,,,,0,56,56,74,,,,,,,,,,,,,,,,,,,,,,,473.0334430173971,None,474.54977573128417,None,475.9334074901417,None,"foul
",475.9334074901417,None,return,1.1033611199818552,476.01687962701544,None,,,,,,,,,,,,,,,,,,,,,,,,,,,,,,,,,,,,,,,152,001,2024_Jan_19_1301,SpeechDraft1Carolyn_lessNoise_PlusLocalization,2021.2.3,59.94613153543705,
gas.wav,gas.mpg,gas,5,AV,Pink_Noise_5_1.wav,Pink_Noise_5_2.wav,,,,,,,,,,,,,,,0,57,57,106,,,,,,,,,,,,,,,,,,,,,,,477.1501132440753,None,478.66629909398034,None,480.0667322333902,None,last,480.0667322333902,None,return,0.9546101037412882,480.133634142112,None,,,,,,,,,,,,,,,,,,,,,,,,,,,,,,,,,,,,,,,152,001,2024_Jan_19_1301,SpeechDraft1Carolyn_lessNoise_PlusLocalization,2021.2.3,59.94613153543705,
bloom.wav,bloom.mpg,bloom,1,A,Pink_Noise_1_1.wav,Pink_Noise_1_2.wav,,,,,,,,,,,,,,,0,58,58,31,,,,,,,,,,,,,,,,,,,,,,,481.1167382672429,None,482.6171862403862,None,484.0000795600936,None,blue,484.0000795600936,None,return,1.820810702163726,484.08343660319224,None,,,,,,,,,,,,,,,,,,,,,,,,,,,,,,,,,,,,,,,152,001,2024_Jan_19_1301,SpeechDraft1Carolyn_lessNoise_PlusLocalization,2021.2.3,59.94613153543705,
dare.wav,dare.mpg,dare,6,AV,Pink_Noise_6_1.wav,Pink_Noise_6_2.wav,,,,,,,,,,,,,,,0,59,59,93,,,,,,,,,,,,,,,,,,,,,,,485.93356692697853,None,487.4497467260808,None,488.83342377701774,None,dance,488.83342377701774,None,return,2.2274868390522897,488.9167787800543,None,,,,,,,,,,,,,,,,,,,,,,,,,,,,,,,,,,,,,,,152,001,2024_Jan_19_1301,SpeechDraft1Carolyn_lessNoise_PlusLocalization,2021.2.3,59.94613153543705,
clot.wav,clot.mpg,clot,6,A,Pink_Noise_6_1.wav,Pink_Noise_6_2.wav,,,,,,,,,,,,,,,0,60,60,7,,,,,,,,,,,,,,,,,,,,,,,491.1668090960011,None,492.6830418370664,None,494.0668101781048,None,,494.0668101781048,None,return,1.946178916376084,494.1501304609701,None,,,,,,,,,,,,,,,,,,,,,,,,,,,,,,,,,,,,,,,152,001,2024_Jan_19_1301,SpeechDraft1Carolyn_lessNoise_PlusLocalization,2021.2.3,59.94613153543705,
blink.wav,blink.mpg,blink,4,AV,Pink_Noise_4_1.wav,Pink_Noise_4_2.wav,,,,,,,,,,,,,,,0,61,61,108,,,,,,,,,,,,,,,,,,,,,,,496.11721077607945,None,497.63301996840164,None,499.01674468116835,None,blink,499.01674468116835,None,return,1.748259527143091,499.1001218231395,None,,,,,,,,,,,,,,,,,,,,,,,,,,,,,,,,,,,,,,,152,001,2024_Jan_19_1301,SpeechDraft1Carolyn_lessNoise_PlusLocalization,2021.2.3,59.94613153543705,
drum.wav,drum.mpg,drum,5,A,Pink_Noise_5_1.wav,Pink_Noise_5_2.wav,,,,,,,,,,,,,,,0,62,62,23,,,,,,,,,,,,,,,,,,,,,,,500.8667636741884,None,502.3669997053221,None,503.75004724320024,None,dry,503.75004724320024,None,return,1.1909949211403728,503.83340029325336,None,,,,,,,,,,,,,,,,,,,,,,,,,,,,,,,,,,,,,,,152,001,2024_Jan_19_1301,SpeechDraft1Carolyn_lessNoise_PlusLocalization,2021.2.3,59.94613153543705,
bear.wav,bear.mpg,bear,5,A,Pink_Noise_5_1.wav,Pink_Noise_5_2.wav,,,,,,,,,,,,,,,0,63,63,43,,,,,,,,,,,,,,,,,,,,,,,505.0502224313095,None,506.56656135618687,None,507.95015507703647,None,dance,507.95015507703647,None,return,0.8546683029271662,508.033584787976,None,,,,,,,,,,,,,,,,,,,,,,,,,,,,,,,,,,,,,,,152,001,2024_Jan_19_1301,SpeechDraft1Carolyn_lessNoise_PlusLocalization,2021.2.3,59.94613153543705,
cease.wav,cease.mpg,cease,6,AV,Pink_Noise_6_1.wav,Pink_Noise_6_2.wav,,,,,,,,,,,,,,,0,64,64,81,,,,,,,,,,,,,,,,,,,,,,,508.9168466711417,None,510.4332151832059,None,511.8166427393444,None,resemt,511.8166427393444,None,return,7.156255695968866,511.9001084570773,None,,,,,,,,,,,,,,,,,,,,,,,,,,,,,,,,,,,,,,,152,001,2024_Jan_19_1301,SpeechDraft1Carolyn_lessNoise_PlusLocalization,2021.2.3,59.94613153543705,
bring.wav,bring.mpg,bring,3,AV,Pink_Noise_3_1.wav,Pink_Noise_3_2.wav,,,,,,,,,,,,,,,0,65,65,110,,,,,,,,,,,,,,,,,,,,,,,519.0833323411644,None,520.5998398410156,None,521.9833487011492,None,"bring
",521.9833487011492,None,return,12.469444256275892,522.0668182494119,None,,,,,,,,,,,,,,,,,,,,,,,,,,,,,,,,,,,,,,,152,001,2024_Jan_19_1301,SpeechDraft1Carolyn_lessNoise_PlusLocalization,2021.2.3,59.94613153543705,
belt.wav,belt.mpg,belt,2,AV,Pink_Noise_2_1.wav,Pink_Noise_2_2.wav,,,,,,,,,,,,,,,0,66,66,61,,,,,,,,,,,,,,,,,,,,,,,534.5668207923882,None,536.0684147500433,None,537.4500921070576,None,belt,537.4500921070576,None,return,1.272743028588593,537.535509610083,None,,,,,,,,,,,,,,,,,,,,,,,,,,,,,,,,,,,,,,,152,001,2024_Jan_19_1301,SpeechDraft1Carolyn_lessNoise_PlusLocalization,2021.2.3,59.94613153543705,
priest.wav,priest.mpg,priest,2,AV,Pink_Noise_2_1.wav,Pink_Noise_2_2.wav,,,,,,,,,,,,,,,0,67,67,87,,,,,,,,,,,,,,,,,,,,,,,538.8334393771365,None,540.3497336520813,None,541.7334610461257,None,priest,541.7334610461257,None,return,1.4873495111241937,541.8169033951126,None,,,,,,,,,,,,,,,,,,,,,,,,,,,,,,,,,,,,,,,152,001,2024_Jan_19_1301,SpeechDraft1Carolyn_lessNoise_PlusLocalization,2021.2.3,59.94613153543705,
check.wav,check.mpg,check,6,A,Pink_Noise_6_1.wav,Pink_Noise_6_2.wav,,,,,,,,,,,,,,,0,68,68,25,,,,,,,,,,,,,,,,,,,,,,,543.3335072440095,None,544.8498222590424,None,546.2337506040931,None,love,546.2337506040931,None,return,1.5714306789450347,546.316822052002,None,,,,,,,,,,,,,,,,,,,,,,,,,,,,,,,,,,,,,,,152,001,2024_Jan_19_1301,SpeechDraft1Carolyn_lessNoise_PlusLocalization,2021.2.3,59.94613153543705,
lead.wav,lead.mpg,lead,4,AV,Pink_Noise_4_1.wav,Pink_Noise_4_2.wav,,,,,,,,,,,,,,,0,69,69,114,,,,,,,,,,,,,,,,,,,,,,,547.9168749623932,None,549.4165254333057,None,550.8000724101439,None,glove,550.8000724101439,None,return,0.8206198629923165,550.8836403670721,None,,,,,,,,,,,,,,,,,,,,,,,,,,,,,,,,,,,,,,,152,001,2024_Jan_19_1301,SpeechDraft1Carolyn_lessNoise_PlusLocalization,2021.2.3,59.94613153543705,
blush.wav,blush.mpg,blush,4,AV,Pink_Noise_4_1.wav,Pink_Noise_4_2.wav,,,,,,,,,,,,,,,0,70,70,75,,,,,,,,,,,,,,,,,,,,,,,551.7336269421503,None,553.2498045451939,None,554.6334591000341,None,blush,554.6334591000341,None,return,1.1075802501291037,554.7168301250786,None,,,,,,,,,,,,,,,,,,,,,,,,,,,,,,,,,,,,,,,152,001,2024_Jan_19_1301,SpeechDraft1Carolyn_lessNoise_PlusLocalization,2021.2.3,59.94613153543705,
deed.wav,deed.mpg,deed,3,A,Pink_Noise_3_1.wav,Pink_Noise_3_2.wav,,,,,,,,,,,,,,,0,71,71,6,,,,,,,,,,,,,,,,,,,,,,,555.8501765602268,None,557.350823182147,None,558.7335171024315,None,need,558.7335171024315,None,return,0.8634647806175053,558.8168596611358,None,,,,,,,,,,,,,,,,,,,,,,,,,,,,,,,,,,,,,,,152,001,2024_Jan_19_1301,SpeechDraft1Carolyn_lessNoise_PlusLocalization,2021.2.3,59.94613153543705,
dune.wav,dune.mpg,dune,1,A,Pink_Noise_1_1.wav,Pink_Noise_1_2.wav,,,,,,,,,,,,,,,0,72,72,9,,,,,,,,,,,,,,,,,,,,,,,559.7001574132591,None,561.2164762662724,None,562.600193882361,None,doom,562.600193882361,None,return,3.3729934226721525,562.6834251293913,None,,,,,,,,,,,,,,,,,,,,,,,,,,,,,,,,,,,,,,,152,001,2024_Jan_19_1301,SpeechDraft1Carolyn_lessNoise_PlusLocalization,2021.2.3,59.94613153543705,
paid.wav,paid.mpg,paid,3,A,Pink_Noise_3_1.wav,Pink_Noise_3_2.wav,,,,,,,,,,,,,,,0,73,73,47,,,,,,,,,,,,,,,,,,,,,,,566.0835853624158,None,567.5998286344111,None,568.9835545560345,None,"heigh
",568.9835545560345,None,return,1.085485429968685,569.0667785210535,None,,,,,,,,,,,,,,,,,,,,,,,,,,,,,,,,,,,,,,,152,001,2024_Jan_19_1301,SpeechDraft1Carolyn_lessNoise_PlusLocalization,2021.2.3,59.94613153543705,
druid.wav,druid.mpg,druid,2,A,Pink_Noise_2_1.wav,Pink_Noise_2_2.wav,,,,,,,,,,,,,,,0,74,74,59,,,,,,,,,,,,,,,,,,,,,,,570.1835389882326,None,571.6997426073067,None,573.0669516860507,None,do it,573.0669516860507,None,return,6.546119628939778,573.1501904930919,None,,,,,,,,,,,,,,,,,,,,,,,,,,,,,,,,,,,,,,,152,001,2024_Jan_19_1301,SpeechDraft1Carolyn_lessNoise_PlusLocalization,2021.2.3,59.94613153543705,
cab.wav,cab.mpg,cab,3,AV,Pink_Noise_3_1.wav,Pink_Noise_3_2.wav,,,,,,,,,,,,,,,0,75,75,72,,,,,,,,,,,,,,,,,,,,,,,579.7168445209973,None,581.266479222104,None,582.6501772371121,None,cow,582.6501772371121,None,return,2.0427446430549026,582.7335442593321,None,,,,,,,,,,,,,,,,,,,,,,,,,,,,,,,,,,,,,,,152,001,2024_Jan_19_1301,SpeechDraft1Carolyn_lessNoise_PlusLocalization,2021.2.3,59.94613153543705,
chord.wav,chord.mpg,chord,3,A,Pink_Noise_3_1.wav,Pink_Noise_3_2.wav,,,,,,,,,,,,,,,0,76,76,53,,,,,,,,,,,,,,,,,,,,,,,584.8001540843397,None,586.3165597449988,None,587.7166140540503,None,corn,587.7166140540503,None,return,0.9128053491003811,587.7834948631935,None,,,,,,,,,,,,,,,,,,,,,,,,,,,,,,,,,,,,,,,152,001,2024_Jan_19_1301,SpeechDraft1Carolyn_lessNoise_PlusLocalization,2021.2.3,59.94613153543705,
creep.wav,creep.mpg,creep,6,AV,Pink_Noise_6_1.wav,Pink_Noise_6_2.wav,,,,,,,,,,,,,,,0,77,77,103,,,,,,,,,,,,,,,,,,,,,,,588.7168970294297,None,590.2332288422622,None,591.6168280621059,None,dream,591.6168280621059,None,return,1.2759823589585721,591.7002667132765,None,,,,,,,,,,,,,,,,,,,,,,,,,,,,,,,,,,,,,,,152,001,2024_Jan_19_1301,SpeechDraft1Carolyn_lessNoise_PlusLocalization,2021.2.3,59.94613153543705,
bell.wav,bell.mpg,bell,2,AV,Pink_Noise_2_1.wav,Pink_Noise_2_2.wav,,,,,,,,,,,,,,,0,78,78,83,,,,,,,,,,,,,,,,,,,,,,,593.0001583769917,None,594.5165026551113,None,595.9003248373047,None,bound,595.9003248373047,None,return,3.4568498632870615,595.9835498183966,None,,,,,,,,,,,,,,,,,,,,,,,,,,,,,,,,,,,,,,,152,001,2024_Jan_19_1301,SpeechDraft1Carolyn_lessNoise_PlusLocalization,2021.2.3,59.94613153543705,
bend.wav,bend.mpg,bend,6,A,Pink_Noise_6_1.wav,Pink_Noise_6_2.wav,,,,,,,,,,,,,,,0,79,79,0,,,,,,,,,,,,,,,,,,,,,,,599.4669883684255,None,600.9831258091144,None,602.3669204502366,None,"voice
",602.3669204502366,None,return,1.1179928239434958,602.4502552500926,None,,,,,,,,,,,,,,,,,,,,,,,,,,,,,,,,,,,,,,,152,001,2024_Jan_19_1301,SpeechDraft1Carolyn_lessNoise_PlusLocalization,2021.2.3,59.94613153543705,
stain.wav,stain.mpg,stain,5,AV,Pink_Noise_5_1.wav,Pink_Noise_5_2.wav,,,,,,,,,,,,,,,0,80,80,98,,,,,,,,,,,,,,,,,,,,,,,603.6002236171626,None,605.1165170380846,None,606.5001356634311,None,tep,606.5001356634311,None,return,1.2246882431209087,606.5836166641675,None,,,,,,,,,,,,,,,,,,,,,,,,,,,,,,,,,,,,,,,152,001,2024_Jan_19_1301,SpeechDraft1Carolyn_lessNoise_PlusLocalization,2021.2.3,59.94613153543705,
grunt.wav,grunt.mpg,grunt,5,A,Pink_Noise_5_1.wav,Pink_Noise_5_2.wav,,,,,,,,,,,,,,,0,81,81,21,,,,,,,,,,,,,,,,,,,,,,,607.8336239061318,None,609.3499601799995,None,610.7335510533303,None,crunch,610.7335510533303,None,return,1.5993942599743605,610.8170258332975,None,,,,,,,,,,,,,,,,,,,,,,,,,,,,,,,,,,,,,,,152,001,2024_Jan_19_1301,SpeechDraft1Carolyn_lessNoise_PlusLocalization,2021.2.3,59.94613153543705,
budge.wav,budge.mpg,budge,2,AV,Pink_Noise_2_1.wav,Pink_Noise_2_2.wav,,,,,,,,,,,,,,,0,82,82,73,,,,,,,,,,,,,,,,,,,,,,,612.4335827743635,None,613.9499513842165,None,615.3335485602729,None,budge,615.3335485602729,None,return,3.7833854318596423,615.4168900432996,None,,,,,,,,,,,,,,,,,,,,,,,,,,,,,,,,,,,,,,,152,001,2024_Jan_19_1301,SpeechDraft1Carolyn_lessNoise_PlusLocalization,2021.2.3,59.94613153543705,
bottle.wav,bottle.mpg,bottle,3,A,Pink_Noise_3_1.wav,Pink_Noise_3_2.wav,,,,,,,,,,,,,,,0,83,83,12,,,,,,,,,,,,,,,,,,,,,,,619.2169024441391,None,620.7332677412778,None,622.1168384850025,None,buy,622.1168384850025,None,return,3.48005332890898,622.2003101729788,None,,,,,,,,,,,,,,,,,,,,,,,,,,,,,,,,,,,,,,,152,001,2024_Jan_19_1301,SpeechDraft1Carolyn_lessNoise_PlusLocalization,2021.2.3,59.94613153543705,
fruit.wav,fruit.mpg,fruit,5,AV,Pink_Noise_5_1.wav,Pink_Noise_5_2.wav,,,,,,,,,,,,,,,0,84,84,76,,,,,,,,,,,,,,,,,,,,,,,625.7001830870286,None,627.2166138491593,None,628.6002273783088,None,room,628.6002273783088,None,return,1.012711781077087,628.6836411510594,None,,,,,,,,,,,,,,,,,,,,,,,,,,,,,,,,,,,,,,,152,001,2024_Jan_19_1301,SpeechDraft1Carolyn_lessNoise_PlusLocalization,2021.2.3,59.94613153543705,
gash.wav,gash.mpg,gash,1,AV,Pink_Noise_1_1.wav,Pink_Noise_1_2.wav,,,,,,,,,,,,,,,0,85,85,94,,,,,,,,,,,,,,,,,,,,,,,629.7169932210818,None,631.233235440217,None,632.6169580924325,None,gash,632.6169580924325,None,return,0.6920273029245436,632.7002715310082,None,,,,,,,,,,,,,,,,,,,,,,,,,,,,,,,,,,,,,,,152,001,2024_Jan_19_1301,SpeechDraft1Carolyn_lessNoise_PlusLocalization,2021.2.3,59.94613153543705,
rent.wav,rent.mpg,rent,3,AV,Pink_Noise_3_1.wav,Pink_Noise_3_2.wav,,,,,,,,,,,,,,,0,86,86,104,,,,,,,,,,,,,,,,,,,,,,,633.4169014859945,None,634.9331940351985,None,636.3169127870351,None,red,636.3169127870351,None,return,0.4320228807628155,636.400324926246,None,,,,,,,,,,,,,,,,,,,,,,,,,,,,,,,,,,,,,,,152,001,2024_Jan_19_1301,SpeechDraft1Carolyn_lessNoise_PlusLocalization,2021.2.3,59.94613153543705,
cow.wav,cow.mpg,cow,6,A,Pink_Noise_6_1.wav,Pink_Noise_6_2.wav,,,,,,,,,,,,,,,0,87,87,32,,,,,,,,,,,,,,,,,,,,,,,636.8502260893583,None,638.3831732240506,None,639.7671060170978,None,,639.7671060170978,None,return,0.19011891027912498,639.8503279611468,None,,,,,,,,,,,,,,,,,,,,,,,,,,,,,,,,,,,,,,,152,001,2024_Jan_19_1301,SpeechDraft1Carolyn_lessNoise_PlusLocalization,2021.2.3,59.94613153543705,
bat.wav,bat.mpg,bat,6,AV,Pink_Noise_6_1.wav,Pink_Noise_6_2.wav,,,,,,,,,,,,,,,0,88,88,64,,,,,,,,,,,,,,,,,,,,,,,640.0672211013734,None,641.5835207663476,None,642.9668430890888,None,mad,642.9668430890888,None,return,0.774016547948122,643.0503526050597,None,,,,,,,,,,,,,,,,,,,,,,,,,,,,,,,,,,,,,,,152,001,2024_Jan_19_1301,SpeechDraft1Carolyn_lessNoise_PlusLocalization,2021.2.3,59.94613153543705,
dice.wav,dice.mpg,dice,6,A,Pink_Noise_6_1.wav,Pink_Noise_6_2.wav,,,,,,,,,,,,,,,0,89,89,1,,,,,,,,,,,,,,,,,,,,,,,643.8503189380281,None,645.3666985472664,None,646.7503703953698,None,,646.7503703953698,None,return,1.7665844419971108,646.8336598621681,None,,,,,,,,,,,,,,,,,,,,,,,,,,,,,,,,,,,,,,,152,001,2024_Jan_19_1301,SpeechDraft1Carolyn_lessNoise_PlusLocalization,2021.2.3,59.94613153543705,
your.wav,your.mpg,your,3,AV,Pink_Noise_3_1.wav,Pink_Noise_3_2.wav,,,,,,,,,,,,,,,0,90,90,70,,,,,,,,,,,,,,,,,,,,,,,648.6168522774242,None,650.1333584273234,None,651.5170001550578,None,your,651.5170001550578,None,return,1.3279390400275588,651.6003107130527,None,,,,,,,,,,,,,,,,,,,,,,,,,,,,,,,,,,,,,,,152,001,2024_Jan_19_1301,SpeechDraft1Carolyn_lessNoise_PlusLocalization,2021.2.3,59.94613153543705,
folk.wav,folk.mpg,folk,2,A,Pink_Noise_2_1.wav,Pink_Noise_2_2.wav,,,,,,,,,,,,,,,0,91,91,48,,,,,,,,,,,,,,,,,,,,,,,652.9503061203286,None,654.4664975851774,None,655.8504272010177,None,oak,655.8504272010177,None,return,2.9306257660500705,655.9336464200169,None,,,,,,,,,,,,,,,,,,,,,,,,,,,,,,,,,,,,,,,152,001,2024_Jan_19_1301,SpeechDraft1Carolyn_lessNoise_PlusLocalization,2021.2.3,59.94613153543705,
swan.wav,swan.mpg,swan,4,A,Pink_Noise_4_1.wav,Pink_Noise_4_2.wav,,,,,,,,,,,,,,,0,92,92,33,,,,,,,,,,,,,,,,,,,,,,,658.8836557171308,None,660.3999999230728,None,661.7836486091837,None,tomorrow,661.7836486091837,None,return,1.261252427008003,661.8670010571368,None,,,,,,,,,,,,,,,,,,,,,,,,,,,,,,,,,,,,,,,152,001,2024_Jan_19_1301,SpeechDraft1Carolyn_lessNoise_PlusLocalization,2021.2.3,59.94613153543705,
dream.wav,dream.mpg,dream,6,AV,Pink_Noise_6_1.wav,Pink_Noise_6_2.wav,,,,,,,,,,,,,,,0,93,93,105,,,,,,,,,,,,,,,,,,,,,,,663.1504030921496,None,664.6666304473765,None,666.0501962443814,None,dream,666.0501962443814,None,return,0.7546365950256586,666.1336195250042,None,,,,,,,,,,,,,,,,,,,,,,,,,,,,,,,,,,,,,,,152,001,2024_Jan_19_1301,SpeechDraft1Carolyn_lessNoise_PlusLocalization,2021.2.3,59.94613153543705,
fat.wav,fat.mpg,fat,2,A,Pink_Noise_2_1.wav,Pink_Noise_2_2.wav,,,,,,,,,,,,,,,0,94,94,3,,,,,,,,,,,,,,,,,,,,,,,666.9170227684081,None,668.4333825754002,None,669.8170582773164,None,"pat
",669.8170582773164,None,return,1.435891377273947,669.9003734514117,None,,,,,,,,,,,,,,,,,,,,,,,,,,,,,,,,,,,,,,,152,001,2024_Jan_19_1301,SpeechDraft1Carolyn_lessNoise_PlusLocalization,2021.2.3,59.94613153543705,
duck.wav,duck.mpg,duck,4,A,Pink_Noise_4_1.wav,Pink_Noise_4_2.wav,,,,,,,,,,,,,,,0,95,95,35,,,,,,,,,,,,,,,,,,,,,,,671.3669522390701,None,672.8833561623469,None,674.2669221051037,None,duck,674.2669221051037,None,return,1.361882456112653,674.3503929870203,None,,,,,,,,,,,,,,,,,,,,,,,,,,,,,,,,,,,,,,,152,001,2024_Jan_19_1301,SpeechDraft1Carolyn_lessNoise_PlusLocalization,2021.2.3,59.94613153543705,
crook.wav,crook.mpg,crook,1,AV,Pink_Noise_1_1.wav,Pink_Noise_1_2.wav,,,,,,,,,,,,,,,0,96,96,68,,,,,,,,,,,,,,,,,,,,,,,675.7336792731658,None,677.2668246733956,None,678.650284984149,None,crook,678.650284984149,None,return,0.8585993200540543,678.7336504440755,None,,,,,,,,,,,,,,,,,,,,,,,,,,,,,,,,,,,,,,,152,001,2024_Jan_19_1301,SpeechDraft1Carolyn_lessNoise_PlusLocalization,2021.2.3,59.94613153543705,
wet.wav,wet.mpg,wet,5,A,Pink_Noise_5_1.wav,Pink_Noise_5_2.wav,,,,,,,,,,,,,,,0,97,97,30,,,,,,,,,,,,,,,,,,,,,,,679.6170556480065,None,681.1332740643993,None,682.5169849339873,None,lost,682.5169849339873,None,return,1.0239642336964607,682.6004491900094,None,,,,,,,,,,,,,,,,,,,,,,,,,,,,,,,,,,,,,,,152,001,2024_Jan_19_1301,SpeechDraft1Carolyn_lessNoise_PlusLocalization,2021.2.3,59.94613153543705,
cope.wav,cope.mpg,cope,6,A,Pink_Noise_6_1.wav,Pink_Noise_6_2.wav,,,,,,,,,,,,,,,0,98,98,24,,,,,,,,,,,,,,,,,,,,,,,683.6504235742614,None,685.1832425631583,None,686.567056489177,None,begin,686.567056489177,None,return,1.0300241080112755,686.6503606373444,None,,,,,,,,,,,,,,,,,,,,,,,,,,,,,,,,,,,,,,,152,001,2024_Jan_19_1301,SpeechDraft1Carolyn_lessNoise_PlusLocalization,2021.2.3,59.94613153543705,
grand.wav,grand.mpg,grand,5,AV,Pink_Noise_5_1.wav,Pink_Noise_5_2.wav,,,,,,,,,,,,,,,0,99,99,77,,,,,,,,,,,,,,,,,,,,,,,687.7003488293849,None,689.2166906544007,None,690.6002914924175,None,"ground
",690.6002914924175,None,return,1.0845771641470492,690.6836934783496,None,,,,,,,,,,,,,,,,,,,,,,,,,,,,,,,,,,,,,,,152,001,2024_Jan_19_1301,SpeechDraft1Carolyn_lessNoise_PlusLocalization,2021.2.3,59.94613153543705,
chief.wav,chief.mpg,chief,1,A,Pink_Noise_1_1.wav,Pink_Noise_1_2.wav,,,,,,,,,,,,,,,0,100,100,40,,,,,,,,,,,,,,,,,,,,,,,691.8003497142345,None,693.3332692291588,None,694.7170947929844,None,chief,694.7170947929844,None,return,0.6801219503395259,694.8002518583089,None,,,,,,,,,,,,,,,,,,,,,,,,,,,,,,,,,,,,,,,152,001,2024_Jan_19_1301,SpeechDraft1Carolyn_lessNoise_PlusLocalization,2021.2.3,59.94613153543705,
slick.wav,slick.mpg,slick,1,A,Pink_Noise_1_1.wav,Pink_Noise_1_2.wav,,,,,,,,,,,,,,,0,101,101,19,,,,,,,,,,,,,,,,,,,,,,,695.5003723213449,None,697.0167667381465,None,698.40040672943,None,slack,698.40040672943,None,return,1.3246113862842321,698.483642175328,None,,,,,,,,,,,,,,,,,,,,,,,,,,,,,,,,,,,,,,,152,001,2024_Jan_19_1301,SpeechDraft1Carolyn_lessNoise_PlusLocalization,2021.2.3,59.94613153543705,
four.wav,four.mpg,four,3,A,Pink_Noise_3_1.wav,Pink_Noise_3_2.wav,,,,,,,,,,,,,,,0,102,102,51,,,,,,,,,,,,,,,,,,,,,,,699.83386823209,None,701.3500170721672,None,702.7337317313068,None,or,702.7337317313068,None,return,0.2709712232463062,702.8172634611838,None,,,,,,,,,,,,,,,,,,,,,,,,,,,,,,,,,,,,,,,152,001,2024_Jan_19_1301,SpeechDraft1Carolyn_lessNoise_PlusLocalization,2021.2.3,59.94613153543705,
none.wav,none.mpg,none,5,AV,Pink_Noise_5_1.wav,Pink_Noise_5_2.wav,,,,,,,,,,,,,,,0,103,103,60,,,,,,,,,,,,,,,,,,,,,,,703.1169581701979,None,704.6333639533259,None,706.0169416093268,None,"
",706.0169416093268,None,return,0.01985774887725711,706.100416006986,None,,,,,,,,,,,,,,,,,,,,,,,,,,,,,,,,,,,,,,,152,001,2024_Jan_19_1301,SpeechDraft1Carolyn_lessNoise_PlusLocalization,2021.2.3,59.94613153543705,
cone.wav,cone.mpg,cone,4,A,Pink_Noise_4_1.wav,Pink_Noise_4_2.wav,,,,,,,,,,,,,,,0,104,104,26,,,,,,,,,,,,,,,,,,,,,,,706.1503352653235,None,707.6666253013536,None,709.0505632720888,None,over,709.0505632720888,None,return,0.5386156979948282,709.1336469464004,None,,,,,,,,,,,,,,,,,,,,,,,,,,,,,,,,,,,,,,,152,001,2024_Jan_19_1301,SpeechDraft1Carolyn_lessNoise_PlusLocalization,2021.2.3,59.94613153543705,
boot.wav,boot.mpg,boot,6,AV,Pink_Noise_6_1.wav,Pink_Noise_6_2.wav,,,,,,,,,,,,,,,0,105,105,92,,,,,,,,,,,,,,,,,,,,,,,709.7002910631709,None,711.2166653182358,None,712.6004491210915,None,,712.6004491210915,None,return,0.028652224224060774,712.6836156053469,None,,,,,,,,,,,,,,,,,,,,,,,,,,,,,,,,,,,,,,,152,001,2024_Jan_19_1301,SpeechDraft1Carolyn_lessNoise_PlusLocalization,2021.2.3,59.94613153543705,
fund.wav,fund.mpg,fund,2,AV,Pink_Noise_2_1.wav,Pink_Noise_2_2.wav,,,,,,,,,,,,,,,0,106,106,80,,,,,,,,,,,,,,,,,,,,,,,712.7341780862771,None,714.266842615325,None,715.6504036271945,None,bund,715.6504036271945,None,return,2.1385583891533315,715.7337648510002,None,,,,,,,,,,,,,,,,,,,,,,,,,,,,,,,,,,,,,,,152,001,2024_Jan_19_1301,SpeechDraft1Carolyn_lessNoise_PlusLocalization,2021.2.3,59.94613153543705,
giant.wav,giant.mpg,giant,3,A,Pink_Noise_3_1.wav,Pink_Noise_3_2.wav,,,,,,,,,,,,,,,0,107,107,11,,,,,,,,,,,,,,,,,,,,,,,717.900341858156,None,719.4166918210685,None,720.8003522241488,None,giant,720.8003522241488,None,return,0.6124576376751065,720.8837951910682,None,,,,,,,,,,,,,,,,,,,,,,,,,,,,,,,,,,,,,,,152,001,2024_Jan_19_1301,SpeechDraft1Carolyn_lessNoise_PlusLocalization,2021.2.3,59.94613153543705,
grip.wav,grip.mpg,grip,4,A,Pink_Noise_4_1.wav,Pink_Noise_4_2.wav,,,,,,,,,,,,,,,0,108,108,17,,,,,,,,,,,,,,,,,,,,,,,721.5170683902688,None,723.0333376103081,None,724.4170808582567,None,"grey
",724.4170808582567,None,return,0.4192607239820063,724.501001093071,None,,,,,,,,,,,,,,,,,,,,,,,,,,,,,,,,,,,,,,,152,001,2024_Jan_19_1301,SpeechDraft1Carolyn_lessNoise_PlusLocalization,2021.2.3,59.94613153543705,
ghost.wav,ghost.mpg,ghost,5,A,Pink_Noise_5_1.wav,Pink_Noise_5_2.wav,,,,,,,,,,,,,,,0,109,109,36,,,,,,,,,,,,,,,,,,,,,,,724.9504611361772,None,726.4666331689805,None,727.8517717230134,None,,727.8517717230134,None,return,1.6986289559863508,727.9337597521953,None,,,,,,,,,,,,,,,,,,,,,,,,,,,,,,,,,,,,,,,152,001,2024_Jan_19_1301,SpeechDraft1Carolyn_lessNoise_PlusLocalization,2021.2.3,59.94613153543705,
greek.wav,greek.mpg,greek,4,A,Pink_Noise_4_1.wav,Pink_Noise_4_2.wav,,,,,,,,,,,,,,,0,110,110,49,,,,,,,,,,,,,,,,,,,,,,,729.6504419790581,None,731.1667467043735,None,732.5504731549881,None,greek,732.5504731549881,None,return,3.6545008872635663,732.6337637961842,None,,,,,,,,,,,,,,,,,,,,,,,,,,,,,,,,,,,,,,,152,001,2024_Jan_19_1301,SpeechDraft1Carolyn_lessNoise_PlusLocalization,2021.2.3,59.94613153543705,
fault.wav,fault.mpg,fault,4,A,Pink_Noise_4_1.wav,Pink_Noise_4_2.wav,,,,,,,,,,,,,,,0,111,111,10,,,,,,,,,,,,,,,,,,,,,,,736.3171232333407,None,737.8337977980264,None,739.2171263182536,None,bought,739.2171263182536,None,return,2.3478328846395016,739.3004329311661,None,,,,,,,,,,,,,,,,,,,,,,,,,,,,,,,,,,,,,,,152,001,2024_Jan_19_1301,SpeechDraft1Carolyn_lessNoise_PlusLocalization,2021.2.3,59.94613153543705,
fence.wav,fence.mpg,fence,3,AV,Pink_Noise_3_1.wav,Pink_Noise_3_2.wav,,,,,,,,,,,,,,,0,112,112,86,,,,,,,,,,,,,,,,,,,,,,,741.6670425962657,None,743.183735740371,None,744.5669974284247,None,fence,744.5669974284247,None,return,1.0939048607833683,744.6503839110956,None,,,,,,,,,,,,,,,,,,,,,,,,,,,,,,,,,,,,,,,152,001,2024_Jan_19_1301,SpeechDraft1Carolyn_lessNoise_PlusLocalization,2021.2.3,59.94613153543705,
click.wav,click.mpg,click,2,A,Pink_Noise_2_1.wav,Pink_Noise_2_2.wav,,,,,,,,,,,,,,,0,113,113,13,,,,,,,,,,,,,,,,,,,,,,,745.7672010441311,None,747.2833464881405,None,748.6671283310279,None,click,748.6671283310279,None,return,7.777834642678499,748.7504201233387,None,,,,,,,,,,,,,,,,,,,,,,,,,,,,,,,,,,,,,,,152,001,2024_Jan_19_1301,SpeechDraft1Carolyn_lessNoise_PlusLocalization,2021.2.3,59.94613153543705,
greed.wav,greed.mpg,greed,2,AV,Pink_Noise_2_1.wav,Pink_Noise_2_2.wav,,,,,,,,,,,,,,,0,114,114,115,,,,,,,,,,,,,,,,,,,,,,,756.5505592930131,None,758.083452317398,None,759.4670657273382,None,greed,759.4670657273382,None,return,0.9777100211940706,759.5505404244177,None,,,,,,,,,,,,,,,,,,,,,,,,,,,,,,,,,,,,,,,152,001,2024_Jan_19_1301,SpeechDraft1Carolyn_lessNoise_PlusLocalization,2021.2.3,59.94613153543705,
steam.wav,steam.mpg,steam,4,A,Pink_Noise_4_1.wav,Pink_Noise_4_2.wav,,,,,,,,,,,,,,,0,115,115,39,,,,,,,,,,,,,,,,,,,,,,,760.5504354452714,None,762.068573186174,None,763.4505437193438,None,stand,763.4505437193438,None,return,8.954526561312377,763.533715039026,None,,,,,,,,,,,,,,,,,,,,,,,,,,,,,,,,,,,,,,,152,001,2024_Jan_19_1301,SpeechDraft1Carolyn_lessNoise_PlusLocalization,2021.2.3,59.94613153543705,
coy.wav,coy.mpg,coy,4,AV,Pink_Noise_4_1.wav,Pink_Noise_4_2.wav,,,,,,,,,,,,,,,0,116,116,113,,,,,,,,,,,,,,,,,,,,,,,772.5171189103276,None,774.0351514462382,None,775.4171021450311,None,koi,775.4171021450311,None,return,2.3320155101828277,775.5003527500667,None,,,,,,,,,,,,,,,,,,,,,,,,,,,,,,,,,,,,,,,152,001,2024_Jan_19_1301,SpeechDraft1Carolyn_lessNoise_PlusLocalization,2021.2.3,59.94613153543705,
chew.wav,chew.mpg,chew,2,AV,Pink_Noise_2_1.wav,Pink_Noise_2_2.wav,,,,,,,,,,,,,,,0,117,117,88,,,,,,,,,,,,,,,,,,,,,,,777.850437224377,None,779.3668140843511,None,780.7504903431982,None,"chew
",780.7504903431982,None,return,0.8864505393430591,780.8338102051057,None,,,,,,,,,,,,,,,,,,,,,,,,,,,,,,,,,,,,,,,152,001,2024_Jan_19_1301,SpeechDraft1Carolyn_lessNoise_PlusLocalization,2021.2.3,59.94613153543705,
chin.wav,chin.mpg,chin,4,A,Pink_Noise_4_1.wav,Pink_Noise_4_2.wav,,,,,,,,,,,,,,,0,118,118,50,,,,,,,,,,,,,,,,,,,,,,,781.7504496243782,None,783.2667489950545,None,784.6504581710324,None,chance,784.6504581710324,None,return,0.7064577173441648,784.7338776090182,None,,,,,,,,,,,,,,,,,,,,,,,,,,,,,,,,,,,,,,,152,001,2024_Jan_19_1301,SpeechDraft1Carolyn_lessNoise_PlusLocalization,2021.2.3,59.94613153543705,
beast.wav,beast.mpg,beast,5,AV,Pink_Noise_5_1.wav,Pink_Noise_5_2.wav,,,,,,,,,,,,,,,0,119,119,107,,,,,,,,,,,,,,,,,,,,,,,785.4671385842375,None,786.9834272232838,None,788.3671347042546,None,pleased,788.3671347042546,None,return,4.7739672851748765,788.4504218702205,None,,,,,,,,,,,,,,,,,,,,,,,,,,,,,,,,,,,,,,,152,001,2024_Jan_19_1301,SpeechDraft1Carolyn_lessNoise_PlusLocalization,2021.2.3,59.94613153543705,
,,,,,,,,,,,,,,,,,,,,,,,,,,,,,,,,,,,,,,,,,,,,,,,,,,,,,,,,,,,,,,,,,,space,15.513768051285297,793.3505412591621,None,,,,,,,,,,,,,,,,,,,,,,,,,,,,,152,001,2024_Jan_19_1301,SpeechDraft1Carolyn_lessNoise_PlusLocalization,2021.2.3,59.94613153543705,
,,,,,,,,midLeft,-13.0,2,ch1Sound_localizationTask.wav,-13.0,"(762, 878)","(-198,-202)",-190,-338,,,,,,,,,0,0,0,1,,,,,,,,,,,,,,,,,,,,,,,,,,,,,,,,,,,,,,,,,,793.3505412591621,None,808.900417891331,None,810.000382783357,None,810.9335819752887,None,1.0407407407407407,8.620892502833158,810.9335819752887,None,,,,,,,,,,,,,,,,,152,001,2024_Jan_19_1301,SpeechDraft1Carolyn_lessNoise_PlusLocalization,2021.2.3,59.94613153543705,
,,,,,,,,midRight,13.0,3,ch1Sound_localizationTask.wav,13.0,"(1142, 878)","(182, -202)",190,-338,,,,,,,,,0,1,1,5,,,,,,,,,,,,,,,,,,,,,,,,,,,,,,,,,,,,,,,,,,,,819.567435390316,None,820.6670435722917,None,821.6002834071405,None,1.8571428571428572,1.1327734598889947,821.6002834071405,None,,,,,,,,,,,,,,,,,152,001,2024_Jan_19_1301,SpeechDraft1Carolyn_lessNoise_PlusLocalization,2021.2.3,59.94613153543705,
,,,,,,,,center,0.0,6,ch1Sound_localizationTask.wav,0.0,"(952, 878)","(-8,-202)",0,-338,,,,,,,,,0,2,2,3,,,,,,,,,,,,,,,,,,,,,,,,,,,,,,,,,,,,,,,,,,,,822.7344788042828,None,823.833615954034,None,824.7669828450307,None,1.7867724867724868,0.6329102497547865,824.7669828450307,None,,,,,,,,,,,,,,,,,152,001,2024_Jan_19_1301,SpeechDraft1Carolyn_lessNoise_PlusLocalization,2021.2.3,59.94613153543705,
,,,,,,,,midRight,13.0,3,ch1Sound_localizationTask.wav,13.0,"(1142, 878)","(182, -202)",190,-338,,,,,,,,,0,3,3,5,,,,,,,,,,,,,,,,,,,,,,,,,,,,,,,,,,,,,,,,,,,,825.4021019754,None,826.5169269670732,None,827.4336119294167,None,1.7380952380952381,0.8996624792926013,827.4336119294167,None,,,,,,,,,,,,,,,,,152,001,2024_Jan_19_1301,SpeechDraft1Carolyn_lessNoise_PlusLocalization,2021.2.3,59.94613153543705,
,,,,,,,,midLeft,-13.0,2,ch1Sound_localizationTask.wav,-13.0,"(762, 878)","(-198,-202)",-190,-338,,,,,,,,,0,4,4,1,,,,,,,,,,,,,,,,,,,,,,,,,,,,,,,,,,,,,,,,,,,,828.3348347963765,None,829.4337250273675,None,830.3669285150245,None,1.7074074074074075,0.5826157289557159,830.3669285150245,None,,,,,,,,,,,,,,,,,152,001,2024_Jan_19_1301,SpeechDraft1Carolyn_lessNoise_PlusLocalization,2021.2.3,59.94613153543705,
,,,,,,,,center,0.0,6,ch1Sound_localizationTask.wav,0.0,"(952, 878)","(-8,-202)",0,-338,,,,,,,,,0,5,5,3,,,,,,,,,,,,,,,,,,,,,,,,,,,,,,,,,,,,,,,,,,,,830.9508687662892,None,832.0503204781562,None,832.9835477401502,None,1.643915343915344,0.4825732740573585,832.9835477401502,None,,,,,,,,,,,,,,,,,152,001,2024_Jan_19_1301,SpeechDraft1Carolyn_lessNoise_PlusLocalization,2021.2.3,59.94613153543705,
,,,,,,,,midLeft,-13.0,2,ch1Sound_localizationTask.wav,-13.0,"(762, 878)","(-198,-202)",-190,-338,,,,,,,,,0,6,6,1,,,,,,,,,,,,,,,,,,,,,,,,,,,,,,,,,,,,,,,,,,,,833.4679657020606,None,834.5670534470119,None,835.500315847341,None,1.6031746031746033,0.4322340078651905,835.500315847341,None,,,,,,,,,,,,,,,,,152,001,2024_Jan_19_1301,SpeechDraft1Carolyn_lessNoise_PlusLocalization,2021.2.3,59.94613153543705,
,,,,,,,,nearLeft,-6.5,1,ch1Sound_localizationTask.wav,-6.5,"(857, 878)","(-103,-202)",-95,-338,,,,,,,,,1,0,7,2,,,,,,,,,,,,,,,,,,,,,,,,,,,,,,,,,,,,,,,,,,,,835.9340983731672,None,837.0336403511465,None,837.9669395401143,None,1.560846560846561,0.4160605287179351,837.9669395401143,None,,,,,,,,,,,,,,,,,152,001,2024_Jan_19_1301,SpeechDraft1Carolyn_lessNoise_PlusLocalization,2021.2.3,59.94613153543705,
,,,,,,,,nearLeft,-6.5,1,ch1Sound_localizationTask.wav,-6.5,"(857, 878)","(-103,-202)",-95,-338,,,,,,,,,1,1,8,2,,,,,,,,,,,,,,,,,,,,,,,,,,,,,,,,,,,,,,,,,,,,838.3848804850131,None,839.4835897241719,None,840.4169213250279,None,1.561904761904762,0.36598484870046377,840.4169213250279,None,,,,,,,,,,,,,,,,,152,001,2024_Jan_19_1301,SpeechDraft1Carolyn_lessNoise_PlusLocalization,2021.2.3,59.94613153543705,
,,,,,,,,farRight,19.1,4,ch1Sound_localizationTask.wav,19.1,"(1237, 878)","(277,-202)",285,-338,,,,,,,,,1,2,9,6,,,,,,,,,,,,,,,,,,,,,,,,,,,,,,,,,,,,,,,,,,,,840.7848946209997,None,841.8835595282726,None,842.8169459421188,None,1.6,0.8829598380252719,842.8169459421188,None,,,,,,,,,,,,,,,,,152,001,2024_Jan_19_1301,SpeechDraft1Carolyn_lessNoise_PlusLocalization,2021.2.3,59.94613153543705,
,,,,,,,,midLeft,-13.0,2,ch1Sound_localizationTask.wav,-13.0,"(762, 878)","(-198,-202)",-190,-338,,,,,,,,,1,3,10,1,,,,,,,,,,,,,,,,,,,,,,,,,,,,,,,,,,,,,,,,,,,,843.7017967780121,None,844.8169151181355,None,845.7336921133101,None,1.5804232804232803,0.38242713175714016,845.7336921133101,None,,,,,,,,,,,,,,,,,152,001,2024_Jan_19_1301,SpeechDraft1Carolyn_lessNoise_PlusLocalization,2021.2.3,59.94613153543705,
,,,,,,,,nearLeft,-6.5,1,ch1Sound_localizationTask.wav,-6.5,"(857, 878)","(-103,-202)",-95,-338,,,,,,,,,1,4,11,2,,,,,,,,,,,,,,,,,,,,,,,,,,,,,,,,,,,,,,,,,,,,846.1173403970897,None,847.2169725070707,None,848.1503172679804,None,1.5947089947089947,0.41572694573551416,848.1503172679804,None,,,,,,,,,,,,,,,,,152,001,2024_Jan_19_1301,SpeechDraft1Carolyn_lessNoise_PlusLocalization,2021.2.3,59.94613153543705,
,,,,,,,,nearRight,6.5,0,ch1Sound_localizationTask.wav,6.5,"(1047, 878)","(87, -202)",95,-338,,,,,,,,,1,5,12,4,,,,,,,,,,,,,,,,,,,,,,,,,,,,,,,,,,,,,,,,,,,,848.5675793020055,None,849.667036246974,None,850.6002974594012,None,1.6142857142857143,0.38255163189023733,850.6002974594012,None,,,,,,,,,,,,,,,,,152,001,2024_Jan_19_1301,SpeechDraft1Carolyn_lessNoise_PlusLocalization,2021.2.3,59.94613153543705,
,,,,,,,,center,0.0,6,ch1Sound_localizationTask.wav,0.0,"(952, 878)","(-8,-202)",0,-338,,,,,,,,,1,6,13,3,,,,,,,,,,,,,,,,,,,,,,,,,,,,,,,,,,,,,,,,,,,,850.9842110159807,None,852.0837191832252,None,853.0169584690593,None,1.6142857142857143,0.38337239110842347,853.0169584690593,None,,,,,,,,,,,,,,,,,152,001,2024_Jan_19_1301,SpeechDraft1Carolyn_lessNoise_PlusLocalization,2021.2.3,59.94613153543705,
,,,,,,,,midLeft,-13.0,2,ch1Sound_localizationTask.wav,-13.0,"(762, 878)","(-198,-202)",-190,-338,,,,,,,,,2,0,14,1,,,,,,,,,,,,,,,,,,,,,,,,,,,,,,,,,,,,,,,,,,,,853.4016496613622,None,854.517076284159,None,855.433745761402,None,1.626984126984127,0.383245041128248,855.433745761402,None,,,,,,,,,,,,,,,,,152,001,2024_Jan_19_1301,SpeechDraft1Carolyn_lessNoise_PlusLocalization,2021.2.3,59.94613153543705,
,,,,,,,,farLeft,-19.1,5,ch1Sound_localizationTask.wav,-19.1,"(667, 878)","(-293,-202)",-285,-338,,,,,,,,,2,1,15,0,,,,,,,,,,,,,,,,,,,,,,,,,,,,,,,,,,,,,,,,,,,,855.8339695362374,None,856.9337387382984,None,857.8668284374289,None,1.637037037037037,0.549511085730046,857.8668284374289,None,,,,,,,,,,,,,,,,,152,001,2024_Jan_19_1301,SpeechDraft1Carolyn_lessNoise_PlusLocalization,2021.2.3,59.94613153543705,
,,,,,,,,center,0.0,6,ch1Sound_localizationTask.wav,0.0,"(952, 878)","(-8,-202)",0,-338,,,,,,,,,2,2,16,3,,,,,,,,,,,,,,,,,,,,,,,,,,,,,,,,,,,,,,,,,,,,858.4179415013641,None,859.5169206531718,None,860.450427913107,None,1.619047619047619,0.5684535391628742,860.450427913107,None,,,,,,,,,,,,,,,,,152,001,2024_Jan_19_1301,SpeechDraft1Carolyn_lessNoise_PlusLocalization,2021.2.3,59.94613153543705,
,,,,,,,,midLeft,-13.0,2,ch1Sound_localizationTask.wav,-13.0,"(762, 878)","(-198,-202)",-190,-338,,,,,,,,,2,3,17,1,,,,,,,,,,,,,,,,,,,,,,,,,,,,,,,,,,,,,,,,,,,,861.0339836333878,None,862.1337056071497,None,863.0670377891511,None,1.5862433862433862,0.416255890391767,863.0670377891511,None,,,,,,,,,,,,,,,,,152,001,2024_Jan_19_1301,SpeechDraft1Carolyn_lessNoise_PlusLocalization,2021.2.3,59.94613153543705,
,,,,,,,,center,0.0,6,ch1Sound_localizationTask.wav,0.0,"(952, 878)","(-8,-202)",0,-338,,,,,,,,,2,4,18,3,,,,,,,,,,,,,,,,,,,,,,,,,,,,,,,,,,,,,,,,,,,,863.4851033901796,None,864.6002801340073,None,865.5169416423887,None,1.58994708994709,0.44973559537902474,865.5169416423887,None,,,,,,,,,,,,,,,,,152,001,2024_Jan_19_1301,SpeechDraft1Carolyn_lessNoise_PlusLocalization,2021.2.3,59.94613153543705,
,,,,,,,,nearLeft,-6.5,1,ch1Sound_localizationTask.wav,-6.5,"(857, 878)","(-103,-202)",-95,-338,,,,,,,,,2,5,19,2,,,,,,,,,,,,,,,,,,,,,,,,,,,,,,,,,,,,,,,,,,,,865.9684744393453,None,867.0836888342164,None,868.0004009241238,None,1.5862433862433862,0.5332362772896886,868.0004009241238,None,,,,,,,,,,,,,,,,,152,001,2024_Jan_19_1301,SpeechDraft1Carolyn_lessNoise_PlusLocalization,2021.2.3,59.94613153543705,
,,,,,,,,nearRight,6.5,0,ch1Sound_localizationTask.wav,6.5,"(1047, 878)","(87, -202)",95,-338,,,,,,,,,2,6,20,4,,,,,,,,,,,,,,,,,,,,,,,,,,,,,,,,,,,,,,,,,,,,868.5347247980535,None,869.6337615153752,None,870.5670071761124,None,1.5947089947089947,0.49960952578112483,870.5670071761124,None,,,,,,,,,,,,,,,,,152,001,2024_Jan_19_1301,SpeechDraft1Carolyn_lessNoise_PlusLocalization,2021.2.3,59.94613153543705,
,,,,,,,,midRight,13.0,3,ch1Sound_localizationTask.wav,13.0,"(1142, 878)","(182, -202)",190,-338,,,,,,,,,3,0,21,5,,,,,,,,,,,,,,,,,,,,,,,,,,,,,,,,,,,,,,,,,,,,871.0680959252641,None,872.1670037363656,None,873.1002595992759,None,1.571957671957672,0.5332286050543189,873.1002595992759,None,,,,,,,,,,,,,,,,,152,001,2024_Jan_19_1301,SpeechDraft1Carolyn_lessNoise_PlusLocalization,2021.2.3,59.94613153543705,
,,,,,,,,farRight,19.1,4,ch1Sound_localizationTask.wav,19.1,"(1237, 878)","(277,-202)",285,-338,,,,,,,,,3,1,22,6,,,,,,,,,,,,,,,,,,,,,,,,,,,,,,,,,,,,,,,,,,,,873.6352811311372,None,874.7502502291463,None,875.6671152971685,None,1.5772486772486771,0.45005169697105885,875.6671152971685,None,,,,,,,,,,,,,,,,,152,001,2024_Jan_19_1301,SpeechDraft1Carolyn_lessNoise_PlusLocalization,2021.2.3,59.94613153543705,
,,,,,,,,nearLeft,-6.5,1,ch1Sound_localizationTask.wav,-6.5,"(857, 878)","(-103,-202)",-95,-338,,,,,,,,,3,2,23,2,,,,,,,,,,,,,,,,,,,,,,,,,,,,,,,,,,,,,,,,,,,,876.1339478553273,None,877.2337053120136,None,878.166903748177,None,1.5873015873015874,0.48276260728016496,878.166903748177,None,,,,,,,,,,,,,,,,,152,001,2024_Jan_19_1301,SpeechDraft1Carolyn_lessNoise_PlusLocalization,2021.2.3,59.94613153543705,
,,,,,,,,center,0.0,6,ch1Sound_localizationTask.wav,0.0,"(952, 878)","(-8,-202)",0,-338,,,,,,,,,3,3,24,3,,,,,,,,,,,,,,,,,,,,,,,,,,,,,,,,,,,,,,,,,,,,878.6673823650926,None,879.7670082710683,None,880.7002944080159,None,1.5936507936507938,0.4666416682302952,880.7002944080159,None,,,,,,,,,,,,,,,,,152,001,2024_Jan_19_1301,SpeechDraft1Carolyn_lessNoise_PlusLocalization,2021.2.3,59.94613153543705,
,,,,,,,,farLeft,-19.1,5,ch1Sound_localizationTask.wav,-19.1,"(667, 878)","(-293,-202)",-285,-338,,,,,,,,,3,4,25,0,,,,,,,,,,,,,,,,,,,,,,,,,,,,,,,,,,,,,,,,,,,,881.167992931325,None,882.2670334153809,None,883.2004414703697,None,1.5883597883597882,0.20073364861309528,883.2004414703697,None,,,,,,,,,,,,,,,,,152,001,2024_Jan_19_1301,SpeechDraft1Carolyn_lessNoise_PlusLocalization,2021.2.3,59.94613153543705,
,,,,,,,,nearLeft,-6.5,1,ch1Sound_localizationTask.wav,-6.5,"(857, 878)","(-103,-202)",-95,-338,,,,,,,,,3,5,26,2,,,,,,,,,,,,,,,,,,,,,,,,,,,,,,,,,,,,,,,,,,,,883.4172861711122,None,884.5170694501139,None,885.4503364311531,None,1.5772486772486771,0.39939646143466234,885.4503364311531,None,,,,,,,,,,,,,,,,,152,001,2024_Jan_19_1301,SpeechDraft1Carolyn_lessNoise_PlusLocalization,2021.2.3,59.94613153543705,
,,,,,,,,farLeft,-19.1,5,ch1Sound_localizationTask.wav,-19.1,"(667, 878)","(-293,-202)",-285,-338,,,,,,,,,3,6,27,0,,,,,,,,,,,,,,,,,,,,,,,,,,,,,,,,,,,,,,,,,,,,885.8516237833537,None,886.9503015303053,None,887.883666194044,None,1.5835978835978834,0.4505020319484174,887.883666194044,None,,,,,,,,,,,,,,,,,152,001,2024_Jan_19_1301,SpeechDraft1Carolyn_lessNoise_PlusLocalization,2021.2.3,59.94613153543705,
,,,,,,,,farLeft,-19.1,5,ch1Sound_localizationTask.wav,-19.1,"(667, 878)","(-293,-202)",-285,-338,,,,,,,,,4,0,28,0,,,,,,,,,,,,,,,,,,,,,,,,,,,,,,,,,,,,,,,,,,,,888.3505768100731,None,889.4504055273719,None,890.3836815082468,None,1.571957671957672,0.5152934603393078,890.3836815082468,None,,,,,,,,,,,,,,,,,152,001,2024_Jan_19_1301,SpeechDraft1Carolyn_lessNoise_PlusLocalization,2021.2.3,59.94613153543705,
,,,,,,,,farRight,19.1,4,ch1Sound_localizationTask.wav,19.1,"(1237, 878)","(277,-202)",285,-338,,,,,,,,,4,1,29,6,,,,,,,,,,,,,,,,,,,,,,,,,,,,,,,,,,,,,,,,,,,,890.9011424509808,None,892.0002262704074,None,892.9337148880586,None,1.5349206349206348,0.6162758539430797,892.9337148880586,None,,,,,,,,,,,,,,,,,152,001,2024_Jan_19_1301,SpeechDraft1Carolyn_lessNoise_PlusLocalization,2021.2.3,59.94613153543705,
,,,,,,,,farLeft,-19.1,5,ch1Sound_localizationTask.wav,-19.1,"(667, 878)","(-293,-202)",-285,-338,,,,,,,,,4,2,30,0,,,,,,,,,,,,,,,,,,,,,,,,,,,,,,,,,,,,,,,,,,,,893.5518587660044,None,894.6670085452497,None,895.583745259326,None,1.426984126984127,0.9861319488845766,895.583745259326,None,,,,,,,,,,,,,,,,,152,001,2024_Jan_19_1301,SpeechDraft1Carolyn_lessNoise_PlusLocalization,2021.2.3,59.94613153543705,
,,,,,,,,nearRight,6.5,0,ch1Sound_localizationTask.wav,6.5,"(1047, 878)","(87, -202)",95,-338,,,,,,,,,4,3,31,4,,,,,,,,,,,,,,,,,,,,,,,,,,,,,,,,,,,,,,,,,,,,896.5840951120481,None,897.6839489392005,None,898.61712142732,None,1.5042328042328044,0.649665733333677,898.61712142732,None,,,,,,,,,,,,,,,,,152,001,2024_Jan_19_1301,SpeechDraft1Carolyn_lessNoise_PlusLocalization,2021.2.3,59.94613153543705,
,,,,,,,,farRight,19.1,4,ch1Sound_localizationTask.wav,19.1,"(1237, 878)","(277,-202)",285,-338,,,,,,,,,4,4,32,6,,,,,,,,,,,,,,,,,,,,,,,,,,,,,,,,,,,,,,,,,,,,899.2681225701235,None,900.3670165622607,None,901.3003837051801,None,1.5227513227513227,0.5991342412307858,901.3003837051801,None,,,,,,,,,,,,,,,,,152,001,2024_Jan_19_1301,SpeechDraft1Carolyn_lessNoise_PlusLocalization,2021.2.3,59.94613153543705,
,,,,,,,,nearRight,6.5,0,ch1Sound_localizationTask.wav,6.5,"(1047, 878)","(87, -202)",95,-338,,,,,,,,,4,5,33,4,,,,,,,,,,,,,,,,,,,,,,,,,,,,,,,,,,,,,,,,,,,,901.9007958089933,None,903.0003407271579,None,903.9336435929872,None,1.5317460317460316,0.549778122920543,903.9336435929872,None,,,,,,,,,,,,,,,,,152,001,2024_Jan_19_1301,SpeechDraft1Carolyn_lessNoise_PlusLocalization,2021.2.3,59.94613153543705,
,,,,,,,,midRight,13.0,3,ch1Sound_localizationTask.wav,13.0,"(1142, 878)","(182, -202)",190,-338,,,,,,,,,4,6,34,5,,,,,,,,,,,,,,,,,,,,,,,,,,,,,,,,,,,,,,,,,,,,904.4846884449944,None,905.5837930850685,None,906.5170110333711,None,1.5317460317460316,0.699606406968087,906.5170110333711,None,,,,,,,,,,,,,,,,,152,001,2024_Jan_19_1301,SpeechDraft1Carolyn_lessNoise_PlusLocalization,2021.2.3,59.94613153543705,
,,,,,,,,midLeft,-13.0,2,ch1Sound_localizationTask.wav,-13.0,"(762, 878)","(-198,-202)",-190,-338,,,,,,,,,5,0,35,1,,,,,,,,,,,,,,,,,,,,,,,,,,,,,,,,,,,,,,,,,,,,907.2182628680021,None,908.3169869394042,None,909.2504103933461,None,1.5317460317460316,0.39994427701458335,909.2504103933461,None,,,,,,,,,,,,,,,,,152,001,2024_Jan_19_1301,SpeechDraft1Carolyn_lessNoise_PlusLocalization,2021.2.3,59.94613153543705,
,,,,,,,,midRight,13.0,3,ch1Sound_localizationTask.wav,13.0,"(1142, 878)","(182, -202)",190,-338,,,,,,,,,5,1,36,5,,,,,,,,,,,,,,,,,,,,,,,,,,,,,,,,,,,,,,,,,,,,909.6514676082879,None,910.7504204059951,None,911.6837976453826,None,1.5365079365079364,0.6664837216958404,911.6837976453826,None,,,,,,,,,,,,,,,,,152,001,2024_Jan_19_1301,SpeechDraft1Carolyn_lessNoise_PlusLocalization,2021.2.3,59.94613153543705,
,,,,,,,,farRight,19.1,4,ch1Sound_localizationTask.wav,19.1,"(1237, 878)","(277,-202)",285,-338,,,,,,,,,5,2,37,6,,,,,,,,,,,,,,,,,,,,,,,,,,,,,,,,,,,,,,,,,,,,912.3512913603336,None,913.4504250292666,None,914.3837737459689,None,1.5613756613756613,0.5830176849849522,914.3837737459689,None,,,,,,,,,,,,,,,,,152,001,2024_Jan_19_1301,SpeechDraft1Carolyn_lessNoise_PlusLocalization,2021.2.3,59.94613153543705,
,,,,,,,,midLeft,-13.0,2,ch1Sound_localizationTask.wav,-13.0,"(762, 878)","(-198,-202)",-190,-338,,,,,,,,,5,3,38,1,,,,,,,,,,,,,,,,,,,,,,,,,,,,,,,,,,,,,,,,,,,,914.9685738841072,None,916.0836609210819,None,917.000429188367,None,1.5296296296296297,0.5827801902778447,917.000429188367,None,,,,,,,,,,,,,,,,,152,001,2024_Jan_19_1301,SpeechDraft1Carolyn_lessNoise_PlusLocalization,2021.2.3,59.94613153543705,
,,,,,,,,center,0.0,6,ch1Sound_localizationTask.wav,0.0,"(952, 878)","(-8,-202)",0,-338,,,,,,,,,5,4,39,3,,,,,,,,,,,,,,,,,,,,,,,,,,,,,,,,,,,,,,,,,,,,917.5854124589823,None,918.7002008203417,None,919.6170952040702,None,1.5687830687830688,0.5322343809530139,919.6170952040702,None,,,,,,,,,,,,,,,,,152,001,2024_Jan_19_1301,SpeechDraft1Carolyn_lessNoise_PlusLocalization,2021.2.3,59.94613153543705,
,,,,,,,,midRight,13.0,3,ch1Sound_localizationTask.wav,13.0,"(1142, 878)","(182, -202)",190,-338,,,,,,,,,5,5,40,5,,,,,,,,,,,,,,,,,,,,,,,,,,,,,,,,,,,,,,,,,,,,920.1509771663696,None,921.2504334934056,None,922.1838066740893,None,1.6031746031746033,0.5002774959430099,922.1838066740893,None,,,,,,,,,,,,,,,,,152,001,2024_Jan_19_1301,SpeechDraft1Carolyn_lessNoise_PlusLocalization,2021.2.3,59.94613153543705,
,,,,,,,,nearLeft,-6.5,1,ch1Sound_localizationTask.wav,-6.5,"(857, 878)","(-103,-202)",-95,-338,,,,,,,,,5,6,41,2,,,,,,,,,,,,,,,,,,,,,,,,,,,,,,,,,,,,,,,,,,,,922.6853334750049,None,923.8003845661879,None,924.7170770331286,None,1.601058201058201,0.6494587012566626,924.7170770331286,None,,,,,,,,,,,,,,,,,152,001,2024_Jan_19_1301,SpeechDraft1Carolyn_lessNoise_PlusLocalization,2021.2.3,59.94613153543705,
,,,,,,,,nearRight,6.5,0,ch1Sound_localizationTask.wav,6.5,"(1047, 878)","(87, -202)",95,-338,,,,,,,,,6,0,42,4,,,,,,,,,,,,,,,,,,,,,,,,,,,,,,,,,,,,,,,,,,,,925.3683857680298,None,926.4838229613379,None,927.4003412080929,None,1.5846560846560847,0.4991573807783425,927.4003412080929,None,,,,,,,,,,,,,,,,,152,001,2024_Jan_19_1301,SpeechDraft1Carolyn_lessNoise_PlusLocalization,2021.2.3,59.94613153543705,
,,,,,,,,midRight,13.0,3,ch1Sound_localizationTask.wav,13.0,"(1142, 878)","(182, -202)",190,-338,,,,,,,,,6,1,43,5,,,,,,,,,,,,,,,,,,,,,,,,,,,,,,,,,,,,,,,,,,,,927.9013108671643,None,929.0003930241801,None,929.9338523242623,None,1.6042328042328042,0.46563008427619934,929.9338523242623,None,,,,,,,,,,,,,,,,,152,001,2024_Jan_19_1301,SpeechDraft1Carolyn_lessNoise_PlusLocalization,2021.2.3,59.94613153543705,
,,,,,,,,farLeft,-19.1,5,ch1Sound_localizationTask.wav,-19.1,"(667, 878)","(-293,-202)",-285,-338,,,,,,,,,6,2,44,0,,,,,,,,,,,,,,,,,,,,,,,,,,,,,,,,,,,,,,,,,,,,930.4012466422282,None,931.5004663211294,None,932.43378347205,None,1.6042328042328042,0.4163798098452389,932.43378347205,None,,,,,,,,,,,,,,,,,152,001,2024_Jan_19_1301,SpeechDraft1Carolyn_lessNoise_PlusLocalization,2021.2.3,59.94613153543705,
,,,,,,,,nearRight,6.5,0,ch1Sound_localizationTask.wav,6.5,"(1047, 878)","(87, -202)",95,-338,,,,,,,,,6,3,45,4,,,,,,,,,,,,,,,,,,,,,,,,,,,,,,,,,,,,,,,,,,,,932.8516721143387,None,933.9503614851274,None,934.8838232969865,None,1.6232804232804234,0.48254763800650835,934.8838232969865,None,,,,,,,,,,,,,,,,,152,001,2024_Jan_19_1301,SpeechDraft1Carolyn_lessNoise_PlusLocalization,2021.2.3,59.94613153543705,
,,,,,,,,nearRight,6.5,0,ch1Sound_localizationTask.wav,6.5,"(1047, 878)","(87, -202)",95,-338,,,,,,,,,6,4,46,4,,,,,,,,,,,,,,,,,,,,,,,,,,,,,,,,,,,,,,,,,,,,935.367493329104,None,936.4670697781257,None,937.4005164331757,None,1.655026455026455,0.4170153639279306,937.4005164331757,None,,,,,,,,,,,,,,,,,152,001,2024_Jan_19_1301,SpeechDraft1Carolyn_lessNoise_PlusLocalization,2021.2.3,59.94613153543705,
,,,,,,,,farRight,19.1,4,ch1Sound_localizationTask.wav,19.1,"(1237, 878)","(277,-202)",285,-338,,,,,,,,,6,5,47,6,,,,,,,,,,,,,,,,,,,,,,,,,,,,,,,,,,,,,,,,,,,,937.8340343143791,None,938.933707147371,None,939.8670725510456,None,1.6608465608465608,0.41566455317661166,939.8670725510456,None,,,,,,,,,,,,,,,,,152,001,2024_Jan_19_1301,SpeechDraft1Carolyn_lessNoise_PlusLocalization,2021.2.3,59.94613153543705,
,,,,,,,,farLeft,-19.1,5,ch1Sound_localizationTask.wav,-19.1,"(667, 878)","(-293,-202)",-285,-338,,,,,,,,,6,6,48,0,,,,,,,,,,,,,,,,,,,,,,,,,,,,,,,,,,,,,,,,,,,,940.2843191353604,None,941.3837358942255,None,942.3171161352657,None,1.6608465608465608,0.26641666097566485,942.3171161352657,None,,,,,,,,,,,,,,,,,152,001,2024_Jan_19_1301,SpeechDraft1Carolyn_lessNoise_PlusLocalization,2021.2.3,59.94613153543705,
,,,,,,,,farRight,19.1,4,ch1Sound_localizationTask.wav,19.1,"(1237, 878)","(277,-202)",285,-338,,,,,,,,,7,0,49,6,,,,,,,,,,,,,,,,,,,,,,,,,,,,,,,,,,,,,,,,,,,,942.5848793070763,None,943.6836420842446,None,944.6172824730165,None,1.657142857142857,0.6997977998107672,944.6172824730165,None,,,,,,,,,,,,,,,,,152,001,2024_Jan_19_1301,SpeechDraft1Carolyn_lessNoise_PlusLocalization,2021.2.3,59.94613153543705,
,,,,,,,,farRight,19.1,4,ch1Sound_localizationTask.wav,19.1,"(1237, 878)","(277,-202)",285,-338,,,,,,,,,7,1,50,6,,,,,,,,,,,,,,,,,,,,,,,,,,,,,,,,,,,,,,,,,,,,945.3186639114283,None,946.4338334403001,None,947.3504639510065,None,1.674074074074074,0.5836034449748695,947.3504639510065,None,,,,,,,,,,,,,,,,,152,001,2024_Jan_19_1301,SpeechDraft1Carolyn_lessNoise_PlusLocalization,2021.2.3,59.94613153543705,
,,,,,,,,center,0.0,6,ch1Sound_localizationTask.wav,0.0,"(952, 878)","(-8,-202)",0,-338,,,,,,,,,7,2,51,3,,,,,,,,,,,,,,,,,,,,,,,,,,,,,,,,,,,,,,,,,,,,947.9506294531748,None,949.0504845334217,None,949.9836519942619,None,1.6915343915343914,0.6493200277909636,949.9836519942619,None,,,,,,,,,,,,,,,,,152,001,2024_Jan_19_1301,SpeechDraft1Carolyn_lessNoise_PlusLocalization,2021.2.3,59.94613153543705,
,,,,,,,,midRight,13.0,3,ch1Sound_localizationTask.wav,13.0,"(1142, 878)","(182, -202)",190,-338,,,,,,,,,7,3,52,5,,,,,,,,,,,,,,,,,,,,,,,,,,,,,,,,,,,,,,,,,,,,950.6507522840984,None,951.7505658282898,None,952.6838185493834,None,1.7037037037037037,0.5161028755828738,952.6838185493834,None,,,,,,,,,,,,,,,,,152,001,2024_Jan_19_1301,SpeechDraft1Carolyn_lessNoise_PlusLocalization,2021.2.3,59.94613153543705,
,,,,,,,,farLeft,-19.1,5,ch1Sound_localizationTask.wav,-19.1,"(667, 878)","(-293,-202)",-285,-338,,,,,,,,,7,4,53,0,,,,,,,,,,,,,,,,,,,,,,,,,,,,,,,,,,,,,,,,,,,,953.2018528734334,None,954.3171113622375,None,955.2337460722774,None,1.7037037037037037,0.6149425697512925,955.2337460722774,None,,,,,,,,,,,,,,,,,152,001,2024_Jan_19_1301,SpeechDraft1Carolyn_lessNoise_PlusLocalization,2021.2.3,59.94613153543705,
,,,,,,,,nearRight,6.5,0,ch1Sound_localizationTask.wav,6.5,"(1047, 878)","(87, -202)",95,-338,,,,,,,,,7,5,54,4,,,,,,,,,,,,,,,,,,,,,,,,,,,,,,,,,,,,,,,,,,,,955.8674053703435,None,956.9672543671913,None,957.90045929607,None,1.704232804232804,0.6325181229040027,957.90045929607,None,,,,,,,,,,,,,,,,,152,001,2024_Jan_19_1301,SpeechDraft1Carolyn_lessNoise_PlusLocalization,2021.2.3,59.94613153543705,
,,,,,,,,nearLeft,-6.5,1,ch1Sound_localizationTask.wav,-6.5,"(857, 878)","(-103,-202)",-95,-338,,,,,,,,,7,6,55,2,,,,,,,,,,,,,,,,,,,,,,,,,,,,,,,,,,,,,,,,,,,,958.5346354530193,None,959.6336767082103,None,960.5671149310656,None,1.7047619047619047,0.3834376437589526,960.5671149310656,None,,,,,,,,,,,,,,,,,152,001,2024_Jan_19_1301,SpeechDraft1Carolyn_lessNoise_PlusLocalization,2021.2.3,59.94613153543705,
,,,,,,,,,,,,,,,,,,,,,,,,,,,,,,,,,,,,,,,,,,,,,,,,,,,,,,,,,,,,,,,,,,,,,,,,,,,,,,,,,,space,12.933514875825495,961.0507493852638,None,,,,,,,,,,,,,152,001,2024_Jan_19_1301,SpeechDraft1Carolyn_lessNoise_PlusLocalization,2021.2.3,59.94613153543705,
,,,,,,,,midLeft,-13.0,2,ch1Sound_localizationTask.wav,-13.0,"(762, 878)","(-198,-202)",-190,-338,,,,,,,,,,,,,0,0,0,1,,,,,,,,,,,,,,,,,,,,,,,,,,,,,,,,,,,,,,,,974.0338833071291,None,,,977.051325744018,None,1.380952380952381,0.9896015459671617,977.051325744018,None,,,,,961.0507493852638,None,975.0341562330723,None,975.217494440265,975.2340592499822,,,,,,,152,001,2024_Jan_19_1301,SpeechDraft1Carolyn_lessNoise_PlusLocalization,2021.2.3,59.94613153543705,
,,,,,,,,nearLeft,-6.5,1,ch1Sound_localizationTask.wav,-6.5,"(857, 878)","(-103,-202)",-95,-338,,,,,,,,,,,,,0,1,1,2,,,,,,,,,,,,,,,,,,,,,,,,,,,,,,,,,,,,,,,,978.0674682459794,None,,,981.0838588732295,None,1.4634920634920636,0.6834035119973123,981.0838588732295,None,,,,,,,979.0674596522003,None,979.2507234122604,979.2674728212878,,,,,,,152,001,2024_Jan_19_1301,SpeechDraft1Carolyn_lessNoise_PlusLocalization,2021.2.3,59.94613153543705,
,,,,,,,,farRight,19.1,4,ch1Sound_localizationTask.wav,19.1,"(1237, 878)","(277,-202)",285,-338,,,,,,,,,,,,,0,2,2,6,,,,,,,,,,,,,,,,,,,,,,,,,,,,,,,,,,,,,,,,981.7841107170098,None,,,984.8003607019782,None,1.6529100529100529,0.6996717569418252,984.8003607019782,None,,,,,,,982.7839949252084,None,982.967436755076,982.9839681792073,,,,,,,152,001,2024_Jan_19_1301,SpeechDraft1Carolyn_lessNoise_PlusLocalization,2021.2.3,59.94613153543705,
,,,,,,,,midRight,13.0,3,ch1Sound_localizationTask.wav,13.0,"(1142, 878)","(182, -202)",190,-338,,,,,,,,,,,,,0,3,3,5,,,,,,,,,,,,,,,,,,,,,,,,,,,,,,,,,,,,,,,,985.5018759272061,None,,,988.5337534840219,None,1.5984126984126985,0.6822981871664524,988.5337534840219,None,,,,,,,986.5174577911384,None,986.7008503843099,986.7173709021881,,,,,,,152,001,2024_Jan_19_1301,SpeechDraft1Carolyn_lessNoise_PlusLocalization,2021.2.3,59.94613153543705,
,,,,,,,,farRight,19.1,4,ch1Sound_localizationTask.wav,19.1,"(1237, 878)","(277,-202)",285,-338,,,,,,,,,,,,,0,4,4,6,,,,,,,,,,,,,,,,,,,,,,,,,,,,,,,,,,,,,,,,989.2180842673406,None,,,992.2338316491805,None,1.6227513227513226,0.4163248580880463,992.2338316491805,None,,,,,,,990.217442448251,None,990.400833810214,990.4174881363288,,,,,,,152,001,2024_Jan_19_1301,SpeechDraft1Carolyn_lessNoise_PlusLocalization,2021.2.3,59.94613153543705,
,,,,,,,,farLeft,-19.1,5,ch1Sound_localizationTask.wav,-19.1,"(667, 878)","(-293,-202)",-285,-338,,,,,,,,,,,,,0,5,5,0,,,,,,,,,,,,,,,,,,,,,,,,,,,,,,,,,,,,,,,,992.6517935963348,None,,,995.6671544914134,None,1.3735449735449734,1.1162329511716962,995.6671544914134,None,,,,,,,993.6509624454193,None,993.8341239723377,993.8507756041363,,,,,,,152,001,2024_Jan_19_1301,SpeechDraft1Carolyn_lessNoise_PlusLocalization,2021.2.3,59.94613153543705,
,,,,,,,,center,0.0,6,ch1Sound_localizationTask.wav,0.0,"(952, 878)","(-8,-202)",0,-338,,,,,,,,,,,,,0,6,6,3,,,,,,,,,,,,,,,,,,,,,,,,,,,,,,,,,,,,,,,,996.8008719421923,None,,,999.8172482633963,None,1.5,0.899772341363132,999.8172482633963,None,,,,,,,997.8008133922704,None,997.9840861973353,998.0008096653037,,,,,,,152,001,2024_Jan_19_1301,SpeechDraft1Carolyn_lessNoise_PlusLocalization,2021.2.3,59.94613153543705,
,,,,,,,,midLeft,-13.0,2,ch1Sound_localizationTask.wav,-13.0,"(762, 878)","(-198,-202)",-190,-338,,,,,,,,,,,,,1,0,7,1,,,,,,,,,,,,,,,,,,,,,,,,,,,,,,,,,,,,,,,,1000.7341476650909,None,,,1003.7505174414255,None,1.3735449735449734,0.7657278259284794,1003.7505174414255,None,,,,,,,1001.734123816248,None,1001.9174583181739,1001.9341318709776,,,,,,,152,001,2024_Jan_19_1301,SpeechDraft1Carolyn_lessNoise_PlusLocalization,2021.2.3,59.94613153543705,
,,,,,,,,center,0.0,6,ch1Sound_localizationTask.wav,0.0,"(952, 878)","(-8,-202)",0,-338,,,,,,,,,,,,,1,1,8,3,,,,,,,,,,,,,,,,,,,,,,,,,,,,,,,,,,,,,,,,1004.5181581033394,None,,,1007.5339047932066,None,1.493121693121693,0.9161015702411532,1007.5339047932066,None,,,,,,,1005.5174245792441,None,1005.7007800061256,1005.7175057022832,,,,,,,152,001,2024_Jan_19_1301,SpeechDraft1Carolyn_lessNoise_PlusLocalization,2021.2.3,59.94613153543705,
,,,,,,,,nearLeft,-6.5,1,ch1Sound_localizationTask.wav,-6.5,"(857, 878)","(-103,-202)",-95,-338,,,,,,,,,,,,,1,2,9,2,,,,,,,,,,,,,,,,,,,,,,,,,,,,,,,,,,,,,,,,1008.4518845221028,None,,,1011.4838622901589,None,1.457142857142857,0.5329780420288444,1011.4838622901589,None,,,,,,,1009.4674793542363,None,1009.6508971611038,1009.6674900241196,,,,,,,152,001,2024_Jan_19_1301,SpeechDraft1Carolyn_lessNoise_PlusLocalization,2021.2.3,59.94613153543705,
,,,,,,,,midRight,13.0,3,ch1Sound_localizationTask.wav,13.0,"(1142, 878)","(182, -202)",190,-338,,,,,,,,,,,,,1,3,10,5,,,,,,,,,,,,,,,,,,,,,,,,,,,,,,,,,,,,,,,,1012.0182194630615,None,,,1015.0341588822193,None,1.6042328042328042,0.7652952456846833,1015.0341588822193,None,,,,,,,1013.017412815243,None,1013.2008245852776,1013.2174502881244,,,,,,,152,001,2024_Jan_19_1301,SpeechDraft1Carolyn_lessNoise_PlusLocalization,2021.2.3,59.94613153543705,
,,,,,,,,midRight,13.0,3,ch1Sound_localizationTask.wav,13.0,"(1142, 878)","(182, -202)",190,-338,,,,,,,,,,,,,1,4,11,5,,,,,,,,,,,,,,,,,,,,,,,,,,,,,,,,,,,,,,,,1015.8010666794144,None,,,1018.8172419872135,None,1.591005291005291,0.49872448621317744,1018.8172419872135,None,,,,,,,1016.800822741352,None,1016.9841282172129,1017.0007570050657,,,,,,,152,001,2024_Jan_19_1301,SpeechDraft1Carolyn_lessNoise_PlusLocalization,2021.2.3,59.94613153543705,
,,,,,,,,farLeft,-19.1,5,ch1Sound_localizationTask.wav,-19.1,"(667, 878)","(-293,-202)",-285,-338,,,,,,,,,,,,,1,5,12,0,,,,,,,,,,,,,,,,,,,,,,,,,,,,,,,,,,,,,,,,1019.3174925884232,None,,,1022.3338423492387,None,1.3391534391534392,0.8670143098570406,1022.3338423492387,None,,,,,,,1020.317473931238,None,1020.5008873031475,1020.5174860269763,,,,,,,152,001,2024_Jan_19_1301,SpeechDraft1Carolyn_lessNoise_PlusLocalization,2021.2.3,59.94613153543705,
,,,,,,,,center,0.0,6,ch1Sound_localizationTask.wav,0.0,"(952, 878)","(-8,-202)",0,-338,,,,,,,,,,,,,1,6,13,3,,,,,,,,,,,,,,,,,,,,,,,,,,,,,,,,,,,,,,,,1023.2174975373782,None,,,1026.2338993069716,None,1.48994708994709,0.715410795994103,1026.2338993069716,None,,,,,,,1024.2174839209765,None,1024.4008544990793,1024.4174751471728,,,,,,,152,001,2024_Jan_19_1301,SpeechDraft1Carolyn_lessNoise_PlusLocalization,2021.2.3,59.94613153543705,
,,,,,,,,nearRight,6.5,0,ch1Sound_localizationTask.wav,6.5,"(1047, 878)","(87, -202)",95,-338,,,,,,,,,,,,,2,0,14,4,,,,,,,,,,,,,,,,,,,,,,,,,,,,,,,,,,,,,,,,1026.9511969573796,None,,,1029.9671851773746,None,1.5412698412698411,0.6998266270384192,1029.9671851773746,None,,,,,,,1027.95089246938,None,1028.134211297147,1028.1507553020492,,,,,,,152,001,2024_Jan_19_1301,SpeechDraft1Carolyn_lessNoise_PlusLocalization,2021.2.3,59.94613153543705,
,,,,,,,,nearLeft,-6.5,1,ch1Sound_localizationTask.wav,-6.5,"(857, 878)","(-103,-202)",-95,-338,,,,,,,,,,,,,2,1,15,2,,,,,,,,,,,,,,,,,,,,,,,,,,,,,,,,,,,,,,,,1030.6682341382839,None,,,1033.683943951968,None,1.456084656084656,0.7325322390533984,1033.683943951968,None,,,,,,,1031.6675196164288,None,1031.8507289253175,1031.8674743562005,,,,,,,152,001,2024_Jan_19_1301,SpeechDraft1Carolyn_lessNoise_PlusLocalization,2021.2.3,59.94613153543705,
,,,,,,,,farRight,19.1,4,ch1Sound_localizationTask.wav,19.1,"(1237, 878)","(277,-202)",285,-338,,,,,,,,,,,,,2,2,16,6,,,,,,,,,,,,,,,,,,,,,,,,,,,,,,,,,,,,,,,,1034.4190411381423,None,,,1037.4506770670414,None,1.6417989417989418,1.0655903867445886,1037.4506770670414,None,,,,,,,1035.434136048425,None,1035.6176448203623,1035.634192447178,,,,,,,152,001,2024_Jan_19_1301,SpeechDraft1Carolyn_lessNoise_PlusLocalization,2021.2.3,59.94613153543705,
,,,,,,,,center,0.0,6,ch1Sound_localizationTask.wav,0.0,"(952, 878)","(-8,-202)",0,-338,,,,,,,,,,,,,2,3,17,3,,,,,,,,,,,,,,,,,,,,,,,,,,,,,,,,,,,,,,,,1038.5176563132554,None,,,1041.5338050252758,None,1.4978835978835978,0.6996131110936403,1041.5338050252758,None,,,,,,,1039.5174412773922,None,1039.700891629327,1039.717540889047,,,,,,,152,001,2024_Jan_19_1301,SpeechDraft1Carolyn_lessNoise_PlusLocalization,2021.2.3,59.94613153543705,
,,,,,,,,midLeft,-13.0,2,ch1Sound_localizationTask.wav,-13.0,"(762, 878)","(-198,-202)",-190,-338,,,,,,,,,,,,,2,4,18,1,,,,,,,,,,,,,,,,,,,,,,,,,,,,,,,,,,,,,,,,1042.2351150363684,None,,,1045.2506817532703,None,1.4042328042328043,0.8824799507856369,1045.2506817532703,None,,,,,,,1043.2342341970652,None,1043.4175440720282,1043.4341693744063,,,,,,,152,001,2024_Jan_19_1301,SpeechDraft1Carolyn_lessNoise_PlusLocalization,2021.2.3,59.94613153543705,
,,,,,,,,center,0.0,6,ch1Sound_localizationTask.wav,0.0,"(952, 878)","(-8,-202)",0,-338,,,,,,,,,,,,,2,5,19,3,,,,,,,,,,,,,,,,,,,,,,,,,,,,,,,,,,,,,,,,1046.1357008120976,None,,,1049.1673803762533,None,1.4867724867724867,0.6495082811452448,1049.1673803762533,None,,,,,,,1047.1508090440184,None,1047.3341291160323,1047.3508154880255,,,,,,,152,001,2024_Jan_19_1301,SpeechDraft1Carolyn_lessNoise_PlusLocalization,2021.2.3,59.94613153543705,
,,,,,,,,farLeft,-19.1,5,ch1Sound_localizationTask.wav,-19.1,"(667, 878)","(-293,-202)",-285,-338,,,,,,,,,,,,,2,6,20,0,,,,,,,,,,,,,,,,,,,,,,,,,,,,,,,,,,,,,,,,1049.8182271560654,None,,,1052.833930554334,None,1.3513227513227513,0.6999485823325813,1052.833930554334,None,,,,,,,1050.8175010234118,None,1051.0009025339969,1051.0174499093555,,,,,,,152,001,2024_Jan_19_1301,SpeechDraft1Carolyn_lessNoise_PlusLocalization,2021.2.3,59.94613153543705,
,,,,,,,,nearRight,6.5,0,ch1Sound_localizationTask.wav,6.5,"(1047, 878)","(87, -202)",95,-338,,,,,,,,,,,,,3,0,21,4,,,,,,,,,,,,,,,,,,,,,,,,,,,,,,,,,,,,,,,,1053.5509556913748,None,,,1056.5670606819913,None,1.555026455026455,0.7821932029910386,1056.5670606819913,None,,,,,,,1054.550805075094,None,1054.7342876382172,1054.7508994489908,,,,,,,152,001,2024_Jan_19_1301,SpeechDraft1Carolyn_lessNoise_PlusLocalization,2021.2.3,59.94613153543705,
,,,,,,,,nearLeft,-6.5,1,ch1Sound_localizationTask.wav,-6.5,"(857, 878)","(-103,-202)",-95,-338,,,,,,,,,,,,,3,1,22,2,,,,,,,,,,,,,,,,,,,,,,,,,,,,,,,,,,,,,,,,1057.351836655289,None,,,1060.3673467021435,None,1.4492063492063492,0.6834311387501657,1060.3673467021435,None,,,,,,,1058.35084788315,None,1058.5341993942857,1058.550901814364,,,,,,,152,001,2024_Jan_19_1301,SpeechDraft1Carolyn_lessNoise_PlusLocalization,2021.2.3,59.94613153543705,
,,,,,,,,midLeft,-13.0,2,ch1Sound_localizationTask.wav,-13.0,"(762, 878)","(-198,-202)",-190,-338,,,,,,,,,,,,,3,2,23,1,,,,,,,,,,,,,,,,,,,,,,,,,,,,,,,,,,,,,,,,1061.0677130860277,None,,,1064.0840055830777,None,1.416931216931217,0.7324728798121214,1064.0840055830777,None,,,,,,,1062.067532738205,None,1062.2509274082258,1062.2675382881425,,,,,,,152,001,2024_Jan_19_1301,SpeechDraft1Carolyn_lessNoise_PlusLocalization,2021.2.3,59.94613153543705,
,,,,,,,,midRight,13.0,3,ch1Sound_localizationTask.wav,13.0,"(1142, 878)","(182, -202)",190,-338,,,,,,,,,,,,,3,3,24,5,,,,,,,,,,,,,,,,,,,,,,,,,,,,,,,,,,,,,,,,1064.8342480482534,None,,,1067.850682881195,None,1.5846560846560847,0.7495794957503676,1067.850682881195,None,,,,,,,1065.8342141290195,None,1066.0175547772087,1066.0342503064312,,,,,,,152,001,2024_Jan_19_1301,SpeechDraft1Carolyn_lessNoise_PlusLocalization,2021.2.3,59.94613153543705,
,,,,,,,,midLeft,-13.0,2,ch1Sound_localizationTask.wav,-13.0,"(762, 878)","(-198,-202)",-190,-338,,,,,,,,,,,,,3,4,25,1,,,,,,,,,,,,,,,,,,,,,,,,,,,,,,,,,,,,,,,,1068.6024468000978,None,,,1071.6339683602564,None,1.4042328042328043,0.7351256087422371,1071.6339683602564,None,,,,,,,1069.617570902221,None,1069.8008467094041,1069.8175247390755,,,,,,,152,001,2024_Jan_19_1301,SpeechDraft1Carolyn_lessNoise_PlusLocalization,2021.2.3,59.94613153543705,
,,,,,,,,nearRight,6.5,0,ch1Sound_localizationTask.wav,6.5,"(1047, 878)","(87, -202)",95,-338,,,,,,,,,,,,,3,5,26,4,,,,,,,,,,,,,,,,,,,,,,,,,,,,,,,,,,,,,,,,1072.3847918142565,None,,,1075.4005988440476,None,1.541798941798942,0.6988864988088608,1075.4005988440476,None,,,,,,,1073.3841618159786,None,1073.567624896299,1073.5841993964277,,,,,,,152,001,2024_Jan_19_1301,SpeechDraft1Carolyn_lessNoise_PlusLocalization,2021.2.3,59.94613153543705,
,,,,,,,,farRight,19.1,4,ch1Sound_localizationTask.wav,19.1,"(1237, 878)","(277,-202)",285,-338,,,,,,,,,,,,,3,6,27,6,,,,,,,,,,,,,,,,,,,,,,,,,,,,,,,,,,,,,,,,1076.1011474812403,None,,,1079.1174007453956,None,1.6317460317460317,0.7332448060624301,1079.1174007453956,None,,,,,,,1077.1009583161213,None,1077.2842443492264,1077.3008861783892,,,,,,,152,001,2024_Jan_19_1301,SpeechDraft1Carolyn_lessNoise_PlusLocalization,2021.2.3,59.94613153543705,
,,,,,,,,farRight,19.1,4,ch1Sound_localizationTask.wav,19.1,"(1237, 878)","(277,-202)",285,-338,,,,,,,,,,,,,4,0,28,6,,,,,,,,,,,,,,,,,,,,,,,,,,,,,,,,,,,,,,,,1079.867586800363,None,,,1082.883907719981,None,1.6396825396825396,0.6820575636811554,1082.883907719981,None,,,,,,,1080.8676817570813,None,1081.0510793630965,1081.0675784070045,,,,,,,152,001,2024_Jan_19_1301,SpeechDraft1Carolyn_lessNoise_PlusLocalization,2021.2.3,59.94613153543705,
,,,,,,,,center,0.0,6,ch1Sound_localizationTask.wav,0.0,"(952, 878)","(-8,-202)",0,-338,,,,,,,,,,,,,4,1,29,3,,,,,,,,,,,,,,,,,,,,,,,,,,,,,,,,,,,,,,,,1083.5678931754082,None,,,1086.584132178221,None,1.51005291005291,0.7159889386966825,1086.584132178221,None,,,,,,,1084.5677719442174,None,1084.7508551450446,1084.767600006424,,,,,,,152,001,2024_Jan_19_1301,SpeechDraft1Carolyn_lessNoise_PlusLocalization,2021.2.3,59.94613153543705,
,,,,,,,,nearLeft,-6.5,1,ch1Sound_localizationTask.wav,-6.5,"(857, 878)","(-103,-202)",-95,-338,,,,,,,,,,,,,4,2,30,2,,,,,,,,,,,,,,,,,,,,,,,,,,,,,,,,,,,,,,,,1087.3026498961262,None,,,1090.3339860173874,None,1.457142857142857,0.6156722591258585,1090.3339860173874,None,,,,,,,1088.3176447311416,None,1088.5010068593547,1088.5175624703988,,,,,,,152,001,2024_Jan_19_1301,SpeechDraft1Carolyn_lessNoise_PlusLocalization,2021.2.3,59.94613153543705,
,,,,,,,,midRight,13.0,3,ch1Sound_localizationTask.wav,13.0,"(1142, 878)","(182, -202)",190,-338,,,,,,,,,,,,,4,3,31,5,,,,,,,,,,,,,,,,,,,,,,,,,,,,,,,,,,,,,,,,1090.951567620039,None,,,1093.9672882882878,None,1.5597883597883597,0.732408250682056,1093.9672882882878,None,,,,,,,1091.950929172337,None,1092.134348213207,1092.1509208180942,,,,,,,152,001,2024_Jan_19_1301,SpeechDraft1Carolyn_lessNoise_PlusLocalization,2021.2.3,59.94613153543705,
,,,,,,,,midRight,13.0,3,ch1Sound_localizationTask.wav,13.0,"(1142, 878)","(182, -202)",190,-338,,,,,,,,,,,,,4,4,32,5,,,,,,,,,,,,,,,,,,,,,,,,,,,,,,,,,,,,,,,,1094.7176530719735,None,,,1097.7339693079703,None,1.5841269841269843,0.6001306837424636,1097.7339693079703,None,,,,,,,1095.7174876080826,None,1095.9009719630703,1095.917474457994,,,,,,,152,001,2024_Jan_19_1301,SpeechDraft1Carolyn_lessNoise_PlusLocalization,2021.2.3,59.94613153543705,
,,,,,,,,nearLeft,-6.5,1,ch1Sound_localizationTask.wav,-6.5,"(857, 878)","(-103,-202)",-95,-338,,,,,,,,,,,,,4,5,33,2,,,,,,,,,,,,,,,,,,,,,,,,,,,,,,,,,,,,,,,,1098.351083720103,None,,,1101.3673139302991,None,1.456084656084656,0.6170999980531633,1101.3673139302991,None,,,,,,,1099.3509281883016,None,1099.534215010237,1099.550872510299,,,,,,,152,001,2024_Jan_19_1301,SpeechDraft1Carolyn_lessNoise_PlusLocalization,2021.2.3,59.94613153543705,
,,,,,,,,nearLeft,-6.5,1,ch1Sound_localizationTask.wav,-6.5,"(857, 878)","(-103,-202)",-95,-338,,,,,,,,,,,,,4,6,34,2,,,,,,,,,,,,,,,,,,,,,,,,,,,,,,,,,,,,,,,,1102.0010265740566,None,,,1105.0174141563475,None,1.433862433862434,0.5996013758704066,1105.0174141563475,None,,,,,,,1103.0009516919963,None,1103.1842642622069,1103.2009008573368,,,,,,,152,001,2024_Jan_19_1301,SpeechDraft1Carolyn_lessNoise_PlusLocalization,2021.2.3,59.94613153543705,
,,,,,,,,midLeft,-13.0,2,ch1Sound_localizationTask.wav,-13.0,"(762, 878)","(-198,-202)",-190,-338,,,,,,,,,,,,,5,0,35,1,,,,,,,,,,,,,,,,,,,,,,,,,,,,,,,,,,,,,,,,1105.6191373839974,None,,,1108.6507379054092,None,1.4671957671957672,1.5493720090016723,1108.6507379054092,None,,,,,,,1106.6343991821632,None,1106.8175120702945,1106.8341974862851,,,,,,,152,001,2024_Jan_19_1301,SpeechDraft1Carolyn_lessNoise_PlusLocalization,2021.2.3,59.94613153543705,
,,,,,,,,nearRight,6.5,0,ch1Sound_localizationTask.wav,6.5,"(1047, 878)","(87, -202)",95,-338,,,,,,,,,,,,,5,1,36,4,,,,,,,,,,,,,,,,,,,,,,,,,,,,,,,,,,,,,,,,1110.2015994591638,None,,,1113.2173241954297,None,1.5322751322751322,0.7657789178192616,1113.2173241954297,None,,,,,,,1111.2009271183051,None,1111.38427228434,1111.4009736413136,,,,,,,152,001,2024_Jan_19_1301,SpeechDraft1Carolyn_lessNoise_PlusLocalization,2021.2.3,59.94613153543705,
,,,,,,,,midLeft,-13.0,2,ch1Sound_localizationTask.wav,-13.0,"(762, 878)","(-198,-202)",-190,-338,,,,,,,,,,,,,5,2,37,1,,,,,,,,,,,,,,,,,,,,,,,,,,,,,,,,,,,,,,,,1113.9853341421112,None,,,1117.0008130250499,None,1.4264550264550264,0.7829099642112851,1117.0008130250499,None,,,,,,,1114.9842670792714,None,1115.16762745101,1115.1841852902435,,,,,,,152,001,2024_Jan_19_1301,SpeechDraft1Carolyn_lessNoise_PlusLocalization,2021.2.3,59.94613153543705,
,,,,,,,,midRight,13.0,3,ch1Sound_localizationTask.wav,13.0,"(1142, 878)","(182, -202)",190,-338,,,,,,,,,,,,,5,3,38,5,,,,,,,,,,,,,,,,,,,,,,,,,,,,,,,,,,,,,,,,1117.7853996232152,None,,,1120.8173977569677,None,1.5656084656084657,0.7825426459312439,1120.8173977569677,None,,,,,,,1118.8010634831153,None,1118.9841812611558,1119.0010234722868,,,,,,,152,001,2024_Jan_19_1301,SpeechDraft1Carolyn_lessNoise_PlusLocalization,2021.2.3,59.94613153543705,
,,,,,,,,farRight,19.1,4,ch1Sound_localizationTask.wav,19.1,"(1237, 878)","(277,-202)",285,-338,,,,,,,,,,,,,5,4,39,6,,,,,,,,,,,,,,,,,,,,,,,,,,,,,,,,,,,,,,,,1121.6018053251319,None,,,1124.6174915703014,None,1.6529100529100529,0.7158697540871799,1124.6174915703014,None,,,,,,,1122.6009598230012,None,1122.7843179684132,1122.8010086892173,,,,,,,152,001,2024_Jan_19_1301,SpeechDraft1Carolyn_lessNoise_PlusLocalization,2021.2.3,59.94613153543705,
,,,,,,,,farLeft,-19.1,5,ch1Sound_localizationTask.wav,-19.1,"(667, 878)","(-293,-202)",-285,-338,,,,,,,,,,,,,5,5,40,0,,,,,,,,,,,,,,,,,,,,,,,,,,,,,,,,,,,,,,,,1125.3352586221881,None,,,1128.3507160330191,None,1.3486772486772487,0.6313990731723607,1128.3507160330191,None,,,,,,,1126.3343508332036,None,1126.5177482902072,1126.534261587076,,,,,,,152,001,2024_Jan_19_1301,SpeechDraft1Carolyn_lessNoise_PlusLocalization,2021.2.3,59.94613153543705,
,,,,,,,,midRight,13.0,3,ch1Sound_localizationTask.wav,13.0,"(1142, 878)","(182, -202)",190,-338,,,,,,,,,,,,,5,6,41,5,,,,,,,,,,,,,,,,,,,,,,,,,,,,,,,,,,,,,,,,1128.9848155402578,None,,,1132.0005095312372,None,1.6031746031746033,1.2327261012978852,1132.0005095312372,None,,,,,,,1129.984262199141,None,1130.1675892500207,1130.1843495019712,,,,,,,152,001,2024_Jan_19_1301,SpeechDraft1Carolyn_lessNoise_PlusLocalization,2021.2.3,59.94613153543705,
,,,,,,,,nearRight,6.5,0,ch1Sound_localizationTask.wav,6.5,"(1047, 878)","(87, -202)",95,-338,,,,,,,,,,,,,6,0,42,4,,,,,,,,,,,,,,,,,,,,,,,,,,,,,,,,,,,,,,,,1133.2511508162133,None,,,1136.2673687632196,None,1.5587301587301587,0.701770287938416,1136.2673687632196,None,,,,,,,1134.2509726630524,None,1134.434340768028,1134.4509505149908,,,,,,,152,001,2024_Jan_19_1301,SpeechDraft1Carolyn_lessNoise_PlusLocalization,2021.2.3,59.94613153543705,
,,,,,,,,nearRight,6.5,0,ch1Sound_localizationTask.wav,6.5,"(1047, 878)","(87, -202)",95,-338,,,,,,,,,,,,,6,1,43,4,,,,,,,,,,,,,,,,,,,,,,,,,,,,,,,,,,,,,,,,1136.9844519402832,None,,,1140.000960605219,None,1.5555555555555556,0.4788530608639121,1140.000960605219,None,,,,,,,1137.9842758383602,None,1138.1677033500746,1138.1843195380643,,,,,,,152,001,2024_Jan_19_1301,SpeechDraft1Carolyn_lessNoise_PlusLocalization,2021.2.3,59.94613153543705,
,,,,,,,,center,0.0,6,ch1Sound_localizationTask.wav,0.0,"(952, 878)","(-8,-202)",0,-338,,,,,,,,,,,,,6,2,44,3,,,,,,,,,,,,,,,,,,,,,,,,,,,,,,,,,,,,,,,,1140.4853925532661,None,,,1143.5174173293635,None,1.502116402116402,0.7668255008757114,1143.5174173293635,None,,,,,,,1141.5009076450951,None,1141.684328605421,1141.7009674161673,,,,,,,152,001,2024_Jan_19_1301,SpeechDraft1Carolyn_lessNoise_PlusLocalization,2021.2.3,59.94613153543705,
,,,,,,,,nearLeft,-6.5,1,ch1Sound_localizationTask.wav,-6.5,"(857, 878)","(-103,-202)",-95,-338,,,,,,,,,,,,,6,3,45,2,,,,,,,,,,,,,,,,,,,,,,,,,,,,,,,,,,,,,,,,1144.301036015153,None,,,1147.317442282103,None,1.471957671957672,0.7324840216897428,1147.317442282103,None,,,,,,,1145.301005317364,None,1145.48428866826,1145.5011093053035,,,,,,,152,001,2024_Jan_19_1301,SpeechDraft1Carolyn_lessNoise_PlusLocalization,2021.2.3,59.94613153543705,
,,,,,,,,center,0.0,6,ch1Sound_localizationTask.wav,0.0,"(952, 878)","(-8,-202)",0,-338,,,,,,,,,,,,,6,4,46,3,,,,,,,,,,,,,,,,,,,,,,,,,,,,,,,,,,,,,,,,1148.05164431734,None,,,1151.0673036649823,None,1.505820105820106,0.5496340640820563,1151.0673036649823,None,,,,,,,1149.0509643792175,None,1149.2343385834247,1149.2510473723523,,,,,,,152,001,2024_Jan_19_1301,SpeechDraft1Carolyn_lessNoise_PlusLocalization,2021.2.3,59.94613153543705,
,,,,,,,,midLeft,-13.0,2,ch1Sound_localizationTask.wav,-13.0,"(762, 878)","(-198,-202)",-190,-338,,,,,,,,,,,,,6,5,47,1,,,,,,,,,,,,,,,,,,,,,,,,,,,,,,,,,,,,,,,,1151.6188047323376,None,,,1154.6506493380293,None,1.4291005291005292,0.7991743022575974,1154.6506493380293,None,,,,,,,1152.6343961670063,None,1152.8177354340442,1152.8343975380994,,,,,,,152,001,2024_Jan_19_1301,SpeechDraft1Carolyn_lessNoise_PlusLocalization,2021.2.3,59.94613153543705,
,,,,,,,,nearRight,6.5,0,ch1Sound_localizationTask.wav,6.5,"(1047, 878)","(87, -202)",95,-338,,,,,,,,,,,,,6,6,48,4,,,,,,,,,,,,,,,,,,,,,,,,,,,,,,,,,,,,,,,,1155.4525820342824,None,,,1158.484051800333,None,1.5402116402116404,0.832965805195272,1158.484051800333,None,,,,,,,1156.4677164792083,None,1156.6510970983654,1156.6677217823453,,,,,,,152,001,2024_Jan_19_1301,SpeechDraft1Carolyn_lessNoise_PlusLocalization,2021.2.3,59.94613153543705,
,,,,,,,,farLeft,-19.1,5,ch1Sound_localizationTask.wav,-19.1,"(667, 878)","(-293,-202)",-285,-338,,,,,,,,,,,,,7,0,49,0,,,,,,,,,,,,,,,,,,,,,,,,,,,,,,,,,,,,,,,,1159.3186844051816,None,,,1162.3340566791594,None,1.356084656084656,1.0995226306840777,1162.3340566791594,None,,,,,,,1160.3176606553607,None,1160.5010197809897,1160.5175938173197,,,,,,,152,001,2024_Jan_19_1301,SpeechDraft1Carolyn_lessNoise_PlusLocalization,2021.2.3,59.94613153543705,
,,,,,,,,farRight,19.1,4,ch1Sound_localizationTask.wav,19.1,"(1237, 878)","(277,-202)",285,-338,,,,,,,,,,,,,7,1,50,6,,,,,,,,,,,,,,,,,,,,,,,,,,,,,,,,,,,,,,,,1163.435215902049,None,,,1166.450683599338,None,1.6539682539682539,0.582423010841012,1166.450683599338,None,,,,,,,1164.4345953362063,None,1164.6178617160767,1164.6343795801513,,,,,,,152,001,2024_Jan_19_1301,SpeechDraft1Carolyn_lessNoise_PlusLocalization,2021.2.3,59.94613153543705,
,,,,,,,,nearRight,6.5,0,ch1Sound_localizationTask.wav,6.5,"(1047, 878)","(87, -202)",95,-338,,,,,,,,,,,,,7,2,51,4,,,,,,,,,,,,,,,,,,,,,,,,,,,,,,,,,,,,,,,,1167.0349937584251,None,,,1170.0509780063294,None,1.5502645502645502,0.7622580202296376,1170.0509780063294,None,,,,,,,1168.0343590513803,None,1168.217717509251,1168.2343180743046,,,,,,,152,001,2024_Jan_19_1301,SpeechDraft1Carolyn_lessNoise_PlusLocalization,2021.2.3,59.94613153543705,
,,,,,,,,farLeft,-19.1,5,ch1Sound_localizationTask.wav,-19.1,"(667, 878)","(-293,-202)",-285,-338,,,,,,,,,,,,,7,3,52,0,,,,,,,,,,,,,,,,,,,,,,,,,,,,,,,,,,,,,,,,1170.8189685330726,None,,,1173.850717838388,None,1.3497354497354497,0.6662566200830042,1173.850717838388,None,,,,,,,1171.8342883051373,None,1172.0177147923969,1172.034265990369,,,,,,,152,001,2024_Jan_19_1301,SpeechDraft1Carolyn_lessNoise_PlusLocalization,2021.2.3,59.94613153543705,
,,,,,,,,farRight,19.1,4,ch1Sound_localizationTask.wav,19.1,"(1237, 878)","(277,-202)",285,-338,,,,,,,,,,,,,7,4,53,6,,,,,,,,,,,,,,,,,,,,,,,,,,,,,,,,,,,,,,,,1174.5187122751959,None,,,1177.5507379542105,None,1.664021164021164,0.8163983230479062,1177.5507379542105,None,,,,,,,1175.5342745371163,None,1175.7177874119952,1175.7343765543774,,,,,,,152,001,2024_Jan_19_1301,SpeechDraft1Carolyn_lessNoise_PlusLocalization,2021.2.3,59.94613153543705,
,,,,,,,,farLeft,-19.1,5,ch1Sound_localizationTask.wav,-19.1,"(667, 878)","(-293,-202)",-285,-338,,,,,,,,,,,,,7,5,54,0,,,,,,,,,,,,,,,,,,,,,,,,,,,,,,,,,,,,,,,,1178.3686458081938,None,,,1181.4008107832633,None,1.337037037037037,0.6325528468005359,1181.4008107832633,None,,,,,,,1179.3843377130106,None,1179.567803023383,1179.584394166246,,,,,,,152,001,2024_Jan_19_1301,SpeechDraft1Carolyn_lessNoise_PlusLocalization,2021.2.3,59.94613153543705,
,,,,,,,,farLeft,-19.1,5,ch1Sound_localizationTask.wav,-19.1,"(667, 878)","(-293,-202)",-285,-338,,,,,,,,,,,,,7,6,55,0,,,,,,,,,,,,,,,,,,,,,,,,,,,,,,,,,,,,,,,,1182.0358546939678,None,,,1185.0674236523919,None,1.3470899470899471,1.6513490676879883,1185.0674236523919,None,,,,,,,1183.051027006004,None,1183.234413552098,1183.250986434985,,,,,,,152,001,2024_Jan_19_1301,SpeechDraft1Carolyn_lessNoise_PlusLocalization,2021.2.3,59.94613153543705,
,,,,,,,,,,,,,,,,,,,,,,,,,,,,,,,,,,,,,,,,,,,,,,,,,,,,,,,,,,,,,,,,,,,,,,,,,,,,,,,,,,,,,,,,,,,,1186.7344231461175,None,c,393.426498782821,1187.7177532501519,None,152,001,2024_Jan_19_1301,SpeechDraft1Carolyn_lessNoise_PlusLocalization,2021.2.3,59.94613153543705,
