Audio_Only_Files,Video_Files,Original_Word_List,noiseLevelCode,conditionCodes,noiseLevelFile1,noiseLevelFile2,InstrTextVar,targetSpeakerName,targetSpeakerEccen,targetSpkrChannel,targetSpkrSound,targetVisualDegrees,visStimLoc,visStimLoc2,visStimW,visStimH,practiceTrials.thisRepN,practiceTrials.thisTrialN,practiceTrials.thisN,practiceTrials.thisIndex,trials.thisRepN,trials.thisTrialN,trials.thisN,trials.thisIndex,audLocalLoop.thisRepN,audLocalLoop.thisTrialN,audLocalLoop.thisN,audLocalLoop.thisIndex,visualLocalLoop.thisRepN,visualLocalLoop.thisTrialN,visualLocalLoop.thisN,visualLocalLoop.thisIndex,letsGoAlready.keys,letsGoAlready.rt,letsGoAlready.started,letsGoAlready.stopped,text_2.started,text_2.stopped,text_3.started,text_3.stopped,key_resp_2.keys,key_resp_2.rt,key_resp_2.started,key_resp_2.stopped,text_5.started,text_5.stopped,fixCross.started,fixCross.stopped,fixCross2.started,fixCross2.stopped,answerPrompt.started,answerPrompt.stopped,getAnswer.text,getAnswer.started,getAnswer.stopped,goToNext.keys,goToNext.rt,goToNext.started,goToNext.stopped,stretchBreakTxrt.started,stretchBreakTxrt.stopped,key_resp_3.keys,key_resp_3.rt,key_resp_3.started,key_resp_3.stopped,letsGoLocal.keys,letsGoLocal.rt,letsGoLocal.started,letsGoLocal.stopped,text_4.started,text_4.stopped,prepFixTxt.started,prepFixTxt.stopped,prepFixTxt_2.started,prepFixTxt_2.stopped,respPromptLocal.started,respPromptLocal.stopped,slider.response,slider.rt,slider.started,slider.stopped,letsGoLocal_2.keys,letsGoLocal_2.rt,letsGoLocal_2.started,letsGoLocal_2.stopped,text_7.started,text_7.stopped,prepFixTxt_3.started,prepFixTxt_3.stopped,grating.started,grating.stopped,exitTxt.started,exitTxt.stopped,key_resp.keys,key_resp.rt,key_resp.started,key_resp.stopped,participant,session,date,expName,psychopyVersion,frameRate,
,,,,,,,,,,,,,,,,,,,,,,,,,,,,,,,,,space,46.552326899021864,169.3866276969202,None,,,,,,,,,,,,,,,,,,,,,,,,,,,,,,,,,,,,,,,,,,,,,,,,,,,,,,,,,,,,,,155,001,2024_Jan_24_1350,SpeechDraft1Carolyn_lessNoise_PlusLocalization,2021.2.3,59.90702158599628,
,,,,,,,,,,,,,,,,,,,,,,,,,,,,,,,,,,,,,169.3866276969202,None,216.0695883212611,None,space,11.477734095882624,216.25318719586357,None,,,,,,,,,,,,,,,,,,,,,,,,,,,,,,,,,,,,,,,,,,,,,,,,,,,,,,155,001,2024_Jan_24_1350,SpeechDraft1Carolyn_lessNoise_PlusLocalization,2021.2.3,59.90702158599628,
ash.wav,ash.mpg,ash,1,A,Pink_Noise_1_1.wav,Pink_Noise_1_2.wav,"This is an example of an

AUDIO trial",,,,,,,,,,0,0,0,0,,,,,,,,,,,,,,,,,,,,,,,,,227.78613306116313,None,228.76979476585984,None,232.0196213820018,None,233.40311208786443,None,ash,233.40311208786443,None,return,7.004379665013403,233.48649186221883,None,,,,,,,,,,,,,,,,,,,,,,,,,,,,,,,,,,,,,,,155,001,2024_Jan_24_1350,SpeechDraft1Carolyn_lessNoise_PlusLocalization,2021.2.3,59.90702158599628,
ash.wav,ash.mpg,ash,1,AV,Pink_Noise_1_1.wav,Pink_Noise_1_2.wav,"This is an example of an

AUDIO + VIDEO  trial",,,,,,,,,,0,1,1,1,,,,,,,,,,,,,,,,,,,,,,,,,240.53613316686824,None,241.53662239806727,None,243.01958612911403,None,244.4031481752172,None,ash,244.4031481752172,None,return,2.6604212070815265,244.48642802704126,None,,,,,,,,,,,,,,,,,,,,,,,,,,,,,,,,,,,,,,,155,001,2024_Jan_24_1350,SpeechDraft1Carolyn_lessNoise_PlusLocalization,2021.2.3,59.90702158599628,
,,,,,,,,,,,,,,,,,,,,,,,,,,,,,,,,,,,,,,,,,,,,,,,,,,,,,,,,,,,,247.18616362987086,None,space,14.241038222797215,247.3698590262793,None,,,,,,,,,,,,,,,,,,,,,,,,,,,,,,,,,155,001,2024_Jan_24_1350,SpeechDraft1Carolyn_lessNoise_PlusLocalization,2021.2.3,59.90702158599628,
cleft.wav,cleft.mpg,cleft,2,AV,Pink_Noise_2_1.wav,Pink_Noise_2_2.wav,,,,,,,,,,,,,,,0,0,0,100,,,,,,,,,,,,,,,,,,,,,,,261.66960539715365,None,263.1531010530889,None,264.53644372615963,None,cleft,264.53644372615963,None,return,3.582963163033128,264.6199905751273,None,,,,,,,,,,,,,,,,,,,,,,,,,,,,,,,,,,,,,,,155,001,2024_Jan_24_1350,SpeechDraft1Carolyn_lessNoise_PlusLocalization,2021.2.3,59.90702158599628,
snake.wav,snake.mpg,snake,3,AV,Pink_Noise_3_1.wav,Pink_Noise_3_2.wav,,,,,,,,,,,,,,,0,1,1,60,,,,,,,,,,,,,,,,,,,,,,,268.2199299670756,None,269.7195416758768,None,271.1031524562277,None,"snake
",271.1031524562277,None,return,2.1523605789989233,271.18650279799476,None,,,,,,,,,,,,,,,,,,,,,,,,,,,,,,,,,,,,,,,155,001,2024_Jan_24_1350,SpeechDraft1Carolyn_lessNoise_PlusLocalization,2021.2.3,59.90702158599628,
bench.wav,bench.mpg,bench,4,AV,Pink_Noise_4_1.wav,Pink_Noise_4_2.wav,,,,,,,,,,,,,,,0,2,2,111,,,,,,,,,,,,,,,,,,,,,,,273.3700638762675,None,274.86957172397524,None,276.25316574191675,None,bench,276.25316574191675,None,return,2.33840397791937,276.33652604185045,None,,,,,,,,,,,,,,,,,,,,,,,,,,,,,,,,,,,,,,,155,001,2024_Jan_24_1350,SpeechDraft1Carolyn_lessNoise_PlusLocalization,2021.2.3,59.90702158599628,
nine.wav,nine.mpg,nine,4,AV,Pink_Noise_4_1.wav,Pink_Noise_4_2.wav,,,,,,,,,,,,,,,0,3,3,98,,,,,,,,,,,,,,,,,,,,,,,278.7034803852439,None,280.20309285307303,None,281.58671323908493,None,nine,281.58671323908493,None,return,2.5807707300409675,281.6700904951431,None,,,,,,,,,,,,,,,,,,,,,,,,,,,,,,,,,,,,,,,155,001,2024_Jan_24_1350,SpeechDraft1Carolyn_lessNoise_PlusLocalization,2021.2.3,59.90702158599628,
gain.wav,gain.mpg,gain,2,AV,Pink_Noise_2_1.wav,Pink_Noise_2_2.wav,,,,,,,,,,,,,,,0,4,4,94,,,,,,,,,,,,,,,,,,,,,,,284.269998120144,None,285.76959416503087,None,287.1532720788382,None,gay,287.1532720788382,None,return,6.3102558720856905,287.23659842507914,None,,,,,,,,,,,,,,,,,,,,,,,,,,,,,,,,,,,,,,,155,001,2024_Jan_24_1350,SpeechDraft1Carolyn_lessNoise_PlusLocalization,2021.2.3,59.90702158599628,
cash.wav,cash.mpg,cash,3,AV,Pink_Noise_3_1.wav,Pink_Noise_3_2.wav,,,,,,,,,,,,,,,0,5,5,71,,,,,,,,,,,,,,,,,,,,,,,293.5701396930963,None,295.0533730350435,None,296.43673512293026,None,"cash
",296.43673512293026,None,return,3.4348433041013777,296.52002450916916,None,,,,,,,,,,,,,,,,,,,,,,,,,,,,,,,,,,,,,,,155,001,2024_Jan_24_1350,SpeechDraft1Carolyn_lessNoise_PlusLocalization,2021.2.3,59.90702158599628,
fate.wav,fate.mpg,fate,1,AV,Pink_Noise_1_1.wav,Pink_Noise_1_2.wav,,,,,,,,,,,,,,,0,6,6,97,,,,,,,,,,,,,,,,,,,,,,,299.98675180226564,None,301.48645103815943,None,302.8698852020316,None,"fate
",302.8698852020316,None,return,2.433558326214552,302.9532773909159,None,,,,,,,,,,,,,,,,,,,,,,,,,,,,,,,,,,,,,,,155,001,2024_Jan_24_1350,SpeechDraft1Carolyn_lessNoise_PlusLocalization,2021.2.3,59.90702158599628,
firm.wav,firm.mpg,firm,4,AV,Pink_Noise_4_1.wav,Pink_Noise_4_2.wav,,,,,,,,,,,,,,,0,7,7,112,,,,,,,,,,,,,,,,,,,,,,,305.41995383100584,None,306.9196846932173,None,308.3032662682235,None,from,308.3032662682235,None,return,7.1040608999319375,308.3868096889928,None,,,,,,,,,,,,,,,,,,,,,,,,,,,,,,,,,,,,,,,155,001,2024_Jan_24_1350,SpeechDraft1Carolyn_lessNoise_PlusLocalization,2021.2.3,59.90702158599628,
coach.wav,coach.mpg,coach,2,A,Pink_Noise_2_1.wav,Pink_Noise_2_2.wav,,,,,,,,,,,,,,,0,8,8,10,,,,,,,,,,,,,,,,,,,,,,,315.5201793150045,None,317.0195987368934,None,318.4033280890435,None,coach,318.4033280890435,None,return,2.388316303025931,318.4866384458728,None,,,,,,,,,,,,,,,,,,,,,,,,,,,,,,,,,,,,,,,155,001,2024_Jan_24_1350,SpeechDraft1Carolyn_lessNoise_PlusLocalization,2021.2.3,59.90702158599628,
ham.wav,ham.mpg,ham,1,A,Pink_Noise_1_1.wav,Pink_Noise_1_2.wav,,,,,,,,,,,,,,,0,9,9,28,,,,,,,,,,,,,,,,,,,,,,,320.9032537592575,None,322.3878409061581,None,323.78659227117896,None,hand,323.78659227117896,None,return,5.980901623144746,323.8699633721262,None,,,,,,,,,,,,,,,,,,,,,,,,,,,,,,,,,,,,,,,155,001,2024_Jan_24_1350,SpeechDraft1Carolyn_lessNoise_PlusLocalization,2021.2.3,59.90702158599628,
bunch.wav,bunch.mpg,bunch,4,AV,Pink_Noise_4_1.wav,Pink_Noise_4_2.wav,,,,,,,,,,,,,,,0,10,10,108,,,,,,,,,,,,,,,,,,,,,,,329.87009887304157,None,331.3698682188988,None,332.7533243969083,None,bunch,332.7533243969083,None,return,4.246109258849174,332.83679411699995,None,,,,,,,,,,,,,,,,,,,,,,,,,,,,,,,,,,,,,,,155,001,2024_Jan_24_1350,SpeechDraft1Carolyn_lessNoise_PlusLocalization,2021.2.3,59.90702158599628,
edge.wav,edge.mpg,edge,4,AV,Pink_Noise_4_1.wav,Pink_Noise_4_2.wav,,,,,,,,,,,,,,,0,11,11,76,,,,,,,,,,,,,,,,,,,,,,,337.10338626708835,None,338.5881261881441,None,339.9701290312223,None,edge,339.9701290312223,None,return,1.8215276775881648,340.0534299002029,None,,,,,,,,,,,,,,,,,,,,,,,,,,,,,,,,,,,,,,,155,001,2024_Jan_24_1350,SpeechDraft1Carolyn_lessNoise_PlusLocalization,2021.2.3,59.90702158599628,
thorn.wav,thorn.mpg,thorn,3,A,Pink_Noise_3_1.wav,Pink_Noise_3_2.wav,,,,,,,,,,,,,,,0,12,12,25,,,,,,,,,,,,,,,,,,,,,,,341.90349223511294,None,343.402976681944,None,344.7866753069684,None,sword,344.7866753069684,None,return,4.0129993562586606,344.8699135771021,None,,,,,,,,,,,,,,,,,,,,,,,,,,,,,,,,,,,,,,,155,001,2024_Jan_24_1350,SpeechDraft1Carolyn_lessNoise_PlusLocalization,2021.2.3,59.90702158599628,
bind.wav,bind.mpg,bind,2,AV,Pink_Noise_2_1.wav,Pink_Noise_2_2.wav,,,,,,,,,,,,,,,0,13,13,61,,,,,,,,,,,,,,,,,,,,,,,348.90339375520125,None,350.4030483579263,None,351.78652845788747,None,bind,351.78652845788747,None,return,4.588894054759294,351.8700650460087,None,,,,,,,,,,,,,,,,,,,,,,,,,,,,,,,,,,,,,,,155,001,2024_Jan_24_1350,SpeechDraft1Carolyn_lessNoise_PlusLocalization,2021.2.3,59.90702158599628,
bat.wav,bat.mpg,bat,6,AV,Pink_Noise_6_1.wav,Pink_Noise_6_2.wav,,,,,,,,,,,,,,,0,14,14,96,,,,,,,,,,,,,,,,,,,,,,,356.4868406392634,None,357.98641982022673,None,359.37040481716394,None,mask,359.37040481716394,None,return,3.709269780665636,359.45358186308295,None,,,,,,,,,,,,,,,,,,,,,,,,,,,,,,,,,,,,,,,155,001,2024_Jan_24_1350,SpeechDraft1Carolyn_lessNoise_PlusLocalization,2021.2.3,59.90702158599628,
beige.wav,beige.mpg,beige,1,AV,Pink_Noise_1_1.wav,Pink_Noise_1_2.wav,,,,,,,,,,,,,,,0,15,15,68,,,,,,,,,,,,,,,,,,,,,,,363.1869259318337,None,364.6863393532112,None,366.0700229848735,None,"beige
",366.0700229848735,None,return,3.6014411952346563,366.15342652099207,None,,,,,,,,,,,,,,,,,,,,,,,,,,,,,,,,,,,,,,,155,001,2024_Jan_24_1350,SpeechDraft1Carolyn_lessNoise_PlusLocalization,2021.2.3,59.90702158599628,
frog.wav,frog.mpg,frog,3,A,Pink_Noise_3_1.wav,Pink_Noise_3_2.wav,,,,,,,,,,,,,,,0,16,16,58,,,,,,,,,,,,,,,,,,,,,,,369.7866668412462,None,371.2863750299439,None,372.6702043879777,None,frog,372.6702043879777,None,return,3.737284599803388,372.7535711750388,None,,,,,,,,,,,,,,,,,,,,,,,,,,,,,,,,,,,,,,,155,001,2024_Jan_24_1350,SpeechDraft1Carolyn_lessNoise_PlusLocalization,2021.2.3,59.90702158599628,
druid.wav,druid.mpg,druid,1,A,Pink_Noise_1_1.wav,Pink_Noise_1_2.wav,,,,,,,,,,,,,,,0,17,17,9,,,,,,,,,,,,,,,,,,,,,,,376.52024780912325,None,378.01969273900613,None,379.40343652805313,None,jewid,379.40343652805313,None,return,15.612188500817865,379.486670052167,None,,,,,,,,,,,,,,,,,,,,,,,,,,,,,,,,,,,,,,,155,001,2024_Jan_24_1350,SpeechDraft1Carolyn_lessNoise_PlusLocalization,2021.2.3,59.90702158599628,
flash.wav,flash.mpg,flash,4,A,Pink_Noise_4_1.wav,Pink_Noise_4_2.wav,,,,,,,,,,,,,,,0,18,18,3,,,,,,,,,,,,,,,,,,,,,,,395.12006057985127,None,396.6197572411038,None,398.0035772859119,None,"dash
",398.0035772859119,None,return,6.668066448997706,398.08680090494454,None,,,,,,,,,,,,,,,,,,,,,,,,,,,,,,,,,,,,,,,155,001,2024_Jan_24_1350,SpeechDraft1Carolyn_lessNoise_PlusLocalization,2021.2.3,59.90702158599628,
boss.wav,boss.mpg,boss,2,AV,Pink_Noise_2_1.wav,Pink_Noise_2_2.wav,,,,,,,,,,,,,,,0,19,19,63,,,,,,,,,,,,,,,,,,,,,,,404.78669568290934,None,406.28644629893824,None,407.67018123110756,None,boss,407.67018123110756,None,return,1.67347676679492,407.7534813270904,None,,,,,,,,,,,,,,,,,,,,,,,,,,,,,,,,,,,,,,,155,001,2024_Jan_24_1350,SpeechDraft1Carolyn_lessNoise_PlusLocalization,2021.2.3,59.90702158599628,
cloak.wav,cloak.mpg,cloak,1,A,Pink_Noise_1_1.wav,Pink_Noise_1_2.wav,,,,,,,,,,,,,,,0,20,20,19,,,,,,,,,,,,,,,,,,,,,,,409.4533896520734,None,410.9531623679213,None,412.33677790826187,None,cloak,412.33677790826187,None,return,8.678825518582016,412.4200381562114,None,,,,,,,,,,,,,,,,,,,,,,,,,,,,,,,,,,,,,,,155,001,2024_Jan_24_1350,SpeechDraft1Carolyn_lessNoise_PlusLocalization,2021.2.3,59.90702158599628,
broil.wav,broil.mpg,broil,1,AV,Pink_Noise_1_1.wav,Pink_Noise_1_2.wav,,,,,,,,,,,,,,,0,21,21,95,,,,,,,,,,,,,,,,,,,,,,,421.12018754100427,None,422.6198059152812,None,424.0033435141668,None,broil,424.0033435141668,None,return,4.1081095561385155,424.0867884820327,None,,,,,,,,,,,,,,,,,,,,,,,,,,,,,,,,,,,,,,,155,001,2024_Jan_24_1350,SpeechDraft1Carolyn_lessNoise_PlusLocalization,2021.2.3,59.90702158599628,
fan.wav,fan.mpg,fan,6,AV,Pink_Noise_6_1.wav,Pink_Noise_6_2.wav,,,,,,,,,,,,,,,0,22,22,78,,,,,,,,,,,,,,,,,,,,,,,428.22016508318484,None,429.719786379952,None,431.10338590620086,None,fan,431.10338590620086,None,return,1.1440171478316188,431.1868706862442,None,,,,,,,,,,,,,,,,,,,,,,,,,,,,,,,,,,,,,,,155,001,2024_Jan_24_1350,SpeechDraft1Carolyn_lessNoise_PlusLocalization,2021.2.3,59.90702158599628,
castle.wav,castle.mpg,castle,4,A,Pink_Noise_4_1.wav,Pink_Noise_4_2.wav,,,,,,,,,,,,,,,0,23,23,6,,,,,,,,,,,,,,,,,,,,,,,432.3534577200189,None,433.8531448501162,None,435.2367250751704,None,"castle
",435.2367250751704,None,return,8.834736669901758,435.32011903403327,None,,,,,,,,,,,,,,,,,,,,,,,,,,,,,,,,,,,,,,,155,001,2024_Jan_24_1350,SpeechDraft1Carolyn_lessNoise_PlusLocalization,2021.2.3,59.90702158599628,
tear.wav,tear.mpg,tear,1,AV,Pink_Noise_1_1.wav,Pink_Noise_1_2.wav,,,,,,,,,,,,,,,0,24,24,115,,,,,,,,,,,,,,,,,,,,,,,444.186878527049,None,445.68639260483906,None,447.07032389892265,None,tear,447.07032389892265,None,return,5.641058566980064,447.1537853879854,None,,,,,,,,,,,,,,,,,,,,,,,,,,,,,,,,,,,,,,,155,001,2024_Jan_24_1350,SpeechDraft1Carolyn_lessNoise_PlusLocalization,2021.2.3,59.90702158599628,
crown.wav,crown.mpg,crown,2,A,Pink_Noise_2_1.wav,Pink_Noise_2_2.wav,,,,,,,,,,,,,,,0,25,25,43,,,,,,,,,,,,,,,,,,,,,,,452.8201238941401,None,454.319808519911,None,455.7034343131818,None,"crowd
",455.7034343131818,None,return,2.9520603409036994,455.7868009102531,None,,,,,,,,,,,,,,,,,,,,,,,,,,,,,,,,,,,,,,,155,001,2024_Jan_24_1350,SpeechDraft1Carolyn_lessNoise_PlusLocalization,2021.2.3,59.90702158599628,
jeep.wav,jeep.mpg,jeep,3,AV,Pink_Noise_3_1.wav,Pink_Noise_3_2.wav,,,,,,,,,,,,,,,0,26,26,80,,,,,,,,,,,,,,,,,,,,,,,458.77012994885445,None,460.2698747641407,None,461.65341479191557,None,jeep,461.65341479191557,None,return,2.4980284427292645,461.73684190493077,None,,,,,,,,,,,,,,,,,,,,,,,,,,,,,,,,,,,,,,,155,001,2024_Jan_24_1350,SpeechDraft1Carolyn_lessNoise_PlusLocalization,2021.2.3,59.90702158599628,
cramp.wav,cramp.mpg,cramp,5,A,Pink_Noise_5_1.wav,Pink_Noise_5_2.wav,,,,,,,,,,,,,,,0,27,27,12,,,,,,,,,,,,,,,,,,,,,,,464.25357405422255,None,465.75322080915794,None,467.1370597942732,None,sand,467.1370597942732,None,return,2.7907706890255213,467.2202275362797,None,,,,,,,,,,,,,,,,,,,,,,,,,,,,,,,,,,,,,,,155,001,2024_Jan_24_1350,SpeechDraft1Carolyn_lessNoise_PlusLocalization,2021.2.3,59.90702158599628,
axe.wav,axe.mpg,axe,2,A,Pink_Noise_2_1.wav,Pink_Noise_2_2.wav,,,,,,,,,,,,,,,0,28,28,57,,,,,,,,,,,,,,,,,,,,,,,470.03702468797565,None,471.53660347219557,None,472.92036228021607,None,"axe
",472.92036228021607,None,return,3.9512007189914584,473.0036501819268,None,,,,,,,,,,,,,,,,,,,,,,,,,,,,,,,,,,,,,,,155,001,2024_Jan_24_1350,SpeechDraft1Carolyn_lessNoise_PlusLocalization,2021.2.3,59.90702158599628,
creep.wav,creep.mpg,creep,4,A,Pink_Noise_4_1.wav,Pink_Noise_4_2.wav,,,,,,,,,,,,,,,0,29,29,27,,,,,,,,,,,,,,,,,,,,,,,476.98695032903925,None,478.4865314690396,None,479.870363925118,None,fate,479.870363925118,None,return,3.793190292082727,479.95366087928414,None,,,,,,,,,,,,,,,,,,,,,,,,,,,,,,,,,,,,,,,155,001,2024_Jan_24_1350,SpeechDraft1Carolyn_lessNoise_PlusLocalization,2021.2.3,59.90702158599628,
eve.wav,eve.mpg,eve,6,A,Pink_Noise_6_1.wav,Pink_Noise_6_2.wav,,,,,,,,,,,,,,,0,30,30,54,,,,,,,,,,,,,,,,,,,,,,,483.7702558361925,None,485.2699490422383,None,486.65353174321353,None,snake,486.65353174321353,None,return,4.513902031350881,486.73695675004274,None,,,,,,,,,,,,,,,,,,,,,,,,,,,,,,,,,,,,,,,155,001,2024_Jan_24_1350,SpeechDraft1Carolyn_lessNoise_PlusLocalization,2021.2.3,59.90702158599628,
weep.wav,weep.mpg,weep,5,A,Pink_Noise_5_1.wav,Pink_Noise_5_2.wav,,,,,,,,,,,,,,,0,31,31,36,,,,,,,,,,,,,,,,,,,,,,,491.2702644872479,None,492.7698710039258,None,494.1534904949367,None,"root
",494.1534904949367,None,return,5.485988292843103,494.2368686660193,None,,,,,,,,,,,,,,,,,,,,,,,,,,,,,,,,,,,,,,,155,001,2024_Jan_24_1350,SpeechDraft1Carolyn_lessNoise_PlusLocalization,2021.2.3,59.90702158599628,
cease.wav,cease.mpg,cease,6,AV,Pink_Noise_6_1.wav,Pink_Noise_6_2.wav,,,,,,,,,,,,,,,0,32,32,72,,,,,,,,,,,,,,,,,,,,,,,499.75362379895523,None,501.2538240631111,None,502.63688548794016,None,seat,502.63688548794016,None,return,2.842585040256381,502.720238534268,None,,,,,,,,,,,,,,,,,,,,,,,,,,,,,,,,,,,,,,,155,001,2024_Jan_24_1350,SpeechDraft1Carolyn_lessNoise_PlusLocalization,2021.2.3,59.90702158599628,
club.wav,club.mpg,club,5,AV,Pink_Noise_5_1.wav,Pink_Noise_5_2.wav,,,,,,,,,,,,,,,0,33,33,62,,,,,,,,,,,,,,,,,,,,,,,505.5869186921045,None,507.0866437922232,None,508.47032307228073,None,club,508.47032307228073,None,return,4.793187867850065,508.55367023218423,None,,,,,,,,,,,,,,,,,,,,,,,,,,,,,,,,,,,,,,,155,001,2024_Jan_24_1350,SpeechDraft1Carolyn_lessNoise_PlusLocalization,2021.2.3,59.90702158599628,
curse.wav,curse.mpg,curse,2,A,Pink_Noise_2_1.wav,Pink_Noise_2_2.wav,,,,,,,,,,,,,,,0,34,34,30,,,,,,,,,,,,,,,,,,,,,,,513.3704031230882,None,514.8700759122148,None,516.2536507891491,None,"curse
",516.2536507891491,None,return,3.234030440915376,516.3368467381224,None,,,,,,,,,,,,,,,,,,,,,,,,,,,,,,,,,,,,,,,155,001,2024_Jan_24_1350,SpeechDraft1Carolyn_lessNoise_PlusLocalization,2021.2.3,59.90702158599628,
fit.wav,fit.mpg,fit,1,A,Pink_Noise_1_1.wav,Pink_Noise_1_2.wav,,,,,,,,,,,,,,,0,35,35,14,,,,,,,,,,,,,,,,,,,,,,,519.6037279372104,None,521.1032392010093,None,522.4871086678468,None,fit,522.4871086678468,None,return,3.0805945969186723,522.5702988961712,None,,,,,,,,,,,,,,,,,,,,,,,,,,,,,,,,,,,,,,,155,001,2024_Jan_24_1350,SpeechDraft1Carolyn_lessNoise_PlusLocalization,2021.2.3,59.90702158599628,
sake.wav,sake.mpg,sake,2,AV,Pink_Noise_2_1.wav,Pink_Noise_2_2.wav,,,,,,,,,,,,,,,0,36,36,73,,,,,,,,,,,,,,,,,,,,,,,525.6703804149292,None,527.1699880058877,None,528.5534503161907,None,snake,528.5534503161907,None,return,2.797947117127478,528.6369223902002,None,,,,,,,,,,,,,,,,,,,,,,,,,,,,,,,,,,,,,,,155,001,2024_Jan_24_1350,SpeechDraft1Carolyn_lessNoise_PlusLocalization,2021.2.3,59.90702158599628,
wild.wav,wild.mpg,wild,3,A,Pink_Noise_3_1.wav,Pink_Noise_3_2.wav,,,,,,,,,,,,,,,0,37,37,22,,,,,,,,,,,,,,,,,,,,,,,531.453664585948,None,532.9532700162381,None,534.3369669662789,None,wild,534.3369669662789,None,return,6.990149389021099,534.420880545862,None,,,,,,,,,,,,,,,,,,,,,,,,,,,,,,,,,,,,,,,155,001,2024_Jan_24_1350,SpeechDraft1Carolyn_lessNoise_PlusLocalization,2021.2.3,59.90702158599628,
grief.wav,grief.mpg,grief,5,A,Pink_Noise_5_1.wav,Pink_Noise_5_2.wav,,,,,,,,,,,,,,,0,38,38,49,,,,,,,,,,,,,,,,,,,,,,,541.4371382961981,None,542.9366001482122,None,544.3202890818939,None,bridge,544.3202890818939,None,return,4.3993804468773305,544.4036031230353,None,,,,,,,,,,,,,,,,,,,,,,,,,,,,,,,,,,,,,,,155,001,2024_Jan_24_1350,SpeechDraft1Carolyn_lessNoise_PlusLocalization,2021.2.3,59.90702158599628,
pact.wav,pact.mpg,pact,4,A,Pink_Noise_4_1.wav,Pink_Noise_4_2.wav,,,,,,,,,,,,,,,0,39,39,34,,,,,,,,,,,,,,,,,,,,,,,548.8202916821465,None,550.3199208881706,None,551.7038111258298,None,"pact
",551.7038111258298,None,return,2.9837767840363085,551.7870900048874,None,,,,,,,,,,,,,,,,,,,,,,,,,,,,,,,,,,,,,,,155,001,2024_Jan_24_1350,SpeechDraft1Carolyn_lessNoise_PlusLocalization,2021.2.3,59.90702158599628,
friend.wav,friend.mpg,friend,6,A,Pink_Noise_6_1.wav,Pink_Noise_6_2.wav,,,,,,,,,,,,,,,0,40,40,45,,,,,,,,,,,,,,,,,,,,,,,554.8037298610434,None,556.3032472110353,None,557.6869825492613,None,strange,557.6869825492613,None,return,4.496557452715933,557.7703607459553,None,,,,,,,,,,,,,,,,,,,,,,,,,,,,,,,,,,,,,,,155,001,2024_Jan_24_1350,SpeechDraft1Carolyn_lessNoise_PlusLocalization,2021.2.3,59.90702158599628,
crack.wav,crack.mpg,crack,5,AV,Pink_Noise_5_1.wav,Pink_Noise_5_2.wav,,,,,,,,,,,,,,,0,41,41,87,,,,,,,,,,,,,,,,,,,,,,,562.287014698144,None,563.7866942528635,None,565.1703038560227,None,crack,565.1703038560227,None,return,1.8930467846803367,565.2538181981072,None,,,,,,,,,,,,,,,,,,,,,,,,,,,,,,,,,,,,,,,155,001,2024_Jan_24_1350,SpeechDraft1Carolyn_lessNoise_PlusLocalization,2021.2.3,59.90702158599628,
flaw.wav,flaw.mpg,flaw,3,AV,Pink_Noise_3_1.wav,Pink_Noise_3_2.wav,,,,,,,,,,,,,,,0,42,42,110,,,,,,,,,,,,,,,,,,,,,,,567.1707344632596,None,568.669962269254,None,570.0536418752745,None,raw,570.0536418752745,None,return,1.1618114681914449,570.1370579800569,None,,,,,,,,,,,,,,,,,,,,,,,,,,,,,,,,,,,,,,,155,001,2024_Jan_24_1350,SpeechDraft1Carolyn_lessNoise_PlusLocalization,2021.2.3,59.90702158599628,
dry.wav,dry.mpg,dry,6,AV,Pink_Noise_6_1.wav,Pink_Noise_6_2.wav,,,,,,,,,,,,,,,0,43,43,79,,,,,,,,,,,,,,,,,,,,,,,571.3204105799086,None,572.8198762931861,None,574.2036389852874,None,"dry
",574.2036389852874,None,return,3.019850516691804,574.2870137952268,None,,,,,,,,,,,,,,,,,,,,,,,,,,,,,,,,,,,,,,,155,001,2024_Jan_24_1350,SpeechDraft1Carolyn_lessNoise_PlusLocalization,2021.2.3,59.90702158599628,
flex.wav,flex.mpg,flex,3,A,Pink_Noise_3_1.wav,Pink_Noise_3_2.wav,,,,,,,,,,,,,,,0,44,44,55,,,,,,,,,,,,,,,,,,,,,,,577.3371530431323,None,578.8366167540662,None,580.2202194179408,None,flex,580.2202194179408,None,return,4.795183825306594,580.3036921299063,None,,,,,,,,,,,,,,,,,,,,,,,,,,,,,,,,,,,,,,,155,001,2024_Jan_24_1350,SpeechDraft1Carolyn_lessNoise_PlusLocalization,2021.2.3,59.90702158599628,
badge.wav,badge.mpg,badge,4,A,Pink_Noise_4_1.wav,Pink_Noise_4_2.wav,,,,,,,,,,,,,,,0,45,45,44,,,,,,,,,,,,,,,,,,,,,,,585.120487513952,None,586.6205296311527,None,588.0036438340321,None,badge,588.0036438340321,None,return,3.9799271151423454,588.0869698738679,None,,,,,,,,,,,,,,,,,,,,,,,,,,,,,,,,,,,,,,,155,001,2024_Jan_24_1350,SpeechDraft1Carolyn_lessNoise_PlusLocalization,2021.2.3,59.90702158599628,
pike.wav,pike.mpg,pike,4,AV,Pink_Noise_4_1.wav,Pink_Noise_4_2.wav,,,,,,,,,,,,,,,0,46,46,92,,,,,,,,,,,,,,,,,,,,,,,592.0869756890461,None,593.5867732991464,None,594.9702707370743,None,pike,594.9702707370743,None,return,3.357220239005983,595.0537331369705,None,,,,,,,,,,,,,,,,,,,,,,,,,,,,,,,,,,,,,,,155,001,2024_Jan_24_1350,SpeechDraft1Carolyn_lessNoise_PlusLocalization,2021.2.3,59.90702158599628,
fine.wav,fine.mpg,fine,4,A,Pink_Noise_4_1.wav,Pink_Noise_4_2.wav,,,,,,,,,,,,,,,0,47,47,40,,,,,,,,,,,,,,,,,,,,,,,598.4370481399819,None,599.9366846582852,None,601.3204228011891,None,kind,601.3204228011891,None,return,11.854983421042562,601.4039696408436,None,,,,,,,,,,,,,,,,,,,,,,,,,,,,,,,,,,,,,,,155,001,2024_Jan_24_1350,SpeechDraft1Carolyn_lessNoise_PlusLocalization,2021.2.3,59.90702158599628,
gloom.wav,gloom.mpg,gloom,4,AV,Pink_Noise_4_1.wav,Pink_Noise_4_2.wav,,,,,,,,,,,,,,,0,48,48,107,,,,,,,,,,,,,,,,,,,,,,,613.2871232102625,None,614.7868824410252,None,616.1701935920864,None,gloom,616.1701935920864,None,return,3.13310569524765,616.2538645421155,None,,,,,,,,,,,,,,,,,,,,,,,,,,,,,,,,,,,,,,,155,001,2024_Jan_24_1350,SpeechDraft1Carolyn_lessNoise_PlusLocalization,2021.2.3,59.90702158599628,
glow.wav,glow.mpg,glow,5,AV,Pink_Noise_5_1.wav,Pink_Noise_5_2.wav,,,,,,,,,,,,,,,0,49,49,119,,,,,,,,,,,,,,,,,,,,,,,619.4038918311708,None,620.9035435491242,None,622.2870139461011,None,glow,622.2870139461011,None,return,2.3763506929390132,622.3704998129979,None,,,,,,,,,,,,,,,,,,,,,,,,,,,,,,,,,,,,,,,155,001,2024_Jan_24_1350,SpeechDraft1Carolyn_lessNoise_PlusLocalization,2021.2.3,59.90702158599628,
fleet.wav,fleet.mpg,fleet,3,A,Pink_Noise_3_1.wav,Pink_Noise_3_2.wav,,,,,,,,,,,,,,,0,50,50,17,,,,,,,,,,,,,,,,,,,,,,,624.7704697009176,None,626.2700443030335,None,627.6537388958968,None,fleet,627.6537388958968,None,return,4.113789455965161,627.7371807130985,None,,,,,,,,,,,,,,,,,,,,,,,,,,,,,,,,,,,,,,,155,001,2024_Jan_24_1350,SpeechDraft1Carolyn_lessNoise_PlusLocalization,2021.2.3,59.90702158599628,
wound.wav,wound.mpg,wound,6,A,Pink_Noise_6_1.wav,Pink_Noise_6_2.wav,,,,,,,,,,,,,,,0,51,51,41,,,,,,,,,,,,,,,,,,,,,,,631.8704209192656,None,633.3701528320089,None,634.7537927180529,None,room,634.7537927180529,None,return,5.365968048106879,634.8369976230897,None,,,,,,,,,,,,,,,,,,,,,,,,,,,,,,,,,,,,,,,155,001,2024_Jan_24_1350,SpeechDraft1Carolyn_lessNoise_PlusLocalization,2021.2.3,59.90702158599628,
film.wav,film.mpg,film,5,AV,Pink_Noise_5_1.wav,Pink_Noise_5_2.wav,,,,,,,,,,,,,,,0,52,52,90,,,,,,,,,,,,,,,,,,,,,,,640.220378248021,None,641.7221799520776,None,643.1037440402433,None,film,643.1037440402433,None,return,2.4077158509753644,643.1871573319659,None,,,,,,,,,,,,,,,,,,,,,,,,,,,,,,,,,,,,,,,155,001,2024_Jan_24_1350,SpeechDraft1Carolyn_lessNoise_PlusLocalization,2021.2.3,59.90702158599628,
due.wav,due.mpg,due,5,AV,Pink_Noise_5_1.wav,Pink_Noise_5_2.wav,,,,,,,,,,,,,,,0,53,53,83,,,,,,,,,,,,,,,,,,,,,,,645.6205744440667,None,647.1367648672312,None,648.5202569840476,None,"jew
",648.5202569840476,None,return,3.73484206199646,648.6040190178901,None,,,,,,,,,,,,,,,,,,,,,,,,,,,,,,,,,,,,,,,155,001,2024_Jan_24_1350,SpeechDraft1Carolyn_lessNoise_PlusLocalization,2021.2.3,59.90702158599628,
bed.wav,bed.mpg,bed,4,AV,Pink_Noise_4_1.wav,Pink_Noise_4_2.wav,,,,,,,,,,,,,,,0,54,54,85,,,,,,,,,,,,,,,,,,,,,,,652.3705673990771,None,653.9036158961244,None,655.2871719361283,None,bend,655.2871719361283,None,return,4.480519753880799,655.3704560091719,None,,,,,,,,,,,,,,,,,,,,,,,,,,,,,,,,,,,,,,,155,001,2024_Jan_24_1350,SpeechDraft1Carolyn_lessNoise_PlusLocalization,2021.2.3,59.90702158599628,
beg.wav,beg.mpg,beg,3,AV,Pink_Noise_3_1.wav,Pink_Noise_3_2.wav,,,,,,,,,,,,,,,0,55,55,99,,,,,,,,,,,,,,,,,,,,,,,659.8706410769373,None,661.3867407818325,None,662.7704076510854,None,beg,662.7704076510854,None,return,2.8132221861742437,662.8537349789403,None,,,,,,,,,,,,,,,,,,,,,,,,,,,,,,,,,,,,,,,155,001,2024_Jan_24_1350,SpeechDraft1Carolyn_lessNoise_PlusLocalization,2021.2.3,59.90702158599628,
dull.wav,dull.mpg,dull,2,AV,Pink_Noise_2_1.wav,Pink_Noise_2_2.wav,,,,,,,,,,,,,,,0,56,56,84,,,,,,,,,,,,,,,,,,,,,,,665.687070265878,None,667.1869601481594,None,668.5702967848629,None,doll,668.5702967848629,None,return,5.0609593242406845,668.6539079081267,None,,,,,,,,,,,,,,,,,,,,,,,,,,,,,,,,,,,,,,,155,001,2024_Jan_24_1350,SpeechDraft1Carolyn_lessNoise_PlusLocalization,2021.2.3,59.90702158599628,
bell.wav,bell.mpg,bell,2,A,Pink_Noise_2_1.wav,Pink_Noise_2_2.wav,,,,,,,,,,,,,,,0,57,57,8,,,,,,,,,,,,,,,,,,,,,,,673.7373267328367,None,675.2385663422756,None,676.6371850608848,None,"mound
",676.6371850608848,None,return,4.618225061800331,676.7206393950619,None,,,,,,,,,,,,,,,,,,,,,,,,,,,,,,,,,,,,,,,155,001,2024_Jan_24_1350,SpeechDraft1Carolyn_lessNoise_PlusLocalization,2021.2.3,59.90702158599628,
grave.wav,grave.mpg,grave,5,A,Pink_Noise_5_1.wav,Pink_Noise_5_2.wav,,,,,,,,,,,,,,,0,58,58,56,,,,,,,,,,,,,,,,,,,,,,,681.3704522601329,None,682.870158623904,None,684.2538775769062,None,soil,684.2538775769062,None,return,5.793811419047415,684.3371016290039,None,,,,,,,,,,,,,,,,,,,,,,,,,,,,,,,,,,,,,,,155,001,2024_Jan_24_1350,SpeechDraft1Carolyn_lessNoise_PlusLocalization,2021.2.3,59.90702158599628,
bag.wav,bag.mpg,bag,5,A,Pink_Noise_5_1.wav,Pink_Noise_5_2.wav,,,,,,,,,,,,,,,0,59,59,24,,,,,,,,,,,,,,,,,,,,,,,690.1537835369818,None,691.6545608672313,None,693.0372554189526,None,edge,693.0372554189526,None,return,3.19438864197582,693.1204647300765,None,,,,,,,,,,,,,,,,,,,,,,,,,,,,,,,,,,,,,,,155,001,2024_Jan_24_1350,SpeechDraft1Carolyn_lessNoise_PlusLocalization,2021.2.3,59.90702158599628,
blimp.wav,blimp.mpg,blimp,5,AV,Pink_Noise_5_1.wav,Pink_Noise_5_2.wav,,,,,,,,,,,,,,,0,60,60,64,,,,,,,,,,,,,,,,,,,,,,,696.337273879908,None,697.8536350922659,None,699.2372129368596,None,blimp,699.2372129368596,None,return,6.0423679100349545,699.3204914168455,None,,,,,,,,,,,,,,,,,,,,,,,,,,,,,,,,,,,,,,,155,001,2024_Jan_24_1350,SpeechDraft1Carolyn_lessNoise_PlusLocalization,2021.2.3,59.90702158599628,
earth.wav,earth.mpg,earth,2,A,Pink_Noise_2_1.wav,Pink_Noise_2_2.wav,,,,,,,,,,,,,,,0,61,61,31,,,,,,,,,,,,,,,,,,,,,,,705.387236805167,None,706.9035906381905,None,708.2871338562109,None,earth,708.2871338562109,None,return,7.1124104810878634,708.3704677089117,None,,,,,,,,,,,,,,,,,,,,,,,,,,,,,,,,,,,,,,,155,001,2024_Jan_24_1350,SpeechDraft1Carolyn_lessNoise_PlusLocalization,2021.2.3,59.90702158599628,
drink.wav,drink.mpg,drink,3,A,Pink_Noise_3_1.wav,Pink_Noise_3_2.wav,,,,,,,,,,,,,,,0,62,62,51,,,,,,,,,,,,,,,,,,,,,,,715.5038236379623,None,717.0370804062113,None,718.4205299792811,None,"drink
",718.4205299792811,None,return,7.403104658704251,718.5037625641562,None,,,,,,,,,,,,,,,,,,,,,,,,,,,,,,,,,,,,,,,155,001,2024_Jan_24_1350,SpeechDraft1Carolyn_lessNoise_PlusLocalization,2021.2.3,59.90702158599628,
barge.wav,barge.mpg,barge,3,AV,Pink_Noise_3_1.wav,Pink_Noise_3_2.wav,,,,,,,,,,,,,,,0,63,63,75,,,,,,,,,,,,,,,,,,,,,,,725.9371657609008,None,727.4369259001687,None,728.8205557642505,None,barge,728.8205557642505,None,return,2.7629795907996595,728.9039794760756,None,,,,,,,,,,,,,,,,,,,,,,,,,,,,,,,,,,,,,,,155,001,2024_Jan_24_1350,SpeechDraft1Carolyn_lessNoise_PlusLocalization,2021.2.3,59.90702158599628,
cop.wav,cop.mpg,cop,2,A,Pink_Noise_2_1.wav,Pink_Noise_2_2.wav,,,,,,,,,,,,,,,0,64,64,53,,,,,,,,,,,,,,,,,,,,,,,731.6872681928799,None,733.1868687891401,None,734.5707035139203,None,"cot
",734.5707035139203,None,return,10.31696300720796,734.6538945939392,None,,,,,,,,,,,,,,,,,,,,,,,,,,,,,,,,,,,,,,,155,001,2024_Jan_24_1350,SpeechDraft1Carolyn_lessNoise_PlusLocalization,2021.2.3,59.90702158599628,
cell.wav,cell.mpg,cell,5,A,Pink_Noise_5_1.wav,Pink_Noise_5_2.wav,,,,,,,,,,,,,,,0,65,65,35,,,,,,,,,,,,,,,,,,,,,,,745.0040825740434,None,746.5035470132716,None,747.8871898171492,None,lounge,747.8871898171492,None,return,4.296350840944797,747.9705498120748,None,,,,,,,,,,,,,,,,,,,,,,,,,,,,,,,,,,,,,,,155,001,2024_Jan_24_1350,SpeechDraft1Carolyn_lessNoise_PlusLocalization,2021.2.3,59.90702158599628,
croak.wav,croak.mpg,croak,5,AV,Pink_Noise_5_1.wav,Pink_Noise_5_2.wav,,,,,,,,,,,,,,,0,66,66,91,,,,,,,,,,,,,,,,,,,,,,,752.2872614278458,None,753.7881276868284,None,755.170516863931,None,"choke
",755.170516863931,None,return,5.084773535374552,755.254091899842,None,,,,,,,,,,,,,,,,,,,,,,,,,,,,,,,,,,,,,,,155,001,2024_Jan_24_1350,SpeechDraft1Carolyn_lessNoise_PlusLocalization,2021.2.3,59.90702158599628,
shock.wav,shock.mpg,shock,1,A,Pink_Noise_1_1.wav,Pink_Noise_1_2.wav,,,,,,,,,,,,,,,0,67,67,37,,,,,,,,,,,,,,,,,,,,,,,760.3705856618471,None,761.8701396239921,None,763.2538552070037,None,shock,763.2538552070037,None,return,3.1776023129932582,763.3372503630817,None,,,,,,,,,,,,,,,,,,,,,,,,,,,,,,,,,,,,,,,155,001,2024_Jan_24_1350,SpeechDraft1Carolyn_lessNoise_PlusLocalization,2021.2.3,59.90702158599628,
clothe.wav,clothe.mpg,clothe,6,A,Pink_Noise_6_1.wav,Pink_Noise_6_2.wav,,,,,,,,,,,,,,,0,68,68,52,,,,,,,,,,,,,,,,,,,,,,,766.5372790750116,None,768.0550194922835,None,769.4373977379873,None,clove,769.4373977379873,None,return,4.058323107659817,769.5205541881733,None,,,,,,,,,,,,,,,,,,,,,,,,,,,,,,,,,,,,,,,155,001,2024_Jan_24_1350,SpeechDraft1Carolyn_lessNoise_PlusLocalization,2021.2.3,59.90702158599628,
chief.wav,chief.mpg,chief,3,A,Pink_Noise_3_1.wav,Pink_Noise_3_2.wav,,,,,,,,,,,,,,,0,69,69,16,,,,,,,,,,,,,,,,,,,,,,,773.6038473029621,None,775.120343780145,None,776.5040125981905,None,jeep,776.5040125981905,None,return,4.647512179799378,776.5873505561613,None,,,,,,,,,,,,,,,,,,,,,,,,,,,,,,,,,,,,,,,155,001,2024_Jan_24_1350,SpeechDraft1Carolyn_lessNoise_PlusLocalization,2021.2.3,59.90702158599628,
bee.wav,bee.mpg,bee,3,A,Pink_Noise_3_1.wav,Pink_Noise_3_2.wav,,,,,,,,,,,,,,,0,70,70,59,,,,,,,,,,,,,,,,,,,,,,,781.25400097901,None,782.7713142139837,None,784.154130037874,None,beat,784.154130037874,None,return,6.341323655098677,784.23751864722,None,,,,,,,,,,,,,,,,,,,,,,,,,,,,,,,,,,,,,,,155,001,2024_Jan_24_1350,SpeechDraft1Carolyn_lessNoise_PlusLocalization,2021.2.3,59.90702158599628,
clay.wav,clay.mpg,clay,6,A,Pink_Noise_6_1.wav,Pink_Noise_6_2.wav,,,,,,,,,,,,,,,0,71,71,5,,,,,,,,,,,,,,,,,,,,,,,790.6041384269483,None,792.1036104210652,None,793.4875314361416,None,"glow
",793.4875314361416,None,return,4.184319133870304,793.5705660781823,None,,,,,,,,,,,,,,,,,,,,,,,,,,,,,,,,,,,,,,,155,001,2024_Jan_24_1350,SpeechDraft1Carolyn_lessNoise_PlusLocalization,2021.2.3,59.90702158599628,
fond.wav,fond.mpg,fond,6,A,Pink_Noise_6_1.wav,Pink_Noise_6_2.wav,,,,,,,,,,,,,,,0,72,72,48,,,,,,,,,,,,,,,,,,,,,,,797.7872936842032,None,799.3036442729644,None,800.6872960319743,None,"knife
",800.6872960319743,None,return,3.784157199319452,800.7707038158551,None,,,,,,,,,,,,,,,,,,,,,,,,,,,,,,,,,,,,,,,155,001,2024_Jan_24_1350,SpeechDraft1Carolyn_lessNoise_PlusLocalization,2021.2.3,59.90702158599628,
pride.wav,pride.mpg,pride,5,A,Pink_Noise_5_1.wav,Pink_Noise_5_2.wav,,,,,,,,,,,,,,,0,73,73,2,,,,,,,,,,,,,,,,,,,,,,,804.5872537642717,None,806.0870344238356,None,807.4708148562349,None,"kind
",807.4708148562349,None,return,10.768908957019448,807.553956896998,None,,,,,,,,,,,,,,,,,,,,,,,,,,,,,,,,,,,,,,,155,001,2024_Jan_24_1350,SpeechDraft1Carolyn_lessNoise_PlusLocalization,2021.2.3,59.90702158599628,
drunk.wav,drunk.mpg,drunk,1,AV,Pink_Noise_1_1.wav,Pink_Noise_1_2.wav,,,,,,,,,,,,,,,0,74,74,81,,,,,,,,,,,,,,,,,,,,,,,818.3540618531406,None,819.8702631890774,None,821.2540015759878,None,drunk,821.2540015759878,None,return,2.8495642989873886,821.3374370979145,None,,,,,,,,,,,,,,,,,,,,,,,,,,,,,,,,,,,,,,,155,001,2024_Jan_24_1350,SpeechDraft1Carolyn_lessNoise_PlusLocalization,2021.2.3,59.90702158599628,
chill.wav,chill.mpg,chill,1,AV,Pink_Noise_1_1.wav,Pink_Noise_1_2.wav,,,,,,,,,,,,,,,0,75,75,66,,,,,,,,,,,,,,,,,,,,,,,824.2042358522303,None,825.7056584432721,None,827.1039042891935,None,chill,827.1039042891935,None,return,3.399522108025849,827.187441485934,None,,,,,,,,,,,,,,,,,,,,,,,,,,,,,,,,,,,,,,,155,001,2024_Jan_24_1350,SpeechDraft1Carolyn_lessNoise_PlusLocalization,2021.2.3,59.90702158599628,
brain.wav,brain.mpg,brain,4,A,Pink_Noise_4_1.wav,Pink_Noise_4_2.wav,,,,,,,,,,,,,,,0,76,76,50,,,,,,,,,,,,,,,,,,,,,,,830.604215785861,None,832.120420451276,None,833.5040116882883,None,rain,833.5040116882883,None,return,2.3915388020686805,833.5873132841662,None,,,,,,,,,,,,,,,,,,,,,,,,,,,,,,,,,,,,,,,155,001,2024_Jan_24_1350,SpeechDraft1Carolyn_lessNoise_PlusLocalization,2021.2.3,59.90702158599628,
cheek.wav,cheek.mpg,cheek,4,AV,Pink_Noise_4_1.wav,Pink_Noise_4_2.wav,,,,,,,,,,,,,,,0,77,77,69,,,,,,,,,,,,,,,,,,,,,,,836.0041313790716,None,837.5037843268365,None,838.8872477579862,None,cheat,838.8872477579862,None,return,4.544116920325905,838.9707372030243,None,,,,,,,,,,,,,,,,,,,,,,,,,,,,,,,,,,,,,,,155,001,2024_Jan_24_1350,SpeechDraft1Carolyn_lessNoise_PlusLocalization,2021.2.3,59.90702158599628,
crude.wav,crude.mpg,crude,2,A,Pink_Noise_2_1.wav,Pink_Noise_2_2.wav,,,,,,,,,,,,,,,0,78,78,1,,,,,,,,,,,,,,,,,,,,,,,843.5375337190926,None,845.0538718248717,None,846.4375552409329,None,"crude
",846.4375552409329,None,return,2.218131232075393,846.520729125943,None,,,,,,,,,,,,,,,,,,,,,,,,,,,,,,,,,,,,,,,155,001,2024_Jan_24_1350,SpeechDraft1Carolyn_lessNoise_PlusLocalization,2021.2.3,59.90702158599628,
grunt.wav,grunt.mpg,grunt,3,AV,Pink_Noise_3_1.wav,Pink_Noise_3_2.wav,,,,,,,,,,,,,,,0,79,79,116,,,,,,,,,,,,,,,,,,,,,,,848.7707082550041,None,850.2869799141772,None,851.6708493400365,None,"grunt
",851.6708493400365,None,return,5.35275615984574,851.75411045691,None,,,,,,,,,,,,,,,,,,,,,,,,,,,,,,,,,,,,,,,155,001,2024_Jan_24_1350,SpeechDraft1Carolyn_lessNoise_PlusLocalization,2021.2.3,59.90702158599628,
slick.wav,slick.mpg,slick,1,A,Pink_Noise_1_1.wav,Pink_Noise_1_2.wav,,,,,,,,,,,,,,,0,80,80,7,,,,,,,,,,,,,,,,,,,,,,,857.1373885138892,None,858.6537027829327,None,860.0391908949241,None,slick,860.0391908949241,None,return,2.282102873083204,860.120815473143,None,,,,,,,,,,,,,,,,,,,,,,,,,,,,,,,,,,,,,,,155,001,2024_Jan_24_1350,SpeechDraft1Carolyn_lessNoise_PlusLocalization,2021.2.3,59.90702158599628,
crate.wav,crate.mpg,crate,6,AV,Pink_Noise_6_1.wav,Pink_Noise_6_2.wav,,,,,,,,,,,,,,,0,81,81,77,,,,,,,,,,,,,,,,,,,,,,,862.4209427190945,None,863.9370636702515,None,865.3208246650174,None,crete,865.3208246650174,None,return,1.9587232996709645,865.4041301119141,None,,,,,,,,,,,,,,,,,,,,,,,,,,,,,,,,,,,,,,,155,001,2024_Jan_24_1350,SpeechDraft1Carolyn_lessNoise_PlusLocalization,2021.2.3,59.90702158599628,
golf.wav,golf.mpg,golf,3,AV,Pink_Noise_3_1.wav,Pink_Noise_3_2.wav,,,,,,,,,,,,,,,0,82,82,86,,,,,,,,,,,,,,,,,,,,,,,867.3873869008385,None,868.9036977612413,None,870.287590272259,None,golf,870.287590272259,None,return,3.7279540468007326,870.37089409912,None,,,,,,,,,,,,,,,,,,,,,,,,,,,,,,,,,,,,,,,155,001,2024_Jan_24_1350,SpeechDraft1Carolyn_lessNoise_PlusLocalization,2021.2.3,59.90702158599628,
fish.wav,fish.mpg,fish,1,A,Pink_Noise_1_1.wav,Pink_Noise_1_2.wav,,,,,,,,,,,,,,,0,83,83,42,,,,,,,,,,,,,,,,,,,,,,,874.1209138561971,None,875.653777486179,None,877.0375082879327,None,"fish
",877.0375082879327,None,return,2.033629752229899,877.1212236681022,None,,,,,,,,,,,,,,,,,,,,,,,,,,,,,,,,,,,,,,,155,001,2024_Jan_24_1350,SpeechDraft1Carolyn_lessNoise_PlusLocalization,2021.2.3,59.90702158599628,
groom.wav,groom.mpg,groom,5,AV,Pink_Noise_5_1.wav,Pink_Noise_5_2.wav,,,,,,,,,,,,,,,0,84,84,118,,,,,,,,,,,,,,,,,,,,,,,879.1875763940625,None,880.7037786031142,None,882.087320165243,None,groom,882.087320165243,None,return,4.256293125916272,882.1707068509422,None,,,,,,,,,,,,,,,,,,,,,,,,,,,,,,,,,,,,,,,155,001,2024_Jan_24_1350,SpeechDraft1Carolyn_lessNoise_PlusLocalization,2021.2.3,59.90702158599628,
wind.wav,wind.mpg,wind,5,A,Pink_Noise_5_1.wav,Pink_Noise_5_2.wav,,,,,,,,,,,,,,,0,85,85,29,,,,,,,,,,,,,,,,,,,,,,,886.45416538883,None,887.9705709158443,None,889.3540513482876,None,wait,889.3540513482876,None,return,5.325371420010924,889.4374771690927,None,,,,,,,,,,,,,,,,,,,,,,,,,,,,,,,,,,,,,,,155,001,2024_Jan_24_1350,SpeechDraft1Carolyn_lessNoise_PlusLocalization,2021.2.3,59.90702158599628,
deck.wav,deck.mpg,deck,6,AV,Pink_Noise_6_1.wav,Pink_Noise_6_2.wav,,,,,,,,,,,,,,,0,86,86,102,,,,,,,,,,,,,,,,,,,,,,,894.7873585550115,None,896.3204207210802,None,897.7041170559824,None,let,897.7041170559824,None,return,9.407443803269416,897.7874768762849,None,,,,,,,,,,,,,,,,,,,,,,,,,,,,,,,,,,,,,,,155,001,2024_Jan_24_1350,SpeechDraft1Carolyn_lessNoise_PlusLocalization,2021.2.3,59.90702158599628,
bleak.wav,bleak.mpg,bleak,1,A,Pink_Noise_1_1.wav,Pink_Noise_1_2.wav,,,,,,,,,,,,,,,0,87,87,47,,,,,,,,,,,,,,,,,,,,,,,907.2208724669181,None,908.753874395974,None,910.1374865262769,None,leek,910.1374865262769,None,return,1.3902294361032546,910.2207657829858,None,,,,,,,,,,,,,,,,,,,,,,,,,,,,,,,,,,,,,,,155,001,2024_Jan_24_1350,SpeechDraft1Carolyn_lessNoise_PlusLocalization,2021.2.3,59.90702158599628,
drill.wav,drill.mpg,drill,1,AV,Pink_Noise_1_1.wav,Pink_Noise_1_2.wav,,,,,,,,,,,,,,,0,88,88,93,,,,,,,,,,,,,,,,,,,,,,,911.6374693401158,None,913.1706832898781,None,914.5541024869308,None,drill,914.5541024869308,None,return,4.045381874311715,914.6374878068455,None,,,,,,,,,,,,,,,,,,,,,,,,,,,,,,,,,,,,,,,155,001,2024_Jan_24_1350,SpeechDraft1Carolyn_lessNoise_PlusLocalization,2021.2.3,59.90702158599628,
bye.wav,bye.mpg,bye,1,AV,Pink_Noise_1_1.wav,Pink_Noise_1_2.wav,,,,,,,,,,,,,,,0,89,89,109,,,,,,,,,,,,,,,,,,,,,,,918.7042210139334,None,920.2205556631088,None,921.6041670269333,None,bye,921.6041670269333,None,return,3.1314121377654374,921.6874482179992,None,,,,,,,,,,,,,,,,,,,,,,,,,,,,,,,,,,,,,,,155,001,2024_Jan_24_1350,SpeechDraft1Carolyn_lessNoise_PlusLocalization,2021.2.3,59.90702158599628,
duet.wav,duet.mpg,duet,2,A,Pink_Noise_2_1.wav,Pink_Noise_2_2.wav,,,,,,,,,,,,,,,0,90,90,46,,,,,,,,,,,,,,,,,,,,,,,924.8376321950927,None,926.3538606129587,None,927.7373908399604,None,duet,927.7373908399604,None,return,2.653935421258211,927.8209535190836,None,,,,,,,,,,,,,,,,,,,,,,,,,,,,,,,,,,,,,,,155,001,2024_Jan_24_1350,SpeechDraft1Carolyn_lessNoise_PlusLocalization,2021.2.3,59.90702158599628,
bowl.wav,bowl.mpg,bowl,5,AV,Pink_Noise_5_1.wav,Pink_Noise_5_2.wav,,,,,,,,,,,,,,,0,91,91,65,,,,,,,,,,,,,,,,,,,,,,,930.5042087072507,None,932.0371802062728,None,933.4207893288694,None,boom,933.4207893288694,None,return,16.730550036765635,933.50431402307,None,,,,,,,,,,,,,,,,,,,,,,,,,,,,,,,,,,,,,,,155,001,2024_Jan_24_1350,SpeechDraft1Carolyn_lessNoise_PlusLocalization,2021.2.3,59.90702158599628,
duke.wav,duke.mpg,duke,6,AV,Pink_Noise_6_1.wav,Pink_Noise_6_2.wav,,,,,,,,,,,,,,,0,92,92,113,,,,,,,,,,,,,,,,,,,,,,,950.254100611899,None,951.7873386670835,None,953.1707486952655,None,juke,953.1707486952655,None,return,8.612703105900437,953.2541750692762,None,,,,,,,,,,,,,,,,,,,,,,,,,,,,,,,,,,,,,,,155,001,2024_Jan_24_1350,SpeechDraft1Carolyn_lessNoise_PlusLocalization,2021.2.3,59.90702158599628,
dial.wav,dial.mpg,dial,3,AV,Pink_Noise_3_1.wav,Pink_Noise_3_2.wav,,,,,,,,,,,,,,,0,93,93,82,,,,,,,,,,,,,,,,,,,,,,,961.887686082162,None,963.4205227079801,None,964.8041272899136,None,"dial
",964.8041272899136,None,return,2.0673361611552536,964.887546195183,None,,,,,,,,,,,,,,,,,,,,,,,,,,,,,,,,,,,,,,,155,001,2024_Jan_24_1350,SpeechDraft1Carolyn_lessNoise_PlusLocalization,2021.2.3,59.90702158599628,
cube.wav,cube.mpg,cube,6,A,Pink_Noise_6_1.wav,Pink_Noise_6_2.wav,,,,,,,,,,,,,,,0,94,94,26,,,,,,,,,,,,,,,,,,,,,,,966.9876774949953,None,968.5038300342858,None,969.8876453409903,None,crete,969.8876453409903,None,return,3.6560650463216007,969.9710423578508,None,,,,,,,,,,,,,,,,,,,,,,,,,,,,,,,,,,,,,,,155,001,2024_Jan_24_1350,SpeechDraft1Carolyn_lessNoise_PlusLocalization,2021.2.3,59.90702158599628,
flog.wav,flog.mpg,flog,3,A,Pink_Noise_3_1.wav,Pink_Noise_3_2.wav,,,,,,,,,,,,,,,0,95,95,39,,,,,,,,,,,,,,,,,,,,,,,973.6542621422559,None,975.1717722290196,None,976.5544475228526,None,rock,976.5544475228526,None,return,3.293116402812302,976.637714013923,None,,,,,,,,,,,,,,,,,,,,,,,,,,,,,,,,,,,,,,,155,001,2024_Jan_24_1350,SpeechDraft1Carolyn_lessNoise_PlusLocalization,2021.2.3,59.90702158599628,
die.wav,die.mpg,die,2,AV,Pink_Noise_2_1.wav,Pink_Noise_2_2.wav,,,,,,,,,,,,,,,0,96,96,114,,,,,,,,,,,,,,,,,,,,,,,979.9542433782481,None,981.4704972929321,None,982.8542359909043,None,die,982.8542359909043,None,return,2.3771329429000616,982.9377139760181,None,,,,,,,,,,,,,,,,,,,,,,,,,,,,,,,,,,,,,,,155,001,2024_Jan_24_1350,SpeechDraft1Carolyn_lessNoise_PlusLocalization,2021.2.3,59.90702158599628,
crime.wav,crime.mpg,crime,1,A,Pink_Noise_1_1.wav,Pink_Noise_1_2.wav,,,,,,,,,,,,,,,0,97,97,33,,,,,,,,,,,,,,,,,,,,,,,985.337741385214,None,986.8871322232299,None,988.2709133811295,None,"ctime
",988.2709133811295,None,return,2.9684991147369146,988.3543574190699,None,,,,,,,,,,,,,,,,,,,,,,,,,,,,,,,,,,,,,,,155,001,2024_Jan_24_1350,SpeechDraft1Carolyn_lessNoise_PlusLocalization,2021.2.3,59.90702158599628,
dare.wav,dare.mpg,dare,2,AV,Pink_Noise_2_1.wav,Pink_Noise_2_2.wav,,,,,,,,,,,,,,,0,98,98,106,,,,,,,,,,,,,,,,,,,,,,,991.3543881159276,None,992.870620502159,None,994.2542617018335,None,dare,994.2542617018335,None,return,1.8891506679356098,994.3378575751558,None,,,,,,,,,,,,,,,,,,,,,,,,,,,,,,,,,,,,,,,155,001,2024_Jan_24_1350,SpeechDraft1Carolyn_lessNoise_PlusLocalization,2021.2.3,59.90702158599628,
coin.wav,coin.mpg,coin,2,AV,Pink_Noise_2_1.wav,Pink_Noise_2_2.wav,,,,,,,,,,,,,,,0,99,99,105,,,,,,,,,,,,,,,,,,,,,,,996.2544282050803,None,997.7705590389669,None,999.1541456631385,None,coy,999.1541456631385,None,return,2.4372279588133097,999.2376553202048,None,,,,,,,,,,,,,,,,,,,,,,,,,,,,,,,,,,,,,,,155,001,2024_Jan_24_1350,SpeechDraft1Carolyn_lessNoise_PlusLocalization,2021.2.3,59.90702158599628,
goat.wav,goat.mpg,goat,6,A,Pink_Noise_6_1.wav,Pink_Noise_6_2.wav,,,,,,,,,,,,,,,0,100,100,23,,,,,,,,,,,,,,,,,,,,,,,1001.7043105382472,None,1003.270597958006,None,1004.6543085812591,None,word,1004.6543085812591,None,return,5.23325857706368,1004.7376096630469,None,,,,,,,,,,,,,,,,,,,,,,,,,,,,,,,,,,,,,,,155,001,2024_Jan_24_1350,SpeechDraft1Carolyn_lessNoise_PlusLocalization,2021.2.3,59.90702158599628,
cute.wav,cute.mpg,cute,6,A,Pink_Noise_6_1.wav,Pink_Noise_6_2.wav,,,,,,,,,,,,,,,0,101,101,38,,,,,,,,,,,,,,,,,,,,,,,1009.9875559732318,None,1011.5040386598557,None,1012.8877844782546,None,choose,1012.8877844782546,None,return,5.215975255239755,1012.9709957460873,None,,,,,,,,,,,,,,,,,,,,,,,,,,,,,,,,,,,,,,,155,001,2024_Jan_24_1350,SpeechDraft1Carolyn_lessNoise_PlusLocalization,2021.2.3,59.90702158599628,
dot.wav,dot.mpg,dot,4,AV,Pink_Noise_4_1.wav,Pink_Noise_4_2.wav,,,,,,,,,,,,,,,0,102,102,89,,,,,,,,,,,,,,,,,,,,,,,1018.2046954319812,None,1019.7207422950305,None,1021.1043127961457,None,diet,1021.1043127961457,None,return,11.623189965263009,1021.1877466919832,None,,,,,,,,,,,,,,,,,,,,,,,,,,,,,,,,,,,,,,,155,001,2024_Jan_24_1350,SpeechDraft1Carolyn_lessNoise_PlusLocalization,2021.2.3,59.90702158599628,
crawl.wav,crawl.mpg,crawl,1,AV,Pink_Noise_1_1.wav,Pink_Noise_1_2.wav,,,,,,,,,,,,,,,0,103,103,117,,,,,,,,,,,,,,,,,,,,,,,1032.8376284711994,None,1034.3540690862574,None,1035.737529930193,None,crawl,1035.737529930193,None,return,4.845783568918705,1035.8210510662757,None,,,,,,,,,,,,,,,,,,,,,,,,,,,,,,,,,,,,,,,155,001,2024_Jan_24_1350,SpeechDraft1Carolyn_lessNoise_PlusLocalization,2021.2.3,59.90702158599628,
grail.wav,grail.mpg,grail,6,AV,Pink_Noise_6_1.wav,Pink_Noise_6_2.wav,,,,,,,,,,,,,,,0,104,104,70,,,,,,,,,,,,,,,,,,,,,,,1040.6877185250632,None,1042.2041418431327,None,1043.5875227688812,None,rail,1043.5875227688812,None,return,6.443846838083118,1043.6709943870082,None,,,,,,,,,,,,,,,,,,,,,,,,,,,,,,,,,,,,,,,155,001,2024_Jan_24_1350,SpeechDraft1Carolyn_lessNoise_PlusLocalization,2021.2.3,59.90702158599628,
bar.wav,bar.mpg,bar,2,AV,Pink_Noise_2_1.wav,Pink_Noise_2_2.wav,,,,,,,,,,,,,,,0,105,105,104,,,,,,,,,,,,,,,,,,,,,,,1050.1378019312397,None,1051.653964409139,None,1053.0376050490886,None,barb,1053.0376050490886,None,return,4.641678456682712,1053.1212148219347,None,,,,,,,,,,,,,,,,,,,,,,,,,,,,,,,,,,,,,,,155,001,2024_Jan_24_1350,SpeechDraft1Carolyn_lessNoise_PlusLocalization,2021.2.3,59.90702158599628,
dance.wav,dance.mpg,dance,3,A,Pink_Noise_3_1.wav,Pink_Noise_3_2.wav,,,,,,,,,,,,,,,0,106,106,32,,,,,,,,,,,,,,,,,,,,,,,1057.7876903768629,None,1059.30396577809,None,1060.6877621221356,None,dance,1060.6877621221356,None,return,5.1597979590296745,1060.7710469169542,None,,,,,,,,,,,,,,,,,,,,,,,,,,,,,,,,,,,,,,,155,001,2024_Jan_24_1350,SpeechDraft1Carolyn_lessNoise_PlusLocalization,2021.2.3,59.90702158599628,
drab.wav,drab.mpg,drab,6,AV,Pink_Noise_6_1.wav,Pink_Noise_6_2.wav,,,,,,,,,,,,,,,0,107,107,103,,,,,,,,,,,,,,,,,,,,,,,1065.9543375172652,None,1067.5040475842543,None,1068.8877777792513,None,"drab
",1068.8877777792513,None,return,3.1356778577901423,1068.9711858239025,None,,,,,,,,,,,,,,,,,,,,,,,,,,,,,,,,,,,,,,,155,001,2024_Jan_24_1350,SpeechDraft1Carolyn_lessNoise_PlusLocalization,2021.2.3,59.90702158599628,
grip.wav,grip.mpg,grip,1,A,Pink_Noise_1_1.wav,Pink_Noise_1_2.wav,,,,,,,,,,,,,,,0,108,108,18,,,,,,,,,,,,,,,,,,,,,,,1072.1378258322366,None,1073.6706869052723,None,1075.0546778212301,None,grip,1075.0546778212301,None,return,3.04915461409837,1075.1377532081679,None,,,,,,,,,,,,,,,,,,,,,,,,,,,,,,,,,,,,,,,155,001,2024_Jan_24_1350,SpeechDraft1Carolyn_lessNoise_PlusLocalization,2021.2.3,59.90702158599628,
truce.wav,truce.mpg,truce,5,A,Pink_Noise_5_1.wav,Pink_Noise_5_2.wav,,,,,,,,,,,,,,,0,109,109,13,,,,,,,,,,,,,,,,,,,,,,,1078.204341901932,None,1079.720801471267,None,1081.104326465167,None,truce,1081.104326465167,None,return,7.095249950885773,1081.1876214542426,None,,,,,,,,,,,,,,,,,,,,,,,,,,,,,,,,,,,,,,,155,001,2024_Jan_24_1350,SpeechDraft1Carolyn_lessNoise_PlusLocalization,2021.2.3,59.90702158599628,
rid.wav,rid.mpg,rid,3,AV,Pink_Noise_3_1.wav,Pink_Noise_3_2.wav,,,,,,,,,,,,,,,0,110,110,88,,,,,,,,,,,,,,,,,,,,,,,1088.3043545871042,None,1089.8373954929411,None,1091.2210146049038,None,"grid
",1091.2210146049038,None,return,4.386513710021973,1091.3043411602266,None,,,,,,,,,,,,,,,,,,,,,,,,,,,,,,,,,,,,,,,155,001,2024_Jan_24_1350,SpeechDraft1Carolyn_lessNoise_PlusLocalization,2021.2.3,59.90702158599628,
wet.wav,wet.mpg,wet,4,A,Pink_Noise_4_1.wav,Pink_Noise_4_2.wav,,,,,,,,,,,,,,,0,111,111,0,,,,,,,,,,,,,,,,,,,,,,,1095.721067099832,None,1097.2541542490944,None,1098.6377066741697,None,wet,1098.6377066741697,None,return,1.9378797793760896,1098.7210538340732,None,,,,,,,,,,,,,,,,,,,,,,,,,,,,,,,,,,,,,,,155,001,2024_Jan_24_1350,SpeechDraft1Carolyn_lessNoise_PlusLocalization,2021.2.3,59.90702158599628,
toast.wav,toast.mpg,toast,6,A,Pink_Noise_6_1.wav,Pink_Noise_6_2.wav,,,,,,,,,,,,,,,0,112,112,21,,,,,,,,,,,,,,,,,,,,,,,1100.687735577114,None,1102.2041044589132,None,1103.5878296722658,None,crete,1103.5878296722658,None,return,5.12392608076334,1103.6710306312889,None,,,,,,,,,,,,,,,,,,,,,,,,,,,,,,,,,,,,,,,155,001,2024_Jan_24_1350,SpeechDraft1Carolyn_lessNoise_PlusLocalization,2021.2.3,59.90702158599628,
chick.wav,chick.mpg,chick,4,A,Pink_Noise_4_1.wav,Pink_Noise_4_2.wav,,,,,,,,,,,,,,,0,113,113,4,,,,,,,,,,,,,,,,,,,,,,,1108.8209654949605,None,1110.337448081933,None,1111.721399707254,None,"chick
",1111.721399707254,None,return,3.9022377291694283,1111.8046289109625,None,,,,,,,,,,,,,,,,,,,,,,,,,,,,,,,,,,,,,,,155,001,2024_Jan_24_1350,SpeechDraft1Carolyn_lessNoise_PlusLocalization,2021.2.3,59.90702158599628,
cure.wav,cure.mpg,cure,5,A,Pink_Noise_5_1.wav,Pink_Noise_5_2.wav,,,,,,,,,,,,,,,0,114,114,11,,,,,,,,,,,,,,,,,,,,,,,1115.7379749002866,None,1117.2551190052181,None,1118.637821325101,None,grill,1118.637821325101,None,return,5.241741660051048,1118.7211002651602,None,,,,,,,,,,,,,,,,,,,,,,,,,,,,,,,,,,,,,,,155,001,2024_Jan_24_1350,SpeechDraft1Carolyn_lessNoise_PlusLocalization,2021.2.3,59.90702158599628,
fall.wav,fall.mpg,fall,2,A,Pink_Noise_2_1.wav,Pink_Noise_2_2.wav,,,,,,,,,,,,,,,0,115,115,20,,,,,,,,,,,,,,,,,,,,,,,1123.9878965052776,None,1125.520765940193,None,1126.904318167828,None,"bomb
",1126.904318167828,None,return,5.3191418163478374,1126.9877166119404,None,,,,,,,,,,,,,,,,,,,,,,,,,,,,,,,,,,,,,,,155,001,2024_Jan_24_1350,SpeechDraft1Carolyn_lessNoise_PlusLocalization,2021.2.3,59.90702158599628,
chalk.wav,chalk.mpg,chalk,5,AV,Pink_Noise_5_1.wav,Pink_Noise_5_2.wav,,,,,,,,,,,,,,,0,116,116,74,,,,,,,,,,,,,,,,,,,,,,,1132.3377076922916,None,1133.8709639851004,None,1135.2543939459138,None,chalk,1135.2543939459138,None,return,2.4493293408304453,1135.3378286659718,None,,,,,,,,,,,,,,,,,,,,,,,,,,,,,,,,,,,,,,,155,001,2024_Jan_24_1350,SpeechDraft1Carolyn_lessNoise_PlusLocalization,2021.2.3,59.90702158599628,
boil.wav,boil.mpg,boil,6,AV,Pink_Noise_6_1.wav,Pink_Noise_6_2.wav,,,,,,,,,,,,,,,0,117,117,67,,,,,,,,,,,,,,,,,,,,,,,1137.8044192972593,None,1139.3374349051155,None,1140.7210884131491,None,"womb
",1140.7210884131491,None,return,8.318342173006386,1140.804512226954,None,,,,,,,,,,,,,,,,,,,,,,,,,,,,,,,,,,,,,,,155,001,2024_Jan_24_1350,SpeechDraft1Carolyn_lessNoise_PlusLocalization,2021.2.3,59.90702158599628,
cope.wav,cope.mpg,cope,4,A,Pink_Noise_4_1.wav,Pink_Noise_4_2.wav,,,,,,,,,,,,,,,0,118,118,15,,,,,,,,,,,,,,,,,,,,,,,1149.1545896781608,None,1150.6708854739554,None,1152.0546945151873,None,coat,1152.0546945151873,None,return,2.104954841081053,1152.1379571049474,None,,,,,,,,,,,,,,,,,,,,,,,,,,,,,,,,,,,,,,,155,001,2024_Jan_24_1350,SpeechDraft1Carolyn_lessNoise_PlusLocalization,2021.2.3,59.90702158599628,
grown.wav,grown.mpg,grown,1,AV,Pink_Noise_1_1.wav,Pink_Noise_1_2.wav,,,,,,,,,,,,,,,0,119,119,101,,,,,,,,,,,,,,,,,,,,,,,1154.2710807952099,None,1155.787427432835,None,1157.1710882480256,None,grow,1157.1710882480256,None,return,2.2604455300606787,1157.2543867579661,None,,,,,,,,,,,,,,,,,,,,,,,,,,,,,,,,,,,,,,,155,001,2024_Jan_24_1350,SpeechDraft1Carolyn_lessNoise_PlusLocalization,2021.2.3,59.90702158599628,
,,,,,,,,,,,,,,,,,,,,,,,,,,,,,,,,,,,,,,,,,,,,,,,,,,,,,,,,,,,,,,,,,,space,22.933063608128577,1159.6378515809774,None,,,,,,,,,,,,,,,,,,,,,,,,,,,,,155,001,2024_Jan_24_1350,SpeechDraft1Carolyn_lessNoise_PlusLocalization,2021.2.3,59.90702158599628,
,,,,,,,,midRight,13.0,3,ch1Sound_localizationTask.wav,13.0,"(1142, 878)","(182, -202)",190,-338,,,,,,,,,0,0,0,5,,,,,,,,,,,,,,,,,,,,,,,,,,,,,,,,,,,,,,,,,,1159.6378515809774,None,1182.604333775118,None,1183.7219696869142,None,1184.63754088711,None,1.1470899470899472,3.8362751700915396,1184.63754088711,None,,,,,,,,,,,,,,,,,155,001,2024_Jan_24_1350,SpeechDraft1Carolyn_lessNoise_PlusLocalization,2021.2.3,59.90702158599628,
,,,,,,,,farLeft,-19.1,5,ch1Sound_localizationTask.wav,-19.1,"(667, 878)","(-293,-202)",-285,-338,,,,,,,,,0,1,1,0,,,,,,,,,,,,,,,,,,,,,,,,,,,,,,,,,,,,,,,,,,,,1188.471921233926,None,1189.5708759790286,None,1190.5041452869773,None,1.283068783068783,1.8837968609295785,1190.5041452869773,None,,,,,,,,,,,,,,,,,155,001,2024_Jan_24_1350,SpeechDraft1Carolyn_lessNoise_PlusLocalization,2021.2.3,59.90702158599628,
,,,,,,,,midLeft,-13.0,2,ch1Sound_localizationTask.wav,-13.0,"(762, 878)","(-198,-202)",-190,-338,,,,,,,,,0,2,2,1,,,,,,,,,,,,,,,,,,,,,,,,,,,,,,,,,,,,,,,,,,,,1192.3886406482197,None,1193.4875695621595,None,1194.4209685581736,None,1.3243386243386244,0.7500342717394233,1194.4209685581736,None,,,,,,,,,,,,,,,,,155,001,2024_Jan_24_1350,SpeechDraft1Carolyn_lessNoise_PlusLocalization,2021.2.3,59.90702158599628,
,,,,,,,,nearRight,6.5,0,ch1Sound_localizationTask.wav,6.5,"(1047, 878)","(87, -202)",95,-338,,,,,,,,,0,3,3,4,,,,,,,,,,,,,,,,,,,,,,,,,,,,,,,,,,,,,,,,,,,,1195.1714026941918,None,1196.2708395542577,None,1197.204493931029,None,1.4947089947089947,1.0131641067564487,1197.204493931029,None,,,,,,,,,,,,,,,,,155,001,2024_Jan_24_1350,SpeechDraft1Carolyn_lessNoise_PlusLocalization,2021.2.3,59.90702158599628,
,,,,,,,,midLeft,-13.0,2,ch1Sound_localizationTask.wav,-13.0,"(762, 878)","(-198,-202)",-190,-338,,,,,,,,,0,4,4,1,,,,,,,,,,,,,,,,,,,,,,,,,,,,,,,,,,,,,,,,,,,,1198.2215855731629,None,1199.3207737002522,None,1200.2544070379809,None,1.2962962962962963,1.1150446143001318,1200.2544070379809,None,,,,,,,,,,,,,,,,,155,001,2024_Jan_24_1350,SpeechDraft1Carolyn_lessNoise_PlusLocalization,2021.2.3,59.90702158599628,
,,,,,,,,farRight,19.1,4,ch1Sound_localizationTask.wav,19.1,"(1237, 878)","(277,-202)",285,-338,,,,,,,,,0,5,5,6,,,,,,,,,,,,,,,,,,,,,,,,,,,,,,,,,,,,,,,,,,,,1201.371170538012,None,1202.471173056867,None,1203.404386750888,None,1.7428571428571429,0.6651163580827415,1203.404386750888,None,,,,,,,,,,,,,,,,,155,001,2024_Jan_24_1350,SpeechDraft1Carolyn_lessNoise_PlusLocalization,2021.2.3,59.90702158599628,
,,,,,,,,nearLeft,-6.5,1,ch1Sound_localizationTask.wav,-6.5,"(857, 878)","(-103,-202)",-95,-338,,,,,,,,,0,6,6,2,,,,,,,,,,,,,,,,,,,,,,,,,,,,,,,,,,,,,,,,,,,,1204.0712530352175,None,1205.1709752851166,None,1206.10423050588,None,1.4687830687830687,1.1679087979719043,1206.10423050588,None,,,,,,,,,,,,,,,,,155,001,2024_Jan_24_1350,SpeechDraft1Carolyn_lessNoise_PlusLocalization,2021.2.3,59.90702158599628,
,,,,,,,,farRight,19.1,4,ch1Sound_localizationTask.wav,19.1,"(1237, 878)","(277,-202)",285,-338,,,,,,,,,1,0,7,6,,,,,,,,,,,,,,,,,,,,,,,,,,,,,,,,,,,,,,,,,,,,1207.2879548640922,None,1208.3875000588596,None,1209.3208289942704,None,1.7317460317460318,0.6303747789934278,1209.3208289942704,None,,,,,,,,,,,,,,,,,155,001,2024_Jan_24_1350,SpeechDraft1Carolyn_lessNoise_PlusLocalization,2021.2.3,59.90702158599628,
,,,,,,,,farRight,19.1,4,ch1Sound_localizationTask.wav,19.1,"(1237, 878)","(277,-202)",285,-338,,,,,,,,,1,1,8,6,,,,,,,,,,,,,,,,,,,,,,,,,,,,,,,,,,,,,,,,,,,,1209.9545290009119,None,1211.0544134578668,None,1211.987618192099,None,1.6502645502645503,0.6824848698452115,1211.987618192099,None,,,,,,,,,,,,,,,,,155,001,2024_Jan_24_1350,SpeechDraft1Carolyn_lessNoise_PlusLocalization,2021.2.3,59.90702158599628,
,,,,,,,,farRight,19.1,4,ch1Sound_localizationTask.wav,19.1,"(1237, 878)","(277,-202)",285,-338,,,,,,,,,1,2,9,6,,,,,,,,,,,,,,,,,,,,,,,,,,,,,,,,,,,,,,,,,,,,1212.6720941700041,None,1213.770883818157,None,1214.7042035749182,None,1.602116402116402,0.5823921486735344,1214.7042035749182,None,,,,,,,,,,,,,,,,,155,001,2024_Jan_24_1350,SpeechDraft1Carolyn_lessNoise_PlusLocalization,2021.2.3,59.90702158599628,
,,,,,,,,nearRight,6.5,0,ch1Sound_localizationTask.wav,6.5,"(1047, 878)","(87, -202)",95,-338,,,,,,,,,1,3,10,4,,,,,,,,,,,,,,,,,,,,,,,,,,,,,,,,,,,,,,,,,,,,1215.2879406982102,None,1216.387573517859,None,1217.3209442072548,None,1.507936507936508,0.6493005133233964,1217.3209442072548,None,,,,,,,,,,,,,,,,,155,001,2024_Jan_24_1350,SpeechDraft1Carolyn_lessNoise_PlusLocalization,2021.2.3,59.90702158599628,
,,,,,,,,nearRight,6.5,0,ch1Sound_localizationTask.wav,6.5,"(1047, 878)","(87, -202)",95,-338,,,,,,,,,1,4,11,4,,,,,,,,,,,,,,,,,,,,,,,,,,,,,,,,,,,,,,,,,,,,1217.9711912251078,None,1219.0709448540583,None,1220.004381373059,None,1.529100529100529,0.7325356849469244,1220.004381373059,None,,,,,,,,,,,,,,,,,155,001,2024_Jan_24_1350,SpeechDraft1Carolyn_lessNoise_PlusLocalization,2021.2.3,59.90702158599628,
,,,,,,,,midRight,13.0,3,ch1Sound_localizationTask.wav,13.0,"(1142, 878)","(182, -202)",190,-338,,,,,,,,,1,5,12,5,,,,,,,,,,,,,,,,,,,,,,,,,,,,,,,,,,,,,,,,,,,,1220.7378900530748,None,1221.8376094950363,None,1222.7708326652646,None,1.5164021164021164,0.6333490558899939,1222.7708326652646,None,,,,,,,,,,,,,,,,,155,001,2024_Jan_24_1350,SpeechDraft1Carolyn_lessNoise_PlusLocalization,2021.2.3,59.90702158599628,
,,,,,,,,farLeft,-19.1,5,ch1Sound_localizationTask.wav,-19.1,"(667, 878)","(-293,-202)",-285,-338,,,,,,,,,1,6,13,0,,,,,,,,,,,,,,,,,,,,,,,,,,,,,,,,,,,,,,,,,,,,1223.404753735289,None,1224.5042108641937,None,1225.4375506532378,None,1.270899470899471,1.2329379511065781,1225.4375506532378,None,,,,,,,,,,,,,,,,,155,001,2024_Jan_24_1350,SpeechDraft1Carolyn_lessNoise_PlusLocalization,2021.2.3,59.90702158599628,
,,,,,,,,center,0.0,6,ch1Sound_localizationTask.wav,0.0,"(952, 878)","(-8,-202)",0,-338,,,,,,,,,2,0,14,3,,,,,,,,,,,,,,,,,,,,,,,,,,,,,,,,,,,,,,,,,,,,1226.671516131144,None,1227.7711023762822,None,1228.7043090392835,None,1.4656084656084656,1.1001205290667713,1228.7043090392835,None,,,,,,,,,,,,,,,,,155,001,2024_Jan_24_1350,SpeechDraft1Carolyn_lessNoise_PlusLocalization,2021.2.3,59.90702158599628,
,,,,,,,,center,0.0,6,ch1Sound_localizationTask.wav,0.0,"(952, 878)","(-8,-202)",0,-338,,,,,,,,,2,1,15,3,,,,,,,,,,,,,,,,,,,,,,,,,,,,,,,,,,,,,,,,,,,,1229.8045558170415,None,1230.904258096125,None,1231.8375766151585,None,1.4433862433862434,0.8000322207808495,1231.8375766151585,None,,,,,,,,,,,,,,,,,155,001,2024_Jan_24_1350,SpeechDraft1Carolyn_lessNoise_PlusLocalization,2021.2.3,59.90702158599628,
,,,,,,,,center,0.0,6,ch1Sound_localizationTask.wav,0.0,"(952, 878)","(-8,-202)",0,-338,,,,,,,,,2,2,16,3,,,,,,,,,,,,,,,,,,,,,,,,,,,,,,,,,,,,,,,,,,,,1232.6381197781302,None,1233.7378616258502,None,1234.671123792883,None,1.498941798941799,0.6661662398837507,1234.671123792883,None,,,,,,,,,,,,,,,,,155,001,2024_Jan_24_1350,SpeechDraft1Carolyn_lessNoise_PlusLocalization,2021.2.3,59.90702158599628,
,,,,,,,,nearLeft,-6.5,1,ch1Sound_localizationTask.wav,-6.5,"(857, 878)","(-103,-202)",-95,-338,,,,,,,,,2,3,17,2,,,,,,,,,,,,,,,,,,,,,,,,,,,,,,,,,,,,,,,,,,,,1235.3380124070682,None,1236.4375568912365,None,1237.370924253948,None,1.408994708994709,0.5993934902362525,1237.370924253948,None,,,,,,,,,,,,,,,,,155,001,2024_Jan_24_1350,SpeechDraft1Carolyn_lessNoise_PlusLocalization,2021.2.3,59.90702158599628,
,,,,,,,,midLeft,-13.0,2,ch1Sound_localizationTask.wav,-13.0,"(762, 878)","(-198,-202)",-190,-338,,,,,,,,,2,4,18,1,,,,,,,,,,,,,,,,,,,,,,,,,,,,,,,,,,,,,,,,,,,,1237.9713956718333,None,1239.070984062273,None,1240.0043696998619,None,1.3708994708994708,0.5831983713433146,1240.0043696998619,None,,,,,,,,,,,,,,,,,155,001,2024_Jan_24_1350,SpeechDraft1Carolyn_lessNoise_PlusLocalization,2021.2.3,59.90702158599628,
,,,,,,,,nearLeft,-6.5,1,ch1Sound_localizationTask.wav,-6.5,"(857, 878)","(-103,-202)",-95,-338,,,,,,,,,2,5,19,2,,,,,,,,,,,,,,,,,,,,,,,,,,,,,,,,,,,,,,,,,,,,1240.5877772080712,None,1241.6875452538952,None,1242.6210500719026,None,1.434920634920635,0.6651365179568529,1242.6210500719026,None,,,,,,,,,,,,,,,,,155,001,2024_Jan_24_1350,SpeechDraft1Carolyn_lessNoise_PlusLocalization,2021.2.3,59.90702158599628,
,,,,,,,,center,0.0,6,ch1Sound_localizationTask.wav,0.0,"(952, 878)","(-8,-202)",0,-338,,,,,,,,,2,6,20,3,,,,,,,,,,,,,,,,,,,,,,,,,,,,,,,,,,,,,,,,,,,,1243.2879905682057,None,1244.3877816358581,None,1245.3210241571069,None,1.4608465608465608,0.683623431250453,1245.3210241571069,None,,,,,,,,,,,,,,,,,155,001,2024_Jan_24_1350,SpeechDraft1Carolyn_lessNoise_PlusLocalization,2021.2.3,59.90702158599628,
,,,,,,,,farRight,19.1,4,ch1Sound_localizationTask.wav,19.1,"(1237, 878)","(277,-202)",285,-338,,,,,,,,,3,0,21,6,,,,,,,,,,,,,,,,,,,,,,,,,,,,,,,,,,,,,,,,,,,,1246.0054243290797,None,1247.104281688109,None,1248.0377052831464,None,1.6470899470899472,0.8813467239961028,1248.0377052831464,None,,,,,,,,,,,,,,,,,155,001,2024_Jan_24_1350,SpeechDraft1Carolyn_lessNoise_PlusLocalization,2021.2.3,59.90702158599628,
,,,,,,,,nearLeft,-6.5,1,ch1Sound_localizationTask.wav,-6.5,"(857, 878)","(-103,-202)",-95,-338,,,,,,,,,3,1,22,2,,,,,,,,,,,,,,,,,,,,,,,,,,,,,,,,,,,,,,,,,,,,1248.921276552137,None,1250.0210455758497,None,1250.9542302130722,None,1.4423280423280422,0.8166289557702839,1250.9542302130722,None,,,,,,,,,,,,,,,,,155,001,2024_Jan_24_1350,SpeechDraft1Carolyn_lessNoise_PlusLocalization,2021.2.3,59.90702158599628,
,,,,,,,,nearLeft,-6.5,1,ch1Sound_localizationTask.wav,-6.5,"(857, 878)","(-103,-202)",-95,-338,,,,,,,,,3,2,23,2,,,,,,,,,,,,,,,,,,,,,,,,,,,,,,,,,,,,,,,,,,,,1251.7727210870944,None,1252.8876528302208,None,1253.8043457320891,None,1.4693121693121693,0.7333843316882849,1253.8043457320891,None,,,,,,,,,,,,,,,,,155,001,2024_Jan_24_1350,SpeechDraft1Carolyn_lessNoise_PlusLocalization,2021.2.3,59.90702158599628,
,,,,,,,,midLeft,-13.0,2,ch1Sound_localizationTask.wav,-13.0,"(762, 878)","(-198,-202)",-190,-338,,,,,,,,,3,3,24,1,,,,,,,,,,,,,,,,,,,,,,,,,,,,,,,,,,,,,,,,,,,,1254.538154893089,None,1255.6378097529523,None,1256.570817566011,None,1.4116402116402116,0.6994461938738823,1256.570817566011,None,,,,,,,,,,,,,,,,,155,001,2024_Jan_24_1350,SpeechDraft1Carolyn_lessNoise_PlusLocalization,2021.2.3,59.90702158599628,
,,,,,,,,nearRight,6.5,0,ch1Sound_localizationTask.wav,6.5,"(1047, 878)","(87, -202)",95,-338,,,,,,,,,3,4,25,4,,,,,,,,,,,,,,,,,,,,,,,,,,,,,,,,,,,,,,,,,,,,1257.2712392262183,None,1258.3709270451218,None,1259.3047212208621,None,1.5201058201058202,0.6154128802008927,1259.3047212208621,None,,,,,,,,,,,,,,,,,155,001,2024_Jan_24_1350,SpeechDraft1Carolyn_lessNoise_PlusLocalization,2021.2.3,59.90702158599628,
,,,,,,,,midRight,13.0,3,ch1Sound_localizationTask.wav,13.0,"(1142, 878)","(182, -202)",190,-338,,,,,,,,,3,5,26,5,,,,,,,,,,,,,,,,,,,,,,,,,,,,,,,,,,,,,,,,,,,,1259.9212786778808,None,1261.0209500021301,None,1261.9542328868993,None,1.5148148148148148,1.0827666921541095,1261.9542328868993,None,,,,,,,,,,,,,,,,,155,001,2024_Jan_24_1350,SpeechDraft1Carolyn_lessNoise_PlusLocalization,2021.2.3,59.90702158599628,
,,,,,,,,midRight,13.0,3,ch1Sound_localizationTask.wav,13.0,"(1142, 878)","(182, -202)",190,-338,,,,,,,,,3,6,27,5,,,,,,,,,,,,,,,,,,,,,,,,,,,,,,,,,,,,,,,,,,,,1263.0380517039448,None,1264.1376817189157,None,1265.0710073052905,None,1.535978835978836,0.633124157320708,1265.0710073052905,None,,,,,,,,,,,,,,,,,155,001,2024_Jan_24_1350,SpeechDraft1Carolyn_lessNoise_PlusLocalization,2021.2.3,59.90702158599628,
,,,,,,,,center,0.0,6,ch1Sound_localizationTask.wav,0.0,"(952, 878)","(-8,-202)",0,-338,,,,,,,,,4,0,28,3,,,,,,,,,,,,,,,,,,,,,,,,,,,,,,,,,,,,,,,,,,,,1265.704695940949,None,1266.804430630058,None,1267.7378277308308,None,1.4671957671957672,0.5988970217294991,1267.7378277308308,None,,,,,,,,,,,,,,,,,155,001,2024_Jan_24_1350,SpeechDraft1Carolyn_lessNoise_PlusLocalization,2021.2.3,59.90702158599628,
,,,,,,,,center,0.0,6,ch1Sound_localizationTask.wav,0.0,"(952, 878)","(-8,-202)",0,-338,,,,,,,,,4,1,29,3,,,,,,,,,,,,,,,,,,,,,,,,,,,,,,,,,,,,,,,,,,,,1268.3380394680426,None,1269.4377332450822,None,1270.3712059212849,None,1.4915343915343915,0.5156103381887078,1270.3712059212849,None,,,,,,,,,,,,,,,,,155,001,2024_Jan_24_1350,SpeechDraft1Carolyn_lessNoise_PlusLocalization,2021.2.3,59.90702158599628,
,,,,,,,,nearLeft,-6.5,1,ch1Sound_localizationTask.wav,-6.5,"(857, 878)","(-103,-202)",-95,-338,,,,,,,,,4,2,30,2,,,,,,,,,,,,,,,,,,,,,,,,,,,,,,,,,,,,,,,,,,,,1270.8881082790904,None,1271.987744760234,None,1272.9210070888512,None,1.444973544973545,0.7671413738280535,1272.9210070888512,None,,,,,,,,,,,,,,,,,155,001,2024_Jan_24_1350,SpeechDraft1Carolyn_lessNoise_PlusLocalization,2021.2.3,59.90702158599628,
,,,,,,,,midRight,13.0,3,ch1Sound_localizationTask.wav,13.0,"(1142, 878)","(182, -202)",190,-338,,,,,,,,,4,3,31,5,,,,,,,,,,,,,,,,,,,,,,,,,,,,,,,,,,,,,,,,,,,,1273.6882810839452,None,1274.7876864839345,None,1275.72090373002,None,1.5391534391534392,1.1512401760555804,1275.72090373002,None,,,,,,,,,,,,,,,,,155,001,2024_Jan_24_1350,SpeechDraft1Carolyn_lessNoise_PlusLocalization,2021.2.3,59.90702158599628,
,,,,,,,,midLeft,-13.0,2,ch1Sound_localizationTask.wav,-13.0,"(762, 878)","(-198,-202)",-190,-338,,,,,,,,,4,4,32,1,,,,,,,,,,,,,,,,,,,,,,,,,,,,,,,,,,,,,,,,,,,,1276.888146304991,None,1277.9878037818708,None,1278.9213225990534,None,1.392063492063492,0.981426783837378,1278.9213225990534,None,,,,,,,,,,,,,,,,,155,001,2024_Jan_24_1350,SpeechDraft1Carolyn_lessNoise_PlusLocalization,2021.2.3,59.90702158599628,
,,,,,,,,nearRight,6.5,0,ch1Sound_localizationTask.wav,6.5,"(1047, 878)","(87, -202)",95,-338,,,,,,,,,4,5,33,4,,,,,,,,,,,,,,,,,,,,,,,,,,,,,,,,,,,,,,,,,,,,1279.9049735842273,None,1281.004672518,None,1281.9377519581467,None,1.5275132275132275,0.9165012929588556,1281.9377519581467,None,,,,,,,,,,,,,,,,,155,001,2024_Jan_24_1350,SpeechDraft1Carolyn_lessNoise_PlusLocalization,2021.2.3,59.90702158599628,
,,,,,,,,midLeft,-13.0,2,ch1Sound_localizationTask.wav,-13.0,"(762, 878)","(-198,-202)",-190,-338,,,,,,,,,4,6,34,1,,,,,,,,,,,,,,,,,,,,,,,,,,,,,,,,,,,,,,,,,,,,1282.8548084590584,None,1283.9545807382092,None,1284.8878130582161,None,1.2915343915343915,0.8494568644091487,1284.8878130582161,None,,,,,,,,,,,,,,,,,155,001,2024_Jan_24_1350,SpeechDraft1Carolyn_lessNoise_PlusLocalization,2021.2.3,59.90702158599628,
,,,,,,,,farRight,19.1,4,ch1Sound_localizationTask.wav,19.1,"(1237, 878)","(277,-202)",285,-338,,,,,,,,,5,0,35,6,,,,,,,,,,,,,,,,,,,,,,,,,,,,,,,,,,,,,,,,,,,,1285.7383304270916,None,1286.8376002418809,None,1287.770905612968,None,1.6391534391534393,0.6667265458963811,1287.770905612968,None,,,,,,,,,,,,,,,,,155,001,2024_Jan_24_1350,SpeechDraft1Carolyn_lessNoise_PlusLocalization,2021.2.3,59.90702158599628,
,,,,,,,,midRight,13.0,3,ch1Sound_localizationTask.wav,13.0,"(1142, 878)","(182, -202)",190,-338,,,,,,,,,5,1,36,5,,,,,,,,,,,,,,,,,,,,,,,,,,,,,,,,,,,,,,,,,,,,1288.4382975609042,None,1289.5378638529219,None,1290.4711604989134,None,1.5465608465608467,0.89933698810637,1290.4711604989134,None,,,,,,,,,,,,,,,,,155,001,2024_Jan_24_1350,SpeechDraft1Carolyn_lessNoise_PlusLocalization,2021.2.3,59.90702158599628,
,,,,,,,,midRight,13.0,3,ch1Sound_localizationTask.wav,13.0,"(1142, 878)","(182, -202)",190,-338,,,,,,,,,5,2,37,5,,,,,,,,,,,,,,,,,,,,,,,,,,,,,,,,,,,,,,,,,,,,1291.3714380068704,None,1292.4711158801802,None,1293.4046235028654,None,1.5201058201058202,0.498532225843519,1293.4046235028654,None,,,,,,,,,,,,,,,,,155,001,2024_Jan_24_1350,SpeechDraft1Carolyn_lessNoise_PlusLocalization,2021.2.3,59.90702158599628,
,,,,,,,,farLeft,-19.1,5,ch1Sound_localizationTask.wav,-19.1,"(667, 878)","(-293,-202)",-285,-338,,,,,,,,,5,3,38,0,,,,,,,,,,,,,,,,,,,,,,,,,,,,,,,,,,,,,,,,,,,,1293.9046543999575,None,1295.0042784712277,None,1295.9377214321867,None,1.2153439153439154,1.1502490597777069,1295.9377214321867,None,,,,,,,,,,,,,,,,,155,001,2024_Jan_24_1350,SpeechDraft1Carolyn_lessNoise_PlusLocalization,2021.2.3,59.90702158599628,
,,,,,,,,nearRight,6.5,0,ch1Sound_localizationTask.wav,6.5,"(1047, 878)","(87, -202)",95,-338,,,,,,,,,5,4,39,4,,,,,,,,,,,,,,,,,,,,,,,,,,,,,,,,,,,,,,,,,,,,1297.104602061212,None,1298.204429475125,None,1299.1378268371336,None,1.4962962962962962,0.8153549199923873,1299.1378268371336,None,,,,,,,,,,,,,,,,,155,001,2024_Jan_24_1350,SpeechDraft1Carolyn_lessNoise_PlusLocalization,2021.2.3,59.90702158599628,
,,,,,,,,farLeft,-19.1,5,ch1Sound_localizationTask.wav,-19.1,"(667, 878)","(-293,-202)",-285,-338,,,,,,,,,5,5,40,0,,,,,,,,,,,,,,,,,,,,,,,,,,,,,,,,,,,,,,,,,,,,1299.9547050069086,None,1301.05430058809,None,1301.987800842151,None,1.3164021164021165,1.0993499672040343,1301.987800842151,None,,,,,,,,,,,,,,,,,155,001,2024_Jan_24_1350,SpeechDraft1Carolyn_lessNoise_PlusLocalization,2021.2.3,59.90702158599628,
,,,,,,,,farRight,19.1,4,ch1Sound_localizationTask.wav,19.1,"(1237, 878)","(277,-202)",285,-338,,,,,,,,,5,6,41,6,,,,,,,,,,,,,,,,,,,,,,,,,,,,,,,,,,,,,,,,,,,,1303.0881523480639,None,1304.1879540509544,None,1305.1211557262577,None,1.656084656084656,0.9663079399615526,1305.1211557262577,None,,,,,,,,,,,,,,,,,155,001,2024_Jan_24_1350,SpeechDraft1Carolyn_lessNoise_PlusLocalization,2021.2.3,59.90702158599628,
,,,,,,,,center,0.0,6,ch1Sound_localizationTask.wav,0.0,"(952, 878)","(-8,-202)",0,-338,,,,,,,,,6,0,42,3,,,,,,,,,,,,,,,,,,,,,,,,,,,,,,,,,,,,,,,,,,,,1306.0888546481729,None,1307.1876780739985,None,1308.1210151501,None,1.4957671957671956,0.6501808129251003,1308.1210151501,None,,,,,,,,,,,,,,,,,155,001,2024_Jan_24_1350,SpeechDraft1Carolyn_lessNoise_PlusLocalization,2021.2.3,59.90702158599628,
,,,,,,,,center,0.0,6,ch1Sound_localizationTask.wav,0.0,"(952, 878)","(-8,-202)",0,-338,,,,,,,,,6,1,43,3,,,,,,,,,,,,,,,,,,,,,,,,,,,,,,,,,,,,,,,,,,,,1308.7720100269653,None,1309.8711087722331,None,1310.80464537628,None,1.4825396825396826,0.6982295578345656,1310.80464537628,None,,,,,,,,,,,,,,,,,155,001,2024_Jan_24_1350,SpeechDraft1Carolyn_lessNoise_PlusLocalization,2021.2.3,59.90702158599628,
,,,,,,,,midLeft,-13.0,2,ch1Sound_localizationTask.wav,-13.0,"(762, 878)","(-198,-202)",-190,-338,,,,,,,,,6,2,44,1,,,,,,,,,,,,,,,,,,,,,,,,,,,,,,,,,,,,,,,,,,,,1311.5046928999946,None,1312.60444449028,None,1313.5377278751694,None,1.3867724867724869,0.5817122156731784,1313.5377278751694,None,,,,,,,,,,,,,,,,,155,001,2024_Jan_24_1350,SpeechDraft1Carolyn_lessNoise_PlusLocalization,2021.2.3,59.90702158599628,
,,,,,,,,farLeft,-19.1,5,ch1Sound_localizationTask.wav,-19.1,"(667, 878)","(-293,-202)",-285,-338,,,,,,,,,6,3,45,0,,,,,,,,,,,,,,,,,,,,,,,,,,,,,,,,,,,,,,,,,,,,1314.1213732319884,None,1315.2211693548597,None,1316.1543806078844,None,1.2846560846560846,0.7827945621684194,1316.1543806078844,None,,,,,,,,,,,,,,,,,155,001,2024_Jan_24_1350,SpeechDraft1Carolyn_lessNoise_PlusLocalization,2021.2.3,59.90702158599628,
,,,,,,,,midRight,13.0,3,ch1Sound_localizationTask.wav,13.0,"(1142, 878)","(182, -202)",190,-338,,,,,,,,,6,4,46,5,,,,,,,,,,,,,,,,,,,,,,,,,,,,,,,,,,,,,,,,,,,,1316.9381732870825,None,1318.037667225115,None,1318.9710605642758,None,1.5571428571428572,1.316000649239868,1318.9710605642758,None,,,,,,,,,,,,,,,,,155,001,2024_Jan_24_1350,SpeechDraft1Carolyn_lessNoise_PlusLocalization,2021.2.3,59.90702158599628,
,,,,,,,,farLeft,-19.1,5,ch1Sound_localizationTask.wav,-19.1,"(667, 878)","(-293,-202)",-285,-338,,,,,,,,,6,5,47,0,,,,,,,,,,,,,,,,,,,,,,,,,,,,,,,,,,,,,,,,,,,,1320.2886726111174,None,1321.38766665617,None,1322.3210384109989,None,1.2190476190476192,0.7989617749117315,1322.3210384109989,None,,,,,,,,,,,,,,,,,155,001,2024_Jan_24_1350,SpeechDraft1Carolyn_lessNoise_PlusLocalization,2021.2.3,59.90702158599628,
,,,,,,,,farRight,19.1,4,ch1Sound_localizationTask.wav,19.1,"(1237, 878)","(277,-202)",285,-338,,,,,,,,,6,6,48,6,,,,,,,,,,,,,,,,,,,,,,,,,,,,,,,,,,,,,,,,,,,,1323.1217476190068,None,1324.2214210410602,None,1325.154387557879,None,1.6476190476190475,0.8493336751125753,1325.154387557879,None,,,,,,,,,,,,,,,,,155,001,2024_Jan_24_1350,SpeechDraft1Carolyn_lessNoise_PlusLocalization,2021.2.3,59.90702158599628,
,,,,,,,,nearRight,6.5,0,ch1Sound_localizationTask.wav,6.5,"(1047, 878)","(87, -202)",95,-338,,,,,,,,,7,0,49,4,,,,,,,,,,,,,,,,,,,,,,,,,,,,,,,,,,,,,,,,,,,,1326.004886136856,None,1327.1044312668964,None,1328.0376962269656,None,1.498941798941799,0.8487663599662483,1328.0376962269656,None,,,,,,,,,,,,,,,,,155,001,2024_Jan_24_1350,SpeechDraft1Carolyn_lessNoise_PlusLocalization,2021.2.3,59.90702158599628,
,,,,,,,,farLeft,-19.1,5,ch1Sound_localizationTask.wav,-19.1,"(667, 878)","(-293,-202)",-285,-338,,,,,,,,,7,1,50,0,,,,,,,,,,,,,,,,,,,,,,,,,,,,,,,,,,,,,,,,,,,,1328.8881409922615,None,1329.987754092086,None,1330.9210778288543,None,1.3100529100529101,0.8152205590158701,1330.9210778288543,None,,,,,,,,,,,,,,,,,155,001,2024_Jan_24_1350,SpeechDraft1Carolyn_lessNoise_PlusLocalization,2021.2.3,59.90702158599628,
,,,,,,,,midLeft,-13.0,2,ch1Sound_localizationTask.wav,-13.0,"(762, 878)","(-198,-202)",-190,-338,,,,,,,,,7,2,51,1,,,,,,,,,,,,,,,,,,,,,,,,,,,,,,,,,,,,,,,,,,,,1331.7380015039816,None,1332.8378672502004,None,1333.7712244102731,None,1.3677248677248677,0.6509979860857129,1333.7712244102731,None,,,,,,,,,,,,,,,,,155,001,2024_Jan_24_1350,SpeechDraft1Carolyn_lessNoise_PlusLocalization,2021.2.3,59.90702158599628,
,,,,,,,,farLeft,-19.1,5,ch1Sound_localizationTask.wav,-19.1,"(667, 878)","(-293,-202)",-285,-338,,,,,,,,,7,3,52,0,,,,,,,,,,,,,,,,,,,,,,,,,,,,,,,,,,,,,,,,,,,,1334.438104186207,None,1335.5377925662324,None,1336.4711196259595,None,1.2571428571428571,0.5980433751828969,1336.4711196259595,None,,,,,,,,,,,,,,,,,155,001,2024_Jan_24_1350,SpeechDraft1Carolyn_lessNoise_PlusLocalization,2021.2.3,59.90702158599628,
,,,,,,,,nearLeft,-6.5,1,ch1Sound_localizationTask.wav,-6.5,"(857, 878)","(-103,-202)",-95,-338,,,,,,,,,7,4,53,2,,,,,,,,,,,,,,,,,,,,,,,,,,,,,,,,,,,,,,,,,,,,1337.0714674899355,None,1338.1710811639205,None,1339.1044406262226,None,1.4148148148148147,0.850367384031415,1339.1044406262226,None,,,,,,,,,,,,,,,,,155,001,2024_Jan_24_1350,SpeechDraft1Carolyn_lessNoise_PlusLocalization,2021.2.3,59.90702158599628,
,,,,,,,,nearRight,6.5,0,ch1Sound_localizationTask.wav,6.5,"(1047, 878)","(87, -202)",95,-338,,,,,,,,,7,5,54,4,,,,,,,,,,,,,,,,,,,,,,,,,,,,,,,,,,,,,,,,,,,,1339.9558900599368,None,1341.0712190782651,None,1341.98778988095,None,1.5185185185185186,0.5323373707942665,1341.98778988095,None,,,,,,,,,,,,,,,,,155,001,2024_Jan_24_1350,SpeechDraft1Carolyn_lessNoise_PlusLocalization,2021.2.3,59.90702158599628,
,,,,,,,,nearLeft,-6.5,1,ch1Sound_localizationTask.wav,-6.5,"(857, 878)","(-103,-202)",-95,-338,,,,,,,,,7,6,55,2,,,,,,,,,,,,,,,,,,,,,,,,,,,,,,,,,,,,,,,,,,,,1342.5215411181562,None,1343.6211827858351,None,1344.5543781919405,None,1.4402116402116403,0.549944453407079,1344.5543781919405,None,,,,,,,,,,,,,,,,,155,001,2024_Jan_24_1350,SpeechDraft1Carolyn_lessNoise_PlusLocalization,2021.2.3,59.90702158599628,
,,,,,,,,,,,,,,,,,,,,,,,,,,,,,,,,,,,,,,,,,,,,,,,,,,,,,,,,,,,,,,,,,,,,,,,,,,,,,,,,,,space,11.622702572960407,1345.188146818895,None,,,,,,,,,,,,,155,001,2024_Jan_24_1350,SpeechDraft1Carolyn_lessNoise_PlusLocalization,2021.2.3,59.90702158599628,
,,,,,,,,nearRight,6.5,0,ch1Sound_localizationTask.wav,6.5,"(1047, 878)","(87, -202)",95,-338,,,,,,,,,,,,,0,0,0,4,,,,,,,,,,,,,,,,,,,,,,,,,,,,,,,,,,,,,,,,1356.8544068569317,None,,,1359.8731910772622,None,1.560846560846561,1.6035690042190254,1359.8731910772622,None,,,,,1345.188146818895,None,1357.8547651222907,None,1358.0380841251463,1358.0547500150278,,,,,,,155,001,2024_Jan_24_1350,SpeechDraft1Carolyn_lessNoise_PlusLocalization,2021.2.3,59.90702158599628,
,,,,,,,,farLeft,-19.1,5,ch1Sound_localizationTask.wav,-19.1,"(667, 878)","(-293,-202)",-285,-338,,,,,,,,,,,,,0,1,1,0,,,,,,,,,,,,,,,,,,,,,,,,,,,,,,,,,,,,,,,,1361.4881032849662,None,,,1364.5044007571414,None,1.3507936507936509,0.8159463908523321,1364.5044007571414,None,,,,,,,1362.4881029170938,None,1362.6714079300873,1362.688056705054,,,,,,,155,001,2024_Jan_24_1350,SpeechDraft1Carolyn_lessNoise_PlusLocalization,2021.2.3,59.90702158599628,
,,,,,,,,midLeft,-13.0,2,ch1Sound_localizationTask.wav,-13.0,"(762, 878)","(-198,-202)",-190,-338,,,,,,,,,,,,,0,2,2,1,,,,,,,,,,,,,,,,,,,,,,,,,,,,,,,,,,,,,,,,1365.3217885349877,None,,,1368.3378003151156,None,1.4042328042328043,0.683750316966325,1368.3378003151156,None,,,,,,,1366.3214244311675,None,1366.5047556608915,1366.5215042550117,,,,,,,155,001,2024_Jan_24_1350,SpeechDraft1Carolyn_lessNoise_PlusLocalization,2021.2.3,59.90702158599628,
,,,,,,,,farRight,19.1,4,ch1Sound_localizationTask.wav,19.1,"(1237, 878)","(277,-202)",285,-338,,,,,,,,,,,,,0,3,3,6,,,,,,,,,,,,,,,,,,,,,,,,,,,,,,,,,,,,,,,,1369.0382454721257,None,,,1372.0546679198742,None,1.6603174603174602,0.6325762728229165,1372.0546679198742,None,,,,,,,1370.0380318248644,None,1370.2214490291663,1370.238063049037,,,,,,,155,001,2024_Jan_24_1350,SpeechDraft1Carolyn_lessNoise_PlusLocalization,2021.2.3,59.90702158599628,
,,,,,,,,farRight,19.1,4,ch1Sound_localizationTask.wav,19.1,"(1237, 878)","(277,-202)",285,-338,,,,,,,,,,,,,0,4,4,6,,,,,,,,,,,,,,,,,,,,,,,,,,,,,,,,,,,,,,,,1372.6882438720204,None,,,1375.7044375338592,None,1.6756613756613756,0.8664052537642419,1375.7044375338592,None,,,,,,,1373.6880911760963,None,1373.8713884772733,1373.8880867911503,,,,,,,155,001,2024_Jan_24_1350,SpeechDraft1Carolyn_lessNoise_PlusLocalization,2021.2.3,59.90702158599628,
,,,,,,,,nearLeft,-6.5,1,ch1Sound_localizationTask.wav,-6.5,"(857, 878)","(-103,-202)",-95,-338,,,,,,,,,,,,,0,5,5,2,,,,,,,,,,,,,,,,,,,,,,,,,,,,,,,,,,,,,,,,1376.5719188931398,None,,,1379.5878335451707,None,1.4656084656084656,0.7156608928926289,1379.5878335451707,None,,,,,,,1377.571450916119,None,1377.7547869421542,1377.7714020200074,,,,,,,155,001,2024_Jan_24_1350,SpeechDraft1Carolyn_lessNoise_PlusLocalization,2021.2.3,59.90702158599628,
,,,,,,,,midLeft,-13.0,2,ch1Sound_localizationTask.wav,-13.0,"(762, 878)","(-198,-202)",-190,-338,,,,,,,,,,,,,0,6,6,1,,,,,,,,,,,,,,,,,,,,,,,,,,,,,,,,,,,,,,,,1380.3047763858922,None,,,1383.3211493869312,None,1.4132275132275132,0.8160281362943351,1383.3211493869312,None,,,,,,,1381.3048950051889,None,1381.4881662800908,1381.5048102498986,,,,,,,155,001,2024_Jan_24_1350,SpeechDraft1Carolyn_lessNoise_PlusLocalization,2021.2.3,59.90702158599628,
,,,,,,,,farLeft,-19.1,5,ch1Sound_localizationTask.wav,-19.1,"(667, 878)","(-293,-202)",-285,-338,,,,,,,,,,,,,1,0,7,0,,,,,,,,,,,,,,,,,,,,,,,,,,,,,,,,,,,,,,,,1384.1382113061845,None,,,1387.1544906268828,None,1.3582010582010582,0.9323565289378166,1387.1544906268828,None,,,,,,,1385.138054762967,None,1385.3214813861996,1385.3381149750203,,,,,,,155,001,2024_Jan_24_1350,SpeechDraft1Carolyn_lessNoise_PlusLocalization,2021.2.3,59.90702158599628,
,,,,,,,,farLeft,-19.1,5,ch1Sound_localizationTask.wav,-19.1,"(667, 878)","(-293,-202)",-285,-338,,,,,,,,,,,,,1,1,8,0,,,,,,,,,,,,,,,,,,,,,,,,,,,,,,,,,,,,,,,,1388.0882840598933,None,,,1391.1044959672727,None,1.3391534391534392,0.9167278478853405,1391.1044959672727,None,,,,,,,1389.0881182919256,None,1389.2715155500919,1389.2881452469155,,,,,,,155,001,2024_Jan_24_1350,SpeechDraft1Carolyn_lessNoise_PlusLocalization,2021.2.3,59.90702158599628,
,,,,,,,,nearLeft,-6.5,1,ch1Sound_localizationTask.wav,-6.5,"(857, 878)","(-103,-202)",-95,-338,,,,,,,,,,,,,1,2,9,2,,,,,,,,,,,,,,,,,,,,,,,,,,,,,,,,,,,,,,,,1392.0218017548323,None,,,1395.0378640708514,None,1.4312169312169312,0.5655936473049223,1395.0378640708514,None,,,,,,,1393.021460019052,None,1393.2048176350072,1393.2214399608783,,,,,,,155,001,2024_Jan_24_1350,SpeechDraft1Carolyn_lessNoise_PlusLocalization,2021.2.3,59.90702158599628,
,,,,,,,,nearRight,6.5,0,ch1Sound_localizationTask.wav,6.5,"(1047, 878)","(87, -202)",95,-338,,,,,,,,,,,,,1,3,10,4,,,,,,,,,,,,,,,,,,,,,,,,,,,,,,,,,,,,,,,,1395.6051345332526,None,,,1398.621355463285,None,1.566137566137566,0.9161917641758919,1398.621355463285,None,,,,,,,1396.6048017800786,None,1396.7880909480155,1396.804742198903,,,,,,,155,001,2024_Jan_24_1350,SpeechDraft1Carolyn_lessNoise_PlusLocalization,2021.2.3,59.90702158599628,
,,,,,,,,center,0.0,6,ch1Sound_localizationTask.wav,0.0,"(952, 878)","(-8,-202)",0,-338,,,,,,,,,,,,,1,4,11,3,,,,,,,,,,,,,,,,,,,,,,,,,,,,,,,,,,,,,,,,1399.5382943679579,None,,,1402.5546180689707,None,1.502116402116402,0.9827637271955609,1402.5546180689707,None,,,,,,,1400.5381782972254,None,1400.7216017991304,1400.7381947259419,,,,,,,155,001,2024_Jan_24_1350,SpeechDraft1Carolyn_lessNoise_PlusLocalization,2021.2.3,59.90702158599628,
,,,,,,,,midLeft,-13.0,2,ch1Sound_localizationTask.wav,-13.0,"(762, 878)","(-198,-202)",-190,-338,,,,,,,,,,,,,1,5,12,1,,,,,,,,,,,,,,,,,,,,,,,,,,,,,,,,,,,,,,,,1403.5550205041654,None,,,1406.5712320231833,None,1.408994708994709,0.9831250021234155,1406.5712320231833,None,,,,,,,1404.554957631044,None,1404.7381729711778,1404.754913972225,,,,,,,155,001,2024_Jan_24_1350,SpeechDraft1Carolyn_lessNoise_PlusLocalization,2021.2.3,59.90702158599628,
,,,,,,,,midLeft,-13.0,2,ch1Sound_localizationTask.wav,-13.0,"(762, 878)","(-198,-202)",-190,-338,,,,,,,,,,,,,1,6,13,1,,,,,,,,,,,,,,,,,,,,,,,,,,,,,,,,,,,,,,,,1407.5562040670775,None,,,1410.5878254901618,None,1.4164021164021166,0.9830320277251303,1410.5878254901618,None,,,,,,,1408.5714036272839,None,1408.7548917112872,1408.7714578090236,,,,,,,155,001,2024_Jan_24_1350,SpeechDraft1Carolyn_lessNoise_PlusLocalization,2021.2.3,59.90702158599628,
,,,,,,,,midLeft,-13.0,2,ch1Sound_localizationTask.wav,-13.0,"(762, 878)","(-198,-202)",-190,-338,,,,,,,,,,,,,2,0,14,1,,,,,,,,,,,,,,,,,,,,,,,,,,,,,,,,,,,,,,,,1411.57158021722,None,,,1414.5878788009286,None,1.4164021164021166,0.5665922989137471,1414.5878788009286,None,,,,,,,1412.5716546811163,None,1412.7548566372134,1412.7716892510653,,,,,,,155,001,2024_Jan_24_1350,SpeechDraft1Carolyn_lessNoise_PlusLocalization,2021.2.3,59.90702158599628,
,,,,,,,,farRight,19.1,4,ch1Sound_localizationTask.wav,19.1,"(1237, 878)","(277,-202)",285,-338,,,,,,,,,,,,,2,1,15,6,,,,,,,,,,,,,,,,,,,,,,,,,,,,,,,,,,,,,,,,1415.1548769599758,None,,,1418.1710818791762,None,1.662962962962963,0.7823039600625634,1418.1710818791762,None,,,,,,,1416.154865805991,None,1416.338306767866,1416.3549466030672,,,,,,,155,001,2024_Jan_24_1350,SpeechDraft1Carolyn_lessNoise_PlusLocalization,2021.2.3,59.90702158599628,
,,,,,,,,center,0.0,6,ch1Sound_localizationTask.wav,0.0,"(952, 878)","(-8,-202)",0,-338,,,,,,,,,,,,,2,2,16,3,,,,,,,,,,,,,,,,,,,,,,,,,,,,,,,,,,,,,,,,1418.954833606258,None,,,1421.9711691089906,None,1.5026455026455028,0.9657374592497945,1421.9711691089906,None,,,,,,,1419.954875919968,None,1420.1381904259324,1420.1550430911593,,,,,,,155,001,2024_Jan_24_1350,SpeechDraft1Carolyn_lessNoise_PlusLocalization,2021.2.3,59.90702158599628,
,,,,,,,,midRight,13.0,3,ch1Sound_localizationTask.wav,13.0,"(1142, 878)","(182, -202)",190,-338,,,,,,,,,,,,,2,3,17,5,,,,,,,,,,,,,,,,,,,,,,,,,,,,,,,,,,,,,,,,1422.9384278552607,None,,,1425.9545373851433,None,1.6317460317460317,0.5833250358700752,1425.9545373851433,None,,,,,,,1423.93833177723,None,1424.1215116600506,1424.13811463397,,,,,,,155,001,2024_Jan_24_1350,SpeechDraft1Carolyn_lessNoise_PlusLocalization,2021.2.3,59.90702158599628,
,,,,,,,,midRight,13.0,3,ch1Sound_localizationTask.wav,13.0,"(1142, 878)","(182, -202)",190,-338,,,,,,,,,,,,,2,4,18,5,,,,,,,,,,,,,,,,,,,,,,,,,,,,,,,,,,,,,,,,1426.5384584679268,None,,,1429.5545033342205,None,1.601058201058201,1.183112426660955,1429.5545033342205,None,,,,,,,1427.5381767242216,None,1427.721710564103,1427.7381966691464,,,,,,,155,001,2024_Jan_24_1350,SpeechDraft1Carolyn_lessNoise_PlusLocalization,2021.2.3,59.90702158599628,
,,,,,,,,nearLeft,-6.5,1,ch1Sound_localizationTask.wav,-6.5,"(857, 878)","(-103,-202)",-95,-338,,,,,,,,,,,,,2,5,19,2,,,,,,,,,,,,,,,,,,,,,,,,,,,,,,,,,,,,,,,,1430.7381985369138,None,,,1433.7546159951016,None,1.4687830687830687,0.9989727409556508,1433.7546159951016,None,,,,,,,1431.738222762011,None,1431.9216109132394,1431.9382698060945,,,,,,,155,001,2024_Jan_24_1350,SpeechDraft1Carolyn_lessNoise_PlusLocalization,2021.2.3,59.90702158599628,
,,,,,,,,midRight,13.0,3,ch1Sound_localizationTask.wav,13.0,"(1142, 878)","(182, -202)",190,-338,,,,,,,,,,,,,2,6,20,5,,,,,,,,,,,,,,,,,,,,,,,,,,,,,,,,,,,,,,,,1434.755018494092,None,,,1437.7712851138785,None,1.6148148148148147,0.7319116028957069,1437.7712851138785,None,,,,,,,1435.7549978578463,None,1435.938232557848,1435.95509670116,,,,,,,155,001,2024_Jan_24_1350,SpeechDraft1Carolyn_lessNoise_PlusLocalization,2021.2.3,59.90702158599628,
,,,,,,,,nearLeft,-6.5,1,ch1Sound_localizationTask.wav,-6.5,"(857, 878)","(-103,-202)",-95,-338,,,,,,,,,,,,,3,0,21,2,,,,,,,,,,,,,,,,,,,,,,,,,,,,,,,,,,,,,,,,1438.505038551055,None,,,1441.5212259301916,None,1.456084656084656,0.7335669989697635,1441.5212259301916,None,,,,,,,1439.5050254990347,None,1439.6882329131477,1439.7048651832156,,,,,,,155,001,2024_Jan_24_1350,SpeechDraft1Carolyn_lessNoise_PlusLocalization,2021.2.3,59.90702158599628,
,,,,,,,,farLeft,-19.1,5,ch1Sound_localizationTask.wav,-19.1,"(667, 878)","(-293,-202)",-285,-338,,,,,,,,,,,,,3,1,22,0,,,,,,,,,,,,,,,,,,,,,,,,,,,,,,,,,,,,,,,,1442.2560043591075,None,,,1445.2881944729015,None,1.3783068783068784,0.9996506730094552,1445.2881944729015,None,,,,,,,1443.2716336501762,None,1443.4548814222217,1443.4715448552743,,,,,,,155,001,2024_Jan_24_1350,SpeechDraft1Carolyn_lessNoise_PlusLocalization,2021.2.3,59.90702158599628,
,,,,,,,,midLeft,-13.0,2,ch1Sound_localizationTask.wav,-13.0,"(762, 878)","(-198,-202)",-190,-338,,,,,,,,,,,,,3,2,23,1,,,,,,,,,,,,,,,,,,,,,,,,,,,,,,,,,,,,,,,,1446.2883350690827,None,,,1449.305035206955,None,1.4047619047619047,1.3155727251432836,1449.305035206955,None,,,,,,,1447.2881450708956,None,1447.4714986179024,1447.4883625530638,,,,,,,155,001,2024_Jan_24_1350,SpeechDraft1Carolyn_lessNoise_PlusLocalization,2021.2.3,59.90702158599628,
,,,,,,,,nearRight,6.5,0,ch1Sound_localizationTask.wav,6.5,"(1047, 878)","(87, -202)",95,-338,,,,,,,,,,,,,3,3,24,4,,,,,,,,,,,,,,,,,,,,,,,,,,,,,,,,,,,,,,,,1450.6215954991058,None,,,1453.6379744932055,None,1.5497354497354499,0.9329721261747181,1453.6379744932055,None,,,,,,,1451.6217730739154,None,1451.8048648070544,1451.8217426780611,,,,,,,155,001,2024_Jan_24_1350,SpeechDraft1Carolyn_lessNoise_PlusLocalization,2021.2.3,59.90702158599628,
,,,,,,,,farRight,19.1,4,ch1Sound_localizationTask.wav,19.1,"(1237, 878)","(277,-202)",285,-338,,,,,,,,,,,,,3,4,25,6,,,,,,,,,,,,,,,,,,,,,,,,,,,,,,,,,,,,,,,,1454.5717345220037,None,,,1457.5879508042708,None,1.6444444444444444,1.0326691027730703,1457.5879508042708,None,,,,,,,1455.5715445950627,None,1455.7550173210911,1455.7716026972048,,,,,,,155,001,2024_Jan_24_1350,SpeechDraft1Carolyn_lessNoise_PlusLocalization,2021.2.3,59.90702158599628,
,,,,,,,,midRight,13.0,3,ch1Sound_localizationTask.wav,13.0,"(1142, 878)","(182, -202)",190,-338,,,,,,,,,,,,,3,5,26,5,,,,,,,,,,,,,,,,,,,,,,,,,,,,,,,,,,,,,,,,1458.6215507639572,None,,,1461.6379089248367,None,1.596825396825397,1.2490863632410765,1461.6379089248367,None,,,,,,,1459.6215771939605,None,1459.8050666702911,1459.8216805509292,,,,,,,155,001,2024_Jan_24_1350,SpeechDraft1Carolyn_lessNoise_PlusLocalization,2021.2.3,59.90702158599628,
,,,,,,,,center,0.0,6,ch1Sound_localizationTask.wav,0.0,"(952, 878)","(-8,-202)",0,-338,,,,,,,,,,,,,3,6,27,3,,,,,,,,,,,,,,,,,,,,,,,,,,,,,,,,,,,,,,,,1462.8882465721108,None,,,1465.904634565115,None,1.4978835978835978,1.0501364679075778,1465.904634565115,None,,,,,,,1463.8883376969025,None,1464.071742120199,1464.0883310902864,,,,,,,155,001,2024_Jan_24_1350,SpeechDraft1Carolyn_lessNoise_PlusLocalization,2021.2.3,59.90702158599628,
,,,,,,,,farLeft,-19.1,5,ch1Sound_localizationTask.wav,-19.1,"(667, 878)","(-293,-202)",-285,-338,,,,,,,,,,,,,4,0,28,0,,,,,,,,,,,,,,,,,,,,,,,,,,,,,,,,,,,,,,,,1466.955663842149,None,,,1469.9712851932272,None,1.392063492063492,1.4169972720555961,1469.9712851932272,None,,,,,,,1467.9549373821355,None,1468.1383835519664,1468.1549316151068,,,,,,,155,001,2024_Jan_24_1350,SpeechDraft1Carolyn_lessNoise_PlusLocalization,2021.2.3,59.90702158599628,
,,,,,,,,farLeft,-19.1,5,ch1Sound_localizationTask.wav,-19.1,"(667, 878)","(-293,-202)",-285,-338,,,,,,,,,,,,,4,1,29,0,,,,,,,,,,,,,,,,,,,,,,,,,,,,,,,,,,,,,,,,1471.389080019202,None,,,1474.4046460092068,None,1.3380952380952382,1.0831219041720033,1474.4046460092068,None,,,,,,,1472.3883208320476,None,1472.5716061750427,1472.588430217933,,,,,,,155,001,2024_Jan_24_1350,SpeechDraft1Carolyn_lessNoise_PlusLocalization,2021.2.3,59.90702158599628,
,,,,,,,,nearRight,6.5,0,ch1Sound_localizationTask.wav,6.5,"(1047, 878)","(87, -202)",95,-338,,,,,,,,,,,,,4,2,30,4,,,,,,,,,,,,,,,,,,,,,,,,,,,,,,,,,,,,,,,,1475.4891035459004,None,,,1478.5046837860718,None,1.5566137566137566,1.2327895783819258,1478.5046837860718,None,,,,,,,1476.4884563800879,None,1476.6715721241198,1476.6884314222261,,,,,,,155,001,2024_Jan_24_1350,SpeechDraft1Carolyn_lessNoise_PlusLocalization,2021.2.3,59.90702158599628,
,,,,,,,,midRight,13.0,3,ch1Sound_localizationTask.wav,13.0,"(1142, 878)","(182, -202)",190,-338,,,,,,,,,,,,,4,3,31,5,,,,,,,,,,,,,,,,,,,,,,,,,,,,,,,,,,,,,,,,1479.7386577930301,None,,,1482.7545913988724,None,1.6164021164021163,0.799961790908128,1482.7545913988724,None,,,,,,,1480.7384123061784,None,1480.9217286692,1480.9383965651505,,,,,,,155,001,2024_Jan_24_1350,SpeechDraft1Carolyn_lessNoise_PlusLocalization,2021.2.3,59.90702158599628,
,,,,,,,,midRight,13.0,3,ch1Sound_localizationTask.wav,13.0,"(1142, 878)","(182, -202)",190,-338,,,,,,,,,,,,,4,4,32,5,,,,,,,,,,,,,,,,,,,,,,,,,,,,,,,,,,,,,,,,1483.5551825668663,None,,,1486.5713371778838,None,1.583068783068783,0.9998256000690162,1486.5713371778838,None,,,,,,,1484.5551153752021,None,1484.7382601019926,1484.7550434269942,,,,,,,155,001,2024_Jan_24_1350,SpeechDraft1Carolyn_lessNoise_PlusLocalization,2021.2.3,59.90702158599628,
,,,,,,,,midRight,13.0,3,ch1Sound_localizationTask.wav,13.0,"(1142, 878)","(182, -202)",190,-338,,,,,,,,,,,,,4,5,33,5,,,,,,,,,,,,,,,,,,,,,,,,,,,,,,,,,,,,,,,,1487.571889310144,None,,,1490.588012537919,None,1.5989417989417989,1.0500196032226086,1490.588012537919,None,,,,,,,1488.5715890009888,None,1488.7548462338746,1488.771547514014,,,,,,,155,001,2024_Jan_24_1350,SpeechDraft1Carolyn_lessNoise_PlusLocalization,2021.2.3,59.90702158599628,
,,,,,,,,center,0.0,6,ch1Sound_localizationTask.wav,0.0,"(952, 878)","(-8,-202)",0,-338,,,,,,,,,,,,,4,6,34,3,,,,,,,,,,,,,,,,,,,,,,,,,,,,,,,,,,,,,,,,1491.6384523250163,None,,,1494.6546317902394,None,1.4968253968253968,0.7821426521986723,1494.6546317902394,None,,,,,,,1492.6383594982326,None,1492.8217399269342,1492.8385006822646,,,,,,,155,001,2024_Jan_24_1350,SpeechDraft1Carolyn_lessNoise_PlusLocalization,2021.2.3,59.90702158599628,
,,,,,,,,farRight,19.1,4,ch1Sound_localizationTask.wav,19.1,"(1237, 878)","(277,-202)",285,-338,,,,,,,,,,,,,5,0,35,6,,,,,,,,,,,,,,,,,,,,,,,,,,,,,,,,,,,,,,,,1495.438377683051,None,,,1498.4548436002806,None,1.6666666666666667,1.01554182684049,1498.4548436002806,None,,,,,,,1496.438336702995,None,1496.621738659218,1496.6382720889524,,,,,,,155,001,2024_Jan_24_1350,SpeechDraft1Carolyn_lessNoise_PlusLocalization,2021.2.3,59.90702158599628,
,,,,,,,,center,0.0,6,ch1Sound_localizationTask.wav,0.0,"(952, 878)","(-8,-202)",0,-338,,,,,,,,,,,,,5,1,36,3,,,,,,,,,,,,,,,,,,,,,,,,,,,,,,,,,,,,,,,,1499.4717038809322,None,,,1502.4879969581962,None,1.502116402116402,0.8661421509459615,1502.4879969581962,None,,,,,,,1500.4717964180745,None,1500.6551425522193,1500.6717648352496,,,,,,,155,001,2024_Jan_24_1350,SpeechDraft1Carolyn_lessNoise_PlusLocalization,2021.2.3,59.90702158599628,
,,,,,,,,nearLeft,-6.5,1,ch1Sound_localizationTask.wav,-6.5,"(857, 878)","(-103,-202)",-95,-338,,,,,,,,,,,,,5,2,37,2,,,,,,,,,,,,,,,,,,,,,,,,,,,,,,,,,,,,,,,,1503.3550983881578,None,,,1506.3715337859467,None,1.4703703703703703,0.8670337568037212,1506.3715337859467,None,,,,,,,1504.3549125599675,None,1504.5385801722296,1504.5548996790312,,,,,,,155,001,2024_Jan_24_1350,SpeechDraft1Carolyn_lessNoise_PlusLocalization,2021.2.3,59.90702158599628,
,,,,,,,,center,0.0,6,ch1Sound_localizationTask.wav,0.0,"(952, 878)","(-8,-202)",0,-338,,,,,,,,,,,,,5,3,38,3,,,,,,,,,,,,,,,,,,,,,,,,,,,,,,,,,,,,,,,,1507.254965819884,None,,,1510.2713511511683,None,1.5026455026455028,0.8493092320859432,1510.2713511511683,None,,,,,,,1508.2549484269693,None,1508.438413633965,1508.455192765221,,,,,,,155,001,2024_Jan_24_1350,SpeechDraft1Carolyn_lessNoise_PlusLocalization,2021.2.3,59.90702158599628,
,,,,,,,,farRight,19.1,4,ch1Sound_localizationTask.wav,19.1,"(1237, 878)","(277,-202)",285,-338,,,,,,,,,,,,,5,4,39,6,,,,,,,,,,,,,,,,,,,,,,,,,,,,,,,,,,,,,,,,1511.1215874748304,None,,,1514.13794866018,None,1.6603174603174602,1.0829807501286268,1514.13794866018,None,,,,,,,1512.1216454701498,None,1512.3050738531165,1512.3218434932642,,,,,,,155,001,2024_Jan_24_1350,SpeechDraft1Carolyn_lessNoise_PlusLocalization,2021.2.3,59.90702158599628,
,,,,,,,,farLeft,-19.1,5,ch1Sound_localizationTask.wav,-19.1,"(667, 878)","(-293,-202)",-285,-338,,,,,,,,,,,,,5,5,40,0,,,,,,,,,,,,,,,,,,,,,,,,,,,,,,,,,,,,,,,,1515.2216554940678,None,,,1518.2380749392323,None,1.3518518518518519,0.9338357509113848,1518.2380749392323,None,,,,,,,1516.2216829159297,None,1516.4051337419078,1516.4218350131996,,,,,,,155,001,2024_Jan_24_1350,SpeechDraft1Carolyn_lessNoise_PlusLocalization,2021.2.3,59.90702158599628,
,,,,,,,,center,0.0,6,ch1Sound_localizationTask.wav,0.0,"(952, 878)","(-8,-202)",0,-338,,,,,,,,,,,,,5,6,41,3,,,,,,,,,,,,,,,,,,,,,,,,,,,,,,,,,,,,,,,,1519.1729543572292,None,,,1522.204868788831,None,1.5026455026455028,0.9659568299539387,1522.204868788831,None,,,,,,,1520.1883175158873,None,1520.3716933480464,1520.3885307018645,,,,,,,155,001,2024_Jan_24_1350,SpeechDraft1Carolyn_lessNoise_PlusLocalization,2021.2.3,59.90702158599628,
,,,,,,,,midLeft,-13.0,2,ch1Sound_localizationTask.wav,-13.0,"(762, 878)","(-198,-202)",-190,-338,,,,,,,,,,,,,6,0,42,1,,,,,,,,,,,,,,,,,,,,,,,,,,,,,,,,,,,,,,,,1523.1716196001507,None,,,1526.1880950462073,None,1.3915343915343916,0.7831785869784653,1526.1880950462073,None,,,,,,,1524.1717591132037,None,1524.3551728161983,1524.3716542720795,,,,,,,155,001,2024_Jan_24_1350,SpeechDraft1Carolyn_lessNoise_PlusLocalization,2021.2.3,59.90702158599628,
,,,,,,,,farRight,19.1,4,ch1Sound_localizationTask.wav,19.1,"(1237, 878)","(277,-202)",285,-338,,,,,,,,,,,,,6,1,43,6,,,,,,,,,,,,,,,,,,,,,,,,,,,,,,,,,,,,,,,,1526.971915568225,None,,,1529.9881567102857,None,1.6423280423280424,1.032529246993363,1529.9881567102857,None,,,,,,,1527.971629165113,None,1528.1550333788618,1528.171772846952,,,,,,,155,001,2024_Jan_24_1350,SpeechDraft1Carolyn_lessNoise_PlusLocalization,2021.2.3,59.90702158599628,
,,,,,,,,nearLeft,-6.5,1,ch1Sound_localizationTask.wav,-6.5,"(857, 878)","(-103,-202)",-95,-338,,,,,,,,,,,,,6,2,44,2,,,,,,,,,,,,,,,,,,,,,,,,,,,,,,,,,,,,,,,,1531.0218770341016,None,,,1534.0381255112588,None,1.4455026455026454,0.615803075954318,1534.0381255112588,None,,,,,,,1532.0216339170001,None,1532.2051294329576,1532.2216502348892,,,,,,,155,001,2024_Jan_24_1350,SpeechDraft1Carolyn_lessNoise_PlusLocalization,2021.2.3,59.90702158599628,
,,,,,,,,nearRight,6.5,0,ch1Sound_localizationTask.wav,6.5,"(1047, 878)","(87, -202)",95,-338,,,,,,,,,,,,,6,3,45,4,,,,,,,,,,,,,,,,,,,,,,,,,,,,,,,,,,,,,,,,1534.655480551999,None,,,1537.6712987022474,None,1.601058201058201,0.8331942339427769,1537.6712987022474,None,,,,,,,1535.6549976980314,None,1535.838469453156,1535.8552547921427,,,,,,,155,001,2024_Jan_24_1350,SpeechDraft1Carolyn_lessNoise_PlusLocalization,2021.2.3,59.90702158599628,
,,,,,,,,nearLeft,-6.5,1,ch1Sound_localizationTask.wav,-6.5,"(857, 878)","(-103,-202)",-95,-338,,,,,,,,,,,,,6,4,46,2,,,,,,,,,,,,,,,,,,,,,,,,,,,,,,,,,,,,,,,,1538.5060311909765,None,,,1541.5381444082595,None,1.4661375661375662,0.7320111850276589,1541.5381444082595,None,,,,,,,1539.5216902368702,None,1539.7051012618467,1539.7217729929835,,,,,,,155,001,2024_Jan_24_1350,SpeechDraft1Carolyn_lessNoise_PlusLocalization,2021.2.3,59.90702158599628,
,,,,,,,,midRight,13.0,3,ch1Sound_localizationTask.wav,13.0,"(1142, 878)","(182, -202)",190,-338,,,,,,,,,,,,,6,5,47,5,,,,,,,,,,,,,,,,,,,,,,,,,,,,,,,,,,,,,,,,1542.2717944649048,None,,,1545.2881903001107,None,1.5957671957671957,0.7195745082572103,1545.2881903001107,None,,,,,,,1543.2716720048338,None,1543.455197952222,1543.4717891849577,,,,,,,155,001,2024_Jan_24_1350,SpeechDraft1Carolyn_lessNoise_PlusLocalization,2021.2.3,59.90702158599628,
,,,,,,,,nearLeft,-6.5,1,ch1Sound_localizationTask.wav,-6.5,"(857, 878)","(-103,-202)",-95,-338,,,,,,,,,,,,,6,6,48,2,,,,,,,,,,,,,,,,,,,,,,,,,,,,,,,,,,,,,,,,1546.0222274078988,None,,,1549.0381411612034,None,1.4650793650793652,0.6827039932832122,1549.0381411612034,None,,,,,,,1547.0216140109114,None,1547.2051814929582,1547.2217651330866,,,,,,,155,001,2024_Jan_24_1350,SpeechDraft1Carolyn_lessNoise_PlusLocalization,2021.2.3,59.90702158599628,
,,,,,,,,nearRight,6.5,0,ch1Sound_localizationTask.wav,6.5,"(1047, 878)","(87, -202)",95,-338,,,,,,,,,,,,,7,0,49,4,,,,,,,,,,,,,,,,,,,,,,,,,,,,,,,,,,,,,,,,1549.7218847279437,None,,,1552.7381552262232,None,1.5576719576719578,0.5653092451393604,1552.7381552262232,None,,,,,,,1550.7216911320575,None,1550.9051206130534,1550.9218440200202,,,,,,,155,001,2024_Jan_24_1350,SpeechDraft1Carolyn_lessNoise_PlusLocalization,2021.2.3,59.90702158599628,
,,,,,,,,center,0.0,6,ch1Sound_localizationTask.wav,0.0,"(952, 878)","(-8,-202)",0,-338,,,,,,,,,,,,,7,1,50,3,,,,,,,,,,,,,,,,,,,,,,,,,,,,,,,,,,,,,,,,1553.3053494691849,None,,,1556.3212526002899,None,1.498941798941799,0.7160916607826948,1556.3212526002899,None,,,,,,,1554.305050762836,None,1554.4884568098933,1554.5050381482579,,,,,,,155,001,2024_Jan_24_1350,SpeechDraft1Carolyn_lessNoise_PlusLocalization,2021.2.3,59.90702158599628,
,,,,,,,,farRight,19.1,4,ch1Sound_localizationTask.wav,19.1,"(1237, 878)","(277,-202)",285,-338,,,,,,,,,,,,,7,2,51,6,,,,,,,,,,,,,,,,,,,,,,,,,,,,,,,,,,,,,,,,1557.038480500225,None,,,1560.0547356652096,None,1.6470899470899472,0.8994686300866306,1560.0547356652096,None,,,,,,,1558.0384578872472,None,1558.2216767189093,1558.2383792418987,,,,,,,155,001,2024_Jan_24_1350,SpeechDraft1Carolyn_lessNoise_PlusLocalization,2021.2.3,59.90702158599628,
,,,,,,,,farLeft,-19.1,5,ch1Sound_localizationTask.wav,-19.1,"(667, 878)","(-293,-202)",-285,-338,,,,,,,,,,,,,7,3,52,0,,,,,,,,,,,,,,,,,,,,,,,,,,,,,,,,,,,,,,,,1560.9552972461097,None,,,1563.97159078205,None,1.355026455026455,0.983015681616962,1563.97159078205,None,,,,,,,1561.9551974679343,None,1562.1383836902678,1562.1551539362408,,,,,,,155,001,2024_Jan_24_1350,SpeechDraft1Carolyn_lessNoise_PlusLocalization,2021.2.3,59.90702158599628,
,,,,,,,,nearRight,6.5,0,ch1Sound_localizationTask.wav,6.5,"(1047, 878)","(87, -202)",95,-338,,,,,,,,,,,,,7,4,53,4,,,,,,,,,,,,,,,,,,,,,,,,,,,,,,,,,,,,,,,,1564.9549941308796,None,,,1567.971567068249,None,1.541798941798942,0.8995371181517839,1567.971567068249,None,,,,,,,1565.9551818021573,None,1566.1383421812207,1566.1551216249354,,,,,,,155,001,2024_Jan_24_1350,SpeechDraft1Carolyn_lessNoise_PlusLocalization,2021.2.3,59.90702158599628,
,,,,,,,,midLeft,-13.0,2,ch1Sound_localizationTask.wav,-13.0,"(762, 878)","(-198,-202)",-190,-338,,,,,,,,,,,,,7,5,54,1,,,,,,,,,,,,,,,,,,,,,,,,,,,,,,,,,,,,,,,,1568.8725854251534,None,,,1571.888034494128,None,1.403174603174603,0.7159383459948003,1571.888034494128,None,,,,,,,1569.871680045966,None,1570.0552421011962,1570.0718471659347,,,,,,,155,001,2024_Jan_24_1350,SpeechDraft1Carolyn_lessNoise_PlusLocalization,2021.2.3,59.90702158599628,
,,,,,,,,nearRight,6.5,0,ch1Sound_localizationTask.wav,6.5,"(1047, 878)","(87, -202)",95,-338,,,,,,,,,,,,,7,6,55,4,,,,,,,,,,,,,,,,,,,,,,,,,,,,,,,,,,,,,,,,1572.605368998833,None,,,1575.6214055172168,None,1.5476190476190477,0.7330520739778876,1575.6214055172168,None,,,,,,,1573.605309213046,None,1573.7885912670754,1573.8052420872264,,,,,,,155,001,2024_Jan_24_1350,SpeechDraft1Carolyn_lessNoise_PlusLocalization,2021.2.3,59.90702158599628,
,,,,,,,,,,,,,,,,,,,,,,,,,,,,,,,,,,,,,,,,,,,,,,,,,,,,,,,,,,,,,,,,,,,,,,,,,,,,,,,,,,,,,,,,,,,,1576.355244626291,None,c,345.536631221883,1577.3383272788487,None,155,001,2024_Jan_24_1350,SpeechDraft1Carolyn_lessNoise_PlusLocalization,2021.2.3,59.90702158599628,
