Audio_Only_Files,Video_Files,Original_Word_List,noiseLevelCode,conditionCodes,noiseLevelFile1,noiseLevelFile2,InstrTextVar,targetSpeakerName,targetSpeakerEccen,targetSpkrChannel,targetSpkrSound,targetVisualDegrees,visStimLoc,visStimLoc2,visStimW,visStimH,practiceTrials.thisRepN,practiceTrials.thisTrialN,practiceTrials.thisN,practiceTrials.thisIndex,trials.thisRepN,trials.thisTrialN,trials.thisN,trials.thisIndex,audLocalLoop.thisRepN,audLocalLoop.thisTrialN,audLocalLoop.thisN,audLocalLoop.thisIndex,visualLocalLoop.thisRepN,visualLocalLoop.thisTrialN,visualLocalLoop.thisN,visualLocalLoop.thisIndex,letsGoAlready.keys,letsGoAlready.rt,letsGoAlready.started,letsGoAlready.stopped,text_2.started,text_2.stopped,text_3.started,text_3.stopped,key_resp_2.keys,key_resp_2.rt,key_resp_2.started,key_resp_2.stopped,text_5.started,text_5.stopped,fixCross.started,fixCross.stopped,fixCross2.started,fixCross2.stopped,answerPrompt.started,answerPrompt.stopped,getAnswer.text,getAnswer.started,getAnswer.stopped,goToNext.keys,goToNext.rt,goToNext.started,goToNext.stopped,stretchBreakTxrt.started,stretchBreakTxrt.stopped,key_resp_3.keys,key_resp_3.rt,key_resp_3.started,key_resp_3.stopped,letsGoLocal.keys,letsGoLocal.rt,letsGoLocal.started,letsGoLocal.stopped,text_4.started,text_4.stopped,prepFixTxt.started,prepFixTxt.stopped,prepFixTxt_2.started,prepFixTxt_2.stopped,respPromptLocal.started,respPromptLocal.stopped,slider.response,slider.rt,slider.started,slider.stopped,letsGoLocal_2.keys,letsGoLocal_2.rt,letsGoLocal_2.started,letsGoLocal_2.stopped,text_7.started,text_7.stopped,prepFixTxt_3.started,prepFixTxt_3.stopped,grating.started,grating.stopped,exitTxt.started,exitTxt.stopped,key_resp.keys,key_resp.rt,key_resp.started,key_resp.stopped,participant,session,date,expName,psychopyVersion,frameRate,
,,,,,,,,,,,,,,,,,,,,,,,,,,,,,,,,,space,170.54935045633465,17.299495744053274,None,,,,,,,,,,,,,,,,,,,,,,,,,,,,,,,,,,,,,,,,,,,,,,,,,,,,,,,,,,,,,,156,001,2024_Jan_25_1606,SpeechDraft1Carolyn_lessNoise_PlusLocalization,2021.2.3,60.014858981781515,
,,,,,,,,,,,,,,,,,,,,,,,,,,,,,,,,,,,,,17.299495744053274,None,187.98118716990575,None,space,2.1639970121905208,188.1648336877115,None,,,,,,,,,,,,,,,,,,,,,,,,,,,,,,,,,,,,,,,,,,,,,,,,,,,,,,156,001,2024_Jan_25_1606,SpeechDraft1Carolyn_lessNoise_PlusLocalization,2021.2.3,60.014858981781515,
ash.wav,ash.mpg,ash,1,A,Pink_Noise_1_1.wav,Pink_Noise_1_2.wav,"This is an example of an

AUDIO trial",,,,,,,,,,0,0,0,0,,,,,,,,,,,,,,,,,,,,,,,,,190.36609476571903,None,191.36480695195496,None,194.5810914579779,None,195.9814207679592,None,"ash
",195.9814207679592,None,return,4.567980023100972,196.0648725698702,None,,,,,,,,,,,,,,,,,,,,,,,,,,,,,,,,,,,,,,,156,001,2024_Jan_25_1606,SpeechDraft1Carolyn_lessNoise_PlusLocalization,2021.2.3,60.014858981781515,
ash.wav,ash.mpg,ash,1,AV,Pink_Noise_1_1.wav,Pink_Noise_1_2.wav,"This is an example of an

AUDIO + VIDEO  trial",,,,,,,,,,0,1,1,1,,,,,,,,,,,,,,,,,,,,,,,,,200.68122550705448,None,201.68149506486952,None,203.16656693071127,None,204.54815103299916,None,ash,204.54815103299916,None,return,2.0654552369378507,204.6315121478401,None,,,,,,,,,,,,,,,,,,,,,,,,,,,,,,,,,,,,,,,156,001,2024_Jan_25_1606,SpeechDraft1Carolyn_lessNoise_PlusLocalization,2021.2.3,60.014858981781515,
,,,,,,,,,,,,,,,,,,,,,,,,,,,,,,,,,,,,,,,,,,,,,,,,,,,,,,,,,,,,206.73119615297765,None,space,10.005927042104304,206.9149052738212,None,,,,,,,,,,,,,,,,,,,,,,,,,,,,,,,,,156,001,2024_Jan_25_1606,SpeechDraft1Carolyn_lessNoise_PlusLocalization,2021.2.3,60.014858981781515,
cloak.wav,cloak.mpg,cloak,4,AV,Pink_Noise_4_1.wav,Pink_Noise_4_2.wav,,,,,,,,,,,,,,,0,0,0,98,,,,,,,,,,,,,,,,,,,,,,,216.98117727367207,None,218.4647035188973,None,219.84814793197438,None,cple,219.84814793197438,None,return,2.8773170430213213,219.93150884006172,None,,,,,,,,,,,,,,,,,,,,,,,,,,,,,,,,,,,,,,,156,001,2024_Jan_25_1606,SpeechDraft1Carolyn_lessNoise_PlusLocalization,2021.2.3,60.014858981781515,
blank.wav,blank.mpg,blank,2,A,Pink_Noise_2_1.wav,Pink_Noise_2_2.wav,,,,,,,,,,,,,,,0,1,1,42,,,,,,,,,,,,,,,,,,,,,,,222.8315472798422,None,224.33118202676997,None,225.71482684696093,None,blank,225.71482684696093,None,return,3.4585799598135054,225.7982660178095,None,,,,,,,,,,,,,,,,,,,,,,,,,,,,,,,,,,,,,,,156,001,2024_Jan_25_1606,SpeechDraft1Carolyn_lessNoise_PlusLocalization,2021.2.3,60.014858981781515,
chant.wav,chant.mpg,chant,5,A,Pink_Noise_5_1.wav,Pink_Noise_5_2.wav,,,,,,,,,,,,,,,0,2,2,12,,,,,,,,,,,,,,,,,,,,,,,229.28151329187676,None,230.78123608790338,None,232.1649078237824,None,change,232.1649078237824,None,return,2.464591551106423,232.24827151978388,None,,,,,,,,,,,,,,,,,,,,,,,,,,,,,,,,,,,,,,,156,001,2024_Jan_25_1606,SpeechDraft1Carolyn_lessNoise_PlusLocalization,2021.2.3,60.014858981781515,
crack.wav,crack.mpg,crack,4,AV,Pink_Noise_4_1.wav,Pink_Noise_4_2.wav,,,,,,,,,,,,,,,0,3,3,119,,,,,,,,,,,,,,,,,,,,,,,234.73154507484287,None,236.2166331866756,None,237.59812223399058,None,"crack
",237.59812223399058,None,return,5.167238501831889,237.6816040277481,None,,,,,,,,,,,,,,,,,,,,,,,,,,,,,,,,,,,,,,,156,001,2024_Jan_25_1606,SpeechDraft1Carolyn_lessNoise_PlusLocalization,2021.2.3,60.014858981781515,
coup.wav,coup.mpg,coup,5,A,Pink_Noise_5_1.wav,Pink_Noise_5_2.wav,,,,,,,,,,,,,,,0,4,4,9,,,,,,,,,,,,,,,,,,,,,,,242.8815007726662,None,244.38125838479027,None,245.76493838895112,None,food,245.76493838895112,None,return,3.2806314011104405,245.84822954563424,None,,,,,,,,,,,,,,,,,,,,,,,,,,,,,,,,,,,,,,,156,001,2024_Jan_25_1606,SpeechDraft1Carolyn_lessNoise_PlusLocalization,2021.2.3,60.014858981781515,
teen.wav,teen.mpg,teen,4,A,Pink_Noise_4_1.wav,Pink_Noise_4_2.wav,,,,,,,,,,,,,,,0,5,5,29,,,,,,,,,,,,,,,,,,,,,,,249.148230812978,None,250.648037168663,None,252.03156977891922,None,chilli,252.03156977891922,None,return,2.5820523239672184,252.11492202803493,None,,,,,,,,,,,,,,,,,,,,,,,,,,,,,,,,,,,,,,,156,001,2024_Jan_25_1606,SpeechDraft1Carolyn_lessNoise_PlusLocalization,2021.2.3,60.014858981781515,
drill.wav,drill.mpg,drill,1,A,Pink_Noise_1_1.wav,Pink_Noise_1_2.wav,,,,,,,,,,,,,,,0,6,6,51,,,,,,,,,,,,,,,,,,,,,,,254.71489748405293,None,256.1981691340916,None,257.5816227486357,None,drill,257.5816227486357,None,return,3.559872617945075,257.66500037908554,None,,,,,,,,,,,,,,,,,,,,,,,,,,,,,,,,,,,,,,,156,001,2024_Jan_25_1606,SpeechDraft1Carolyn_lessNoise_PlusLocalization,2021.2.3,60.014858981781515,
ease.wav,ease.mpg,ease,3,AV,Pink_Noise_3_1.wav,Pink_Noise_3_2.wav,,,,,,,,,,,,,,,0,7,7,114,,,,,,,,,,,,,,,,,,,,,,,261.2482145978138,None,262.74816971691325,None,264.13152930606157,None,ease,264.13152930606157,None,return,2.7538514877669513,264.2149656149559,None,,,,,,,,,,,,,,,,,,,,,,,,,,,,,,,,,,,,,,,156,001,2024_Jan_25_1606,SpeechDraft1Carolyn_lessNoise_PlusLocalization,2021.2.3,60.014858981781515,
chess.wav,chess.mpg,chess,5,A,Pink_Noise_5_1.wav,Pink_Noise_5_2.wav,,,,,,,,,,,,,,,0,8,8,22,,,,,,,,,,,,,,,,,,,,,,,266.99841519491747,None,268.4980105939321,None,269.8816075697541,None,chelsaea,269.8816075697541,None,return,3.16392665123567,269.96498527470976,None,,,,,,,,,,,,,,,,,,,,,,,,,,,,,,,,,,,,,,,156,001,2024_Jan_25_1606,SpeechDraft1Carolyn_lessNoise_PlusLocalization,2021.2.3,60.014858981781515,
cap.wav,cap.mpg,cap,1,AV,Pink_Noise_1_1.wav,Pink_Noise_1_2.wav,,,,,,,,,,,,,,,0,9,9,61,,,,,,,,,,,,,,,,,,,,,,,273.1482578967698,None,274.64801585208625,None,276.0316364709288,None,cap,276.0316364709288,None,return,2.364671709947288,276.1162721547298,None,,,,,,,,,,,,,,,,,,,,,,,,,,,,,,,,,,,,,,,156,001,2024_Jan_25_1606,SpeechDraft1Carolyn_lessNoise_PlusLocalization,2021.2.3,60.014858981781515,
leapt.wav,leapt.mpg,leapt,5,AV,Pink_Noise_5_1.wav,Pink_Noise_5_2.wav,,,,,,,,,,,,,,,0,10,10,100,,,,,,,,,,,,,,,,,,,,,,,278.4982754709199,None,279.9979176898487,None,281.3815883686766,None,"s;e[t
",281.3815883686766,None,return,5.751793411094695,281.4650661498308,None,,,,,,,,,,,,,,,,,,,,,,,,,,,,,,,,,,,,,,,156,001,2024_Jan_25_1606,SpeechDraft1Carolyn_lessNoise_PlusLocalization,2021.2.3,60.014858981781515,
count.wav,count.mpg,count,6,A,Pink_Noise_6_1.wav,Pink_Noise_6_2.wav,,,,,,,,,,,,,,,0,11,11,1,,,,,,,,,,,,,,,,,,,,,,,287.2482418678701,None,288.7479410949163,None,290.1316181938164,None,snaol,290.1316181938164,None,return,1.825862674973905,290.2150190109387,None,,,,,,,,,,,,,,,,,,,,,,,,,,,,,,,,,,,,,,,156,001,2024_Jan_25_1606,SpeechDraft1Carolyn_lessNoise_PlusLocalization,2021.2.3,60.014858981781515,
fed.wav,fed.mpg,fed,6,AV,Pink_Noise_6_1.wav,Pink_Noise_6_2.wav,,,,,,,,,,,,,,,0,12,12,75,,,,,,,,,,,,,,,,,,,,,,,292.0649640718475,None,293.5646826508455,None,294.94824687065557,None,fake,294.94824687065557,None,return,11.409149766433984,295.0316796428524,None,,,,,,,,,,,,,,,,,,,,,,,,,,,,,,,,,,,,,,,156,001,2024_Jan_25_1606,SpeechDraft1Carolyn_lessNoise_PlusLocalization,2021.2.3,60.014858981781515,
bow.wav,bow.mpg,bow,4,AV,Pink_Noise_4_1.wav,Pink_Noise_4_2.wav,,,,,,,,,,,,,,,0,13,13,101,,,,,,,,,,,,,,,,,,,,,,,306.4652625527233,None,307.9647528519854,None,309.3483651219867,None,bow,309.3483651219867,None,return,2.321160590276122,309.4316739849746,None,,,,,,,,,,,,,,,,,,,,,,,,,,,,,,,,,,,,,,,156,001,2024_Jan_25_1606,SpeechDraft1Carolyn_lessNoise_PlusLocalization,2021.2.3,60.014858981781515,
guilt.wav,guilt.mpg,guilt,3,AV,Pink_Noise_3_1.wav,Pink_Noise_3_2.wav,,,,,,,,,,,,,,,0,14,14,70,,,,,,,,,,,,,,,,,,,,,,,311.7816639309749,None,313.2814228050411,None,314.6648773099296,None,guilt,314.6648773099296,None,return,2.580606576986611,314.7483110069297,None,,,,,,,,,,,,,,,,,,,,,,,,,,,,,,,,,,,,,,,156,001,2024_Jan_25_1606,SpeechDraft1Carolyn_lessNoise_PlusLocalization,2021.2.3,60.014858981781515,
fad.wav,fad.mpg,fad,4,AV,Pink_Noise_4_1.wav,Pink_Noise_4_2.wav,,,,,,,,,,,,,,,0,15,15,97,,,,,,,,,,,,,,,,,,,,,,,317.348453017883,None,318.84806868992746,None,320.2316187839024,None,gat,320.2316187839024,None,return,2.6458519687876105,320.3149803369306,None,,,,,,,,,,,,,,,,,,,,,,,,,,,,,,,,,,,,,,,156,001,2024_Jan_25_1606,SpeechDraft1Carolyn_lessNoise_PlusLocalization,2021.2.3,60.014858981781515,
greek.wav,greek.mpg,greek,5,AV,Pink_Noise_5_1.wav,Pink_Noise_5_2.wav,,,,,,,,,,,,,,,0,16,16,111,,,,,,,,,,,,,,,,,,,,,,,322.98174012778327,None,324.4813981070183,None,325.8651155079715,None,"creek
",325.8651155079715,None,return,2.684463317040354,325.9483876316808,None,,,,,,,,,,,,,,,,,,,,,,,,,,,,,,,,,,,,,,,156,001,2024_Jan_25_1606,SpeechDraft1Carolyn_lessNoise_PlusLocalization,2021.2.3,60.014858981781515,
feast.wav,feast.mpg,feast,2,AV,Pink_Noise_2_1.wav,Pink_Noise_2_2.wav,,,,,,,,,,,,,,,0,17,17,68,,,,,,,,,,,,,,,,,,,,,,,328.66505904868245,None,330.16475699981675,None,331.54825778864324,None,"feast
",331.54825778864324,None,return,3.169175626244396,331.6316750049591,None,,,,,,,,,,,,,,,,,,,,,,,,,,,,,,,,,,,,,,,156,001,2024_Jan_25_1606,SpeechDraft1Carolyn_lessNoise_PlusLocalization,2021.2.3,60.014858981781515,
code.wav,code.mpg,code,3,A,Pink_Noise_3_1.wav,Pink_Noise_3_2.wav,,,,,,,,,,,,,,,0,18,18,32,,,,,,,,,,,,,,,,,,,,,,,334.8317112987861,None,336.3312738779932,None,337.7149800178595,None,code,337.7149800178595,None,return,2.474505325779319,337.7983757420443,None,,,,,,,,,,,,,,,,,,,,,,,,,,,,,,,,,,,,,,,156,001,2024_Jan_25_1606,SpeechDraft1Carolyn_lessNoise_PlusLocalization,2021.2.3,60.014858981781515,
bright.wav,bright.mpg,bright,3,AV,Pink_Noise_3_1.wav,Pink_Noise_3_2.wav,,,,,,,,,,,,,,,0,19,19,71,,,,,,,,,,,,,,,,,,,,,,,340.2983415918425,None,341.7980822636746,None,343.1817353228107,None,bright,343.1817353228107,None,return,1.7998816738836467,343.26501632202417,None,,,,,,,,,,,,,,,,,,,,,,,,,,,,,,,,,,,,,,,156,001,2024_Jan_25_1606,SpeechDraft1Carolyn_lessNoise_PlusLocalization,2021.2.3,60.014858981781515,
crown.wav,crown.mpg,crown,4,AV,Pink_Noise_4_1.wav,Pink_Noise_4_2.wav,,,,,,,,,,,,,,,0,20,20,117,,,,,,,,,,,,,,,,,,,,,,,345.08170051686466,None,346.58150202268735,None,347.96500293305144,None,crpwm,347.96500293305144,None,return,2.4164201971143484,348.04849479394034,None,,,,,,,,,,,,,,,,,,,,,,,,,,,,,,,,,,,,,,,156,001,2024_Jan_25_1606,SpeechDraft1Carolyn_lessNoise_PlusLocalization,2021.2.3,60.014858981781515,
bone.wav,bone.mpg,bone,3,AV,Pink_Noise_3_1.wav,Pink_Noise_3_2.wav,,,,,,,,,,,,,,,0,21,21,105,,,,,,,,,,,,,,,,,,,,,,,350.48171020066366,None,351.9814241807908,None,353.3664141437039,None,"bone
",353.3664141437039,None,return,2.552428502589464,353.4484134577215,None,,,,,,,,,,,,,,,,,,,,,,,,,,,,,,,,,,,,,,,156,001,2024_Jan_25_1606,SpeechDraft1Carolyn_lessNoise_PlusLocalization,2021.2.3,60.014858981781515,
cute.wav,cute.mpg,cute,3,A,Pink_Noise_3_1.wav,Pink_Noise_3_2.wav,,,,,,,,,,,,,,,0,22,22,54,,,,,,,,,,,,,,,,,,,,,,,356.0317196017131,None,357.53153495676816,None,358.91511125909165,None,cheat,358.91511125909165,None,return,2.866518828086555,358.99838799377903,None,,,,,,,,,,,,,,,,,,,,,,,,,,,,,,,,,,,,,,,156,001,2024_Jan_25_1606,SpeechDraft1Carolyn_lessNoise_PlusLocalization,2021.2.3,60.014858981781515,
pants.wav,pants.mpg,pants,3,A,Pink_Noise_3_1.wav,Pink_Noise_3_2.wav,,,,,,,,,,,,,,,0,23,23,25,,,,,,,,,,,,,,,,,,,,,,,361.8817437379621,None,363.3816163330339,None,364.76502789370716,None,[ants,364.76502789370716,None,return,2.360442657954991,364.8484201990068,None,,,,,,,,,,,,,,,,,,,,,,,,,,,,,,,,,,,,,,,156,001,2024_Jan_25_1606,SpeechDraft1Carolyn_lessNoise_PlusLocalization,2021.2.3,60.014858981781515,
grief.wav,grief.mpg,grief,2,A,Pink_Noise_2_1.wav,Pink_Noise_2_2.wav,,,,,,,,,,,,,,,0,24,24,4,,,,,,,,,,,,,,,,,,,,,,,367.231802792754,None,368.7314211707562,None,370.115104731638,None,grape,370.115104731638,None,return,2.5624569728970528,370.1984261739999,None,,,,,,,,,,,,,,,,,,,,,,,,,,,,,,,,,,,,,,,156,001,2024_Jan_25_1606,SpeechDraft1Carolyn_lessNoise_PlusLocalization,2021.2.3,60.014858981781515,
dumb.wav,dumb.mpg,dumb,3,A,Pink_Noise_3_1.wav,Pink_Noise_3_2.wav,,,,,,,,,,,,,,,0,25,25,3,,,,,,,,,,,,,,,,,,,,,,,372.78173933085054,None,374.28144465293735,None,375.66516908304766,None,dog,375.66516908304766,None,return,1.7884902190417051,375.7484765080735,None,,,,,,,,,,,,,,,,,,,,,,,,,,,,,,,,,,,,,,,156,001,2024_Jan_25_1606,SpeechDraft1Carolyn_lessNoise_PlusLocalization,2021.2.3,60.014858981781515,
cube.wav,cube.mpg,cube,6,AV,Pink_Noise_6_1.wav,Pink_Noise_6_2.wav,,,,,,,,,,,,,,,0,26,26,107,,,,,,,,,,,,,,,,,,,,,,,377.56507199583575,None,379.06469477294013,None,380.4484539437108,None,shoe,380.4484539437108,None,return,6.021054892800748,380.5317871537991,None,,,,,,,,,,,,,,,,,,,,,,,,,,,,,,,,,,,,,,,156,001,2024_Jan_25_1606,SpeechDraft1Carolyn_lessNoise_PlusLocalization,2021.2.3,60.014858981781515,
bye.wav,bye.mpg,bye,6,AV,Pink_Noise_6_1.wav,Pink_Noise_6_2.wav,,,,,,,,,,,,,,,0,27,27,77,,,,,,,,,,,,,,,,,,,,,,,386.58182313479483,None,388.08154411194846,None,389.46508598607033,None,s[pder,389.46508598607033,None,return,2.9484447268769145,389.548477740027,None,,,,,,,,,,,,,,,,,,,,,,,,,,,,,,,,,,,,,,,156,001,2024_Jan_25_1606,SpeechDraft1Carolyn_lessNoise_PlusLocalization,2021.2.3,60.014858981781515,
fame.wav,fame.mpg,fame,4,A,Pink_Noise_4_1.wav,Pink_Noise_4_2.wav,,,,,,,,,,,,,,,0,28,28,23,,,,,,,,,,,,,,,,,,,,,,,392.5151858627796,None,394.0149555867538,None,395.3984182346612,None,"fair
",395.3984182346612,None,return,4.567043362185359,395.4817991820164,None,,,,,,,,,,,,,,,,,,,,,,,,,,,,,,,,,,,,,,,156,001,2024_Jan_25_1606,SpeechDraft1Carolyn_lessNoise_PlusLocalization,2021.2.3,60.014858981781515,
film.wav,film.mpg,film,3,AV,Pink_Noise_3_1.wav,Pink_Noise_3_2.wav,,,,,,,,,,,,,,,0,29,29,103,,,,,,,,,,,,,,,,,,,,,,,400.0817925580777,None,401.5815506260842,None,402.96505484962836,None,film,402.96505484962836,None,return,3.3123797392472625,403.0485073029995,None,,,,,,,,,,,,,,,,,,,,,,,,,,,,,,,,,,,,,,,156,001,2024_Jan_25_1606,SpeechDraft1Carolyn_lessNoise_PlusLocalization,2021.2.3,60.014858981781515,
eve.wav,eve.mpg,eve,5,AV,Pink_Noise_5_1.wav,Pink_Noise_5_2.wav,,,,,,,,,,,,,,,0,30,30,96,,,,,,,,,,,,,,,,,,,,,,,406.3817480369471,None,407.88146347971633,None,409.26524874707684,None,"kitty'
",409.26524874707684,None,return,3.020371878053993,409.3484642789699,None,,,,,,,,,,,,,,,,,,,,,,,,,,,,,,,,,,,,,,,156,001,2024_Jan_25_1606,SpeechDraft1Carolyn_lessNoise_PlusLocalization,2021.2.3,60.014858981781515,
fish.wav,fish.mpg,fish,1,AV,Pink_Noise_1_1.wav,Pink_Noise_1_2.wav,,,,,,,,,,,,,,,0,31,31,112,,,,,,,,,,,,,,,,,,,,,,,412.3985577598214,None,413.8982501719147,None,415.2817739089951,None,fosh ,415.2817739089951,None,return,3.995596942026168,415.3652615817264,None,,,,,,,,,,,,,,,,,,,,,,,,,,,,,,,,,,,,,,,156,001,2024_Jan_25_1606,SpeechDraft1Carolyn_lessNoise_PlusLocalization,2021.2.3,60.014858981781515,
brief.wav,brief.mpg,brief,5,A,Pink_Noise_5_1.wav,Pink_Noise_5_2.wav,,,,,,,,,,,,,,,0,32,32,57,,,,,,,,,,,,,,,,,,,,,,,419.38181974506006,None,420.8831096980721,None,422.2652343446389,None,great,422.2652343446389,None,return,2.9324356368742883,422.34850317193195,None,,,,,,,,,,,,,,,,,,,,,,,,,,,,,,,,,,,,,,,156,001,2024_Jan_25_1606,SpeechDraft1Carolyn_lessNoise_PlusLocalization,2021.2.3,60.014858981781515,
thief.wav,thief.mpg,thief,2,A,Pink_Noise_2_1.wav,Pink_Noise_2_2.wav,,,,,,,,,,,,,,,0,33,33,33,,,,,,,,,,,,,,,,,,,,,,,425.2984797828831,None,426.798194095958,None,428.1818145676516,None,feet,428.1818145676516,None,return,2.7116130753420293,428.2652335478924,None,,,,,,,,,,,,,,,,,,,,,,,,,,,,,,,,,,,,,,,156,001,2024_Jan_25_1606,SpeechDraft1Carolyn_lessNoise_PlusLocalization,2021.2.3,60.014858981781515,
bond.wav,bond.mpg,bond,6,A,Pink_Noise_6_1.wav,Pink_Noise_6_2.wav,,,,,,,,,,,,,,,0,34,34,5,,,,,,,,,,,,,,,,,,,,,,,430.9985253638588,None,432.4983617886901,None,433.88181968964636,None,"saw
",433.88181968964636,None,return,2.0196616114117205,433.96517708990723,None,,,,,,,,,,,,,,,,,,,,,,,,,,,,,,,,,,,,,,,156,001,2024_Jan_25_1606,SpeechDraft1Carolyn_lessNoise_PlusLocalization,2021.2.3,60.014858981781515,
style.wav,style.mpg,style,1,AV,Pink_Noise_1_1.wav,Pink_Noise_1_2.wav,,,,,,,,,,,,,,,0,35,35,72,,,,,,,,,,,,,,,,,,,,,,,436.01517539005727,None,437.5148729458451,None,438.8984518777579,None,sty;le,438.8984518777579,None,return,3.082989353686571,438.98192549776286,None,,,,,,,,,,,,,,,,,,,,,,,,,,,,,,,,,,,,,,,156,001,2024_Jan_25_1606,SpeechDraft1Carolyn_lessNoise_PlusLocalization,2021.2.3,60.014858981781515,
blast.wav,blast.mpg,blast,2,AV,Pink_Noise_2_1.wav,Pink_Noise_2_2.wav,,,,,,,,,,,,,,,0,36,36,93,,,,,,,,,,,,,,,,,,,,,,,442.08180946391076,None,443.59820244507864,None,444.98184781707823,None,blast,444.98184781707823,None,return,2.0956760398112237,445.0651769307442,None,,,,,,,,,,,,,,,,,,,,,,,,,,,,,,,,,,,,,,,156,001,2024_Jan_25_1606,SpeechDraft1Carolyn_lessNoise_PlusLocalization,2021.2.3,60.014858981781515,
curb.wav,curb.mpg,curb,2,A,Pink_Noise_2_1.wav,Pink_Noise_2_2.wav,,,,,,,,,,,,,,,0,37,37,16,,,,,,,,,,,,,,,,,,,,,,,447.1819662959315,None,448.68161485297605,None,450.0651882146485,None,curve,450.0651882146485,None,return,2.972474212758243,450.14853534288704,None,,,,,,,,,,,,,,,,,,,,,,,,,,,,,,,,,,,,,,,156,001,2024_Jan_25_1606,SpeechDraft1Carolyn_lessNoise_PlusLocalization,2021.2.3,60.014858981781515,
fetch.wav,fetch.mpg,fetch,5,A,Pink_Noise_5_1.wav,Pink_Noise_5_2.wav,,,,,,,,,,,,,,,0,38,38,19,,,,,,,,,,,,,,,,,,,,,,,453.14853436872363,None,454.6480757649988,None,456.03182990383357,None,fetch,456.03182990383357,None,return,5.205834215972573,456.1152166519314,None,,,,,,,,,,,,,,,,,,,,,,,,,,,,,,,,,,,,,,,156,001,2024_Jan_25_1606,SpeechDraft1Carolyn_lessNoise_PlusLocalization,2021.2.3,60.014858981781515,
coach.wav,coach.mpg,coach,2,AV,Pink_Noise_2_1.wav,Pink_Noise_2_2.wav,,,,,,,,,,,,,,,0,39,39,91,,,,,,,,,,,,,,,,,,,,,,,461.34857679065317,None,462.8482803320512,None,464.23171359766275,None,coach,464.23171359766275,None,return,2.09345123777166,464.31537891272455,None,,,,,,,,,,,,,,,,,,,,,,,,,,,,,,,,,,,,,,,156,001,2024_Jan_25_1606,SpeechDraft1Carolyn_lessNoise_PlusLocalization,2021.2.3,60.014858981781515,
flair.wav,flair.mpg,flair,4,AV,Pink_Noise_4_1.wav,Pink_Noise_4_2.wav,,,,,,,,,,,,,,,0,40,40,60,,,,,,,,,,,,,,,,,,,,,,,466.4318512878381,None,467.931601382792,None,469.3150959587656,None,"f;are
",469.3150959587656,None,return,1.8022179957479239,469.3986030649394,None,,,,,,,,,,,,,,,,,,,,,,,,,,,,,,,,,,,,,,,156,001,2024_Jan_25_1606,SpeechDraft1Carolyn_lessNoise_PlusLocalization,2021.2.3,60.014858981781515,
flip.wav,flip.mpg,flip,3,A,Pink_Noise_3_1.wav,Pink_Noise_3_2.wav,,,,,,,,,,,,,,,0,41,41,58,,,,,,,,,,,,,,,,,,,,,,,471.2318267817609,None,472.7314730887301,None,474.1153911529109,None,rip,474.1153911529109,None,return,1.682278587948531,474.1986142168753,None,,,,,,,,,,,,,,,,,,,,,,,,,,,,,,,,,,,,,,,156,001,2024_Jan_25_1606,SpeechDraft1Carolyn_lessNoise_PlusLocalization,2021.2.3,60.014858981781515,
den.wav,den.mpg,den,3,A,Pink_Noise_3_1.wav,Pink_Noise_3_2.wav,,,,,,,,,,,,,,,0,42,42,24,,,,,,,,,,,,,,,,,,,,,,,475.8985424246639,None,477.3982498757541,None,478.7820340208709,None,day,478.7820340208709,None,return,0.8074798416346312,478.86537514673546,None,,,,,,,,,,,,,,,,,,,,,,,,,,,,,,,,,,,,,,,156,001,2024_Jan_25_1606,SpeechDraft1Carolyn_lessNoise_PlusLocalization,2021.2.3,60.014858981781515,
ear.wav,ear.mpg,ear,5,AV,Pink_Noise_5_1.wav,Pink_Noise_5_2.wav,,,,,,,,,,,,,,,0,43,43,116,,,,,,,,,,,,,,,,,,,,,,,479.698640671093,None,481.1981811649166,None,482.5818807380274,None,"yield
",482.5818807380274,None,return,4.983562916982919,482.6652727406472,None,,,,,,,,,,,,,,,,,,,,,,,,,,,,,,,,,,,,,,,156,001,2024_Jan_25_1606,SpeechDraft1Carolyn_lessNoise_PlusLocalization,2021.2.3,60.014858981781515,
fruit.wav,fruit.mpg,fruit,1,A,Pink_Noise_1_1.wav,Pink_Noise_1_2.wav,,,,,,,,,,,,,,,0,44,44,50,,,,,,,,,,,,,,,,,,,,,,,487.68190815206617,None,489.1983426180668,None,490.5819922639057,None,"fruit
",490.5819922639057,None,return,2.7835649182088673,490.6652665627189,None,,,,,,,,,,,,,,,,,,,,,,,,,,,,,,,,,,,,,,,156,001,2024_Jan_25_1606,SpeechDraft1Carolyn_lessNoise_PlusLocalization,2021.2.3,60.014858981781515,
beam.wav,beam.mpg,beam,3,AV,Pink_Noise_3_1.wav,Pink_Noise_3_2.wav,,,,,,,,,,,,,,,0,45,45,64,,,,,,,,,,,,,,,,,,,,,,,493.48189051495865,None,494.98161729890853,None,496.36512526962906,None,"me
",496.36512526962906,None,return,1.4002113179303706,496.4486169810407,None,,,,,,,,,,,,,,,,,,,,,,,,,,,,,,,,,,,,,,,156,001,2024_Jan_25_1606,SpeechDraft1Carolyn_lessNoise_PlusLocalization,2021.2.3,60.014858981781515,
gulf.wav,gulf.mpg,gulf,2,AV,Pink_Noise_2_1.wav,Pink_Noise_2_2.wav,,,,,,,,,,,,,,,0,46,46,84,,,,,,,,,,,,,,,,,,,,,,,497.88195405574515,None,499.38149283779785,None,500.7651377120055,None,golf,500.7651377120055,None,return,2.9761983607895672,500.8486287398264,None,,,,,,,,,,,,,,,,,,,,,,,,,,,,,,,,,,,,,,,156,001,2024_Jan_25_1606,SpeechDraft1Carolyn_lessNoise_PlusLocalization,2021.2.3,60.014858981781515,
stove.wav,stove.mpg,stove,3,A,Pink_Noise_3_1.wav,Pink_Noise_3_2.wav,,,,,,,,,,,,,,,0,47,47,20,,,,,,,,,,,,,,,,,,,,,,,503.8485976909287,None,505.3497615167871,None,506.7320116646588,None,stove,506.7320116646588,None,return,2.0576195009052753,506.81519861985,None,,,,,,,,,,,,,,,,,,,,,,,,,,,,,,,,,,,,,,,156,001,2024_Jan_25_1606,SpeechDraft1Carolyn_lessNoise_PlusLocalization,2021.2.3,60.014858981781515,
doll.wav,doll.mpg,doll,1,A,Pink_Noise_1_1.wav,Pink_Noise_1_2.wav,,,,,,,,,,,,,,,0,48,48,43,,,,,,,,,,,,,,,,,,,,,,,508.89863221673295,None,510.3983190320432,None,511.7818927858025,None,doll,511.7818927858025,None,return,1.391547221224755,511.8652804819867,None,,,,,,,,,,,,,,,,,,,,,,,,,,,,,,,,,,,,,,,156,001,2024_Jan_25_1606,SpeechDraft1Carolyn_lessNoise_PlusLocalization,2021.2.3,60.014858981781515,
lie.wav,lie.mpg,lie,6,A,Pink_Noise_6_1.wav,Pink_Noise_6_2.wav,,,,,,,,,,,,,,,0,49,49,39,,,,,,,,,,,,,,,,,,,,,,,513.2819307278842,None,514.7816386227496,None,516.1655175890774,None,"flower
",516.1655175890774,None,return,3.368211053777486,516.2486435789615,None,,,,,,,,,,,,,,,,,,,,,,,,,,,,,,,,,,,,,,,156,001,2024_Jan_25_1606,SpeechDraft1Carolyn_lessNoise_PlusLocalization,2021.2.3,60.014858981781515,
green.wav,green.mpg,green,3,AV,Pink_Noise_3_1.wav,Pink_Noise_3_2.wav,,,,,,,,,,,,,,,0,50,50,94,,,,,,,,,,,,,,,,,,,,,,,519.648684810847,None,521.1483687679283,None,522.5318598728627,None,greem,522.5318598728627,None,return,5.881621453911066,522.6152842128649,None,,,,,,,,,,,,,,,,,,,,,,,,,,,,,,,,,,,,,,,156,001,2024_Jan_25_1606,SpeechDraft1Carolyn_lessNoise_PlusLocalization,2021.2.3,60.014858981781515,
crust.wav,crust.mpg,crust,5,A,Pink_Noise_5_1.wav,Pink_Noise_5_2.wav,,,,,,,,,,,,,,,0,51,51,52,,,,,,,,,,,,,,,,,,,,,,,528.5152848139405,None,530.0316161010414,None,531.3986919280142,None,npx,531.3986919280142,None,return,2.9428462819196284,531.4819829487242,None,,,,,,,,,,,,,,,,,,,,,,,,,,,,,,,,,,,,,,,156,001,2024_Jan_25_1606,SpeechDraft1Carolyn_lessNoise_PlusLocalization,2021.2.3,60.014858981781515,
cord.wav,cord.mpg,cord,6,AV,Pink_Noise_6_1.wav,Pink_Noise_6_2.wav,,,,,,,,,,,,,,,0,52,52,104,,,,,,,,,,,,,,,,,,,,,,,534.4488132349215,None,535.9649888616987,None,537.3319816947915,None,schpp;,537.3319816947915,None,return,2.257453382946551,537.4153656037524,None,,,,,,,,,,,,,,,,,,,,,,,,,,,,,,,,,,,,,,,156,001,2024_Jan_25_1606,SpeechDraft1Carolyn_lessNoise_PlusLocalization,2021.2.3,60.014858981781515,
dusk.wav,dusk.mpg,dusk,1,AV,Pink_Noise_1_1.wav,Pink_Noise_1_2.wav,,,,,,,,,,,,,,,0,53,53,87,,,,,,,,,,,,,,,,,,,,,,,539.6987015618943,None,541.1985483667813,None,542.5819934559986,None,dusk,542.5819934559986,None,return,2.2396142198704183,542.6653160480782,None,,,,,,,,,,,,,,,,,,,,,,,,,,,,,,,,,,,,,,,156,001,2024_Jan_25_1606,SpeechDraft1Carolyn_lessNoise_PlusLocalization,2021.2.3,60.014858981781515,
wild.wav,wild.mpg,wild,2,AV,Pink_Noise_2_1.wav,Pink_Noise_2_2.wav,,,,,,,,,,,,,,,0,54,54,69,,,,,,,,,,,,,,,,,,,,,,,544.9320655879565,None,546.4317503608763,None,547.8152457568794,None,wild,547.8152457568794,None,return,2.462161211296916,547.8986794389784,None,,,,,,,,,,,,,,,,,,,,,,,,,,,,,,,,,,,,,,,156,001,2024_Jan_25_1606,SpeechDraft1Carolyn_lessNoise_PlusLocalization,2021.2.3,60.014858981781515,
freeze.wav,freeze.mpg,freeze,6,AV,Pink_Noise_6_1.wav,Pink_Noise_6_2.wav,,,,,,,,,,,,,,,0,55,55,95,,,,,,,,,,,,,,,,,,,,,,,550.3819827297702,None,551.8984278207645,None,553.2820075466298,None,feast,553.2820075466298,None,return,2.1795034571550786,553.3653691778891,None,,,,,,,,,,,,,,,,,,,,,,,,,,,,,,,,,,,,,,,156,001,2024_Jan_25_1606,SpeechDraft1Carolyn_lessNoise_PlusLocalization,2021.2.3,60.014858981781515,
grown.wav,grown.mpg,grown,6,AV,Pink_Noise_6_1.wav,Pink_Noise_6_2.wav,,,,,,,,,,,,,,,0,56,56,85,,,,,,,,,,,,,,,,,,,,,,,555.5653318576515,None,557.0651480569504,None,558.4487330568954,None,smpw,558.4487330568954,None,return,1.580829984974116,558.5320210498758,None,,,,,,,,,,,,,,,,,,,,,,,,,,,,,,,,,,,,,,,156,001,2024_Jan_25_1606,SpeechDraft1Carolyn_lessNoise_PlusLocalization,2021.2.3,60.014858981781515,
bottle.wav,bottle.mpg,bottle,6,A,Pink_Noise_6_1.wav,Pink_Noise_6_2.wav,,,,,,,,,,,,,,,0,57,57,15,,,,,,,,,,,,,,,,,,,,,,,560.1319712097757,None,561.6317348126322,None,563.0153721757233,None,"pile
",563.0153721757233,None,return,7.334150865674019,563.0986990220845,None,,,,,,,,,,,,,,,,,,,,,,,,,,,,,,,,,,,,,,,156,001,2024_Jan_25_1606,SpeechDraft1Carolyn_lessNoise_PlusLocalization,2021.2.3,60.014858981781515,
blink.wav,blink.mpg,blink,1,AV,Pink_Noise_1_1.wav,Pink_Noise_1_2.wav,,,,,,,,,,,,,,,0,58,58,62,,,,,,,,,,,,,,,,,,,,,,,570.4653504090384,None,571.981692976784,None,573.3486108146608,None,blink,573.3486108146608,None,return,3.512791849207133,573.4321024939418,None,,,,,,,,,,,,,,,,,,,,,,,,,,,,,,,,,,,,,,,156,001,2024_Jan_25_1606,SpeechDraft1Carolyn_lessNoise_PlusLocalization,2021.2.3,60.014858981781515,
flee.wav,flee.mpg,flee,4,A,Pink_Noise_4_1.wav,Pink_Noise_4_2.wav,,,,,,,,,,,,,,,0,59,59,13,,,,,,,,,,,,,,,,,,,,,,,576.9653548779897,None,578.4666979466565,None,579.8486603857018,None,read,579.8486603857018,None,return,1.8287910190410912,579.9320540139452,None,,,,,,,,,,,,,,,,,,,,,,,,,,,,,,,,,,,,,,,156,001,2024_Jan_25_1606,SpeechDraft1Carolyn_lessNoise_PlusLocalization,2021.2.3,60.014858981781515,
guess.wav,guess.mpg,guess,2,A,Pink_Noise_2_1.wav,Pink_Noise_2_2.wav,,,,,,,,,,,,,,,0,60,60,37,,,,,,,,,,,,,,,,,,,,,,,581.7820028997958,None,583.2983333589509,None,584.682041566819,None,guess,584.682041566819,None,return,1.5235699419863522,584.7654167530127,None,,,,,,,,,,,,,,,,,,,,,,,,,,,,,,,,,,,,,,,156,001,2024_Jan_25_1606,SpeechDraft1Carolyn_lessNoise_PlusLocalization,2021.2.3,60.014858981781515,
cop.wav,cop.mpg,cop,1,AV,Pink_Noise_1_1.wav,Pink_Noise_1_2.wav,,,,,,,,,,,,,,,0,61,61,92,,,,,,,,,,,,,,,,,,,,,,,586.3154044980183,None,587.8150614309125,None,589.1986935567111,None,cp[,589.1986935567111,None,return,1.06271530687809,589.2821312090382,None,,,,,,,,,,,,,,,,,,,,,,,,,,,,,,,,,,,,,,,156,001,2024_Jan_25_1606,SpeechDraft1Carolyn_lessNoise_PlusLocalization,2021.2.3,60.014858981781515,
broil.wav,broil.mpg,broil,6,AV,Pink_Noise_6_1.wav,Pink_Noise_6_2.wav,,,,,,,,,,,,,,,0,62,62,118,,,,,,,,,,,,,,,,,,,,,,,590.3652578867041,None,591.8650405667722,None,593.2487256950699,None,rain,593.2487256950699,None,return,2.372530734166503,593.3324711280875,None,,,,,,,,,,,,,,,,,,,,,,,,,,,,,,,,,,,,,,,156,001,2024_Jan_25_1606,SpeechDraft1Carolyn_lessNoise_PlusLocalization,2021.2.3,60.014858981781515,
blunt.wav,blunt.mpg,blunt,1,A,Pink_Noise_1_1.wav,Pink_Noise_1_2.wav,,,,,,,,,,,,,,,0,63,63,0,,,,,,,,,,,,,,,,,,,,,,,595.7320612207986,None,597.2485157316551,None,598.6320381909609,None,blunt,598.6320381909609,None,return,1.7814649557694793,598.7153866300359,None,,,,,,,,,,,,,,,,,,,,,,,,,,,,,,,,,,,,,,,156,001,2024_Jan_25_1606,SpeechDraft1Carolyn_lessNoise_PlusLocalization,2021.2.3,60.014858981781515,
bar.wav,bar.mpg,bar,1,AV,Pink_Noise_1_1.wav,Pink_Noise_1_2.wav,,,,,,,,,,,,,,,0,64,64,83,,,,,,,,,,,,,,,,,,,,,,,600.5154256690294,None,602.0150758060627,None,603.3986640688963,None,bar,603.3986640688963,None,return,1.4307909100316465,603.4820851460099,None,,,,,,,,,,,,,,,,,,,,,,,,,,,,,,,,,,,,,,,156,001,2024_Jan_25_1606,SpeechDraft1Carolyn_lessNoise_PlusLocalization,2021.2.3,60.014858981781515,
castle.wav,castle.mpg,castle,4,A,Pink_Noise_4_1.wav,Pink_Noise_4_2.wav,,,,,,,,,,,,,,,0,65,65,53,,,,,,,,,,,,,,,,,,,,,,,604.9320978270844,None,606.4318814249709,None,607.8154079699889,None,castle,607.8154079699889,None,return,4.078068744856864,607.898760446813,None,,,,,,,,,,,,,,,,,,,,,,,,,,,,,,,,,,,,,,,156,001,2024_Jan_25_1606,SpeechDraft1Carolyn_lessNoise_PlusLocalization,2021.2.3,60.014858981781515,
flake.wav,flake.mpg,flake,2,AV,Pink_Noise_2_1.wav,Pink_Noise_2_2.wav,,,,,,,,,,,,,,,0,66,66,78,,,,,,,,,,,,,,,,,,,,,,,611.9988412498496,None,613.5152052016929,None,614.8986993706785,None,"flake
",614.8986993706785,None,return,1.650801963172853,614.9820441808552,None,,,,,,,,,,,,,,,,,,,,,,,,,,,,,,,,,,,,,,,156,001,2024_Jan_25_1606,SpeechDraft1Carolyn_lessNoise_PlusLocalization,2021.2.3,60.014858981781515,
bag.wav,bag.mpg,bag,1,AV,Pink_Noise_1_1.wav,Pink_Noise_1_2.wav,,,,,,,,,,,,,,,0,67,67,110,,,,,,,,,,,,,,,,,,,,,,,616.6654725889675,None,618.1651305458508,None,619.5486983559094,None,bag,619.5486983559094,None,return,0.6729215229861438,619.632067703642,None,,,,,,,,,,,,,,,,,,,,,,,,,,,,,,,,,,,,,,,156,001,2024_Jan_25_1606,SpeechDraft1Carolyn_lessNoise_PlusLocalization,2021.2.3,60.014858981781515,
cone.wav,cone.mpg,cone,3,A,Pink_Noise_3_1.wav,Pink_Noise_3_2.wav,,,,,,,,,,,,,,,0,68,68,34,,,,,,,,,,,,,,,,,,,,,,,620.3321370547637,None,621.8317945809104,None,623.2154357116669,None,cp;d,623.2154357116669,None,return,1.0777144781313837,623.2991224238649,None,,,,,,,,,,,,,,,,,,,,,,,,,,,,,,,,,,,,,,,156,001,2024_Jan_25_1606,SpeechDraft1Carolyn_lessNoise_PlusLocalization,2021.2.3,60.014858981781515,
skull.wav,skull.mpg,skull,5,AV,Pink_Noise_5_1.wav,Pink_Noise_5_2.wav,,,,,,,,,,,,,,,0,69,69,113,,,,,,,,,,,,,,,,,,,,,,,624.3987688547932,None,625.9153537130915,None,627.2987204147503,None,skull,627.2987204147503,None,return,4.930775157641619,627.3821380329318,None,,,,,,,,,,,,,,,,,,,,,,,,,,,,,,,,,,,,,,,156,001,2024_Jan_25_1606,SpeechDraft1Carolyn_lessNoise_PlusLocalization,2021.2.3,60.014858981781515,
tart.wav,tart.mpg,tart,1,AV,Pink_Noise_1_1.wav,Pink_Noise_1_2.wav,,,,,,,,,,,,,,,0,70,70,99,,,,,,,,,,,,,,,,,,,,,,,632.3320838958025,None,633.865184399765,None,635.2487016706727,None,tarte,635.2487016706727,None,return,1.3968401970341802,635.3320914907381,None,,,,,,,,,,,,,,,,,,,,,,,,,,,,,,,,,,,,,,,156,001,2024_Jan_25_1606,SpeechDraft1Carolyn_lessNoise_PlusLocalization,2021.2.3,60.014858981781515,
goat.wav,goat.mpg,goat,6,AV,Pink_Noise_6_1.wav,Pink_Noise_6_2.wav,,,,,,,,,,,,,,,0,71,71,115,,,,,,,,,,,,,,,,,,,,,,,636.7488048849627,None,638.2652387637645,None,639.6486992756836,None,gold,639.6486992756836,None,return,2.788794810883701,639.7321248627268,None,,,,,,,,,,,,,,,,,,,,,,,,,,,,,,,,,,,,,,,156,001,2024_Jan_25_1606,SpeechDraft1Carolyn_lessNoise_PlusLocalization,2021.2.3,60.014858981781515,
gram.wav,gram.mpg,gram,3,AV,Pink_Noise_3_1.wav,Pink_Noise_3_2.wav,,,,,,,,,,,,,,,0,72,72,106,,,,,,,,,,,,,,,,,,,,,,,642.5489609828219,None,644.0651926030405,None,645.4486384340562,None,grabd,645.4486384340562,None,return,2.780688693281263,645.5321490718052,None,,,,,,,,,,,,,,,,,,,,,,,,,,,,,,,,,,,,,,,156,001,2024_Jan_25_1606,SpeechDraft1Carolyn_lessNoise_PlusLocalization,2021.2.3,60.014858981781515,
please.wav,please.mpg,please,2,AV,Pink_Noise_2_1.wav,Pink_Noise_2_2.wav,,,,,,,,,,,,,,,0,73,73,73,,,,,,,,,,,,,,,,,,,,,,,648.3321158429608,None,649.8485928648151,None,651.2320961286314,None,fetus,651.2320961286314,None,return,1.6053747478872538,651.3155293907039,None,,,,,,,,,,,,,,,,,,,,,,,,,,,,,,,,,,,,,,,156,001,2024_Jan_25_1606,SpeechDraft1Carolyn_lessNoise_PlusLocalization,2021.2.3,60.014858981781515,
goal.wav,goal.mpg,goal,4,A,Pink_Noise_4_1.wav,Pink_Noise_4_2.wav,,,,,,,,,,,,,,,0,74,74,35,,,,,,,,,,,,,,,,,,,,,,,652.9489795807749,None,654.4651825246401,None,655.8489041500725,None,"goal
",655.8489041500725,None,return,1.4686116967350245,655.9322289917618,None,,,,,,,,,,,,,,,,,,,,,,,,,,,,,,,,,,,,,,,156,001,2024_Jan_25_1606,SpeechDraft1Carolyn_lessNoise_PlusLocalization,2021.2.3,60.014858981781515,
tear.wav,tear.mpg,tear,2,A,Pink_Noise_2_1.wav,Pink_Noise_2_2.wav,,,,,,,,,,,,,,,0,75,75,56,,,,,,,,,,,,,,,,,,,,,,,657.4322145418264,None,658.9318843218498,None,660.3155080499128,None,"tear
",660.3155080499128,None,return,1.1540723480284214,660.3987665097229,None,,,,,,,,,,,,,,,,,,,,,,,,,,,,,,,,,,,,,,,156,001,2024_Jan_25_1606,SpeechDraft1Carolyn_lessNoise_PlusLocalization,2021.2.3,60.014858981781515,
fowl.wav,fowl.mpg,fowl,3,AV,Pink_Noise_3_1.wav,Pink_Noise_3_2.wav,,,,,,,,,,,,,,,0,76,76,76,,,,,,,,,,,,,,,,,,,,,,,661.5821505747736,None,663.0985225229524,None,664.4821511209011,None,bio,664.4821511209011,None,return,3.0592769510112703,664.5655429507606,None,,,,,,,,,,,,,,,,,,,,,,,,,,,,,,,,,,,,,,,156,001,2024_Jan_25_1606,SpeechDraft1Carolyn_lessNoise_PlusLocalization,2021.2.3,60.014858981781515,
shock.wav,shock.mpg,shock,5,AV,Pink_Noise_5_1.wav,Pink_Noise_5_2.wav,,,,,,,,,,,,,,,0,77,77,108,,,,,,,,,,,,,,,,,,,,,,,667.6488343728706,None,669.1653965557925,None,670.5487657007761,None,shock,670.5487657007761,None,return,3.3126340829767287,670.6321968096308,None,,,,,,,,,,,,,,,,,,,,,,,,,,,,,,,,,,,,,,,156,001,2024_Jan_25_1606,SpeechDraft1Carolyn_lessNoise_PlusLocalization,2021.2.3,60.014858981781515,
bell.wav,bell.mpg,bell,5,AV,Pink_Noise_5_1.wav,Pink_Noise_5_2.wav,,,,,,,,,,,,,,,0,78,78,88,,,,,,,,,,,,,,,,,,,,,,,673.9655176517554,None,675.4819566467777,None,676.8653754279949,None,bell,676.8653754279949,None,return,6.500094275921583,676.9487926559523,None,,,,,,,,,,,,,,,,,,,,,,,,,,,,,,,,,,,,,,,156,001,2024_Jan_25_1606,SpeechDraft1Carolyn_lessNoise_PlusLocalization,2021.2.3,60.014858981781515,
fresh.wav,fresh.mpg,fresh,2,A,Pink_Noise_2_1.wav,Pink_Noise_2_2.wav,,,,,,,,,,,,,,,0,79,79,14,,,,,,,,,,,,,,,,,,,,,,,683.4655793290585,None,684.981902543921,None,686.3655379046686,None,frsh,686.3655379046686,None,return,2.8561063269153237,686.4488798016682,None,,,,,,,,,,,,,,,,,,,,,,,,,,,,,,,,,,,,,,,156,001,2024_Jan_25_1606,SpeechDraft1Carolyn_lessNoise_PlusLocalization,2021.2.3,60.014858981781515,
deal.wav,deal.mpg,deal,1,A,Pink_Noise_1_1.wav,Pink_Noise_1_2.wav,,,,,,,,,,,,,,,0,80,80,36,,,,,,,,,,,,,,,,,,,,,,,689.3321798066609,None,690.8328988798894,None,692.2155016800389,None,deal,692.2155016800389,None,return,1.1259655402973294,692.2988660149276,None,,,,,,,,,,,,,,,,,,,,,,,,,,,,,,,,,,,,,,,156,001,2024_Jan_25_1606,SpeechDraft1Carolyn_lessNoise_PlusLocalization,2021.2.3,60.014858981781515,
led.wav,led.mpg,led,4,A,Pink_Noise_4_1.wav,Pink_Noise_4_2.wav,,,,,,,,,,,,,,,0,81,81,21,,,,,,,,,,,,,,,,,,,,,,,693.448998266831,None,694.9652501880191,None,696.348853431642,None,night,696.348853431642,None,return,1.880661176983267,696.4321870980784,None,,,,,,,,,,,,,,,,,,,,,,,,,,,,,,,,,,,,,,,156,001,2024_Jan_25_1606,SpeechDraft1Carolyn_lessNoise_PlusLocalization,2021.2.3,60.014858981781515,
glow.wav,glow.mpg,glow,5,AV,Pink_Noise_5_1.wav,Pink_Noise_5_2.wav,,,,,,,,,,,,,,,0,82,82,80,,,,,,,,,,,,,,,,,,,,,,,698.3322081710212,None,699.833590536844,None,701.2154529630207,None,g;pw,701.2154529630207,None,return,3.9499944038689137,701.2988730398938,None,,,,,,,,,,,,,,,,,,,,,,,,,,,,,,,,,,,,,,,156,001,2024_Jan_25_1606,SpeechDraft1Carolyn_lessNoise_PlusLocalization,2021.2.3,60.014858981781515,
bruise.wav,bruise.mpg,bruise,2,A,Pink_Noise_2_1.wav,Pink_Noise_2_2.wav,,,,,,,,,,,,,,,0,83,83,48,,,,,,,,,,,,,,,,,,,,,,,705.2656124057248,None,706.7819729419425,None,708.1655912087299,None,breeders,708.1655912087299,None,return,2.3280239030718803,708.2488546129316,None,,,,,,,,,,,,,,,,,,,,,,,,,,,,,,,,,,,,,,,156,001,2024_Jan_25_1606,SpeechDraft1Carolyn_lessNoise_PlusLocalization,2021.2.3,60.014858981781515,
grass.wav,grass.mpg,grass,5,AV,Pink_Noise_5_1.wav,Pink_Noise_5_2.wav,,,,,,,,,,,,,,,0,84,84,67,,,,,,,,,,,,,,,,,,,,,,,710.5988937439397,None,712.1152719897218,None,713.4987387517467,None,stress,713.4987387517467,None,return,1.9306467436254025,713.5822796397842,None,,,,,,,,,,,,,,,,,,,,,,,,,,,,,,,,,,,,,,,156,001,2024_Jan_25_1606,SpeechDraft1Carolyn_lessNoise_PlusLocalization,2021.2.3,60.014858981781515,
crow.wav,crow.mpg,crow,5,A,Pink_Noise_5_1.wav,Pink_Noise_5_2.wav,,,,,,,,,,,,,,,0,85,85,7,,,,,,,,,,,,,,,,,,,,,,,715.5322815496475,None,717.0652678906918,None,718.4322129590437,None,"phone
",718.4322129590437,None,return,2.469089648220688,718.5157584319822,None,,,,,,,,,,,,,,,,,,,,,,,,,,,,,,,,,,,,,,,156,001,2024_Jan_25_1606,SpeechDraft1Carolyn_lessNoise_PlusLocalization,2021.2.3,60.014858981781515,
rent.wav,rent.mpg,rent,1,AV,Pink_Noise_1_1.wav,Pink_Noise_1_2.wav,,,,,,,,,,,,,,,0,86,86,66,,,,,,,,,,,,,,,,,,,,,,,721.0155759947374,None,722.5320684406906,None,723.9157102308236,None,rent,723.9157102308236,None,return,2.313977229874581,723.9989029779099,None,,,,,,,,,,,,,,,,,,,,,,,,,,,,,,,,,,,,,,,156,001,2024_Jan_25_1606,SpeechDraft1Carolyn_lessNoise_PlusLocalization,2021.2.3,60.014858981781515,
bite.wav,bite.mpg,bite,2,A,Pink_Noise_2_1.wav,Pink_Noise_2_2.wav,,,,,,,,,,,,,,,0,87,87,49,,,,,,,,,,,,,,,,,,,,,,,726.3322661607526,None,727.865282508079,None,729.2322811316699,None,bite,729.2322811316699,None,return,2.4212510818615556,729.3156682308763,None,,,,,,,,,,,,,,,,,,,,,,,,,,,,,,,,,,,,,,,156,001,2024_Jan_25_1606,SpeechDraft1Carolyn_lessNoise_PlusLocalization,2021.2.3,60.014858981781515,
cause.wav,cause.mpg,cause,4,AV,Pink_Noise_4_1.wav,Pink_Noise_4_2.wav,,,,,,,,,,,,,,,0,88,88,74,,,,,,,,,,,,,,,,,,,,,,,731.7655627280474,None,733.2819451037794,None,734.665567193646,None,cause,734.665567193646,None,return,3.3318998790346086,734.7490379186347,None,,,,,,,,,,,,,,,,,,,,,,,,,,,,,,,,,,,,,,,156,001,2024_Jan_25_1606,SpeechDraft1Carolyn_lessNoise_PlusLocalization,2021.2.3,60.014858981781515,
barge.wav,barge.mpg,barge,1,A,Pink_Noise_1_1.wav,Pink_Noise_1_2.wav,,,,,,,,,,,,,,,0,89,89,27,,,,,,,,,,,,,,,,,,,,,,,738.0989528759383,None,739.6003222218715,None,740.9822877719998,None,"barge
",740.9822877719998,None,return,3.367252034135163,741.0655995458364,None,,,,,,,,,,,,,,,,,,,,,,,,,,,,,,,,,,,,,,,156,001,2024_Jan_25_1606,SpeechDraft1Carolyn_lessNoise_PlusLocalization,2021.2.3,60.014858981781515,
blind.wav,blind.mpg,blind,6,A,Pink_Noise_6_1.wav,Pink_Noise_6_2.wav,,,,,,,,,,,,,,,0,90,90,11,,,,,,,,,,,,,,,,,,,,,,,744.4656006307341,None,745.9821321209893,None,747.3656433247961,None,f;ower,747.3656433247961,None,return,3.855915696360171,747.4489120310172,None,,,,,,,,,,,,,,,,,,,,,,,,,,,,,,,,,,,,,,,156,001,2024_Jan_25_1606,SpeechDraft1Carolyn_lessNoise_PlusLocalization,2021.2.3,60.014858981781515,
fuel.wav,fuel.mpg,fuel,3,A,Pink_Noise_3_1.wav,Pink_Noise_3_2.wav,,,,,,,,,,,,,,,0,91,91,26,,,,,,,,,,,,,,,,,,,,,,,751.3324660877697,None,752.8487493670546,None,754.2323431149125,None,"hea;
",754.2323431149125,None,return,2.7012029229663312,754.3156312848441,None,,,,,,,,,,,,,,,,,,,,,,,,,,,,,,,,,,,,,,,156,001,2024_Jan_25_1606,SpeechDraft1Carolyn_lessNoise_PlusLocalization,2021.2.3,60.014858981781515,
beige.wav,beige.mpg,beige,2,AV,Pink_Noise_2_1.wav,Pink_Noise_2_2.wav,,,,,,,,,,,,,,,0,92,92,81,,,,,,,,,,,,,,,,,,,,,,,757.0490291779861,None,758.5507023800164,None,759.932287318632,None,beoge,759.932287318632,None,return,3.5772330900654197,760.0155894858763,None,,,,,,,,,,,,,,,,,,,,,,,,,,,,,,,,,,,,,,,156,001,2024_Jan_25_1606,SpeechDraft1Carolyn_lessNoise_PlusLocalization,2021.2.3,60.014858981781515,
cycle.wav,cycle.mpg,cycle,4,AV,Pink_Noise_4_1.wav,Pink_Noise_4_2.wav,,,,,,,,,,,,,,,0,93,93,65,,,,,,,,,,,,,,,,,,,,,,,763.6156955426559,None,765.1340486649424,None,766.5156259578653,None,"cyvlr
",766.5156259578653,None,return,4.785842537879944,766.5989951146767,None,,,,,,,,,,,,,,,,,,,,,,,,,,,,,,,,,,,,,,,156,001,2024_Jan_25_1606,SpeechDraft1Carolyn_lessNoise_PlusLocalization,2021.2.3,60.014858981781515,
clash.wav,clash.mpg,clash,4,A,Pink_Noise_4_1.wav,Pink_Noise_4_2.wav,,,,,,,,,,,,,,,0,94,94,44,,,,,,,,,,,,,,,,,,,,,,,771.4156943210401,None,772.9321069517173,None,774.315683057066,None,frehd,774.315683057066,None,return,6.137761499732733,774.3990730540827,None,,,,,,,,,,,,,,,,,,,,,,,,,,,,,,,,,,,,,,,156,001,2024_Jan_25_1606,SpeechDraft1Carolyn_lessNoise_PlusLocalization,2021.2.3,60.014858981781515,
die.wav,die.mpg,die,4,AV,Pink_Noise_4_1.wav,Pink_Noise_4_2.wav,,,,,,,,,,,,,,,0,95,95,79,,,,,,,,,,,,,,,,,,,,,,,780.5656793317758,None,782.0841141566634,None,783.4655874739401,None,"stylr
",783.4655874739401,None,return,2.8358276709914207,783.5490063298494,None,,,,,,,,,,,,,,,,,,,,,,,,,,,,,,,,,,,,,,,156,001,2024_Jan_25_1606,SpeechDraft1Carolyn_lessNoise_PlusLocalization,2021.2.3,60.014858981781515,
grin.wav,grin.mpg,grin,4,A,Pink_Noise_4_1.wav,Pink_Noise_4_2.wav,,,,,,,,,,,,,,,0,96,96,55,,,,,,,,,,,,,,,,,,,,,,,786.4156986367889,None,787.9319987739436,None,789.315728967078,None,gron,789.315728967078,None,return,2.2978927148506045,789.3989811348729,None,,,,,,,,,,,,,,,,,,,,,,,,,,,,,,,,,,,,,,,156,001,2024_Jan_25_1606,SpeechDraft1Carolyn_lessNoise_PlusLocalization,2021.2.3,60.014858981781515,
bleed.wav,bleed.mpg,bleed,5,A,Pink_Noise_5_1.wav,Pink_Noise_5_2.wav,,,,,,,,,,,,,,,0,97,97,28,,,,,,,,,,,,,,,,,,,,,,,791.7156476527452,None,793.2319952407852,None,794.6156730158255,None,mean,794.6156730158255,None,return,4.661827574018389,794.6990057867952,None,,,,,,,,,,,,,,,,,,,,,,,,,,,,,,,,,,,,,,,156,001,2024_Jan_25_1606,SpeechDraft1Carolyn_lessNoise_PlusLocalization,2021.2.3,60.014858981781515,
built.wav,built.mpg,built,6,AV,Pink_Noise_6_1.wav,Pink_Noise_6_2.wav,,,,,,,,,,,,,,,0,98,98,82,,,,,,,,,,,,,,,,,,,,,,,799.3824713639915,None,800.9154780148529,None,802.2990294257179,None,pitvh,802.2990294257179,None,return,4.522587500978261,802.3823261507787,None,,,,,,,,,,,,,,,,,,,,,,,,,,,,,,,,,,,,,,,156,001,2024_Jan_25_1606,SpeechDraft1Carolyn_lessNoise_PlusLocalization,2021.2.3,60.014858981781515,
fierce.wav,fierce.mpg,fierce,6,A,Pink_Noise_6_1.wav,Pink_Noise_6_2.wav,,,,,,,,,,,,,,,0,99,99,8,,,,,,,,,,,,,,,,,,,,,,,806.9324000938796,None,808.4487089668401,None,809.8323994930834,None,fierce,809.8323994930834,None,return,3.4211733513511717,809.9156664060429,None,,,,,,,,,,,,,,,,,,,,,,,,,,,,,,,,,,,,,,,156,001,2024_Jan_25_1606,SpeechDraft1Carolyn_lessNoise_PlusLocalization,2021.2.3,60.014858981781515,
bunch.wav,bunch.mpg,bunch,3,AV,Pink_Noise_3_1.wav,Pink_Noise_3_2.wav,,,,,,,,,,,,,,,0,100,100,109,,,,,,,,,,,,,,,,,,,,,,,813.365713190753,None,814.8827375606634,None,816.2656101537868,None,bunch,816.2656101537868,None,return,1.7798891118727624,816.3490313817747,None,,,,,,,,,,,,,,,,,,,,,,,,,,,,,,,,,,,,,,,156,001,2024_Jan_25_1606,SpeechDraft1Carolyn_lessNoise_PlusLocalization,2021.2.3,60.014858981781515,
cup.wav,cup.mpg,cup,4,A,Pink_Noise_4_1.wav,Pink_Noise_4_2.wav,,,,,,,,,,,,,,,0,101,101,6,,,,,,,,,,,,,,,,,,,,,,,818.1489907237701,None,819.6819926197641,None,821.0658307219855,None,cup,821.0658307219855,None,return,1.1958062327466905,821.1490424000658,None,,,,,,,,,,,,,,,,,,,,,,,,,,,,,,,,,,,,,,,156,001,2024_Jan_25_1606,SpeechDraft1Carolyn_lessNoise_PlusLocalization,2021.2.3,60.014858981781515,
blue.wav,blue.mpg,blue,6,A,Pink_Noise_6_1.wav,Pink_Noise_6_2.wav,,,,,,,,,,,,,,,0,102,102,47,,,,,,,,,,,,,,,,,,,,,,,822.3657280579209,None,823.8819620967843,None,825.2658628188074,None,school,825.2658628188074,None,return,1.675734309013933,825.3491088510491,None,,,,,,,,,,,,,,,,,,,,,,,,,,,,,,,,,,,,,,,156,001,2024_Jan_25_1606,SpeechDraft1Carolyn_lessNoise_PlusLocalization,2021.2.3,60.014858981781515,
fat.wav,fat.mpg,fat,5,A,Pink_Noise_5_1.wav,Pink_Noise_5_2.wav,,,,,,,,,,,,,,,0,103,103,45,,,,,,,,,,,,,,,,,,,,,,,827.0491360900924,None,828.565426277928,None,829.9490586207248,None,cat,829.9490586207248,None,return,1.6966024981811643,830.0323431179859,None,,,,,,,,,,,,,,,,,,,,,,,,,,,,,,,,,,,,,,,156,001,2024_Jan_25_1606,SpeechDraft1Carolyn_lessNoise_PlusLocalization,2021.2.3,60.014858981781515,
gut.wav,gut.mpg,gut,2,A,Pink_Noise_2_1.wav,Pink_Noise_2_2.wav,,,,,,,,,,,,,,,0,104,104,30,,,,,,,,,,,,,,,,,,,,,,,831.7491116770543,None,833.282353670802,None,834.665707946755,None,"gut
",834.665707946755,None,return,1.603755482006818,834.7490858030505,None,,,,,,,,,,,,,,,,,,,,,,,,,,,,,,,,,,,,,,,156,001,2024_Jan_25_1606,SpeechDraft1Carolyn_lessNoise_PlusLocalization,2021.2.3,60.014858981781515,
dent.wav,dent.mpg,dent,4,A,Pink_Noise_4_1.wav,Pink_Noise_4_2.wav,,,,,,,,,,,,,,,0,105,105,59,,,,,,,,,,,,,,,,,,,,,,,836.3823545486666,None,837.9154335767962,None,839.2992364047095,None,dent,839.2992364047095,None,return,0.8824721691198647,839.3824288258329,None,,,,,,,,,,,,,,,,,,,,,,,,,,,,,,,,,,,,,,,156,001,2024_Jan_25_1606,SpeechDraft1Carolyn_lessNoise_PlusLocalization,2021.2.3,60.014858981781515,
dawn.wav,dawn.mpg,dawn,5,A,Pink_Noise_5_1.wav,Pink_Noise_5_2.wav,,,,,,,,,,,,,,,0,106,106,38,,,,,,,,,,,,,,,,,,,,,,,840.2823812137358,None,841.798894891981,None,843.1824127240106,None,"skull
",843.1824127240106,None,return,2.3670669510029256,843.2657762779854,None,,,,,,,,,,,,,,,,,,,,,,,,,,,,,,,,,,,,,,,156,001,2024_Jan_25_1606,SpeechDraft1Carolyn_lessNoise_PlusLocalization,2021.2.3,60.014858981781515,
swan.wav,swan.mpg,swan,1,A,Pink_Noise_1_1.wav,Pink_Noise_1_2.wav,,,,,,,,,,,,,,,0,107,107,31,,,,,,,,,,,,,,,,,,,,,,,845.6657734829932,None,847.1820427747443,None,848.5657651647925,None,swan,848.5657651647925,None,return,1.1998754902742803,848.649073862005,None,,,,,,,,,,,,,,,,,,,,,,,,,,,,,,,,,,,,,,,156,001,2024_Jan_25_1606,SpeechDraft1Carolyn_lessNoise_PlusLocalization,2021.2.3,60.014858981781515,
bin.wav,bin.mpg,bin,1,A,Pink_Noise_1_1.wav,Pink_Noise_1_2.wav,,,,,,,,,,,,,,,0,108,108,46,,,,,,,,,,,,,,,,,,,,,,,849.8658071639948,None,851.3821162567474,None,852.7657815497369,None,bon,852.7657815497369,None,return,3.7437912207096815,852.8490736330859,None,,,,,,,,,,,,,,,,,,,,,,,,,,,,,,,,,,,,,,,156,001,2024_Jan_25_1606,SpeechDraft1Carolyn_lessNoise_PlusLocalization,2021.2.3,60.014858981781515,
dirt.wav,dirt.mpg,dirt,1,A,Pink_Noise_1_1.wav,Pink_Noise_1_2.wav,,,,,,,,,,,,,,,0,109,109,2,,,,,,,,,,,,,,,,,,,,,,,856.6157534136437,None,858.1321754259989,None,859.5157685787417,None,dirt,859.5157685787417,None,return,1.673869052901864,859.5991099779494,None,,,,,,,,,,,,,,,,,,,,,,,,,,,,,,,,,,,,,,,156,001,2024_Jan_25_1606,SpeechDraft1Carolyn_lessNoise_PlusLocalization,2021.2.3,60.014858981781515,
eel.wav,eel.mpg,eel,2,AV,Pink_Noise_2_1.wav,Pink_Noise_2_2.wav,,,,,,,,,,,,,,,0,110,110,90,,,,,,,,,,,,,,,,,,,,,,,861.2991117569618,None,862.8155912528746,None,864.1991360727698,None,heal,864.1991360727698,None,return,1.6703460519202054,864.2824842329137,None,,,,,,,,,,,,,,,,,,,,,,,,,,,,,,,,,,,,,,,156,001,2024_Jan_25_1606,SpeechDraft1Carolyn_lessNoise_PlusLocalization,2021.2.3,60.014858981781515,
deem.wav,deem.mpg,deem,6,AV,Pink_Noise_6_1.wav,Pink_Noise_6_2.wav,,,,,,,,,,,,,,,0,111,111,102,,,,,,,,,,,,,,,,,,,,,,,865.9824030427262,None,867.5162303457037,None,868.8991887266748,None,"yower
",868.8991887266748,None,return,4.3863993478007615,868.9824243239127,None,,,,,,,,,,,,,,,,,,,,,,,,,,,,,,,,,,,,,,,156,001,2024_Jan_25_1606,SpeechDraft1Carolyn_lessNoise_PlusLocalization,2021.2.3,60.014858981781515,
bench.wav,bench.mpg,bench,6,A,Pink_Noise_6_1.wav,Pink_Noise_6_2.wav,,,,,,,,,,,,,,,0,112,112,41,,,,,,,,,,,,,,,,,,,,,,,873.399140664842,None,874.9321062206291,None,876.3158381036483,None,fish,876.3158381036483,None,return,1.5138501953333616,876.3990997886285,None,,,,,,,,,,,,,,,,,,,,,,,,,,,,,,,,,,,,,,,156,001,2024_Jan_25_1606,SpeechDraft1Carolyn_lessNoise_PlusLocalization,2021.2.3,60.014858981781515,
grain.wav,grain.mpg,grain,6,A,Pink_Noise_6_1.wav,Pink_Noise_6_2.wav,,,,,,,,,,,,,,,0,113,113,10,,,,,,,,,,,,,,,,,,,,,,,877.9324955889024,None,879.4498226060532,None,880.832472064998,None,snake,880.832472064998,None,return,1.589109524153173,880.9157761116512,None,,,,,,,,,,,,,,,,,,,,,,,,,,,,,,,,,,,,,,,156,001,2024_Jan_25_1606,SpeechDraft1Carolyn_lessNoise_PlusLocalization,2021.2.3,60.014858981781515,
float.wav,float.mpg,float,1,A,Pink_Noise_1_1.wav,Pink_Noise_1_2.wav,,,,,,,,,,,,,,,0,114,114,18,,,,,,,,,,,,,,,,,,,,,,,882.5324826650321,None,884.0491017699242,None,885.4329766770825,None,float,885.4329766770825,None,return,1.9090189533308148,885.5158133287914,None,,,,,,,,,,,,,,,,,,,,,,,,,,,,,,,,,,,,,,,156,001,2024_Jan_25_1606,SpeechDraft1Carolyn_lessNoise_PlusLocalization,2021.2.3,60.014858981781515,
fork.wav,fork.mpg,fork,4,AV,Pink_Noise_4_1.wav,Pink_Noise_4_2.wav,,,,,,,,,,,,,,,0,115,115,63,,,,,,,,,,,,,,,,,,,,,,,887.4491325519048,None,888.9655369357206,None,890.3490617270581,None,fork,890.3490617270581,None,return,1.8323895069770515,890.4325011828914,None,,,,,,,,,,,,,,,,,,,,,,,,,,,,,,,,,,,,,,,156,001,2024_Jan_25_1606,SpeechDraft1Carolyn_lessNoise_PlusLocalization,2021.2.3,60.014858981781515,
chase.wav,chase.mpg,chase,3,A,Pink_Noise_3_1.wav,Pink_Noise_3_2.wav,,,,,,,,,,,,,,,0,116,116,40,,,,,,,,,,,,,,,,,,,,,,,892.2825037976727,None,893.7988532036543,None,895.1824904568493,None,chase,895.1824904568493,None,return,1.5269956630654633,895.2658236580901,None,,,,,,,,,,,,,,,,,,,,,,,,,,,,,,,,,,,,,,,156,001,2024_Jan_25_1606,SpeechDraft1Carolyn_lessNoise_PlusLocalization,2021.2.3,60.014858981781515,
funk.wav,funk.mpg,funk,2,AV,Pink_Noise_2_1.wav,Pink_Noise_2_2.wav,,,,,,,,,,,,,,,0,117,117,86,,,,,,,,,,,,,,,,,,,,,,,896.815830685664,None,898.3322381400503,None,899.7158867777325,None,fiml,899.7158867777325,None,return,1.69766352372244,899.7991859409958,None,,,,,,,,,,,,,,,,,,,,,,,,,,,,,,,,,,,,,,,156,001,2024_Jan_25_1606,SpeechDraft1Carolyn_lessNoise_PlusLocalization,2021.2.3,60.014858981781515,
duct.wav,duct.mpg,duct,6,A,Pink_Noise_6_1.wav,Pink_Noise_6_2.wav,,,,,,,,,,,,,,,0,118,118,17,,,,,,,,,,,,,,,,,,,,,,,901.5158029040322,None,903.032097467687,None,904.4158488987014,None,duck,904.4158488987014,None,return,1.4057482657954097,904.4992343466729,None,,,,,,,,,,,,,,,,,,,,,,,,,,,,,,,,,,,,,,,156,001,2024_Jan_25_1606,SpeechDraft1Carolyn_lessNoise_PlusLocalization,2021.2.3,60.014858981781515,
folk.wav,folk.mpg,folk,5,AV,Pink_Noise_5_1.wav,Pink_Noise_5_2.wav,,,,,,,,,,,,,,,0,119,119,89,,,,,,,,,,,,,,,,,,,,,,,905.9325436246581,None,907.4489143118262,None,908.8324774806388,None,fork,908.8324774806388,None,return,1.5970722250640392,908.9157976140268,None,,,,,,,,,,,,,,,,,,,,,,,,,,,,,,,,,,,,,,,156,001,2024_Jan_25_1606,SpeechDraft1Carolyn_lessNoise_PlusLocalization,2021.2.3,60.014858981781515,
,,,,,,,,,,,,,,,,,,,,,,,,,,,,,,,,,,,,,,,,,,,,,,,,,,,,,,,,,,,,,,,,,,space,5.576323105953634,910.6325055430643,None,,,,,,,,,,,,,,,,,,,,,,,,,,,,,156,001,2024_Jan_25_1606,SpeechDraft1Carolyn_lessNoise_PlusLocalization,2021.2.3,60.014858981781515,
,,,,,,,,midRight,13.0,3,ch1Sound_localizationTask.wav,13.0,"(1142, 878)","(182, -202)",190,-338,,,,,,,,,0,0,0,5,,,,,,,,,,,,,,,,,,,,,,,,,,,,,,,,,,,,,,,,,,910.6325055430643,None,916.2488861018792,None,917.3488471349701,None,918.2822997039184,None,1.4417989417989419,2.701980988960713,918.2822997039184,None,,,,,,,,,,,,,,,,,156,001,2024_Jan_25_1606,SpeechDraft1Carolyn_lessNoise_PlusLocalization,2021.2.3,60.014858981781515,
,,,,,,,,nearLeft,-6.5,1,ch1Sound_localizationTask.wav,-6.5,"(857, 878)","(-103,-202)",-95,-338,,,,,,,,,0,1,1,2,,,,,,,,,,,,,,,,,,,,,,,,,,,,,,,,,,,,,,,,,,,,920.9826426999643,None,922.0823551709764,None,923.0155302779749,None,1.3211640211640212,1.3506861068308353,923.0155302779749,None,,,,,,,,,,,,,,,,,156,001,2024_Jan_25_1606,SpeechDraft1Carolyn_lessNoise_PlusLocalization,2021.2.3,60.014858981781515,
,,,,,,,,nearLeft,-6.5,1,ch1Sound_localizationTask.wav,-6.5,"(857, 878)","(-103,-202)",-95,-338,,,,,,,,,0,2,2,2,,,,,,,,,,,,,,,,,,,,,,,,,,,,,,,,,,,,,,,,,,,,924.3825803068466,None,925.4822721509263,None,926.4154717810452,None,1.4238095238095239,1.3667282271198928,926.4154717810452,None,,,,,,,,,,,,,,,,,156,001,2024_Jan_25_1606,SpeechDraft1Carolyn_lessNoise_PlusLocalization,2021.2.3,60.014858981781515,
,,,,,,,,nearRight,6.5,0,ch1Sound_localizationTask.wav,6.5,"(1047, 878)","(87, -202)",95,-338,,,,,,,,,0,3,3,4,,,,,,,,,,,,,,,,,,,,,,,,,,,,,,,,,,,,,,,,,,,,927.7991974386387,None,928.8989231740125,None,929.8321333117783,None,1.546031746031746,1.21644236613065,929.8321333117783,None,,,,,,,,,,,,,,,,,156,001,2024_Jan_25_1606,SpeechDraft1Carolyn_lessNoise_PlusLocalization,2021.2.3,60.014858981781515,
,,,,,,,,nearLeft,-6.5,1,ch1Sound_localizationTask.wav,-6.5,"(857, 878)","(-103,-202)",-95,-338,,,,,,,,,0,4,4,2,,,,,,,,,,,,,,,,,,,,,,,,,,,,,,,,,,,,,,,,,,,,931.0498247887008,None,932.1489356979728,None,933.0823568967171,None,1.4645502645502646,0.5677287545986474,933.0823568967171,None,,,,,,,,,,,,,,,,,156,001,2024_Jan_25_1606,SpeechDraft1Carolyn_lessNoise_PlusLocalization,2021.2.3,60.014858981781515,
,,,,,,,,center,0.0,6,ch1Sound_localizationTask.wav,0.0,"(952, 878)","(-8,-202)",0,-338,,,,,,,,,0,5,5,3,,,,,,,,,,,,,,,,,,,,,,,,,,,,,,,,,,,,,,,,,,,,933.6658490509726,None,934.7657542247325,None,935.6989928968251,None,1.4883597883597883,0.38401194708421826,935.6989928968251,None,,,,,,,,,,,,,,,,,156,001,2024_Jan_25_1606,SpeechDraft1Carolyn_lessNoise_PlusLocalization,2021.2.3,60.014858981781515,
,,,,,,,,farRight,19.1,4,ch1Sound_localizationTask.wav,19.1,"(1237, 878)","(277,-202)",285,-338,,,,,,,,,0,6,6,6,,,,,,,,,,,,,,,,,,,,,,,,,,,,,,,,,,,,,,,,,,,,936.0992672936991,None,937.1989388940856,None,938.1323005380109,None,1.716931216931217,0.5994098922237754,938.1323005380109,None,,,,,,,,,,,,,,,,,156,001,2024_Jan_25_1606,SpeechDraft1Carolyn_lessNoise_PlusLocalization,2021.2.3,60.014858981781515,
,,,,,,,,midLeft,-13.0,2,ch1Sound_localizationTask.wav,-13.0,"(762, 878)","(-198,-202)",-190,-338,,,,,,,,,1,0,7,1,,,,,,,,,,,,,,,,,,,,,,,,,,,,,,,,,,,,,,,,,,,,938.7327496460639,None,939.8322634897195,None,940.765644073952,None,1.229100529100529,0.6492088939994574,940.765644073952,None,,,,,,,,,,,,,,,,,156,001,2024_Jan_25_1606,SpeechDraft1Carolyn_lessNoise_PlusLocalization,2021.2.3,60.014858981781515,
,,,,,,,,nearRight,6.5,0,ch1Sound_localizationTask.wav,6.5,"(1047, 878)","(87, -202)",95,-338,,,,,,,,,1,1,8,4,,,,,,,,,,,,,,,,,,,,,,,,,,,,,,,,,,,,,,,,,,,,941.4163051759824,None,942.5155036509968,None,943.4490100508556,None,1.2687830687830688,0.933210174087435,943.4490100508556,None,,,,,,,,,,,,,,,,,156,001,2024_Jan_25_1606,SpeechDraft1Carolyn_lessNoise_PlusLocalization,2021.2.3,60.014858981781515,
,,,,,,,,midLeft,-13.0,2,ch1Sound_localizationTask.wav,-13.0,"(762, 878)","(-198,-202)",-190,-338,,,,,,,,,1,2,9,1,,,,,,,,,,,,,,,,,,,,,,,,,,,,,,,,,,,,,,,,,,,,944.3843108499423,None,945.4988555070013,None,946.4154652687721,None,1.3497354497354497,1.7670673499815166,946.4154652687721,None,,,,,,,,,,,,,,,,,156,001,2024_Jan_25_1606,SpeechDraft1Carolyn_lessNoise_PlusLocalization,2021.2.3,60.014858981781515,
,,,,,,,,center,0.0,6,ch1Sound_localizationTask.wav,0.0,"(952, 878)","(-8,-202)",0,-338,,,,,,,,,1,3,10,3,,,,,,,,,,,,,,,,,,,,,,,,,,,,,,,,,,,,,,,,,,,,948.199222153984,None,949.2989143016748,None,950.2322677387856,None,1.3486772486772487,1.5001158849336207,950.2322677387856,None,,,,,,,,,,,,,,,,,156,001,2024_Jan_25_1606,SpeechDraft1Carolyn_lessNoise_PlusLocalization,2021.2.3,60.014858981781515,
,,,,,,,,farLeft,-19.1,5,ch1Sound_localizationTask.wav,-19.1,"(667, 878)","(-293,-202)",-285,-338,,,,,,,,,1,4,11,0,,,,,,,,,,,,,,,,,,,,,,,,,,,,,,,,,,,,,,,,,,,,951.7329654968344,None,952.8323273709975,None,953.7656032526866,None,1.3174603174603174,1.249632584862411,953.7656032526866,None,,,,,,,,,,,,,,,,,156,001,2024_Jan_25_1606,SpeechDraft1Carolyn_lessNoise_PlusLocalization,2021.2.3,60.014858981781515,
,,,,,,,,farRight,19.1,4,ch1Sound_localizationTask.wav,19.1,"(1237, 878)","(277,-202)",285,-338,,,,,,,,,1,5,12,6,,,,,,,,,,,,,,,,,,,,,,,,,,,,,,,,,,,,,,,,,,,,955.0161993438378,None,956.1155658266507,None,957.0488816350698,None,1.6354497354497355,0.9491853700019419,957.0488816350698,None,,,,,,,,,,,,,,,,,156,001,2024_Jan_25_1606,SpeechDraft1Carolyn_lessNoise_PlusLocalization,2021.2.3,60.014858981781515,
,,,,,,,,midRight,13.0,3,ch1Sound_localizationTask.wav,13.0,"(1142, 878)","(182, -202)",190,-338,,,,,,,,,1,6,13,5,,,,,,,,,,,,,,,,,,,,,,,,,,,,,,,,,,,,,,,,,,,,958.0001383130439,None,959.0988335949369,None,960.0322976568714,None,1.6349206349206349,0.9501631641760468,960.0322976568714,None,,,,,,,,,,,,,,,,,156,001,2024_Jan_25_1606,SpeechDraft1Carolyn_lessNoise_PlusLocalization,2021.2.3,60.014858981781515,
,,,,,,,,nearLeft,-6.5,1,ch1Sound_localizationTask.wav,-6.5,"(857, 878)","(-103,-202)",-95,-338,,,,,,,,,2,0,14,2,,,,,,,,,,,,,,,,,,,,,,,,,,,,,,,,,,,,,,,,,,,,960.9831313076429,None,962.0822722599842,None,963.0157365486957,None,1.5015873015873016,0.7161942180246115,963.0157365486957,None,,,,,,,,,,,,,,,,,156,001,2024_Jan_25_1606,SpeechDraft1Carolyn_lessNoise_PlusLocalization,2021.2.3,60.014858981781515,
,,,,,,,,center,0.0,6,ch1Sound_localizationTask.wav,0.0,"(952, 878)","(-8,-202)",0,-338,,,,,,,,,2,1,15,3,,,,,,,,,,,,,,,,,,,,,,,,,,,,,,,,,,,,,,,,,,,,963.7325928960927,None,964.8323229867965,None,965.7657653270289,None,1.4904761904761905,0.7996487156488001,965.7657653270289,None,,,,,,,,,,,,,,,,,156,001,2024_Jan_25_1606,SpeechDraft1Carolyn_lessNoise_PlusLocalization,2021.2.3,60.014858981781515,
,,,,,,,,farRight,19.1,4,ch1Sound_localizationTask.wav,19.1,"(1237, 878)","(277,-202)",285,-338,,,,,,,,,2,2,16,6,,,,,,,,,,,,,,,,,,,,,,,,,,,,,,,,,,,,,,,,,,,,966.5825643460266,None,967.6823127376847,None,968.6155828130431,None,1.6497354497354497,0.46695805666968226,968.6155828130431,None,,,,,,,,,,,,,,,,,156,001,2024_Jan_25_1606,SpeechDraft1Carolyn_lessNoise_PlusLocalization,2021.2.3,60.014858981781515,
,,,,,,,,farLeft,-19.1,5,ch1Sound_localizationTask.wav,-19.1,"(667, 878)","(-293,-202)",-285,-338,,,,,,,,,2,3,17,0,,,,,,,,,,,,,,,,,,,,,,,,,,,,,,,,,,,,,,,,,,,,969.0831465008669,None,970.1823034146801,None,971.115613243077,None,1.4507936507936507,0.9174675471149385,971.115613243077,None,,,,,,,,,,,,,,,,,156,001,2024_Jan_25_1606,SpeechDraft1Carolyn_lessNoise_PlusLocalization,2021.2.3,60.014858981781515,
,,,,,,,,midRight,13.0,3,ch1Sound_localizationTask.wav,13.0,"(1142, 878)","(182, -202)",190,-338,,,,,,,,,2,4,18,5,,,,,,,,,,,,,,,,,,,,,,,,,,,,,,,,,,,,,,,,,,,,972.0493991160765,None,973.1489911270328,None,974.0824567298405,None,1.6195767195767194,0.8164869388565421,974.0824567298405,None,,,,,,,,,,,,,,,,,156,001,2024_Jan_25_1606,SpeechDraft1Carolyn_lessNoise_PlusLocalization,2021.2.3,60.014858981781515,
,,,,,,,,midRight,13.0,3,ch1Sound_localizationTask.wav,13.0,"(1142, 878)","(182, -202)",190,-338,,,,,,,,,2,5,19,5,,,,,,,,,,,,,,,,,,,,,,,,,,,,,,,,,,,,,,,,,,,,974.8999347896315,None,975.9989929380827,None,976.93239402771,None,1.7047619047619047,0.668748527765274,976.93239402771,None,,,,,,,,,,,,,,,,,156,001,2024_Jan_25_1606,SpeechDraft1Carolyn_lessNoise_PlusLocalization,2021.2.3,60.014858981781515,
,,,,,,,,nearRight,6.5,0,ch1Sound_localizationTask.wav,6.5,"(1047, 878)","(87, -202)",95,-338,,,,,,,,,2,6,20,4,,,,,,,,,,,,,,,,,,,,,,,,,,,,,,,,,,,,,,,,,,,,977.6159936976619,None,978.7157863080502,None,979.6491896398365,None,1.4962962962962962,0.6331593804061413,979.6491896398365,None,,,,,,,,,,,,,,,,,156,001,2024_Jan_25_1606,SpeechDraft1Carolyn_lessNoise_PlusLocalization,2021.2.3,60.014858981781515,
,,,,,,,,center,0.0,6,ch1Sound_localizationTask.wav,0.0,"(952, 878)","(-8,-202)",0,-338,,,,,,,,,3,0,21,3,,,,,,,,,,,,,,,,,,,,,,,,,,,,,,,,,,,,,,,,,,,,980.2992585618049,None,981.3989634118043,None,982.3324693706818,None,1.4137566137566138,0.3344847192056477,982.3324693706818,None,,,,,,,,,,,,,,,,,156,001,2024_Jan_25_1606,SpeechDraft1Carolyn_lessNoise_PlusLocalization,2021.2.3,60.014858981781515,
,,,,,,,,midLeft,-13.0,2,ch1Sound_localizationTask.wav,-13.0,"(762, 878)","(-198,-202)",-190,-338,,,,,,,,,3,1,22,1,,,,,,,,,,,,,,,,,,,,,,,,,,,,,,,,,,,,,,,,,,,,982.6827826276422,None,983.7822864339687,None,984.7157572559081,None,1.3719576719576718,0.816195422783494,984.7157572559081,None,,,,,,,,,,,,,,,,,156,001,2024_Jan_25_1606,SpeechDraft1Carolyn_lessNoise_PlusLocalization,2021.2.3,60.014858981781515,
,,,,,,,,midLeft,-13.0,2,ch1Sound_localizationTask.wav,-13.0,"(762, 878)","(-198,-202)",-190,-338,,,,,,,,,3,2,23,1,,,,,,,,,,,,,,,,,,,,,,,,,,,,,,,,,,,,,,,,,,,,985.5329465107061,None,986.6323188748211,None,987.5659061549231,None,1.3507936507936509,1.1001996933482587,987.5659061549231,None,,,,,,,,,,,,,,,,,156,001,2024_Jan_25_1606,SpeechDraft1Carolyn_lessNoise_PlusLocalization,2021.2.3,60.014858981781515,
,,,,,,,,farLeft,-19.1,5,ch1Sound_localizationTask.wav,-19.1,"(667, 878)","(-293,-202)",-285,-338,,,,,,,,,3,3,24,0,,,,,,,,,,,,,,,,,,,,,,,,,,,,,,,,,,,,,,,,,,,,988.6828253706917,None,989.7822685050778,None,990.7156840260141,None,1.398941798941799,0.532923698425293,990.7156840260141,None,,,,,,,,,,,,,,,,,156,001,2024_Jan_25_1606,SpeechDraft1Carolyn_lessNoise_PlusLocalization,2021.2.3,60.014858981781515,
,,,,,,,,farRight,19.1,4,ch1Sound_localizationTask.wav,19.1,"(1237, 878)","(277,-202)",285,-338,,,,,,,,,3,4,25,6,,,,,,,,,,,,,,,,,,,,,,,,,,,,,,,,,,,,,,,,,,,,991.2503551319242,None,992.3657179828733,None,993.282319417689,None,1.7121693121693122,1.0853094346821308,993.282319417689,None,,,,,,,,,,,,,,,,,156,001,2024_Jan_25_1606,SpeechDraft1Carolyn_lessNoise_PlusLocalization,2021.2.3,60.014858981781515,
,,,,,,,,midRight,13.0,3,ch1Sound_localizationTask.wav,13.0,"(1142, 878)","(182, -202)",190,-338,,,,,,,,,3,5,26,5,,,,,,,,,,,,,,,,,,,,,,,,,,,,,,,,,,,,,,,,,,,,994.3825992238708,None,995.482421006076,None,996.4155580047518,None,1.6412698412698412,0.6495485911145806,996.4155580047518,None,,,,,,,,,,,,,,,,,156,001,2024_Jan_25_1606,SpeechDraft1Carolyn_lessNoise_PlusLocalization,2021.2.3,60.014858981781515,
,,,,,,,,center,0.0,6,ch1Sound_localizationTask.wav,0.0,"(952, 878)","(-8,-202)",0,-338,,,,,,,,,3,6,27,3,,,,,,,,,,,,,,,,,,,,,,,,,,,,,,,,,,,,,,,,,,,,997.066792902071,None,998.1656145290472,None,999.0991086750291,None,1.4968253968253968,0.9333899938501418,999.0991086750291,None,,,,,,,,,,,,,,,,,156,001,2024_Jan_25_1606,SpeechDraft1Carolyn_lessNoise_PlusLocalization,2021.2.3,60.014858981781515,
,,,,,,,,midLeft,-13.0,2,ch1Sound_localizationTask.wav,-13.0,"(762, 878)","(-198,-202)",-190,-338,,,,,,,,,4,0,28,1,,,,,,,,,,,,,,,,,,,,,,,,,,,,,,,,,,,,,,,,,,,,1000.0493224430829,None,1001.1489890487865,None,1002.0824515759014,None,1.364021164021164,0.8000400261953473,1002.0824515759014,None,,,,,,,,,,,,,,,,,156,001,2024_Jan_25_1606,SpeechDraft1Carolyn_lessNoise_PlusLocalization,2021.2.3,60.014858981781515,
,,,,,,,,farLeft,-19.1,5,ch1Sound_localizationTask.wav,-19.1,"(667, 878)","(-293,-202)",-285,-338,,,,,,,,,4,1,29,0,,,,,,,,,,,,,,,,,,,,,,,,,,,,,,,,,,,,,,,,,,,,1002.884415328037,None,1003.9989754906856,None,1004.9156294129789,None,1.4936507936507937,2.033368149306625,1004.9156294129789,None,,,,,,,,,,,,,,,,,156,001,2024_Jan_25_1606,SpeechDraft1Carolyn_lessNoise_PlusLocalization,2021.2.3,60.014858981781515,
,,,,,,,,farRight,19.1,4,ch1Sound_localizationTask.wav,19.1,"(1237, 878)","(277,-202)",285,-338,,,,,,,,,4,2,30,6,,,,,,,,,,,,,,,,,,,,,,,,,,,,,,,,,,,,,,,,,,,,1006.9503517979756,None,1008.0490367836319,None,1008.98237680085,None,1.6481481481481481,0.5495057879015803,1008.98237680085,None,,,,,,,,,,,,,,,,,156,001,2024_Jan_25_1606,SpeechDraft1Carolyn_lessNoise_PlusLocalization,2021.2.3,60.014858981781515,
,,,,,,,,midLeft,-13.0,2,ch1Sound_localizationTask.wav,-13.0,"(762, 878)","(-198,-202)",-190,-338,,,,,,,,,4,3,31,1,,,,,,,,,,,,,,,,,,,,,,,,,,,,,,,,,,,,,,,,,,,,1009.5330543089658,None,1010.6321954410523,None,1011.5657884320244,None,1.475132275132275,0.6487431498244405,1011.5657884320244,None,,,,,,,,,,,,,,,,,156,001,2024_Jan_25_1606,SpeechDraft1Carolyn_lessNoise_PlusLocalization,2021.2.3,60.014858981781515,
,,,,,,,,nearRight,6.5,0,ch1Sound_localizationTask.wav,6.5,"(1047, 878)","(87, -202)",95,-338,,,,,,,,,4,4,32,4,,,,,,,,,,,,,,,,,,,,,,,,,,,,,,,,,,,,,,,,,,,,1012.2164888349362,None,1013.3158088820055,None,1014.2490141838789,None,1.643915343915344,0.39962957380339503,1014.2490141838789,None,,,,,,,,,,,,,,,,,156,001,2024_Jan_25_1606,SpeechDraft1Carolyn_lessNoise_PlusLocalization,2021.2.3,60.014858981781515,
,,,,,,,,nearRight,6.5,0,ch1Sound_localizationTask.wav,6.5,"(1047, 878)","(87, -202)",95,-338,,,,,,,,,4,5,33,4,,,,,,,,,,,,,,,,,,,,,,,,,,,,,,,,,,,,,,,,,,,,1014.6499673170038,None,1015.7490510800853,None,1016.6824426478706,None,1.638095238095238,0.6989045171067119,1016.6824426478706,None,,,,,,,,,,,,,,,,,156,001,2024_Jan_25_1606,SpeechDraft1Carolyn_lessNoise_PlusLocalization,2021.2.3,60.014858981781515,
,,,,,,,,nearLeft,-6.5,1,ch1Sound_localizationTask.wav,-6.5,"(857, 878)","(-103,-202)",-95,-338,,,,,,,,,4,6,34,2,,,,,,,,,,,,,,,,,,,,,,,,,,,,,,,,,,,,,,,,,,,,1017.3826824086718,None,1018.482337160036,None,1019.4156870697625,None,1.5306878306878307,0.733762034215033,1019.4156870697625,None,,,,,,,,,,,,,,,,,156,001,2024_Jan_25_1606,SpeechDraft1Carolyn_lessNoise_PlusLocalization,2021.2.3,60.014858981781515,
,,,,,,,,nearRight,6.5,0,ch1Sound_localizationTask.wav,6.5,"(1047, 878)","(87, -202)",95,-338,,,,,,,,,5,0,35,4,,,,,,,,,,,,,,,,,,,,,,,,,,,,,,,,,,,,,,,,,,,,1020.1661131237634,None,1021.2657652278431,None,1022.1989730740897,None,1.6148148148148147,2.0333152608945966,1022.1989730740897,None,,,,,,,,,,,,,,,,,156,001,2024_Jan_25_1606,SpeechDraft1Carolyn_lessNoise_PlusLocalization,2021.2.3,60.014858981781515,
,,,,,,,,midRight,13.0,3,ch1Sound_localizationTask.wav,13.0,"(1142, 878)","(182, -202)",190,-338,,,,,,,,,5,1,36,5,,,,,,,,,,,,,,,,,,,,,,,,,,,,,,,,,,,,,,,,,,,,1024.2330509019084,None,1025.3324784548022,None,1026.2656938647851,None,1.6137566137566137,1.3331194799393415,1026.2656938647851,None,,,,,,,,,,,,,,,,,156,001,2024_Jan_25_1606,SpeechDraft1Carolyn_lessNoise_PlusLocalization,2021.2.3,60.014858981781515,
,,,,,,,,midLeft,-13.0,2,ch1Sound_localizationTask.wav,-13.0,"(762, 878)","(-198,-202)",-190,-338,,,,,,,,,5,2,37,1,,,,,,,,,,,,,,,,,,,,,,,,,,,,,,,,,,,,,,,,,,,,1027.5993888317607,None,1028.69901156798,None,1029.6323410808109,None,1.3878306878306879,0.8332885596901178,1029.6323410808109,None,,,,,,,,,,,,,,,,,156,001,2024_Jan_25_1606,SpeechDraft1Carolyn_lessNoise_PlusLocalization,2021.2.3,60.014858981781515,
,,,,,,,,nearLeft,-6.5,1,ch1Sound_localizationTask.wav,-6.5,"(857, 878)","(-103,-202)",-95,-338,,,,,,,,,5,3,38,2,,,,,,,,,,,,,,,,,,,,,,,,,,,,,,,,,,,,,,,,,,,,1030.4671471947804,None,1031.5823530210182,None,1032.4991010939702,None,1.4587301587301587,0.7492266139015555,1032.4991010939702,None,,,,,,,,,,,,,,,,,156,001,2024_Jan_25_1606,SpeechDraft1Carolyn_lessNoise_PlusLocalization,2021.2.3,60.014858981781515,
,,,,,,,,midRight,13.0,3,ch1Sound_localizationTask.wav,13.0,"(1142, 878)","(182, -202)",190,-338,,,,,,,,,5,4,39,5,,,,,,,,,,,,,,,,,,,,,,,,,,,,,,,,,,,,,,,,,,,,1033.2493488420732,None,1034.3491729288362,None,1035.2825184836984,None,1.5497354497354499,0.43329440616071224,1035.2825184836984,None,,,,,,,,,,,,,,,,,156,001,2024_Jan_25_1606,SpeechDraft1Carolyn_lessNoise_PlusLocalization,2021.2.3,60.014858981781515,
,,,,,,,,midLeft,-13.0,2,ch1Sound_localizationTask.wav,-13.0,"(762, 878)","(-198,-202)",-190,-338,,,,,,,,,5,5,40,1,,,,,,,,,,,,,,,,,,,,,,,,,,,,,,,,,,,,,,,,,,,,1035.7162992088124,None,1036.8157439129427,None,1037.7492121667601,None,1.3984126984126983,0.6833780230954289,1037.7492121667601,None,,,,,,,,,,,,,,,,,156,001,2024_Jan_25_1606,SpeechDraft1Carolyn_lessNoise_PlusLocalization,2021.2.3,60.014858981781515,
,,,,,,,,midRight,13.0,3,ch1Sound_localizationTask.wav,13.0,"(1142, 878)","(182, -202)",190,-338,,,,,,,,,5,6,41,5,,,,,,,,,,,,,,,,,,,,,,,,,,,,,,,,,,,,,,,,,,,,1038.4495158977807,None,1039.5491090416908,None,1040.482405107934,None,1.5164021164021164,0.6992922918871045,1040.482405107934,None,,,,,,,,,,,,,,,,,156,001,2024_Jan_25_1606,SpeechDraft1Carolyn_lessNoise_PlusLocalization,2021.2.3,60.014858981781515,
,,,,,,,,nearRight,6.5,0,ch1Sound_localizationTask.wav,6.5,"(1047, 878)","(87, -202)",95,-338,,,,,,,,,6,0,42,4,,,,,,,,,,,,,,,,,,,,,,,,,,,,,,,,,,,,,,,,,,,,1041.182698528748,None,1042.2823724439368,None,1043.2161768926308,None,1.3830687830687831,1.0155182811431587,1043.2161768926308,None,,,,,,,,,,,,,,,,,156,001,2024_Jan_25_1606,SpeechDraft1Carolyn_lessNoise_PlusLocalization,2021.2.3,60.014858981781515,
,,,,,,,,nearLeft,-6.5,1,ch1Sound_localizationTask.wav,-6.5,"(857, 878)","(-103,-202)",-95,-338,,,,,,,,,6,1,43,2,,,,,,,,,,,,,,,,,,,,,,,,,,,,,,,,,,,,,,,,,,,,1044.2327206428163,None,1045.3326657447033,None,1046.265774213709,None,1.2677248677248678,0.6832483531907201,1046.265774213709,None,,,,,,,,,,,,,,,,,156,001,2024_Jan_25_1606,SpeechDraft1Carolyn_lessNoise_PlusLocalization,2021.2.3,60.014858981781515,
,,,,,,,,center,0.0,6,ch1Sound_localizationTask.wav,0.0,"(952, 878)","(-8,-202)",0,-338,,,,,,,,,6,2,44,3,,,,,,,,,,,,,,,,,,,,,,,,,,,,,,,,,,,,,,,,,,,,1046.966048447881,None,1048.0658800066449,None,1048.9989532218315,None,1.403174603174603,0.7832358339801431,1048.9989532218315,None,,,,,,,,,,,,,,,,,156,001,2024_Jan_25_1606,SpeechDraft1Carolyn_lessNoise_PlusLocalization,2021.2.3,60.014858981781515,
,,,,,,,,farLeft,-19.1,5,ch1Sound_localizationTask.wav,-19.1,"(667, 878)","(-293,-202)",-285,-338,,,,,,,,,6,3,45,0,,,,,,,,,,,,,,,,,,,,,,,,,,,,,,,,,,,,,,,,,,,,1049.7827466106974,None,1050.88257216895,None,1051.8157249977812,None,1.4597883597883599,0.683072263840586,1051.8157249977812,None,,,,,,,,,,,,,,,,,156,001,2024_Jan_25_1606,SpeechDraft1Carolyn_lessNoise_PlusLocalization,2021.2.3,60.014858981781515,
,,,,,,,,nearRight,6.5,0,ch1Sound_localizationTask.wav,6.5,"(1047, 878)","(87, -202)",95,-338,,,,,,,,,6,4,46,4,,,,,,,,,,,,,,,,,,,,,,,,,,,,,,,,,,,,,,,,,,,,1052.499644502066,None,1053.5992271350697,None,1054.532433453016,None,1.6037037037037036,0.7344591519795358,1054.532433453016,None,,,,,,,,,,,,,,,,,156,001,2024_Jan_25_1606,SpeechDraft1Carolyn_lessNoise_PlusLocalization,2021.2.3,60.014858981781515,
,,,,,,,,farRight,19.1,4,ch1Sound_localizationTask.wav,19.1,"(1237, 878)","(277,-202)",285,-338,,,,,,,,,6,5,47,6,,,,,,,,,,,,,,,,,,,,,,,,,,,,,,,,,,,,,,,,,,,,1055.2829635869712,None,1056.3828392620198,None,1057.3157155606896,None,1.7227513227513227,0.5830137827433646,1057.3157155606896,None,,,,,,,,,,,,,,,,,156,001,2024_Jan_25_1606,SpeechDraft1Carolyn_lessNoise_PlusLocalization,2021.2.3,60.014858981781515,
,,,,,,,,farLeft,-19.1,5,ch1Sound_localizationTask.wav,-19.1,"(667, 878)","(-293,-202)",-285,-338,,,,,,,,,6,6,48,0,,,,,,,,,,,,,,,,,,,,,,,,,,,,,,,,,,,,,,,,,,,,1057.9160526748747,None,1059.0159788918681,None,1059.9490758129396,None,1.5354497354497354,0.6672017350792885,1059.9490758129396,None,,,,,,,,,,,,,,,,,156,001,2024_Jan_25_1606,SpeechDraft1Carolyn_lessNoise_PlusLocalization,2021.2.3,60.014858981781515,
,,,,,,,,center,0.0,6,ch1Sound_localizationTask.wav,0.0,"(952, 878)","(-8,-202)",0,-338,,,,,,,,,7,0,49,3,,,,,,,,,,,,,,,,,,,,,,,,,,,,,,,,,,,,,,,,,,,,1060.6328186499886,None,1061.7324481438845,None,1062.6657773358747,None,1.6417989417989418,0.7158825709484518,1062.6657773358747,None,,,,,,,,,,,,,,,,,156,001,2024_Jan_25_1606,SpeechDraft1Carolyn_lessNoise_PlusLocalization,2021.2.3,60.014858981781515,
,,,,,,,,center,0.0,6,ch1Sound_localizationTask.wav,0.0,"(952, 878)","(-8,-202)",0,-338,,,,,,,,,7,1,50,3,,,,,,,,,,,,,,,,,,,,,,,,,,,,,,,,,,,,,,,,,,,,1063.3828576076776,None,1064.4823571736924,None,1065.4157431107014,None,1.5232804232804233,0.5668538091704249,1065.4157431107014,None,,,,,,,,,,,,,,,,,156,001,2024_Jan_25_1606,SpeechDraft1Carolyn_lessNoise_PlusLocalization,2021.2.3,60.014858981781515,
,,,,,,,,farLeft,-19.1,5,ch1Sound_localizationTask.wav,-19.1,"(667, 878)","(-293,-202)",-285,-338,,,,,,,,,7,2,51,0,,,,,,,,,,,,,,,,,,,,,,,,,,,,,,,,,,,,,,,,,,,,1065.9831307069398,None,1067.0824033548124,None,1068.0157714607194,None,1.28994708994709,0.5504917330108583,1068.0157714607194,None,,,,,,,,,,,,,,,,,156,001,2024_Jan_25_1606,SpeechDraft1Carolyn_lessNoise_PlusLocalization,2021.2.3,60.014858981781515,
,,,,,,,,farRight,19.1,4,ch1Sound_localizationTask.wav,19.1,"(1237, 878)","(277,-202)",285,-338,,,,,,,,,7,3,52,6,,,,,,,,,,,,,,,,,,,,,,,,,,,,,,,,,,,,,,,,,,,,1068.5827738209628,None,1069.6824326179922,None,1070.615779493004,None,1.5825396825396827,0.9002842879854143,1070.615779493004,None,,,,,,,,,,,,,,,,,156,001,2024_Jan_25_1606,SpeechDraft1Carolyn_lessNoise_PlusLocalization,2021.2.3,60.014858981781515,
,,,,,,,,nearLeft,-6.5,1,ch1Sound_localizationTask.wav,-6.5,"(857, 878)","(-103,-202)",-95,-338,,,,,,,,,7,4,53,2,,,,,,,,,,,,,,,,,,,,,,,,,,,,,,,,,,,,,,,,,,,,1071.5175736136734,None,1072.6324941576459,None,1073.5490773087367,None,1.66984126984127,0.6997762620449066,1073.5490773087367,None,,,,,,,,,,,,,,,,,156,001,2024_Jan_25_1606,SpeechDraft1Carolyn_lessNoise_PlusLocalization,2021.2.3,60.014858981781515,
,,,,,,,,farRight,19.1,4,ch1Sound_localizationTask.wav,19.1,"(1237, 878)","(277,-202)",285,-338,,,,,,,,,7,5,54,6,,,,,,,,,,,,,,,,,,,,,,,,,,,,,,,,,,,,,,,,,,,,1074.249605431687,None,1075.3492091540247,None,1076.2824885058217,None,1.517989417989418,0.8657954749651253,1076.2824885058217,None,,,,,,,,,,,,,,,,,156,001,2024_Jan_25_1606,SpeechDraft1Carolyn_lessNoise_PlusLocalization,2021.2.3,60.014858981781515,
,,,,,,,,farLeft,-19.1,5,ch1Sound_localizationTask.wav,-19.1,"(667, 878)","(-293,-202)",-285,-338,,,,,,,,,7,6,55,0,,,,,,,,,,,,,,,,,,,,,,,,,,,,,,,,,,,,,,,,,,,,1077.1495510488749,None,1078.2491635167971,None,1079.1824809708633,None,1.2693121693121694,0.7509851320646703,1079.1824809708633,None,,,,,,,,,,,,,,,,,156,001,2024_Jan_25_1606,SpeechDraft1Carolyn_lessNoise_PlusLocalization,2021.2.3,60.014858981781515,
,,,,,,,,,,,,,,,,,,,,,,,,,,,,,,,,,,,,,,,,,,,,,,,,,,,,,,,,,,,,,,,,,,,,,,,,,,,,,,,,,,space,6.784080292098224,1080.032766473014,None,,,,,,,,,,,,,156,001,2024_Jan_25_1606,SpeechDraft1Carolyn_lessNoise_PlusLocalization,2021.2.3,60.014858981781515,
,,,,,,,,nearLeft,-6.5,1,ch1Sound_localizationTask.wav,-6.5,"(857, 878)","(-103,-202)",-95,-338,,,,,,,,,,,,,0,0,0,2,,,,,,,,,,,,,,,,,,,,,,,,,,,,,,,,,,,,,,,,1086.8658224749379,None,,,1089.8992665978149,None,1.3952380952380952,0.15386029239743948,1089.8992665978149,None,,,,,1080.032766473014,None,1087.8661066209897,None,1088.0494043398649,1088.0661237500608,,,,,,,156,001,2024_Jan_25_1606,SpeechDraft1Carolyn_lessNoise_PlusLocalization,2021.2.3,60.014858981781515,
,,,,,,,,midLeft,-13.0,2,ch1Sound_localizationTask.wav,-13.0,"(762, 878)","(-198,-202)",-190,-338,,,,,,,,,,,,,0,1,1,1,,,,,,,,,,,,,,,,,,,,,,,,,,,,,,,,,,,,,,,,1090.0502819889225,None,,,1093.0659075337462,None,1.3814814814814815,0.04953707009553909,1093.0659075337462,None,,,,,,,1091.0496110259555,None,1091.2327591259964,1091.2495894297026,,,,,,,156,001,2024_Jan_25_1606,SpeechDraft1Carolyn_lessNoise_PlusLocalization,2021.2.3,60.014858981781515,
,,,,,,,,farLeft,-19.1,5,ch1Sound_localizationTask.wav,-19.1,"(667, 878)","(-293,-202)",-285,-338,,,,,,,,,,,,,0,2,2,0,,,,,,,,,,,,,,,,,,,,,,,,,,,,,,,,,,,,,,,,1093.1170289688744,None,,,1096.1491829128936,None,1.353968253968254,0.6328242882154882,1096.1491829128936,None,,,,,,,1094.1327440668829,None,1094.3160873018205,1094.332760491874,,,,,,,156,001,2024_Jan_25_1606,SpeechDraft1Carolyn_lessNoise_PlusLocalization,2021.2.3,60.014858981781515,
,,,,,,,,midLeft,-13.0,2,ch1Sound_localizationTask.wav,-13.0,"(762, 878)","(-198,-202)",-190,-338,,,,,,,,,,,,,0,3,3,1,,,,,,,,,,,,,,,,,,,,,,,,,,,,,,,,,,,,,,,,1096.783804029692,None,,,1099.799064511899,None,1.3952380952380952,0.7506058919243515,1099.799064511899,None,,,,,,,1097.7827804856934,None,1097.9661221359856,1097.9828035607934,,,,,,,156,001,2024_Jan_25_1606,SpeechDraft1Carolyn_lessNoise_PlusLocalization,2021.2.3,60.014858981781515,
,,,,,,,,center,0.0,6,ch1Sound_localizationTask.wav,0.0,"(952, 878)","(-8,-202)",0,-338,,,,,,,,,,,,,0,4,4,3,,,,,,,,,,,,,,,,,,,,,,,,,,,,,,,,,,,,,,,,1100.5662540919147,None,,,1103.5827934299596,None,1.4814814814814814,1.1823163977824152,1103.5827934299596,None,,,,,,,1101.5662183729,None,1101.7494768528268,1101.7661148519255,,,,,,,156,001,2024_Jan_25_1606,SpeechDraft1Carolyn_lessNoise_PlusLocalization,2021.2.3,60.014858981781515,
,,,,,,,,farRight,19.1,4,ch1Sound_localizationTask.wav,19.1,"(1237, 878)","(277,-202)",285,-338,,,,,,,,,,,,,0,5,5,6,,,,,,,,,,,,,,,,,,,,,,,,,,,,,,,,,,,,,,,,1104.7673073909245,None,,,1107.7990823048167,None,1.6529100529100529,1.0998988170176744,1107.7990823048167,None,,,,,,,1105.7829472878948,None,1105.9660959597677,1105.9827346326783,,,,,,,156,001,2024_Jan_25_1606,SpeechDraft1Carolyn_lessNoise_PlusLocalization,2021.2.3,60.014858981781515,
,,,,,,,,nearLeft,-6.5,1,ch1Sound_localizationTask.wav,-6.5,"(857, 878)","(-103,-202)",-95,-338,,,,,,,,,,,,,0,6,6,2,,,,,,,,,,,,,,,,,,,,,,,,,,,,,,,,,,,,,,,,1108.9000434218906,None,,,1111.9157457230613,None,1.4396825396825397,0.949917531106621,1111.9157457230613,None,,,,,,,1109.899557990022,None,1110.082808484789,1110.0994409038685,,,,,,,156,001,2024_Jan_25_1606,SpeechDraft1Carolyn_lessNoise_PlusLocalization,2021.2.3,60.014858981781515,
,,,,,,,,farRight,19.1,4,ch1Sound_localizationTask.wav,19.1,"(1237, 878)","(277,-202)",285,-338,,,,,,,,,,,,,1,0,7,6,,,,,,,,,,,,,,,,,,,,,,,,,,,,,,,,,,,,,,,,1112.8665979248472,None,,,1115.8826082549058,None,1.6682539682539683,1.5317310709506273,1115.8826082549058,None,,,,,,,1113.866123053711,None,1114.049477467779,1114.0661428957246,,,,,,,156,001,2024_Jan_25_1606,SpeechDraft1Carolyn_lessNoise_PlusLocalization,2021.2.3,60.014858981781515,
,,,,,,,,farLeft,-19.1,5,ch1Sound_localizationTask.wav,-19.1,"(667, 878)","(-293,-202)",-285,-338,,,,,,,,,,,,,1,1,8,0,,,,,,,,,,,,,,,,,,,,,,,,,,,,,,,,,,,,,,,,1117.4161221389659,None,,,1120.432398187928,None,1.3544973544973544,1.2159908898174763,1120.432398187928,None,,,,,,,1118.4160902127624,None,1118.5994866136461,1118.6161483009346,,,,,,,156,001,2024_Jan_25_1606,SpeechDraft1Carolyn_lessNoise_PlusLocalization,2021.2.3,60.014858981781515,
,,,,,,,,midRight,13.0,3,ch1Sound_localizationTask.wav,13.0,"(1142, 878)","(182, -202)",190,-338,,,,,,,,,,,,,1,2,9,5,,,,,,,,,,,,,,,,,,,,,,,,,,,,,,,,,,,,,,,,1121.6498268377036,None,,,1124.6659082109109,None,1.5920634920634922,0.7838938110508025,1124.6659082109109,None,,,,,,,1122.6496721580625,None,1122.8328314917162,1122.8495013816282,,,,,,,156,001,2024_Jan_25_1606,SpeechDraft1Carolyn_lessNoise_PlusLocalization,2021.2.3,60.014858981781515,
,,,,,,,,midRight,13.0,3,ch1Sound_localizationTask.wav,13.0,"(1142, 878)","(182, -202)",190,-338,,,,,,,,,,,,,1,3,10,5,,,,,,,,,,,,,,,,,,,,,,,,,,,,,,,,,,,,,,,,1125.4662643428892,None,,,1128.4825318208896,None,1.5777777777777777,1.2497732159681618,1128.4825318208896,None,,,,,,,1126.4661290170625,None,1126.6494802418165,1126.6661316049285,,,,,,,156,001,2024_Jan_25_1606,SpeechDraft1Carolyn_lessNoise_PlusLocalization,2021.2.3,60.014858981781515,
,,,,,,,,farRight,19.1,4,ch1Sound_localizationTask.wav,19.1,"(1237, 878)","(277,-202)",285,-338,,,,,,,,,,,,,1,4,11,6,,,,,,,,,,,,,,,,,,,,,,,,,,,,,,,,,,,,,,,,1129.733301667031,None,,,1132.7491854969412,None,1.6534391534391535,1.0829931683838367,1132.7491854969412,None,,,,,,,1130.732831245754,None,1130.9161117547192,1130.9327502497472,,,,,,,156,001,2024_Jan_25_1606,SpeechDraft1Carolyn_lessNoise_PlusLocalization,2021.2.3,60.014858981781515,
,,,,,,,,midLeft,-13.0,2,ch1Sound_localizationTask.wav,-13.0,"(762, 878)","(-198,-202)",-190,-338,,,,,,,,,,,,,1,5,12,1,,,,,,,,,,,,,,,,,,,,,,,,,,,,,,,,,,,,,,,,1133.833890386857,None,,,1136.8657849258743,None,1.3947089947089948,1.1506852307356894,1136.8657849258743,None,,,,,,,1134.8495127316564,None,1135.032764414791,1135.0495225829072,,,,,,,156,001,2024_Jan_25_1606,SpeechDraft1Carolyn_lessNoise_PlusLocalization,2021.2.3,60.014858981781515,
,,,,,,,,farLeft,-19.1,5,ch1Sound_localizationTask.wav,-19.1,"(667, 878)","(-293,-202)",-285,-338,,,,,,,,,,,,,1,6,13,0,,,,,,,,,,,,,,,,,,,,,,,,,,,,,,,,,,,,,,,,1138.0327845620923,None,,,1141.0492213326506,None,1.335978835978836,1.3014491363428533,1141.0492213326506,None,,,,,,,1139.032774461899,None,1139.216119066812,1139.232751156669,,,,,,,156,001,2024_Jan_25_1606,SpeechDraft1Carolyn_lessNoise_PlusLocalization,2021.2.3,60.014858981781515,
,,,,,,,,midRight,13.0,3,ch1Sound_localizationTask.wav,13.0,"(1142, 878)","(182, -202)",190,-338,,,,,,,,,,,,,2,0,14,5,,,,,,,,,,,,,,,,,,,,,,,,,,,,,,,,,,,,,,,,1142.3661719546653,None,,,1145.3825114308856,None,1.5931216931216932,1.4154707891866565,1145.3825114308856,None,,,,,,,1143.366264742799,None,1143.5495190126821,1143.5661226068623,,,,,,,156,001,2024_Jan_25_1606,SpeechDraft1Carolyn_lessNoise_PlusLocalization,2021.2.3,60.014858981781515,
,,,,,,,,nearRight,6.5,0,ch1Sound_localizationTask.wav,6.5,"(1047, 878)","(87, -202)",95,-338,,,,,,,,,,,,,2,1,15,4,,,,,,,,,,,,,,,,,,,,,,,,,,,,,,,,,,,,,,,,1146.7994433129206,None,,,1149.81591463089,None,1.5566137566137566,1.1160426661372185,1149.81591463089,None,,,,,,,1147.799450376071,None,1147.9828466069885,1147.9994846796617,,,,,,,156,001,2024_Jan_25_1606,SpeechDraft1Carolyn_lessNoise_PlusLocalization,2021.2.3,60.014858981781515,
,,,,,,,,midLeft,-13.0,2,ch1Sound_localizationTask.wav,-13.0,"(762, 878)","(-198,-202)",-190,-338,,,,,,,,,,,,,2,2,16,1,,,,,,,,,,,,,,,,,,,,,,,,,,,,,,,,,,,,,,,,1150.93311175704,None,,,1153.9491925099865,None,1.3915343915343916,1.1657383311539888,1153.9491925099865,None,,,,,,,1151.932847644668,None,1152.116427002009,1152.1328137526289,,,,,,,156,001,2024_Jan_25_1606,SpeechDraft1Carolyn_lessNoise_PlusLocalization,2021.2.3,60.014858981781515,
,,,,,,,,center,0.0,6,ch1Sound_localizationTask.wav,0.0,"(952, 878)","(-8,-202)",0,-338,,,,,,,,,,,,,2,3,17,3,,,,,,,,,,,,,,,,,,,,,,,,,,,,,,,,,,,,,,,,1155.1163205518387,None,,,1158.1325824339874,None,1.4957671957671956,1.0320967002771795,1158.1325824339874,None,,,,,,,1156.1161895720288,None,1156.299564566929,1156.31614995189,,,,,,,156,001,2024_Jan_25_1606,SpeechDraft1Carolyn_lessNoise_PlusLocalization,2021.2.3,60.014858981781515,
,,,,,,,,midLeft,-13.0,2,ch1Sound_localizationTask.wav,-13.0,"(762, 878)","(-198,-202)",-190,-338,,,,,,,,,,,,,2,4,18,1,,,,,,,,,,,,,,,,,,,,,,,,,,,,,,,,,,,,,,,,1159.1661399248987,None,,,1162.182548924815,None,1.3867724867724869,0.8825104893185198,1162.182548924815,None,,,,,,,1160.166200445965,None,1160.3495231098495,1160.3662812467664,,,,,,,156,001,2024_Jan_25_1606,SpeechDraft1Carolyn_lessNoise_PlusLocalization,2021.2.3,60.014858981781515,
,,,,,,,,midLeft,-13.0,2,ch1Sound_localizationTask.wav,-13.0,"(762, 878)","(-198,-202)",-190,-338,,,,,,,,,,,,,2,5,19,1,,,,,,,,,,,,,,,,,,,,,,,,,,,,,,,,,,,,,,,,1163.0666621476412,None,,,1166.0826299148612,None,1.4095238095238094,0.8819435867480934,1166.0826299148612,None,,,,,,,1164.0662311869673,None,1164.2495512738824,1164.2661542738788,,,,,,,156,001,2024_Jan_25_1606,SpeechDraft1Carolyn_lessNoise_PlusLocalization,2021.2.3,60.014858981781515,
,,,,,,,,farLeft,-19.1,5,ch1Sound_localizationTask.wav,-19.1,"(667, 878)","(-293,-202)",-285,-338,,,,,,,,,,,,,2,6,20,0,,,,,,,,,,,,,,,,,,,,,,,,,,,,,,,,,,,,,,,,1166.966423148755,None,,,1169.9824400446378,None,1.2666666666666666,0.9659823230467737,1169.9824400446378,None,,,,,,,1167.9663449949585,None,1168.1495253257453,1168.166224556975,,,,,,,156,001,2024_Jan_25_1606,SpeechDraft1Carolyn_lessNoise_PlusLocalization,2021.2.3,60.014858981781515,
,,,,,,,,midRight,13.0,3,ch1Sound_localizationTask.wav,13.0,"(1142, 878)","(182, -202)",190,-338,,,,,,,,,,,,,3,0,21,5,,,,,,,,,,,,,,,,,,,,,,,,,,,,,,,,,,,,,,,,1170.949944104068,None,,,1173.9659750708379,None,1.601058201058201,1.0990587580017745,1173.9659750708379,None,,,,,,,1171.9495287989266,None,1172.1329563297331,1172.14958261,,,,,,,156,001,2024_Jan_25_1606,SpeechDraft1Carolyn_lessNoise_PlusLocalization,2021.2.3,60.014858981781515,
,,,,,,,,nearRight,6.5,0,ch1Sound_localizationTask.wav,6.5,"(1047, 878)","(87, -202)",95,-338,,,,,,,,,,,,,3,1,22,4,,,,,,,,,,,,,,,,,,,,,,,,,,,,,,,,,,,,,,,,1175.06650775671,None,,,1178.0826516719535,None,1.5560846560846562,1.4648706163279712,1178.0826516719535,None,,,,,,,1176.066228848882,None,1176.2496063779108,1176.2661902769469,,,,,,,156,001,2024_Jan_25_1606,SpeechDraft1Carolyn_lessNoise_PlusLocalization,2021.2.3,60.014858981781515,
,,,,,,,,center,0.0,6,ch1Sound_localizationTask.wav,0.0,"(952, 878)","(-8,-202)",0,-338,,,,,,,,,,,,,3,2,23,3,,,,,,,,,,,,,,,,,,,,,,,,,,,,,,,,,,,,,,,,1179.5500707607716,None,,,1182.566043018829,None,1.48994708994709,0.949408857151866,1182.566043018829,None,,,,,,,1180.5495506608859,None,1180.7328571816906,1180.7496420410462,,,,,,,156,001,2024_Jan_25_1606,SpeechDraft1Carolyn_lessNoise_PlusLocalization,2021.2.3,60.014858981781515,
,,,,,,,,midLeft,-13.0,2,ch1Sound_localizationTask.wav,-13.0,"(762, 878)","(-198,-202)",-190,-338,,,,,,,,,,,,,3,3,24,1,,,,,,,,,,,,,,,,,,,,,,,,,,,,,,,,,,,,,,,,1183.5163225228898,None,,,1186.5326257506385,None,1.3793650793650793,0.9500227682292461,1186.5326257506385,None,,,,,,,1184.516127706971,None,1184.699697458651,1184.716131201014,,,,,,,156,001,2024_Jan_25_1606,SpeechDraft1Carolyn_lessNoise_PlusLocalization,2021.2.3,60.014858981781515,
,,,,,,,,midLeft,-13.0,2,ch1Sound_localizationTask.wav,-13.0,"(762, 878)","(-198,-202)",-190,-338,,,,,,,,,,,,,3,4,25,1,,,,,,,,,,,,,,,,,,,,,,,,,,,,,,,,,,,,,,,,1187.4836768726818,None,,,1190.499453925062,None,1.3973544973544973,1.1326938159763813,1190.499453925062,None,,,,,,,1188.4829361396842,None,1188.6662624566816,1188.6828616769053,,,,,,,156,001,2024_Jan_25_1606,SpeechDraft1Carolyn_lessNoise_PlusLocalization,2021.2.3,60.014858981781515,
,,,,,,,,nearLeft,-6.5,1,ch1Sound_localizationTask.wav,-6.5,"(857, 878)","(-103,-202)",-95,-338,,,,,,,,,,,,,3,5,26,2,,,,,,,,,,,,,,,,,,,,,,,,,,,,,,,,,,,,,,,,1191.6329786377028,None,,,1194.6494176378474,None,1.4455026455026454,0.6492288806475699,1194.6494176378474,None,,,,,,,1192.6328523349948,None,1192.816250148695,1192.8331310660578,,,,,,,156,001,2024_Jan_25_1606,SpeechDraft1Carolyn_lessNoise_PlusLocalization,2021.2.3,60.014858981781515,
,,,,,,,,midRight,13.0,3,ch1Sound_localizationTask.wav,13.0,"(1142, 878)","(182, -202)",190,-338,,,,,,,,,,,,,3,6,27,5,,,,,,,,,,,,,,,,,,,,,,,,,,,,,,,,,,,,,,,,1195.2999558160082,None,,,1198.3160583949648,None,1.624867724867725,1.01503229374066,1198.3160583949648,None,,,,,,,1196.2995250490494,None,1196.483108472079,1196.4996554739773,,,,,,,156,001,2024_Jan_25_1606,SpeechDraft1Carolyn_lessNoise_PlusLocalization,2021.2.3,60.014858981781515,
,,,,,,,,nearLeft,-6.5,1,ch1Sound_localizationTask.wav,-6.5,"(857, 878)","(-103,-202)",-95,-338,,,,,,,,,,,,,4,0,28,2,,,,,,,,,,,,,,,,,,,,,,,,,,,,,,,,,,,,,,,,1199.332916510757,None,,,1202.3493184670806,None,1.4433862433862434,1.3829998727887869,1202.3493184670806,None,,,,,,,1200.3328694188967,None,1200.5162164289504,1200.5328784370795,,,,,,,156,001,2024_Jan_25_1606,SpeechDraft1Carolyn_lessNoise_PlusLocalization,2021.2.3,60.014858981781515,
,,,,,,,,center,0.0,6,ch1Sound_localizationTask.wav,0.0,"(952, 878)","(-8,-202)",0,-338,,,,,,,,,,,,,4,1,29,3,,,,,,,,,,,,,,,,,,,,,,,,,,,,,,,,,,,,,,,,1203.7338429186493,None,,,1206.749315412715,None,1.5052910052910053,1.5669950763694942,1206.749315412715,None,,,,,,,1204.732873142697,None,1204.9163637408055,1204.9329061638564,,,,,,,156,001,2024_Jan_25_1606,SpeechDraft1Carolyn_lessNoise_PlusLocalization,2021.2.3,60.014858981781515,
,,,,,,,,nearLeft,-6.5,1,ch1Sound_localizationTask.wav,-6.5,"(857, 878)","(-103,-202)",-95,-338,,,,,,,,,,,,,4,2,30,2,,,,,,,,,,,,,,,,,,,,,,,,,,,,,,,,,,,,,,,,1208.3329589478672,None,,,1211.3493131287396,None,1.4523809523809523,1.7982918871566653,1211.3493131287396,None,,,,,,,1209.3329826686531,None,1209.5162417949177,1209.5330759207718,,,,,,,156,001,2024_Jan_25_1606,SpeechDraft1Carolyn_lessNoise_PlusLocalization,2021.2.3,60.014858981781515,
,,,,,,,,nearLeft,-6.5,1,ch1Sound_localizationTask.wav,-6.5,"(857, 878)","(-103,-202)",-95,-338,,,,,,,,,,,,,4,3,31,2,,,,,,,,,,,,,,,,,,,,,,,,,,,,,,,,,,,,,,,,1213.149551558774,None,,,1216.16613265872,None,1.4465608465608466,1.7501903870142996,1216.16613265872,None,,,,,,,1214.1495763757266,None,1214.3329023369588,1214.349587237928,,,,,,,156,001,2024_Jan_25_1606,SpeechDraft1Carolyn_lessNoise_PlusLocalization,2021.2.3,60.014858981781515,
,,,,,,,,midRight,13.0,3,ch1Sound_localizationTask.wav,13.0,"(1142, 878)","(182, -202)",190,-338,,,,,,,,,,,,,4,4,32,5,,,,,,,,,,,,,,,,,,,,,,,,,,,,,,,,,,,,,,,,1217.932943151798,None,,,1220.9493435537443,None,1.6116402116402115,1.0167072438634932,1220.9493435537443,None,,,,,,,1218.9329370157793,None,1219.1164445220493,1219.1328945308924,,,,,,,156,001,2024_Jan_25_1606,SpeechDraft1Carolyn_lessNoise_PlusLocalization,2021.2.3,60.014858981781515,
,,,,,,,,midRight,13.0,3,ch1Sound_localizationTask.wav,13.0,"(1142, 878)","(182, -202)",190,-338,,,,,,,,,,,,,4,5,33,5,,,,,,,,,,,,,,,,,,,,,,,,,,,,,,,,,,,,,,,,1221.9829364600591,None,,,1224.9993438599631,None,1.5862433862433862,0.6834073471836746,1224.9993438599631,None,,,,,,,1222.9830034608021,None,1223.1663064109161,1223.1829176256433,,,,,,,156,001,2024_Jan_25_1606,SpeechDraft1Carolyn_lessNoise_PlusLocalization,2021.2.3,60.014858981781515,
,,,,,,,,farRight,19.1,4,ch1Sound_localizationTask.wav,19.1,"(1237, 878)","(277,-202)",285,-338,,,,,,,,,,,,,4,6,34,6,,,,,,,,,,,,,,,,,,,,,,,,,,,,,,,,,,,,,,,,1225.6835443968885,None,,,1228.699391062837,None,1.6486772486772487,0.9821925698779523,1228.699391062837,None,,,,,,,1226.682986995671,None,1226.8662899518386,1226.8829744849354,,,,,,,156,001,2024_Jan_25_1606,SpeechDraft1Carolyn_lessNoise_PlusLocalization,2021.2.3,60.014858981781515,
,,,,,,,,nearRight,6.5,0,ch1Sound_localizationTask.wav,6.5,"(1047, 878)","(87, -202)",95,-338,,,,,,,,,,,,,5,0,35,4,,,,,,,,,,,,,,,,,,,,,,,,,,,,,,,,,,,,,,,,1229.683103245683,None,,,1232.6996111916378,None,1.5433862433862435,1.26553950086236,1232.6996111916378,None,,,,,,,1230.6829843358137,None,1230.86631914787,1230.8829936869442,,,,,,,156,001,2024_Jan_25_1606,SpeechDraft1Carolyn_lessNoise_PlusLocalization,2021.2.3,60.014858981781515,
,,,,,,,,farRight,19.1,4,ch1Sound_localizationTask.wav,19.1,"(1237, 878)","(277,-202)",285,-338,,,,,,,,,,,,,5,1,36,6,,,,,,,,,,,,,,,,,,,,,,,,,,,,,,,,,,,,,,,,1233.966781383846,None,,,1236.9827221296728,None,1.6714285714285715,0.8824301580898464,1236.9827221296728,None,,,,,,,1234.9663830399513,None,1235.1497488580644,1235.1663267598487,,,,,,,156,001,2024_Jan_25_1606,SpeechDraft1Carolyn_lessNoise_PlusLocalization,2021.2.3,60.014858981781515,
,,,,,,,,nearRight,6.5,0,ch1Sound_localizationTask.wav,6.5,"(1047, 878)","(87, -202)",95,-338,,,,,,,,,,,,,5,2,37,4,,,,,,,,,,,,,,,,,,,,,,,,,,,,,,,,,,,,,,,,1237.8674489497207,None,,,1240.899326690007,None,1.566137566137566,0.9498700378462672,1240.899326690007,None,,,,,,,1238.8830235879868,None,1239.066351909656,1239.0829218830913,,,,,,,156,001,2024_Jan_25_1606,SpeechDraft1Carolyn_lessNoise_PlusLocalization,2021.2.3,60.014858981781515,
,,,,,,,,farLeft,-19.1,5,ch1Sound_localizationTask.wav,-19.1,"(667, 878)","(-293,-202)",-285,-338,,,,,,,,,,,,,5,3,38,0,,,,,,,,,,,,,,,,,,,,,,,,,,,,,,,,,,,,,,,,1241.8505036099814,None,,,1244.8660135930404,None,1.3211640211640212,1.2329315803945065,1244.8660135930404,None,,,,,,,1242.8496144278906,None,1243.0329495840706,1243.0496179778129,,,,,,,156,001,2024_Jan_25_1606,SpeechDraft1Carolyn_lessNoise_PlusLocalization,2021.2.3,60.014858981781515,
,,,,,,,,center,0.0,6,ch1Sound_localizationTask.wav,0.0,"(952, 878)","(-8,-202)",0,-338,,,,,,,,,,,,,5,4,39,3,,,,,,,,,,,,,,,,,,,,,,,,,,,,,,,,,,,,,,,,1246.1009618770331,None,,,1249.1326885516755,None,1.4714285714285715,0.6501211756840348,1249.1326885516755,None,,,,,,,1247.116286325734,None,1247.2996000037529,1247.3162945797667,,,,,,,156,001,2024_Jan_25_1606,SpeechDraft1Carolyn_lessNoise_PlusLocalization,2021.2.3,60.014858981781515,
,,,,,,,,farLeft,-19.1,5,ch1Sound_localizationTask.wav,-19.1,"(667, 878)","(-293,-202)",-285,-338,,,,,,,,,,,,,5,5,40,0,,,,,,,,,,,,,,,,,,,,,,,,,,,,,,,,,,,,,,,,1249.7845338140614,None,,,1252.816226251889,None,1.3095238095238095,1.0010709003545344,1252.816226251889,None,,,,,,,1250.799646618776,None,1250.9830567459576,1250.9996454459615,,,,,,,156,001,2024_Jan_25_1606,SpeechDraft1Carolyn_lessNoise_PlusLocalization,2021.2.3,60.014858981781515,
,,,,,,,,center,0.0,6,ch1Sound_localizationTask.wav,0.0,"(952, 878)","(-8,-202)",0,-338,,,,,,,,,,,,,5,6,41,3,,,,,,,,,,,,,,,,,,,,,,,,,,,,,,,,,,,,,,,,1253.8329711649567,None,,,1256.8493951489218,None,1.5037037037037035,1.382296438794583,1256.8493951489218,None,,,,,,,1254.8329723519273,None,1255.0162684577517,1255.0329743428156,,,,,,,156,001,2024_Jan_25_1606,SpeechDraft1Carolyn_lessNoise_PlusLocalization,2021.2.3,60.014858981781515,
,,,,,,,,midRight,13.0,3,ch1Sound_localizationTask.wav,13.0,"(1142, 878)","(182, -202)",190,-338,,,,,,,,,,,,,6,0,42,5,,,,,,,,,,,,,,,,,,,,,,,,,,,,,,,,,,,,,,,,1258.2335052820854,None,,,1261.2493568137288,None,1.6015873015873017,0.7994468403048813,1261.2493568137288,None,,,,,,,1259.233010029886,None,1259.4162986897863,1259.4329790966585,,,,,,,156,001,2024_Jan_25_1606,SpeechDraft1Carolyn_lessNoise_PlusLocalization,2021.2.3,60.014858981781515,
,,,,,,,,center,0.0,6,ch1Sound_localizationTask.wav,0.0,"(952, 878)","(-8,-202)",0,-338,,,,,,,,,,,,,6,1,43,3,,,,,,,,,,,,,,,,,,,,,,,,,,,,,,,,,,,,,,,,1262.0663201417774,None,,,1265.0828185407445,None,1.4994708994708994,1.3490751930512488,1265.0828185407445,None,,,,,,,1263.0663282116875,None,1263.249636254739,1263.266342609655,,,,,,,156,001,2024_Jan_25_1606,SpeechDraft1Carolyn_lessNoise_PlusLocalization,2021.2.3,60.014858981781515,
,,,,,,,,center,0.0,6,ch1Sound_localizationTask.wav,0.0,"(952, 878)","(-8,-202)",0,-338,,,,,,,,,,,,,6,2,44,3,,,,,,,,,,,,,,,,,,,,,,,,,,,,,,,,,,,,,,,,1266.4335999130271,None,,,1269.4494977337308,None,1.5,0.5996233802288771,1269.4494977337308,None,,,,,,,1267.4329726318829,None,1267.6165257277898,1267.6330196638592,,,,,,,156,001,2024_Jan_25_1606,SpeechDraft1Carolyn_lessNoise_PlusLocalization,2021.2.3,60.014858981781515,
,,,,,,,,nearLeft,-6.5,1,ch1Sound_localizationTask.wav,-6.5,"(857, 878)","(-103,-202)",-95,-338,,,,,,,,,,,,,6,3,45,2,,,,,,,,,,,,,,,,,,,,,,,,,,,,,,,,,,,,,,,,1270.0504010417499,None,,,1273.066176478751,None,1.4285714285714286,0.6162271541543305,1273.066176478751,None,,,,,,,1271.049688977655,None,1271.2330227689818,1271.2497789040208,,,,,,,156,001,2024_Jan_25_1606,SpeechDraft1Carolyn_lessNoise_PlusLocalization,2021.2.3,60.014858981781515,
,,,,,,,,farRight,19.1,4,ch1Sound_localizationTask.wav,19.1,"(1237, 878)","(277,-202)",285,-338,,,,,,,,,,,,,6,4,46,6,,,,,,,,,,,,,,,,,,,,,,,,,,,,,,,,,,,,,,,,1273.683142611757,None,,,1276.6994422050193,None,1.6534391534391535,1.5162987802177668,1276.6994422050193,None,,,,,,,1274.6830956316553,None,1274.866456297692,1274.8829512749799,,,,,,,156,001,2024_Jan_25_1606,SpeechDraft1Carolyn_lessNoise_PlusLocalization,2021.2.3,60.014858981781515,
,,,,,,,,nearRight,6.5,0,ch1Sound_localizationTask.wav,6.5,"(1047, 878)","(87, -202)",95,-338,,,,,,,,,,,,,6,5,47,4,,,,,,,,,,,,,,,,,,,,,,,,,,,,,,,,,,,,,,,,1278.2166262636892,None,,,1281.2326106298715,None,1.529100529100529,1.116567033343017,1281.2326106298715,None,,,,,,,1279.2163869440556,None,1279.3997558327392,1279.4163146889769,,,,,,,156,001,2024_Jan_25_1606,SpeechDraft1Carolyn_lessNoise_PlusLocalization,2021.2.3,60.014858981781515,
,,,,,,,,farRight,19.1,4,ch1Sound_localizationTask.wav,19.1,"(1237, 878)","(277,-202)",285,-338,,,,,,,,,,,,,6,6,48,6,,,,,,,,,,,,,,,,,,,,,,,,,,,,,,,,,,,,,,,,1282.3663306729868,None,,,1285.3825780670159,None,1.6851851851851851,1.3327084830962121,1285.3825780670159,None,,,,,,,1283.366805289872,None,1283.5496323667467,1283.566348597873,,,,,,,156,001,2024_Jan_25_1606,SpeechDraft1Carolyn_lessNoise_PlusLocalization,2021.2.3,60.014858981781515,
,,,,,,,,farLeft,-19.1,5,ch1Sound_localizationTask.wav,-19.1,"(667, 878)","(-293,-202)",-285,-338,,,,,,,,,,,,,7,0,49,0,,,,,,,,,,,,,,,,,,,,,,,,,,,,,,,,,,,,,,,,1286.7169419797137,None,,,1289.7328166407533,None,1.3195767195767196,0.7994334590621293,1289.7328166407533,None,,,,,,,1287.7164254318923,None,1287.8996671317145,1287.9164640186355,,,,,,,156,001,2024_Jan_25_1606,SpeechDraft1Carolyn_lessNoise_PlusLocalization,2021.2.3,60.014858981781515,
,,,,,,,,nearLeft,-6.5,1,ch1Sound_localizationTask.wav,-6.5,"(857, 878)","(-103,-202)",-95,-338,,,,,,,,,,,,,7,1,50,2,,,,,,,,,,,,,,,,,,,,,,,,,,,,,,,,,,,,,,,,1290.5333531768993,None,,,1293.5492959790863,None,1.439153439153439,0.9491215157322586,1293.5492959790863,None,,,,,,,1291.5330341546796,None,1291.7163061317988,1291.7330504087731,,,,,,,156,001,2024_Jan_25_1606,SpeechDraft1Carolyn_lessNoise_PlusLocalization,2021.2.3,60.014858981781515,
,,,,,,,,farRight,19.1,4,ch1Sound_localizationTask.wav,19.1,"(1237, 878)","(277,-202)",285,-338,,,,,,,,,,,,,7,2,51,6,,,,,,,,,,,,,,,,,,,,,,,,,,,,,,,,,,,,,,,,1294.5001334836707,None,,,1297.516148637049,None,1.6455026455026456,0.6653282255865633,1297.516148637049,None,,,,,,,1295.499675706029,None,1295.6829965910874,1295.6997136366554,,,,,,,156,001,2024_Jan_25_1606,SpeechDraft1Carolyn_lessNoise_PlusLocalization,2021.2.3,60.014858981781515,
,,,,,,,,nearRight,6.5,0,ch1Sound_localizationTask.wav,6.5,"(1047, 878)","(87, -202)",95,-338,,,,,,,,,,,,,7,3,52,4,,,,,,,,,,,,,,,,,,,,,,,,,,,,,,,,,,,,,,,,1298.1830992717296,None,,,1301.1994034820236,None,1.5391534391534392,1.1166124567389488,1301.1994034820236,None,,,,,,,1299.1830193670467,None,1299.3663888960145,1299.3830013987608,,,,,,,156,001,2024_Jan_25_1606,SpeechDraft1Carolyn_lessNoise_PlusLocalization,2021.2.3,60.014858981781515,
,,,,,,,,nearRight,6.5,0,ch1Sound_localizationTask.wav,6.5,"(1047, 878)","(87, -202)",95,-338,,,,,,,,,,,,,7,4,53,4,,,,,,,,,,,,,,,,,,,,,,,,,,,,,,,,,,,,,,,,1302.3175993277691,None,,,1305.349527938757,None,1.5629629629629629,0.6998434732668102,1305.349527938757,None,,,,,,,1303.3330505350605,None,1303.5164325139485,1303.5331266350113,,,,,,,156,001,2024_Jan_25_1606,SpeechDraft1Carolyn_lessNoise_PlusLocalization,2021.2.3,60.014858981781515,
,,,,,,,,farLeft,-19.1,5,ch1Sound_localizationTask.wav,-19.1,"(667, 878)","(-293,-202)",-285,-338,,,,,,,,,,,,,7,5,54,0,,,,,,,,,,,,,,,,,,,,,,,,,,,,,,,,,,,,,,,,1306.0665709599853,None,,,1309.0828885347582,None,1.2920634920634921,0.8832787559367716,1309.0828885347582,None,,,,,,,1307.0663946387358,None,1307.2497214497998,1307.2666011177935,,,,,,,156,001,2024_Jan_25_1606,SpeechDraft1Carolyn_lessNoise_PlusLocalization,2021.2.3,60.014858981781515,
,,,,,,,,nearRight,6.5,0,ch1Sound_localizationTask.wav,6.5,"(1047, 878)","(87, -202)",95,-338,,,,,,,,,,,,,7,6,55,4,,,,,,,,,,,,,,,,,,,,,,,,,,,,,,,,,,,,,,,,1309.9830019488,None,,,1312.999417891726,None,1.5624338624338625,1.2993398113176227,1312.999417891726,None,,,,,,,1310.9830693779513,None,1311.1664831996895,1311.1830402440391,,,,,,,156,001,2024_Jan_25_1606,SpeechDraft1Carolyn_lessNoise_PlusLocalization,2021.2.3,60.014858981781515,
,,,,,,,,,,,,,,,,,,,,,,,,,,,,,,,,,,,,,,,,,,,,,,,,,,,,,,,,,,,,,,,,,,,,,,,,,,,,,,,,,,,,,,,,,,,,1314.3007847410627,None,c,60.669855375774205,1315.2830718746409,None,156,001,2024_Jan_25_1606,SpeechDraft1Carolyn_lessNoise_PlusLocalization,2021.2.3,60.014858981781515,
