Audio_Only_Files,Video_Files,Original_Word_List,noiseLevelCode,conditionCodes,noiseLevelFile1,noiseLevelFile2,InstrTextVar,targetSpeakerName,targetSpeakerEccen,targetSpkrChannel,targetSpkrSound,targetVisualDegrees,visStimLoc,visStimLoc2,visStimW,visStimH,practiceTrials.thisRepN,practiceTrials.thisTrialN,practiceTrials.thisN,practiceTrials.thisIndex,trials.thisRepN,trials.thisTrialN,trials.thisN,trials.thisIndex,audLocalLoop.thisRepN,audLocalLoop.thisTrialN,audLocalLoop.thisN,audLocalLoop.thisIndex,visualLocalLoop.thisRepN,visualLocalLoop.thisTrialN,visualLocalLoop.thisN,visualLocalLoop.thisIndex,letsGoAlready.keys,letsGoAlready.rt,letsGoAlready.started,letsGoAlready.stopped,text_2.started,text_2.stopped,text_3.started,text_3.stopped,key_resp_2.keys,key_resp_2.rt,key_resp_2.started,key_resp_2.stopped,text_5.started,text_5.stopped,fixCross.started,fixCross.stopped,fixCross2.started,fixCross2.stopped,answerPrompt.started,answerPrompt.stopped,getAnswer.text,getAnswer.started,getAnswer.stopped,goToNext.keys,goToNext.rt,goToNext.started,goToNext.stopped,stretchBreakTxrt.started,stretchBreakTxrt.stopped,key_resp_3.keys,key_resp_3.rt,key_resp_3.started,key_resp_3.stopped,letsGoLocal.keys,letsGoLocal.rt,letsGoLocal.started,letsGoLocal.stopped,text_4.started,text_4.stopped,prepFixTxt.started,prepFixTxt.stopped,prepFixTxt_2.started,prepFixTxt_2.stopped,respPromptLocal.started,respPromptLocal.stopped,slider.response,slider.rt,slider.started,slider.stopped,letsGoLocal_2.keys,letsGoLocal_2.rt,letsGoLocal_2.started,letsGoLocal_2.stopped,text_7.started,text_7.stopped,prepFixTxt_3.started,prepFixTxt_3.stopped,grating.started,grating.stopped,exitTxt.started,exitTxt.stopped,key_resp.keys,key_resp.rt,key_resp.started,key_resp.stopped,participant,session,date,expName,psychopyVersion,frameRate,
,,,,,,,,,,,,,,,,,,,,,,,,,,,,,,,,,space,183.3035763250664,24.94883780227974,None,,,,,,,,,,,,,,,,,,,,,,,,,,,,,,,,,,,,,,,,,,,,,,,,,,,,,,,,,,,,,,157,001,2024_Jan_26_1708,SpeechDraft1Carolyn_lessNoise_PlusLocalization,2021.2.3,59.99281913312093,
,,,,,,,,,,,,,,,,,,,,,,,,,,,,,,,,,,,,,24.94883780227974,None,208.38241748698056,None,space,11.830751066096127,208.5656373249367,None,,,,,,,,,,,,,,,,,,,,,,,,,,,,,,,,,,,,,,,,,,,,,,,,,,,,,,157,001,2024_Jan_26_1708,SpeechDraft1Carolyn_lessNoise_PlusLocalization,2021.2.3,59.99281913312093,
ash.wav,ash.mpg,ash,1,A,Pink_Noise_1_1.wav,Pink_Noise_1_2.wav,"This is an example of an

AUDIO trial",,,,,,,,,,0,0,0,0,,,,,,,,,,,,,,,,,,,,,,,,,220.43263834621757,None,221.43230151804164,None,224.6488518291153,None,226.04871289618313,None,edge,226.04871289618313,None,return,13.816752600017935,226.11562882596627,None,,,,,,,,,,,,,,,,,,,,,,,,,,,,,,,,,,,,,,,157,001,2024_Jan_26_1708,SpeechDraft1Carolyn_lessNoise_PlusLocalization,2021.2.3,59.99281913312093,
ash.wav,ash.mpg,ash,1,AV,Pink_Noise_1_1.wav,Pink_Noise_1_2.wav,"This is an example of an

AUDIO + VIDEO  trial",,,,,,,,,,0,1,1,1,,,,,,,,,,,,,,,,,,,,,,,,,239.96543766232207,None,240.96593265701085,None,242.465469985269,None,243.84900825936347,None,etch,243.84900825936347,None,return,8.999958422034979,243.93239803332835,None,,,,,,,,,,,,,,,,,,,,,,,,,,,,,,,,,,,,,,,157,001,2024_Jan_26_1708,SpeechDraft1Carolyn_lessNoise_PlusLocalization,2021.2.3,59.99281913312093,
,,,,,,,,,,,,,,,,,,,,,,,,,,,,,,,,,,,,,,,,,,,,,,,,,,,,,,,,,,,,252.96535397833213,None,space,16.831230578012764,253.14913268527016,None,,,,,,,,,,,,,,,,,,,,,,,,,,,,,,,,,157,001,2024_Jan_26_1708,SpeechDraft1Carolyn_lessNoise_PlusLocalization,2021.2.3,59.99281913312093,
green.wav,green.mpg,green,2,A,Pink_Noise_2_1.wav,Pink_Noise_2_2.wav,,,,,,,,,,,,,,,0,0,0,55,,,,,,,,,,,,,,,,,,,,,,,270.03203193098307,None,271.5153818242252,None,272.89905435219407,None,green,272.89905435219407,None,return,6.782049845904112,272.98238315293565,None,,,,,,,,,,,,,,,,,,,,,,,,,,,,,,,,,,,,,,,157,001,2024_Jan_26_1708,SpeechDraft1Carolyn_lessNoise_PlusLocalization,2021.2.3,59.99281913312093,
clay.wav,clay.mpg,clay,1,A,Pink_Noise_1_1.wav,Pink_Noise_1_2.wav,,,,,,,,,,,,,,,0,1,1,11,,,,,,,,,,,,,,,,,,,,,,,279.78251903504133,None,281.2654355573468,None,282.6490500769578,None,play,282.6490500769578,None,return,1.3599656913429499,282.73241082020104,None,,,,,,,,,,,,,,,,,,,,,,,,,,,,,,,,,,,,,,,157,001,2024_Jan_26_1708,SpeechDraft1Carolyn_lessNoise_PlusLocalization,2021.2.3,59.99281913312093,
chin.wav,chin.mpg,chin,5,AV,Pink_Noise_5_1.wav,Pink_Noise_5_2.wav,,,,,,,,,,,,,,,0,2,2,79,,,,,,,,,,,,,,,,,,,,,,,284.1156985349953,None,285.6154001369141,None,286.9989646449685,None,jean,286.9989646449685,None,return,5.2979021412320435,287.0824637701735,None,,,,,,,,,,,,,,,,,,,,,,,,,,,,,,,,,,,,,,,157,001,2024_Jan_26_1708,SpeechDraft1Carolyn_lessNoise_PlusLocalization,2021.2.3,59.99281913312093,
blind.wav,blind.mpg,blind,4,A,Pink_Noise_4_1.wav,Pink_Noise_4_2.wav,,,,,,,,,,,,,,,0,3,3,36,,,,,,,,,,,,,,,,,,,,,,,292.39907684596255,None,293.8988244882785,None,295.2823775941506,None,light,295.2823775941506,None,return,1.438751693814993,295.365694984328,None,,,,,,,,,,,,,,,,,,,,,,,,,,,,,,,,,,,,,,,157,001,2024_Jan_26_1708,SpeechDraft1Carolyn_lessNoise_PlusLocalization,2021.2.3,59.99281913312093,
spire.wav,spire.mpg,spire,1,A,Pink_Noise_1_1.wav,Pink_Noise_1_2.wav,,,,,,,,,,,,,,,0,4,4,40,,,,,,,,,,,,,,,,,,,,,,,296.83237953530625,None,298.3321793680079,None,299.7157076639123,None,spider,299.7157076639123,None,return,3.589430565945804,299.79900771798566,None,,,,,,,,,,,,,,,,,,,,,,,,,,,,,,,,,,,,,,,157,001,2024_Jan_26_1708,SpeechDraft1Carolyn_lessNoise_PlusLocalization,2021.2.3,59.99281913312093,
buy.wav,buy.mpg,buy,5,AV,Pink_Noise_5_1.wav,Pink_Noise_5_2.wav,,,,,,,,,,,,,,,0,5,5,114,,,,,,,,,,,,,,,,,,,,,,,303.41576245008036,None,304.9155081170611,None,306.299139698036,None,man,306.299139698036,None,return,1.4460919336415827,306.3822850151919,None,,,,,,,,,,,,,,,,,,,,,,,,,,,,,,,,,,,,,,,157,001,2024_Jan_26_1708,SpeechDraft1Carolyn_lessNoise_PlusLocalization,2021.2.3,59.99281913312093,
dirt.wav,dirt.mpg,dirt,6,A,Pink_Noise_6_1.wav,Pink_Noise_6_2.wav,,,,,,,,,,,,,,,0,6,6,27,,,,,,,,,,,,,,,,,,,,,,,307.8491219202988,None,309.3488746979274,None,310.73255900107324,None,a,310.73255900107324,None,return,1.588742976076901,310.81577396020293,None,,,,,,,,,,,,,,,,,,,,,,,,,,,,,,,,,,,,,,,157,001,2024_Jan_26_1708,SpeechDraft1Carolyn_lessNoise_PlusLocalization,2021.2.3,59.99281913312093,
led.wav,led.mpg,led,4,AV,Pink_Noise_4_1.wav,Pink_Noise_4_2.wav,,,,,,,,,,,,,,,0,7,7,67,,,,,,,,,,,,,,,,,,,,,,,312.4325674083084,None,313.91644680313766,None,315.29902891116217,None,light,315.29902891116217,None,return,5.413912008982152,315.38244980201125,None,,,,,,,,,,,,,,,,,,,,,,,,,,,,,,,,,,,,,,,157,001,2024_Jan_26_1708,SpeechDraft1Carolyn_lessNoise_PlusLocalization,2021.2.3,59.99281913312093,
client.wav,client.mpg,client,6,AV,Pink_Noise_6_1.wav,Pink_Noise_6_2.wav,,,,,,,,,,,,,,,0,8,8,102,,,,,,,,,,,,,,,,,,,,,,,320.8157986351289,None,322.3155791820027,None,323.69913881318644,None,light,323.69913881318644,None,return,2.2219974934123456,323.7824453492649,None,,,,,,,,,,,,,,,,,,,,,,,,,,,,,,,,,,,,,,,157,001,2024_Jan_26_1708,SpeechDraft1Carolyn_lessNoise_PlusLocalization,2021.2.3,59.99281913312093,
dive.wav,dive.mpg,dive,1,AV,Pink_Noise_1_1.wav,Pink_Noise_1_2.wav,,,,,,,,,,,,,,,0,9,9,112,,,,,,,,,,,,,,,,,,,,,,,326.03245100192726,None,327.53224693425,None,328.915750392247,None,dive,328.915750392247,None,return,1.5252233478240669,328.9991468540393,None,,,,,,,,,,,,,,,,,,,,,,,,,,,,,,,,,,,,,,,157,001,2024_Jan_26_1708,SpeechDraft1Carolyn_lessNoise_PlusLocalization,2021.2.3,59.99281913312093,
claim.wav,claim.mpg,claim,5,A,Pink_Noise_5_1.wav,Pink_Noise_5_2.wav,,,,,,,,,,,,,,,0,10,10,45,,,,,,,,,,,,,,,,,,,,,,,330.54910299833864,None,332.0490170842968,None,333.4324029670097,None,clay,333.4324029670097,None,return,1.9444287945516407,333.51592590706423,None,,,,,,,,,,,,,,,,,,,,,,,,,,,,,,,,,,,,,,,157,001,2024_Jan_26_1708,SpeechDraft1Carolyn_lessNoise_PlusLocalization,2021.2.3,59.99281913312093,
ton.wav,ton.mpg,ton,3,AV,Pink_Noise_3_1.wav,Pink_Noise_3_2.wav,,,,,,,,,,,,,,,0,11,11,111,,,,,,,,,,,,,,,,,,,,,,,335.48245080094784,None,336.9821863071993,None,338.3657930381596,None,ton,338.3657930381596,None,return,2.7152869971469045,338.44916572235525,None,,,,,,,,,,,,,,,,,,,,,,,,,,,,,,,,,,,,,,,157,001,2024_Jan_26_1708,SpeechDraft1Carolyn_lessNoise_PlusLocalization,2021.2.3,59.99281913312093,
fail.wav,fail.mpg,fail,2,A,Pink_Noise_2_1.wav,Pink_Noise_2_2.wav,,,,,,,,,,,,,,,0,12,12,14,,,,,,,,,,,,,,,,,,,,,,,341.1824665670283,None,342.68226329935715,None,344.06580596836284,None,bail,344.06580596836284,None,return,1.4792791209183633,344.14907558914274,None,,,,,,,,,,,,,,,,,,,,,,,,,,,,,,,,,,,,,,,157,001,2024_Jan_26_1708,SpeechDraft1Carolyn_lessNoise_PlusLocalization,2021.2.3,59.99281913312093,
gone.wav,gone.mpg,gone,2,A,Pink_Noise_2_1.wav,Pink_Noise_2_2.wav,,,,,,,,,,,,,,,0,13,13,57,,,,,,,,,,,,,,,,,,,,,,,345.6493298523128,None,347.1488553183153,None,348.53254020027816,None,"boy
",348.53254020027816,None,return,1.2685179519467056,348.6158464313485,None,,,,,,,,,,,,,,,,,,,,,,,,,,,,,,,,,,,,,,,157,001,2024_Jan_26_1708,SpeechDraft1Carolyn_lessNoise_PlusLocalization,2021.2.3,59.99281913312093,
dense.wav,dense.mpg,dense,6,AV,Pink_Noise_6_1.wav,Pink_Noise_6_2.wav,,,,,,,,,,,,,,,0,14,14,81,,,,,,,,,,,,,,,,,,,,,,,349.9157912633382,None,351.41564834909514,None,352.79916208190843,None,sex,352.79916208190843,None,return,0.9778355709277093,352.8825181699358,None,,,,,,,,,,,,,,,,,,,,,,,,,,,,,,,,,,,,,,,157,001,2024_Jan_26_1708,SpeechDraft1Carolyn_lessNoise_PlusLocalization,2021.2.3,59.99281913312093,
hit.wav,hit.mpg,hit,1,AV,Pink_Noise_1_1.wav,Pink_Noise_1_2.wav,,,,,,,,,,,,,,,0,15,15,85,,,,,,,,,,,,,,,,,,,,,,,353.8825797061436,None,355.3822727371007,None,356.7657591011375,None,hit,356.7657591011375,None,return,0.9152533155865967,356.8491860162467,None,,,,,,,,,,,,,,,,,,,,,,,,,,,,,,,,,,,,,,,157,001,2024_Jan_26_1708,SpeechDraft1Carolyn_lessNoise_PlusLocalization,2021.2.3,59.99281913312093,
bleak.wav,bleak.mpg,bleak,1,AV,Pink_Noise_1_1.wav,Pink_Noise_1_2.wav,,,,,,,,,,,,,,,0,16,16,100,,,,,,,,,,,,,,,,,,,,,,,357.78247364703566,None,359.28225651336834,None,360.64914312399924,None,bleak,360.64914312399924,None,return,1.159761754795909,360.7326194681227,None,,,,,,,,,,,,,,,,,,,,,,,,,,,,,,,,,,,,,,,157,001,2024_Jan_26_1708,SpeechDraft1Carolyn_lessNoise_PlusLocalization,2021.2.3,59.99281913312093,
coach.wav,coach.mpg,coach,4,AV,Pink_Noise_4_1.wav,Pink_Noise_4_2.wav,,,,,,,,,,,,,,,0,17,17,95,,,,,,,,,,,,,,,,,,,,,,,361.91583386901766,None,363.4155564112589,None,364.7990158642642,None,coach,364.7990158642642,None,return,2.8819344458170235,364.8824918773025,None,,,,,,,,,,,,,,,,,,,,,,,,,,,,,,,,,,,,,,,157,001,2024_Jan_26_1708,SpeechDraft1Carolyn_lessNoise_PlusLocalization,2021.2.3,59.99281913312093,
fresh.wav,fresh.mpg,fresh,1,A,Pink_Noise_1_1.wav,Pink_Noise_1_2.wav,,,,,,,,,,,,,,,0,18,18,28,,,,,,,,,,,,,,,,,,,,,,,367.7826508022845,None,369.26707127224654,None,370.6491534123197,None,fresh,370.6491534123197,None,return,2.4559241929091513,370.7325424742885,None,,,,,,,,,,,,,,,,,,,,,,,,,,,,,,,,,,,,,,,157,001,2024_Jan_26_1708,SpeechDraft1Carolyn_lessNoise_PlusLocalization,2021.2.3,59.99281913312093,
ghost.wav,ghost.mpg,ghost,4,AV,Pink_Noise_4_1.wav,Pink_Noise_4_2.wav,,,,,,,,,,,,,,,0,19,19,83,,,,,,,,,,,,,,,,,,,,,,,373.2158757420257,None,374.71569831995293,None,376.0990811432712,None,ghost,376.0990811432712,None,return,4.1819468811154366,376.18247811030596,None,,,,,,,,,,,,,,,,,,,,,,,,,,,,,,,,,,,,,,,157,001,2024_Jan_26_1708,SpeechDraft1Carolyn_lessNoise_PlusLocalization,2021.2.3,59.99281913312093,
bow.wav,bow.mpg,bow,1,A,Pink_Noise_1_1.wav,Pink_Noise_1_2.wav,,,,,,,,,,,,,,,0,20,20,41,,,,,,,,,,,,,,,,,,,,,,,380.3824339401908,None,381.8822465739213,None,383.2659764480777,None,bow,383.2659764480777,None,return,1.0311305387876928,383.3492255471647,None,,,,,,,,,,,,,,,,,,,,,,,,,,,,,,,,,,,,,,,157,001,2024_Jan_26_1708,SpeechDraft1Carolyn_lessNoise_PlusLocalization,2021.2.3,59.99281913312093,
dress.wav,dress.mpg,dress,1,AV,Pink_Noise_1_1.wav,Pink_Noise_1_2.wav,,,,,,,,,,,,,,,0,21,21,97,,,,,,,,,,,,,,,,,,,,,,,384.3992017293349,None,385.89891793532297,None,387.28239657497033,None,dress,387.28239657497033,None,return,1.9986217012628913,387.3658577003516,None,,,,,,,,,,,,,,,,,,,,,,,,,,,,,,,,,,,,,,,157,001,2024_Jan_26_1708,SpeechDraft1Carolyn_lessNoise_PlusLocalization,2021.2.3,59.99281913312093,
gulp.wav,gulp.mpg,gulp,5,AV,Pink_Noise_5_1.wav,Pink_Noise_5_2.wav,,,,,,,,,,,,,,,0,22,22,110,,,,,,,,,,,,,,,,,,,,,,,389.3824829682708,None,390.88223322620615,None,392.2659146632068,None,gulp,392.2659146632068,None,return,4.831082566641271,392.3493129950948,None,,,,,,,,,,,,,,,,,,,,,,,,,,,,,,,,,,,,,,,157,001,2024_Jan_26_1708,SpeechDraft1Carolyn_lessNoise_PlusLocalization,2021.2.3,59.99281913312093,
fast.wav,fast.mpg,fast,5,A,Pink_Noise_5_1.wav,Pink_Noise_5_2.wav,,,,,,,,,,,,,,,0,23,23,6,,,,,,,,,,,,,,,,,,,,,,,397.2155716791749,None,398.7156016952358,None,400.0992269711569,None,strike,400.0992269711569,None,return,4.621911306865513,400.18258178513497,None,,,,,,,,,,,,,,,,,,,,,,,,,,,,,,,,,,,,,,,157,001,2024_Jan_26_1708,SpeechDraft1Carolyn_lessNoise_PlusLocalization,2021.2.3,59.99281913312093,
roar.wav,roar.mpg,roar,3,A,Pink_Noise_3_1.wav,Pink_Noise_3_2.wav,,,,,,,,,,,,,,,0,24,24,59,,,,,,,,,,,,,,,,,,,,,,,404.83255296200514,None,406.3322485429235,None,407.7159295119345,None,twirl,407.7159295119345,None,return,3.709132020827383,407.7992196669802,None,,,,,,,,,,,,,,,,,,,,,,,,,,,,,,,,,,,,,,,157,001,2024_Jan_26_1708,SpeechDraft1Carolyn_lessNoise_PlusLocalization,2021.2.3,59.99281913312093,
draw.wav,draw.mpg,draw,1,AV,Pink_Noise_1_1.wav,Pink_Noise_1_2.wav,,,,,,,,,,,,,,,0,25,25,71,,,,,,,,,,,,,,,,,,,,,,,411.53260786505416,None,413.03234818810597,None,414.4159323540516,None,"draw
",414.4159323540516,None,return,2.201021963264793,414.4993268563412,None,,,,,,,,,,,,,,,,,,,,,,,,,,,,,,,,,,,,,,,157,001,2024_Jan_26_1708,SpeechDraft1Carolyn_lessNoise_PlusLocalization,2021.2.3,59.99281913312093,
bee.wav,bee.mpg,bee,3,AV,Pink_Noise_3_1.wav,Pink_Noise_3_2.wav,,,,,,,,,,,,,,,0,26,26,115,,,,,,,,,,,,,,,,,,,,,,,416.7326257303357,None,418.23231939133257,None,419.6157608111389,None,big,419.6157608111389,None,return,0.9370026648975909,419.6993628940545,None,,,,,,,,,,,,,,,,,,,,,,,,,,,,,,,,,,,,,,,157,001,2024_Jan_26_1708,SpeechDraft1Carolyn_lessNoise_PlusLocalization,2021.2.3,59.99281913312093,
guard.wav,guard.mpg,guard,2,AV,Pink_Noise_2_1.wav,Pink_Noise_2_2.wav,,,,,,,,,,,,,,,0,27,27,73,,,,,,,,,,,,,,,,,,,,,,,420.665898187086,None,422.16564133390784,None,423.54919024091214,None,guard,423.54919024091214,None,return,1.3317370531149209,423.63270300626755,None,,,,,,,,,,,,,,,,,,,,,,,,,,,,,,,,,,,,,,,157,001,2024_Jan_26_1708,SpeechDraft1Carolyn_lessNoise_PlusLocalization,2021.2.3,59.99281913312093,
club.wav,club.mpg,club,2,A,Pink_Noise_2_1.wav,Pink_Noise_2_2.wav,,,,,,,,,,,,,,,0,28,28,30,,,,,,,,,,,,,,,,,,,,,,,424.9825982460752,None,426.4822663301602,None,427.8659703871235,None,club,427.8659703871235,None,return,3.391121841967106,427.94922089902684,None,,,,,,,,,,,,,,,,,,,,,,,,,,,,,,,,,,,,,,,157,001,2024_Jan_26_1708,SpeechDraft1Carolyn_lessNoise_PlusLocalization,2021.2.3,59.99281913312093,
cheek.wav,cheek.mpg,cheek,2,AV,Pink_Noise_2_1.wav,Pink_Noise_2_2.wav,,,,,,,,,,,,,,,0,29,29,60,,,,,,,,,,,,,,,,,,,,,,,431.3659289572388,None,432.86571179004386,None,434.24906895216554,None,"cheek
",434.24906895216554,None,return,2.535813190974295,434.3325523780659,None,,,,,,,,,,,,,,,,,,,,,,,,,,,,,,,,,,,,,,,157,001,2024_Jan_26_1708,SpeechDraft1Carolyn_lessNoise_PlusLocalization,2021.2.3,59.99281913312093,
badge.wav,badge.mpg,badge,5,AV,Pink_Noise_5_1.wav,Pink_Noise_5_2.wav,,,,,,,,,,,,,,,0,30,30,101,,,,,,,,,,,,,,,,,,,,,,,436.89933731919155,None,438.3990406333469,None,439.7825037953444,None,badge,439.7825037953444,None,return,1.778346583712846,439.8660284811631,None,,,,,,,,,,,,,,,,,,,,,,,,,,,,,,,,,,,,,,,157,001,2024_Jan_26_1708,SpeechDraft1Carolyn_lessNoise_PlusLocalization,2021.2.3,59.99281913312093,
gaze.wav,gaze.mpg,gaze,4,A,Pink_Noise_4_1.wav,Pink_Noise_4_2.wav,,,,,,,,,,,,,,,0,31,31,18,,,,,,,,,,,,,,,,,,,,,,,441.6659679133445,None,443.16571072209626,None,444.5492560500279,None,"dance
",444.5492560500279,None,return,0.8358038528822362,444.6325526582077,None,,,,,,,,,,,,,,,,,,,,,,,,,,,,,,,,,,,,,,,157,001,2024_Jan_26_1708,SpeechDraft1Carolyn_lessNoise_PlusLocalization,2021.2.3,59.99281913312093,
bias.wav,bias.mpg,bias,3,AV,Pink_Noise_3_1.wav,Pink_Noise_3_2.wav,,,,,,,,,,,,,,,0,32,32,103,,,,,,,,,,,,,,,,,,,,,,,445.49924646224827,None,446.99903400894254,None,448.38262562593445,None,"bias
",448.38262562593445,None,return,1.2504383958876133,448.465926701203,None,,,,,,,,,,,,,,,,,,,,,,,,,,,,,,,,,,,,,,,157,001,2024_Jan_26_1708,SpeechDraft1Carolyn_lessNoise_PlusLocalization,2021.2.3,59.99281913312093,
float.wav,float.mpg,float,2,AV,Pink_Noise_2_1.wav,Pink_Noise_2_2.wav,,,,,,,,,,,,,,,0,33,33,82,,,,,,,,,,,,,,,,,,,,,,,449.74932513805106,None,451.2500165272504,None,452.6326057212427,None,float,452.6326057212427,None,return,5.2644438380375504,452.71595469117165,None,,,,,,,,,,,,,,,,,,,,,,,,,,,,,,,,,,,,,,,157,001,2024_Jan_26_1708,SpeechDraft1Carolyn_lessNoise_PlusLocalization,2021.2.3,59.99281913312093,
farm.wav,farm.mpg,farm,1,AV,Pink_Noise_1_1.wav,Pink_Noise_1_2.wav,,,,,,,,,,,,,,,0,34,34,87,,,,,,,,,,,,,,,,,,,,,,,457.9993899683468,None,459.4990261392668,None,460.8825444029644,None,"farm
",460.8825444029644,None,return,1.7504003820940852,460.9659525169991,None,,,,,,,,,,,,,,,,,,,,,,,,,,,,,,,,,,,,,,,157,001,2024_Jan_26_1708,SpeechDraft1Carolyn_lessNoise_PlusLocalization,2021.2.3,59.99281913312093,
blend.wav,blend.mpg,blend,2,AV,Pink_Noise_2_1.wav,Pink_Noise_2_2.wav,,,,,,,,,,,,,,,0,35,35,92,,,,,,,,,,,,,,,,,,,,,,,462.7494199741632,None,464.2491581700742,None,465.63254924304783,None,"bled
",465.63254924304783,None,return,1.5523672117851675,465.715995748993,None,,,,,,,,,,,,,,,,,,,,,,,,,,,,,,,,,,,,,,,157,001,2024_Jan_26_1708,SpeechDraft1Carolyn_lessNoise_PlusLocalization,2021.2.3,59.99281913312093,
budge.wav,budge.mpg,budge,1,A,Pink_Noise_1_1.wav,Pink_Noise_1_2.wav,,,,,,,,,,,,,,,0,36,36,52,,,,,,,,,,,,,,,,,,,,,,,467.2992696473375,None,468.79911154694855,None,470.1825786991976,None,budge,470.1825786991976,None,return,2.2743416470475495,470.26601806934923,None,,,,,,,,,,,,,,,,,,,,,,,,,,,,,,,,,,,,,,,157,001,2024_Jan_26_1708,SpeechDraft1Carolyn_lessNoise_PlusLocalization,2021.2.3,59.99281913312093,
eve.wav,eve.mpg,eve,5,AV,Pink_Noise_5_1.wav,Pink_Noise_5_2.wav,,,,,,,,,,,,,,,0,37,37,77,,,,,,,,,,,,,,,,,,,,,,,472.5659911339171,None,474.06602543592453,None,475.4492964632809,None,"leave
",475.4492964632809,None,return,1.5516353016719222,475.5327050960623,None,,,,,,,,,,,,,,,,,,,,,,,,,,,,,,,,,,,,,,,157,001,2024_Jan_26_1708,SpeechDraft1Carolyn_lessNoise_PlusLocalization,2021.2.3,59.99281913312093,
grind.wav,grind.mpg,grind,3,A,Pink_Noise_3_1.wav,Pink_Noise_3_2.wav,,,,,,,,,,,,,,,0,38,38,34,,,,,,,,,,,,,,,,,,,,,,,477.1159294322133,None,478.6158005502075,None,479.9992813542485,None,grind,479.9992813542485,None,return,1.625524996779859,480.08285253914073,None,,,,,,,,,,,,,,,,,,,,,,,,,,,,,,,,,,,,,,,157,001,2024_Jan_26_1708,SpeechDraft1Carolyn_lessNoise_PlusLocalization,2021.2.3,59.99281913312093,
film.wav,film.mpg,film,5,AV,Pink_Noise_5_1.wav,Pink_Noise_5_2.wav,,,,,,,,,,,,,,,0,39,39,118,,,,,,,,,,,,,,,,,,,,,,,481.73272343724966,None,483.23249249113724,None,484.6159450812265,None,film,484.6159450812265,None,return,1.2971182591281831,484.69935679016635,None,,,,,,,,,,,,,,,,,,,,,,,,,,,,,,,,,,,,,,,157,001,2024_Jan_26_1708,SpeechDraft1Carolyn_lessNoise_PlusLocalization,2021.2.3,59.99281913312093,
fund.wav,fund.mpg,fund,1,A,Pink_Noise_1_1.wav,Pink_Noise_1_2.wav,,,,,,,,,,,,,,,0,40,40,3,,,,,,,,,,,,,,,,,,,,,,,486.0160094862804,None,487.51576620712876,None,488.8994354279712,None,end,488.8994354279712,None,return,5.029646310955286,488.9827756360173,None,,,,,,,,,,,,,,,,,,,,,,,,,,,,,,,,,,,,,,,157,001,2024_Jan_26_1708,SpeechDraft1Carolyn_lessNoise_PlusLocalization,2021.2.3,59.99281913312093,
vest.wav,vest.mpg,vest,4,A,Pink_Noise_4_1.wav,Pink_Noise_4_2.wav,,,,,,,,,,,,,,,0,41,41,49,,,,,,,,,,,,,,,,,,,,,,,494.0326215722598,None,495.5325036193244,None,496.91602746909484,None,fast,496.91602746909484,None,return,2.3731455872766674,496.9993191389367,None,,,,,,,,,,,,,,,,,,,,,,,,,,,,,,,,,,,,,,,157,001,2024_Jan_26_1708,SpeechDraft1Carolyn_lessNoise_PlusLocalization,2021.2.3,59.99281913312093,
choir.wav,choir.mpg,choir,4,AV,Pink_Noise_4_1.wav,Pink_Noise_4_2.wav,,,,,,,,,,,,,,,0,42,42,78,,,,,,,,,,,,,,,,,,,,,,,499.3993351701647,None,500.8991628480144,None,502.28273356100544,None,"quam
",502.28273356100544,None,return,5.150306366849691,502.36605696519837,None,,,,,,,,,,,,,,,,,,,,,,,,,,,,,,,,,,,,,,,157,001,2024_Jan_26_1708,SpeechDraft1Carolyn_lessNoise_PlusLocalization,2021.2.3,59.99281913312093,
flip.wav,flip.mpg,flip,6,AV,Pink_Noise_6_1.wav,Pink_Noise_6_2.wav,,,,,,,,,,,,,,,0,43,43,80,,,,,,,,,,,,,,,,,,,,,,,507.54933534003794,None,509.04913560813293,None,510.43261707015336,None,flio,510.43261707015336,None,return,4.944267449900508,510.51603756612167,None,,,,,,,,,,,,,,,,,,,,,,,,,,,,,,,,,,,,,,,157,001,2024_Jan_26_1708,SpeechDraft1Carolyn_lessNoise_PlusLocalization,2021.2.3,59.99281913312093,
fly.wav,fly.mpg,fly,5,AV,Pink_Noise_5_1.wav,Pink_Noise_5_2.wav,,,,,,,,,,,,,,,0,44,44,76,,,,,,,,,,,,,,,,,,,,,,,515.4826764781028,None,516.9828908322379,None,518.3659334611148,None,fly,518.3659334611148,None,return,3.682971621863544,518.449453513138,None,,,,,,,,,,,,,,,,,,,,,,,,,,,,,,,,,,,,,,,157,001,2024_Jan_26_1708,SpeechDraft1Carolyn_lessNoise_PlusLocalization,2021.2.3,59.99281913312093,
steam.wav,steam.mpg,steam,4,AV,Pink_Noise_4_1.wav,Pink_Noise_4_2.wav,,,,,,,,,,,,,,,0,45,45,91,,,,,,,,,,,,,,,,,,,,,,,522.1493882793002,None,523.6491450113244,None,525.032659611199,None,steam,525.032659611199,None,return,2.856380042154342,525.1160936690867,None,,,,,,,,,,,,,,,,,,,,,,,,,,,,,,,,,,,,,,,157,001,2024_Jan_26_1708,SpeechDraft1Carolyn_lessNoise_PlusLocalization,2021.2.3,59.99281913312093,
brisk.wav,brisk.mpg,brisk,4,AV,Pink_Noise_4_1.wav,Pink_Noise_4_2.wav,,,,,,,,,,,,,,,0,46,46,75,,,,,,,,,,,,,,,,,,,,,,,527.9995174980722,None,529.4991620993242,None,530.8828779789619,None,wrist,530.8828779789619,None,return,3.5902692158706486,530.966138351243,None,,,,,,,,,,,,,,,,,,,,,,,,,,,,,,,,,,,,,,,157,001,2024_Jan_26_1708,SpeechDraft1Carolyn_lessNoise_PlusLocalization,2021.2.3,59.99281913312093,
wound.wav,wound.mpg,wound,3,A,Pink_Noise_3_1.wav,Pink_Noise_3_2.wav,,,,,,,,,,,,,,,0,47,47,9,,,,,,,,,,,,,,,,,,,,,,,534.5827499139123,None,536.0825265091844,None,537.4661316932179,None,cold,537.4661316932179,None,return,4.415124560240656,537.5493602282368,None,,,,,,,,,,,,,,,,,,,,,,,,,,,,,,,,,,,,,,,157,001,2024_Jan_26_1708,SpeechDraft1Carolyn_lessNoise_PlusLocalization,2021.2.3,59.99281913312093,
crust.wav,crust.mpg,crust,6,A,Pink_Noise_6_1.wav,Pink_Noise_6_2.wav,,,,,,,,,,,,,,,0,48,48,37,,,,,,,,,,,,,,,,,,,,,,,541.9827691563405,None,543.4824027563445,None,544.8662046291865,None,"flesh
",544.8662046291865,None,return,6.486959747970104,544.9494085330516,None,,,,,,,,,,,,,,,,,,,,,,,,,,,,,,,,,,,,,,,157,001,2024_Jan_26_1708,SpeechDraft1Carolyn_lessNoise_PlusLocalization,2021.2.3,59.99281913312093,
bridge.wav,bridge.mpg,bridge,2,AV,Pink_Noise_2_1.wav,Pink_Noise_2_2.wav,,,,,,,,,,,,,,,0,49,49,89,,,,,,,,,,,,,,,,,,,,,,,551.4661235851236,None,552.9658527332358,None,554.3493339531124,None,bridge,554.3493339531124,None,return,5.4116292130202055,554.4327452052385,None,,,,,,,,,,,,,,,,,,,,,,,,,,,,,,,,,,,,,,,157,001,2024_Jan_26_1708,SpeechDraft1Carolyn_lessNoise_PlusLocalization,2021.2.3,59.99281913312093,
blue.wav,blue.mpg,blue,4,AV,Pink_Noise_4_1.wav,Pink_Noise_4_2.wav,,,,,,,,,,,,,,,0,50,50,96,,,,,,,,,,,,,,,,,,,,,,,559.8661311641335,None,561.3658200600185,None,562.749309442006,None,"blue
",562.749309442006,None,return,1.0675466628745198,562.8328183009289,None,,,,,,,,,,,,,,,,,,,,,,,,,,,,,,,,,,,,,,,157,001,2024_Jan_26_1708,SpeechDraft1Carolyn_lessNoise_PlusLocalization,2021.2.3,59.99281913312093,
clown.wav,clown.mpg,clown,3,AV,Pink_Noise_3_1.wav,Pink_Noise_3_2.wav,,,,,,,,,,,,,,,0,51,51,116,,,,,,,,,,,,,,,,,,,,,,,563.9327843403444,None,565.4345694249496,None,566.8161473050714,None,cloud,566.8161473050714,None,return,8.40894117904827,566.8994167982601,None,,,,,,,,,,,,,,,,,,,,,,,,,,,,,,,,,,,,,,,157,001,2024_Jan_26_1708,SpeechDraft1Carolyn_lessNoise_PlusLocalization,2021.2.3,59.99281913312093,
fade.wav,fade.mpg,fade,4,AV,Pink_Noise_4_1.wav,Pink_Noise_4_2.wav,,,,,,,,,,,,,,,0,52,52,105,,,,,,,,,,,,,,,,,,,,,,,575.3328351872042,None,576.8325830851682,None,578.21622428298,None,fame,578.21622428298,None,return,2.6088696932420135,578.2994825323112,None,,,,,,,,,,,,,,,,,,,,,,,,,,,,,,,,,,,,,,,157,001,2024_Jan_26_1708,SpeechDraft1Carolyn_lessNoise_PlusLocalization,2021.2.3,59.99281913312093,
bite.wav,bite.mpg,bite,3,A,Pink_Noise_3_1.wav,Pink_Noise_3_2.wav,,,,,,,,,,,,,,,0,53,53,42,,,,,,,,,,,,,,,,,,,,,,,580.9327351469547,None,582.4325585570186,None,583.8161524413154,None,bite,583.8161524413154,None,return,5.6408969718031585,583.8994972510263,None,,,,,,,,,,,,,,,,,,,,,,,,,,,,,,,,,,,,,,,157,001,2024_Jan_26_1708,SpeechDraft1Carolyn_lessNoise_PlusLocalization,2021.2.3,59.99281913312093,
cause.wav,cause.mpg,cause,4,AV,Pink_Noise_4_1.wav,Pink_Noise_4_2.wav,,,,,,,,,,,,,,,0,54,54,74,,,,,,,,,,,,,,,,,,,,,,,589.5660841641948,None,591.065912574064,None,592.4494168539532,None,cause,592.4494168539532,None,return,1.4395640757866204,592.5328978542238,None,,,,,,,,,,,,,,,,,,,,,,,,,,,,,,,,,,,,,,,157,001,2024_Jan_26_1708,SpeechDraft1Carolyn_lessNoise_PlusLocalization,2021.2.3,59.99281913312093,
flu.wav,flu.mpg,flu,3,A,Pink_Noise_3_1.wav,Pink_Noise_3_2.wav,,,,,,,,,,,,,,,0,55,55,16,,,,,,,,,,,,,,,,,,,,,,,593.9997398862615,None,595.499245767016,None,596.8827887182124,None,flu,596.8827887182124,None,return,4.206339368131012,596.9661021730863,None,,,,,,,,,,,,,,,,,,,,,,,,,,,,,,,,,,,,,,,157,001,2024_Jan_26_1708,SpeechDraft1Carolyn_lessNoise_PlusLocalization,2021.2.3,59.99281913312093,
feed.wav,feed.mpg,feed,2,A,Pink_Noise_2_1.wav,Pink_Noise_2_2.wav,,,,,,,,,,,,,,,0,56,56,44,,,,,,,,,,,,,,,,,,,,,,,601.199564490933,None,602.7000614609569,None,604.0828825770877,None,cleaned,604.0828825770877,None,return,1.7581790089607239,604.1661741849966,None,,,,,,,,,,,,,,,,,,,,,,,,,,,,,,,,,,,,,,,157,001,2024_Jan_26_1708,SpeechDraft1Carolyn_lessNoise_PlusLocalization,2021.2.3,59.99281913312093,
blank.wav,blank.mpg,blank,6,AV,Pink_Noise_6_1.wav,Pink_Noise_6_2.wav,,,,,,,,,,,,,,,0,57,57,99,,,,,,,,,,,,,,,,,,,,,,,605.9494587890804,None,607.4492153641768,None,608.8327539539896,None,black,608.8327539539896,None,return,1.8322140108793974,608.9161911499687,None,,,,,,,,,,,,,,,,,,,,,,,,,,,,,,,,,,,,,,,157,001,2024_Jan_26_1708,SpeechDraft1Carolyn_lessNoise_PlusLocalization,2021.2.3,59.99281913312093,
firm.wav,firm.mpg,firm,4,A,Pink_Noise_4_1.wav,Pink_Noise_4_2.wav,,,,,,,,,,,,,,,0,58,58,15,,,,,,,,,,,,,,,,,,,,,,,610.7662188229151,None,612.2658225521445,None,613.6496075862087,None,throw,613.6496075862087,None,return,1.1753939744085073,613.7329768170603,None,,,,,,,,,,,,,,,,,,,,,,,,,,,,,,,,,,,,,,,157,001,2024_Jan_26_1708,SpeechDraft1Carolyn_lessNoise_PlusLocalization,2021.2.3,59.99281913312093,
crowd.wav,crowd.mpg,crowd,5,A,Pink_Noise_5_1.wav,Pink_Noise_5_2.wav,,,,,,,,,,,,,,,0,59,59,4,,,,,,,,,,,,,,,,,,,,,,,614.9329241160303,None,616.4324870579876,None,617.8162250029854,None,nor,617.8162250029854,None,return,2.0488842031918466,617.8995602182113,None,,,,,,,,,,,,,,,,,,,,,,,,,,,,,,,,,,,,,,,157,001,2024_Jan_26_1708,SpeechDraft1Carolyn_lessNoise_PlusLocalization,2021.2.3,59.99281913312093,
cube.wav,cube.mpg,cube,4,A,Pink_Noise_4_1.wav,Pink_Noise_4_2.wav,,,,,,,,,,,,,,,0,60,60,43,,,,,,,,,,,,,,,,,,,,,,,619.9662054469809,None,621.4658823753707,None,622.849622445181,None,cute,622.849622445181,None,return,2.391513616312295,622.9328702320345,None,,,,,,,,,,,,,,,,,,,,,,,,,,,,,,,,,,,,,,,157,001,2024_Jan_26_1708,SpeechDraft1Carolyn_lessNoise_PlusLocalization,2021.2.3,59.99281913312093,
clog.wav,clog.mpg,clog,1,A,Pink_Noise_1_1.wav,Pink_Noise_1_2.wav,,,,,,,,,,,,,,,0,61,61,21,,,,,,,,,,,,,,,,,,,,,,,625.3495431900956,None,626.8507591392845,None,628.2329399441369,None,clog,628.2329399441369,None,return,2.2803230159915984,628.316106361337,None,,,,,,,,,,,,,,,,,,,,,,,,,,,,,,,,,,,,,,,157,001,2024_Jan_26_1708,SpeechDraft1Carolyn_lessNoise_PlusLocalization,2021.2.3,59.99281913312093,
fable.wav,fable.mpg,fable,6,AV,Pink_Noise_6_1.wav,Pink_Noise_6_2.wav,,,,,,,,,,,,,,,0,62,62,113,,,,,,,,,,,,,,,,,,,,,,,630.6163733131252,None,632.1326737711206,None,633.5161765119992,None,flip,633.5161765119992,None,return,2.4289116938598454,633.599469400011,None,,,,,,,,,,,,,,,,,,,,,,,,,,,,,,,,,,,,,,,157,001,2024_Jan_26_1708,SpeechDraft1Carolyn_lessNoise_PlusLocalization,2021.2.3,59.99281913312093,
file.wav,file.mpg,file,4,A,Pink_Noise_4_1.wav,Pink_Noise_4_2.wav,,,,,,,,,,,,,,,0,63,63,1,,,,,,,,,,,,,,,,,,,,,,,636.0495449090376,None,637.5493513862602,None,638.9329046593048,None,fire,638.9329046593048,None,return,2.1961856558918953,639.0162663650699,None,,,,,,,,,,,,,,,,,,,,,,,,,,,,,,,,,,,,,,,157,001,2024_Jan_26_1708,SpeechDraft1Carolyn_lessNoise_PlusLocalization,2021.2.3,59.99281913312093,
fleet.wav,fleet.mpg,fleet,6,A,Pink_Noise_6_1.wav,Pink_Noise_6_2.wav,,,,,,,,,,,,,,,0,64,64,54,,,,,,,,,,,,,,,,,,,,,,,641.2329549482092,None,642.7326659830287,None,644.1162935211323,None,clip,644.1162935211323,None,return,5.540776439011097,644.1996059841476,None,,,,,,,,,,,,,,,,,,,,,,,,,,,,,,,,,,,,,,,157,001,2024_Jan_26_1708,SpeechDraft1Carolyn_lessNoise_PlusLocalization,2021.2.3,59.99281913312093,
deed.wav,deed.mpg,deed,5,A,Pink_Noise_5_1.wav,Pink_Noise_5_2.wav,,,,,,,,,,,,,,,0,65,65,20,,,,,,,,,,,,,,,,,,,,,,,649.7662385669537,None,651.2659138990566,None,652.649590279907,None,eay,652.649590279907,None,return,2.2155434573069215,652.7329307449982,None,,,,,,,,,,,,,,,,,,,,,,,,,,,,,,,,,,,,,,,157,001,2024_Jan_26_1708,SpeechDraft1Carolyn_lessNoise_PlusLocalization,2021.2.3,59.99281913312093,
coup.wav,coup.mpg,coup,1,AV,Pink_Noise_1_1.wav,Pink_Noise_1_2.wav,,,,,,,,,,,,,,,0,66,66,108,,,,,,,,,,,,,,,,,,,,,,,654.9662895612419,None,656.4660160969943,None,657.8495499473065,None,coup,657.8495499473065,None,return,3.887411798350513,657.9329504310153,None,,,,,,,,,,,,,,,,,,,,,,,,,,,,,,,,,,,,,,,157,001,2024_Jan_26_1708,SpeechDraft1Carolyn_lessNoise_PlusLocalization,2021.2.3,59.99281913312093,
cloak.wav,cloak.mpg,cloak,6,AV,Pink_Noise_6_1.wav,Pink_Noise_6_2.wav,,,,,,,,,,,,,,,0,67,67,84,,,,,,,,,,,,,,,,,,,,,,,661.8495223121718,None,663.3492457289249,None,664.7328474600799,None,low,664.7328474600799,None,return,4.1722517549060285,664.8162397639826,None,,,,,,,,,,,,,,,,,,,,,,,,,,,,,,,,,,,,,,,157,001,2024_Jan_26_1708,SpeechDraft1Carolyn_lessNoise_PlusLocalization,2021.2.3,59.99281913312093,
fill.wav,fill.mpg,fill,3,AV,Pink_Noise_3_1.wav,Pink_Noise_3_2.wav,,,,,,,,,,,,,,,0,68,68,61,,,,,,,,,,,,,,,,,,,,,,,669.0161415720358,None,670.5178004209884,None,671.8995722471736,None,"fill
",671.8995722471736,None,return,3.869407066144049,671.9829474189319,None,,,,,,,,,,,,,,,,,,,,,,,,,,,,,,,,,,,,,,,157,001,2024_Jan_26_1708,SpeechDraft1Carolyn_lessNoise_PlusLocalization,2021.2.3,59.99281913312093,
dumb.wav,dumb.mpg,dumb,6,A,Pink_Noise_6_1.wav,Pink_Noise_6_2.wav,,,,,,,,,,,,,,,0,69,69,25,,,,,,,,,,,,,,,,,,,,,,,675.8829118809663,None,677.382720944006,None,678.7662819591351,None,door,678.7662819591351,None,return,2.858699363656342,678.8496513143182,None,,,,,,,,,,,,,,,,,,,,,,,,,,,,,,,,,,,,,,,157,001,2024_Jan_26_1708,SpeechDraft1Carolyn_lessNoise_PlusLocalization,2021.2.3,59.99281913312093,
dial.wav,dial.mpg,dial,3,A,Pink_Noise_3_1.wav,Pink_Noise_3_2.wav,,,,,,,,,,,,,,,0,70,70,5,,,,,,,,,,,,,,,,,,,,,,,681.7329759020358,None,683.2326666959561,None,684.6162387300283,None,"diey
",684.6162387300283,None,return,1.2007181411609054,684.6996506052092,None,,,,,,,,,,,,,,,,,,,,,,,,,,,,,,,,,,,,,,,157,001,2024_Jan_26_1708,SpeechDraft1Carolyn_lessNoise_PlusLocalization,2021.2.3,59.99281913312093,
bottle.wav,bottle.mpg,bottle,5,AV,Pink_Noise_5_1.wav,Pink_Noise_5_2.wav,,,,,,,,,,,,,,,0,71,71,94,,,,,,,,,,,,,,,,,,,,,,,685.9329890129156,None,687.4325941842981,None,688.8162573692389,None,pulp,688.8162573692389,None,return,4.960746135096997,688.8996038842015,None,,,,,,,,,,,,,,,,,,,,,,,,,,,,,,,,,,,,,,,157,001,2024_Jan_26_1708,SpeechDraft1Carolyn_lessNoise_PlusLocalization,2021.2.3,59.99281913312093,
quit.wav,quit.mpg,quit,2,A,Pink_Noise_2_1.wav,Pink_Noise_2_2.wav,,,,,,,,,,,,,,,0,72,72,2,,,,,,,,,,,,,,,,,,,,,,,693.8829176193103,None,695.399407715071,None,696.7830445473082,None,quit,696.7830445473082,None,return,5.226118627935648,696.8662638221867,None,,,,,,,,,,,,,,,,,,,,,,,,,,,,,,,,,,,,,,,157,001,2024_Jan_26_1708,SpeechDraft1Carolyn_lessNoise_PlusLocalization,2021.2.3,59.99281913312093,
bath.wav,bath.mpg,bath,3,AV,Pink_Noise_3_1.wav,Pink_Noise_3_2.wav,,,,,,,,,,,,,,,0,73,73,69,,,,,,,,,,,,,,,,,,,,,,,702.1162509713322,None,703.6160436910577,None,704.9995584753342,None,batg,704.9995584753342,None,return,3.6254318808205426,705.0829389602877,None,,,,,,,,,,,,,,,,,,,,,,,,,,,,,,,,,,,,,,,157,001,2024_Jan_26_1708,SpeechDraft1Carolyn_lessNoise_PlusLocalization,2021.2.3,59.99281913312093,
glue.wav,glue.mpg,glue,5,AV,Pink_Noise_5_1.wav,Pink_Noise_5_2.wav,,,,,,,,,,,,,,,0,74,74,62,,,,,,,,,,,,,,,,,,,,,,,708.7330254493281,None,710.2328124069609,None,711.6163813923486,None,glue,711.6163813923486,None,return,2.2166469590738416,711.6997228120454,None,,,,,,,,,,,,,,,,,,,,,,,,,,,,,,,,,,,,,,,157,001,2024_Jan_26_1708,SpeechDraft1Carolyn_lessNoise_PlusLocalization,2021.2.3,59.99281913312093,
squat.wav,squat.mpg,squat,6,AV,Pink_Noise_6_1.wav,Pink_Noise_6_2.wav,,,,,,,,,,,,,,,0,75,75,117,,,,,,,,,,,,,,,,,,,,,,,713.9329766081646,None,715.4495517322794,None,716.8329249261878,None,sway,716.8329249261878,None,return,3.2080190773122013,716.9163238601759,None,,,,,,,,,,,,,,,,,,,,,,,,,,,,,,,,,,,,,,,157,001,2024_Jan_26_1708,SpeechDraft1Carolyn_lessNoise_PlusLocalization,2021.2.3,59.99281913312093,
giant.wav,giant.mpg,giant,2,AV,Pink_Noise_2_1.wav,Pink_Noise_2_2.wav,,,,,,,,,,,,,,,0,76,76,68,,,,,,,,,,,,,,,,,,,,,,,720.1496878573671,None,721.6660903063603,None,723.0329685993493,None,gianty,723.0329685993493,None,return,4.896069756243378,723.1163330362178,None,,,,,,,,,,,,,,,,,,,,,,,,,,,,,,,,,,,,,,,157,001,2024_Jan_26_1708,SpeechDraft1Carolyn_lessNoise_PlusLocalization,2021.2.3,59.99281913312093,
fog.wav,fog.mpg,fog,4,A,Pink_Noise_4_1.wav,Pink_Noise_4_2.wav,,,,,,,,,,,,,,,0,77,77,26,,,,,,,,,,,,,,,,,,,,,,,728.0330097381957,None,729.549356373027,None,730.932989298366,None,quad,730.932989298366,None,return,2.4760460522957146,731.0163296242245,None,,,,,,,,,,,,,,,,,,,,,,,,,,,,,,,,,,,,,,,157,001,2024_Jan_26_1708,SpeechDraft1Carolyn_lessNoise_PlusLocalization,2021.2.3,59.99281913312093,
cope.wav,cope.mpg,cope,2,A,Pink_Noise_2_1.wav,Pink_Noise_2_2.wav,,,,,,,,,,,,,,,0,78,78,51,,,,,,,,,,,,,,,,,,,,,,,733.5163800013252,None,735.0167420692742,None,736.3997301189229,None,coke,736.3997301189229,None,return,3.9452855940908194,736.4830832919106,None,,,,,,,,,,,,,,,,,,,,,,,,,,,,,,,,,,,,,,,157,001,2024_Jan_26_1708,SpeechDraft1Carolyn_lessNoise_PlusLocalization,2021.2.3,59.99281913312093,
poll.wav,poll.mpg,poll,3,AV,Pink_Noise_3_1.wav,Pink_Noise_3_2.wav,,,,,,,,,,,,,,,0,79,79,98,,,,,,,,,,,,,,,,,,,,,,,740.4496782869101,None,741.9660032689571,None,743.349595616106,None,pull,743.349595616106,None,return,2.915500451810658,743.4329385552555,None,,,,,,,,,,,,,,,,,,,,,,,,,,,,,,,,,,,,,,,157,001,2024_Jan_26_1708,SpeechDraft1Carolyn_lessNoise_PlusLocalization,2021.2.3,59.99281913312093,
greek.wav,greek.mpg,greek,6,A,Pink_Noise_6_1.wav,Pink_Noise_6_2.wav,,,,,,,,,,,,,,,0,80,80,53,,,,,,,,,,,,,,,,,,,,,,,746.3664151593111,None,747.8663532789797,None,749.249730497133,None,no,749.249730497133,None,return,2.0791562628000975,749.3331877919845,None,,,,,,,,,,,,,,,,,,,,,,,,,,,,,,,,,,,,,,,157,001,2024_Jan_26_1708,SpeechDraft1Carolyn_lessNoise_PlusLocalization,2021.2.3,59.99281913312093,
bake.wav,bake.mpg,bake,1,A,Pink_Noise_1_1.wav,Pink_Noise_1_2.wav,,,,,,,,,,,,,,,0,81,81,10,,,,,,,,,,,,,,,,,,,,,,,751.4331955322996,None,752.9494591583498,None,754.333106810227,None,bake,754.333106810227,None,return,3.9078279468230903,754.4165528579615,None,,,,,,,,,,,,,,,,,,,,,,,,,,,,,,,,,,,,,,,157,001,2024_Jan_26_1708,SpeechDraft1Carolyn_lessNoise_PlusLocalization,2021.2.3,59.99281913312093,
truck.wav,truck.mpg,truck,4,A,Pink_Noise_4_1.wav,Pink_Noise_4_2.wav,,,,,,,,,,,,,,,0,82,82,38,,,,,,,,,,,,,,,,,,,,,,,758.3497363110073,None,759.8661579862237,None,761.2497752751224,None,truck,761.2497752751224,None,return,9.543297291733325,761.3330632122234,None,,,,,,,,,,,,,,,,,,,,,,,,,,,,,,,,,,,,,,,157,001,2024_Jan_26_1708,SpeechDraft1Carolyn_lessNoise_PlusLocalization,2021.2.3,59.99281913312093,
boil.wav,boil.mpg,boil,5,A,Pink_Noise_5_1.wav,Pink_Noise_5_2.wav,,,,,,,,,,,,,,,0,83,83,39,,,,,,,,,,,,,,,,,,,,,,,770.8998850602657,None,772.3993839360774,None,773.7829580740072,None,soil,773.7829580740072,None,return,1.9938433631323278,773.8665075493045,None,,,,,,,,,,,,,,,,,,,,,,,,,,,,,,,,,,,,,,,157,001,2024_Jan_26_1708,SpeechDraft1Carolyn_lessNoise_PlusLocalization,2021.2.3,59.99281913312093,
foam.wav,foam.mpg,foam,3,AV,Pink_Noise_3_1.wav,Pink_Noise_3_2.wav,,,,,,,,,,,,,,,0,84,84,64,,,,,,,,,,,,,,,,,,,,,,,775.8830922301859,None,777.382703917101,None,778.7663558833301,None,foam,778.7663558833301,None,return,2.8666692501865327,778.849731137976,None,,,,,,,,,,,,,,,,,,,,,,,,,,,,,,,,,,,,,,,157,001,2024_Jan_26_1708,SpeechDraft1Carolyn_lessNoise_PlusLocalization,2021.2.3,59.99281913312093,
glove.wav,glove.mpg,glove,3,AV,Pink_Noise_3_1.wav,Pink_Noise_3_2.wav,,,,,,,,,,,,,,,0,85,85,88,,,,,,,,,,,,,,,,,,,,,,,781.7331221592613,None,783.2494740732946,None,784.6330455043353,None,glove,784.6330455043353,None,return,6.591988954693079,784.7163938670419,None,,,,,,,,,,,,,,,,,,,,,,,,,,,,,,,,,,,,,,,157,001,2024_Jan_26_1708,SpeechDraft1Carolyn_lessNoise_PlusLocalization,2021.2.3,59.99281913312093,
grade.wav,grade.mpg,grade,3,A,Pink_Noise_3_1.wav,Pink_Noise_3_2.wav,,,,,,,,,,,,,,,0,86,86,58,,,,,,,,,,,,,,,,,,,,,,,791.3331902683713,None,792.833643685095,None,794.2165371412411,None,"red
",794.2165371412411,None,return,1.9686037288047373,794.2997595132329,None,,,,,,,,,,,,,,,,,,,,,,,,,,,,,,,,,,,,,,,157,001,2024_Jan_26_1708,SpeechDraft1Carolyn_lessNoise_PlusLocalization,2021.2.3,59.99281913312093,
cab.wav,cab.mpg,cab,2,A,Pink_Noise_2_1.wav,Pink_Noise_2_2.wav,,,,,,,,,,,,,,,0,87,87,31,,,,,,,,,,,,,,,,,,,,,,,796.2997337570414,None,797.8161636893637,None,799.1997668230906,None,"cab
",799.1997668230906,None,return,1.585341522935778,799.2830248461105,None,,,,,,,,,,,,,,,,,,,,,,,,,,,,,,,,,,,,,,,157,001,2024_Jan_26_1708,SpeechDraft1Carolyn_lessNoise_PlusLocalization,2021.2.3,59.99281913312093,
coast.wav,coast.mpg,coast,5,A,Pink_Noise_5_1.wav,Pink_Noise_5_2.wav,,,,,,,,,,,,,,,0,88,88,50,,,,,,,,,,,,,,,,,,,,,,,800.8998673972674,None,802.4161553229205,None,803.7997535662726,None,"voice
\",803.7997535662726,None,return,6.137181698810309,803.8831741069444,None,,,,,,,,,,,,,,,,,,,,,,,,,,,,,,,,,,,,,,,157,001,2024_Jan_26_1708,SpeechDraft1Carolyn_lessNoise_PlusLocalization,2021.2.3,59.99281913312093,
fun.wav,fun.mpg,fun,6,AV,Pink_Noise_6_1.wav,Pink_Noise_6_2.wav,,,,,,,,,,,,,,,0,89,89,66,,,,,,,,,,,,,,,,,,,,,,,810.0497559532523,None,811.5661823800765,None,812.9497387432493,None,fun,812.9497387432493,None,return,3.7393428198993206,813.0331213800237,None,,,,,,,,,,,,,,,,,,,,,,,,,,,,,,,,,,,,,,,157,001,2024_Jan_26_1708,SpeechDraft1Carolyn_lessNoise_PlusLocalization,2021.2.3,59.99281913312093,
bug.wav,bug.mpg,bug,2,A,Pink_Noise_2_1.wav,Pink_Noise_2_2.wav,,,,,,,,,,,,,,,0,90,90,7,,,,,,,,,,,,,,,,,,,,,,,816.7997904303484,None,818.3000745829195,None,819.6831590179354,None,"bug
",819.6831590179354,None,return,1.9179236977361143,819.7664472572505,None,,,,,,,,,,,,,,,,,,,,,,,,,,,,,,,,,,,,,,,157,001,2024_Jan_26_1708,SpeechDraft1Carolyn_lessNoise_PlusLocalization,2021.2.3,59.99281913312093,
guest.wav,guest.mpg,guest,1,AV,Pink_Noise_1_1.wav,Pink_Noise_1_2.wav,,,,,,,,,,,,,,,0,91,91,119,,,,,,,,,,,,,,,,,,,,,,,821.7165846079588,None,823.4162216312252,None,824.799745105207,None,"guest
",824.799745105207,None,return,2.7531302152201533,824.8832320319489,None,,,,,,,,,,,,,,,,,,,,,,,,,,,,,,,,,,,,,,,157,001,2024_Jan_26_1708,SpeechDraft1Carolyn_lessNoise_PlusLocalization,2021.2.3,59.99281913312093,
row.wav,row.mpg,row,6,A,Pink_Noise_6_1.wav,Pink_Noise_6_2.wav,,,,,,,,,,,,,,,0,92,92,33,,,,,,,,,,,,,,,,,,,,,,,827.6664983863011,None,829.1666182223707,None,830.5498382560909,None,no,830.5498382560909,None,return,3.89113854104653,830.6332046929747,None,,,,,,,,,,,,,,,,,,,,,,,,,,,,,,,,,,,,,,,157,001,2024_Jan_26_1708,SpeechDraft1Carolyn_lessNoise_PlusLocalization,2021.2.3,59.99281913312093,
eight.wav,eight.mpg,eight,3,A,Pink_Noise_3_1.wav,Pink_Noise_3_2.wav,,,,,,,,,,,,,,,0,93,93,24,,,,,,,,,,,,,,,,,,,,,,,834.5498086810112,None,836.0663014170714,None,837.4497560192831,None,"eight
",837.4497560192831,None,return,1.7192427418194711,837.5331214820035,None,,,,,,,,,,,,,,,,,,,,,,,,,,,,,,,,,,,,,,,157,001,2024_Jan_26_1708,SpeechDraft1Carolyn_lessNoise_PlusLocalization,2021.2.3,59.99281913312093,
druid.wav,druid.mpg,druid,2,AV,Pink_Noise_2_1.wav,Pink_Noise_2_2.wav,,,,,,,,,,,,,,,0,94,94,65,,,,,,,,,,,,,,,,,,,,,,,839.283143710345,None,840.7994976299815,None,842.1831421200186,None,"drawing
",842.1831421200186,None,return,8.017849247902632,842.2665140479803,None,,,,,,,,,,,,,,,,,,,,,,,,,,,,,,,,,,,,,,,157,001,2024_Jan_26_1708,SpeechDraft1Carolyn_lessNoise_PlusLocalization,2021.2.3,59.99281913312093,
blade.wav,blade.mpg,blade,6,A,Pink_Noise_6_1.wav,Pink_Noise_6_2.wav,,,,,,,,,,,,,,,0,95,95,12,,,,,,,,,,,,,,,,,,,,,,,850.3166316100396,None,851.833023104351,None,853.2165035060607,None,plead,853.2165035060607,None,return,2.9604184478521347,853.2998963990249,None,,,,,,,,,,,,,,,,,,,,,,,,,,,,,,,,,,,,,,,157,001,2024_Jan_26_1708,SpeechDraft1Carolyn_lessNoise_PlusLocalization,2021.2.3,59.99281913312093,
bald.wav,bald.mpg,bald,5,A,Pink_Noise_5_1.wav,Pink_Noise_5_2.wav,,,,,,,,,,,,,,,0,96,96,13,,,,,,,,,,,,,,,,,,,,,,,856.2830317560583,None,857.799534321297,None,859.1832061791793,None,fog,859.1832061791793,None,return,3.7059588129632175,859.2664742190391,None,,,,,,,,,,,,,,,,,,,,,,,,,,,,,,,,,,,,,,,157,001,2024_Jan_26_1708,SpeechDraft1Carolyn_lessNoise_PlusLocalization,2021.2.3,59.99281913312093,
lie.wav,lie.mpg,lie,4,A,Pink_Noise_4_1.wav,Pink_Noise_4_2.wav,,,,,,,,,,,,,,,0,97,97,17,,,,,,,,,,,,,,,,,,,,,,,862.9997828719206,None,864.516251523979,None,865.8999555562623,None,night,865.8999555562623,None,return,3.797167763579637,865.9832321242429,None,,,,,,,,,,,,,,,,,,,,,,,,,,,,,,,,,,,,,,,157,001,2024_Jan_26_1708,SpeechDraft1Carolyn_lessNoise_PlusLocalization,2021.2.3,59.99281913312093,
bun.wav,bun.mpg,bun,1,AV,Pink_Noise_1_1.wav,Pink_Noise_1_2.wav,,,,,,,,,,,,,,,0,98,98,106,,,,,,,,,,,,,,,,,,,,,,,869.8000272051431,None,871.3330089119263,None,872.7164378562011,None,bun,872.7164378562011,None,return,1.892468359787017,872.7999146799557,None,,,,,,,,,,,,,,,,,,,,,,,,,,,,,,,,,,,,,,,157,001,2024_Jan_26_1708,SpeechDraft1Carolyn_lessNoise_PlusLocalization,2021.2.3,59.99281913312093,
cute.wav,cute.mpg,cute,3,AV,Pink_Noise_3_1.wav,Pink_Noise_3_2.wav,,,,,,,,,,,,,,,0,99,99,109,,,,,,,,,,,,,,,,,,,,,,,874.7165440199897,None,876.2329107010737,None,877.6164488382638,None,cute,877.6164488382638,None,return,2.7284712996333838,877.699891360011,None,,,,,,,,,,,,,,,,,,,,,,,,,,,,,,,,,,,,,,,157,001,2024_Jan_26_1708,SpeechDraft1Carolyn_lessNoise_PlusLocalization,2021.2.3,59.99281913312093,
beef.wav,beef.mpg,beef,6,A,Pink_Noise_6_1.wav,Pink_Noise_6_2.wav,,,,,,,,,,,,,,,0,100,100,0,,,,,,,,,,,,,,,,,,,,,,,880.4663042551838,None,881.9828735901974,None,883.3666347791441,None,soy,883.3666347791441,None,return,7.370505335275084,883.4498320072889,None,,,,,,,,,,,,,,,,,,,,,,,,,,,,,,,,,,,,,,,157,001,2024_Jan_26_1708,SpeechDraft1Carolyn_lessNoise_PlusLocalization,2021.2.3,59.99281913312093,
gut.wav,gut.mpg,gut,6,AV,Pink_Noise_6_1.wav,Pink_Noise_6_2.wav,,,,,,,,,,,,,,,0,101,101,86,,,,,,,,,,,,,,,,,,,,,,,890.8498936891556,None,892.3663219800219,None,893.7498988099396,None,"gut
",893.7498988099396,None,return,5.851160128600895,893.8332067080773,None,,,,,,,,,,,,,,,,,,,,,,,,,,,,,,,,,,,,,,,157,001,2024_Jan_26_1708,SpeechDraft1Carolyn_lessNoise_PlusLocalization,2021.2.3,59.99281913312093,
strive.wav,strive.mpg,strive,4,AV,Pink_Noise_4_1.wav,Pink_Noise_4_2.wav,,,,,,,,,,,,,,,0,102,102,70,,,,,,,,,,,,,,,,,,,,,,,899.7165936660022,None,901.249752946198,None,902.6332239932381,None,"strive
",902.6332239932381,None,return,2.3836870887316763,902.7166755930521,None,,,,,,,,,,,,,,,,,,,,,,,,,,,,,,,,,,,,,,,157,001,2024_Jan_26_1708,SpeechDraft1Carolyn_lessNoise_PlusLocalization,2021.2.3,59.99281913312093,
lead.wav,lead.mpg,lead,2,A,Pink_Noise_2_1.wav,Pink_Noise_2_2.wav,,,,,,,,,,,,,,,0,103,103,47,,,,,,,,,,,,,,,,,,,,,,,905.1332591832615,None,906.6497408533469,None,908.0332401259802,None,led,908.0332401259802,None,return,1.431758678983897,908.1166943269782,None,,,,,,,,,,,,,,,,,,,,,,,,,,,,,,,,,,,,,,,157,001,2024_Jan_26_1708,SpeechDraft1Carolyn_lessNoise_PlusLocalization,2021.2.3,59.99281913312093,
fear.wav,fear.mpg,fear,6,A,Pink_Noise_6_1.wav,Pink_Noise_6_2.wav,,,,,,,,,,,,,,,0,104,104,56,,,,,,,,,,,,,,,,,,,,,,,909.5665940563194,None,911.083487269003,None,912.466575643979,None,no,912.466575643979,None,return,2.7583945589140058,912.5499569331296,None,,,,,,,,,,,,,,,,,,,,,,,,,,,,,,,,,,,,,,,157,001,2024_Jan_26_1708,SpeechDraft1Carolyn_lessNoise_PlusLocalization,2021.2.3,59.99281913312093,
break.wav,break.mpg,break,4,A,Pink_Noise_4_1.wav,Pink_Noise_4_2.wav,,,,,,,,,,,,,,,0,105,105,29,,,,,,,,,,,,,,,,,,,,,,,915.3332899101079,None,916.8504002722912,None,918.2334529543296,None,great,918.2334529543296,None,return,1.6157031250186265,918.3167092832737,None,,,,,,,,,,,,,,,,,,,,,,,,,,,,,,,,,,,,,,,157,001,2024_Jan_26_1708,SpeechDraft1Carolyn_lessNoise_PlusLocalization,2021.2.3,59.99281913312093,
crime.wav,crime.mpg,crime,5,A,Pink_Noise_5_1.wav,Pink_Noise_5_2.wav,,,,,,,,,,,,,,,0,106,106,32,,,,,,,,,,,,,,,,,,,,,,,919.9501306070015,None,921.4670689580962,None,922.8499779473059,None,play,922.8499779473059,None,return,1.6552474033087492,922.9332571071573,None,,,,,,,,,,,,,,,,,,,,,,,,,,,,,,,,,,,,,,,157,001,2024_Jan_26_1708,SpeechDraft1Carolyn_lessNoise_PlusLocalization,2021.2.3,59.99281913312093,
duke.wav,duke.mpg,duke,6,A,Pink_Noise_6_1.wav,Pink_Noise_6_2.wav,,,,,,,,,,,,,,,0,107,107,22,,,,,,,,,,,,,,,,,,,,,,,924.6166333560832,None,926.1330812210217,None,927.5165569451638,None,cute,927.5165569451638,None,return,4.444283812306821,927.6000754772685,None,,,,,,,,,,,,,,,,,,,,,,,,,,,,,,,,,,,,,,,157,001,2024_Jan_26_1708,SpeechDraft1Carolyn_lessNoise_PlusLocalization,2021.2.3,59.99281913312093,
chest.wav,chest.mpg,chest,2,AV,Pink_Noise_2_1.wav,Pink_Noise_2_2.wav,,,,,,,,,,,,,,,0,108,108,90,,,,,,,,,,,,,,,,,,,,,,,932.0667933612131,None,933.5829802039079,None,934.9666966740042,None,chest,934.9666966740042,None,return,5.122372524812818,935.0500698541291,None,,,,,,,,,,,,,,,,,,,,,,,,,,,,,,,,,,,,,,,157,001,2024_Jan_26_1708,SpeechDraft1Carolyn_lessNoise_PlusLocalization,2021.2.3,59.99281913312093,
fall.wav,fall.mpg,fall,1,A,Pink_Noise_1_1.wav,Pink_Noise_1_2.wav,,,,,,,,,,,,,,,0,109,109,8,,,,,,,,,,,,,,,,,,,,,,,940.2000495810062,None,941.7162572452798,None,943.1000038739294,None,fall,943.1000038739294,None,return,1.6450738166458905,943.1832903600298,None,,,,,,,,,,,,,,,,,,,,,,,,,,,,,,,,,,,,,,,157,001,2024_Jan_26_1708,SpeechDraft1Carolyn_lessNoise_PlusLocalization,2021.2.3,59.99281913312093,
cane.wav,cane.mpg,cane,2,AV,Pink_Noise_2_1.wav,Pink_Noise_2_2.wav,,,,,,,,,,,,,,,0,110,110,72,,,,,,,,,,,,,,,,,,,,,,,944.8498765020631,None,946.3664547610097,None,947.7500910540111,None,"cane
",947.7500910540111,None,return,2.0190457249991596,947.8333103773184,None,,,,,,,,,,,,,,,,,,,,,,,,,,,,,,,,,,,,,,,157,001,2024_Jan_26_1708,SpeechDraft1Carolyn_lessNoise_PlusLocalization,2021.2.3,59.99281913312093,
script.wav,script.mpg,script,5,A,Pink_Noise_5_1.wav,Pink_Noise_5_2.wav,,,,,,,,,,,,,,,0,111,111,23,,,,,,,,,,,,,,,,,,,,,,,949.8833033363335,None,951.3997236602008,None,952.7833567392081,None,cane,952.7833567392081,None,return,1.793720053974539,952.8666389780119,None,,,,,,,,,,,,,,,,,,,,,,,,,,,,,,,,,,,,,,,157,001,2024_Jan_26_1708,SpeechDraft1Carolyn_lessNoise_PlusLocalization,2021.2.3,59.99281913312093,
dread.wav,dread.mpg,dread,6,AV,Pink_Noise_6_1.wav,Pink_Noise_6_2.wav,,,,,,,,,,,,,,,0,112,112,63,,,,,,,,,,,,,,,,,,,,,,,954.683426103089,None,956.1998227830045,None,957.583353263326,None,"dread
",957.583353263326,None,return,2.8337384019978344,957.6666591502726,None,,,,,,,,,,,,,,,,,,,,,,,,,,,,,,,,,,,,,,,157,001,2024_Jan_26_1708,SpeechDraft1Carolyn_lessNoise_PlusLocalization,2021.2.3,59.99281913312093,
flake.wav,flake.mpg,flake,5,AV,Pink_Noise_5_1.wav,Pink_Noise_5_2.wav,,,,,,,,,,,,,,,0,113,113,104,,,,,,,,,,,,,,,,,,,,,,,960.5332901999354,None,962.0503405672498,None,963.4331795782782,None,flake,963.4331795782782,None,return,3.543613852933049,963.516776251141,None,,,,,,,,,,,,,,,,,,,,,,,,,,,,,,,,,,,,,,,157,001,2024_Jan_26_1708,SpeechDraft1Carolyn_lessNoise_PlusLocalization,2021.2.3,59.99281913312093,
grab.wav,grab.mpg,grab,1,A,Pink_Noise_1_1.wav,Pink_Noise_1_2.wav,,,,,,,,,,,,,,,0,114,114,35,,,,,,,,,,,,,,,,,,,,,,,967.0833769310266,None,968.599769980181,None,969.9833493162878,None,grab,969.9833493162878,None,return,2.745778833050281,970.0666123111732,None,,,,,,,,,,,,,,,,,,,,,,,,,,,,,,,,,,,,,,,157,001,2024_Jan_26_1708,SpeechDraft1Carolyn_lessNoise_PlusLocalization,2021.2.3,59.99281913312093,
date.wav,date.mpg,date,2,AV,Pink_Noise_2_1.wav,Pink_Noise_2_2.wav,,,,,,,,,,,,,,,0,115,115,107,,,,,,,,,,,,,,,,,,,,,,,972.8333423761651,None,974.3663961533457,None,975.7499189842492,None,"date
",975.7499189842492,None,return,1.4669948141090572,975.8333651092835,None,,,,,,,,,,,,,,,,,,,,,,,,,,,,,,,,,,,,,,,157,001,2024_Jan_26_1708,SpeechDraft1Carolyn_lessNoise_PlusLocalization,2021.2.3,59.99281913312093,
bar.wav,bar.mpg,bar,3,A,Pink_Noise_3_1.wav,Pink_Noise_3_2.wav,,,,,,,,,,,,,,,0,116,116,48,,,,,,,,,,,,,,,,,,,,,,,977.333321669139,None,978.8496844442561,None,980.2335473662242,None,"bar
",980.2335473662242,None,return,2.7837054887786508,980.3166499501094,None,,,,,,,,,,,,,,,,,,,,,,,,,,,,,,,,,,,,,,,157,001,2024_Jan_26_1708,SpeechDraft1Carolyn_lessNoise_PlusLocalization,2021.2.3,59.99281913312093,
smack.wav,smack.mpg,smack,1,AV,Pink_Noise_1_1.wav,Pink_Noise_1_2.wav,,,,,,,,,,,,,,,0,117,117,93,,,,,,,,,,,,,,,,,,,,,,,983.133363682311,None,984.6496897023171,None,986.0331672653556,None,"smack
",986.0331672653556,None,return,2.7835928248241544,986.1167725613341,None,,,,,,,,,,,,,,,,,,,,,,,,,,,,,,,,,,,,,,,157,001,2024_Jan_26_1708,SpeechDraft1Carolyn_lessNoise_PlusLocalization,2021.2.3,59.99281913312093,
flick.wav,flick.mpg,flick,5,A,Pink_Noise_5_1.wav,Pink_Noise_5_2.wav,,,,,,,,,,,,,,,0,118,118,46,,,,,,,,,,,,,,,,,,,,,,,988.9333484419622,None,990.4663511603139,None,991.8500952320173,None,play,991.8500952320173,None,return,2.2708526672795415,991.9335209610872,None,,,,,,,,,,,,,,,,,,,,,,,,,,,,,,,,,,,,,,,157,001,2024_Jan_26_1708,SpeechDraft1Carolyn_lessNoise_PlusLocalization,2021.2.3,59.99281913312093,
drum.wav,drum.mpg,drum,3,A,Pink_Noise_3_1.wav,Pink_Noise_3_2.wav,,,,,,,,,,,,,,,0,119,119,19,,,,,,,,,,,,,,,,,,,,,,,994.2334348540753,None,995.7830338571221,None,997.1666717422195,None,drum,997.1666717422195,None,return,1.9943290278315544,997.2500399183482,None,,,,,,,,,,,,,,,,,,,,,,,,,,,,,,,,,,,,,,,157,001,2024_Jan_26_1708,SpeechDraft1Carolyn_lessNoise_PlusLocalization,2021.2.3,59.99281913312093,
,,,,,,,,,,,,,,,,,,,,,,,,,,,,,,,,,,,,,,,,,,,,,,,,,,,,,,,,,,,,,,,,,,space,10.670439189765602,999.3500315430574,None,,,,,,,,,,,,,,,,,,,,,,,,,,,,,157,001,2024_Jan_26_1708,SpeechDraft1Carolyn_lessNoise_PlusLocalization,2021.2.3,59.99281913312093,
,,,,,,,,farLeft,-19.1,5,ch1Sound_localizationTask.wav,-19.1,"(667, 878)","(-293,-202)",-285,-338,,,,,,,,,0,0,0,0,,,,,,,,,,,,,,,,,,,,,,,,,,,,,,,,,,,,,,,,,,999.3500315430574,None,1010.0665249591693,None,1011.1664585471153,None,1012.0998175293207,None,1.2867724867724868,3.9191111088730395,1012.0998175293207,None,,,,,,,,,,,,,,,,,157,001,2024_Jan_26_1708,SpeechDraft1Carolyn_lessNoise_PlusLocalization,2021.2.3,59.99281913312093,
,,,,,,,,nearRight,6.5,0,ch1Sound_localizationTask.wav,6.5,"(1047, 878)","(87, -202)",95,-338,,,,,,,,,0,1,1,4,,,,,,,,,,,,,,,,,,,,,,,,,,,,,,,,,,,,,,,,,,,,1016.0168537530117,None,1017.1164462859742,None,1018.0498336469755,None,1.4904761904761905,1.233191853389144,1018.0498336469755,None,,,,,,,,,,,,,,,,,157,001,2024_Jan_26_1708,SpeechDraft1Carolyn_lessNoise_PlusLocalization,2021.2.3,59.99281913312093,
,,,,,,,,farLeft,-19.1,5,ch1Sound_localizationTask.wav,-19.1,"(667, 878)","(-293,-202)",-285,-338,,,,,,,,,0,2,2,0,,,,,,,,,,,,,,,,,,,,,,,,,,,,,,,,,,,,,,,,,,,,1019.3001619572751,None,1020.3998590633273,None,1021.3332654959522,None,1.2920634920634921,0.8825946361757815,1021.3332654959522,None,,,,,,,,,,,,,,,,,157,001,2024_Jan_26_1708,SpeechDraft1Carolyn_lessNoise_PlusLocalization,2021.2.3,59.99281913312093,
,,,,,,,,center,0.0,6,ch1Sound_localizationTask.wav,0.0,"(952, 878)","(-8,-202)",0,-338,,,,,,,,,0,3,3,3,,,,,,,,,,,,,,,,,,,,,,,,,,,,,,,,,,,,,,,,,,,,1022.2167283240706,None,1023.3164525222965,None,1024.2498014410958,None,1.438095238095238,0.2994260541163385,1024.2498014410958,None,,,,,,,,,,,,,,,,,157,001,2024_Jan_26_1708,SpeechDraft1Carolyn_lessNoise_PlusLocalization,2021.2.3,59.99281913312093,
,,,,,,,,center,0.0,6,ch1Sound_localizationTask.wav,0.0,"(952, 878)","(-8,-202)",0,-338,,,,,,,,,0,4,4,3,,,,,,,,,,,,,,,,,,,,,,,,,,,,,,,,,,,,,,,,,,,,1024.5501501210965,None,1025.6498466469347,None,1026.583143653348,None,1.425925925925926,6.21659120824188,1026.583143653348,None,,,,,,,,,,,,,,,,,157,001,2024_Jan_26_1708,SpeechDraft1Carolyn_lessNoise_PlusLocalization,2021.2.3,59.99281913312093,
,,,,,,,,farLeft,-19.1,5,ch1Sound_localizationTask.wav,-19.1,"(667, 878)","(-293,-202)",-285,-338,,,,,,,,,0,5,5,0,,,,,,,,,,,,,,,,,,,,,,,,,,,,,,,,,,,,,,,,,,,,1032.80108560808,None,1033.899780306965,None,1034.8331635519862,None,1.2634920634920634,0.8658411828801036,1034.8331635519862,None,,,,,,,,,,,,,,,,,157,001,2024_Jan_26_1708,SpeechDraft1Carolyn_lessNoise_PlusLocalization,2021.2.3,59.99281913312093,
,,,,,,,,farLeft,-19.1,5,ch1Sound_localizationTask.wav,-19.1,"(667, 878)","(-293,-202)",-285,-338,,,,,,,,,0,6,6,0,,,,,,,,,,,,,,,,,,,,,,,,,,,,,,,,,,,,,,,,,,,,1035.7002562941052,None,1036.7998826913536,None,1037.733186002355,None,1.308994708994709,0.44974178774282336,1037.733186002355,None,,,,,,,,,,,,,,,,,157,001,2024_Jan_26_1708,SpeechDraft1Carolyn_lessNoise_PlusLocalization,2021.2.3,59.99281913312093,
,,,,,,,,center,0.0,6,ch1Sound_localizationTask.wav,0.0,"(952, 878)","(-8,-202)",0,-338,,,,,,,,,1,0,7,3,,,,,,,,,,,,,,,,,,,,,,,,,,,,,,,,,,,,,,,,,,,,1038.1835749503225,None,1039.2831533192657,None,1040.2165120700374,None,1.5174603174603174,1.3161395541392267,1040.2165120700374,None,,,,,,,,,,,,,,,,,157,001,2024_Jan_26_1708,SpeechDraft1Carolyn_lessNoise_PlusLocalization,2021.2.3,59.99281913312093,
,,,,,,,,midLeft,-13.0,2,ch1Sound_localizationTask.wav,-13.0,"(762, 878)","(-198,-202)",-190,-338,,,,,,,,,1,1,8,1,,,,,,,,,,,,,,,,,,,,,,,,,,,,,,,,,,,,,,,,,,,,1041.5333574991673,None,1042.6331955292262,None,1043.5665723909624,None,1.2777777777777777,0.21657007187604904,1043.5665723909624,None,,,,,,,,,,,,,,,,,157,001,2024_Jan_26_1708,SpeechDraft1Carolyn_lessNoise_PlusLocalization,2021.2.3,59.99281913312093,
,,,,,,,,midLeft,-13.0,2,ch1Sound_localizationTask.wav,-13.0,"(762, 878)","(-198,-202)",-190,-338,,,,,,,,,1,2,9,1,,,,,,,,,,,,,,,,,,,,,,,,,,,,,,,,,,,,,,,,,,,,1043.7837080932222,None,1044.8832145892084,None,1045.8166331243701,None,1.3555555555555556,0.5990895158611238,1045.8166331243701,None,,,,,,,,,,,,,,,,,157,001,2024_Jan_26_1708,SpeechDraft1Carolyn_lessNoise_PlusLocalization,2021.2.3,59.99281913312093,
,,,,,,,,nearLeft,-6.5,1,ch1Sound_localizationTask.wav,-6.5,"(857, 878)","(-103,-202)",-95,-338,,,,,,,,,1,3,10,2,,,,,,,,,,,,,,,,,,,,,,,,,,,,,,,,,,,,,,,,,,,,1046.4168342761695,None,1047.516475701239,None,1048.4497875990346,None,1.4211640211640213,0.5491676991805434,1048.4497875990346,None,,,,,,,,,,,,,,,,,157,001,2024_Jan_26_1708,SpeechDraft1Carolyn_lessNoise_PlusLocalization,2021.2.3,59.99281913312093,
,,,,,,,,farLeft,-19.1,5,ch1Sound_localizationTask.wav,-19.1,"(667, 878)","(-293,-202)",-285,-338,,,,,,,,,1,4,11,0,,,,,,,,,,,,,,,,,,,,,,,,,,,,,,,,,,,,,,,,,,,,1049.000215366017,None,1050.0999312861823,None,1051.0334708029404,None,1.343915343915344,0.5121545600704849,1051.0334708029404,None,,,,,,,,,,,,,,,,,157,001,2024_Jan_26_1708,SpeechDraft1Carolyn_lessNoise_PlusLocalization,2021.2.3,59.99281913312093,
,,,,,,,,farLeft,-19.1,5,ch1Sound_localizationTask.wav,-19.1,"(667, 878)","(-293,-202)",-285,-338,,,,,,,,,1,5,12,0,,,,,,,,,,,,,,,,,,,,,,,,,,,,,,,,,,,,,,,,,,,,1051.5501784030348,None,1052.649890174158,None,1053.5832482441328,None,1.2497354497354498,0.6985958339646459,1053.5832482441328,None,,,,,,,,,,,,,,,,,157,001,2024_Jan_26_1708,SpeechDraft1Carolyn_lessNoise_PlusLocalization,2021.2.3,59.99281913312093,
,,,,,,,,nearRight,6.5,0,ch1Sound_localizationTask.wav,6.5,"(1047, 878)","(87, -202)",95,-338,,,,,,,,,1,6,13,4,,,,,,,,,,,,,,,,,,,,,,,,,,,,,,,,,,,,,,,,,,,,1054.2833824423142,None,1055.3833704679273,None,1056.316571135074,None,1.5671957671957673,1.1000155108049512,1056.316571135074,None,,,,,,,,,,,,,,,,,157,001,2024_Jan_26_1708,SpeechDraft1Carolyn_lessNoise_PlusLocalization,2021.2.3,59.99281913312093,
,,,,,,,,nearLeft,-6.5,1,ch1Sound_localizationTask.wav,-6.5,"(857, 878)","(-103,-202)",-95,-338,,,,,,,,,2,0,14,2,,,,,,,,,,,,,,,,,,,,,,,,,,,,,,,,,,,,,,,,,,,,1057.4176171701401,None,1058.5165090300143,None,1059.4500857042149,None,1.4576719576719577,0.6989993457682431,1059.4500857042149,None,,,,,,,,,,,,,,,,,157,001,2024_Jan_26_1708,SpeechDraft1Carolyn_lessNoise_PlusLocalization,2021.2.3,59.99281913312093,
,,,,,,,,midRight,13.0,3,ch1Sound_localizationTask.wav,13.0,"(1142, 878)","(182, -202)",190,-338,,,,,,,,,2,1,15,5,,,,,,,,,,,,,,,,,,,,,,,,,,,,,,,,,,,,,,,,,,,,1060.1501538301818,None,1061.249880531337,None,1062.183216350153,None,1.6873015873015873,0.6836929130367935,1062.183216350153,None,,,,,,,,,,,,,,,,,157,001,2024_Jan_26_1708,SpeechDraft1Carolyn_lessNoise_PlusLocalization,2021.2.3,59.99281913312093,
,,,,,,,,midLeft,-13.0,2,ch1Sound_localizationTask.wav,-13.0,"(762, 878)","(-198,-202)",-190,-338,,,,,,,,,2,2,16,1,,,,,,,,,,,,,,,,,,,,,,,,,,,,,,,,,,,,,,,,,,,,1062.883530789055,None,1063.9831914231181,None,1064.916576381307,None,1.3296296296296295,5.532061185222119,1064.916576381307,None,,,,,,,,,,,,,,,,,157,001,2024_Jan_26_1708,SpeechDraft1Carolyn_lessNoise_PlusLocalization,2021.2.3,59.99281913312093,
,,,,,,,,midLeft,-13.0,2,ch1Sound_localizationTask.wav,-13.0,"(762, 878)","(-198,-202)",-190,-338,,,,,,,,,2,3,17,1,,,,,,,,,,,,,,,,,,,,,,,,,,,,,,,,,,,,,,,,,,,,1070.4501725849696,None,1071.549962639343,None,1072.4832344879396,None,1.4116402116402116,0.6994707142002881,1072.4832344879396,None,,,,,,,,,,,,,,,,,157,001,2024_Jan_26_1708,SpeechDraft1Carolyn_lessNoise_PlusLocalization,2021.2.3,59.99281913312093,
,,,,,,,,nearRight,6.5,0,ch1Sound_localizationTask.wav,6.5,"(1047, 878)","(87, -202)",95,-338,,,,,,,,,2,4,18,4,,,,,,,,,,,,,,,,,,,,,,,,,,,,,,,,,,,,,,,,,,,,1073.1836818973534,None,1074.2832192480564,None,1075.2165713082068,None,1.5671957671957673,1.0003107278607786,1075.2165713082068,None,,,,,,,,,,,,,,,,,157,001,2024_Jan_26_1708,SpeechDraft1Carolyn_lessNoise_PlusLocalization,2021.2.3,59.99281913312093,
,,,,,,,,center,0.0,6,ch1Sound_localizationTask.wav,0.0,"(952, 878)","(-8,-202)",0,-338,,,,,,,,,2,5,19,3,,,,,,,,,,,,,,,,,,,,,,,,,,,,,,,,,,,,,,,,,,,,1076.233570001088,None,1077.3331892481074,None,1078.266472178977,None,1.4947089947089947,0.28345515998080373,1078.266472178977,None,,,,,,,,,,,,,,,,,157,001,2024_Jan_26_1708,SpeechDraft1Carolyn_lessNoise_PlusLocalization,2021.2.3,59.99281913312093,
,,,,,,,,center,0.0,6,ch1Sound_localizationTask.wav,0.0,"(952, 878)","(-8,-202)",0,-338,,,,,,,,,2,6,20,3,,,,,,,,,,,,,,,,,,,,,,,,,,,,,,,,,,,,,,,,,,,,1078.550268678926,None,1079.6497735800222,None,1080.5832358482294,None,1.4518518518518517,0.7155221840366721,1080.5832358482294,None,,,,,,,,,,,,,,,,,157,001,2024_Jan_26_1708,SpeechDraft1Carolyn_lessNoise_PlusLocalization,2021.2.3,59.99281913312093,
,,,,,,,,midRight,13.0,3,ch1Sound_localizationTask.wav,13.0,"(1142, 878)","(182, -202)",190,-338,,,,,,,,,3,0,21,5,,,,,,,,,,,,,,,,,,,,,,,,,,,,,,,,,,,,,,,,,,,,1081.30013110023,None,1082.3998812153004,None,1083.333280053921,None,1.6402116402116402,1.0332629433833063,1083.333280053921,None,,,,,,,,,,,,,,,,,157,001,2024_Jan_26_1708,SpeechDraft1Carolyn_lessNoise_PlusLocalization,2021.2.3,59.99281913312093,
,,,,,,,,nearRight,6.5,0,ch1Sound_localizationTask.wav,6.5,"(1047, 878)","(87, -202)",95,-338,,,,,,,,,3,1,22,4,,,,,,,,,,,,,,,,,,,,,,,,,,,,,,,,,,,,,,,,,,,,1084.367141473107,None,1085.4665479860269,None,1086.3999740211293,None,1.5037037037037035,0.6987149501219392,1086.3999740211293,None,,,,,,,,,,,,,,,,,157,001,2024_Jan_26_1708,SpeechDraft1Carolyn_lessNoise_PlusLocalization,2021.2.3,59.99281913312093,
,,,,,,,,farRight,19.1,4,ch1Sound_localizationTask.wav,19.1,"(1237, 878)","(277,-202)",285,-338,,,,,,,,,3,2,23,6,,,,,,,,,,,,,,,,,,,,,,,,,,,,,,,,,,,,,,,,,,,,1087.100179338362,None,1088.1999143622816,None,1089.1332436162047,None,1.7375661375661375,1.1489517712034285,1089.1332436162047,None,,,,,,,,,,,,,,,,,157,001,2024_Jan_26_1708,SpeechDraft1Carolyn_lessNoise_PlusLocalization,2021.2.3,59.99281913312093,
,,,,,,,,nearLeft,-6.5,1,ch1Sound_localizationTask.wav,-6.5,"(857, 878)","(-103,-202)",-95,-338,,,,,,,,,3,3,24,2,,,,,,,,,,,,,,,,,,,,,,,,,,,,,,,,,,,,,,,,,,,,1090.283540115226,None,1091.3832810022868,None,1092.3165112533607,None,1.3962962962962964,0.9337053480558097,1092.3165112533607,None,,,,,,,,,,,,,,,,,157,001,2024_Jan_26_1708,SpeechDraft1Carolyn_lessNoise_PlusLocalization,2021.2.3,59.99281913312093,
,,,,,,,,farRight,19.1,4,ch1Sound_localizationTask.wav,19.1,"(1237, 878)","(277,-202)",285,-338,,,,,,,,,3,4,25,6,,,,,,,,,,,,,,,,,,,,,,,,,,,,,,,,,,,,,,,,,,,,1093.2669695522636,None,1094.3665537601337,None,1095.299759554211,None,1.826984126984127,1.199331876821816,1095.299759554211,None,,,,,,,,,,,,,,,,,157,001,2024_Jan_26_1708,SpeechDraft1Carolyn_lessNoise_PlusLocalization,2021.2.3,59.99281913312093,
,,,,,,,,midRight,13.0,3,ch1Sound_localizationTask.wav,13.0,"(1142, 878)","(182, -202)",190,-338,,,,,,,,,3,5,26,5,,,,,,,,,,,,,,,,,,,,,,,,,,,,,,,,,,,,,,,,,,,,1096.500231913291,None,1097.5999593129382,None,1098.53326759208,None,1.655026455026455,0.7486778208985925,1098.53326759208,None,,,,,,,,,,,,,,,,,157,001,2024_Jan_26_1708,SpeechDraft1Carolyn_lessNoise_PlusLocalization,2021.2.3,59.99281913312093,
,,,,,,,,midLeft,-13.0,2,ch1Sound_localizationTask.wav,-13.0,"(762, 878)","(-198,-202)",-190,-338,,,,,,,,,3,6,27,1,,,,,,,,,,,,,,,,,,,,,,,,,,,,,,,,,,,,,,,,,,,,1099.283508114051,None,1100.3832685933448,None,1101.3166008312255,None,1.3338624338624339,1.2497185617685318,1101.3166008312255,None,,,,,,,,,,,,,,,,,157,001,2024_Jan_26_1708,SpeechDraft1Carolyn_lessNoise_PlusLocalization,2021.2.3,59.99281913312093,
,,,,,,,,midLeft,-13.0,2,ch1Sound_localizationTask.wav,-13.0,"(762, 878)","(-198,-202)",-190,-338,,,,,,,,,4,0,28,1,,,,,,,,,,,,,,,,,,,,,,,,,,,,,,,,,,,,,,,,,,,,1102.5668344730511,None,1103.666705171112,None,1104.6001387410797,None,1.2894179894179894,0.6669532069936395,1104.6001387410797,None,,,,,,,,,,,,,,,,,157,001,2024_Jan_26_1708,SpeechDraft1Carolyn_lessNoise_PlusLocalization,2021.2.3,59.99281913312093,
,,,,,,,,midRight,13.0,3,ch1Sound_localizationTask.wav,13.0,"(1142, 878)","(182, -202)",190,-338,,,,,,,,,4,1,29,5,,,,,,,,,,,,,,,,,,,,,,,,,,,,,,,,,,,,,,,,,,,,1105.2835424412042,None,1106.3832387672737,None,1107.3165943110362,None,1.5984126984126985,0.6343437000177801,1107.3165943110362,None,,,,,,,,,,,,,,,,,157,001,2024_Jan_26_1708,SpeechDraft1Carolyn_lessNoise_PlusLocalization,2021.2.3,59.99281913312093,
,,,,,,,,midRight,13.0,3,ch1Sound_localizationTask.wav,13.0,"(1142, 878)","(182, -202)",190,-338,,,,,,,,,4,2,30,5,,,,,,,,,,,,,,,,,,,,,,,,,,,,,,,,,,,,,,,,,,,,1107.9668822740205,None,1109.0666155759245,None,1109.9999145781621,None,1.5629629629629629,0.4509067493490875,1109.9999145781621,None,,,,,,,,,,,,,,,,,157,001,2024_Jan_26_1708,SpeechDraft1Carolyn_lessNoise_PlusLocalization,2021.2.3,59.99281913312093,
,,,,,,,,nearLeft,-6.5,1,ch1Sound_localizationTask.wav,-6.5,"(857, 878)","(-103,-202)",-95,-338,,,,,,,,,4,3,31,2,,,,,,,,,,,,,,,,,,,,,,,,,,,,,,,,,,,,,,,,,,,,1110.4669283810072,None,1111.5666343602352,None,1112.4998757462017,None,1.4402116402116403,0.5493437717668712,1112.4998757462017,None,,,,,,,,,,,,,,,,,157,001,2024_Jan_26_1708,SpeechDraft1Carolyn_lessNoise_PlusLocalization,2021.2.3,59.99281913312093,
,,,,,,,,midRight,13.0,3,ch1Sound_localizationTask.wav,13.0,"(1142, 878)","(182, -202)",190,-338,,,,,,,,,4,4,32,5,,,,,,,,,,,,,,,,,,,,,,,,,,,,,,,,,,,,,,,,,,,,1113.0502714482136,None,1114.149908027146,None,1115.0832149479538,None,1.6195767195767194,0.5986555991694331,1115.0832149479538,None,,,,,,,,,,,,,,,,,157,001,2024_Jan_26_1708,SpeechDraft1Carolyn_lessNoise_PlusLocalization,2021.2.3,59.99281913312093,
,,,,,,,,farLeft,-19.1,5,ch1Sound_localizationTask.wav,-19.1,"(667, 878)","(-293,-202)",-285,-338,,,,,,,,,4,5,33,0,,,,,,,,,,,,,,,,,,,,,,,,,,,,,,,,,,,,,,,,,,,,1115.6835654620081,None,1116.7833150452934,None,1117.7165795699693,None,1.2248677248677249,1.050364708993584,1117.7165795699693,None,,,,,,,,,,,,,,,,,157,001,2024_Jan_26_1708,SpeechDraft1Carolyn_lessNoise_PlusLocalization,2021.2.3,59.99281913312093,
,,,,,,,,farRight,19.1,4,ch1Sound_localizationTask.wav,19.1,"(1237, 878)","(277,-202)",285,-338,,,,,,,,,4,6,34,6,,,,,,,,,,,,,,,,,,,,,,,,,,,,,,,,,,,,,,,,,,,,1118.783590621315,None,1119.8833927651867,None,1120.8165042931214,None,1.726984126984127,1.1661373660899699,1120.8165042931214,None,,,,,,,,,,,,,,,,,157,001,2024_Jan_26_1708,SpeechDraft1Carolyn_lessNoise_PlusLocalization,2021.2.3,59.99281913312093,
,,,,,,,,midRight,13.0,3,ch1Sound_localizationTask.wav,13.0,"(1142, 878)","(182, -202)",190,-338,,,,,,,,,5,0,35,5,,,,,,,,,,,,,,,,,,,,,,,,,,,,,,,,,,,,,,,,,,,,1121.9834792842157,None,1123.0832761912607,None,1124.0167305469513,None,1.5708994708994708,0.9661327321082354,1124.0167305469513,None,,,,,,,,,,,,,,,,,157,001,2024_Jan_26_1708,SpeechDraft1Carolyn_lessNoise_PlusLocalization,2021.2.3,59.99281913312093,
,,,,,,,,nearRight,6.5,0,ch1Sound_localizationTask.wav,6.5,"(1047, 878)","(87, -202)",95,-338,,,,,,,,,5,1,36,4,,,,,,,,,,,,,,,,,,,,,,,,,,,,,,,,,,,,,,,,,,,,1124.9834885811433,None,1126.0833080192097,None,1127.016622165218,None,1.455026455026455,0.6667207800783217,1127.016622165218,None,,,,,,,,,,,,,,,,,157,001,2024_Jan_26_1708,SpeechDraft1Carolyn_lessNoise_PlusLocalization,2021.2.3,59.99281913312093,
,,,,,,,,farRight,19.1,4,ch1Sound_localizationTask.wav,19.1,"(1237, 878)","(277,-202)",285,-338,,,,,,,,,5,2,37,6,,,,,,,,,,,,,,,,,,,,,,,,,,,,,,,,,,,,,,,,,,,,1127.684150333982,None,1128.7832676633261,None,1129.716523033101,None,1.67989417989418,0.6326605193316936,1129.716523033101,None,,,,,,,,,,,,,,,,,157,001,2024_Jan_26_1708,SpeechDraft1Carolyn_lessNoise_PlusLocalization,2021.2.3,59.99281913312093,
,,,,,,,,nearLeft,-6.5,1,ch1Sound_localizationTask.wav,-6.5,"(857, 878)","(-103,-202)",-95,-338,,,,,,,,,5,3,38,2,,,,,,,,,,,,,,,,,,,,,,,,,,,,,,,,,,,,,,,,,,,,1130.3501992039382,None,1131.4498631320894,None,1132.383423232939,None,1.4068783068783068,0.5158846662379801,1132.383423232939,None,,,,,,,,,,,,,,,,,157,001,2024_Jan_26_1708,SpeechDraft1Carolyn_lessNoise_PlusLocalization,2021.2.3,59.99281913312093,
,,,,,,,,nearLeft,-6.5,1,ch1Sound_localizationTask.wav,-6.5,"(857, 878)","(-103,-202)",-95,-338,,,,,,,,,5,4,39,2,,,,,,,,,,,,,,,,,,,,,,,,,,,,,,,,,,,,,,,,,,,,1132.9002630091272,None,1134.0000554309227,None,1134.9334379900247,None,1.4142857142857141,0.5658185319043696,1134.9334379900247,None,,,,,,,,,,,,,,,,,157,001,2024_Jan_26_1708,SpeechDraft1Carolyn_lessNoise_PlusLocalization,2021.2.3,59.99281913312093,
,,,,,,,,nearRight,6.5,0,ch1Sound_localizationTask.wav,6.5,"(1047, 878)","(87, -202)",95,-338,,,,,,,,,5,5,40,4,,,,,,,,,,,,,,,,,,,,,,,,,,,,,,,,,,,,,,,,,,,,1135.5001457571052,None,1136.59996697912,None,1137.5333602102473,None,1.4957671957671956,0.4995729038491845,1137.5333602102473,None,,,,,,,,,,,,,,,,,157,001,2024_Jan_26_1708,SpeechDraft1Carolyn_lessNoise_PlusLocalization,2021.2.3,59.99281913312093,
,,,,,,,,midLeft,-13.0,2,ch1Sound_localizationTask.wav,-13.0,"(762, 878)","(-198,-202)",-190,-338,,,,,,,,,5,6,41,1,,,,,,,,,,,,,,,,,,,,,,,,,,,,,,,,,,,,,,,,,,,,1138.0339764873497,None,1139.1333139869384,None,1140.06666577328,None,1.3317460317460317,0.6658213967457414,1140.06666577328,None,,,,,,,,,,,,,,,,,157,001,2024_Jan_26_1708,SpeechDraft1Carolyn_lessNoise_PlusLocalization,2021.2.3,59.99281913312093,
,,,,,,,,midLeft,-13.0,2,ch1Sound_localizationTask.wav,-13.0,"(762, 878)","(-198,-202)",-190,-338,,,,,,,,,6,0,42,1,,,,,,,,,,,,,,,,,,,,,,,,,,,,,,,,,,,,,,,,,,,,1140.7335177003406,None,1141.8332818280905,None,1142.7666016169824,None,1.3396825396825398,0.5001709368079901,1142.7666016169824,None,,,,,,,,,,,,,,,,,157,001,2024_Jan_26_1708,SpeechDraft1Carolyn_lessNoise_PlusLocalization,2021.2.3,59.99281913312093,
,,,,,,,,nearLeft,-6.5,1,ch1Sound_localizationTask.wav,-6.5,"(857, 878)","(-103,-202)",-95,-338,,,,,,,,,6,1,43,2,,,,,,,,,,,,,,,,,,,,,,,,,,,,,,,,,,,,,,,,,,,,1143.2669747192413,None,1144.366616060026,None,1145.2999807843007,None,1.344973544973545,0.3822548999451101,1145.2999807843007,None,,,,,,,,,,,,,,,,,157,001,2024_Jan_26_1708,SpeechDraft1Carolyn_lessNoise_PlusLocalization,2021.2.3,59.99281913312093,
,,,,,,,,center,0.0,6,ch1Sound_localizationTask.wav,0.0,"(952, 878)","(-8,-202)",0,-338,,,,,,,,,6,2,44,3,,,,,,,,,,,,,,,,,,,,,,,,,,,,,,,,,,,,,,,,,,,,1145.6836029672995,None,1146.7833342542872,None,1147.7167707900517,None,1.4566137566137567,0.2986596757546067,1147.7167707900517,None,,,,,,,,,,,,,,,,,157,001,2024_Jan_26_1708,SpeechDraft1Carolyn_lessNoise_PlusLocalization,2021.2.3,59.99281913312093,
,,,,,,,,center,0.0,6,ch1Sound_localizationTask.wav,0.0,"(952, 878)","(-8,-202)",0,-338,,,,,,,,,6,3,45,3,,,,,,,,,,,,,,,,,,,,,,,,,,,,,,,,,,,,,,,,,,,,1148.0169234569184,None,1149.1165919271298,None,1150.0499590472318,None,1.4010582010582011,0.41622279584407806,1150.0499590472318,None,,,,,,,,,,,,,,,,,157,001,2024_Jan_26_1708,SpeechDraft1Carolyn_lessNoise_PlusLocalization,2021.2.3,59.99281913312093,
,,,,,,,,nearRight,6.5,0,ch1Sound_localizationTask.wav,6.5,"(1047, 878)","(87, -202)",95,-338,,,,,,,,,6,4,46,4,,,,,,,,,,,,,,,,,,,,,,,,,,,,,,,,,,,,,,,,,,,,1150.4670396451838,None,1151.566631341353,None,1152.5000646440312,None,1.5349206349206348,0.5820524790324271,1152.5000646440312,None,,,,,,,,,,,,,,,,,157,001,2024_Jan_26_1708,SpeechDraft1Carolyn_lessNoise_PlusLocalization,2021.2.3,59.99281913312093,
,,,,,,,,center,0.0,6,ch1Sound_localizationTask.wav,0.0,"(952, 878)","(-8,-202)",0,-338,,,,,,,,,6,5,47,3,,,,,,,,,,,,,,,,,,,,,,,,,,,,,,,,,,,,,,,,,,,,1153.0836678212509,None,1154.1833646232262,None,1155.1165809743106,None,1.4407407407407407,0.4001779090613127,1155.1165809743106,None,,,,,,,,,,,,,,,,,157,001,2024_Jan_26_1708,SpeechDraft1Carolyn_lessNoise_PlusLocalization,2021.2.3,59.99281913312093,
,,,,,,,,midRight,13.0,3,ch1Sound_localizationTask.wav,13.0,"(1142, 878)","(182, -202)",190,-338,,,,,,,,,6,6,48,5,,,,,,,,,,,,,,,,,,,,,,,,,,,,,,,,,,,,,,,,,,,,1155.5170116629452,None,1156.6166684511118,None,1157.5499663571827,None,1.5957671957671957,0.6817604429088533,1157.5499663571827,None,,,,,,,,,,,,,,,,,157,001,2024_Jan_26_1708,SpeechDraft1Carolyn_lessNoise_PlusLocalization,2021.2.3,59.99281913312093,
,,,,,,,,farRight,19.1,4,ch1Sound_localizationTask.wav,19.1,"(1237, 878)","(277,-202)",285,-338,,,,,,,,,7,0,49,6,,,,,,,,,,,,,,,,,,,,,,,,,,,,,,,,,,,,,,,,,,,,1158.2337227640674,None,1159.3333494169638,None,1160.2665694649331,None,1.7142857142857144,0.8666610019281507,1160.2665694649331,None,,,,,,,,,,,,,,,,,157,001,2024_Jan_26_1708,SpeechDraft1Carolyn_lessNoise_PlusLocalization,2021.2.3,59.99281913312093,
,,,,,,,,nearRight,6.5,0,ch1Sound_localizationTask.wav,6.5,"(1047, 878)","(87, -202)",95,-338,,,,,,,,,7,1,50,4,,,,,,,,,,,,,,,,,,,,,,,,,,,,,,,,,,,,,,,,,,,,1161.1502821771428,None,1162.2498973160982,None,1163.1833974462934,None,1.4375661375661375,0.5993013042025268,1163.1833974462934,None,,,,,,,,,,,,,,,,,157,001,2024_Jan_26_1708,SpeechDraft1Carolyn_lessNoise_PlusLocalization,2021.2.3,59.99281913312093,
,,,,,,,,farRight,19.1,4,ch1Sound_localizationTask.wav,19.1,"(1237, 878)","(277,-202)",285,-338,,,,,,,,,7,2,51,6,,,,,,,,,,,,,,,,,,,,,,,,,,,,,,,,,,,,,,,,,,,,1163.7836107420735,None,1164.883240134921,None,1165.8167470232584,None,1.7497354497354498,1.0001220908015966,1165.8167470232584,None,,,,,,,,,,,,,,,,,157,001,2024_Jan_26_1708,SpeechDraft1Carolyn_lessNoise_PlusLocalization,2021.2.3,59.99281913312093,
,,,,,,,,farRight,19.1,4,ch1Sound_localizationTask.wav,19.1,"(1237, 878)","(277,-202)",285,-338,,,,,,,,,7,3,52,6,,,,,,,,,,,,,,,,,,,,,,,,,,,,,,,,,,,,,,,,,,,,1166.833626893349,None,1167.933319160249,None,1168.8665886842646,None,1.6095238095238096,0.5821416480466723,1168.8665886842646,None,,,,,,,,,,,,,,,,,157,001,2024_Jan_26_1708,SpeechDraft1Carolyn_lessNoise_PlusLocalization,2021.2.3,59.99281913312093,
,,,,,,,,farRight,19.1,4,ch1Sound_localizationTask.wav,19.1,"(1237, 878)","(277,-202)",285,-338,,,,,,,,,7,4,53,6,,,,,,,,,,,,,,,,,,,,,,,,,,,,,,,,,,,,,,,,,,,,1169.4502865979448,None,1170.5501061459072,None,1171.483273926191,None,1.8105820105820105,1.5667503029108047,1171.483273926191,None,,,,,,,,,,,,,,,,,157,001,2024_Jan_26_1708,SpeechDraft1Carolyn_lessNoise_PlusLocalization,2021.2.3,59.99281913312093,
,,,,,,,,farLeft,-19.1,5,ch1Sound_localizationTask.wav,-19.1,"(667, 878)","(-293,-202)",-285,-338,,,,,,,,,7,5,54,0,,,,,,,,,,,,,,,,,,,,,,,,,,,,,,,,,,,,,,,,,,,,1173.0669232863002,None,1174.166752009187,None,1175.099921097979,None,1.2190476190476192,1.065781993791461,1175.099921097979,None,,,,,,,,,,,,,,,,,157,001,2024_Jan_26_1708,SpeechDraft1Carolyn_lessNoise_PlusLocalization,2021.2.3,59.99281913312093,
,,,,,,,,nearLeft,-6.5,1,ch1Sound_localizationTask.wav,-6.5,"(857, 878)","(-103,-202)",-95,-338,,,,,,,,,7,6,55,2,,,,,,,,,,,,,,,,,,,,,,,,,,,,,,,,,,,,,,,,,,,,1176.1670268452726,None,1177.2666543801315,None,1178.1999807693064,None,1.3465608465608465,0.4486021497286856,1178.1999807693064,None,,,,,,,,,,,,,,,,,157,001,2024_Jan_26_1708,SpeechDraft1Carolyn_lessNoise_PlusLocalization,2021.2.3,59.99281913312093,
,,,,,,,,,,,,,,,,,,,,,,,,,,,,,,,,,,,,,,,,,,,,,,,,,,,,,,,,,,,,,,,,,,,,,,,,,,,,,,,,,,space,10.830696416087449,1178.733661416918,None,,,,,,,,,,,,,157,001,2024_Jan_26_1708,SpeechDraft1Carolyn_lessNoise_PlusLocalization,2021.2.3,59.99281913312093,
,,,,,,,,midRight,13.0,3,ch1Sound_localizationTask.wav,13.0,"(1142, 878)","(182, -202)",190,-338,,,,,,,,,,,,,0,0,0,5,,,,,,,,,,,,,,,,,,,,,,,,,,,,,,,,,,,,,,,,1189.600102569908,None,,,1192.617887143977,None,1.5973544973544973,1.687539936043322,1192.617887143977,None,,,,,1178.733661416918,None,1190.6004486070015,None,1190.78377739992,1190.8003697423264,,,,,,,157,001,2024_Jan_26_1708,SpeechDraft1Carolyn_lessNoise_PlusLocalization,2021.2.3,59.99281913312093,
,,,,,,,,midRight,13.0,3,ch1Sound_localizationTask.wav,13.0,"(1142, 878)","(182, -202)",190,-338,,,,,,,,,,,,,0,1,1,5,,,,,,,,,,,,,,,,,,,,,,,,,,,,,,,,,,,,,,,,1194.316994864028,None,,,1197.333393320907,None,1.6285714285714286,0.49948910903185606,1197.333393320907,None,,,,,,,1195.3171286131255,None,1195.5004477510229,1195.5169464503415,,,,,,,157,001,2024_Jan_26_1708,SpeechDraft1Carolyn_lessNoise_PlusLocalization,2021.2.3,59.99281913312093,
,,,,,,,,nearLeft,-6.5,1,ch1Sound_localizationTask.wav,-6.5,"(857, 878)","(-103,-202)",-95,-338,,,,,,,,,,,,,0,2,2,2,,,,,,,,,,,,,,,,,,,,,,,,,,,,,,,,,,,,,,,,1197.8336164960638,None,,,1200.8503555422649,None,1.4465608465608466,0.7817521118558943,1200.8503555422649,None,,,,,,,1198.8337462530471,None,1199.0169707513414,1199.0337805459276,,,,,,,157,001,2024_Jan_26_1708,SpeechDraft1Carolyn_lessNoise_PlusLocalization,2021.2.3,59.99281913312093,
,,,,,,,,nearRight,6.5,0,ch1Sound_localizationTask.wav,6.5,"(1047, 878)","(87, -202)",95,-338,,,,,,,,,,,,,0,3,3,4,,,,,,,,,,,,,,,,,,,,,,,,,,,,,,,,,,,,,,,,1201.6336772921495,None,,,1204.6500289561227,None,1.5534391534391534,0.532866582274437,1204.6500289561227,None,,,,,,,1202.6336416052654,None,1202.81708050007,1202.833625789266,,,,,,,157,001,2024_Jan_26_1708,SpeechDraft1Carolyn_lessNoise_PlusLocalization,2021.2.3,59.99281913312093,
,,,,,,,,farLeft,-19.1,5,ch1Sound_localizationTask.wav,-19.1,"(667, 878)","(-293,-202)",-285,-338,,,,,,,,,,,,,0,4,4,0,,,,,,,,,,,,,,,,,,,,,,,,,,,,,,,,,,,,,,,,1205.1835651979782,None,,,1208.200034784153,None,1.3417989417989418,0.04860431794077158,1208.200034784153,None,,,,,,,1206.1836739429273,None,1206.366929539945,1206.3836893863045,,,,,,,157,001,2024_Jan_26_1708,SpeechDraft1Carolyn_lessNoise_PlusLocalization,2021.2.3,59.99281913312093,
,,,,,,,,midLeft,-13.0,2,ch1Sound_localizationTask.wav,-13.0,"(762, 878)","(-198,-202)",-190,-338,,,,,,,,,,,,,0,5,5,1,,,,,,,,,,,,,,,,,,,,,,,,,,,,,,,,,,,,,,,,1208.250283850357,None,,,1211.266804749146,None,1.3820105820105821,0.493785098195076,1211.266804749146,None,,,,,,,1209.2503479793668,None,1209.433600707911,1209.4503529462963,,,,,,,157,001,2024_Jan_26_1708,SpeechDraft1Carolyn_lessNoise_PlusLocalization,2021.2.3,59.99281913312093,
,,,,,,,,midLeft,-13.0,2,ch1Sound_localizationTask.wav,-13.0,"(762, 878)","(-198,-202)",-190,-338,,,,,,,,,,,,,0,6,6,1,,,,,,,,,,,,,,,,,,,,,,,,,,,,,,,,,,,,,,,,1211.7670000120997,None,,,1214.7834997233003,None,1.3830687830687831,0.3162358575500548,1214.7834997233003,None,,,,,,,1212.7669638800435,None,1212.9502632813528,1212.9669577879831,,,,,,,157,001,2024_Jan_26_1708,SpeechDraft1Carolyn_lessNoise_PlusLocalization,2021.2.3,59.99281913312093,
,,,,,,,,center,0.0,6,ch1Sound_localizationTask.wav,0.0,"(952, 878)","(-8,-202)",0,-338,,,,,,,,,,,,,1,0,7,3,,,,,,,,,,,,,,,,,,,,,,,,,,,,,,,,,,,,,,,,1215.1004049163312,None,,,1218.116750658024,None,1.4883597883597883,1.3661008700728416,1218.116750658024,None,,,,,,,1216.1002519433387,None,1216.2837997023016,1216.3002715581097,,,,,,,157,001,2024_Jan_26_1708,SpeechDraft1Carolyn_lessNoise_PlusLocalization,2021.2.3,59.99281913312093,
,,,,,,,,center,0.0,6,ch1Sound_localizationTask.wav,0.0,"(952, 878)","(-8,-202)",0,-338,,,,,,,,,,,,,1,1,8,3,,,,,,,,,,,,,,,,,,,,,,,,,,,,,,,,,,,,,,,,1219.4835796682164,None,,,1222.5000460552983,None,1.4936507936507937,1.2662616185843945,1222.5000460552983,None,,,,,,,1220.4836876490153,None,1220.6670079622418,1220.6836703503504,,,,,,,157,001,2024_Jan_26_1708,SpeechDraft1Carolyn_lessNoise_PlusLocalization,2021.2.3,59.99281913312093,
,,,,,,,,midLeft,-13.0,2,ch1Sound_localizationTask.wav,-13.0,"(762, 878)","(-198,-202)",-190,-338,,,,,,,,,,,,,1,2,9,1,,,,,,,,,,,,,,,,,,,,,,,,,,,,,,,,,,,,,,,,1223.767156935297,None,,,1226.7834179429337,None,1.3957671957671958,1.2649545352905989,1226.7834179429337,None,,,,,,,1224.766970261,None,1224.9503719443455,1224.9669387750328,,,,,,,157,001,2024_Jan_26_1708,SpeechDraft1Carolyn_lessNoise_PlusLocalization,2021.2.3,59.99281913312093,
,,,,,,,,center,0.0,6,ch1Sound_localizationTask.wav,0.0,"(952, 878)","(-8,-202)",0,-338,,,,,,,,,,,,,1,3,10,3,,,,,,,,,,,,,,,,,,,,,,,,,,,,,,,,,,,,,,,,1228.0504272971302,None,,,1231.0670560803264,None,1.4962962962962962,1.3447120375931263,1231.0670560803264,None,,,,,,,1229.0502717122436,None,1229.2338201170787,1229.2503052731045,,,,,,,157,001,2024_Jan_26_1708,SpeechDraft1Carolyn_lessNoise_PlusLocalization,2021.2.3,59.99281913312093,
,,,,,,,,center,0.0,6,ch1Sound_localizationTask.wav,0.0,"(952, 878)","(-8,-202)",0,-338,,,,,,,,,,,,,1,4,11,3,,,,,,,,,,,,,,,,,,,,,,,,,,,,,,,,,,,,,,,,1232.4170426139608,None,,,1235.4334845221601,None,1.5015873015873016,0.7987172221764922,1235.4334845221601,None,,,,,,,1233.4171188822947,None,1233.6003799010068,1233.6172389839776,,,,,,,157,001,2024_Jan_26_1708,SpeechDraft1Carolyn_lessNoise_PlusLocalization,2021.2.3,59.99281913312093,
,,,,,,,,midLeft,-13.0,2,ch1Sound_localizationTask.wav,-13.0,"(762, 878)","(-198,-202)",-190,-338,,,,,,,,,,,,,1,5,12,1,,,,,,,,,,,,,,,,,,,,,,,,,,,,,,,,,,,,,,,,1236.2337270122953,None,,,1239.2501749242656,None,1.380952380952381,0.6835686042904854,1239.2501749242656,None,,,,,,,1237.2338797231205,None,1237.4170452291146,1237.4336658981629,,,,,,,157,001,2024_Jan_26_1708,SpeechDraft1Carolyn_lessNoise_PlusLocalization,2021.2.3,59.99281913312093,
,,,,,,,,midRight,13.0,3,ch1Sound_localizationTask.wav,13.0,"(1142, 878)","(182, -202)",190,-338,,,,,,,,,,,,,1,6,13,5,,,,,,,,,,,,,,,,,,,,,,,,,,,,,,,,,,,,,,,,1239.9343173080124,None,,,1242.9500597543083,None,1.597883597883598,1.081938663031906,1242.9500597543083,None,,,,,,,1240.933786942158,None,1241.1170877702534,1241.1337195821106,,,,,,,157,001,2024_Jan_26_1708,SpeechDraft1Carolyn_lessNoise_PlusLocalization,2021.2.3,59.99281913312093,
,,,,,,,,midRight,13.0,3,ch1Sound_localizationTask.wav,13.0,"(1142, 878)","(182, -202)",190,-338,,,,,,,,,,,,,2,0,14,5,,,,,,,,,,,,,,,,,,,,,,,,,,,,,,,,,,,,,,,,1244.0337493782863,None,,,1247.0501597020775,None,1.602116402116402,0.9168219198472798,1247.0501597020775,None,,,,,,,1245.0338210822083,None,1245.2171475333162,1245.2337461272255,,,,,,,157,001,2024_Jan_26_1708,SpeechDraft1Carolyn_lessNoise_PlusLocalization,2021.2.3,59.99281913312093,
,,,,,,,,nearRight,6.5,0,ch1Sound_localizationTask.wav,6.5,"(1047, 878)","(87, -202)",95,-338,,,,,,,,,,,,,2,1,15,4,,,,,,,,,,,,,,,,,,,,,,,,,,,,,,,,,,,,,,,,1247.968341193162,None,,,1251.000209562946,None,1.5333333333333332,0.8995129489339888,1251.000209562946,None,,,,,,,1248.9836605112068,None,1249.167051371187,1249.1836770293303,,,,,,,157,001,2024_Jan_26_1708,SpeechDraft1Carolyn_lessNoise_PlusLocalization,2021.2.3,59.99281913312093,
,,,,,,,,farLeft,-19.1,5,ch1Sound_localizationTask.wav,-19.1,"(667, 878)","(-293,-202)",-285,-338,,,,,,,,,,,,,2,2,16,0,,,,,,,,,,,,,,,,,,,,,,,,,,,,,,,,,,,,,,,,1251.9004382323474,None,,,1254.9168150261976,None,1.3211640211640212,1.3327880878932774,1254.9168150261976,None,,,,,,,1252.9004192943685,None,1253.083847944159,1253.100450605154,,,,,,,157,001,2024_Jan_26_1708,SpeechDraft1Carolyn_lessNoise_PlusLocalization,2021.2.3,59.99281913312093,
,,,,,,,,nearLeft,-6.5,1,ch1Sound_localizationTask.wav,-6.5,"(857, 878)","(-103,-202)",-95,-338,,,,,,,,,,,,,2,3,17,2,,,,,,,,,,,,,,,,,,,,,,,,,,,,,,,,,,,,,,,,1256.2512165810913,None,,,1259.2667834390886,None,1.46984126984127,0.6482732640579343,1259.2667834390886,None,,,,,,,1257.250367637258,None,1257.4336851979606,1257.4503814191557,,,,,,,157,001,2024_Jan_26_1708,SpeechDraft1Carolyn_lessNoise_PlusLocalization,2021.2.3,59.99281913312093,
,,,,,,,,center,0.0,6,ch1Sound_localizationTask.wav,0.0,"(952, 878)","(-8,-202)",0,-338,,,,,,,,,,,,,2,4,18,3,,,,,,,,,,,,,,,,,,,,,,,,,,,,,,,,,,,,,,,,1259.9171121171676,None,,,1262.9334789151326,None,1.4994708994708994,0.6159053170122206,1262.9334789151326,None,,,,,,,1260.9171117292717,None,1261.100404383149,1261.1171387173235,,,,,,,157,001,2024_Jan_26_1708,SpeechDraft1Carolyn_lessNoise_PlusLocalization,2021.2.3,59.99281913312093,
,,,,,,,,farLeft,-19.1,5,ch1Sound_localizationTask.wav,-19.1,"(667, 878)","(-293,-202)",-285,-338,,,,,,,,,,,,,2,5,19,0,,,,,,,,,,,,,,,,,,,,,,,,,,,,,,,,,,,,,,,,1263.5504930461757,None,,,1266.5668290732428,None,1.2947089947089947,0.9314627991989255,1266.5668290732428,None,,,,,,,1264.5505207963288,None,1264.733847963158,1264.750520993024,,,,,,,157,001,2024_Jan_26_1708,SpeechDraft1Carolyn_lessNoise_PlusLocalization,2021.2.3,59.99281913312093,
,,,,,,,,midRight,13.0,3,ch1Sound_localizationTask.wav,13.0,"(1142, 878)","(182, -202)",190,-338,,,,,,,,,,,,,2,6,20,5,,,,,,,,,,,,,,,,,,,,,,,,,,,,,,,,,,,,,,,,1267.5004703751765,None,,,1270.516834068112,None,1.6015873015873017,1.099333954975009,1270.516834068112,None,,,,,,,1268.5003082132898,None,1268.6837828429416,1268.7003840780817,,,,,,,157,001,2024_Jan_26_1708,SpeechDraft1Carolyn_lessNoise_PlusLocalization,2021.2.3,59.99281913312093,
,,,,,,,,farRight,19.1,4,ch1Sound_localizationTask.wav,19.1,"(1237, 878)","(277,-202)",285,-338,,,,,,,,,,,,,3,0,21,6,,,,,,,,,,,,,,,,,,,,,,,,,,,,,,,,,,,,,,,,1271.6171444049105,None,,,1274.6335958163254,None,1.6465608465608466,0.949298997875303,1274.6335958163254,None,,,,,,,1272.6172035229392,None,1272.800508776214,1272.8171609933488,,,,,,,157,001,2024_Jan_26_1708,SpeechDraft1Carolyn_lessNoise_PlusLocalization,2021.2.3,59.99281913312093,
,,,,,,,,center,0.0,6,ch1Sound_localizationTask.wav,0.0,"(952, 878)","(-8,-202)",0,-338,,,,,,,,,,,,,3,1,22,3,,,,,,,,,,,,,,,,,,,,,,,,,,,,,,,,,,,,,,,,1275.583804572001,None,,,1278.6002255789936,None,1.5010582010582012,1.0820261859335005,1278.6002255789936,None,,,,,,,1276.5836849720217,None,1276.7669648821466,1276.7837053602561,,,,,,,157,001,2024_Jan_26_1708,SpeechDraft1Carolyn_lessNoise_PlusLocalization,2021.2.3,59.99281913312093,
,,,,,,,,midRight,13.0,3,ch1Sound_localizationTask.wav,13.0,"(1142, 878)","(182, -202)",190,-338,,,,,,,,,,,,,3,2,23,5,,,,,,,,,,,,,,,,,,,,,,,,,,,,,,,,,,,,,,,,1279.6837822631933,None,,,1282.7001524521038,None,1.6116402116402115,0.9663278278894722,1282.7001524521038,None,,,,,,,1280.6837927373126,None,1280.8670736080967,1280.8838530122302,,,,,,,157,001,2024_Jan_26_1708,SpeechDraft1Carolyn_lessNoise_PlusLocalization,2021.2.3,59.99281913312093,
,,,,,,,,center,0.0,6,ch1Sound_localizationTask.wav,0.0,"(952, 878)","(-8,-202)",0,-338,,,,,,,,,,,,,3,3,24,3,,,,,,,,,,,,,,,,,,,,,,,,,,,,,,,,,,,,,,,,1283.667179601267,None,,,1286.6835729172453,None,1.4862433862433861,0.9313477012328804,1286.6835729172453,None,,,,,,,1284.6671651853248,None,1284.8504179120064,1284.867129819002,,,,,,,157,001,2024_Jan_26_1708,SpeechDraft1Carolyn_lessNoise_PlusLocalization,2021.2.3,59.99281913312093,
,,,,,,,,nearLeft,-6.5,1,ch1Sound_localizationTask.wav,-6.5,"(857, 878)","(-103,-202)",-95,-338,,,,,,,,,,,,,3,4,25,2,,,,,,,,,,,,,,,,,,,,,,,,,,,,,,,,,,,,,,,,1287.6170933330432,None,,,1290.6335731102154,None,1.4423280423280422,0.6989670149050653,1290.6335731102154,None,,,,,,,1288.6171312863007,None,1288.8004852291197,1288.8171559190378,,,,,,,157,001,2024_Jan_26_1708,SpeechDraft1Carolyn_lessNoise_PlusLocalization,2021.2.3,59.99281913312093,
,,,,,,,,midLeft,-13.0,2,ch1Sound_localizationTask.wav,-13.0,"(762, 878)","(-198,-202)",-190,-338,,,,,,,,,,,,,3,5,26,1,,,,,,,,,,,,,,,,,,,,,,,,,,,,,,,,,,,,,,,,1291.3339092982933,None,,,1294.3502344340086,None,1.3994708994708995,1.7321745343506336,1294.3502344340086,None,,,,,,,1292.3339293901809,None,1292.51709184004,1292.533941918984,,,,,,,157,001,2024_Jan_26_1708,SpeechDraft1Carolyn_lessNoise_PlusLocalization,2021.2.3,59.99281913312093,
,,,,,,,,nearRight,6.5,0,ch1Sound_localizationTask.wav,6.5,"(1047, 878)","(87, -202)",95,-338,,,,,,,,,,,,,3,6,27,4,,,,,,,,,,,,,,,,,,,,,,,,,,,,,,,,,,,,,,,,1296.0839160662144,None,,,1299.1000762833282,None,1.5693121693121692,0.7830455917865038,1299.1000762833282,None,,,,,,,1297.083833354991,None,1297.2672436730936,1297.2838332229294,,,,,,,157,001,2024_Jan_26_1708,SpeechDraft1Carolyn_lessNoise_PlusLocalization,2021.2.3,59.99281913312093,
,,,,,,,,nearLeft,-6.5,1,ch1Sound_localizationTask.wav,-6.5,"(857, 878)","(-103,-202)",-95,-338,,,,,,,,,,,,,4,0,28,2,,,,,,,,,,,,,,,,,,,,,,,,,,,,,,,,,,,,,,,,1299.8841297039762,None,,,1302.9000918599777,None,1.4328042328042327,0.8827176899649203,1302.9000918599777,None,,,,,,,1300.883728321176,None,1301.0672312579118,1301.0837338441052,,,,,,,157,001,2024_Jan_26_1708,SpeechDraft1Carolyn_lessNoise_PlusLocalization,2021.2.3,59.99281913312093,
,,,,,,,,farRight,19.1,4,ch1Sound_localizationTask.wav,19.1,"(1237, 878)","(277,-202)",285,-338,,,,,,,,,,,,,4,1,29,6,,,,,,,,,,,,,,,,,,,,,,,,,,,,,,,,,,,,,,,,1303.783813165035,None,,,1306.8001285120845,None,1.6634920634920634,0.9502314263954759,1306.8001285120845,None,,,,,,,1304.7837620032951,None,1304.9671554719098,1304.9837619331665,,,,,,,157,001,2024_Jan_26_1708,SpeechDraft1Carolyn_lessNoise_PlusLocalization,2021.2.3,59.99281913312093,
,,,,,,,,nearLeft,-6.5,1,ch1Sound_localizationTask.wav,-6.5,"(857, 878)","(-103,-202)",-95,-338,,,,,,,,,,,,,4,2,30,2,,,,,,,,,,,,,,,,,,,,,,,,,,,,,,,,,,,,,,,,1307.7671867851168,None,,,1310.7834760542028,None,1.4476190476190476,1.1995311467908323,1310.7834760542028,None,,,,,,,1308.7670172043145,None,1308.950418266002,1308.967155917082,,,,,,,157,001,2024_Jan_26_1708,SpeechDraft1Carolyn_lessNoise_PlusLocalization,2021.2.3,59.99281913312093,
,,,,,,,,farLeft,-19.1,5,ch1Sound_localizationTask.wav,-19.1,"(667, 878)","(-293,-202)",-285,-338,,,,,,,,,,,,,4,3,31,0,,,,,,,,,,,,,,,,,,,,,,,,,,,,,,,,,,,,,,,,1311.9838172919117,None,,,1315.000193642918,None,1.344973544973545,1.2157782800495625,1315.000193642918,None,,,,,,,1312.9838245832361,None,1313.167213424109,1313.1838611881249,,,,,,,157,001,2024_Jan_26_1708,SpeechDraft1Carolyn_lessNoise_PlusLocalization,2021.2.3,59.99281913312093,
,,,,,,,,farLeft,-19.1,5,ch1Sound_localizationTask.wav,-19.1,"(667, 878)","(-293,-202)",-285,-338,,,,,,,,,,,,,4,4,32,0,,,,,,,,,,,,,,,,,,,,,,,,,,,,,,,,,,,,,,,,1316.2174983541481,None,,,1319.2335033300333,None,1.3571428571428572,0.5498485136777163,1319.2335033300333,None,,,,,,,1317.2172236330807,None,1317.4005775251426,1317.417135507334,,,,,,,157,001,2024_Jan_26_1708,SpeechDraft1Carolyn_lessNoise_PlusLocalization,2021.2.3,59.99281913312093,
,,,,,,,,midRight,13.0,3,ch1Sound_localizationTask.wav,13.0,"(1142, 878)","(182, -202)",190,-338,,,,,,,,,,,,,4,5,33,5,,,,,,,,,,,,,,,,,,,,,,,,,,,,,,,,,,,,,,,,1319.7839788771234,None,,,1322.800210771151,None,1.6201058201058203,0.6160831926390529,1322.800210771151,None,,,,,,,1320.7838894259185,None,1320.9672746700235,1320.984107506927,,,,,,,157,001,2024_Jan_26_1708,SpeechDraft1Carolyn_lessNoise_PlusLocalization,2021.2.3,59.99281913312093,
,,,,,,,,farLeft,-19.1,5,ch1Sound_localizationTask.wav,-19.1,"(667, 878)","(-293,-202)",-285,-338,,,,,,,,,,,,,4,6,34,0,,,,,,,,,,,,,,,,,,,,,,,,,,,,,,,,,,,,,,,,1323.4171280260198,None,,,1326.43343910994,None,1.353968253968254,1.8325997241772711,1326.43343910994,None,,,,,,,1324.4172304570675,None,1324.600539288018,1324.6172202671878,,,,,,,157,001,2024_Jan_26_1708,SpeechDraft1Carolyn_lessNoise_PlusLocalization,2021.2.3,59.99281913312093,
,,,,,,,,midLeft,-13.0,2,ch1Sound_localizationTask.wav,-13.0,"(762, 878)","(-198,-202)",-190,-338,,,,,,,,,,,,,5,0,35,1,,,,,,,,,,,,,,,,,,,,,,,,,,,,,,,,,,,,,,,,1328.2673180652782,None,,,1331.2834738893434,None,1.41005291005291,0.7982443552464247,1331.2834738893434,None,,,,,,,1329.2671700003557,None,1329.450457775034,1329.467242938932,,,,,,,157,001,2024_Jan_26_1708,SpeechDraft1Carolyn_lessNoise_PlusLocalization,2021.2.3,59.99281913312093,
,,,,,,,,farRight,19.1,4,ch1Sound_localizationTask.wav,19.1,"(1237, 878)","(277,-202)",285,-338,,,,,,,,,,,,,5,1,36,6,,,,,,,,,,,,,,,,,,,,,,,,,,,,,,,,,,,,,,,,1332.0838397513144,None,,,1335.100240507163,None,1.6608465608465608,1.1329359742812812,1335.100240507163,None,,,,,,,1333.0838849171996,None,1333.267174826935,1333.2839297633618,,,,,,,157,001,2024_Jan_26_1708,SpeechDraft1Carolyn_lessNoise_PlusLocalization,2021.2.3,59.99281913312093,
,,,,,,,,nearRight,6.5,0,ch1Sound_localizationTask.wav,6.5,"(1047, 878)","(87, -202)",95,-338,,,,,,,,,,,,,5,2,37,4,,,,,,,,,,,,,,,,,,,,,,,,,,,,,,,,,,,,,,,,1336.2339176689275,None,,,1339.2500907881185,None,1.5322751322751322,0.998430707026273,1339.2500907881185,None,,,,,,,1337.2339563723654,None,1337.4171619270928,1337.4338576062582,,,,,,,157,001,2024_Jan_26_1708,SpeechDraft1Carolyn_lessNoise_PlusLocalization,2021.2.3,59.99281913312093,
,,,,,,,,nearRight,6.5,0,ch1Sound_localizationTask.wav,6.5,"(1047, 878)","(87, -202)",95,-338,,,,,,,,,,,,,5,3,38,4,,,,,,,,,,,,,,,,,,,,,,,,,,,,,,,,,,,,,,,,1340.2505549723282,None,,,1343.2670366782695,None,1.5269841269841269,0.7323015877045691,1343.2670366782695,None,,,,,,,1341.2504997500218,None,1341.4339975710027,1341.4506035731174,,,,,,,157,001,2024_Jan_26_1708,SpeechDraft1Carolyn_lessNoise_PlusLocalization,2021.2.3,59.99281913312093,
,,,,,,,,nearLeft,-6.5,1,ch1Sound_localizationTask.wav,-6.5,"(857, 878)","(-103,-202)",-95,-338,,,,,,,,,,,,,5,4,39,2,,,,,,,,,,,,,,,,,,,,,,,,,,,,,,,,,,,,,,,,1344.0005588103086,None,,,1347.0169132272713,None,1.4370370370370371,0.7494268016889691,1347.0169132272713,None,,,,,,,1345.0006067650393,None,1345.1839655162767,1345.2005542009138,,,,,,,157,001,2024_Jan_26_1708,SpeechDraft1Carolyn_lessNoise_PlusLocalization,2021.2.3,59.99281913312093,
,,,,,,,,nearLeft,-6.5,1,ch1Sound_localizationTask.wav,-6.5,"(857, 878)","(-103,-202)",-95,-338,,,,,,,,,,,,,5,5,40,2,,,,,,,,,,,,,,,,,,,,,,,,,,,,,,,,,,,,,,,,1347.76719716331,None,,,1350.7837097719312,None,1.4703703703703703,0.5163716706447303,1350.7837097719312,None,,,,,,,1348.7671925621107,None,1348.9505049851723,1348.9672113442793,,,,,,,157,001,2024_Jan_26_1708,SpeechDraft1Carolyn_lessNoise_PlusLocalization,2021.2.3,59.99281913312093,
,,,,,,,,midRight,13.0,3,ch1Sound_localizationTask.wav,13.0,"(1142, 878)","(182, -202)",190,-338,,,,,,,,,,,,,5,6,41,5,,,,,,,,,,,,,,,,,,,,,,,,,,,,,,,,,,,,,,,,1351.3172849663533,None,,,1354.3336624079384,None,1.5814814814814815,1.232809765264392,1354.3336624079384,None,,,,,,,1352.3172310329974,None,1352.5005537993275,1352.5172419222072,,,,,,,157,001,2024_Jan_26_1708,SpeechDraft1Carolyn_lessNoise_PlusLocalization,2021.2.3,59.99281913312093,
,,,,,,,,farRight,19.1,4,ch1Sound_localizationTask.wav,19.1,"(1237, 878)","(277,-202)",285,-338,,,,,,,,,,,,,6,0,42,6,,,,,,,,,,,,,,,,,,,,,,,,,,,,,,,,,,,,,,,,1355.5671971300617,None,,,1358.583579110913,None,1.6634920634920634,1.0317335221916437,1358.583579110913,None,,,,,,,1356.5672059291974,None,1356.7506462433375,1356.7672627391294,,,,,,,157,001,2024_Jan_26_1708,SpeechDraft1Carolyn_lessNoise_PlusLocalization,2021.2.3,59.99281913312093,
,,,,,,,,farRight,19.1,4,ch1Sound_localizationTask.wav,19.1,"(1237, 878)","(277,-202)",285,-338,,,,,,,,,,,,,6,1,43,6,,,,,,,,,,,,,,,,,,,,,,,,,,,,,,,,,,,,,,,,1359.6171928779222,None,,,1362.6336981672794,None,1.6444444444444444,0.533606840763241,1362.6336981672794,None,,,,,,,1360.6172119840048,None,1360.8005784940906,1360.8171341069974,,,,,,,157,001,2024_Jan_26_1708,SpeechDraft1Carolyn_lessNoise_PlusLocalization,2021.2.3,59.99281913312093,
,,,,,,,,nearRight,6.5,0,ch1Sound_localizationTask.wav,6.5,"(1047, 878)","(87, -202)",95,-338,,,,,,,,,,,,,6,2,44,4,,,,,,,,,,,,,,,,,,,,,,,,,,,,,,,,,,,,,,,,1363.183943963144,None,,,1366.2001465270296,None,1.5375661375661376,1.2990662292577326,1366.2001465270296,None,,,,,,,1364.1839022510685,None,1364.3672467060387,1364.38395498693,,,,,,,157,001,2024_Jan_26_1708,SpeechDraft1Carolyn_lessNoise_PlusLocalization,2021.2.3,59.99281913312093,
,,,,,,,,nearLeft,-6.5,1,ch1Sound_localizationTask.wav,-6.5,"(857, 878)","(-103,-202)",-95,-338,,,,,,,,,,,,,6,3,45,2,,,,,,,,,,,,,,,,,,,,,,,,,,,,,,,,,,,,,,,,1367.500513508916,None,,,1370.5169503642246,None,1.4566137566137567,0.7160559976473451,1370.5169503642246,None,,,,,,,1368.50057496503,None,1368.6838683653623,1368.7006528479978,,,,,,,157,001,2024_Jan_26_1708,SpeechDraft1Carolyn_lessNoise_PlusLocalization,2021.2.3,59.99281913312093,
,,,,,,,,farLeft,-19.1,5,ch1Sound_localizationTask.wav,-19.1,"(667, 878)","(-293,-202)",-285,-338,,,,,,,,,,,,,6,4,46,0,,,,,,,,,,,,,,,,,,,,,,,,,,,,,,,,,,,,,,,,1371.2339771399274,None,,,1374.2502716253512,None,1.3476190476190477,1.0318769528530538,1374.2502716253512,None,,,,,,,1372.23381074192,None,1372.4173253593035,1372.433918866329,,,,,,,157,001,2024_Jan_26_1708,SpeechDraft1Carolyn_lessNoise_PlusLocalization,2021.2.3,59.99281913312093,
,,,,,,,,nearRight,6.5,0,ch1Sound_localizationTask.wav,6.5,"(1047, 878)","(87, -202)",95,-338,,,,,,,,,,,,,6,5,47,4,,,,,,,,,,,,,,,,,,,,,,,,,,,,,,,,,,,,,,,,1375.2840553009883,None,,,1378.3002366232686,None,1.528042328042328,0.7828865209594369,1378.3002366232686,None,,,,,,,1376.2838474162854,None,1376.4672502120957,1376.4839250529185,,,,,,,157,001,2024_Jan_26_1708,SpeechDraft1Carolyn_lessNoise_PlusLocalization,2021.2.3,59.99281913312093,
,,,,,,,,farRight,19.1,4,ch1Sound_localizationTask.wav,19.1,"(1237, 878)","(277,-202)",285,-338,,,,,,,,,,,,,6,6,48,6,,,,,,,,,,,,,,,,,,,,,,,,,,,,,,,,,,,,,,,,1379.083977153059,None,,,1382.100243196357,None,1.6592592592592592,0.9998833327554166,1382.100243196357,None,,,,,,,1380.0838962960988,None,1380.2672498309985,1380.2839675513096,,,,,,,157,001,2024_Jan_26_1708,SpeechDraft1Carolyn_lessNoise_PlusLocalization,2021.2.3,59.99281913312093,
,,,,,,,,farLeft,-19.1,5,ch1Sound_localizationTask.wav,-19.1,"(667, 878)","(-293,-202)",-285,-338,,,,,,,,,,,,,7,0,49,0,,,,,,,,,,,,,,,,,,,,,,,,,,,,,,,,,,,,,,,,1383.1009148312733,None,,,1386.117089459207,None,1.3380952380952382,0.8160986290313303,1386.117089459207,None,,,,,,,1384.1006359769963,None,1384.2838347181678,1384.3006355459802,,,,,,,157,001,2024_Jan_26_1708,SpeechDraft1Carolyn_lessNoise_PlusLocalization,2021.2.3,59.99281913312093,
,,,,,,,,midLeft,-13.0,2,ch1Sound_localizationTask.wav,-13.0,"(762, 878)","(-198,-202)",-190,-338,,,,,,,,,,,,,7,1,50,1,,,,,,,,,,,,,,,,,,,,,,,,,,,,,,,,,,,,,,,,1386.9339510160498,None,,,1389.9502532542683,None,1.3888888888888888,0.9654389428906143,1389.9502532542683,None,,,,,,,1387.9339719610289,None,1388.1173136211,1388.134017392993,,,,,,,157,001,2024_Jan_26_1708,SpeechDraft1Carolyn_lessNoise_PlusLocalization,2021.2.3,59.99281913312093,
,,,,,,,,center,0.0,6,ch1Sound_localizationTask.wav,0.0,"(952, 878)","(-8,-202)",0,-338,,,,,,,,,,,,,7,2,51,3,,,,,,,,,,,,,,,,,,,,,,,,,,,,,,,,,,,,,,,,1390.9174034083262,None,,,1393.9338075951673,None,1.4915343915343915,1.582919220905751,1393.9338075951673,None,,,,,,,1391.9172177193686,None,1392.100564029999,1392.117350621149,,,,,,,157,001,2024_Jan_26_1708,SpeechDraft1Carolyn_lessNoise_PlusLocalization,2021.2.3,59.99281913312093,
,,,,,,,,farRight,19.1,4,ch1Sound_localizationTask.wav,19.1,"(1237, 878)","(277,-202)",285,-338,,,,,,,,,,,,,7,3,52,6,,,,,,,,,,,,,,,,,,,,,,,,,,,,,,,,,,,,,,,,1395.517296073027,None,,,1398.533703865949,None,1.6502645502645503,1.7152891089208424,1398.533703865949,None,,,,,,,1396.5173628320917,None,1396.7006663903594,1396.7172491550446,,,,,,,157,001,2024_Jan_26_1708,SpeechDraft1Carolyn_lessNoise_PlusLocalization,2021.2.3,59.99281913312093,
,,,,,,,,nearRight,6.5,0,ch1Sound_localizationTask.wav,6.5,"(1047, 878)","(87, -202)",95,-338,,,,,,,,,,,,,7,4,53,4,,,,,,,,,,,,,,,,,,,,,,,,,,,,,,,,,,,,,,,,1400.2507228502072,None,,,1403.2669278229587,None,1.5544973544973546,0.8326796391047537,1403.2669278229587,None,,,,,,,1401.250600448344,None,1401.4340256759897,1401.450585112907,,,,,,,157,001,2024_Jan_26_1708,SpeechDraft1Carolyn_lessNoise_PlusLocalization,2021.2.3,59.99281913312093,
,,,,,,,,farRight,19.1,4,ch1Sound_localizationTask.wav,19.1,"(1237, 878)","(277,-202)",285,-338,,,,,,,,,,,,,7,5,54,6,,,,,,,,,,,,,,,,,,,,,,,,,,,,,,,,,,,,,,,,1404.1006183242425,None,,,1407.1172911119647,None,1.665079365079365,1.0657832860015333,1407.1172911119647,None,,,,,,,1405.1007040799595,None,1405.2840361660346,1405.3006430761889,,,,,,,157,001,2024_Jan_26_1708,SpeechDraft1Carolyn_lessNoise_PlusLocalization,2021.2.3,59.99281913312093,
,,,,,,,,midLeft,-13.0,2,ch1Sound_localizationTask.wav,-13.0,"(762, 878)","(-198,-202)",-190,-338,,,,,,,,,,,,,7,6,55,1,,,,,,,,,,,,,,,,,,,,,,,,,,,,,,,,,,,,,,,,1408.1839877441525,None,,,1411.2002511941828,None,1.397883597883598,1.5989803588017821,1411.2002511941828,None,,,,,,,1409.1840549060144,None,1409.3672478930093,1409.3838765500113,,,,,,,157,001,2024_Jan_26_1708,SpeechDraft1Carolyn_lessNoise_PlusLocalization,2021.2.3,59.99281913312093,
,,,,,,,,,,,,,,,,,,,,,,,,,,,,,,,,,,,,,,,,,,,,,,,,,,,,,,,,,,,,,,,,,,,,,,,,,,,,,,,,,,,,,,,,,,,,1412.8007264090702,None,c,35.77237847214565,1413.7839800859801,None,157,001,2024_Jan_26_1708,SpeechDraft1Carolyn_lessNoise_PlusLocalization,2021.2.3,59.99281913312093,
