Audio_Only_Files,Video_Files,Original_Word_List,noiseLevelCode,conditionCodes,noiseLevelFile1,noiseLevelFile2,InstrTextVar,targetSpeakerName,targetSpeakerEccen,targetSpkrChannel,targetSpkrSound,targetVisualDegrees,visStimLoc,visStimLoc2,visStimW,visStimH,practiceTrials.thisRepN,practiceTrials.thisTrialN,practiceTrials.thisN,practiceTrials.thisIndex,trials.thisRepN,trials.thisTrialN,trials.thisN,trials.thisIndex,audLocalLoop.thisRepN,audLocalLoop.thisTrialN,audLocalLoop.thisN,audLocalLoop.thisIndex,visualLocalLoop.thisRepN,visualLocalLoop.thisTrialN,visualLocalLoop.thisN,visualLocalLoop.thisIndex,letsGoAlready.keys,letsGoAlready.rt,letsGoAlready.started,letsGoAlready.stopped,text_2.started,text_2.stopped,text_3.started,text_3.stopped,key_resp_2.keys,key_resp_2.rt,key_resp_2.started,key_resp_2.stopped,text_5.started,text_5.stopped,fixCross.started,fixCross.stopped,fixCross2.started,fixCross2.stopped,answerPrompt.started,answerPrompt.stopped,getAnswer.text,getAnswer.started,getAnswer.stopped,goToNext.keys,goToNext.rt,goToNext.started,goToNext.stopped,stretchBreakTxrt.started,stretchBreakTxrt.stopped,key_resp_3.keys,key_resp_3.rt,key_resp_3.started,key_resp_3.stopped,letsGoLocal.keys,letsGoLocal.rt,letsGoLocal.started,letsGoLocal.stopped,text_4.started,text_4.stopped,prepFixTxt.started,prepFixTxt.stopped,prepFixTxt_2.started,prepFixTxt_2.stopped,respPromptLocal.started,respPromptLocal.stopped,slider.response,slider.rt,slider.started,slider.stopped,letsGoLocal_2.keys,letsGoLocal_2.rt,letsGoLocal_2.started,letsGoLocal_2.stopped,text_7.started,text_7.stopped,prepFixTxt_3.started,prepFixTxt_3.stopped,grating.started,grating.stopped,exitTxt.started,exitTxt.stopped,key_resp.keys,key_resp.rt,key_resp.started,key_resp.stopped,participant,session,date,expName,psychopyVersion,frameRate,
,,,,,,,,,,,,,,,,,,,,,,,,,,,,,,,,,space,179.135846239049,400.46814064029604,None,,,,,,,,,,,,,,,,,,,,,,,,,,,,,,,,,,,,,,,,,,,,,,,,,,,,,,,,,,,,,,158,001,2024_Jan_29_1647,SpeechDraft1Carolyn_lessNoise_PlusLocalization,2021.2.3,59.902958198245436,
,,,,,,,,,,,,,,,,,,,,,,,,,,,,,,,,,,,,,400.46814064029604,None,579.7354651982896,None,space,6.941805626731366,579.9181069070473,None,,,,,,,,,,,,,,,,,,,,,,,,,,,,,,,,,,,,,,,,,,,,,,,,,,,,,,158,001,2024_Jan_29_1647,SpeechDraft1Carolyn_lessNoise_PlusLocalization,2021.2.3,59.902958198245436,
ash.wav,ash.mpg,ash,1,A,Pink_Noise_1_1.wav,Pink_Noise_1_2.wav,"This is an example of an

AUDIO trial",,,,,,,,,,0,0,0,0,,,,,,,,,,,,,,,,,,,,,,,,,586.9179261350073,None,587.9015188333578,None,591.1511191171594,None,592.5350088682026,None,ash,592.5350088682026,None,return,8.545841586776078,592.6181181753054,None,,,,,,,,,,,,,,,,,,,,,,,,,,,,,,,,,,,,,,,158,001,2024_Jan_29_1647,SpeechDraft1Carolyn_lessNoise_PlusLocalization,2021.2.3,59.902958198245436,
ash.wav,ash.mpg,ash,1,AV,Pink_Noise_1_1.wav,Pink_Noise_1_2.wav,"This is an example of an

AUDIO + VIDEO  trial",,,,,,,,,,0,1,1,1,,,,,,,,,,,,,,,,,,,,,,,,,601.2010794901289,None,602.2014297670685,None,603.6844626800157,None,605.068130819127,None,ash,605.068130819127,None,return,6.580421581864357,605.1515526552685,None,,,,,,,,,,,,,,,,,,,,,,,,,,,,,,,,,,,,,,,158,001,2024_Jan_29_1647,SpeechDraft1Carolyn_lessNoise_PlusLocalization,2021.2.3,59.902958198245436,
,,,,,,,,,,,,,,,,,,,,,,,,,,,,,,,,,,,,,,,,,,,,,,,,,,,,,,,,,,,,611.7679227641784,None,space,11.996514250990003,611.951478398405,None,,,,,,,,,,,,,,,,,,,,,,,,,,,,,,,,,158,001,2024_Jan_29_1647,SpeechDraft1Carolyn_lessNoise_PlusLocalization,2021.2.3,59.902958198245436,
brake.wav,brake.mpg,brake,3,AV,Pink_Noise_3_1.wav,Pink_Noise_3_2.wav,,,,,,,,,,,,,,,0,0,0,109,,,,,,,,,,,,,,,,,,,,,,,624.001053632237,None,625.4845398389734,None,626.868190178182,None,"brick
",626.868190178182,None,return,6.06842822721228,626.951492134016,None,,,,,,,,,,,,,,,,,,,,,,,,,,,,,,,,,,,,,,,158,001,2024_Jan_29_1647,SpeechDraft1Carolyn_lessNoise_PlusLocalization,2021.2.3,59.902958198245436,
fog.wav,fog.mpg,fog,6,A,Pink_Noise_6_1.wav,Pink_Noise_6_2.wav,,,,,,,,,,,,,,,0,1,1,30,,,,,,,,,,,,,,,,,,,,,,,633.051490414422,None,634.5511991572566,None,635.9349843962118,None,hi,635.9349843962118,None,return,5.345709482207894,636.0182331763208,None,,,,,,,,,,,,,,,,,,,,,,,,,,,,,,,,,,,,,,,158,001,2024_Jan_29_1647,SpeechDraft1Carolyn_lessNoise_PlusLocalization,2021.2.3,59.902958198245436,
foam.wav,foam.mpg,foam,3,A,Pink_Noise_3_1.wav,Pink_Noise_3_2.wav,,,,,,,,,,,,,,,0,2,2,2,,,,,,,,,,,,,,,,,,,,,,,641.384801782202,None,642.8846799680032,None,644.2681586993858,None,phony,644.2681586993858,None,return,4.244147853925824,644.3518031290732,None,,,,,,,,,,,,,,,,,,,,,,,,,,,,,,,,,,,,,,,158,001,2024_Jan_29_1647,SpeechDraft1Carolyn_lessNoise_PlusLocalization,2021.2.3,59.902958198245436,
blush.wav,blush.mpg,blush,2,AV,Pink_Noise_2_1.wav,Pink_Noise_2_2.wav,,,,,,,,,,,,,,,0,3,3,99,,,,,,,,,,,,,,,,,,,,,,,648.6182055911049,None,650.1179542220198,None,651.501557465177,None,blush,651.501557465177,None,return,1.3950191549956799,651.584895116277,None,,,,,,,,,,,,,,,,,,,,,,,,,,,,,,,,,,,,,,,158,001,2024_Jan_29_1647,SpeechDraft1Carolyn_lessNoise_PlusLocalization,2021.2.3,59.902958198245436,
bend.wav,bend.mpg,bend,6,A,Pink_Noise_6_1.wav,Pink_Noise_6_2.wav,,,,,,,,,,,,,,,0,4,4,23,,,,,,,,,,,,,,,,,,,,,,,653.0015228702687,None,654.5012286263518,None,655.8847967400216,None,make,655.8847967400216,None,return,4.363799580838531,655.96819951199,None,,,,,,,,,,,,,,,,,,,,,,,,,,,,,,,,,,,,,,,158,001,2024_Jan_29_1647,SpeechDraft1Carolyn_lessNoise_PlusLocalization,2021.2.3,59.902958198245436,
brain.wav,brain.mpg,brain,4,AV,Pink_Noise_4_1.wav,Pink_Noise_4_2.wav,,,,,,,,,,,,,,,0,5,5,68,,,,,,,,,,,,,,,,,,,,,,,660.3515369882807,None,661.8512735702097,None,663.2349924771115,None,"brain
",663.2349924771115,None,return,1.9337082412093878,663.3182076374069,None,,,,,,,,,,,,,,,,,,,,,,,,,,,,,,,,,,,,,,,158,001,2024_Jan_29_1647,SpeechDraft1Carolyn_lessNoise_PlusLocalization,2021.2.3,59.902958198245436,
jam.wav,jam.mpg,jam,3,AV,Pink_Noise_3_1.wav,Pink_Noise_3_2.wav,,,,,,,,,,,,,,,0,6,6,82,,,,,,,,,,,,,,,,,,,,,,,665.2849501753226,None,666.7846127371304,None,668.1681666872464,None,"jam
",668.1681666872464,None,return,1.0004259748384356,668.2514939471148,None,,,,,,,,,,,,,,,,,,,,,,,,,,,,,,,,,,,,,,,158,001,2024_Jan_29_1647,SpeechDraft1Carolyn_lessNoise_PlusLocalization,2021.2.3,59.902958198245436,
poll.wav,poll.mpg,poll,6,A,Pink_Noise_6_1.wav,Pink_Noise_6_2.wav,,,,,,,,,,,,,,,0,7,7,9,,,,,,,,,,,,,,,,,,,,,,,669.2849705070257,None,670.7690713163465,None,672.15175840538,None,leg,672.15175840538,None,return,1.2410471220500767,672.2349175349809,None,,,,,,,,,,,,,,,,,,,,,,,,,,,,,,,,,,,,,,,158,001,2024_Jan_29_1647,SpeechDraft1Carolyn_lessNoise_PlusLocalization,2021.2.3,59.902958198245436,
blink.wav,blink.mpg,blink,1,A,Pink_Noise_1_1.wav,Pink_Noise_1_2.wav,,,,,,,,,,,,,,,0,8,8,33,,,,,,,,,,,,,,,,,,,,,,,673.5016182623804,None,675.0012565599754,None,676.384870603215,None,blink,676.384870603215,None,return,1.743714747019112,676.4681884073652,None,,,,,,,,,,,,,,,,,,,,,,,,,,,,,,,,,,,,,,,158,001,2024_Jan_29_1647,SpeechDraft1Carolyn_lessNoise_PlusLocalization,2021.2.3,59.902958198245436,
grave.wav,grave.mpg,grave,6,A,Pink_Noise_6_1.wav,Pink_Noise_6_2.wav,,,,,,,,,,,,,,,0,9,9,31,,,,,,,,,,,,,,,,,,,,,,,678.2349881120026,None,679.7346033663489,None,681.1182880913839,None,"rain
",681.1182880913839,None,return,1.002340783830732,681.2015770082362,None,,,,,,,,,,,,,,,,,,,,,,,,,,,,,,,,,,,,,,,158,001,2024_Jan_29_1647,SpeechDraft1Carolyn_lessNoise_PlusLocalization,2021.2.3,59.902958198245436,
germ.wav,germ.mpg,germ,6,A,Pink_Noise_6_1.wav,Pink_Noise_6_2.wav,,,,,,,,,,,,,,,0,10,10,38,,,,,,,,,,,,,,,,,,,,,,,682.2349034990184,None,683.7345344363712,None,685.1183260800317,None,"tray
",685.1183260800317,None,return,1.7862349348142743,685.2016934254207,None,,,,,,,,,,,,,,,,,,,,,,,,,,,,,,,,,,,,,,,158,001,2024_Jan_29_1647,SpeechDraft1Carolyn_lessNoise_PlusLocalization,2021.2.3,59.902958198245436,
fish.wav,fish.mpg,fish,5,A,Pink_Noise_5_1.wav,Pink_Noise_5_2.wav,,,,,,,,,,,,,,,0,11,11,29,,,,,,,,,,,,,,,,,,,,,,,687.0182303693146,None,688.5180235221051,None,689.9016446373425,None,"fish
",689.9016446373425,None,return,0.8349775332026184,689.984935475979,None,,,,,,,,,,,,,,,,,,,,,,,,,,,,,,,,,,,,,,,158,001,2024_Jan_29_1647,SpeechDraft1Carolyn_lessNoise_PlusLocalization,2021.2.3,59.902958198245436,
flash.wav,flash.mpg,flash,1,A,Pink_Noise_1_1.wav,Pink_Noise_1_2.wav,,,,,,,,,,,,,,,0,12,12,3,,,,,,,,,,,,,,,,,,,,,,,690.8516104812734,None,692.3513601180166,None,693.7349337693304,None,flash,693.7349337693304,None,return,2.1056112460792065,693.8183840601705,None,,,,,,,,,,,,,,,,,,,,,,,,,,,,,,,,,,,,,,,158,001,2024_Jan_29_1647,SpeechDraft1Carolyn_lessNoise_PlusLocalization,2021.2.3,59.902958198245436,
dine.wav,dine.mpg,dine,4,A,Pink_Noise_4_1.wav,Pink_Noise_4_2.wav,,,,,,,,,,,,,,,0,13,13,41,,,,,,,,,,,,,,,,,,,,,,,695.9516977863386,None,697.4512650431134,None,698.8349504731596,None,iron,698.8349504731596,None,return,1.1497031189501286,698.9182960949838,None,,,,,,,,,,,,,,,,,,,,,,,,,,,,,,,,,,,,,,,158,001,2024_Jan_29_1647,SpeechDraft1Carolyn_lessNoise_PlusLocalization,2021.2.3,59.902958198245436,
blend.wav,blend.mpg,blend,4,A,Pink_Noise_4_1.wav,Pink_Noise_4_2.wav,,,,,,,,,,,,,,,0,14,14,7,,,,,,,,,,,,,,,,,,,,,,,700.0849245693535,None,701.5846288274042,None,702.9683391130529,None,tray,702.9683391130529,None,return,4.207917130086571,703.0519833192229,None,,,,,,,,,,,,,,,,,,,,,,,,,,,,,,,,,,,,,,,158,001,2024_Jan_29_1647,SpeechDraft1Carolyn_lessNoise_PlusLocalization,2021.2.3,59.902958198245436,
debt.wav,debt.mpg,debt,2,A,Pink_Noise_2_1.wav,Pink_Noise_2_2.wav,,,,,,,,,,,,,,,0,15,15,6,,,,,,,,,,,,,,,,,,,,,,,707.2849482800812,None,708.7847754009999,None,710.1683885944076,None,debt,710.1683885944076,None,return,1.7123384848237038,710.2515934719704,None,,,,,,,,,,,,,,,,,,,,,,,,,,,,,,,,,,,,,,,158,001,2024_Jan_29_1647,SpeechDraft1Carolyn_lessNoise_PlusLocalization,2021.2.3,59.902958198245436,
curb.wav,curb.mpg,curb,6,AV,Pink_Noise_6_1.wav,Pink_Noise_6_2.wav,,,,,,,,,,,,,,,0,16,16,61,,,,,,,,,,,,,,,,,,,,,,,711.9849714003503,None,713.4847795991227,None,714.8681889101863,None,herb,714.8681889101863,None,return,1.3163923160173,714.9516047714278,None,,,,,,,,,,,,,,,,,,,,,,,,,,,,,,,,,,,,,,,158,001,2024_Jan_29_1647,SpeechDraft1Carolyn_lessNoise_PlusLocalization,2021.2.3,59.902958198245436,
belch.wav,belch.mpg,belch,4,AV,Pink_Noise_4_1.wav,Pink_Noise_4_2.wav,,,,,,,,,,,,,,,0,17,17,101,,,,,,,,,,,,,,,,,,,,,,,716.2849520752206,None,717.7847842602059,None,719.1684001954272,None,belch,719.1684001954272,None,return,1.0882643121294677,719.2516189720482,None,,,,,,,,,,,,,,,,,,,,,,,,,,,,,,,,,,,,,,,158,001,2024_Jan_29_1647,SpeechDraft1Carolyn_lessNoise_PlusLocalization,2021.2.3,59.902958198245436,
gut.wav,gut.mpg,gut,4,AV,Pink_Noise_4_1.wav,Pink_Noise_4_2.wav,,,,,,,,,,,,,,,0,18,18,102,,,,,,,,,,,,,,,,,,,,,,,720.3682751473971,None,721.8680398520082,None,723.2515906300396,None,gut,723.2515906300396,None,return,1.3650503349490464,723.3349605482072,None,,,,,,,,,,,,,,,,,,,,,,,,,,,,,,,,,,,,,,,158,001,2024_Jan_29_1647,SpeechDraft1Carolyn_lessNoise_PlusLocalization,2021.2.3,59.902958198245436,
rid.wav,rid.mpg,rid,2,AV,Pink_Noise_2_1.wav,Pink_Noise_2_2.wav,,,,,,,,,,,,,,,0,19,19,87,,,,,,,,,,,,,,,,,,,,,,,724.7183037591167,None,726.2180795422755,None,727.6018769079819,None,rid,727.6018769079819,None,return,0.9829233479686081,727.685051178094,None,,,,,,,,,,,,,,,,,,,,,,,,,,,,,,,,,,,,,,,158,001,2024_Jan_29_1647,SpeechDraft1Carolyn_lessNoise_PlusLocalization,2021.2.3,59.902958198245436,
dent.wav,dent.mpg,dent,4,A,Pink_Noise_4_1.wav,Pink_Noise_4_2.wav,,,,,,,,,,,,,,,0,20,20,54,,,,,,,,,,,,,,,,,,,,,,,728.684973475989,None,730.1847847211175,None,731.5683113541454,None,dense,731.5683113541454,None,return,2.0803777873516083,731.6516697672196,None,,,,,,,,,,,,,,,,,,,,,,,,,,,,,,,,,,,,,,,158,001,2024_Jan_29_1647,SpeechDraft1Carolyn_lessNoise_PlusLocalization,2021.2.3,59.902958198245436,
gift.wav,gift.mpg,gift,6,AV,Pink_Noise_6_1.wav,Pink_Noise_6_2.wav,,,,,,,,,,,,,,,0,21,21,83,,,,,,,,,,,,,,,,,,,,,,,733.7516424842179,None,735.2513546613045,None,736.6348633724265,None,lift,736.6348633724265,None,return,5.357679818756878,736.7183486432768,None,,,,,,,,,,,,,,,,,,,,,,,,,,,,,,,,,,,,,,,158,001,2024_Jan_29_1647,SpeechDraft1Carolyn_lessNoise_PlusLocalization,2021.2.3,59.902958198245436,
dust.wav,dust.mpg,dust,4,A,Pink_Noise_4_1.wav,Pink_Noise_4_2.wav,,,,,,,,,,,,,,,0,22,22,16,,,,,,,,,,,,,,,,,,,,,,,742.1017549443059,None,743.601312673185,None,744.9851007200778,None,"dust
",744.9851007200778,None,return,2.3195819328539073,745.0683400863782,None,,,,,,,,,,,,,,,,,,,,,,,,,,,,,,,,,,,,,,,158,001,2024_Jan_29_1647,SpeechDraft1Carolyn_lessNoise_PlusLocalization,2021.2.3,59.902958198245436,
skull.wav,skull.mpg,skull,3,A,Pink_Noise_3_1.wav,Pink_Noise_3_2.wav,,,,,,,,,,,,,,,0,23,23,55,,,,,,,,,,,,,,,,,,,,,,,747.4183346102946,None,748.9180141594261,None,750.3017312590964,None,skull,750.3017312590964,None,return,1.3150028390809894,750.3849810622633,None,,,,,,,,,,,,,,,,,,,,,,,,,,,,,,,,,,,,,,,158,001,2024_Jan_29_1647,SpeechDraft1Carolyn_lessNoise_PlusLocalization,2021.2.3,59.902958198245436,
castle.wav,castle.mpg,castle,5,A,Pink_Noise_5_1.wav,Pink_Noise_5_2.wav,,,,,,,,,,,,,,,0,24,24,46,,,,,,,,,,,,,,,,,,,,,,,751.718319572974,None,753.2182937860489,None,754.6017131693661,None,puzzle,754.6017131693661,None,return,1.2789070256985724,754.6850273483433,None,,,,,,,,,,,,,,,,,,,,,,,,,,,,,,,,,,,,,,,158,001,2024_Jan_29_1647,SpeechDraft1Carolyn_lessNoise_PlusLocalization,2021.2.3,59.902958198245436,
flow.wav,flow.mpg,flow,5,AV,Pink_Noise_5_1.wav,Pink_Noise_5_2.wav,,,,,,,,,,,,,,,0,25,25,106,,,,,,,,,,,,,,,,,,,,,,,755.9850439280272,None,757.484770228155,None,758.868413859047,None,flow,758.868413859047,None,return,1.0121671962551773,758.9517570110038,None,,,,,,,,,,,,,,,,,,,,,,,,,,,,,,,,,,,,,,,158,001,2024_Jan_29_1647,SpeechDraft1Carolyn_lessNoise_PlusLocalization,2021.2.3,59.902958198245436,
block.wav,block.mpg,block,1,AV,Pink_Noise_1_1.wav,Pink_Noise_1_2.wav,,,,,,,,,,,,,,,0,26,26,96,,,,,,,,,,,,,,,,,,,,,,,759.9850128283724,None,761.4849014109932,None,762.8683794941753,None,block,762.8683794941753,None,return,1.460262828040868,762.9516578912735,None,,,,,,,,,,,,,,,,,,,,,,,,,,,,,,,,,,,,,,,158,001,2024_Jan_29_1647,SpeechDraft1Carolyn_lessNoise_PlusLocalization,2021.2.3,59.902958198245436,
creek.wav,creek.mpg,creek,3,A,Pink_Noise_3_1.wav,Pink_Noise_3_2.wav,,,,,,,,,,,,,,,0,27,27,40,,,,,,,,,,,,,,,,,,,,,,,764.4350690301508,None,765.934714240022,None,767.3183458503336,None,"creek
",767.3183458503336,None,return,1.9700704016722739,767.4018347873352,None,,,,,,,,,,,,,,,,,,,,,,,,,,,,,,,,,,,,,,,158,001,2024_Jan_29_1647,SpeechDraft1Carolyn_lessNoise_PlusLocalization,2021.2.3,59.902958198245436,
bail.wav,bail.mpg,bail,5,AV,Pink_Noise_5_1.wav,Pink_Noise_5_2.wav,,,,,,,,,,,,,,,0,28,28,91,,,,,,,,,,,,,,,,,,,,,,,769.4017930370755,None,770.9015088044107,None,772.2851690142415,None,bail,772.2851690142415,None,return,3.731646278873086,772.3683594614267,None,,,,,,,,,,,,,,,,,,,,,,,,,,,,,,,,,,,,,,,158,001,2024_Jan_29_1647,SpeechDraft1Carolyn_lessNoise_PlusLocalization,2021.2.3,59.902958198245436,
dump.wav,dump.mpg,dump,3,A,Pink_Noise_3_1.wav,Pink_Noise_3_2.wav,,,,,,,,,,,,,,,0,29,29,22,,,,,,,,,,,,,,,,,,,,,,,776.1184903089888,None,777.61822033301,None,779.0020240661688,None,dove,779.0020240661688,None,return,1.0308966902084649,779.0850252262317,None,,,,,,,,,,,,,,,,,,,,,,,,,,,,,,,,,,,,,,,158,001,2024_Jan_29_1647,SpeechDraft1Carolyn_lessNoise_PlusLocalization,2021.2.3,59.902958198245436,
awe.wav,awe.mpg,awe,4,A,Pink_Noise_4_1.wav,Pink_Noise_4_2.wav,,,,,,,,,,,,,,,0,30,30,44,,,,,,,,,,,,,,,,,,,,,,,780.1350235380232,None,781.6347182462923,None,783.0183430211619,None,"off
",783.0183430211619,None,return,0.9181937086395919,783.1017166231759,None,,,,,,,,,,,,,,,,,,,,,,,,,,,,,,,,,,,,,,,158,001,2024_Jan_29_1647,SpeechDraft1Carolyn_lessNoise_PlusLocalization,2021.2.3,59.902958198245436,
goat.wav,goat.mpg,goat,5,AV,Pink_Noise_5_1.wav,Pink_Noise_5_2.wav,,,,,,,,,,,,,,,0,31,31,69,,,,,,,,,,,,,,,,,,,,,,,784.0517726610415,None,785.5515117864124,None,786.9350716271438,None,ghost,786.9350716271438,None,return,1.3775595691986382,787.0183439273387,None,,,,,,,,,,,,,,,,,,,,,,,,,,,,,,,,,,,,,,,158,001,2024_Jan_29_1647,SpeechDraft1Carolyn_lessNoise_PlusLocalization,2021.2.3,59.902958198245436,
coin.wav,coin.mpg,coin,3,A,Pink_Noise_3_1.wav,Pink_Noise_3_2.wav,,,,,,,,,,,,,,,0,32,32,32,,,,,,,,,,,,,,,,,,,,,,,788.4182779393159,None,789.9181314813904,None,791.301729449071,None,coy,791.301729449071,None,return,1.3708807160146534,791.3850521082059,None,,,,,,,,,,,,,,,,,,,,,,,,,,,,,,,,,,,,,,,158,001,2024_Jan_29_1647,SpeechDraft1Carolyn_lessNoise_PlusLocalization,2021.2.3,59.902958198245436,
teen.wav,teen.mpg,teen,1,A,Pink_Noise_1_1.wav,Pink_Noise_1_2.wav,,,,,,,,,,,,,,,0,33,33,14,,,,,,,,,,,,,,,,,,,,,,,792.7850092672743,None,794.2848289362155,None,795.6684032902122,None,"teen
",795.6684032902122,None,return,2.236155509017408,795.7517577493563,None,,,,,,,,,,,,,,,,,,,,,,,,,,,,,,,,,,,,,,,158,001,2024_Jan_29_1647,SpeechDraft1Carolyn_lessNoise_PlusLocalization,2021.2.3,59.902958198245436,
cross.wav,cross.mpg,cross,6,AV,Pink_Noise_6_1.wav,Pink_Noise_6_2.wav,,,,,,,,,,,,,,,0,34,34,103,,,,,,,,,,,,,,,,,,,,,,,798.0183409550227,None,799.5181159521453,None,800.9017134062015,None,cross,800.9017134062015,None,return,1.562816624995321,800.9851567861624,None,,,,,,,,,,,,,,,,,,,,,,,,,,,,,,,,,,,,,,,158,001,2024_Jan_29_1647,SpeechDraft1Carolyn_lessNoise_PlusLocalization,2021.2.3,59.902958198245436,
news.wav,news.mpg,news,3,A,Pink_Noise_3_1.wav,Pink_Noise_3_2.wav,,,,,,,,,,,,,,,0,35,35,50,,,,,,,,,,,,,,,,,,,,,,,802.5683872713707,None,804.0681090150028,None,805.4517565472052,None,lose,805.4517565472052,None,return,1.260791540145874,805.5351127260365,None,,,,,,,,,,,,,,,,,,,,,,,,,,,,,,,,,,,,,,,158,001,2024_Jan_29_1647,SpeechDraft1Carolyn_lessNoise_PlusLocalization,2021.2.3,59.902958198245436,
doom.wav,doom.mpg,doom,4,AV,Pink_Noise_4_1.wav,Pink_Noise_4_2.wav,,,,,,,,,,,,,,,0,36,36,85,,,,,,,,,,,,,,,,,,,,,,,806.8184376610443,None,808.3181758872233,None,809.7017802521586,None,doom,809.7017802521586,None,return,1.1468551051802933,809.7851301170886,None,,,,,,,,,,,,,,,,,,,,,,,,,,,,,,,,,,,,,,,158,001,2024_Jan_29_1647,SpeechDraft1Carolyn_lessNoise_PlusLocalization,2021.2.3,59.902958198245436,
dot.wav,dot.mpg,dot,4,AV,Pink_Noise_4_1.wav,Pink_Noise_4_2.wav,,,,,,,,,,,,,,,0,37,37,115,,,,,,,,,,,,,,,,,,,,,,,810.9517861902714,None,812.4514234331436,None,813.8348746411502,None,dot,813.8348746411502,None,return,3.7094792942516506,813.9184297313914,None,,,,,,,,,,,,,,,,,,,,,,,,,,,,,,,,,,,,,,,158,001,2024_Jan_29_1647,SpeechDraft1Carolyn_lessNoise_PlusLocalization,2021.2.3,59.902958198245436,
gap.wav,gap.mpg,gap,5,A,Pink_Noise_5_1.wav,Pink_Noise_5_2.wav,,,,,,,,,,,,,,,0,38,38,1,,,,,,,,,,,,,,,,,,,,,,,817.6517377439886,None,819.1514328103513,None,820.5350548061542,None,map,820.5350548061542,None,return,1.193429151084274,820.6185002983548,None,,,,,,,,,,,,,,,,,,,,,,,,,,,,,,,,,,,,,,,158,001,2024_Jan_29_1647,SpeechDraft1Carolyn_lessNoise_PlusLocalization,2021.2.3,59.902958198245436,
batch.wav,batch.mpg,batch,5,A,Pink_Noise_5_1.wav,Pink_Noise_5_2.wav,,,,,,,,,,,,,,,0,39,39,11,,,,,,,,,,,,,,,,,,,,,,,821.8351001683623,None,823.3514820090495,None,824.7350640632212,None,flash,824.7350640632212,None,return,1.2735808626748621,824.8184231892228,None,,,,,,,,,,,,,,,,,,,,,,,,,,,,,,,,,,,,,,,158,001,2024_Jan_29_1647,SpeechDraft1Carolyn_lessNoise_PlusLocalization,2021.2.3,59.902958198245436,
grant.wav,grant.mpg,grant,2,A,Pink_Noise_2_1.wav,Pink_Noise_2_2.wav,,,,,,,,,,,,,,,0,40,40,8,,,,,,,,,,,,,,,,,,,,,,,826.1184162972495,None,827.6182836242951,None,829.0017586383037,None,"grant
",829.0017586383037,None,return,0.9347104872576892,829.0852231020108,None,,,,,,,,,,,,,,,,,,,,,,,,,,,,,,,,,,,,,,,158,001,2024_Jan_29_1647,SpeechDraft1Carolyn_lessNoise_PlusLocalization,2021.2.3,59.902958198245436,
layer.wav,layer.mpg,layer,5,AV,Pink_Noise_5_1.wav,Pink_Noise_5_2.wav,,,,,,,,,,,,,,,0,41,41,73,,,,,,,,,,,,,,,,,,,,,,,830.0518343481235,None,831.551531595178,None,832.935061101336,None,lair,832.935061101336,None,return,2.473533727694303,833.0184798180126,None,,,,,,,,,,,,,,,,,,,,,,,,,,,,,,,,,,,,,,,158,001,2024_Jan_29_1647,SpeechDraft1Carolyn_lessNoise_PlusLocalization,2021.2.3,59.902958198245436,
clip.wav,clip.mpg,clip,2,AV,Pink_Noise_2_1.wav,Pink_Noise_2_2.wav,,,,,,,,,,,,,,,0,42,42,88,,,,,,,,,,,,,,,,,,,,,,,835.5185136063956,None,837.0182673241943,None,838.4018995412625,None,clip,838.4018995412625,None,return,1.8068799991160631,838.4851204273291,None,,,,,,,,,,,,,,,,,,,,,,,,,,,,,,,,,,,,,,,158,001,2024_Jan_29_1647,SpeechDraft1Carolyn_lessNoise_PlusLocalization,2021.2.3,59.902958198245436,
cup.wav,cup.mpg,cup,6,A,Pink_Noise_6_1.wav,Pink_Noise_6_2.wav,,,,,,,,,,,,,,,0,43,43,45,,,,,,,,,,,,,,,,,,,,,,,840.3184318882413,None,841.8182446942665,None,843.2019040114246,None,mayo,843.2019040114246,None,return,3.2229702728800476,843.2850889470428,None,,,,,,,,,,,,,,,,,,,,,,,,,,,,,,,,,,,,,,,158,001,2024_Jan_29_1647,SpeechDraft1Carolyn_lessNoise_PlusLocalization,2021.2.3,59.902958198245436,
cloak.wav,cloak.mpg,cloak,1,A,Pink_Noise_1_1.wav,Pink_Noise_1_2.wav,,,,,,,,,,,,,,,0,44,44,59,,,,,,,,,,,,,,,,,,,,,,,846.5352467764169,None,848.034838071093,None,849.4186026994139,None,cloak,849.4186026994139,None,return,1.1420863242819905,849.5018341410905,None,,,,,,,,,,,,,,,,,,,,,,,,,,,,,,,,,,,,,,,158,001,2024_Jan_29_1647,SpeechDraft1Carolyn_lessNoise_PlusLocalization,2021.2.3,59.902958198245436,
eye.wav,eye.mpg,eye,4,AV,Pink_Noise_4_1.wav,Pink_Noise_4_2.wav,,,,,,,,,,,,,,,0,45,45,118,,,,,,,,,,,,,,,,,,,,,,,850.6684687263332,None,852.1682923082262,None,853.5517133511603,None,eye,853.5517133511603,None,return,0.9447046970017254,853.6352162631229,None,,,,,,,,,,,,,,,,,,,,,,,,,,,,,,,,,,,,,,,158,001,2024_Jan_29_1647,SpeechDraft1Carolyn_lessNoise_PlusLocalization,2021.2.3,59.902958198245436,
drain.wav,drain.mpg,drain,3,A,Pink_Noise_3_1.wav,Pink_Noise_3_2.wav,,,,,,,,,,,,,,,0,46,46,18,,,,,,,,,,,,,,,,,,,,,,,854.6018014852889,None,856.1015224833973,None,857.4852493819781,None,drain,857.4852493819781,None,return,0.9315955433994532,857.5684203989804,None,,,,,,,,,,,,,,,,,,,,,,,,,,,,,,,,,,,,,,,158,001,2024_Jan_29_1647,SpeechDraft1Carolyn_lessNoise_PlusLocalization,2021.2.3,59.902958198245436,
flesh.wav,flesh.mpg,flesh,4,AV,Pink_Noise_4_1.wav,Pink_Noise_4_2.wav,,,,,,,,,,,,,,,0,47,47,108,,,,,,,,,,,,,,,,,,,,,,,858.5185546521097,None,860.0182526702993,None,861.4017534283921,None,flesh,861.4017534283921,None,return,1.9746609712019563,861.4852487142198,None,,,,,,,,,,,,,,,,,,,,,,,,,,,,,,,,,,,,,,,158,001,2024_Jan_29_1647,SpeechDraft1Carolyn_lessNoise_PlusLocalization,2021.2.3,59.902958198245436,
fuel.wav,fuel.mpg,fuel,6,A,Pink_Noise_6_1.wav,Pink_Noise_6_2.wav,,,,,,,,,,,,,,,0,48,48,37,,,,,,,,,,,,,,,,,,,,,,,863.4852402340621,None,864.9849605890922,None,866.3684422113001,None,rain,866.3684422113001,None,return,0.8721362100914121,866.4518509004265,None,,,,,,,,,,,,,,,,,,,,,,,,,,,,,,,,,,,,,,,158,001,2024_Jan_29_1647,SpeechDraft1Carolyn_lessNoise_PlusLocalization,2021.2.3,59.902958198245436,
creep.wav,creep.mpg,creep,2,A,Pink_Noise_2_1.wav,Pink_Noise_2_2.wav,,,,,,,,,,,,,,,0,49,49,28,,,,,,,,,,,,,,,,,,,,,,,867.3518460933119,None,868.8515472873114,None,870.2352897659875,None,creek,870.2352897659875,None,return,4.349328541662544,870.3187485411763,None,,,,,,,,,,,,,,,,,,,,,,,,,,,,,,,,,,,,,,,158,001,2024_Jan_29_1647,SpeechDraft1Carolyn_lessNoise_PlusLocalization,2021.2.3,59.902958198245436,
bare.wav,bare.mpg,bare,6,A,Pink_Noise_6_1.wav,Pink_Noise_6_2.wav,,,,,,,,,,,,,,,0,50,50,49,,,,,,,,,,,,,,,,,,,,,,,874.6853422550485,None,876.1848661210388,None,877.5686450852081,None,ray,877.5686450852081,None,return,2.191979411058128,877.6519582699984,None,,,,,,,,,,,,,,,,,,,,,,,,,,,,,,,,,,,,,,,158,001,2024_Jan_29_1647,SpeechDraft1Carolyn_lessNoise_PlusLocalization,2021.2.3,59.902958198245436,
gang.wav,gang.mpg,gang,4,AV,Pink_Noise_4_1.wav,Pink_Noise_4_2.wav,,,,,,,,,,,,,,,0,51,51,100,,,,,,,,,,,,,,,,,,,,,,,879.8685125121847,None,881.3700182070024,None,882.7517076181248,None,gay,882.7517076181248,None,return,1.6567389369010925,882.8352731033228,None,,,,,,,,,,,,,,,,,,,,,,,,,,,,,,,,,,,,,,,158,001,2024_Jan_29_1647,SpeechDraft1Carolyn_lessNoise_PlusLocalization,2021.2.3,59.902958198245436,
bank.wav,bank.mpg,bank,4,A,Pink_Noise_4_1.wav,Pink_Noise_4_2.wav,,,,,,,,,,,,,,,0,52,52,26,,,,,,,,,,,,,,,,,,,,,,,884.5185418720357,None,886.0188953070901,None,887.401980212424,None,ic,887.401980212424,None,return,3.7587210098281503,887.4851746312343,None,,,,,,,,,,,,,,,,,,,,,,,,,,,,,,,,,,,,,,,158,001,2024_Jan_29_1647,SpeechDraft1Carolyn_lessNoise_PlusLocalization,2021.2.3,59.902958198245436,
bye.wav,bye.mpg,bye,2,AV,Pink_Noise_2_1.wav,Pink_Noise_2_2.wav,,,,,,,,,,,,,,,0,53,53,79,,,,,,,,,,,,,,,,,,,,,,,891.2685628309846,None,892.7682250994258,None,894.1520194960758,None,bye,894.1520194960758,None,return,0.8327566687949002,894.2352065830491,None,,,,,,,,,,,,,,,,,,,,,,,,,,,,,,,,,,,,,,,158,001,2024_Jan_29_1647,SpeechDraft1Carolyn_lessNoise_PlusLocalization,2021.2.3,59.902958198245436,
bind.wav,bind.mpg,bind,1,A,Pink_Noise_1_1.wav,Pink_Noise_1_2.wav,,,,,,,,,,,,,,,0,54,54,5,,,,,,,,,,,,,,,,,,,,,,,895.0852127582766,None,896.5848824162968,None,897.9685741611756,None,find,897.9685741611756,None,return,0.8321517719887197,898.0518426382914,None,,,,,,,,,,,,,,,,,,,,,,,,,,,,,,,,,,,,,,,158,001,2024_Jan_29_1647,SpeechDraft1Carolyn_lessNoise_PlusLocalization,2021.2.3,59.902958198245436,
dim.wav,dim.mpg,dim,1,A,Pink_Noise_1_1.wav,Pink_Noise_1_2.wav,,,,,,,,,,,,,,,0,55,55,42,,,,,,,,,,,,,,,,,,,,,,,898.9019020129927,None,900.4350118911825,None,901.8187745711766,None,dim,901.8187745711766,None,return,0.7901167031377554,901.9018792682327,None,,,,,,,,,,,,,,,,,,,,,,,,,,,,,,,,,,,,,,,158,001,2024_Jan_29_1647,SpeechDraft1Carolyn_lessNoise_PlusLocalization,2021.2.3,59.902958198245436,
cleft.wav,cleft.mpg,cleft,1,AV,Pink_Noise_1_1.wav,Pink_Noise_1_2.wav,,,,,,,,,,,,,,,0,56,56,95,,,,,,,,,,,,,,,,,,,,,,,902.718593405094,None,904.2348723663017,None,905.6186759411357,None,cleft,905.6186759411357,None,return,1.1260042060166597,905.7019142662175,None,,,,,,,,,,,,,,,,,,,,,,,,,,,,,,,,,,,,,,,158,001,2024_Jan_29_1647,SpeechDraft1Carolyn_lessNoise_PlusLocalization,2021.2.3,59.902958198245436,
pants.wav,pants.mpg,pants,2,AV,Pink_Noise_2_1.wav,Pink_Noise_2_2.wav,,,,,,,,,,,,,,,0,57,57,116,,,,,,,,,,,,,,,,,,,,,,,906.8519307184033,None,908.3525746241212,None,909.7353529790416,None,pants,909.7353529790416,None,return,1.9212083769962192,909.8187019224279,None,,,,,,,,,,,,,,,,,,,,,,,,,,,,,,,,,,,,,,,158,001,2024_Jan_29_1647,SpeechDraft1Carolyn_lessNoise_PlusLocalization,2021.2.3,59.902958198245436,
beef.wav,beef.mpg,beef,5,A,Pink_Noise_5_1.wav,Pink_Noise_5_2.wav,,,,,,,,,,,,,,,0,58,58,20,,,,,,,,,,,,,,,,,,,,,,,911.7685570972972,None,913.2848312151618,None,914.6686055441387,None,"reach
",914.6686055441387,None,return,1.0199270816519856,914.7520009241998,None,,,,,,,,,,,,,,,,,,,,,,,,,,,,,,,,,,,,,,,158,001,2024_Jan_29_1647,SpeechDraft1Carolyn_lessNoise_PlusLocalization,2021.2.3,59.902958198245436,
bleed.wav,bleed.mpg,bleed,6,AV,Pink_Noise_6_1.wav,Pink_Noise_6_2.wav,,,,,,,,,,,,,,,0,59,59,90,,,,,,,,,,,,,,,,,,,,,,,915.8019288419746,None,917.3016438833438,None,918.6851902450435,None,bleak,918.6851902450435,None,return,7.171367964241654,918.7685545450076,None,,,,,,,,,,,,,,,,,,,,,,,,,,,,,,,,,,,,,,,158,001,2024_Jan_29_1647,SpeechDraft1Carolyn_lessNoise_PlusLocalization,2021.2.3,59.902958198245436,
duck.wav,duck.mpg,duck,1,A,Pink_Noise_1_1.wav,Pink_Noise_1_2.wav,,,,,,,,,,,,,,,0,60,60,36,,,,,,,,,,,,,,,,,,,,,,,925.9685751912184,None,927.4683110471815,None,928.8519437583163,None,duck,928.8519437583163,None,return,1.0125770927406847,928.9353288621642,None,,,,,,,,,,,,,,,,,,,,,,,,,,,,,,,,,,,,,,,158,001,2024_Jan_29_1647,SpeechDraft1Carolyn_lessNoise_PlusLocalization,2021.2.3,59.902958198245436,
click.wav,click.mpg,click,3,AV,Pink_Noise_3_1.wav,Pink_Noise_3_2.wav,,,,,,,,,,,,,,,0,61,61,119,,,,,,,,,,,,,,,,,,,,,,,929.9685519873165,None,931.4684568783268,None,932.8518743771128,None,click,932.8518743771128,None,return,1.244671710766852,932.9352224883623,None,,,,,,,,,,,,,,,,,,,,,,,,,,,,,,,,,,,,,,,158,001,2024_Jan_29_1647,SpeechDraft1Carolyn_lessNoise_PlusLocalization,2021.2.3,59.902958198245436,
crash.wav,crash.mpg,crash,3,A,Pink_Noise_3_1.wav,Pink_Noise_3_2.wav,,,,,,,,,,,,,,,0,62,62,53,,,,,,,,,,,,,,,,,,,,,,,934.2019342752174,None,935.718246805016,None,937.101880397182,None,crash,937.101880397182,None,return,1.2424883306957781,937.185437427368,None,,,,,,,,,,,,,,,,,,,,,,,,,,,,,,,,,,,,,,,158,001,2024_Jan_29_1647,SpeechDraft1Carolyn_lessNoise_PlusLocalization,2021.2.3,59.902958198245436,
desk.wav,desk.mpg,desk,1,AV,Pink_Noise_1_1.wav,Pink_Noise_1_2.wav,,,,,,,,,,,,,,,0,63,63,104,,,,,,,,,,,,,,,,,,,,,,,938.4518861682154,None,939.9682728732005,None,941.3521121130325,None,desk,941.3521121130325,None,return,0.9286224758252501,941.4352925950661,None,,,,,,,,,,,,,,,,,,,,,,,,,,,,,,,,,,,,,,,158,001,2024_Jan_29_1647,SpeechDraft1Carolyn_lessNoise_PlusLocalization,2021.2.3,59.902958198245436,
read.wav,read.mpg,read,4,A,Pink_Noise_4_1.wav,Pink_Noise_4_2.wav,,,,,,,,,,,,,,,0,64,64,58,,,,,,,,,,,,,,,,,,,,,,,942.385267122183,None,943.8850410412997,None,945.2686666571535,None,read,945.2686666571535,None,return,0.8119135000742972,945.3520109681413,None,,,,,,,,,,,,,,,,,,,,,,,,,,,,,,,,,,,,,,,158,001,2024_Jan_29_1647,SpeechDraft1Carolyn_lessNoise_PlusLocalization,2021.2.3,59.902958198245436,
beer.wav,beer.mpg,beer,5,A,Pink_Noise_5_1.wav,Pink_Noise_5_2.wav,,,,,,,,,,,,,,,0,65,65,51,,,,,,,,,,,,,,,,,,,,,,,946.1852751444094,None,947.6849243980832,None,949.068532562349,None,"real
",949.068532562349,None,return,1.0359532097354531,949.1519619603641,None,,,,,,,,,,,,,,,,,,,,,,,,,,,,,,,,,,,,,,,158,001,2024_Jan_29_1647,SpeechDraft1Carolyn_lessNoise_PlusLocalization,2021.2.3,59.902958198245436,
lost.wav,lost.mpg,lost,2,AV,Pink_Noise_2_1.wav,Pink_Noise_2_2.wav,,,,,,,,,,,,,,,0,66,66,65,,,,,,,,,,,,,,,,,,,,,,,950.2187269972637,None,951.7182967090048,None,953.1019192012027,None,"lost
",953.1019192012027,None,return,1.0185991120524704,953.1853233841248,None,,,,,,,,,,,,,,,,,,,,,,,,,,,,,,,,,,,,,,,158,001,2024_Jan_29_1647,SpeechDraft1Carolyn_lessNoise_PlusLocalization,2021.2.3,59.902958198245436,
bird.wav,bird.mpg,bird,3,A,Pink_Noise_3_1.wav,Pink_Noise_3_2.wav,,,,,,,,,,,,,,,0,67,67,57,,,,,,,,,,,,,,,,,,,,,,,954.2353597544134,None,955.734978907276,None,957.1187098440714,None,bird,957.1187098440714,None,return,0.8659692448563874,957.2020004140213,None,,,,,,,,,,,,,,,,,,,,,,,,,,,,,,,,,,,,,,,158,001,2024_Jan_29_1647,SpeechDraft1Carolyn_lessNoise_PlusLocalization,2021.2.3,59.902958198245436,
gash.wav,gash.mpg,gash,2,A,Pink_Noise_2_1.wav,Pink_Noise_2_2.wav,,,,,,,,,,,,,,,0,68,68,43,,,,,,,,,,,,,,,,,,,,,,,958.0853004702367,None,959.5849960623309,None,960.968749714084,None,gash,960.968749714084,None,return,0.759953835979104,961.0519471643493,None,,,,,,,,,,,,,,,,,,,,,,,,,,,,,,,,,,,,,,,158,001,2024_Jan_29_1647,SpeechDraft1Carolyn_lessNoise_PlusLocalization,2021.2.3,59.902958198245436,
gown.wav,gown.mpg,gown,4,AV,Pink_Noise_4_1.wav,Pink_Noise_4_2.wav,,,,,,,,,,,,,,,0,69,69,112,,,,,,,,,,,,,,,,,,,,,,,961.8354166783392,None,963.3350820410997,None,964.7186158862896,None,"elm
",964.7186158862896,None,return,2.217961889691651,964.8019634741358,None,,,,,,,,,,,,,,,,,,,,,,,,,,,,,,,,,,,,,,,158,001,2024_Jan_29_1647,SpeechDraft1Carolyn_lessNoise_PlusLocalization,2021.2.3,59.902958198245436,
dope.wav,dope.mpg,dope,2,A,Pink_Noise_2_1.wav,Pink_Noise_2_2.wav,,,,,,,,,,,,,,,0,70,70,4,,,,,,,,,,,,,,,,,,,,,,,967.0520010013133,None,968.5682537322864,None,969.9524625502527,None,dope,969.9524625502527,None,return,3.848756778985262,970.0352860172279,None,,,,,,,,,,,,,,,,,,,,,,,,,,,,,,,,,,,,,,,158,001,2024_Jan_29_1647,SpeechDraft1Carolyn_lessNoise_PlusLocalization,2021.2.3,59.902958198245436,
clown.wav,clown.mpg,clown,3,AV,Pink_Noise_3_1.wav,Pink_Noise_3_2.wav,,,,,,,,,,,,,,,0,71,71,71,,,,,,,,,,,,,,,,,,,,,,,973.9019920681603,None,975.4184156083502,None,976.8019814351574,None,clown,976.8019814351574,None,return,2.4145210846327245,976.8853935603984,None,,,,,,,,,,,,,,,,,,,,,,,,,,,,,,,,,,,,,,,158,001,2024_Jan_29_1647,SpeechDraft1Carolyn_lessNoise_PlusLocalization,2021.2.3,59.902958198245436,
green.wav,green.mpg,green,6,AV,Pink_Noise_6_1.wav,Pink_Noise_6_2.wav,,,,,,,,,,,,,,,0,72,72,77,,,,,,,,,,,,,,,,,,,,,,,979.3186174151488,None,980.8350938754156,None,982.2187042413279,None,green,982.2187042413279,None,return,1.5899210656061769,982.3020416083746,None,,,,,,,,,,,,,,,,,,,,,,,,,,,,,,,,,,,,,,,158,001,2024_Jan_29_1647,SpeechDraft1Carolyn_lessNoise_PlusLocalization,2021.2.3,59.902958198245436,
broom.wav,broom.mpg,broom,1,A,Pink_Noise_1_1.wav,Pink_Noise_1_2.wav,,,,,,,,,,,,,,,0,73,73,34,,,,,,,,,,,,,,,,,,,,,,,983.9187358664349,None,985.4182745204307,None,986.8020003600977,None,broom,986.8020003600977,None,return,1.0706142452545464,986.8852828750387,None,,,,,,,,,,,,,,,,,,,,,,,,,,,,,,,,,,,,,,,158,001,2024_Jan_29_1647,SpeechDraft1Carolyn_lessNoise_PlusLocalization,2021.2.3,59.902958198245436,
bug.wav,bug.mpg,bug,2,A,Pink_Noise_2_1.wav,Pink_Noise_2_2.wav,,,,,,,,,,,,,,,0,74,74,52,,,,,,,,,,,,,,,,,,,,,,,987.9854667042382,None,989.5017063519917,None,990.8853964260779,None,"bug
",990.8853964260779,None,return,0.6512900060042739,990.9686463661492,None,,,,,,,,,,,,,,,,,,,,,,,,,,,,,,,,,,,,,,,158,001,2024_Jan_29_1647,SpeechDraft1Carolyn_lessNoise_PlusLocalization,2021.2.3,59.902958198245436,
pop.wav,pop.mpg,pop,2,AV,Pink_Noise_2_1.wav,Pink_Noise_2_2.wav,,,,,,,,,,,,,,,0,75,75,78,,,,,,,,,,,,,,,,,,,,,,,991.6519832313061,None,993.1684220051393,None,994.551975433249,None,pop,994.551975433249,None,return,0.7605568021535873,994.635378211271,None,,,,,,,,,,,,,,,,,,,,,,,,,,,,,,,,,,,,,,,158,001,2024_Jan_29_1647,SpeechDraft1Carolyn_lessNoise_PlusLocalization,2021.2.3,59.902958198245436,
grape.wav,grape.mpg,grape,5,AV,Pink_Noise_5_1.wav,Pink_Noise_5_2.wav,,,,,,,,,,,,,,,0,76,76,63,,,,,,,,,,,,,,,,,,,,,,,995.4187186113559,None,996.935074551031,None,998.3019649144262,None,"grape
",998.3019649144262,None,return,1.2184790172614157,998.3854590943083,None,,,,,,,,,,,,,,,,,,,,,,,,,,,,,,,,,,,,,,,158,001,2024_Jan_29_1647,SpeechDraft1Carolyn_lessNoise_PlusLocalization,2021.2.3,59.902958198245436,
beard.wav,beard.mpg,beard,1,AV,Pink_Noise_1_1.wav,Pink_Noise_1_2.wav,,,,,,,,,,,,,,,0,77,77,97,,,,,,,,,,,,,,,,,,,,,,,999.6353750531562,None,1001.1358614792116,None,1002.5186234540306,None,"beard
",1002.5186234540306,None,return,0.9538274370133877,1002.6020836690441,None,,,,,,,,,,,,,,,,,,,,,,,,,,,,,,,,,,,,,,,158,001,2024_Jan_29_1647,SpeechDraft1Carolyn_lessNoise_PlusLocalization,2021.2.3,59.902958198245436,
fuss.wav,fuss.mpg,fuss,2,A,Pink_Noise_2_1.wav,Pink_Noise_2_2.wav,,,,,,,,,,,,,,,0,78,78,12,,,,,,,,,,,,,,,,,,,,,,,1003.5853494382463,None,1005.1015613414347,None,1006.485479298979,None,"bus
",1006.485479298979,None,return,0.8031593612395227,1006.5687503083609,None,,,,,,,,,,,,,,,,,,,,,,,,,,,,,,,,,,,,,,,158,001,2024_Jan_29_1647,SpeechDraft1Carolyn_lessNoise_PlusLocalization,2021.2.3,59.902958198245436,
gram.wav,gram.mpg,gram,2,AV,Pink_Noise_2_1.wav,Pink_Noise_2_2.wav,,,,,,,,,,,,,,,0,79,79,86,,,,,,,,,,,,,,,,,,,,,,,1007.402119145263,None,1008.9194759679958,None,1010.301914000418,None,gram,1010.301914000418,None,return,0.7067040191031992,1010.3853663983755,None,,,,,,,,,,,,,,,,,,,,,,,,,,,,,,,,,,,,,,,158,001,2024_Jan_29_1647,SpeechDraft1Carolyn_lessNoise_PlusLocalization,2021.2.3,59.902958198245436,
crank.wav,crank.mpg,crank,1,AV,Pink_Noise_1_1.wav,Pink_Noise_1_2.wav,,,,,,,,,,,,,,,0,80,80,81,,,,,,,,,,,,,,,,,,,,,,,1011.118856925983,None,1012.6352305081673,None,1014.0187533642165,None,crank,1014.0187533642165,None,return,5.229857195168734,1014.1021382263862,None,,,,,,,,,,,,,,,,,,,,,,,,,,,,,,,,,,,,,,,158,001,2024_Jan_29_1647,SpeechDraft1Carolyn_lessNoise_PlusLocalization,2021.2.3,59.902958198245436,
fur.wav,fur.mpg,fur,6,AV,Pink_Noise_6_1.wav,Pink_Noise_6_2.wav,,,,,,,,,,,,,,,0,81,81,80,,,,,,,,,,,,,,,,,,,,,,,1019.3520986801013,None,1020.8851084881462,None,1022.2689256430604,None,firm,1022.2689256430604,None,return,1.3238371070474386,1022.3521900502965,None,,,,,,,,,,,,,,,,,,,,,,,,,,,,,,,,,,,,,,,158,001,2024_Jan_29_1647,SpeechDraft1Carolyn_lessNoise_PlusLocalization,2021.2.3,59.902958198245436,
dock.wav,dock.mpg,dock,6,AV,Pink_Noise_6_1.wav,Pink_Noise_6_2.wav,,,,,,,,,,,,,,,0,82,82,74,,,,,,,,,,,,,,,,,,,,,,,1023.7019739630632,None,1025.2185378554277,None,1026.6022281344049,None,sty,1026.6022281344049,None,return,6.806550414301455,1026.6854529851116,None,,,,,,,,,,,,,,,,,,,,,,,,,,,,,,,,,,,,,,,158,001,2024_Jan_29_1647,SpeechDraft1Carolyn_lessNoise_PlusLocalization,2021.2.3,59.902958198245436,
traps.wav,traps.mpg,traps,2,A,Pink_Noise_2_1.wav,Pink_Noise_2_2.wav,,,,,,,,,,,,,,,0,83,83,25,,,,,,,,,,,,,,,,,,,,,,,1033.5186662240885,None,1035.0351472930051,None,1036.4187672110274,None,traps,1036.4187672110274,None,return,0.9819610812701285,1036.5020643579774,None,,,,,,,,,,,,,,,,,,,,,,,,,,,,,,,,,,,,,,,158,001,2024_Jan_29_1647,SpeechDraft1Carolyn_lessNoise_PlusLocalization,2021.2.3,59.902958198245436,
blow.wav,blow.mpg,blow,1,AV,Pink_Noise_1_1.wav,Pink_Noise_1_2.wav,,,,,,,,,,,,,,,0,84,84,72,,,,,,,,,,,,,,,,,,,,,,,1037.502080169972,None,1039.035145778209,None,1040.418712920975,None,blow,1040.418712920975,None,return,0.8457799279130995,1040.502151534427,None,,,,,,,,,,,,,,,,,,,,,,,,,,,,,,,,,,,,,,,158,001,2024_Jan_29_1647,SpeechDraft1Carolyn_lessNoise_PlusLocalization,2021.2.3,59.902958198245436,
sake.wav,sake.mpg,sake,4,A,Pink_Noise_4_1.wav,Pink_Noise_4_2.wav,,,,,,,,,,,,,,,0,85,85,13,,,,,,,,,,,,,,,,,,,,,,,1041.3687279820442,None,1042.885135305114,None,1044.2686533103697,None,sick,1044.2686533103697,None,return,0.9958220762200654,1044.3521156120114,None,,,,,,,,,,,,,,,,,,,,,,,,,,,,,,,,,,,,,,,158,001,2024_Jan_29_1647,SpeechDraft1Carolyn_lessNoise_PlusLocalization,2021.2.3,59.902958198245436,
round.wav,round.mpg,round,5,A,Pink_Noise_5_1.wav,Pink_Noise_5_2.wav,,,,,,,,,,,,,,,0,86,86,17,,,,,,,,,,,,,,,,,,,,,,,1045.3687351332046,None,1046.8851813552901,None,1048.269070439972,None,lain,1048.269070439972,None,return,0.7799006891436875,1048.3520926400088,None,,,,,,,,,,,,,,,,,,,,,,,,,,,,,,,,,,,,,,,158,001,2024_Jan_29_1647,SpeechDraft1Carolyn_lessNoise_PlusLocalization,2021.2.3,59.902958198245436,
fake.wav,fake.mpg,fake,5,AV,Pink_Noise_5_1.wav,Pink_Noise_5_2.wav,,,,,,,,,,,,,,,0,87,87,70,,,,,,,,,,,,,,,,,,,,,,,1049.152085911017,None,1050.6684492221102,None,1052.052333517,None,fein,1052.052333517,None,return,8.36453405302018,1052.1353817172348,None,,,,,,,,,,,,,,,,,,,,,,,,,,,,,,,,,,,,,,,158,001,2024_Jan_29_1647,SpeechDraft1Carolyn_lessNoise_PlusLocalization,2021.2.3,59.902958198245436,
fat.wav,fat.mpg,fat,2,AV,Pink_Noise_2_1.wav,Pink_Noise_2_2.wav,,,,,,,,,,,,,,,0,88,88,110,,,,,,,,,,,,,,,,,,,,,,,1060.5187701741233,None,1062.051850500051,None,1063.4356756024063,None,"fat
",1063.4356756024063,None,return,0.7171290121041238,1063.5187857970595,None,,,,,,,,,,,,,,,,,,,,,,,,,,,,,,,,,,,,,,,158,001,2024_Jan_29_1647,SpeechDraft1Carolyn_lessNoise_PlusLocalization,2021.2.3,59.902958198245436,
fist.wav,fist.mpg,fist,2,A,Pink_Noise_2_1.wav,Pink_Noise_2_2.wav,,,,,,,,,,,,,,,0,89,89,19,,,,,,,,,,,,,,,,,,,,,,,1064.268813086208,None,1065.7852512891404,None,1067.168798528146,None,fist,1067.168798528146,None,return,0.6958181532099843,1067.2521149520762,None,,,,,,,,,,,,,,,,,,,,,,,,,,,,,,,,,,,,,,,158,001,2024_Jan_29_1647,SpeechDraft1Carolyn_lessNoise_PlusLocalization,2021.2.3,59.902958198245436,
grip.wav,grip.mpg,grip,5,A,Pink_Noise_5_1.wav,Pink_Noise_5_2.wav,,,,,,,,,,,,,,,0,90,90,56,,,,,,,,,,,,,,,,,,,,,,,1067.9687593951821,None,1069.5018799030222,None,1070.8854706860147,None,brick,1070.8854706860147,None,return,1.4912187806330621,1070.9687941162847,None,,,,,,,,,,,,,,,,,,,,,,,,,,,,,,,,,,,,,,,158,001,2024_Jan_29_1647,SpeechDraft1Carolyn_lessNoise_PlusLocalization,2021.2.3,59.902958198245436,
coach.wav,coach.mpg,coach,3,AV,Pink_Noise_3_1.wav,Pink_Noise_3_2.wav,,,,,,,,,,,,,,,0,91,91,64,,,,,,,,,,,,,,,,,,,,,,,1072.4855184913613,None,1074.0019400790334,None,1075.385485609062,None,coach,1075.385485609062,None,return,0.799246734008193,1075.4687913493253,None,,,,,,,,,,,,,,,,,,,,,,,,,,,,,,,,,,,,,,,158,001,2024_Jan_29_1647,SpeechDraft1Carolyn_lessNoise_PlusLocalization,2021.2.3,59.902958198245436,
chest.wav,chest.mpg,chest,6,AV,Pink_Noise_6_1.wav,Pink_Noise_6_2.wav,,,,,,,,,,,,,,,0,92,92,114,,,,,,,,,,,,,,,,,,,,,,,1076.285487034358,None,1077.801816527266,None,1079.1854670383036,None,jest,1079.1854670383036,None,return,2.6232563387602568,1079.268782949075,None,,,,,,,,,,,,,,,,,,,,,,,,,,,,,,,,,,,,,,,158,001,2024_Jan_29_1647,SpeechDraft1Carolyn_lessNoise_PlusLocalization,2021.2.3,59.902958198245436,
dense.wav,dense.mpg,dense,6,A,Pink_Noise_6_1.wav,Pink_Noise_6_2.wav,,,,,,,,,,,,,,,0,93,93,10,,,,,,,,,,,,,,,,,,,,,,,1081.9187720292248,None,1083.4352443460375,None,1084.8188762743957,None,makes,1084.8188762743957,None,return,3.981783017050475,1084.9022136582062,None,,,,,,,,,,,,,,,,,,,,,,,,,,,,,,,,,,,,,,,158,001,2024_Jan_29_1647,SpeechDraft1Carolyn_lessNoise_PlusLocalization,2021.2.3,59.902958198245436,
bass.wav,bass.mpg,bass,4,A,Pink_Noise_4_1.wav,Pink_Noise_4_2.wav,,,,,,,,,,,,,,,0,94,94,48,,,,,,,,,,,,,,,,,,,,,,,1088.902120594401,None,1090.4353263233788,None,1091.8189079440199,None,"base
",1091.8189079440199,None,return,0.8697168212383986,1091.9022001354024,None,,,,,,,,,,,,,,,,,,,,,,,,,,,,,,,,,,,,,,,158,001,2024_Jan_29_1647,SpeechDraft1Carolyn_lessNoise_PlusLocalization,2021.2.3,59.902958198245436,
none.wav,none.mpg,none,5,AV,Pink_Noise_5_1.wav,Pink_Noise_5_2.wav,,,,,,,,,,,,,,,0,95,95,92,,,,,,,,,,,,,,,,,,,,,,,1092.8021657131612,None,1094.3185692140833,None,1095.702250905335,None,dime,1095.702250905335,None,return,0.6825777748599648,1095.785431717988,None,,,,,,,,,,,,,,,,,,,,,,,,,,,,,,,,,,,,,,,158,001,2024_Jan_29_1647,SpeechDraft1Carolyn_lessNoise_PlusLocalization,2021.2.3,59.902958198245436,
fowl.wav,fowl.mpg,fowl,6,A,Pink_Noise_6_1.wav,Pink_Noise_6_2.wav,,,,,,,,,,,,,,,0,96,96,35,,,,,,,,,,,,,,,,,,,,,,,1096.4857178074308,None,1098.0020062453113,None,1099.3855131603777,None,eye,1099.3855131603777,None,return,0.607170183211565,1099.468821639195,None,,,,,,,,,,,,,,,,,,,,,,,,,,,,,,,,,,,,,,,158,001,2024_Jan_29_1647,SpeechDraft1Carolyn_lessNoise_PlusLocalization,2021.2.3,59.902958198245436,
bite.wav,bite.mpg,bite,2,AV,Pink_Noise_2_1.wav,Pink_Noise_2_2.wav,,,,,,,,,,,,,,,0,97,97,93,,,,,,,,,,,,,,,,,,,,,,,1100.1021370859817,None,1101.6200290811248,None,1103.002509127371,None,bite,1103.002509127371,None,return,0.8542115529999137,1103.0856835274026,None,,,,,,,,,,,,,,,,,,,,,,,,,,,,,,,,,,,,,,,158,001,2024_Jan_29_1647,SpeechDraft1Carolyn_lessNoise_PlusLocalization,2021.2.3,59.902958198245436,
cone.wav,cone.mpg,cone,3,AV,Pink_Noise_3_1.wav,Pink_Noise_3_2.wav,,,,,,,,,,,,,,,0,98,98,94,,,,,,,,,,,,,,,,,,,,,,,1103.968866482377,None,1105.5019874572754,None,1106.885436959099,None,cone,1106.885436959099,None,return,2.5951264589093626,1106.96878736699,None,,,,,,,,,,,,,,,,,,,,,,,,,,,,,,,,,,,,,,,158,001,2024_Jan_29_1647,SpeechDraft1Carolyn_lessNoise_PlusLocalization,2021.2.3,59.902958198245436,
grill.wav,grill.mpg,grill,1,AV,Pink_Noise_1_1.wav,Pink_Noise_1_2.wav,,,,,,,,,,,,,,,0,99,99,111,,,,,,,,,,,,,,,,,,,,,,,1109.5855619711801,None,1111.1185796302743,None,1112.5023530703038,None,grill,1112.5023530703038,None,return,1.5543984519317746,1112.5855283923447,None,,,,,,,,,,,,,,,,,,,,,,,,,,,,,,,,,,,,,,,158,001,2024_Jan_29_1647,SpeechDraft1Carolyn_lessNoise_PlusLocalization,2021.2.3,59.902958198245436,
axe.wav,axe.mpg,axe,3,AV,Pink_Noise_3_1.wav,Pink_Noise_3_2.wav,,,,,,,,,,,,,,,0,100,100,105,,,,,,,,,,,,,,,,,,,,,,,1114.1688141492195,None,1115.6852157791145,None,1117.0687999222428,None,ask,1117.0687999222428,None,return,1.1076400042511523,1117.1522905593738,None,,,,,,,,,,,,,,,,,,,,,,,,,,,,,,,,,,,,,,,158,001,2024_Jan_29_1647,SpeechDraft1Carolyn_lessNoise_PlusLocalization,2021.2.3,59.902958198245436,
snake.wav,snake.mpg,snake,1,A,Pink_Noise_1_1.wav,Pink_Noise_1_2.wav,,,,,,,,,,,,,,,0,101,101,24,,,,,,,,,,,,,,,,,,,,,,,1118.2855329969898,None,1119.801866182126,None,1121.1855882103555,None,snake,1121.1855882103555,None,return,0.8950617266818881,1121.268863486126,None,,,,,,,,,,,,,,,,,,,,,,,,,,,,,,,,,,,,,,,158,001,2024_Jan_29_1647,SpeechDraft1Carolyn_lessNoise_PlusLocalization,2021.2.3,59.902958198245436,
fine.wav,fine.mpg,fine,2,A,Pink_Noise_2_1.wav,Pink_Noise_2_2.wav,,,,,,,,,,,,,,,0,102,102,47,,,,,,,,,,,,,,,,,,,,,,,1122.1855000173673,None,1123.7019133642316,None,1125.0855451910757,None,find,1125.0855451910757,None,return,0.7790443510748446,1125.1688648820855,None,,,,,,,,,,,,,,,,,,,,,,,,,,,,,,,,,,,,,,,158,001,2024_Jan_29_1647,SpeechDraft1Carolyn_lessNoise_PlusLocalization,2021.2.3,59.902958198245436,
slick.wav,slick.mpg,slick,3,A,Pink_Noise_3_1.wav,Pink_Noise_3_2.wav,,,,,,,,,,,,,,,0,103,103,39,,,,,,,,,,,,,,,,,,,,,,,1125.968858643435,None,1127.4702013260685,None,1128.8526482540183,None,slick,1128.8526482540183,None,return,0.7164483228698373,1128.9356088410132,None,,,,,,,,,,,,,,,,,,,,,,,,,,,,,,,,,,,,,,,158,001,2024_Jan_29_1647,SpeechDraft1Carolyn_lessNoise_PlusLocalization,2021.2.3,59.902958198245436,
cruel.wav,cruel.mpg,cruel,5,AV,Pink_Noise_5_1.wav,Pink_Noise_5_2.wav,,,,,,,,,,,,,,,0,104,104,89,,,,,,,,,,,,,,,,,,,,,,,1129.6689004399814,None,1131.1855467041023,None,1132.5689740022644,None,cool,1132.5689740022644,None,return,0.8717377469874918,1132.6521789752878,None,,,,,,,,,,,,,,,,,,,,,,,,,,,,,,,,,,,,,,,158,001,2024_Jan_29_1647,SpeechDraft1Carolyn_lessNoise_PlusLocalization,2021.2.3,59.902958198245436,
style.wav,style.mpg,style,3,AV,Pink_Noise_3_1.wav,Pink_Noise_3_2.wav,,,,,,,,,,,,,,,0,105,105,98,,,,,,,,,,,,,,,,,,,,,,,1133.5522424969822,None,1135.0687428731471,None,1136.452337351162,None,style,1136.452337351162,None,return,1.1723395241424441,1136.5355772613548,None,,,,,,,,,,,,,,,,,,,,,,,,,,,,,,,,,,,,,,,158,001,2024_Jan_29_1647,SpeechDraft1Carolyn_lessNoise_PlusLocalization,2021.2.3,59.902958198245436,
fill.wav,fill.mpg,fill,5,A,Pink_Noise_5_1.wav,Pink_Noise_5_2.wav,,,,,,,,,,,,,,,0,106,106,15,,,,,,,,,,,,,,,,,,,,,,,1137.7354981321841,None,1139.2686020703986,None,1140.6522647701204,None,"bill
",1140.6522647701204,None,return,3.284333231858909,1140.7355883582495,None,,,,,,,,,,,,,,,,,,,,,,,,,,,,,,,,,,,,,,,158,001,2024_Jan_29_1647,SpeechDraft1Carolyn_lessNoise_PlusLocalization,2021.2.3,59.902958198245436,
cart.wav,cart.mpg,cart,1,AV,Pink_Noise_1_1.wav,Pink_Noise_1_2.wav,,,,,,,,,,,,,,,0,107,107,62,,,,,,,,,,,,,,,,,,,,,,,1144.0522820991464,None,1145.5852892012335,None,1146.96907959925,None,cart,1146.96907959925,None,return,1.0636700349859893,1147.052321152296,None,,,,,,,,,,,,,,,,,,,,,,,,,,,,,,,,,,,,,,,158,001,2024_Jan_29_1647,SpeechDraft1Carolyn_lessNoise_PlusLocalization,2021.2.3,59.902958198245436,
dial.wav,dial.mpg,dial,6,AV,Pink_Noise_6_1.wav,Pink_Noise_6_2.wav,,,,,,,,,,,,,,,0,108,108,76,,,,,,,,,,,,,,,,,,,,,,,1148.1356330900453,None,1149.6519731259905,None,1151.0353161590174,None,style,1151.0353161590174,None,return,1.221045000012964,1151.1188701801002,None,,,,,,,,,,,,,,,,,,,,,,,,,,,,,,,,,,,,,,,158,001,2024_Jan_29_1647,SpeechDraft1Carolyn_lessNoise_PlusLocalization,2021.2.3,59.902958198245436,
fresh.wav,fresh.mpg,fresh,6,AV,Pink_Noise_6_1.wav,Pink_Noise_6_2.wav,,,,,,,,,,,,,,,0,109,109,75,,,,,,,,,,,,,,,,,,,,,,,1152.3689026623033,None,1153.9019929212518,None,1155.2856626780704,None,fresh,1155.2856626780704,None,return,2.274971495848149,1155.3689304562286,None,,,,,,,,,,,,,,,,,,,,,,,,,,,,,,,,,,,,,,,158,001,2024_Jan_29_1647,SpeechDraft1Carolyn_lessNoise_PlusLocalization,2021.2.3,59.902958198245436,
clot.wav,clot.mpg,clot,3,AV,Pink_Noise_3_1.wav,Pink_Noise_3_2.wav,,,,,,,,,,,,,,,0,110,110,84,,,,,,,,,,,,,,,,,,,,,,,1157.6688744784333,None,1159.1854699933901,None,1160.5688491989858,None,"glad
",1160.5688491989858,None,return,3.7196499090641737,1160.6522647640668,None,,,,,,,,,,,,,,,,,,,,,,,,,,,,,,,,,,,,,,,158,001,2024_Jan_29_1647,SpeechDraft1Carolyn_lessNoise_PlusLocalization,2021.2.3,59.902958198245436,
peach.wav,peach.mpg,peach,4,AV,Pink_Noise_4_1.wav,Pink_Noise_4_2.wav,,,,,,,,,,,,,,,0,111,111,66,,,,,,,,,,,,,,,,,,,,,,,1164.4023308362812,None,1165.952015163377,None,1167.3355958689936,None,"beach
",1167.3355958689936,None,return,1.0170421418733895,1167.4188804710284,None,,,,,,,,,,,,,,,,,,,,,,,,,,,,,,,,,,,,,,,158,001,2024_Jan_29_1647,SpeechDraft1Carolyn_lessNoise_PlusLocalization,2021.2.3,59.902958198245436,
fruit.wav,fruit.mpg,fruit,1,AV,Pink_Noise_1_1.wav,Pink_Noise_1_2.wav,,,,,,,,,,,,,,,0,112,112,117,,,,,,,,,,,,,,,,,,,,,,,1168.4689192352816,None,1169.9853668534197,None,1171.3691641590558,None,fruit,1171.3691641590558,None,return,1.0875763609074056,1171.4523207731545,None,,,,,,,,,,,,,,,,,,,,,,,,,,,,,,,,,,,,,,,158,001,2024_Jan_29_1647,SpeechDraft1Carolyn_lessNoise_PlusLocalization,2021.2.3,59.902958198245436,
cling.wav,cling.mpg,cling,4,A,Pink_Noise_4_1.wav,Pink_Noise_4_2.wav,,,,,,,,,,,,,,,0,113,113,0,,,,,,,,,,,,,,,,,,,,,,,1172.5690715811215,None,1174.0853178920224,None,1175.468949505128,None,"cream
",1175.468949505128,None,return,1.2355983327142894,1175.5523208151571,None,,,,,,,,,,,,,,,,,,,,,,,,,,,,,,,,,,,,,,,158,001,2024_Jan_29_1647,SpeechDraft1Carolyn_lessNoise_PlusLocalization,2021.2.3,59.902958198245436,
grind.wav,grind.mpg,grind,1,A,Pink_Noise_1_1.wav,Pink_Noise_1_2.wav,,,,,,,,,,,,,,,0,114,114,21,,,,,,,,,,,,,,,,,,,,,,,1176.818926406093,None,1178.3352886764333,None,1179.7189230290242,None,grind,1179.7189230290242,None,return,0.9057746450416744,1179.8022854090668,None,,,,,,,,,,,,,,,,,,,,,,,,,,,,,,,,,,,,,,,158,001,2024_Jan_29_1647,SpeechDraft1Carolyn_lessNoise_PlusLocalization,2021.2.3,59.902958198245436,
drop.wav,drop.mpg,drop,5,A,Pink_Noise_5_1.wav,Pink_Noise_5_2.wav,,,,,,,,,,,,,,,0,115,115,27,,,,,,,,,,,,,,,,,,,,,,,1180.7356144851074,None,1182.2519374443218,None,1183.635688430164,None,gosh,1183.635688430164,None,return,1.2609260007739067,1183.7189865321852,None,,,,,,,,,,,,,,,,,,,,,,,,,,,,,,,,,,,,,,,158,001,2024_Jan_29_1647,SpeechDraft1Carolyn_lessNoise_PlusLocalization,2021.2.3,59.902958198245436,
fund.wav,fund.mpg,fund,5,AV,Pink_Noise_5_1.wav,Pink_Noise_5_2.wav,,,,,,,,,,,,,,,0,116,116,67,,,,,,,,,,,,,,,,,,,,,,,1185.0024052681401,None,1186.5187508002855,None,1187.9022475313395,None,fire,1187.9022475313395,None,return,1.1942891492508352,1187.9856389272027,None,,,,,,,,,,,,,,,,,,,,,,,,,,,,,,,,,,,,,,,158,001,2024_Jan_29_1647,SpeechDraft1Carolyn_lessNoise_PlusLocalization,2021.2.3,59.902958198245436,
warmth.wav,warmth.mpg,warmth,3,AV,Pink_Noise_3_1.wav,Pink_Noise_3_2.wav,,,,,,,,,,,,,,,0,117,117,113,,,,,,,,,,,,,,,,,,,,,,,1189.2024089200422,None,1190.7354268194176,None,1192.119014938362,None,warmth,1192.119014938362,None,return,1.777588365599513,1192.20233082911,None,,,,,,,,,,,,,,,,,,,,,,,,,,,,,,,,,,,,,,,158,001,2024_Jan_29_1647,SpeechDraft1Carolyn_lessNoise_PlusLocalization,2021.2.3,59.902958198245436,
brow.wav,brow.mpg,brow,1,AV,Pink_Noise_1_1.wav,Pink_Noise_1_2.wav,,,,,,,,,,,,,,,0,118,118,60,,,,,,,,,,,,,,,,,,,,,,,1194.0022692233324,None,1195.5686715822667,None,1196.952396353241,None,brow,1196.952396353241,None,return,0.9123153639957309,1197.0356252184138,None,,,,,,,,,,,,,,,,,,,,,,,,,,,,,,,,,,,,,,,158,001,2024_Jan_29_1647,SpeechDraft1Carolyn_lessNoise_PlusLocalization,2021.2.3,59.902958198245436,
fluent.wav,fluent.mpg,fluent,5,AV,Pink_Noise_5_1.wav,Pink_Noise_5_2.wav,,,,,,,,,,,,,,,0,119,119,107,,,,,,,,,,,,,,,,,,,,,,,1197.9689371762797,None,1199.6862560193986,None,1201.0691138892435,None,fluid,1201.0691138892435,None,return,1.0116341360844672,1201.1522860541008,None,,,,,,,,,,,,,,,,,,,,,,,,,,,,,,,,,,,,,,,158,001,2024_Jan_29_1647,SpeechDraft1Carolyn_lessNoise_PlusLocalization,2021.2.3,59.902958198245436,
,,,,,,,,,,,,,,,,,,,,,,,,,,,,,,,,,,,,,,,,,,,,,,,,,,,,,,,,,,,,,,,,,,space,16.862222200259566,1202.2857074462809,None,,,,,,,,,,,,,,,,,,,,,,,,,,,,,158,001,2024_Jan_29_1647,SpeechDraft1Carolyn_lessNoise_PlusLocalization,2021.2.3,59.902958198245436,
,,,,,,,,midLeft,-13.0,2,ch1Sound_localizationTask.wav,-13.0,"(762, 878)","(-198,-202)",-190,-338,,,,,,,,,0,0,0,1,,,,,,,,,,,,,,,,,,,,,,,,,,,,,,,,,,,,,,,,,,1202.2857074462809,None,1219.1853813230991,None,1220.3030313323252,None,1221.2186859403737,None,1.3862433862433863,1.5534630166366696,1221.2186859403737,None,,,,,,,,,,,,,,,,,158,001,2024_Jan_29_1647,SpeechDraft1Carolyn_lessNoise_PlusLocalization,2021.2.3,59.902958198245436,
,,,,,,,,nearLeft,-6.5,1,ch1Sound_localizationTask.wav,-6.5,"(857, 878)","(-103,-202)",-95,-338,,,,,,,,,0,1,1,2,,,,,,,,,,,,,,,,,,,,,,,,,,,,,,,,,,,,,,,,,,,,1222.7858829470351,None,1223.8854636503384,None,1224.8186189811677,None,1.4174603174603175,0.8831879501231015,1224.8186189811677,None,,,,,,,,,,,,,,,,,158,001,2024_Jan_29_1647,SpeechDraft1Carolyn_lessNoise_PlusLocalization,2021.2.3,59.902958198245436,
,,,,,,,,farRight,19.1,4,ch1Sound_localizationTask.wav,19.1,"(1237, 878)","(277,-202)",285,-338,,,,,,,,,0,2,2,6,,,,,,,,,,,,,,,,,,,,,,,,,,,,,,,,,,,,,,,,,,,,1225.704457221087,None,1226.818691487424,None,1227.7353831212968,None,1.7195767195767195,1.1827298486605287,1227.7353831212968,None,,,,,,,,,,,,,,,,,158,001,2024_Jan_29_1647,SpeechDraft1Carolyn_lessNoise_PlusLocalization,2021.2.3,59.902958198245436,
,,,,,,,,nearLeft,-6.5,1,ch1Sound_localizationTask.wav,-6.5,"(857, 878)","(-103,-202)",-95,-338,,,,,,,,,0,3,3,2,,,,,,,,,,,,,,,,,,,,,,,,,,,,,,,,,,,,,,,,,,,,1228.9200203921646,None,1230.0354349082336,None,1230.9521328629926,None,1.4497354497354498,1.116601516958326,1230.9521328629926,None,,,,,,,,,,,,,,,,,158,001,2024_Jan_29_1647,SpeechDraft1Carolyn_lessNoise_PlusLocalization,2021.2.3,59.902958198245436,
,,,,,,,,nearRight,6.5,0,ch1Sound_localizationTask.wav,6.5,"(1047, 878)","(87, -202)",95,-338,,,,,,,,,0,4,4,4,,,,,,,,,,,,,,,,,,,,,,,,,,,,,,,,,,,,,,,,,,,,1232.0858781333081,None,1233.1853129332885,None,1234.1187836141326,None,1.5544973544973546,0.9165736371651292,1234.1187836141326,None,,,,,,,,,,,,,,,,,158,001,2024_Jan_29_1647,SpeechDraft1Carolyn_lessNoise_PlusLocalization,2021.2.3,59.902958198245436,
,,,,,,,,nearRight,6.5,0,ch1Sound_localizationTask.wav,6.5,"(1047, 878)","(87, -202)",95,-338,,,,,,,,,0,5,5,4,,,,,,,,,,,,,,,,,,,,,,,,,,,,,,,,,,,,,,,,,,,,1235.0525640971027,None,1236.1520695253275,None,1237.0854217354208,None,1.5624338624338625,1.1337992399930954,1237.0854217354208,None,,,,,,,,,,,,,,,,,158,001,2024_Jan_29_1647,SpeechDraft1Carolyn_lessNoise_PlusLocalization,2021.2.3,59.902958198245436,
,,,,,,,,center,0.0,6,ch1Sound_localizationTask.wav,0.0,"(952, 878)","(-8,-202)",0,-338,,,,,,,,,0,6,6,3,,,,,,,,,,,,,,,,,,,,,,,,,,,,,,,,,,,,,,,,,,,,1238.2357363742776,None,1239.335393982008,None,1240.2687459820881,None,1.519047619047619,0.9836878273636103,1240.2687459820881,None,,,,,,,,,,,,,,,,,158,001,2024_Jan_29_1647,SpeechDraft1Carolyn_lessNoise_PlusLocalization,2021.2.3,59.902958198245436,
,,,,,,,,midRight,13.0,3,ch1Sound_localizationTask.wav,13.0,"(1142, 878)","(182, -202)",190,-338,,,,,,,,,1,0,7,5,,,,,,,,,,,,,,,,,,,,,,,,,,,,,,,,,,,,,,,,,,,,1241.254018491134,None,1242.3687912020832,None,1243.285317574162,None,1.564021164021164,0.8985499846749008,1243.285317574162,None,,,,,,,,,,,,,,,,,158,001,2024_Jan_29_1647,SpeechDraft1Carolyn_lessNoise_PlusLocalization,2021.2.3,59.902958198245436,
,,,,,,,,midLeft,-13.0,2,ch1Sound_localizationTask.wav,-13.0,"(762, 878)","(-198,-202)",-190,-338,,,,,,,,,1,1,8,1,,,,,,,,,,,,,,,,,,,,,,,,,,,,,,,,,,,,,,,,,,,,1244.185677292291,None,1245.2856563953683,None,1246.2187829981558,None,1.3703703703703702,0.9333635219372809,1246.2187829981558,None,,,,,,,,,,,,,,,,,158,001,2024_Jan_29_1647,SpeechDraft1Carolyn_lessNoise_PlusLocalization,2021.2.3,59.902958198245436,
,,,,,,,,center,0.0,6,ch1Sound_localizationTask.wav,0.0,"(952, 878)","(-8,-202)",0,-338,,,,,,,,,1,2,9,3,,,,,,,,,,,,,,,,,,,,,,,,,,,,,,,,,,,,,,,,,,,,1247.1690616044216,None,1248.2688618851826,None,1249.2020322512835,None,1.4968253968253968,0.7174344141967595,1249.2020322512835,None,,,,,,,,,,,,,,,,,158,001,2024_Jan_29_1647,SpeechDraft1Carolyn_lessNoise_PlusLocalization,2021.2.3,59.902958198245436,
,,,,,,,,midRight,13.0,3,ch1Sound_localizationTask.wav,13.0,"(1142, 878)","(182, -202)",190,-338,,,,,,,,,1,3,10,5,,,,,,,,,,,,,,,,,,,,,,,,,,,,,,,,,,,,,,,,,,,,1249.9358632112853,None,1251.0354848080315,None,1251.9689119323157,None,1.5989417989417989,0.8998272274620831,1251.9689119323157,None,,,,,,,,,,,,,,,,,158,001,2024_Jan_29_1647,SpeechDraft1Carolyn_lessNoise_PlusLocalization,2021.2.3,59.902958198245436,
,,,,,,,,midLeft,-13.0,2,ch1Sound_localizationTask.wav,-13.0,"(762, 878)","(-198,-202)",-190,-338,,,,,,,,,1,4,11,1,,,,,,,,,,,,,,,,,,,,,,,,,,,,,,,,,,,,,,,,,,,,1252.8707754923962,None,1253.985410831403,None,1254.9020746722817,None,1.380952380952381,1.3329305667430162,1254.9020746722817,None,,,,,,,,,,,,,,,,,158,001,2024_Jan_29_1647,SpeechDraft1Carolyn_lessNoise_PlusLocalization,2021.2.3,59.902958198245436,
,,,,,,,,nearRight,6.5,0,ch1Sound_localizationTask.wav,6.5,"(1047, 878)","(87, -202)",95,-338,,,,,,,,,1,5,12,4,,,,,,,,,,,,,,,,,,,,,,,,,,,,,,,,,,,,,,,,,,,,1256.2523843650706,None,1257.3520849170163,None,1258.285664673429,None,1.5084656084656085,0.9325372278690338,1258.285664673429,None,,,,,,,,,,,,,,,,,158,001,2024_Jan_29_1647,SpeechDraft1Carolyn_lessNoise_PlusLocalization,2021.2.3,59.902958198245436,
,,,,,,,,farLeft,-19.1,5,ch1Sound_localizationTask.wav,-19.1,"(667, 878)","(-293,-202)",-285,-338,,,,,,,,,1,6,13,0,,,,,,,,,,,,,,,,,,,,,,,,,,,,,,,,,,,,,,,,,,,,1259.220609233249,None,1260.3353631952778,None,1261.2521108090878,None,1.3391534391534392,0.9332453636452556,1261.2521108090878,None,,,,,,,,,,,,,,,,,158,001,2024_Jan_29_1647,SpeechDraft1Carolyn_lessNoise_PlusLocalization,2021.2.3,59.902958198245436,
,,,,,,,,center,0.0,6,ch1Sound_localizationTask.wav,0.0,"(952, 878)","(-8,-202)",0,-338,,,,,,,,,2,0,14,3,,,,,,,,,,,,,,,,,,,,,,,,,,,,,,,,,,,,,,,,,,,,1262.1870879372582,None,1263.3020284459926,None,1264.218835699372,None,1.4677248677248678,0.8663867521099746,1264.218835699372,None,,,,,,,,,,,,,,,,,158,001,2024_Jan_29_1647,SpeechDraft1Carolyn_lessNoise_PlusLocalization,2021.2.3,59.902958198245436,
,,,,,,,,center,0.0,6,ch1Sound_localizationTask.wav,0.0,"(952, 878)","(-8,-202)",0,-338,,,,,,,,,2,1,15,3,,,,,,,,,,,,,,,,,,,,,,,,,,,,,,,,,,,,,,,,,,,,1265.0867952019908,None,1266.2021735911258,None,1267.118784247432,None,1.4597883597883599,0.6336735370568931,1267.118784247432,None,,,,,,,,,,,,,,,,,158,001,2024_Jan_29_1647,SpeechDraft1Carolyn_lessNoise_PlusLocalization,2021.2.3,59.902958198245436,
,,,,,,,,midRight,13.0,3,ch1Sound_localizationTask.wav,13.0,"(1142, 878)","(182, -202)",190,-338,,,,,,,,,2,2,16,5,,,,,,,,,,,,,,,,,,,,,,,,,,,,,,,,,,,,,,,,,,,,1267.7691284981556,None,1268.8688218113966,None,1269.8019862491637,None,1.552910052910053,0.6159920780919492,1269.8019862491637,None,,,,,,,,,,,,,,,,,158,001,2024_Jan_29_1647,SpeechDraft1Carolyn_lessNoise_PlusLocalization,2021.2.3,59.902958198245436,
,,,,,,,,nearLeft,-6.5,1,ch1Sound_localizationTask.wav,-6.5,"(857, 878)","(-103,-202)",-95,-338,,,,,,,,,2,3,17,2,,,,,,,,,,,,,,,,,,,,,,,,,,,,,,,,,,,,,,,,,,,,1270.420464686118,None,1271.5355576821603,None,1272.4521376173943,None,1.453968253968254,0.6394209759309888,1272.4521376173943,None,,,,,,,,,,,,,,,,,158,001,2024_Jan_29_1647,SpeechDraft1Carolyn_lessNoise_PlusLocalization,2021.2.3,59.902958198245436,
,,,,,,,,farRight,19.1,4,ch1Sound_localizationTask.wav,19.1,"(1237, 878)","(277,-202)",285,-338,,,,,,,,,2,4,18,6,,,,,,,,,,,,,,,,,,,,,,,,,,,,,,,,,,,,,,,,,,,,1273.1038114312105,None,1274.218803551048,None,1275.1355288759805,None,1.6142857142857143,0.6661772239021957,1275.1355288759805,None,,,,,,,,,,,,,,,,,158,001,2024_Jan_29_1647,SpeechDraft1Carolyn_lessNoise_PlusLocalization,2021.2.3,59.902958198245436,
,,,,,,,,farLeft,-19.1,5,ch1Sound_localizationTask.wav,-19.1,"(667, 878)","(-293,-202)",-285,-338,,,,,,,,,2,5,19,0,,,,,,,,,,,,,,,,,,,,,,,,,,,,,,,,,,,,,,,,,,,,1275.803733106237,None,1276.9187587252818,None,1277.8354176962748,None,1.2703703703703704,0.9166287039406598,1277.8354176962748,None,,,,,,,,,,,,,,,,,158,001,2024_Jan_29_1647,SpeechDraft1Carolyn_lessNoise_PlusLocalization,2021.2.3,59.902958198245436,
,,,,,,,,center,0.0,6,ch1Sound_localizationTask.wav,0.0,"(952, 878)","(-8,-202)",0,-338,,,,,,,,,2,6,20,3,,,,,,,,,,,,,,,,,,,,,,,,,,,,,,,,,,,,,,,,,,,,1278.753880691249,None,1279.8688303050585,None,1280.7855170052499,None,1.4793650793650794,0.8492959518916905,1280.7855170052499,None,,,,,,,,,,,,,,,,,158,001,2024_Jan_29_1647,SpeechDraft1Carolyn_lessNoise_PlusLocalization,2021.2.3,59.902958198245436,
,,,,,,,,nearLeft,-6.5,1,ch1Sound_localizationTask.wav,-6.5,"(857, 878)","(-103,-202)",-95,-338,,,,,,,,,3,0,21,2,,,,,,,,,,,,,,,,,,,,,,,,,,,,,,,,,,,,,,,,,,,,1281.6368999751285,None,1282.7521846150048,None,1283.6688400600106,None,1.4264550264550264,0.6828565741889179,1283.6688400600106,None,,,,,,,,,,,,,,,,,158,001,2024_Jan_29_1647,SpeechDraft1Carolyn_lessNoise_PlusLocalization,2021.2.3,59.902958198245436,
,,,,,,,,midRight,13.0,3,ch1Sound_localizationTask.wav,13.0,"(1142, 878)","(182, -202)",190,-338,,,,,,,,,3,1,22,5,,,,,,,,,,,,,,,,,,,,,,,,,,,,,,,,,,,,,,,,,,,,1284.3543514600024,None,1285.468770982232,None,1286.385408487171,None,1.5973544973544973,0.7162215746939182,1286.385408487171,None,,,,,,,,,,,,,,,,,158,001,2024_Jan_29_1647,SpeechDraft1Carolyn_lessNoise_PlusLocalization,2021.2.3,59.902958198245436,
,,,,,,,,nearRight,6.5,0,ch1Sound_localizationTask.wav,6.5,"(1047, 878)","(87, -202)",95,-338,,,,,,,,,3,2,23,4,,,,,,,,,,,,,,,,,,,,,,,,,,,,,,,,,,,,,,,,,,,,1287.1193428942934,None,1288.2188340714201,None,1289.1521217743866,None,1.5349206349206348,0.632858560886234,1289.1521217743866,None,,,,,,,,,,,,,,,,,158,001,2024_Jan_29_1647,SpeechDraft1Carolyn_lessNoise_PlusLocalization,2021.2.3,59.902958198245436,
,,,,,,,,farRight,19.1,4,ch1Sound_localizationTask.wav,19.1,"(1237, 878)","(277,-202)",285,-338,,,,,,,,,3,3,24,6,,,,,,,,,,,,,,,,,,,,,,,,,,,,,,,,,,,,,,,,,,,,1289.7868794393726,None,1290.885405575391,None,1291.8187100193463,None,1.6444444444444444,0.8834043657407165,1291.8187100193463,None,,,,,,,,,,,,,,,,,158,001,2024_Jan_29_1647,SpeechDraft1Carolyn_lessNoise_PlusLocalization,2021.2.3,59.902958198245436,
,,,,,,,,farLeft,-19.1,5,ch1Sound_localizationTask.wav,-19.1,"(667, 878)","(-293,-202)",-285,-338,,,,,,,,,3,4,25,0,,,,,,,,,,,,,,,,,,,,,,,,,,,,,,,,,,,,,,,,,,,,1292.7190531031229,None,1293.818861796055,None,1294.752107420005,None,1.3111111111111111,0.7660687291063368,1294.752107420005,None,,,,,,,,,,,,,,,,,158,001,2024_Jan_29_1647,SpeechDraft1Carolyn_lessNoise_PlusLocalization,2021.2.3,59.902958198245436,
,,,,,,,,nearRight,6.5,0,ch1Sound_localizationTask.wav,6.5,"(1047, 878)","(87, -202)",95,-338,,,,,,,,,3,5,26,4,,,,,,,,,,,,,,,,,,,,,,,,,,,,,,,,,,,,,,,,,,,,1295.5209535909817,None,1296.6354078371078,None,1297.5521380761638,None,1.5597883597883597,0.6996965799480677,1297.5521380761638,None,,,,,,,,,,,,,,,,,158,001,2024_Jan_29_1647,SpeechDraft1Carolyn_lessNoise_PlusLocalization,2021.2.3,59.902958198245436,
,,,,,,,,farLeft,-19.1,5,ch1Sound_localizationTask.wav,-19.1,"(667, 878)","(-293,-202)",-285,-338,,,,,,,,,3,6,27,0,,,,,,,,,,,,,,,,,,,,,,,,,,,,,,,,,,,,,,,,,,,,1298.2538783070631,None,1299.3688428001478,None,1300.2855474511161,None,1.3132275132275133,0.751005900092423,1300.2855474511161,None,,,,,,,,,,,,,,,,,158,001,2024_Jan_29_1647,SpeechDraft1Carolyn_lessNoise_PlusLocalization,2021.2.3,59.902958198245436,
,,,,,,,,farRight,19.1,4,ch1Sound_localizationTask.wav,19.1,"(1237, 878)","(277,-202)",285,-338,,,,,,,,,4,0,28,6,,,,,,,,,,,,,,,,,,,,,,,,,,,,,,,,,,,,,,,,,,,,1301.0526390392333,None,1302.1520190550946,None,1303.0858794283122,None,1.716931216931217,0.74563272530213,1303.0858794283122,None,,,,,,,,,,,,,,,,,158,001,2024_Jan_29_1647,SpeechDraft1Carolyn_lessNoise_PlusLocalization,2021.2.3,59.902958198245436,
,,,,,,,,farRight,19.1,4,ch1Sound_localizationTask.wav,19.1,"(1237, 878)","(277,-202)",285,-338,,,,,,,,,4,1,29,6,,,,,,,,,,,,,,,,,,,,,,,,,,,,,,,,,,,,,,,,,,,,1303.8374583711848,None,1304.9522350584157,None,1305.8688524062745,None,1.6984126984126984,0.5333447651937604,1305.8688524062745,None,,,,,,,,,,,,,,,,,158,001,2024_Jan_29_1647,SpeechDraft1Carolyn_lessNoise_PlusLocalization,2021.2.3,59.902958198245436,
,,,,,,,,midRight,13.0,3,ch1Sound_localizationTask.wav,13.0,"(1142, 878)","(182, -202)",190,-338,,,,,,,,,4,2,30,5,,,,,,,,,,,,,,,,,,,,,,,,,,,,,,,,,,,,,,,,,,,,1306.4191464683972,None,1307.5188297433779,None,1308.4522347520106,None,1.6201058201058203,0.4667083532549441,1308.4522347520106,None,,,,,,,,,,,,,,,,,158,001,2024_Jan_29_1647,SpeechDraft1Carolyn_lessNoise_PlusLocalization,2021.2.3,59.902958198245436,
,,,,,,,,midLeft,-13.0,2,ch1Sound_localizationTask.wav,-13.0,"(762, 878)","(-198,-202)",-190,-338,,,,,,,,,4,3,31,1,,,,,,,,,,,,,,,,,,,,,,,,,,,,,,,,,,,,,,,,,,,,1308.9206294333562,None,1310.0355739342049,None,1310.9521062374115,None,1.474074074074074,0.4823493231087923,1310.9521062374115,None,,,,,,,,,,,,,,,,,158,001,2024_Jan_29_1647,SpeechDraft1Carolyn_lessNoise_PlusLocalization,2021.2.3,59.902958198245436,
,,,,,,,,farLeft,-19.1,5,ch1Sound_localizationTask.wav,-19.1,"(667, 878)","(-293,-202)",-285,-338,,,,,,,,,4,4,32,0,,,,,,,,,,,,,,,,,,,,,,,,,,,,,,,,,,,,,,,,,,,,1311.4370672600344,None,1312.5521846041083,None,1313.4688388584182,None,1.3402116402116402,0.8499617977067828,1313.4688388584182,None,,,,,,,,,,,,,,,,,158,001,2024_Jan_29_1647,SpeechDraft1Carolyn_lessNoise_PlusLocalization,2021.2.3,59.902958198245436,
,,,,,,,,nearLeft,-6.5,1,ch1Sound_localizationTask.wav,-6.5,"(857, 878)","(-103,-202)",-95,-338,,,,,,,,,4,5,33,2,,,,,,,,,,,,,,,,,,,,,,,,,,,,,,,,,,,,,,,,,,,,1314.3209056882188,None,1315.435562513303,None,1316.3521521622315,None,1.4851851851851852,0.6497606500051916,1316.3521521622315,None,,,,,,,,,,,,,,,,,158,001,2024_Jan_29_1647,SpeechDraft1Carolyn_lessNoise_PlusLocalization,2021.2.3,59.902958198245436,
,,,,,,,,center,0.0,6,ch1Sound_localizationTask.wav,0.0,"(952, 878)","(-8,-202)",0,-338,,,,,,,,,4,6,34,3,,,,,,,,,,,,,,,,,,,,,,,,,,,,,,,,,,,,,,,,,,,,1317.0192258739844,None,1318.1188044929877,None,1319.0522422213107,None,1.4634920634920636,0.7502018581144512,1319.0522422213107,None,,,,,,,,,,,,,,,,,158,001,2024_Jan_29_1647,SpeechDraft1Carolyn_lessNoise_PlusLocalization,2021.2.3,59.902958198245436,
,,,,,,,,nearRight,6.5,0,ch1Sound_localizationTask.wav,6.5,"(1047, 878)","(87, -202)",95,-338,,,,,,,,,5,0,35,4,,,,,,,,,,,,,,,,,,,,,,,,,,,,,,,,,,,,,,,,,,,,1319.8192414152436,None,1320.918918619398,None,1321.852118696086,None,1.543915343915344,0.6823737090453506,1321.852118696086,None,,,,,,,,,,,,,,,,,158,001,2024_Jan_29_1647,SpeechDraft1Carolyn_lessNoise_PlusLocalization,2021.2.3,59.902958198245436,
,,,,,,,,midRight,13.0,3,ch1Sound_localizationTask.wav,13.0,"(1142, 878)","(182, -202)",190,-338,,,,,,,,,5,1,36,5,,,,,,,,,,,,,,,,,,,,,,,,,,,,,,,,,,,,,,,,,,,,1322.5366727053188,None,1323.635431156028,None,1324.568962783087,None,1.6148148148148147,0.6495545986108482,1324.568962783087,None,,,,,,,,,,,,,,,,,158,001,2024_Jan_29_1647,SpeechDraft1Carolyn_lessNoise_PlusLocalization,2021.2.3,59.902958198245436,
,,,,,,,,nearRight,6.5,0,ch1Sound_localizationTask.wav,6.5,"(1047, 878)","(87, -202)",95,-338,,,,,,,,,5,2,37,4,,,,,,,,,,,,,,,,,,,,,,,,,,,,,,,,,,,,,,,,,,,,1325.2207442200743,None,1326.335617073346,None,1327.2522549852729,None,1.5666666666666667,0.6820441079325974,1327.2522549852729,None,,,,,,,,,,,,,,,,,158,001,2024_Jan_29_1647,SpeechDraft1Carolyn_lessNoise_PlusLocalization,2021.2.3,59.902958198245436,
,,,,,,,,center,0.0,6,ch1Sound_localizationTask.wav,0.0,"(952, 878)","(-8,-202)",0,-338,,,,,,,,,5,3,38,3,,,,,,,,,,,,,,,,,,,,,,,,,,,,,,,,,,,,,,,,,,,,1327.936700499151,None,1329.0354327722453,None,1329.968767769169,None,1.4793650793650794,0.582643078174442,1329.968767769169,None,,,,,,,,,,,,,,,,,158,001,2024_Jan_29_1647,SpeechDraft1Carolyn_lessNoise_PlusLocalization,2021.2.3,59.902958198245436,
,,,,,,,,midRight,13.0,3,ch1Sound_localizationTask.wav,13.0,"(1142, 878)","(182, -202)",190,-338,,,,,,,,,5,4,39,5,,,,,,,,,,,,,,,,,,,,,,,,,,,,,,,,,,,,,,,,,,,,1330.5536204683594,None,1331.6688909600489,None,1332.5855906363577,None,1.5703703703703704,0.46733866864815354,1332.5855906363577,None,,,,,,,,,,,,,,,,,158,001,2024_Jan_29_1647,SpeechDraft1Carolyn_lessNoise_PlusLocalization,2021.2.3,59.902958198245436,
,,,,,,,,midLeft,-13.0,2,ch1Sound_localizationTask.wav,-13.0,"(762, 878)","(-198,-202)",-190,-338,,,,,,,,,5,5,40,1,,,,,,,,,,,,,,,,,,,,,,,,,,,,,,,,,,,,,,,,,,,,1333.0700522651896,None,1334.168774407357,None,1335.1022234400734,None,1.428042328042328,0.8003552602604032,1335.1022234400734,None,,,,,,,,,,,,,,,,,158,001,2024_Jan_29_1647,SpeechDraft1Carolyn_lessNoise_PlusLocalization,2021.2.3,59.902958198245436,
,,,,,,,,midLeft,-13.0,2,ch1Sound_localizationTask.wav,-13.0,"(762, 878)","(-198,-202)",-190,-338,,,,,,,,,5,6,41,1,,,,,,,,,,,,,,,,,,,,,,,,,,,,,,,,,,,,,,,,,,,,1335.9194350061007,None,1337.0187828373164,None,1337.9523829962127,None,1.361904761904762,0.7995516182854772,1337.9523829962127,None,,,,,,,,,,,,,,,,,158,001,2024_Jan_29_1647,SpeechDraft1Carolyn_lessNoise_PlusLocalization,2021.2.3,59.902958198245436,
,,,,,,,,farRight,19.1,4,ch1Sound_localizationTask.wav,19.1,"(1237, 878)","(277,-202)",285,-338,,,,,,,,,6,0,42,6,,,,,,,,,,,,,,,,,,,,,,,,,,,,,,,,,,,,,,,,,,,,1338.7541930493899,None,1339.8688365132548,None,1340.7855319282971,None,1.673015873015873,0.6667717378586531,1340.7855319282971,None,,,,,,,,,,,,,,,,,158,001,2024_Jan_29_1647,SpeechDraft1Carolyn_lessNoise_PlusLocalization,2021.2.3,59.902958198245436,
,,,,,,,,midLeft,-13.0,2,ch1Sound_localizationTask.wav,-13.0,"(762, 878)","(-198,-202)",-190,-338,,,,,,,,,6,1,43,1,,,,,,,,,,,,,,,,,,,,,,,,,,,,,,,,,,,,,,,,,,,,1341.469171866309,None,1342.568791358266,None,1343.5022221184336,None,1.3756613756613758,0.9326293915510178,1343.5022221184336,None,,,,,,,,,,,,,,,,,158,001,2024_Jan_29_1647,SpeechDraft1Carolyn_lessNoise_PlusLocalization,2021.2.3,59.902958198245436,
,,,,,,,,farLeft,-19.1,5,ch1Sound_localizationTask.wav,-19.1,"(667, 878)","(-293,-202)",-285,-338,,,,,,,,,6,2,44,0,,,,,,,,,,,,,,,,,,,,,,,,,,,,,,,,,,,,,,,,,,,,1344.4372196584009,None,1345.5522924801335,None,1346.4690792141482,None,1.3084656084656086,0.8497916818596423,1346.4690792141482,None,,,,,,,,,,,,,,,,,158,001,2024_Jan_29_1647,SpeechDraft1Carolyn_lessNoise_PlusLocalization,2021.2.3,59.902958198245436,
,,,,,,,,farLeft,-19.1,5,ch1Sound_localizationTask.wav,-19.1,"(667, 878)","(-293,-202)",-285,-338,,,,,,,,,6,3,45,0,,,,,,,,,,,,,,,,,,,,,,,,,,,,,,,,,,,,,,,,,,,,1347.3205385319889,None,1348.4355288180523,None,1349.3522642333992,None,1.3084656084656086,0.4332727212458849,1349.3522642333992,None,,,,,,,,,,,,,,,,,158,001,2024_Jan_29_1647,SpeechDraft1Carolyn_lessNoise_PlusLocalization,2021.2.3,59.902958198245436,
,,,,,,,,nearRight,6.5,0,ch1Sound_localizationTask.wav,6.5,"(1047, 878)","(87, -202)",95,-338,,,,,,,,,6,4,46,4,,,,,,,,,,,,,,,,,,,,,,,,,,,,,,,,,,,,,,,,,,,,1349.7871566163376,None,1350.9022689373232,None,1351.818882143125,None,1.5084656084656085,0.5993917672894895,1351.818882143125,None,,,,,,,,,,,,,,,,,158,001,2024_Jan_29_1647,SpeechDraft1Carolyn_lessNoise_PlusLocalization,2021.2.3,59.902958198245436,
,,,,,,,,nearLeft,-6.5,1,ch1Sound_localizationTask.wav,-6.5,"(857, 878)","(-103,-202)",-95,-338,,,,,,,,,6,5,47,2,,,,,,,,,,,,,,,,,,,,,,,,,,,,,,,,,,,,,,,,,,,,1352.4206093172543,None,1353.535533620976,None,1354.452274883166,None,1.464021164021164,0.6331679220311344,1354.452274883166,None,,,,,,,,,,,,,,,,,158,001,2024_Jan_29_1647,SpeechDraft1Carolyn_lessNoise_PlusLocalization,2021.2.3,59.902958198245436,
,,,,,,,,center,0.0,6,ch1Sound_localizationTask.wav,0.0,"(952, 878)","(-8,-202)",0,-338,,,,,,,,,6,6,48,3,,,,,,,,,,,,,,,,,,,,,,,,,,,,,,,,,,,,,,,,,,,,1355.1025129612535,None,1356.2023844229989,None,1357.1355989812873,None,1.4761904761904763,0.7164796506986022,1357.1355989812873,None,,,,,,,,,,,,,,,,,158,001,2024_Jan_29_1647,SpeechDraft1Carolyn_lessNoise_PlusLocalization,2021.2.3,59.902958198245436,
,,,,,,,,midLeft,-13.0,2,ch1Sound_localizationTask.wav,-13.0,"(762, 878)","(-198,-202)",-190,-338,,,,,,,,,7,0,49,1,,,,,,,,,,,,,,,,,,,,,,,,,,,,,,,,,,,,,,,,,,,,1357.854011547286,None,1358.9689980950207,None,1359.8856181330048,None,1.4174603174603175,0.7488980633206666,1359.8856181330048,None,,,,,,,,,,,,,,,,,158,001,2024_Jan_29_1647,SpeechDraft1Carolyn_lessNoise_PlusLocalization,2021.2.3,59.902958198245436,
,,,,,,,,farRight,19.1,4,ch1Sound_localizationTask.wav,19.1,"(1237, 878)","(277,-202)",285,-338,,,,,,,,,7,1,50,6,,,,,,,,,,,,,,,,,,,,,,,,,,,,,,,,,,,,,,,,,,,,1360.6375864571892,None,1361.7521502813324,None,1362.6690368200652,None,1.6724867724867725,0.9832011116668582,1362.6690368200652,None,,,,,,,,,,,,,,,,,158,001,2024_Jan_29_1647,SpeechDraft1Carolyn_lessNoise_PlusLocalization,2021.2.3,59.902958198245436,
,,,,,,,,nearLeft,-6.5,1,ch1Sound_localizationTask.wav,-6.5,"(857, 878)","(-103,-202)",-95,-338,,,,,,,,,7,2,51,2,,,,,,,,,,,,,,,,,,,,,,,,,,,,,,,,,,,,,,,,,,,,1363.6534967999905,None,1364.7523265690543,None,1365.6856493311934,None,1.4798941798941798,0.7828273121267557,1365.6856493311934,None,,,,,,,,,,,,,,,,,158,001,2024_Jan_29_1647,SpeechDraft1Carolyn_lessNoise_PlusLocalization,2021.2.3,59.902958198245436,
,,,,,,,,midRight,13.0,3,ch1Sound_localizationTask.wav,13.0,"(1142, 878)","(182, -202)",190,-338,,,,,,,,,7,3,52,5,,,,,,,,,,,,,,,,,,,,,,,,,,,,,,,,,,,,,,,,,,,,1366.485977154225,None,1367.5855728043243,None,1368.5189383174293,None,1.6121693121693121,0.6831222428008914,1368.5189383174293,None,,,,,,,,,,,,,,,,,158,001,2024_Jan_29_1647,SpeechDraft1Carolyn_lessNoise_PlusLocalization,2021.2.3,59.902958198245436,
,,,,,,,,nearLeft,-6.5,1,ch1Sound_localizationTask.wav,-6.5,"(857, 878)","(-103,-202)",-95,-338,,,,,,,,,7,4,53,2,,,,,,,,,,,,,,,,,,,,,,,,,,,,,,,,,,,,,,,,,,,,1369.2192741301842,None,1370.3188916412182,None,1371.2523873713799,None,1.492063492063492,0.8165850592777133,1371.2523873713799,None,,,,,,,,,,,,,,,,,158,001,2024_Jan_29_1647,SpeechDraft1Carolyn_lessNoise_PlusLocalization,2021.2.3,59.902958198245436,
,,,,,,,,farRight,19.1,4,ch1Sound_localizationTask.wav,19.1,"(1237, 878)","(277,-202)",285,-338,,,,,,,,,7,5,54,6,,,,,,,,,,,,,,,,,,,,,,,,,,,,,,,,,,,,,,,,,,,,1372.0706831719726,None,1373.1855217763223,None,1374.1022302140482,None,1.6957671957671958,0.8854065877385437,1374.1022302140482,None,,,,,,,,,,,,,,,,,158,001,2024_Jan_29_1647,SpeechDraft1Carolyn_lessNoise_PlusLocalization,2021.2.3,59.902958198245436,
,,,,,,,,farLeft,-19.1,5,ch1Sound_localizationTask.wav,-19.1,"(667, 878)","(-293,-202)",-285,-338,,,,,,,,,7,6,55,0,,,,,,,,,,,,,,,,,,,,,,,,,,,,,,,,,,,,,,,,,,,,1375.0025278651156,None,1376.1022488381714,None,1377.0354554280639,None,1.3904761904761904,1.0163838840089738,1377.0354554280639,None,,,,,,,,,,,,,,,,,158,001,2024_Jan_29_1647,SpeechDraft1Carolyn_lessNoise_PlusLocalization,2021.2.3,59.902958198245436,
,,,,,,,,,,,,,,,,,,,,,,,,,,,,,,,,,,,,,,,,,,,,,,,,,,,,,,,,,,,,,,,,,,,,,,,,,,,,,,,,,,space,9.531173193827271,1378.152773491107,None,,,,,,,,,,,,,158,001,2024_Jan_29_1647,SpeechDraft1Carolyn_lessNoise_PlusLocalization,2021.2.3,59.902958198245436,
,,,,,,,,midLeft,-13.0,2,ch1Sound_localizationTask.wav,-13.0,"(762, 878)","(-198,-202)",-190,-338,,,,,,,,,,,,,0,0,0,1,,,,,,,,,,,,,,,,,,,,,,,,,,,,,,,,,,,,,,,,1387.718928983435,None,,,1390.7522515570745,None,1.3936507936507936,1.4565290017053485,1390.7522515570745,None,,,,,1378.152773491107,None,1388.7192893321626,None,1388.9025850631297,1388.9192900052294,,,,,,,158,001,2024_Jan_29_1647,SpeechDraft1Carolyn_lessNoise_PlusLocalization,2021.2.3,59.902958198245436,
,,,,,,,,midLeft,-13.0,2,ch1Sound_localizationTask.wav,-13.0,"(762, 878)","(-198,-202)",-190,-338,,,,,,,,,,,,,0,1,1,1,,,,,,,,,,,,,,,,,,,,,,,,,,,,,,,,,,,,,,,,1392.2193748941645,None,,,1395.2355685071088,None,1.4132275132275132,0.9490931667387486,1395.2355685071088,None,,,,,,,1393.2192541831173,None,1393.4025985612534,1393.4193801092915,,,,,,,158,001,2024_Jan_29_1647,SpeechDraft1Carolyn_lessNoise_PlusLocalization,2021.2.3,59.902958198245436,
,,,,,,,,nearLeft,-6.5,1,ch1Sound_localizationTask.wav,-6.5,"(857, 878)","(-103,-202)",-95,-338,,,,,,,,,,,,,0,2,2,2,,,,,,,,,,,,,,,,,,,,,,,,,,,,,,,,,,,,,,,,1396.1874044951983,None,,,1399.2189038409851,None,1.455026455026455,0.7657671528868377,1399.2189038409851,None,,,,,,,1397.2025300781243,None,1397.3859046213329,1397.4025164023042,,,,,,,158,001,2024_Jan_29_1647,SpeechDraft1Carolyn_lessNoise_PlusLocalization,2021.2.3,59.902958198245436,
,,,,,,,,midLeft,-13.0,2,ch1Sound_localizationTask.wav,-13.0,"(762, 878)","(-198,-202)",-190,-338,,,,,,,,,,,,,0,3,3,1,,,,,,,,,,,,,,,,,,,,,,,,,,,,,,,,,,,,,,,,1399.9874144024216,None,,,1403.0189497633837,None,1.3873015873015873,0.8160063498653471,1403.0189497633837,None,,,,,,,1401.0025872001424,None,1401.186071716249,1401.202508780174,,,,,,,158,001,2024_Jan_29_1647,SpeechDraft1Carolyn_lessNoise_PlusLocalization,2021.2.3,59.902958198245436,
,,,,,,,,nearRight,6.5,0,ch1Sound_localizationTask.wav,6.5,"(1047, 878)","(87, -202)",95,-338,,,,,,,,,,,,,0,4,4,4,,,,,,,,,,,,,,,,,,,,,,,,,,,,,,,,,,,,,,,,1403.8374864892103,None,,,1406.8691164040938,None,1.5624338624338625,0.632424492854625,1406.8691164040938,None,,,,,,,1404.8525247364305,None,1405.0358683122322,1405.0525370524265,,,,,,,158,001,2024_Jan_29_1647,SpeechDraft1Carolyn_lessNoise_PlusLocalization,2021.2.3,59.902958198245436,
,,,,,,,,farRight,19.1,4,ch1Sound_localizationTask.wav,19.1,"(1237, 878)","(277,-202)",285,-338,,,,,,,,,,,,,0,5,5,6,,,,,,,,,,,,,,,,,,,,,,,,,,,,,,,,,,,,,,,,1407.5041413302533,None,,,1410.5356247951277,None,1.632804232804233,0.899189262650907,1410.5356247951277,None,,,,,,,1408.5192045560107,None,1408.7025857572444,1408.7192321750335,,,,,,,158,001,2024_Jan_29_1647,SpeechDraft1Carolyn_lessNoise_PlusLocalization,2021.2.3,59.902958198245436,
,,,,,,,,nearLeft,-6.5,1,ch1Sound_localizationTask.wav,-6.5,"(857, 878)","(-103,-202)",-95,-338,,,,,,,,,,,,,0,6,6,2,,,,,,,,,,,,,,,,,,,,,,,,,,,,,,,,,,,,,,,,1411.4372463570908,None,,,1414.4690186660737,None,1.435978835978836,0.9826160450465977,1414.4690186660737,None,,,,,,,1412.4525856613182,None,1412.6359732891433,1412.65259221429,,,,,,,158,001,2024_Jan_29_1647,SpeechDraft1Carolyn_lessNoise_PlusLocalization,2021.2.3,59.902958198245436,
,,,,,,,,nearRight,6.5,0,ch1Sound_localizationTask.wav,6.5,"(1047, 878)","(87, -202)",95,-338,,,,,,,,,,,,,1,0,7,4,,,,,,,,,,,,,,,,,,,,,,,,,,,,,,,,,,,,,,,,1415.4537372821942,None,,,1418.4856372713111,None,1.5534391534391534,0.7678304007276893,1418.4856372713111,None,,,,,,,1416.4693851461634,None,1416.6526217102073,1416.6692824061029,,,,,,,158,001,2024_Jan_29_1647,SpeechDraft1Carolyn_lessNoise_PlusLocalization,2021.2.3,59.902958198245436,
,,,,,,,,midRight,13.0,3,ch1Sound_localizationTask.wav,13.0,"(1142, 878)","(182, -202)",190,-338,,,,,,,,,,,,,1,1,8,5,,,,,,,,,,,,,,,,,,,,,,,,,,,,,,,,,,,,,,,,1419.2693393011577,None,,,1422.2858252213337,None,1.5925925925925926,0.9495063442736864,1422.2858252213337,None,,,,,,,1420.2692681630142,None,1420.452624395024,1420.4692957540974,,,,,,,158,001,2024_Jan_29_1647,SpeechDraft1Carolyn_lessNoise_PlusLocalization,2021.2.3,59.902958198245436,
,,,,,,,,midRight,13.0,3,ch1Sound_localizationTask.wav,13.0,"(1142, 878)","(182, -202)",190,-338,,,,,,,,,,,,,1,2,9,5,,,,,,,,,,,,,,,,,,,,,,,,,,,,,,,,,,,,,,,,1423.2373528433964,None,,,1426.2689707484096,None,1.580952380952381,0.6497096931561828,1426.2689707484096,None,,,,,,,1424.2526546954177,None,1424.436057553161,1424.4526284611784,,,,,,,158,001,2024_Jan_29_1647,SpeechDraft1Carolyn_lessNoise_PlusLocalization,2021.2.3,59.902958198245436,
,,,,,,,,farLeft,-19.1,5,ch1Sound_localizationTask.wav,-19.1,"(667, 878)","(-293,-202)",-285,-338,,,,,,,,,,,,,1,3,10,0,,,,,,,,,,,,,,,,,,,,,,,,,,,,,,,,,,,,,,,,1426.936062021181,None,,,1429.9523386443034,None,1.3227513227513228,0.7661975682713091,1429.9523386443034,None,,,,,,,1427.9359709410928,None,1428.1192526151426,1428.1359582440928,,,,,,,158,001,2024_Jan_29_1647,SpeechDraft1Carolyn_lessNoise_PlusLocalization,2021.2.3,59.902958198245436,
,,,,,,,,nearRight,6.5,0,ch1Sound_localizationTask.wav,6.5,"(1047, 878)","(87, -202)",95,-338,,,,,,,,,,,,,1,4,11,4,,,,,,,,,,,,,,,,,,,,,,,,,,,,,,,,,,,,,,,,1430.7210445953533,None,,,1433.752219772432,None,1.5629629629629629,0.6166344312950969,1433.752219772432,None,,,,,,,1431.7359529142268,None,1431.919305197429,1431.9358969633467,,,,,,,158,001,2024_Jan_29_1647,SpeechDraft1Carolyn_lessNoise_PlusLocalization,2021.2.3,59.902958198245436,
,,,,,,,,farLeft,-19.1,5,ch1Sound_localizationTask.wav,-19.1,"(667, 878)","(-293,-202)",-285,-338,,,,,,,,,,,,,1,5,12,0,,,,,,,,,,,,,,,,,,,,,,,,,,,,,,,,,,,,,,,,1434.386001300998,None,,,1437.4022343810648,None,1.3285714285714285,0.6995610920712352,1437.4022343810648,None,,,,,,,1435.3859166651964,None,1435.5692980419844,1435.5859352932312,,,,,,,158,001,2024_Jan_29_1647,SpeechDraft1Carolyn_lessNoise_PlusLocalization,2021.2.3,59.902958198245436,
,,,,,,,,center,0.0,6,ch1Sound_localizationTask.wav,0.0,"(952, 878)","(-8,-202)",0,-338,,,,,,,,,,,,,1,6,13,3,,,,,,,,,,,,,,,,,,,,,,,,,,,,,,,,,,,,,,,,1438.1041729240678,None,,,1441.1358164860867,None,1.5063492063492063,0.666091802995652,1441.1358164860867,None,,,,,,,1439.1192949223332,None,1439.3026656000875,1439.319310380146,,,,,,,158,001,2024_Jan_29_1647,SpeechDraft1Carolyn_lessNoise_PlusLocalization,2021.2.3,59.902958198245436,
,,,,,,,,farLeft,-19.1,5,ch1Sound_localizationTask.wav,-19.1,"(667, 878)","(-293,-202)",-285,-338,,,,,,,,,,,,,2,0,14,0,,,,,,,,,,,,,,,,,,,,,,,,,,,,,,,,,,,,,,,,1441.8041308643296,None,,,1444.8357078330591,None,1.3465608465608465,0.5991744152270257,1444.8357078330591,None,,,,,,,1442.8193484102376,None,1443.002649541013,1443.0193490171805,,,,,,,158,001,2024_Jan_29_1647,SpeechDraft1Carolyn_lessNoise_PlusLocalization,2021.2.3,59.902958198245436,
,,,,,,,,midLeft,-13.0,2,ch1Sound_localizationTask.wav,-13.0,"(762, 878)","(-198,-202)",-190,-338,,,,,,,,,,,,,2,1,15,1,,,,,,,,,,,,,,,,,,,,,,,,,,,,,,,,,,,,,,,,1445.4372841571458,None,,,1448.4690495361574,None,1.4079365079365078,0.7326806080527604,1448.4690495361574,None,,,,,,,1446.4526099730283,None,1446.6359902811237,1446.652731494978,,,,,,,158,001,2024_Jan_29_1647,SpeechDraft1Carolyn_lessNoise_PlusLocalization,2021.2.3,59.902958198245436,
,,,,,,,,midRight,13.0,3,ch1Sound_localizationTask.wav,13.0,"(1142, 878)","(182, -202)",190,-338,,,,,,,,,,,,,2,2,16,5,,,,,,,,,,,,,,,,,,,,,,,,,,,,,,,,,,,,,,,,1449.203953271266,None,,,1452.235664579086,None,1.6169312169312169,0.8015893558040261,1452.235664579086,None,,,,,,,1450.2192544094287,None,1450.4025983512402,1450.419325558003,,,,,,,158,001,2024_Jan_29_1647,SpeechDraft1Carolyn_lessNoise_PlusLocalization,2021.2.3,59.902958198245436,
,,,,,,,,midLeft,-13.0,2,ch1Sound_localizationTask.wav,-13.0,"(762, 878)","(-198,-202)",-190,-338,,,,,,,,,,,,,2,3,17,1,,,,,,,,,,,,,,,,,,,,,,,,,,,,,,,,,,,,,,,,1453.054123294074,None,,,1456.085888385307,None,1.4,0.7160228183493018,1456.085888385307,None,,,,,,,1454.0693537113257,None,1454.252680842299,1454.2693126993254,,,,,,,158,001,2024_Jan_29_1647,SpeechDraft1Carolyn_lessNoise_PlusLocalization,2021.2.3,59.902958198245436,
,,,,,,,,center,0.0,6,ch1Sound_localizationTask.wav,0.0,"(952, 878)","(-8,-202)",0,-338,,,,,,,,,,,,,2,4,18,3,,,,,,,,,,,,,,,,,,,,,,,,,,,,,,,,,,,,,,,,1456.8045309921727,None,,,1459.8357566259801,None,1.4957671957671956,0.7332280538976192,1459.8357566259801,None,,,,,,,1457.8193303151056,None,1458.002637829166,1458.0194404684007,,,,,,,158,001,2024_Jan_29_1647,SpeechDraft1Carolyn_lessNoise_PlusLocalization,2021.2.3,59.902958198245436,
,,,,,,,,farLeft,-19.1,5,ch1Sound_localizationTask.wav,-19.1,"(667, 878)","(-293,-202)",-285,-338,,,,,,,,,,,,,2,5,19,0,,,,,,,,,,,,,,,,,,,,,,,,,,,,,,,,,,,,,,,,1460.5710977972485,None,,,1463.602308712434,None,1.344973544973545,0.8160426402464509,1463.602308712434,None,,,,,,,1461.5859922450036,None,1461.7693588873371,1461.7859675143845,,,,,,,158,001,2024_Jan_29_1647,SpeechDraft1Carolyn_lessNoise_PlusLocalization,2021.2.3,59.902958198245436,
,,,,,,,,farRight,19.1,4,ch1Sound_localizationTask.wav,19.1,"(1237, 878)","(277,-202)",285,-338,,,,,,,,,,,,,2,6,20,6,,,,,,,,,,,,,,,,,,,,,,,,,,,,,,,,,,,,,,,,1464.4207313670777,None,,,1467.4524510903284,None,1.6539682539682539,0.7657758737914264,1467.4524510903284,None,,,,,,,1465.4359991401434,None,1465.619345314335,1465.6360370200127,,,,,,,158,001,2024_Jan_29_1647,SpeechDraft1Carolyn_lessNoise_PlusLocalization,2021.2.3,59.902958198245436,
,,,,,,,,nearLeft,-6.5,1,ch1Sound_localizationTask.wav,-6.5,"(857, 878)","(-103,-202)",-95,-338,,,,,,,,,,,,,3,0,21,2,,,,,,,,,,,,,,,,,,,,,,,,,,,,,,,,,,,,,,,,1468.2201335881837,None,,,1471.2358201830648,None,1.461904761904762,0.7001670929603279,1471.2358201830648,None,,,,,,,1469.21944852639,None,1469.402679760009,1469.419357790146,,,,,,,158,001,2024_Jan_29_1647,SpeechDraft1Carolyn_lessNoise_PlusLocalization,2021.2.3,59.902958198245436,
,,,,,,,,midLeft,-13.0,2,ch1Sound_localizationTask.wav,-13.0,"(762, 878)","(-198,-202)",-190,-338,,,,,,,,,,,,,3,1,22,1,,,,,,,,,,,,,,,,,,,,,,,,,,,,,,,,,,,,,,,,1471.952798142098,None,,,1474.9690353670157,None,1.3904761904761904,0.6498124459758401,1474.9690353670157,None,,,,,,,1472.9527181331068,None,1473.1359225302003,1473.1527041811496,,,,,,,158,001,2024_Jan_29_1647,SpeechDraft1Carolyn_lessNoise_PlusLocalization,2021.2.3,59.902958198245436,
,,,,,,,,center,0.0,6,ch1Sound_localizationTask.wav,0.0,"(952, 878)","(-8,-202)",0,-338,,,,,,,,,,,,,3,2,23,3,,,,,,,,,,,,,,,,,,,,,,,,,,,,,,,,,,,,,,,,1475.6210413663648,None,,,1478.652438626159,None,1.5015873015873016,0.649974521715194,1478.652438626159,None,,,,,,,1476.6359472461045,None,1476.819296743255,1476.835942126345,,,,,,,158,001,2024_Jan_29_1647,SpeechDraft1Carolyn_lessNoise_PlusLocalization,2021.2.3,59.902958198245436,
,,,,,,,,farRight,19.1,4,ch1Sound_localizationTask.wav,19.1,"(1237, 878)","(277,-202)",285,-338,,,,,,,,,,,,,3,3,24,6,,,,,,,,,,,,,,,,,,,,,,,,,,,,,,,,,,,,,,,,1479.3043781681918,None,,,1482.3356608781032,None,1.6497354497354497,0.785617153160274,1482.3356608781032,None,,,,,,,1480.3193387701176,None,1480.502713881433,1480.519426794257,,,,,,,158,001,2024_Jan_29_1647,SpeechDraft1Carolyn_lessNoise_PlusLocalization,2021.2.3,59.902958198245436,
,,,,,,,,farRight,19.1,4,ch1Sound_localizationTask.wav,19.1,"(1237, 878)","(277,-202)",285,-338,,,,,,,,,,,,,3,4,25,6,,,,,,,,,,,,,,,,,,,,,,,,,,,,,,,,,,,,,,,,1483.1375554422848,None,,,1486.169099215418,None,1.6502645502645503,0.7999716810882092,1486.169099215418,None,,,,,,,1484.152749542147,None,1484.3360402472317,1484.3526733452454,,,,,,,158,001,2024_Jan_29_1647,SpeechDraft1Carolyn_lessNoise_PlusLocalization,2021.2.3,59.902958198245436,
,,,,,,,,midRight,13.0,3,ch1Sound_localizationTask.wav,13.0,"(1142, 878)","(182, -202)",190,-338,,,,,,,,,,,,,3,5,26,5,,,,,,,,,,,,,,,,,,,,,,,,,,,,,,,,,,,,,,,,1486.9712482970208,None,,,1490.0023875702173,None,1.5936507936507938,0.7328375889919698,1490.0023875702173,None,,,,,,,1487.9860188900493,None,1488.1694181133062,1488.18599663442,,,,,,,158,001,2024_Jan_29_1647,SpeechDraft1Carolyn_lessNoise_PlusLocalization,2021.2.3,59.902958198245436,
,,,,,,,,nearRight,6.5,0,ch1Sound_localizationTask.wav,6.5,"(1047, 878)","(87, -202)",95,-338,,,,,,,,,,,,,3,6,27,4,,,,,,,,,,,,,,,,,,,,,,,,,,,,,,,,,,,,,,,,1490.7379867620766,None,,,1493.7689726040699,None,1.555026455026455,0.46605409728363156,1493.7689726040699,None,,,,,,,1491.7527124141343,None,1491.9361227951013,1491.9527396932244,,,,,,,158,001,2024_Jan_29_1647,SpeechDraft1Carolyn_lessNoise_PlusLocalization,2021.2.3,59.902958198245436,
,,,,,,,,midLeft,-13.0,2,ch1Sound_localizationTask.wav,-13.0,"(762, 878)","(-198,-202)",-190,-338,,,,,,,,,,,,,4,0,28,1,,,,,,,,,,,,,,,,,,,,,,,,,,,,,,,,,,,,,,,,1494.2378839440644,None,,,1497.2691130223684,None,1.4010582010582011,0.5994388097897172,1497.2691130223684,None,,,,,,,1495.2526868609712,None,1495.4361031693406,1495.4526669899933,,,,,,,158,001,2024_Jan_29_1647,SpeechDraft1Carolyn_lessNoise_PlusLocalization,2021.2.3,59.902958198245436,
,,,,,,,,nearRight,6.5,0,ch1Sound_localizationTask.wav,6.5,"(1047, 878)","(87, -202)",95,-338,,,,,,,,,,,,,4,1,29,4,,,,,,,,,,,,,,,,,,,,,,,,,,,,,,,,,,,,,,,,1497.8709796234034,None,,,1500.9024670771323,None,1.5560846560846562,0.6494620628654957,1500.9024670771323,None,,,,,,,1498.8860553330742,None,1499.0693846503273,1499.0860262662172,,,,,,,158,001,2024_Jan_29_1647,SpeechDraft1Carolyn_lessNoise_PlusLocalization,2021.2.3,59.902958198245436,
,,,,,,,,farLeft,-19.1,5,ch1Sound_localizationTask.wav,-19.1,"(667, 878)","(-293,-202)",-285,-338,,,,,,,,,,,,,4,2,30,0,,,,,,,,,,,,,,,,,,,,,,,,,,,,,,,,,,,,,,,,1501.5694888331927,None,,,1504.5857580993325,None,1.3566137566137566,0.7327005257830024,1504.5857580993325,None,,,,,,,1502.5694181891158,None,1502.7527591530234,1502.7693921662867,,,,,,,158,001,2024_Jan_29_1647,SpeechDraft1Carolyn_lessNoise_PlusLocalization,2021.2.3,59.902958198245436,
,,,,,,,,nearLeft,-6.5,1,ch1Sound_localizationTask.wav,-6.5,"(857, 878)","(-103,-202)",-95,-338,,,,,,,,,,,,,4,3,31,2,,,,,,,,,,,,,,,,,,,,,,,,,,,,,,,,,,,,,,,,1505.3205041601323,None,,,1508.352569282055,None,1.438095238095238,0.8327896511182189,1508.352569282055,None,,,,,,,1506.3360724411905,None,1506.519374028314,1506.5360949002206,,,,,,,158,001,2024_Jan_29_1647,SpeechDraft1Carolyn_lessNoise_PlusLocalization,2021.2.3,59.902958198245436,
,,,,,,,,farRight,19.1,4,ch1Sound_localizationTask.wav,19.1,"(1237, 878)","(277,-202)",285,-338,,,,,,,,,,,,,4,4,32,6,,,,,,,,,,,,,,,,,,,,,,,,,,,,,,,,,,,,,,,,1509.1870700493455,None,,,1512.202589809429,None,1.655026455026455,0.9881966393440962,1512.202589809429,None,,,,,,,1510.1861572391354,None,1510.369422395248,1510.386108469218,,,,,,,158,001,2024_Jan_29_1647,SpeechDraft1Carolyn_lessNoise_PlusLocalization,2021.2.3,59.902958198245436,
,,,,,,,,midLeft,-13.0,2,ch1Sound_localizationTask.wav,-13.0,"(762, 878)","(-198,-202)",-190,-338,,,,,,,,,,,,,4,5,33,1,,,,,,,,,,,,,,,,,,,,,,,,,,,,,,,,,,,,,,,,1513.2028878973797,None,,,1516.2191824130714,None,1.3931216931216932,0.5664074099622667,1516.2191824130714,None,,,,,,,1514.2026708731428,None,1514.3860248234123,1514.4027506532148,,,,,,,158,001,2024_Jan_29_1647,SpeechDraft1Carolyn_lessNoise_PlusLocalization,2021.2.3,59.902958198245436,
,,,,,,,,center,0.0,6,ch1Sound_localizationTask.wav,0.0,"(952, 878)","(-8,-202)",0,-338,,,,,,,,,,,,,4,6,34,3,,,,,,,,,,,,,,,,,,,,,,,,,,,,,,,,,,,,,,,,1516.7873793561012,None,,,1519.8191219060682,None,1.5,0.8333270321600139,1519.8191219060682,None,,,,,,,1517.8027954720892,None,1517.9860567604192,1518.002770116087,,,,,,,158,001,2024_Jan_29_1647,SpeechDraft1Carolyn_lessNoise_PlusLocalization,2021.2.3,59.902958198245436,
,,,,,,,,farRight,19.1,4,ch1Sound_localizationTask.wav,19.1,"(1237, 878)","(277,-202)",285,-338,,,,,,,,,,,,,5,0,35,6,,,,,,,,,,,,,,,,,,,,,,,,,,,,,,,,,,,,,,,,1520.669449205976,None,,,1523.6857996792533,None,1.6566137566137566,0.6998060056939721,1523.6857996792533,None,,,,,,,1521.6693602283485,None,1521.8527461751364,1521.8693586350419,,,,,,,158,001,2024_Jan_29_1647,SpeechDraft1Carolyn_lessNoise_PlusLocalization,2021.2.3,59.902958198245436,
,,,,,,,,farRight,19.1,4,ch1Sound_localizationTask.wav,19.1,"(1237, 878)","(277,-202)",285,-338,,,,,,,,,,,,,5,1,36,6,,,,,,,,,,,,,,,,,,,,,,,,,,,,,,,,,,,,,,,,1524.3875639461912,None,,,1527.419058073312,None,1.6312169312169313,0.5668620397336781,1527.419058073312,None,,,,,,,1525.4027713150717,None,1525.5860262042843,1525.6027714461088,,,,,,,158,001,2024_Jan_29_1647,SpeechDraft1Carolyn_lessNoise_PlusLocalization,2021.2.3,59.902958198245436,
,,,,,,,,center,0.0,6,ch1Sound_localizationTask.wav,0.0,"(952, 878)","(-8,-202)",0,-338,,,,,,,,,,,,,5,2,37,3,,,,,,,,,,,,,,,,,,,,,,,,,,,,,,,,,,,,,,,,1528.0029047140852,None,,,1531.0191445192322,None,1.5074074074074075,0.6997762741521001,1531.0191445192322,None,,,,,,,1529.002778402064,None,1529.18609120138,1529.2027227473445,,,,,,,158,001,2024_Jan_29_1647,SpeechDraft1Carolyn_lessNoise_PlusLocalization,2021.2.3,59.902958198245436,
,,,,,,,,center,0.0,6,ch1Sound_localizationTask.wav,0.0,"(952, 878)","(-8,-202)",0,-338,,,,,,,,,,,,,5,3,38,3,,,,,,,,,,,,,,,,,,,,,,,,,,,,,,,,,,,,,,,,1531.7205683281645,None,,,1534.7525300011039,None,1.4994708994708994,0.3656252636574209,1534.7525300011039,None,,,,,,,1532.7360959281214,None,1532.919441471342,1532.9361376813613,,,,,,,158,001,2024_Jan_29_1647,SpeechDraft1Carolyn_lessNoise_PlusLocalization,2021.2.3,59.902958198245436,
,,,,,,,,nearRight,6.5,0,ch1Sound_localizationTask.wav,6.5,"(1047, 878)","(87, -202)",95,-338,,,,,,,,,,,,,5,4,39,4,,,,,,,,,,,,,,,,,,,,,,,,,,,,,,,,,,,,,,,,1535.1205854890868,None,,,1538.1357863880694,None,1.5412698412698411,0.7998645519837737,1538.1357863880694,None,,,,,,,1536.119479950983,None,1536.3028347231448,1536.3194280802272,,,,,,,158,001,2024_Jan_29_1647,SpeechDraft1Carolyn_lessNoise_PlusLocalization,2021.2.3,59.902958198245436,
,,,,,,,,nearLeft,-6.5,1,ch1Sound_localizationTask.wav,-6.5,"(857, 878)","(-103,-202)",-95,-338,,,,,,,,,,,,,5,5,40,2,,,,,,,,,,,,,,,,,,,,,,,,,,,,,,,,,,,,,,,,1538.9377068481408,None,,,1541.969209948089,None,1.434920634920635,0.7498916992917657,1541.969209948089,None,,,,,,,1539.9527164590545,None,1540.1360950921662,1540.1527396100573,,,,,,,158,001,2024_Jan_29_1647,SpeechDraft1Carolyn_lessNoise_PlusLocalization,2021.2.3,59.902958198245436,
,,,,,,,,midRight,13.0,3,ch1Sound_localizationTask.wav,13.0,"(1142, 878)","(182, -202)",190,-338,,,,,,,,,,,,,5,6,41,5,,,,,,,,,,,,,,,,,,,,,,,,,,,,,,,,,,,,,,,,1542.736189449206,None,,,1545.7524213842116,None,1.6227513227513226,0.6497103599831462,1545.7524213842116,None,,,,,,,1543.736084101256,None,1543.9193957122043,1543.9361441312358,,,,,,,158,001,2024_Jan_29_1647,SpeechDraft1Carolyn_lessNoise_PlusLocalization,2021.2.3,59.902958198245436,
,,,,,,,,farLeft,-19.1,5,ch1Sound_localizationTask.wav,-19.1,"(667, 878)","(-293,-202)",-285,-338,,,,,,,,,,,,,6,0,42,0,,,,,,,,,,,,,,,,,,,,,,,,,,,,,,,,,,,,,,,,1546.4044215013273,None,,,1549.4358386090025,None,1.3338624338624339,0.7487942897714674,1549.4358386090025,None,,,,,,,1547.4194150390103,None,1547.6027649422176,1547.6194220231846,,,,,,,158,001,2024_Jan_29_1647,SpeechDraft1Carolyn_lessNoise_PlusLocalization,2021.2.3,59.902958198245436,
,,,,,,,,farLeft,-19.1,5,ch1Sound_localizationTask.wav,-19.1,"(667, 878)","(-293,-202)",-285,-338,,,,,,,,,,,,,6,1,43,0,,,,,,,,,,,,,,,,,,,,,,,,,,,,,,,,,,,,,,,,1550.1870097042993,None,,,1553.2024932224303,None,1.334920634920635,0.4667023867368698,1553.2024932224303,None,,,,,,,1551.1860811673105,None,1551.3694802853279,1551.3861798429862,,,,,,,158,001,2024_Jan_29_1647,SpeechDraft1Carolyn_lessNoise_PlusLocalization,2021.2.3,59.902958198245436,
,,,,,,,,midRight,13.0,3,ch1Sound_localizationTask.wav,13.0,"(1142, 878)","(182, -202)",190,-338,,,,,,,,,,,,,6,2,44,5,,,,,,,,,,,,,,,,,,,,,,,,,,,,,,,,,,,,,,,,1553.6864557140507,None,,,1556.7024988643825,None,1.6084656084656084,0.7329609133303165,1556.7024988643825,None,,,,,,,1554.6861595981754,None,1554.8695140220225,1554.8861667341553,,,,,,,158,001,2024_Jan_29_1647,SpeechDraft1Carolyn_lessNoise_PlusLocalization,2021.2.3,59.902958198245436,
,,,,,,,,farRight,19.1,4,ch1Sound_localizationTask.wav,19.1,"(1237, 878)","(277,-202)",285,-338,,,,,,,,,,,,,6,3,45,6,,,,,,,,,,,,,,,,,,,,,,,,,,,,,,,,,,,,,,,,1557.4375183722004,None,,,1560.4691617041826,None,1.6142857142857143,0.36627355497330427,1560.4691617041826,None,,,,,,,1558.4528185981326,None,1558.6360774361528,1558.6527952053584,,,,,,,158,001,2024_Jan_29_1647,SpeechDraft1Carolyn_lessNoise_PlusLocalization,2021.2.3,59.902958198245436,
,,,,,,,,nearLeft,-6.5,1,ch1Sound_localizationTask.wav,-6.5,"(857, 878)","(-103,-202)",-95,-338,,,,,,,,,,,,,6,4,46,2,,,,,,,,,,,,,,,,,,,,,,,,,,,,,,,,,,,,,,,,1560.8378894622438,None,,,1563.8691597892903,None,1.446031746031746,0.8332581496797502,1563.8691597892903,None,,,,,,,1561.8528157044202,None,1562.03615967324,1562.0526858023368,,,,,,,158,001,2024_Jan_29_1647,SpeechDraft1Carolyn_lessNoise_PlusLocalization,2021.2.3,59.902958198245436,
,,,,,,,,nearLeft,-6.5,1,ch1Sound_localizationTask.wav,-6.5,"(857, 878)","(-103,-202)",-95,-338,,,,,,,,,,,,,6,5,47,2,,,,,,,,,,,,,,,,,,,,,,,,,,,,,,,,,,,,,,,,1564.7044040011242,None,,,1567.7358396314085,None,1.4417989417989419,0.7331445072777569,1567.7358396314085,None,,,,,,,1565.7196130943485,None,1565.9029948161915,1565.9194982121699,,,,,,,158,001,2024_Jan_29_1647,SpeechDraft1Carolyn_lessNoise_PlusLocalization,2021.2.3,59.902958198245436,
,,,,,,,,center,0.0,6,ch1Sound_localizationTask.wav,0.0,"(952, 878)","(-8,-202)",0,-338,,,,,,,,,,,,,6,6,48,3,,,,,,,,,,,,,,,,,,,,,,,,,,,,,,,,,,,,,,,,1568.4710436053574,None,,,1571.5025180340745,None,1.4925925925925925,0.7334560151211917,1571.5025180340745,None,,,,,,,1569.4862581612542,None,1569.6694646039978,1569.6861163112335,,,,,,,158,001,2024_Jan_29_1647,SpeechDraft1Carolyn_lessNoise_PlusLocalization,2021.2.3,59.902958198245436,
,,,,,,,,midRight,13.0,3,ch1Sound_localizationTask.wav,13.0,"(1142, 878)","(182, -202)",190,-338,,,,,,,,,,,,,7,0,49,5,,,,,,,,,,,,,,,,,,,,,,,,,,,,,,,,,,,,,,,,1572.2529596090317,None,,,1575.2692057001404,None,1.5873015873015874,0.7159623261541128,1575.2692057001404,None,,,,,,,1573.2528994660825,None,1573.4362407741137,1573.4527635253035,,,,,,,158,001,2024_Jan_29_1647,SpeechDraft1Carolyn_lessNoise_PlusLocalization,2021.2.3,59.902958198245436,
,,,,,,,,nearRight,6.5,0,ch1Sound_localizationTask.wav,6.5,"(1047, 878)","(87, -202)",95,-338,,,,,,,,,,,,,7,1,50,4,,,,,,,,,,,,,,,,,,,,,,,,,,,,,,,,,,,,,,,,1575.9871813813224,None,,,1579.0025441390462,None,1.5354497354497354,0.6495634904131293,1579.0025441390462,None,,,,,,,1576.9862136603333,None,1577.169507082086,1577.1861196882091,,,,,,,158,001,2024_Jan_29_1647,SpeechDraft1Carolyn_lessNoise_PlusLocalization,2021.2.3,59.902958198245436,
,,,,,,,,midRight,13.0,3,ch1Sound_localizationTask.wav,13.0,"(1142, 878)","(182, -202)",190,-338,,,,,,,,,,,,,7,2,51,5,,,,,,,,,,,,,,,,,,,,,,,,,,,,,,,,,,,,,,,,1579.6542017892934,None,,,1582.6859862892888,None,1.565079365079365,0.34971449710428715,1582.6859862892888,None,,,,,,,1580.6695591961034,None,1580.8527876604348,1580.8695880793966,,,,,,,158,001,2024_Jan_29_1647,SpeechDraft1Carolyn_lessNoise_PlusLocalization,2021.2.3,59.902958198245436,
,,,,,,,,nearLeft,-6.5,1,ch1Sound_localizationTask.wav,-6.5,"(857, 878)","(-103,-202)",-95,-338,,,,,,,,,,,,,7,3,52,2,,,,,,,,,,,,,,,,,,,,,,,,,,,,,,,,,,,,,,,,1583.0378164462745,None,,,1586.0692596193403,None,1.4343915343915343,0.7162371901795268,1586.0692596193403,None,,,,,,,1584.0528622060083,None,1584.2361503662542,1584.2529895510525,,,,,,,158,001,2024_Jan_29_1647,SpeechDraft1Carolyn_lessNoise_PlusLocalization,2021.2.3,59.902958198245436,
,,,,,,,,center,0.0,6,ch1Sound_localizationTask.wav,0.0,"(952, 878)","(-8,-202)",0,-338,,,,,,,,,,,,,7,4,53,3,,,,,,,,,,,,,,,,,,,,,,,,,,,,,,,,,,,,,,,,1586.8030242370442,None,,,1589.8192732571624,None,1.4978835978835978,0.7990632760338485,1589.8192732571624,None,,,,,,,1587.8028134112246,None,1587.9861414292827,1588.0028473092243,,,,,,,158,001,2024_Jan_29_1647,SpeechDraft1Carolyn_lessNoise_PlusLocalization,2021.2.3,59.902958198245436,
,,,,,,,,nearRight,6.5,0,ch1Sound_localizationTask.wav,6.5,"(1047, 878)","(87, -202)",95,-338,,,,,,,,,,,,,7,5,54,4,,,,,,,,,,,,,,,,,,,,,,,,,,,,,,,,,,,,,,,,1590.6214863653295,None,,,1593.6525790751912,None,1.543915343915344,0.8993719150312245,1593.6525790751912,None,,,,,,,1591.6361697311513,None,1591.8195459591225,1591.8362133731134,,,,,,,158,001,2024_Jan_29_1647,SpeechDraft1Carolyn_lessNoise_PlusLocalization,2021.2.3,59.902958198245436,
,,,,,,,,farLeft,-19.1,5,ch1Sound_localizationTask.wav,-19.1,"(667, 878)","(-293,-202)",-285,-338,,,,,,,,,,,,,7,6,55,0,,,,,,,,,,,,,,,,,,,,,,,,,,,,,,,,,,,,,,,,1594.55379340332,None,,,1597.5693082301877,None,1.3423280423280424,0.8329409682191908,1597.5693082301877,None,,,,,,,1595.5529926232994,None,1595.7361483541317,1595.7528564119712,,,,,,,158,001,2024_Jan_29_1647,SpeechDraft1Carolyn_lessNoise_PlusLocalization,2021.2.3,59.902958198245436,
,,,,,,,,,,,,,,,,,,,,,,,,,,,,,,,,,,,,,,,,,,,,,,,,,,,,,,,,,,,,,,,,,,,,,,,,,,,,,,,,,,,,,,,,,,,,1598.4047580664046,None,c,46.77774599799886,1599.3861605119891,None,158,001,2024_Jan_29_1647,SpeechDraft1Carolyn_lessNoise_PlusLocalization,2021.2.3,59.902958198245436,
