Audio_Only_Files,Video_Files,Original_Word_List,noiseLevelCode,conditionCodes,noiseLevelFile1,noiseLevelFile2,InstrTextVar,targetSpeakerName,targetSpeakerEccen,targetSpkrChannel,targetSpkrSound,targetVisualDegrees,visStimLoc,visStimLoc2,visStimW,visStimH,practiceTrials.thisRepN,practiceTrials.thisTrialN,practiceTrials.thisN,practiceTrials.thisIndex,trials.thisRepN,trials.thisTrialN,trials.thisN,trials.thisIndex,audLocalLoop.thisRepN,audLocalLoop.thisTrialN,audLocalLoop.thisN,audLocalLoop.thisIndex,visualLocalLoop.thisRepN,visualLocalLoop.thisTrialN,visualLocalLoop.thisN,visualLocalLoop.thisIndex,letsGoAlready.keys,letsGoAlready.rt,letsGoAlready.started,letsGoAlready.stopped,text_2.started,text_2.stopped,text_3.started,text_3.stopped,key_resp_2.keys,key_resp_2.rt,key_resp_2.started,key_resp_2.stopped,text_5.started,text_5.stopped,fixCross.started,fixCross.stopped,fixCross2.started,fixCross2.stopped,answerPrompt.started,answerPrompt.stopped,getAnswer.text,getAnswer.started,getAnswer.stopped,goToNext.keys,goToNext.rt,goToNext.started,goToNext.stopped,stretchBreakTxrt.started,stretchBreakTxrt.stopped,key_resp_3.keys,key_resp_3.rt,key_resp_3.started,key_resp_3.stopped,letsGoLocal.keys,letsGoLocal.rt,letsGoLocal.started,letsGoLocal.stopped,text_4.started,text_4.stopped,prepFixTxt.started,prepFixTxt.stopped,prepFixTxt_2.started,prepFixTxt_2.stopped,respPromptLocal.started,respPromptLocal.stopped,slider.response,slider.rt,slider.started,slider.stopped,letsGoLocal_2.keys,letsGoLocal_2.rt,letsGoLocal_2.started,letsGoLocal_2.stopped,text_7.started,text_7.stopped,prepFixTxt_3.started,prepFixTxt_3.stopped,grating.started,grating.stopped,exitTxt.started,exitTxt.stopped,key_resp.keys,key_resp.rt,key_resp.started,key_resp.stopped,participant,session,date,expName,psychopyVersion,frameRate,
,,,,,,,,,,,,,,,,,,,,,,,,,,,,,,,,,space,2.4355681808665395,10.301750183105469,None,,,,,,,,,,,,,,,,,,,,,,,,,,,,,,,,,,,,,,,,,,,,,,,,,,,,,,,,,,,,,,160,001,2024_Jan_30_1830,SpeechDraft1Carolyn_lessNoise_PlusLocalization,2021.2.3,60.04558913934424,
,,,,,,,,,,,,,,,,,,,,,,,,,,,,,,,,,,,,,10.301750183105469,None,12.86878531286493,None,space,0.597625914029777,13.05161713110283,None,,,,,,,,,,,,,,,,,,,,,,,,,,,,,,,,,,,,,,,,,,,,,,,,,,,,,,160,001,2024_Jan_30_1830,SpeechDraft1Carolyn_lessNoise_PlusLocalization,2021.2.3,60.04558913934424,
ash.wav,ash.mpg,ash,1,A,Pink_Noise_1_1.wav,Pink_Noise_1_2.wav,"This is an example of an

AUDIO trial",,,,,,,,,,0,0,0,0,,,,,,,,,,,,,,,,,,,,,,,,,13.685716873034835,None,14.684930265881121,None,17.76776453619823,None,19.151625278871506,None,"ashe
",19.151625278871506,None,return,5.870270441751927,19.23496624501422,None,,,,,,,,,,,,,,,,,,,,,,,,,,,,,,,,,,,,,,,160,001,2024_Jan_30_1830,SpeechDraft1Carolyn_lessNoise_PlusLocalization,2021.2.3,60.04558913934424,
ash.wav,ash.mpg,ash,1,AV,Pink_Noise_1_1.wav,Pink_Noise_1_2.wav,"This is an example of an

AUDIO + VIDEO  trial",,,,,,,,,,0,1,1,1,,,,,,,,,,,,,,,,,,,,,,,,,25.16788318986073,None,26.1682440652512,None,27.6514579821378,None,29.034830851946026,None,"ashe
",29.034830851946026,None,return,5.2508382219821215,29.11839979607612,None,,,,,,,,,,,,,,,,,,,,,,,,,,,,,,,,,,,,,,,160,001,2024_Jan_30_1830,SpeechDraft1Carolyn_lessNoise_PlusLocalization,2021.2.3,60.04558913934424,
,,,,,,,,,,,,,,,,,,,,,,,,,,,,,,,,,,,,,,,,,,,,,,,,,,,,,,,,,,,,34.418456997256726,None,space,5.951531562954187,34.601718550082296,None,,,,,,,,,,,,,,,,,,,,,,,,,,,,,,,,,160,001,2024_Jan_30_1830,SpeechDraft1Carolyn_lessNoise_PlusLocalization,2021.2.3,60.04558913934424,
boat.wav,boat.mpg,boat,1,AV,Pink_Noise_1_1.wav,Pink_Noise_1_2.wav,,,,,,,,,,,,,,,0,0,0,115,,,,,,,,,,,,,,,,,,,,,,,40.61822487227619,None,42.10138250887394,None,43.4683569711633,None,boat,43.4683569711633,None,return,11.25754925981164,43.55172873986885,None,,,,,,,,,,,,,,,,,,,,,,,,,,,,,,,,,,,,,,,160,001,2024_Jan_30_1830,SpeechDraft1Carolyn_lessNoise_PlusLocalization,2021.2.3,60.04558913934424,
fish.wav,fish.mpg,fish,2,AV,Pink_Noise_2_1.wav,Pink_Noise_2_2.wav,,,,,,,,,,,,,,,0,1,1,105,,,,,,,,,,,,,,,,,,,,,,,54.83493259688839,None,56.33492158493027,None,57.71830960083753,None,fish,57.71830960083753,None,return,3.9275088850408792,57.80172554310411,None,,,,,,,,,,,,,,,,,,,,,,,,,,,,,,,,,,,,,,,160,001,2024_Jan_30_1830,SpeechDraft1Carolyn_lessNoise_PlusLocalization,2021.2.3,60.04558913934424,
fuel.wav,fuel.mpg,fuel,1,AV,Pink_Noise_1_1.wav,Pink_Noise_1_2.wav,,,,,,,,,,,,,,,0,2,2,74,,,,,,,,,,,,,,,,,,,,,,,61.751699218992144,None,63.25136414216831,None,64.63495039287955,None,fuel,64.63495039287955,None,return,16.114873773884028,64.7183997980319,None,,,,,,,,,,,,,,,,,,,,,,,,,,,,,,,,,,,,,,,160,001,2024_Jan_30_1830,SpeechDraft1Carolyn_lessNoise_PlusLocalization,2021.2.3,60.04558913934424,
truck.wav,truck.mpg,truck,4,A,Pink_Noise_4_1.wav,Pink_Noise_4_2.wav,,,,,,,,,,,,,,,0,3,3,6,,,,,,,,,,,,,,,,,,,,,,,80.8517260318622,None,82.3515190910548,None,83.7353333728388,None,chalk,83.7353333728388,None,return,8.590669400058687,83.8185586319305,None,,,,,,,,,,,,,,,,,,,,,,,,,,,,,,,,,,,,,,,160,001,2024_Jan_30_1830,SpeechDraft1Carolyn_lessNoise_PlusLocalization,2021.2.3,60.04558913934424,
flair.wav,flair.mpg,flair,3,A,Pink_Noise_3_1.wav,Pink_Noise_3_2.wav,,,,,,,,,,,,,,,0,4,4,45,,,,,,,,,,,,,,,,,,,,,,,92.4350633979775,None,93.93452524486929,None,95.3184041311033,None,plane,95.3184041311033,None,return,6.415656175930053,95.4016412529163,None,,,,,,,,,,,,,,,,,,,,,,,,,,,,,,,,,,,,,,,160,001,2024_Jan_30_1830,SpeechDraft1Carolyn_lessNoise_PlusLocalization,2021.2.3,60.04558913934424,
file.wav,file.mpg,file,4,A,Pink_Noise_4_1.wav,Pink_Noise_4_2.wav,,,,,,,,,,,,,,,0,5,5,37,,,,,,,,,,,,,,,,,,,,,,,101.83494481211528,None,103.31979280803353,None,104.70171968685463,None,brown,104.70171968685463,None,return,2.6722446735948324,104.78505839314312,None,,,,,,,,,,,,,,,,,,,,,,,,,,,,,,,,,,,,,,,160,001,2024_Jan_30_1830,SpeechDraft1Carolyn_lessNoise_PlusLocalization,2021.2.3,60.04558913934424,
fad.wav,fad.mpg,fad,5,AV,Pink_Noise_5_1.wav,Pink_Noise_5_2.wav,,,,,,,,,,,,,,,0,6,6,108,,,,,,,,,,,,,,,,,,,,,,,107.48502818820998,None,108.98472683085129,None,110.36839182581753,None,fire,110.36839182581753,None,return,2.5094751729629934,110.45175722800195,None,,,,,,,,,,,,,,,,,,,,,,,,,,,,,,,,,,,,,,,160,001,2024_Jan_30_1830,SpeechDraft1Carolyn_lessNoise_PlusLocalization,2021.2.3,60.04558913934424,
beam.wav,beam.mpg,beam,3,A,Pink_Noise_3_1.wav,Pink_Noise_3_2.wav,,,,,,,,,,,,,,,0,7,7,13,,,,,,,,,,,,,,,,,,,,,,,112.98501239018515,None,114.48466732027009,None,115.86849224520847,None,"new
",115.86849224520847,None,return,9.553499578963965,115.95173018425703,None,,,,,,,,,,,,,,,,,,,,,,,,,,,,,,,,,,,,,,,160,001,2024_Jan_30_1830,SpeechDraft1Carolyn_lessNoise_PlusLocalization,2021.2.3,60.04558913934424,
ghost.wav,ghost.mpg,ghost,6,AV,Pink_Noise_6_1.wav,Pink_Noise_6_2.wav,,,,,,,,,,,,,,,0,8,8,81,,,,,,,,,,,,,,,,,,,,,,,125.53501388523728,None,127.03475945815444,None,128.41840094001964,None,ghost,128.41840094001964,None,return,5.643479072023183,128.50175695726648,None,,,,,,,,,,,,,,,,,,,,,,,,,,,,,,,,,,,,,,,160,001,2024_Jan_30_1830,SpeechDraft1Carolyn_lessNoise_PlusLocalization,2021.2.3,60.04558913934424,
sock.wav,sock.mpg,sock,6,AV,Pink_Noise_6_1.wav,Pink_Noise_6_2.wav,,,,,,,,,,,,,,,0,9,9,100,,,,,,,,,,,,,,,,,,,,,,,134.16840331582353,None,135.6681036632508,None,137.0353189171292,None,die,137.0353189171292,None,return,3.5787049480713904,137.118556690868,None,,,,,,,,,,,,,,,,,,,,,,,,,,,,,,,,,,,,,,,160,001,2024_Jan_30_1830,SpeechDraft1Carolyn_lessNoise_PlusLocalization,2021.2.3,60.04558913934424,
gas.wav,gas.mpg,gas,3,AV,Pink_Noise_3_1.wav,Pink_Noise_3_2.wav,,,,,,,,,,,,,,,0,10,10,88,,,,,,,,,,,,,,,,,,,,,,,140.71856983099133,None,142.2182398592122,None,143.6017816318199,None,guess,143.6017816318199,None,return,3.3480630293488503,143.68521078117192,None,,,,,,,,,,,,,,,,,,,,,,,,,,,,,,,,,,,,,,,160,001,2024_Jan_30_1830,SpeechDraft1Carolyn_lessNoise_PlusLocalization,2021.2.3,60.04558913934424,
pants.wav,pants.mpg,pants,6,AV,Pink_Noise_6_1.wav,Pink_Noise_6_2.wav,,,,,,,,,,,,,,,0,11,11,116,,,,,,,,,,,,,,,,,,,,,,,147.05181002710015,None,148.5514444601722,None,149.93523387797177,None,plant,149.93523387797177,None,return,3.4308451851829886,150.01843005418777,None,,,,,,,,,,,,,,,,,,,,,,,,,,,,,,,,,,,,,,,160,001,2024_Jan_30_1830,SpeechDraft1Carolyn_lessNoise_PlusLocalization,2021.2.3,60.04558913934424,
guest.wav,guest.mpg,guest,1,A,Pink_Noise_1_1.wav,Pink_Noise_1_2.wav,,,,,,,,,,,,,,,0,12,12,19,,,,,,,,,,,,,,,,,,,,,,,153.46850889921188,None,154.96847692225128,None,156.35177604621276,None,guest,156.35177604621276,None,return,9.206195259001106,156.43510259594768,None,,,,,,,,,,,,,,,,,,,,,,,,,,,,,,,,,,,,,,,160,001,2024_Jan_30_1830,SpeechDraft1Carolyn_lessNoise_PlusLocalization,2021.2.3,60.04558913934424,
slush.wav,slush.mpg,slush,2,A,Pink_Noise_2_1.wav,Pink_Noise_2_2.wav,,,,,,,,,,,,,,,0,13,13,20,,,,,,,,,,,,,,,,,,,,,,,165.66842478094622,None,167.16808168310672,None,168.53529435303062,None,slash,168.53529435303062,None,return,2.6946101118810475,168.61862678220496,None,,,,,,,,,,,,,,,,,,,,,,,,,,,,,,,,,,,,,,,160,001,2024_Jan_30_1830,SpeechDraft1Carolyn_lessNoise_PlusLocalization,2021.2.3,60.04558913934424,
bride.wav,bride.mpg,bride,1,A,Pink_Noise_1_1.wav,Pink_Noise_1_2.wav,,,,,,,,,,,,,,,0,14,14,0,,,,,,,,,,,,,,,,,,,,,,,171.3351550111547,None,172.83507318794727,None,174.20185493305326,None,pride,174.20185493305326,None,return,3.9801793601363897,174.28519620886073,None,,,,,,,,,,,,,,,,,,,,,,,,,,,,,,,,,,,,,,,160,001,2024_Jan_30_1830,SpeechDraft1Carolyn_lessNoise_PlusLocalization,2021.2.3,60.04558913934424,
flood.wav,flood.mpg,flood,1,A,Pink_Noise_1_1.wav,Pink_Noise_1_2.wav,,,,,,,,,,,,,,,0,15,15,44,,,,,,,,,,,,,,,,,,,,,,,178.2852167240344,None,179.78462855983526,None,181.16856632195413,None,flood,181.16856632195413,None,return,9.261350804939866,181.25189080182463,None,,,,,,,,,,,,,,,,,,,,,,,,,,,,,,,,,,,,,,,160,001,2024_Jan_30_1830,SpeechDraft1Carolyn_lessNoise_PlusLocalization,2021.2.3,60.04558913934424,
ball.wav,ball.mpg,ball,2,AV,Pink_Noise_2_1.wav,Pink_Noise_2_2.wav,,,,,,,,,,,,,,,0,16,16,83,,,,,,,,,,,,,,,,,,,,,,,190.53506931103766,None,192.0348907932639,None,193.4185611559078,None,"ball
",193.4185611559078,None,return,3.635326405055821,193.50191216310486,None,,,,,,,,,,,,,,,,,,,,,,,,,,,,,,,,,,,,,,,160,001,2024_Jan_30_1830,SpeechDraft1Carolyn_lessNoise_PlusLocalization,2021.2.3,60.04558913934424,
live.wav,live.mpg,live,3,A,Pink_Noise_3_1.wav,Pink_Noise_3_2.wav,,,,,,,,,,,,,,,0,17,17,22,,,,,,,,,,,,,,,,,,,,,,,197.1685227318667,None,198.6683163130656,None,200.05187382316217,None,play,200.05187382316217,None,return,3.4419938237406313,200.1352586201392,None,,,,,,,,,,,,,,,,,,,,,,,,,,,,,,,,,,,,,,,160,001,2024_Jan_30_1830,SpeechDraft1Carolyn_lessNoise_PlusLocalization,2021.2.3,60.04558913934424,
roar.wav,roar.mpg,roar,4,AV,Pink_Noise_4_1.wav,Pink_Noise_4_2.wav,,,,,,,,,,,,,,,0,18,18,68,,,,,,,,,,,,,,,,,,,,,,,203.6018021600321,None,205.10142176225781,None,206.48511733300984,None,door,206.48511733300984,None,return,6.04066819511354,206.56860392121598,None,,,,,,,,,,,,,,,,,,,,,,,,,,,,,,,,,,,,,,,160,001,2024_Jan_30_1830,SpeechDraft1Carolyn_lessNoise_PlusLocalization,2021.2.3,60.04558913934424,
flat.wav,flat.mpg,flat,4,A,Pink_Noise_4_1.wav,Pink_Noise_4_2.wav,,,,,,,,,,,,,,,0,19,19,23,,,,,,,,,,,,,,,,,,,,,,,212.63523497013375,None,214.1351714199409,None,215.51845271186903,None,plant,215.51845271186903,None,return,4.111362911760807,215.60187229095027,None,,,,,,,,,,,,,,,,,,,,,,,,,,,,,,,,,,,,,,,160,001,2024_Jan_30_1830,SpeechDraft1Carolyn_lessNoise_PlusLocalization,2021.2.3,60.04558913934424,
blank.wav,blank.mpg,blank,3,A,Pink_Noise_3_1.wav,Pink_Noise_3_2.wav,,,,,,,,,,,,,,,0,20,20,15,,,,,,,,,,,,,,,,,,,,,,,219.73528379527852,None,221.23498174687847,None,222.61869128607213,None,lake,222.61869128607213,None,return,3.3154469397850335,222.70184918912128,None,,,,,,,,,,,,,,,,,,,,,,,,,,,,,,,,,,,,,,,160,001,2024_Jan_30_1830,SpeechDraft1Carolyn_lessNoise_PlusLocalization,2021.2.3,60.04558913934424,
coal.wav,coal.mpg,coal,4,A,Pink_Noise_4_1.wav,Pink_Noise_4_2.wav,,,,,,,,,,,,,,,0,21,21,3,,,,,,,,,,,,,,,,,,,,,,,226.03522219415754,None,227.53476270707324,None,228.91855831397697,None,"toy
",228.91855831397697,None,return,3.3034025742672384,229.00187000725418,None,,,,,,,,,,,,,,,,,,,,,,,,,,,,,,,,,,,,,,,160,001,2024_Jan_30_1830,SpeechDraft1Carolyn_lessNoise_PlusLocalization,2021.2.3,60.04558913934424,
clown.wav,clown.mpg,clown,6,A,Pink_Noise_6_1.wav,Pink_Noise_6_2.wav,,,,,,,,,,,,,,,0,22,22,26,,,,,,,,,,,,,,,,,,,,,,,232.33536695409566,None,233.85140191903338,None,235.2352584931068,None,"plant
",235.2352584931068,None,return,8.586512189824134,235.31872466998175,None,,,,,,,,,,,,,,,,,,,,,,,,,,,,,,,,,,,,,,,160,001,2024_Jan_30_1830,SpeechDraft1Carolyn_lessNoise_PlusLocalization,2021.2.3,60.04558913934424,
blaze.wav,blaze.mpg,blaze,2,AV,Pink_Noise_2_1.wav,Pink_Noise_2_2.wav,,,,,,,,,,,,,,,0,23,23,84,,,,,,,,,,,,,,,,,,,,,,,243.93507210118696,None,245.4350307811983,None,246.81860296893865,None,blaze,246.81860296893865,None,return,4.627190039027482,246.90203366195783,None,,,,,,,,,,,,,,,,,,,,,,,,,,,,,,,,,,,,,,,160,001,2024_Jan_30_1830,SpeechDraft1Carolyn_lessNoise_PlusLocalization,2021.2.3,60.04558913934424,
grind.wav,grind.mpg,grind,3,AV,Pink_Noise_3_1.wav,Pink_Noise_3_2.wav,,,,,,,,,,,,,,,0,24,24,78,,,,,,,,,,,,,,,,,,,,,,,251.55199044710025,None,253.06816584989429,None,254.45185575215146,None,grind,254.45185575215146,None,return,10.682158901821822,254.53519967012107,None,,,,,,,,,,,,,,,,,,,,,,,,,,,,,,,,,,,,,,,160,001,2024_Jan_30_1830,SpeechDraft1Carolyn_lessNoise_PlusLocalization,2021.2.3,60.04558913934424,
squat.wav,squat.mpg,squat,6,A,Pink_Noise_6_1.wav,Pink_Noise_6_2.wav,,,,,,,,,,,,,,,0,25,25,27,,,,,,,,,,,,,,,,,,,,,,,265.23525959905237,None,266.73528462508693,None,268.1185412649065,None,inject,268.1185412649065,None,return,22.695201984141022,268.2020330540836,None,,,,,,,,,,,,,,,,,,,,,,,,,,,,,,,,,,,,,,,160,001,2024_Jan_30_1830,SpeechDraft1Carolyn_lessNoise_PlusLocalization,2021.2.3,60.04558913934424,
eat.wav,eat.mpg,eat,5,AV,Pink_Noise_5_1.wav,Pink_Noise_5_2.wav,,,,,,,,,,,,,,,0,26,26,65,,,,,,,,,,,,,,,,,,,,,,,290.9186222469434,None,292.4183726781048,None,293.8025212371722,None,eat,293.8025212371722,None,return,4.363821927923709,293.8854153989814,None,,,,,,,,,,,,,,,,,,,,,,,,,,,,,,,,,,,,,,,160,001,2024_Jan_30_1830,SpeechDraft1Carolyn_lessNoise_PlusLocalization,2021.2.3,60.04558913934424,
blush.wav,blush.mpg,blush,2,AV,Pink_Noise_2_1.wav,Pink_Noise_2_2.wav,,,,,,,,,,,,,,,0,27,27,113,,,,,,,,,,,,,,,,,,,,,,,298.26853589108214,None,299.7682897718623,None,301.15194637095556,None,blush,301.15194637095556,None,return,2.861959957983345,301.2352846339345,None,,,,,,,,,,,,,,,,,,,,,,,,,,,,,,,,,,,,,,,160,001,2024_Jan_30_1830,SpeechDraft1Carolyn_lessNoise_PlusLocalization,2021.2.3,60.04558913934424,
dump.wav,dump.mpg,dump,6,A,Pink_Noise_6_1.wav,Pink_Noise_6_2.wav,,,,,,,,,,,,,,,0,28,28,53,,,,,,,,,,,,,,,,,,,,,,,304.1186716542579,None,305.6184684098698,None,307.00198683701456,None,done,307.00198683701456,None,return,14.291808423120528,307.0854164129123,None,,,,,,,,,,,,,,,,,,,,,,,,,,,,,,,,,,,,,,,160,001,2024_Jan_30_1830,SpeechDraft1Carolyn_lessNoise_PlusLocalization,2021.2.3,60.04558913934424,
stain.wav,stain.mpg,stain,5,A,Pink_Noise_5_1.wav,Pink_Noise_5_2.wav,,,,,,,,,,,,,,,0,29,29,29,,,,,,,,,,,,,,,,,,,,,,,321.4020257042721,None,322.9015034022741,None,324.28552892804146,None,slam,324.28552892804146,None,return,10.312491009011865,324.3687420929782,None,,,,,,,,,,,,,,,,,,,,,,,,,,,,,,,,,,,,,,,160,001,2024_Jan_30_1830,SpeechDraft1Carolyn_lessNoise_PlusLocalization,2021.2.3,60.04558913934424,
style.wav,style.mpg,style,4,A,Pink_Noise_4_1.wav,Pink_Noise_4_2.wav,,,,,,,,,,,,,,,0,30,30,51,,,,,,,,,,,,,,,,,,,,,,,334.7023321771994,None,336.2182518839836,None,337.6020847358741,None,sad,337.6020847358741,None,return,2.579935618676245,337.6853957660496,None,,,,,,,,,,,,,,,,,,,,,,,,,,,,,,,,,,,,,,,160,001,2024_Jan_30_1830,SpeechDraft1Carolyn_lessNoise_PlusLocalization,2021.2.3,60.04558913934424,
quart.wav,quart.mpg,quart,5,AV,Pink_Noise_5_1.wav,Pink_Noise_5_2.wav,,,,,,,,,,,,,,,0,31,31,106,,,,,,,,,,,,,,,,,,,,,,,340.2855321750976,None,341.7851535822265,None,343.16860582493246,None,hurt,343.16860582493246,None,return,5.021217348985374,343.25202228408307,None,,,,,,,,,,,,,,,,,,,,,,,,,,,,,,,,,,,,,,,160,001,2024_Jan_30_1830,SpeechDraft1Carolyn_lessNoise_PlusLocalization,2021.2.3,60.04558913934424,
cup.wav,cup.mpg,cup,1,AV,Pink_Noise_1_1.wav,Pink_Noise_1_2.wav,,,,,,,,,,,,,,,0,32,32,86,,,,,,,,,,,,,,,,,,,,,,,348.3021589149721,None,349.80185329308733,None,351.1852529961616,None,cup,351.1852529961616,None,return,2.7965738540515304,351.26873556384817,None,,,,,,,,,,,,,,,,,,,,,,,,,,,,,,,,,,,,,,,160,001,2024_Jan_30_1830,SpeechDraft1Carolyn_lessNoise_PlusLocalization,2021.2.3,60.04558913934424,
dumb.wav,dumb.mpg,dumb,4,AV,Pink_Noise_4_1.wav,Pink_Noise_4_2.wav,,,,,,,,,,,,,,,0,33,33,110,,,,,,,,,,,,,,,,,,,,,,,354.0853121331893,None,355.58501097606495,None,356.9687470388599,None,dumb,356.9687470388599,None,return,11.533278678078204,357.0520357489586,None,,,,,,,,,,,,,,,,,,,,,,,,,,,,,,,,,,,,,,,160,001,2024_Jan_30_1830,SpeechDraft1Carolyn_lessNoise_PlusLocalization,2021.2.3,60.04558913934424,
chomp.wav,chomp.mpg,chomp,6,AV,Pink_Noise_6_1.wav,Pink_Noise_6_2.wav,,,,,,,,,,,,,,,0,34,34,87,,,,,,,,,,,,,,,,,,,,,,,368.60223334794864,None,370.10164870414883,None,371.48530001193285,None,"chop
",371.48530001193285,None,return,13.352441702969372,371.56879337411374,None,,,,,,,,,,,,,,,,,,,,,,,,,,,,,,,,,,,,,,,160,001,2024_Jan_30_1830,SpeechDraft1Carolyn_lessNoise_PlusLocalization,2021.2.3,60.04558913934424,
blame.wav,blame.mpg,blame,2,A,Pink_Noise_2_1.wav,Pink_Noise_2_2.wav,,,,,,,,,,,,,,,0,35,35,17,,,,,,,,,,,,,,,,,,,,,,,384.9521747608669,None,386.4517383999191,None,387.835409687832,None,"blank
",387.835409687832,None,return,4.434333723038435,387.9189049890265,None,,,,,,,,,,,,,,,,,,,,,,,,,,,,,,,,,,,,,,,160,001,2024_Jan_30_1830,SpeechDraft1Carolyn_lessNoise_PlusLocalization,2021.2.3,60.04558913934424,
flea.wav,flea.mpg,flea,3,A,Pink_Noise_3_1.wav,Pink_Noise_3_2.wav,,,,,,,,,,,,,,,0,36,36,33,,,,,,,,,,,,,,,,,,,,,,,392.3855549641885,None,393.88521981984377,None,395.268757826183,None,leave,395.268757826183,None,return,3.8330428670160472,395.35230831988156,None,,,,,,,,,,,,,,,,,,,,,,,,,,,,,,,,,,,,,,,160,001,2024_Jan_30_1830,SpeechDraft1Carolyn_lessNoise_PlusLocalization,2021.2.3,60.04558913934424,
bomb.wav,bomb.mpg,bomb,1,A,Pink_Noise_1_1.wav,Pink_Noise_1_2.wav,,,,,,,,,,,,,,,0,37,37,5,,,,,,,,,,,,,,,,,,,,,,,399.20222707884386,None,400.70193648012355,None,402.0856450991705,None,"bone
",402.0856450991705,None,return,5.184401283971965,402.16882239701226,None,,,,,,,,,,,,,,,,,,,,,,,,,,,,,,,,,,,,,,,160,001,2024_Jan_30_1830,SpeechDraft1Carolyn_lessNoise_PlusLocalization,2021.2.3,60.04558913934424,
beard.wav,beard.mpg,beard,3,A,Pink_Noise_3_1.wav,Pink_Noise_3_2.wav,,,,,,,,,,,,,,,0,38,38,43,,,,,,,,,,,,,,,,,,,,,,,407.38552685501054,None,408.8850688491948,None,410.2688629841432,None,"theory
",410.2688629841432,None,return,5.785094127990305,410.3521436541341,None,,,,,,,,,,,,,,,,,,,,,,,,,,,,,,,,,,,,,,,160,001,2024_Jan_30_1830,SpeechDraft1Carolyn_lessNoise_PlusLocalization,2021.2.3,60.04558913934424,
glove.wav,glove.mpg,glove,2,AV,Pink_Noise_2_1.wav,Pink_Noise_2_2.wav,,,,,,,,,,,,,,,0,39,39,61,,,,,,,,,,,,,,,,,,,,,,,416.16895239893347,None,417.6685869740322,None,419.0521428100765,None,glove,419.0521428100765,None,return,2.929896242916584,419.1354495519772,None,,,,,,,,,,,,,,,,,,,,,,,,,,,,,,,,,,,,,,,160,001,2024_Jan_30_1830,SpeechDraft1Carolyn_lessNoise_PlusLocalization,2021.2.3,60.04558913934424,
die.wav,die.mpg,die,5,AV,Pink_Noise_5_1.wav,Pink_Noise_5_2.wav,,,,,,,,,,,,,,,0,40,40,119,,,,,,,,,,,,,,,,,,,,,,,422.0856630480848,None,423.5853185658343,None,424.96874817926437,None,die,424.96874817926437,None,return,5.645207355264574,425.05203457316384,None,,,,,,,,,,,,,,,,,,,,,,,,,,,,,,,,,,,,,,,160,001,2024_Jan_30_1830,SpeechDraft1Carolyn_lessNoise_PlusLocalization,2021.2.3,60.04558913934424,
your.wav,your.mpg,your,5,A,Pink_Noise_5_1.wav,Pink_Noise_5_2.wav,,,,,,,,,,,,,,,0,41,41,34,,,,,,,,,,,,,,,,,,,,,,,430.7189960642718,None,432.21863443916664,None,433.6022264189087,None,slow,433.6022264189087,None,return,2.627860867418349,433.68535611685365,None,,,,,,,,,,,,,,,,,,,,,,,,,,,,,,,,,,,,,,,160,001,2024_Jan_30_1830,SpeechDraft1Carolyn_lessNoise_PlusLocalization,2021.2.3,60.04558913934424,
beg.wav,beg.mpg,beg,5,AV,Pink_Noise_5_1.wav,Pink_Noise_5_2.wav,,,,,,,,,,,,,,,0,42,42,64,,,,,,,,,,,,,,,,,,,,,,,436.33548856526613,None,437.8352979188785,None,439.2188275959343,None,"beg
",439.2188275959343,None,return,8.034823760855943,439.3024162109941,None,,,,,,,,,,,,,,,,,,,,,,,,,,,,,,,,,,,,,,,160,001,2024_Jan_30_1830,SpeechDraft1Carolyn_lessNoise_PlusLocalization,2021.2.3,60.04558913934424,
brawl.wav,brawl.mpg,brawl,6,A,Pink_Noise_6_1.wav,Pink_Noise_6_2.wav,,,,,,,,,,,,,,,0,43,43,30,,,,,,,,,,,,,,,,,,,,,,,447.36902788328007,None,448.86848775018007,None,450.2523386850953,None,throw,450.2523386850953,None,return,2.9456565561704338,450.3355976268649,None,,,,,,,,,,,,,,,,,,,,,,,,,,,,,,,,,,,,,,,160,001,2024_Jan_30_1830,SpeechDraft1Carolyn_lessNoise_PlusLocalization,2021.2.3,60.04558913934424,
drain.wav,drain.mpg,drain,4,A,Pink_Noise_4_1.wav,Pink_Noise_4_2.wav,,,,,,,,,,,,,,,0,44,44,9,,,,,,,,,,,,,,,,,,,,,,,453.30209524417296,None,454.80185189517215,None,456.18575591407716,None,pray,456.18575591407716,None,return,11.804228438064456,456.26900854799896,None,,,,,,,,,,,,,,,,,,,,,,,,,,,,,,,,,,,,,,,160,001,2024_Jan_30_1830,SpeechDraft1Carolyn_lessNoise_PlusLocalization,2021.2.3,60.04558913934424,
sue.wav,sue.mpg,sue,5,AV,Pink_Noise_5_1.wav,Pink_Noise_5_2.wav,,,,,,,,,,,,,,,0,45,45,103,,,,,,,,,,,,,,,,,,,,,,,468.1022548330948,None,469.6023701429367,None,470.9855701671913,None,soup,470.9855701671913,None,return,2.956305192783475,471.0689976369031,None,,,,,,,,,,,,,,,,,,,,,,,,,,,,,,,,,,,,,,,160,001,2024_Jan_30_1830,SpeechDraft1Carolyn_lessNoise_PlusLocalization,2021.2.3,60.04558913934424,
fowl.wav,fowl.mpg,fowl,1,AV,Pink_Noise_1_1.wav,Pink_Noise_1_2.wav,,,,,,,,,,,,,,,0,46,46,107,,,,,,,,,,,,,,,,,,,,,,,474.0522617078386,None,475.55191389797255,None,476.9355816091411,None,"foul
",476.9355816091411,None,return,3.0862246858887374,477.01900173025206,None,,,,,,,,,,,,,,,,,,,,,,,,,,,,,,,,,,,,,,,160,001,2024_Jan_30_1830,SpeechDraft1Carolyn_lessNoise_PlusLocalization,2021.2.3,60.04558913934424,
wind.wav,wind.mpg,wind,6,AV,Pink_Noise_6_1.wav,Pink_Noise_6_2.wav,,,,,,,,,,,,,,,0,47,47,117,,,,,,,,,,,,,,,,,,,,,,,480.1357169649564,None,481.63514894619584,None,483.01887591090053,None,weight,483.01887591090053,None,return,5.955091743264347,483.10222574789077,None,,,,,,,,,,,,,,,,,,,,,,,,,,,,,,,,,,,,,,,160,001,2024_Jan_30_1830,SpeechDraft1Carolyn_lessNoise_PlusLocalization,2021.2.3,60.04558913934424,
droop.wav,droop.mpg,droop,5,AV,Pink_Noise_5_1.wav,Pink_Noise_5_2.wav,,,,,,,,,,,,,,,0,48,48,71,,,,,,,,,,,,,,,,,,,,,,,489.0856147110462,None,490.58538439823315,None,491.96886273799464,None,droop,491.96886273799464,None,return,8.372976555023342,492.0523352921009,None,,,,,,,,,,,,,,,,,,,,,,,,,,,,,,,,,,,,,,,160,001,2024_Jan_30_1830,SpeechDraft1Carolyn_lessNoise_PlusLocalization,2021.2.3,60.04558913934424,
bear.wav,bear.mpg,bear,2,A,Pink_Noise_2_1.wav,Pink_Noise_2_2.wav,,,,,,,,,,,,,,,0,49,49,41,,,,,,,,,,,,,,,,,,,,,,,500.4522800161503,None,501.9519458631985,None,503.33567580394447,None,"there
",503.33567580394447,None,return,5.718212482985109,503.4190247608349,None,,,,,,,,,,,,,,,,,,,,,,,,,,,,,,,,,,,,,,,160,001,2024_Jan_30_1830,SpeechDraft1Carolyn_lessNoise_PlusLocalization,2021.2.3,60.04558913934424,
dance.wav,dance.mpg,dance,1,AV,Pink_Noise_1_1.wav,Pink_Noise_1_2.wav,,,,,,,,,,,,,,,0,50,50,92,,,,,,,,,,,,,,,,,,,,,,,509.1689980728552,None,510.6689916350879,None,512.0522183328867,None,damce,512.0522183328867,None,return,2.2497136630117893,512.1356213549152,None,,,,,,,,,,,,,,,,,,,,,,,,,,,,,,,,,,,,,,,160,001,2024_Jan_30_1830,SpeechDraft1Carolyn_lessNoise_PlusLocalization,2021.2.3,60.04558913934424,
dirt.wav,dirt.mpg,dirt,3,AV,Pink_Noise_3_1.wav,Pink_Noise_3_2.wav,,,,,,,,,,,,,,,0,51,51,101,,,,,,,,,,,,,,,,,,,,,,,514.4024011152796,None,515.9017876749858,None,517.2856550840661,None,dirt,517.2856550840661,None,return,6.016359800007194,517.3690444780514,None,,,,,,,,,,,,,,,,,,,,,,,,,,,,,,,,,,,,,,,160,001,2024_Jan_30_1830,SpeechDraft1Carolyn_lessNoise_PlusLocalization,2021.2.3,60.04558913934424,
dread.wav,dread.mpg,dread,1,A,Pink_Noise_1_1.wav,Pink_Noise_1_2.wav,,,,,,,,,,,,,,,0,52,52,56,,,,,,,,,,,,,,,,,,,,,,,523.4023101250641,None,524.902086253278,None,526.2856787550263,None,dread,526.2856787550263,None,return,4.360215884167701,526.3690518182702,None,,,,,,,,,,,,,,,,,,,,,,,,,,,,,,,,,,,,,,,160,001,2024_Jan_30_1830,SpeechDraft1Carolyn_lessNoise_PlusLocalization,2021.2.3,60.04558913934424,
faint.wav,faint.mpg,faint,4,AV,Pink_Noise_4_1.wav,Pink_Noise_4_2.wav,,,,,,,,,,,,,,,0,53,53,90,,,,,,,,,,,,,,,,,,,,,,,530.7524235099554,None,532.2519453088753,None,533.6357420212589,None,"fan
",533.6357420212589,None,return,6.818051323760301,533.7191801709123,None,,,,,,,,,,,,,,,,,,,,,,,,,,,,,,,,,,,,,,,160,001,2024_Jan_30_1830,SpeechDraft1Carolyn_lessNoise_PlusLocalization,2021.2.3,60.04558913934424,
goose.wav,goose.mpg,goose,4,AV,Pink_Noise_4_1.wav,Pink_Noise_4_2.wav,,,,,,,,,,,,,,,0,54,54,112,,,,,,,,,,,,,,,,,,,,,,,540.5690311901271,None,542.085357571952,None,543.4689646149054,None,loose,543.4689646149054,None,return,8.328892636112869,543.5523970020004,None,,,,,,,,,,,,,,,,,,,,,,,,,,,,,,,,,,,,,,,160,001,2024_Jan_30_1830,SpeechDraft1Carolyn_lessNoise_PlusLocalization,2021.2.3,60.04558913934424,
click.wav,click.mpg,click,2,A,Pink_Noise_2_1.wav,Pink_Noise_2_2.wav,,,,,,,,,,,,,,,0,55,55,55,,,,,,,,,,,,,,,,,,,,,,,551.9023655029014,None,553.4020699779503,None,554.7857347442769,None,"click
",554.7857347442769,None,return,2.651979769114405,554.8692617639899,None,,,,,,,,,,,,,,,,,,,,,,,,,,,,,,,,,,,,,,,160,001,2024_Jan_30_1830,SpeechDraft1Carolyn_lessNoise_PlusLocalization,2021.2.3,60.04558913934424,
fool.wav,fool.mpg,fool,5,AV,Pink_Noise_5_1.wav,Pink_Noise_5_2.wav,,,,,,,,,,,,,,,0,56,56,94,,,,,,,,,,,,,,,,,,,,,,,557.552439278923,None,559.0520252329297,None,560.4355593258515,None,four,560.4355593258515,None,return,2.394183753989637,560.5190648911521,None,,,,,,,,,,,,,,,,,,,,,,,,,,,,,,,,,,,,,,,160,001,2024_Jan_30_1830,SpeechDraft1Carolyn_lessNoise_PlusLocalization,2021.2.3,60.04558913934424,
dense.wav,dense.mpg,dense,5,A,Pink_Noise_5_1.wav,Pink_Noise_5_2.wav,,,,,,,,,,,,,,,0,57,57,48,,,,,,,,,,,,,,,,,,,,,,,562.9359708870761,None,564.4520652750507,None,565.8358392599039,None,dance,565.8358392599039,None,return,2.2421999839134514,565.9190231538378,None,,,,,,,,,,,,,,,,,,,,,,,,,,,,,,,,,,,,,,,160,001,2024_Jan_30_1830,SpeechDraft1Carolyn_lessNoise_PlusLocalization,2021.2.3,60.04558913934424,
edge.wav,edge.mpg,edge,1,AV,Pink_Noise_1_1.wav,Pink_Noise_1_2.wav,,,,,,,,,,,,,,,0,58,58,95,,,,,,,,,,,,,,,,,,,,,,,568.1858282769099,None,569.6856198720634,None,571.0687852040865,None,edge,571.0687852040865,None,return,2.8488211161457,571.1525550242513,None,,,,,,,,,,,,,,,,,,,,,,,,,,,,,,,,,,,,,,,160,001,2024_Jan_30_1830,SpeechDraft1Carolyn_lessNoise_PlusLocalization,2021.2.3,60.04558913934424,
ham.wav,ham.mpg,ham,1,A,Pink_Noise_1_1.wav,Pink_Noise_1_2.wav,,,,,,,,,,,,,,,0,59,59,57,,,,,,,,,,,,,,,,,,,,,,,574.0191842280328,None,575.5187375722453,None,576.9023431600071,None,ham,576.9023431600071,None,return,1.671720301732421,576.9856133540161,None,,,,,,,,,,,,,,,,,,,,,,,,,,,,,,,,,,,,,,,160,001,2024_Jan_30_1830,SpeechDraft1Carolyn_lessNoise_PlusLocalization,2021.2.3,60.04558913934424,
brick.wav,brick.mpg,brick,1,A,Pink_Noise_1_1.wav,Pink_Noise_1_2.wav,,,,,,,,,,,,,,,0,60,60,42,,,,,,,,,,,,,,,,,,,,,,,578.6856670868583,None,580.1851271609776,None,581.5691877482459,None,brick,581.5691877482459,None,return,8.228793272282928,581.6524552591145,None,,,,,,,,,,,,,,,,,,,,,,,,,,,,,,,,,,,,,,,160,001,2024_Jan_30_1830,SpeechDraft1Carolyn_lessNoise_PlusLocalization,2021.2.3,60.04558913934424,
drip.wav,drip.mpg,drip,4,AV,Pink_Noise_4_1.wav,Pink_Noise_4_2.wav,,,,,,,,,,,,,,,0,61,61,109,,,,,,,,,,,,,,,,,,,,,,,589.9022536161356,None,591.4020494939759,None,592.7858471260406,None,drip,592.7858471260406,None,return,5.140243024099618,592.8690957161598,None,,,,,,,,,,,,,,,,,,,,,,,,,,,,,,,,,,,,,,,160,001,2024_Jan_30_1830,SpeechDraft1Carolyn_lessNoise_PlusLocalization,2021.2.3,60.04558913934424,
hug.wav,hug.mpg,hug,2,A,Pink_Noise_2_1.wav,Pink_Noise_2_2.wav,,,,,,,,,,,,,,,0,62,62,16,,,,,,,,,,,,,,,,,,,,,,,598.0357763431966,None,599.5354481162503,None,600.9191532898694,None,hug,600.9191532898694,None,return,2.3105916008353233,601.0026317518204,None,,,,,,,,,,,,,,,,,,,,,,,,,,,,,,,,,,,,,,,160,001,2024_Jan_30_1830,SpeechDraft1Carolyn_lessNoise_PlusLocalization,2021.2.3,60.04558913934424,
flick.wav,flick.mpg,flick,6,A,Pink_Noise_6_1.wav,Pink_Noise_6_2.wav,,,,,,,,,,,,,,,0,63,63,28,,,,,,,,,,,,,,,,,,,,,,,603.3359681982547,None,604.8520993799902,None,606.2357452390715,None,slip,606.2357452390715,None,return,14.594100450631231,606.3191242231987,None,,,,,,,,,,,,,,,,,,,,,,,,,,,,,,,,,,,,,,,160,001,2024_Jan_30_1830,SpeechDraft1Carolyn_lessNoise_PlusLocalization,2021.2.3,60.04558913934424,
born.wav,born.mpg,born,4,A,Pink_Noise_4_1.wav,Pink_Noise_4_2.wav,,,,,,,,,,,,,,,0,64,64,52,,,,,,,,,,,,,,,,,,,,,,,620.9359248569235,None,622.4353913161904,None,623.8197345039807,None,born,623.8197345039807,None,return,3.5706502879038453,623.902595913969,None,,,,,,,,,,,,,,,,,,,,,,,,,,,,,,,,,,,,,,,160,001,2024_Jan_30_1830,SpeechDraft1Carolyn_lessNoise_PlusLocalization,2021.2.3,60.04558913934424,
clash.wav,clash.mpg,clash,6,A,Pink_Noise_6_1.wav,Pink_Noise_6_2.wav,,,,,,,,,,,,,,,0,65,65,24,,,,,,,,,,,,,,,,,,,,,,,627.5024050949141,None,629.0186938070692,None,630.3858462050557,None,flash,630.3858462050557,None,return,8.964125911705196,630.4691591472365,None,,,,,,,,,,,,,,,,,,,,,,,,,,,,,,,,,,,,,,,160,001,2024_Jan_30_1830,SpeechDraft1Carolyn_lessNoise_PlusLocalization,2021.2.3,60.04558913934424,
floor.wav,floor.mpg,floor,2,AV,Pink_Noise_2_1.wav,Pink_Noise_2_2.wav,,,,,,,,,,,,,,,0,66,66,76,,,,,,,,,,,,,,,,,,,,,,,639.4525315421633,None,640.952211542055,None,642.3358699120581,None,floor,642.3358699120581,None,return,6.174117433372885,642.4191755298525,None,,,,,,,,,,,,,,,,,,,,,,,,,,,,,,,,,,,,,,,160,001,2024_Jan_30_1830,SpeechDraft1Carolyn_lessNoise_PlusLocalization,2021.2.3,60.04558913934424,
brake.wav,brake.mpg,brake,1,AV,Pink_Noise_1_1.wav,Pink_Noise_1_2.wav,,,,,,,,,,,,,,,0,67,67,60,,,,,,,,,,,,,,,,,,,,,,,648.6191422408447,None,650.1188829289749,None,651.5025199060328,None,break,651.5025199060328,None,return,3.5112440357916057,651.5859915078618,None,,,,,,,,,,,,,,,,,,,,,,,,,,,,,,,,,,,,,,,160,001,2024_Jan_30_1830,SpeechDraft1Carolyn_lessNoise_PlusLocalization,2021.2.3,60.04558913934424,
glass.wav,glass.mpg,glass,4,AV,Pink_Noise_4_1.wav,Pink_Noise_4_2.wav,,,,,,,,,,,,,,,0,68,68,79,,,,,,,,,,,,,,,,,,,,,,,655.1191840101965,None,656.6355311628431,None,658.0192071362399,None,glass,658.0192071362399,None,return,2.778709376696497,658.1025425489061,None,,,,,,,,,,,,,,,,,,,,,,,,,,,,,,,,,,,,,,,160,001,2024_Jan_30_1830,SpeechDraft1Carolyn_lessNoise_PlusLocalization,2021.2.3,60.04558913934424,
crook.wav,crook.mpg,crook,4,AV,Pink_Noise_4_1.wav,Pink_Noise_4_2.wav,,,,,,,,,,,,,,,0,69,69,73,,,,,,,,,,,,,,,,,,,,,,,660.9023716142401,None,662.435590790119,None,663.8192277508788,None,crook,663.8192277508788,None,return,2.754833730403334,663.9025193140842,None,,,,,,,,,,,,,,,,,,,,,,,,,,,,,,,,,,,,,,,160,001,2024_Jan_30_1830,SpeechDraft1Carolyn_lessNoise_PlusLocalization,2021.2.3,60.04558913934424,
guard.wav,guard.mpg,guard,2,AV,Pink_Noise_2_1.wav,Pink_Noise_2_2.wav,,,,,,,,,,,,,,,0,70,70,82,,,,,,,,,,,,,,,,,,,,,,,666.6859720768407,None,668.2021725922823,None,669.5690964339301,None,guard,669.5690964339301,None,return,2.5728312768042088,669.6524952701293,None,,,,,,,,,,,,,,,,,,,,,,,,,,,,,,,,,,,,,,,160,001,2024_Jan_30_1830,SpeechDraft1Carolyn_lessNoise_PlusLocalization,2021.2.3,60.04558913934424,
fat.wav,fat.mpg,fat,4,A,Pink_Noise_4_1.wav,Pink_Noise_4_2.wav,,,,,,,,,,,,,,,0,71,71,7,,,,,,,,,,,,,,,,,,,,,,,672.2524205888622,None,673.7522178399377,None,675.136002952233,None,fat,675.136002952233,None,return,1.8620451358146966,675.2191824102774,None,,,,,,,,,,,,,,,,,,,,,,,,,,,,,,,,,,,,,,,160,001,2024_Jan_30_1830,SpeechDraft1Carolyn_lessNoise_PlusLocalization,2021.2.3,60.04558913934424,
warmth.wav,warmth.mpg,warmth,2,A,Pink_Noise_2_1.wav,Pink_Noise_2_2.wav,,,,,,,,,,,,,,,0,72,72,1,,,,,,,,,,,,,,,,,,,,,,,677.1026541031897,None,678.602032462135,None,679.9858825332485,None,work,679.9858825332485,None,return,1.5958907078020275,680.0693838810548,None,,,,,,,,,,,,,,,,,,,,,,,,,,,,,,,,,,,,,,,160,001,2024_Jan_30_1830,SpeechDraft1Carolyn_lessNoise_PlusLocalization,2021.2.3,60.04558913934424,
flank.wav,flank.mpg,flank,6,A,Pink_Noise_6_1.wav,Pink_Noise_6_2.wav,,,,,,,,,,,,,,,0,73,73,49,,,,,,,,,,,,,,,,,,,,,,,681.6858731070533,None,683.1858039670624,None,684.5692935949191,None,slut,684.5692935949191,None,return,11.348711469210684,684.6526131890714,None,,,,,,,,,,,,,,,,,,,,,,,,,,,,,,,,,,,,,,,160,001,2024_Jan_30_1830,SpeechDraft1Carolyn_lessNoise_PlusLocalization,2021.2.3,60.04558913934424,
grin.wav,grin.mpg,grin,1,A,Pink_Noise_1_1.wav,Pink_Noise_1_2.wav,,,,,,,,,,,,,,,0,74,74,31,,,,,,,,,,,,,,,,,,,,,,,696.0193220949732,None,697.53564279899,None,698.9191974229179,None,grin,698.9191974229179,None,return,7.830573996063322,699.0026233191602,None,,,,,,,,,,,,,,,,,,,,,,,,,,,,,,,,,,,,,,,160,001,2024_Jan_30_1830,SpeechDraft1Carolyn_lessNoise_PlusLocalization,2021.2.3,60.04558913934424,
pop.wav,pop.mpg,pop,1,AV,Pink_Noise_1_1.wav,Pink_Noise_1_2.wav,,,,,,,,,,,,,,,0,75,75,70,,,,,,,,,,,,,,,,,,,,,,,706.8527144808322,None,708.3520404011942,None,709.7356920009479,None,"pop
",709.7356920009479,None,return,2.31794301699847,709.8192918179557,None,,,,,,,,,,,,,,,,,,,,,,,,,,,,,,,,,,,,,,,160,001,2024_Jan_30_1830,SpeechDraft1Carolyn_lessNoise_PlusLocalization,2021.2.3,60.04558913934424,
skull.wav,skull.mpg,skull,3,AV,Pink_Noise_3_1.wav,Pink_Noise_3_2.wav,,,,,,,,,,,,,,,0,76,76,111,,,,,,,,,,,,,,,,,,,,,,,712.1693556411192,None,713.6696769171394,None,715.0523669230752,None,skull,715.0523669230752,None,return,11.881372273433954,715.1358734788373,None,,,,,,,,,,,,,,,,,,,,,,,,,,,,,,,,,,,,,,,160,001,2024_Jan_30_1830,SpeechDraft1Carolyn_lessNoise_PlusLocalization,2021.2.3,60.04558913934424,
flex.wav,flex.mpg,flex,5,A,Pink_Noise_5_1.wav,Pink_Noise_5_2.wav,,,,,,,,,,,,,,,0,77,77,21,,,,,,,,,,,,,,,,,,,,,,,727.0359701318666,None,728.5520605598576,None,729.9361298698932,None,slapped,729.9361298698932,None,return,11.398024107795209,730.019204525277,None,,,,,,,,,,,,,,,,,,,,,,,,,,,,,,,,,,,,,,,160,001,2024_Jan_30_1830,SpeechDraft1Carolyn_lessNoise_PlusLocalization,2021.2.3,60.04558913934424,
gone.wav,gone.mpg,gone,6,AV,Pink_Noise_6_1.wav,Pink_Noise_6_2.wav,,,,,,,,,,,,,,,0,78,78,99,,,,,,,,,,,,,,,,,,,,,,,741.4358216938563,None,742.9524945789017,None,744.3358617899939,None,learn,744.3358617899939,None,return,2.925795054063201,744.4194288472645,None,,,,,,,,,,,,,,,,,,,,,,,,,,,,,,,,,,,,,,,160,001,2024_Jan_30_1830,SpeechDraft1Carolyn_lessNoise_PlusLocalization,2021.2.3,60.04558913934424,
east.wav,east.mpg,east,3,AV,Pink_Noise_3_1.wav,Pink_Noise_3_2.wav,,,,,,,,,,,,,,,0,79,79,69,,,,,,,,,,,,,,,,,,,,,,,747.3691838132218,None,748.8859974122606,None,750.2693089018576,None,east,750.2693089018576,None,return,1.9446730981580913,750.352608458139,None,,,,,,,,,,,,,,,,,,,,,,,,,,,,,,,,,,,,,,,160,001,2024_Jan_30_1830,SpeechDraft1Carolyn_lessNoise_PlusLocalization,2021.2.3,60.04558913934424,
faith.wav,faith.mpg,faith,6,AV,Pink_Noise_6_1.wav,Pink_Noise_6_2.wav,,,,,,,,,,,,,,,0,80,80,66,,,,,,,,,,,,,,,,,,,,,,,752.3192944610491,None,753.8191517652012,None,755.2026167609729,None,"faith
",755.2026167609729,None,return,3.6511799739673734,755.2860576920211,None,,,,,,,,,,,,,,,,,,,,,,,,,,,,,,,,,,,,,,,160,001,2024_Jan_30_1830,SpeechDraft1Carolyn_lessNoise_PlusLocalization,2021.2.3,60.04558913934424,
cliff.wav,cliff.mpg,cliff,1,A,Pink_Noise_1_1.wav,Pink_Noise_1_2.wav,,,,,,,,,,,,,,,0,81,81,11,,,,,,,,,,,,,,,,,,,,,,,758.9693127078936,None,760.4690260789357,None,761.8527851011604,None,"cliff
",761.8527851011604,None,return,12.169178546406329,761.9360651159659,None,,,,,,,,,,,,,,,,,,,,,,,,,,,,,,,,,,,,,,,160,001,2024_Jan_30_1830,SpeechDraft1Carolyn_lessNoise_PlusLocalization,2021.2.3,60.04558913934424,
cap.wav,cap.mpg,cap,6,A,Pink_Noise_6_1.wav,Pink_Noise_6_2.wav,,,,,,,,,,,,,,,0,82,82,18,,,,,,,,,,,,,,,,,,,,,,,774.1359475459903,None,775.6523129991256,None,777.0195841640234,None,"slept
",777.0195841640234,None,return,4.80252725398168,777.1027258210815,None,,,,,,,,,,,,,,,,,,,,,,,,,,,,,,,,,,,,,,,160,001,2024_Jan_30_1830,SpeechDraft1Carolyn_lessNoise_PlusLocalization,2021.2.3,60.04558913934424,
folk.wav,folk.mpg,folk,3,AV,Pink_Noise_3_1.wav,Pink_Noise_3_2.wav,,,,,,,,,,,,,,,0,83,83,77,,,,,,,,,,,,,,,,,,,,,,,781.9359719171189,None,783.4525250978768,None,784.8362031499855,None,book,784.8362031499855,None,return,2.7219328857026994,784.9193519749679,None,,,,,,,,,,,,,,,,,,,,,,,,,,,,,,,,,,,,,,,160,001,2024_Jan_30_1830,SpeechDraft1Carolyn_lessNoise_PlusLocalization,2021.2.3,60.04558913934424,
dig.wav,dig.mpg,dig,1,AV,Pink_Noise_1_1.wav,Pink_Noise_1_2.wav,,,,,,,,,,,,,,,0,84,84,63,,,,,,,,,,,,,,,,,,,,,,,787.6693462901749,None,789.1689464668743,None,790.5527432551607,None,dig,790.5527432551607,None,return,3.7092671780847013,790.6359425052069,None,,,,,,,,,,,,,,,,,,,,,,,,,,,,,,,,,,,,,,,160,001,2024_Jan_30_1830,SpeechDraft1Carolyn_lessNoise_PlusLocalization,2021.2.3,60.04558913934424,
blow.wav,blow.mpg,blow,1,AV,Pink_Noise_1_1.wav,Pink_Noise_1_2.wav,,,,,,,,,,,,,,,0,85,85,62,,,,,,,,,,,,,,,,,,,,,,,794.3693621321581,None,795.8692288249731,None,797.252714658156,None,blow,797.252714658156,None,return,2.7931484882719815,797.3361017159186,None,,,,,,,,,,,,,,,,,,,,,,,,,,,,,,,,,,,,,,,160,001,2024_Jan_30_1830,SpeechDraft1Carolyn_lessNoise_PlusLocalization,2021.2.3,60.04558913934424,
mars.wav,mars.mpg,mars,5,A,Pink_Noise_5_1.wav,Pink_Noise_5_2.wav,,,,,,,,,,,,,,,0,86,86,35,,,,,,,,,,,,,,,,,,,,,,,800.1527855698951,None,801.6689021019265,None,803.0360417878255,None,"lobes
",803.0360417878255,None,return,12.017870740965009,803.1193694281392,None,,,,,,,,,,,,,,,,,,,,,,,,,,,,,,,,,,,,,,,160,001,2024_Jan_30_1830,SpeechDraft1Carolyn_lessNoise_PlusLocalization,2021.2.3,60.04558913934424,
client.wav,client.mpg,client,5,A,Pink_Noise_5_1.wav,Pink_Noise_5_2.wav,,,,,,,,,,,,,,,0,87,87,59,,,,,,,,,,,,,,,,,,,,,,,815.1693137050606,None,816.6690769791603,None,818.0528103210963,None,files,818.0528103210963,None,return,9.273328047711402,818.1360044581816,None,,,,,,,,,,,,,,,,,,,,,,,,,,,,,,,,,,,,,,,160,001,2024_Jan_30_1830,SpeechDraft1Carolyn_lessNoise_PlusLocalization,2021.2.3,60.04558913934424,
bag.wav,bag.mpg,bag,3,AV,Pink_Noise_3_1.wav,Pink_Noise_3_2.wav,,,,,,,,,,,,,,,0,88,88,104,,,,,,,,,,,,,,,,,,,,,,,827.4362440519035,None,828.9524941812269,None,830.3361157439649,None,"bag
",830.3361157439649,None,return,1.9176606959663332,830.4195828391239,None,,,,,,,,,,,,,,,,,,,,,,,,,,,,,,,,,,,,,,,160,001,2024_Jan_30_1830,SpeechDraft1Carolyn_lessNoise_PlusLocalization,2021.2.3,60.04558913934424,
frog.wav,frog.mpg,frog,6,AV,Pink_Noise_6_1.wav,Pink_Noise_6_2.wav,,,,,,,,,,,,,,,0,89,89,98,,,,,,,,,,,,,,,,,,,,,,,832.3694419460371,None,833.8870014119893,None,835.2696598051116,None,frog,835.2696598051116,None,return,4.6645421530120075,835.3527202652767,None,,,,,,,,,,,,,,,,,,,,,,,,,,,,,,,,,,,,,,,160,001,2024_Jan_30_1830,SpeechDraft1Carolyn_lessNoise_PlusLocalization,2021.2.3,60.04558913934424,
bloom.wav,bloom.mpg,bloom,5,A,Pink_Noise_5_1.wav,Pink_Noise_5_2.wav,,,,,,,,,,,,,,,0,90,90,46,,,,,,,,,,,,,,,,,,,,,,,840.0362351629883,None,841.5522981388494,None,842.9361552339979,None,blue,842.9361552339979,None,return,1.9898596527054906,843.0194282820448,None,,,,,,,,,,,,,,,,,,,,,,,,,,,,,,,,,,,,,,,160,001,2024_Jan_30_1830,SpeechDraft1Carolyn_lessNoise_PlusLocalization,2021.2.3,60.04558913934424,
earn.wav,earn.mpg,earn,5,A,Pink_Noise_5_1.wav,Pink_Noise_5_2.wav,,,,,,,,,,,,,,,0,91,91,25,,,,,,,,,,,,,,,,,,,,,,,845.0361318830401,None,846.5360193219967,None,847.9195213322528,None,fail,847.9195213322528,None,return,2.110337806865573,848.0028848568909,None,,,,,,,,,,,,,,,,,,,,,,,,,,,,,,,,,,,,,,,160,001,2024_Jan_30_1830,SpeechDraft1Carolyn_lessNoise_PlusLocalization,2021.2.3,60.04558913934424,
break.wav,break.mpg,break,2,A,Pink_Noise_2_1.wav,Pink_Noise_2_2.wav,,,,,,,,,,,,,,,0,92,92,50,,,,,,,,,,,,,,,,,,,,,,,850.1362922210246,None,851.652326239273,None,853.0360930389725,None,break,853.0360930389725,None,return,1.7617255011573434,853.1194982719608,None,,,,,,,,,,,,,,,,,,,,,,,,,,,,,,,,,,,,,,,160,001,2024_Jan_30_1830,SpeechDraft1Carolyn_lessNoise_PlusLocalization,2021.2.3,60.04558913934424,
cord.wav,cord.mpg,cord,3,AV,Pink_Noise_3_1.wav,Pink_Noise_3_2.wav,,,,,,,,,,,,,,,0,93,93,118,,,,,,,,,,,,,,,,,,,,,,,854.9027471379377,None,856.419297136832,None,857.8029244979843,None,"coin
",857.8029244979843,None,return,3.0190733741037548,857.8861666051671,None,,,,,,,,,,,,,,,,,,,,,,,,,,,,,,,,,,,,,,,160,001,2024_Jan_30_1830,SpeechDraft1Carolyn_lessNoise_PlusLocalization,2021.2.3,60.04558913934424,
bland.wav,bland.mpg,bland,5,AV,Pink_Noise_5_1.wav,Pink_Noise_5_2.wav,,,,,,,,,,,,,,,0,94,94,89,,,,,,,,,,,,,,,,,,,,,,,860.9361764788628,None,862.4524375470355,None,863.8362345392816,None,blank,863.8362345392816,None,return,4.473777690902352,863.9194970000535,None,,,,,,,,,,,,,,,,,,,,,,,,,,,,,,,,,,,,,,,160,001,2024_Jan_30_1830,SpeechDraft1Carolyn_lessNoise_PlusLocalization,2021.2.3,60.04558913934424,
cat.wav,cat.mpg,cat,5,A,Pink_Noise_5_1.wav,Pink_Noise_5_2.wav,,,,,,,,,,,,,,,0,95,95,10,,,,,,,,,,,,,,,,,,,,,,,868.41948977625,None,869.9357771170326,None,871.3195708468556,None,left,871.3195708468556,None,return,6.590580815915018,871.4027884718962,None,,,,,,,,,,,,,,,,,,,,,,,,,,,,,,,,,,,,,,,160,001,2024_Jan_30_1830,SpeechDraft1Carolyn_lessNoise_PlusLocalization,2021.2.3,60.04558913934424,
boss.wav,boss.mpg,boss,6,A,Pink_Noise_6_1.wav,Pink_Noise_6_2.wav,,,,,,,,,,,,,,,0,96,96,40,,,,,,,,,,,,,,,,,,,,,,,878.0195580762811,None,879.5357786561362,None,880.919608314056,None,slut,880.919608314056,None,return,11.854608311317861,881.0028086430393,None,,,,,,,,,,,,,,,,,,,,,,,,,,,,,,,,,,,,,,,160,001,2024_Jan_30_1830,SpeechDraft1Carolyn_lessNoise_PlusLocalization,2021.2.3,60.04558913934424,
foil.wav,foil.mpg,foil,6,A,Pink_Noise_6_1.wav,Pink_Noise_6_2.wav,,,,,,,,,,,,,,,0,97,97,2,,,,,,,,,,,,,,,,,,,,,,,892.8862844640389,None,894.4023260129616,None,895.7865419550799,None,slip,895.7865419550799,None,return,1.9877171097323298,895.8695027190261,None,,,,,,,,,,,,,,,,,,,,,,,,,,,,,,,,,,,,,,,160,001,2024_Jan_30_1830,SpeechDraft1Carolyn_lessNoise_PlusLocalization,2021.2.3,60.04558913934424,
glow.wav,glow.mpg,glow,3,A,Pink_Noise_3_1.wav,Pink_Noise_3_2.wav,,,,,,,,,,,,,,,0,98,98,14,,,,,,,,,,,,,,,,,,,,,,,897.8862742800266,None,899.4032824761234,None,900.7865172312595,None,glow,900.7865172312595,None,return,8.139821080025285,900.8695257352665,None,,,,,,,,,,,,,,,,,,,,,,,,,,,,,,,,,,,,,,,160,001,2024_Jan_30_1830,SpeechDraft1Carolyn_lessNoise_PlusLocalization,2021.2.3,60.04558913934424,
crane.wav,crane.mpg,crane,4,AV,Pink_Noise_4_1.wav,Pink_Noise_4_2.wav,,,,,,,,,,,,,,,0,99,99,91,,,,,,,,,,,,,,,,,,,,,,,909.0362063208595,None,910.5525971418247,None,911.9194306251593,None,"crank
",911.9194306251593,None,return,9.518445818219334,912.0028103240766,None,,,,,,,,,,,,,,,,,,,,,,,,,,,,,,,,,,,,,,,160,001,2024_Jan_30_1830,SpeechDraft1Carolyn_lessNoise_PlusLocalization,2021.2.3,60.04558913934424,
grand.wav,grand.mpg,grand,4,AV,Pink_Noise_4_1.wav,Pink_Noise_4_2.wav,,,,,,,,,,,,,,,0,100,100,96,,,,,,,,,,,,,,,,,,,,,,,921.5529694720171,None,923.0693285362795,None,924.4528167438693,None,"grand
",924.4528167438693,None,return,4.185060356743634,924.5361680439673,None,,,,,,,,,,,,,,,,,,,,,,,,,,,,,,,,,,,,,,,160,001,2024_Jan_30_1830,SpeechDraft1Carolyn_lessNoise_PlusLocalization,2021.2.3,60.04558913934424,
grief.wav,grief.mpg,grief,5,AV,Pink_Noise_5_1.wav,Pink_Noise_5_2.wav,,,,,,,,,,,,,,,0,101,101,80,,,,,,,,,,,,,,,,,,,,,,,928.7528457441367,None,930.2690587700345,None,931.6529525439255,None,stew,931.6529525439255,None,return,7.729079287964851,931.736191582866,None,,,,,,,,,,,,,,,,,,,,,,,,,,,,,,,,,,,,,,,160,001,2024_Jan_30_1830,SpeechDraft1Carolyn_lessNoise_PlusLocalization,2021.2.3,60.04558913934424,
cork.wav,cork.mpg,cork,6,AV,Pink_Noise_6_1.wav,Pink_Noise_6_2.wav,,,,,,,,,,,,,,,0,102,102,97,,,,,,,,,,,,,,,,,,,,,,,939.4862979808822,None,941.0025415490381,None,942.3862934960052,None,court,942.3862934960052,None,return,5.891695979051292,942.4695535190403,None,,,,,,,,,,,,,,,,,,,,,,,,,,,,,,,,,,,,,,,160,001,2024_Jan_30_1830,SpeechDraft1Carolyn_lessNoise_PlusLocalization,2021.2.3,60.04558913934424,
deem.wav,deem.mpg,deem,2,A,Pink_Noise_2_1.wav,Pink_Noise_2_2.wav,,,,,,,,,,,,,,,0,103,103,39,,,,,,,,,,,,,,,,,,,,,,,948.38620054489,None,949.9190823221579,None,951.3030671300367,None,"dean
",951.3030671300367,None,return,1.935069432016462,951.3861782508902,None,,,,,,,,,,,,,,,,,,,,,,,,,,,,,,,,,,,,,,,160,001,2024_Jan_30_1830,SpeechDraft1Carolyn_lessNoise_PlusLocalization,2021.2.3,60.04558913934424,
clay.wav,clay.mpg,clay,6,AV,Pink_Noise_6_1.wav,Pink_Noise_6_2.wav,,,,,,,,,,,,,,,0,104,104,102,,,,,,,,,,,,,,,,,,,,,,,953.3530180822127,None,954.8692747331224,None,956.2528962562792,None,slate,956.2528962562792,None,return,6.144992687739432,956.3362493412569,None,,,,,,,,,,,,,,,,,,,,,,,,,,,,,,,,,,,,,,,160,001,2024_Jan_30_1830,SpeechDraft1Carolyn_lessNoise_PlusLocalization,2021.2.3,60.04558913934424,
clip.wav,clip.mpg,clip,2,A,Pink_Noise_2_1.wav,Pink_Noise_2_2.wav,,,,,,,,,,,,,,,0,105,105,4,,,,,,,,,,,,,,,,,,,,,,,962.5029494389892,None,964.0191806391813,None,965.4029573951848,None,"cliff
",965.4029573951848,None,return,1.8188887839205563,965.4863458918408,None,,,,,,,,,,,,,,,,,,,,,,,,,,,,,,,,,,,,,,,160,001,2024_Jan_30_1830,SpeechDraft1Carolyn_lessNoise_PlusLocalization,2021.2.3,60.04558913934424,
cell.wav,cell.mpg,cell,2,A,Pink_Noise_2_1.wav,Pink_Noise_2_2.wav,,,,,,,,,,,,,,,0,106,106,54,,,,,,,,,,,,,,,,,,,,,,,967.3363892091438,None,968.8692894121632,None,970.2528745098971,None,spell,970.2528745098971,None,return,1.7049687788821757,970.3363553122617,None,,,,,,,,,,,,,,,,,,,,,,,,,,,,,,,,,,,,,,,160,001,2024_Jan_30_1830,SpeechDraft1Carolyn_lessNoise_PlusLocalization,2021.2.3,60.04558913934424,
burn.wav,burn.mpg,burn,3,AV,Pink_Noise_3_1.wav,Pink_Noise_3_2.wav,,,,,,,,,,,,,,,0,107,107,72,,,,,,,,,,,,,,,,,,,,,,,972.069547245279,None,973.5857940218411,None,974.9695995128714,None,burn,974.9695995128714,None,return,1.8043177952058613,975.0529197878204,None,,,,,,,,,,,,,,,,,,,,,,,,,,,,,,,,,,,,,,,160,001,2024_Jan_30_1830,SpeechDraft1Carolyn_lessNoise_PlusLocalization,2021.2.3,60.04558913934424,
clerk.wav,clerk.mpg,clerk,1,A,Pink_Noise_1_1.wav,Pink_Noise_1_2.wav,,,,,,,,,,,,,,,0,108,108,36,,,,,,,,,,,,,,,,,,,,,,,976.8864546371624,None,978.4028726830147,None,979.7862845840864,None,clerk,979.7862845840864,None,return,2.211622611153871,979.8696297630668,None,,,,,,,,,,,,,,,,,,,,,,,,,,,,,,,,,,,,,,,160,001,2024_Jan_30_1830,SpeechDraft1Carolyn_lessNoise_PlusLocalization,2021.2.3,60.04558913934424,
guide.wav,guide.mpg,guide,3,AV,Pink_Noise_3_1.wav,Pink_Noise_3_2.wav,,,,,,,,,,,,,,,0,109,109,114,,,,,,,,,,,,,,,,,,,,,,,982.1031342269853,None,983.6529305288568,None,985.036238742061,None,guide,985.036238742061,None,return,5.225490367971361,985.1197352539748,None,,,,,,,,,,,,,,,,,,,,,,,,,,,,,,,,,,,,,,,160,001,2024_Jan_30_1830,SpeechDraft1Carolyn_lessNoise_PlusLocalization,2021.2.3,60.04558913934424,
bond.wav,bond.mpg,bond,3,A,Pink_Noise_3_1.wav,Pink_Noise_3_2.wav,,,,,,,,,,,,,,,0,110,110,58,,,,,,,,,,,,,,,,,,,,,,,990.369599152822,None,991.902584745083,None,993.2862849882804,None,earned,993.2862849882804,None,return,5.03147430671379,993.3698221142404,None,,,,,,,,,,,,,,,,,,,,,,,,,,,,,,,,,,,,,,,160,001,2024_Jan_30_1830,SpeechDraft1Carolyn_lessNoise_PlusLocalization,2021.2.3,60.04558913934424,
barn.wav,barn.mpg,barn,4,A,Pink_Noise_4_1.wav,Pink_Noise_4_2.wav,,,,,,,,,,,,,,,0,111,111,47,,,,,,,,,,,,,,,,,,,,,,,998.4196705901995,None,999.9357627718709,None,1001.3196412189864,None,"party
",1001.3196412189864,None,return,9.286154184956104,1001.4030819581822,None,,,,,,,,,,,,,,,,,,,,,,,,,,,,,,,,,,,,,,,160,001,2024_Jan_30_1830,SpeechDraft1Carolyn_lessNoise_PlusLocalization,2021.2.3,60.04558913934424,
foam.wav,foam.mpg,foam,2,AV,Pink_Noise_2_1.wav,Pink_Noise_2_2.wav,,,,,,,,,,,,,,,0,112,112,67,,,,,,,,,,,,,,,,,,,,,,,1010.7197395348921,None,1012.2359630968422,None,1013.6195094478317,None,phone,1013.6195094478317,None,return,14.4900913820602,1013.703287219163,None,,,,,,,,,,,,,,,,,,,,,,,,,,,,,,,,,,,,,,,160,001,2024_Jan_30_1830,SpeechDraft1Carolyn_lessNoise_PlusLocalization,2021.2.3,60.04558913934424,
freak.wav,freak.mpg,freak,4,AV,Pink_Noise_4_1.wav,Pink_Noise_4_2.wav,,,,,,,,,,,,,,,0,113,113,93,,,,,,,,,,,,,,,,,,,,,,,1028.2197166909464,None,1029.7527207559906,None,1031.1364488750696,None,freak,1031.1364488750696,None,return,3.6216833549551666,1031.2196811712347,None,,,,,,,,,,,,,,,,,,,,,,,,,,,,,,,,,,,,,,,160,001,2024_Jan_30_1830,SpeechDraft1Carolyn_lessNoise_PlusLocalization,2021.2.3,60.04558913934424,
grant.wav,grant.mpg,grant,2,AV,Pink_Noise_2_1.wav,Pink_Noise_2_2.wav,,,,,,,,,,,,,,,0,114,114,75,,,,,,,,,,,,,,,,,,,,,,,1034.869698639959,None,1036.4193604318425,None,1037.8031856240705,None,grant,1037.8031856240705,None,return,2.154819194227457,1037.8863919530995,None,,,,,,,,,,,,,,,,,,,,,,,,,,,,,,,,,,,,,,,160,001,2024_Jan_30_1830,SpeechDraft1Carolyn_lessNoise_PlusLocalization,2021.2.3,60.04558913934424,
blast.wav,blast.mpg,blast,2,AV,Pink_Noise_2_1.wav,Pink_Noise_2_2.wav,,,,,,,,,,,,,,,0,115,115,85,,,,,,,,,,,,,,,,,,,,,,,1040.0696677798405,None,1041.5860178191215,None,1042.9696108009666,None,blast,1042.9696108009666,None,return,9.980260481126606,1043.053048545029,None,,,,,,,,,,,,,,,,,,,,,,,,,,,,,,,,,,,,,,,160,001,2024_Jan_30_1830,SpeechDraft1Carolyn_lessNoise_PlusLocalization,2021.2.3,60.04558913934424,
fear.wav,fear.mpg,fear,3,A,Pink_Noise_3_1.wav,Pink_Noise_3_2.wav,,,,,,,,,,,,,,,0,116,116,8,,,,,,,,,,,,,,,,,,,,,,,1053.052899389062,None,1054.5694800801575,None,1055.9531383421272,None,"fear
",1055.9531383421272,None,return,6.236703880131245,1056.0365235232748,None,,,,,,,,,,,,,,,,,,,,,,,,,,,,,,,,,,,,,,,160,001,2024_Jan_30_1830,SpeechDraft1Carolyn_lessNoise_PlusLocalization,2021.2.3,60.04558913934424,
flush.wav,flush.mpg,flush,5,A,Pink_Noise_5_1.wav,Pink_Noise_5_2.wav,,,,,,,,,,,,,,,0,117,117,32,,,,,,,,,,,,,,,,,,,,,,,1062.303019857034,None,1063.8192910570651,None,1065.2030309219845,None,"flush
",1065.2030309219845,None,return,6.850786734838039,1065.2864310508594,None,,,,,,,,,,,,,,,,,,,,,,,,,,,,,,,,,,,,,,,160,001,2024_Jan_30_1830,SpeechDraft1Carolyn_lessNoise_PlusLocalization,2021.2.3,60.04558913934424,
cause.wav,cause.mpg,cause,3,A,Pink_Noise_3_1.wav,Pink_Noise_3_2.wav,,,,,,,,,,,,,,,0,118,118,38,,,,,,,,,,,,,,,,,,,,,,,1072.1698452099226,None,1073.6861816761084,None,1075.0698788482696,None,cars,1075.0698788482696,None,return,1.2162000727839768,1075.1531300619245,None,,,,,,,,,,,,,,,,,,,,,,,,,,,,,,,,,,,,,,,160,001,2024_Jan_30_1830,SpeechDraft1Carolyn_lessNoise_PlusLocalization,2021.2.3,60.04558913934424,
clap.wav,clap.mpg,clap,4,A,Pink_Noise_4_1.wav,Pink_Noise_4_2.wav,,,,,,,,,,,,,,,0,119,119,12,,,,,,,,,,,,,,,,,,,,,,,1076.3864977648482,None,1077.9359638532624,None,1079.3198789791204,None,clash,1079.3198789791204,None,return,2.166278187185526,1079.4030323992483,None,,,,,,,,,,,,,,,,,,,,,,,,,,,,,,,,,,,,,,,160,001,2024_Jan_30_1830,SpeechDraft1Carolyn_lessNoise_PlusLocalization,2021.2.3,60.04558913934424,
,,,,,,,,,,,,,,,,,,,,,,,,,,,,,,,,,,,,,,,,,,,,,,,,,,,,,,,,,,,,,,,,,,space,19.675418984610587,1081.6698077120818,None,,,,,,,,,,,,,,,,,,,,,,,,,,,,,160,001,2024_Jan_30_1830,SpeechDraft1Carolyn_lessNoise_PlusLocalization,2021.2.3,60.04558913934424,
,,,,,,,,farLeft,-19.1,5,ch1Sound_localizationTask.wav,-19.1,"(667, 878)","(-293,-202)",-285,-338,,,,,,,,,0,0,0,0,,,,,,,,,,,,,,,,,,,,,,,,,,,,,,,,,,,,,,,,,,1081.6698077120818,None,1101.3861368112266,None,1102.4860870530829,None,1103.41955311317,None,1.019047619047619,5.020009244326502,1103.41955311317,None,,,,,,,,,,,,,,,,,160,001,2024_Jan_30_1830,SpeechDraft1Carolyn_lessNoise_PlusLocalization,2021.2.3,60.04558913934424,
,,,,,,,,farLeft,-19.1,5,ch1Sound_localizationTask.wav,-19.1,"(667, 878)","(-293,-202)",-285,-338,,,,,,,,,0,1,1,0,,,,,,,,,,,,,,,,,,,,,,,,,,,,,,,,,,,,,,,,,,,,1108.4373000268824,None,1109.5361962961033,None,1110.4694681218825,None,1.0195767195767196,0.7831261651590466,1110.4694681218825,None,,,,,,,,,,,,,,,,,160,001,2024_Jan_30_1830,SpeechDraft1Carolyn_lessNoise_PlusLocalization,2021.2.3,60.04558913934424,
,,,,,,,,nearLeft,-6.5,1,ch1Sound_localizationTask.wav,-6.5,"(857, 878)","(-103,-202)",-95,-338,,,,,,,,,0,2,2,2,,,,,,,,,,,,,,,,,,,,,,,,,,,,,,,,,,,,,,,,,,,,1111.2532124761492,None,1112.3526886468753,None,1113.2861938001588,None,1.66984126984127,2.0995184839703143,1113.2861938001588,None,,,,,,,,,,,,,,,,,160,001,2024_Jan_30_1830,SpeechDraft1Carolyn_lessNoise_PlusLocalization,2021.2.3,60.04558913934424,
,,,,,,,,midRight,13.0,3,ch1Sound_localizationTask.wav,13.0,"(1142, 878)","(182, -202)",190,-338,,,,,,,,,0,3,3,5,,,,,,,,,,,,,,,,,,,,,,,,,,,,,,,,,,,,,,,,,,,,1115.386734122876,None,1116.4863646221347,None,1117.4194998471066,None,1.6513227513227513,0.9503120672889054,1117.4194998471066,None,,,,,,,,,,,,,,,,,160,001,2024_Jan_30_1830,SpeechDraft1Carolyn_lessNoise_PlusLocalization,2021.2.3,60.04558913934424,
,,,,,,,,midLeft,-13.0,2,ch1Sound_localizationTask.wav,-13.0,"(762, 878)","(-198,-202)",-190,-338,,,,,,,,,0,4,4,1,,,,,,,,,,,,,,,,,,,,,,,,,,,,,,,,,,,,,,,,,,,,1118.3700126488693,None,1119.4695831802674,None,1120.40277453186,None,1.2703703703703704,1.8658002698794007,1120.40277453186,None,,,,,,,,,,,,,,,,,160,001,2024_Jan_30_1830,SpeechDraft1Carolyn_lessNoise_PlusLocalization,2021.2.3,60.04558913934424,
,,,,,,,,center,0.0,6,ch1Sound_localizationTask.wav,0.0,"(952, 878)","(-8,-202)",0,-338,,,,,,,,,0,5,5,3,,,,,,,,,,,,,,,,,,,,,,,,,,,,,,,,,,,,,,,,,,,,1122.2699229549617,None,1123.3694382789545,None,1124.3027334450744,None,1.5010582010582012,1.282910895999521,1124.3027334450744,None,,,,,,,,,,,,,,,,,160,001,2024_Jan_30_1830,SpeechDraft1Carolyn_lessNoise_PlusLocalization,2021.2.3,60.04558913934424,
,,,,,,,,center,0.0,6,ch1Sound_localizationTask.wav,0.0,"(952, 878)","(-8,-202)",0,-338,,,,,,,,,0,6,6,3,,,,,,,,,,,,,,,,,,,,,,,,,,,,,,,,,,,,,,,,,,,,1125.5864973082207,None,1126.6863396479748,None,1127.6194058582187,None,1.4936507936507937,1.0497289183549583,1127.6194058582187,None,,,,,,,,,,,,,,,,,160,001,2024_Jan_30_1830,SpeechDraft1Carolyn_lessNoise_PlusLocalization,2021.2.3,60.04558913934424,
,,,,,,,,center,0.0,6,ch1Sound_localizationTask.wav,0.0,"(952, 878)","(-8,-202)",0,-338,,,,,,,,,1,0,7,3,,,,,,,,,,,,,,,,,,,,,,,,,,,,,,,,,,,,,,,,,,,,1128.6699597048573,None,1129.7695470829494,None,1130.7029780591838,None,1.4957671957671956,0.8161639207974076,1130.7029780591838,None,,,,,,,,,,,,,,,,,160,001,2024_Jan_30_1830,SpeechDraft1Carolyn_lessNoise_PlusLocalization,2021.2.3,60.04558913934424,
,,,,,,,,midLeft,-13.0,2,ch1Sound_localizationTask.wav,-13.0,"(762, 878)","(-198,-202)",-190,-338,,,,,,,,,1,1,8,1,,,,,,,,,,,,,,,,,,,,,,,,,,,,,,,,,,,,,,,,,,,,1131.520736259874,None,1132.61961884005,None,1133.5528383408673,None,1.3164021164021165,0.9493010072037578,1133.5528383408673,None,,,,,,,,,,,,,,,,,160,001,2024_Jan_30_1830,SpeechDraft1Carolyn_lessNoise_PlusLocalization,2021.2.3,60.04558913934424,
,,,,,,,,farRight,19.1,4,ch1Sound_localizationTask.wav,19.1,"(1237, 878)","(277,-202)",285,-338,,,,,,,,,1,2,9,6,,,,,,,,,,,,,,,,,,,,,,,,,,,,,,,,,,,,,,,,,,,,1134.503391643986,None,1135.602856140118,None,1136.5362946600653,None,1.6873015873015873,0.9996482930146158,1136.5362946600653,None,,,,,,,,,,,,,,,,,160,001,2024_Jan_30_1830,SpeechDraft1Carolyn_lessNoise_PlusLocalization,2021.2.3,60.04558913934424,
,,,,,,,,nearRight,6.5,0,ch1Sound_localizationTask.wav,6.5,"(1047, 878)","(87, -202)",95,-338,,,,,,,,,1,3,10,4,,,,,,,,,,,,,,,,,,,,,,,,,,,,,,,,,,,,,,,,,,,,1137.5372252301313,None,1138.6362346559763,None,1139.569548083935,None,1.5201058201058202,0.8998873461969197,1139.569548083935,None,,,,,,,,,,,,,,,,,160,001,2024_Jan_30_1830,SpeechDraft1Carolyn_lessNoise_PlusLocalization,2021.2.3,60.04558913934424,
,,,,,,,,farLeft,-19.1,5,ch1Sound_localizationTask.wav,-19.1,"(667, 878)","(-293,-202)",-285,-338,,,,,,,,,1,4,11,0,,,,,,,,,,,,,,,,,,,,,,,,,,,,,,,,,,,,,,,,,,,,1140.4710501860827,None,1141.5862421449274,None,1142.502831379883,None,1.3169312169312168,0.9171240283176303,1142.502831379883,None,,,,,,,,,,,,,,,,,160,001,2024_Jan_30_1830,SpeechDraft1Carolyn_lessNoise_PlusLocalization,2021.2.3,60.04558913934424,
,,,,,,,,nearLeft,-6.5,1,ch1Sound_localizationTask.wav,-6.5,"(857, 878)","(-103,-202)",-95,-338,,,,,,,,,1,5,12,2,,,,,,,,,,,,,,,,,,,,,,,,,,,,,,,,,,,,,,,,,,,,1143.4365858412348,None,1144.5363009879366,None,1145.469517108053,None,1.5015873015873016,0.9505153987556696,1145.469517108053,None,,,,,,,,,,,,,,,,,160,001,2024_Jan_30_1830,SpeechDraft1Carolyn_lessNoise_PlusLocalization,2021.2.3,60.04558913934424,
,,,,,,,,midLeft,-13.0,2,ch1Sound_localizationTask.wav,-13.0,"(762, 878)","(-198,-202)",-190,-338,,,,,,,,,1,6,13,1,,,,,,,,,,,,,,,,,,,,,,,,,,,,,,,,,,,,,,,,,,,,1146.436585396994,None,1147.5361613100395,None,1148.469585007988,None,1.4063492063492062,0.8663146682083607,1148.469585007988,None,,,,,,,,,,,,,,,,,160,001,2024_Jan_30_1830,SpeechDraft1Carolyn_lessNoise_PlusLocalization,2021.2.3,60.04558913934424,
,,,,,,,,midRight,13.0,3,ch1Sound_localizationTask.wav,13.0,"(1142, 878)","(182, -202)",190,-338,,,,,,,,,2,0,14,5,,,,,,,,,,,,,,,,,,,,,,,,,,,,,,,,,,,,,,,,,,,,1149.337090343237,None,1150.4361038161442,None,1151.3696041400544,None,1.5783068783068783,0.899661784991622,1151.3696041400544,None,,,,,,,,,,,,,,,,,160,001,2024_Jan_30_1830,SpeechDraft1Carolyn_lessNoise_PlusLocalization,2021.2.3,60.04558913934424,
,,,,,,,,farRight,19.1,4,ch1Sound_localizationTask.wav,19.1,"(1237, 878)","(277,-202)",285,-338,,,,,,,,,2,1,15,6,,,,,,,,,,,,,,,,,,,,,,,,,,,,,,,,,,,,,,,,,,,,1152.2704727891833,None,1153.3694700752385,None,1154.3028539200313,None,1.7544973544973546,0.8658398049883544,1154.3028539200313,None,,,,,,,,,,,,,,,,,160,001,2024_Jan_30_1830,SpeechDraft1Carolyn_lessNoise_PlusLocalization,2021.2.3,60.04558913934424,
,,,,,,,,nearRight,6.5,0,ch1Sound_localizationTask.wav,6.5,"(1047, 878)","(87, -202)",95,-338,,,,,,,,,2,2,16,4,,,,,,,,,,,,,,,,,,,,,,,,,,,,,,,,,,,,,,,,,,,,1155.170017536264,None,1156.2696727281436,None,1157.203129677102,None,1.5010582010582012,1.083225921727717,1157.203129677102,None,,,,,,,,,,,,,,,,,160,001,2024_Jan_30_1830,SpeechDraft1Carolyn_lessNoise_PlusLocalization,2021.2.3,60.04558913934424,
,,,,,,,,farLeft,-19.1,5,ch1Sound_localizationTask.wav,-19.1,"(667, 878)","(-293,-202)",-285,-338,,,,,,,,,2,3,17,0,,,,,,,,,,,,,,,,,,,,,,,,,,,,,,,,,,,,,,,,,,,,1158.2878426141106,None,1159.4029845180921,None,1160.3195891701616,None,1.137037037037037,1.8996065207757056,1160.3195891701616,None,,,,,,,,,,,,,,,,,160,001,2024_Jan_30_1830,SpeechDraft1Carolyn_lessNoise_PlusLocalization,2021.2.3,60.04558913934424,
,,,,,,,,farLeft,-19.1,5,ch1Sound_localizationTask.wav,-19.1,"(667, 878)","(-293,-202)",-285,-338,,,,,,,,,2,4,18,0,,,,,,,,,,,,,,,,,,,,,,,,,,,,,,,,,,,,,,,,,,,,1162.2200188571587,None,1163.319552718196,None,1164.252970485948,None,1.229100529100529,0.7155401380732656,1164.252970485948,None,,,,,,,,,,,,,,,,,160,001,2024_Jan_30_1830,SpeechDraft1Carolyn_lessNoise_PlusLocalization,2021.2.3,60.04558913934424,
,,,,,,,,midLeft,-13.0,2,ch1Sound_localizationTask.wav,-13.0,"(762, 878)","(-198,-202)",-190,-338,,,,,,,,,2,5,19,1,,,,,,,,,,,,,,,,,,,,,,,,,,,,,,,,,,,,,,,,,,,,1164.9699878478423,None,1166.0699161090888,None,1167.0028077019379,None,1.3105820105820105,0.7330439682118595,1167.0028077019379,None,,,,,,,,,,,,,,,,,160,001,2024_Jan_30_1830,SpeechDraft1Carolyn_lessNoise_PlusLocalization,2021.2.3,60.04558913934424,
,,,,,,,,nearLeft,-6.5,1,ch1Sound_localizationTask.wav,-6.5,"(857, 878)","(-103,-202)",-95,-338,,,,,,,,,2,6,20,2,,,,,,,,,,,,,,,,,,,,,,,,,,,,,,,,,,,,,,,,,,,,1167.7364907031879,None,1168.8363106548786,None,1169.7694677449763,None,1.3825396825396825,0.7330968640744686,1169.7694677449763,None,,,,,,,,,,,,,,,,,160,001,2024_Jan_30_1830,SpeechDraft1Carolyn_lessNoise_PlusLocalization,2021.2.3,60.04558913934424,
,,,,,,,,midRight,13.0,3,ch1Sound_localizationTask.wav,13.0,"(1142, 878)","(182, -202)",190,-338,,,,,,,,,3,0,21,5,,,,,,,,,,,,,,,,,,,,,,,,,,,,,,,,,,,,,,,,,,,,1170.503394997213,None,1171.603138801176,None,1172.5360994110815,None,1.564021164021164,1.232946805190295,1172.5360994110815,None,,,,,,,,,,,,,,,,,160,001,2024_Jan_30_1830,SpeechDraft1Carolyn_lessNoise_PlusLocalization,2021.2.3,60.04558913934424,
,,,,,,,,midRight,13.0,3,ch1Sound_localizationTask.wav,13.0,"(1142, 878)","(182, -202)",190,-338,,,,,,,,,3,1,22,5,,,,,,,,,,,,,,,,,,,,,,,,,,,,,,,,,,,,,,,,,,,,1173.7701169620268,None,1174.869795632083,None,1175.8031221111305,None,1.5142857142857142,2.3324203658849,1175.8031221111305,None,,,,,,,,,,,,,,,,,160,001,2024_Jan_30_1830,SpeechDraft1Carolyn_lessNoise_PlusLocalization,2021.2.3,60.04558913934424,
,,,,,,,,farRight,19.1,4,ch1Sound_localizationTask.wav,19.1,"(1237, 878)","(277,-202)",285,-338,,,,,,,,,3,2,23,6,,,,,,,,,,,,,,,,,,,,,,,,,,,,,,,,,,,,,,,,,,,,1178.136554704979,None,1179.2362789129838,None,1180.1696206629276,None,1.7031746031746031,1.4002814390696585,1180.1696206629276,None,,,,,,,,,,,,,,,,,160,001,2024_Jan_30_1830,SpeechDraft1Carolyn_lessNoise_PlusLocalization,2021.2.3,60.04558913934424,
,,,,,,,,midLeft,-13.0,2,ch1Sound_localizationTask.wav,-13.0,"(762, 878)","(-198,-202)",-190,-338,,,,,,,,,3,3,24,1,,,,,,,,,,,,,,,,,,,,,,,,,,,,,,,,,,,,,,,,,,,,1181.5706685320474,None,1182.6694969502278,None,1183.6030753250234,None,1.2354497354497354,1.1165417600423098,1183.6030753250234,None,,,,,,,,,,,,,,,,,160,001,2024_Jan_30_1830,SpeechDraft1Carolyn_lessNoise_PlusLocalization,2021.2.3,60.04558913934424,
,,,,,,,,nearRight,6.5,0,ch1Sound_localizationTask.wav,6.5,"(1047, 878)","(87, -202)",95,-338,,,,,,,,,3,4,25,4,,,,,,,,,,,,,,,,,,,,,,,,,,,,,,,,,,,,,,,,,,,,1184.7208752818406,None,1185.8363426728174,None,1186.7527974150144,None,1.7587301587301587,0.9485672102309763,1186.7527974150144,None,,,,,,,,,,,,,,,,,160,001,2024_Jan_30_1830,SpeechDraft1Carolyn_lessNoise_PlusLocalization,2021.2.3,60.04558913934424,
,,,,,,,,midRight,13.0,3,ch1Sound_localizationTask.wav,13.0,"(1142, 878)","(182, -202)",190,-338,,,,,,,,,3,5,26,5,,,,,,,,,,,,,,,,,,,,,,,,,,,,,,,,,,,,,,,,,,,,1187.7032055528834,None,1188.803170343861,None,1189.7363455211744,None,1.664021164021164,0.8344836439937353,1189.7363455211744,None,,,,,,,,,,,,,,,,,160,001,2024_Jan_30_1830,SpeechDraft1Carolyn_lessNoise_PlusLocalization,2021.2.3,60.04558913934424,
,,,,,,,,center,0.0,6,ch1Sound_localizationTask.wav,0.0,"(952, 878)","(-8,-202)",0,-338,,,,,,,,,3,6,27,3,,,,,,,,,,,,,,,,,,,,,,,,,,,,,,,,,,,,,,,,,,,,1190.5867069489323,None,1191.6861473210156,None,1192.619568233844,None,1.4804232804232804,0.7679532109759748,1192.619568233844,None,,,,,,,,,,,,,,,,,160,001,2024_Jan_30_1830,SpeechDraft1Carolyn_lessNoise_PlusLocalization,2021.2.3,60.04558913934424,
,,,,,,,,midRight,13.0,3,ch1Sound_localizationTask.wav,13.0,"(1142, 878)","(182, -202)",190,-338,,,,,,,,,4,0,28,5,,,,,,,,,,,,,,,,,,,,,,,,,,,,,,,,,,,,,,,,,,,,1193.4034102498554,None,1194.5030029402114,None,1195.436451218091,None,1.5820105820105819,2.5162852657958865,1195.436451218091,None,,,,,,,,,,,,,,,,,160,001,2024_Jan_30_1830,SpeechDraft1Carolyn_lessNoise_PlusLocalization,2021.2.3,60.04558913934424,
,,,,,,,,center,0.0,6,ch1Sound_localizationTask.wav,0.0,"(952, 878)","(-8,-202)",0,-338,,,,,,,,,4,1,29,3,,,,,,,,,,,,,,,,,,,,,,,,,,,,,,,,,,,,,,,,,,,,1197.9539073458873,None,1199.0529388971627,None,1199.98645601701,None,1.3846560846560847,1.3838357939384878,1199.98645601701,None,,,,,,,,,,,,,,,,,160,001,2024_Jan_30_1830,SpeechDraft1Carolyn_lessNoise_PlusLocalization,2021.2.3,60.04558913934424,
,,,,,,,,farRight,19.1,4,ch1Sound_localizationTask.wav,19.1,"(1237, 878)","(277,-202)",285,-338,,,,,,,,,4,2,30,6,,,,,,,,,,,,,,,,,,,,,,,,,,,,,,,,,,,,,,,,,,,,1201.3866085140035,None,1202.4862746801227,None,1203.4193772030994,None,1.7015873015873015,1.1664861203171313,1203.4193772030994,None,,,,,,,,,,,,,,,,,160,001,2024_Jan_30_1830,SpeechDraft1Carolyn_lessNoise_PlusLocalization,2021.2.3,60.04558913934424,
,,,,,,,,midLeft,-13.0,2,ch1Sound_localizationTask.wav,-13.0,"(762, 878)","(-198,-202)",-190,-338,,,,,,,,,4,3,31,1,,,,,,,,,,,,,,,,,,,,,,,,,,,,,,,,,,,,,,,,,,,,1204.586659307126,None,1205.6862737452611,None,1206.6196602908894,None,1.1968253968253968,2.233554790727794,1206.6196602908894,None,,,,,,,,,,,,,,,,,160,001,2024_Jan_30_1830,SpeechDraft1Carolyn_lessNoise_PlusLocalization,2021.2.3,60.04558913934424,
,,,,,,,,center,0.0,6,ch1Sound_localizationTask.wav,0.0,"(952, 878)","(-8,-202)",0,-338,,,,,,,,,4,4,32,3,,,,,,,,,,,,,,,,,,,,,,,,,,,,,,,,,,,,,,,,,,,,1208.8534416290931,None,1209.9531921888702,None,1210.886288518086,None,1.6206349206349207,1.4150226162746549,1210.886288518086,None,,,,,,,,,,,,,,,,,160,001,2024_Jan_30_1830,SpeechDraft1Carolyn_lessNoise_PlusLocalization,2021.2.3,60.04558913934424,
,,,,,,,,nearLeft,-6.5,1,ch1Sound_localizationTask.wav,-6.5,"(857, 878)","(-103,-202)",-95,-338,,,,,,,,,4,5,33,2,,,,,,,,,,,,,,,,,,,,,,,,,,,,,,,,,,,,,,,,,,,,1212.303432538174,None,1213.4032898601145,None,1214.3362518232316,None,1.3793650793650793,1.1991229322738945,1214.3362518232316,None,,,,,,,,,,,,,,,,,160,001,2024_Jan_30_1830,SpeechDraft1Carolyn_lessNoise_PlusLocalization,2021.2.3,60.04558913934424,
,,,,,,,,nearLeft,-6.5,1,ch1Sound_localizationTask.wav,-6.5,"(857, 878)","(-103,-202)",-95,-338,,,,,,,,,4,6,34,2,,,,,,,,,,,,,,,,,,,,,,,,,,,,,,,,,,,,,,,,,,,,1215.5368410898373,None,1216.6361224190332,None,1217.5697465012781,None,1.4587301587301587,1.0990311559289694,1217.5697465012781,None,,,,,,,,,,,,,,,,,160,001,2024_Jan_30_1830,SpeechDraft1Carolyn_lessNoise_PlusLocalization,2021.2.3,60.04558913934424,
,,,,,,,,farLeft,-19.1,5,ch1Sound_localizationTask.wav,-19.1,"(667, 878)","(-293,-202)",-285,-338,,,,,,,,,5,0,35,0,,,,,,,,,,,,,,,,,,,,,,,,,,,,,,,,,,,,,,,,,,,,1218.6699012960307,None,1219.76986007113,None,1220.7028691149317,None,1.1857142857142857,1.3492493499070406,1220.7028691149317,None,,,,,,,,,,,,,,,,,160,001,2024_Jan_30_1830,SpeechDraft1Carolyn_lessNoise_PlusLocalization,2021.2.3,60.04558913934424,
,,,,,,,,nearLeft,-6.5,1,ch1Sound_localizationTask.wav,-6.5,"(857, 878)","(-103,-202)",-95,-338,,,,,,,,,5,1,36,2,,,,,,,,,,,,,,,,,,,,,,,,,,,,,,,,,,,,,,,,,,,,1222.0533724208362,None,1223.1529063209891,None,1224.0865335962735,None,1.9502645502645501,1.9169602342881262,1224.0865335962735,None,,,,,,,,,,,,,,,,,160,001,2024_Jan_30_1830,SpeechDraft1Carolyn_lessNoise_PlusLocalization,2021.2.3,60.04558913934424,
,,,,,,,,farRight,19.1,4,ch1Sound_localizationTask.wav,19.1,"(1237, 878)","(277,-202)",285,-338,,,,,,,,,5,2,37,6,,,,,,,,,,,,,,,,,,,,,,,,,,,,,,,,,,,,,,,,,,,,1226.004062701948,None,1227.1031349790283,None,1228.0362914372236,None,1.8566137566137566,1.533113316167146,1228.0362914372236,None,,,,,,,,,,,,,,,,,160,001,2024_Jan_30_1830,SpeechDraft1Carolyn_lessNoise_PlusLocalization,2021.2.3,60.04558913934424,
,,,,,,,,nearLeft,-6.5,1,ch1Sound_localizationTask.wav,-6.5,"(857, 878)","(-103,-202)",-95,-338,,,,,,,,,5,3,38,2,,,,,,,,,,,,,,,,,,,,,,,,,,,,,,,,,,,,,,,,,,,,1229.5698872469366,None,1230.669660132844,None,1231.6031077909283,None,1.1613756613756614,1.8329488467425108,1231.6031077909283,None,,,,,,,,,,,,,,,,,160,001,2024_Jan_30_1830,SpeechDraft1Carolyn_lessNoise_PlusLocalization,2021.2.3,60.04558913934424,
,,,,,,,,nearRight,6.5,0,ch1Sound_localizationTask.wav,6.5,"(1047, 878)","(87, -202)",95,-338,,,,,,,,,5,4,39,4,,,,,,,,,,,,,,,,,,,,,,,,,,,,,,,,,,,,,,,,,,,,1233.4369962648489,None,1234.5363912242465,None,1235.4696140191518,None,1.4883597883597883,1.184094320051372,1235.4696140191518,None,,,,,,,,,,,,,,,,,160,001,2024_Jan_30_1830,SpeechDraft1Carolyn_lessNoise_PlusLocalization,2021.2.3,60.04558913934424,
,,,,,,,,center,0.0,6,ch1Sound_localizationTask.wav,0.0,"(952, 878)","(-8,-202)",0,-338,,,,,,,,,5,5,40,3,,,,,,,,,,,,,,,,,,,,,,,,,,,,,,,,,,,,,,,,,,,,1236.6549391848966,None,1237.7696503009647,None,1238.6862721620128,None,1.5037037037037035,1.199897966813296,1238.6862721620128,None,,,,,,,,,,,,,,,,,160,001,2024_Jan_30_1830,SpeechDraft1Carolyn_lessNoise_PlusLocalization,2021.2.3,60.04558913934424,
,,,,,,,,farRight,19.1,4,ch1Sound_localizationTask.wav,19.1,"(1237, 878)","(277,-202)",285,-338,,,,,,,,,5,6,41,6,,,,,,,,,,,,,,,,,,,,,,,,,,,,,,,,,,,,,,,,,,,,1239.8867068141699,None,1240.9863526131958,None,1241.9197422321886,None,1.6402116402116402,1.5161191541701555,1241.9197422321886,None,,,,,,,,,,,,,,,,,160,001,2024_Jan_30_1830,SpeechDraft1Carolyn_lessNoise_PlusLocalization,2021.2.3,60.04558913934424,
,,,,,,,,midRight,13.0,3,ch1Sound_localizationTask.wav,13.0,"(1142, 878)","(182, -202)",190,-338,,,,,,,,,6,0,42,5,,,,,,,,,,,,,,,,,,,,,,,,,,,,,,,,,,,,,,,,,,,,1243.436753586866,None,1244.5364224142395,None,1245.4699539202265,None,1.6407407407407408,1.234231831971556,1245.4699539202265,None,,,,,,,,,,,,,,,,,160,001,2024_Jan_30_1830,SpeechDraft1Carolyn_lessNoise_PlusLocalization,2021.2.3,60.04558913934424,
,,,,,,,,nearRight,6.5,0,ch1Sound_localizationTask.wav,6.5,"(1047, 878)","(87, -202)",95,-338,,,,,,,,,6,1,43,4,,,,,,,,,,,,,,,,,,,,,,,,,,,,,,,,,,,,,,,,,,,,1246.7200575349852,None,1247.8197872610763,None,1248.7529783500358,None,1.7015873015873015,0.9162818808108568,1248.7529783500358,None,,,,,,,,,,,,,,,,,160,001,2024_Jan_30_1830,SpeechDraft1Carolyn_lessNoise_PlusLocalization,2021.2.3,60.04558913934424,
,,,,,,,,farLeft,-19.1,5,ch1Sound_localizationTask.wav,-19.1,"(667, 878)","(-293,-202)",-285,-338,,,,,,,,,6,2,44,0,,,,,,,,,,,,,,,,,,,,,,,,,,,,,,,,,,,,,,,,,,,,1249.6702456092462,None,1250.769757105969,None,1251.7029381529428,None,1.3216931216931216,1.082592966966331,1251.7029381529428,None,,,,,,,,,,,,,,,,,160,001,2024_Jan_30_1830,SpeechDraft1Carolyn_lessNoise_PlusLocalization,2021.2.3,60.04558913934424,
,,,,,,,,nearRight,6.5,0,ch1Sound_localizationTask.wav,6.5,"(1047, 878)","(87, -202)",95,-338,,,,,,,,,6,3,45,4,,,,,,,,,,,,,,,,,,,,,,,,,,,,,,,,,,,,,,,,,,,,1252.7868469571695,None,1253.8865272388794,None,1254.8198043820448,None,1.7433862433862433,0.9498361721634865,1254.8198043820448,None,,,,,,,,,,,,,,,,,160,001,2024_Jan_30_1830,SpeechDraft1Carolyn_lessNoise_PlusLocalization,2021.2.3,60.04558913934424,
,,,,,,,,midLeft,-13.0,2,ch1Sound_localizationTask.wav,-13.0,"(762, 878)","(-198,-202)",-190,-338,,,,,,,,,6,4,46,1,,,,,,,,,,,,,,,,,,,,,,,,,,,,,,,,,,,,,,,,,,,,1255.7717524021864,None,1256.886444765143,None,1257.8031204859726,None,1.265079365079365,1.282251232303679,1257.8031204859726,None,,,,,,,,,,,,,,,,,160,001,2024_Jan_30_1830,SpeechDraft1Carolyn_lessNoise_PlusLocalization,2021.2.3,60.04558913934424,
,,,,,,,,center,0.0,6,ch1Sound_localizationTask.wav,0.0,"(952, 878)","(-8,-202)",0,-338,,,,,,,,,6,5,47,3,,,,,,,,,,,,,,,,,,,,,,,,,,,,,,,,,,,,,,,,,,,,1259.086693013087,None,1260.1864044219255,None,1261.1196568110026,None,1.4984126984126984,1.149567625951022,1261.1196568110026,None,,,,,,,,,,,,,,,,,160,001,2024_Jan_30_1830,SpeechDraft1Carolyn_lessNoise_PlusLocalization,2021.2.3,60.04558913934424,
,,,,,,,,nearRight,6.5,0,ch1Sound_localizationTask.wav,6.5,"(1047, 878)","(87, -202)",95,-338,,,,,,,,,6,6,48,4,,,,,,,,,,,,,,,,,,,,,,,,,,,,,,,,,,,,,,,,,,,,1262.2702089031227,None,1263.3698219219223,None,1264.3031144328415,None,1.4968253968253968,0.9660222609527409,1264.3031144328415,None,,,,,,,,,,,,,,,,,160,001,2024_Jan_30_1830,SpeechDraft1Carolyn_lessNoise_PlusLocalization,2021.2.3,60.04558913934424,
,,,,,,,,farLeft,-19.1,5,ch1Sound_localizationTask.wav,-19.1,"(667, 878)","(-293,-202)",-285,-338,,,,,,,,,7,0,49,0,,,,,,,,,,,,,,,,,,,,,,,,,,,,,,,,,,,,,,,,,,,,1265.2700315392576,None,1266.3697237009183,None,1267.3030246091075,None,1.1317460317460317,1.0329308728687465,1267.3030246091075,None,,,,,,,,,,,,,,,,,160,001,2024_Jan_30_1830,SpeechDraft1Carolyn_lessNoise_PlusLocalization,2021.2.3,60.04558913934424,
,,,,,,,,farRight,19.1,4,ch1Sound_localizationTask.wav,19.1,"(1237, 878)","(277,-202)",285,-338,,,,,,,,,7,1,50,6,,,,,,,,,,,,,,,,,,,,,,,,,,,,,,,,,,,,,,,,,,,,1268.3374969549477,None,1269.4530492778867,None,1270.3697708542459,None,1.9476190476190476,1.1344147711060941,1270.3697708542459,None,,,,,,,,,,,,,,,,,160,001,2024_Jan_30_1830,SpeechDraft1Carolyn_lessNoise_PlusLocalization,2021.2.3,60.04558913934424,
,,,,,,,,nearLeft,-6.5,1,ch1Sound_localizationTask.wav,-6.5,"(857, 878)","(-103,-202)",-95,-338,,,,,,,,,7,2,51,2,,,,,,,,,,,,,,,,,,,,,,,,,,,,,,,,,,,,,,,,,,,,1271.5199136761948,None,1272.6199348568916,None,1273.5529700051993,None,1.2978835978835979,1.4997927681542933,1273.5529700051993,None,,,,,,,,,,,,,,,,,160,001,2024_Jan_30_1830,SpeechDraft1Carolyn_lessNoise_PlusLocalization,2021.2.3,60.04558913934424,
,,,,,,,,midLeft,-13.0,2,ch1Sound_localizationTask.wav,-13.0,"(762, 878)","(-198,-202)",-190,-338,,,,,,,,,7,3,52,1,,,,,,,,,,,,,,,,,,,,,,,,,,,,,,,,,,,,,,,,,,,,1275.0547124859877,None,1276.1697840001434,None,1277.0864447029307,None,1.4015873015873015,2.8676292090676725,1277.0864447029307,None,,,,,,,,,,,,,,,,,160,001,2024_Jan_30_1830,SpeechDraft1Carolyn_lessNoise_PlusLocalization,2021.2.3,60.04558913934424,
,,,,,,,,farRight,19.1,4,ch1Sound_localizationTask.wav,19.1,"(1237, 878)","(277,-202)",285,-338,,,,,,,,,7,4,53,6,,,,,,,,,,,,,,,,,,,,,,,,,,,,,,,,,,,,,,,,,,,,1279.970340793021,None,1281.0696165189147,None,1282.0030837561935,None,1.6851851851851851,1.7226326880045235,1282.0030837561935,None,,,,,,,,,,,,,,,,,160,001,2024_Jan_30_1830,SpeechDraft1Carolyn_lessNoise_PlusLocalization,2021.2.3,60.04558913934424,
,,,,,,,,nearRight,6.5,0,ch1Sound_localizationTask.wav,6.5,"(1047, 878)","(87, -202)",95,-338,,,,,,,,,7,5,54,4,,,,,,,,,,,,,,,,,,,,,,,,,,,,,,,,,,,,,,,,,,,,1283.738037721254,None,1284.853128653951,None,1285.7697267499752,None,1.5026455026455028,1.3836907311342657,1285.7697267499752,None,,,,,,,,,,,,,,,,,160,001,2024_Jan_30_1830,SpeechDraft1Carolyn_lessNoise_PlusLocalization,2021.2.3,60.04558913934424,
,,,,,,,,midRight,13.0,3,ch1Sound_localizationTask.wav,13.0,"(1142, 878)","(182, -202)",190,-338,,,,,,,,,7,6,55,5,,,,,,,,,,,,,,,,,,,,,,,,,,,,,,,,,,,,,,,,,,,,1287.1535522718914,None,1288.2532153641805,None,1289.1862989380024,None,1.566137566137566,0.9321826291270554,1289.1862989380024,None,,,,,,,,,,,,,,,,,160,001,2024_Jan_30_1830,SpeechDraft1Carolyn_lessNoise_PlusLocalization,2021.2.3,60.04558913934424,
,,,,,,,,,,,,,,,,,,,,,,,,,,,,,,,,,,,,,,,,,,,,,,,,,,,,,,,,,,,,,,,,,,,,,,,,,,,,,,,,,,space,20.709674708079547,1290.2035553902388,None,,,,,,,,,,,,,160,001,2024_Jan_30_1830,SpeechDraft1Carolyn_lessNoise_PlusLocalization,2021.2.3,60.04558913934424,
,,,,,,,,nearLeft,-6.5,1,ch1Sound_localizationTask.wav,-6.5,"(857, 878)","(-103,-202)",-95,-338,,,,,,,,,,,,,0,0,0,2,,,,,,,,,,,,,,,,,,,,,,,,,,,,,,,,,,,,,,,,1310.9530777242035,None,,,1313.9708119491115,None,1.4365079365079365,1.2213523420505226,1313.9708119491115,None,,,,,1290.2035553902388,None,1311.9534060838632,None,1312.1367913871072,1312.1535519249737,,,,,,,160,001,2024_Jan_30_1830,SpeechDraft1Carolyn_lessNoise_PlusLocalization,2021.2.3,60.04558913934424,
,,,,,,,,farLeft,-19.1,5,ch1Sound_localizationTask.wav,-19.1,"(667, 878)","(-293,-202)",-285,-338,,,,,,,,,,,,,0,1,1,0,,,,,,,,,,,,,,,,,,,,,,,,,,,,,,,,,,,,,,,,1315.2043376942165,None,,,1318.2197947888635,None,1.356084656084656,1.233416419941932,1318.2197947888635,None,,,,,,,1316.2034490550868,None,1316.386787680909,1316.4035263708793,,,,,,,160,001,2024_Jan_30_1830,SpeechDraft1Carolyn_lessNoise_PlusLocalization,2021.2.3,60.04558913934424,
,,,,,,,,midRight,13.0,3,ch1Sound_localizationTask.wav,13.0,"(1142, 878)","(182, -202)",190,-338,,,,,,,,,,,,,0,2,2,5,,,,,,,,,,,,,,,,,,,,,,,,,,,,,,,,,,,,,,,,1319.4702500058338,None,,,1322.4863253938965,None,1.57989417989418,1.0496513582766056,1322.4863253938965,None,,,,,,,1320.4702000250109,None,1320.6533353640698,1320.6702319378965,,,,,,,160,001,2024_Jan_30_1830,SpeechDraft1Carolyn_lessNoise_PlusLocalization,2021.2.3,60.04558913934424,
,,,,,,,,center,0.0,6,ch1Sound_localizationTask.wav,0.0,"(952, 878)","(-8,-202)",0,-338,,,,,,,,,,,,,0,3,3,3,,,,,,,,,,,,,,,,,,,,,,,,,,,,,,,,,,,,,,,,1323.537547742948,None,,,1326.553329820279,None,1.5031746031746032,0.9329394362866879,1326.553329820279,None,,,,,,,1324.536802160088,None,1324.7202660390176,1324.7369033270516,,,,,,,160,001,2024_Jan_30_1830,SpeechDraft1Carolyn_lessNoise_PlusLocalization,2021.2.3,60.04558913934424,
,,,,,,,,midLeft,-13.0,2,ch1Sound_localizationTask.wav,-13.0,"(762, 878)","(-198,-202)",-190,-338,,,,,,,,,,,,,0,4,4,1,,,,,,,,,,,,,,,,,,,,,,,,,,,,,,,,,,,,,,,,1327.487221925985,None,,,1330.503056885209,None,1.4312169312169312,0.6326815760694444,1330.503056885209,None,,,,,,,1328.4867807570845,None,1328.6701265531592,1328.6867671851069,,,,,,,160,001,2024_Jan_30_1830,SpeechDraft1Carolyn_lessNoise_PlusLocalization,2021.2.3,60.04558913934424,
,,,,,,,,midLeft,-13.0,2,ch1Sound_localizationTask.wav,-13.0,"(762, 878)","(-198,-202)",-190,-338,,,,,,,,,,,,,0,5,5,1,,,,,,,,,,,,,,,,,,,,,,,,,,,,,,,,,,,,,,,,1331.1371775879525,None,,,1334.1531414291821,None,1.4158730158730157,0.7163754957728088,1334.1531414291821,None,,,,,,,1332.1367957638577,None,1332.3200656590052,1332.3367053689435,,,,,,,160,001,2024_Jan_30_1830,SpeechDraft1Carolyn_lessNoise_PlusLocalization,2021.2.3,60.04558913934424,
,,,,,,,,nearLeft,-6.5,1,ch1Sound_localizationTask.wav,-6.5,"(857, 878)","(-103,-202)",-95,-338,,,,,,,,,,,,,0,6,6,2,,,,,,,,,,,,,,,,,,,,,,,,,,,,,,,,,,,,,,,,1334.8701248238795,None,,,1337.886665489059,None,1.4518518518518517,0.6493605822324753,1337.886665489059,None,,,,,,,1335.8700957600959,None,1336.0535195702687,1336.0701936278492,,,,,,,160,001,2024_Jan_30_1830,SpeechDraft1Carolyn_lessNoise_PlusLocalization,2021.2.3,60.04558913934424,
,,,,,,,,midRight,13.0,3,ch1Sound_localizationTask.wav,13.0,"(1142, 878)","(182, -202)",190,-338,,,,,,,,,,,,,1,0,7,5,,,,,,,,,,,,,,,,,,,,,,,,,,,,,,,,,,,,,,,,1338.536858913023,None,,,1341.5531126949936,None,1.5931216931216932,1.0326334279961884,1341.5531126949936,None,,,,,,,1339.536802005954,None,1339.7201061202213,1339.7368068890646,,,,,,,160,001,2024_Jan_30_1830,SpeechDraft1Carolyn_lessNoise_PlusLocalization,2021.2.3,60.04558913934424,
,,,,,,,,farRight,19.1,4,ch1Sound_localizationTask.wav,19.1,"(1237, 878)","(277,-202)",285,-338,,,,,,,,,,,,,1,1,8,6,,,,,,,,,,,,,,,,,,,,,,,,,,,,,,,,,,,,,,,,1342.5871836962178,None,,,1345.603423778899,None,1.6264550264550266,0.5992007651366293,1345.603423778899,None,,,,,,,1343.5867581861094,None,1343.7702735052444,1343.7870912761427,,,,,,,160,001,2024_Jan_30_1830,SpeechDraft1Carolyn_lessNoise_PlusLocalization,2021.2.3,60.04558913934424,
,,,,,,,,midRight,13.0,3,ch1Sound_localizationTask.wav,13.0,"(1142, 878)","(182, -202)",190,-338,,,,,,,,,,,,,1,2,9,5,,,,,,,,,,,,,,,,,,,,,,,,,,,,,,,,,,,,,,,,1346.203493425157,None,,,1349.2199702011421,None,1.5513227513227514,0.5152602000162005,1349.2199702011421,None,,,,,,,1347.2035616599023,None,1347.38698836416,1347.4035068028606,,,,,,,160,001,2024_Jan_30_1830,SpeechDraft1Carolyn_lessNoise_PlusLocalization,2021.2.3,60.04558913934424,
,,,,,,,,nearLeft,-6.5,1,ch1Sound_localizationTask.wav,-6.5,"(857, 878)","(-103,-202)",-95,-338,,,,,,,,,,,,,1,3,10,2,,,,,,,,,,,,,,,,,,,,,,,,,,,,,,,,,,,,,,,,1349.7368448181078,None,,,1352.7532693562098,None,1.4767195767195767,0.7489859382621944,1352.7532693562098,None,,,,,,,1350.7369553111494,None,1350.920248594135,1350.9369687009603,,,,,,,160,001,2024_Jan_30_1830,SpeechDraft1Carolyn_lessNoise_PlusLocalization,2021.2.3,60.04558913934424,
,,,,,,,,midRight,13.0,3,ch1Sound_localizationTask.wav,13.0,"(1142, 878)","(182, -202)",190,-338,,,,,,,,,,,,,1,4,11,5,,,,,,,,,,,,,,,,,,,,,,,,,,,,,,,,,,,,,,,,1353.5035203308798,None,,,1356.5202756142244,None,1.5984126984126985,0.5828016027808189,1356.5202756142244,None,,,,,,,1354.503593036905,None,1354.6868738220073,1354.7036464228295,,,,,,,160,001,2024_Jan_30_1830,SpeechDraft1Carolyn_lessNoise_PlusLocalization,2021.2.3,60.04558913934424,
,,,,,,,,nearRight,6.5,0,ch1Sound_localizationTask.wav,6.5,"(1047, 878)","(87, -202)",95,-338,,,,,,,,,,,,,1,5,12,4,,,,,,,,,,,,,,,,,,,,,,,,,,,,,,,,,,,,,,,,1357.1203543348238,None,,,1360.1365988831967,None,1.553968253968254,0.7160960272885859,1360.1365988831967,None,,,,,,,1358.1201866562478,None,1358.3036456671543,1358.3202121839859,,,,,,,160,001,2024_Jan_30_1830,SpeechDraft1Carolyn_lessNoise_PlusLocalization,2021.2.3,60.04558913934424,
,,,,,,,,nearRight,6.5,0,ch1Sound_localizationTask.wav,6.5,"(1047, 878)","(87, -202)",95,-338,,,,,,,,,,,,,1,6,13,4,,,,,,,,,,,,,,,,,,,,,,,,,,,,,,,,,,,,,,,,1360.8537835599855,None,,,1363.869832939934,None,1.547089947089947,0.8487672619521618,1363.869832939934,None,,,,,,,1361.853714530822,None,1362.0370147568174,1362.0535947228782,,,,,,,160,001,2024_Jan_30_1830,SpeechDraft1Carolyn_lessNoise_PlusLocalization,2021.2.3,60.04558913934424,
,,,,,,,,midRight,13.0,3,ch1Sound_localizationTask.wav,13.0,"(1142, 878)","(182, -202)",190,-338,,,,,,,,,,,,,2,0,14,5,,,,,,,,,,,,,,,,,,,,,,,,,,,,,,,,,,,,,,,,1364.7201719000004,None,,,1367.736708626151,None,1.5925925925925926,0.6663001943379641,1367.736708626151,None,,,,,,,1365.7201686310582,None,1365.9036297379062,1365.919933015015,,,,,,,160,001,2024_Jan_30_1830,SpeechDraft1Carolyn_lessNoise_PlusLocalization,2021.2.3,60.04558913934424,
,,,,,,,,nearLeft,-6.5,1,ch1Sound_localizationTask.wav,-6.5,"(857, 878)","(-103,-202)",-95,-338,,,,,,,,,,,,,2,1,15,2,,,,,,,,,,,,,,,,,,,,,,,,,,,,,,,,,,,,,,,,1368.4036140870303,None,,,1371.4198580118828,None,1.3952380952380952,3.1506272349506617,1371.4198580118828,None,,,,,,,1369.4034705348313,None,1369.5869493018836,1369.6035350160673,,,,,,,160,001,2024_Jan_30_1830,SpeechDraft1Carolyn_lessNoise_PlusLocalization,2021.2.3,60.04558913934424,
,,,,,,,,farRight,19.1,4,ch1Sound_localizationTask.wav,19.1,"(1237, 878)","(277,-202)",285,-338,,,,,,,,,,,,,2,2,16,6,,,,,,,,,,,,,,,,,,,,,,,,,,,,,,,,,,,,,,,,1374.5709294839762,None,,,1377.5864487551153,None,1.632804232804233,1.2999341408722103,1377.5864487551153,None,,,,,,,1375.5701635540463,None,1375.7535778051242,1375.7703144811094,,,,,,,160,001,2024_Jan_30_1830,SpeechDraft1Carolyn_lessNoise_PlusLocalization,2021.2.3,60.04558913934424,
,,,,,,,,center,0.0,6,ch1Sound_localizationTask.wav,0.0,"(952, 878)","(-8,-202)",0,-338,,,,,,,,,,,,,2,3,17,3,,,,,,,,,,,,,,,,,,,,,,,,,,,,,,,,,,,,,,,,1378.8875134340487,None,,,1381.9031347539276,None,1.5084656084656085,1.0157686588354409,1381.9031347539276,None,,,,,,,1379.886802200228,None,1380.0700276512653,1380.0869774101302,,,,,,,160,001,2024_Jan_30_1830,SpeechDraft1Carolyn_lessNoise_PlusLocalization,2021.2.3,60.04558913934424,
,,,,,,,,midRight,13.0,3,ch1Sound_localizationTask.wav,13.0,"(1142, 878)","(182, -202)",190,-338,,,,,,,,,,,,,2,4,18,5,,,,,,,,,,,,,,,,,,,,,,,,,,,,,,,,,,,,,,,,1382.9202494178899,None,,,1385.9364985120483,None,1.6132275132275131,0.7493358459323645,1385.9364985120483,None,,,,,,,1383.920216663275,None,1384.1035976968706,1384.1202461728826,,,,,,,160,001,2024_Jan_30_1830,SpeechDraft1Carolyn_lessNoise_PlusLocalization,2021.2.3,60.04558913934424,
,,,,,,,,midRight,13.0,3,ch1Sound_localizationTask.wav,13.0,"(1142, 878)","(182, -202)",190,-338,,,,,,,,,,,,,2,5,19,5,,,,,,,,,,,,,,,,,,,,,,,,,,,,,,,,,,,,,,,,1386.6869731540792,None,,,1389.7032527262345,None,1.5804232804232803,0.6665219143033028,1389.7032527262345,None,,,,,,,1387.686838582158,None,1387.870199401863,1387.8869874798693,,,,,,,160,001,2024_Jan_30_1830,SpeechDraft1Carolyn_lessNoise_PlusLocalization,2021.2.3,60.04558913934424,
,,,,,,,,nearLeft,-6.5,1,ch1Sound_localizationTask.wav,-6.5,"(857, 878)","(-103,-202)",-95,-338,,,,,,,,,,,,,2,6,20,2,,,,,,,,,,,,,,,,,,,,,,,,,,,,,,,,,,,,,,,,1390.3703738781624,None,,,1393.3865553261712,None,1.4534391534391533,1.032287199050188,1393.3865553261712,None,,,,,,,1391.3701382181607,None,1391.5535887102596,1391.570132468827,,,,,,,160,001,2024_Jan_30_1830,SpeechDraft1Carolyn_lessNoise_PlusLocalization,2021.2.3,60.04558913934424,
,,,,,,,,midLeft,-13.0,2,ch1Sound_localizationTask.wav,-13.0,"(762, 878)","(-198,-202)",-190,-338,,,,,,,,,,,,,3,0,21,1,,,,,,,,,,,,,,,,,,,,,,,,,,,,,,,,,,,,,,,,1394.4204239519313,None,,,1397.4364946219139,None,1.4116402116402116,1.2327754376456141,1397.4364946219139,None,,,,,,,1395.4201423949562,None,1395.603655504994,1395.6201367848553,,,,,,,160,001,2024_Jan_30_1830,SpeechDraft1Carolyn_lessNoise_PlusLocalization,2021.2.3,60.04558913934424,
,,,,,,,,midRight,13.0,3,ch1Sound_localizationTask.wav,13.0,"(1142, 878)","(182, -202)",190,-338,,,,,,,,,,,,,3,1,22,5,,,,,,,,,,,,,,,,,,,,,,,,,,,,,,,,,,,,,,,,1398.6702249539085,None,,,1401.686612688005,None,1.5825396825396827,0.9825632581487298,1401.686612688005,None,,,,,,,1399.6702165631577,None,1399.8534737620503,1399.8701920779422,,,,,,,160,001,2024_Jan_30_1830,SpeechDraft1Carolyn_lessNoise_PlusLocalization,2021.2.3,60.04558913934424,
,,,,,,,,farRight,19.1,4,ch1Sound_localizationTask.wav,19.1,"(1237, 878)","(277,-202)",285,-338,,,,,,,,,,,,,3,2,23,6,,,,,,,,,,,,,,,,,,,,,,,,,,,,,,,,,,,,,,,,1402.6703073889948,None,,,1405.686501934193,None,1.6412698412698412,0.5496837589889765,1405.686501934193,None,,,,,,,1403.6703356802464,None,1403.8538341992535,1403.8702583350241,,,,,,,160,001,2024_Jan_30_1830,SpeechDraft1Carolyn_lessNoise_PlusLocalization,2021.2.3,60.04558913934424,
,,,,,,,,nearRight,6.5,0,ch1Sound_localizationTask.wav,6.5,"(1047, 878)","(87, -202)",95,-338,,,,,,,,,,,,,3,3,24,4,,,,,,,,,,,,,,,,,,,,,,,,,,,,,,,,,,,,,,,,1406.2368183601648,None,,,1409.253347557038,None,1.5317460317460316,0.7331133959814906,1409.253347557038,None,,,,,,,1407.2368263648823,None,1407.4200772028416,1407.436932337936,,,,,,,160,001,2024_Jan_30_1830,SpeechDraft1Carolyn_lessNoise_PlusLocalization,2021.2.3,60.04558913934424,
,,,,,,,,farLeft,-19.1,5,ch1Sound_localizationTask.wav,-19.1,"(667, 878)","(-293,-202)",-285,-338,,,,,,,,,,,,,3,4,25,0,,,,,,,,,,,,,,,,,,,,,,,,,,,,,,,,,,,,,,,,1409.9868453959934,None,,,1413.003212195821,None,1.335978835978836,0.7668168493546546,1413.003212195821,None,,,,,,,1410.9869712409563,None,1411.1701803952456,1411.1868583951145,,,,,,,160,001,2024_Jan_30_1830,SpeechDraft1Carolyn_lessNoise_PlusLocalization,2021.2.3,60.04558913934424,
,,,,,,,,nearLeft,-6.5,1,ch1Sound_localizationTask.wav,-6.5,"(857, 878)","(-103,-202)",-95,-338,,,,,,,,,,,,,3,5,26,2,,,,,,,,,,,,,,,,,,,,,,,,,,,,,,,,,,,,,,,,1413.7713271388784,None,,,1416.8034486132674,None,1.4264550264550264,1.3999833869747818,1416.8034486132674,None,,,,,,,1414.7870902330615,None,1414.9702093359083,1414.987100486178,,,,,,,160,001,2024_Jan_30_1830,SpeechDraft1Carolyn_lessNoise_PlusLocalization,2021.2.3,60.04558913934424,
,,,,,,,,farLeft,-19.1,5,ch1Sound_localizationTask.wav,-19.1,"(667, 878)","(-293,-202)",-285,-338,,,,,,,,,,,,,3,6,27,0,,,,,,,,,,,,,,,,,,,,,,,,,,,,,,,,,,,,,,,,1418.203724030871,None,,,1421.219961008057,None,1.2994708994708994,0.8326671798713505,1421.219961008057,None,,,,,,,1419.203542032279,None,1419.3869170518592,1419.4036883111112,,,,,,,160,001,2024_Jan_30_1830,SpeechDraft1Carolyn_lessNoise_PlusLocalization,2021.2.3,60.04558913934424,
,,,,,,,,farRight,19.1,4,ch1Sound_localizationTask.wav,19.1,"(1237, 878)","(277,-202)",285,-338,,,,,,,,,,,,,4,0,28,6,,,,,,,,,,,,,,,,,,,,,,,,,,,,,,,,,,,,,,,,1422.0537812421098,None,,,1425.069802254904,None,1.6523809523809523,1.1164658898487687,1425.069802254904,None,,,,,,,1423.0537066422403,None,1423.236891754903,1423.2536679520272,,,,,,,160,001,2024_Jan_30_1830,SpeechDraft1Carolyn_lessNoise_PlusLocalization,2021.2.3,60.04558913934424,
,,,,,,,,nearRight,6.5,0,ch1Sound_localizationTask.wav,6.5,"(1047, 878)","(87, -202)",95,-338,,,,,,,,,,,,,4,1,29,4,,,,,,,,,,,,,,,,,,,,,,,,,,,,,,,,,,,,,,,,1426.1878576031886,None,,,1429.2034521149471,None,1.5195767195767196,1.5335616660304368,1429.2034521149471,None,,,,,,,1427.18685107911,None,1427.3702744352631,1427.3869806812145,,,,,,,160,001,2024_Jan_30_1830,SpeechDraft1Carolyn_lessNoise_PlusLocalization,2021.2.3,60.04558913934424,
,,,,,,,,farLeft,-19.1,5,ch1Sound_localizationTask.wav,-19.1,"(667, 878)","(-293,-202)",-285,-338,,,,,,,,,,,,,4,2,30,0,,,,,,,,,,,,,,,,,,,,,,,,,,,,,,,,,,,,,,,,1430.7371849478222,None,,,1433.7535607810132,None,1.3074074074074074,1.3140825838781893,1433.7535607810132,None,,,,,,,1431.7369454340078,None,1431.9203004399315,1431.9369760458358,,,,,,,160,001,2024_Jan_30_1830,SpeechDraft1Carolyn_lessNoise_PlusLocalization,2021.2.3,60.04558913934424,
,,,,,,,,midLeft,-13.0,2,ch1Sound_localizationTask.wav,-13.0,"(762, 878)","(-198,-202)",-190,-338,,,,,,,,,,,,,4,3,31,1,,,,,,,,,,,,,,,,,,,,,,,,,,,,,,,,,,,,,,,,1435.0869772201404,None,,,1438.1033065658994,None,1.378835978835979,0.7834539939649403,1438.1033065658994,None,,,,,,,1436.0870093870908,None,1436.2703276099637,1436.2868953789584,,,,,,,160,001,2024_Jan_30_1830,SpeechDraft1Carolyn_lessNoise_PlusLocalization,2021.2.3,60.04558913934424,
,,,,,,,,center,0.0,6,ch1Sound_localizationTask.wav,0.0,"(952, 878)","(-8,-202)",0,-338,,,,,,,,,,,,,4,4,32,3,,,,,,,,,,,,,,,,,,,,,,,,,,,,,,,,,,,,,,,,1438.8870489178225,None,,,1441.9032174269669,None,1.498941798941799,1.4494418879039586,1441.9032174269669,None,,,,,,,1439.887074938044,None,1440.0703259310685,1440.0869965250604,,,,,,,160,001,2024_Jan_30_1830,SpeechDraft1Carolyn_lessNoise_PlusLocalization,2021.2.3,60.04558913934424,
,,,,,,,,farRight,19.1,4,ch1Sound_localizationTask.wav,19.1,"(1237, 878)","(277,-202)",285,-338,,,,,,,,,,,,,4,5,33,6,,,,,,,,,,,,,,,,,,,,,,,,,,,,,,,,,,,,,,,,1443.3536905492656,None,,,1446.369893674273,None,1.6693121693121693,0.25035711331292987,1446.369893674273,None,,,,,,,1444.3537067379802,None,1444.5369037948549,1444.5535303810611,,,,,,,160,001,2024_Jan_30_1830,SpeechDraft1Carolyn_lessNoise_PlusLocalization,2021.2.3,60.04558913934424,
,,,,,,,,center,0.0,6,ch1Sound_localizationTask.wav,0.0,"(952, 878)","(-8,-202)",0,-338,,,,,,,,,,,,,4,6,34,3,,,,,,,,,,,,,,,,,,,,,,,,,,,,,,,,,,,,,,,,1446.63690731721,None,,,1449.6534284520894,None,1.5015873015873016,2.749563867226243,1449.6534284520894,None,,,,,,,1447.6369617339224,None,1447.8202017550357,1447.836981675122,,,,,,,160,001,2024_Jan_30_1830,SpeechDraft1Carolyn_lessNoise_PlusLocalization,2021.2.3,60.04558913934424,
,,,,,,,,center,0.0,6,ch1Sound_localizationTask.wav,0.0,"(952, 878)","(-8,-202)",0,-338,,,,,,,,,,,,,5,0,35,3,,,,,,,,,,,,,,,,,,,,,,,,,,,,,,,,,,,,,,,,1452.4042652361095,None,,,1455.4199202861637,None,1.4767195767195767,0.49999457597732544,1455.4199202861637,None,,,,,,,1453.4038482280448,None,1453.5874250931665,1453.6041258531623,,,,,,,160,001,2024_Jan_30_1830,SpeechDraft1Carolyn_lessNoise_PlusLocalization,2021.2.3,60.04558913934424,
,,,,,,,,nearLeft,-6.5,1,ch1Sound_localizationTask.wav,-6.5,"(857, 878)","(-103,-202)",-95,-338,,,,,,,,,,,,,5,1,36,2,,,,,,,,,,,,,,,,,,,,,,,,,,,,,,,,,,,,,,,,1455.920982746873,None,,,1458.9365336722694,None,1.4566137566137567,1.3508735080249608,1458.9365336722694,None,,,,,,,1456.9202816239558,None,1457.1036579739302,1457.1202731039375,,,,,,,160,001,2024_Jan_30_1830,SpeechDraft1Carolyn_lessNoise_PlusLocalization,2021.2.3,60.04558913934424,
,,,,,,,,center,0.0,6,ch1Sound_localizationTask.wav,0.0,"(952, 878)","(-8,-202)",0,-338,,,,,,,,,,,,,5,2,37,3,,,,,,,,,,,,,,,,,,,,,,,,,,,,,,,,,,,,,,,,1460.3035620851442,None,,,1463.3201008681208,None,1.505820105820106,1.7002942017279565,1463.3201008681208,None,,,,,,,1461.303518129047,None,1461.487027585972,1461.503642462194,,,,,,,160,001,2024_Jan_30_1830,SpeechDraft1Carolyn_lessNoise_PlusLocalization,2021.2.3,60.04558913934424,
,,,,,,,,farRight,19.1,4,ch1Sound_localizationTask.wav,19.1,"(1237, 878)","(277,-202)",285,-338,,,,,,,,,,,,,5,3,38,6,,,,,,,,,,,,,,,,,,,,,,,,,,,,,,,,,,,,,,,,1465.0208926619962,None,,,1468.0366653371602,None,1.638095238095238,2.1169295660220087,1468.0366653371602,None,,,,,,,1466.0203353581019,None,1466.2036830931902,1466.2203425820917,,,,,,,160,001,2024_Jan_30_1830,SpeechDraft1Carolyn_lessNoise_PlusLocalization,2021.2.3,60.04558913934424,
,,,,,,,,midLeft,-13.0,2,ch1Sound_localizationTask.wav,-13.0,"(762, 878)","(-198,-202)",-190,-338,,,,,,,,,,,,,5,4,39,1,,,,,,,,,,,,,,,,,,,,,,,,,,,,,,,,,,,,,,,,1470.170220513828,None,,,1473.186671899166,None,1.403174603174603,2.1991562880575657,1473.186671899166,None,,,,,,,1471.1703218389302,None,1471.3537034699693,1471.3703412399627,,,,,,,160,001,2024_Jan_30_1830,SpeechDraft1Carolyn_lessNoise_PlusLocalization,2021.2.3,60.04558913934424,
,,,,,,,,center,0.0,6,ch1Sound_localizationTask.wav,0.0,"(952, 878)","(-8,-202)",0,-338,,,,,,,,,,,,,5,5,40,3,,,,,,,,,,,,,,,,,,,,,,,,,,,,,,,,,,,,,,,,1475.3871690682136,None,,,1478.4035377302207,None,1.4994708994708994,1.6987155247479677,1478.4035377302207,None,,,,,,,1476.3871949492022,None,1476.5702781509608,1476.5871680099517,,,,,,,160,001,2024_Jan_30_1830,SpeechDraft1Carolyn_lessNoise_PlusLocalization,2021.2.3,60.04558913934424,
,,,,,,,,farLeft,-19.1,5,ch1Sound_localizationTask.wav,-19.1,"(667, 878)","(-293,-202)",-285,-338,,,,,,,,,,,,,5,6,41,0,,,,,,,,,,,,,,,,,,,,,,,,,,,,,,,,,,,,,,,,1480.103949856013,None,,,1483.1201728731394,None,1.326984126984127,1.3671185988932848,1483.1201728731394,None,,,,,,,1481.1037039849907,None,1481.286989606917,1481.3037099372596,,,,,,,160,001,2024_Jan_30_1830,SpeechDraft1Carolyn_lessNoise_PlusLocalization,2021.2.3,60.04558913934424,
,,,,,,,,midLeft,-13.0,2,ch1Sound_localizationTask.wav,-13.0,"(762, 878)","(-198,-202)",-190,-338,,,,,,,,,,,,,6,0,42,1,,,,,,,,,,,,,,,,,,,,,,,,,,,,,,,,,,,,,,,,1484.503476751037,None,,,1487.520109702833,None,1.4037037037037037,2.1490697520785034,1487.520109702833,None,,,,,,,1485.503613193985,None,1485.6871437001973,1485.7036670930684,,,,,,,160,001,2024_Jan_30_1830,SpeechDraft1Carolyn_lessNoise_PlusLocalization,2021.2.3,60.04558913934424,
,,,,,,,,center,0.0,6,ch1Sound_localizationTask.wav,0.0,"(952, 878)","(-8,-202)",0,-338,,,,,,,,,,,,,6,1,43,3,,,,,,,,,,,,,,,,,,,,,,,,,,,,,,,,,,,,,,,,1489.6710649458691,None,,,1492.686779004056,None,1.5343915343915344,1.450626205187291,1492.686779004056,None,,,,,,,1490.670316298958,None,1490.8536782260053,1490.8705119621009,,,,,,,160,001,2024_Jan_30_1830,SpeechDraft1Carolyn_lessNoise_PlusLocalization,2021.2.3,60.04558913934424,
,,,,,,,,farRight,19.1,4,ch1Sound_localizationTask.wav,19.1,"(1237, 878)","(277,-202)",285,-338,,,,,,,,,,,,,6,2,44,6,,,,,,,,,,,,,,,,,,,,,,,,,,,,,,,,,,,,,,,,1494.1537316581234,None,,,1497.1699534598738,None,1.7111111111111112,1.5345014380291104,1497.1699534598738,None,,,,,,,1495.1535586141981,None,1495.3371619409882,1495.3537769489922,,,,,,,160,001,2024_Jan_30_1830,SpeechDraft1Carolyn_lessNoise_PlusLocalization,2021.2.3,60.04558913934424,
,,,,,,,,midLeft,-13.0,2,ch1Sound_localizationTask.wav,-13.0,"(762, 878)","(-198,-202)",-190,-338,,,,,,,,,,,,,6,3,45,1,,,,,,,,,,,,,,,,,,,,,,,,,,,,,,,,,,,,,,,,1498.7203776189126,None,,,1501.7366637228988,None,1.3915343915343916,1.9005573480390012,1501.7366637228988,None,,,,,,,1499.720214143861,None,1499.9037425322458,1499.920562690124,,,,,,,160,001,2024_Jan_30_1830,SpeechDraft1Carolyn_lessNoise_PlusLocalization,2021.2.3,60.04558913934424,
,,,,,,,,farRight,19.1,4,ch1Sound_localizationTask.wav,19.1,"(1237, 878)","(277,-202)",285,-338,,,,,,,,,,,,,6,4,46,6,,,,,,,,,,,,,,,,,,,,,,,,,,,,,,,,,,,,,,,,1503.6538773491047,None,,,1506.6700566308573,None,1.6814814814814816,1.5997554850764573,1506.6700566308573,None,,,,,,,1504.6537784291431,None,1504.8370228209533,1504.8538073641248,,,,,,,160,001,2024_Jan_30_1830,SpeechDraft1Carolyn_lessNoise_PlusLocalization,2021.2.3,60.04558913934424,
,,,,,,,,farLeft,-19.1,5,ch1Sound_localizationTask.wav,-19.1,"(667, 878)","(-293,-202)",-285,-338,,,,,,,,,,,,,6,5,47,0,,,,,,,,,,,,,,,,,,,,,,,,,,,,,,,,,,,,,,,,1508.270426522009,None,,,1511.2867622990161,None,1.3571428571428572,1.3823817069642246,1511.2867622990161,None,,,,,,,1509.2702631489374,None,1509.4536693650298,1509.470340916887,,,,,,,160,001,2024_Jan_30_1830,SpeechDraft1Carolyn_lessNoise_PlusLocalization,2021.2.3,60.04558913934424,
,,,,,,,,nearRight,6.5,0,ch1Sound_localizationTask.wav,6.5,"(1047, 878)","(87, -202)",95,-338,,,,,,,,,,,,,6,6,48,4,,,,,,,,,,,,,,,,,,,,,,,,,,,,,,,,,,,,,,,,1512.670497009065,None,,,1515.68668905925,None,1.560846560846561,1.3988419263623655,1515.68668905925,None,,,,,,,1513.6702698748559,None,1513.8537287702784,1513.8704665438272,,,,,,,160,001,2024_Jan_30_1830,SpeechDraft1Carolyn_lessNoise_PlusLocalization,2021.2.3,60.04558913934424,
,,,,,,,,farLeft,-19.1,5,ch1Sound_localizationTask.wav,-19.1,"(667, 878)","(-293,-202)",-285,-338,,,,,,,,,,,,,7,0,49,0,,,,,,,,,,,,,,,,,,,,,,,,,,,,,,,,,,,,,,,,1517.087031510193,None,,,1520.1034000078216,None,1.2904761904761906,1.2327181799337268,1520.1034000078216,None,,,,,,,1518.0869705518708,None,1518.2706626299769,1518.2870371951722,,,,,,,160,001,2024_Jan_30_1830,SpeechDraft1Carolyn_lessNoise_PlusLocalization,2021.2.3,60.04558913934424,
,,,,,,,,nearRight,6.5,0,ch1Sound_localizationTask.wav,6.5,"(1047, 878)","(87, -202)",95,-338,,,,,,,,,,,,,7,1,50,4,,,,,,,,,,,,,,,,,,,,,,,,,,,,,,,,,,,,,,,,1521.3371010739356,None,,,1524.353356542997,None,1.5597883597883597,2.049979249946773,1524.353356542997,None,,,,,,,1522.337258464191,None,1522.5203801728785,1522.5370665718801,,,,,,,160,001,2024_Jan_30_1830,SpeechDraft1Carolyn_lessNoise_PlusLocalization,2021.2.3,60.04558913934424,
,,,,,,,,farLeft,-19.1,5,ch1Sound_localizationTask.wav,-19.1,"(667, 878)","(-293,-202)",-285,-338,,,,,,,,,,,,,7,2,51,0,,,,,,,,,,,,,,,,,,,,,,,,,,,,,,,,,,,,,,,,1526.4037015498616,None,,,1529.420179035049,None,1.3460317460317461,1.2660993812605739,1529.420179035049,None,,,,,,,1527.4038258809596,None,1527.587081991136,1527.603892560117,,,,,,,160,001,2024_Jan_30_1830,SpeechDraft1Carolyn_lessNoise_PlusLocalization,2021.2.3,60.04558913934424,
,,,,,,,,nearRight,6.5,0,ch1Sound_localizationTask.wav,6.5,"(1047, 878)","(87, -202)",95,-338,,,,,,,,,,,,,7,3,52,4,,,,,,,,,,,,,,,,,,,,,,,,,,,,,,,,,,,,,,,,1530.687032096088,None,,,1533.7035112502053,None,1.5587301587301587,1.2158826352097094,1533.7035112502053,None,,,,,,,1531.6868809321895,None,1531.8705047238618,1531.8870372632518,,,,,,,160,001,2024_Jan_30_1830,SpeechDraft1Carolyn_lessNoise_PlusLocalization,2021.2.3,60.04558913934424,
,,,,,,,,nearLeft,-6.5,1,ch1Sound_localizationTask.wav,-6.5,"(857, 878)","(-103,-202)",-95,-338,,,,,,,,,,,,,7,4,53,2,,,,,,,,,,,,,,,,,,,,,,,,,,,,,,,,,,,,,,,,1534.9204588201828,None,,,1537.9367544949055,None,1.426984126984127,0.7169397990219295,1537.9367544949055,None,,,,,,,1535.9204748379998,None,1536.1036859848537,1536.1203493662179,,,,,,,160,001,2024_Jan_30_1830,SpeechDraft1Carolyn_lessNoise_PlusLocalization,2021.2.3,60.04558913934424,
,,,,,,,,nearRight,6.5,0,ch1Sound_localizationTask.wav,6.5,"(1047, 878)","(87, -202)",95,-338,,,,,,,,,,,,,7,5,54,4,,,,,,,,,,,,,,,,,,,,,,,,,,,,,,,,,,,,,,,,1538.67046754295,None,,,1541.686617048923,None,1.543915343915344,0.6664478182792664,1541.686617048923,None,,,,,,,1539.6705010589212,None,1539.8536481112242,1539.8704161411151,,,,,,,160,001,2024_Jan_30_1830,SpeechDraft1Carolyn_lessNoise_PlusLocalization,2021.2.3,60.04558913934424,
,,,,,,,,midLeft,-13.0,2,ch1Sound_localizationTask.wav,-13.0,"(762, 878)","(-198,-202)",-190,-338,,,,,,,,,,,,,7,6,55,1,,,,,,,,,,,,,,,,,,,,,,,,,,,,,,,,,,,,,,,,1542.3538000648841,None,,,1545.3700670110993,None,1.41005291005291,1.2825468201190233,1545.3700670110993,None,,,,,,,1543.353853391949,None,1543.5370487920009,1543.553696040064,,,,,,,160,001,2024_Jan_30_1830,SpeechDraft1Carolyn_lessNoise_PlusLocalization,2021.2.3,60.04558913934424,
,,,,,,,,,,,,,,,,,,,,,,,,,,,,,,,,,,,,,,,,,,,,,,,,,,,,,,,,,,,,,,,,,,,,,,,,,,,,,,,,,,,,,,,,,,,,1546.654982284177,None,c,208.44394492916763,1547.6372804231942,None,160,001,2024_Jan_30_1830,SpeechDraft1Carolyn_lessNoise_PlusLocalization,2021.2.3,60.04558913934424,
