Audio_Only_Files,Video_Files,Original_Word_List,noiseLevelCode,conditionCodes,noiseLevelFile1,noiseLevelFile2,InstrTextVar,targetSpeakerName,targetSpeakerEccen,targetSpkrChannel,targetSpkrSound,targetVisualDegrees,visStimLoc,visStimLoc2,visStimW,visStimH,practiceTrials.thisRepN,practiceTrials.thisTrialN,practiceTrials.thisN,practiceTrials.thisIndex,trials.thisRepN,trials.thisTrialN,trials.thisN,trials.thisIndex,audLocalLoop.thisRepN,audLocalLoop.thisTrialN,audLocalLoop.thisN,audLocalLoop.thisIndex,visualLocalLoop.thisRepN,visualLocalLoop.thisTrialN,visualLocalLoop.thisN,visualLocalLoop.thisIndex,letsGoAlready.keys,letsGoAlready.rt,letsGoAlready.started,letsGoAlready.stopped,text_2.started,text_2.stopped,text_3.started,text_3.stopped,key_resp_2.keys,key_resp_2.rt,key_resp_2.started,key_resp_2.stopped,text_5.started,text_5.stopped,fixCross.started,fixCross.stopped,fixCross2.started,fixCross2.stopped,answerPrompt.started,answerPrompt.stopped,getAnswer.text,getAnswer.started,getAnswer.stopped,goToNext.keys,goToNext.rt,goToNext.started,goToNext.stopped,stretchBreakTxrt.started,stretchBreakTxrt.stopped,key_resp_3.keys,key_resp_3.rt,key_resp_3.started,key_resp_3.stopped,letsGoLocal.keys,letsGoLocal.rt,letsGoLocal.started,letsGoLocal.stopped,text_4.started,text_4.stopped,prepFixTxt.started,prepFixTxt.stopped,prepFixTxt_2.started,prepFixTxt_2.stopped,respPromptLocal.started,respPromptLocal.stopped,slider.response,slider.rt,slider.started,slider.stopped,letsGoLocal_2.keys,letsGoLocal_2.rt,letsGoLocal_2.started,letsGoLocal_2.stopped,text_7.started,text_7.stopped,prepFixTxt_3.started,prepFixTxt_3.stopped,grating.started,grating.stopped,exitTxt.started,exitTxt.stopped,key_resp.keys,key_resp.rt,key_resp.started,key_resp.stopped,participant,session,date,expName,psychopyVersion,frameRate,
,,,,,,,,,,,,,,,,,,,,,,,,,,,,,,,,,space,81.72081216610968,37.504030427895486,None,,,,,,,,,,,,,,,,,,,,,,,,,,,,,,,,,,,,,,,,,,,,,,,,,,,,,,,,,,,,,,161,001,2024_Feb_06_1731,SpeechDraft1Carolyn_lessNoise_PlusLocalization,2021.2.3,60.20176567250176,
,,,,,,,,,,,,,,,,,,,,,,,,,,,,,,,,,,,,,37.504030427895486,None,119.353881936986,None,space,10.17550020525232,119.53714068420231,None,,,,,,,,,,,,,,,,,,,,,,,,,,,,,,,,,,,,,,,,,,,,,,,,,,,,,,161,001,2024_Feb_06_1731,SpeechDraft1Carolyn_lessNoise_PlusLocalization,2021.2.3,60.20176567250176,
ash.wav,ash.mpg,ash,1,A,Pink_Noise_1_1.wav,Pink_Noise_1_2.wav,"This is an example of an

AUDIO trial",,,,,,,,,,0,0,0,0,,,,,,,,,,,,,,,,,,,,,,,,,129.77036262024194,None,130.75378402229398,None,135.57027874095365,None,136.9539709580131,None,ash,136.9539709580131,None,return,3.571824606973678,137.0369484089315,None,,,,,,,,,,,,,,,,,,,,,,,,,,,,,,,,,,,,,,,161,001,2024_Feb_06_1731,SpeechDraft1Carolyn_lessNoise_PlusLocalization,2021.2.3,60.20176567250176,
ash.wav,ash.mpg,ash,1,AV,Pink_Noise_1_1.wav,Pink_Noise_1_2.wav,"This is an example of an

AUDIO + VIDEO  trial",,,,,,,,,,0,1,1,1,,,,,,,,,,,,,,,,,,,,,,,,,140.65364977391437,None,141.6537501201965,None,143.13683095900342,None,144.52031298028305,None,ash,144.52031298028305,None,return,2.5570077816955745,144.6037403792143,None,,,,,,,,,,,,,,,,,,,,,,,,,,,,,,,,,,,,,,,161,001,2024_Feb_06_1731,SpeechDraft1Carolyn_lessNoise_PlusLocalization,2021.2.3,60.20176567250176,
,,,,,,,,,,,,,,,,,,,,,,,,,,,,,,,,,,,,,,,,,,,,,,,,,,,,,,,,,,,,147.20325990999117,None,space,17.533516600262374,147.38712419988587,None,,,,,,,,,,,,,,,,,,,,,,,,,,,,,,,,,161,001,2024_Feb_06_1731,SpeechDraft1Carolyn_lessNoise_PlusLocalization,2021.2.3,60.20176567250176,
phase.wav,phase.mpg,phase,5,A,Pink_Noise_5_1.wav,Pink_Noise_5_2.wav,,,,,,,,,,,,,,,0,0,0,16,,,,,,,,,,,,,,,,,,,,,,,165.00375506514683,None,166.4866777411662,None,167.8704858762212,None,phase,167.8704858762212,None,return,13.031042440794408,167.9536634730175,None,,,,,,,,,,,,,,,,,,,,,,,,,,,,,,,,,,,,,,,161,001,2024_Feb_06_1731,SpeechDraft1Carolyn_lessNoise_PlusLocalization,2021.2.3,60.20176567250176,
card.wav,card.mpg,card,6,A,Pink_Noise_6_1.wav,Pink_Noise_6_2.wav,,,,,,,,,,,,,,,0,1,1,34,,,,,,,,,,,,,,,,,,,,,,,181.00414058892056,None,182.5035318681039,None,183.88712220219895,None,"way
",183.88712220219895,None,return,4.717965540010482,183.97069073095918,None,,,,,,,,,,,,,,,,,,,,,,,,,,,,,,,,,,,,,,,161,001,2024_Feb_06_1731,SpeechDraft1Carolyn_lessNoise_PlusLocalization,2021.2.3,60.20176567250176,
greek.wav,greek.mpg,greek,1,AV,Pink_Noise_1_1.wav,Pink_Noise_1_2.wav,,,,,,,,,,,,,,,0,2,2,73,,,,,,,,,,,,,,,,,,,,,,,188.72054056916386,None,190.22024000622332,None,191.60396049031988,None,"greek
",191.60396049031988,None,return,4.833436920773238,191.68721062503755,None,,,,,,,,,,,,,,,,,,,,,,,,,,,,,,,,,,,,,,,161,001,2024_Feb_06_1731,SpeechDraft1Carolyn_lessNoise_PlusLocalization,2021.2.3,60.20176567250176,
fleet.wav,fleet.mpg,fleet,6,A,Pink_Noise_6_1.wav,Pink_Noise_6_2.wav,,,,,,,,,,,,,,,0,3,3,30,,,,,,,,,,,,,,,,,,,,,,,196.55365154100582,None,198.0533798611723,None,199.43715263530612,None,state,199.43715263530612,None,return,3.280206561088562,199.52049783011898,None,,,,,,,,,,,,,,,,,,,,,,,,,,,,,,,,,,,,,,,161,001,2024_Feb_06_1731,SpeechDraft1Carolyn_lessNoise_PlusLocalization,2021.2.3,60.20176567250176,
chain.wav,chain.mpg,chain,3,A,Pink_Noise_3_1.wav,Pink_Noise_3_2.wav,,,,,,,,,,,,,,,0,4,4,4,,,,,,,,,,,,,,,,,,,,,,,202.82066438626498,None,204.3036939878948,None,205.68708540825173,None,chain,205.68708540825173,None,return,5.398447602055967,205.77034965297207,None,,,,,,,,,,,,,,,,,,,,,,,,,,,,,,,,,,,,,,,161,001,2024_Feb_06_1731,SpeechDraft1Carolyn_lessNoise_PlusLocalization,2021.2.3,60.20176567250176,
folk.wav,folk.mpg,folk,4,A,Pink_Noise_4_1.wav,Pink_Noise_4_2.wav,,,,,,,,,,,,,,,0,5,5,27,,,,,,,,,,,,,,,,,,,,,,,211.18716306006536,None,212.68678366113454,None,214.0703477798961,None,book,214.0703477798961,None,return,1.2470172508619726,214.1537216422148,None,,,,,,,,,,,,,,,,,,,,,,,,,,,,,,,,,,,,,,,161,001,2024_Feb_06_1731,SpeechDraft1Carolyn_lessNoise_PlusLocalization,2021.2.3,60.20176567250176,
choke.wav,choke.mpg,choke,1,A,Pink_Noise_1_1.wav,Pink_Noise_1_2.wav,,,,,,,,,,,,,,,0,6,6,37,,,,,,,,,,,,,,,,,,,,,,,215.42044041631743,None,216.92049659602344,None,218.30381729220971,None,choke,218.30381729220971,None,return,0.9733435311354697,218.38733605621383,None,,,,,,,,,,,,,,,,,,,,,,,,,,,,,,,,,,,,,,,161,001,2024_Feb_06_1731,SpeechDraft1Carolyn_lessNoise_PlusLocalization,2021.2.3,60.20176567250176,
fuse.wav,fuse.mpg,fuse,6,AV,Pink_Noise_6_1.wav,Pink_Noise_6_2.wav,,,,,,,,,,,,,,,0,7,7,74,,,,,,,,,,,,,,,,,,,,,,,219.3871518713422,None,220.88712436007336,None,222.2702117380686,None,mute,222.2702117380686,None,return,4.1749083418399096,222.35373003222048,None,,,,,,,,,,,,,,,,,,,,,,,,,,,,,,,,,,,,,,,161,001,2024_Feb_06_1731,SpeechDraft1Carolyn_lessNoise_PlusLocalization,2021.2.3,60.20176567250176,
brew.wav,brew.mpg,brew,3,AV,Pink_Noise_3_1.wav,Pink_Noise_3_2.wav,,,,,,,,,,,,,,,0,8,8,113,,,,,,,,,,,,,,,,,,,,,,,226.5537954471074,None,228.0536158052273,None,229.43727827910334,None,"broom
",229.43727827910334,None,return,1.520183254033327,229.52045678999275,None,,,,,,,,,,,,,,,,,,,,,,,,,,,,,,,,,,,,,,,161,001,2024_Feb_06_1731,SpeechDraft1Carolyn_lessNoise_PlusLocalization,2021.2.3,60.20176567250176,
guess.wav,guess.mpg,guess,5,A,Pink_Noise_5_1.wav,Pink_Noise_5_2.wav,,,,,,,,,,,,,,,0,9,9,56,,,,,,,,,,,,,,,,,,,,,,,231.0704058879055,None,232.57010129792616,None,233.9536978052929,None,decks,233.9536978052929,None,return,3.275416234973818,234.0372203271836,None,,,,,,,,,,,,,,,,,,,,,,,,,,,,,,,,,,,,,,,161,001,2024_Feb_06_1731,SpeechDraft1Carolyn_lessNoise_PlusLocalization,2021.2.3,60.20176567250176,
flask.wav,flask.mpg,flask,2,A,Pink_Noise_2_1.wav,Pink_Noise_2_2.wav,,,,,,,,,,,,,,,0,10,10,46,,,,,,,,,,,,,,,,,,,,,,,237.3371629952453,None,238.83673323504627,None,240.22043412411585,None,flask,240.22043412411585,None,return,1.0248227468691766,240.3038240270689,None,,,,,,,,,,,,,,,,,,,,,,,,,,,,,,,,,,,,,,,161,001,2024_Feb_06_1731,SpeechDraft1Carolyn_lessNoise_PlusLocalization,2021.2.3,60.20176567250176,
clerk.wav,clerk.mpg,clerk,6,A,Pink_Noise_6_1.wav,Pink_Noise_6_2.wav,,,,,,,,,,,,,,,0,11,11,7,,,,,,,,,,,,,,,,,,,,,,,241.353914052248,None,242.8533738818951,None,244.23727605910972,None,mix,244.23727605910972,None,return,0.9041541018523276,244.32045749388635,None,,,,,,,,,,,,,,,,,,,,,,,,,,,,,,,,,,,,,,,161,001,2024_Feb_06_1731,SpeechDraft1Carolyn_lessNoise_PlusLocalization,2021.2.3,60.20176567250176,
stain.wav,stain.mpg,stain,2,A,Pink_Noise_2_1.wav,Pink_Noise_2_2.wav,,,,,,,,,,,,,,,0,12,12,13,,,,,,,,,,,,,,,,,,,,,,,245.253781423904,None,246.75351113220677,None,248.13707484817132,None,stain,248.13707484817132,None,return,1.0042442101985216,248.2204111032188,None,,,,,,,,,,,,,,,,,,,,,,,,,,,,,,,,,,,,,,,161,001,2024_Feb_06_1731,SpeechDraft1Carolyn_lessNoise_PlusLocalization,2021.2.3,60.20176567250176,
cry.wav,cry.mpg,cry,3,A,Pink_Noise_3_1.wav,Pink_Noise_3_2.wav,,,,,,,,,,,,,,,0,13,13,20,,,,,,,,,,,,,,,,,,,,,,,249.25374116189778,None,250.73737621307373,None,252.12045232998207,None,cry,252.12045232998207,None,return,1.3085664110258222,252.20408686529845,None,,,,,,,,,,,,,,,,,,,,,,,,,,,,,,,,,,,,,,,161,001,2024_Feb_06_1731,SpeechDraft1Carolyn_lessNoise_PlusLocalization,2021.2.3,60.20176567250176,
drum.wav,drum.mpg,drum,5,AV,Pink_Noise_5_1.wav,Pink_Noise_5_2.wav,,,,,,,,,,,,,,,0,14,14,82,,,,,,,,,,,,,,,,,,,,,,,253.53726230934262,None,255.03694630600512,None,256.42047620611265,None,drum,256.42047620611265,None,return,1.2489774129353464,256.503756463062,None,,,,,,,,,,,,,,,,,,,,,,,,,,,,,,,,,,,,,,,161,001,2024_Feb_06_1731,SpeechDraft1Carolyn_lessNoise_PlusLocalization,2021.2.3,60.20176567250176,
bush.wav,bush.mpg,bush,2,AV,Pink_Noise_2_1.wav,Pink_Noise_2_2.wav,,,,,,,,,,,,,,,0,15,15,106,,,,,,,,,,,,,,,,,,,,,,,257.77066010190174,None,259.2702049682848,None,260.65393844619393,None,"brush
",260.65393844619393,None,return,1.519585158675909,260.73706923332065,None,,,,,,,,,,,,,,,,,,,,,,,,,,,,,,,,,,,,,,,161,001,2024_Feb_06_1731,SpeechDraft1Carolyn_lessNoise_PlusLocalization,2021.2.3,60.20176567250176,
flight.wav,flight.mpg,flight,6,A,Pink_Noise_6_1.wav,Pink_Noise_6_2.wav,,,,,,,,,,,,,,,0,16,16,25,,,,,,,,,,,,,,,,,,,,,,,262.2874415111728,None,263.7718409700319,None,265.1704139979556,None,cry,265.1704139979556,None,return,6.47478090878576,265.25386119727045,None,,,,,,,,,,,,,,,,,,,,,,,,,,,,,,,,,,,,,,,161,001,2024_Feb_06_1731,SpeechDraft1Carolyn_lessNoise_PlusLocalization,2021.2.3,60.20176567250176,
chief.wav,chief.mpg,chief,5,AV,Pink_Noise_5_1.wav,Pink_Noise_5_2.wav,,,,,,,,,,,,,,,0,17,17,92,,,,,,,,,,,,,,,,,,,,,,,271.75411358615384,None,273.25359588488936,None,274.6371793942526,None,chief,274.6371793942526,None,return,5.9761557462625206,274.72047805506736,None,,,,,,,,,,,,,,,,,,,,,,,,,,,,,,,,,,,,,,,161,001,2024_Feb_06_1731,SpeechDraft1Carolyn_lessNoise_PlusLocalization,2021.2.3,60.20176567250176,
oats.wav,oats.mpg,oats,2,AV,Pink_Noise_2_1.wav,Pink_Noise_2_2.wav,,,,,,,,,,,,,,,0,18,18,118,,,,,,,,,,,,,,,,,,,,,,,280.7205020580441,None,282.20516178011894,None,283.5871959552169,None,oats,283.5871959552169,None,return,1.410113361198455,283.67052155314013,None,,,,,,,,,,,,,,,,,,,,,,,,,,,,,,,,,,,,,,,161,001,2024_Feb_06_1731,SpeechDraft1Carolyn_lessNoise_PlusLocalization,2021.2.3,60.20176567250176,
blood.wav,blood.mpg,blood,4,A,Pink_Noise_4_1.wav,Pink_Noise_4_2.wav,,,,,,,,,,,,,,,0,19,19,0,,,,,,,,,,,,,,,,,,,,,,,285.1039385651238,None,286.60371646331623,None,287.9871853562072,None,gloves,287.9871853562072,None,return,2.8502035019919276,288.07042723102495,None,,,,,,,,,,,,,,,,,,,,,,,,,,,,,,,,,,,,,,,161,001,2024_Feb_06_1731,SpeechDraft1Carolyn_lessNoise_PlusLocalization,2021.2.3,60.20176567250176,
solve.wav,solve.mpg,solve,2,AV,Pink_Noise_2_1.wav,Pink_Noise_2_2.wav,,,,,,,,,,,,,,,0,20,20,63,,,,,,,,,,,,,,,,,,,,,,,290.937143816147,None,292.4208742361516,None,293.803994059097,None,solve,293.803994059097,None,return,1.0893910331651568,293.88740373402834,None,,,,,,,,,,,,,,,,,,,,,,,,,,,,,,,,,,,,,,,161,001,2024_Feb_06_1731,SpeechDraft1Carolyn_lessNoise_PlusLocalization,2021.2.3,60.20176567250176,
cold.wav,cold.mpg,cold,2,A,Pink_Noise_2_1.wav,Pink_Noise_2_2.wav,,,,,,,,,,,,,,,0,21,21,35,,,,,,,,,,,,,,,,,,,,,,,295.0040489509702,None,296.50347519107163,None,297.8872330193408,None,cold,297.8872330193408,None,return,0.9822927289642394,297.9704527561553,None,,,,,,,,,,,,,,,,,,,,,,,,,,,,,,,,,,,,,,,161,001,2024_Feb_06_1731,SpeechDraft1Carolyn_lessNoise_PlusLocalization,2021.2.3,60.20176567250176,
globe.wav,globe.mpg,globe,4,AV,Pink_Noise_4_1.wav,Pink_Noise_4_2.wav,,,,,,,,,,,,,,,0,22,22,99,,,,,,,,,,,,,,,,,,,,,,,298.9705387009308,None,300.470350259915,None,301.8540174602531,None,globe,301.8540174602531,None,return,2.1115079722367227,301.9371350980364,None,,,,,,,,,,,,,,,,,,,,,,,,,,,,,,,,,,,,,,,161,001,2024_Feb_06_1731,SpeechDraft1Carolyn_lessNoise_PlusLocalization,2021.2.3,60.20176567250176,
flop.wav,flop.mpg,flop,3,AV,Pink_Noise_3_1.wav,Pink_Noise_3_2.wav,,,,,,,,,,,,,,,0,23,23,86,,,,,,,,,,,,,,,,,,,,,,,304.0704665319063,None,305.57010072795674,None,306.9540497139096,None,flop,306.9540497139096,None,return,1.8834510808810592,307.0371902300976,None,,,,,,,,,,,,,,,,,,,,,,,,,,,,,,,,,,,,,,,161,001,2024_Feb_06_1731,SpeechDraft1Carolyn_lessNoise_PlusLocalization,2021.2.3,60.20176567250176,
cake.wav,cake.mpg,cake,4,AV,Pink_Noise_4_1.wav,Pink_Noise_4_2.wav,,,,,,,,,,,,,,,0,24,24,109,,,,,,,,,,,,,,,,,,,,,,,308.9371259990148,None,310.4370433399454,None,311.8203857750632,None,"take
",311.8203857750632,None,return,1.2167524141259491,311.90389358391985,None,,,,,,,,,,,,,,,,,,,,,,,,,,,,,,,,,,,,,,,161,001,2024_Feb_06_1731,SpeechDraft1Carolyn_lessNoise_PlusLocalization,2021.2.3,60.20176567250176,
bulb.wav,bulb.mpg,bulb,4,A,Pink_Noise_4_1.wav,Pink_Noise_4_2.wav,,,,,,,,,,,,,,,0,25,25,12,,,,,,,,,,,,,,,,,,,,,,,313.1537867872976,None,314.63739602826536,None,316.0204843720421,None,"bold
",316.0204843720421,None,return,0.9847269998863339,316.1038903389126,None,,,,,,,,,,,,,,,,,,,,,,,,,,,,,,,,,,,,,,,161,001,2024_Feb_06_1731,SpeechDraft1Carolyn_lessNoise_PlusLocalization,2021.2.3,60.20176567250176,
bill.wav,bill.mpg,bill,6,A,Pink_Noise_6_1.wav,Pink_Noise_6_2.wav,,,,,,,,,,,,,,,0,26,26,54,,,,,,,,,,,,,,,,,,,,,,,317.12077851127833,None,318.62023829994723,None,320.00380837824196,None,save,320.00380837824196,None,return,1.129478340037167,320.08718634117395,None,,,,,,,,,,,,,,,,,,,,,,,,,,,,,,,,,,,,,,,161,001,2024_Feb_06_1731,SpeechDraft1Carolyn_lessNoise_PlusLocalization,2021.2.3,60.20176567250176,
dive.wav,dive.mpg,dive,3,A,Pink_Noise_3_1.wav,Pink_Noise_3_2.wav,,,,,,,,,,,,,,,0,27,27,10,,,,,,,,,,,,,,,,,,,,,,,321.2372846081853,None,322.720881623216,None,324.10380032099783,None,die,324.10380032099783,None,return,1.5413895011879504,324.1873084800318,None,,,,,,,,,,,,,,,,,,,,,,,,,,,,,,,,,,,,,,,161,001,2024_Feb_06_1731,SpeechDraft1Carolyn_lessNoise_PlusLocalization,2021.2.3,60.20176567250176,
crush.wav,crush.mpg,crush,3,A,Pink_Noise_3_1.wav,Pink_Noise_3_2.wav,,,,,,,,,,,,,,,0,28,28,41,,,,,,,,,,,,,,,,,,,,,,,325.7538897842169,None,327.25354332709685,None,328.6372830593027,None,crush,328.6372830593027,None,return,1.2878530132584274,328.7207930269651,None,,,,,,,,,,,,,,,,,,,,,,,,,,,,,,,,,,,,,,,161,001,2024_Feb_06_1731,SpeechDraft1Carolyn_lessNoise_PlusLocalization,2021.2.3,60.20176567250176,
smack.wav,smack.mpg,smack,4,AV,Pink_Noise_4_1.wav,Pink_Noise_4_2.wav,,,,,,,,,,,,,,,0,29,29,93,,,,,,,,,,,,,,,,,,,,,,,330.0374044929631,None,331.53697806131095,None,332.920453407336,None,"seven
",332.920453407336,None,return,8.468722437974066,333.0039202659391,None,,,,,,,,,,,,,,,,,,,,,,,,,,,,,,,,,,,,,,,161,001,2024_Feb_06_1731,SpeechDraft1Carolyn_lessNoise_PlusLocalization,2021.2.3,60.20176567250176,
live.wav,live.mpg,live,1,AV,Pink_Noise_1_1.wav,Pink_Noise_1_2.wav,,,,,,,,,,,,,,,0,30,30,83,,,,,,,,,,,,,,,,,,,,,,,341.5040717199445,None,343.0036979969591,None,344.3871280220337,None,live,344.3871280220337,None,return,0.905995522160083,344.470745976083,None,,,,,,,,,,,,,,,,,,,,,,,,,,,,,,,,,,,,,,,161,001,2024_Feb_06_1731,SpeechDraft1Carolyn_lessNoise_PlusLocalization,2021.2.3,60.20176567250176,
fraud.wav,fraud.mpg,fraud,6,AV,Pink_Noise_6_1.wav,Pink_Noise_6_2.wav,,,,,,,,,,,,,,,0,31,31,98,,,,,,,,,,,,,,,,,,,,,,,345.4038876420818,None,346.90379161108285,None,348.28712604613975,None,roll,348.28712604613975,None,return,1.9420154830440879,348.37062617810443,None,,,,,,,,,,,,,,,,,,,,,,,,,,,,,,,,,,,,,,,161,001,2024_Feb_06_1731,SpeechDraft1Carolyn_lessNoise_PlusLocalization,2021.2.3,60.20176567250176,
grill.wav,grill.mpg,grill,4,A,Pink_Noise_4_1.wav,Pink_Noise_4_2.wav,,,,,,,,,,,,,,,0,32,32,22,,,,,,,,,,,,,,,,,,,,,,,350.33727130433545,None,351.83705185120925,None,353.2205095170066,None,grill,353.2205095170066,None,return,4.264557430986315,353.30408560298383,None,,,,,,,,,,,,,,,,,,,,,,,,,,,,,,,,,,,,,,,161,001,2024_Feb_06_1731,SpeechDraft1Carolyn_lessNoise_PlusLocalization,2021.2.3,60.20176567250176,
broil.wav,broil.mpg,broil,3,AV,Pink_Noise_3_1.wav,Pink_Noise_3_2.wav,,,,,,,,,,,,,,,0,33,33,69,,,,,,,,,,,,,,,,,,,,,,,357.58733470225707,None,359.08707660995424,None,360.4703734740615,None,broil,360.4703734740615,None,return,1.5264725317247212,360.5541635379195,None,,,,,,,,,,,,,,,,,,,,,,,,,,,,,,,,,,,,,,,161,001,2024_Feb_06_1731,SpeechDraft1Carolyn_lessNoise_PlusLocalization,2021.2.3,60.20176567250176,
glue.wav,glue.mpg,glue,1,A,Pink_Noise_1_1.wav,Pink_Noise_1_2.wav,,,,,,,,,,,,,,,0,34,34,53,,,,,,,,,,,,,,,,,,,,,,,362.1042322772555,None,363.6038462333381,None,364.9872021880001,None,"glue
",364.9872021880001,None,return,1.0180119322612882,365.0706349131651,None,,,,,,,,,,,,,,,,,,,,,,,,,,,,,,,,,,,,,,,161,001,2024_Feb_06_1731,SpeechDraft1Carolyn_lessNoise_PlusLocalization,2021.2.3,60.20176567250176,
beer.wav,beer.mpg,beer,6,A,Pink_Noise_6_1.wav,Pink_Noise_6_2.wav,,,,,,,,,,,,,,,0,35,35,59,,,,,,,,,,,,,,,,,,,,,,,366.12056964915246,None,367.62048125918955,None,369.004079495091,None,weird,369.004079495091,None,return,1.7454457888379693,369.08724888507277,None,,,,,,,,,,,,,,,,,,,,,,,,,,,,,,,,,,,,,,,161,001,2024_Feb_06_1731,SpeechDraft1Carolyn_lessNoise_PlusLocalization,2021.2.3,60.20176567250176,
paid.wav,paid.mpg,paid,1,A,Pink_Noise_1_1.wav,Pink_Noise_1_2.wav,,,,,,,,,,,,,,,0,36,36,33,,,,,,,,,,,,,,,,,,,,,,,370.85397387389094,None,372.35365250799805,None,373.7372019831091,None,paid,373.7372019831091,None,return,0.8039529039524496,373.82069374108687,None,,,,,,,,,,,,,,,,,,,,,,,,,,,,,,,,,,,,,,,161,001,2024_Feb_06_1731,SpeechDraft1Carolyn_lessNoise_PlusLocalization,2021.2.3,60.20176567250176,
toast.wav,toast.mpg,toast,4,A,Pink_Noise_4_1.wav,Pink_Noise_4_2.wav,,,,,,,,,,,,,,,0,37,37,32,,,,,,,,,,,,,,,,,,,,,,,374.65388898923993,None,376.15365848410875,None,377.5372940511443,None,toast,377.5372940511443,None,return,1.1638792660087347,377.62075064796954,None,,,,,,,,,,,,,,,,,,,,,,,,,,,,,,,,,,,,,,,161,001,2024_Feb_06_1731,SpeechDraft1Carolyn_lessNoise_PlusLocalization,2021.2.3,60.20176567250176,
bed.wav,bed.mpg,bed,3,AV,Pink_Noise_3_1.wav,Pink_Noise_3_2.wav,,,,,,,,,,,,,,,0,38,38,117,,,,,,,,,,,,,,,,,,,,,,,378.8039107262157,None,380.30353363230824,None,381.6874942211434,None,bed,381.6874942211434,None,return,0.9739589490927756,381.77073669293895,None,,,,,,,,,,,,,,,,,,,,,,,,,,,,,,,,,,,,,,,161,001,2024_Feb_06_1731,SpeechDraft1Carolyn_lessNoise_PlusLocalization,2021.2.3,60.20176567250176,
clay.wav,clay.mpg,clay,3,A,Pink_Noise_3_1.wav,Pink_Noise_3_2.wav,,,,,,,,,,,,,,,0,39,39,55,,,,,,,,,,,,,,,,,,,,,,,382.77088923798874,None,384.2704883678816,None,385.65416560927406,None,clay,385.65416560927406,None,return,1.1432920889928937,385.7373412363231,None,,,,,,,,,,,,,,,,,,,,,,,,,,,,,,,,,,,,,,,161,001,2024_Feb_06_1731,SpeechDraft1Carolyn_lessNoise_PlusLocalization,2021.2.3,60.20176567250176,
bias.wav,bias.mpg,bias,1,A,Pink_Noise_1_1.wav,Pink_Noise_1_2.wav,,,,,,,,,,,,,,,0,40,40,28,,,,,,,,,,,,,,,,,,,,,,,386.9040476689115,None,388.40396559331566,None,389.78726970311254,None,bias,389.78726970311254,None,return,1.7620649971067905,389.8705898462795,None,,,,,,,,,,,,,,,,,,,,,,,,,,,,,,,,,,,,,,,161,001,2024_Feb_06_1731,SpeechDraft1Carolyn_lessNoise_PlusLocalization,2021.2.3,60.20176567250176,
grant.wav,grant.mpg,grant,4,AV,Pink_Noise_4_1.wav,Pink_Noise_4_2.wav,,,,,,,,,,,,,,,0,41,41,111,,,,,,,,,,,,,,,,,,,,,,,391.65397195797414,None,393.1537218359299,None,394.5373891950585,None,"grant
",394.5373891950585,None,return,1.035907476209104,394.6207459992729,None,,,,,,,,,,,,,,,,,,,,,,,,,,,,,,,,,,,,,,,161,001,2024_Feb_06_1731,SpeechDraft1Carolyn_lessNoise_PlusLocalization,2021.2.3,60.20176567250176,
blue.wav,blue.mpg,blue,1,A,Pink_Noise_1_1.wav,Pink_Noise_1_2.wav,,,,,,,,,,,,,,,0,42,42,42,,,,,,,,,,,,,,,,,,,,,,,395.68766997614875,None,397.18696199310943,None,398.57060372596607,None,"blue
",398.57060372596607,None,return,1.0506768133491278,398.65397031325847,None,,,,,,,,,,,,,,,,,,,,,,,,,,,,,,,,,,,,,,,161,001,2024_Feb_06_1731,SpeechDraft1Carolyn_lessNoise_PlusLocalization,2021.2.3,60.20176567250176,
cling.wav,cling.mpg,cling,4,AV,Pink_Noise_4_1.wav,Pink_Noise_4_2.wav,,,,,,,,,,,,,,,0,43,43,94,,,,,,,,,,,,,,,,,,,,,,,399.7375487643294,None,401.23695450508967,None,402.6206890642643,None,clean,402.6206890642643,None,return,1.3286543027497828,402.7040079119615,None,,,,,,,,,,,,,,,,,,,,,,,,,,,,,,,,,,,,,,,161,001,2024_Feb_06_1731,SpeechDraft1Carolyn_lessNoise_PlusLocalization,2021.2.3,60.20176567250176,
fly.wav,fly.mpg,fly,6,A,Pink_Noise_6_1.wav,Pink_Noise_6_2.wav,,,,,,,,,,,,,,,0,44,44,57,,,,,,,,,,,,,,,,,,,,,,,404.05419308831915,None,405.5536565100774,None,406.93734391918406,None,lay,406.93734391918406,None,return,1.7721754307858646,407.02059854613617,None,,,,,,,,,,,,,,,,,,,,,,,,,,,,,,,,,,,,,,,161,001,2024_Feb_06_1731,SpeechDraft1Carolyn_lessNoise_PlusLocalization,2021.2.3,60.20176567250176,
bathe.wav,bathe.mpg,bathe,5,AV,Pink_Noise_5_1.wav,Pink_Noise_5_2.wav,,,,,,,,,,,,,,,0,45,45,112,,,,,,,,,,,,,,,,,,,,,,,408.8206153442152,None,410.32050135498866,None,411.7039258489385,None,believe,411.7039258489385,None,return,3.949260456021875,411.7874258980155,None,,,,,,,,,,,,,,,,,,,,,,,,,,,,,,,,,,,,,,,161,001,2024_Feb_06_1731,SpeechDraft1Carolyn_lessNoise_PlusLocalization,2021.2.3,60.20176567250176,
dust.wav,dust.mpg,dust,4,A,Pink_Noise_4_1.wav,Pink_Noise_4_2.wav,,,,,,,,,,,,,,,0,46,46,51,,,,,,,,,,,,,,,,,,,,,,,415.75402386207134,None,417.2539731753059,None,418.63740272214636,None,guest,418.63740272214636,None,return,0.7919894442893565,418.7206457229331,None,,,,,,,,,,,,,,,,,,,,,,,,,,,,,,,,,,,,,,,161,001,2024_Feb_06_1731,SpeechDraft1Carolyn_lessNoise_PlusLocalization,2021.2.3,60.20176567250176,
boot.wav,boot.mpg,boot,2,AV,Pink_Noise_2_1.wav,Pink_Noise_2_2.wav,,,,,,,,,,,,,,,0,47,47,103,,,,,,,,,,,,,,,,,,,,,,,419.5374093223363,None,421.0372306811623,None,422.42066778521985,None,soot,422.42066778521985,None,return,3.9926125151105225,422.50402113515884,None,,,,,,,,,,,,,,,,,,,,,,,,,,,,,,,,,,,,,,,161,001,2024_Feb_06_1731,SpeechDraft1Carolyn_lessNoise_PlusLocalization,2021.2.3,60.20176567250176,
eight.wav,eight.mpg,eight,2,AV,Pink_Noise_2_1.wav,Pink_Noise_2_2.wav,,,,,,,,,,,,,,,0,48,48,77,,,,,,,,,,,,,,,,,,,,,,,426.52065429417416,None,428.02051129192114,None,429.40407889708877,None,"ate
",429.40407889708877,None,return,1.5850983848795295,429.48755699116737,None,,,,,,,,,,,,,,,,,,,,,,,,,,,,,,,,,,,,,,,161,001,2024_Feb_06_1731,SpeechDraft1Carolyn_lessNoise_PlusLocalization,2021.2.3,60.20176567250176,
bible.wav,bible.mpg,bible,2,A,Pink_Noise_2_1.wav,Pink_Noise_2_2.wav,,,,,,,,,,,,,,,0,49,49,3,,,,,,,,,,,,,,,,,,,,,,,431.1040511713363,None,432.6037501231767,None,433.9873269023374,None,bible,433.9873269023374,None,return,0.9457361986860633,434.0709116770886,None,,,,,,,,,,,,,,,,,,,,,,,,,,,,,,,,,,,,,,,161,001,2024_Feb_06_1731,SpeechDraft1Carolyn_lessNoise_PlusLocalization,2021.2.3,60.20176567250176,
bake.wav,bake.mpg,bake,1,AV,Pink_Noise_1_1.wav,Pink_Noise_1_2.wav,,,,,,,,,,,,,,,0,50,50,65,,,,,,,,,,,,,,,,,,,,,,,435.0373901370913,None,436.53731338726357,None,437.92080846615136,None,bake,437.92080846615136,None,return,1.0766267850995064,438.00407496793196,None,,,,,,,,,,,,,,,,,,,,,,,,,,,,,,,,,,,,,,,161,001,2024_Feb_06_1731,SpeechDraft1Carolyn_lessNoise_PlusLocalization,2021.2.3,60.20176567250176,
crypt.wav,crypt.mpg,crypt,5,A,Pink_Noise_5_1.wav,Pink_Noise_5_2.wav,,,,,,,,,,,,,,,0,51,51,44,,,,,,,,,,,,,,,,,,,,,,,439.10400521196425,None,440.60374086210504,None,441.98743937630206,None,clay,441.98743937630206,None,return,2.7939374819397926,442.07069545425475,None,,,,,,,,,,,,,,,,,,,,,,,,,,,,,,,,,,,,,,,161,001,2024_Feb_06_1731,SpeechDraft1Carolyn_lessNoise_PlusLocalization,2021.2.3,60.20176567250176,
bail.wav,bail.mpg,bail,3,AV,Pink_Noise_3_1.wav,Pink_Noise_3_2.wav,,,,,,,,,,,,,,,0,52,52,104,,,,,,,,,,,,,,,,,,,,,,,444.88732156017795,None,446.3871917743236,None,447.77071985788643,None,bail,447.77071985788643,None,return,0.9386274246498942,447.8541441131383,None,,,,,,,,,,,,,,,,,,,,,,,,,,,,,,,,,,,,,,,161,001,2024_Feb_06_1731,SpeechDraft1Carolyn_lessNoise_PlusLocalization,2021.2.3,60.20176567250176,
gulp.wav,gulp.mpg,gulp,2,AV,Pink_Noise_2_1.wav,Pink_Noise_2_2.wav,,,,,,,,,,,,,,,0,53,53,85,,,,,,,,,,,,,,,,,,,,,,,448.82087255222723,None,450.32031937595457,None,451.7040283982642,None,"gulp
",451.7040283982642,None,return,1.2690138099715114,451.78763217432424,None,,,,,,,,,,,,,,,,,,,,,,,,,,,,,,,,,,,,,,,161,001,2024_Feb_06_1731,SpeechDraft1Carolyn_lessNoise_PlusLocalization,2021.2.3,60.20176567250176,
curb.wav,curb.mpg,curb,4,AV,Pink_Noise_4_1.wav,Pink_Noise_4_2.wav,,,,,,,,,,,,,,,0,54,54,115,,,,,,,,,,,,,,,,,,,,,,,453.08759555593133,None,454.5874487031251,None,455.9709190102294,None,curb,455.9709190102294,None,return,0.8665982997044921,456.05412046518177,None,,,,,,,,,,,,,,,,,,,,,,,,,,,,,,,,,,,,,,,161,001,2024_Feb_06_1731,SpeechDraft1Carolyn_lessNoise_PlusLocalization,2021.2.3,60.20176567250176,
jeep.wav,jeep.mpg,jeep,6,AV,Pink_Noise_6_1.wav,Pink_Noise_6_2.wav,,,,,,,,,,,,,,,0,55,55,101,,,,,,,,,,,,,,,,,,,,,,,456.9373926650733,None,458.4374740701169,None,459.8207056443207,None,"shape
",459.8207056443207,None,return,0.9365998799912632,459.9040587102063,None,,,,,,,,,,,,,,,,,,,,,,,,,,,,,,,,,,,,,,,161,001,2024_Feb_06_1731,SpeechDraft1Carolyn_lessNoise_PlusLocalization,2021.2.3,60.20176567250176,
dread.wav,dread.mpg,dread,1,A,Pink_Noise_1_1.wav,Pink_Noise_1_2.wav,,,,,,,,,,,,,,,0,56,56,15,,,,,,,,,,,,,,,,,,,,,,,460.8707462619059,None,462.37080722721294,None,463.75413344427943,None,dread,463.75413344427943,None,return,0.891119051259011,463.8375073908828,None,,,,,,,,,,,,,,,,,,,,,,,,,,,,,,,,,,,,,,,161,001,2024_Feb_06_1731,SpeechDraft1Carolyn_lessNoise_PlusLocalization,2021.2.3,60.20176567250176,
glow.wav,glow.mpg,glow,2,A,Pink_Noise_2_1.wav,Pink_Noise_2_2.wav,,,,,,,,,,,,,,,0,57,57,26,,,,,,,,,,,,,,,,,,,,,,,464.75404692208394,None,466.2538515808992,None,467.6374662229791,None,globe,467.6374662229791,None,return,1.0400114371441305,467.7207138640806,None,,,,,,,,,,,,,,,,,,,,,,,,,,,,,,,,,,,,,,,161,001,2024_Feb_06_1731,SpeechDraft1Carolyn_lessNoise_PlusLocalization,2021.2.3,60.20176567250176,
bet.wav,bet.mpg,bet,6,AV,Pink_Noise_6_1.wav,Pink_Noise_6_2.wav,,,,,,,,,,,,,,,0,58,58,61,,,,,,,,,,,,,,,,,,,,,,,468.7874141819775,None,470.2872164910659,None,471.6707646739669,None,"max
",471.6707646739669,None,return,2.1186006581410766,471.75404817890376,None,,,,,,,,,,,,,,,,,,,,,,,,,,,,,,,,,,,,,,,161,001,2024_Feb_06_1731,SpeechDraft1Carolyn_lessNoise_PlusLocalization,2021.2.3,60.20176567250176,
frame.wav,frame.mpg,frame,5,A,Pink_Noise_5_1.wav,Pink_Noise_5_2.wav,,,,,,,,,,,,,,,0,59,59,9,,,,,,,,,,,,,,,,,,,,,,,473.9042896460742,None,475.40587141923606,None,476.80425218725577,None,stain,476.80425218725577,None,return,0.9370437883771956,476.88759945798665,None,,,,,,,,,,,,,,,,,,,,,,,,,,,,,,,,,,,,,,,161,001,2024_Feb_06_1731,SpeechDraft1Carolyn_lessNoise_PlusLocalization,2021.2.3,60.20176567250176,
clam.wav,clam.mpg,clam,5,AV,Pink_Noise_5_1.wav,Pink_Noise_5_2.wav,,,,,,,,,,,,,,,0,60,60,87,,,,,,,,,,,,,,,,,,,,,,,477.85433789528906,None,479.354281200096,None,480.737694025971,None,clam,480.737694025971,None,return,0.8918643998913467,480.82076453696936,None,,,,,,,,,,,,,,,,,,,,,,,,,,,,,,,,,,,,,,,161,001,2024_Feb_06_1731,SpeechDraft1Carolyn_lessNoise_PlusLocalization,2021.2.3,60.20176567250176,
groom.wav,groom.mpg,groom,3,AV,Pink_Noise_3_1.wav,Pink_Noise_3_2.wav,,,,,,,,,,,,,,,0,61,61,116,,,,,,,,,,,,,,,,,,,,,,,481.7377345180139,None,483.23717135889456,None,484.62110836198553,None,groom,484.62110836198553,None,return,0.848652302287519,484.70408273488283,None,,,,,,,,,,,,,,,,,,,,,,,,,,,,,,,,,,,,,,,161,001,2024_Feb_06_1731,SpeechDraft1Carolyn_lessNoise_PlusLocalization,2021.2.3,60.20176567250176,
foil.wav,foil.mpg,foil,6,A,Pink_Noise_6_1.wav,Pink_Noise_6_2.wav,,,,,,,,,,,,,,,0,62,62,39,,,,,,,,,,,,,,,,,,,,,,,485.57077196612954,None,487.07057747105137,None,488.45407954230905,None,soil,488.45407954230905,None,return,0.782927708234638,488.5377273489721,None,,,,,,,,,,,,,,,,,,,,,,,,,,,,,,,,,,,,,,,161,001,2024_Feb_06_1731,SpeechDraft1Carolyn_lessNoise_PlusLocalization,2021.2.3,60.20176567250176,
bean.wav,bean.mpg,bean,3,AV,Pink_Noise_3_1.wav,Pink_Noise_3_2.wav,,,,,,,,,,,,,,,0,63,63,97,,,,,,,,,,,,,,,,,,,,,,,489.33749791793525,None,490.8374916110188,None,492.22114632325247,None,me,492.22114632325247,None,return,4.248667718842626,492.30410492699593,None,,,,,,,,,,,,,,,,,,,,,,,,,,,,,,,,,,,,,,,161,001,2024_Feb_06_1731,SpeechDraft1Carolyn_lessNoise_PlusLocalization,2021.2.3,60.20176567250176,
brand.wav,brand.mpg,brand,5,AV,Pink_Noise_5_1.wav,Pink_Noise_5_2.wav,,,,,,,,,,,,,,,0,64,64,60,,,,,,,,,,,,,,,,,,,,,,,496.5707281772047,None,498.0709976190701,None,499.45401736721396,None,"gray
",499.45401736721396,None,return,1.335153132211417,499.53748585889116,None,,,,,,,,,,,,,,,,,,,,,,,,,,,,,,,,,,,,,,,161,001,2024_Feb_06_1731,SpeechDraft1Carolyn_lessNoise_PlusLocalization,2021.2.3,60.20176567250176,
brick.wav,brick.mpg,brick,4,AV,Pink_Noise_4_1.wav,Pink_Noise_4_2.wav,,,,,,,,,,,,,,,0,65,65,67,,,,,,,,,,,,,,,,,,,,,,,500.90423360513523,None,502.40383897023275,None,503.7879450172186,None,prick,503.7879450172186,None,return,0.9060317450203001,503.8707434120588,None,,,,,,,,,,,,,,,,,,,,,,,,,,,,,,,,,,,,,,,161,001,2024_Feb_06_1731,SpeechDraft1Carolyn_lessNoise_PlusLocalization,2021.2.3,60.20176567250176,
batch.wav,batch.mpg,batch,4,AV,Pink_Noise_4_1.wav,Pink_Noise_4_2.wav,,,,,,,,,,,,,,,0,66,66,64,,,,,,,,,,,,,,,,,,,,,,,504.8041499219835,None,506.3040935168974,None,507.6875699693337,None,bash,507.6875699693337,None,return,0.7657802971079946,507.77095141028985,None,,,,,,,,,,,,,,,,,,,,,,,,,,,,,,,,,,,,,,,161,001,2024_Feb_06_1731,SpeechDraft1Carolyn_lessNoise_PlusLocalization,2021.2.3,60.20176567250176,
dock.wav,dock.mpg,dock,1,A,Pink_Noise_1_1.wav,Pink_Noise_1_2.wav,,,,,,,,,,,,,,,0,67,67,45,,,,,,,,,,,,,,,,,,,,,,,508.5540860109031,None,510.0539588420652,None,511.4374349289574,None,duck,511.4374349289574,None,return,1.2956679468043149,511.5210028020665,None,,,,,,,,,,,,,,,,,,,,,,,,,,,,,,,,,,,,,,,161,001,2024_Feb_06_1731,SpeechDraft1Carolyn_lessNoise_PlusLocalization,2021.2.3,60.20176567250176,
cup.wav,cup.mpg,cup,1,A,Pink_Noise_1_1.wav,Pink_Noise_1_2.wav,,,,,,,,,,,,,,,0,68,68,43,,,,,,,,,,,,,,,,,,,,,,,512.8377565741539,None,514.3373432140797,None,515.7208297289908,None,come,515.7208297289908,None,return,3.692307893652469,515.8043263251893,None,,,,,,,,,,,,,,,,,,,,,,,,,,,,,,,,,,,,,,,161,001,2024_Feb_06_1731,SpeechDraft1Carolyn_lessNoise_PlusLocalization,2021.2.3,60.20176567250176,
boost.wav,boost.mpg,boost,5,AV,Pink_Noise_5_1.wav,Pink_Noise_5_2.wav,,,,,,,,,,,,,,,0,69,69,91,,,,,,,,,,,,,,,,,,,,,,,519.520881047938,None,521.0208731279708,None,522.4042386761867,None,boost,522.4042386761867,None,return,0.8973153112456203,522.4874753211625,None,,,,,,,,,,,,,,,,,,,,,,,,,,,,,,,,,,,,,,,161,001,2024_Feb_06_1731,SpeechDraft1Carolyn_lessNoise_PlusLocalization,2021.2.3,60.20176567250176,
brash.wav,brash.mpg,brash,5,A,Pink_Noise_5_1.wav,Pink_Noise_5_2.wav,,,,,,,,,,,,,,,0,70,70,48,,,,,,,,,,,,,,,,,,,,,,,523.4041331443004,None,524.9038211042061,None,526.2876326851547,None,fresh,526.2876326851547,None,return,0.973877886775881,526.3708381173201,None,,,,,,,,,,,,,,,,,,,,,,,,,,,,,,,,,,,,,,,161,001,2024_Feb_06_1731,SpeechDraft1Carolyn_lessNoise_PlusLocalization,2021.2.3,60.20176567250176,
foam.wav,foam.mpg,foam,6,AV,Pink_Noise_6_1.wav,Pink_Noise_6_2.wav,,,,,,,,,,,,,,,0,71,71,71,,,,,,,,,,,,,,,,,,,,,,,527.3708421941847,None,528.8713237959892,None,530.254249189049,None,gold,530.254249189049,None,return,1.6070638066157699,530.337665013969,None,,,,,,,,,,,,,,,,,,,,,,,,,,,,,,,,,,,,,,,161,001,2024_Feb_06_1731,SpeechDraft1Carolyn_lessNoise_PlusLocalization,2021.2.3,60.20176567250176,
groan.wav,groan.mpg,groan,5,AV,Pink_Noise_5_1.wav,Pink_Noise_5_2.wav,,,,,,,,,,,,,,,0,72,72,110,,,,,,,,,,,,,,,,,,,,,,,531.9708331949078,None,533.4706200640649,None,534.8540839841589,None,"roam
",534.8540839841589,None,return,2.3032245109789073,534.93741167197,None,,,,,,,,,,,,,,,,,,,,,,,,,,,,,,,,,,,,,,,161,001,2024_Feb_06_1731,SpeechDraft1Carolyn_lessNoise_PlusLocalization,2021.2.3,60.20176567250176,
brief.wav,brief.mpg,brief,1,AV,Pink_Noise_1_1.wav,Pink_Noise_1_2.wav,,,,,,,,,,,,,,,0,73,73,107,,,,,,,,,,,,,,,,,,,,,,,537.2709628241137,None,538.7708206409588,None,540.1543103740551,None,brief,540.1543103740551,None,return,0.8748544082045555,540.237771356944,None,,,,,,,,,,,,,,,,,,,,,,,,,,,,,,,,,,,,,,,161,001,2024_Feb_06_1731,SpeechDraft1Carolyn_lessNoise_PlusLocalization,2021.2.3,60.20176567250176,
chomp.wav,chomp.mpg,chomp,2,A,Pink_Noise_2_1.wav,Pink_Noise_2_2.wav,,,,,,,,,,,,,,,0,74,74,47,,,,,,,,,,,,,,,,,,,,,,,541.1377227669582,None,542.6373764229938,None,544.020881190896,None,chum,544.020881190896,None,return,1.176146144978702,544.1044962042943,None,,,,,,,,,,,,,,,,,,,,,,,,,,,,,,,,,,,,,,,161,001,2024_Feb_06_1731,SpeechDraft1Carolyn_lessNoise_PlusLocalization,2021.2.3,60.20176567250176,
brisk.wav,brisk.mpg,brisk,5,A,Pink_Noise_5_1.wav,Pink_Noise_5_2.wav,,,,,,,,,,,,,,,0,75,75,40,,,,,,,,,,,,,,,,,,,,,,,545.3042014511302,None,546.8037651078776,None,548.1874764179811,None,disk,548.1874764179811,None,return,1.2096090260893106,548.2710239239968,None,,,,,,,,,,,,,,,,,,,,,,,,,,,,,,,,,,,,,,,161,001,2024_Feb_06_1731,SpeechDraft1Carolyn_lessNoise_PlusLocalization,2021.2.3,60.20176567250176,
fix.wav,fix.mpg,fix,5,AV,Pink_Noise_5_1.wav,Pink_Noise_5_2.wav,,,,,,,,,,,,,,,0,76,76,102,,,,,,,,,,,,,,,,,,,,,,,549.504189058207,None,551.0039638900198,None,552.3874189401977,None,fix,552.3874189401977,None,return,6.977889476809651,552.4707645662129,None,,,,,,,,,,,,,,,,,,,,,,,,,,,,,,,,,,,,,,,161,001,2024_Feb_06_1731,SpeechDraft1Carolyn_lessNoise_PlusLocalization,2021.2.3,60.20176567250176,
beard.wav,beard.mpg,beard,1,A,Pink_Noise_1_1.wav,Pink_Noise_1_2.wav,,,,,,,,,,,,,,,0,77,77,24,,,,,,,,,,,,,,,,,,,,,,,559.4709418150596,None,560.9712463961914,None,562.3543659001589,None,beard,562.3543659001589,None,return,1.4751983298920095,562.4374339892529,None,,,,,,,,,,,,,,,,,,,,,,,,,,,,,,,,,,,,,,,161,001,2024_Feb_06_1731,SpeechDraft1Carolyn_lessNoise_PlusLocalization,2021.2.3,60.20176567250176,
drip.wav,drip.mpg,drip,2,AV,Pink_Noise_2_1.wav,Pink_Noise_2_2.wav,,,,,,,,,,,,,,,0,78,78,80,,,,,,,,,,,,,,,,,,,,,,,563.9375429130159,None,565.4375760410912,None,566.8207976771519,None,"drip
",566.8207976771519,None,return,0.7363664866425097,566.904278205242,None,,,,,,,,,,,,,,,,,,,,,,,,,,,,,,,,,,,,,,,161,001,2024_Feb_06_1731,SpeechDraft1Carolyn_lessNoise_PlusLocalization,2021.2.3,60.20176567250176,
bow.wav,bow.mpg,bow,3,A,Pink_Noise_3_1.wav,Pink_Noise_3_2.wav,,,,,,,,,,,,,,,0,79,79,5,,,,,,,,,,,,,,,,,,,,,,,567.6708769262768,None,569.1874720002525,None,570.5709122861736,None,bow,570.5709122861736,None,return,0.49834749894216657,570.6543713929132,None,,,,,,,,,,,,,,,,,,,,,,,,,,,,,,,,,,,,,,,161,001,2024_Feb_06_1731,SpeechDraft1Carolyn_lessNoise_PlusLocalization,2021.2.3,60.20176567250176,
coach.wav,coach.mpg,coach,4,AV,Pink_Noise_4_1.wav,Pink_Noise_4_2.wav,,,,,,,,,,,,,,,0,80,80,105,,,,,,,,,,,,,,,,,,,,,,,571.1709796171635,None,572.6707472391427,None,574.0541547532193,None,"coach
",574.0541547532193,None,return,0.7031326447613537,574.1375041701831,None,,,,,,,,,,,,,,,,,,,,,,,,,,,,,,,,,,,,,,,161,001,2024_Feb_06_1731,SpeechDraft1Carolyn_lessNoise_PlusLocalization,2021.2.3,60.20176567250176,
flock.wav,flock.mpg,flock,3,AV,Pink_Noise_3_1.wav,Pink_Noise_3_2.wav,,,,,,,,,,,,,,,0,81,81,119,,,,,,,,,,,,,,,,,,,,,,,574.8709216760471,None,576.3706922722049,None,577.7541322149336,None,fly,577.7541322149336,None,return,1.7791289137676358,577.8375754011795,None,,,,,,,,,,,,,,,,,,,,,,,,,,,,,,,,,,,,,,,161,001,2024_Feb_06_1731,SpeechDraft1Carolyn_lessNoise_PlusLocalization,2021.2.3,60.20176567250176,
code.wav,code.mpg,code,3,A,Pink_Noise_3_1.wav,Pink_Noise_3_2.wav,,,,,,,,,,,,,,,0,82,82,29,,,,,,,,,,,,,,,,,,,,,,,579.6375228399411,None,581.1372708058916,None,582.5208752681501,None,code,582.5208752681501,None,return,1.5243970681913197,582.6043783649802,None,,,,,,,,,,,,,,,,,,,,,,,,,,,,,,,,,,,,,,,161,001,2024_Feb_06_1731,SpeechDraft1Carolyn_lessNoise_PlusLocalization,2021.2.3,60.20176567250176,
thrown.wav,thrown.mpg,thrown,1,AV,Pink_Noise_1_1.wav,Pink_Noise_1_2.wav,,,,,,,,,,,,,,,0,83,83,76,,,,,,,,,,,,,,,,,,,,,,,584.1544256391935,None,585.6552290949039,None,587.0377238341607,None,throne,587.0377238341607,None,return,1.1274977209977806,587.1211481508799,None,,,,,,,,,,,,,,,,,,,,,,,,,,,,,,,,,,,,,,,161,001,2024_Feb_06_1731,SpeechDraft1Carolyn_lessNoise_PlusLocalization,2021.2.3,60.20176567250176,
ham.wav,ham.mpg,ham,3,A,Pink_Noise_3_1.wav,Pink_Noise_3_2.wav,,,,,,,,,,,,,,,0,84,84,6,,,,,,,,,,,,,,,,,,,,,,,588.2709067761898,None,589.7873891680501,None,591.1710261940025,None,hand,591.1710261940025,None,return,0.8583276029676199,591.2543055443093,None,,,,,,,,,,,,,,,,,,,,,,,,,,,,,,,,,,,,,,,161,001,2024_Feb_06_1731,SpeechDraft1Carolyn_lessNoise_PlusLocalization,2021.2.3,60.20176567250176,
eve.wav,eve.mpg,eve,3,A,Pink_Noise_3_1.wav,Pink_Noise_3_2.wav,,,,,,,,,,,,,,,0,85,85,11,,,,,,,,,,,,,,,,,,,,,,,592.1375580159947,None,593.6372387921438,None,595.0209699482657,None,keys,595.0209699482657,None,return,2.9282067348249257,595.1044515878893,None,,,,,,,,,,,,,,,,,,,,,,,,,,,,,,,,,,,,,,,161,001,2024_Feb_06_1731,SpeechDraft1Carolyn_lessNoise_PlusLocalization,2021.2.3,60.20176567250176,
choir.wav,choir.mpg,choir,2,A,Pink_Noise_2_1.wav,Pink_Noise_2_2.wav,,,,,,,,,,,,,,,0,86,86,52,,,,,,,,,,,,,,,,,,,,,,,598.0544113819487,None,599.5707719689235,None,600.9543942091987,None,quair,600.9543942091987,None,return,4.195053588133305,601.0376017289236,None,,,,,,,,,,,,,,,,,,,,,,,,,,,,,,,,,,,,,,,161,001,2024_Feb_06_1731,SpeechDraft1Carolyn_lessNoise_PlusLocalization,2021.2.3,60.20176567250176,
egg.wav,egg.mpg,egg,5,A,Pink_Noise_5_1.wav,Pink_Noise_5_2.wav,,,,,,,,,,,,,,,0,87,87,31,,,,,,,,,,,,,,,,,,,,,,,605.2544981972314,None,606.7708284212276,None,608.1543085733429,None,egg,608.1543085733429,None,return,0.7787251551635563,608.237933923956,None,,,,,,,,,,,,,,,,,,,,,,,,,,,,,,,,,,,,,,,161,001,2024_Feb_06_1731,SpeechDraft1Carolyn_lessNoise_PlusLocalization,2021.2.3,60.20176567250176,
cruel.wav,cruel.mpg,cruel,2,AV,Pink_Noise_2_1.wav,Pink_Noise_2_2.wav,,,,,,,,,,,,,,,0,88,88,81,,,,,,,,,,,,,,,,,,,,,,,609.0377214672044,None,610.5372810070403,None,611.9208726510406,None,"cruel
",611.9208726510406,None,return,1.0522599588148296,612.0043862652965,None,,,,,,,,,,,,,,,,,,,,,,,,,,,,,,,,,,,,,,,161,001,2024_Feb_06_1731,SpeechDraft1Carolyn_lessNoise_PlusLocalization,2021.2.3,60.20176567250176,
creep.wav,creep.mpg,creep,5,AV,Pink_Noise_5_1.wav,Pink_Noise_5_2.wav,,,,,,,,,,,,,,,0,89,89,95,,,,,,,,,,,,,,,,,,,,,,,613.0878439908847,None,614.6042732591741,None,615.9878957532346,None,weep,615.9878957532346,None,return,2.9055078458040953,616.0712103610858,None,,,,,,,,,,,,,,,,,,,,,,,,,,,,,,,,,,,,,,,161,001,2024_Feb_06_1731,SpeechDraft1Carolyn_lessNoise_PlusLocalization,2021.2.3,60.20176567250176,
tense.wav,tense.mpg,tense,4,A,Pink_Noise_4_1.wav,Pink_Noise_4_2.wav,,,,,,,,,,,,,,,0,90,90,1,,,,,,,,,,,,,,,,,,,,,,,619.0045781210065,None,620.5050878589973,None,621.887589215301,None,"tense
",621.887589215301,None,return,0.8695840449072421,621.9710656572133,None,,,,,,,,,,,,,,,,,,,,,,,,,,,,,,,,,,,,,,,161,001,2024_Feb_06_1731,SpeechDraft1Carolyn_lessNoise_PlusLocalization,2021.2.3,60.20176567250176,
flex.wav,flex.mpg,flex,5,A,Pink_Noise_5_1.wav,Pink_Noise_5_2.wav,,,,,,,,,,,,,,,0,91,91,14,,,,,,,,,,,,,,,,,,,,,,,622.8710488649085,None,624.3707303442061,None,625.7544613061473,None,nice,625.7544613061473,None,return,1.2670525461435318,625.8375936918892,None,,,,,,,,,,,,,,,,,,,,,,,,,,,,,,,,,,,,,,,161,001,2024_Feb_06_1731,SpeechDraft1Carolyn_lessNoise_PlusLocalization,2021.2.3,60.20176567250176,
crisp.wav,crisp.mpg,crisp,6,AV,Pink_Noise_6_1.wav,Pink_Noise_6_2.wav,,,,,,,,,,,,,,,0,92,92,100,,,,,,,,,,,,,,,,,,,,,,,627.1211037850007,None,628.637539349962,None,630.0208128001541,None,dream,630.0208128001541,None,return,2.4163348069414496,630.1043753260747,None,,,,,,,,,,,,,,,,,,,,,,,,,,,,,,,,,,,,,,,161,001,2024_Feb_06_1731,SpeechDraft1Carolyn_lessNoise_PlusLocalization,2021.2.3,60.20176567250176,
tomb.wav,tomb.mpg,tomb,6,AV,Pink_Noise_6_1.wav,Pink_Noise_6_2.wav,,,,,,,,,,,,,,,0,93,93,70,,,,,,,,,,,,,,,,,,,,,,,632.537626740057,None,634.0375655372627,None,635.4209632142447,None,doom,635.4209632142447,None,return,1.0961543400771916,635.5045938529074,None,,,,,,,,,,,,,,,,,,,,,,,,,,,,,,,,,,,,,,,161,001,2024_Feb_06_1731,SpeechDraft1Carolyn_lessNoise_PlusLocalization,2021.2.3,60.20176567250176,
grape.wav,grape.mpg,grape,1,AV,Pink_Noise_1_1.wav,Pink_Noise_1_2.wav,,,,,,,,,,,,,,,0,94,94,62,,,,,,,,,,,,,,,,,,,,,,,636.6210074750707,None,638.1206046910957,None,639.5044803572819,None,grape,639.5044803572819,None,return,0.9650569250807166,639.5876771151088,None,,,,,,,,,,,,,,,,,,,,,,,,,,,,,,,,,,,,,,,161,001,2024_Feb_06_1731,SpeechDraft1Carolyn_lessNoise_PlusLocalization,2021.2.3,60.20176567250176,
glass.wav,glass.mpg,glass,2,A,Pink_Noise_2_1.wav,Pink_Noise_2_2.wav,,,,,,,,,,,,,,,0,95,95,2,,,,,,,,,,,,,,,,,,,,,,,640.5710218208842,None,642.0706160739064,None,643.4542610440403,None,"glass
",643.4542610440403,None,return,0.9189818548038602,643.5376710989513,None,,,,,,,,,,,,,,,,,,,,,,,,,,,,,,,,,,,,,,,161,001,2024_Feb_06_1731,SpeechDraft1Carolyn_lessNoise_PlusLocalization,2021.2.3,60.20176567250176,
fast.wav,fast.mpg,fast,6,A,Pink_Noise_6_1.wav,Pink_Noise_6_2.wav,,,,,,,,,,,,,,,0,96,96,18,,,,,,,,,,,,,,,,,,,,,,,644.4875711980276,None,646.0040433323011,None,647.3876507552341,None,"light
",647.3876507552341,None,return,0.8174700369127095,647.4711750382558,None,,,,,,,,,,,,,,,,,,,,,,,,,,,,,,,,,,,,,,,161,001,2024_Feb_06_1731,SpeechDraft1Carolyn_lessNoise_PlusLocalization,2021.2.3,60.20176567250176,
dumb.wav,dumb.mpg,dumb,1,AV,Pink_Noise_1_1.wav,Pink_Noise_1_2.wav,,,,,,,,,,,,,,,0,97,97,78,,,,,,,,,,,,,,,,,,,,,,,648.3211223362014,None,649.8209895971231,None,651.2042212961242,None,"dumb
",651.2042212961242,None,return,0.9848705399781466,651.2877680542879,None,,,,,,,,,,,,,,,,,,,,,,,,,,,,,,,,,,,,,,,161,001,2024_Feb_06_1731,SpeechDraft1Carolyn_lessNoise_PlusLocalization,2021.2.3,60.20176567250176,
cloud.wav,cloud.mpg,cloud,6,AV,Pink_Noise_6_1.wav,Pink_Noise_6_2.wav,,,,,,,,,,,,,,,0,98,98,68,,,,,,,,,,,,,,,,,,,,,,,652.3042487539351,None,653.8041817639023,None,655.1876108068973,None,loud,655.1876108068973,None,return,0.7053626868873835,655.2713895142078,None,,,,,,,,,,,,,,,,,,,,,,,,,,,,,,,,,,,,,,,161,001,2024_Feb_06_1731,SpeechDraft1Carolyn_lessNoise_PlusLocalization,2021.2.3,60.20176567250176,
bond.wav,bond.mpg,bond,3,AV,Pink_Noise_3_1.wav,Pink_Noise_3_2.wav,,,,,,,,,,,,,,,0,99,99,66,,,,,,,,,,,,,,,,,,,,,,,656.0046963309869,None,657.5209190389141,None,658.9042692082003,None,bind,658.9042692082003,None,return,0.9728942457586527,658.9878937760368,None,,,,,,,,,,,,,,,,,,,,,,,,,,,,,,,,,,,,,,,161,001,2024_Feb_06_1731,SpeechDraft1Carolyn_lessNoise_PlusLocalization,2021.2.3,60.20176567250176,
game.wav,game.mpg,game,1,AV,Pink_Noise_1_1.wav,Pink_Noise_1_2.wav,,,,,,,,,,,,,,,0,100,100,79,,,,,,,,,,,,,,,,,,,,,,,659.9879209310748,None,661.4874024828896,None,662.8713286193088,None,game,662.8713286193088,None,return,0.7662014421075583,662.95455385698,None,,,,,,,,,,,,,,,,,,,,,,,,,,,,,,,,,,,,,,,161,001,2024_Feb_06_1731,SpeechDraft1Carolyn_lessNoise_PlusLocalization,2021.2.3,60.20176567250176,
bat.wav,bat.mpg,bat,3,A,Pink_Noise_3_1.wav,Pink_Noise_3_2.wav,,,,,,,,,,,,,,,0,101,101,19,,,,,,,,,,,,,,,,,,,,,,,663.7376969750039,None,665.2541205780581,None,666.6377018759958,None,bat,666.6377018759958,None,return,0.447667493019253,666.7209825781174,None,,,,,,,,,,,,,,,,,,,,,,,,,,,,,,,,,,,,,,,161,001,2024_Feb_06_1731,SpeechDraft1Carolyn_lessNoise_PlusLocalization,2021.2.3,60.20176567250176,
dream.wav,dream.mpg,dream,1,AV,Pink_Noise_1_1.wav,Pink_Noise_1_2.wav,,,,,,,,,,,,,,,0,102,102,75,,,,,,,,,,,,,,,,,,,,,,,667.1877182652242,None,668.6873234431259,None,670.0715581979603,None,dream,670.0715581979603,None,return,0.99039236176759,670.1543283890933,None,,,,,,,,,,,,,,,,,,,,,,,,,,,,,,,,,,,,,,,161,001,2024_Feb_06_1731,SpeechDraft1Carolyn_lessNoise_PlusLocalization,2021.2.3,60.20176567250176,
bloat.wav,bloat.mpg,bloat,4,A,Pink_Noise_4_1.wav,Pink_Noise_4_2.wav,,,,,,,,,,,,,,,0,103,103,36,,,,,,,,,,,,,,,,,,,,,,,671.1710455180146,None,672.687495386228,None,674.0710021620616,None,float,674.0710021620616,None,return,1.3502387809567153,674.1544044893235,None,,,,,,,,,,,,,,,,,,,,,,,,,,,,,,,,,,,,,,,161,001,2024_Feb_06_1731,SpeechDraft1Carolyn_lessNoise_PlusLocalization,2021.2.3,60.20176567250176,
ditch.wav,ditch.mpg,ditch,6,AV,Pink_Noise_6_1.wav,Pink_Noise_6_2.wav,,,,,,,,,,,,,,,0,104,104,84,,,,,,,,,,,,,,,,,,,,,,,675.5210691662505,None,677.0377046628855,None,678.4209888321348,None,ditch,678.4209888321348,None,return,1.4802431631833315,678.504497251939,None,,,,,,,,,,,,,,,,,,,,,,,,,,,,,,,,,,,,,,,161,001,2024_Feb_06_1731,SpeechDraft1Carolyn_lessNoise_PlusLocalization,2021.2.3,60.20176567250176,
druid.wav,druid.mpg,druid,5,A,Pink_Noise_5_1.wav,Pink_Noise_5_2.wav,,,,,,,,,,,,,,,0,105,105,17,,,,,,,,,,,,,,,,,,,,,,,680.0045568789355,None,681.5051066773012,None,682.8877289430238,None,duel,682.8877289430238,None,return,3.5736786453053355,682.9710501399823,None,,,,,,,,,,,,,,,,,,,,,,,,,,,,,,,,,,,,,,,161,001,2024_Feb_06_1731,SpeechDraft1Carolyn_lessNoise_PlusLocalization,2021.2.3,60.20176567250176,
fur.wav,fur.mpg,fur,2,A,Pink_Noise_2_1.wav,Pink_Noise_2_2.wav,,,,,,,,,,,,,,,0,106,106,23,,,,,,,,,,,,,,,,,,,,,,,686.5710626519285,None,688.0875487369485,None,689.471121198032,None,fur,689.471121198032,None,return,1.5262970519252121,689.5543804802,None,,,,,,,,,,,,,,,,,,,,,,,,,,,,,,,,,,,,,,,161,001,2024_Feb_06_1731,SpeechDraft1Carolyn_lessNoise_PlusLocalization,2021.2.3,60.20176567250176,
fad.wav,fad.mpg,fad,5,AV,Pink_Noise_5_1.wav,Pink_Noise_5_2.wav,,,,,,,,,,,,,,,0,107,107,108,,,,,,,,,,,,,,,,,,,,,,,691.1045744321309,None,692.6207412779331,None,694.004681579303,None,void,694.004681579303,None,return,3.392708827741444,694.087928510271,None,,,,,,,,,,,,,,,,,,,,,,,,,,,,,,,,,,,,,,,161,001,2024_Feb_06_1731,SpeechDraft1Carolyn_lessNoise_PlusLocalization,2021.2.3,60.20176567250176,
flat.wav,flat.mpg,flat,5,A,Pink_Noise_5_1.wav,Pink_Noise_5_2.wav,,,,,,,,,,,,,,,0,108,108,50,,,,,,,,,,,,,,,,,,,,,,,697.5044027040713,None,699.0207850770094,None,700.4044728791341,None,"flat
",700.4044728791341,None,return,1.0006771278567612,700.4879717580043,None,,,,,,,,,,,,,,,,,,,,,,,,,,,,,,,,,,,,,,,161,001,2024_Feb_06_1731,SpeechDraft1Carolyn_lessNoise_PlusLocalization,2021.2.3,60.20176567250176,
fat.wav,fat.mpg,fat,3,AV,Pink_Noise_3_1.wav,Pink_Noise_3_2.wav,,,,,,,,,,,,,,,0,109,109,88,,,,,,,,,,,,,,,,,,,,,,,701.5214769053273,None,703.0222873161547,None,704.4042965113185,None,fat,704.4042965113185,None,return,0.9288700562901795,704.4877727101557,None,,,,,,,,,,,,,,,,,,,,,,,,,,,,,,,,,,,,,,,161,001,2024_Feb_06_1731,SpeechDraft1Carolyn_lessNoise_PlusLocalization,2021.2.3,60.20176567250176,
depth.wav,depth.mpg,depth,1,A,Pink_Noise_1_1.wav,Pink_Noise_1_2.wav,,,,,,,,,,,,,,,0,110,110,38,,,,,,,,,,,,,,,,,,,,,,,705.4378268541768,None,706.9542700932361,None,708.3380109323189,None,depth,708.3380109323189,None,return,0.7556876679882407,708.4210411901586,None,,,,,,,,,,,,,,,,,,,,,,,,,,,,,,,,,,,,,,,161,001,2024_Feb_06_1731,SpeechDraft1Carolyn_lessNoise_PlusLocalization,2021.2.3,60.20176567250176,
flank.wav,flank.mpg,flank,1,AV,Pink_Noise_1_1.wav,Pink_Noise_1_2.wav,,,,,,,,,,,,,,,0,111,111,72,,,,,,,,,,,,,,,,,,,,,,,709.2045090720057,None,710.7209468199871,None,712.1046612299979,None,flank,712.1046612299979,None,return,0.8049639239907265,712.1877527912147,None,,,,,,,,,,,,,,,,,,,,,,,,,,,,,,,,,,,,,,,161,001,2024_Feb_06_1731,SpeechDraft1Carolyn_lessNoise_PlusLocalization,2021.2.3,60.20176567250176,
bloom.wav,bloom.mpg,bloom,4,AV,Pink_Noise_4_1.wav,Pink_Noise_4_2.wav,,,,,,,,,,,,,,,0,112,112,114,,,,,,,,,,,,,,,,,,,,,,,713.0211628172547,None,714.5376843148842,None,715.9211187083274,None,moon,715.9211187083274,None,return,1.1560287801548839,716.0046902750619,None,,,,,,,,,,,,,,,,,,,,,,,,,,,,,,,,,,,,,,,161,001,2024_Feb_06_1731,SpeechDraft1Carolyn_lessNoise_PlusLocalization,2021.2.3,60.20176567250176,
fake.wav,fake.mpg,fake,2,AV,Pink_Noise_2_1.wav,Pink_Noise_2_2.wav,,,,,,,,,,,,,,,0,113,113,89,,,,,,,,,,,,,,,,,,,,,,,717.1877380660735,None,718.7040907042101,None,720.0877824421041,None,fake,720.0877824421041,None,return,0.6374845220707357,720.1712370403111,None,,,,,,,,,,,,,,,,,,,,,,,,,,,,,,,,,,,,,,,161,001,2024_Feb_06_1731,SpeechDraft1Carolyn_lessNoise_PlusLocalization,2021.2.3,60.20176567250176,
clown.wav,clown.mpg,clown,6,AV,Pink_Noise_6_1.wav,Pink_Noise_6_2.wav,,,,,,,,,,,,,,,0,114,114,90,,,,,,,,,,,,,,,,,,,,,,,720.8379351720214,None,722.3544178321026,None,723.7377077201381,None,low,723.7377077201381,None,return,0.9556971839629114,723.8211405351758,None,,,,,,,,,,,,,,,,,,,,,,,,,,,,,,,,,,,,,,,161,001,2024_Feb_06_1731,SpeechDraft1Carolyn_lessNoise_PlusLocalization,2021.2.3,60.20176567250176,
coat.wav,coat.mpg,coat,4,A,Pink_Noise_4_1.wav,Pink_Noise_4_2.wav,,,,,,,,,,,,,,,0,115,115,58,,,,,,,,,,,,,,,,,,,,,,,724.804442781955,None,726.3208056441508,None,727.7047103019431,None,coat,727.7047103019431,None,return,0.7489266181364655,727.787792513147,None,,,,,,,,,,,,,,,,,,,,,,,,,,,,,,,,,,,,,,,161,001,2024_Feb_06_1731,SpeechDraft1Carolyn_lessNoise_PlusLocalization,2021.2.3,60.20176567250176,
chase.wav,chase.mpg,chase,2,A,Pink_Noise_2_1.wav,Pink_Noise_2_2.wav,,,,,,,,,,,,,,,0,116,116,8,,,,,,,,,,,,,,,,,,,,,,,728.554394455161,None,730.0708514559083,None,731.4545234469697,None,"chase
",731.4545234469697,None,return,0.6868555629625916,731.5378027693368,None,,,,,,,,,,,,,,,,,,,,,,,,,,,,,,,,,,,,,,,161,001,2024_Feb_06_1731,SpeechDraft1Carolyn_lessNoise_PlusLocalization,2021.2.3,60.20176567250176,
fame.wav,fame.mpg,fame,4,A,Pink_Noise_4_1.wav,Pink_Noise_4_2.wav,,,,,,,,,,,,,,,0,117,117,21,,,,,,,,,,,,,,,,,,,,,,,732.2543694321066,None,733.7711771852337,None,735.1545826392248,None,fame,735.1545826392248,None,return,0.5549370222724974,735.2377576720901,None,,,,,,,,,,,,,,,,,,,,,,,,,,,,,,,,,,,,,,,161,001,2024_Feb_06_1731,SpeechDraft1Carolyn_lessNoise_PlusLocalization,2021.2.3,60.20176567250176,
strike.wav,strike.mpg,strike,6,A,Pink_Noise_6_1.wav,Pink_Noise_6_2.wav,,,,,,,,,,,,,,,0,118,118,49,,,,,,,,,,,,,,,,,,,,,,,735.8212190340273,None,737.3376025501639,None,738.7211244092323,None,"straight
",738.7211244092323,None,return,2.2522199852392077,738.8044097120874,None,,,,,,,,,,,,,,,,,,,,,,,,,,,,,,,,,,,,,,,161,001,2024_Feb_06_1731,SpeechDraft1Carolyn_lessNoise_PlusLocalization,2021.2.3,60.20176567250176,
cube.wav,cube.mpg,cube,2,AV,Pink_Noise_2_1.wav,Pink_Noise_2_2.wav,,,,,,,,,,,,,,,0,119,119,96,,,,,,,,,,,,,,,,,,,,,,,741.087842548266,None,742.6044459142722,None,743.9879014492035,None,cube,743.9879014492035,None,return,1.0817586807534099,744.0710676088929,None,,,,,,,,,,,,,,,,,,,,,,,,,,,,,,,,,,,,,,,161,001,2024_Feb_06_1731,SpeechDraft1Carolyn_lessNoise_PlusLocalization,2021.2.3,60.20176567250176,
,,,,,,,,,,,,,,,,,,,,,,,,,,,,,,,,,,,,,,,,,,,,,,,,,,,,,,,,,,,,,,,,,,space,19.305892506148666,745.254743412137,None,,,,,,,,,,,,,,,,,,,,,,,,,,,,,161,001,2024_Feb_06_1731,SpeechDraft1Carolyn_lessNoise_PlusLocalization,2021.2.3,60.20176567250176,
,,,,,,,,farRight,19.1,4,ch1Sound_localizationTask.wav,19.1,"(1237, 878)","(277,-202)",285,-338,,,,,,,,,0,0,0,6,,,,,,,,,,,,,,,,,,,,,,,,,,,,,,,,,,,,,,,,,,745.254743412137,None,764.6044287621044,None,765.7212287532166,None,766.6379867820069,None,1.295767195767196,2.035120811779052,766.6379867820069,None,,,,,,,,,,,,,,,,,161,001,2024_Feb_06_1731,SpeechDraft1Carolyn_lessNoise_PlusLocalization,2021.2.3,60.20176567250176,
,,,,,,,,midRight,13.0,3,ch1Sound_localizationTask.wav,13.0,"(1142, 878)","(182, -202)",190,-338,,,,,,,,,0,1,1,5,,,,,,,,,,,,,,,,,,,,,,,,,,,,,,,,,,,,,,,,,,,,768.6710532619618,None,769.7707920842804,None,770.7044294602238,None,1.6915343915343914,1.81826187716797,770.7044294602238,None,,,,,,,,,,,,,,,,,161,001,2024_Feb_06_1731,SpeechDraft1Carolyn_lessNoise_PlusLocalization,2021.2.3,60.20176567250176,
,,,,,,,,midLeft,-13.0,2,ch1Sound_localizationTask.wav,-13.0,"(762, 878)","(-198,-202)",-190,-338,,,,,,,,,0,2,2,1,,,,,,,,,,,,,,,,,,,,,,,,,,,,,,,,,,,,,,,,,,,,772.5377720482647,None,773.6375636011362,None,774.5713146799244,None,1.416931216931217,1.14977659098804,774.5713146799244,None,,,,,,,,,,,,,,,,,161,001,2024_Feb_06_1731,SpeechDraft1Carolyn_lessNoise_PlusLocalization,2021.2.3,60.20176567250176,
,,,,,,,,farRight,19.1,4,ch1Sound_localizationTask.wav,19.1,"(1237, 878)","(277,-202)",285,-338,,,,,,,,,0,3,3,6,,,,,,,,,,,,,,,,,,,,,,,,,,,,,,,,,,,,,,,,,,,,775.7211772808805,None,776.8209592769854,None,777.7544463369995,None,1.7201058201058201,0.9156598541885614,777.7544463369995,None,,,,,,,,,,,,,,,,,161,001,2024_Feb_06_1731,SpeechDraft1Carolyn_lessNoise_PlusLocalization,2021.2.3,60.20176567250176,
,,,,,,,,midLeft,-13.0,2,ch1Sound_localizationTask.wav,-13.0,"(762, 878)","(-198,-202)",-190,-338,,,,,,,,,0,4,4,1,,,,,,,,,,,,,,,,,,,,,,,,,,,,,,,,,,,,,,,,,,,,778.6711902138777,None,779.7708308589645,None,780.7041660081595,None,1.4603174603174602,0.6832455722615123,780.7041660081595,None,,,,,,,,,,,,,,,,,161,001,2024_Feb_06_1731,SpeechDraft1Carolyn_lessNoise_PlusLocalization,2021.2.3,60.20176567250176,
,,,,,,,,nearRight,6.5,0,ch1Sound_localizationTask.wav,6.5,"(1047, 878)","(87, -202)",95,-338,,,,,,,,,0,5,5,4,,,,,,,,,,,,,,,,,,,,,,,,,,,,,,,,,,,,,,,,,,,,781.3878335990012,None,782.4875527429394,None,783.421153025236,None,1.5507936507936508,0.8990469542331994,783.421153025236,None,,,,,,,,,,,,,,,,,161,001,2024_Feb_06_1731,SpeechDraft1Carolyn_lessNoise_PlusLocalization,2021.2.3,60.20176567250176,
,,,,,,,,center,0.0,6,ch1Sound_localizationTask.wav,0.0,"(952, 878)","(-8,-202)",0,-338,,,,,,,,,0,6,6,3,,,,,,,,,,,,,,,,,,,,,,,,,,,,,,,,,,,,,,,,,,,,784.3215149003081,None,785.4210163960233,None,786.3544627763331,None,1.4952380952380953,1.1656056568026543,786.3544627763331,None,,,,,,,,,,,,,,,,,161,001,2024_Feb_06_1731,SpeechDraft1Carolyn_lessNoise_PlusLocalization,2021.2.3,60.20176567250176,
,,,,,,,,center,0.0,6,ch1Sound_localizationTask.wav,0.0,"(952, 878)","(-8,-202)",0,-338,,,,,,,,,1,0,7,3,,,,,,,,,,,,,,,,,,,,,,,,,,,,,,,,,,,,,,,,,,,,787.5211964170448,None,788.621039037127,None,789.5543610863388,None,1.51005291005291,0.7163390638306737,789.5543610863388,None,,,,,,,,,,,,,,,,,161,001,2024_Feb_06_1731,SpeechDraft1Carolyn_lessNoise_PlusLocalization,2021.2.3,60.20176567250176,
,,,,,,,,farLeft,-19.1,5,ch1Sound_localizationTask.wav,-19.1,"(667, 878)","(-293,-202)",-285,-338,,,,,,,,,1,1,8,0,,,,,,,,,,,,,,,,,,,,,,,,,,,,,,,,,,,,,,,,,,,,790.2711578588933,None,791.371063014958,None,792.3041733270511,None,1.3947089947089948,0.6997595620341599,792.3041733270511,None,,,,,,,,,,,,,,,,,161,001,2024_Feb_06_1731,SpeechDraft1Carolyn_lessNoise_PlusLocalization,2021.2.3,60.20176567250176,
,,,,,,,,center,0.0,6,ch1Sound_localizationTask.wav,0.0,"(952, 878)","(-8,-202)",0,-338,,,,,,,,,1,2,9,3,,,,,,,,,,,,,,,,,,,,,,,,,,,,,,,,,,,,,,,,,,,,793.0044663669541,None,794.1044523753226,None,795.0378945372067,None,1.5126984126984127,0.6794667840003967,795.0378945372067,None,,,,,,,,,,,,,,,,,161,001,2024_Feb_06_1731,SpeechDraft1Carolyn_lessNoise_PlusLocalization,2021.2.3,60.20176567250176,
,,,,,,,,farLeft,-19.1,5,ch1Sound_localizationTask.wav,-19.1,"(667, 878)","(-293,-202)",-285,-338,,,,,,,,,1,3,10,0,,,,,,,,,,,,,,,,,,,,,,,,,,,,,,,,,,,,,,,,,,,,795.7213508090936,None,796.8210280039348,None,797.7544874781743,None,1.3291005291005291,1.0165578979067504,797.7544874781743,None,,,,,,,,,,,,,,,,,161,001,2024_Feb_06_1731,SpeechDraft1Carolyn_lessNoise_PlusLocalization,2021.2.3,60.20176567250176,
,,,,,,,,nearLeft,-6.5,1,ch1Sound_localizationTask.wav,-6.5,"(857, 878)","(-103,-202)",-95,-338,,,,,,,,,1,4,11,2,,,,,,,,,,,,,,,,,,,,,,,,,,,,,,,,,,,,,,,,,,,,798.7713620159775,None,799.8710025572218,None,800.8042535502464,None,1.4264550264550264,0.6160095226950943,800.8042535502464,None,,,,,,,,,,,,,,,,,161,001,2024_Feb_06_1731,SpeechDraft1Carolyn_lessNoise_PlusLocalization,2021.2.3,60.20176567250176,
,,,,,,,,nearRight,6.5,0,ch1Sound_localizationTask.wav,6.5,"(1047, 878)","(87, -202)",95,-338,,,,,,,,,1,5,12,4,,,,,,,,,,,,,,,,,,,,,,,,,,,,,,,,,,,,,,,,,,,,801.4212666871026,None,802.52106822934,None,803.4545187880285,None,1.5587301587301587,0.5988280097953975,803.4545187880285,None,,,,,,,,,,,,,,,,,161,001,2024_Feb_06_1731,SpeechDraft1Carolyn_lessNoise_PlusLocalization,2021.2.3,60.20176567250176,
,,,,,,,,farLeft,-19.1,5,ch1Sound_localizationTask.wav,-19.1,"(667, 878)","(-293,-202)",-285,-338,,,,,,,,,1,6,13,0,,,,,,,,,,,,,,,,,,,,,,,,,,,,,,,,,,,,,,,,,,,,804.0548244570382,None,805.1547556403093,None,806.0875163869932,None,1.3783068783068784,0.682085603941232,806.0875163869932,None,,,,,,,,,,,,,,,,,161,001,2024_Feb_06_1731,SpeechDraft1Carolyn_lessNoise_PlusLocalization,2021.2.3,60.20176567250176,
,,,,,,,,farRight,19.1,4,ch1Sound_localizationTask.wav,19.1,"(1237, 878)","(277,-202)",285,-338,,,,,,,,,2,0,14,6,,,,,,,,,,,,,,,,,,,,,,,,,,,,,,,,,,,,,,,,,,,,806.7714824168943,None,807.8708825563081,None,808.8044940372929,None,1.7333333333333334,0.7993979919701815,808.8044940372929,None,,,,,,,,,,,,,,,,,161,001,2024_Feb_06_1731,SpeechDraft1Carolyn_lessNoise_PlusLocalization,2021.2.3,60.20176567250176,
,,,,,,,,midRight,13.0,3,ch1Sound_localizationTask.wav,13.0,"(1142, 878)","(182, -202)",190,-338,,,,,,,,,2,1,15,5,,,,,,,,,,,,,,,,,,,,,,,,,,,,,,,,,,,,,,,,,,,,809.6047188602388,None,810.7044173721224,None,811.6377062723041,None,1.674074074074074,0.6660834462381899,811.6377062723041,None,,,,,,,,,,,,,,,,,161,001,2024_Feb_06_1731,SpeechDraft1Carolyn_lessNoise_PlusLocalization,2021.2.3,60.20176567250176,
,,,,,,,,midRight,13.0,3,ch1Sound_localizationTask.wav,13.0,"(1142, 878)","(182, -202)",190,-338,,,,,,,,,2,2,16,5,,,,,,,,,,,,,,,,,,,,,,,,,,,,,,,,,,,,,,,,,,,,812.3047540872358,None,813.4043217650615,None,814.3376126801595,None,1.6597883597883598,0.8988187690265477,814.3376126801595,None,,,,,,,,,,,,,,,,,161,001,2024_Feb_06_1731,SpeechDraft1Carolyn_lessNoise_PlusLocalization,2021.2.3,60.20176567250176,
,,,,,,,,nearRight,6.5,0,ch1Sound_localizationTask.wav,6.5,"(1047, 878)","(87, -202)",95,-338,,,,,,,,,2,3,17,4,,,,,,,,,,,,,,,,,,,,,,,,,,,,,,,,,,,,,,,,,,,,815.2378584858961,None,816.3378358660266,None,817.2709730239585,None,1.5936507936507938,0.6151477568782866,817.2709730239585,None,,,,,,,,,,,,,,,,,161,001,2024_Feb_06_1731,SpeechDraft1Carolyn_lessNoise_PlusLocalization,2021.2.3,60.20176567250176,
,,,,,,,,nearRight,6.5,0,ch1Sound_localizationTask.wav,6.5,"(1047, 878)","(87, -202)",95,-338,,,,,,,,,2,4,18,4,,,,,,,,,,,,,,,,,,,,,,,,,,,,,,,,,,,,,,,,,,,,817.8881257162429,None,818.9875706853345,None,819.9210688099265,None,1.5523809523809524,0.5492139691486955,819.9210688099265,None,,,,,,,,,,,,,,,,,161,001,2024_Feb_06_1731,SpeechDraft1Carolyn_lessNoise_PlusLocalization,2021.2.3,60.20176567250176,
,,,,,,,,farLeft,-19.1,5,ch1Sound_localizationTask.wav,-19.1,"(667, 878)","(-293,-202)",-285,-338,,,,,,,,,2,5,19,0,,,,,,,,,,,,,,,,,,,,,,,,,,,,,,,,,,,,,,,,,,,,820.4711792040616,None,821.5709011452273,None,822.5046182102524,None,1.3947089947089948,0.8163454332388937,822.5046182102524,None,,,,,,,,,,,,,,,,,161,001,2024_Feb_06_1731,SpeechDraft1Carolyn_lessNoise_PlusLocalization,2021.2.3,60.20176567250176,
,,,,,,,,midRight,13.0,3,ch1Sound_localizationTask.wav,13.0,"(1142, 878)","(182, -202)",190,-338,,,,,,,,,2,6,20,5,,,,,,,,,,,,,,,,,,,,,,,,,,,,,,,,,,,,,,,,,,,,823.3213129932992,None,824.4209738299251,None,825.3545330823399,None,1.6476190476190475,0.7996798949316144,825.3545330823399,None,,,,,,,,,,,,,,,,,161,001,2024_Feb_06_1731,SpeechDraft1Carolyn_lessNoise_PlusLocalization,2021.2.3,60.20176567250176,
,,,,,,,,nearLeft,-6.5,1,ch1Sound_localizationTask.wav,-6.5,"(857, 878)","(-103,-202)",-95,-338,,,,,,,,,3,0,21,2,,,,,,,,,,,,,,,,,,,,,,,,,,,,,,,,,,,,,,,,,,,,826.1545746731572,None,827.2544488459826,None,828.1878350442275,None,1.4714285714285715,1.232692644931376,828.1878350442275,None,,,,,,,,,,,,,,,,,161,001,2024_Feb_06_1731,SpeechDraft1Carolyn_lessNoise_PlusLocalization,2021.2.3,60.20176567250176,
,,,,,,,,farRight,19.1,4,ch1Sound_localizationTask.wav,19.1,"(1237, 878)","(277,-202)",285,-338,,,,,,,,,3,1,22,6,,,,,,,,,,,,,,,,,,,,,,,,,,,,,,,,,,,,,,,,,,,,829.4212241210043,None,830.5210312539712,None,831.4544656192884,None,1.6481481481481481,0.8481089980341494,831.4544656192884,None,,,,,,,,,,,,,,,,,161,001,2024_Feb_06_1731,SpeechDraft1Carolyn_lessNoise_PlusLocalization,2021.2.3,60.20176567250176,
,,,,,,,,farLeft,-19.1,5,ch1Sound_localizationTask.wav,-19.1,"(667, 878)","(-293,-202)",-285,-338,,,,,,,,,3,2,23,0,,,,,,,,,,,,,,,,,,,,,,,,,,,,,,,,,,,,,,,,,,,,832.3045852482319,None,833.4046709700488,None,834.3377772648819,None,1.3111111111111111,0.7322503561154008,834.3377772648819,None,,,,,,,,,,,,,,,,,161,001,2024_Feb_06_1731,SpeechDraft1Carolyn_lessNoise_PlusLocalization,2021.2.3,60.20176567250176,
,,,,,,,,farRight,19.1,4,ch1Sound_localizationTask.wav,19.1,"(1237, 878)","(277,-202)",285,-338,,,,,,,,,3,3,24,6,,,,,,,,,,,,,,,,,,,,,,,,,,,,,,,,,,,,,,,,,,,,835.0714848362841,None,836.1710353889503,None,837.1042718929239,None,1.6555555555555554,0.7154590329155326,837.1042718929239,None,,,,,,,,,,,,,,,,,161,001,2024_Feb_06_1731,SpeechDraft1Carolyn_lessNoise_PlusLocalization,2021.2.3,60.20176567250176,
,,,,,,,,farRight,19.1,4,ch1Sound_localizationTask.wav,19.1,"(1237, 878)","(277,-202)",285,-338,,,,,,,,,3,4,25,6,,,,,,,,,,,,,,,,,,,,,,,,,,,,,,,,,,,,,,,,,,,,837.8212186470628,None,838.9214570829645,None,839.8543033450842,None,1.6264550264550266,0.7812482421286404,839.8543033450842,None,,,,,,,,,,,,,,,,,161,001,2024_Feb_06_1731,SpeechDraft1Carolyn_lessNoise_PlusLocalization,2021.2.3,60.20176567250176,
,,,,,,,,midLeft,-13.0,2,ch1Sound_localizationTask.wav,-13.0,"(762, 878)","(-198,-202)",-190,-338,,,,,,,,,3,5,26,1,,,,,,,,,,,,,,,,,,,,,,,,,,,,,,,,,,,,,,,,,,,,840.6381306070834,None,841.7376948641613,None,842.6713688583113,None,1.4312169312169312,0.8315331148914993,842.6713688583113,None,,,,,,,,,,,,,,,,,161,001,2024_Feb_06_1731,SpeechDraft1Carolyn_lessNoise_PlusLocalization,2021.2.3,60.20176567250176,
,,,,,,,,farLeft,-19.1,5,ch1Sound_localizationTask.wav,-19.1,"(667, 878)","(-293,-202)",-285,-338,,,,,,,,,3,6,27,0,,,,,,,,,,,,,,,,,,,,,,,,,,,,,,,,,,,,,,,,,,,,843.5046694870107,None,844.6044059470296,None,845.5379100199789,None,1.3317460317460317,0.833078611176461,845.5379100199789,None,,,,,,,,,,,,,,,,,161,001,2024_Feb_06_1731,SpeechDraft1Carolyn_lessNoise_PlusLocalization,2021.2.3,60.20176567250176,
,,,,,,,,midLeft,-13.0,2,ch1Sound_localizationTask.wav,-13.0,"(762, 878)","(-198,-202)",-190,-338,,,,,,,,,4,0,28,1,,,,,,,,,,,,,,,,,,,,,,,,,,,,,,,,,,,,,,,,,,,,846.3715452412143,None,847.470931073185,None,848.4045607200824,None,1.3783068783068784,0.6987765999510884,848.4045607200824,None,,,,,,,,,,,,,,,,,161,001,2024_Feb_06_1731,SpeechDraft1Carolyn_lessNoise_PlusLocalization,2021.2.3,60.20176567250176,
,,,,,,,,center,0.0,6,ch1Sound_localizationTask.wav,0.0,"(952, 878)","(-8,-202)",0,-338,,,,,,,,,4,1,29,3,,,,,,,,,,,,,,,,,,,,,,,,,,,,,,,,,,,,,,,,,,,,849.1045350749046,None,850.2043001260608,None,851.1378346402198,None,1.4783068783068782,0.632694854401052,851.1378346402198,None,,,,,,,,,,,,,,,,,161,001,2024_Feb_06_1731,SpeechDraft1Carolyn_lessNoise_PlusLocalization,2021.2.3,60.20176567250176,
,,,,,,,,nearLeft,-6.5,1,ch1Sound_localizationTask.wav,-6.5,"(857, 878)","(-103,-202)",-95,-338,,,,,,,,,4,2,30,2,,,,,,,,,,,,,,,,,,,,,,,,,,,,,,,,,,,,,,,,,,,,851.7711680210195,None,852.8710868069902,None,853.8047682000324,None,1.4058201058201059,0.5488366819918156,853.8047682000324,None,,,,,,,,,,,,,,,,,161,001,2024_Feb_06_1731,SpeechDraft1Carolyn_lessNoise_PlusLocalization,2021.2.3,60.20176567250176,
,,,,,,,,farRight,19.1,4,ch1Sound_localizationTask.wav,19.1,"(1237, 878)","(277,-202)",285,-338,,,,,,,,,4,3,31,6,,,,,,,,,,,,,,,,,,,,,,,,,,,,,,,,,,,,,,,,,,,,854.3546662172303,None,855.4546802393161,None,856.3878842322156,None,1.5767195767195767,0.6492838161066175,856.3878842322156,None,,,,,,,,,,,,,,,,,161,001,2024_Feb_06_1731,SpeechDraft1Carolyn_lessNoise_PlusLocalization,2021.2.3,60.20176567250176,
,,,,,,,,nearLeft,-6.5,1,ch1Sound_localizationTask.wav,-6.5,"(857, 878)","(-103,-202)",-95,-338,,,,,,,,,4,4,32,2,,,,,,,,,,,,,,,,,,,,,,,,,,,,,,,,,,,,,,,,,,,,857.0379262859933,None,858.1376506602392,None,859.0712204091251,None,1.4465608465608466,0.49863136699423194,859.0712204091251,None,,,,,,,,,,,,,,,,,161,001,2024_Feb_06_1731,SpeechDraft1Carolyn_lessNoise_PlusLocalization,2021.2.3,60.20176567250176,
,,,,,,,,midRight,13.0,3,ch1Sound_localizationTask.wav,13.0,"(1142, 878)","(182, -202)",190,-338,,,,,,,,,4,5,33,5,,,,,,,,,,,,,,,,,,,,,,,,,,,,,,,,,,,,,,,,,,,,859.5714526902884,None,860.6712448210455,None,861.6043838621117,None,1.5592592592592593,0.5996424108743668,861.6043838621117,None,,,,,,,,,,,,,,,,,161,001,2024_Feb_06_1731,SpeechDraft1Carolyn_lessNoise_PlusLocalization,2021.2.3,60.20176567250176,
,,,,,,,,midLeft,-13.0,2,ch1Sound_localizationTask.wav,-13.0,"(762, 878)","(-198,-202)",-190,-338,,,,,,,,,4,6,34,1,,,,,,,,,,,,,,,,,,,,,,,,,,,,,,,,,,,,,,,,,,,,862.2047819639556,None,863.3043114962056,None,864.2376559451222,None,1.3941798941798942,0.5993895693682134,864.2376559451222,None,,,,,,,,,,,,,,,,,161,001,2024_Feb_06_1731,SpeechDraft1Carolyn_lessNoise_PlusLocalization,2021.2.3,60.20176567250176,
,,,,,,,,nearLeft,-6.5,1,ch1Sound_localizationTask.wav,-6.5,"(857, 878)","(-103,-202)",-95,-338,,,,,,,,,5,0,35,2,,,,,,,,,,,,,,,,,,,,,,,,,,,,,,,,,,,,,,,,,,,,864.8381634731777,None,865.9377524340525,None,866.8713995330036,None,1.4417989417989419,0.8494586502201855,866.8713995330036,None,,,,,,,,,,,,,,,,,161,001,2024_Feb_06_1731,SpeechDraft1Carolyn_lessNoise_PlusLocalization,2021.2.3,60.20176567250176,
,,,,,,,,nearRight,6.5,0,ch1Sound_localizationTask.wav,6.5,"(1047, 878)","(87, -202)",95,-338,,,,,,,,,5,1,36,4,,,,,,,,,,,,,,,,,,,,,,,,,,,,,,,,,,,,,,,,,,,,867.7212833422236,None,868.8211077880114,None,869.7544745309278,None,1.5074074074074075,1.1165218790993094,869.7544745309278,None,,,,,,,,,,,,,,,,,161,001,2024_Feb_06_1731,SpeechDraft1Carolyn_lessNoise_PlusLocalization,2021.2.3,60.20176567250176,
,,,,,,,,nearRight,6.5,0,ch1Sound_localizationTask.wav,6.5,"(1047, 878)","(87, -202)",95,-338,,,,,,,,,5,2,37,4,,,,,,,,,,,,,,,,,,,,,,,,,,,,,,,,,,,,,,,,,,,,870.8712361590005,None,871.9711974579841,None,872.9043218982406,None,1.4984126984126984,0.7822142313234508,872.9043218982406,None,,,,,,,,,,,,,,,,,161,001,2024_Feb_06_1731,SpeechDraft1Carolyn_lessNoise_PlusLocalization,2021.2.3,60.20176567250176,
,,,,,,,,midLeft,-13.0,2,ch1Sound_localizationTask.wav,-13.0,"(762, 878)","(-198,-202)",-190,-338,,,,,,,,,5,3,38,1,,,,,,,,,,,,,,,,,,,,,,,,,,,,,,,,,,,,,,,,,,,,873.6882589571178,None,874.7877357793041,None,875.7211110461503,None,1.4063492063492062,1.1320623699575663,875.7211110461503,None,,,,,,,,,,,,,,,,,161,001,2024_Feb_06_1731,SpeechDraft1Carolyn_lessNoise_PlusLocalization,2021.2.3,60.20176567250176,
,,,,,,,,center,0.0,6,ch1Sound_localizationTask.wav,0.0,"(952, 878)","(-8,-202)",0,-338,,,,,,,,,5,4,39,3,,,,,,,,,,,,,,,,,,,,,,,,,,,,,,,,,,,,,,,,,,,,876.8547872249037,None,877.9543625949882,None,878.887737267185,None,1.455026455026455,0.7488648481667042,878.887737267185,None,,,,,,,,,,,,,,,,,161,001,2024_Feb_06_1731,SpeechDraft1Carolyn_lessNoise_PlusLocalization,2021.2.3,60.20176567250176,
,,,,,,,,farRight,19.1,4,ch1Sound_localizationTask.wav,19.1,"(1237, 878)","(277,-202)",285,-338,,,,,,,,,5,5,40,6,,,,,,,,,,,,,,,,,,,,,,,,,,,,,,,,,,,,,,,,,,,,879.6381355482154,None,880.7378493179567,None,881.6708840401843,None,1.5386243386243388,0.6825742046348751,881.6708840401843,None,,,,,,,,,,,,,,,,,161,001,2024_Feb_06_1731,SpeechDraft1Carolyn_lessNoise_PlusLocalization,2021.2.3,60.20176567250176,
,,,,,,,,midRight,13.0,3,ch1Sound_localizationTask.wav,13.0,"(1142, 878)","(182, -202)",190,-338,,,,,,,,,5,6,41,5,,,,,,,,,,,,,,,,,,,,,,,,,,,,,,,,,,,,,,,,,,,,882.3545864140615,None,883.4545477619395,None,884.3878365461715,None,1.5708994708994708,0.5329386712983251,884.3878365461715,None,,,,,,,,,,,,,,,,,161,001,2024_Feb_06_1731,SpeechDraft1Carolyn_lessNoise_PlusLocalization,2021.2.3,60.20176567250176,
,,,,,,,,farLeft,-19.1,5,ch1Sound_localizationTask.wav,-19.1,"(667, 878)","(-293,-202)",-285,-338,,,,,,,,,6,0,42,0,,,,,,,,,,,,,,,,,,,,,,,,,,,,,,,,,,,,,,,,,,,,884.9379966291599,None,886.0377231659368,None,886.9546505040489,None,1.3973544973544973,0.649740120396018,886.9546505040489,None,,,,,,,,,,,,,,,,,161,001,2024_Feb_06_1731,SpeechDraft1Carolyn_lessNoise_PlusLocalization,2021.2.3,60.20176567250176,
,,,,,,,,nearLeft,-6.5,1,ch1Sound_localizationTask.wav,-6.5,"(857, 878)","(-103,-202)",-95,-338,,,,,,,,,6,1,43,2,,,,,,,,,,,,,,,,,,,,,,,,,,,,,,,,,,,,,,,,,,,,887.6048740232363,None,888.7044088831171,None,889.6376079032198,None,1.4724867724867725,0.6650195848196745,889.6376079032198,None,,,,,,,,,,,,,,,,,161,001,2024_Feb_06_1731,SpeechDraft1Carolyn_lessNoise_PlusLocalization,2021.2.3,60.20176567250176,
,,,,,,,,nearRight,6.5,0,ch1Sound_localizationTask.wav,6.5,"(1047, 878)","(87, -202)",95,-338,,,,,,,,,6,2,44,4,,,,,,,,,,,,,,,,,,,,,,,,,,,,,,,,,,,,,,,,,,,,890.3048476930708,None,891.404643365182,None,892.3377419542521,None,1.5042328042328044,0.6492196600884199,892.3377419542521,None,,,,,,,,,,,,,,,,,161,001,2024_Feb_06_1731,SpeechDraft1Carolyn_lessNoise_PlusLocalization,2021.2.3,60.20176567250176,
,,,,,,,,center,0.0,6,ch1Sound_localizationTask.wav,0.0,"(952, 878)","(-8,-202)",0,-338,,,,,,,,,6,3,45,3,,,,,,,,,,,,,,,,,,,,,,,,,,,,,,,,,,,,,,,,,,,,892.9880925212055,None,894.0878478451632,None,895.0211138869636,None,1.491005291005291,1.365532681811601,895.0211138869636,None,,,,,,,,,,,,,,,,,161,001,2024_Feb_06_1731,SpeechDraft1Carolyn_lessNoise_PlusLocalization,2021.2.3,60.20176567250176,
,,,,,,,,midLeft,-13.0,2,ch1Sound_localizationTask.wav,-13.0,"(762, 878)","(-198,-202)",-190,-338,,,,,,,,,6,4,46,1,,,,,,,,,,,,,,,,,,,,,,,,,,,,,,,,,,,,,,,,,,,,896.3880252912641,None,897.4879818633199,None,898.4212777581997,None,1.4439153439153438,0.49933263286948204,898.4212777581997,None,,,,,,,,,,,,,,,,,161,001,2024_Feb_06_1731,SpeechDraft1Carolyn_lessNoise_PlusLocalization,2021.2.3,60.20176567250176,
,,,,,,,,midRight,13.0,3,ch1Sound_localizationTask.wav,13.0,"(1142, 878)","(182, -202)",190,-338,,,,,,,,,6,5,47,5,,,,,,,,,,,,,,,,,,,,,,,,,,,,,,,,,,,,,,,,,,,,898.921251413878,None,900.0212049400434,None,900.9544761292636,None,1.6312169312169313,0.49926520697772503,900.9544761292636,None,,,,,,,,,,,,,,,,,161,001,2024_Feb_06_1731,SpeechDraft1Carolyn_lessNoise_PlusLocalization,2021.2.3,60.20176567250176,
,,,,,,,,nearRight,6.5,0,ch1Sound_localizationTask.wav,6.5,"(1047, 878)","(87, -202)",95,-338,,,,,,,,,6,6,48,4,,,,,,,,,,,,,,,,,,,,,,,,,,,,,,,,,,,,,,,,,,,,901.4549505030736,None,902.5547757293098,None,903.4878811039962,None,1.5074074074074075,0.6819308320991695,903.4878811039962,None,,,,,,,,,,,,,,,,,161,001,2024_Feb_06_1731,SpeechDraft1Carolyn_lessNoise_PlusLocalization,2021.2.3,60.20176567250176,
,,,,,,,,nearLeft,-6.5,1,ch1Sound_localizationTask.wav,-6.5,"(857, 878)","(-103,-202)",-95,-338,,,,,,,,,7,0,49,2,,,,,,,,,,,,,,,,,,,,,,,,,,,,,,,,,,,,,,,,,,,,904.1714768540114,None,905.2708831098862,None,906.2044892059639,None,1.447089947089947,0.7991757090203464,906.2044892059639,None,,,,,,,,,,,,,,,,,161,001,2024_Feb_06_1731,SpeechDraft1Carolyn_lessNoise_PlusLocalization,2021.2.3,60.20176567250176,
,,,,,,,,midRight,13.0,3,ch1Sound_localizationTask.wav,13.0,"(1142, 878)","(182, -202)",190,-338,,,,,,,,,7,1,50,5,,,,,,,,,,,,,,,,,,,,,,,,,,,,,,,,,,,,,,,,,,,,907.004950187169,None,908.1044147261418,None,909.0378969889134,None,1.5587301587301587,0.6155088669620454,909.0378969889134,None,,,,,,,,,,,,,,,,,161,001,2024_Feb_06_1731,SpeechDraft1Carolyn_lessNoise_PlusLocalization,2021.2.3,60.20176567250176,
,,,,,,,,nearLeft,-6.5,1,ch1Sound_localizationTask.wav,-6.5,"(857, 878)","(-103,-202)",-95,-338,,,,,,,,,7,2,51,2,,,,,,,,,,,,,,,,,,,,,,,,,,,,,,,,,,,,,,,,,,,,909.6550042452291,None,910.7548625469208,None,911.687768807169,None,1.4841269841269842,0.7485767626203597,911.687768807169,None,,,,,,,,,,,,,,,,,161,001,2024_Feb_06_1731,SpeechDraft1Carolyn_lessNoise_PlusLocalization,2021.2.3,60.20176567250176,
,,,,,,,,midLeft,-13.0,2,ch1Sound_localizationTask.wav,-13.0,"(762, 878)","(-198,-202)",-190,-338,,,,,,,,,7,3,52,1,,,,,,,,,,,,,,,,,,,,,,,,,,,,,,,,,,,,,,,,,,,,912.4379637702368,None,913.5376771162264,None,914.4714326849207,None,1.4687830687830687,0.5981153482571244,914.4714326849207,None,,,,,,,,,,,,,,,,,161,001,2024_Feb_06_1731,SpeechDraft1Carolyn_lessNoise_PlusLocalization,2021.2.3,60.20176567250176,
,,,,,,,,center,0.0,6,ch1Sound_localizationTask.wav,0.0,"(952, 878)","(-8,-202)",0,-338,,,,,,,,,7,4,53,3,,,,,,,,,,,,,,,,,,,,,,,,,,,,,,,,,,,,,,,,,,,,915.0713218492456,None,916.1711496883072,None,917.1047369651496,None,1.507936507936508,0.5492078820243478,917.1047369651496,None,,,,,,,,,,,,,,,,,161,001,2024_Feb_06_1731,SpeechDraft1Carolyn_lessNoise_PlusLocalization,2021.2.3,60.20176567250176,
,,,,,,,,center,0.0,6,ch1Sound_localizationTask.wav,0.0,"(952, 878)","(-8,-202)",0,-338,,,,,,,,,7,5,54,3,,,,,,,,,,,,,,,,,,,,,,,,,,,,,,,,,,,,,,,,,,,,917.654963136185,None,918.7546162041835,None,919.6876876582392,None,1.4925925925925925,0.5000238688662648,919.6876876582392,None,,,,,,,,,,,,,,,,,161,001,2024_Feb_06_1731,SpeechDraft1Carolyn_lessNoise_PlusLocalization,2021.2.3,60.20176567250176,
,,,,,,,,farLeft,-19.1,5,ch1Sound_localizationTask.wav,-19.1,"(667, 878)","(-293,-202)",-285,-338,,,,,,,,,7,6,55,0,,,,,,,,,,,,,,,,,,,,,,,,,,,,,,,,,,,,,,,,,,,,920.1879729521461,None,921.2876976639964,None,922.2212991132401,None,1.3894179894179894,1.0816260538995266,922.2212991132401,None,,,,,,,,,,,,,,,,,161,001,2024_Feb_06_1731,SpeechDraft1Carolyn_lessNoise_PlusLocalization,2021.2.3,60.20176567250176,
,,,,,,,,,,,,,,,,,,,,,,,,,,,,,,,,,,,,,,,,,,,,,,,,,,,,,,,,,,,,,,,,,,,,,,,,,,,,,,,,,,space,7.7646403489634395,923.3880062173121,None,,,,,,,,,,,,,161,001,2024_Feb_06_1731,SpeechDraft1Carolyn_lessNoise_PlusLocalization,2021.2.3,60.20176567250176,
,,,,,,,,farLeft,-19.1,5,ch1Sound_localizationTask.wav,-19.1,"(667, 878)","(-293,-202)",-285,-338,,,,,,,,,,,,,0,0,0,0,,,,,,,,,,,,,,,,,,,,,,,,,,,,,,,,,,,,,,,,931.1878666011617,None,,,934.2065204642713,None,1.353968253968254,1.086666545830667,934.2065204642713,None,,,,,923.3880062173121,None,932.1880789869465,None,932.3714663540013,932.3881021542475,,,,,,,161,001,2024_Feb_06_1731,SpeechDraft1Carolyn_lessNoise_PlusLocalization,2021.2.3,60.20176567250176,
,,,,,,,,farLeft,-19.1,5,ch1Sound_localizationTask.wav,-19.1,"(667, 878)","(-293,-202)",-285,-338,,,,,,,,,,,,,0,1,1,0,,,,,,,,,,,,,,,,,,,,,,,,,,,,,,,,,,,,,,,,935.3049933309667,None,,,938.3211584230885,None,1.3518518518518519,0.7992790583521128,938.3211584230885,None,,,,,,,936.3048572828993,None,936.488051678054,936.5049137389287,,,,,,,161,001,2024_Feb_06_1731,SpeechDraft1Carolyn_lessNoise_PlusLocalization,2021.2.3,60.20176567250176,
,,,,,,,,midLeft,-13.0,2,ch1Sound_localizationTask.wav,-13.0,"(762, 878)","(-198,-202)",-190,-338,,,,,,,,,,,,,0,2,2,1,,,,,,,,,,,,,,,,,,,,,,,,,,,,,,,,,,,,,,,,939.1215088972822,None,,,942.1378995939158,None,1.4185185185185185,0.9995181648992002,942.1378995939158,None,,,,,,,940.121692492161,None,940.3047205689363,940.3215127792209,,,,,,,161,001,2024_Feb_06_1731,SpeechDraft1Carolyn_lessNoise_PlusLocalization,2021.2.3,60.20176567250176,
,,,,,,,,midLeft,-13.0,2,ch1Sound_localizationTask.wav,-13.0,"(762, 878)","(-198,-202)",-190,-338,,,,,,,,,,,,,0,3,3,1,,,,,,,,,,,,,,,,,,,,,,,,,,,,,,,,,,,,,,,,943.1380432611331,None,,,946.1546654063277,None,1.3925925925925926,0.8661587052047253,946.1546654063277,None,,,,,,,944.1388709549792,None,944.3214812991209,944.3381387661211,,,,,,,161,001,2024_Feb_06_1731,SpeechDraft1Carolyn_lessNoise_PlusLocalization,2021.2.3,60.20176567250176,
,,,,,,,,farLeft,-19.1,5,ch1Sound_localizationTask.wav,-19.1,"(667, 878)","(-293,-202)",-285,-338,,,,,,,,,,,,,0,4,4,0,,,,,,,,,,,,,,,,,,,,,,,,,,,,,,,,,,,,,,,,947.0215147072449,None,,,950.0378010962158,None,1.3465608465608465,0.9486307268962264,950.0378010962158,None,,,,,,,948.0214355681092,None,948.2047879248857,948.2213860629126,,,,,,,161,001,2024_Feb_06_1731,SpeechDraft1Carolyn_lessNoise_PlusLocalization,2021.2.3,60.20176567250176,
,,,,,,,,nearRight,6.5,0,ch1Sound_localizationTask.wav,6.5,"(1047, 878)","(87, -202)",95,-338,,,,,,,,,,,,,0,5,5,4,,,,,,,,,,,,,,,,,,,,,,,,,,,,,,,,,,,,,,,,950.9883805741556,None,,,954.0044969338924,None,1.5597883597883597,1.315755344927311,954.0044969338924,None,,,,,,,951.9881050530821,None,952.1713870889507,952.1880960892886,,,,,,,161,001,2024_Feb_06_1731,SpeechDraft1Carolyn_lessNoise_PlusLocalization,2021.2.3,60.20176567250176,
,,,,,,,,midRight,13.0,3,ch1Sound_localizationTask.wav,13.0,"(1142, 878)","(182, -202)",190,-338,,,,,,,,,,,,,0,6,6,5,,,,,,,,,,,,,,,,,,,,,,,,,,,,,,,,,,,,,,,,955.3219034741633,None,,,958.3382794889621,None,1.6026455026455027,0.9159617926925421,958.3382794889621,None,,,,,,,956.3213701099157,None,956.505043911282,956.521437024232,,,,,,,161,001,2024_Feb_06_1731,SpeechDraft1Carolyn_lessNoise_PlusLocalization,2021.2.3,60.20176567250176,
,,,,,,,,center,0.0,6,ch1Sound_localizationTask.wav,0.0,"(952, 878)","(-8,-202)",0,-338,,,,,,,,,,,,,1,0,7,3,,,,,,,,,,,,,,,,,,,,,,,,,,,,,,,,,,,,,,,,959.2547894339077,None,,,962.2711623068899,None,1.4994708994708994,0.8150794990360737,962.2711623068899,None,,,,,,,960.2550650779158,None,960.4381036562845,960.4547155569308,,,,,,,161,001,2024_Feb_06_1731,SpeechDraft1Carolyn_lessNoise_PlusLocalization,2021.2.3,60.20176567250176,
,,,,,,,,center,0.0,6,ch1Sound_localizationTask.wav,0.0,"(952, 878)","(-8,-202)",0,-338,,,,,,,,,,,,,1,1,8,3,,,,,,,,,,,,,,,,,,,,,,,,,,,,,,,,,,,,,,,,963.0883859461173,None,,,966.1048747850582,None,1.4851851851851852,1.0496127069927752,966.1048747850582,None,,,,,,,964.0881654219702,None,964.2714510611258,964.288151293993,,,,,,,161,001,2024_Feb_06_1731,SpeechDraft1Carolyn_lessNoise_PlusLocalization,2021.2.3,60.20176567250176,
,,,,,,,,midRight,13.0,3,ch1Sound_localizationTask.wav,13.0,"(1142, 878)","(182, -202)",190,-338,,,,,,,,,,,,,1,2,9,5,,,,,,,,,,,,,,,,,,,,,,,,,,,,,,,,,,,,,,,,967.1547312652692,None,,,970.1713955788873,None,1.6169312169312169,1.081628667190671,970.1713955788873,None,,,,,,,968.1548582711257,None,968.3380926372483,968.3549941279925,,,,,,,161,001,2024_Feb_06_1731,SpeechDraft1Carolyn_lessNoise_PlusLocalization,2021.2.3,60.20176567250176,
,,,,,,,,farRight,19.1,4,ch1Sound_localizationTask.wav,19.1,"(1237, 878)","(277,-202)",285,-338,,,,,,,,,,,,,1,3,10,6,,,,,,,,,,,,,,,,,,,,,,,,,,,,,,,,,,,,,,,,971.2548112203367,None,,,974.2712272461504,None,1.6481481481481481,1.1829546452499926,974.2712272461504,None,,,,,,,972.2547846441157,None,972.4381616380997,972.4550479422323,,,,,,,161,001,2024_Feb_06_1731,SpeechDraft1Carolyn_lessNoise_PlusLocalization,2021.2.3,60.20176567250176,
,,,,,,,,nearRight,6.5,0,ch1Sound_localizationTask.wav,6.5,"(1047, 878)","(87, -202)",95,-338,,,,,,,,,,,,,1,4,11,4,,,,,,,,,,,,,,,,,,,,,,,,,,,,,,,,,,,,,,,,975.4549584910274,None,,,978.471436986234,None,1.5391534391534392,0.866069542709738,978.471436986234,None,,,,,,,976.4546658028848,None,976.6381187401712,976.6550897941925,,,,,,,161,001,2024_Feb_06_1731,SpeechDraft1Carolyn_lessNoise_PlusLocalization,2021.2.3,60.20176567250176,
,,,,,,,,nearRight,6.5,0,ch1Sound_localizationTask.wav,6.5,"(1047, 878)","(87, -202)",95,-338,,,,,,,,,,,,,1,5,12,4,,,,,,,,,,,,,,,,,,,,,,,,,,,,,,,,,,,,,,,,979.338593930006,None,,,982.3545284429565,None,1.5566137566137566,0.7326099630445242,982.3545284429565,None,,,,,,,980.3381201783195,None,980.5215882421471,980.5382828800939,,,,,,,161,001,2024_Feb_06_1731,SpeechDraft1Carolyn_lessNoise_PlusLocalization,2021.2.3,60.20176567250176,
,,,,,,,,center,0.0,6,ch1Sound_localizationTask.wav,0.0,"(952, 878)","(-8,-202)",0,-338,,,,,,,,,,,,,1,6,13,3,,,,,,,,,,,,,,,,,,,,,,,,,,,,,,,,,,,,,,,,983.0883872900158,None,,,986.1045052083209,None,1.480952380952381,0.7162648537196219,986.1045052083209,None,,,,,,,984.0881897532381,None,984.2714659702033,984.2881512450986,,,,,,,161,001,2024_Feb_06_1731,SpeechDraft1Carolyn_lessNoise_PlusLocalization,2021.2.3,60.20176567250176,
,,,,,,,,farRight,19.1,4,ch1Sound_localizationTask.wav,19.1,"(1237, 878)","(277,-202)",285,-338,,,,,,,,,,,,,2,0,14,6,,,,,,,,,,,,,,,,,,,,,,,,,,,,,,,,,,,,,,,,986.82143506594,None,,,989.8381116171367,None,1.6534391534391535,1.2988384957425296,989.8381116171367,None,,,,,,,987.8216713089496,None,988.0048818662763,988.0216442169622,,,,,,,161,001,2024_Feb_06_1731,SpeechDraft1Carolyn_lessNoise_PlusLocalization,2021.2.3,60.20176567250176,
,,,,,,,,midRight,13.0,3,ch1Sound_localizationTask.wav,13.0,"(1142, 878)","(182, -202)",190,-338,,,,,,,,,,,,,2,1,15,5,,,,,,,,,,,,,,,,,,,,,,,,,,,,,,,,,,,,,,,,991.1383753581904,None,,,994.1548241563141,None,1.564021164021164,0.947596563026309,994.1548241563141,None,,,,,,,992.1381786260754,None,992.3218094059266,992.3382590622641,,,,,,,161,001,2024_Feb_06_1731,SpeechDraft1Carolyn_lessNoise_PlusLocalization,2021.2.3,60.20176567250176,
,,,,,,,,midLeft,-13.0,2,ch1Sound_localizationTask.wav,-13.0,"(762, 878)","(-198,-202)",-190,-338,,,,,,,,,,,,,2,2,16,1,,,,,,,,,,,,,,,,,,,,,,,,,,,,,,,,,,,,,,,,995.1049127401784,None,,,998.1213775780052,None,1.3925925925925926,1.0496582393534482,998.1213775780052,None,,,,,,,996.1047613383271,None,996.288366260007,996.3047828823328,,,,,,,161,001,2024_Feb_06_1731,SpeechDraft1Carolyn_lessNoise_PlusLocalization,2021.2.3,60.20176567250176,
,,,,,,,,midRight,13.0,3,ch1Sound_localizationTask.wav,13.0,"(1142, 878)","(182, -202)",190,-338,,,,,,,,,,,,,2,3,17,5,,,,,,,,,,,,,,,,,,,,,,,,,,,,,,,,,,,,,,,,999.1718470719643,None,,,1002.1882826350629,None,1.585185185185185,0.9488125201314688,1002.1882826350629,None,,,,,,,1000.1714867362753,None,1000.3548628371209,1000.3718993519433,,,,,,,161,001,2024_Feb_06_1731,SpeechDraft1Carolyn_lessNoise_PlusLocalization,2021.2.3,60.20176567250176,
,,,,,,,,nearLeft,-6.5,1,ch1Sound_localizationTask.wav,-6.5,"(857, 878)","(-103,-202)",-95,-338,,,,,,,,,,,,,2,4,18,2,,,,,,,,,,,,,,,,,,,,,,,,,,,,,,,,,,,,,,,,1003.1383958118968,None,,,1006.1546615902334,None,1.4328042328042327,1.4156961319968104,1006.1546615902334,None,,,,,,,1004.1381784132682,None,1004.3215009490959,1004.3381567699835,,,,,,,161,001,2024_Feb_06_1731,SpeechDraft1Carolyn_lessNoise_PlusLocalization,2021.2.3,60.20176567250176,
,,,,,,,,midLeft,-13.0,2,ch1Sound_localizationTask.wav,-13.0,"(762, 878)","(-198,-202)",-190,-338,,,,,,,,,,,,,2,5,19,1,,,,,,,,,,,,,,,,,,,,,,,,,,,,,,,,,,,,,,,,1007.5714209531434,None,,,1010.5884025800042,None,1.3746031746031746,1.0152167780324817,1010.5884025800042,None,,,,,,,1008.5715531450696,None,1008.7548485491425,1008.7715641101822,,,,,,,161,001,2024_Feb_06_1731,SpeechDraft1Carolyn_lessNoise_PlusLocalization,2021.2.3,60.20176567250176,
,,,,,,,,midRight,13.0,3,ch1Sound_localizationTask.wav,13.0,"(1142, 878)","(182, -202)",190,-338,,,,,,,,,,,,,2,6,20,5,,,,,,,,,,,,,,,,,,,,,,,,,,,,,,,,,,,,,,,,1011.6048118779436,None,,,1014.6213560882024,None,1.6238095238095238,0.9652814930304885,1014.6213560882024,None,,,,,,,1012.6051225820556,None,1012.7880996121094,1012.8048366662115,,,,,,,161,001,2024_Feb_06_1731,SpeechDraft1Carolyn_lessNoise_PlusLocalization,2021.2.3,60.20176567250176,
,,,,,,,,farLeft,-19.1,5,ch1Sound_localizationTask.wav,-19.1,"(667, 878)","(-293,-202)",-285,-338,,,,,,,,,,,,,3,0,21,0,,,,,,,,,,,,,,,,,,,,,,,,,,,,,,,,,,,,,,,,1015.588358071167,None,,,1018.6048689270392,None,1.3,1.0317169558256865,1018.6048689270392,None,,,,,,,1016.5882887351327,None,1016.7715167999268,1016.7884154040366,,,,,,,161,001,2024_Feb_06_1731,SpeechDraft1Carolyn_lessNoise_PlusLocalization,2021.2.3,60.20176567250176,
,,,,,,,,midLeft,-13.0,2,ch1Sound_localizationTask.wav,-13.0,"(762, 878)","(-198,-202)",-190,-338,,,,,,,,,,,,,3,1,22,1,,,,,,,,,,,,,,,,,,,,,,,,,,,,,,,,,,,,,,,,1019.6381306252442,None,,,1022.654645669274,None,1.3777777777777778,1.047743558883667,1022.654645669274,None,,,,,,,1020.6382118891925,None,1020.8215983072296,1020.8383856369182,,,,,,,161,001,2024_Feb_06_1731,SpeechDraft1Carolyn_lessNoise_PlusLocalization,2021.2.3,60.20176567250176,
,,,,,,,,nearLeft,-6.5,1,ch1Sound_localizationTask.wav,-6.5,"(857, 878)","(-103,-202)",-95,-338,,,,,,,,,,,,,3,2,23,2,,,,,,,,,,,,,,,,,,,,,,,,,,,,,,,,,,,,,,,,1023.7048054691404,None,,,1026.7214801469818,None,1.428042328042328,1.1829902329482138,1026.7214801469818,None,,,,,,,1024.704858747311,None,1024.8884447710589,1024.9048136919737,,,,,,,161,001,2024_Feb_06_1731,SpeechDraft1Carolyn_lessNoise_PlusLocalization,2021.2.3,60.20176567250176,
,,,,,,,,midLeft,-13.0,2,ch1Sound_localizationTask.wav,-13.0,"(762, 878)","(-198,-202)",-190,-338,,,,,,,,,,,,,3,3,24,1,,,,,,,,,,,,,,,,,,,,,,,,,,,,,,,,,,,,,,,,1027.9047994902357,None,,,1030.9215008472092,None,1.3708994708994708,0.981770820915699,1030.9215008472092,None,,,,,,,1028.9048513360322,None,1029.088201188948,1029.1048624129035,,,,,,,161,001,2024_Feb_06_1731,SpeechDraft1Carolyn_lessNoise_PlusLocalization,2021.2.3,60.20176567250176,
,,,,,,,,nearLeft,-6.5,1,ch1Sound_localizationTask.wav,-6.5,"(857, 878)","(-103,-202)",-95,-338,,,,,,,,,,,,,3,4,25,2,,,,,,,,,,,,,,,,,,,,,,,,,,,,,,,,,,,,,,,,1031.9050159361213,None,,,1034.9217578489333,None,1.4291005291005292,0.8490707310847938,1034.9217578489333,None,,,,,,,1032.9048350900412,None,1033.0883842031471,1033.1047956021503,,,,,,,161,001,2024_Feb_06_1731,SpeechDraft1Carolyn_lessNoise_PlusLocalization,2021.2.3,60.20176567250176,
,,,,,,,,farRight,19.1,4,ch1Sound_localizationTask.wav,19.1,"(1237, 878)","(277,-202)",285,-338,,,,,,,,,,,,,3,5,26,6,,,,,,,,,,,,,,,,,,,,,,,,,,,,,,,,,,,,,,,,1035.7715166890994,None,,,1038.788303106092,None,1.673015873015873,1.2320959600619972,1038.788303106092,None,,,,,,,1036.7715099109337,None,1036.9548611459322,1036.9716872251593,,,,,,,161,001,2024_Feb_06_1731,SpeechDraft1Carolyn_lessNoise_PlusLocalization,2021.2.3,60.20176567250176,
,,,,,,,,nearRight,6.5,0,ch1Sound_localizationTask.wav,6.5,"(1047, 878)","(87, -202)",95,-338,,,,,,,,,,,,,3,6,27,4,,,,,,,,,,,,,,,,,,,,,,,,,,,,,,,,,,,,,,,,1040.0216587320901,None,,,1043.0380746941082,None,1.547089947089947,1.165907418821007,1043.0380746941082,None,,,,,,,1041.0215845732018,None,1041.2049849010073,1041.2215487812646,,,,,,,161,001,2024_Feb_06_1731,SpeechDraft1Carolyn_lessNoise_PlusLocalization,2021.2.3,60.20176567250176,
,,,,,,,,midRight,13.0,3,ch1Sound_localizationTask.wav,13.0,"(1142, 878)","(182, -202)",190,-338,,,,,,,,,,,,,4,0,28,5,,,,,,,,,,,,,,,,,,,,,,,,,,,,,,,,,,,,,,,,1044.205218830146,None,,,1047.2213322189637,None,1.6185185185185185,1.0157918622717261,1047.2213322189637,None,,,,,,,1045.2050709840842,None,1045.3881820109673,1045.4049276988953,,,,,,,161,001,2024_Feb_06_1731,SpeechDraft1Carolyn_lessNoise_PlusLocalization,2021.2.3,60.20176567250176,
,,,,,,,,nearRight,6.5,0,ch1Sound_localizationTask.wav,6.5,"(1047, 878)","(87, -202)",95,-338,,,,,,,,,,,,,4,1,29,4,,,,,,,,,,,,,,,,,,,,,,,,,,,,,,,,,,,,,,,,1048.2384475013241,None,,,1051.254862435162,None,1.537037037037037,0.7983243842609227,1051.254862435162,None,,,,,,,1049.2383078299463,None,1049.4215805111453,1049.4381160461344,,,,,,,161,001,2024_Feb_06_1731,SpeechDraft1Carolyn_lessNoise_PlusLocalization,2021.2.3,60.20176567250176,
,,,,,,,,nearLeft,-6.5,1,ch1Sound_localizationTask.wav,-6.5,"(857, 878)","(-103,-202)",-95,-338,,,,,,,,,,,,,4,2,30,2,,,,,,,,,,,,,,,,,,,,,,,,,,,,,,,,,,,,,,,,1052.0548360850662,None,,,1055.0715343141928,None,1.4333333333333333,0.8816287368535995,1055.0715343141928,None,,,,,,,1053.0549628562294,None,1053.2384639983065,1053.2549024890177,,,,,,,161,001,2024_Feb_06_1731,SpeechDraft1Carolyn_lessNoise_PlusLocalization,2021.2.3,60.20176567250176,
,,,,,,,,nearLeft,-6.5,1,ch1Sound_localizationTask.wav,-6.5,"(857, 878)","(-103,-202)",-95,-338,,,,,,,,,,,,,4,3,31,2,,,,,,,,,,,,,,,,,,,,,,,,,,,,,,,,,,,,,,,,1055.9551340350881,None,,,1058.971438365057,None,1.4396825396825397,0.9153838776983321,1058.971438365057,None,,,,,,,1056.954877634067,None,1057.1382399280556,1057.154939987231,,,,,,,161,001,2024_Feb_06_1731,SpeechDraft1Carolyn_lessNoise_PlusLocalization,2021.2.3,60.20176567250176,
,,,,,,,,farRight,19.1,4,ch1Sound_localizationTask.wav,19.1,"(1237, 878)","(277,-202)",285,-338,,,,,,,,,,,,,4,4,32,6,,,,,,,,,,,,,,,,,,,,,,,,,,,,,,,,,,,,,,,,1059.8883464052342,None,,,1062.904809138272,None,1.6746031746031746,0.8993861190974712,1062.904809138272,None,,,,,,,1060.8881598850712,None,1061.0716454940848,1061.0883105508983,,,,,,,161,001,2024_Feb_06_1731,SpeechDraft1Carolyn_lessNoise_PlusLocalization,2021.2.3,60.20176567250176,
,,,,,,,,nearRight,6.5,0,ch1Sound_localizationTask.wav,6.5,"(1047, 878)","(87, -202)",95,-338,,,,,,,,,,,,,4,5,33,4,,,,,,,,,,,,,,,,,,,,,,,,,,,,,,,,,,,,,,,,1063.8052200190723,None,,,1066.821461678017,None,1.5349206349206348,0.9324732539243996,1066.821461678017,None,,,,,,,1064.8049197560176,None,1064.988634434063,1065.0053289872594,,,,,,,161,001,2024_Feb_06_1731,SpeechDraft1Carolyn_lessNoise_PlusLocalization,2021.2.3,60.20176567250176,
,,,,,,,,farLeft,-19.1,5,ch1Sound_localizationTask.wav,-19.1,"(667, 878)","(-293,-202)",-285,-338,,,,,,,,,,,,,4,6,34,0,,,,,,,,,,,,,,,,,,,,,,,,,,,,,,,,,,,,,,,,1067.754854904022,None,,,1070.7712943730876,None,1.3333333333333333,1.3827688917517662,1070.7712943730876,None,,,,,,,1068.7549106162041,None,1068.938217772171,1068.955035157036,,,,,,,161,001,2024_Feb_06_1731,SpeechDraft1Carolyn_lessNoise_PlusLocalization,2021.2.3,60.20176567250176,
,,,,,,,,farLeft,-19.1,5,ch1Sound_localizationTask.wav,-19.1,"(667, 878)","(-293,-202)",-285,-338,,,,,,,,,,,,,5,0,35,0,,,,,,,,,,,,,,,,,,,,,,,,,,,,,,,,,,,,,,,,1072.1550013641827,None,,,1075.1715208650567,None,1.3386243386243386,0.9160325829870999,1075.1715208650567,None,,,,,,,1073.1549506513402,None,1073.3383876532316,1073.3548743301071,,,,,,,161,001,2024_Feb_06_1731,SpeechDraft1Carolyn_lessNoise_PlusLocalization,2021.2.3,60.20176567250176,
,,,,,,,,nearRight,6.5,0,ch1Sound_localizationTask.wav,6.5,"(1047, 878)","(87, -202)",95,-338,,,,,,,,,,,,,5,1,36,4,,,,,,,,,,,,,,,,,,,,,,,,,,,,,,,,,,,,,,,,1076.0884167761542,None,,,1079.1047405241989,None,1.5603174603174603,0.9829034139402211,1079.1047405241989,None,,,,,,,1077.088297312148,None,1077.2715927152894,1077.288472671993,,,,,,,161,001,2024_Feb_06_1731,SpeechDraft1Carolyn_lessNoise_PlusLocalization,2021.2.3,60.20176567250176,
,,,,,,,,farLeft,-19.1,5,ch1Sound_localizationTask.wav,-19.1,"(667, 878)","(-293,-202)",-285,-338,,,,,,,,,,,,,5,2,37,0,,,,,,,,,,,,,,,,,,,,,,,,,,,,,,,,,,,,,,,,1080.0882614292204,None,,,1083.1046968949959,None,1.3296296296296295,0.7656491389498115,1083.1046968949959,None,,,,,,,1081.0883038020693,None,1081.2716845981777,1081.2882811701857,,,,,,,161,001,2024_Feb_06_1731,SpeechDraft1Carolyn_lessNoise_PlusLocalization,2021.2.3,60.20176567250176,
,,,,,,,,midRight,13.0,3,ch1Sound_localizationTask.wav,13.0,"(1142, 878)","(182, -202)",190,-338,,,,,,,,,,,,,5,3,38,5,,,,,,,,,,,,,,,,,,,,,,,,,,,,,,,,,,,,,,,,1083.8716438482516,None,,,1086.8879346712492,None,1.5746031746031746,0.9987547853961587,1086.8879346712492,None,,,,,,,1084.8717930610292,None,1085.0549741550349,1085.0716356779449,,,,,,,161,001,2024_Feb_06_1731,SpeechDraft1Carolyn_lessNoise_PlusLocalization,2021.2.3,60.20176567250176,
,,,,,,,,farLeft,-19.1,5,ch1Sound_localizationTask.wav,-19.1,"(667, 878)","(-293,-202)",-285,-338,,,,,,,,,,,,,5,4,39,0,,,,,,,,,,,,,,,,,,,,,,,,,,,,,,,,,,,,,,,,1087.8883310672827,None,,,1090.9048546380363,None,1.3306878306878307,1.148549312260002,1090.9048546380363,None,,,,,,,1088.8883528332226,None,1089.0718508739956,1089.0882743741386,,,,,,,161,001,2024_Feb_06_1731,SpeechDraft1Carolyn_lessNoise_PlusLocalization,2021.2.3,60.20176567250176,
,,,,,,,,midLeft,-13.0,2,ch1Sound_localizationTask.wav,-13.0,"(762, 878)","(-198,-202)",-190,-338,,,,,,,,,,,,,5,5,40,1,,,,,,,,,,,,,,,,,,,,,,,,,,,,,,,,,,,,,,,,1092.0551667292602,None,,,1095.0712610050105,None,1.3502645502645503,0.9159502261318266,1095.0712610050105,None,,,,,,,1093.055255383253,None,1093.238253430929,1093.2549594929442,,,,,,,161,001,2024_Feb_06_1731,SpeechDraft1Carolyn_lessNoise_PlusLocalization,2021.2.3,60.20176567250176,
,,,,,,,,center,0.0,6,ch1Sound_localizationTask.wav,0.0,"(952, 878)","(-8,-202)",0,-338,,,,,,,,,,,,,5,6,41,3,,,,,,,,,,,,,,,,,,,,,,,,,,,,,,,,,,,,,,,,1095.988665026147,None,,,1099.0050620059483,None,1.4962962962962962,1.0823827870190144,1099.0050620059483,None,,,,,,,1096.988502185326,None,1097.171650431119,1097.18837792892,,,,,,,161,001,2024_Feb_06_1731,SpeechDraft1Carolyn_lessNoise_PlusLocalization,2021.2.3,60.20176567250176,
,,,,,,,,midRight,13.0,3,ch1Sound_localizationTask.wav,13.0,"(1142, 878)","(182, -202)",190,-338,,,,,,,,,,,,,6,0,42,5,,,,,,,,,,,,,,,,,,,,,,,,,,,,,,,,,,,,,,,,1100.0886649889871,None,,,1103.1046391939744,None,1.6169312169312169,1.015299045946449,1103.1046391939744,None,,,,,,,1101.088288560044,None,1101.2716207429767,1101.2882313122973,,,,,,,161,001,2024_Feb_06_1731,SpeechDraft1Carolyn_lessNoise_PlusLocalization,2021.2.3,60.20176567250176,
,,,,,,,,center,0.0,6,ch1Sound_localizationTask.wav,0.0,"(952, 878)","(-8,-202)",0,-338,,,,,,,,,,,,,6,1,43,3,,,,,,,,,,,,,,,,,,,,,,,,,,,,,,,,,,,,,,,,1104.1218810449354,None,,,1107.1382218291983,None,1.4788359788359788,1.132791040930897,1107.1382218291983,None,,,,,,,1105.121681866236,None,1105.3049097321928,1105.321763803251,,,,,,,161,001,2024_Feb_06_1731,SpeechDraft1Carolyn_lessNoise_PlusLocalization,2021.2.3,60.20176567250176,
,,,,,,,,nearRight,6.5,0,ch1Sound_localizationTask.wav,6.5,"(1047, 878)","(87, -202)",95,-338,,,,,,,,,,,,,6,2,44,4,,,,,,,,,,,,,,,,,,,,,,,,,,,,,,,,,,,,,,,,1108.2719897530042,None,,,1111.288086805027,None,1.5476190476190477,0.9659679280593991,1111.288086805027,None,,,,,,,1109.2715863431804,None,1109.4549739640206,1109.4719175421633,,,,,,,161,001,2024_Feb_06_1731,SpeechDraft1Carolyn_lessNoise_PlusLocalization,2021.2.3,60.20176567250176,
,,,,,,,,center,0.0,6,ch1Sound_localizationTask.wav,0.0,"(952, 878)","(-8,-202)",0,-338,,,,,,,,,,,,,6,3,45,3,,,,,,,,,,,,,,,,,,,,,,,,,,,,,,,,,,,,,,,,1112.2551366239786,None,,,1115.2714579030871,None,1.474074074074074,0.9317036238498986,1115.2714579030871,None,,,,,,,1113.2551706451923,None,1113.4383738441393,1113.4549830039032,,,,,,,161,001,2024_Feb_06_1731,SpeechDraft1Carolyn_lessNoise_PlusLocalization,2021.2.3,60.20176567250176,
,,,,,,,,center,0.0,6,ch1Sound_localizationTask.wav,0.0,"(952, 878)","(-8,-202)",0,-338,,,,,,,,,,,,,6,4,46,3,,,,,,,,,,,,,,,,,,,,,,,,,,,,,,,,,,,,,,,,1116.2050683340058,None,,,1119.2215461488813,None,1.5026455026455028,0.7827333621680737,1119.2215461488813,None,,,,,,,1117.205356898252,None,1117.3885725219734,1117.405216907151,,,,,,,161,001,2024_Feb_06_1731,SpeechDraft1Carolyn_lessNoise_PlusLocalization,2021.2.3,60.20176567250176,
,,,,,,,,nearLeft,-6.5,1,ch1Sound_localizationTask.wav,-6.5,"(857, 878)","(-103,-202)",-95,-338,,,,,,,,,,,,,6,5,47,2,,,,,,,,,,,,,,,,,,,,,,,,,,,,,,,,,,,,,,,,1120.0049435971305,None,,,1123.0212768390775,None,1.4370370370370371,0.7980100382119417,1123.0212768390775,None,,,,,,,1121.0050492272712,None,1121.1883564651944,1121.20524927089,,,,,,,161,001,2024_Feb_06_1731,SpeechDraft1Carolyn_lessNoise_PlusLocalization,2021.2.3,60.20176567250176,
,,,,,,,,farRight,19.1,4,ch1Sound_localizationTask.wav,19.1,"(1237, 878)","(277,-202)",285,-338,,,,,,,,,,,,,6,6,48,6,,,,,,,,,,,,,,,,,,,,,,,,,,,,,,,,,,,,,,,,1123.821685261093,None,,,1126.8380498890765,None,1.6391534391534393,0.7328164228238165,1126.8380498890765,None,,,,,,,1124.8216245132498,None,1125.0054383161478,1125.022192016244,,,,,,,161,001,2024_Feb_06_1731,SpeechDraft1Carolyn_lessNoise_PlusLocalization,2021.2.3,60.20176567250176,
,,,,,,,,farRight,19.1,4,ch1Sound_localizationTask.wav,19.1,"(1237, 878)","(277,-202)",285,-338,,,,,,,,,,,,,7,0,49,6,,,,,,,,,,,,,,,,,,,,,,,,,,,,,,,,,,,,,,,,1127.5717899911106,None,,,1130.5881832488813,None,1.6412698412698412,0.6815806929953396,1130.5881832488813,None,,,,,,,1128.5716055850498,None,1128.7552027478814,1128.7718224781565,,,,,,,161,001,2024_Feb_06_1731,SpeechDraft1Carolyn_lessNoise_PlusLocalization,2021.2.3,60.20176567250176,
,,,,,,,,nearLeft,-6.5,1,ch1Sound_localizationTask.wav,-6.5,"(857, 878)","(-103,-202)",-95,-338,,,,,,,,,,,,,7,1,50,2,,,,,,,,,,,,,,,,,,,,,,,,,,,,,,,,,,,,,,,,1131.2717461902648,None,,,1134.2880120952614,None,1.4455026455026454,0.6489404579624534,1134.2880120952614,None,,,,,,,1132.271770563908,None,1132.4550882540643,1132.4718411611393,,,,,,,161,001,2024_Feb_06_1731,SpeechDraft1Carolyn_lessNoise_PlusLocalization,2021.2.3,60.20176567250176,
,,,,,,,,farRight,19.1,4,ch1Sound_localizationTask.wav,19.1,"(1237, 878)","(277,-202)",285,-338,,,,,,,,,,,,,7,2,51,6,,,,,,,,,,,,,,,,,,,,,,,,,,,,,,,,,,,,,,,,1134.9384279609658,None,,,1137.954916134011,None,1.6502645502645503,0.949413517024368,1137.954916134011,None,,,,,,,1135.938375248108,None,1136.1217480939813,1136.138604843989,,,,,,,161,001,2024_Feb_06_1731,SpeechDraft1Carolyn_lessNoise_PlusLocalization,2021.2.3,60.20176567250176,
,,,,,,,,midLeft,-13.0,2,ch1Sound_localizationTask.wav,-13.0,"(762, 878)","(-198,-202)",-190,-338,,,,,,,,,,,,,7,3,52,1,,,,,,,,,,,,,,,,,,,,,,,,,,,,,,,,,,,,,,,,1138.9053204832599,None,,,1141.9216088359244,None,1.3814814814814815,0.9492133310995996,1141.9216088359244,None,,,,,,,1139.9052119450644,None,1140.0883276541717,1140.1049088602886,,,,,,,161,001,2024_Feb_06_1731,SpeechDraft1Carolyn_lessNoise_PlusLocalization,2021.2.3,60.20176567250176,
,,,,,,,,center,0.0,6,ch1Sound_localizationTask.wav,0.0,"(952, 878)","(-8,-202)",0,-338,,,,,,,,,,,,,7,4,53,3,,,,,,,,,,,,,,,,,,,,,,,,,,,,,,,,,,,,,,,,1142.8721137433313,None,,,1145.8881882838905,None,1.4894179894179893,0.8488533892668784,1145.8881882838905,None,,,,,,,1143.8717838670127,None,1144.0549723389558,1144.0716078979895,,,,,,,161,001,2024_Feb_06_1731,SpeechDraft1Carolyn_lessNoise_PlusLocalization,2021.2.3,60.20176567250176,
,,,,,,,,nearLeft,-6.5,1,ch1Sound_localizationTask.wav,-6.5,"(857, 878)","(-103,-202)",-95,-338,,,,,,,,,,,,,7,5,54,2,,,,,,,,,,,,,,,,,,,,,,,,,,,,,,,,,,,,,,,,1146.7383636152372,None,,,1149.7548813642934,None,1.4121693121693122,0.9159449571743608,1149.7548813642934,None,,,,,,,1147.7385672139935,None,1147.921810104046,1147.9384122951888,,,,,,,161,001,2024_Feb_06_1731,SpeechDraft1Carolyn_lessNoise_PlusLocalization,2021.2.3,60.20176567250176,
,,,,,,,,farRight,19.1,4,ch1Sound_localizationTask.wav,19.1,"(1237, 878)","(277,-202)",285,-338,,,,,,,,,,,,,7,6,55,6,,,,,,,,,,,,,,,,,,,,,,,,,,,,,,,,,,,,,,,,1150.6719204802066,None,,,1153.6885502752848,None,1.6264550264550266,1.415678224992007,1153.6885502752848,None,,,,,,,1151.6719417651184,None,1151.8551258309744,1151.8720574378967,,,,,,,161,001,2024_Feb_06_1731,SpeechDraft1Carolyn_lessNoise_PlusLocalization,2021.2.3,60.20176567250176,
,,,,,,,,,,,,,,,,,,,,,,,,,,,,,,,,,,,,,,,,,,,,,,,,,,,,,,,,,,,,,,,,,,,,,,,,,,,,,,,,,,,,,,,,,,,,1155.104993921239,None,c,34.44832356413826,1156.0883932569996,None,161,001,2024_Feb_06_1731,SpeechDraft1Carolyn_lessNoise_PlusLocalization,2021.2.3,60.20176567250176,
