Audio_Only_Files,Video_Files,Original_Word_List,noiseLevelCode,conditionCodes,noiseLevelFile1,noiseLevelFile2,InstrTextVar,targetSpeakerName,targetSpeakerEccen,targetSpkrChannel,targetSpkrSound,targetVisualDegrees,visStimLoc,visStimLoc2,visStimW,visStimH,practiceTrials.thisRepN,practiceTrials.thisTrialN,practiceTrials.thisN,practiceTrials.thisIndex,trials.thisRepN,trials.thisTrialN,trials.thisN,trials.thisIndex,audLocalLoop.thisRepN,audLocalLoop.thisTrialN,audLocalLoop.thisN,audLocalLoop.thisIndex,visualLocalLoop.thisRepN,visualLocalLoop.thisTrialN,visualLocalLoop.thisN,visualLocalLoop.thisIndex,letsGoAlready.keys,letsGoAlready.rt,letsGoAlready.started,letsGoAlready.stopped,text_2.started,text_2.stopped,text_3.started,text_3.stopped,key_resp_2.keys,key_resp_2.rt,key_resp_2.started,key_resp_2.stopped,text_5.started,text_5.stopped,fixCross.started,fixCross.stopped,fixCross2.started,fixCross2.stopped,answerPrompt.started,answerPrompt.stopped,getAnswer.text,getAnswer.started,getAnswer.stopped,goToNext.keys,goToNext.rt,goToNext.started,goToNext.stopped,stretchBreakTxrt.started,stretchBreakTxrt.stopped,key_resp_3.keys,key_resp_3.rt,key_resp_3.started,key_resp_3.stopped,letsGoLocal.keys,letsGoLocal.rt,letsGoLocal.started,letsGoLocal.stopped,text_4.started,text_4.stopped,prepFixTxt.started,prepFixTxt.stopped,prepFixTxt_2.started,prepFixTxt_2.stopped,respPromptLocal.started,respPromptLocal.stopped,slider.response,slider.rt,slider.started,slider.stopped,letsGoLocal_2.keys,letsGoLocal_2.rt,letsGoLocal_2.started,letsGoLocal_2.stopped,text_7.started,text_7.stopped,prepFixTxt_3.started,prepFixTxt_3.stopped,grating.started,grating.stopped,exitTxt.started,exitTxt.stopped,key_resp.keys,key_resp.rt,key_resp.started,key_resp.stopped,participant,session,date,expName,psychopyVersion,frameRate,
,,,,,,,,,,,,,,,,,,,,,,,,,,,,,,,,,space,4.588903152849525,32.244207825977355,None,,,,,,,,,,,,,,,,,,,,,,,,,,,,,,,,,,,,,,,,,,,,,,,,,,,,,,,,,,,,,,163,001,2024_Feb_14_1343,SpeechDraft1Carolyn_lessNoise_PlusLocalization,2021.2.3,60.09969802827215,
,,,,,,,,,,,,,,,,,,,,,,,,,,,,,,,,,,,,,32.244207825977355,None,36.960977158974856,None,space,7.649204790126532,37.14396372484043,None,,,,,,,,,,,,,,,,,,,,,,,,,,,,,,,,,,,,,,,,,,,,,,,,,,,,,,163,001,2024_Feb_14_1343,SpeechDraft1Carolyn_lessNoise_PlusLocalization,2021.2.3,60.09969802827215,
ash.wav,ash.mpg,ash,1,A,Pink_Noise_1_1.wav,Pink_Noise_1_2.wav,"This is an example of an

AUDIO trial",,,,,,,,,,0,0,0,0,,,,,,,,,,,,,,,,,,,,,,,,,44.843662408180535,None,45.827377147972584,None,50.61074825190008,None,52.01097135618329,None,"fish 
",52.01097135618329,None,return,19.402797129005194,52.09428930981085,None,,,,,,,,,,,,,,,,,,,,,,,,,,,,,,,,,,,,,,,163,001,2024_Feb_14_1343,SpeechDraft1Carolyn_lessNoise_PlusLocalization,2021.2.3,60.09969802827215,
ash.wav,ash.mpg,ash,1,AV,Pink_Noise_1_1.wav,Pink_Noise_1_2.wav,"This is an example of an

AUDIO + VIDEO  trial",,,,,,,,,,0,1,1,1,,,,,,,,,,,,,,,,,,,,,,,,,71.54382950486615,None,72.5440594800748,None,74.04373097792268,None,75.42742691701278,None,esh ,75.42742691701278,None,return,3.2822496970184147,75.5109269102104,None,,,,,,,,,,,,,,,,,,,,,,,,,,,,,,,,,,,,,,,163,001,2024_Feb_14_1343,SpeechDraft1Carolyn_lessNoise_PlusLocalization,2021.2.3,60.09969802827215,
,,,,,,,,,,,,,,,,,,,,,,,,,,,,,,,,,,,,,,,,,,,,,,,,,,,,,,,,,,,,78.82719664601609,None,space,7.0704454951919615,79.01080111321062,None,,,,,,,,,,,,,,,,,,,,,,,,,,,,,,,,,163,001,2024_Feb_14_1343,SpeechDraft1Carolyn_lessNoise_PlusLocalization,2021.2.3,60.09969802827215,
cart.wav,cart.mpg,cart,4,A,Pink_Noise_4_1.wav,Pink_Noise_4_2.wav,,,,,,,,,,,,,,,0,0,0,19,,,,,,,,,,,,,,,,,,,,,,,86.12805074779317,None,87.62724490603432,None,89.01079389406368,None,"cut
",89.01079389406368,None,return,2.5870181298814714,89.09407839505002,None,,,,,,,,,,,,,,,,,,,,,,,,,,,,,,,,,,,,,,,163,001,2024_Feb_14_1343,SpeechDraft1Carolyn_lessNoise_PlusLocalization,2021.2.3,60.09969802827215,
fee.wav,fee.mpg,fee,3,AV,Pink_Noise_3_1.wav,Pink_Noise_3_2.wav,,,,,,,,,,,,,,,0,1,1,87,,,,,,,,,,,,,,,,,,,,,,,91.71081154514104,None,93.21051075682044,None,94.59406092204154,None,vee,94.59406092204154,None,return,1.579723244998604,94.67744500515983,None,,,,,,,,,,,,,,,,,,,,,,,,,,,,,,,,,,,,,,,163,001,2024_Feb_14_1343,SpeechDraft1Carolyn_lessNoise_PlusLocalization,2021.2.3,60.09969802827215,
gym.wav,gym.mpg,gym,1,AV,Pink_Noise_1_1.wav,Pink_Noise_1_2.wav,,,,,,,,,,,,,,,0,2,2,98,,,,,,,,,,,,,,,,,,,,,,,96.2774078277871,None,97.77724508894607,None,99.16082363110036,None,gym,99.16082363110036,None,return,10.876944420859218,99.24414998106658,None,,,,,,,,,,,,,,,,,,,,,,,,,,,,,,,,,,,,,,,163,001,2024_Feb_14_1343,SpeechDraft1Carolyn_lessNoise_PlusLocalization,2021.2.3,60.09969802827215,
fan.wav,fan.mpg,fan,3,AV,Pink_Noise_3_1.wav,Pink_Noise_3_2.wav,,,,,,,,,,,,,,,0,3,3,68,,,,,,,,,,,,,,,,,,,,,,,110.14423862891272,None,111.64384335512295,None,113.02734913490713,None,fay,113.02734913490713,None,return,2.898405069950968,113.11078911321238,None,,,,,,,,,,,,,,,,,,,,,,,,,,,,,,,,,,,,,,,163,001,2024_Feb_14_1343,SpeechDraft1Carolyn_lessNoise_PlusLocalization,2021.2.3,60.09969802827215,
germ.wav,germ.mpg,germ,6,A,Pink_Noise_6_1.wav,Pink_Noise_6_2.wav,,,,,,,,,,,,,,,0,4,4,39,,,,,,,,,,,,,,,,,,,,,,,116.02755746804178,None,117.52721083490178,None,118.91081703780219,None,fay,118.91081703780219,None,return,2.038978678639978,118.99417151417583,None,,,,,,,,,,,,,,,,,,,,,,,,,,,,,,,,,,,,,,,163,001,2024_Feb_14_1343,SpeechDraft1Carolyn_lessNoise_PlusLocalization,2021.2.3,60.09969802827215,
slush.wav,slush.mpg,slush,5,AV,Pink_Noise_5_1.wav,Pink_Noise_5_2.wav,,,,,,,,,,,,,,,0,5,5,74,,,,,,,,,,,,,,,,,,,,,,,121.06086956476793,None,122.56135699804872,None,123.94409943092614,None,"fil
",123.94409943092614,None,return,2.2536282087676227,124.02746109105647,None,,,,,,,,,,,,,,,,,,,,,,,,,,,,,,,,,,,,,,,163,001,2024_Feb_14_1343,SpeechDraft1Carolyn_lessNoise_PlusLocalization,2021.2.3,60.09969802827215,
care.wav,care.mpg,care,1,AV,Pink_Noise_1_1.wav,Pink_Noise_1_2.wav,,,,,,,,,,,,,,,0,6,6,93,,,,,,,,,,,,,,,,,,,,,,,126.31096350494772,None,127.81223093019798,None,129.1941560721025,None,care,129.1941560721025,None,return,2.739729245658964,129.2774875247851,None,,,,,,,,,,,,,,,,,,,,,,,,,,,,,,,,,,,,,,,163,001,2024_Feb_14_1343,SpeechDraft1Carolyn_lessNoise_PlusLocalization,2021.2.3,60.09969802827215,
crash.wav,crash.mpg,crash,4,AV,Pink_Noise_4_1.wav,Pink_Noise_4_2.wav,,,,,,,,,,,,,,,0,7,7,73,,,,,,,,,,,,,,,,,,,,,,,132.04409092478454,None,133.54406305076554,None,134.92745471885428,None,crash,134.92745471885428,None,return,3.0541553860530257,135.010941832792,None,,,,,,,,,,,,,,,,,,,,,,,,,,,,,,,,,,,,,,,163,001,2024_Feb_14_1343,SpeechDraft1Carolyn_lessNoise_PlusLocalization,2021.2.3,60.09969802827215,
thief.wav,thief.mpg,thief,1,A,Pink_Noise_1_1.wav,Pink_Noise_1_2.wav,,,,,,,,,,,,,,,0,8,8,14,,,,,,,,,,,,,,,,,,,,,,,138.09420888777822,None,139.59388827811927,None,140.97759839706123,None,theif ,140.97759839706123,None,return,3.5244554630480707,141.0607711877674,None,,,,,,,,,,,,,,,,,,,,,,,,,,,,,,,,,,,,,,,163,001,2024_Feb_14_1343,SpeechDraft1Carolyn_lessNoise_PlusLocalization,2021.2.3,60.09969802827215,
flat.wav,flat.mpg,flat,2,A,Pink_Noise_2_1.wav,Pink_Noise_2_2.wav,,,,,,,,,,,,,,,0,9,9,41,,,,,,,,,,,,,,,,,,,,,,,144.6108787842095,None,146.12726741889492,None,147.49422658793628,None,"











flat
",147.49422658793628,None,return,7.75158883119002,147.57750184414908,None,,,,,,,,,,,,,,,,,,,,,,,,,,,,,,,,,,,,,,,163,001,2024_Feb_14_1343,SpeechDraft1Carolyn_lessNoise_PlusLocalization,2021.2.3,60.09969802827215,
chord.wav,chord.mpg,chord,4,AV,Pink_Noise_4_1.wav,Pink_Noise_4_2.wav,,,,,,,,,,,,,,,0,10,10,88,,,,,,,,,,,,,,,,,,,,,,,155.36086279619485,None,156.87724685715511,None,158.26086346199736,None,pour,158.26086346199736,None,return,2.6968473442830145,158.3443277850747,None,,,,,,,,,,,,,,,,,,,,,,,,,,,,,,,,,,,,,,,163,001,2024_Feb_14_1343,SpeechDraft1Carolyn_lessNoise_PlusLocalization,2021.2.3,60.09969802827215,
crack.wav,crack.mpg,crack,2,A,Pink_Noise_2_1.wav,Pink_Noise_2_2.wav,,,,,,,,,,,,,,,0,11,11,58,,,,,,,,,,,,,,,,,,,,,,,161.0609937151894,None,162.56062946701422,None,163.94422324514017,None,crack,163.94422324514017,None,return,4.445558296050876,164.02756910584867,None,,,,,,,,,,,,,,,,,,,,,,,,,,,,,,,,,,,,,,,163,001,2024_Feb_14_1343,SpeechDraft1Carolyn_lessNoise_PlusLocalization,2021.2.3,60.09969802827215,
bar.wav,bar.mpg,bar,4,A,Pink_Noise_4_1.wav,Pink_Noise_4_2.wav,,,,,,,,,,,,,,,0,12,12,27,,,,,,,,,,,,,,,,,,,,,,,168.49418025789782,None,169.99394547892734,None,171.37764389580116,None,bong,171.37764389580116,None,return,3.948295888956636,171.46084770280868,None,,,,,,,,,,,,,,,,,,,,,,,,,,,,,,,,,,,,,,,163,001,2024_Feb_14_1343,SpeechDraft1Carolyn_lessNoise_PlusLocalization,2021.2.3,60.09969802827215,
sue.wav,sue.mpg,sue,5,AV,Pink_Noise_5_1.wav,Pink_Noise_5_2.wav,,,,,,,,,,,,,,,0,13,13,79,,,,,,,,,,,,,,,,,,,,,,,175.427711321041,None,176.92720264103264,None,178.31084629008546,None,soup,178.31084629008546,None,return,3.0150528238154948,178.39414805406705,None,,,,,,,,,,,,,,,,,,,,,,,,,,,,,,,,,,,,,,,163,001,2024_Feb_14_1343,SpeechDraft1Carolyn_lessNoise_PlusLocalization,2021.2.3,60.09969802827215,
swan.wav,swan.mpg,swan,4,AV,Pink_Noise_4_1.wav,Pink_Noise_4_2.wav,,,,,,,,,,,,,,,0,14,14,94,,,,,,,,,,,,,,,,,,,,,,,181.42758100898936,None,182.92830214696005,None,184.31081987498328,None,"try
",184.31081987498328,None,return,2.486766296904534,184.39433461800218,None,,,,,,,,,,,,,,,,,,,,,,,,,,,,,,,,,,,,,,,163,001,2024_Feb_14_1343,SpeechDraft1Carolyn_lessNoise_PlusLocalization,2021.2.3,60.09969802827215,
bark.wav,bark.mpg,bark,1,AV,Pink_Noise_1_1.wav,Pink_Noise_1_2.wav,,,,,,,,,,,,,,,0,15,15,114,,,,,,,,,,,,,,,,,,,,,,,186.9109660219401,None,188.4105598400347,None,189.79428636003286,None,"bark
",189.79428636003286,None,return,2.819418964907527,189.8776794988662,None,,,,,,,,,,,,,,,,,,,,,,,,,,,,,,,,,,,,,,,163,001,2024_Feb_14_1343,SpeechDraft1Carolyn_lessNoise_PlusLocalization,2021.2.3,60.09969802827215,
guilt.wav,guilt.mpg,guilt,3,A,Pink_Noise_3_1.wav,Pink_Noise_3_2.wav,,,,,,,,,,,,,,,0,16,16,9,,,,,,,,,,,,,,,,,,,,,,,192.72756313811988,None,194.2273468421772,None,195.61096053896472,None,guilt,195.61096053896472,None,return,2.8747658329084516,195.69431222090498,None,,,,,,,,,,,,,,,,,,,,,,,,,,,,,,,,,,,,,,,163,001,2024_Feb_14_1343,SpeechDraft1Carolyn_lessNoise_PlusLocalization,2021.2.3,60.09969802827215,
break.wav,break.mpg,break,3,A,Pink_Noise_3_1.wav,Pink_Noise_3_2.wav,,,,,,,,,,,,,,,0,17,17,22,,,,,,,,,,,,,,,,,,,,,,,198.59431708510965,None,200.11068660020828,None,201.49423971679062,None,break,201.49423971679062,None,return,2.5593526298180223,201.57776991697028,None,,,,,,,,,,,,,,,,,,,,,,,,,,,,,,,,,,,,,,,163,001,2024_Feb_14_1343,SpeechDraft1Carolyn_lessNoise_PlusLocalization,2021.2.3,60.09969802827215,
chart.wav,chart.mpg,chart,6,A,Pink_Noise_6_1.wav,Pink_Noise_6_2.wav,,,,,,,,,,,,,,,0,18,18,50,,,,,,,,,,,,,,,,,,,,,,,204.16099977400154,None,205.67727795615792,None,207.06097200885415,None,jump,207.06097200885415,None,return,2.208626031409949,207.14448846317828,None,,,,,,,,,,,,,,,,,,,,,,,,,,,,,,,,,,,,,,,163,001,2024_Feb_14_1343,SpeechDraft1Carolyn_lessNoise_PlusLocalization,2021.2.3,60.09969802827215,
fear.wav,fear.mpg,fear,2,AV,Pink_Noise_2_1.wav,Pink_Noise_2_2.wav,,,,,,,,,,,,,,,0,19,19,61,,,,,,,,,,,,,,,,,,,,,,,209.37756490707397,None,210.87728443881497,None,212.26090537710115,None,gear ,212.26090537710115,None,return,1.8729093610309064,212.34428119519725,None,,,,,,,,,,,,,,,,,,,,,,,,,,,,,,,,,,,,,,,163,001,2024_Feb_14_1343,SpeechDraft1Carolyn_lessNoise_PlusLocalization,2021.2.3,60.09969802827215,
bright.wav,bright.mpg,bright,6,A,Pink_Noise_6_1.wav,Pink_Noise_6_2.wav,,,,,,,,,,,,,,,0,20,20,2,,,,,,,,,,,,,,,,,,,,,,,214.24423047713935,None,215.7439029822126,None,217.1278132922016,None,"idk
",217.1278132922016,None,return,1.9181360630318522,217.21095714904368,None,,,,,,,,,,,,,,,,,,,,,,,,,,,,,,,,,,,,,,,163,001,2024_Feb_14_1343,SpeechDraft1Carolyn_lessNoise_PlusLocalization,2021.2.3,60.09969802827215,
crop.wav,crop.mpg,crop,2,A,Pink_Noise_2_1.wav,Pink_Noise_2_2.wav,,,,,,,,,,,,,,,0,21,21,38,,,,,,,,,,,,,,,,,,,,,,,219.1611367277801,None,220.6606286377646,None,222.04433054616675,None,cry,222.04433054616675,None,return,2.0974823152646422,222.1276158541441,None,,,,,,,,,,,,,,,,,,,,,,,,,,,,,,,,,,,,,,,163,001,2024_Feb_14_1343,SpeechDraft1Carolyn_lessNoise_PlusLocalization,2021.2.3,60.09969802827215,
curve.wav,curve.mpg,curve,3,A,Pink_Noise_3_1.wav,Pink_Noise_3_2.wav,,,,,,,,,,,,,,,0,22,22,29,,,,,,,,,,,,,,,,,,,,,,,224.24435064615682,None,225.74399132002145,None,227.1276440890506,None,curl,227.1276440890506,None,return,2.8781448709778488,227.2109573869966,None,,,,,,,,,,,,,,,,,,,,,,,,,,,,,,,,,,,,,,,163,001,2024_Feb_14_1343,SpeechDraft1Carolyn_lessNoise_PlusLocalization,2021.2.3,60.09969802827215,
beg.wav,beg.mpg,beg,3,A,Pink_Noise_3_1.wav,Pink_Noise_3_2.wav,,,,,,,,,,,,,,,0,23,23,21,,,,,,,,,,,,,,,,,,,,,,,230.1110449382104,None,231.6274562268518,None,233.01099159475416,None,"sike
",233.01099159475416,None,return,2.2507250290364027,233.0943742902018,None,,,,,,,,,,,,,,,,,,,,,,,,,,,,,,,,,,,,,,,163,001,2024_Feb_14_1343,SpeechDraft1Carolyn_lessNoise_PlusLocalization,2021.2.3,60.09969802827215,
dwell.wav,dwell.mpg,dwell,4,AV,Pink_Noise_4_1.wav,Pink_Noise_4_2.wav,,,,,,,,,,,,,,,0,24,24,64,,,,,,,,,,,,,,,,,,,,,,,235.37765846820548,None,236.89397642714903,None,238.27762445108965,None,"dwell
",238.27762445108965,None,return,3.352048645261675,238.36104252608493,None,,,,,,,,,,,,,,,,,,,,,,,,,,,,,,,,,,,,,,,163,001,2024_Feb_14_1343,SpeechDraft1Carolyn_lessNoise_PlusLocalization,2021.2.3,60.09969802827215,
fresh.wav,fresh.mpg,fresh,5,A,Pink_Noise_5_1.wav,Pink_Noise_5_2.wav,,,,,,,,,,,,,,,0,25,25,57,,,,,,,,,,,,,,,,,,,,,,,241.7443953747861,None,243.24479230400175,None,244.62769647082314,None,flesh,244.62769647082314,None,return,3.738098673056811,244.71099431905895,None,,,,,,,,,,,,,,,,,,,,,,,,,,,,,,,,,,,,,,,163,001,2024_Feb_14_1343,SpeechDraft1Carolyn_lessNoise_PlusLocalization,2021.2.3,60.09969802827215,
die.wav,die.mpg,die,4,A,Pink_Noise_4_1.wav,Pink_Noise_4_2.wav,,,,,,,,,,,,,,,0,26,26,47,,,,,,,,,,,,,,,,,,,,,,,248.47757696406916,None,249.9785812809132,None,251.36099594412372,None,sun,251.36099594412372,None,return,1.1487842537462711,251.44439196493477,None,,,,,,,,,,,,,,,,,,,,,,,,,,,,,,,,,,,,,,,163,001,2024_Feb_14_1343,SpeechDraft1Carolyn_lessNoise_PlusLocalization,2021.2.3,60.09969802827215,
file.wav,file.mpg,file,2,AV,Pink_Noise_2_1.wav,Pink_Noise_2_2.wav,,,,,,,,,,,,,,,0,27,27,97,,,,,,,,,,,,,,,,,,,,,,,252.61124617699534,None,254.11078128311783,None,255.49421795504168,None,file,255.49421795504168,None,return,2.7434350959956646,255.57765370607376,None,,,,,,,,,,,,,,,,,,,,,,,,,,,,,,,,,,,,,,,163,001,2024_Feb_14_1343,SpeechDraft1Carolyn_lessNoise_PlusLocalization,2021.2.3,60.09969802827215,
cried.wav,cried.mpg,cried,4,A,Pink_Noise_4_1.wav,Pink_Noise_4_2.wav,,,,,,,,,,,,,,,0,28,28,20,,,,,,,,,,,,,,,,,,,,,,,258.3443020861596,None,259.84415643289685,None,261.22769343387336,None,"slide
",261.22769343387336,None,return,3.7700644079595804,261.31104050017893,None,,,,,,,,,,,,,,,,,,,,,,,,,,,,,,,,,,,,,,,163,001,2024_Feb_14_1343,SpeechDraft1Carolyn_lessNoise_PlusLocalization,2021.2.3,60.09969802827215,
flea.wav,flea.mpg,flea,5,A,Pink_Noise_5_1.wav,Pink_Noise_5_2.wav,,,,,,,,,,,,,,,0,29,29,11,,,,,,,,,,,,,,,,,,,,,,,265.11101287510246,None,266.61060265498236,None,267.9943680251017,None,"freee
",267.9943680251017,None,return,1.8833501669578254,268.07774270605296,None,,,,,,,,,,,,,,,,,,,,,,,,,,,,,,,,,,,,,,,163,001,2024_Feb_14_1343,SpeechDraft1Carolyn_lessNoise_PlusLocalization,2021.2.3,60.09969802827215,
blot.wav,blot.mpg,blot,5,AV,Pink_Noise_5_1.wav,Pink_Noise_5_2.wav,,,,,,,,,,,,,,,0,30,30,65,,,,,,,,,,,,,,,,,,,,,,,269.99438199819997,None,271.49555780319497,None,272.87759106000885,None,"blush
",272.87759106000885,None,return,6.135994466021657,272.96110610477626,None,,,,,,,,,,,,,,,,,,,,,,,,,,,,,,,,,,,,,,,163,001,2024_Feb_14_1343,SpeechDraft1Carolyn_lessNoise_PlusLocalization,2021.2.3,60.09969802827215,
gash.wav,gash.mpg,gash,1,AV,Pink_Noise_1_1.wav,Pink_Noise_1_2.wav,,,,,,,,,,,,,,,0,31,31,117,,,,,,,,,,,,,,,,,,,,,,,279.1276685157791,None,280.62874793913215,None,282.01096613006666,None,gash,282.01096613006666,None,return,2.3947024079971015,282.0943854250945,None,,,,,,,,,,,,,,,,,,,,,,,,,,,,,,,,,,,,,,,163,001,2024_Feb_14_1343,SpeechDraft1Carolyn_lessNoise_PlusLocalization,2021.2.3,60.09969802827215,
fed.wav,fed.mpg,fed,6,AV,Pink_Noise_6_1.wav,Pink_Noise_6_2.wav,,,,,,,,,,,,,,,0,32,32,102,,,,,,,,,,,,,,,,,,,,,,,284.5110351140611,None,286.0107766799629,None,287.3942606369965,None,??,287.3942606369965,None,return,0.8273463151417673,287.47776036383584,None,,,,,,,,,,,,,,,,,,,,,,,,,,,,,,,,,,,,,,,163,001,2024_Feb_14_1343,SpeechDraft1Carolyn_lessNoise_PlusLocalization,2021.2.3,60.09969802827215,
firm.wav,firm.mpg,firm,4,AV,Pink_Noise_4_1.wav,Pink_Noise_4_2.wav,,,,,,,,,,,,,,,0,33,33,75,,,,,,,,,,,,,,,,,,,,,,,288.3277373369783,None,289.82750041317195,None,291.21112825209275,None,from,291.21112825209275,None,return,1.8586383732035756,291.2944806041196,None,,,,,,,,,,,,,,,,,,,,,,,,,,,,,,,,,,,,,,,163,001,2024_Feb_14_1343,SpeechDraft1Carolyn_lessNoise_PlusLocalization,2021.2.3,60.09969802827215,
gut.wav,gut.mpg,gut,2,A,Pink_Noise_2_1.wav,Pink_Noise_2_2.wav,,,,,,,,,,,,,,,0,34,34,3,,,,,,,,,,,,,,,,,,,,,,,293.1776916561648,None,294.6940101701766,None,296.06099054683,None,gut,296.06099054683,None,return,3.0166375027038157,296.1444597519003,None,,,,,,,,,,,,,,,,,,,,,,,,,,,,,,,,,,,,,,,163,001,2024_Feb_14_1343,SpeechDraft1Carolyn_lessNoise_PlusLocalization,2021.2.3,60.09969802827215,
curb.wav,curb.mpg,curb,3,A,Pink_Noise_3_1.wav,Pink_Noise_3_2.wav,,,,,,,,,,,,,,,0,35,35,15,,,,,,,,,,,,,,,,,,,,,,,299.17778905294836,None,300.69425781210884,None,302.077760537155,None,curve,302.077760537155,None,return,4.591921861749142,302.16116873687133,None,,,,,,,,,,,,,,,,,,,,,,,,,,,,,,,,,,,,,,,163,001,2024_Feb_14_1343,SpeechDraft1Carolyn_lessNoise_PlusLocalization,2021.2.3,60.09969802827215,
fried.wav,fried.mpg,fried,1,AV,Pink_Noise_1_1.wav,Pink_Noise_1_2.wav,,,,,,,,,,,,,,,0,36,36,86,,,,,,,,,,,,,,,,,,,,,,,306.7776360819116,None,308.2774291099049,None,309.6610460928641,None,fried,309.6610460928641,None,return,3.04879406793043,309.7444217018783,None,,,,,,,,,,,,,,,,,,,,,,,,,,,,,,,,,,,,,,,163,001,2024_Feb_14_1343,SpeechDraft1Carolyn_lessNoise_PlusLocalization,2021.2.3,60.09969802827215,
dump.wav,dump.mpg,dump,6,A,Pink_Noise_6_1.wav,Pink_Noise_6_2.wav,,,,,,,,,,,,,,,0,37,37,46,,,,,,,,,,,,,,,,,,,,,,,312.8111282209866,None,314.31091979006305,None,315.6943572629243,None,????,315.6943572629243,None,return,1.063426127191633,315.77777402987704,None,,,,,,,,,,,,,,,,,,,,,,,,,,,,,,,,,,,,,,,163,001,2024_Feb_14_1343,SpeechDraft1Carolyn_lessNoise_PlusLocalization,2021.2.3,60.09969802827215,
shed.wav,shed.mpg,shed,6,AV,Pink_Noise_6_1.wav,Pink_Noise_6_2.wav,,,,,,,,,,,,,,,0,38,38,80,,,,,,,,,,,,,,,,,,,,,,,316.86118475114927,None,318.36083739995956,None,319.7443984481506,None,"?/
",319.7443984481506,None,return,0.6692169569432735,319.8278872189112,None,,,,,,,,,,,,,,,,,,,,,,,,,,,,,,,,,,,,,,,163,001,2024_Feb_14_1343,SpeechDraft1Carolyn_lessNoise_PlusLocalization,2021.2.3,60.09969802827215,
drip.wav,drip.mpg,drip,5,A,Pink_Noise_5_1.wav,Pink_Noise_5_2.wav,,,,,,,,,,,,,,,0,39,39,1,,,,,,,,,,,,,,,,,,,,,,,320.52780800592154,None,322.04409821378067,None,323.4279340370558,None,drp,323.4279340370558,None,return,1.5940519482828677,323.511085358914,None,,,,,,,,,,,,,,,,,,,,,,,,,,,,,,,,,,,,,,,163,001,2024_Feb_14_1343,SpeechDraft1Carolyn_lessNoise_PlusLocalization,2021.2.3,60.09969802827215,
folk.wav,folk.mpg,folk,4,A,Pink_Noise_4_1.wav,Pink_Noise_4_2.wav,,,,,,,,,,,,,,,0,40,40,10,,,,,,,,,,,,,,,,,,,,,,,325.12797144195065,None,326.62772673601285,None,328.0112332999706,None,??,328.0112332999706,None,return,0.6106709600426257,328.0944162248634,None,,,,,,,,,,,,,,,,,,,,,,,,,,,,,,,,,,,,,,,163,001,2024_Feb_14_1343,SpeechDraft1Carolyn_lessNoise_PlusLocalization,2021.2.3,60.09969802827215,
bald.wav,bald.mpg,bald,4,A,Pink_Noise_4_1.wav,Pink_Noise_4_2.wav,,,,,,,,,,,,,,,0,41,41,24,,,,,,,,,,,,,,,,,,,,,,,328.7277431618422,None,330.2441564500332,None,331.62776581197977,None,ball,331.62776581197977,None,return,2.8901289170607924,331.71108616376296,None,,,,,,,,,,,,,,,,,,,,,,,,,,,,,,,,,,,,,,,163,001,2024_Feb_14_1343,SpeechDraft1Carolyn_lessNoise_PlusLocalization,2021.2.3,60.09969802827215,
crust.wav,crust.mpg,crust,4,A,Pink_Noise_4_1.wav,Pink_Noise_4_2.wav,,,,,,,,,,,,,,,0,42,42,26,,,,,,,,,,,,,,,,,,,,,,,334.62780814478174,None,336.1275435280986,None,337.51117971679196,None,?,337.51117971679196,None,return,0.8067640597000718,337.5944429538213,None,,,,,,,,,,,,,,,,,,,,,,,,,,,,,,,,,,,,,,,163,001,2024_Feb_14_1343,SpeechDraft1Carolyn_lessNoise_PlusLocalization,2021.2.3,60.09969802827215,
den.wav,den.mpg,den,6,A,Pink_Noise_6_1.wav,Pink_Noise_6_2.wav,,,,,,,,,,,,,,,0,43,43,52,,,,,,,,,,,,,,,,,,,,,,,338.4278472959995,None,339.94418724020943,None,341.3279229099862,None,jump,341.3279229099862,None,return,2.4779591718688607,341.41113016102463,None,,,,,,,,,,,,,,,,,,,,,,,,,,,,,,,,,,,,,,,163,001,2024_Feb_14_1343,SpeechDraft1Carolyn_lessNoise_PlusLocalization,2021.2.3,60.09969802827215,
pledge.wav,pledge.mpg,pledge,4,AV,Pink_Noise_4_1.wav,Pink_Noise_4_2.wav,,,,,,,,,,,,,,,0,44,44,107,,,,,,,,,,,,,,,,,,,,,,,343.91120833996683,None,345.4109537238255,None,346.7944483770989,None,pledge,346.7944483770989,None,return,7.211304529104382,346.8778179897927,None,,,,,,,,,,,,,,,,,,,,,,,,,,,,,,,,,,,,,,,163,001,2024_Feb_14_1343,SpeechDraft1Carolyn_lessNoise_PlusLocalization,2021.2.3,60.09969802827215,
traps.wav,traps.mpg,traps,6,AV,Pink_Noise_6_1.wav,Pink_Noise_6_2.wav,,,,,,,,,,,,,,,0,45,45,113,,,,,,,,,,,,,,,,,,,,,,,354.11127615114674,None,355.62760303076357,None,357.0110529861413,None,trust,357.0110529861413,None,return,7.394591284915805,357.0945044788532,None,,,,,,,,,,,,,,,,,,,,,,,,,,,,,,,,,,,,,,,163,001,2024_Feb_14_1343,SpeechDraft1Carolyn_lessNoise_PlusLocalization,2021.2.3,60.09969802827215,
freak.wav,freak.mpg,freak,5,A,Pink_Noise_5_1.wav,Pink_Noise_5_2.wav,,,,,,,,,,,,,,,0,46,46,28,,,,,,,,,,,,,,,,,,,,,,,364.51117016980425,None,366.0276295337826,None,367.41119066718966,None,??,367.41119066718966,None,return,1.4266053000465035,367.49447243195027,None,,,,,,,,,,,,,,,,,,,,,,,,,,,,,,,,,,,,,,,163,001,2024_Feb_14_1343,SpeechDraft1Carolyn_lessNoise_PlusLocalization,2021.2.3,60.09969802827215,
funk.wav,funk.mpg,funk,3,AV,Pink_Noise_3_1.wav,Pink_Noise_3_2.wav,,,,,,,,,,,,,,,0,47,47,99,,,,,,,,,,,,,,,,,,,,,,,368.9445553831756,None,370.46094691194594,None,371.8444010829553,None,funk,371.8444010829553,None,return,3.9372325660660863,371.9278680142015,None,,,,,,,,,,,,,,,,,,,,,,,,,,,,,,,,,,,,,,,163,001,2024_Feb_14_1343,SpeechDraft1Carolyn_lessNoise_PlusLocalization,2021.2.3,60.09969802827215,
gang.wav,gang.mpg,gang,5,A,Pink_Noise_5_1.wav,Pink_Noise_5_2.wav,,,,,,,,,,,,,,,0,48,48,54,,,,,,,,,,,,,,,,,,,,,,,375.894664905034,None,377.41094244318083,None,378.7944468301721,None,arrow,378.7944468301721,None,return,4.075178064871579,378.87794529413804,None,,,,,,,,,,,,,,,,,,,,,,,,,,,,,,,,,,,,,,,163,001,2024_Feb_14_1343,SpeechDraft1Carolyn_lessNoise_PlusLocalization,2021.2.3,60.09969802827215,
count.wav,count.mpg,count,1,A,Pink_Noise_1_1.wav,Pink_Noise_1_2.wav,,,,,,,,,,,,,,,0,49,49,8,,,,,,,,,,,,,,,,,,,,,,,382.9780002278276,None,384.49440470477566,None,385.87788564385846,None,"couny
",385.87788564385846,None,return,7.119852012954652,385.9612479121424,None,,,,,,,,,,,,,,,,,,,,,,,,,,,,,,,,,,,,,,,163,001,2024_Feb_14_1343,SpeechDraft1Carolyn_lessNoise_PlusLocalization,2021.2.3,60.09969802827215,
fame.wav,fame.mpg,fame,3,AV,Pink_Noise_3_1.wav,Pink_Noise_3_2.wav,,,,,,,,,,,,,,,0,50,50,104,,,,,,,,,,,,,,,,,,,,,,,393.1111690690741,None,394.62751279911026,None,396.01125433994457,None,"fame
",396.01125433994457,None,return,5.034536002203822,396.0945549090393,None,,,,,,,,,,,,,,,,,,,,,,,,,,,,,,,,,,,,,,,163,001,2024_Feb_14_1343,SpeechDraft1Carolyn_lessNoise_PlusLocalization,2021.2.3,60.09969802827215,
clock.wav,clock.mpg,clock,1,A,Pink_Noise_1_1.wav,Pink_Noise_1_2.wav,,,,,,,,,,,,,,,0,51,51,36,,,,,,,,,,,,,,,,,,,,,,,401.1613653381355,None,402.67769468110055,None,404.0612346418202,None,"clocl
",404.0612346418202,None,return,2.1204050318337977,404.144702443853,None,,,,,,,,,,,,,,,,,,,,,,,,,,,,,,,,,,,,,,,163,001,2024_Feb_14_1343,SpeechDraft1Carolyn_lessNoise_PlusLocalization,2021.2.3,60.09969802827215,
grail.wav,grail.mpg,grail,3,AV,Pink_Noise_3_1.wav,Pink_Noise_3_2.wav,,,,,,,,,,,,,,,0,52,52,118,,,,,,,,,,,,,,,,,,,,,,,406.2945651570335,None,407.81089778477326,None,409.19448728486896,None,"??
",409.19448728486896,None,return,1.6031023398973048,409.27800534199923,None,,,,,,,,,,,,,,,,,,,,,,,,,,,,,,,,,,,,,,,163,001,2024_Feb_14_1343,SpeechDraft1Carolyn_lessNoise_PlusLocalization,2021.2.3,60.09969802827215,
coin.wav,coin.mpg,coin,4,AV,Pink_Noise_4_1.wav,Pink_Noise_4_2.wav,,,,,,,,,,,,,,,0,53,53,89,,,,,,,,,,,,,,,,,,,,,,,410.9113365900703,None,412.4276004158892,None,413.81116476189345,None,"toy
",413.81116476189345,None,return,3.034580819774419,413.8945275549777,None,,,,,,,,,,,,,,,,,,,,,,,,,,,,,,,,,,,,,,,163,001,2024_Feb_14_1343,SpeechDraft1Carolyn_lessNoise_PlusLocalization,2021.2.3,60.09969802827215,
clutch.wav,clutch.mpg,clutch,5,A,Pink_Noise_5_1.wav,Pink_Noise_5_2.wav,,,,,,,,,,,,,,,0,54,54,37,,,,,,,,,,,,,,,,,,,,,,,416.9612457579933,None,418.47745605092496,None,419.8613564441912,None,??//,419.8613564441912,None,return,1.0325660319067538,419.9446101919748,None,,,,,,,,,,,,,,,,,,,,,,,,,,,,,,,,,,,,,,,163,001,2024_Feb_14_1343,SpeechDraft1Carolyn_lessNoise_PlusLocalization,2021.2.3,60.09969802827215,
eve.wav,eve.mpg,eve,4,AV,Pink_Noise_4_1.wav,Pink_Noise_4_2.wav,,,,,,,,,,,,,,,0,55,55,111,,,,,,,,,,,,,,,,,,,,,,,420.9945544498041,None,422.51099909003824,None,423.89452906278893,None,/???,423.89452906278893,None,return,1.6233250303193927,423.97786497790366,None,,,,,,,,,,,,,,,,,,,,,,,,,,,,,,,,,,,,,,,163,001,2024_Feb_14_1343,SpeechDraft1Carolyn_lessNoise_PlusLocalization,2021.2.3,60.09969802827215,
thrown.wav,thrown.mpg,thrown,3,A,Pink_Noise_3_1.wav,Pink_Noise_3_2.wav,,,,,,,,,,,,,,,0,56,56,56,,,,,,,,,,,,,,,,,,,,,,,425.6279399781488,None,427.1443288801238,None,428.5279354560189,None,toze,428.5279354560189,None,return,2.2220564647577703,428.61123463418335,None,,,,,,,,,,,,,,,,,,,,,,,,,,,,,,,,,,,,,,,163,001,2024_Feb_14_1343,SpeechDraft1Carolyn_lessNoise_PlusLocalization,2021.2.3,60.09969802827215,
stone.wav,stone.mpg,stone,5,AV,Pink_Noise_5_1.wav,Pink_Noise_5_2.wav,,,,,,,,,,,,,,,0,57,57,63,,,,,,,,,,,,,,,,,,,,,,,430.8613818651065,None,432.3609874038957,None,433.74454727675766,None,snow,433.74454727675766,None,return,3.22912267036736,433.827966991812,None,,,,,,,,,,,,,,,,,,,,,,,,,,,,,,,,,,,,,,,163,001,2024_Feb_14_1343,SpeechDraft1Carolyn_lessNoise_PlusLocalization,2021.2.3,60.09969802827215,
food.wav,food.mpg,food,1,AV,Pink_Noise_1_1.wav,Pink_Noise_1_2.wav,,,,,,,,,,,,,,,0,58,58,66,,,,,,,,,,,,,,,,,,,,,,,437.0779417329468,None,438.5942974681966,None,439.97781650116667,None,"food
",439.97781650116667,None,return,2.403672066051513,440.0614174460061,None,,,,,,,,,,,,,,,,,,,,,,,,,,,,,,,,,,,,,,,163,001,2024_Feb_14_1343,SpeechDraft1Carolyn_lessNoise_PlusLocalization,2021.2.3,60.09969802827215,
drive.wav,drive.mpg,drive,2,A,Pink_Noise_2_1.wav,Pink_Noise_2_2.wav,,,,,,,,,,,,,,,0,59,59,13,,,,,,,,,,,,,,,,,,,,,,,442.49467853084207,None,444.02758954279125,None,445.4112575398758,None,drove,445.4112575398758,None,return,3.466422313824296,445.4947296278551,None,,,,,,,,,,,,,,,,,,,,,,,,,,,,,,,,,,,,,,,163,001,2024_Feb_14_1343,SpeechDraft1Carolyn_lessNoise_PlusLocalization,2021.2.3,60.09969802827215,
unit.wav,unit.mpg,unit,4,A,Pink_Noise_4_1.wav,Pink_Noise_4_2.wav,,,,,,,,,,,,,,,0,60,60,7,,,,,,,,,,,,,,,,,,,,,,,448.97799161309376,None,450.49430147279054,None,451.8779946421273,None,dg,451.8779946421273,None,return,0.7597925011068583,451.9613153222017,None,,,,,,,,,,,,,,,,,,,,,,,,,,,,,,,,,,,,,,,163,001,2024_Feb_14_1343,SpeechDraft1Carolyn_lessNoise_PlusLocalization,2021.2.3,60.09969802827215,
glass.wav,glass.mpg,glass,5,AV,Pink_Noise_5_1.wav,Pink_Noise_5_2.wav,,,,,,,,,,,,,,,0,61,61,116,,,,,,,,,,,,,,,,,,,,,,,452.74457597220317,None,454.26106442091987,None,455.6444481178187,None,grrrr,455.6444481178187,None,return,1.5053278962150216,455.72798975603655,None,,,,,,,,,,,,,,,,,,,,,,,,,,,,,,,,,,,,,,,163,001,2024_Feb_14_1343,SpeechDraft1Carolyn_lessNoise_PlusLocalization,2021.2.3,60.09969802827215,
foam.wav,foam.mpg,foam,3,A,Pink_Noise_3_1.wav,Pink_Noise_3_2.wav,,,,,,,,,,,,,,,0,62,62,48,,,,,,,,,,,,,,,,,,,,,,,457.26122488081455,None,458.7776554808952,None,460.16129626892507,None,foam,460.16129626892507,None,return,3.9805738176219165,460.24458494083956,None,,,,,,,,,,,,,,,,,,,,,,,,,,,,,,,,,,,,,,,163,001,2024_Feb_14_1343,SpeechDraft1Carolyn_lessNoise_PlusLocalization,2021.2.3,60.09969802827215,
coup.wav,coup.mpg,coup,6,AV,Pink_Noise_6_1.wav,Pink_Noise_6_2.wav,,,,,,,,,,,,,,,0,63,63,108,,,,,,,,,,,,,,,,,,,,,,,464.2446675579995,None,465.76099373586476,None,467.14461613306776,None,clue,467.14461613306776,None,return,2.4131682268343866,467.2280047647655,None,,,,,,,,,,,,,,,,,,,,,,,,,,,,,,,,,,,,,,,163,001,2024_Feb_14_1343,SpeechDraft1Carolyn_lessNoise_PlusLocalization,2021.2.3,60.09969802827215,
please.wav,please.mpg,please,3,A,Pink_Noise_3_1.wav,Pink_Noise_3_2.wav,,,,,,,,,,,,,,,0,64,64,0,,,,,,,,,,,,,,,,,,,,,,,469.66144307889044,None,471.1776667581871,None,472.5612683459185,None,this,472.5612683459185,None,return,1.9085185341536999,472.6445776261389,None,,,,,,,,,,,,,,,,,,,,,,,,,,,,,,,,,,,,,,,163,001,2024_Feb_14_1343,SpeechDraft1Carolyn_lessNoise_PlusLocalization,2021.2.3,60.09969802827215,
solve.wav,solve.mpg,solve,6,AV,Pink_Noise_6_1.wav,Pink_Noise_6_2.wav,,,,,,,,,,,,,,,0,65,65,90,,,,,,,,,,,,,,,,,,,,,,,474.57800181396306,None,476.0953657180071,None,477.4778979457915,None,doll,477.4778979457915,None,return,1.9597918619401753,477.5612882510759,None,,,,,,,,,,,,,,,,,,,,,,,,,,,,,,,,,,,,,,,163,001,2024_Feb_14_1343,SpeechDraft1Carolyn_lessNoise_PlusLocalization,2021.2.3,60.09969802827215,
duet.wav,duet.mpg,duet,6,A,Pink_Noise_6_1.wav,Pink_Noise_6_2.wav,,,,,,,,,,,,,,,0,66,66,25,,,,,,,,,,,,,,,,,,,,,,,479.5446388851851,None,481.06114607304335,None,482.44462689803913,None,?????????,482.44462689803913,None,return,1.8971642144024372,482.52799501502886,None,,,,,,,,,,,,,,,,,,,,,,,,,,,,,,,,,,,,,,,163,001,2024_Feb_14_1343,SpeechDraft1Carolyn_lessNoise_PlusLocalization,2021.2.3,60.09969802827215,
frog.wav,frog.mpg,frog,2,AV,Pink_Noise_2_1.wav,Pink_Noise_2_2.wav,,,,,,,,,,,,,,,0,67,67,83,,,,,,,,,,,,,,,,,,,,,,,484.44467972498387,None,485.961039443966,None,487.3446475449018,None,"frog
",487.3446475449018,None,return,2.668995657004416,487.4280872819945,None,,,,,,,,,,,,,,,,,,,,,,,,,,,,,,,,,,,,,,,163,001,2024_Feb_14_1343,SpeechDraft1Carolyn_lessNoise_PlusLocalization,2021.2.3,60.09969802827215,
clay.wav,clay.mpg,clay,2,A,Pink_Noise_2_1.wav,Pink_Noise_2_2.wav,,,,,,,,,,,,,,,0,68,68,43,,,,,,,,,,,,,,,,,,,,,,,490.1280599129386,None,491.64438116317615,None,493.0280353501439,None,clay,493.0280353501439,None,return,2.0577147020958364,493.1115073398687,None,,,,,,,,,,,,,,,,,,,,,,,,,,,,,,,,,,,,,,,163,001,2024_Feb_14_1343,SpeechDraft1Carolyn_lessNoise_PlusLocalization,2021.2.3,60.09969802827215,
float.wav,float.mpg,float,1,AV,Pink_Noise_1_1.wav,Pink_Noise_1_2.wav,,,,,,,,,,,,,,,0,69,69,101,,,,,,,,,,,,,,,,,,,,,,,495.1947898021899,None,496.7111154999584,None,498.09462397918105,None,"flot
",498.09462397918105,None,return,2.335049461107701,498.17802189989015,None,,,,,,,,,,,,,,,,,,,,,,,,,,,,,,,,,,,,,,,163,001,2024_Feb_14_1343,SpeechDraft1Carolyn_lessNoise_PlusLocalization,2021.2.3,60.09969802827215,
glide.wav,glide.mpg,glide,5,A,Pink_Noise_5_1.wav,Pink_Noise_5_2.wav,,,,,,,,,,,,,,,0,70,70,34,,,,,,,,,,,,,,,,,,,,,,,500.5447322479449,None,502.0611090972088,None,503.4446716639213,None,fly,503.4446716639213,None,return,2.0731055638752878,503.52813248476014,None,,,,,,,,,,,,,,,,,,,,,,,,,,,,,,,,,,,,,,,163,001,2024_Feb_14_1343,SpeechDraft1Carolyn_lessNoise_PlusLocalization,2021.2.3,60.09969802827215,
flake.wav,flake.mpg,flake,1,A,Pink_Noise_1_1.wav,Pink_Noise_1_2.wav,,,,,,,,,,,,,,,0,71,71,23,,,,,,,,,,,,,,,,,,,,,,,505.62796425586566,None,507.1460529929027,None,508.5279362909496,None,flake,508.5279362909496,None,return,7.2379283723421395,508.6113187139854,None,,,,,,,,,,,,,,,,,,,,,,,,,,,,,,,,,,,,,,,163,001,2024_Feb_14_1343,SpeechDraft1Carolyn_lessNoise_PlusLocalization,2021.2.3,60.09969802827215,
choir.wav,choir.mpg,choir,6,A,Pink_Noise_6_1.wav,Pink_Noise_6_2.wav,,,,,,,,,,,,,,,0,72,72,16,,,,,,,,,,,,,,,,,,,,,,,515.8781090360135,None,517.3945289351977,None,518.7782058827579,None,???????,518.7782058827579,None,return,2.123776549939066,518.8614635849372,None,,,,,,,,,,,,,,,,,,,,,,,,,,,,,,,,,,,,,,,163,001,2024_Feb_14_1343,SpeechDraft1Carolyn_lessNoise_PlusLocalization,2021.2.3,60.09969802827215,
cup.wav,cup.mpg,cup,2,A,Pink_Noise_2_1.wav,Pink_Noise_2_2.wav,,,,,,,,,,,,,,,0,73,73,12,,,,,,,,,,,,,,,,,,,,,,,521.0114279608242,None,522.5277013340965,None,523.9115263670683,None,cup,523.9115263670683,None,return,1.9823486437089741,523.9947995590046,None,,,,,,,,,,,,,,,,,,,,,,,,,,,,,,,,,,,,,,,163,001,2024_Feb_14_1343,SpeechDraft1Carolyn_lessNoise_PlusLocalization,2021.2.3,60.09969802827215,
pants.wav,pants.mpg,pants,4,AV,Pink_Noise_4_1.wav,Pink_Noise_4_2.wav,,,,,,,,,,,,,,,0,74,74,71,,,,,,,,,,,,,,,,,,,,,,,525.9947840319946,None,527.511121309828,None,528.8945780447684,None,"rinse
",528.8945780447684,None,return,3.687012257054448,528.9780773660168,None,,,,,,,,,,,,,,,,,,,,,,,,,,,,,,,,,,,,,,,163,001,2024_Feb_14_1343,SpeechDraft1Carolyn_lessNoise_PlusLocalization,2021.2.3,60.09969802827215,
dig.wav,dig.mpg,dig,4,A,Pink_Noise_4_1.wav,Pink_Noise_4_2.wav,,,,,,,,,,,,,,,0,75,75,4,,,,,,,,,,,,,,,,,,,,,,,532.694952567108,None,534.2112089172006,None,535.5949167357758,None,dig,535.5949167357758,None,return,3.4831817229278386,535.6780242971145,None,,,,,,,,,,,,,,,,,,,,,,,,,,,,,,,,,,,,,,,163,001,2024_Feb_14_1343,SpeechDraft1Carolyn_lessNoise_PlusLocalization,2021.2.3,60.09969802827215,
bean.wav,bean.mpg,bean,5,A,Pink_Noise_5_1.wav,Pink_Noise_5_2.wav,,,,,,,,,,,,,,,0,76,76,31,,,,,,,,,,,,,,,,,,,,,,,539.1780408839695,None,540.6944334590808,None,542.0781429340132,None,????,542.0781429340132,None,return,1.9998986069113016,542.1613922300749,None,,,,,,,,,,,,,,,,,,,,,,,,,,,,,,,,,,,,,,,163,001,2024_Feb_14_1343,SpeechDraft1Carolyn_lessNoise_PlusLocalization,2021.2.3,60.09969802827215,
dread.wav,dread.mpg,dread,1,A,Pink_Noise_1_1.wav,Pink_Noise_1_2.wav,,,,,,,,,,,,,,,0,77,77,35,,,,,,,,,,,,,,,,,,,,,,,544.1781073450111,None,545.711136631202,None,547.0947253247723,None,"dread
",547.0947253247723,None,return,2.703015345148742,547.1780845080502,None,,,,,,,,,,,,,,,,,,,,,,,,,,,,,,,,,,,,,,,163,001,2024_Feb_14_1343,SpeechDraft1Carolyn_lessNoise_PlusLocalization,2021.2.3,60.09969802827215,
burn.wav,burn.mpg,burn,2,A,Pink_Noise_2_1.wav,Pink_Noise_2_2.wav,,,,,,,,,,,,,,,0,78,78,30,,,,,,,,,,,,,,,,,,,,,,,549.9115425688215,None,551.4278610912152,None,552.8114900840446,None,burn,552.8114900840446,None,return,3.090415886603296,552.8948198677972,None,,,,,,,,,,,,,,,,,,,,,,,,,,,,,,,,,,,,,,,163,001,2024_Feb_14_1343,SpeechDraft1Carolyn_lessNoise_PlusLocalization,2021.2.3,60.09969802827215,
bump.wav,bump.mpg,bump,5,A,Pink_Noise_5_1.wav,Pink_Noise_5_2.wav,,,,,,,,,,,,,,,0,79,79,55,,,,,,,,,,,,,,,,,,,,,,,556.0114626921713,None,557.561243631877,None,558.9448341690004,None,bark,558.9448341690004,None,return,2.565056459978223,559.0281059970148,None,,,,,,,,,,,,,,,,,,,,,,,,,,,,,,,,,,,,,,,163,001,2024_Feb_14_1343,SpeechDraft1Carolyn_lessNoise_PlusLocalization,2021.2.3,60.09969802827215,
belch.wav,belch.mpg,belch,3,AV,Pink_Noise_3_1.wav,Pink_Noise_3_2.wav,,,,,,,,,,,,,,,0,80,80,106,,,,,,,,,,,,,,,,,,,,,,,561.6114331078716,None,563.1277862931602,None,564.5113287097774,None,belch,564.5113287097774,None,return,4.00638838019222,564.594870837871,None,,,,,,,,,,,,,,,,,,,,,,,,,,,,,,,,,,,,,,,163,001,2024_Feb_14_1343,SpeechDraft1Carolyn_lessNoise_PlusLocalization,2021.2.3,60.09969802827215,
book.wav,book.mpg,book,2,A,Pink_Noise_2_1.wav,Pink_Noise_2_2.wav,,,,,,,,,,,,,,,0,81,81,18,,,,,,,,,,,,,,,,,,,,,,,568.6281845211051,None,570.1444281581789,None,571.5281655108556,None,book,571.5281655108556,None,return,2.7736734258942306,571.6114840400405,None,,,,,,,,,,,,,,,,,,,,,,,,,,,,,,,,,,,,,,,163,001,2024_Feb_14_1343,SpeechDraft1Carolyn_lessNoise_PlusLocalization,2021.2.3,60.09969802827215,
eel.wav,eel.mpg,eel,6,AV,Pink_Noise_6_1.wav,Pink_Noise_6_2.wav,,,,,,,,,,,,,,,0,82,82,92,,,,,,,,,,,,,,,,,,,,,,,574.4116803482175,None,575.9279212551191,None,577.31136499485,None,"eel
",577.31136499485,None,return,3.286272130906582,577.3948286171071,None,,,,,,,,,,,,,,,,,,,,,,,,,,,,,,,,,,,,,,,163,001,2024_Feb_14_1343,SpeechDraft1Carolyn_lessNoise_PlusLocalization,2021.2.3,60.09969802827215,
card.wav,card.mpg,card,2,AV,Pink_Noise_2_1.wav,Pink_Noise_2_2.wav,,,,,,,,,,,,,,,0,83,83,112,,,,,,,,,,,,,,,,,,,,,,,580.7115553868935,None,582.2444732571021,None,583.6281612701714,None,"card
",583.6281612701714,None,return,2.4174899947829545,583.7116020689718,None,,,,,,,,,,,,,,,,,,,,,,,,,,,,,,,,,,,,,,,163,001,2024_Feb_14_1343,SpeechDraft1Carolyn_lessNoise_PlusLocalization,2021.2.3,60.09969802827215,
wheat.wav,wheat.mpg,wheat,5,AV,Pink_Noise_5_1.wav,Pink_Noise_5_2.wav,,,,,,,,,,,,,,,0,84,84,110,,,,,,,,,,,,,,,,,,,,,,,586.1615380197763,None,587.6946159419604,None,589.0781406098977,None,"wghh
",589.0781406098977,None,return,2.5676556467078626,589.1614447399043,None,,,,,,,,,,,,,,,,,,,,,,,,,,,,,,,,,,,,,,,163,001,2024_Feb_14_1343,SpeechDraft1Carolyn_lessNoise_PlusLocalization,2021.2.3,60.09969802827215,
vest.wav,vest.mpg,vest,1,A,Pink_Noise_1_1.wav,Pink_Noise_1_2.wav,,,,,,,,,,,,,,,0,85,85,6,,,,,,,,,,,,,,,,,,,,,,,591.7613667719997,None,593.27919479087,None,594.6615148298442,None,"best
",594.6615148298442,None,return,2.9362841439433396,594.744813373778,None,,,,,,,,,,,,,,,,,,,,,,,,,,,,,,,,,,,,,,,163,001,2024_Feb_14_1343,SpeechDraft1Carolyn_lessNoise_PlusLocalization,2021.2.3,60.09969802827215,
buy.wav,buy.mpg,buy,3,A,Pink_Noise_3_1.wav,Pink_Noise_3_2.wav,,,,,,,,,,,,,,,0,86,86,44,,,,,,,,,,,,,,,,,,,,,,,597.711816906929,None,599.2444807728752,None,600.6282034111209,None,dfi,600.6282034111209,None,return,2.4254618482664227,600.711614980828,None,,,,,,,,,,,,,,,,,,,,,,,,,,,,,,,,,,,,,,,163,001,2024_Feb_14_1343,SpeechDraft1Carolyn_lessNoise_PlusLocalization,2021.2.3,60.09969802827215,
cling.wav,cling.mpg,cling,1,AV,Pink_Noise_1_1.wav,Pink_Noise_1_2.wav,,,,,,,,,,,,,,,0,87,87,103,,,,,,,,,,,,,,,,,,,,,,,603.1616462380625,None,604.677936729975,None,606.061424206011,None,"cling
",606.061424206011,None,return,3.784177803900093,606.1448919931427,None,,,,,,,,,,,,,,,,,,,,,,,,,,,,,,,,,,,,,,,163,001,2024_Feb_14_1343,SpeechDraft1Carolyn_lessNoise_PlusLocalization,2021.2.3,60.09969802827215,
chest.wav,chest.mpg,chest,5,AV,Pink_Noise_5_1.wav,Pink_Noise_5_2.wav,,,,,,,,,,,,,,,0,88,88,72,,,,,,,,,,,,,,,,,,,,,,,609.96149993781,None,611.477907220833,None,612.8615056881681,None,chest,612.8615056881681,None,return,3.1442189048975706,612.9448712798767,None,,,,,,,,,,,,,,,,,,,,,,,,,,,,,,,,,,,,,,,163,001,2024_Feb_14_1343,SpeechDraft1Carolyn_lessNoise_PlusLocalization,2021.2.3,60.09969802827215,
clap.wav,clap.mpg,clap,5,A,Pink_Noise_5_1.wav,Pink_Noise_5_2.wav,,,,,,,,,,,,,,,0,89,89,53,,,,,,,,,,,,,,,,,,,,,,,616.1115864440799,None,617.6279290542006,None,619.0114934141748,None,bra;,619.0114934141748,None,return,3.4904170013032854,619.09492317494,None,,,,,,,,,,,,,,,,,,,,,,,,,,,,,,,,,,,,,,,163,001,2024_Feb_14_1343,SpeechDraft1Carolyn_lessNoise_PlusLocalization,2021.2.3,60.09969802827215,
creek.wav,creek.mpg,creek,4,A,Pink_Noise_4_1.wav,Pink_Noise_4_2.wav,,,,,,,,,,,,,,,0,90,90,40,,,,,,,,,,,,,,,,,,,,,,,622.6115207029507,None,624.1446978738531,None,625.5282753710635,None,shpe,625.5282753710635,None,return,2.7657047458924353,625.6115599581972,None,,,,,,,,,,,,,,,,,,,,,,,,,,,,,,,,,,,,,,,163,001,2024_Feb_14_1343,SpeechDraft1Carolyn_lessNoise_PlusLocalization,2021.2.3,60.09969802827215,
click.wav,click.mpg,click,1,AV,Pink_Noise_1_1.wav,Pink_Noise_1_2.wav,,,,,,,,,,,,,,,0,91,91,77,,,,,,,,,,,,,,,,,,,,,,,628.3948662909679,None,629.9114004378207,None,631.2948119989596,None,xlick,631.2948119989596,None,return,4.054979336913675,631.3782145809382,None,,,,,,,,,,,,,,,,,,,,,,,,,,,,,,,,,,,,,,,163,001,2024_Feb_14_1343,SpeechDraft1Carolyn_lessNoise_PlusLocalization,2021.2.3,60.09969802827215,
glad.wav,glad.mpg,glad,1,A,Pink_Noise_1_1.wav,Pink_Noise_1_2.wav,,,,,,,,,,,,,,,0,92,92,17,,,,,,,,,,,,,,,,,,,,,,,635.4615193791687,None,636.9778985748999,None,638.3615270769224,None,"glad
",638.3615270769224,None,return,6.2361981882713735,638.4448996097781,None,,,,,,,,,,,,,,,,,,,,,,,,,,,,,,,,,,,,,,,163,001,2024_Feb_14_1343,SpeechDraft1Carolyn_lessNoise_PlusLocalization,2021.2.3,60.09969802827215,
greek.wav,greek.mpg,greek,2,AV,Pink_Noise_2_1.wav,Pink_Noise_2_2.wav,,,,,,,,,,,,,,,0,93,93,119,,,,,,,,,,,,,,,,,,,,,,,644.7116203801706,None,646.2279216391034,None,647.6116069997661,None,greeek,647.6116069997661,None,return,3.8261933200992644,647.694895286113,None,,,,,,,,,,,,,,,,,,,,,,,,,,,,,,,,,,,,,,,163,001,2024_Feb_14_1343,SpeechDraft1Carolyn_lessNoise_PlusLocalization,2021.2.3,60.09969802827215,
feast.wav,feast.mpg,feast,6,A,Pink_Noise_6_1.wav,Pink_Noise_6_2.wav,,,,,,,,,,,,,,,0,94,94,32,,,,,,,,,,,,,,,,,,,,,,,651.5448802951723,None,653.077989119105,None,654.4617619141936,None,??????,654.4617619141936,None,return,2.3760681310668588,654.5450457450934,None,,,,,,,,,,,,,,,,,,,,,,,,,,,,,,,,,,,,,,,163,001,2024_Feb_14_1343,SpeechDraft1Carolyn_lessNoise_PlusLocalization,2021.2.3,60.09969802827215,
read.wav,read.mpg,read,5,AV,Pink_Noise_5_1.wav,Pink_Noise_5_2.wav,,,,,,,,,,,,,,,0,95,95,60,,,,,,,,,,,,,,,,,,,,,,,656.9449005480856,None,658.4612424760126,None,659.844887516927,None,read,659.844887516927,None,return,2.2648468078114092,659.9283276791684,None,,,,,,,,,,,,,,,,,,,,,,,,,,,,,,,,,,,,,,,163,001,2024_Feb_14_1343,SpeechDraft1Carolyn_lessNoise_PlusLocalization,2021.2.3,60.09969802827215,
flood.wav,flood.mpg,flood,4,AV,Pink_Noise_4_1.wav,Pink_Noise_4_2.wav,,,,,,,,,,,,,,,0,96,96,115,,,,,,,,,,,,,,,,,,,,,,,662.2115761288442,None,663.7613373198546,None,665.1448457259685,None,flow,665.1448457259685,None,return,3.660882287658751,665.2282684328966,None,,,,,,,,,,,,,,,,,,,,,,,,,,,,,,,,,,,,,,,163,001,2024_Feb_14_1343,SpeechDraft1Carolyn_lessNoise_PlusLocalization,2021.2.3,60.09969802827215,
check.wav,check.mpg,check,2,AV,Pink_Noise_2_1.wav,Pink_Noise_2_2.wav,,,,,,,,,,,,,,,0,97,97,78,,,,,,,,,,,,,,,,,,,,,,,668.9116154098883,None,670.4613502379507,None,671.8450621301308,None,"check
",671.8450621301308,None,return,3.752808074001223,671.9282913799398,None,,,,,,,,,,,,,,,,,,,,,,,,,,,,,,,,,,,,,,,163,001,2024_Feb_14_1343,SpeechDraft1Carolyn_lessNoise_PlusLocalization,2021.2.3,60.09969802827215,
blush.wav,blush.mpg,blush,2,AV,Pink_Noise_2_1.wav,Pink_Noise_2_2.wav,,,,,,,,,,,,,,,0,98,98,70,,,,,,,,,,,,,,,,,,,,,,,675.7116500418633,None,677.2280671698973,None,678.6114928610623,None,flush,678.6114928610623,None,return,4.794214082881808,678.6948647168465,None,,,,,,,,,,,,,,,,,,,,,,,,,,,,,,,,,,,,,,,163,001,2024_Feb_14_1343,SpeechDraft1Carolyn_lessNoise_PlusLocalization,2021.2.3,60.09969802827215,
foot.wav,foot.mpg,foot,3,AV,Pink_Noise_3_1.wav,Pink_Noise_3_2.wav,,,,,,,,,,,,,,,0,99,99,96,,,,,,,,,,,,,,,,,,,,,,,683.5115982191637,None,685.0446455460042,None,686.4282223042101,None,fooy,686.4282223042101,None,return,3.7135259388014674,686.5116616110317,None,,,,,,,,,,,,,,,,,,,,,,,,,,,,,,,,,,,,,,,163,001,2024_Feb_14_1343,SpeechDraft1Carolyn_lessNoise_PlusLocalization,2021.2.3,60.09969802827215,
fur.wav,fur.mpg,fur,2,AV,Pink_Noise_2_1.wav,Pink_Noise_2_2.wav,,,,,,,,,,,,,,,0,100,100,67,,,,,,,,,,,,,,,,,,,,,,,690.2449910431169,None,691.7780088558793,None,693.1616855710745,None,fur,693.1616855710745,None,return,3.964122819714248,693.244966742117,None,,,,,,,,,,,,,,,,,,,,,,,,,,,,,,,,,,,,,,,163,001,2024_Feb_14_1343,SpeechDraft1Carolyn_lessNoise_PlusLocalization,2021.2.3,60.09969802827215,
bay.wav,bay.mpg,bay,1,A,Pink_Noise_1_1.wav,Pink_Noise_1_2.wav,,,,,,,,,,,,,,,0,101,101,42,,,,,,,,,,,,,,,,,,,,,,,697.2283326829784,None,698.7450303337537,None,700.1283125202172,None,bay,700.1283125202172,None,return,4.949537682812661,700.2116441228427,None,,,,,,,,,,,,,,,,,,,,,,,,,,,,,,,,,,,,,,,163,001,2024_Feb_14_1343,SpeechDraft1Carolyn_lessNoise_PlusLocalization,2021.2.3,60.09969802827215,
warmth.wav,warmth.mpg,warmth,5,AV,Pink_Noise_5_1.wav,Pink_Noise_5_2.wav,,,,,,,,,,,,,,,0,102,102,109,,,,,,,,,,,,,,,,,,,,,,,705.1784635088407,None,706.6946712802164,None,708.078377597034,None,??????,708.078377597034,None,return,1.7592603517696261,708.16182861384,None,,,,,,,,,,,,,,,,,,,,,,,,,,,,,,,,,,,,,,,163,001,2024_Feb_14_1343,SpeechDraft1Carolyn_lessNoise_PlusLocalization,2021.2.3,60.09969802827215,
date.wav,date.mpg,date,3,AV,Pink_Noise_3_1.wav,Pink_Noise_3_2.wav,,,,,,,,,,,,,,,0,103,103,62,,,,,,,,,,,,,,,,,,,,,,,709.9449950489216,None,711.461328512989,None,712.8450598102063,None,date,712.8450598102063,None,return,4.344853156711906,712.9282514490187,None,,,,,,,,,,,,,,,,,,,,,,,,,,,,,,,,,,,,,,,163,001,2024_Feb_14_1343,SpeechDraft1Carolyn_lessNoise_PlusLocalization,2021.2.3,60.09969802827215,
dawn.wav,dawn.mpg,dawn,3,A,Pink_Noise_3_1.wav,Pink_Noise_3_2.wav,,,,,,,,,,,,,,,0,104,104,59,,,,,,,,,,,,,,,,,,,,,,,717.2951196609065,None,718.8113624770194,None,720.1950600421987,None,dog,720.1950600421987,None,return,3.2987601030617952,720.2785116531886,None,,,,,,,,,,,,,,,,,,,,,,,,,,,,,,,,,,,,,,,163,001,2024_Feb_14_1343,SpeechDraft1Carolyn_lessNoise_PlusLocalization,2021.2.3,60.09969802827215,
bee.wav,bee.mpg,bee,6,AV,Pink_Noise_6_1.wav,Pink_Noise_6_2.wav,,,,,,,,,,,,,,,0,105,105,76,,,,,,,,,,,,,,,,,,,,,,,723.5950271920301,None,725.1114951348864,None,726.494901213795,None,???????????,726.494901213795,None,return,2.9108058069832623,726.578281106893,None,,,,,,,,,,,,,,,,,,,,,,,,,,,,,,,,,,,,,,,163,001,2024_Feb_14_1343,SpeechDraft1Carolyn_lessNoise_PlusLocalization,2021.2.3,60.09969802827215,
ban.wav,ban.mpg,ban,1,A,Pink_Noise_1_1.wav,Pink_Noise_1_2.wav,,,,,,,,,,,,,,,0,106,106,49,,,,,,,,,,,,,,,,,,,,,,,729.5120343351737,None,731.0280443378724,None,732.4117239681073,None,band,732.4117239681073,None,return,5.378069425933063,732.495009641163,None,,,,,,,,,,,,,,,,,,,,,,,,,,,,,,,,,,,,,,,163,001,2024_Feb_14_1343,SpeechDraft1Carolyn_lessNoise_PlusLocalization,2021.2.3,60.09969802827215,
ear.wav,ear.mpg,ear,6,AV,Pink_Noise_6_1.wav,Pink_Noise_6_2.wav,,,,,,,,,,,,,,,0,107,107,69,,,,,,,,,,,,,,,,,,,,,,,737.8950450289994,None,739.4112834278494,None,740.7950887591578,None,???,740.7950887591578,None,return,1.810670674778521,740.8784174579196,None,,,,,,,,,,,,,,,,,,,,,,,,,,,,,,,,,,,,,,,163,001,2024_Feb_14_1343,SpeechDraft1Carolyn_lessNoise_PlusLocalization,2021.2.3,60.09969802827215,
fowl.wav,fowl.mpg,fowl,2,AV,Pink_Noise_2_1.wav,Pink_Noise_2_2.wav,,,,,,,,,,,,,,,0,108,108,100,,,,,,,,,,,,,,,,,,,,,,,742.7126107001677,None,744.2447825958952,None,745.6284992410801,None,"ih
",745.6284992410801,None,return,2.7533966922201216,745.7117032017559,None,,,,,,,,,,,,,,,,,,,,,,,,,,,,,,,,,,,,,,,163,001,2024_Feb_14_1343,SpeechDraft1Carolyn_lessNoise_PlusLocalization,2021.2.3,60.09969802827215,
bruise.wav,bruise.mpg,bruise,5,AV,Pink_Noise_5_1.wav,Pink_Noise_5_2.wav,,,,,,,,,,,,,,,0,109,109,91,,,,,,,,,,,,,,,,,,,,,,,748.4950403021649,None,750.0446767811663,None,751.4283601390198,None,boo,751.4283601390198,None,return,2.3133085248991847,751.5118420650251,None,,,,,,,,,,,,,,,,,,,,,,,,,,,,,,,,,,,,,,,163,001,2024_Feb_14_1343,SpeechDraft1Carolyn_lessNoise_PlusLocalization,2021.2.3,60.09969802827215,
dish.wav,dish.mpg,dish,3,AV,Pink_Noise_3_1.wav,Pink_Noise_3_2.wav,,,,,,,,,,,,,,,0,110,110,81,,,,,,,,,,,,,,,,,,,,,,,753.8451762469485,None,755.3947966881096,None,756.7786505948752,None,"dish
",756.7786505948752,None,return,1.8833857411518693,756.8617119621485,None,,,,,,,,,,,,,,,,,,,,,,,,,,,,,,,,,,,,,,,163,001,2024_Feb_14_1343,SpeechDraft1Carolyn_lessNoise_PlusLocalization,2021.2.3,60.09969802827215,
edge.wav,edge.mpg,edge,1,AV,Pink_Noise_1_1.wav,Pink_Noise_1_2.wav,,,,,,,,,,,,,,,0,111,111,84,,,,,,,,,,,,,,,,,,,,,,,758.7783884280361,None,760.2954937308095,None,761.6783951278776,None,wsge,761.6783951278776,None,return,3.4394411616958678,761.7617411827669,None,,,,,,,,,,,,,,,,,,,,,,,,,,,,,,,,,,,,,,,163,001,2024_Feb_14_1343,SpeechDraft1Carolyn_lessNoise_PlusLocalization,2021.2.3,60.09969802827215,
gun.wav,gun.mpg,gun,2,A,Pink_Noise_2_1.wav,Pink_Noise_2_2.wav,,,,,,,,,,,,,,,0,112,112,5,,,,,,,,,,,,,,,,,,,,,,,765.2283624988049,None,766.7448023948818,None,768.1283343899995,None,gut,768.1283343899995,None,return,3.781374638900161,768.2117543849163,None,,,,,,,,,,,,,,,,,,,,,,,,,,,,,,,,,,,,,,,163,001,2024_Feb_14_1343,SpeechDraft1Carolyn_lessNoise_PlusLocalization,2021.2.3,60.09969802827215,
fond.wav,fond.mpg,fond,6,AV,Pink_Noise_6_1.wav,Pink_Noise_6_2.wav,,,,,,,,,,,,,,,0,113,113,85,,,,,,,,,,,,,,,,,,,,,,,772.0117737050168,None,773.5448237871751,None,774.9283521519974,None,???/,774.9283521519974,None,return,0.8372756158933043,775.0118257091381,None,,,,,,,,,,,,,,,,,,,,,,,,,,,,,,,,,,,,,,,163,001,2024_Feb_14_1343,SpeechDraft1Carolyn_lessNoise_PlusLocalization,2021.2.3,60.09969802827215,
coat.wav,coat.mpg,coat,3,AV,Pink_Noise_3_1.wav,Pink_Noise_3_2.wav,,,,,,,,,,,,,,,0,114,114,105,,,,,,,,,,,,,,,,,,,,,,,775.8784747319296,None,777.3949537631124,None,778.7783667189069,None,"caat
",778.7783667189069,None,return,3.8513058768585324,778.8617544621229,None,,,,,,,,,,,,,,,,,,,,,,,,,,,,,,,,,,,,,,,163,001,2024_Feb_14_1343,SpeechDraft1Carolyn_lessNoise_PlusLocalization,2021.2.3,60.09969802827215,
none.wav,none.mpg,none,2,AV,Pink_Noise_2_1.wav,Pink_Noise_2_2.wav,,,,,,,,,,,,,,,0,115,115,95,,,,,,,,,,,,,,,,,,,,,,,782.7452641441487,None,784.2623455962166,None,785.645143696107,None,nun,785.645143696107,None,return,1.8646657220087945,785.7284236871637,None,,,,,,,,,,,,,,,,,,,,,,,,,,,,,,,,,,,,,,,163,001,2024_Feb_14_1343,SpeechDraft1Carolyn_lessNoise_PlusLocalization,2021.2.3,60.09969802827215,
tank.wav,tank.mpg,tank,1,A,Pink_Noise_1_1.wav,Pink_Noise_1_2.wav,,,,,,,,,,,,,,,0,116,116,45,,,,,,,,,,,,,,,,,,,,,,,787.611668759957,None,789.1447874000296,None,790.5284334290773,None,"teg
",790.5284334290773,None,return,2.5012887539342046,790.6118134879507,None,,,,,,,,,,,,,,,,,,,,,,,,,,,,,,,,,,,,,,,163,001,2024_Feb_14_1343,SpeechDraft1Carolyn_lessNoise_PlusLocalization,2021.2.3,60.09969802827215,
sake.wav,sake.mpg,sake,6,A,Pink_Noise_6_1.wav,Pink_Noise_6_2.wav,,,,,,,,,,,,,,,0,117,117,33,,,,,,,,,,,,,,,,,,,,,,,793.1451033158228,None,794.6782289152034,None,796.0617099311203,None,???????????????,796.0617099311203,None,return,3.264015062712133,796.1451156679541,None,,,,,,,,,,,,,,,,,,,,,,,,,,,,,,,,,,,,,,,163,001,2024_Feb_14_1343,SpeechDraft1Carolyn_lessNoise_PlusLocalization,2021.2.3,60.09969802827215,
deem.wav,deem.mpg,deem,6,A,Pink_Noise_6_1.wav,Pink_Noise_6_2.wav,,,,,,,,,,,,,,,0,118,118,51,,,,,,,,,,,,,,,,,,,,,,,799.4285060809925,None,800.9614726421423,None,802.3450570148416,None,????????????????????,802.3450570148416,None,return,2.5247847186401486,802.4284400250763,None,,,,,,,,,,,,,,,,,,,,,,,,,,,,,,,,,,,,,,,163,001,2024_Feb_14_1343,SpeechDraft1Carolyn_lessNoise_PlusLocalization,2021.2.3,60.09969802827215,
golf.wav,golf.mpg,golf,6,AV,Pink_Noise_6_1.wav,Pink_Noise_6_2.wav,,,,,,,,,,,,,,,0,119,119,82,,,,,,,,,,,,,,,,,,,,,,,804.9784445618279,None,806.544774335809,None,807.9283296340145,None,??????????????????,807.9283296340145,None,return,1.89329065522179,808.0118029341102,None,,,,,,,,,,,,,,,,,,,,,,,,,,,,,,,,,,,,,,,163,001,2024_Feb_14_1343,SpeechDraft1Carolyn_lessNoise_PlusLocalization,2021.2.3,60.09969802827215,
,,,,,,,,,,,,,,,,,,,,,,,,,,,,,,,,,,,,,,,,,,,,,,,,,,,,,,,,,,,,,,,,,,space,12.740570597816259,810.0285188471898,None,,,,,,,,,,,,,,,,,,,,,,,,,,,,,163,001,2024_Feb_14_1343,SpeechDraft1Carolyn_lessNoise_PlusLocalization,2021.2.3,60.09969802827215,
,,,,,,,,center,0.0,6,ch1Sound_localizationTask.wav,0.0,"(952, 878)","(-8,-202)",0,-338,,,,,,,,,0,0,0,3,,,,,,,,,,,,,,,,,,,,,,,,,,,,,,,,,,,,,,,,,,810.0285188471898,None,822.811643992085,None,823.928197729867,None,824.8448282969184,None,1.2132275132275132,3.8199842697940767,824.8448282969184,None,,,,,,,,,,,,,,,,,163,001,2024_Feb_14_1343,SpeechDraft1Carolyn_lessNoise_PlusLocalization,2021.2.3,60.09969802827215,
,,,,,,,,farLeft,-19.1,5,ch1Sound_localizationTask.wav,-19.1,"(667, 878)","(-293,-202)",-285,-338,,,,,,,,,0,1,1,0,,,,,,,,,,,,,,,,,,,,,,,,,,,,,,,,,,,,,,,,,,,,828.678688401822,None,829.7784900520928,None,830.7116115959361,None,1.2137566137566138,0.56612185575068,830.7116115959361,None,,,,,,,,,,,,,,,,,163,001,2024_Feb_14_1343,SpeechDraft1Carolyn_lessNoise_PlusLocalization,2021.2.3,60.09969802827215,
,,,,,,,,farRight,19.1,4,ch1Sound_localizationTask.wav,19.1,"(1237, 878)","(277,-202)",285,-338,,,,,,,,,0,2,2,6,,,,,,,,,,,,,,,,,,,,,,,,,,,,,,,,,,,,,,,,,,,,831.278597314842,None,832.3781289570034,None,833.3115090141073,None,1.6285714285714286,1.5985993556678295,833.3115090141073,None,,,,,,,,,,,,,,,,,163,001,2024_Feb_14_1343,SpeechDraft1Carolyn_lessNoise_PlusLocalization,2021.2.3,60.09969802827215,
,,,,,,,,midRight,13.0,3,ch1Sound_localizationTask.wav,13.0,"(1142, 878)","(182, -202)",190,-338,,,,,,,,,0,3,3,5,,,,,,,,,,,,,,,,,,,,,,,,,,,,,,,,,,,,,,,,,,,,834.9117889548652,None,836.0115141011775,None,836.9449141751975,None,1.553968253968254,0.4493314540013671,836.9449141751975,None,,,,,,,,,,,,,,,,,163,001,2024_Feb_14_1343,SpeechDraft1Carolyn_lessNoise_PlusLocalization,2021.2.3,60.09969802827215,
,,,,,,,,farLeft,-19.1,5,ch1Sound_localizationTask.wav,-19.1,"(667, 878)","(-293,-202)",-285,-338,,,,,,,,,0,4,4,0,,,,,,,,,,,,,,,,,,,,,,,,,,,,,,,,,,,,,,,,,,,,837.395142337773,None,838.4948757952079,None,839.4282769160345,None,1.1904761904761905,0.9996928903274238,839.4282769160345,None,,,,,,,,,,,,,,,,,163,001,2024_Feb_14_1343,SpeechDraft1Carolyn_lessNoise_PlusLocalization,2021.2.3,60.09969802827215,
,,,,,,,,nearLeft,-6.5,1,ch1Sound_localizationTask.wav,-6.5,"(857, 878)","(-103,-202)",-95,-338,,,,,,,,,0,5,5,2,,,,,,,,,,,,,,,,,,,,,,,,,,,,,,,,,,,,,,,,,,,,840.4288623500615,None,841.5283539928496,None,842.4615598190576,None,1.3343915343915345,0.616223344579339,842.4615598190576,None,,,,,,,,,,,,,,,,,163,001,2024_Feb_14_1343,SpeechDraft1Carolyn_lessNoise_PlusLocalization,2021.2.3,60.09969802827215,
,,,,,,,,nearRight,6.5,0,ch1Sound_localizationTask.wav,6.5,"(1047, 878)","(87, -202)",95,-338,,,,,,,,,0,6,6,4,,,,,,,,,,,,,,,,,,,,,,,,,,,,,,,,,,,,,,,,,,,,843.0786070590839,None,844.178300594911,None,845.1115301521495,None,1.5386243386243388,0.749179111327976,845.1115301521495,None,,,,,,,,,,,,,,,,,163,001,2024_Feb_14_1343,SpeechDraft1Carolyn_lessNoise_PlusLocalization,2021.2.3,60.09969802827215,
,,,,,,,,midLeft,-13.0,2,ch1Sound_localizationTask.wav,-13.0,"(762, 878)","(-198,-202)",-190,-338,,,,,,,,,1,0,7,1,,,,,,,,,,,,,,,,,,,,,,,,,,,,,,,,,,,,,,,,,,,,845.8618988362141,None,846.9615706969053,None,847.8949495190755,None,1.1904761904761905,0.6999481585808098,847.8949495190755,None,,,,,,,,,,,,,,,,,163,001,2024_Feb_14_1343,SpeechDraft1Carolyn_lessNoise_PlusLocalization,2021.2.3,60.09969802827215,
,,,,,,,,farRight,19.1,4,ch1Sound_localizationTask.wav,19.1,"(1237, 878)","(277,-202)",285,-338,,,,,,,,,1,1,8,6,,,,,,,,,,,,,,,,,,,,,,,,,,,,,,,,,,,,,,,,,,,,848.6119687329046,None,849.7115807929076,None,850.645119364839,None,1.6433862433862434,0.7667552796192467,850.645119364839,None,,,,,,,,,,,,,,,,,163,001,2024_Feb_14_1343,SpeechDraft1Carolyn_lessNoise_PlusLocalization,2021.2.3,60.09969802827215,
,,,,,,,,midRight,13.0,3,ch1Sound_localizationTask.wav,13.0,"(1142, 878)","(182, -202)",190,-338,,,,,,,,,1,2,9,5,,,,,,,,,,,,,,,,,,,,,,,,,,,,,,,,,,,,,,,,,,,,851.4288548291661,None,852.5282769901678,None,853.4617201508954,None,1.5883597883597882,0.5325086559168994,853.4617201508954,None,,,,,,,,,,,,,,,,,163,001,2024_Feb_14_1343,SpeechDraft1Carolyn_lessNoise_PlusLocalization,2021.2.3,60.09969802827215,
,,,,,,,,nearRight,6.5,0,ch1Sound_localizationTask.wav,6.5,"(1047, 878)","(87, -202)",95,-338,,,,,,,,,1,3,10,4,,,,,,,,,,,,,,,,,,,,,,,,,,,,,,,,,,,,,,,,,,,,853.99511845503,None,855.0949213937856,None,856.0282426420599,None,1.488888888888889,0.46521767182275653,856.0282426420599,None,,,,,,,,,,,,,,,,,163,001,2024_Feb_14_1343,SpeechDraft1Carolyn_lessNoise_PlusLocalization,2021.2.3,60.09969802827215,
,,,,,,,,midLeft,-13.0,2,ch1Sound_localizationTask.wav,-13.0,"(762, 878)","(-198,-202)",-190,-338,,,,,,,,,1,4,11,1,,,,,,,,,,,,,,,,,,,,,,,,,,,,,,,,,,,,,,,,,,,,856.4952271571383,None,857.5949904681183,None,858.5283710160293,None,1.3195767195767196,0.5987871633842587,858.5283710160293,None,,,,,,,,,,,,,,,,,163,001,2024_Feb_14_1343,SpeechDraft1Carolyn_lessNoise_PlusLocalization,2021.2.3,60.09969802827215,
,,,,,,,,nearRight,6.5,0,ch1Sound_localizationTask.wav,6.5,"(1047, 878)","(87, -202)",95,-338,,,,,,,,,1,5,12,4,,,,,,,,,,,,,,,,,,,,,,,,,,,,,,,,,,,,,,,,,,,,859.1285684588365,None,860.2281713648699,None,861.1617798297666,None,1.4904761904761905,0.4329340090043843,861.1617798297666,None,,,,,,,,,,,,,,,,,163,001,2024_Feb_14_1343,SpeechDraft1Carolyn_lessNoise_PlusLocalization,2021.2.3,60.09969802827215,
,,,,,,,,center,0.0,6,ch1Sound_localizationTask.wav,0.0,"(952, 878)","(-8,-202)",0,-338,,,,,,,,,1,6,13,3,,,,,,,,,,,,,,,,,,,,,,,,,,,,,,,,,,,,,,,,,,,,861.5951912500896,None,862.6948907379992,None,863.6282244548202,None,1.4857142857142858,0.43263101298362017,863.6282244548202,None,,,,,,,,,,,,,,,,,163,001,2024_Feb_14_1343,SpeechDraft1Carolyn_lessNoise_PlusLocalization,2021.2.3,60.09969802827215,
,,,,,,,,midRight,13.0,3,ch1Sound_localizationTask.wav,13.0,"(1142, 878)","(182, -202)",190,-338,,,,,,,,,2,0,14,5,,,,,,,,,,,,,,,,,,,,,,,,,,,,,,,,,,,,,,,,,,,,864.0618983688764,None,865.1616391418502,None,866.0948159000836,None,1.5714285714285714,0.5327178309671581,866.0948159000836,None,,,,,,,,,,,,,,,,,163,001,2024_Feb_14_1343,SpeechDraft1Carolyn_lessNoise_PlusLocalization,2021.2.3,60.09969802827215,
,,,,,,,,center,0.0,6,ch1Sound_localizationTask.wav,0.0,"(952, 878)","(-8,-202)",0,-338,,,,,,,,,2,1,15,3,,,,,,,,,,,,,,,,,,,,,,,,,,,,,,,,,,,,,,,,,,,,866.6286015831865,None,867.7286125360988,None,868.661551412195,None,1.5015873015873016,0.5668734591454268,868.661551412195,None,,,,,,,,,,,,,,,,,163,001,2024_Feb_14_1343,SpeechDraft1Carolyn_lessNoise_PlusLocalization,2021.2.3,60.09969802827215,
,,,,,,,,nearLeft,-6.5,1,ch1Sound_localizationTask.wav,-6.5,"(857, 878)","(-103,-202)",-95,-338,,,,,,,,,2,2,16,2,,,,,,,,,,,,,,,,,,,,,,,,,,,,,,,,,,,,,,,,,,,,869.2286935928278,None,870.3282602280378,None,871.2616192121059,None,1.4158730158730157,0.3989002648741007,871.2616192121059,None,,,,,,,,,,,,,,,,,163,001,2024_Feb_14_1343,SpeechDraft1Carolyn_lessNoise_PlusLocalization,2021.2.3,60.09969802827215,
,,,,,,,,midLeft,-13.0,2,ch1Sound_localizationTask.wav,-13.0,"(762, 878)","(-198,-202)",-190,-338,,,,,,,,,2,3,17,1,,,,,,,,,,,,,,,,,,,,,,,,,,,,,,,,,,,,,,,,,,,,871.6619417048059,None,872.7617695052177,None,873.6948935817927,None,1.3238095238095238,0.7502613542601466,873.6948935817927,None,,,,,,,,,,,,,,,,,163,001,2024_Feb_14_1343,SpeechDraft1Carolyn_lessNoise_PlusLocalization,2021.2.3,60.09969802827215,
,,,,,,,,midLeft,-13.0,2,ch1Sound_localizationTask.wav,-13.0,"(762, 878)","(-198,-202)",-190,-338,,,,,,,,,2,4,18,1,,,,,,,,,,,,,,,,,,,,,,,,,,,,,,,,,,,,,,,,,,,,874.4458281882107,None,875.5449365228415,None,876.478320187889,None,1.2544973544973546,0.5997090358287096,876.478320187889,None,,,,,,,,,,,,,,,,,163,001,2024_Feb_14_1343,SpeechDraft1Carolyn_lessNoise_PlusLocalization,2021.2.3,60.09969802827215,
,,,,,,,,nearRight,6.5,0,ch1Sound_localizationTask.wav,6.5,"(1047, 878)","(87, -202)",95,-338,,,,,,,,,2,5,19,4,,,,,,,,,,,,,,,,,,,,,,,,,,,,,,,,,,,,,,,,,,,,877.0786485229619,None,878.1784160491079,None,879.1115139140747,None,1.491005291005291,0.565053490921855,879.1115139140747,None,,,,,,,,,,,,,,,,,163,001,2024_Feb_14_1343,SpeechDraft1Carolyn_lessNoise_PlusLocalization,2021.2.3,60.09969802827215,
,,,,,,,,nearLeft,-6.5,1,ch1Sound_localizationTask.wav,-6.5,"(857, 878)","(-103,-202)",-95,-338,,,,,,,,,2,6,20,2,,,,,,,,,,,,,,,,,,,,,,,,,,,,,,,,,,,,,,,,,,,,879.6786077017896,None,880.7782842670567,None,881.7116182302125,None,1.24021164021164,0.614852165337652,881.7116182302125,None,,,,,,,,,,,,,,,,,163,001,2024_Feb_14_1343,SpeechDraft1Carolyn_lessNoise_PlusLocalization,2021.2.3,60.09969802827215,
,,,,,,,,midRight,13.0,3,ch1Sound_localizationTask.wav,13.0,"(1142, 878)","(182, -202)",190,-338,,,,,,,,,3,0,21,5,,,,,,,,,,,,,,,,,,,,,,,,,,,,,,,,,,,,,,,,,,,,882.3286941791885,None,883.4283330938779,None,884.361710766796,None,1.5365079365079364,0.4991923840716481,884.361710766796,None,,,,,,,,,,,,,,,,,163,001,2024_Feb_14_1343,SpeechDraft1Carolyn_lessNoise_PlusLocalization,2021.2.3,60.09969802827215,
,,,,,,,,farRight,19.1,4,ch1Sound_localizationTask.wav,19.1,"(1237, 878)","(277,-202)",285,-338,,,,,,,,,3,1,22,6,,,,,,,,,,,,,,,,,,,,,,,,,,,,,,,,,,,,,,,,,,,,884.861965586897,None,885.9616144071333,None,886.8949922658503,None,1.6195767195767194,0.41620267974212766,886.8949922658503,None,,,,,,,,,,,,,,,,,163,001,2024_Feb_14_1343,SpeechDraft1Carolyn_lessNoise_PlusLocalization,2021.2.3,60.09969802827215,
,,,,,,,,nearRight,6.5,0,ch1Sound_localizationTask.wav,6.5,"(1047, 878)","(87, -202)",95,-338,,,,,,,,,3,2,23,4,,,,,,,,,,,,,,,,,,,,,,,,,,,,,,,,,,,,,,,,,,,,887.3120541111566,None,888.4117221417837,None,889.3449172531255,None,1.4761904761904763,0.3998366850428283,889.3449172531255,None,,,,,,,,,,,,,,,,,163,001,2024_Feb_14_1343,SpeechDraft1Carolyn_lessNoise_PlusLocalization,2021.2.3,60.09969802827215,
,,,,,,,,farLeft,-19.1,5,ch1Sound_localizationTask.wav,-19.1,"(667, 878)","(-293,-202)",-285,-338,,,,,,,,,3,3,24,0,,,,,,,,,,,,,,,,,,,,,,,,,,,,,,,,,,,,,,,,,,,,889.7454952658154,None,890.845061219763,None,891.7784835337661,None,1.1465608465608466,0.5654511763714254,891.7784835337661,None,,,,,,,,,,,,,,,,,163,001,2024_Feb_14_1343,SpeechDraft1Carolyn_lessNoise_PlusLocalization,2021.2.3,60.09969802827215,
,,,,,,,,farLeft,-19.1,5,ch1Sound_localizationTask.wav,-19.1,"(667, 878)","(-293,-202)",-285,-338,,,,,,,,,3,4,25,0,,,,,,,,,,,,,,,,,,,,,,,,,,,,,,,,,,,,,,,,,,,,892.3452496230602,None,893.4449558919296,None,894.3784236251377,None,1.2587301587301587,0.4330814708955586,894.3784236251377,None,,,,,,,,,,,,,,,,,163,001,2024_Feb_14_1343,SpeechDraft1Carolyn_lessNoise_PlusLocalization,2021.2.3,60.09969802827215,
,,,,,,,,midLeft,-13.0,2,ch1Sound_localizationTask.wav,-13.0,"(762, 878)","(-198,-202)",-190,-338,,,,,,,,,3,5,26,1,,,,,,,,,,,,,,,,,,,,,,,,,,,,,,,,,,,,,,,,,,,,894.8121024281718,None,895.9116006437689,None,896.8450425667688,None,1.3571428571428572,0.5488549722358584,896.8450425667688,None,,,,,,,,,,,,,,,,,163,001,2024_Feb_14_1343,SpeechDraft1Carolyn_lessNoise_PlusLocalization,2021.2.3,60.09969802827215,
,,,,,,,,nearLeft,-6.5,1,ch1Sound_localizationTask.wav,-6.5,"(857, 878)","(-103,-202)",-95,-338,,,,,,,,,3,6,27,2,,,,,,,,,,,,,,,,,,,,,,,,,,,,,,,,,,,,,,,,,,,,897.3952979687601,None,898.4950004010461,None,899.4283956307918,None,1.4534391534391533,0.40017742197960615,899.4283956307918,None,,,,,,,,,,,,,,,,,163,001,2024_Feb_14_1343,SpeechDraft1Carolyn_lessNoise_PlusLocalization,2021.2.3,60.09969802827215,
,,,,,,,,farLeft,-19.1,5,ch1Sound_localizationTask.wav,-19.1,"(667, 878)","(-293,-202)",-285,-338,,,,,,,,,4,0,28,0,,,,,,,,,,,,,,,,,,,,,,,,,,,,,,,,,,,,,,,,,,,,899.8453486580402,None,900.9449476888403,None,901.8782826801762,None,1.2513227513227514,0.5822691577486694,901.8782826801762,None,,,,,,,,,,,,,,,,,163,001,2024_Feb_14_1343,SpeechDraft1Carolyn_lessNoise_PlusLocalization,2021.2.3,60.09969802827215,
,,,,,,,,farRight,19.1,4,ch1Sound_localizationTask.wav,19.1,"(1237, 878)","(277,-202)",285,-338,,,,,,,,,4,1,29,6,,,,,,,,,,,,,,,,,,,,,,,,,,,,,,,,,,,,,,,,,,,,902.4619290027767,None,903.5617343601771,None,904.494974469766,None,1.596825396825397,1.0658687422983348,904.494974469766,None,,,,,,,,,,,,,,,,,163,001,2024_Feb_14_1343,SpeechDraft1Carolyn_lessNoise_PlusLocalization,2021.2.3,60.09969802827215,
,,,,,,,,center,0.0,6,ch1Sound_localizationTask.wav,0.0,"(952, 878)","(-8,-202)",0,-338,,,,,,,,,4,2,30,3,,,,,,,,,,,,,,,,,,,,,,,,,,,,,,,,,,,,,,,,,,,,905.561883716844,None,906.6615956611931,None,907.594994621817,None,1.4343915343915343,0.6489719296805561,907.594994621817,None,,,,,,,,,,,,,,,,,163,001,2024_Feb_14_1343,SpeechDraft1Carolyn_lessNoise_PlusLocalization,2021.2.3,60.09969802827215,
,,,,,,,,midRight,13.0,3,ch1Sound_localizationTask.wav,13.0,"(1142, 878)","(182, -202)",190,-338,,,,,,,,,4,3,31,5,,,,,,,,,,,,,,,,,,,,,,,,,,,,,,,,,,,,,,,,,,,,908.2453437768854,None,909.3449464770965,None,910.2782725738361,None,1.5925925925925926,0.5157723790034652,910.2782725738361,None,,,,,,,,,,,,,,,,,163,001,2024_Feb_14_1343,SpeechDraft1Carolyn_lessNoise_PlusLocalization,2021.2.3,60.09969802827215,
,,,,,,,,farRight,19.1,4,ch1Sound_localizationTask.wav,19.1,"(1237, 878)","(277,-202)",285,-338,,,,,,,,,4,4,32,6,,,,,,,,,,,,,,,,,,,,,,,,,,,,,,,,,,,,,,,,,,,,910.7955235941336,None,911.895063273143,None,912.8283570441417,None,1.519047619047619,0.7162419380620122,912.8283570441417,None,,,,,,,,,,,,,,,,,163,001,2024_Feb_14_1343,SpeechDraft1Carolyn_lessNoise_PlusLocalization,2021.2.3,60.09969802827215,
,,,,,,,,nearRight,6.5,0,ch1Sound_localizationTask.wav,6.5,"(1047, 878)","(87, -202)",95,-338,,,,,,,,,4,5,33,4,,,,,,,,,,,,,,,,,,,,,,,,,,,,,,,,,,,,,,,,,,,,913.5452947630547,None,914.6451151389629,None,915.5784179801121,None,1.3793650793650793,0.44963814271613955,915.5784179801121,None,,,,,,,,,,,,,,,,,163,001,2024_Feb_14_1343,SpeechDraft1Carolyn_lessNoise_PlusLocalization,2021.2.3,60.09969802827215,
,,,,,,,,nearRight,6.5,0,ch1Sound_localizationTask.wav,6.5,"(1047, 878)","(87, -202)",95,-338,,,,,,,,,4,6,34,4,,,,,,,,,,,,,,,,,,,,,,,,,,,,,,,,,,,,,,,,,,,,916.0285703497939,None,917.1283369208686,None,918.0616691121832,None,1.5481481481481483,0.5996963419020176,918.0616691121832,None,,,,,,,,,,,,,,,,,163,001,2024_Feb_14_1343,SpeechDraft1Carolyn_lessNoise_PlusLocalization,2021.2.3,60.09969802827215,
,,,,,,,,center,0.0,6,ch1Sound_localizationTask.wav,0.0,"(952, 878)","(-8,-202)",0,-338,,,,,,,,,5,0,35,3,,,,,,,,,,,,,,,,,,,,,,,,,,,,,,,,,,,,,,,,,,,,918.6620182557963,None,919.7616488481872,None,920.6949735200033,None,1.4428571428571428,0.6825666110962629,920.6949735200033,None,,,,,,,,,,,,,,,,,163,001,2024_Feb_14_1343,SpeechDraft1Carolyn_lessNoise_PlusLocalization,2021.2.3,60.09969802827215,
,,,,,,,,farRight,19.1,4,ch1Sound_localizationTask.wav,19.1,"(1237, 878)","(277,-202)",285,-338,,,,,,,,,5,1,36,6,,,,,,,,,,,,,,,,,,,,,,,,,,,,,,,,,,,,,,,,,,,,921.378643557895,None,922.4783448148519,None,923.4116841610521,None,1.5867724867724866,0.6158986249938607,923.4116841610521,None,,,,,,,,,,,,,,,,,163,001,2024_Feb_14_1343,SpeechDraft1Carolyn_lessNoise_PlusLocalization,2021.2.3,60.09969802827215,
,,,,,,,,center,0.0,6,ch1Sound_localizationTask.wav,0.0,"(952, 878)","(-8,-202)",0,-338,,,,,,,,,5,2,37,3,,,,,,,,,,,,,,,,,,,,,,,,,,,,,,,,,,,,,,,,,,,,924.0286613008939,None,925.1283805449493,None,926.0618902607821,None,1.4846560846560846,0.6483273361809552,926.0618902607821,None,,,,,,,,,,,,,,,,,163,001,2024_Feb_14_1343,SpeechDraft1Carolyn_lessNoise_PlusLocalization,2021.2.3,60.09969802827215,
,,,,,,,,farRight,19.1,4,ch1Sound_localizationTask.wav,19.1,"(1237, 878)","(277,-202)",285,-338,,,,,,,,,5,3,38,6,,,,,,,,,,,,,,,,,,,,,,,,,,,,,,,,,,,,,,,,,,,,926.7119738501497,None,927.8116223248653,None,928.7449923199601,None,1.5989417989417989,0.7827186840586364,928.7449923199601,None,,,,,,,,,,,,,,,,,163,001,2024_Feb_14_1343,SpeechDraft1Carolyn_lessNoise_PlusLocalization,2021.2.3,60.09969802827215,
,,,,,,,,farRight,19.1,4,ch1Sound_localizationTask.wav,19.1,"(1237, 878)","(277,-202)",285,-338,,,,,,,,,5,4,39,6,,,,,,,,,,,,,,,,,,,,,,,,,,,,,,,,,,,,,,,,,,,,929.5285735921934,None,930.6283153500408,None,931.5617363192141,None,1.729100529100529,0.5157404290512204,931.5617363192141,None,,,,,,,,,,,,,,,,,163,001,2024_Feb_14_1343,SpeechDraft1Carolyn_lessNoise_PlusLocalization,2021.2.3,60.09969802827215,
,,,,,,,,midRight,13.0,3,ch1Sound_localizationTask.wav,13.0,"(1142, 878)","(182, -202)",190,-338,,,,,,,,,5,5,40,5,,,,,,,,,,,,,,,,,,,,,,,,,,,,,,,,,,,,,,,,,,,,932.0787184801884,None,933.178385104984,None,934.1117142699659,None,1.6984126984126984,0.6332154711708426,934.1117142699659,None,,,,,,,,,,,,,,,,,163,001,2024_Feb_14_1343,SpeechDraft1Carolyn_lessNoise_PlusLocalization,2021.2.3,60.09969802827215,
,,,,,,,,farLeft,-19.1,5,ch1Sound_localizationTask.wav,-19.1,"(667, 878)","(-293,-202)",-285,-338,,,,,,,,,5,6,41,0,,,,,,,,,,,,,,,,,,,,,,,,,,,,,,,,,,,,,,,,,,,,934.7452884009108,None,935.8450361047871,None,936.778486948926,None,1.295767195767196,0.7829769463278353,936.778486948926,None,,,,,,,,,,,,,,,,,163,001,2024_Feb_14_1343,SpeechDraft1Carolyn_lessNoise_PlusLocalization,2021.2.3,60.09969802827215,
,,,,,,,,midLeft,-13.0,2,ch1Sound_localizationTask.wav,-13.0,"(762, 878)","(-198,-202)",-190,-338,,,,,,,,,6,0,42,1,,,,,,,,,,,,,,,,,,,,,,,,,,,,,,,,,,,,,,,,,,,,937.5631097918376,None,938.6784168528393,None,939.5951630338095,None,1.1947089947089946,0.48188884695991874,939.5951630338095,None,,,,,,,,,,,,,,,,,163,001,2024_Feb_14_1343,SpeechDraft1Carolyn_lessNoise_PlusLocalization,2021.2.3,60.09969802827215,
,,,,,,,,midLeft,-13.0,2,ch1Sound_localizationTask.wav,-13.0,"(762, 878)","(-198,-202)",-190,-338,,,,,,,,,6,1,43,1,,,,,,,,,,,,,,,,,,,,,,,,,,,,,,,,,,,,,,,,,,,,940.0787138277665,None,941.1783097288571,None,942.1116736861877,None,1.2894179894179894,0.39940727408975363,942.1116736861877,None,,,,,,,,,,,,,,,,,163,001,2024_Feb_14_1343,SpeechDraft1Carolyn_lessNoise_PlusLocalization,2021.2.3,60.09969802827215,
,,,,,,,,farLeft,-19.1,5,ch1Sound_localizationTask.wav,-19.1,"(667, 878)","(-293,-202)",-285,-338,,,,,,,,,6,2,44,0,,,,,,,,,,,,,,,,,,,,,,,,,,,,,,,,,,,,,,,,,,,,942.5119614121504,None,943.6116638951935,None,944.5449752951972,None,1.2354497354497354,0.21636887127533555,944.5449752951972,None,,,,,,,,,,,,,,,,,163,001,2024_Feb_14_1343,SpeechDraft1Carolyn_lessNoise_PlusLocalization,2021.2.3,60.09969802827215,
,,,,,,,,nearLeft,-6.5,1,ch1Sound_localizationTask.wav,-6.5,"(857, 878)","(-103,-202)",-95,-338,,,,,,,,,6,3,45,2,,,,,,,,,,,,,,,,,,,,,,,,,,,,,,,,,,,,,,,,,,,,944.7620511557907,None,945.8616718058474,None,946.7950048982166,None,1.4465608465608466,0.29985928162932396,946.7950048982166,None,,,,,,,,,,,,,,,,,163,001,2024_Feb_14_1343,SpeechDraft1Carolyn_lessNoise_PlusLocalization,2021.2.3,60.09969802827215,
,,,,,,,,midRight,13.0,3,ch1Sound_localizationTask.wav,13.0,"(1142, 878)","(182, -202)",190,-338,,,,,,,,,6,4,46,5,,,,,,,,,,,,,,,,,,,,,,,,,,,,,,,,,,,,,,,,,,,,947.09682480013,None,948.2116846409626,None,949.1282865027897,None,1.5931216931216932,0.7159666712395847,949.1282865027897,None,,,,,,,,,,,,,,,,,163,001,2024_Feb_14_1343,SpeechDraft1Carolyn_lessNoise_PlusLocalization,2021.2.3,60.09969802827215,
,,,,,,,,nearLeft,-6.5,1,ch1Sound_localizationTask.wav,-6.5,"(857, 878)","(-103,-202)",-95,-338,,,,,,,,,6,5,47,2,,,,,,,,,,,,,,,,,,,,,,,,,,,,,,,,,,,,,,,,,,,,949.8464888208546,None,950.9618564140983,None,951.8782913777977,None,1.4767195767195767,0.5818495340645313,951.8782913777977,None,,,,,,,,,,,,,,,,,163,001,2024_Feb_14_1343,SpeechDraft1Carolyn_lessNoise_PlusLocalization,2021.2.3,60.09969802827215,
,,,,,,,,farLeft,-19.1,5,ch1Sound_localizationTask.wav,-19.1,"(667, 878)","(-293,-202)",-285,-338,,,,,,,,,6,6,48,0,,,,,,,,,,,,,,,,,,,,,,,,,,,,,,,,,,,,,,,,,,,,952.4619323438965,None,953.5617425460368,None,954.4949163962156,None,1.2465608465608464,0.49948778795078397,954.4949163962156,None,,,,,,,,,,,,,,,,,163,001,2024_Feb_14_1343,SpeechDraft1Carolyn_lessNoise_PlusLocalization,2021.2.3,60.09969802827215,
,,,,,,,,center,0.0,6,ch1Sound_localizationTask.wav,0.0,"(952, 878)","(-8,-202)",0,-338,,,,,,,,,7,0,49,3,,,,,,,,,,,,,,,,,,,,,,,,,,,,,,,,,,,,,,,,,,,,954.9954372509383,None,956.0950049189851,None,957.0284254699945,None,1.4835978835978836,0.46575744776055217,957.0284254699945,None,,,,,,,,,,,,,,,,,163,001,2024_Feb_14_1343,SpeechDraft1Carolyn_lessNoise_PlusLocalization,2021.2.3,60.09969802827215,
,,,,,,,,midLeft,-13.0,2,ch1Sound_localizationTask.wav,-13.0,"(762, 878)","(-198,-202)",-190,-338,,,,,,,,,7,1,50,1,,,,,,,,,,,,,,,,,,,,,,,,,,,,,,,,,,,,,,,,,,,,957.4960342138074,None,958.5953079448082,None,959.528271892108,None,1.3116402116402117,0.3991608680225909,959.528271892108,None,,,,,,,,,,,,,,,,,163,001,2024_Feb_14_1343,SpeechDraft1Carolyn_lessNoise_PlusLocalization,2021.2.3,60.09969802827215,
,,,,,,,,nearLeft,-6.5,1,ch1Sound_localizationTask.wav,-6.5,"(857, 878)","(-103,-202)",-95,-338,,,,,,,,,7,2,51,2,,,,,,,,,,,,,,,,,,,,,,,,,,,,,,,,,,,,,,,,,,,,959.9286637078039,None,961.0286230198108,None,961.9616748499684,None,1.4,0.3324837307445705,961.9616748499684,None,,,,,,,,,,,,,,,,,163,001,2024_Feb_14_1343,SpeechDraft1Carolyn_lessNoise_PlusLocalization,2021.2.3,60.09969802827215,
,,,,,,,,midRight,13.0,3,ch1Sound_localizationTask.wav,13.0,"(1142, 878)","(182, -202)",190,-338,,,,,,,,,7,3,52,5,,,,,,,,,,,,,,,,,,,,,,,,,,,,,,,,,,,,,,,,,,,,962.2953554629348,None,963.395145048853,None,964.3283326597884,None,1.5195767195767196,0.617363590747118,964.3283326597884,None,,,,,,,,,,,,,,,,,163,001,2024_Feb_14_1343,SpeechDraft1Carolyn_lessNoise_PlusLocalization,2021.2.3,60.09969802827215,
,,,,,,,,center,0.0,6,ch1Sound_localizationTask.wav,0.0,"(952, 878)","(-8,-202)",0,-338,,,,,,,,,7,4,53,3,,,,,,,,,,,,,,,,,,,,,,,,,,,,,,,,,,,,,,,,,,,,964.9620432471856,None,966.0617709448561,None,966.994985692203,None,1.5682539682539682,0.5156685868278146,966.994985692203,None,,,,,,,,,,,,,,,,,163,001,2024_Feb_14_1343,SpeechDraft1Carolyn_lessNoise_PlusLocalization,2021.2.3,60.09969802827215,
,,,,,,,,nearRight,6.5,0,ch1Sound_localizationTask.wav,6.5,"(1047, 878)","(87, -202)",95,-338,,,,,,,,,7,5,54,4,,,,,,,,,,,,,,,,,,,,,,,,,,,,,,,,,,,,,,,,,,,,967.5120288869366,None,968.6117355651222,None,969.5450778547674,None,1.6227513227513226,0.4660776541568339,969.5450778547674,None,,,,,,,,,,,,,,,,,163,001,2024_Feb_14_1343,SpeechDraft1Carolyn_lessNoise_PlusLocalization,2021.2.3,60.09969802827215,
,,,,,,,,nearLeft,-6.5,1,ch1Sound_localizationTask.wav,-6.5,"(857, 878)","(-103,-202)",-95,-338,,,,,,,,,7,6,55,2,,,,,,,,,,,,,,,,,,,,,,,,,,,,,,,,,,,,,,,,,,,,970.0119954170659,None,971.1116977739148,None,972.04541895492,None,1.4624338624338624,0.5661261649802327,972.04541895492,None,,,,,,,,,,,,,,,,,163,001,2024_Feb_14_1343,SpeechDraft1Carolyn_lessNoise_PlusLocalization,2021.2.3,60.09969802827215,
,,,,,,,,,,,,,,,,,,,,,,,,,,,,,,,,,,,,,,,,,,,,,,,,,,,,,,,,,,,,,,,,,,,,,,,,,,,,,,,,,,space,5.577672895975411,972.6954152728431,None,,,,,,,,,,,,,163,001,2024_Feb_14_1343,SpeechDraft1Carolyn_lessNoise_PlusLocalization,2021.2.3,60.09969802827215,
,,,,,,,,farLeft,-19.1,5,ch1Sound_localizationTask.wav,-19.1,"(667, 878)","(-293,-202)",-285,-338,,,,,,,,,,,,,0,0,0,0,,,,,,,,,,,,,,,,,,,,,,,,,,,,,,,,,,,,,,,,978.3118769568391,None,,,981.3450074577704,None,1.298941798941799,0.5706261680461466,981.3450074577704,None,,,,,972.6954152728431,None,979.3120161681436,None,979.4953020107932,979.5119559541345,,,,,,,163,001,2024_Feb_14_1343,SpeechDraft1Carolyn_lessNoise_PlusLocalization,2021.2.3,60.09969802827215,
,,,,,,,,midLeft,-13.0,2,ch1Sound_localizationTask.wav,-13.0,"(762, 878)","(-198,-202)",-190,-338,,,,,,,,,,,,,0,1,1,1,,,,,,,,,,,,,,,,,,,,,,,,,,,,,,,,,,,,,,,,981.9122037678026,None,,,984.9284719410352,None,1.398941798941799,0.6321275723166764,984.9284719410352,None,,,,,,,982.9120793179609,None,983.0953412698582,983.1120336521417,,,,,,,163,001,2024_Feb_14_1343,SpeechDraft1Carolyn_lessNoise_PlusLocalization,2021.2.3,60.09969802827215,
,,,,,,,,center,0.0,6,ch1Sound_localizationTask.wav,0.0,"(952, 878)","(-8,-202)",0,-338,,,,,,,,,,,,,0,2,2,3,,,,,,,,,,,,,,,,,,,,,,,,,,,,,,,,,,,,,,,,985.5625396762043,None,,,988.5785528090782,None,1.4978835978835978,0.616062200628221,988.5785528090782,None,,,,,,,986.5620163041167,None,986.7454060669988,986.7619712469168,,,,,,,163,001,2024_Feb_14_1343,SpeechDraft1Carolyn_lessNoise_PlusLocalization,2021.2.3,60.09969802827215,
,,,,,,,,farRight,19.1,4,ch1Sound_localizationTask.wav,19.1,"(1237, 878)","(277,-202)",285,-338,,,,,,,,,,,,,0,3,3,6,,,,,,,,,,,,,,,,,,,,,,,,,,,,,,,,,,,,,,,,989.195442891214,None,,,992.2118714349344,None,1.6322751322751323,0.5659789512865245,992.2118714349344,None,,,,,,,990.1955475350842,None,990.378748529125,990.3953934190795,,,,,,,163,001,2024_Feb_14_1343,SpeechDraft1Carolyn_lessNoise_PlusLocalization,2021.2.3,60.09969802827215,
,,,,,,,,center,0.0,6,ch1Sound_localizationTask.wav,0.0,"(952, 878)","(-8,-202)",0,-338,,,,,,,,,,,,,0,4,4,3,,,,,,,,,,,,,,,,,,,,,,,,,,,,,,,,,,,,,,,,992.795349298045,None,,,995.8117735371925,None,1.5211640211640212,0.5656299930997193,995.8117735371925,None,,,,,,,993.7953977570869,None,993.9786850977689,993.995512386784,,,,,,,163,001,2024_Feb_14_1343,SpeechDraft1Carolyn_lessNoise_PlusLocalization,2021.2.3,60.09969802827215,
,,,,,,,,midRight,13.0,3,ch1Sound_localizationTask.wav,13.0,"(1142, 878)","(182, -202)",190,-338,,,,,,,,,,,,,0,5,5,5,,,,,,,,,,,,,,,,,,,,,,,,,,,,,,,,,,,,,,,,996.3787549859844,None,,,999.3951888270676,None,1.597883597883598,0.7152478848583996,999.3951888270676,None,,,,,,,997.378809385933,None,997.562057366129,997.5787080731243,,,,,,,163,001,2024_Feb_14_1343,SpeechDraft1Carolyn_lessNoise_PlusLocalization,2021.2.3,60.09969802827215,
,,,,,,,,farLeft,-19.1,5,ch1Sound_localizationTask.wav,-19.1,"(667, 878)","(-293,-202)",-285,-338,,,,,,,,,,,,,0,6,6,0,,,,,,,,,,,,,,,,,,,,,,,,,,,,,,,,,,,,,,,,1000.1121960137971,None,,,1003.1284809419885,None,1.3058201058201058,0.8664433010853827,1003.1284809419885,None,,,,,,,1001.1120050461031,None,1001.2953486349434,1001.3120897319168,,,,,,,163,001,2024_Feb_14_1343,SpeechDraft1Carolyn_lessNoise_PlusLocalization,2021.2.3,60.09969802827215,
,,,,,,,,farLeft,-19.1,5,ch1Sound_localizationTask.wav,-19.1,"(667, 878)","(-293,-202)",-285,-338,,,,,,,,,,,,,1,0,7,0,,,,,,,,,,,,,,,,,,,,,,,,,,,,,,,,,,,,,,,,1003.9957660678774,None,,,1007.0118343047798,None,1.3793650793650793,0.8154520550742745,1007.0118343047798,None,,,,,,,1004.995591009967,None,1005.1787741431035,1005.1953544649296,,,,,,,163,001,2024_Feb_14_1343,SpeechDraft1Carolyn_lessNoise_PlusLocalization,2021.2.3,60.09969802827215,
,,,,,,,,farLeft,-19.1,5,ch1Sound_localizationTask.wav,-19.1,"(667, 878)","(-293,-202)",-285,-338,,,,,,,,,,,,,1,1,8,0,,,,,,,,,,,,,,,,,,,,,,,,,,,,,,,,,,,,,,,,1007.8293810770847,None,,,1010.8451722129248,None,1.3380952380952382,0.8485378660261631,1010.8451722129248,None,,,,,,,1008.8287892430089,None,1009.0122493999079,1009.0287382029928,,,,,,,163,001,2024_Feb_14_1343,SpeechDraft1Carolyn_lessNoise_PlusLocalization,2021.2.3,60.09969802827215,
,,,,,,,,midLeft,-13.0,2,ch1Sound_localizationTask.wav,-13.0,"(762, 878)","(-198,-202)",-190,-338,,,,,,,,,,,,,1,2,9,1,,,,,,,,,,,,,,,,,,,,,,,,,,,,,,,,,,,,,,,,1011.6954191518016,None,,,1014.7118499069475,None,1.4026455026455027,0.8995917779393494,1014.7118499069475,None,,,,,,,1012.6954669537954,None,1012.8789114938118,1012.8954489617608,,,,,,,163,001,2024_Feb_14_1343,SpeechDraft1Carolyn_lessNoise_PlusLocalization,2021.2.3,60.09969802827215,
,,,,,,,,midLeft,-13.0,2,ch1Sound_localizationTask.wav,-13.0,"(762, 878)","(-198,-202)",-190,-338,,,,,,,,,,,,,1,3,10,1,,,,,,,,,,,,,,,,,,,,,,,,,,,,,,,,,,,,,,,,1015.6122287209146,None,,,1018.628634845838,None,1.3820105820105821,0.9496085210703313,1018.628634845838,None,,,,,,,1016.6121221617796,None,1016.7955042920075,1016.812143609859,,,,,,,163,001,2024_Feb_14_1343,SpeechDraft1Carolyn_lessNoise_PlusLocalization,2021.2.3,60.09969802827215,
,,,,,,,,farRight,19.1,4,ch1Sound_localizationTask.wav,19.1,"(1237, 878)","(277,-202)",285,-338,,,,,,,,,,,,,1,4,11,6,,,,,,,,,,,,,,,,,,,,,,,,,,,,,,,,,,,,,,,,1019.5787892499939,None,,,1022.5954599380493,None,1.6513227513227513,1.0155329662375152,1022.5954599380493,None,,,,,,,1020.5788031439297,None,1020.7620907109231,1020.7788604898378,,,,,,,163,001,2024_Feb_14_1343,SpeechDraft1Carolyn_lessNoise_PlusLocalization,2021.2.3,60.09969802827215,
,,,,,,,,nearRight,6.5,0,ch1Sound_localizationTask.wav,6.5,"(1047, 878)","(87, -202)",95,-338,,,,,,,,,,,,,1,5,12,4,,,,,,,,,,,,,,,,,,,,,,,,,,,,,,,,,,,,,,,,1023.6127641298808,None,,,1026.6286238068715,None,1.535978835978836,0.6814914788119495,1026.6286238068715,None,,,,,,,1024.6121977991425,None,1024.7954209349118,1024.8121349490248,,,,,,,163,001,2024_Feb_14_1343,SpeechDraft1Carolyn_lessNoise_PlusLocalization,2021.2.3,60.09969802827215,
,,,,,,,,farLeft,-19.1,5,ch1Sound_localizationTask.wav,-19.1,"(667, 878)","(-293,-202)",-285,-338,,,,,,,,,,,,,1,6,13,0,,,,,,,,,,,,,,,,,,,,,,,,,,,,,,,,,,,,,,,,1027.312218809966,None,,,1030.3284977478907,None,1.3142857142857143,0.7322847289033234,1030.3284977478907,None,,,,,,,1028.3120524920523,None,1028.4954586848617,1028.5121173281223,,,,,,,163,001,2024_Feb_14_1343,SpeechDraft1Carolyn_lessNoise_PlusLocalization,2021.2.3,60.09969802827215,
,,,,,,,,farRight,19.1,4,ch1Sound_localizationTask.wav,19.1,"(1237, 878)","(277,-202)",285,-338,,,,,,,,,,,,,2,0,14,6,,,,,,,,,,,,,,,,,,,,,,,,,,,,,,,,,,,,,,,,1031.0621118620038,None,,,1034.0784701048397,None,1.6222222222222222,0.8150899321772158,1034.0784701048397,None,,,,,,,1032.062057502102,None,1032.2453786400147,1032.2622882057913,,,,,,,163,001,2024_Feb_14_1343,SpeechDraft1Carolyn_lessNoise_PlusLocalization,2021.2.3,60.09969802827215,
,,,,,,,,midRight,13.0,3,ch1Sound_localizationTask.wav,13.0,"(1142, 878)","(182, -202)",190,-338,,,,,,,,,,,,,2,1,15,5,,,,,,,,,,,,,,,,,,,,,,,,,,,,,,,,,,,,,,,,1034.8955159070902,None,,,1037.9117322019301,None,1.6476190476190475,0.7155719273723662,1037.9117322019301,None,,,,,,,1035.895458939951,None,1036.07878258219,1036.0955071551725,,,,,,,163,001,2024_Feb_14_1343,SpeechDraft1Carolyn_lessNoise_PlusLocalization,2021.2.3,60.09969802827215,
,,,,,,,,nearLeft,-6.5,1,ch1Sound_localizationTask.wav,-6.5,"(857, 878)","(-103,-202)",-95,-338,,,,,,,,,,,,,2,2,16,2,,,,,,,,,,,,,,,,,,,,,,,,,,,,,,,,,,,,,,,,1038.6289253737777,None,,,1041.6452514161356,None,1.4148148148148147,0.515894225332886,1041.6452514161356,None,,,,,,,1039.628733704798,None,1039.8120427378453,1039.8287212010473,,,,,,,163,001,2024_Feb_14_1343,SpeechDraft1Carolyn_lessNoise_PlusLocalization,2021.2.3,60.09969802827215,
,,,,,,,,nearLeft,-6.5,1,ch1Sound_localizationTask.wav,-6.5,"(857, 878)","(-103,-202)",-95,-338,,,,,,,,,,,,,2,3,17,2,,,,,,,,,,,,,,,,,,,,,,,,,,,,,,,,,,,,,,,,1042.1622372157872,None,,,1045.1785729061812,None,1.4656084656084656,0.5987852308899164,1045.1785729061812,None,,,,,,,1043.1620838791132,None,1043.3453773381189,1043.3620770378038,,,,,,,163,001,2024_Feb_14_1343,SpeechDraft1Carolyn_lessNoise_PlusLocalization,2021.2.3,60.09969802827215,
,,,,,,,,nearRight,6.5,0,ch1Sound_localizationTask.wav,6.5,"(1047, 878)","(87, -202)",95,-338,,,,,,,,,,,,,2,4,18,4,,,,,,,,,,,,,,,,,,,,,,,,,,,,,,,,,,,,,,,,1045.778753999155,None,,,1048.7953172400594,None,1.5544973544973546,0.6981808640994132,1048.7953172400594,None,,,,,,,1046.7788078910671,None,1046.9621066651307,1046.978880301118,,,,,,,163,001,2024_Feb_14_1343,SpeechDraft1Carolyn_lessNoise_PlusLocalization,2021.2.3,60.09969802827215,
,,,,,,,,center,0.0,6,ch1Sound_localizationTask.wav,0.0,"(952, 878)","(-8,-202)",0,-338,,,,,,,,,,,,,2,5,19,3,,,,,,,,,,,,,,,,,,,,,,,,,,,,,,,,,,,,,,,,1049.4956677020527,None,,,1052.5119212251157,None,1.506878306878307,0.599140933714807,1052.5119212251157,None,,,,,,,1050.4954660800286,None,1050.6787849529646,1050.6955496901646,,,,,,,163,001,2024_Feb_14_1343,SpeechDraft1Carolyn_lessNoise_PlusLocalization,2021.2.3,60.09969802827215,
,,,,,,,,midLeft,-13.0,2,ch1Sound_localizationTask.wav,-13.0,"(762, 878)","(-198,-202)",-190,-338,,,,,,,,,,,,,2,6,20,1,,,,,,,,,,,,,,,,,,,,,,,,,,,,,,,,,,,,,,,,1053.1124865370803,None,,,1056.1285065310076,None,1.3634920634920635,0.7490913840010762,1056.1285065310076,None,,,,,,,1054.1121517121792,None,1054.2954445751384,1054.312205248978,,,,,,,163,001,2024_Feb_14_1343,SpeechDraft1Carolyn_lessNoise_PlusLocalization,2021.2.3,60.09969802827215,
,,,,,,,,midLeft,-13.0,2,ch1Sound_localizationTask.wav,-13.0,"(762, 878)","(-198,-202)",-190,-338,,,,,,,,,,,,,3,0,21,1,,,,,,,,,,,,,,,,,,,,,,,,,,,,,,,,,,,,,,,,1056.8794511738233,None,,,1059.8951380611397,None,1.4132275132275132,0.5321378228254616,1059.8951380611397,None,,,,,,,1057.8790252408944,None,1058.062082693912,1058.0788120739162,,,,,,,163,001,2024_Feb_14_1343,SpeechDraft1Carolyn_lessNoise_PlusLocalization,2021.2.3,60.09969802827215,
,,,,,,,,nearLeft,-6.5,1,ch1Sound_localizationTask.wav,-6.5,"(857, 878)","(-103,-202)",-95,-338,,,,,,,,,,,,,3,1,22,2,,,,,,,,,,,,,,,,,,,,,,,,,,,,,,,,,,,,,,,,1060.4288569800556,None,,,1063.4451943309978,None,1.433862433862434,0.7164112110622227,1063.4451943309978,None,,,,,,,1061.4288152167574,None,1061.6121857548133,1061.6288265758194,,,,,,,163,001,2024_Feb_14_1343,SpeechDraft1Carolyn_lessNoise_PlusLocalization,2021.2.3,60.09969802827215,
,,,,,,,,midRight,13.0,3,ch1Sound_localizationTask.wav,13.0,"(1142, 878)","(182, -202)",190,-338,,,,,,,,,,,,,3,2,23,5,,,,,,,,,,,,,,,,,,,,,,,,,,,,,,,,,,,,,,,,1064.1623324020766,None,,,1067.1785897300579,None,1.6132275132275131,0.44883531983941793,1067.1785897300579,None,,,,,,,1065.1622907710262,None,1065.3454801188782,1065.3621105370112,,,,,,,163,001,2024_Feb_14_1343,SpeechDraft1Carolyn_lessNoise_PlusLocalization,2021.2.3,60.09969802827215,
,,,,,,,,midRight,13.0,3,ch1Sound_localizationTask.wav,13.0,"(1142, 878)","(182, -202)",190,-338,,,,,,,,,,,,,3,3,24,5,,,,,,,,,,,,,,,,,,,,,,,,,,,,,,,,,,,,,,,,1067.628954031039,None,,,1070.645202129148,None,1.6804232804232804,0.5656128041446209,1070.645202129148,None,,,,,,,1068.628886050079,None,1068.812156170141,1068.8288293578662,,,,,,,163,001,2024_Feb_14_1343,SpeechDraft1Carolyn_lessNoise_PlusLocalization,2021.2.3,60.09969802827215,
,,,,,,,,midRight,13.0,3,ch1Sound_localizationTask.wav,13.0,"(1142, 878)","(182, -202)",190,-338,,,,,,,,,,,,,3,4,25,5,,,,,,,,,,,,,,,,,,,,,,,,,,,,,,,,,,,,,,,,1071.2120914570987,None,,,1074.2284966688603,None,1.6206349206349207,3.6163304108195007,1074.2284966688603,None,,,,,,,1072.212140917778,None,1072.3954781708308,1072.41227445798,,,,,,,163,001,2024_Feb_14_1343,SpeechDraft1Carolyn_lessNoise_PlusLocalization,2021.2.3,60.09969802827215,
,,,,,,,,midLeft,-13.0,2,ch1Sound_localizationTask.wav,-13.0,"(762, 878)","(-198,-202)",-190,-338,,,,,,,,,,,,,3,5,26,1,,,,,,,,,,,,,,,,,,,,,,,,,,,,,,,,,,,,,,,,1077.8457559910603,None,,,1080.8618480660953,None,1.3931216931216932,0.7322539677843451,1080.8618480660953,None,,,,,,,1078.8456067950465,None,1079.0288189938292,1079.0455667339265,,,,,,,163,001,2024_Feb_14_1343,SpeechDraft1Carolyn_lessNoise_PlusLocalization,2021.2.3,60.09969802827215,
,,,,,,,,nearLeft,-6.5,1,ch1Sound_localizationTask.wav,-6.5,"(857, 878)","(-103,-202)",-95,-338,,,,,,,,,,,,,3,6,27,2,,,,,,,,,,,,,,,,,,,,,,,,,,,,,,,,,,,,,,,,1081.595703105908,None,,,1084.6119609652087,None,1.4608465608465608,0.5498472298495471,1084.6119609652087,None,,,,,,,1082.5957193230279,None,1082.7790285139345,1082.7957253041677,,,,,,,163,001,2024_Feb_14_1343,SpeechDraft1Carolyn_lessNoise_PlusLocalization,2021.2.3,60.09969802827215,
,,,,,,,,center,0.0,6,ch1Sound_localizationTask.wav,0.0,"(952, 878)","(-8,-202)",0,-338,,,,,,,,,,,,,4,0,28,3,,,,,,,,,,,,,,,,,,,,,,,,,,,,,,,,,,,,,,,,1085.1628461447544,None,,,1088.178667099215,None,1.4608465608465608,5.416204702109098,1088.178667099215,None,,,,,,,1086.1620954847895,None,1086.3454578150995,1086.362177412957,,,,,,,163,001,2024_Feb_14_1343,SpeechDraft1Carolyn_lessNoise_PlusLocalization,2021.2.3,60.09969802827215,
,,,,,,,,center,0.0,6,ch1Sound_localizationTask.wav,0.0,"(952, 878)","(-8,-202)",0,-338,,,,,,,,,,,,,4,1,29,3,,,,,,,,,,,,,,,,,,,,,,,,,,,,,,,,,,,,,,,,1093.5955572607927,None,,,1096.6119201248512,None,1.4608465608465608,0.2494334620423615,1096.6119201248512,None,,,,,,,1094.5955767999403,None,1094.7788616460748,1094.7955465489067,,,,,,,163,001,2024_Feb_14_1343,SpeechDraft1Carolyn_lessNoise_PlusLocalization,2021.2.3,60.09969802827215,
,,,,,,,,midLeft,-13.0,2,ch1Sound_localizationTask.wav,-13.0,"(762, 878)","(-198,-202)",-190,-338,,,,,,,,,,,,,4,2,30,1,,,,,,,,,,,,,,,,,,,,,,,,,,,,,,,,,,,,,,,,1096.8624582611956,None,,,1099.8784806518815,None,1.3698412698412699,0.5324557330459356,1099.8784806518815,None,,,,,,,1097.8621888728812,None,1098.045558151789,1098.0621678382158,,,,,,,163,001,2024_Feb_14_1343,SpeechDraft1Carolyn_lessNoise_PlusLocalization,2021.2.3,60.09969802827215,
,,,,,,,,farRight,19.1,4,ch1Sound_localizationTask.wav,19.1,"(1237, 878)","(277,-202)",285,-338,,,,,,,,,,,,,4,3,31,6,,,,,,,,,,,,,,,,,,,,,,,,,,,,,,,,,,,,,,,,1100.4124126150273,None,,,1103.4285701918416,None,1.4328042328042327,0.9995964770205319,1103.4285701918416,None,,,,,,,1101.412295483984,None,1101.595551062841,1101.6121645220555,,,,,,,163,001,2024_Feb_14_1343,SpeechDraft1Carolyn_lessNoise_PlusLocalization,2021.2.3,60.09969802827215,
,,,,,,,,farRight,19.1,4,ch1Sound_localizationTask.wav,19.1,"(1237, 878)","(277,-202)",285,-338,,,,,,,,,,,,,4,4,32,6,,,,,,,,,,,,,,,,,,,,,,,,,,,,,,,,,,,,,,,,1104.4290150529705,None,,,1107.445337519981,None,1.5428571428571427,0.5656271390616894,1107.445337519981,None,,,,,,,1105.4288560408168,None,1105.6122421408072,1105.628863091115,,,,,,,163,001,2024_Feb_14_1343,SpeechDraft1Carolyn_lessNoise_PlusLocalization,2021.2.3,60.09969802827215,
,,,,,,,,nearRight,6.5,0,ch1Sound_localizationTask.wav,6.5,"(1047, 878)","(87, -202)",95,-338,,,,,,,,,,,,,4,5,33,4,,,,,,,,,,,,,,,,,,,,,,,,,,,,,,,,,,,,,,,,1108.012275727,None,,,1111.028809985146,None,1.5994708994708995,0.5487736202776432,1111.028809985146,None,,,,,,,1109.0121749620885,None,1109.1955514089204,1109.2121888301335,,,,,,,163,001,2024_Feb_14_1343,SpeechDraft1Carolyn_lessNoise_PlusLocalization,2021.2.3,60.09969802827215,
,,,,,,,,midRight,13.0,3,ch1Sound_localizationTask.wav,13.0,"(1142, 878)","(182, -202)",190,-338,,,,,,,,,,,,,4,6,34,5,,,,,,,,,,,,,,,,,,,,,,,,,,,,,,,,,,,,,,,,1111.5790135581046,None,,,1114.5954138399102,None,1.6814814814814816,0.5820771916769445,1114.5954138399102,None,,,,,,,1112.5790576329455,None,1112.7622095542029,1112.7789965760894,,,,,,,163,001,2024_Feb_14_1343,SpeechDraft1Carolyn_lessNoise_PlusLocalization,2021.2.3,60.09969802827215,
,,,,,,,,nearRight,6.5,0,ch1Sound_localizationTask.wav,6.5,"(1047, 878)","(87, -202)",95,-338,,,,,,,,,,,,,5,0,35,4,,,,,,,,,,,,,,,,,,,,,,,,,,,,,,,,,,,,,,,,1115.1789537039585,None,,,1118.1954368320294,None,1.560846560846561,0.6327440151944757,1118.1954368320294,None,,,,,,,1116.1788930408657,None,1116.3622429249808,1116.378871660214,,,,,,,163,001,2024_Feb_14_1343,SpeechDraft1Carolyn_lessNoise_PlusLocalization,2021.2.3,60.09969802827215,
,,,,,,,,nearLeft,-6.5,1,ch1Sound_localizationTask.wav,-6.5,"(857, 878)","(-103,-202)",-95,-338,,,,,,,,,,,,,5,1,36,2,,,,,,,,,,,,,,,,,,,,,,,,,,,,,,,,,,,,,,,,1118.8290961440653,None,,,1121.8453286788426,None,1.4576719576719577,0.4480303693562746,1121.8453286788426,None,,,,,,,1119.8288349257782,None,1120.0122718331404,1120.02887602197,,,,,,,163,001,2024_Feb_14_1343,SpeechDraft1Carolyn_lessNoise_PlusLocalization,2021.2.3,60.09969802827215,
,,,,,,,,midLeft,-13.0,2,ch1Sound_localizationTask.wav,-13.0,"(762, 878)","(-198,-202)",-190,-338,,,,,,,,,,,,,5,2,37,1,,,,,,,,,,,,,,,,,,,,,,,,,,,,,,,,,,,,,,,,1122.2957543819211,None,,,1125.3119224361144,None,1.3433862433862434,0.5670854263007641,1125.3119224361144,None,,,,,,,1123.2955611827783,None,1123.478799333796,1123.4955979217775,,,,,,,163,001,2024_Feb_14_1343,SpeechDraft1Carolyn_lessNoise_PlusLocalization,2021.2.3,60.09969802827215,
,,,,,,,,midRight,13.0,3,ch1Sound_localizationTask.wav,13.0,"(1142, 878)","(182, -202)",190,-338,,,,,,,,,,,,,5,3,38,5,,,,,,,,,,,,,,,,,,,,,,,,,,,,,,,,,,,,,,,,1125.879390932154,None,,,1128.895231924951,None,1.483068783068783,0.43319159699603915,1128.895231924951,None,,,,,,,1126.878955414053,None,1127.0623460737988,1127.0789145771414,,,,,,,163,001,2024_Feb_14_1343,SpeechDraft1Carolyn_lessNoise_PlusLocalization,2021.2.3,60.09969802827215,
,,,,,,,,nearRight,6.5,0,ch1Sound_localizationTask.wav,6.5,"(1047, 878)","(87, -202)",95,-338,,,,,,,,,,,,,5,4,39,4,,,,,,,,,,,,,,,,,,,,,,,,,,,,,,,,,,,,,,,,1129.3292982489802,None,,,1132.3453272720799,None,1.5735449735449736,0.6490832357667387,1132.3453272720799,None,,,,,,,1130.3289296519943,None,1130.5122887250036,1130.5289256600663,,,,,,,163,001,2024_Feb_14_1343,SpeechDraft1Carolyn_lessNoise_PlusLocalization,2021.2.3,60.09969802827215,
,,,,,,,,farRight,19.1,4,ch1Sound_localizationTask.wav,19.1,"(1237, 878)","(277,-202)",285,-338,,,,,,,,,,,,,5,5,40,6,,,,,,,,,,,,,,,,,,,,,,,,,,,,,,,,,,,,,,,,1132.9956821789965,None,,,1136.0119876009412,None,1.6285714285714286,0.48169797798618674,1136.0119876009412,None,,,,,,,1133.9956962889992,None,1134.178948213812,1134.1957764751278,,,,,,,163,001,2024_Feb_14_1343,SpeechDraft1Carolyn_lessNoise_PlusLocalization,2021.2.3,60.09969802827215,
,,,,,,,,center,0.0,6,ch1Sound_localizationTask.wav,0.0,"(952, 878)","(-8,-202)",0,-338,,,,,,,,,,,,,5,6,41,3,,,,,,,,,,,,,,,,,,,,,,,,,,,,,,,,,,,,,,,,1136.4956182870083,None,,,1139.5119595369324,None,1.4735449735449735,0.6824983451515436,1139.5119595369324,None,,,,,,,1137.4955792850815,None,1137.679185745772,1137.6959530417807,,,,,,,163,001,2024_Feb_14_1343,SpeechDraft1Carolyn_lessNoise_PlusLocalization,2021.2.3,60.09969802827215,
,,,,,,,,farLeft,-19.1,5,ch1Sound_localizationTask.wav,-19.1,"(667, 878)","(-293,-202)",-285,-338,,,,,,,,,,,,,6,0,42,0,,,,,,,,,,,,,,,,,,,,,,,,,,,,,,,,,,,,,,,,1140.1955533181317,None,,,1143.2120661390945,None,1.337037037037037,0.8478588401339948,1143.2120661390945,None,,,,,,,1141.195561314933,None,1141.378899349831,1141.3955627139658,,,,,,,163,001,2024_Feb_14_1343,SpeechDraft1Carolyn_lessNoise_PlusLocalization,2021.2.3,60.09969802827215,
,,,,,,,,center,0.0,6,ch1Sound_localizationTask.wav,0.0,"(952, 878)","(-8,-202)",0,-338,,,,,,,,,,,,,6,1,43,3,,,,,,,,,,,,,,,,,,,,,,,,,,,,,,,,,,,,,,,,1144.062481537927,None,,,1147.0788344708271,None,1.5047619047619047,0.6333642979152501,1147.0788344708271,None,,,,,,,1145.0622404888272,None,1145.2455385248177,1145.2622601459734,,,,,,,163,001,2024_Feb_14_1343,SpeechDraft1Carolyn_lessNoise_PlusLocalization,2021.2.3,60.09969802827215,
,,,,,,,,nearRight,6.5,0,ch1Sound_localizationTask.wav,6.5,"(1047, 878)","(87, -202)",95,-338,,,,,,,,,,,,,6,2,44,4,,,,,,,,,,,,,,,,,,,,,,,,,,,,,,,,,,,,,,,,1147.7288858117536,None,,,1150.7453914689831,None,1.3793650793650793,1.2498124558478594,1150.7453914689831,None,,,,,,,1148.7288448251784,None,1148.9122856869362,1148.9288471508771,,,,,,,163,001,2024_Feb_14_1343,SpeechDraft1Carolyn_lessNoise_PlusLocalization,2021.2.3,60.09969802827215,
,,,,,,,,nearRight,6.5,0,ch1Sound_localizationTask.wav,6.5,"(1047, 878)","(87, -202)",95,-338,,,,,,,,,,,,,6,3,45,4,,,,,,,,,,,,,,,,,,,,,,,,,,,,,,,,,,,,,,,,1151.997467665933,None,,,1155.0288617210463,None,1.4396825396825397,0.3155621807090938,1155.0288617210463,None,,,,,,,1153.0123458327726,None,1153.19559853198,1153.212334164884,,,,,,,163,001,2024_Feb_14_1343,SpeechDraft1Carolyn_lessNoise_PlusLocalization,2021.2.3,60.09969802827215,
,,,,,,,,nearLeft,-6.5,1,ch1Sound_localizationTask.wav,-6.5,"(857, 878)","(-103,-202)",-95,-338,,,,,,,,,,,,,6,4,46,2,,,,,,,,,,,,,,,,,,,,,,,,,,,,,,,,,,,,,,,,1155.3466490269639,None,,,1158.3620901838876,None,1.455026455026455,0.5330684692598879,1158.3620901838876,None,,,,,,,1156.3455877131782,None,1156.5290696201846,1156.5456625637598,,,,,,,163,001,2024_Feb_14_1343,SpeechDraft1Carolyn_lessNoise_PlusLocalization,2021.2.3,60.09969802827215,
,,,,,,,,nearLeft,-6.5,1,ch1Sound_localizationTask.wav,-6.5,"(857, 878)","(-103,-202)",-95,-338,,,,,,,,,,,,,6,5,47,2,,,,,,,,,,,,,,,,,,,,,,,,,,,,,,,,,,,,,,,,1158.8958434439264,None,,,1161.9120364938863,None,1.4296296296296296,0.7493589790537953,1161.9120364938863,None,,,,,,,1159.8956306180917,None,1160.0789357488975,1160.0958830951713,,,,,,,163,001,2024_Feb_14_1343,SpeechDraft1Carolyn_lessNoise_PlusLocalization,2021.2.3,60.09969802827215,
,,,,,,,,nearRight,6.5,0,ch1Sound_localizationTask.wav,6.5,"(1047, 878)","(87, -202)",95,-338,,,,,,,,,,,,,6,6,48,4,,,,,,,,,,,,,,,,,,,,,,,,,,,,,,,,,,,,,,,,1162.662273291964,None,,,1165.6787368441,None,1.5862433862433862,0.5344351409003139,1165.6787368441,None,,,,,,,1163.6624487801455,None,1163.8455683211796,1163.8622910222039,,,,,,,163,001,2024_Feb_14_1343,SpeechDraft1Carolyn_lessNoise_PlusLocalization,2021.2.3,60.09969802827215,
,,,,,,,,farRight,19.1,4,ch1Sound_localizationTask.wav,19.1,"(1237, 878)","(277,-202)",285,-338,,,,,,,,,,,,,7,0,49,6,,,,,,,,,,,,,,,,,,,,,,,,,,,,,,,,,,,,,,,,1166.2290418702178,None,,,1169.2452923301607,None,1.7195767195767195,0.582032878883183,1169.2452923301607,None,,,,,,,1167.2290361071937,None,1167.4121868740767,1167.4289350882173,,,,,,,163,001,2024_Feb_14_1343,SpeechDraft1Carolyn_lessNoise_PlusLocalization,2021.2.3,60.09969802827215,
,,,,,,,,center,0.0,6,ch1Sound_localizationTask.wav,0.0,"(952, 878)","(-8,-202)",0,-338,,,,,,,,,,,,,7,1,50,3,,,,,,,,,,,,,,,,,,,,,,,,,,,,,,,,,,,,,,,,1169.8290434097871,None,,,1172.8452996257693,None,1.5126984126984127,0.7158187082968652,1172.8452996257693,None,,,,,,,1170.8289794428274,None,1171.012340337038,1171.0289879729971,,,,,,,163,001,2024_Feb_14_1343,SpeechDraft1Carolyn_lessNoise_PlusLocalization,2021.2.3,60.09969802827215,
,,,,,,,,farRight,19.1,4,ch1Sound_localizationTask.wav,19.1,"(1237, 878)","(277,-202)",285,-338,,,,,,,,,,,,,7,2,51,6,,,,,,,,,,,,,,,,,,,,,,,,,,,,,,,,,,,,,,,,1173.5623057158664,None,,,1176.5789077621885,None,1.6417989417989418,1.1319145038723946,1176.5789077621885,None,,,,,,,1174.5623451392166,None,1174.7457049451768,1174.7625138177536,,,,,,,163,001,2024_Feb_14_1343,SpeechDraft1Carolyn_lessNoise_PlusLocalization,2021.2.3,60.09969802827215,
,,,,,,,,nearLeft,-6.5,1,ch1Sound_localizationTask.wav,-6.5,"(857, 878)","(-103,-202)",-95,-338,,,,,,,,,,,,,7,3,52,2,,,,,,,,,,,,,,,,,,,,,,,,,,,,,,,,,,,,,,,,1177.7126091527753,None,,,1180.7286543319933,None,1.475132275132275,1.314207280986011,1180.7286543319933,None,,,,,,,1178.7123088031076,None,1178.895623558201,1178.9122953871265,,,,,,,163,001,2024_Feb_14_1343,SpeechDraft1Carolyn_lessNoise_PlusLocalization,2021.2.3,60.09969802827215,
,,,,,,,,midRight,13.0,3,ch1Sound_localizationTask.wav,13.0,"(1142, 878)","(182, -202)",190,-338,,,,,,,,,,,,,7,4,53,5,,,,,,,,,,,,,,,,,,,,,,,,,,,,,,,,,,,,,,,,1182.0456041628495,None,,,1185.0620674397796,None,1.6015873015873017,0.9829049021936953,1185.0620674397796,None,,,,,,,1183.0456678201444,None,1183.2289736391976,1183.2456763531081,,,,,,,163,001,2024_Feb_14_1343,SpeechDraft1Carolyn_lessNoise_PlusLocalization,2021.2.3,60.09969802827215,
,,,,,,,,farLeft,-19.1,5,ch1Sound_localizationTask.wav,-19.1,"(667, 878)","(-293,-202)",-285,-338,,,,,,,,,,,,,7,5,54,0,,,,,,,,,,,,,,,,,,,,,,,,,,,,,,,,,,,,,,,,1186.0462629380636,None,,,1189.0621162150055,None,1.378835978835979,0.8146520890295506,1189.0621162150055,None,,,,,,,1187.0457118260674,None,1187.2289873198606,1187.245797987096,,,,,,,163,001,2024_Feb_14_1343,SpeechDraft1Carolyn_lessNoise_PlusLocalization,2021.2.3,60.09969802827215,
,,,,,,,,farLeft,-19.1,5,ch1Sound_localizationTask.wav,-19.1,"(667, 878)","(-293,-202)",-285,-338,,,,,,,,,,,,,7,6,55,0,,,,,,,,,,,,,,,,,,,,,,,,,,,,,,,,,,,,,,,,1189.878995563835,None,,,1192.8952719778754,None,1.3365079365079366,0.7991987457498908,1192.8952719778754,None,,,,,,,1190.8789513059892,None,1191.062241206877,1191.0789766130038,,,,,,,163,001,2024_Feb_14_1343,SpeechDraft1Carolyn_lessNoise_PlusLocalization,2021.2.3,60.09969802827215,
,,,,,,,,,,,,,,,,,,,,,,,,,,,,,,,,,,,,,,,,,,,,,,,,,,,,,,,,,,,,,,,,,,,,,,,,,,,,,,,,,,,,,,,,,,,,1193.696340172086,None,c,894.6500593652017,1194.6791316620074,None,163,001,2024_Feb_14_1343,SpeechDraft1Carolyn_lessNoise_PlusLocalization,2021.2.3,60.09969802827215,
