Audio_Only_Files,Video_Files,Original_Word_List,noiseLevelCode,conditionCodes,noiseLevelFile1,noiseLevelFile2,InstrTextVar,targetSpeakerName,targetSpeakerEccen,targetSpkrChannel,targetSpkrSound,targetVisualDegrees,visStimLoc,visStimLoc2,visStimW,visStimH,practiceTrials.thisRepN,practiceTrials.thisTrialN,practiceTrials.thisN,practiceTrials.thisIndex,trials.thisRepN,trials.thisTrialN,trials.thisN,trials.thisIndex,audLocalLoop.thisRepN,audLocalLoop.thisTrialN,audLocalLoop.thisN,audLocalLoop.thisIndex,visualLocalLoop.thisRepN,visualLocalLoop.thisTrialN,visualLocalLoop.thisN,visualLocalLoop.thisIndex,letsGoAlready.keys,letsGoAlready.rt,letsGoAlready.started,letsGoAlready.stopped,text_2.started,text_2.stopped,text_3.started,text_3.stopped,key_resp_2.keys,key_resp_2.rt,key_resp_2.started,key_resp_2.stopped,text_5.started,text_5.stopped,fixCross.started,fixCross.stopped,fixCross2.started,fixCross2.stopped,answerPrompt.started,answerPrompt.stopped,getAnswer.text,getAnswer.started,getAnswer.stopped,goToNext.keys,goToNext.rt,goToNext.started,goToNext.stopped,stretchBreakTxrt.started,stretchBreakTxrt.stopped,key_resp_3.keys,key_resp_3.rt,key_resp_3.started,key_resp_3.stopped,letsGoLocal.keys,letsGoLocal.rt,letsGoLocal.started,letsGoLocal.stopped,text_4.started,text_4.stopped,prepFixTxt.started,prepFixTxt.stopped,prepFixTxt_2.started,prepFixTxt_2.stopped,respPromptLocal.started,respPromptLocal.stopped,slider.response,slider.rt,slider.started,slider.stopped,letsGoLocal_2.keys,letsGoLocal_2.rt,letsGoLocal_2.started,letsGoLocal_2.stopped,text_7.started,text_7.stopped,prepFixTxt_3.started,prepFixTxt_3.stopped,grating.started,grating.stopped,exitTxt.started,exitTxt.stopped,key_resp.keys,key_resp.rt,key_resp.started,key_resp.stopped,participant,session,date,expName,psychopyVersion,frameRate,
,,,,,,,,,,,,,,,,,,,,,,,,,,,,,,,,,space,11.030316473916173,22.293655214831233,None,,,,,,,,,,,,,,,,,,,,,,,,,,,,,,,,,,,,,,,,,,,,,,,,,,,,,,,,,,,,,,165,001,2024_Feb_21_1126,SpeechDraft1Carolyn_lessNoise_PlusLocalization,2021.2.3,59.94267237343117,
,,,,,,,,,,,,,,,,,,,,,,,,,,,,,,,,,,,,,22.293655214831233,None,33.44321021577343,None,space,7.881053771823645,33.62686858791858,None,,,,,,,,,,,,,,,,,,,,,,,,,,,,,,,,,,,,,,,,,,,,,,,,,,,,,,165,001,2024_Feb_21_1126,SpeechDraft1Carolyn_lessNoise_PlusLocalization,2021.2.3,59.94267237343117,
ash.wav,ash.mpg,ash,1,A,Pink_Noise_1_1.wav,Pink_Noise_1_2.wav,"This is an example of an

AUDIO trial",,,,,,,,,,0,0,0,0,,,,,,,,,,,,,,,,,,,,,,,,,41.559999124147,None,42.543548239860684,None,45.75996754411608,None,47.14349445188418,None,"ashe
",47.14349445188418,None,return,1.6170609267428517,47.22684085601941,None,,,,,,,,,,,,,,,,,,,,,,,,,,,,,,,,,,,,,,,165,001,2024_Feb_21_1126,SpeechDraft1Carolyn_lessNoise_PlusLocalization,2021.2.3,59.94267237343117,
ash.wav,ash.mpg,ash,1,AV,Pink_Noise_1_1.wav,Pink_Noise_1_2.wav,"This is an example of an

AUDIO + VIDEO  trial",,,,,,,,,,0,1,1,1,,,,,,,,,,,,,,,,,,,,,,,,,48.893268771935254,None,49.893614646978676,None,51.39336999412626,None,52.7768803560175,None,ashe,52.7768803560175,None,return,1.1036694878712296,52.86023218603805,None,,,,,,,,,,,,,,,,,,,,,,,,,,,,,,,,,,,,,,,165,001,2024_Feb_21_1126,SpeechDraft1Carolyn_lessNoise_PlusLocalization,2021.2.3,59.94267237343117,
,,,,,,,,,,,,,,,,,,,,,,,,,,,,,,,,,,,,,,,,,,,,,,,,,,,,,,,,,,,,54.009987231809646,None,space,0.9464005692861974,54.19354183319956,None,,,,,,,,,,,,,,,,,,,,,,,,,,,,,,,,,165,001,2024_Feb_21_1126,SpeechDraft1Carolyn_lessNoise_PlusLocalization,2021.2.3,59.94267237343117,
unit.wav,unit.mpg,unit,5,AV,Pink_Noise_5_1.wav,Pink_Noise_5_2.wav,,,,,,,,,,,,,,,0,0,0,62,,,,,,,,,,,,,,,,,,,,,,,55.19324196502566,None,56.67665472486988,None,58.06019532913342,None,what,58.06019532913342,None,return,29.340411227662116,58.14357607299462,None,,,,,,,,,,,,,,,,,,,,,,,,,,,,,,,,,,,,,,,165,001,2024_Feb_21_1126,SpeechDraft1Carolyn_lessNoise_PlusLocalization,2021.2.3,59.94267237343117,
wound.wav,wound.mpg,wound,5,A,Pink_Noise_5_1.wav,Pink_Noise_5_2.wav,,,,,,,,,,,,,,,0,1,1,27,,,,,,,,,,,,,,,,,,,,,,,87.5102317109704,None,89.01007041381672,None,90.39362716814503,None,woo,90.39362716814503,None,return,1.9830091879703104,90.47694341605529,None,,,,,,,,,,,,,,,,,,,,,,,,,,,,,,,,,,,,,,,165,001,2024_Feb_21_1126,SpeechDraft1Carolyn_lessNoise_PlusLocalization,2021.2.3,59.94267237343117,
fat.wav,fat.mpg,fat,1,AV,Pink_Noise_1_1.wav,Pink_Noise_1_2.wav,,,,,,,,,,,,,,,0,2,2,96,,,,,,,,,,,,,,,,,,,,,,,92.47694384912029,None,93.97678029583767,None,95.36021140404046,None,"fat
",95.36021140404046,None,return,1.5842972951941192,95.44360248092562,None,,,,,,,,,,,,,,,,,,,,,,,,,,,,,,,,,,,,,,,165,001,2024_Feb_21_1126,SpeechDraft1Carolyn_lessNoise_PlusLocalization,2021.2.3,59.94267237343117,
bond.wav,bond.mpg,bond,5,AV,Pink_Noise_5_1.wav,Pink_Noise_5_2.wav,,,,,,,,,,,,,,,0,3,3,60,,,,,,,,,,,,,,,,,,,,,,,97.06035091914237,None,98.55998895317316,None,99.9436028371565,None,"pay
",99.9436028371565,None,return,11.800844461191446,100.02704792283475,None,,,,,,,,,,,,,,,,,,,,,,,,,,,,,,,,,,,,,,,165,001,2024_Feb_21_1126,SpeechDraft1Carolyn_lessNoise_PlusLocalization,2021.2.3,59.94267237343117,
pop.wav,pop.mpg,pop,6,A,Pink_Noise_6_1.wav,Pink_Noise_6_2.wav,,,,,,,,,,,,,,,0,4,4,19,,,,,,,,,,,,,,,,,,,,,,,111.86038612481207,None,113.36002998892218,None,114.74368423083797,None,hook,114.74368423083797,None,return,9.056934248190373,114.82696876488626,None,,,,,,,,,,,,,,,,,,,,,,,,,,,,,,,,,,,,,,,165,001,2024_Feb_21_1126,SpeechDraft1Carolyn_lessNoise_PlusLocalization,2021.2.3,59.94267237343117,
hike.wav,hike.mpg,hike,3,AV,Pink_Noise_3_1.wav,Pink_Noise_3_2.wav,,,,,,,,,,,,,,,0,5,5,119,,,,,,,,,,,,,,,,,,,,,,,123.91040805587545,None,125.41003641486168,None,126.7936437940225,None,hike,126.7936437940225,None,return,9.270930022001266,126.87696379097179,None,,,,,,,,,,,,,,,,,,,,,,,,,,,,,,,,,,,,,,,165,001,2024_Feb_21_1126,SpeechDraft1Carolyn_lessNoise_PlusLocalization,2021.2.3,59.94267237343117,
grill.wav,grill.mpg,grill,1,A,Pink_Noise_1_1.wav,Pink_Noise_1_2.wav,,,,,,,,,,,,,,,0,6,6,16,,,,,,,,,,,,,,,,,,,,,,,136.17696876311675,None,137.67668292718008,None,139.0604927460663,None,"grill
",139.0604927460663,None,return,6.036243130918592,139.14366578683257,None,,,,,,,,,,,,,,,,,,,,,,,,,,,,,,,,,,,,,,,165,001,2024_Feb_21_1126,SpeechDraft1Carolyn_lessNoise_PlusLocalization,2021.2.3,59.94267237343117,
coup.wav,coup.mpg,coup,1,A,Pink_Noise_1_1.wav,Pink_Noise_1_2.wav,,,,,,,,,,,,,,,0,7,7,55,,,,,,,,,,,,,,,,,,,,,,,145.21031384682283,None,146.71010163519531,None,148.09366135904565,None,hook,148.09366135904565,None,return,3.738957292865962,148.17705601919442,None,,,,,,,,,,,,,,,,,,,,,,,,,,,,,,,,,,,,,,,165,001,2024_Feb_21_1126,SpeechDraft1Carolyn_lessNoise_PlusLocalization,2021.2.3,59.94267237343117,
fate.wav,fate.mpg,fate,4,A,Pink_Noise_4_1.wav,Pink_Noise_4_2.wav,,,,,,,,,,,,,,,0,8,8,3,,,,,,,,,,,,,,,,,,,,,,,151.9436828638427,None,153.4434913760051,None,154.82699123676866,None,speech,154.82699123676866,None,return,5.341367983259261,154.9105423609726,None,,,,,,,,,,,,,,,,,,,,,,,,,,,,,,,,,,,,,,,165,001,2024_Feb_21_1126,SpeechDraft1Carolyn_lessNoise_PlusLocalization,2021.2.3,59.94267237343117,
tear.wav,tear.mpg,tear,6,A,Pink_Noise_6_1.wav,Pink_Noise_6_2.wav,,,,,,,,,,,,,,,0,9,9,25,,,,,,,,,,,,,,,,,,,,,,,160.27712675184011,None,161.77675001695752,None,163.16040382208303,None,"play
",163.16040382208303,None,return,11.400223337113857,163.24367713695392,None,,,,,,,,,,,,,,,,,,,,,,,,,,,,,,,,,,,,,,,165,001,2024_Feb_21_1126,SpeechDraft1Carolyn_lessNoise_PlusLocalization,2021.2.3,59.94267237343117,
blimp.wav,blimp.mpg,blimp,3,A,Pink_Noise_3_1.wav,Pink_Noise_3_2.wav,,,,,,,,,,,,,,,0,10,10,22,,,,,,,,,,,,,,,,,,,,,,,174.67715644882992,None,176.19344625482336,None,177.57713046111166,None,lip,177.57713046111166,None,return,2.0316043295897543,177.660357571207,None,,,,,,,,,,,,,,,,,,,,,,,,,,,,,,,,,,,,,,,165,001,2024_Feb_21_1126,SpeechDraft1Carolyn_lessNoise_PlusLocalization,2021.2.3,59.94267237343117,
carve.wav,carve.mpg,carve,2,A,Pink_Noise_2_1.wav,Pink_Noise_2_2.wav,,,,,,,,,,,,,,,0,11,11,45,,,,,,,,,,,,,,,,,,,,,,,179.71055803401396,None,181.21101364679635,None,182.5937480730936,None,car,182.5937480730936,None,return,1.4388172188773751,182.67714624479413,None,,,,,,,,,,,,,,,,,,,,,,,,,,,,,,,,,,,,,,,165,001,2024_Feb_21_1126,SpeechDraft1Carolyn_lessNoise_PlusLocalization,2021.2.3,59.94267237343117,
cliff.wav,cliff.mpg,cliff,5,A,Pink_Noise_5_1.wav,Pink_Noise_5_2.wav,,,,,,,,,,,,,,,0,12,12,12,,,,,,,,,,,,,,,,,,,,,,,184.1438079481013,None,185.64410514384508,None,187.02719903318211,None,cook,187.02719903318211,None,return,3.23751108488068,187.11041105678305,None,,,,,,,,,,,,,,,,,,,,,,,,,,,,,,,,,,,,,,,165,001,2024_Feb_21_1126,SpeechDraft1Carolyn_lessNoise_PlusLocalization,2021.2.3,59.94267237343117,
belt.wav,belt.mpg,belt,5,A,Pink_Noise_5_1.wav,Pink_Noise_5_2.wav,,,,,,,,,,,,,,,0,13,13,56,,,,,,,,,,,,,,,,,,,,,,,190.37712048599496,None,191.87685652915388,None,193.26043116301298,None,note,193.26043116301298,None,return,4.164147925097495,193.34376046806574,None,,,,,,,,,,,,,,,,,,,,,,,,,,,,,,,,,,,,,,,165,001,2024_Feb_21_1126,SpeechDraft1Carolyn_lessNoise_PlusLocalization,2021.2.3,59.94267237343117,
cuff.wav,cuff.mpg,cuff,1,A,Pink_Noise_1_1.wav,Pink_Noise_1_2.wav,,,,,,,,,,,,,,,0,14,14,38,,,,,,,,,,,,,,,,,,,,,,,197.5271738851443,None,199.02673557400703,None,200.4106721598655,None,cuf,200.4106721598655,None,return,3.038137166760862,200.49376012105495,None,,,,,,,,,,,,,,,,,,,,,,,,,,,,,,,,,,,,,,,165,001,2024_Feb_21_1126,SpeechDraft1Carolyn_lessNoise_PlusLocalization,2021.2.3,59.94267237343117,
flaw.wav,flaw.mpg,flaw,6,AV,Pink_Noise_6_1.wav,Pink_Noise_6_2.wav,,,,,,,,,,,,,,,0,15,15,76,,,,,,,,,,,,,,,,,,,,,,,203.560446461197,None,205.07685839105397,None,206.46042698901147,None,law,206.46042698901147,None,return,2.548113593365997,206.5437846109271,None,,,,,,,,,,,,,,,,,,,,,,,,,,,,,,,,,,,,,,,165,001,2024_Feb_21_1126,SpeechDraft1Carolyn_lessNoise_PlusLocalization,2021.2.3,59.94267237343117,
cow.wav,cow.mpg,cow,5,A,Pink_Noise_5_1.wav,Pink_Noise_5_2.wav,,,,,,,,,,,,,,,0,16,16,57,,,,,,,,,,,,,,,,,,,,,,,209.11048895213753,None,210.61012332513928,None,211.99381113611162,None,us,211.99381113611162,None,return,2.238671200349927,212.07735093915835,None,,,,,,,,,,,,,,,,,,,,,,,,,,,,,,,,,,,,,,,165,001,2024_Feb_21_1126,SpeechDraft1Carolyn_lessNoise_PlusLocalization,2021.2.3,59.94267237343117,
round.wav,round.mpg,round,3,AV,Pink_Noise_3_1.wav,Pink_Noise_3_2.wav,,,,,,,,,,,,,,,0,17,17,82,,,,,,,,,,,,,,,,,,,,,,,214.3438089848496,None,215.84357586782426,None,217.22722643520683,None,"round
",217.22722643520683,None,return,3.269461025018245,217.31044155778363,None,,,,,,,,,,,,,,,,,,,,,,,,,,,,,,,,,,,,,,,165,001,2024_Feb_21_1126,SpeechDraft1Carolyn_lessNoise_PlusLocalization,2021.2.3,59.94267237343117,
paid.wav,paid.mpg,paid,6,A,Pink_Noise_6_1.wav,Pink_Noise_6_2.wav,,,,,,,,,,,,,,,0,18,18,52,,,,,,,,,,,,,,,,,,,,,,,220.61049944115803,None,222.11016662605107,None,223.49386001983657,None,pay,223.49386001983657,None,return,3.962775699328631,223.57716384110972,None,,,,,,,,,,,,,,,,,,,,,,,,,,,,,,,,,,,,,,,165,001,2024_Feb_21_1126,SpeechDraft1Carolyn_lessNoise_PlusLocalization,2021.2.3,59.94267237343117,
float.wav,float.mpg,float,4,A,Pink_Noise_4_1.wav,Pink_Noise_4_2.wav,,,,,,,,,,,,,,,0,19,19,44,,,,,,,,,,,,,,,,,,,,,,,227.56039019906893,None,229.0601925640367,None,230.4438287471421,None,coat,230.4438287471421,None,return,5.876928409095854,230.52696690289304,None,,,,,,,,,,,,,,,,,,,,,,,,,,,,,,,,,,,,,,,165,001,2024_Feb_21_1126,SpeechDraft1Carolyn_lessNoise_PlusLocalization,2021.2.3,59.94267237343117,
build.wav,build.mpg,build,4,A,Pink_Noise_4_1.wav,Pink_Noise_4_2.wav,,,,,,,,,,,,,,,0,20,20,33,,,,,,,,,,,,,,,,,,,,,,,236.42708400078118,None,237.92877671215683,None,239.3105171150528,None,still,239.3105171150528,None,return,4.642071271780878,239.39384003495798,None,,,,,,,,,,,,,,,,,,,,,,,,,,,,,,,,,,,,,,,165,001,2024_Feb_21_1126,SpeechDraft1Carolyn_lessNoise_PlusLocalization,2021.2.3,59.94267237343117,
grown.wav,grown.mpg,grown,2,AV,Pink_Noise_2_1.wav,Pink_Noise_2_2.wav,,,,,,,,,,,,,,,0,21,21,115,,,,,,,,,,,,,,,,,,,,,,,244.06062423810363,None,245.56037086993456,None,246.943847309798,None,grown,246.943847309798,None,return,2.0807667351327837,247.02715771179646,None,,,,,,,,,,,,,,,,,,,,,,,,,,,,,,,,,,,,,,,165,001,2024_Feb_21_1126,SpeechDraft1Carolyn_lessNoise_PlusLocalization,2021.2.3,59.94267237343117,
grape.wav,grape.mpg,grape,3,AV,Pink_Noise_3_1.wav,Pink_Noise_3_2.wav,,,,,,,,,,,,,,,0,22,22,73,,,,,,,,,,,,,,,,,,,,,,,249.1271959268488,None,250.6268973047845,None,252.0105379722081,None,grape,252.0105379722081,None,return,2.206187892705202,252.09383275313303,None,,,,,,,,,,,,,,,,,,,,,,,,,,,,,,,,,,,,,,,165,001,2024_Feb_21_1126,SpeechDraft1Carolyn_lessNoise_PlusLocalization,2021.2.3,59.94267237343117,
grip.wav,grip.mpg,grip,6,AV,Pink_Noise_6_1.wav,Pink_Noise_6_2.wav,,,,,,,,,,,,,,,0,23,23,86,,,,,,,,,,,,,,,,,,,,,,,254.32715535582975,None,255.82724916515872,None,257.2104981201701,None,grape,257.2104981201701,None,return,3.2301062759943306,257.2938654059544,None,,,,,,,,,,,,,,,,,,,,,,,,,,,,,,,,,,,,,,,165,001,2024_Feb_21_1126,SpeechDraft1Carolyn_lessNoise_PlusLocalization,2021.2.3,59.94267237343117,
gash.wav,gash.mpg,gash,3,A,Pink_Noise_3_1.wav,Pink_Noise_3_2.wav,,,,,,,,,,,,,,,0,24,24,37,,,,,,,,,,,,,,,,,,,,,,,260.5438452260569,None,262.04364207107574,None,263.42719165515155,None,gash,263.42719165515155,None,return,2.4134811176918447,263.5105200018734,None,,,,,,,,,,,,,,,,,,,,,,,,,,,,,,,,,,,,,,,165,001,2024_Feb_21_1126,SpeechDraft1Carolyn_lessNoise_PlusLocalization,2021.2.3,59.94267237343117,
glide.wav,glide.mpg,glide,4,AV,Pink_Noise_4_1.wav,Pink_Noise_4_2.wav,,,,,,,,,,,,,,,0,25,25,92,,,,,,,,,,,,,,,,,,,,,,,265.94394189305604,None,267.4441287717782,None,268.8272194247693,None,glade,268.8272194247693,None,return,2.2054837150499225,268.91052204510197,None,,,,,,,,,,,,,,,,,,,,,,,,,,,,,,,,,,,,,,,165,001,2024_Feb_21_1126,SpeechDraft1Carolyn_lessNoise_PlusLocalization,2021.2.3,59.94267237343117,
frail.wav,frail.mpg,frail,5,AV,Pink_Noise_5_1.wav,Pink_Noise_5_2.wav,,,,,,,,,,,,,,,0,26,26,80,,,,,,,,,,,,,,,,,,,,,,,271.1438378840685,None,272.64358974294737,None,274.02723116381094,None,"fril
",274.02723116381094,None,return,12.8533293758519,274.11057159584016,None,,,,,,,,,,,,,,,,,,,,,,,,,,,,,,,,,,,,,,,165,001,2024_Feb_21_1126,SpeechDraft1Carolyn_lessNoise_PlusLocalization,2021.2.3,59.94267237343117,
bug.wav,bug.mpg,bug,2,A,Pink_Noise_2_1.wav,Pink_Noise_2_2.wav,,,,,,,,,,,,,,,0,27,27,8,,,,,,,,,,,,,,,,,,,,,,,286.99392806878313,None,288.49459251994267,None,289.8772757300176,None,fog,289.8772757300176,None,return,2.163510982878506,289.9605187252164,None,,,,,,,,,,,,,,,,,,,,,,,,,,,,,,,,,,,,,,,165,001,2024_Feb_21_1126,SpeechDraft1Carolyn_lessNoise_PlusLocalization,2021.2.3,59.94267237343117,
chin.wav,chin.mpg,chin,5,AV,Pink_Noise_5_1.wav,Pink_Noise_5_2.wav,,,,,,,,,,,,,,,0,28,28,112,,,,,,,,,,,,,,,,,,,,,,,292.1439749551937,None,293.6436837608926,None,295.02746767597273,None,chate,295.02746767597273,None,return,18.325309557840228,295.1105814068578,None,,,,,,,,,,,,,,,,,,,,,,,,,,,,,,,,,,,,,,,165,001,2024_Feb_21_1126,SpeechDraft1Carolyn_lessNoise_PlusLocalization,2021.2.3,59.94267237343117,
flea.wav,flea.mpg,flea,2,A,Pink_Noise_2_1.wav,Pink_Noise_2_2.wav,,,,,,,,,,,,,,,0,29,29,28,,,,,,,,,,,,,,,,,,,,,,,313.4606679510325,None,314.96147321211174,None,316.34392870310694,None,"sleep
",316.34392870310694,None,return,3.000666372012347,316.4272432378493,None,,,,,,,,,,,,,,,,,,,,,,,,,,,,,,,,,,,,,,,165,001,2024_Feb_21_1126,SpeechDraft1Carolyn_lessNoise_PlusLocalization,2021.2.3,59.94267237343117,
strive.wav,strive.mpg,strive,4,A,Pink_Noise_4_1.wav,Pink_Noise_4_2.wav,,,,,,,,,,,,,,,0,30,30,59,,,,,,,,,,,,,,,,,,,,,,,319.46058828989044,None,320.96201358595863,None,322.3438828862272,None,"strave
",322.3438828862272,None,return,9.368561518844217,322.42734095081687,None,,,,,,,,,,,,,,,,,,,,,,,,,,,,,,,,,,,,,,,165,001,2024_Feb_21_1126,SpeechDraft1Carolyn_lessNoise_PlusLocalization,2021.2.3,59.94267237343117,
pants.wav,pants.mpg,pants,1,AV,Pink_Noise_1_1.wav,Pink_Noise_1_2.wav,,,,,,,,,,,,,,,0,31,31,109,,,,,,,,,,,,,,,,,,,,,,,331.82725701807067,None,333.3270603287965,None,334.7105691288598,None,pants,334.7105691288598,None,return,4.273971925955266,334.79398093698546,None,,,,,,,,,,,,,,,,,,,,,,,,,,,,,,,,,,,,,,,165,001,2024_Feb_21_1126,SpeechDraft1Carolyn_lessNoise_PlusLocalization,2021.2.3,59.94267237343117,
mass.wav,mass.mpg,mass,4,A,Pink_Noise_4_1.wav,Pink_Noise_4_2.wav,,,,,,,,,,,,,,,0,32,32,41,,,,,,,,,,,,,,,,,,,,,,,339.0939398710616,None,340.61027461104095,None,341.9940349198878,None,snase,341.9940349198878,None,return,3.814592862036079,342.07732100086287,None,,,,,,,,,,,,,,,,,,,,,,,,,,,,,,,,,,,,,,,165,001,2024_Feb_21_1126,SpeechDraft1Carolyn_lessNoise_PlusLocalization,2021.2.3,59.94267237343117,
fix.wav,fix.mpg,fix,4,AV,Pink_Noise_4_1.wav,Pink_Noise_4_2.wav,,,,,,,,,,,,,,,0,33,33,113,,,,,,,,,,,,,,,,,,,,,,,345.9106149817817,None,347.4271308318712,None,348.8105670660734,None,fix,348.8105670660734,None,return,2.3258662740699947,348.8940364802256,None,,,,,,,,,,,,,,,,,,,,,,,,,,,,,,,,,,,,,,,165,001,2024_Feb_21_1126,SpeechDraft1Carolyn_lessNoise_PlusLocalization,2021.2.3,59.94267237343117,
crush.wav,crush.mpg,crush,1,AV,Pink_Noise_1_1.wav,Pink_Noise_1_2.wav,,,,,,,,,,,,,,,0,34,34,65,,,,,,,,,,,,,,,,,,,,,,,351.24410278117284,None,352.7438354501501,None,354.12722658505663,None,crush,354.12722658505663,None,return,1.8732785522006452,354.2106607099995,None,,,,,,,,,,,,,,,,,,,,,,,,,,,,,,,,,,,,,,,165,001,2024_Feb_21_1126,SpeechDraft1Carolyn_lessNoise_PlusLocalization,2021.2.3,59.94267237343117,
coast.wav,coast.mpg,coast,1,AV,Pink_Noise_1_1.wav,Pink_Noise_1_2.wav,,,,,,,,,,,,,,,0,35,35,88,,,,,,,,,,,,,,,,,,,,,,,356.11063176300377,None,357.6107587069273,None,358.9940406791866,None,coast,358.9940406791866,None,return,1.838619234971702,359.07732450403273,None,,,,,,,,,,,,,,,,,,,,,,,,,,,,,,,,,,,,,,,165,001,2024_Feb_21_1126,SpeechDraft1Carolyn_lessNoise_PlusLocalization,2021.2.3,59.94267237343117,
catch.wav,catch.mpg,catch,6,A,Pink_Noise_6_1.wav,Pink_Noise_6_2.wav,,,,,,,,,,,,,,,0,36,36,14,,,,,,,,,,,,,,,,,,,,,,,360.94404742121696,None,362.4438978121616,None,363.8273608731106,None,"flash
",363.8273608731106,None,return,2.0692152087576687,363.9106905939989,None,,,,,,,,,,,,,,,,,,,,,,,,,,,,,,,,,,,,,,,165,001,2024_Feb_21_1126,SpeechDraft1Carolyn_lessNoise_PlusLocalization,2021.2.3,59.94267237343117,
gap.wav,gap.mpg,gap,4,AV,Pink_Noise_4_1.wav,Pink_Noise_4_2.wav,,,,,,,,,,,,,,,0,37,37,77,,,,,,,,,,,,,,,,,,,,,,,366.01068188110366,None,367.51228926191106,None,368.8940150057897,None,gap,368.8940150057897,None,return,3.1385706262663007,368.9773742482066,None,,,,,,,,,,,,,,,,,,,,,,,,,,,,,,,,,,,,,,,165,001,2024_Feb_21_1126,SpeechDraft1Carolyn_lessNoise_PlusLocalization,2021.2.3,59.94267237343117,
faint.wav,faint.mpg,faint,2,A,Pink_Noise_2_1.wav,Pink_Noise_2_2.wav,,,,,,,,,,,,,,,0,38,38,4,,,,,,,,,,,,,,,,,,,,,,,372.14416567003354,None,373.66065405122936,None,375.04391302587464,None,fate,375.04391302587464,None,return,5.140542662702501,375.12743705604225,None,,,,,,,,,,,,,,,,,,,,,,,,,,,,,,,,,,,,,,,165,001,2024_Feb_21_1126,SpeechDraft1Carolyn_lessNoise_PlusLocalization,2021.2.3,59.94267237343117,
gross.wav,gross.mpg,gross,6,A,Pink_Noise_6_1.wav,Pink_Noise_6_2.wav,,,,,,,,,,,,,,,0,39,39,17,,,,,,,,,,,,,,,,,,,,,,,380.2940992549993,None,381.82734248414636,None,383.2105864598416,None,grose,383.2105864598416,None,return,12.845943657215685,383.2939494131133,None,,,,,,,,,,,,,,,,,,,,,,,,,,,,,,,,,,,,,,,165,001,2024_Feb_21_1126,SpeechDraft1Carolyn_lessNoise_PlusLocalization,2021.2.3,59.94267237343117,
claw.wav,claw.mpg,claw,3,A,Pink_Noise_3_1.wav,Pink_Noise_3_2.wav,,,,,,,,,,,,,,,0,40,40,48,,,,,,,,,,,,,,,,,,,,,,,396.1607890371233,None,397.67714443802834,None,399.06074605416507,None,clo[,399.06074605416507,None,return,8.163812002632767,399.144132188987,None,,,,,,,,,,,,,,,,,,,,,,,,,,,,,,,,,,,,,,,165,001,2024_Feb_21_1126,SpeechDraft1Carolyn_lessNoise_PlusLocalization,2021.2.3,59.94267237343117,
cure.wav,cure.mpg,cure,6,A,Pink_Noise_6_1.wav,Pink_Noise_6_2.wav,,,,,,,,,,,,,,,0,41,41,47,,,,,,,,,,,,,,,,,,,,,,,407.3273406899534,None,408.84379463410005,None,410.2274288269691,None,wait,410.2274288269691,None,return,2.4931571441702545,410.3107366161421,None,,,,,,,,,,,,,,,,,,,,,,,,,,,,,,,,,,,,,,,165,001,2024_Feb_21_1126,SpeechDraft1Carolyn_lessNoise_PlusLocalization,2021.2.3,59.94267237343117,
cleft.wav,cleft.mpg,cleft,4,A,Pink_Noise_4_1.wav,Pink_Noise_4_2.wav,,,,,,,,,,,,,,,0,42,42,10,,,,,,,,,,,,,,,,,,,,,,,412.82741316314787,None,414.3271732921712,None,415.710913001094,None,class,415.710913001094,None,return,1.6658721030689776,415.79407638078555,None,,,,,,,,,,,,,,,,,,,,,,,,,,,,,,,,,,,,,,,165,001,2024_Feb_21_1126,SpeechDraft1Carolyn_lessNoise_PlusLocalization,2021.2.3,59.94267237343117,
dune.wav,dune.mpg,dune,4,AV,Pink_Noise_4_1.wav,Pink_Noise_4_2.wav,,,,,,,,,,,,,,,0,43,43,90,,,,,,,,,,,,,,,,,,,,,,,417.47746350616217,None,418.97718787007034,None,420.36090623307973,None,stew,420.36090623307973,None,return,5.223874505143613,420.44401074387133,None,,,,,,,,,,,,,,,,,,,,,,,,,,,,,,,,,,,,,,,165,001,2024_Feb_21_1126,SpeechDraft1Carolyn_lessNoise_PlusLocalization,2021.2.3,59.94267237343117,
fresh.wav,fresh.mpg,fresh,2,AV,Pink_Noise_2_1.wav,Pink_Noise_2_2.wav,,,,,,,,,,,,,,,0,44,44,84,,,,,,,,,,,,,,,,,,,,,,,425.6940671331249,None,427.2106692912057,None,428.59403313696384,None,fresh,428.59403313696384,None,return,2.0143801872618496,428.67752116778865,None,,,,,,,,,,,,,,,,,,,,,,,,,,,,,,,,,,,,,,,165,001,2024_Feb_21_1126,SpeechDraft1Carolyn_lessNoise_PlusLocalization,2021.2.3,59.94267237343117,
cape.wav,cape.mpg,cape,1,A,Pink_Noise_1_1.wav,Pink_Noise_1_2.wav,,,,,,,,,,,,,,,0,45,45,42,,,,,,,,,,,,,,,,,,,,,,,430.71074314508587,None,432.22716544009745,None,433.61086963908747,None,cape,433.61086963908747,None,return,7.061831809114665,433.69407244818285,None,,,,,,,,,,,,,,,,,,,,,,,,,,,,,,,,,,,,,,,165,001,2024_Feb_21_1126,SpeechDraft1Carolyn_lessNoise_PlusLocalization,2021.2.3,59.94267237343117,
quit.wav,quit.mpg,quit,5,A,Pink_Noise_5_1.wav,Pink_Noise_5_2.wav,,,,,,,,,,,,,,,0,46,46,39,,,,,,,,,,,,,,,,,,,,,,,440.77749274484813,None,442.2937843259424,None,443.67760831397027,None,quit,443.67760831397027,None,return,2.099117871839553,443.7608347660862,None,,,,,,,,,,,,,,,,,,,,,,,,,,,,,,,,,,,,,,,165,001,2024_Feb_21_1126,SpeechDraft1Carolyn_lessNoise_PlusLocalization,2021.2.3,59.94267237343117,
toast.wav,toast.mpg,toast,6,AV,Pink_Noise_6_1.wav,Pink_Noise_6_2.wav,,,,,,,,,,,,,,,0,47,47,111,,,,,,,,,,,,,,,,,,,,,,,445.87751761311665,None,447.37848465982825,None,448.7608705009334,None,toast,448.7608705009334,None,return,4.82374751009047,448.8441828098148,None,,,,,,,,,,,,,,,,,,,,,,,,,,,,,,,,,,,,,,,165,001,2024_Feb_21_1126,SpeechDraft1Carolyn_lessNoise_PlusLocalization,2021.2.3,59.94267237343117,
grass.wav,grass.mpg,grass,5,AV,Pink_Noise_5_1.wav,Pink_Noise_5_2.wav,,,,,,,,,,,,,,,0,48,48,67,,,,,,,,,,,,,,,,,,,,,,,453.6941645061597,None,455.2104935720563,None,456.59404634777457,None,trust,456.59404634777457,None,return,2.198297005612403,456.67769409622997,None,,,,,,,,,,,,,,,,,,,,,,,,,,,,,,,,,,,,,,,165,001,2024_Feb_21_1126,SpeechDraft1Carolyn_lessNoise_PlusLocalization,2021.2.3,59.94267237343117,
climb.wav,climb.mpg,climb,4,AV,Pink_Noise_4_1.wav,Pink_Noise_4_2.wav,,,,,,,,,,,,,,,0,49,49,93,,,,,,,,,,,,,,,,,,,,,,,458.8941407171078,None,460.4105996321887,None,461.7940361308865,None,clime,461.7940361308865,None,return,4.222554183099419,461.8774771760218,None,,,,,,,,,,,,,,,,,,,,,,,,,,,,,,,,,,,,,,,165,001,2024_Feb_21_1126,SpeechDraft1Carolyn_lessNoise_PlusLocalization,2021.2.3,59.94267237343117,
wear.wav,wear.mpg,wear,5,A,Pink_Noise_5_1.wav,Pink_Noise_5_2.wav,,,,,,,,,,,,,,,0,50,50,1,,,,,,,,,,,,,,,,,,,,,,,466.12744447309524,None,467.6438641231507,None,469.0275627891533,None,wait,469.0275627891533,None,return,6.309129358269274,469.1107578468509,None,,,,,,,,,,,,,,,,,,,,,,,,,,,,,,,,,,,,,,,165,001,2024_Feb_21_1126,SpeechDraft1Carolyn_lessNoise_PlusLocalization,2021.2.3,59.94267237343117,
flow.wav,flow.mpg,flow,1,A,Pink_Noise_1_1.wav,Pink_Noise_1_2.wav,,,,,,,,,,,,,,,0,51,51,5,,,,,,,,,,,,,,,,,,,,,,,475.44416897092015,None,476.96048753988,None,478.34421740379184,None,slow,478.34421740379184,None,return,3.8957424382679164,478.42821321217343,None,,,,,,,,,,,,,,,,,,,,,,,,,,,,,,,,,,,,,,,165,001,2024_Feb_21_1126,SpeechDraft1Carolyn_lessNoise_PlusLocalization,2021.2.3,59.94267237343117,
chain.wav,chain.mpg,chain,6,A,Pink_Noise_6_1.wav,Pink_Noise_6_2.wav,,,,,,,,,,,,,,,0,52,52,53,,,,,,,,,,,,,,,,,,,,,,,482.3441427308135,None,483.84408758115023,None,485.22752487892285,None,train,485.22752487892285,None,return,2.148995020892471,485.3109486140311,None,,,,,,,,,,,,,,,,,,,,,,,,,,,,,,,,,,,,,,,165,001,2024_Feb_21_1126,SpeechDraft1Carolyn_lessNoise_PlusLocalization,2021.2.3,59.94267237343117,
traps.wav,traps.mpg,traps,6,AV,Pink_Noise_6_1.wav,Pink_Noise_6_2.wav,,,,,,,,,,,,,,,0,53,53,117,,,,,,,,,,,,,,,,,,,,,,,487.4775064080022,None,488.97910072421655,None,490.36087726894766,None,"traps
",490.36087726894766,None,return,6.151736992876977,490.4441640828736,None,,,,,,,,,,,,,,,,,,,,,,,,,,,,,,,,,,,,,,,165,001,2024_Feb_21_1126,SpeechDraft1Carolyn_lessNoise_PlusLocalization,2021.2.3,59.94267237343117,
dad.wav,dad.mpg,dad,1,AV,Pink_Noise_1_1.wav,Pink_Noise_1_2.wav,,,,,,,,,,,,,,,0,54,54,87,,,,,,,,,,,,,,,,,,,,,,,496.6275321790017,None,498.1439495747909,None,499.52743478817865,None,dad,499.52743478817865,None,return,1.8410116829909384,499.61093392409384,None,,,,,,,,,,,,,,,,,,,,,,,,,,,,,,,,,,,,,,,165,001,2024_Feb_21_1126,SpeechDraft1Carolyn_lessNoise_PlusLocalization,2021.2.3,59.94267237343117,
choke.wav,choke.mpg,choke,2,AV,Pink_Noise_2_1.wav,Pink_Noise_2_2.wav,,,,,,,,,,,,,,,0,55,55,102,,,,,,,,,,,,,,,,,,,,,,,501.4775931178592,None,502.97806984279305,None,504.36094505991787,None,"choke
",504.36094505991787,None,return,15.103659187909216,504.44424447603524,None,,,,,,,,,,,,,,,,,,,,,,,,,,,,,,,,,,,,,,,165,001,2024_Feb_21_1126,SpeechDraft1Carolyn_lessNoise_PlusLocalization,2021.2.3,59.94267237343117,
dash.wav,dash.mpg,dash,3,A,Pink_Noise_3_1.wav,Pink_Noise_3_2.wav,,,,,,,,,,,,,,,0,56,56,18,,,,,,,,,,,,,,,,,,,,,,,519.5776824099012,None,521.1105475472286,None,522.4941945318133,None,dash,522.4941945318133,None,return,4.226325212977827,522.5776171609759,None,,,,,,,,,,,,,,,,,,,,,,,,,,,,,,,,,,,,,,,165,001,2024_Feb_21_1126,SpeechDraft1Carolyn_lessNoise_PlusLocalization,2021.2.3,59.94267237343117,
cloak.wav,cloak.mpg,cloak,4,AV,Pink_Noise_4_1.wav,Pink_Noise_4_2.wav,,,,,,,,,,,,,,,0,57,57,64,,,,,,,,,,,,,,,,,,,,,,,526.8275798619725,None,528.3439502678812,None,529.7274669311009,None,clock,529.7274669311009,None,return,3.7929806001484394,529.8109161918983,None,,,,,,,,,,,,,,,,,,,,,,,,,,,,,,,,,,,,,,,165,001,2024_Feb_21_1126,SpeechDraft1Carolyn_lessNoise_PlusLocalization,2021.2.3,59.94267237343117,
fuel.wav,fuel.mpg,fuel,2,A,Pink_Noise_2_1.wav,Pink_Noise_2_2.wav,,,,,,,,,,,,,,,0,58,58,46,,,,,,,,,,,,,,,,,,,,,,,533.6276508471929,None,535.1278984528035,None,536.5108918817714,None,hero,536.5108918817714,None,return,1.3136588097549975,536.5942766088992,None,,,,,,,,,,,,,,,,,,,,,,,,,,,,,,,,,,,,,,,165,001,2024_Feb_21_1126,SpeechDraft1Carolyn_lessNoise_PlusLocalization,2021.2.3,59.94267237343117,
fee.wav,fee.mpg,fee,6,A,Pink_Noise_6_1.wav,Pink_Noise_6_2.wav,,,,,,,,,,,,,,,0,59,59,26,,,,,,,,,,,,,,,,,,,,,,,537.9276717389002,None,539.4276603558101,None,540.8109967862256,None,space,540.8109967862256,None,return,2.9497820721007884,540.8942296360619,None,,,,,,,,,,,,,,,,,,,,,,,,,,,,,,,,,,,,,,,165,001,2024_Feb_21_1126,SpeechDraft1Carolyn_lessNoise_PlusLocalization,2021.2.3,59.94267237343117,
cat.wav,cat.mpg,cat,3,A,Pink_Noise_3_1.wav,Pink_Noise_3_2.wav,,,,,,,,,,,,,,,0,60,60,24,,,,,,,,,,,,,,,,,,,,,,,543.8609767458402,None,545.3606944340281,None,546.7442923458293,None,caps,546.7442923458293,None,return,4.032309639267623,546.8276739171706,None,,,,,,,,,,,,,,,,,,,,,,,,,,,,,,,,,,,,,,,165,001,2024_Feb_21_1126,SpeechDraft1Carolyn_lessNoise_PlusLocalization,2021.2.3,59.94267237343117,
feed.wav,feed.mpg,feed,4,A,Pink_Noise_4_1.wav,Pink_Noise_4_2.wav,,,,,,,,,,,,,,,0,61,61,9,,,,,,,,,,,,,,,,,,,,,,,550.878167022951,None,552.3940199320205,None,553.7775997011922,None,leave,553.7775997011922,None,return,3.3587724370881915,553.8611277751625,None,,,,,,,,,,,,,,,,,,,,,,,,,,,,,,,,,,,,,,,165,001,2024_Feb_21_1126,SpeechDraft1Carolyn_lessNoise_PlusLocalization,2021.2.3,59.94267237343117,
glare.wav,glare.mpg,glare,3,AV,Pink_Noise_3_1.wav,Pink_Noise_3_2.wav,,,,,,,,,,,,,,,0,62,62,79,,,,,,,,,,,,,,,,,,,,,,,557.2443421147764,None,558.7606805050746,None,560.1442576330155,None,claire,560.1442576330155,None,return,3.6802839897572994,560.2276756498031,None,,,,,,,,,,,,,,,,,,,,,,,,,,,,,,,,,,,,,,,165,001,2024_Feb_21_1126,SpeechDraft1Carolyn_lessNoise_PlusLocalization,2021.2.3,59.94267237343117,
fad.wav,fad.mpg,fad,4,AV,Pink_Noise_4_1.wav,Pink_Noise_4_2.wav,,,,,,,,,,,,,,,0,63,63,72,,,,,,,,,,,,,,,,,,,,,,,563.9276930498891,None,565.4284601258114,None,566.8108771089464,None,fad,566.8108771089464,None,return,3.2616319889202714,566.8942715101875,None,,,,,,,,,,,,,,,,,,,,,,,,,,,,,,,,,,,,,,,165,001,2024_Feb_21_1126,SpeechDraft1Carolyn_lessNoise_PlusLocalization,2021.2.3,59.94267237343117,
toy.wav,toy.mpg,toy,4,A,Pink_Noise_4_1.wav,Pink_Noise_4_2.wav,,,,,,,,,,,,,,,0,64,64,49,,,,,,,,,,,,,,,,,,,,,,,570.177615230903,None,571.6940414807759,None,573.0776893161237,None,boys,573.0776893161237,None,return,3.1070332997478545,573.1609541168436,None,,,,,,,,,,,,,,,,,,,,,,,,,,,,,,,,,,,,,,,165,001,2024_Feb_21_1126,SpeechDraft1Carolyn_lessNoise_PlusLocalization,2021.2.3,59.94267237343117,
drag.wav,drag.mpg,drag,2,A,Pink_Noise_2_1.wav,Pink_Noise_2_2.wav,,,,,,,,,,,,,,,0,65,65,0,,,,,,,,,,,,,,,,,,,,,,,576.2943814247847,None,577.8107728031464,None,579.1943206880242,None,drag,579.1943206880242,None,return,3.742261442821473,579.2776763369329,None,,,,,,,,,,,,,,,,,,,,,,,,,,,,,,,,,,,,,,,165,001,2024_Feb_21_1126,SpeechDraft1Carolyn_lessNoise_PlusLocalization,2021.2.3,59.94267237343117,
boot.wav,boot.mpg,boot,5,AV,Pink_Noise_5_1.wav,Pink_Noise_5_2.wav,,,,,,,,,,,,,,,0,66,66,95,,,,,,,,,,,,,,,,,,,,,,,583.0443044239655,None,584.610727739986,None,585.9943706439808,None,boot,585.9943706439808,None,return,2.5262998370453715,586.0775889852084,None,,,,,,,,,,,,,,,,,,,,,,,,,,,,,,,,,,,,,,,165,001,2024_Feb_21_1126,SpeechDraft1Carolyn_lessNoise_PlusLocalization,2021.2.3,59.94267237343117,
cone.wav,cone.mpg,cone,3,A,Pink_Noise_3_1.wav,Pink_Noise_3_2.wav,,,,,,,,,,,,,,,0,67,67,35,,,,,,,,,,,,,,,,,,,,,,,588.6276115970686,None,590.1440157028846,None,591.5276978150941,None,toe,591.5276978150941,None,return,3.176785263698548,591.6110940207727,None,,,,,,,,,,,,,,,,,,,,,,,,,,,,,,,,,,,,,,,165,001,2024_Feb_21_1126,SpeechDraft1Carolyn_lessNoise_PlusLocalization,2021.2.3,59.94267237343117,
sun.wav,sun.mpg,sun,3,AV,Pink_Noise_3_1.wav,Pink_Noise_3_2.wav,,,,,,,,,,,,,,,0,68,68,94,,,,,,,,,,,,,,,,,,,,,,,594.8109696609899,None,596.3273968589492,None,597.7109475489706,None,son,597.7109475489706,None,return,5.145677863620222,597.7942614089698,None,,,,,,,,,,,,,,,,,,,,,,,,,,,,,,,,,,,,,,,165,001,2024_Feb_21_1126,SpeechDraft1Carolyn_lessNoise_PlusLocalization,2021.2.3,59.94267237343117,
script.wav,script.mpg,script,2,AV,Pink_Noise_2_1.wav,Pink_Noise_2_2.wav,,,,,,,,,,,,,,,0,69,69,71,,,,,,,,,,,,,,,,,,,,,,,602.961002362892,None,604.4774252180941,None,605.8609474799596,None,script,605.8609474799596,None,return,5.947556933853775,605.944359946996,None,,,,,,,,,,,,,,,,,,,,,,,,,,,,,,,,,,,,,,,165,001,2024_Feb_21_1126,SpeechDraft1Carolyn_lessNoise_PlusLocalization,2021.2.3,59.94267237343117,
pledge.wav,pledge.mpg,pledge,5,A,Pink_Noise_5_1.wav,Pink_Noise_5_2.wav,,,,,,,,,,,,,,,0,70,70,58,,,,,,,,,,,,,,,,,,,,,,,611.9112290628254,None,613.427480423823,None,614.8110381341539,None,fage,614.8110381341539,None,return,8.213507966138422,614.8943910188973,None,,,,,,,,,,,,,,,,,,,,,,,,,,,,,,,,,,,,,,,165,001,2024_Feb_21_1126,SpeechDraft1Carolyn_lessNoise_PlusLocalization,2021.2.3,59.94267237343117,
cling.wav,cling.mpg,cling,1,A,Pink_Noise_1_1.wav,Pink_Noise_1_2.wav,,,,,,,,,,,,,,,0,71,71,13,,,,,,,,,,,,,,,,,,,,,,,623.127707617823,None,624.6440858980641,None,626.0276698027737,None,clean,626.0276698027737,None,return,8.04483850626275,626.1110427011736,None,,,,,,,,,,,,,,,,,,,,,,,,,,,,,,,,,,,,,,,165,001,2024_Feb_21_1126,SpeechDraft1Carolyn_lessNoise_PlusLocalization,2021.2.3,59.94267237343117,
chew.wav,chew.mpg,chew,2,A,Pink_Noise_2_1.wav,Pink_Noise_2_2.wav,,,,,,,,,,,,,,,0,72,72,43,,,,,,,,,,,,,,,,,,,,,,,634.1777871721424,None,635.7108183670789,None,637.0943840299733,None,chew,637.0943840299733,None,return,1.4823079481720924,637.1776833832264,None,,,,,,,,,,,,,,,,,,,,,,,,,,,,,,,,,,,,,,,165,001,2024_Feb_21_1126,SpeechDraft1Carolyn_lessNoise_PlusLocalization,2021.2.3,59.94267237343117,
calm.wav,calm.mpg,calm,3,AV,Pink_Noise_3_1.wav,Pink_Noise_3_2.wav,,,,,,,,,,,,,,,0,73,73,114,,,,,,,,,,,,,,,,,,,,,,,638.677669072058,None,640.1941281650215,None,641.5776223409921,None,calm,641.5776223409921,None,return,2.758861612994224,641.6610181052238,None,,,,,,,,,,,,,,,,,,,,,,,,,,,,,,,,,,,,,,,165,001,2024_Feb_21_1126,SpeechDraft1Carolyn_lessNoise_PlusLocalization,2021.2.3,59.94267237343117,
coal.wav,coal.mpg,coal,3,AV,Pink_Noise_3_1.wav,Pink_Noise_3_2.wav,,,,,,,,,,,,,,,0,74,74,70,,,,,,,,,,,,,,,,,,,,,,,644.4443905521184,None,645.9608142189682,None,647.344281104859,None,cor,647.344281104859,None,return,5.792164442129433,647.4277180922218,None,,,,,,,,,,,,,,,,,,,,,,,,,,,,,,,,,,,,,,,165,001,2024_Feb_21_1126,SpeechDraft1Carolyn_lessNoise_PlusLocalization,2021.2.3,59.94267237343117,
cab.wav,cab.mpg,cab,4,A,Pink_Noise_4_1.wav,Pink_Noise_4_2.wav,,,,,,,,,,,,,,,0,75,75,11,,,,,,,,,,,,,,,,,,,,,,,653.2443782677874,None,654.7607599440962,None,656.1444983631372,None,cave,656.1444983631372,None,return,5.256226147059351,656.2277776151896,None,,,,,,,,,,,,,,,,,,,,,,,,,,,,,,,,,,,,,,,165,001,2024_Feb_21_1126,SpeechDraft1Carolyn_lessNoise_PlusLocalization,2021.2.3,59.94267237343117,
bulb.wav,bulb.mpg,bulb,6,A,Pink_Noise_6_1.wav,Pink_Noise_6_2.wav,,,,,,,,,,,,,,,0,76,76,2,,,,,,,,,,,,,,,,,,,,,,,661.5110464808531,None,663.0275099170394,None,664.4111571181566,None,largw,664.4111571181566,None,return,7.021558268927038,664.4943956099451,None,,,,,,,,,,,,,,,,,,,,,,,,,,,,,,,,,,,,,,,165,001,2024_Feb_21_1126,SpeechDraft1Carolyn_lessNoise_PlusLocalization,2021.2.3,59.94267237343117,
game.wav,game.mpg,game,2,AV,Pink_Noise_2_1.wav,Pink_Noise_2_2.wav,,,,,,,,,,,,,,,0,77,77,75,,,,,,,,,,,,,,,,,,,,,,,671.5445065898821,None,673.0608049212024,None,674.4443711549975,None,game,674.4443711549975,None,return,1.1561285955831409,674.527818930801,None,,,,,,,,,,,,,,,,,,,,,,,,,,,,,,,,,,,,,,,165,001,2024_Feb_21_1126,SpeechDraft1Carolyn_lessNoise_PlusLocalization,2021.2.3,59.94267237343117,
damn.wav,damn.mpg,damn,5,A,Pink_Noise_5_1.wav,Pink_Noise_5_2.wav,,,,,,,,,,,,,,,0,78,78,15,,,,,,,,,,,,,,,,,,,,,,,675.71107975021,None,677.2275148211047,None,678.6111647519283,None,still,678.6111647519283,None,return,4.965332873631269,678.694633170031,None,,,,,,,,,,,,,,,,,,,,,,,,,,,,,,,,,,,,,,,165,001,2024_Feb_21_1126,SpeechDraft1Carolyn_lessNoise_PlusLocalization,2021.2.3,59.94267237343117,
fried.wav,fried.mpg,fried,6,AV,Pink_Noise_6_1.wav,Pink_Noise_6_2.wav,,,,,,,,,,,,,,,0,79,79,78,,,,,,,,,,,,,,,,,,,,,,,683.6777870361693,None,685.1963600572199,None,686.577669959981,None,fry,686.577669959981,None,return,4.454917639028281,686.6610663481988,None,,,,,,,,,,,,,,,,,,,,,,,,,,,,,,,,,,,,,,,165,001,2024_Feb_21_1126,SpeechDraft1Carolyn_lessNoise_PlusLocalization,2021.2.3,59.94267237343117,
gym.wav,gym.mpg,gym,6,AV,Pink_Noise_6_1.wav,Pink_Noise_6_2.wav,,,,,,,,,,,,,,,0,80,80,91,,,,,,,,,,,,,,,,,,,,,,,691.1444565472193,None,692.6607584971935,None,694.0444605350494,None,gym,694.0444605350494,None,return,1.7080112267285585,694.1278895009309,None,,,,,,,,,,,,,,,,,,,,,,,,,,,,,,,,,,,,,,,165,001,2024_Feb_21_1126,SpeechDraft1Carolyn_lessNoise_PlusLocalization,2021.2.3,59.94267237343117,
bring.wav,bring.mpg,bring,5,A,Pink_Noise_5_1.wav,Pink_Noise_5_2.wav,,,,,,,,,,,,,,,0,81,81,51,,,,,,,,,,,,,,,,,,,,,,,695.8611530051567,None,697.3775289920159,None,698.7611340670846,None,french,698.7611340670846,None,return,2.5995037201792,698.8444392047822,None,,,,,,,,,,,,,,,,,,,,,,,,,,,,,,,,,,,,,,,165,001,2024_Feb_21_1126,SpeechDraft1Carolyn_lessNoise_PlusLocalization,2021.2.3,59.94267237343117,
pact.wav,pact.mpg,pact,1,A,Pink_Noise_1_1.wav,Pink_Noise_1_2.wav,,,,,,,,,,,,,,,0,82,82,54,,,,,,,,,,,,,,,,,,,,,,,701.4611792801879,None,702.9774186671712,None,704.3612144370563,None,"packed
",704.3612144370563,None,return,4.719371405895799,704.4445345359854,None,,,,,,,,,,,,,,,,,,,,,,,,,,,,,,,,,,,,,,,165,001,2024_Feb_21_1126,SpeechDraft1Carolyn_lessNoise_PlusLocalization,2021.2.3,59.94267237343117,
bean.wav,bean.mpg,bean,4,A,Pink_Noise_4_1.wav,Pink_Noise_4_2.wav,,,,,,,,,,,,,,,0,83,83,36,,,,,,,,,,,,,,,,,,,,,,,709.1945172389969,None,710.7109878021292,None,712.0946020619012,None,snake,712.0946020619012,None,return,1.3379955892451108,712.1779060508125,None,,,,,,,,,,,,,,,,,,,,,,,,,,,,,,,,,,,,,,,165,001,2024_Feb_21_1126,SpeechDraft1Carolyn_lessNoise_PlusLocalization,2021.2.3,59.94267237343117,
fleet.wav,fleet.mpg,fleet,4,AV,Pink_Noise_4_1.wav,Pink_Noise_4_2.wav,,,,,,,,,,,,,,,0,84,84,97,,,,,,,,,,,,,,,,,,,,,,,713.5445085810497,None,715.0608319467865,None,716.4444479621015,None,fate,716.4444479621015,None,return,4.403890850022435,716.5280000879429,None,,,,,,,,,,,,,,,,,,,,,,,,,,,,,,,,,,,,,,,165,001,2024_Feb_21_1126,SpeechDraft1Carolyn_lessNoise_PlusLocalization,2021.2.3,59.94267237343117,
ton.wav,ton.mpg,ton,5,AV,Pink_Noise_5_1.wav,Pink_Noise_5_2.wav,,,,,,,,,,,,,,,0,85,85,99,,,,,,,,,,,,,,,,,,,,,,,720.961214819923,None,722.4775678678416,None,723.8611919679679,None,scar,723.8611919679679,None,return,3.315349731128663,723.944600735791,None,,,,,,,,,,,,,,,,,,,,,,,,,,,,,,,,,,,,,,,165,001,2024_Feb_21_1126,SpeechDraft1Carolyn_lessNoise_PlusLocalization,2021.2.3,59.94267237343117,
beg.wav,beg.mpg,beg,6,AV,Pink_Noise_6_1.wav,Pink_Noise_6_2.wav,,,,,,,,,,,,,,,0,86,86,61,,,,,,,,,,,,,,,,,,,,,,,727.2778582228348,None,728.810994321946,None,730.1944406451657,None,beg,730.1944406451657,None,return,1.8300628741271794,730.2779008559883,None,,,,,,,,,,,,,,,,,,,,,,,,,,,,,,,,,,,,,,,165,001,2024_Feb_21_1126,SpeechDraft1Carolyn_lessNoise_PlusLocalization,2021.2.3,59.94267237343117,
clash.wav,clash.mpg,clash,6,AV,Pink_Noise_6_1.wav,Pink_Noise_6_2.wav,,,,,,,,,,,,,,,0,87,87,108,,,,,,,,,,,,,,,,,,,,,,,732.1278396118432,None,733.6443454162218,None,735.0278649060056,None,lash,735.0278649060056,None,return,7.9568136828020215,735.1112350700423,None,,,,,,,,,,,,,,,,,,,,,,,,,,,,,,,,,,,,,,,165,001,2024_Feb_21_1126,SpeechDraft1Carolyn_lessNoise_PlusLocalization,2021.2.3,59.94267237343117,
crust.wav,crust.mpg,crust,6,AV,Pink_Noise_6_1.wav,Pink_Noise_6_2.wav,,,,,,,,,,,,,,,0,88,88,106,,,,,,,,,,,,,,,,,,,,,,,743.0944897881709,None,744.6109093399718,None,745.9945130129345,None,crust,745.9945130129345,None,return,7.750006827991456,746.077894533053,None,,,,,,,,,,,,,,,,,,,,,,,,,,,,,,,,,,,,,,,165,001,2024_Feb_21_1126,SpeechDraft1Carolyn_lessNoise_PlusLocalization,2021.2.3,59.94267237343117,
bag.wav,bag.mpg,bag,1,AV,Pink_Noise_1_1.wav,Pink_Noise_1_2.wav,,,,,,,,,,,,,,,0,89,89,66,,,,,,,,,,,,,,,,,,,,,,,753.8445699252188,None,755.3623547158204,None,756.7445434229448,None,beg,756.7445434229448,None,return,1.4479696261696517,756.8279472640716,None,,,,,,,,,,,,,,,,,,,,,,,,,,,,,,,,,,,,,,,165,001,2024_Feb_21_1126,SpeechDraft1Carolyn_lessNoise_PlusLocalization,2021.2.3,59.94267237343117,
folk.wav,folk.mpg,folk,2,AV,Pink_Noise_2_1.wav,Pink_Noise_2_2.wav,,,,,,,,,,,,,,,0,90,90,107,,,,,,,,,,,,,,,,,,,,,,,758.2946345298551,None,759.8109515667893,None,761.1947044101544,None,"fok
",761.1947044101544,None,return,9.334059420973063,761.2778635038994,None,,,,,,,,,,,,,,,,,,,,,,,,,,,,,,,,,,,,,,,165,001,2024_Feb_21_1126,SpeechDraft1Carolyn_lessNoise_PlusLocalization,2021.2.3,59.94267237343117,
steam.wav,steam.mpg,steam,1,AV,Pink_Noise_1_1.wav,Pink_Noise_1_2.wav,,,,,,,,,,,,,,,0,91,91,101,,,,,,,,,,,,,,,,,,,,,,,770.644566941075,None,772.1609621141106,None,773.5446266299114,None,steam,773.5446266299114,None,return,1.863908443134278,773.6279789931141,None,,,,,,,,,,,,,,,,,,,,,,,,,,,,,,,,,,,,,,,165,001,2024_Feb_21_1126,SpeechDraft1Carolyn_lessNoise_PlusLocalization,2021.2.3,59.94267237343117,
bomb.wav,bomb.mpg,bomb,3,AV,Pink_Noise_3_1.wav,Pink_Noise_3_2.wav,,,,,,,,,,,,,,,0,92,92,74,,,,,,,,,,,,,,,,,,,,,,,775.5113526810892,None,777.027637265157,None,778.4112031068653,None,bob,778.4112031068653,None,return,1.2293193088844419,778.4945771768689,None,,,,,,,,,,,,,,,,,,,,,,,,,,,,,,,,,,,,,,,165,001,2024_Feb_21_1126,SpeechDraft1Carolyn_lessNoise_PlusLocalization,2021.2.3,59.94267237343117,
bride.wav,bride.mpg,bride,1,A,Pink_Noise_1_1.wav,Pink_Noise_1_2.wav,,,,,,,,,,,,,,,0,93,93,31,,,,,,,,,,,,,,,,,,,,,,,779.744598526042,None,781.2775076520629,None,782.6613098289818,None,bright,782.6613098289818,None,return,3.315247867256403,782.7447119690478,None,,,,,,,,,,,,,,,,,,,,,,,,,,,,,,,,,,,,,,,165,001,2024_Feb_21_1126,SpeechDraft1Carolyn_lessNoise_PlusLocalization,2021.2.3,59.94267237343117,
dumb.wav,dumb.mpg,dumb,2,AV,Pink_Noise_2_1.wav,Pink_Noise_2_2.wav,,,,,,,,,,,,,,,0,94,94,98,,,,,,,,,,,,,,,,,,,,,,,786.0780737209134,None,787.5943512921222,None,788.9778498220257,None,dumb,788.9778498220257,None,return,1.4946355181746185,789.0612289011478,None,,,,,,,,,,,,,,,,,,,,,,,,,,,,,,,,,,,,,,,165,001,2024_Feb_21_1126,SpeechDraft1Carolyn_lessNoise_PlusLocalization,2021.2.3,59.94267237343117,
champ.wav,champ.mpg,champ,3,A,Pink_Noise_3_1.wav,Pink_Noise_3_2.wav,,,,,,,,,,,,,,,0,95,95,32,,,,,,,,,,,,,,,,,,,,,,,790.5778660499491,None,792.0942315352149,None,793.478005360812,None,"chain
",793.478005360812,None,return,1.6024701679125428,793.5613767062314,None,,,,,,,,,,,,,,,,,,,,,,,,,,,,,,,,,,,,,,,165,001,2024_Feb_21_1126,SpeechDraft1Carolyn_lessNoise_PlusLocalization,2021.2.3,59.94267237343117,
warmth.wav,warmth.mpg,warmth,6,AV,Pink_Noise_6_1.wav,Pink_Noise_6_2.wav,,,,,,,,,,,,,,,0,96,96,83,,,,,,,,,,,,,,,,,,,,,,,795.1945769200101,None,796.7110755839385,None,798.0946063399315,None,worp,798.0946063399315,None,return,2.153916737064719,798.1779675958678,None,,,,,,,,,,,,,,,,,,,,,,,,,,,,,,,,,,,,,,,165,001,2024_Feb_21_1126,SpeechDraft1Carolyn_lessNoise_PlusLocalization,2021.2.3,59.94267237343117,
truce.wav,truce.mpg,truce,5,A,Pink_Noise_5_1.wav,Pink_Noise_5_2.wav,,,,,,,,,,,,,,,0,97,97,7,,,,,,,,,,,,,,,,,,,,,,,800.3612724170089,None,801.8776370999403,None,803.2612605742179,None,peace,803.2612605742179,None,return,2.539413950406015,803.3445846331306,None,,,,,,,,,,,,,,,,,,,,,,,,,,,,,,,,,,,,,,,165,001,2024_Feb_21_1126,SpeechDraft1Carolyn_lessNoise_PlusLocalization,2021.2.3,59.94267237343117,
gem.wav,gem.mpg,gem,1,AV,Pink_Noise_1_1.wav,Pink_Noise_1_2.wav,,,,,,,,,,,,,,,0,98,98,100,,,,,,,,,,,,,,,,,,,,,,,805.9114350490272,None,807.4291393822059,None,808.8112404709682,None,"jam
",808.8112404709682,None,return,7.069285878911614,808.8946071672253,None,,,,,,,,,,,,,,,,,,,,,,,,,,,,,,,,,,,,,,,165,001,2024_Feb_21_1126,SpeechDraft1Carolyn_lessNoise_PlusLocalization,2021.2.3,59.94267237343117,
date.wav,date.mpg,date,5,AV,Pink_Noise_5_1.wav,Pink_Noise_5_2.wav,,,,,,,,,,,,,,,0,99,99,103,,,,,,,,,,,,,,,,,,,,,,,815.9947178917937,None,817.511015587952,None,818.8945122268051,None,six,818.8945122268051,None,return,2.0578735289163888,818.9780146027915,None,,,,,,,,,,,,,,,,,,,,,,,,,,,,,,,,,,,,,,,165,001,2024_Feb_21_1126,SpeechDraft1Carolyn_lessNoise_PlusLocalization,2021.2.3,59.94267237343117,
burn.wav,burn.mpg,burn,3,A,Pink_Noise_3_1.wav,Pink_Noise_3_2.wav,,,,,,,,,,,,,,,0,100,100,29,,,,,,,,,,,,,,,,,,,,,,,821.0613730000332,None,822.5782520980574,None,823.9612703141756,None,grow,823.9612703141756,None,return,1.6633121436461806,824.044655112084,None,,,,,,,,,,,,,,,,,,,,,,,,,,,,,,,,,,,,,,,165,001,2024_Feb_21_1126,SpeechDraft1Carolyn_lessNoise_PlusLocalization,2021.2.3,59.94267237343117,
beige.wav,beige.mpg,beige,2,A,Pink_Noise_2_1.wav,Pink_Noise_2_2.wav,,,,,,,,,,,,,,,0,101,101,50,,,,,,,,,,,,,,,,,,,,,,,825.7279326198623,None,827.2444985047914,None,828.6279368042015,None,bash,828.6279368042015,None,return,3.340671236626804,828.7113214251585,None,,,,,,,,,,,,,,,,,,,,,,,,,,,,,,,,,,,,,,,165,001,2024_Feb_21_1126,SpeechDraft1Carolyn_lessNoise_PlusLocalization,2021.2.3,59.94267237343117,
drain.wav,drain.mpg,drain,2,A,Pink_Noise_2_1.wav,Pink_Noise_2_2.wav,,,,,,,,,,,,,,,0,102,102,23,,,,,,,,,,,,,,,,,,,,,,,832.0779375028796,None,833.5944294799119,None,834.9780347230844,None,drain,834.9780347230844,None,return,2.4386141998693347,835.0613565677777,None,,,,,,,,,,,,,,,,,,,,,,,,,,,,,,,,,,,,,,,165,001,2024_Feb_21_1126,SpeechDraft1Carolyn_lessNoise_PlusLocalization,2021.2.3,59.94267237343117,
groom.wav,groom.mpg,groom,3,AV,Pink_Noise_3_1.wav,Pink_Noise_3_2.wav,,,,,,,,,,,,,,,0,103,103,81,,,,,,,,,,,,,,,,,,,,,,,837.5281171151437,None,839.0445266608149,None,840.4279723321088,None,"grom
",840.4279723321088,None,return,3.8365378179587424,840.5113528831862,None,,,,,,,,,,,,,,,,,,,,,,,,,,,,,,,,,,,,,,,165,001,2024_Feb_21_1126,SpeechDraft1Carolyn_lessNoise_PlusLocalization,2021.2.3,59.94267237343117,
flake.wav,flake.mpg,flake,4,AV,Pink_Noise_4_1.wav,Pink_Noise_4_2.wav,,,,,,,,,,,,,,,0,104,104,63,,,,,,,,,,,,,,,,,,,,,,,844.378066950012,None,845.9277182058431,None,847.3113756477833,None,fake,847.3113756477833,None,return,3.441260868217796,847.3947263690643,None,,,,,,,,,,,,,,,,,,,,,,,,,,,,,,,,,,,,,,,165,001,2024_Feb_21_1126,SpeechDraft1Carolyn_lessNoise_PlusLocalization,2021.2.3,59.94267237343117,
bark.wav,bark.mpg,bark,1,A,Pink_Noise_1_1.wav,Pink_Noise_1_2.wav,,,,,,,,,,,,,,,0,105,105,34,,,,,,,,,,,,,,,,,,,,,,,850.8617676049471,None,852.3777519022115,None,853.7614373401739,None,bark,853.7614373401739,None,return,6.047208758071065,853.8447407591157,None,,,,,,,,,,,,,,,,,,,,,,,,,,,,,,,,,,,,,,,165,001,2024_Feb_21_1126,SpeechDraft1Carolyn_lessNoise_PlusLocalization,2021.2.3,59.94267237343117,
clip.wav,clip.mpg,clip,1,AV,Pink_Noise_1_1.wav,Pink_Noise_1_2.wav,,,,,,,,,,,,,,,0,106,106,69,,,,,,,,,,,,,,,,,,,,,,,859.911343021784,None,861.4444180987775,None,862.8112919819541,None,clip,862.8112919819541,None,return,5.109161980915815,862.8947252677754,None,,,,,,,,,,,,,,,,,,,,,,,,,,,,,,,,,,,,,,,165,001,2024_Feb_21_1126,SpeechDraft1Carolyn_lessNoise_PlusLocalization,2021.2.3,59.94267237343117,
gloom.wav,gloom.mpg,gloom,1,AV,Pink_Noise_1_1.wav,Pink_Noise_1_2.wav,,,,,,,,,,,,,,,0,107,107,89,,,,,,,,,,,,,,,,,,,,,,,868.0280069001019,None,869.5444705528207,None,870.9280227990821,None,groom,870.9280227990821,None,return,1.6805936149321496,871.0113425520249,None,,,,,,,,,,,,,,,,,,,,,,,,,,,,,,,,,,,,,,,165,001,2024_Feb_21_1126,SpeechDraft1Carolyn_lessNoise_PlusLocalization,2021.2.3,59.94267237343117,
frame.wav,frame.mpg,frame,1,A,Pink_Noise_1_1.wav,Pink_Noise_1_2.wav,,,,,,,,,,,,,,,0,108,108,40,,,,,,,,,,,,,,,,,,,,,,,872.7114852168597,None,874.2277930839919,None,875.6113394470885,None,"frame
",875.6113394470885,None,return,2.685212059877813,875.6946891718544,None,,,,,,,,,,,,,,,,,,,,,,,,,,,,,,,,,,,,,,,165,001,2024_Feb_21_1126,SpeechDraft1Carolyn_lessNoise_PlusLocalization,2021.2.3,59.94267237343117,
birth.wav,birth.mpg,birth,2,A,Pink_Noise_2_1.wav,Pink_Noise_2_2.wav,,,,,,,,,,,,,,,0,109,109,21,,,,,,,,,,,,,,,,,,,,,,,878.4114129859954,None,879.9277924401686,None,881.311593730934,None,birth,881.311593730934,None,return,4.561149320099503,881.3947401191108,None,,,,,,,,,,,,,,,,,,,,,,,,,,,,,,,,,,,,,,,165,001,2024_Feb_21_1126,SpeechDraft1Carolyn_lessNoise_PlusLocalization,2021.2.3,59.94267237343117,
crypt.wav,crypt.mpg,crypt,3,A,Pink_Noise_3_1.wav,Pink_Noise_3_2.wav,,,,,,,,,,,,,,,0,110,110,20,,,,,,,,,,,,,,,,,,,,,,,885.9780576741323,None,887.5110090980306,None,888.8948225257918,None,crapt,888.8948225257918,None,return,5.025775138754398,888.978120570071,None,,,,,,,,,,,,,,,,,,,,,,,,,,,,,,,,,,,,,,,165,001,2024_Feb_21_1126,SpeechDraft1Carolyn_lessNoise_PlusLocalization,2021.2.3,59.94267237343117,
broom.wav,broom.mpg,broom,3,A,Pink_Noise_3_1.wav,Pink_Noise_3_2.wav,,,,,,,,,,,,,,,0,111,111,6,,,,,,,,,,,,,,,,,,,,,,,894.0280812880956,None,895.5444130972028,None,896.9282264551148,None,fruit,896.9282264551148,None,return,7.544414530042559,897.0114836539142,None,,,,,,,,,,,,,,,,,,,,,,,,,,,,,,,,,,,,,,,165,001,2024_Feb_21_1126,SpeechDraft1Carolyn_lessNoise_PlusLocalization,2021.2.3,59.94267237343117,
drop.wav,drop.mpg,drop,2,AV,Pink_Noise_2_1.wav,Pink_Noise_2_2.wav,,,,,,,,,,,,,,,0,112,112,104,,,,,,,,,,,,,,,,,,,,,,,904.5781614738517,None,906.1111679938622,None,907.4946562629193,None,"drop
",907.4946562629193,None,return,5.433812387287617,907.5780889820307,None,,,,,,,,,,,,,,,,,,,,,,,,,,,,,,,,,,,,,,,165,001,2024_Feb_21_1126,SpeechDraft1Carolyn_lessNoise_PlusLocalization,2021.2.3,59.94267237343117,
bear.wav,bear.mpg,bear,4,AV,Pink_Noise_4_1.wav,Pink_Noise_4_2.wav,,,,,,,,,,,,,,,0,113,113,116,,,,,,,,,,,,,,,,,,,,,,,913.0448325439356,None,914.5778654818423,None,915.9614687110297,None,"bear
",915.9614687110297,None,return,1.335056072100997,916.0448384950869,None,,,,,,,,,,,,,,,,,,,,,,,,,,,,,,,,,,,,,,,165,001,2024_Feb_21_1126,SpeechDraft1Carolyn_lessNoise_PlusLocalization,2021.2.3,59.94267237343117,
crawl.wav,crawl.mpg,crawl,5,AV,Pink_Noise_5_1.wav,Pink_Noise_5_2.wav,,,,,,,,,,,,,,,0,114,114,110,,,,,,,,,,,,,,,,,,,,,,,917.4114844459109,None,918.9446611520834,None,920.3281022799201,None,craw,920.3281022799201,None,return,2.712389142718166,920.4115001847968,None,,,,,,,,,,,,,,,,,,,,,,,,,,,,,,,,,,,,,,,165,001,2024_Feb_21_1126,SpeechDraft1Carolyn_lessNoise_PlusLocalization,2021.2.3,59.94267237343117,
east.wav,east.mpg,east,2,AV,Pink_Noise_2_1.wav,Pink_Noise_2_2.wav,,,,,,,,,,,,,,,0,115,115,68,,,,,,,,,,,,,,,,,,,,,,,923.1448220391758,None,924.6622424041852,None,926.0447979401797,None,east,926.0447979401797,None,return,3.363814679905772,926.1281446372159,None,,,,,,,,,,,,,,,,,,,,,,,,,,,,,,,,,,,,,,,165,001,2024_Feb_21_1126,SpeechDraft1Carolyn_lessNoise_PlusLocalization,2021.2.3,59.94267237343117,
poll.wav,poll.mpg,poll,2,AV,Pink_Noise_2_1.wav,Pink_Noise_2_2.wav,,,,,,,,,,,,,,,0,116,116,105,,,,,,,,,,,,,,,,,,,,,,,929.5114393131807,None,931.0279458560981,None,932.4114588350058,None,pull,932.4114588350058,None,return,7.773206527810544,932.4947934672236,None,,,,,,,,,,,,,,,,,,,,,,,,,,,,,,,,,,,,,,,165,001,2024_Feb_21_1126,SpeechDraft1Carolyn_lessNoise_PlusLocalization,2021.2.3,59.94267237343117,
clothe.wav,clothe.mpg,clothe,5,AV,Pink_Noise_5_1.wav,Pink_Noise_5_2.wav,,,,,,,,,,,,,,,0,117,117,118,,,,,,,,,,,,,,,,,,,,,,,940.2948757680133,None,941.8279716838151,None,943.2114196391776,None,cloth,943.2114196391776,None,return,2.629040142055601,943.2948420671746,None,,,,,,,,,,,,,,,,,,,,,,,,,,,,,,,,,,,,,,,165,001,2024_Feb_21_1126,SpeechDraft1Carolyn_lessNoise_PlusLocalization,2021.2.3,59.94267237343117,
bunch.wav,bunch.mpg,bunch,3,AV,Pink_Noise_3_1.wav,Pink_Noise_3_2.wav,,,,,,,,,,,,,,,0,118,118,85,,,,,,,,,,,,,,,,,,,,,,,945.9447635291144,None,947.4778528842144,None,948.8614997011609,None,bage,948.8614997011609,None,return,6.05910395598039,948.9447845220566,None,,,,,,,,,,,,,,,,,,,,,,,,,,,,,,,,,,,,,,,165,001,2024_Feb_21_1126,SpeechDraft1Carolyn_lessNoise_PlusLocalization,2021.2.3,59.94267237343117,
curb.wav,curb.mpg,curb,6,A,Pink_Noise_6_1.wav,Pink_Noise_6_2.wav,,,,,,,,,,,,,,,0,119,119,30,,,,,,,,,,,,,,,,,,,,,,,955.0281463558786,None,956.5612221690826,None,957.9449162688106,None,slow,957.9449162688106,None,return,7.015789146069437,958.0281867301092,None,,,,,,,,,,,,,,,,,,,,,,,,,,,,,,,,,,,,,,,165,001,2024_Feb_21_1126,SpeechDraft1Carolyn_lessNoise_PlusLocalization,2021.2.3,59.94267237343117,
,,,,,,,,,,,,,,,,,,,,,,,,,,,,,,,,,,,,,,,,,,,,,,,,,,,,,,,,,,,,,,,,,,space,15.594405011739582,965.1614852831699,None,,,,,,,,,,,,,,,,,,,,,,,,,,,,,165,001,2024_Feb_21_1126,SpeechDraft1Carolyn_lessNoise_PlusLocalization,2021.2.3,59.94267237343117,
,,,,,,,,midLeft,-13.0,2,ch1Sound_localizationTask.wav,-13.0,"(762, 878)","(-198,-202)",-190,-338,,,,,,,,,0,0,0,1,,,,,,,,,,,,,,,,,,,,,,,,,,,,,,,,,,,,,,,,,,965.1614852831699,None,980.79460138781,None,981.911299767904,None,982.8280328661203,None,1.0005291005291004,3.1186896422877908,982.8280328661203,None,,,,,,,,,,,,,,,,,165,001,2024_Feb_21_1126,SpeechDraft1Carolyn_lessNoise_PlusLocalization,2021.2.3,59.94267237343117,
,,,,,,,,midLeft,-13.0,2,ch1Sound_localizationTask.wav,-13.0,"(762, 878)","(-198,-202)",-190,-338,,,,,,,,,0,1,1,1,,,,,,,,,,,,,,,,,,,,,,,,,,,,,,,,,,,,,,,,,,,,985.9457872621715,None,987.044622734189,None,987.9779090709053,None,1.0,1.4158023661002517,987.9779090709053,None,,,,,,,,,,,,,,,,,165,001,2024_Feb_21_1126,SpeechDraft1Carolyn_lessNoise_PlusLocalization,2021.2.3,59.94267237343117,
,,,,,,,,midLeft,-13.0,2,ch1Sound_localizationTask.wav,-13.0,"(762, 878)","(-198,-202)",-190,-338,,,,,,,,,0,2,2,1,,,,,,,,,,,,,,,,,,,,,,,,,,,,,,,,,,,,,,,,,,,,989.394912446849,None,990.4945707600564,None,991.428073798772,None,1,1.1326222280040383,991.428073798772,None,,,,,,,,,,,,,,,,,165,001,2024_Feb_21_1126,SpeechDraft1Carolyn_lessNoise_PlusLocalization,2021.2.3,59.94267237343117,
,,,,,,,,center,0.0,6,ch1Sound_localizationTask.wav,0.0,"(952, 878)","(-8,-202)",0,-338,,,,,,,,,0,3,3,3,,,,,,,,,,,,,,,,,,,,,,,,,,,,,,,,,,,,,,,,,,,,992.5616296841763,None,993.6611252920702,None,994.5946729299612,None,1.997883597883598,1.483185081742704,994.5946729299612,None,,,,,,,,,,,,,,,,,165,001,2024_Feb_21_1126,SpeechDraft1Carolyn_lessNoise_PlusLocalization,2021.2.3,59.94267237343117,
,,,,,,,,midRight,13.0,3,ch1Sound_localizationTask.wav,13.0,"(1142, 878)","(182, -202)",190,-338,,,,,,,,,0,4,4,5,,,,,,,,,,,,,,,,,,,,,,,,,,,,,,,,,,,,,,,,,,,,996.0782949901186,None,997.1779639041051,None,998.1113704200834,None,2,0.6986417211592197,998.1113704200834,None,,,,,,,,,,,,,,,,,165,001,2024_Feb_21_1126,SpeechDraft1Carolyn_lessNoise_PlusLocalization,2021.2.3,59.94267237343117,
,,,,,,,,midRight,13.0,3,ch1Sound_localizationTask.wav,13.0,"(1142, 878)","(182, -202)",190,-338,,,,,,,,,0,5,5,5,,,,,,,,,,,,,,,,,,,,,,,,,,,,,,,,,,,,,,,,,,,,998.8115369388834,None,999.9112563789822,None,1000.844804356806,None,1.9984126984126984,1.079074083827436,1000.844804356806,None,,,,,,,,,,,,,,,,,165,001,2024_Feb_21_1126,SpeechDraft1Carolyn_lessNoise_PlusLocalization,2021.2.3,59.94267237343117,
,,,,,,,,nearLeft,-6.5,1,ch1Sound_localizationTask.wav,-6.5,"(857, 878)","(-103,-202)",-95,-338,,,,,,,,,0,6,6,2,,,,,,,,,,,,,,,,,,,,,,,,,,,,,,,,,,,,,,,,,,,,1001.928185375873,None,1003.0279137440957,None,1003.9613019940443,None,1,1.7656350499019027,1003.9613019940443,None,,,,,,,,,,,,,,,,,165,001,2024_Feb_21_1126,SpeechDraft1Carolyn_lessNoise_PlusLocalization,2021.2.3,59.94267237343117,
,,,,,,,,farLeft,-19.1,5,ch1Sound_localizationTask.wav,-19.1,"(667, 878)","(-293,-202)",-285,-338,,,,,,,,,1,0,7,0,,,,,,,,,,,,,,,,,,,,,,,,,,,,,,,,,,,,,,,,,,,,1005.7282496988773,None,1006.8279288611375,None,1007.7612181860022,None,1.0015873015873016,0.5663186223246157,1007.7612181860022,None,,,,,,,,,,,,,,,,,165,001,2024_Feb_21_1126,SpeechDraft1Carolyn_lessNoise_PlusLocalization,2021.2.3,59.94267237343117,
,,,,,,,,farRight,19.1,4,ch1Sound_localizationTask.wav,19.1,"(1237, 878)","(277,-202)",285,-338,,,,,,,,,1,1,8,6,,,,,,,,,,,,,,,,,,,,,,,,,,,,,,,,,,,,,,,,,,,,1008.3282490540296,None,1009.427947586868,None,1010.3614615281112,None,1.9984126984126984,1.8828932149335742,1010.3614615281112,None,,,,,,,,,,,,,,,,,165,001,2024_Feb_21_1126,SpeechDraft1Carolyn_lessNoise_PlusLocalization,2021.2.3,59.94267237343117,
,,,,,,,,midLeft,-13.0,2,ch1Sound_localizationTask.wav,-13.0,"(762, 878)","(-198,-202)",-190,-338,,,,,,,,,1,2,9,1,,,,,,,,,,,,,,,,,,,,,,,,,,,,,,,,,,,,,,,,,,,,1012.2450067438185,None,1013.3445639251731,None,1014.2780732461251,None,1.0,2.166738218162209,1014.2780732461251,None,,,,,,,,,,,,,,,,,165,001,2024_Feb_21_1126,SpeechDraft1Carolyn_lessNoise_PlusLocalization,2021.2.3,59.94267237343117,
,,,,,,,,farRight,19.1,4,ch1Sound_localizationTask.wav,19.1,"(1237, 878)","(277,-202)",285,-338,,,,,,,,,1,3,10,6,,,,,,,,,,,,,,,,,,,,,,,,,,,,,,,,,,,,,,,,,,,,1016.4451122041792,None,1017.5446989410557,None,1018.4781784322113,None,1.9989417989417988,1.5827436000108719,1018.4781784322113,None,,,,,,,,,,,,,,,,,165,001,2024_Feb_21_1126,SpeechDraft1Carolyn_lessNoise_PlusLocalization,2021.2.3,59.94267237343117,
,,,,,,,,midLeft,-13.0,2,ch1Sound_localizationTask.wav,-13.0,"(762, 878)","(-198,-202)",-190,-338,,,,,,,,,1,4,11,1,,,,,,,,,,,,,,,,,,,,,,,,,,,,,,,,,,,,,,,,,,,,1020.0620367708616,None,1021.1611901368015,None,1022.0947226160206,None,1.0,1.7326804823242128,1022.0947226160206,None,,,,,,,,,,,,,,,,,165,001,2024_Feb_21_1126,SpeechDraft1Carolyn_lessNoise_PlusLocalization,2021.2.3,59.94267237343117,
,,,,,,,,nearRight,6.5,0,ch1Sound_localizationTask.wav,6.5,"(1047, 878)","(87, -202)",95,-338,,,,,,,,,1,5,12,4,,,,,,,,,,,,,,,,,,,,,,,,,,,,,,,,,,,,,,,,,,,,1023.8283252739348,None,1024.9280516831204,None,1025.8615074171685,None,1.5084656084656085,1.316794574726373,1025.8615074171685,None,,,,,,,,,,,,,,,,,165,001,2024_Feb_21_1126,SpeechDraft1Carolyn_lessNoise_PlusLocalization,2021.2.3,59.94267237343117,
,,,,,,,,center,0.0,6,ch1Sound_localizationTask.wav,0.0,"(952, 878)","(-8,-202)",0,-338,,,,,,,,,1,6,13,3,,,,,,,,,,,,,,,,,,,,,,,,,,,,,,,,,,,,,,,,,,,,1027.1781979138032,None,1028.2780662598088,None,1029.2114105317742,None,1.4984126984126984,0.5661226129159331,1029.2114105317742,None,,,,,,,,,,,,,,,,,165,001,2024_Feb_21_1126,SpeechDraft1Carolyn_lessNoise_PlusLocalization,2021.2.3,59.94267237343117,
,,,,,,,,nearRight,6.5,0,ch1Sound_localizationTask.wav,6.5,"(1047, 878)","(87, -202)",95,-338,,,,,,,,,2,0,14,4,,,,,,,,,,,,,,,,,,,,,,,,,,,,,,,,,,,,,,,,,,,,1029.7782600698993,None,1030.878186877817,None,1031.8113680141978,None,1.4984126984126984,0.5000885096378624,1031.8113680141978,None,,,,,,,,,,,,,,,,,165,001,2024_Feb_21_1126,SpeechDraft1Carolyn_lessNoise_PlusLocalization,2021.2.3,59.94267237343117,
,,,,,,,,nearRight,6.5,0,ch1Sound_localizationTask.wav,6.5,"(1047, 878)","(87, -202)",95,-338,,,,,,,,,2,1,15,4,,,,,,,,,,,,,,,,,,,,,,,,,,,,,,,,,,,,,,,,,,,,1032.311813707929,None,1033.4112719139084,None,1034.3446448962204,None,1.4984126984126984,0.4167517921887338,1034.3446448962204,None,,,,,,,,,,,,,,,,,165,001,2024_Feb_21_1126,SpeechDraft1Carolyn_lessNoise_PlusLocalization,2021.2.3,59.94267237343117,
,,,,,,,,center,0.0,6,ch1Sound_localizationTask.wav,0.0,"(952, 878)","(-8,-202)",0,-338,,,,,,,,,2,2,16,3,,,,,,,,,,,,,,,,,,,,,,,,,,,,,,,,,,,,,,,,,,,,1034.7618523421697,None,1035.8614006130956,None,1036.7946717757732,None,1.5465608465608467,0.6169760869815946,1036.7946717757732,None,,,,,,,,,,,,,,,,,165,001,2024_Feb_21_1126,SpeechDraft1Carolyn_lessNoise_PlusLocalization,2021.2.3,59.94267237343117,
,,,,,,,,farRight,19.1,4,ch1Sound_localizationTask.wav,19.1,"(1237, 878)","(277,-202)",285,-338,,,,,,,,,2,3,17,6,,,,,,,,,,,,,,,,,,,,,,,,,,,,,,,,,,,,,,,,,,,,1037.4119092370383,None,1038.5112500200048,None,1039.4446707051247,None,1.8132275132275133,0.6487475717440248,1039.4446707051247,None,,,,,,,,,,,,,,,,,165,001,2024_Feb_21_1126,SpeechDraft1Carolyn_lessNoise_PlusLocalization,2021.2.3,59.94267237343117,
,,,,,,,,midLeft,-13.0,2,ch1Sound_localizationTask.wav,-13.0,"(762, 878)","(-198,-202)",-190,-338,,,,,,,,,2,4,18,1,,,,,,,,,,,,,,,,,,,,,,,,,,,,,,,,,,,,,,,,,,,,1040.0951906340197,None,1041.1948643149808,None,1042.1281279642135,None,1.1894179894179895,0.5504664010368288,1042.1281279642135,None,,,,,,,,,,,,,,,,,165,001,2024_Feb_21_1126,SpeechDraft1Carolyn_lessNoise_PlusLocalization,2021.2.3,59.94267237343117,
,,,,,,,,midRight,13.0,3,ch1Sound_localizationTask.wav,13.0,"(1142, 878)","(182, -202)",190,-338,,,,,,,,,2,5,19,5,,,,,,,,,,,,,,,,,,,,,,,,,,,,,,,,,,,,,,,,,,,,1042.6784917688929,None,1043.778057454154,None,1044.711528044194,None,1.5915343915343916,0.8819998884573579,1044.711528044194,None,,,,,,,,,,,,,,,,,165,001,2024_Feb_21_1126,SpeechDraft1Carolyn_lessNoise_PlusLocalization,2021.2.3,59.94267237343117,
,,,,,,,,center,0.0,6,ch1Sound_localizationTask.wav,0.0,"(952, 878)","(-8,-202)",0,-338,,,,,,,,,2,6,20,3,,,,,,,,,,,,,,,,,,,,,,,,,,,,,,,,,,,,,,,,,,,,1045.5952221318148,None,1046.694667933043,None,1047.6280908100307,None,1.4978835978835978,0.6150486641563475,1047.6280908100307,None,,,,,,,,,,,,,,,,,165,001,2024_Feb_21_1126,SpeechDraft1Carolyn_lessNoise_PlusLocalization,2021.2.3,59.94267237343117,
,,,,,,,,nearRight,6.5,0,ch1Sound_localizationTask.wav,6.5,"(1047, 878)","(87, -202)",95,-338,,,,,,,,,3,0,21,4,,,,,,,,,,,,,,,,,,,,,,,,,,,,,,,,,,,,,,,,,,,,1048.2449479340576,None,1049.3446688242257,None,1050.2779867490754,None,1.506878306878307,0.4334256569854915,1050.2779867490754,None,,,,,,,,,,,,,,,,,165,001,2024_Feb_21_1126,SpeechDraft1Carolyn_lessNoise_PlusLocalization,2021.2.3,59.94267237343117,
,,,,,,,,farLeft,-19.1,5,ch1Sound_localizationTask.wav,-19.1,"(667, 878)","(-293,-202)",-285,-338,,,,,,,,,3,1,22,0,,,,,,,,,,,,,,,,,,,,,,,,,,,,,,,,,,,,,,,,,,,,1050.7120340708643,None,1051.8114585489966,None,1052.7446921630763,None,1.2153439153439154,0.933986590243876,1052.7446921630763,None,,,,,,,,,,,,,,,,,165,001,2024_Feb_21_1126,SpeechDraft1Carolyn_lessNoise_PlusLocalization,2021.2.3,59.94267237343117,
,,,,,,,,nearLeft,-6.5,1,ch1Sound_localizationTask.wav,-6.5,"(857, 878)","(-103,-202)",-95,-338,,,,,,,,,3,2,23,2,,,,,,,,,,,,,,,,,,,,,,,,,,,,,,,,,,,,,,,,,,,,1053.6951711471193,None,1054.794725630898,None,1055.727935391944,None,1.4322751322751324,0.5328199909999967,1055.727935391944,None,,,,,,,,,,,,,,,,,165,001,2024_Feb_21_1126,SpeechDraft1Carolyn_lessNoise_PlusLocalization,2021.2.3,59.94267237343117,
,,,,,,,,farLeft,-19.1,5,ch1Sound_localizationTask.wav,-19.1,"(667, 878)","(-293,-202)",-285,-338,,,,,,,,,3,3,24,0,,,,,,,,,,,,,,,,,,,,,,,,,,,,,,,,,,,,,,,,,,,,1056.2616688441485,None,1057.3614122658037,None,1058.2947484469041,None,1.2068783068783069,0.7495354562997818,1058.2947484469041,None,,,,,,,,,,,,,,,,,165,001,2024_Feb_21_1126,SpeechDraft1Carolyn_lessNoise_PlusLocalization,2021.2.3,59.94267237343117,
,,,,,,,,nearLeft,-6.5,1,ch1Sound_localizationTask.wav,-6.5,"(857, 878)","(-103,-202)",-95,-338,,,,,,,,,3,4,25,2,,,,,,,,,,,,,,,,,,,,,,,,,,,,,,,,,,,,,,,,,,,,1059.0462803700939,None,1060.1614314178005,None,1061.0780938630924,None,1.3698412698412699,0.5668045729398727,1061.0780938630924,None,,,,,,,,,,,,,,,,,165,001,2024_Feb_21_1126,SpeechDraft1Carolyn_lessNoise_PlusLocalization,2021.2.3,59.94267237343117,
,,,,,,,,center,0.0,6,ch1Sound_localizationTask.wav,0.0,"(952, 878)","(-8,-202)",0,-338,,,,,,,,,3,5,26,3,,,,,,,,,,,,,,,,,,,,,,,,,,,,,,,,,,,,,,,,,,,,1061.6450662501156,None,1062.744699018076,None,1063.678084203042,None,1.438095238095238,0.6001115436665714,1063.678084203042,None,,,,,,,,,,,,,,,,,165,001,2024_Feb_21_1126,SpeechDraft1Carolyn_lessNoise_PlusLocalization,2021.2.3,59.94267237343117,
,,,,,,,,center,0.0,6,ch1Sound_localizationTask.wav,0.0,"(952, 878)","(-8,-202)",0,-338,,,,,,,,,3,6,27,3,,,,,,,,,,,,,,,,,,,,,,,,,,,,,,,,,,,,,,,,,,,,1064.2784451739863,None,1065.3781114979647,None,1066.3116040471941,None,1.494179894179894,0.41591520607471466,1066.3116040471941,None,,,,,,,,,,,,,,,,,165,001,2024_Feb_21_1126,SpeechDraft1Carolyn_lessNoise_PlusLocalization,2021.2.3,59.94267237343117,
,,,,,,,,nearLeft,-6.5,1,ch1Sound_localizationTask.wav,-6.5,"(857, 878)","(-103,-202)",-95,-338,,,,,,,,,4,0,28,2,,,,,,,,,,,,,,,,,,,,,,,,,,,,,,,,,,,,,,,,,,,,1066.7294416800141,None,1067.8447773400694,None,1068.7613077838905,None,1.4126984126984126,0.381778874900192,1068.7613077838905,None,,,,,,,,,,,,,,,,,165,001,2024_Feb_21_1126,SpeechDraft1Carolyn_lessNoise_PlusLocalization,2021.2.3,59.94267237343117,
,,,,,,,,nearRight,6.5,0,ch1Sound_localizationTask.wav,6.5,"(1047, 878)","(87, -202)",95,-338,,,,,,,,,4,1,29,4,,,,,,,,,,,,,,,,,,,,,,,,,,,,,,,,,,,,,,,,,,,,1069.1450235377997,None,1070.2446999731474,None,1071.178051237017,None,1.5238095238095237,0.416250909678638,1071.178051237017,None,,,,,,,,,,,,,,,,,165,001,2024_Feb_21_1126,SpeechDraft1Carolyn_lessNoise_PlusLocalization,2021.2.3,59.94267237343117,
,,,,,,,,nearLeft,-6.5,1,ch1Sound_localizationTask.wav,-6.5,"(857, 878)","(-103,-202)",-95,-338,,,,,,,,,4,2,30,2,,,,,,,,,,,,,,,,,,,,,,,,,,,,,,,,,,,,,,,,,,,,1071.5956847211346,None,1072.6948312651366,None,1073.6281204111874,None,1.416931216931217,0.4313432197086513,1073.6281204111874,None,,,,,,,,,,,,,,,,,165,001,2024_Feb_21_1126,SpeechDraft1Carolyn_lessNoise_PlusLocalization,2021.2.3,59.94267237343117,
,,,,,,,,farRight,19.1,4,ch1Sound_localizationTask.wav,19.1,"(1237, 878)","(277,-202)",285,-338,,,,,,,,,4,3,31,6,,,,,,,,,,,,,,,,,,,,,,,,,,,,,,,,,,,,,,,,,,,,1074.0617044898681,None,1075.1614215010777,None,1076.0948156849481,None,1.6984126984126984,0.48157236399129033,1076.0948156849481,None,,,,,,,,,,,,,,,,,165,001,2024_Feb_21_1126,SpeechDraft1Carolyn_lessNoise_PlusLocalization,2021.2.3,59.94267237343117,
,,,,,,,,nearRight,6.5,0,ch1Sound_localizationTask.wav,6.5,"(1047, 878)","(87, -202)",95,-338,,,,,,,,,4,4,32,4,,,,,,,,,,,,,,,,,,,,,,,,,,,,,,,,,,,,,,,,,,,,1076.5783522091806,None,1077.678146482911,None,1078.6113971499726,None,1.4481481481481482,0.51555031305179,1078.6113971499726,None,,,,,,,,,,,,,,,,,165,001,2024_Feb_21_1126,SpeechDraft1Carolyn_lessNoise_PlusLocalization,2021.2.3,59.94267237343117,
,,,,,,,,farRight,19.1,4,ch1Sound_localizationTask.wav,19.1,"(1237, 878)","(277,-202)",285,-338,,,,,,,,,4,5,33,6,,,,,,,,,,,,,,,,,,,,,,,,,,,,,,,,,,,,,,,,,,,,1079.1284959549084,None,1080.2281202669255,None,1081.1614126120694,None,1.5708994708994708,0.43274058401584625,1081.1614126120694,None,,,,,,,,,,,,,,,,,165,001,2024_Feb_21_1126,SpeechDraft1Carolyn_lessNoise_PlusLocalization,2021.2.3,59.94267237343117,
,,,,,,,,midRight,13.0,3,ch1Sound_localizationTask.wav,13.0,"(1142, 878)","(182, -202)",190,-338,,,,,,,,,4,6,34,5,,,,,,,,,,,,,,,,,,,,,,,,,,,,,,,,,,,,,,,,,,,,1081.5952052879147,None,1082.6947485748678,None,1083.6279952879995,None,1.480952380952381,0.4999024053104222,1083.6279952879995,None,,,,,,,,,,,,,,,,,165,001,2024_Feb_21_1126,SpeechDraft1Carolyn_lessNoise_PlusLocalization,2021.2.3,59.94267237343117,
,,,,,,,,midRight,13.0,3,ch1Sound_localizationTask.wav,13.0,"(1142, 878)","(182, -202)",190,-338,,,,,,,,,5,0,35,5,,,,,,,,,,,,,,,,,,,,,,,,,,,,,,,,,,,,,,,,,,,,1084.128696644213,None,1085.227975672111,None,1086.161486283876,None,1.5010582010582012,0.500512408092618,1086.161486283876,None,,,,,,,,,,,,,,,,,165,001,2024_Feb_21_1126,SpeechDraft1Carolyn_lessNoise_PlusLocalization,2021.2.3,59.94267237343117,
,,,,,,,,midRight,13.0,3,ch1Sound_localizationTask.wav,13.0,"(1142, 878)","(182, -202)",190,-338,,,,,,,,,5,1,36,5,,,,,,,,,,,,,,,,,,,,,,,,,,,,,,,,,,,,,,,,,,,,1086.6785297961906,None,1087.7780375462025,None,1088.7113836249337,None,1.5047619047619047,0.3665094031020999,1088.7113836249337,None,,,,,,,,,,,,,,,,,165,001,2024_Feb_21_1126,SpeechDraft1Carolyn_lessNoise_PlusLocalization,2021.2.3,59.94267237343117,
,,,,,,,,midLeft,-13.0,2,ch1Sound_localizationTask.wav,-13.0,"(762, 878)","(-198,-202)",-190,-338,,,,,,,,,5,2,37,1,,,,,,,,,,,,,,,,,,,,,,,,,,,,,,,,,,,,,,,,,,,,1089.078391943127,None,1090.1781884809025,None,1091.111447552219,None,1.2164021164021164,0.7995753441937268,1091.111447552219,None,,,,,,,,,,,,,,,,,165,001,2024_Feb_21_1126,SpeechDraft1Carolyn_lessNoise_PlusLocalization,2021.2.3,59.94267237343117,
,,,,,,,,farLeft,-19.1,5,ch1Sound_localizationTask.wav,-19.1,"(667, 878)","(-293,-202)",-285,-338,,,,,,,,,5,3,38,0,,,,,,,,,,,,,,,,,,,,,,,,,,,,,,,,,,,,,,,,,,,,1091.9125008839183,None,1093.011285416782,None,1093.9449604018591,None,1.2555555555555555,0.7182508911937475,1093.9449604018591,None,,,,,,,,,,,,,,,,,165,001,2024_Feb_21_1126,SpeechDraft1Carolyn_lessNoise_PlusLocalization,2021.2.3,59.94267237343117,
,,,,,,,,nearRight,6.5,0,ch1Sound_localizationTask.wav,6.5,"(1047, 878)","(87, -202)",95,-338,,,,,,,,,5,4,39,4,,,,,,,,,,,,,,,,,,,,,,,,,,,,,,,,,,,,,,,,,,,,1094.6785022439435,None,1095.7780870320275,None,1096.7115502711385,None,1.475132275132275,0.933141928166151,1096.7115502711385,None,,,,,,,,,,,,,,,,,165,001,2024_Feb_21_1126,SpeechDraft1Carolyn_lessNoise_PlusLocalization,2021.2.3,59.94267237343117,
,,,,,,,,nearLeft,-6.5,1,ch1Sound_localizationTask.wav,-6.5,"(857, 878)","(-103,-202)",-95,-338,,,,,,,,,5,5,40,2,,,,,,,,,,,,,,,,,,,,,,,,,,,,,,,,,,,,,,,,,,,,1097.645244804211,None,1098.7448026807979,None,1099.678070158232,None,1.3931216931216932,0.5826088059693575,1099.678070158232,None,,,,,,,,,,,,,,,,,165,001,2024_Feb_21_1126,SpeechDraft1Carolyn_lessNoise_PlusLocalization,2021.2.3,59.94267237343117,
,,,,,,,,midRight,13.0,3,ch1Sound_localizationTask.wav,13.0,"(1142, 878)","(182, -202)",190,-338,,,,,,,,,5,6,41,5,,,,,,,,,,,,,,,,,,,,,,,,,,,,,,,,,,,,,,,,,,,,1100.2617035480216,None,1101.3613094948232,None,1102.2947677178308,None,1.5571428571428572,0.7668576622381806,1102.2947677178308,None,,,,,,,,,,,,,,,,,165,001,2024_Feb_21_1126,SpeechDraft1Carolyn_lessNoise_PlusLocalization,2021.2.3,59.94267237343117,
,,,,,,,,farLeft,-19.1,5,ch1Sound_localizationTask.wav,-19.1,"(667, 878)","(-293,-202)",-285,-338,,,,,,,,,6,0,42,0,,,,,,,,,,,,,,,,,,,,,,,,,,,,,,,,,,,,,,,,,,,,1103.0617211810313,None,1104.1615059161559,None,1105.0947386091575,None,1.1132275132275131,0.7500534569844604,1105.0947386091575,None,,,,,,,,,,,,,,,,,165,001,2024_Feb_21_1126,SpeechDraft1Carolyn_lessNoise_PlusLocalization,2021.2.3,59.94267237343117,
,,,,,,,,midLeft,-13.0,2,ch1Sound_localizationTask.wav,-13.0,"(762, 878)","(-198,-202)",-190,-338,,,,,,,,,6,1,43,1,,,,,,,,,,,,,,,,,,,,,,,,,,,,,,,,,,,,,,,,,,,,1105.8617886789143,None,1106.961417993065,None,1107.8947958978824,None,1.2703703703703704,0.5498094670474529,1107.8947958978824,None,,,,,,,,,,,,,,,,,165,001,2024_Feb_21_1126,SpeechDraft1Carolyn_lessNoise_PlusLocalization,2021.2.3,59.94267237343117,
,,,,,,,,nearLeft,-6.5,1,ch1Sound_localizationTask.wav,-6.5,"(857, 878)","(-103,-202)",-95,-338,,,,,,,,,6,2,44,2,,,,,,,,,,,,,,,,,,,,,,,,,,,,,,,,,,,,,,,,,,,,1108.4618982961401,None,1109.5614298130386,None,1110.4947537500411,None,1.3783068783068784,0.48351225396618247,1110.4947537500411,None,,,,,,,,,,,,,,,,,165,001,2024_Feb_21_1126,SpeechDraft1Carolyn_lessNoise_PlusLocalization,2021.2.3,59.94267237343117,
,,,,,,,,midRight,13.0,3,ch1Sound_localizationTask.wav,13.0,"(1142, 878)","(182, -202)",190,-338,,,,,,,,,6,3,45,5,,,,,,,,,,,,,,,,,,,,,,,,,,,,,,,,,,,,,,,,,,,,1110.978427554015,None,1112.0780874658376,None,1113.0115854959004,None,1.560846560846561,0.5165158417075872,1113.0115854959004,None,,,,,,,,,,,,,,,,,165,001,2024_Feb_21_1126,SpeechDraft1Carolyn_lessNoise_PlusLocalization,2021.2.3,59.94267237343117,
,,,,,,,,farRight,19.1,4,ch1Sound_localizationTask.wav,19.1,"(1237, 878)","(277,-202)",285,-338,,,,,,,,,6,4,46,6,,,,,,,,,,,,,,,,,,,,,,,,,,,,,,,,,,,,,,,,,,,,1113.5283897481859,None,1114.6280912300572,None,1115.5614024880342,None,1.601058201058201,0.3827878809534013,1115.5614024880342,None,,,,,,,,,,,,,,,,,165,001,2024_Feb_21_1126,SpeechDraft1Carolyn_lessNoise_PlusLocalization,2021.2.3,59.94267237343117,
,,,,,,,,farRight,19.1,4,ch1Sound_localizationTask.wav,19.1,"(1237, 878)","(277,-202)",285,-338,,,,,,,,,6,5,47,6,,,,,,,,,,,,,,,,,,,,,,,,,,,,,,,,,,,,,,,,,,,,1115.945625144057,None,1117.044948225841,None,1117.9780737659894,None,1.6216931216931219,0.4319871640764177,1117.9780737659894,None,,,,,,,,,,,,,,,,,165,001,2024_Feb_21_1126,SpeechDraft1Carolyn_lessNoise_PlusLocalization,2021.2.3,59.94267237343117,
,,,,,,,,center,0.0,6,ch1Sound_localizationTask.wav,0.0,"(952, 878)","(-8,-202)",0,-338,,,,,,,,,6,6,48,3,,,,,,,,,,,,,,,,,,,,,,,,,,,,,,,,,,,,,,,,,,,,1118.4116765279323,None,1119.5114460568875,None,1120.4447823790833,None,1.5095238095238095,0.5215419321320951,1120.4447823790833,None,,,,,,,,,,,,,,,,,165,001,2024_Feb_21_1126,SpeechDraft1Carolyn_lessNoise_PlusLocalization,2021.2.3,59.94267237343117,
,,,,,,,,nearLeft,-6.5,1,ch1Sound_localizationTask.wav,-6.5,"(857, 878)","(-103,-202)",-95,-338,,,,,,,,,7,0,49,2,,,,,,,,,,,,,,,,,,,,,,,,,,,,,,,,,,,,,,,,,,,,1120.978363122791,None,1122.0781026137993,None,1123.0114645888098,None,1.4984126984126984,0.41654681507498026,1123.0114645888098,None,,,,,,,,,,,,,,,,,165,001,2024_Feb_21_1126,SpeechDraft1Carolyn_lessNoise_PlusLocalization,2021.2.3,59.94267237343117,
,,,,,,,,farLeft,-19.1,5,ch1Sound_localizationTask.wav,-19.1,"(667, 878)","(-293,-202)",-285,-338,,,,,,,,,7,1,50,0,,,,,,,,,,,,,,,,,,,,,,,,,,,,,,,,,,,,,,,,,,,,1123.4287720727734,None,1124.5281378789805,None,1125.4617374357767,None,1.3206349206349206,0.5011614179238677,1125.4617374357767,None,,,,,,,,,,,,,,,,,165,001,2024_Feb_21_1126,SpeechDraft1Carolyn_lessNoise_PlusLocalization,2021.2.3,59.94267237343117,
,,,,,,,,farRight,19.1,4,ch1Sound_localizationTask.wav,19.1,"(1237, 878)","(277,-202)",285,-338,,,,,,,,,7,2,51,6,,,,,,,,,,,,,,,,,,,,,,,,,,,,,,,,,,,,,,,,,,,,1125.97835571412,None,1127.0781259047799,None,1128.0114305890165,None,1.6592592592592592,0.5154608502052724,1128.0114305890165,None,,,,,,,,,,,,,,,,,165,001,2024_Feb_21_1126,SpeechDraft1Carolyn_lessNoise_PlusLocalization,2021.2.3,59.94267237343117,
,,,,,,,,center,0.0,6,ch1Sound_localizationTask.wav,0.0,"(952, 878)","(-8,-202)",0,-338,,,,,,,,,7,3,52,3,,,,,,,,,,,,,,,,,,,,,,,,,,,,,,,,,,,,,,,,,,,,1128.528397446964,None,1129.6280775088817,None,1130.5614971420728,None,1.3830687830687831,0.4664589068852365,1130.5614971420728,None,,,,,,,,,,,,,,,,,165,001,2024_Feb_21_1126,SpeechDraft1Carolyn_lessNoise_PlusLocalization,2021.2.3,59.94267237343117,
,,,,,,,,nearRight,6.5,0,ch1Sound_localizationTask.wav,6.5,"(1047, 878)","(87, -202)",95,-338,,,,,,,,,7,4,53,4,,,,,,,,,,,,,,,,,,,,,,,,,,,,,,,,,,,,,,,,,,,,1131.0293272328563,None,1132.1281559821218,None,1133.061487085186,None,1.5174603174603174,0.4503277870826423,1133.061487085186,None,,,,,,,,,,,,,,,,,165,001,2024_Feb_21_1126,SpeechDraft1Carolyn_lessNoise_PlusLocalization,2021.2.3,59.94267237343117,
,,,,,,,,farLeft,-19.1,5,ch1Sound_localizationTask.wav,-19.1,"(667, 878)","(-293,-202)",-285,-338,,,,,,,,,7,5,54,0,,,,,,,,,,,,,,,,,,,,,,,,,,,,,,,,,,,,,,,,,,,,1133.51186261978,None,1134.6114998809062,None,1135.544957718812,None,1.2005291005291006,0.600238234270364,1135.544957718812,None,,,,,,,,,,,,,,,,,165,001,2024_Feb_21_1126,SpeechDraft1Carolyn_lessNoise_PlusLocalization,2021.2.3,59.94267237343117,
,,,,,,,,farLeft,-19.1,5,ch1Sound_localizationTask.wav,-19.1,"(667, 878)","(-293,-202)",-285,-338,,,,,,,,,7,6,55,0,,,,,,,,,,,,,,,,,,,,,,,,,,,,,,,,,,,,,,,,,,,,1136.1618530987762,None,1137.2614773558453,None,1138.194871861022,None,1.2343915343915344,0.5169587708078325,1138.194871861022,None,,,,,,,,,,,,,,,,,165,001,2024_Feb_21_1126,SpeechDraft1Carolyn_lessNoise_PlusLocalization,2021.2.3,59.94267237343117,
,,,,,,,,,,,,,,,,,,,,,,,,,,,,,,,,,,,,,,,,,,,,,,,,,,,,,,,,,,,,,,,,,,,,,,,,,,,,,,,,,,space,12.128057987894863,1138.8118425989524,None,,,,,,,,,,,,,165,001,2024_Feb_21_1126,SpeechDraft1Carolyn_lessNoise_PlusLocalization,2021.2.3,59.94267237343117,
,,,,,,,,nearLeft,-6.5,1,ch1Sound_localizationTask.wav,-6.5,"(857, 878)","(-103,-202)",-95,-338,,,,,,,,,,,,,0,0,0,2,,,,,,,,,,,,,,,,,,,,,,,,,,,,,,,,,,,,,,,,1150.9782859818079,None,,,1154.0113674681634,None,1.4121693121693122,0.8872049171477556,1154.0113674681634,None,,,,,1138.8118425989524,None,1151.9783795052208,None,1152.1617444450967,1152.1784110679291,,,,,,,165,001,2024_Feb_21_1126,SpeechDraft1Carolyn_lessNoise_PlusLocalization,2021.2.3,59.94267237343117,
,,,,,,,,midRight,13.0,3,ch1Sound_localizationTask.wav,13.0,"(1142, 878)","(182, -202)",190,-338,,,,,,,,,,,,,0,1,1,5,,,,,,,,,,,,,,,,,,,,,,,,,,,,,,,,,,,,,,,,1154.8958100858144,None,,,1157.9116105479188,None,1.5735449735449736,0.7825973266735673,1157.9116105479188,None,,,,,,,1155.8950835810974,None,1156.0784031660296,1156.095172220841,,,,,,,165,001,2024_Feb_21_1126,SpeechDraft1Carolyn_lessNoise_PlusLocalization,2021.2.3,59.94267237343117,
,,,,,,,,nearLeft,-6.5,1,ch1Sound_localizationTask.wav,-6.5,"(857, 878)","(-103,-202)",-95,-338,,,,,,,,,,,,,0,2,2,2,,,,,,,,,,,,,,,,,,,,,,,,,,,,,,,,,,,,,,,,1158.6951062688604,None,,,1161.7116265078075,None,1.4285714285714286,0.6830064910463989,1161.7116265078075,None,,,,,,,1159.6951460721903,None,1159.878478279803,1159.8951978981495,,,,,,,165,001,2024_Feb_21_1126,SpeechDraft1Carolyn_lessNoise_PlusLocalization,2021.2.3,59.94267237343117,
,,,,,,,,nearRight,6.5,0,ch1Sound_localizationTask.wav,6.5,"(1047, 878)","(87, -202)",95,-338,,,,,,,,,,,,,0,3,3,4,,,,,,,,,,,,,,,,,,,,,,,,,,,,,,,,,,,,,,,,1162.395082147792,None,,,1165.4114879439585,None,1.5724867724867724,0.598860265687108,1165.4114879439585,None,,,,,,,1163.3950969032012,None,1163.578411791008,1163.5950826420449,,,,,,,165,001,2024_Feb_21_1126,SpeechDraft1Carolyn_lessNoise_PlusLocalization,2021.2.3,59.94267237343117,
,,,,,,,,nearLeft,-6.5,1,ch1Sound_localizationTask.wav,-6.5,"(857, 878)","(-103,-202)",-95,-338,,,,,,,,,,,,,0,4,4,2,,,,,,,,,,,,,,,,,,,,,,,,,,,,,,,,,,,,,,,,1166.0118028172292,None,,,1169.0281402599066,None,1.4343915343915343,0.6499666660092771,1169.0281402599066,None,,,,,,,1167.011820700951,None,1167.1951762028039,1167.2117338208482,,,,,,,165,001,2024_Feb_21_1126,SpeechDraft1Carolyn_lessNoise_PlusLocalization,2021.2.3,59.94267237343117,
,,,,,,,,farLeft,-19.1,5,ch1Sound_localizationTask.wav,-19.1,"(667, 878)","(-293,-202)",-285,-338,,,,,,,,,,,,,0,5,5,0,,,,,,,,,,,,,,,,,,,,,,,,,,,,,,,,,,,,,,,,1169.6787827587686,None,,,1172.694915407803,None,1.3275132275132275,0.7656775140203536,1172.694915407803,None,,,,,,,1170.6785546140745,None,1170.8618068369105,1170.8784741768613,,,,,,,165,001,2024_Feb_21_1126,SpeechDraft1Carolyn_lessNoise_PlusLocalization,2021.2.3,59.94267237343117,
,,,,,,,,farRight,19.1,4,ch1Sound_localizationTask.wav,19.1,"(1237, 878)","(277,-202)",285,-338,,,,,,,,,,,,,0,6,6,6,,,,,,,,,,,,,,,,,,,,,,,,,,,,,,,,,,,,,,,,1173.4626422999427,None,,,1176.478312896099,None,1.6952380952380952,0.7488165041431785,1176.478312896099,None,,,,,,,1174.4617156428285,None,1174.6451273509301,1174.6617998988368,,,,,,,165,001,2024_Feb_21_1126,SpeechDraft1Carolyn_lessNoise_PlusLocalization,2021.2.3,59.94267237343117,
,,,,,,,,nearLeft,-6.5,1,ch1Sound_localizationTask.wav,-6.5,"(857, 878)","(-103,-202)",-95,-338,,,,,,,,,,,,,1,0,7,2,,,,,,,,,,,,,,,,,,,,,,,,,,,,,,,,,,,,,,,,1177.228446089197,None,,,1180.244932748843,None,1.4343915343915343,0.7032957468181849,1180.244932748843,None,,,,,,,1178.2284734509885,None,1178.411794171203,1178.4285125578754,,,,,,,165,001,2024_Feb_21_1126,SpeechDraft1Carolyn_lessNoise_PlusLocalization,2021.2.3,59.94267237343117,
,,,,,,,,midLeft,-13.0,2,ch1Sound_localizationTask.wav,-13.0,"(762, 878)","(-198,-202)",-190,-338,,,,,,,,,,,,,1,1,8,1,,,,,,,,,,,,,,,,,,,,,,,,,,,,,,,,,,,,,,,,1180.9619216509163,None,,,1183.97821062617,None,1.3830687830687831,0.6992229102179408,1183.97821062617,None,,,,,,,1181.9617558121681,None,1182.1451978981495,1182.161786464043,,,,,,,165,001,2024_Feb_21_1126,SpeechDraft1Carolyn_lessNoise_PlusLocalization,2021.2.3,59.94267237343117,
,,,,,,,,farRight,19.1,4,ch1Sound_localizationTask.wav,19.1,"(1237, 878)","(277,-202)",285,-338,,,,,,,,,,,,,1,2,9,6,,,,,,,,,,,,,,,,,,,,,,,,,,,,,,,,,,,,,,,,1184.6786674889736,None,,,1187.6948361177929,None,1.6835978835978835,0.7821679669432342,1187.6948361177929,None,,,,,,,1185.678644457832,None,1185.8618220738135,1185.8784851888195,,,,,,,165,001,2024_Feb_21_1126,SpeechDraft1Carolyn_lessNoise_PlusLocalization,2021.2.3,59.94267237343117,
,,,,,,,,midRight,13.0,3,ch1Sound_localizationTask.wav,13.0,"(1142, 878)","(182, -202)",190,-338,,,,,,,,,,,,,1,3,10,5,,,,,,,,,,,,,,,,,,,,,,,,,,,,,,,,,,,,,,,,1188.4784977738746,None,,,1191.4948932090774,None,1.6047619047619048,0.5827349158935249,1191.4948932090774,None,,,,,,,1189.47850775579,None,1189.661799653899,1189.6785056041554,,,,,,,165,001,2024_Feb_21_1126,SpeechDraft1Carolyn_lessNoise_PlusLocalization,2021.2.3,59.94267237343117,
,,,,,,,,nearRight,6.5,0,ch1Sound_localizationTask.wav,6.5,"(1047, 878)","(87, -202)",95,-338,,,,,,,,,,,,,1,4,11,4,,,,,,,,,,,,,,,,,,,,,,,,,,,,,,,,,,,,,,,,1192.0786461820826,None,,,1195.094938477967,None,1.555026455026455,0.6157959457486868,1195.094938477967,None,,,,,,,1193.0784921799786,None,1193.2617994500324,1193.2785419840366,,,,,,,165,001,2024_Feb_21_1126,SpeechDraft1Carolyn_lessNoise_PlusLocalization,2021.2.3,59.94267237343117,
,,,,,,,,nearLeft,-6.5,1,ch1Sound_localizationTask.wav,-6.5,"(857, 878)","(-103,-202)",-95,-338,,,,,,,,,,,,,1,5,12,2,,,,,,,,,,,,,,,,,,,,,,,,,,,,,,,,,,,,,,,,1195.7119161291048,None,,,1198.728254768066,None,1.4444444444444444,0.7164061018265784,1198.728254768066,None,,,,,,,1196.7117898571305,None,1196.8951447731815,1196.9117942689918,,,,,,,165,001,2024_Feb_21_1126,SpeechDraft1Carolyn_lessNoise_PlusLocalization,2021.2.3,59.94267237343117,
,,,,,,,,midRight,13.0,3,ch1Sound_localizationTask.wav,13.0,"(1142, 878)","(182, -202)",190,-338,,,,,,,,,,,,,1,6,13,5,,,,,,,,,,,,,,,,,,,,,,,,,,,,,,,,,,,,,,,,1199.445287084207,None,,,1202.4614214599133,None,1.6153439153439153,0.6490706806071103,1202.4614214599133,None,,,,,,,1200.4451590869576,None,1200.6285594841465,1200.6451478991657,,,,,,,165,001,2024_Feb_21_1126,SpeechDraft1Carolyn_lessNoise_PlusLocalization,2021.2.3,59.94267237343117,
,,,,,,,,midLeft,-13.0,2,ch1Sound_localizationTask.wav,-13.0,"(762, 878)","(-198,-202)",-190,-338,,,,,,,,,,,,,2,0,14,1,,,,,,,,,,,,,,,,,,,,,,,,,,,,,,,,,,,,,,,,1203.1118510989472,None,,,1206.1283403597772,None,1.3941798941798942,0.7660186369903386,1206.1283403597772,None,,,,,,,1204.1118788849562,None,1204.29516502982,1204.311985567212,,,,,,,165,001,2024_Feb_21_1126,SpeechDraft1Carolyn_lessNoise_PlusLocalization,2021.2.3,59.94267237343117,
,,,,,,,,farRight,19.1,4,ch1Sound_localizationTask.wav,19.1,"(1237, 878)","(277,-202)",285,-338,,,,,,,,,,,,,2,1,15,6,,,,,,,,,,,,,,,,,,,,,,,,,,,,,,,,,,,,,,,,1206.8957878528163,None,,,1209.9115800568834,None,1.6296296296296298,0.8322003576904535,1209.9115800568834,None,,,,,,,1207.895164843183,None,1208.078416399192,1208.0951587208547,,,,,,,165,001,2024_Feb_21_1126,SpeechDraft1Carolyn_lessNoise_PlusLocalization,2021.2.3,59.94267237343117,
,,,,,,,,nearLeft,-6.5,1,ch1Sound_localizationTask.wav,-6.5,"(857, 878)","(-103,-202)",-95,-338,,,,,,,,,,,,,2,2,16,2,,,,,,,,,,,,,,,,,,,,,,,,,,,,,,,,,,,,,,,,1210.74516572617,None,,,1213.7615427011624,None,1.4486772486772486,0.6147044380195439,1213.7615427011624,None,,,,,,,1211.7452219170518,None,1211.9286934388801,1211.9451429261826,,,,,,,165,001,2024_Feb_21_1126,SpeechDraft1Carolyn_lessNoise_PlusLocalization,2021.2.3,59.94267237343117,
,,,,,,,,nearRight,6.5,0,ch1Sound_localizationTask.wav,6.5,"(1047, 878)","(87, -202)",95,-338,,,,,,,,,,,,,2,3,17,4,,,,,,,,,,,,,,,,,,,,,,,,,,,,,,,,,,,,,,,,1214.3785339831375,None,,,1217.3949182517827,None,1.5534391534391534,0.732295413967222,1217.3949182517827,None,,,,,,,1215.3785574990325,None,1215.5618154769763,1215.5785397579893,,,,,,,165,001,2024_Feb_21_1126,SpeechDraft1Carolyn_lessNoise_PlusLocalization,2021.2.3,59.94267237343117,
,,,,,,,,farRight,19.1,4,ch1Sound_localizationTask.wav,19.1,"(1237, 878)","(277,-202)",285,-338,,,,,,,,,,,,,2,4,18,6,,,,,,,,,,,,,,,,,,,,,,,,,,,,,,,,,,,,,,,,1218.1285448051058,None,,,1221.1449566958472,None,1.6576719576719576,0.6317381896078587,1221.1449566958472,None,,,,,,,1219.1286490838975,None,1219.3118896810338,1219.328533532098,,,,,,,165,001,2024_Feb_21_1126,SpeechDraft1Carolyn_lessNoise_PlusLocalization,2021.2.3,59.94267237343117,
,,,,,,,,midLeft,-13.0,2,ch1Sound_localizationTask.wav,-13.0,"(762, 878)","(-198,-202)",-190,-338,,,,,,,,,,,,,2,5,19,1,,,,,,,,,,,,,,,,,,,,,,,,,,,,,,,,,,,,,,,,1221.778553089127,None,,,1224.7948354231194,None,1.402116402116402,0.6824084282852709,1224.7948354231194,None,,,,,,,1222.7786650410853,None,1222.9618560769595,1222.978504023049,,,,,,,165,001,2024_Feb_21_1126,SpeechDraft1Carolyn_lessNoise_PlusLocalization,2021.2.3,59.94267237343117,
,,,,,,,,center,0.0,6,ch1Sound_localizationTask.wav,0.0,"(952, 878)","(-8,-202)",0,-338,,,,,,,,,,,,,2,6,20,3,,,,,,,,,,,,,,,,,,,,,,,,,,,,,,,,,,,,,,,,1225.4786151652224,None,,,1228.4951732219197,None,1.5063492063492063,0.5656682187691331,1228.4951732219197,None,,,,,,,1226.4785431982018,None,1226.6618836279958,1226.6785320779309,,,,,,,165,001,2024_Feb_21_1126,SpeechDraft1Carolyn_lessNoise_PlusLocalization,2021.2.3,59.94267237343117,
,,,,,,,,farRight,19.1,4,ch1Sound_localizationTask.wav,19.1,"(1237, 878)","(277,-202)",285,-338,,,,,,,,,,,,,3,0,21,6,,,,,,,,,,,,,,,,,,,,,,,,,,,,,,,,,,,,,,,,1229.0620765518397,None,,,1232.0783708388917,None,1.6280423280423282,0.5828706510365009,1232.0783708388917,None,,,,,,,1230.0619573327713,None,1230.2452146941796,1230.2619387530722,,,,,,,165,001,2024_Feb_21_1126,SpeechDraft1Carolyn_lessNoise_PlusLocalization,2021.2.3,59.94267237343117,
,,,,,,,,midRight,13.0,3,ch1Sound_localizationTask.wav,13.0,"(1142, 878)","(182, -202)",190,-338,,,,,,,,,,,,,3,1,22,5,,,,,,,,,,,,,,,,,,,,,,,,,,,,,,,,,,,,,,,,1232.6620719218627,None,,,1235.6782618029974,None,1.5994708994708995,0.6487427190877497,1235.6782618029974,None,,,,,,,1233.6618838268332,None,1233.8452107710764,1233.8619162640534,,,,,,,165,001,2024_Feb_21_1126,SpeechDraft1Carolyn_lessNoise_PlusLocalization,2021.2.3,59.94267237343117,
,,,,,,,,nearRight,6.5,0,ch1Sound_localizationTask.wav,6.5,"(1047, 878)","(87, -202)",95,-338,,,,,,,,,,,,,3,2,23,4,,,,,,,,,,,,,,,,,,,,,,,,,,,,,,,,,,,,,,,,1236.3285883660428,None,,,1239.3450013687834,None,1.5682539682539682,0.46595554100349545,1239.3450013687834,None,,,,,,,1237.3285038648173,None,1237.5118573578075,1237.5285490308888,,,,,,,165,001,2024_Feb_21_1126,SpeechDraft1Carolyn_lessNoise_PlusLocalization,2021.2.3,59.94267237343117,
,,,,,,,,nearLeft,-6.5,1,ch1Sound_localizationTask.wav,-6.5,"(857, 878)","(-103,-202)",-95,-338,,,,,,,,,,,,,3,3,24,2,,,,,,,,,,,,,,,,,,,,,,,,,,,,,,,,,,,,,,,,1239.8118935208768,None,,,1242.828508802224,None,1.4523809523809523,0.6655379701405764,1242.828508802224,None,,,,,,,1240.8122162008658,None,1240.995243778918,1241.0118698589504,,,,,,,165,001,2024_Feb_21_1126,SpeechDraft1Carolyn_lessNoise_PlusLocalization,2021.2.3,59.94267237343117,
,,,,,,,,nearRight,6.5,0,ch1Sound_localizationTask.wav,6.5,"(1047, 878)","(87, -202)",95,-338,,,,,,,,,,,,,3,4,25,4,,,,,,,,,,,,,,,,,,,,,,,,,,,,,,,,,,,,,,,,1243.4952443558723,None,,,1246.5116767399013,None,1.544973544973545,0.583046643063426,1246.5116767399013,None,,,,,,,1244.4952071402222,None,1244.6786111937836,1244.6952166799456,,,,,,,165,001,2024_Feb_21_1126,SpeechDraft1Carolyn_lessNoise_PlusLocalization,2021.2.3,59.94267237343117,
,,,,,,,,farRight,19.1,4,ch1Sound_localizationTask.wav,19.1,"(1237, 878)","(277,-202)",285,-338,,,,,,,,,,,,,3,5,26,6,,,,,,,,,,,,,,,,,,,,,,,,,,,,,,,,,,,,,,,,1247.095801000949,None,,,1250.1117585501634,None,1.6433862433862434,0.6820526788942516,1250.1117585501634,None,,,,,,,1248.0952948420309,None,1248.2785913641565,1248.2952818498015,,,,,,,165,001,2024_Feb_21_1126,SpeechDraft1Carolyn_lessNoise_PlusLocalization,2021.2.3,59.94267237343117,
,,,,,,,,farLeft,-19.1,5,ch1Sound_localizationTask.wav,-19.1,"(667, 878)","(-293,-202)",-285,-338,,,,,,,,,,,,,3,6,27,0,,,,,,,,,,,,,,,,,,,,,,,,,,,,,,,,,,,,,,,,1250.7956503541209,None,,,1253.8116247928701,None,1.328042328042328,0.7317676637321711,1253.8116247928701,None,,,,,,,1251.7953574820422,None,1251.9786010677926,1251.9953724150546,,,,,,,165,001,2024_Feb_21_1126,SpeechDraft1Carolyn_lessNoise_PlusLocalization,2021.2.3,59.94267237343117,
,,,,,,,,midRight,13.0,3,ch1Sound_localizationTask.wav,13.0,"(1142, 878)","(182, -202)",190,-338,,,,,,,,,,,,,4,0,28,5,,,,,,,,,,,,,,,,,,,,,,,,,,,,,,,,,,,,,,,,1254.545171401929,None,,,1257.561649148818,None,1.5783068783068783,0.9164810660295188,1257.561649148818,None,,,,,,,1255.545260398183,None,1255.7285760669038,1255.7453645681962,,,,,,,165,001,2024_Feb_21_1126,SpeechDraft1Carolyn_lessNoise_PlusLocalization,2021.2.3,59.94267237343117,
,,,,,,,,farLeft,-19.1,5,ch1Sound_localizationTask.wav,-19.1,"(667, 878)","(-293,-202)",-285,-338,,,,,,,,,,,,,4,1,29,0,,,,,,,,,,,,,,,,,,,,,,,,,,,,,,,,,,,,,,,,1258.4786035190336,None,,,1261.495014461223,None,1.307936507936508,0.7837037360295653,1261.495014461223,None,,,,,,,1259.478597611189,None,1259.6620380789973,1259.6786182718351,,,,,,,165,001,2024_Feb_21_1126,SpeechDraft1Carolyn_lessNoise_PlusLocalization,2021.2.3,59.94267237343117,
,,,,,,,,nearRight,6.5,0,ch1Sound_localizationTask.wav,6.5,"(1047, 878)","(87, -202)",95,-338,,,,,,,,,,,,,4,2,30,4,,,,,,,,,,,,,,,,,,,,,,,,,,,,,,,,,,,,,,,,1262.2954210471362,None,,,1265.3116422761232,None,1.5486772486772487,0.732470003888011,1265.3116422761232,None,,,,,,,1263.2953926171176,None,1263.4787910748273,1263.495357667096,,,,,,,165,001,2024_Feb_21_1126,SpeechDraft1Carolyn_lessNoise_PlusLocalization,2021.2.3,59.94267237343117,
,,,,,,,,farLeft,-19.1,5,ch1Sound_localizationTask.wav,-19.1,"(667, 878)","(-293,-202)",-285,-338,,,,,,,,,,,,,4,3,31,0,,,,,,,,,,,,,,,,,,,,,,,,,,,,,,,,,,,,,,,,1266.045365867205,None,,,1269.0616099289618,None,1.337037037037037,0.6837581670843065,1269.0616099289618,None,,,,,,,1267.0453657689504,None,1267.228768012952,1267.2453278000467,,,,,,,165,001,2024_Feb_21_1126,SpeechDraft1Carolyn_lessNoise_PlusLocalization,2021.2.3,59.94267237343117,
,,,,,,,,farLeft,-19.1,5,ch1Sound_localizationTask.wav,-19.1,"(667, 878)","(-293,-202)",-285,-338,,,,,,,,,,,,,4,4,32,0,,,,,,,,,,,,,,,,,,,,,,,,,,,,,,,,,,,,,,,,1269.7619281038642,None,,,1272.7783970418386,None,1.3423280423280424,0.7671939712017775,1272.7783970418386,None,,,,,,,1270.761905984953,None,1270.9454761920497,1270.962091669906,,,,,,,165,001,2024_Feb_21_1126,SpeechDraft1Carolyn_lessNoise_PlusLocalization,2021.2.3,59.94267237343117,
,,,,,,,,nearRight,6.5,0,ch1Sound_localizationTask.wav,6.5,"(1047, 878)","(87, -202)",95,-338,,,,,,,,,,,,,4,5,33,4,,,,,,,,,,,,,,,,,,,,,,,,,,,,,,,,,,,,,,,,1273.5619559660554,None,,,1276.5785052319989,None,1.5312169312169313,0.6330220429226756,1276.5785052319989,None,,,,,,,1274.5618704701774,None,1274.7454287768342,1274.761953075882,,,,,,,165,001,2024_Feb_21_1126,SpeechDraft1Carolyn_lessNoise_PlusLocalization,2021.2.3,59.94267237343117,
,,,,,,,,farRight,19.1,4,ch1Sound_localizationTask.wav,19.1,"(1237, 878)","(277,-202)",285,-338,,,,,,,,,,,,,4,6,34,6,,,,,,,,,,,,,,,,,,,,,,,,,,,,,,,,,,,,,,,,1277.2119480739348,None,,,1280.228356142994,None,1.6544973544973545,0.5991647802293301,1280.228356142994,None,,,,,,,1278.2119139921851,None,1278.3952610068955,1278.4119010227732,,,,,,,165,001,2024_Feb_21_1126,SpeechDraft1Carolyn_lessNoise_PlusLocalization,2021.2.3,59.94267237343117,
,,,,,,,,center,0.0,6,ch1Sound_localizationTask.wav,0.0,"(952, 878)","(-8,-202)",0,-338,,,,,,,,,,,,,5,0,35,3,,,,,,,,,,,,,,,,,,,,,,,,,,,,,,,,,,,,,,,,1280.8285943348892,None,,,1283.8449664819054,None,1.4761904761904763,0.7335457308217883,1283.8449664819054,None,,,,,,,1281.828638358973,None,1282.0119596580043,1282.0286106858402,,,,,,,165,001,2024_Feb_21_1126,SpeechDraft1Carolyn_lessNoise_PlusLocalization,2021.2.3,59.94267237343117,
,,,,,,,,center,0.0,6,ch1Sound_localizationTask.wav,0.0,"(952, 878)","(-8,-202)",0,-338,,,,,,,,,,,,,5,1,36,3,,,,,,,,,,,,,,,,,,,,,,,,,,,,,,,,,,,,,,,,1284.5953353838995,None,,,1287.611580600962,None,1.4984126984126984,0.8822681177407503,1287.611580600962,None,,,,,,,1285.5952627710067,None,1285.7786288158968,1285.7952592098154,,,,,,,165,001,2024_Feb_21_1126,SpeechDraft1Carolyn_lessNoise_PlusLocalization,2021.2.3,59.94267237343117,
,,,,,,,,midRight,13.0,3,ch1Sound_localizationTask.wav,13.0,"(1142, 878)","(182, -202)",190,-338,,,,,,,,,,,,,5,2,37,5,,,,,,,,,,,,,,,,,,,,,,,,,,,,,,,,,,,,,,,,1288.495588329155,None,,,1291.5117655671202,None,1.6042328042328042,0.6324103670194745,1291.5117655671202,None,,,,,,,1289.4953704010695,None,1289.6786309899762,1289.6952961529605,,,,,,,165,001,2024_Feb_21_1126,SpeechDraft1Carolyn_lessNoise_PlusLocalization,2021.2.3,59.94267237343117,
,,,,,,,,midRight,13.0,3,ch1Sound_localizationTask.wav,13.0,"(1142, 878)","(182, -202)",190,-338,,,,,,,,,,,,,5,3,38,5,,,,,,,,,,,,,,,,,,,,,,,,,,,,,,,,,,,,,,,,1292.1454321988858,None,,,1295.1618606941774,None,1.6047619047619048,0.41644989186897874,1295.1618606941774,None,,,,,,,1293.145394674968,None,1293.328690817114,1293.3453382239677,,,,,,,165,001,2024_Feb_21_1126,SpeechDraft1Carolyn_lessNoise_PlusLocalization,2021.2.3,59.94267237343117,
,,,,,,,,nearLeft,-6.5,1,ch1Sound_localizationTask.wav,-6.5,"(857, 878)","(-103,-202)",-95,-338,,,,,,,,,,,,,5,4,39,2,,,,,,,,,,,,,,,,,,,,,,,,,,,,,,,,,,,,,,,,1295.5786165990867,None,,,1298.594994714018,None,1.4417989417989419,0.6329998630098999,1298.594994714018,None,,,,,,,1296.578755187802,None,1296.7619838542305,1296.7786981160752,,,,,,,165,001,2024_Feb_21_1126,SpeechDraft1Carolyn_lessNoise_PlusLocalization,2021.2.3,59.94267237343117,
,,,,,,,,midLeft,-13.0,2,ch1Sound_localizationTask.wav,-13.0,"(762, 878)","(-198,-202)",-190,-338,,,,,,,,,,,,,5,5,40,1,,,,,,,,,,,,,,,,,,,,,,,,,,,,,,,,,,,,,,,,1299.229695507791,None,,,1302.2617073939182,None,1.38994708994709,0.6839932021684945,1302.2617073939182,None,,,,,,,1300.2453419491649,None,1300.4286679578945,1300.445230870042,,,,,,,165,001,2024_Feb_21_1126,SpeechDraft1Carolyn_lessNoise_PlusLocalization,2021.2.3,59.94267237343117,
,,,,,,,,midLeft,-13.0,2,ch1Sound_localizationTask.wav,-13.0,"(762, 878)","(-198,-202)",-190,-338,,,,,,,,,,,,,5,6,41,1,,,,,,,,,,,,,,,,,,,,,,,,,,,,,,,,,,,,,,,,1302.9621145571582,None,,,1305.9783368217759,None,1.3724867724867724,0.7486218451522291,1305.9783368217759,None,,,,,,,1303.9619725430384,None,1304.1453789989464,1304.1619822108187,,,,,,,165,001,2024_Feb_21_1126,SpeechDraft1Carolyn_lessNoise_PlusLocalization,2021.2.3,59.94267237343117,
,,,,,,,,farLeft,-19.1,5,ch1Sound_localizationTask.wav,-19.1,"(667, 878)","(-293,-202)",-285,-338,,,,,,,,,,,,,6,0,42,0,,,,,,,,,,,,,,,,,,,,,,,,,,,,,,,,,,,,,,,,1306.7295629209839,None,,,1309.7449847348034,None,1.3306878306878307,0.8151095379143953,1309.7449847348034,None,,,,,,,1307.728724678047,None,1307.912127804011,1307.9287111791782,,,,,,,165,001,2024_Feb_21_1126,SpeechDraft1Carolyn_lessNoise_PlusLocalization,2021.2.3,59.94267237343117,
,,,,,,,,midRight,13.0,3,ch1Sound_localizationTask.wav,13.0,"(1142, 878)","(182, -202)",190,-338,,,,,,,,,,,,,6,1,43,5,,,,,,,,,,,,,,,,,,,,,,,,,,,,,,,,,,,,,,,,1310.562302086968,None,,,1313.5784418969415,None,1.5873015873015874,0.5825091130100191,1313.5784418969415,None,,,,,,,1311.5620554559864,None,1311.745340324007,1311.7619890011847,,,,,,,165,001,2024_Feb_21_1126,SpeechDraft1Carolyn_lessNoise_PlusLocalization,2021.2.3,59.94267237343117,
,,,,,,,,midLeft,-13.0,2,ch1Sound_localizationTask.wav,-13.0,"(762, 878)","(-198,-202)",-190,-338,,,,,,,,,,,,,6,2,44,1,,,,,,,,,,,,,,,,,,,,,,,,,,,,,,,,,,,,,,,,1314.1622869139537,None,,,1317.178475951776,None,1.3719576719576718,2.1325784870423377,1317.178475951776,None,,,,,,,1315.1620995681733,None,1315.345332797151,1315.3620301228948,,,,,,,165,001,2024_Feb_21_1126,SpeechDraft1Carolyn_lessNoise_PlusLocalization,2021.2.3,59.94267237343117,
,,,,,,,,farLeft,-19.1,5,ch1Sound_localizationTask.wav,-19.1,"(667, 878)","(-293,-202)",-285,-338,,,,,,,,,,,,,6,3,45,0,,,,,,,,,,,,,,,,,,,,,,,,,,,,,,,,,,,,,,,,1319.313099597115,None,,,1322.3451556568034,None,1.3486772486772487,0.7652157889679074,1322.3451556568034,None,,,,,,,1320.3286700169556,None,1320.5119925839826,1320.528659211006,,,,,,,165,001,2024_Feb_21_1126,SpeechDraft1Carolyn_lessNoise_PlusLocalization,2021.2.3,59.94267237343117,
,,,,,,,,farRight,19.1,4,ch1Sound_localizationTask.wav,19.1,"(1237, 878)","(277,-202)",285,-338,,,,,,,,,,,,,6,4,46,6,,,,,,,,,,,,,,,,,,,,,,,,,,,,,,,,,,,,,,,,1323.1286814068444,None,,,1326.1450043059886,None,1.6582010582010582,0.6997092464007437,1326.1450043059886,None,,,,,,,1324.12878985703,None,1324.3119542859495,1324.3286781092174,,,,,,,165,001,2024_Feb_21_1126,SpeechDraft1Carolyn_lessNoise_PlusLocalization,2021.2.3,59.94267237343117,
,,,,,,,,midLeft,-13.0,2,ch1Sound_localizationTask.wav,-13.0,"(762, 878)","(-198,-202)",-190,-338,,,,,,,,,,,,,6,5,47,1,,,,,,,,,,,,,,,,,,,,,,,,,,,,,,,,,,,,,,,,1326.8459763070568,None,,,1329.8619294189848,None,1.4121693121693122,0.6320614907890558,1329.8619294189848,None,,,,,,,1327.845394317992,None,1328.0286759617738,1328.0453950078227,,,,,,,165,001,2024_Feb_21_1126,SpeechDraft1Carolyn_lessNoise_PlusLocalization,2021.2.3,59.94267237343117,
,,,,,,,,farLeft,-19.1,5,ch1Sound_localizationTask.wav,-19.1,"(667, 878)","(-293,-202)",-285,-338,,,,,,,,,,,,,6,6,48,0,,,,,,,,,,,,,,,,,,,,,,,,,,,,,,,,,,,,,,,,1330.4954714970663,None,,,1333.5118253268301,None,1.3306878306878307,0.5320558962412179,1333.5118253268301,None,,,,,,,1331.4953483589925,None,1331.6787177170627,1331.6953460071236,,,,,,,165,001,2024_Feb_21_1126,SpeechDraft1Carolyn_lessNoise_PlusLocalization,2021.2.3,59.94267237343117,
,,,,,,,,center,0.0,6,ch1Sound_localizationTask.wav,0.0,"(952, 878)","(-8,-202)",0,-338,,,,,,,,,,,,,7,0,49,3,,,,,,,,,,,,,,,,,,,,,,,,,,,,,,,,,,,,,,,,1334.0453699291684,None,,,1337.0618510958739,None,1.506878306878307,0.832686907146126,1337.0618510958739,None,,,,,,,1335.0455240551382,None,1335.2287402730435,1335.2453707749955,,,,,,,165,001,2024_Feb_21_1126,SpeechDraft1Carolyn_lessNoise_PlusLocalization,2021.2.3,59.94267237343117,
,,,,,,,,center,0.0,6,ch1Sound_localizationTask.wav,0.0,"(952, 878)","(-8,-202)",0,-338,,,,,,,,,,,,,7,1,50,3,,,,,,,,,,,,,,,,,,,,,,,,,,,,,,,,,,,,,,,,1337.9121267232113,None,,,1340.9284137659706,None,1.5037037037037035,0.41559119895100594,1340.9284137659706,None,,,,,,,1338.91207982786,None,1339.0953975138254,1339.112034805119,,,,,,,165,001,2024_Feb_21_1126,SpeechDraft1Carolyn_lessNoise_PlusLocalization,2021.2.3,59.94267237343117,
,,,,,,,,nearRight,6.5,0,ch1Sound_localizationTask.wav,6.5,"(1047, 878)","(87, -202)",95,-338,,,,,,,,,,,,,7,2,51,4,,,,,,,,,,,,,,,,,,,,,,,,,,,,,,,,,,,,,,,,1341.3454693360254,None,,,1344.3620363720693,None,1.5544973544973546,0.6482505993917584,1344.3620363720693,None,,,,,,,1342.3453771458007,None,1342.5286658811383,1342.5454486859962,,,,,,,165,001,2024_Feb_21_1126,SpeechDraft1Carolyn_lessNoise_PlusLocalization,2021.2.3,59.94267237343117,
,,,,,,,,center,0.0,6,ch1Sound_localizationTask.wav,0.0,"(952, 878)","(-8,-202)",0,-338,,,,,,,,,,,,,7,3,52,3,,,,,,,,,,,,,,,,,,,,,,,,,,,,,,,,,,,,,,,,1345.0121732461266,None,,,1348.028488560114,None,1.492063492063492,0.6328070689924061,1348.028488560114,None,,,,,,,1346.0120406681672,None,1346.1953429831192,1346.212158774957,,,,,,,165,001,2024_Feb_21_1126,SpeechDraft1Carolyn_lessNoise_PlusLocalization,2021.2.3,59.94267237343117,
,,,,,,,,center,0.0,6,ch1Sound_localizationTask.wav,0.0,"(952, 878)","(-8,-202)",0,-338,,,,,,,,,,,,,7,4,53,3,,,,,,,,,,,,,,,,,,,,,,,,,,,,,,,,,,,,,,,,1348.6622664821334,None,,,1351.67851662077,None,1.4968253968253968,0.39976738719269633,1351.67851662077,None,,,,,,,1349.6620214558206,None,1349.8453501509503,1349.8620032900944,,,,,,,165,001,2024_Feb_21_1126,SpeechDraft1Carolyn_lessNoise_PlusLocalization,2021.2.3,59.94267237343117,
,,,,,,,,midLeft,-13.0,2,ch1Sound_localizationTask.wav,-13.0,"(762, 878)","(-198,-202)",-190,-338,,,,,,,,,,,,,7,5,54,1,,,,,,,,,,,,,,,,,,,,,,,,,,,,,,,,,,,,,,,,1352.0790239251219,None,,,1355.0951076429337,None,1.4095238095238094,0.9998283390887082,1355.0951076429337,None,,,,,,,1353.078644319903,None,1353.2620530212298,1353.2787311822176,,,,,,,165,001,2024_Feb_21_1126,SpeechDraft1Carolyn_lessNoise_PlusLocalization,2021.2.3,59.94267237343117,
,,,,,,,,center,0.0,6,ch1Sound_localizationTask.wav,0.0,"(952, 878)","(-8,-202)",0,-338,,,,,,,,,,,,,7,6,55,3,,,,,,,,,,,,,,,,,,,,,,,,,,,,,,,,,,,,,,,,1356.0966069889255,None,,,1359.1284851008095,None,1.4984126984126984,0.8492408166639507,1359.1284851008095,None,,,,,,,1357.111947203055,None,1357.2953726630658,1357.3120063180104,,,,,,,165,001,2024_Feb_21_1126,SpeechDraft1Carolyn_lessNoise_PlusLocalization,2021.2.3,59.94267237343117,
,,,,,,,,,,,,,,,,,,,,,,,,,,,,,,,,,,,,,,,,,,,,,,,,,,,,,,,,,,,,,,,,,,,,,,,,,,,,,,,,,,,,,,,,,,,,1359.978835488204,None,c,775.2015726598911,1360.9623304777779,None,165,001,2024_Feb_21_1126,SpeechDraft1Carolyn_lessNoise_PlusLocalization,2021.2.3,59.94267237343117,
