Audio_Only_Files,Video_Files,Original_Word_List,noiseLevelCode,conditionCodes,noiseLevelFile1,noiseLevelFile2,InstrTextVar,targetSpeakerName,targetSpeakerEccen,targetSpkrChannel,targetSpkrSound,targetVisualDegrees,visStimLoc,visStimLoc2,visStimW,visStimH,practiceTrials.thisRepN,practiceTrials.thisTrialN,practiceTrials.thisN,practiceTrials.thisIndex,trials.thisRepN,trials.thisTrialN,trials.thisN,trials.thisIndex,audLocalLoop.thisRepN,audLocalLoop.thisTrialN,audLocalLoop.thisN,audLocalLoop.thisIndex,visualLocalLoop.thisRepN,visualLocalLoop.thisTrialN,visualLocalLoop.thisN,visualLocalLoop.thisIndex,letsGoAlready.keys,letsGoAlready.rt,letsGoAlready.started,letsGoAlready.stopped,text_2.started,text_2.stopped,text_3.started,text_3.stopped,key_resp_2.keys,key_resp_2.rt,key_resp_2.started,key_resp_2.stopped,text_5.started,text_5.stopped,fixCross.started,fixCross.stopped,fixCross2.started,fixCross2.stopped,answerPrompt.started,answerPrompt.stopped,getAnswer.text,getAnswer.started,getAnswer.stopped,goToNext.keys,goToNext.rt,goToNext.started,goToNext.stopped,stretchBreakTxrt.started,stretchBreakTxrt.stopped,key_resp_3.keys,key_resp_3.rt,key_resp_3.started,key_resp_3.stopped,letsGoLocal.keys,letsGoLocal.rt,letsGoLocal.started,letsGoLocal.stopped,text_4.started,text_4.stopped,prepFixTxt.started,prepFixTxt.stopped,prepFixTxt_2.started,prepFixTxt_2.stopped,respPromptLocal.started,respPromptLocal.stopped,slider.response,slider.rt,slider.started,slider.stopped,letsGoLocal_2.keys,letsGoLocal_2.rt,letsGoLocal_2.started,letsGoLocal_2.stopped,text_7.started,text_7.stopped,prepFixTxt_3.started,prepFixTxt_3.stopped,grating.started,grating.stopped,exitTxt.started,exitTxt.stopped,key_resp.keys,key_resp.rt,key_resp.started,key_resp.stopped,participant,session,date,expName,psychopyVersion,frameRate,
,,,,,,,,,,,,,,,,,,,,,,,,,,,,,,,,,space,215.27315999520943,205.1396049130708,None,,,,,,,,,,,,,,,,,,,,,,,,,,,,,,,,,,,,,,,,,,,,,,,,,,,,,,,,,,,,,,166,001,2024_Feb_22_1600,SpeechDraft1Carolyn_lessNoise_PlusLocalization,2021.2.3,59.81271167420278,
,,,,,,,,,,,,,,,,,,,,,,,,,,,,,,,,,,,,,205.1396049130708,None,420.53937849309295,None,space,8.721421913709491,420.7234100298956,None,,,,,,,,,,,,,,,,,,,,,,,,,,,,,,,,,,,,,,,,,,,,,,,,,,,,,,166,001,2024_Feb_22_1600,SpeechDraft1Carolyn_lessNoise_PlusLocalization,2021.2.3,59.81271167420278,
ash.wav,ash.mpg,ash,1,A,Pink_Noise_1_1.wav,Pink_Noise_1_2.wav,"This is an example of an

AUDIO trial",,,,,,,,,,0,0,0,0,,,,,,,,,,,,,,,,,,,,,,,,,429.49045882513747,None,430.4899313659407,None,433.70631160680205,None,435.07317013386637,None,Ash,435.07317013386637,None,return,6.4243395938538015,435.1564776538871,None,,,,,,,,,,,,,,,,,,,,,,,,,,,,,,,,,,,,,,,166,001,2024_Feb_22_1600,SpeechDraft1Carolyn_lessNoise_PlusLocalization,2021.2.3,59.81271167420278,
ash.wav,ash.mpg,ash,1,AV,Pink_Noise_1_1.wav,Pink_Noise_1_2.wav,"This is an example of an

AUDIO + VIDEO  trial",,,,,,,,,,0,1,1,1,,,,,,,,,,,,,,,,,,,,,,,,,441.62278525112197,None,442.62343659391627,None,444.1075638369657,None,445.4897554498166,None,ash,445.4897554498166,None,return,1.3435413767583668,445.5731902178377,None,,,,,,,,,,,,,,,,,,,,,,,,,,,,,,,,,,,,,,,166,001,2024_Feb_22_1600,SpeechDraft1Carolyn_lessNoise_PlusLocalization,2021.2.3,59.81271167420278,
,,,,,,,,,,,,,,,,,,,,,,,,,,,,,,,,,,,,,,,,,,,,,,,,,,,,,,,,,,,,446.9563274187967,None,space,9.784994684159756,447.1397448889911,None,,,,,,,,,,,,,,,,,,,,,,,,,,,,,,,,,166,001,2024_Feb_22_1600,SpeechDraft1Carolyn_lessNoise_PlusLocalization,2021.2.3,59.81271167420278,
dive.wav,dive.mpg,dive,5,AV,Pink_Noise_5_1.wav,Pink_Noise_5_2.wav,,,,,,,,,,,,,,,0,0,0,65,,,,,,,,,,,,,,,,,,,,,,,456.98975877603516,None,458.4729489698075,None,459.8564322278835,None,"save
",459.8564322278835,None,return,16.81674414081499,459.9399995948188,None,,,,,,,,,,,,,,,,,,,,,,,,,,,,,,,,,,,,,,,166,001,2024_Feb_22_1600,SpeechDraft1Carolyn_lessNoise_PlusLocalization,2021.2.3,59.81271167420278,
pop.wav,pop.mpg,pop,1,A,Pink_Noise_1_1.wav,Pink_Noise_1_2.wav,,,,,,,,,,,,,,,0,1,1,45,,,,,,,,,,,,,,,,,,,,,,,476.7898652590811,None,478.27287337277085,None,479.65658580698073,None,pop,479.65658580698073,None,return,2.4085569391027093,479.74017733102664,None,,,,,,,,,,,,,,,,,,,,,,,,,,,,,,,,,,,,,,,166,001,2024_Feb_22_1600,SpeechDraft1Carolyn_lessNoise_PlusLocalization,2021.2.3,59.81271167420278,
cope.wav,cope.mpg,cope,5,A,Pink_Noise_5_1.wav,Pink_Noise_5_2.wav,,,,,,,,,,,,,,,0,2,2,50,,,,,,,,,,,,,,,,,,,,,,,482.1732066348195,None,483.6731257000938,None,485.05669553391635,None,ocean,485.05669553391635,None,return,1.5448640268296003,485.13987187994644,None,,,,,,,,,,,,,,,,,,,,,,,,,,,,,,,,,,,,,,,166,001,2024_Feb_22_1600,SpeechDraft1Carolyn_lessNoise_PlusLocalization,2021.2.3,59.81271167420278,
cab.wav,cab.mpg,cab,4,AV,Pink_Noise_4_1.wav,Pink_Noise_4_2.wav,,,,,,,,,,,,,,,0,3,3,78,,,,,,,,,,,,,,,,,,,,,,,486.7069068378769,None,488.19151707878336,None,489.5899747889489,None,cam,489.5899747889489,None,return,1.3074613129720092,489.67327447002754,None,,,,,,,,,,,,,,,,,,,,,,,,,,,,,,,,,,,,,,,166,001,2024_Feb_22_1600,SpeechDraft1Carolyn_lessNoise_PlusLocalization,2021.2.3,59.81271167420278,
clothe.wav,clothe.mpg,clothe,1,AV,Pink_Noise_1_1.wav,Pink_Noise_1_2.wav,,,,,,,,,,,,,,,0,4,4,60,,,,,,,,,,,,,,,,,,,,,,,491.00690947519615,None,492.5062594888732,None,493.88991419877857,None,cloth,493.88991419877857,None,return,2.1272568400017917,493.97348037501797,None,,,,,,,,,,,,,,,,,,,,,,,,,,,,,,,,,,,,,,,166,001,2024_Feb_22_1600,SpeechDraft1Carolyn_lessNoise_PlusLocalization,2021.2.3,59.81271167420278,
clad.wav,clad.mpg,clad,5,AV,Pink_Noise_5_1.wav,Pink_Noise_5_2.wav,,,,,,,,,,,,,,,0,5,5,113,,,,,,,,,,,,,,,,,,,,,,,496.12324217613786,None,497.62320102611557,None,499.0067128529772,None,"lad
",499.0067128529772,None,return,3.1868456876836717,499.0898979501799,None,,,,,,,,,,,,,,,,,,,,,,,,,,,,,,,,,,,,,,,166,001,2024_Feb_22_1600,SpeechDraft1Carolyn_lessNoise_PlusLocalization,2021.2.3,59.81271167420278,
toy.wav,toy.mpg,toy,2,A,Pink_Noise_2_1.wav,Pink_Noise_2_2.wav,,,,,,,,,,,,,,,0,6,6,5,,,,,,,,,,,,,,,,,,,,,,,502.30655982578173,None,503.80621463712305,None,505.1898824130185,None,"toy
",505.1898824130185,None,return,1.235501644667238,505.27324083680287,None,,,,,,,,,,,,,,,,,,,,,,,,,,,,,,,,,,,,,,,166,001,2024_Feb_22_1600,SpeechDraft1Carolyn_lessNoise_PlusLocalization,2021.2.3,59.81271167420278,
bias.wav,bias.mpg,bias,1,AV,Pink_Noise_1_1.wav,Pink_Noise_1_2.wav,,,,,,,,,,,,,,,0,7,7,90,,,,,,,,,,,,,,,,,,,,,,,506.5402001659386,None,508.03958150791004,None,509.42333532497287,None,bias,509.42333532497287,None,return,1.0262046651914716,509.5065315300599,None,,,,,,,,,,,,,,,,,,,,,,,,,,,,,,,,,,,,,,,166,001,2024_Feb_22_1600,SpeechDraft1Carolyn_lessNoise_PlusLocalization,2021.2.3,59.81271167420278,
peach.wav,peach.mpg,peach,5,A,Pink_Noise_5_1.wav,Pink_Noise_5_2.wav,,,,,,,,,,,,,,,0,8,8,55,,,,,,,,,,,,,,,,,,,,,,,510.55683457199484,None,512.0561513700522,None,513.4403617042117,None,wish,513.4403617042117,None,return,1.5774694602005184,513.5232834331691,None,,,,,,,,,,,,,,,,,,,,,,,,,,,,,,,,,,,,,,,166,001,2024_Feb_22_1600,SpeechDraft1Carolyn_lessNoise_PlusLocalization,2021.2.3,59.81271167420278,
dial.wav,dial.mpg,dial,3,AV,Pink_Noise_3_1.wav,Pink_Noise_3_2.wav,,,,,,,,,,,,,,,0,9,9,104,,,,,,,,,,,,,,,,,,,,,,,515.123511726968,None,516.6230847309344,None,518.0068094111048,None,diet,518.0068094111048,None,return,3.5387133480980992,518.0901430328377,None,,,,,,,,,,,,,,,,,,,,,,,,,,,,,,,,,,,,,,,166,001,2024_Feb_22_1600,SpeechDraft1Carolyn_lessNoise_PlusLocalization,2021.2.3,59.81271167420278,
chess.wav,chess.mpg,chess,2,AV,Pink_Noise_2_1.wav,Pink_Noise_2_2.wav,,,,,,,,,,,,,,,0,10,10,107,,,,,,,,,,,,,,,,,,,,,,,521.6566166467965,None,523.1565175629221,None,524.5399686368182,None,chess,524.5399686368182,None,return,1.133236104156822,524.6235104310326,None,,,,,,,,,,,,,,,,,,,,,,,,,,,,,,,,,,,,,,,166,001,2024_Feb_22_1600,SpeechDraft1Carolyn_lessNoise_PlusLocalization,2021.2.3,59.81271167420278,
ear.wav,ear.mpg,ear,5,AV,Pink_Noise_5_1.wav,Pink_Noise_5_2.wav,,,,,,,,,,,,,,,0,11,11,62,,,,,,,,,,,,,,,,,,,,,,,525.7735520689748,None,527.2733401069418,None,528.6569602829404,None,"ear
",528.6569602829404,None,return,0.4008219367824495,528.739917750936,None,,,,,,,,,,,,,,,,,,,,,,,,,,,,,,,,,,,,,,,166,001,2024_Feb_22_1600,SpeechDraft1Carolyn_lessNoise_PlusLocalization,2021.2.3,59.81271167420278,
glide.wav,glide.mpg,glide,6,A,Pink_Noise_6_1.wav,Pink_Noise_6_2.wav,,,,,,,,,,,,,,,0,12,12,23,,,,,,,,,,,,,,,,,,,,,,,529.1733945170417,None,530.6733440482058,None,532.0565449148417,None,line,532.0565449148417,None,return,1.3927625990472734,532.1399716348387,None,,,,,,,,,,,,,,,,,,,,,,,,,,,,,,,,,,,,,,,166,001,2024_Feb_22_1600,SpeechDraft1Carolyn_lessNoise_PlusLocalization,2021.2.3,59.81271167420278,
fad.wav,fad.mpg,fad,5,AV,Pink_Noise_5_1.wav,Pink_Noise_5_2.wav,,,,,,,,,,,,,,,0,13,13,100,,,,,,,,,,,,,,,,,,,,,,,533.5568156940863,None,535.0564697938971,None,536.440009792801,None,fad,536.440009792801,None,return,8.329187158029526,536.5235453122295,None,,,,,,,,,,,,,,,,,,,,,,,,,,,,,,,,,,,,,,,166,001,2024_Feb_22_1600,SpeechDraft1Carolyn_lessNoise_PlusLocalization,2021.2.3,59.81271167420278,
live.wav,live.mpg,live,3,A,Pink_Noise_3_1.wav,Pink_Noise_3_2.wav,,,,,,,,,,,,,,,0,14,14,20,,,,,,,,,,,,,,,,,,,,,,,544.8735279901884,None,546.3731302339584,None,547.7569476980716,None,leg,547.7569476980716,None,return,1.1646806439384818,547.8400956531987,None,,,,,,,,,,,,,,,,,,,,,,,,,,,,,,,,,,,,,,,166,001,2024_Feb_22_1600,SpeechDraft1Carolyn_lessNoise_PlusLocalization,2021.2.3,59.81271167420278,
drive.wav,drive.mpg,drive,2,AV,Pink_Noise_2_1.wav,Pink_Noise_2_2.wav,,,,,,,,,,,,,,,0,15,15,91,,,,,,,,,,,,,,,,,,,,,,,549.0236442168243,None,550.5229562530294,None,551.9067321829498,None,"drive
",551.9067321829498,None,return,0.9186987089924514,551.9900389900431,None,,,,,,,,,,,,,,,,,,,,,,,,,,,,,,,,,,,,,,,166,001,2024_Feb_22_1600,SpeechDraft1Carolyn_lessNoise_PlusLocalization,2021.2.3,59.81271167420278,
cloth.wav,cloth.mpg,cloth,4,A,Pink_Noise_4_1.wav,Pink_Noise_4_2.wav,,,,,,,,,,,,,,,0,16,16,33,,,,,,,,,,,,,,,,,,,,,,,552.9402096248232,None,554.4396495688707,None,555.8236852898262,None,throw,555.8236852898262,None,return,2.7540776007808745,555.9067017100751,None,,,,,,,,,,,,,,,,,,,,,,,,,,,,,,,,,,,,,,,166,001,2024_Feb_22_1600,SpeechDraft1Carolyn_lessNoise_PlusLocalization,2021.2.3,59.81271167420278,
bland.wav,bland.mpg,bland,3,AV,Pink_Noise_3_1.wav,Pink_Noise_3_2.wav,,,,,,,,,,,,,,,0,17,17,75,,,,,,,,,,,,,,,,,,,,,,,558.6901629581116,None,560.1896086591296,None,561.5732505870983,None,bland,561.5732505870983,None,return,0.8920531538315117,561.65668250015,None,,,,,,,,,,,,,,,,,,,,,,,,,,,,,,,,,,,,,,,166,001,2024_Feb_22_1600,SpeechDraft1Carolyn_lessNoise_PlusLocalization,2021.2.3,59.81271167420278,
fog.wav,fog.mpg,fog,1,A,Pink_Noise_1_1.wav,Pink_Noise_1_2.wav,,,,,,,,,,,,,,,0,18,18,36,,,,,,,,,,,,,,,,,,,,,,,562.573423334863,None,564.072996349074,None,565.4566269940697,None,fog,565.4566269940697,None,return,0.5766928801313043,565.5400338941254,None,,,,,,,,,,,,,,,,,,,,,,,,,,,,,,,,,,,,,,,166,001,2024_Feb_22_1600,SpeechDraft1Carolyn_lessNoise_PlusLocalization,2021.2.3,59.81271167420278,
cone.wav,cone.mpg,cone,4,A,Pink_Noise_4_1.wav,Pink_Noise_4_2.wav,,,,,,,,,,,,,,,0,19,19,32,,,,,,,,,,,,,,,,,,,,,,,566.1399879828095,None,567.6397491511889,None,569.0237647602335,None,"air
",569.0237647602335,None,return,3.8019152279011905,569.1068318309262,None,,,,,,,,,,,,,,,,,,,,,,,,,,,,,,,,,,,,,,,166,001,2024_Feb_22_1600,SpeechDraft1Carolyn_lessNoise_PlusLocalization,2021.2.3,59.81271167420278,
birch.wav,birch.mpg,birch,3,A,Pink_Noise_3_1.wav,Pink_Noise_3_2.wav,,,,,,,,,,,,,,,0,20,20,28,,,,,,,,,,,,,,,,,,,,,,,572.9400237640366,None,574.4401128790341,None,575.8233968159184,None,birch,575.8233968159184,None,return,2.097982571925968,575.9067855500616,None,,,,,,,,,,,,,,,,,,,,,,,,,,,,,,,,,,,,,,,166,001,2024_Feb_22_1600,SpeechDraft1Carolyn_lessNoise_PlusLocalization,2021.2.3,59.81271167420278,
bee.wav,bee.mpg,bee,5,A,Pink_Noise_5_1.wav,Pink_Noise_5_2.wav,,,,,,,,,,,,,,,0,21,21,10,,,,,,,,,,,,,,,,,,,,,,,578.0233664382249,None,579.5230920198373,None,580.9066182211973,None,reach,580.9066182211973,None,return,1.7827997109852731,580.9900040128268,None,,,,,,,,,,,,,,,,,,,,,,,,,,,,,,,,,,,,,,,166,001,2024_Feb_22_1600,SpeechDraft1Carolyn_lessNoise_PlusLocalization,2021.2.3,59.81271167420278,
flight.wav,flight.mpg,flight,4,A,Pink_Noise_4_1.wav,Pink_Noise_4_2.wav,,,,,,,,,,,,,,,0,22,22,37,,,,,,,,,,,,,,,,,,,,,,,582.7901748102158,None,584.2898317137733,None,585.6733480868861,None,ligh,585.6733480868861,None,return,0.8640210032463074,585.7567166700028,None,,,,,,,,,,,,,,,,,,,,,,,,,,,,,,,,,,,,,,,166,001,2024_Feb_22_1600,SpeechDraft1Carolyn_lessNoise_PlusLocalization,2021.2.3,59.81271167420278,
bean.wav,bean.mpg,bean,6,AV,Pink_Noise_6_1.wav,Pink_Noise_6_2.wav,,,,,,,,,,,,,,,0,23,23,99,,,,,,,,,,,,,,,,,,,,,,,586.6400779699907,None,588.1398083781824,None,589.5232757269405,None,"me
",589.5232757269405,None,return,1.301749536767602,589.6069990131073,None,,,,,,,,,,,,,,,,,,,,,,,,,,,,,,,,,,,,,,,166,001,2024_Feb_22_1600,SpeechDraft1Carolyn_lessNoise_PlusLocalization,2021.2.3,59.81271167420278,
buzz.wav,buzz.mpg,buzz,5,A,Pink_Noise_5_1.wav,Pink_Noise_5_2.wav,,,,,,,,,,,,,,,0,24,24,52,,,,,,,,,,,,,,,,,,,,,,,590.9403663901612,None,592.4399962690659,None,593.8236111341976,None,birds,593.8236111341976,None,return,1.7140440456569195,593.9067601608112,None,,,,,,,,,,,,,,,,,,,,,,,,,,,,,,,,,,,,,,,166,001,2024_Feb_22_1600,SpeechDraft1Carolyn_lessNoise_PlusLocalization,2021.2.3,59.81271167420278,
pride.wav,pride.mpg,pride,1,A,Pink_Noise_1_1.wav,Pink_Noise_1_2.wav,,,,,,,,,,,,,,,0,25,25,6,,,,,,,,,,,,,,,,,,,,,,,595.6400636630133,None,597.1397288828157,None,598.5235353889875,None,pride,598.5235353889875,None,return,1.5417403979226947,598.6069860900752,None,,,,,,,,,,,,,,,,,,,,,,,,,,,,,,,,,,,,,,,166,001,2024_Feb_22_1600,SpeechDraft1Carolyn_lessNoise_PlusLocalization,2021.2.3,59.81271167420278,
bunch.wav,bunch.mpg,bunch,4,AV,Pink_Noise_4_1.wav,Pink_Noise_4_2.wav,,,,,,,,,,,,,,,0,26,26,97,,,,,,,,,,,,,,,,,,,,,,,600.1733370949514,None,601.6733008748852,None,603.0566609199159,None,"bunch
",603.0566609199159,None,return,3.3206002609804273,603.1401417548768,None,,,,,,,,,,,,,,,,,,,,,,,,,,,,,,,,,,,,,,,166,001,2024_Feb_22_1600,SpeechDraft1Carolyn_lessNoise_PlusLocalization,2021.2.3,59.81271167420278,
cross.wav,cross.mpg,cross,5,AV,Pink_Noise_5_1.wav,Pink_Noise_5_2.wav,,,,,,,,,,,,,,,0,27,27,106,,,,,,,,,,,,,,,,,,,,,,,606.4899725802243,None,607.9899687278084,None,609.3736935211346,None,cross,609.3736935211346,None,return,1.3878378849476576,609.4569399468601,None,,,,,,,,,,,,,,,,,,,,,,,,,,,,,,,,,,,,,,,166,001,2024_Feb_22_1600,SpeechDraft1Carolyn_lessNoise_PlusLocalization,2021.2.3,59.81271167420278,
cliff.wav,cliff.mpg,cliff,3,A,Pink_Noise_3_1.wav,Pink_Noise_3_2.wav,,,,,,,,,,,,,,,0,28,28,29,,,,,,,,,,,,,,,,,,,,,,,610.8733673701063,None,612.373100892175,None,613.7567642531358,None,"cliff
",613.7567642531358,None,return,1.2686716089956462,613.8400641907938,None,,,,,,,,,,,,,,,,,,,,,,,,,,,,,,,,,,,,,,,166,001,2024_Feb_22_1600,SpeechDraft1Carolyn_lessNoise_PlusLocalization,2021.2.3,59.81271167420278,
spire.wav,spire.mpg,spire,4,AV,Pink_Noise_4_1.wav,Pink_Noise_4_2.wav,,,,,,,,,,,,,,,0,29,29,66,,,,,,,,,,,,,,,,,,,,,,,615.1400997438468,None,616.6400372250937,None,618.0233777700923,None,spire,618.0233777700923,None,return,3.673810007981956,618.1069245999679,None,,,,,,,,,,,,,,,,,,,,,,,,,,,,,,,,,,,,,,,166,001,2024_Feb_22_1600,SpeechDraft1Carolyn_lessNoise_PlusLocalization,2021.2.3,59.81271167420278,
blood.wav,blood.mpg,blood,4,A,Pink_Noise_4_1.wav,Pink_Noise_4_2.wav,,,,,,,,,,,,,,,0,30,30,11,,,,,,,,,,,,,,,,,,,,,,,621.8069527130574,None,623.3069424591959,None,624.6901477160864,None,plug,624.6901477160864,None,return,2.19916213164106,624.7736550508998,None,,,,,,,,,,,,,,,,,,,,,,,,,,,,,,,,,,,,,,,166,001,2024_Feb_22_1600,SpeechDraft1Carolyn_lessNoise_PlusLocalization,2021.2.3,59.81271167420278,
doll.wav,doll.mpg,doll,1,AV,Pink_Noise_1_1.wav,Pink_Noise_1_2.wav,,,,,,,,,,,,,,,0,31,31,102,,,,,,,,,,,,,,,,,,,,,,,626.9901519161649,None,628.4900702307932,None,629.8732848959044,None,doll,629.8732848959044,None,return,1.5117008299566805,629.9570570369251,None,,,,,,,,,,,,,,,,,,,,,,,,,,,,,,,,,,,,,,,166,001,2024_Feb_22_1600,SpeechDraft1Carolyn_lessNoise_PlusLocalization,2021.2.3,59.81271167420278,
broke.wav,broke.mpg,broke,5,AV,Pink_Noise_5_1.wav,Pink_Noise_5_2.wav,,,,,,,,,,,,,,,0,32,32,79,,,,,,,,,,,,,,,,,,,,,,,631.4901281641796,None,632.9898767871782,None,634.3733678772114,None,boat,634.3733678772114,None,return,1.94005661085248,634.456800499931,None,,,,,,,,,,,,,,,,,,,,,,,,,,,,,,,,,,,,,,,166,001,2024_Feb_22_1600,SpeechDraft1Carolyn_lessNoise_PlusLocalization,2021.2.3,59.81271167420278,
pike.wav,pike.mpg,pike,2,A,Pink_Noise_2_1.wav,Pink_Noise_2_2.wav,,,,,,,,,,,,,,,0,33,33,18,,,,,,,,,,,,,,,,,,,,,,,636.4235934149474,None,637.9231611909345,None,639.3067979048938,None,pike,639.3067979048938,None,return,1.366596207022667,639.3902164008468,None,,,,,,,,,,,,,,,,,,,,,,,,,,,,,,,,,,,,,,,166,001,2024_Feb_22_1600,SpeechDraft1Carolyn_lessNoise_PlusLocalization,2021.2.3,59.81271167420278,
gown.wav,gown.mpg,gown,6,A,Pink_Noise_6_1.wav,Pink_Noise_6_2.wav,,,,,,,,,,,,,,,0,34,34,14,,,,,,,,,,,,,,,,,,,,,,,640.7736754659563,None,642.2732590488158,None,643.6567978011444,None,"well
",643.6567978011444,None,return,1.9205610710196197,643.7401913581416,None,,,,,,,,,,,,,,,,,,,,,,,,,,,,,,,,,,,,,,,166,001,2024_Feb_22_1600,SpeechDraft1Carolyn_lessNoise_PlusLocalization,2021.2.3,59.81271167420278,
badge.wav,badge.mpg,badge,4,AV,Pink_Noise_4_1.wav,Pink_Noise_4_2.wav,,,,,,,,,,,,,,,0,35,35,77,,,,,,,,,,,,,,,,,,,,,,,645.6901908759028,None,647.1901217708364,None,648.5733964899555,None,"badge
",648.5733964899555,None,return,1.8037121780216694,648.6570348697715,None,,,,,,,,,,,,,,,,,,,,,,,,,,,,,,,,,,,,,,,166,001,2024_Feb_22_1600,SpeechDraft1Carolyn_lessNoise_PlusLocalization,2021.2.3,59.81271167420278,
dumb.wav,dumb.mpg,dumb,3,A,Pink_Noise_3_1.wav,Pink_Noise_3_2.wav,,,,,,,,,,,,,,,0,36,36,17,,,,,,,,,,,,,,,,,,,,,,,650.4901058617979,None,651.9898766661063,None,653.3735453630798,None,dumb,653.3735453630798,None,return,4.507960520219058,653.4568488481455,None,,,,,,,,,,,,,,,,,,,,,,,,,,,,,,,,,,,,,,,166,001,2024_Feb_22_1600,SpeechDraft1Carolyn_lessNoise_PlusLocalization,2021.2.3,59.81271167420278,
curve.wav,curve.mpg,curve,5,A,Pink_Noise_5_1.wav,Pink_Noise_5_2.wav,,,,,,,,,,,,,,,0,37,37,31,,,,,,,,,,,,,,,,,,,,,,,657.9902219218202,None,659.490034752991,None,660.8735149479471,None,coat,660.8735149479471,None,return,3.159877137746662,660.9568579699844,None,,,,,,,,,,,,,,,,,,,,,,,,,,,,,,,,,,,,,,,166,001,2024_Feb_22_1600,SpeechDraft1Carolyn_lessNoise_PlusLocalization,2021.2.3,59.81271167420278,
greed.wav,greed.mpg,greed,4,AV,Pink_Noise_4_1.wav,Pink_Noise_4_2.wav,,,,,,,,,,,,,,,0,38,38,108,,,,,,,,,,,,,,,,,,,,,,,664.1401582639664,None,665.6398669402115,None,667.0242522018962,None,"greed
",667.0242522018962,None,return,1.353708610869944,667.107027662918,None,,,,,,,,,,,,,,,,,,,,,,,,,,,,,,,,,,,,,,,166,001,2024_Feb_22_1600,SpeechDraft1Carolyn_lessNoise_PlusLocalization,2021.2.3,59.81271167420278,
germ.wav,germ.mpg,germ,4,A,Pink_Noise_4_1.wav,Pink_Noise_4_2.wav,,,,,,,,,,,,,,,0,39,39,58,,,,,,,,,,,,,,,,,,,,,,,668.4901545559987,None,669.9899037550204,None,671.3735787118785,None,"germ
",671.3735787118785,None,return,3.21968906885013,671.4570577992126,None,,,,,,,,,,,,,,,,,,,,,,,,,,,,,,,,,,,,,,,166,001,2024_Feb_22_1600,SpeechDraft1Carolyn_lessNoise_PlusLocalization,2021.2.3,59.81271167420278,
funk.wav,funk.mpg,funk,1,AV,Pink_Noise_1_1.wav,Pink_Noise_1_2.wav,,,,,,,,,,,,,,,0,40,40,69,,,,,,,,,,,,,,,,,,,,,,,674.7069998201914,None,676.2065032902174,None,677.5901459790766,None,funk,677.5901459790766,None,return,1.3791695241816342,677.6735673458315,None,,,,,,,,,,,,,,,,,,,,,,,,,,,,,,,,,,,,,,,166,001,2024_Feb_22_1600,SpeechDraft1Carolyn_lessNoise_PlusLocalization,2021.2.3,59.81271167420278,
quest.wav,quest.mpg,quest,6,A,Pink_Noise_6_1.wav,Pink_Noise_6_2.wav,,,,,,,,,,,,,,,0,41,41,24,,,,,,,,,,,,,,,,,,,,,,,679.0738177741878,None,680.5732196308672,None,681.9568679109216,None,roach,681.9568679109216,None,return,4.7245836346410215,682.0401723268442,None,,,,,,,,,,,,,,,,,,,,,,,,,,,,,,,,,,,,,,,166,001,2024_Feb_22_1600,SpeechDraft1Carolyn_lessNoise_PlusLocalization,2021.2.3,59.81271167420278,
born.wav,born.mpg,born,2,AV,Pink_Noise_2_1.wav,Pink_Noise_2_2.wav,,,,,,,,,,,,,,,0,42,42,84,,,,,,,,,,,,,,,,,,,,,,,686.7902532769367,None,688.2899470790289,None,689.6734819500707,None,bore,689.6734819500707,None,return,2.1277993828989565,689.7569728968665,None,,,,,,,,,,,,,,,,,,,,,,,,,,,,,,,,,,,,,,,166,001,2024_Feb_22_1600,SpeechDraft1Carolyn_lessNoise_PlusLocalization,2021.2.3,59.81271167420278,
dead.wav,dead.mpg,dead,4,AV,Pink_Noise_4_1.wav,Pink_Noise_4_2.wav,,,,,,,,,,,,,,,0,43,43,71,,,,,,,,,,,,,,,,,,,,,,,691.9069283171557,None,693.4065994150005,None,694.7901930781081,None,dead,694.7901930781081,None,return,1.2751653110608459,694.8735701320693,None,,,,,,,,,,,,,,,,,,,,,,,,,,,,,,,,,,,,,,,166,001,2024_Feb_22_1600,SpeechDraft1Carolyn_lessNoise_PlusLocalization,2021.2.3,59.81271167420278,
stove.wav,stove.mpg,stove,6,A,Pink_Noise_6_1.wav,Pink_Noise_6_2.wav,,,,,,,,,,,,,,,0,44,44,47,,,,,,,,,,,,,,,,,,,,,,,696.1737745362334,None,697.6733368309215,None,699.0568440700881,None,tree,699.0568440700881,None,return,2.008541010785848,699.1402453081682,None,,,,,,,,,,,,,,,,,,,,,,,,,,,,,,,,,,,,,,,166,001,2024_Feb_22_1600,SpeechDraft1Carolyn_lessNoise_PlusLocalization,2021.2.3,59.81271167420278,
dent.wav,dent.mpg,dent,5,AV,Pink_Noise_5_1.wav,Pink_Noise_5_2.wav,,,,,,,,,,,,,,,0,45,45,92,,,,,,,,,,,,,,,,,,,,,,,701.173607698176,None,702.6737656458281,None,704.0572106689215,None,dent,704.0572106689215,None,return,1.1283426764421165,704.1404092460871,None,,,,,,,,,,,,,,,,,,,,,,,,,,,,,,,,,,,,,,,166,001,2024_Feb_22_1600,SpeechDraft1Carolyn_lessNoise_PlusLocalization,2021.2.3,59.81271167420278,
chin.wav,chin.mpg,chin,4,AV,Pink_Noise_4_1.wav,Pink_Noise_4_2.wav,,,,,,,,,,,,,,,0,46,46,93,,,,,,,,,,,,,,,,,,,,,,,705.2903246018104,None,706.7899679858238,None,708.1736718360335,None,"chin
",708.1736718360335,None,return,1.0518009811639786,708.2569516641088,None,,,,,,,,,,,,,,,,,,,,,,,,,,,,,,,,,,,,,,,166,001,2024_Feb_22_1600,SpeechDraft1Carolyn_lessNoise_PlusLocalization,2021.2.3,59.81271167420278,
pipe.wav,pipe.mpg,pipe,5,AV,Pink_Noise_5_1.wav,Pink_Noise_5_2.wav,,,,,,,,,,,,,,,0,47,47,67,,,,,,,,,,,,,,,,,,,,,,,709.3404525527731,None,710.8413995238952,None,712.2234971201979,None,pick,712.2234971201979,None,return,12.209717449266464,712.3070092080161,None,,,,,,,,,,,,,,,,,,,,,,,,,,,,,,,,,,,,,,,166,001,2024_Feb_22_1600,SpeechDraft1Carolyn_lessNoise_PlusLocalization,2021.2.3,59.81271167420278,
croak.wav,croak.mpg,croak,6,AV,Pink_Noise_6_1.wav,Pink_Noise_6_2.wav,,,,,,,,,,,,,,,0,48,48,61,,,,,,,,,,,,,,,,,,,,,,,724.5406055329368,None,726.0399123099633,None,727.4235172900371,None,croak,727.4235172900371,None,return,9.649482083041221,727.507334234193,None,,,,,,,,,,,,,,,,,,,,,,,,,,,,,,,,,,,,,,,166,001,2024_Feb_22_1600,SpeechDraft1Carolyn_lessNoise_PlusLocalization,2021.2.3,59.81271167420278,
creek.wav,creek.mpg,creek,3,AV,Pink_Noise_3_1.wav,Pink_Noise_3_2.wav,,,,,,,,,,,,,,,0,49,49,81,,,,,,,,,,,,,,,,,,,,,,,737.1737790210173,None,738.6741496999748,None,740.056879397016,None,creek,740.056879397016,None,return,1.664456530008465,740.1402911702171,None,,,,,,,,,,,,,,,,,,,,,,,,,,,,,,,,,,,,,,,166,001,2024_Feb_22_1600,SpeechDraft1Carolyn_lessNoise_PlusLocalization,2021.2.3,59.81271167420278,
eye.wav,eye.mpg,eye,4,A,Pink_Noise_4_1.wav,Pink_Noise_4_2.wav,,,,,,,,,,,,,,,0,50,50,59,,,,,,,,,,,,,,,,,,,,,,,741.823638881091,None,743.3235939918086,None,744.7072490109131,None,"eye
",744.7072490109131,None,return,1.2862388440407813,744.7905094660819,None,,,,,,,,,,,,,,,,,,,,,,,,,,,,,,,,,,,,,,,166,001,2024_Feb_22_1600,SpeechDraft1Carolyn_lessNoise_PlusLocalization,2021.2.3,59.81271167420278,
bag.wav,bag.mpg,bag,5,A,Pink_Noise_5_1.wav,Pink_Noise_5_2.wav,,,,,,,,,,,,,,,0,51,51,9,,,,,,,,,,,,,,,,,,,,,,,746.1069547659718,None,747.6068813251331,None,748.9902637251653,None,wide,748.9902637251653,None,return,2.778960014693439,749.0738010657951,None,,,,,,,,,,,,,,,,,,,,,,,,,,,,,,,,,,,,,,,166,001,2024_Feb_22_1600,SpeechDraft1Carolyn_lessNoise_PlusLocalization,2021.2.3,59.81271167420278,
fast.wav,fast.mpg,fast,3,A,Pink_Noise_3_1.wav,Pink_Noise_3_2.wav,,,,,,,,,,,,,,,0,52,52,16,,,,,,,,,,,,,,,,,,,,,,,751.8736710860394,None,753.3899569232017,None,754.7736295671202,None,"fast
",754.7736295671202,None,return,1.067792551126331,754.8569575818256,None,,,,,,,,,,,,,,,,,,,,,,,,,,,,,,,,,,,,,,,166,001,2024_Feb_22_1600,SpeechDraft1Carolyn_lessNoise_PlusLocalization,2021.2.3,59.81271167420278,
flush.wav,flush.mpg,flush,3,A,Pink_Noise_3_1.wav,Pink_Noise_3_2.wav,,,,,,,,,,,,,,,0,53,53,7,,,,,,,,,,,,,,,,,,,,,,,755.957024963107,None,757.4574909810908,None,758.8405396388844,None,flush,758.8405396388844,None,return,1.7211203877814114,758.9235989218578,None,,,,,,,,,,,,,,,,,,,,,,,,,,,,,,,,,,,,,,,166,001,2024_Feb_22_1600,SpeechDraft1Carolyn_lessNoise_PlusLocalization,2021.2.3,59.81271167420278,
fleet.wav,fleet.mpg,fleet,2,AV,Pink_Noise_2_1.wav,Pink_Noise_2_2.wav,,,,,,,,,,,,,,,0,54,54,85,,,,,,,,,,,,,,,,,,,,,,,760.6738810110837,None,762.173611335922,None,763.5569893307984,None,fleet,763.5569893307984,None,return,1.308420142158866,763.6403203140944,None,,,,,,,,,,,,,,,,,,,,,,,,,,,,,,,,,,,,,,,166,001,2024_Feb_22_1600,SpeechDraft1Carolyn_lessNoise_PlusLocalization,2021.2.3,59.81271167420278,
beard.wav,beard.mpg,beard,6,AV,Pink_Noise_6_1.wav,Pink_Noise_6_2.wav,,,,,,,,,,,,,,,0,55,55,111,,,,,,,,,,,,,,,,,,,,,,,764.9735955400392,None,766.4734940938652,None,767.8571601221338,None,"mirror
",767.8571601221338,None,return,2.9523835629224777,767.9403371769004,None,,,,,,,,,,,,,,,,,,,,,,,,,,,,,,,,,,,,,,,166,001,2024_Feb_22_1600,SpeechDraft1Carolyn_lessNoise_PlusLocalization,2021.2.3,59.81271167420278,
read.wav,read.mpg,read,1,A,Pink_Noise_1_1.wav,Pink_Noise_1_2.wav,,,,,,,,,,,,,,,0,56,56,35,,,,,,,,,,,,,,,,,,,,,,,770.9239502907731,None,772.4237514571287,None,773.8071244321764,None,read,773.8071244321764,None,return,1.1302570919506252,773.8905475679785,None,,,,,,,,,,,,,,,,,,,,,,,,,,,,,,,,,,,,,,,166,001,2024_Feb_22_1600,SpeechDraft1Carolyn_lessNoise_PlusLocalization,2021.2.3,59.81271167420278,
gun.wav,gun.mpg,gun,2,AV,Pink_Noise_2_1.wav,Pink_Noise_2_2.wav,,,,,,,,,,,,,,,0,57,57,118,,,,,,,,,,,,,,,,,,,,,,,775.0402451618575,None,776.5401939298026,None,777.9238591701724,None,gun,777.9238591701724,None,return,0.9094813209958375,778.0072528300807,None,,,,,,,,,,,,,,,,,,,,,,,,,,,,,,,,,,,,,,,166,001,2024_Feb_22_1600,SpeechDraft1Carolyn_lessNoise_PlusLocalization,2021.2.3,59.81271167420278,
fall.wav,fall.mpg,fall,6,AV,Pink_Noise_6_1.wav,Pink_Noise_6_2.wav,,,,,,,,,,,,,,,0,58,58,80,,,,,,,,,,,,,,,,,,,,,,,778.9567213468254,None,780.4567182171158,None,781.8402586649172,None,fall,781.8402586649172,None,return,1.0651347329840064,781.9236860140227,None,,,,,,,,,,,,,,,,,,,,,,,,,,,,,,,,,,,,,,,166,001,2024_Feb_22_1600,SpeechDraft1Carolyn_lessNoise_PlusLocalization,2021.2.3,59.81271167420278,
boot.wav,boot.mpg,boot,2,A,Pink_Noise_2_1.wav,Pink_Noise_2_2.wav,,,,,,,,,,,,,,,0,59,59,38,,,,,,,,,,,,,,,,,,,,,,,783.0072269272059,None,784.5066051208414,None,785.8905460499227,None,boot,785.8905460499227,None,return,1.0310002551414073,785.9737470699474,None,,,,,,,,,,,,,,,,,,,,,,,,,,,,,,,,,,,,,,,166,001,2024_Feb_22_1600,SpeechDraft1Carolyn_lessNoise_PlusLocalization,2021.2.3,59.81271167420278,
brain.wav,brain.mpg,brain,2,AV,Pink_Noise_2_1.wav,Pink_Noise_2_2.wav,,,,,,,,,,,,,,,0,60,60,72,,,,,,,,,,,,,,,,,,,,,,,787.0239460328594,None,788.5234645348974,None,789.9070985168219,None,brain,789.9070985168219,None,return,1.1583196697756648,789.9904025332071,None,,,,,,,,,,,,,,,,,,,,,,,,,,,,,,,,,,,,,,,166,001,2024_Feb_22_1600,SpeechDraft1Carolyn_lessNoise_PlusLocalization,2021.2.3,59.81271167420278,
mars.wav,mars.mpg,mars,6,AV,Pink_Noise_6_1.wav,Pink_Noise_6_2.wav,,,,,,,,,,,,,,,0,61,61,86,,,,,,,,,,,,,,,,,,,,,,,791.1738526099361,None,792.6733645768836,None,794.0574503140524,None,bus,794.0574503140524,None,return,12.248491011094302,794.1403118018061,None,,,,,,,,,,,,,,,,,,,,,,,,,,,,,,,,,,,,,,,166,001,2024_Feb_22_1600,SpeechDraft1Carolyn_lessNoise_PlusLocalization,2021.2.3,59.81271167420278,
dual.wav,dual.mpg,dual,5,AV,Pink_Noise_5_1.wav,Pink_Noise_5_2.wav,,,,,,,,,,,,,,,0,62,62,116,,,,,,,,,,,,,,,,,,,,,,,806.4072321271524,None,807.9069870640524,None,809.2903221980669,None,"toy
",809.2903221980669,None,return,2.3348268470726907,809.3738224832341,None,,,,,,,,,,,,,,,,,,,,,,,,,,,,,,,,,,,,,,,166,001,2024_Feb_22_1600,SpeechDraft1Carolyn_lessNoise_PlusLocalization,2021.2.3,59.81271167420278,
brown.wav,brown.mpg,brown,3,AV,Pink_Noise_3_1.wav,Pink_Noise_3_2.wav,,,,,,,,,,,,,,,0,63,63,119,,,,,,,,,,,,,,,,,,,,,,,811.740572291892,None,813.2400871869177,None,814.6236267290078,None,round,814.6236267290078,None,return,2.9056206634268165,814.7072417070158,None,,,,,,,,,,,,,,,,,,,,,,,,,,,,,,,,,,,,,,,166,001,2024_Feb_22_1600,SpeechDraft1Carolyn_lessNoise_PlusLocalization,2021.2.3,59.81271167420278,
bread.wav,bread.mpg,bread,2,AV,Pink_Noise_2_1.wav,Pink_Noise_2_2.wav,,,,,,,,,,,,,,,0,64,64,112,,,,,,,,,,,,,,,,,,,,,,,817.6404141411185,None,819.1402982459404,None,820.523538922891,None,"bread
",820.523538922891,None,return,2.317435448989272,820.6073111980222,None,,,,,,,,,,,,,,,,,,,,,,,,,,,,,,,,,,,,,,,166,001,2024_Feb_22_1600,SpeechDraft1Carolyn_lessNoise_PlusLocalization,2021.2.3,59.81271167420278,
coach.wav,coach.mpg,coach,4,AV,Pink_Noise_4_1.wav,Pink_Noise_4_2.wav,,,,,,,,,,,,,,,0,65,65,83,,,,,,,,,,,,,,,,,,,,,,,822.9572298629209,None,824.4570454978384,None,825.8405358428136,None,"coach
",825.8405358428136,None,return,2.368963510263711,825.9237900590524,None,,,,,,,,,,,,,,,,,,,,,,,,,,,,,,,,,,,,,,,166,001,2024_Feb_22_1600,SpeechDraft1Carolyn_lessNoise_PlusLocalization,2021.2.3,59.81271167420278,
earn.wav,earn.mpg,earn,6,A,Pink_Noise_6_1.wav,Pink_Noise_6_2.wav,,,,,,,,,,,,,,,0,66,66,51,,,,,,,,,,,,,,,,,,,,,,,828.3238523742184,None,829.8250050819479,None,831.2073124758899,None,egg,831.2073124758899,None,return,1.330391722265631,831.2904569781385,None,,,,,,,,,,,,,,,,,,,,,,,,,,,,,,,,,,,,,,,166,001,2024_Feb_22_1600,SpeechDraft1Carolyn_lessNoise_PlusLocalization,2021.2.3,59.81271167420278,
file.wav,file.mpg,file,3,A,Pink_Noise_3_1.wav,Pink_Noise_3_2.wav,,,,,,,,,,,,,,,0,67,67,13,,,,,,,,,,,,,,,,,,,,,,,832.6407084572129,None,834.1410429379903,None,835.5238267378882,None,fire,835.5238267378882,None,return,0.8934723339043558,835.6072623440996,None,,,,,,,,,,,,,,,,,,,,,,,,,,,,,,,,,,,,,,,166,001,2024_Feb_22_1600,SpeechDraft1Carolyn_lessNoise_PlusLocalization,2021.2.3,59.81271167420278,
two.wav,two.mpg,two,3,AV,Pink_Noise_3_1.wav,Pink_Noise_3_2.wav,,,,,,,,,,,,,,,0,68,68,88,,,,,,,,,,,,,,,,,,,,,,,836.5237330948003,None,838.0250785830431,None,839.4070017901249,None,two,839.4070017901249,None,return,0.9224054156802595,839.490476096049,None,,,,,,,,,,,,,,,,,,,,,,,,,,,,,,,,,,,,,,,166,001,2024_Feb_22_1600,SpeechDraft1Carolyn_lessNoise_PlusLocalization,2021.2.3,59.81271167420278,
druid.wav,druid.mpg,druid,5,A,Pink_Noise_5_1.wav,Pink_Noise_5_2.wav,,,,,,,,,,,,,,,0,69,69,34,,,,,,,,,,,,,,,,,,,,,,,840.440828090068,None,841.9403087808751,None,843.3237840300426,None,"joy
",843.3237840300426,None,return,1.5335021037608385,843.4072456299327,None,,,,,,,,,,,,,,,,,,,,,,,,,,,,,,,,,,,,,,,166,001,2024_Feb_22_1600,SpeechDraft1Carolyn_lessNoise_PlusLocalization,2021.2.3,59.81271167420278,
rid.wav,rid.mpg,rid,1,AV,Pink_Noise_1_1.wav,Pink_Noise_1_2.wav,,,,,,,,,,,,,,,0,70,70,74,,,,,,,,,,,,,,,,,,,,,,,844.9737210939638,None,846.4902304061688,None,847.8737589628436,None,"red
",847.8737589628436,None,return,1.7353483559563756,847.9574002800509,None,,,,,,,,,,,,,,,,,,,,,,,,,,,,,,,,,,,,,,,166,001,2024_Feb_22_1600,SpeechDraft1Carolyn_lessNoise_PlusLocalization,2021.2.3,59.81271167420278,
cork.wav,cork.mpg,cork,1,A,Pink_Noise_1_1.wav,Pink_Noise_1_2.wav,,,,,,,,,,,,,,,0,71,71,49,,,,,,,,,,,,,,,,,,,,,,,849.7237692498602,None,851.2233900940046,None,852.6071662898175,None,cork,852.6071662898175,None,return,0.8821342466399074,852.6906611388549,None,,,,,,,,,,,,,,,,,,,,,,,,,,,,,,,,,,,,,,,166,001,2024_Feb_22_1600,SpeechDraft1Carolyn_lessNoise_PlusLocalization,2021.2.3,59.81271167420278,
please.wav,please.mpg,please,3,AV,Pink_Noise_3_1.wav,Pink_Noise_3_2.wav,,,,,,,,,,,,,,,0,72,72,109,,,,,,,,,,,,,,,,,,,,,,,853.590678748209,None,855.0902702631429,None,856.4737793379463,None,bees,856.4737793379463,None,return,9.671595017891377,856.5572356181219,None,,,,,,,,,,,,,,,,,,,,,,,,,,,,,,,,,,,,,,,166,001,2024_Feb_22_1600,SpeechDraft1Carolyn_lessNoise_PlusLocalization,2021.2.3,59.81271167420278,
tool.wav,tool.mpg,tool,1,A,Pink_Noise_1_1.wav,Pink_Noise_1_2.wav,,,,,,,,,,,,,,,0,73,73,27,,,,,,,,,,,,,,,,,,,,,,,866.2571859308518,None,867.7735437648371,None,869.1574334697798,None,toy,869.1574334697798,None,return,2.6441793381236494,869.2405542042106,None,,,,,,,,,,,,,,,,,,,,,,,,,,,,,,,,,,,,,,,166,001,2024_Feb_22_1600,SpeechDraft1Carolyn_lessNoise_PlusLocalization,2021.2.3,59.81271167420278,
fraud.wav,fraud.mpg,fraud,4,A,Pink_Noise_4_1.wav,Pink_Noise_4_2.wav,,,,,,,,,,,,,,,0,74,74,44,,,,,,,,,,,,,,,,,,,,,,,871.9071703478694,None,873.4235051930882,None,874.8073940319009,None,"bug
",874.8073940319009,None,return,1.3862262819893658,874.8904853542335,None,,,,,,,,,,,,,,,,,,,,,,,,,,,,,,,,,,,,,,,166,001,2024_Feb_22_1600,SpeechDraft1Carolyn_lessNoise_PlusLocalization,2021.2.3,59.81271167420278,
fail.wav,fail.mpg,fail,6,AV,Pink_Noise_6_1.wav,Pink_Noise_6_2.wav,,,,,,,,,,,,,,,0,75,75,73,,,,,,,,,,,,,,,,,,,,,,,876.3073694859631,None,877.8084739288315,None,879.1903835060075,None,fell,879.1903835060075,None,return,2.938981661107391,879.2738179578446,None,,,,,,,,,,,,,,,,,,,,,,,,,,,,,,,,,,,,,,,166,001,2024_Feb_22_1600,SpeechDraft1Carolyn_lessNoise_PlusLocalization,2021.2.3,59.81271167420278,
bed.wav,bed.mpg,bed,1,A,Pink_Noise_1_1.wav,Pink_Noise_1_2.wav,,,,,,,,,,,,,,,0,76,76,26,,,,,,,,,,,,,,,,,,,,,,,882.2404344161041,None,883.7569811698049,None,885.1407274170779,None,fed,885.1407274170779,None,return,0.7649441240355372,885.2238024012186,None,,,,,,,,,,,,,,,,,,,,,,,,,,,,,,,,,,,,,,,166,001,2024_Feb_22_1600,SpeechDraft1Carolyn_lessNoise_PlusLocalization,2021.2.3,59.81271167420278,
blot.wav,blot.mpg,blot,6,AV,Pink_Noise_6_1.wav,Pink_Noise_6_2.wav,,,,,,,,,,,,,,,0,77,77,110,,,,,,,,,,,,,,,,,,,,,,,886.0074792541564,None,887.5068859420717,None,888.890485167969,None,blocked,888.890485167969,None,return,3.4467416163533926,888.9740743432194,None,,,,,,,,,,,,,,,,,,,,,,,,,,,,,,,,,,,,,,,166,001,2024_Feb_22_1600,SpeechDraft1Carolyn_lessNoise_PlusLocalization,2021.2.3,59.81271167420278,
route.wav,route.mpg,route,6,A,Pink_Noise_6_1.wav,Pink_Noise_6_2.wav,,,,,,,,,,,,,,,0,78,78,15,,,,,,,,,,,,,,,,,,,,,,,892.4405818572268,None,893.9569004629739,None,895.3405944481492,None,peach,895.3405944481492,None,return,1.3567012590356171,895.42415187601,None,,,,,,,,,,,,,,,,,,,,,,,,,,,,,,,,,,,,,,,166,001,2024_Feb_22_1600,SpeechDraft1Carolyn_lessNoise_PlusLocalization,2021.2.3,59.81271167420278,
choke.wav,choke.mpg,choke,2,AV,Pink_Noise_2_1.wav,Pink_Noise_2_2.wav,,,,,,,,,,,,,,,0,79,79,89,,,,,,,,,,,,,,,,,,,,,,,896.8074771179818,None,898.3406248157844,None,899.7236916939728,None,"choke
",899.7236916939728,None,return,1.5015456448309124,899.8072016402148,None,,,,,,,,,,,,,,,,,,,,,,,,,,,,,,,,,,,,,,,166,001,2024_Feb_22_1600,SpeechDraft1Carolyn_lessNoise_PlusLocalization,2021.2.3,59.81271167420278,
crank.wav,crank.mpg,crank,2,A,Pink_Noise_2_1.wav,Pink_Noise_2_2.wav,,,,,,,,,,,,,,,0,80,80,39,,,,,,,,,,,,,,,,,,,,,,,901.3405991839245,None,902.8572139590979,None,904.2241086731665,None,crank,904.2241086731665,None,return,2.4894883688539267,904.3073830092326,None,,,,,,,,,,,,,,,,,,,,,,,,,,,,,,,,,,,,,,,166,001,2024_Feb_22_1600,SpeechDraft1Carolyn_lessNoise_PlusLocalization,2021.2.3,59.81271167420278,
clock.wav,clock.mpg,clock,1,A,Pink_Noise_1_1.wav,Pink_Noise_1_2.wav,,,,,,,,,,,,,,,0,81,81,3,,,,,,,,,,,,,,,,,,,,,,,906.8240401372313,None,908.3404023381881,None,909.7239303910173,None,clock,909.7239303910173,None,return,0.9813825939781964,909.8073612079024,None,,,,,,,,,,,,,,,,,,,,,,,,,,,,,,,,,,,,,,,166,001,2024_Feb_22_1600,SpeechDraft1Carolyn_lessNoise_PlusLocalization,2021.2.3,59.81271167420278,
bill.wav,bill.mpg,bill,5,A,Pink_Noise_5_1.wav,Pink_Noise_5_2.wav,,,,,,,,,,,,,,,0,82,82,54,,,,,,,,,,,,,,,,,,,,,,,910.8074084599502,None,912.3069294211455,None,913.6905839550309,None,"day
",913.6905839550309,None,return,3.334684611298144,913.7740688510239,None,,,,,,,,,,,,,,,,,,,,,,,,,,,,,,,,,,,,,,,166,001,2024_Feb_22_1600,SpeechDraft1Carolyn_lessNoise_PlusLocalization,2021.2.3,59.81271167420278,
fold.wav,fold.mpg,fold,6,A,Pink_Noise_6_1.wav,Pink_Noise_6_2.wav,,,,,,,,,,,,,,,0,83,83,40,,,,,,,,,,,,,,,,,,,,,,,917.1405717208982,None,918.6403743308038,None,920.0239166878164,None,lock,920.0239166878164,None,return,2.961544170975685,920.1072702119127,None,,,,,,,,,,,,,,,,,,,,,,,,,,,,,,,,,,,,,,,166,001,2024_Feb_22_1600,SpeechDraft1Carolyn_lessNoise_PlusLocalization,2021.2.3,59.81271167420278,
shock.wav,shock.mpg,shock,6,AV,Pink_Noise_6_1.wav,Pink_Noise_6_2.wav,,,,,,,,,,,,,,,0,84,84,117,,,,,,,,,,,,,,,,,,,,,,,923.0906426580623,None,924.5902851568535,None,925.9737904700451,None,chalk,925.9737904700451,None,return,2.9553094329312444,926.0575143201277,None,,,,,,,,,,,,,,,,,,,,,,,,,,,,,,,,,,,,,,,166,001,2024_Feb_22_1600,SpeechDraft1Carolyn_lessNoise_PlusLocalization,2021.2.3,59.81271167420278,
floor.wav,floor.mpg,floor,3,AV,Pink_Noise_3_1.wav,Pink_Noise_3_2.wav,,,,,,,,,,,,,,,0,85,85,101,,,,,,,,,,,,,,,,,,,,,,,929.040536976885,None,930.5572611861862,None,931.9406302128918,None,floor,931.9406302128918,None,return,1.4048013151623309,932.0239220089279,None,,,,,,,,,,,,,,,,,,,,,,,,,,,,,,,,,,,,,,,166,001,2024_Feb_22_1600,SpeechDraft1Carolyn_lessNoise_PlusLocalization,2021.2.3,59.81271167420278,
flock.wav,flock.mpg,flock,2,AV,Pink_Noise_2_1.wav,Pink_Noise_2_2.wav,,,,,,,,,,,,,,,0,86,86,63,,,,,,,,,,,,,,,,,,,,,,,933.4572811871767,None,934.973953187,None,936.3571849889122,None,flock,936.3571849889122,None,return,3.8600562657229602,936.440677027218,None,,,,,,,,,,,,,,,,,,,,,,,,,,,,,,,,,,,,,,,166,001,2024_Feb_22_1600,SpeechDraft1Carolyn_lessNoise_PlusLocalization,2021.2.3,59.81271167420278,
cap.wav,cap.mpg,cap,6,A,Pink_Noise_6_1.wav,Pink_Noise_6_2.wav,,,,,,,,,,,,,,,0,87,87,56,,,,,,,,,,,,,,,,,,,,,,,940.3241102220491,None,941.8239138009958,None,943.2072576908395,None,tack,943.2072576908395,None,return,10.906139752827585,943.2906748452224,None,,,,,,,,,,,,,,,,,,,,,,,,,,,,,,,,,,,,,,,166,001,2024_Feb_22_1600,SpeechDraft1Carolyn_lessNoise_PlusLocalization,2021.2.3,59.81271167420278,
cease.wav,cease.mpg,cease,6,A,Pink_Noise_6_1.wav,Pink_Noise_6_2.wav,,,,,,,,,,,,,,,0,88,88,22,,,,,,,,,,,,,,,,,,,,,,,954.2241793437861,None,955.7404033611529,None,957.1243193489499,None,"this
",957.1243193489499,None,return,4.28536394611001,957.2073747580871,None,,,,,,,,,,,,,,,,,,,,,,,,,,,,,,,,,,,,,,,166,001,2024_Feb_22_1600,SpeechDraft1Carolyn_lessNoise_PlusLocalization,2021.2.3,59.81271167420278,
brag.wav,brag.mpg,brag,1,AV,Pink_Noise_1_1.wav,Pink_Noise_1_2.wav,,,,,,,,,,,,,,,0,89,89,94,,,,,,,,,,,,,,,,,,,,,,,961.5239716479555,None,963.0402519442141,None,964.4240708658472,None,brag,964.4240708658472,None,return,1.4972656299360096,964.507495640777,None,,,,,,,,,,,,,,,,,,,,,,,,,,,,,,,,,,,,,,,166,001,2024_Feb_22_1600,SpeechDraft1Carolyn_lessNoise_PlusLocalization,2021.2.3,59.81271167420278,
wheat.wav,wheat.mpg,wheat,3,A,Pink_Noise_3_1.wav,Pink_Noise_3_2.wav,,,,,,,,,,,,,,,0,90,90,53,,,,,,,,,,,,,,,,,,,,,,,966.0243469839916,None,967.5243997620419,None,968.9072635741904,None,wheat,968.9072635741904,None,return,9.262044630944729,968.9907049220055,None,,,,,,,,,,,,,,,,,,,,,,,,,,,,,,,,,,,,,,,166,001,2024_Feb_22_1600,SpeechDraft1Carolyn_lessNoise_PlusLocalization,2021.2.3,59.81271167420278,
craft.wav,craft.mpg,craft,3,A,Pink_Noise_3_1.wav,Pink_Noise_3_2.wav,,,,,,,,,,,,,,,0,91,91,21,,,,,,,,,,,,,,,,,,,,,,,978.274157398846,None,979.7750376150943,None,981.1576247881167,None,craft,981.1576247881167,None,return,1.4758687322027981,981.2409078911878,None,,,,,,,,,,,,,,,,,,,,,,,,,,,,,,,,,,,,,,,166,001,2024_Feb_22_1600,SpeechDraft1Carolyn_lessNoise_PlusLocalization,2021.2.3,59.81271167420278,
flash.wav,flash.mpg,flash,4,A,Pink_Noise_4_1.wav,Pink_Noise_4_2.wav,,,,,,,,,,,,,,,0,92,92,48,,,,,,,,,,,,,,,,,,,,,,,982.7406501900405,None,984.2570751579478,None,985.6408847579733,None,"dash
",985.6408847579733,None,return,1.4004724528640509,985.7242633351125,None,,,,,,,,,,,,,,,,,,,,,,,,,,,,,,,,,,,,,,,166,001,2024_Feb_22_1600,SpeechDraft1Carolyn_lessNoise_PlusLocalization,2021.2.3,59.81271167420278,
choir.wav,choir.mpg,choir,2,A,Pink_Noise_2_1.wav,Pink_Noise_2_2.wav,,,,,,,,,,,,,,,0,93,93,57,,,,,,,,,,,,,,,,,,,,,,,987.157423153054,None,988.6737497132272,None,990.0573372161016,None,"quail
",990.0573372161016,None,return,2.135855526663363,990.1408907119185,None,,,,,,,,,,,,,,,,,,,,,,,,,,,,,,,,,,,,,,,166,001,2024_Feb_22_1600,SpeechDraft1Carolyn_lessNoise_PlusLocalization,2021.2.3,59.81271167420278,
cup.wav,cup.mpg,cup,5,A,Pink_Noise_5_1.wav,Pink_Noise_5_2.wav,,,,,,,,,,,,,,,0,94,94,4,,,,,,,,,,,,,,,,,,,,,,,992.3074834579602,None,993.8074650061317,None,995.1907736258581,None,touch,995.1907736258581,None,return,3.1946975491009653,995.2740554199554,None,,,,,,,,,,,,,,,,,,,,,,,,,,,,,,,,,,,,,,,166,001,2024_Feb_22_1600,SpeechDraft1Carolyn_lessNoise_PlusLocalization,2021.2.3,59.81271167420278,
broad.wav,broad.mpg,broad,1,A,Pink_Noise_1_1.wav,Pink_Noise_1_2.wav,,,,,,,,,,,,,,,0,95,95,0,,,,,,,,,,,,,,,,,,,,,,,998.4910582629964,None,1000.0071735759266,None,1001.3908079639077,None,broad,1001.3908079639077,None,return,1.2907321150414646,1001.474027692806,None,,,,,,,,,,,,,,,,,,,,,,,,,,,,,,,,,,,,,,,166,001,2024_Feb_22_1600,SpeechDraft1Carolyn_lessNoise_PlusLocalization,2021.2.3,59.81271167420278,
duke.wav,duke.mpg,duke,3,A,Pink_Noise_3_1.wav,Pink_Noise_3_2.wav,,,,,,,,,,,,,,,0,96,96,25,,,,,,,,,,,,,,,,,,,,,,,1002.79075423209,None,1004.2904811128974,None,1005.6742667509243,None,duce,1005.6742667509243,None,return,12.655174823943526,1005.7576387291774,None,,,,,,,,,,,,,,,,,,,,,,,,,,,,,,,,,,,,,,,166,001,2024_Feb_22_1600,SpeechDraft1Carolyn_lessNoise_PlusLocalization,2021.2.3,59.81271167420278,
cash.wav,cash.mpg,cash,1,AV,Pink_Noise_1_1.wav,Pink_Noise_1_2.wav,,,,,,,,,,,,,,,0,97,97,64,,,,,,,,,,,,,,,,,,,,,,,1018.4410171369091,None,1019.9575367700309,None,1021.3407250428572,None,cash,1021.3407250428572,None,return,1.2125127171166241,1021.424213277176,None,,,,,,,,,,,,,,,,,,,,,,,,,,,,,,,,,,,,,,,166,001,2024_Feb_22_1600,SpeechDraft1Carolyn_lessNoise_PlusLocalization,2021.2.3,59.81271167420278,
cult.wav,cult.mpg,cult,1,AV,Pink_Noise_1_1.wav,Pink_Noise_1_2.wav,,,,,,,,,,,,,,,0,98,98,82,,,,,,,,,,,,,,,,,,,,,,,1022.6575722862035,None,1024.1586365378462,None,1025.54101202311,None,"cult
",1025.54101202311,None,return,0.8365894579328597,1025.6241557360627,None,,,,,,,,,,,,,,,,,,,,,,,,,,,,,,,,,,,,,,,166,001,2024_Feb_22_1600,SpeechDraft1Carolyn_lessNoise_PlusLocalization,2021.2.3,59.81271167420278,
grade.wav,grade.mpg,grade,3,AV,Pink_Noise_3_1.wav,Pink_Noise_3_2.wav,,,,,,,,,,,,,,,0,99,99,98,,,,,,,,,,,,,,,,,,,,,,,1026.4908396508545,None,1028.007141515147,None,1029.3906887499616,None,"grade
",1029.3906887499616,None,return,3.6506627057678998,1029.4740515458398,None,,,,,,,,,,,,,,,,,,,,,,,,,,,,,,,,,,,,,,,166,001,2024_Feb_22_1600,SpeechDraft1Carolyn_lessNoise_PlusLocalization,2021.2.3,59.81271167420278,
bomb.wav,bomb.mpg,bomb,6,A,Pink_Noise_6_1.wav,Pink_Noise_6_2.wav,,,,,,,,,,,,,,,0,100,100,12,,,,,,,,,,,,,,,,,,,,,,,1033.1573778758757,None,1034.6572537068278,None,1036.0409014532343,None,"bow
",1036.0409014532343,None,return,3.7364006461575627,1036.1243460290134,None,,,,,,,,,,,,,,,,,,,,,,,,,,,,,,,,,,,,,,,166,001,2024_Feb_22_1600,SpeechDraft1Carolyn_lessNoise_PlusLocalization,2021.2.3,59.81271167420278,
break.wav,break.mpg,break,6,AV,Pink_Noise_6_1.wav,Pink_Noise_6_2.wav,,,,,,,,,,,,,,,0,101,101,115,,,,,,,,,,,,,,,,,,,,,,,1039.8908154331148,None,1041.40734596923,None,1042.7906300821342,None,break,1042.7906300821342,None,return,1.426577421836555,1042.8741572541185,None,,,,,,,,,,,,,,,,,,,,,,,,,,,,,,,,,,,,,,,166,001,2024_Feb_22_1600,SpeechDraft1Carolyn_lessNoise_PlusLocalization,2021.2.3,59.81271167420278,
bride.wav,bride.mpg,bride,4,AV,Pink_Noise_4_1.wav,Pink_Noise_4_2.wav,,,,,,,,,,,,,,,0,102,102,105,,,,,,,,,,,,,,,,,,,,,,,1044.3240561271086,None,1045.8238683538511,None,1047.207493133843,None,bribe,1047.207493133843,None,return,1.5137684610672295,1047.291026465129,None,,,,,,,,,,,,,,,,,,,,,,,,,,,,,,,,,,,,,,,166,001,2024_Feb_22_1600,SpeechDraft1Carolyn_lessNoise_PlusLocalization,2021.2.3,59.81271167420278,
gush.wav,gush.mpg,gush,2,AV,Pink_Noise_2_1.wav,Pink_Noise_2_2.wav,,,,,,,,,,,,,,,0,103,103,114,,,,,,,,,,,,,,,,,,,,,,,1048.8242000131868,None,1050.3404901088215,None,1051.724142238032,None,gus,1051.724142238032,None,return,0.94940031087026,1051.8073836541735,None,,,,,,,,,,,,,,,,,,,,,,,,,,,,,,,,,,,,,,,166,001,2024_Feb_22_1600,SpeechDraft1Carolyn_lessNoise_PlusLocalization,2021.2.3,59.81271167420278,
grain.wav,grain.mpg,grain,1,AV,Pink_Noise_1_1.wav,Pink_Noise_1_2.wav,,,,,,,,,,,,,,,0,104,104,87,,,,,,,,,,,,,,,,,,,,,,,1052.7740972000174,None,1054.2742573651485,None,1055.6574980458245,None,grain,1055.6574980458245,None,return,0.791800482198596,1055.7409263821319,None,,,,,,,,,,,,,,,,,,,,,,,,,,,,,,,,,,,,,,,166,001,2024_Feb_22_1600,SpeechDraft1Carolyn_lessNoise_PlusLocalization,2021.2.3,59.81271167420278,
beast.wav,beast.mpg,beast,1,AV,Pink_Noise_1_1.wav,Pink_Noise_1_2.wav,,,,,,,,,,,,,,,0,105,105,68,,,,,,,,,,,,,,,,,,,,,,,1056.5575681519695,None,1058.0586643191054,None,1059.4408724610694,None,beast,1059.4408724610694,None,return,1.7126641809009016,1059.5240896381438,None,,,,,,,,,,,,,,,,,,,,,,,,,,,,,,,,,,,,,,,166,001,2024_Feb_22_1600,SpeechDraft1Carolyn_lessNoise_PlusLocalization,2021.2.3,59.81271167420278,
bet.wav,bet.mpg,bet,3,AV,Pink_Noise_3_1.wav,Pink_Noise_3_2.wav,,,,,,,,,,,,,,,0,106,106,103,,,,,,,,,,,,,,,,,,,,,,,1061.2574300868437,None,1062.7737900288776,None,1064.1574616441503,None,"bat
",1064.1574616441503,None,return,1.4679633099585772,1064.2408475060947,None,,,,,,,,,,,,,,,,,,,,,,,,,,,,,,,,,,,,,,,166,001,2024_Feb_22_1600,SpeechDraft1Carolyn_lessNoise_PlusLocalization,2021.2.3,59.81271167420278,
sue.wav,sue.mpg,sue,1,A,Pink_Noise_1_1.wav,Pink_Noise_1_2.wav,,,,,,,,,,,,,,,0,107,107,8,,,,,,,,,,,,,,,,,,,,,,,1065.740915259812,None,1067.441034805961,None,1068.8242602911778,None,sue,1068.8242602911778,None,return,1.1932682800106704,1068.9074649489485,None,,,,,,,,,,,,,,,,,,,,,,,,,,,,,,,,,,,,,,,166,001,2024_Feb_22_1600,SpeechDraft1Carolyn_lessNoise_PlusLocalization,2021.2.3,59.81271167420278,
damp.wav,damp.mpg,damp,2,A,Pink_Noise_2_1.wav,Pink_Noise_2_2.wav,,,,,,,,,,,,,,,0,108,108,42,,,,,,,,,,,,,,,,,,,,,,,1070.1244748868048,None,1071.6406490029767,None,1073.0242295451462,None,dam,1073.0242295451462,None,return,2.5930513637140393,1073.1076809731312,None,,,,,,,,,,,,,,,,,,,,,,,,,,,,,,,,,,,,,,,166,001,2024_Feb_22_1600,SpeechDraft1Carolyn_lessNoise_PlusLocalization,2021.2.3,59.81271167420278,
foil.wav,foil.mpg,foil,2,A,Pink_Noise_2_1.wav,Pink_Noise_2_2.wav,,,,,,,,,,,,,,,0,109,109,41,,,,,,,,,,,,,,,,,,,,,,,1075.7242432730272,None,1077.2242391430773,None,1078.6077405451797,None,oil,1078.6077405451797,None,return,0.9374948870390654,1078.691227346193,None,,,,,,,,,,,,,,,,,,,,,,,,,,,,,,,,,,,,,,,166,001,2024_Feb_22_1600,SpeechDraft1Carolyn_lessNoise_PlusLocalization,2021.2.3,59.81271167420278,
roast.wav,roast.mpg,roast,4,A,Pink_Noise_4_1.wav,Pink_Noise_4_2.wav,,,,,,,,,,,,,,,0,110,110,19,,,,,,,,,,,,,,,,,,,,,,,1079.6575177540071,None,1081.1739692441188,None,1082.5578129068017,None,ghost,1082.5578129068017,None,return,1.5158555209636688,1082.6409593801945,None,,,,,,,,,,,,,,,,,,,,,,,,,,,,,,,,,,,,,,,166,001,2024_Feb_22_1600,SpeechDraft1Carolyn_lessNoise_PlusLocalization,2021.2.3,59.81271167420278,
burn.wav,burn.mpg,burn,2,A,Pink_Noise_2_1.wav,Pink_Noise_2_2.wav,,,,,,,,,,,,,,,0,111,111,1,,,,,,,,,,,,,,,,,,,,,,,1084.1743437740952,None,1085.6905727651902,None,1087.0745253940113,None,burn,1087.0745253940113,None,return,0.8946271762251854,1087.158106553834,None,,,,,,,,,,,,,,,,,,,,,,,,,,,,,,,,,,,,,,,166,001,2024_Feb_22_1600,SpeechDraft1Carolyn_lessNoise_PlusLocalization,2021.2.3,59.81271167420278,
date.wav,date.mpg,date,2,A,Pink_Noise_2_1.wav,Pink_Noise_2_2.wav,,,,,,,,,,,,,,,0,112,112,2,,,,,,,,,,,,,,,,,,,,,,,1088.0741931139491,None,1089.5907333861105,None,1090.974205836188,None,date,1090.974205836188,None,return,0.979242208879441,1091.057546120137,None,,,,,,,,,,,,,,,,,,,,,,,,,,,,,,,,,,,,,,,166,001,2024_Feb_22_1600,SpeechDraft1Carolyn_lessNoise_PlusLocalization,2021.2.3,59.81271167420278,
bank.wav,bank.mpg,bank,4,AV,Pink_Noise_4_1.wav,Pink_Noise_4_2.wav,,,,,,,,,,,,,,,0,113,113,70,,,,,,,,,,,,,,,,,,,,,,,1092.0578023721464,None,1093.57414254779,None,1094.9574572890997,None,made,1094.9574572890997,None,return,13.643669798970222,1095.0410645171069,None,,,,,,,,,,,,,,,,,,,,,,,,,,,,,,,,,,,,,,,166,001,2024_Feb_22_1600,SpeechDraft1Carolyn_lessNoise_PlusLocalization,2021.2.3,59.81271167420278,
chill.wav,chill.mpg,chill,4,A,Pink_Noise_4_1.wav,Pink_Noise_4_2.wav,,,,,,,,,,,,,,,0,114,114,43,,,,,,,,,,,,,,,,,,,,,,,1108.7075720340945,None,1110.224072759971,None,1111.607659501955,None,"chill
",1111.607659501955,None,return,1.1697179400362074,1111.6910206270404,None,,,,,,,,,,,,,,,,,,,,,,,,,,,,,,,,,,,,,,,166,001,2024_Feb_22_1600,SpeechDraft1Carolyn_lessNoise_PlusLocalization,2021.2.3,59.81271167420278,
warmth.wav,warmth.mpg,warmth,5,A,Pink_Noise_5_1.wav,Pink_Noise_5_2.wav,,,,,,,,,,,,,,,0,115,115,30,,,,,,,,,,,,,,,,,,,,,,,1112.8909035990946,None,1114.3913809452206,None,1115.7743302788585,None,work,1115.7743302788585,None,return,2.6272781901061535,1115.8575597838499,None,,,,,,,,,,,,,,,,,,,,,,,,,,,,,,,,,,,,,,,166,001,2024_Feb_22_1600,SpeechDraft1Carolyn_lessNoise_PlusLocalization,2021.2.3,59.81271167420278,
cry.wav,cry.mpg,cry,3,AV,Pink_Noise_3_1.wav,Pink_Noise_3_2.wav,,,,,,,,,,,,,,,0,116,116,76,,,,,,,,,,,,,,,,,,,,,,,1118.5077538769692,None,1120.0243429602124,None,1121.4075403180905,None,cry,1121.4075403180905,None,return,6.345631025731564,1121.4911059048027,None,,,,,,,,,,,,,,,,,,,,,,,,,,,,,,,,,,,,,,,166,001,2024_Feb_22_1600,SpeechDraft1Carolyn_lessNoise_PlusLocalization,2021.2.3,59.81271167420278,
teen.wav,teen.mpg,teen,5,AV,Pink_Noise_5_1.wav,Pink_Noise_5_2.wav,,,,,,,,,,,,,,,0,117,117,95,,,,,,,,,,,,,,,,,,,,,,,1127.857766478788,None,1129.3743223780766,None,1130.7574099958874,None,"tea
",1130.7574099958874,None,return,1.0198115198872983,1130.8409351999871,None,,,,,,,,,,,,,,,,,,,,,,,,,,,,,,,,,,,,,,,166,001,2024_Feb_22_1600,SpeechDraft1Carolyn_lessNoise_PlusLocalization,2021.2.3,59.81271167420278,
bib.wav,bib.mpg,bib,2,A,Pink_Noise_2_1.wav,Pink_Noise_2_2.wav,,,,,,,,,,,,,,,0,118,118,46,,,,,,,,,,,,,,,,,,,,,,,1131.891084420029,None,1133.4072115342133,None,1134.7911305702291,None,fig,1134.7911305702291,None,return,1.4905615407042205,1134.8742251461372,None,,,,,,,,,,,,,,,,,,,,,,,,,,,,,,,,,,,,,,,166,001,2024_Feb_22_1600,SpeechDraft1Carolyn_lessNoise_PlusLocalization,2021.2.3,59.81271167420278,
crown.wav,crown.mpg,crown,6,AV,Pink_Noise_6_1.wav,Pink_Noise_6_2.wav,,,,,,,,,,,,,,,0,119,119,96,,,,,,,,,,,,,,,,,,,,,,,1136.390989962034,None,1137.9072999730706,None,1139.2908967281692,None,"crown
",1139.2908967281692,None,return,5.734434806276113,1139.3743090769276,None,,,,,,,,,,,,,,,,,,,,,,,,,,,,,,,,,,,,,,,166,001,2024_Feb_22_1600,SpeechDraft1Carolyn_lessNoise_PlusLocalization,2021.2.3,59.81271167420278,
,,,,,,,,,,,,,,,,,,,,,,,,,,,,,,,,,,,,,,,,,,,,,,,,,,,,,,,,,,,,,,,,,,space,11.411790384911,1145.240949462168,None,,,,,,,,,,,,,,,,,,,,,,,,,,,,,166,001,2024_Feb_22_1600,SpeechDraft1Carolyn_lessNoise_PlusLocalization,2021.2.3,59.81271167420278,
,,,,,,,,center,0.0,6,ch1Sound_localizationTask.wav,0.0,"(952, 878)","(-8,-202)",0,-338,,,,,,,,,0,0,0,3,,,,,,,,,,,,,,,,,,,,,,,,,,,,,,,,,,,,,,,,,,1145.240949462168,None,1156.6908890129998,None,1157.8074619527906,None,1158.7241698540747,None,1.1888888888888889,3.701912802644074,1158.7241698540747,None,,,,,,,,,,,,,,,,,166,001,2024_Feb_22_1600,SpeechDraft1Carolyn_lessNoise_PlusLocalization,2021.2.3,59.81271167420278,
,,,,,,,,farLeft,-19.1,5,ch1Sound_localizationTask.wav,-19.1,"(667, 878)","(-293,-202)",-285,-338,,,,,,,,,0,1,1,0,,,,,,,,,,,,,,,,,,,,,,,,,,,,,,,,,,,,,,,,,,,,1162.4246022477746,None,1163.5241416329518,None,1164.4577335119247,None,1.1301587301587301,1.3155907518230379,1164.4577335119247,None,,,,,,,,,,,,,,,,,166,001,2024_Feb_22_1600,SpeechDraft1Carolyn_lessNoise_PlusLocalization,2021.2.3,59.81271167420278,
,,,,,,,,midLeft,-13.0,2,ch1Sound_localizationTask.wav,-13.0,"(762, 878)","(-198,-202)",-190,-338,,,,,,,,,0,2,2,1,,,,,,,,,,,,,,,,,,,,,,,,,,,,,,,,,,,,,,,,,,,,1165.7910133930854,None,1166.8910264470614,None,1167.8243027701974,None,1.1470899470899472,2.7168877543881536,1167.8243027701974,None,,,,,,,,,,,,,,,,,166,001,2024_Feb_22_1600,SpeechDraft1Carolyn_lessNoise_PlusLocalization,2021.2.3,59.81271167420278,
,,,,,,,,nearLeft,-6.5,1,ch1Sound_localizationTask.wav,-6.5,"(857, 878)","(-103,-202)",-95,-338,,,,,,,,,0,3,3,2,,,,,,,,,,,,,,,,,,,,,,,,,,,,,,,,,,,,,,,,,,,,1170.5575783401728,None,1171.6573945512064,None,1172.5910362219438,None,1.3402116402116402,1.0170431691221893,1172.5910362219438,None,,,,,,,,,,,,,,,,,166,001,2024_Feb_22_1600,SpeechDraft1Carolyn_lessNoise_PlusLocalization,2021.2.3,59.81271167420278,
,,,,,,,,farRight,19.1,4,ch1Sound_localizationTask.wav,19.1,"(1237, 878)","(277,-202)",285,-338,,,,,,,,,0,4,4,6,,,,,,,,,,,,,,,,,,,,,,,,,,,,,,,,,,,,,,,,,,,,1173.6244420390576,None,1174.724237759132,None,1175.6575019038282,None,1.7783068783068783,0.9816631046123803,1175.6575019038282,None,,,,,,,,,,,,,,,,,166,001,2024_Feb_22_1600,SpeechDraft1Carolyn_lessNoise_PlusLocalization,2021.2.3,59.81271167420278,
,,,,,,,,farLeft,-19.1,5,ch1Sound_localizationTask.wav,-19.1,"(667, 878)","(-293,-202)",-285,-338,,,,,,,,,0,5,5,0,,,,,,,,,,,,,,,,,,,,,,,,,,,,,,,,,,,,,,,,,,,,1176.6410774667747,None,1177.7408457049169,None,1178.6739570209756,None,1.1058201058201058,1.3819365417584777,1178.6739570209756,None,,,,,,,,,,,,,,,,,166,001,2024_Feb_22_1600,SpeechDraft1Carolyn_lessNoise_PlusLocalization,2021.2.3,59.81271167420278,
,,,,,,,,midRight,13.0,3,ch1Sound_localizationTask.wav,13.0,"(1142, 878)","(182, -202)",190,-338,,,,,,,,,0,6,6,5,,,,,,,,,,,,,,,,,,,,,,,,,,,,,,,,,,,,,,,,,,,,1180.0577385742217,None,1181.1573903178796,None,1182.0907186130062,None,1.5492063492063493,1.3493438083678484,1182.0907186130062,None,,,,,,,,,,,,,,,,,166,001,2024_Feb_22_1600,SpeechDraft1Carolyn_lessNoise_PlusLocalization,2021.2.3,59.81271167420278,
,,,,,,,,center,0.0,6,ch1Sound_localizationTask.wav,0.0,"(952, 878)","(-8,-202)",0,-338,,,,,,,,,1,0,7,3,,,,,,,,,,,,,,,,,,,,,,,,,,,,,,,,,,,,,,,,,,,,1183.4413038762286,None,1184.5406051781029,None,1185.4740100549534,None,1.4174603174603175,1.0996782300062478,1185.4740100549534,None,,,,,,,,,,,,,,,,,166,001,2024_Feb_22_1600,SpeechDraft1Carolyn_lessNoise_PlusLocalization,2021.2.3,59.81271167420278,
,,,,,,,,nearRight,6.5,0,ch1Sound_localizationTask.wav,6.5,"(1047, 878)","(87, -202)",95,-338,,,,,,,,,1,1,8,4,,,,,,,,,,,,,,,,,,,,,,,,,,,,,,,,,,,,,,,,,,,,1186.5743648200296,None,1187.6744554061443,None,1188.6072743348777,None,1.4777777777777779,0.9163225349038839,1188.6072743348777,None,,,,,,,,,,,,,,,,,166,001,2024_Feb_22_1600,SpeechDraft1Carolyn_lessNoise_PlusLocalization,2021.2.3,59.81271167420278,
,,,,,,,,nearRight,6.5,0,ch1Sound_localizationTask.wav,6.5,"(1047, 878)","(87, -202)",95,-338,,,,,,,,,1,2,9,4,,,,,,,,,,,,,,,,,,,,,,,,,,,,,,,,,,,,,,,,,,,,1189.5246259211563,None,1190.624182311818,None,1191.5576522508636,None,1.505820105820106,0.7158017479814589,1191.5576522508636,None,,,,,,,,,,,,,,,,,166,001,2024_Feb_22_1600,SpeechDraft1Carolyn_lessNoise_PlusLocalization,2021.2.3,59.81271167420278,
,,,,,,,,midRight,13.0,3,ch1Sound_localizationTask.wav,13.0,"(1142, 878)","(182, -202)",190,-338,,,,,,,,,1,3,10,5,,,,,,,,,,,,,,,,,,,,,,,,,,,,,,,,,,,,,,,,,,,,1192.2745743258856,None,1193.3739896500483,None,1194.3074324550107,None,1.5444444444444443,0.5832016449421644,1194.3074324550107,None,,,,,,,,,,,,,,,,,166,001,2024_Feb_22_1600,SpeechDraft1Carolyn_lessNoise_PlusLocalization,2021.2.3,59.81271167420278,
,,,,,,,,nearLeft,-6.5,1,ch1Sound_localizationTask.wav,-6.5,"(857, 878)","(-103,-202)",-95,-338,,,,,,,,,1,4,11,2,,,,,,,,,,,,,,,,,,,,,,,,,,,,,,,,,,,,,,,,,,,,1194.8910501799546,None,1195.9909769101068,None,1196.9239607020281,None,1.3275132275132275,1.0830425689928234,1196.9239607020281,None,,,,,,,,,,,,,,,,,166,001,2024_Feb_22_1600,SpeechDraft1Carolyn_lessNoise_PlusLocalization,2021.2.3,59.81271167420278,
,,,,,,,,farRight,19.1,4,ch1Sound_localizationTask.wav,19.1,"(1237, 878)","(277,-202)",285,-338,,,,,,,,,1,5,12,6,,,,,,,,,,,,,,,,,,,,,,,,,,,,,,,,,,,,,,,,,,,,1198.0080187157728,None,1199.107418156229,None,1200.0407859152183,None,1.5820105820105819,0.916618637740612,1200.0407859152183,None,,,,,,,,,,,,,,,,,166,001,2024_Feb_22_1600,SpeechDraft1Carolyn_lessNoise_PlusLocalization,2021.2.3,59.81271167420278,
,,,,,,,,midRight,13.0,3,ch1Sound_localizationTask.wav,13.0,"(1142, 878)","(182, -202)",190,-338,,,,,,,,,1,6,13,5,,,,,,,,,,,,,,,,,,,,,,,,,,,,,,,,,,,,,,,,,,,,1200.9578355262056,None,1202.057598871179,None,1202.990713854786,None,1.433862433862434,0.8320023268461227,1202.990713854786,None,,,,,,,,,,,,,,,,,166,001,2024_Feb_22_1600,SpeechDraft1Carolyn_lessNoise_PlusLocalization,2021.2.3,59.81271167420278,
,,,,,,,,farLeft,-19.1,5,ch1Sound_localizationTask.wav,-19.1,"(667, 878)","(-293,-202)",-285,-338,,,,,,,,,2,0,14,0,,,,,,,,,,,,,,,,,,,,,,,,,,,,,,,,,,,,,,,,,,,,1203.8244538712315,None,1204.9244083561935,None,1205.8573937281035,None,1.1529100529100529,0.9823996578343213,1205.8573937281035,None,,,,,,,,,,,,,,,,,166,001,2024_Feb_22_1600,SpeechDraft1Carolyn_lessNoise_PlusLocalization,2021.2.3,59.81271167420278,
,,,,,,,,farRight,19.1,4,ch1Sound_localizationTask.wav,19.1,"(1237, 878)","(277,-202)",285,-338,,,,,,,,,2,1,15,6,,,,,,,,,,,,,,,,,,,,,,,,,,,,,,,,,,,,,,,,,,,,1206.8412609258667,None,1207.9407597128302,None,1208.8740565250628,None,1.7121693121693122,0.8318730923347175,1208.8740565250628,None,,,,,,,,,,,,,,,,,166,001,2024_Feb_22_1600,SpeechDraft1Carolyn_lessNoise_PlusLocalization,2021.2.3,59.81271167420278,
,,,,,,,,nearLeft,-6.5,1,ch1Sound_localizationTask.wav,-6.5,"(857, 878)","(-103,-202)",-95,-338,,,,,,,,,2,2,16,2,,,,,,,,,,,,,,,,,,,,,,,,,,,,,,,,,,,,,,,,,,,,1209.707988161128,None,1210.8075528438203,None,1211.7408637739718,None,1.3423280423280424,1.016470423899591,1211.7408637739718,None,,,,,,,,,,,,,,,,,166,001,2024_Feb_22_1600,SpeechDraft1Carolyn_lessNoise_PlusLocalization,2021.2.3,59.81271167420278,
,,,,,,,,center,0.0,6,ch1Sound_localizationTask.wav,0.0,"(952, 878)","(-8,-202)",0,-338,,,,,,,,,2,3,17,3,,,,,,,,,,,,,,,,,,,,,,,,,,,,,,,,,,,,,,,,,,,,1212.7579116178676,None,1213.857319409959,None,1214.7910346519202,None,1.4687830687830687,0.8659773333929479,1214.7910346519202,None,,,,,,,,,,,,,,,,,166,001,2024_Feb_22_1600,SpeechDraft1Carolyn_lessNoise_PlusLocalization,2021.2.3,59.81271167420278,
,,,,,,,,midRight,13.0,3,ch1Sound_localizationTask.wav,13.0,"(1142, 878)","(182, -202)",190,-338,,,,,,,,,2,4,18,5,,,,,,,,,,,,,,,,,,,,,,,,,,,,,,,,,,,,,,,,,,,,1215.6579246059991,None,1216.7573670782149,None,1217.690859875176,None,1.5201058201058202,0.9989605126902461,1217.690859875176,None,,,,,,,,,,,,,,,,,166,001,2024_Feb_22_1600,SpeechDraft1Carolyn_lessNoise_PlusLocalization,2021.2.3,59.81271167420278,
,,,,,,,,farRight,19.1,4,ch1Sound_localizationTask.wav,19.1,"(1237, 878)","(277,-202)",285,-338,,,,,,,,,2,5,19,6,,,,,,,,,,,,,,,,,,,,,,,,,,,,,,,,,,,,,,,,,,,,1218.6912390310317,None,1219.790842705872,None,1220.7240655831993,None,1.6613756613756614,0.8159327530302107,1220.7240655831993,None,,,,,,,,,,,,,,,,,166,001,2024_Feb_22_1600,SpeechDraft1Carolyn_lessNoise_PlusLocalization,2021.2.3,59.81271167420278,
,,,,,,,,farLeft,-19.1,5,ch1Sound_localizationTask.wav,-19.1,"(667, 878)","(-293,-202)",-285,-338,,,,,,,,,2,6,20,0,,,,,,,,,,,,,,,,,,,,,,,,,,,,,,,,,,,,,,,,,,,,1221.541044039186,None,1222.6410381728783,None,1223.5742332949303,None,1.1444444444444444,0.7498113680630922,1223.5742332949303,None,,,,,,,,,,,,,,,,,166,001,2024_Feb_22_1600,SpeechDraft1Carolyn_lessNoise_PlusLocalization,2021.2.3,59.81271167420278,
,,,,,,,,nearRight,6.5,0,ch1Sound_localizationTask.wav,6.5,"(1047, 878)","(87, -202)",95,-338,,,,,,,,,3,0,21,4,,,,,,,,,,,,,,,,,,,,,,,,,,,,,,,,,,,,,,,,,,,,1224.3243045341223,None,1225.4242620388977,None,1226.3575039198622,None,1.541798941798942,1.2990429727360606,1226.3575039198622,None,,,,,,,,,,,,,,,,,166,001,2024_Feb_22_1600,SpeechDraft1Carolyn_lessNoise_PlusLocalization,2021.2.3,59.81271167420278,
,,,,,,,,farRight,19.1,4,ch1Sound_localizationTask.wav,19.1,"(1237, 878)","(277,-202)",285,-338,,,,,,,,,3,1,22,6,,,,,,,,,,,,,,,,,,,,,,,,,,,,,,,,,,,,,,,,,,,,1227.657984319143,None,1228.7576653268188,None,1229.690691752825,None,1.6603174603174602,0.7489919946528971,1229.690691752825,None,,,,,,,,,,,,,,,,,166,001,2024_Feb_22_1600,SpeechDraft1Carolyn_lessNoise_PlusLocalization,2021.2.3,59.81271167420278,
,,,,,,,,nearLeft,-6.5,1,ch1Sound_localizationTask.wav,-6.5,"(857, 878)","(-103,-202)",-95,-338,,,,,,,,,3,2,23,2,,,,,,,,,,,,,,,,,,,,,,,,,,,,,,,,,,,,,,,,,,,,1230.4412553519942,None,1231.5416403817944,None,1232.4742049491033,None,1.2873015873015872,0.7987088286317885,1232.4742049491033,None,,,,,,,,,,,,,,,,,166,001,2024_Feb_22_1600,SpeechDraft1Carolyn_lessNoise_PlusLocalization,2021.2.3,59.81271167420278,
,,,,,,,,center,0.0,6,ch1Sound_localizationTask.wav,0.0,"(952, 878)","(-8,-202)",0,-338,,,,,,,,,3,3,24,3,,,,,,,,,,,,,,,,,,,,,,,,,,,,,,,,,,,,,,,,,,,,1233.274600979872,None,1234.3744382187724,None,1235.3073622700758,None,1.4576719576719577,0.6662857793271542,1235.3073622700758,None,,,,,,,,,,,,,,,,,166,001,2024_Feb_22_1600,SpeechDraft1Carolyn_lessNoise_PlusLocalization,2021.2.3,59.81271167420278,
,,,,,,,,nearRight,6.5,0,ch1Sound_localizationTask.wav,6.5,"(1047, 878)","(87, -202)",95,-338,,,,,,,,,3,4,25,4,,,,,,,,,,,,,,,,,,,,,,,,,,,,,,,,,,,,,,,,,,,,1235.974375416059,None,1237.074392552022,None,1238.0074058379978,None,1.4132275132275132,1.3337907576933503,1238.0074058379978,None,,,,,,,,,,,,,,,,,166,001,2024_Feb_22_1600,SpeechDraft1Carolyn_lessNoise_PlusLocalization,2021.2.3,59.81271167420278,
,,,,,,,,midLeft,-13.0,2,ch1Sound_localizationTask.wav,-13.0,"(762, 878)","(-198,-202)",-190,-338,,,,,,,,,3,5,26,1,,,,,,,,,,,,,,,,,,,,,,,,,,,,,,,,,,,,,,,,,,,,1239.3578507881612,None,1240.4576029051095,None,1241.3908798918128,None,1.2656084656084656,0.615914654918015,1241.3908798918128,None,,,,,,,,,,,,,,,,,166,001,2024_Feb_22_1600,SpeechDraft1Carolyn_lessNoise_PlusLocalization,2021.2.3,59.81271167420278,
,,,,,,,,nearRight,6.5,0,ch1Sound_localizationTask.wav,6.5,"(1047, 878)","(87, -202)",95,-338,,,,,,,,,3,6,27,4,,,,,,,,,,,,,,,,,,,,,,,,,,,,,,,,,,,,,,,,,,,,1242.0081387232058,None,1243.1073679518886,None,1244.040999462828,None,1.5201058201058202,0.9662466049194336,1244.040999462828,None,,,,,,,,,,,,,,,,,166,001,2024_Feb_22_1600,SpeechDraft1Carolyn_lessNoise_PlusLocalization,2021.2.3,59.81271167420278,
,,,,,,,,nearRight,6.5,0,ch1Sound_localizationTask.wav,6.5,"(1047, 878)","(87, -202)",95,-338,,,,,,,,,4,0,28,4,,,,,,,,,,,,,,,,,,,,,,,,,,,,,,,,,,,,,,,,,,,,1245.0077200471424,None,1246.1076592211612,None,1247.0409986749291,None,1.4576719576719577,0.6820521880872548,1247.0409986749291,None,,,,,,,,,,,,,,,,,166,001,2024_Feb_22_1600,SpeechDraft1Carolyn_lessNoise_PlusLocalization,2021.2.3,59.81271167420278,
,,,,,,,,nearRight,6.5,0,ch1Sound_localizationTask.wav,6.5,"(1047, 878)","(87, -202)",95,-338,,,,,,,,,4,1,29,4,,,,,,,,,,,,,,,,,,,,,,,,,,,,,,,,,,,,,,,,,,,,1247.724593764171,None,1248.824251087848,None,1249.7577626928687,None,1.425925925925926,0.6328867129050195,1249.7577626928687,None,,,,,,,,,,,,,,,,,166,001,2024_Feb_22_1600,SpeechDraft1Carolyn_lessNoise_PlusLocalization,2021.2.3,59.81271167420278,
,,,,,,,,center,0.0,6,ch1Sound_localizationTask.wav,0.0,"(952, 878)","(-8,-202)",0,-338,,,,,,,,,4,2,30,3,,,,,,,,,,,,,,,,,,,,,,,,,,,,,,,,,,,,,,,,,,,,1250.3912074859254,None,1251.4907661830075,None,1252.4242851068266,None,1.392063492063492,0.4662281456403434,1252.4242851068266,None,,,,,,,,,,,,,,,,,166,001,2024_Feb_22_1600,SpeechDraft1Carolyn_lessNoise_PlusLocalization,2021.2.3,59.81271167420278,
,,,,,,,,farRight,19.1,4,ch1Sound_localizationTask.wav,19.1,"(1237, 878)","(277,-202)",285,-338,,,,,,,,,4,3,31,6,,,,,,,,,,,,,,,,,,,,,,,,,,,,,,,,,,,,,,,,,,,,1252.8912928868085,None,1253.9909830708057,None,1254.9242180138826,None,1.5846560846560847,0.6998593709431589,1254.9242180138826,None,,,,,,,,,,,,,,,,,166,001,2024_Feb_22_1600,SpeechDraft1Carolyn_lessNoise_PlusLocalization,2021.2.3,59.81271167420278,
,,,,,,,,center,0.0,6,ch1Sound_localizationTask.wav,0.0,"(952, 878)","(-8,-202)",0,-338,,,,,,,,,4,4,32,3,,,,,,,,,,,,,,,,,,,,,,,,,,,,,,,,,,,,,,,,,,,,1255.624730440788,None,1256.7245126958005,None,1257.6577061237767,None,1.41005291005291,0.8507481659762561,1257.6577061237767,None,,,,,,,,,,,,,,,,,166,001,2024_Feb_22_1600,SpeechDraft1Carolyn_lessNoise_PlusLocalization,2021.2.3,59.81271167420278,
,,,,,,,,midRight,13.0,3,ch1Sound_localizationTask.wav,13.0,"(1142, 878)","(182, -202)",190,-338,,,,,,,,,4,5,33,5,,,,,,,,,,,,,,,,,,,,,,,,,,,,,,,,,,,,,,,,,,,,1258.5244955499656,None,1259.6241988530383,None,1260.5575664900243,None,1.5132275132275133,0.8331402079202235,1260.5575664900243,None,,,,,,,,,,,,,,,,,166,001,2024_Feb_22_1600,SpeechDraft1Carolyn_lessNoise_PlusLocalization,2021.2.3,59.81271167420278,
,,,,,,,,midLeft,-13.0,2,ch1Sound_localizationTask.wav,-13.0,"(762, 878)","(-198,-202)",-190,-338,,,,,,,,,4,6,34,1,,,,,,,,,,,,,,,,,,,,,,,,,,,,,,,,,,,,,,,,,,,,1261.3914837590419,None,1262.4911924619228,None,1263.4244347140193,None,1.204232804232804,0.5832530907355249,1263.4244347140193,None,,,,,,,,,,,,,,,,,166,001,2024_Feb_22_1600,SpeechDraft1Carolyn_lessNoise_PlusLocalization,2021.2.3,59.81271167420278,
,,,,,,,,midLeft,-13.0,2,ch1Sound_localizationTask.wav,-13.0,"(762, 878)","(-198,-202)",-190,-338,,,,,,,,,5,0,35,1,,,,,,,,,,,,,,,,,,,,,,,,,,,,,,,,,,,,,,,,,,,,1264.0080016287975,None,1265.1075487527996,None,1266.0408744378947,None,1.2322751322751322,0.4317982438951731,1266.0408744378947,None,,,,,,,,,,,,,,,,,166,001,2024_Feb_22_1600,SpeechDraft1Carolyn_lessNoise_PlusLocalization,2021.2.3,59.81271167420278,
,,,,,,,,farRight,19.1,4,ch1Sound_localizationTask.wav,19.1,"(1237, 878)","(277,-202)",285,-338,,,,,,,,,5,1,36,6,,,,,,,,,,,,,,,,,,,,,,,,,,,,,,,,,,,,,,,,,,,,1266.4744613021612,None,1267.574456950184,None,1268.5074308910407,None,1.5603174603174603,0.7155393399298191,1268.5074308910407,None,,,,,,,,,,,,,,,,,166,001,2024_Feb_22_1600,SpeechDraft1Carolyn_lessNoise_PlusLocalization,2021.2.3,59.81271167420278,
,,,,,,,,midRight,13.0,3,ch1Sound_localizationTask.wav,13.0,"(1142, 878)","(182, -202)",190,-338,,,,,,,,,5,2,37,5,,,,,,,,,,,,,,,,,,,,,,,,,,,,,,,,,,,,,,,,,,,,1269.2245593108237,None,1270.3241591830738,None,1271.2577390237711,None,1.4661375661375662,0.2827538261190057,1271.2577390237711,None,,,,,,,,,,,,,,,,,166,001,2024_Feb_22_1600,SpeechDraft1Carolyn_lessNoise_PlusLocalization,2021.2.3,59.81271167420278,
,,,,,,,,nearLeft,-6.5,1,ch1Sound_localizationTask.wav,-6.5,"(857, 878)","(-103,-202)",-95,-338,,,,,,,,,5,3,38,2,,,,,,,,,,,,,,,,,,,,,,,,,,,,,,,,,,,,,,,,,,,,1271.5412441729568,None,1272.6412744112313,None,1273.574168536812,None,1.3169312169312168,0.8656369531527162,1273.574168536812,None,,,,,,,,,,,,,,,,,166,001,2024_Feb_22_1600,SpeechDraft1Carolyn_lessNoise_PlusLocalization,2021.2.3,59.81271167420278,
,,,,,,,,farLeft,-19.1,5,ch1Sound_localizationTask.wav,-19.1,"(667, 878)","(-293,-202)",-285,-338,,,,,,,,,5,4,39,0,,,,,,,,,,,,,,,,,,,,,,,,,,,,,,,,,,,,,,,,,,,,1274.4415249298327,None,1275.5409823530354,None,1276.4740541791543,None,1.1608465608465608,0.7660145591944456,1276.4740541791543,None,,,,,,,,,,,,,,,,,166,001,2024_Feb_22_1600,SpeechDraft1Carolyn_lessNoise_PlusLocalization,2021.2.3,59.81271167420278,
,,,,,,,,midLeft,-13.0,2,ch1Sound_localizationTask.wav,-13.0,"(762, 878)","(-198,-202)",-190,-338,,,,,,,,,5,5,40,1,,,,,,,,,,,,,,,,,,,,,,,,,,,,,,,,,,,,,,,,,,,,1277.241175104864,None,1278.340812289156,None,1279.2742907712236,None,1.2089947089947088,0.7487810640595853,1279.2742907712236,None,,,,,,,,,,,,,,,,,166,001,2024_Feb_22_1600,SpeechDraft1Carolyn_lessNoise_PlusLocalization,2021.2.3,59.81271167420278,
,,,,,,,,farLeft,-19.1,5,ch1Sound_localizationTask.wav,-19.1,"(667, 878)","(-293,-202)",-285,-338,,,,,,,,,5,6,41,0,,,,,,,,,,,,,,,,,,,,,,,,,,,,,,,,,,,,,,,,,,,,1280.024741108995,None,1281.1240786188282,None,1282.0577854458243,None,1.1243386243386242,0.6326707089319825,1282.0577854458243,None,,,,,,,,,,,,,,,,,166,001,2024_Feb_22_1600,SpeechDraft1Carolyn_lessNoise_PlusLocalization,2021.2.3,59.81271167420278,
,,,,,,,,nearRight,6.5,0,ch1Sound_localizationTask.wav,6.5,"(1047, 878)","(87, -202)",95,-338,,,,,,,,,6,0,42,4,,,,,,,,,,,,,,,,,,,,,,,,,,,,,,,,,,,,,,,,,,,,1282.6915112668648,None,1283.7907923921011,None,1284.7241701888852,None,1.4576719576719577,0.7824417091906071,1284.7241701888852,None,,,,,,,,,,,,,,,,,166,001,2024_Feb_22_1600,SpeechDraft1Carolyn_lessNoise_PlusLocalization,2021.2.3,59.81271167420278,
,,,,,,,,midLeft,-13.0,2,ch1Sound_localizationTask.wav,-13.0,"(762, 878)","(-198,-202)",-190,-338,,,,,,,,,6,1,43,1,,,,,,,,,,,,,,,,,,,,,,,,,,,,,,,,,,,,,,,,,,,,1285.5080393492244,None,1286.6076251431368,None,1287.5409332769923,None,1.1703703703703705,0.9665228738449514,1287.5409332769923,None,,,,,,,,,,,,,,,,,166,001,2024_Feb_22_1600,SpeechDraft1Carolyn_lessNoise_PlusLocalization,2021.2.3,59.81271167420278,
,,,,,,,,nearLeft,-6.5,1,ch1Sound_localizationTask.wav,-6.5,"(857, 878)","(-103,-202)",-95,-338,,,,,,,,,6,2,44,2,,,,,,,,,,,,,,,,,,,,,,,,,,,,,,,,,,,,,,,,,,,,1288.5094818198122,None,1289.624310337007,None,1290.5410447511822,None,1.328042328042328,0.6652379520237446,1290.5410447511822,None,,,,,,,,,,,,,,,,,166,001,2024_Feb_22_1600,SpeechDraft1Carolyn_lessNoise_PlusLocalization,2021.2.3,59.81271167420278,
,,,,,,,,nearLeft,-6.5,1,ch1Sound_localizationTask.wav,-6.5,"(857, 878)","(-103,-202)",-95,-338,,,,,,,,,6,3,45,2,,,,,,,,,,,,,,,,,,,,,,,,,,,,,,,,,,,,,,,,,,,,1291.2077978770249,None,1292.3077487489209,None,1293.240874019917,None,1.3264550264550263,0.03220952907577157,1293.240874019917,None,,,,,,,,,,,,,,,,,166,001,2024_Feb_22_1600,SpeechDraft1Carolyn_lessNoise_PlusLocalization,2021.2.3,59.81271167420278,
,,,,,,,,farLeft,-19.1,5,ch1Sound_localizationTask.wav,-19.1,"(667, 878)","(-293,-202)",-285,-338,,,,,,,,,6,4,46,0,,,,,,,,,,,,,,,,,,,,,,,,,,,,,,,,,,,,,,,,,,,,1293.2745040152222,None,1294.374375387095,None,1295.3074118839577,None,1.2375661375661375,0.43247605999931693,1295.3074118839577,None,,,,,,,,,,,,,,,,,166,001,2024_Feb_22_1600,SpeechDraft1Carolyn_lessNoise_PlusLocalization,2021.2.3,59.81271167420278,
,,,,,,,,farLeft,-19.1,5,ch1Sound_localizationTask.wav,-19.1,"(667, 878)","(-293,-202)",-285,-338,,,,,,,,,6,5,47,0,,,,,,,,,,,,,,,,,,,,,,,,,,,,,,,,,,,,,,,,,,,,1295.741609223187,None,1296.8411957621574,None,1297.7743722922169,None,1.1634920634920634,0.6497717020101845,1297.7743722922169,None,,,,,,,,,,,,,,,,,166,001,2024_Feb_22_1600,SpeechDraft1Carolyn_lessNoise_PlusLocalization,2021.2.3,59.81271167420278,
,,,,,,,,center,0.0,6,ch1Sound_localizationTask.wav,0.0,"(952, 878)","(-8,-202)",0,-338,,,,,,,,,6,6,48,3,,,,,,,,,,,,,,,,,,,,,,,,,,,,,,,,,,,,,,,,,,,,1298.4251441811211,None,1299.5242564110085,None,1300.4576830649748,None,1.384126984126984,0.5328699569217861,1300.4576830649748,None,,,,,,,,,,,,,,,,,166,001,2024_Feb_22_1600,SpeechDraft1Carolyn_lessNoise_PlusLocalization,2021.2.3,59.81271167420278,
,,,,,,,,midLeft,-13.0,2,ch1Sound_localizationTask.wav,-13.0,"(762, 878)","(-198,-202)",-190,-338,,,,,,,,,7,0,49,1,,,,,,,,,,,,,,,,,,,,,,,,,,,,,,,,,,,,,,,,,,,,1300.991616686806,None,1302.0910833058879,None,1303.0241731889546,None,1.2613756613756615,0.21663493802770972,1303.0241731889546,None,,,,,,,,,,,,,,,,,166,001,2024_Feb_22_1600,SpeechDraft1Carolyn_lessNoise_PlusLocalization,2021.2.3,59.81271167420278,
,,,,,,,,center,0.0,6,ch1Sound_localizationTask.wav,0.0,"(952, 878)","(-8,-202)",0,-338,,,,,,,,,7,1,50,3,,,,,,,,,,,,,,,,,,,,,,,,,,,,,,,,,,,,,,,,,,,,1303.2414403739385,None,1304.3410262921825,None,1305.2741481238045,None,1.3650793650793651,0.2155470377765596,1305.2741481238045,None,,,,,,,,,,,,,,,,,166,001,2024_Feb_22_1600,SpeechDraft1Carolyn_lessNoise_PlusLocalization,2021.2.3,59.81271167420278,
,,,,,,,,midLeft,-13.0,2,ch1Sound_localizationTask.wav,-13.0,"(762, 878)","(-198,-202)",-190,-338,,,,,,,,,7,2,51,1,,,,,,,,,,,,,,,,,,,,,,,,,,,,,,,,,,,,,,,,,,,,1305.4912110632285,None,1306.5910040461458,None,1307.5242021889426,None,1.2634920634920634,0.38284881599247456,1307.5242021889426,None,,,,,,,,,,,,,,,,,166,001,2024_Feb_22_1600,SpeechDraft1Carolyn_lessNoise_PlusLocalization,2021.2.3,59.81271167420278,
,,,,,,,,midRight,13.0,3,ch1Sound_localizationTask.wav,13.0,"(1142, 878)","(182, -202)",190,-338,,,,,,,,,7,3,52,5,,,,,,,,,,,,,,,,,,,,,,,,,,,,,,,,,,,,,,,,,,,,1307.9080031430349,None,1309.0077213267796,None,1309.9409711607732,None,1.4497354497354498,0.39954587910324335,1309.9409711607732,None,,,,,,,,,,,,,,,,,166,001,2024_Feb_22_1600,SpeechDraft1Carolyn_lessNoise_PlusLocalization,2021.2.3,59.81271167420278,
,,,,,,,,midRight,13.0,3,ch1Sound_localizationTask.wav,13.0,"(1142, 878)","(182, -202)",190,-338,,,,,,,,,7,4,53,5,,,,,,,,,,,,,,,,,,,,,,,,,,,,,,,,,,,,,,,,,,,,1310.3415835578926,None,1311.440873336047,None,1312.374408184085,None,1.517989417989418,0.26617843518033624,1312.374408184085,None,,,,,,,,,,,,,,,,,166,001,2024_Feb_22_1600,SpeechDraft1Carolyn_lessNoise_PlusLocalization,2021.2.3,59.81271167420278,
,,,,,,,,farRight,19.1,4,ch1Sound_localizationTask.wav,19.1,"(1237, 878)","(277,-202)",285,-338,,,,,,,,,7,5,54,6,,,,,,,,,,,,,,,,,,,,,,,,,,,,,,,,,,,,,,,,,,,,1312.6412080531009,None,1313.740800616797,None,1314.674191030208,None,1.5105820105820107,0.6990577690303326,1314.674191030208,None,,,,,,,,,,,,,,,,,166,001,2024_Feb_22_1600,SpeechDraft1Carolyn_lessNoise_PlusLocalization,2021.2.3,59.81271167420278,
,,,,,,,,nearLeft,-6.5,1,ch1Sound_localizationTask.wav,-6.5,"(857, 878)","(-103,-202)",-95,-338,,,,,,,,,7,6,55,2,,,,,,,,,,,,,,,,,,,,,,,,,,,,,,,,,,,,,,,,,,,,1315.3745509712026,None,1316.474252246786,None,1317.4076231787913,None,1.2724867724867726,0.6155676431953907,1317.4076231787913,None,,,,,,,,,,,,,,,,,166,001,2024_Feb_22_1600,SpeechDraft1Carolyn_lessNoise_PlusLocalization,2021.2.3,59.81271167420278,
,,,,,,,,,,,,,,,,,,,,,,,,,,,,,,,,,,,,,,,,,,,,,,,,,,,,,,,,,,,,,,,,,,,,,,,,,,,,,,,,,,space,7.296943872701377,1318.1079037669115,None,,,,,,,,,,,,,166,001,2024_Feb_22_1600,SpeechDraft1Carolyn_lessNoise_PlusLocalization,2021.2.3,59.81271167420278,
,,,,,,,,midLeft,-13.0,2,ch1Sound_localizationTask.wav,-13.0,"(762, 878)","(-198,-202)",-190,-338,,,,,,,,,,,,,0,0,0,1,,,,,,,,,,,,,,,,,,,,,,,,,,,,,,,,,,,,,,,,1325.441326776985,None,,,1328.4582338500768,None,1.3835978835978837,0.9544673101045191,1328.4582338500768,None,,,,,1318.1079037669115,None,1326.4412457360886,None,1326.6246867119335,1326.6414334988222,,,,,,,166,001,2024_Feb_22_1600,SpeechDraft1Carolyn_lessNoise_PlusLocalization,2021.2.3,59.81271167420278,
,,,,,,,,farRight,19.1,4,ch1Sound_localizationTask.wav,19.1,"(1237, 878)","(277,-202)",285,-338,,,,,,,,,,,,,0,1,1,6,,,,,,,,,,,,,,,,,,,,,,,,,,,,,,,,,,,,,,,,1329.4248639037833,None,,,1332.4410428339615,None,1.664021164021164,0.7326845889911056,1332.4410428339615,None,,,,,,,1330.4246694869362,None,1330.6081709968857,1330.6246575508267,,,,,,,166,001,2024_Feb_22_1600,SpeechDraft1Carolyn_lessNoise_PlusLocalization,2021.2.3,59.81271167420278,
,,,,,,,,farRight,19.1,4,ch1Sound_localizationTask.wav,19.1,"(1237, 878)","(277,-202)",285,-338,,,,,,,,,,,,,0,2,2,6,,,,,,,,,,,,,,,,,,,,,,,,,,,,,,,,,,,,,,,,1333.1746727828868,None,,,1336.1910525658168,None,1.6164021164021163,0.7829635129310191,1336.1910525658168,None,,,,,,,1334.174579277169,None,1334.358125665225,1334.3746178951114,,,,,,,166,001,2024_Feb_22_1600,SpeechDraft1Carolyn_lessNoise_PlusLocalization,2021.2.3,59.81271167420278,
,,,,,,,,nearRight,6.5,0,ch1Sound_localizationTask.wav,6.5,"(1047, 878)","(87, -202)",95,-338,,,,,,,,,,,,,0,3,3,4,,,,,,,,,,,,,,,,,,,,,,,,,,,,,,,,,,,,,,,,1336.974605040159,None,,,1339.991050214041,None,1.535978835978836,0.8314975337125361,1339.991050214041,None,,,,,,,1337.974893933162,None,1338.157948737964,1338.1745756980963,,,,,,,166,001,2024_Feb_22_1600,SpeechDraft1Carolyn_lessNoise_PlusLocalization,2021.2.3,59.81271167420278,
,,,,,,,,nearRight,6.5,0,ch1Sound_localizationTask.wav,6.5,"(1047, 878)","(87, -202)",95,-338,,,,,,,,,,,,,0,4,4,4,,,,,,,,,,,,,,,,,,,,,,,,,,,,,,,,,,,,,,,,1340.8247105358168,None,,,1343.841375921853,None,1.5518518518518518,0.8325940389186144,1343.841375921853,None,,,,,,,1341.8247442389838,None,1342.0078286561184,1342.0246353400871,,,,,,,166,001,2024_Feb_22_1600,SpeechDraft1Carolyn_lessNoise_PlusLocalization,2021.2.3,59.81271167420278,
,,,,,,,,nearRight,6.5,0,ch1Sound_localizationTask.wav,6.5,"(1047, 878)","(87, -202)",95,-338,,,,,,,,,,,,,0,5,5,4,,,,,,,,,,,,,,,,,,,,,,,,,,,,,,,,,,,,,,,,1344.6746013890952,None,,,1347.6910133180209,None,1.5312169312169313,0.7159749940037727,1347.6910133180209,None,,,,,,,1345.6746311360039,None,1345.8579079080373,1345.8747129938565,,,,,,,166,001,2024_Feb_22_1600,SpeechDraft1Carolyn_lessNoise_PlusLocalization,2021.2.3,59.81271167420278,
,,,,,,,,midRight,13.0,3,ch1Sound_localizationTask.wav,13.0,"(1142, 878)","(182, -202)",190,-338,,,,,,,,,,,,,0,6,6,5,,,,,,,,,,,,,,,,,,,,,,,,,,,,,,,,,,,,,,,,1348.4081890918314,None,,,1351.4243544889614,None,1.5756613756613755,0.8992703049443662,1351.4243544889614,None,,,,,,,1349.4078925168142,None,1349.591548350174,1349.6082712891512,,,,,,,166,001,2024_Feb_22_1600,SpeechDraft1Carolyn_lessNoise_PlusLocalization,2021.2.3,59.81271167420278,
,,,,,,,,center,0.0,6,ch1Sound_localizationTask.wav,0.0,"(952, 878)","(-8,-202)",0,-338,,,,,,,,,,,,,1,0,7,3,,,,,,,,,,,,,,,,,,,,,,,,,,,,,,,,,,,,,,,,1352.325386235956,None,,,1355.3409700519405,None,1.4994708994708994,0.8322575460188091,1355.3409700519405,None,,,,,,,1353.3246161141433,None,1353.508092252072,1353.52458523307,,,,,,,166,001,2024_Feb_22_1600,SpeechDraft1Carolyn_lessNoise_PlusLocalization,2021.2.3,59.81271167420278,
,,,,,,,,nearRight,6.5,0,ch1Sound_localizationTask.wav,6.5,"(1047, 878)","(87, -202)",95,-338,,,,,,,,,,,,,1,1,8,4,,,,,,,,,,,,,,,,,,,,,,,,,,,,,,,,,,,,,,,,1356.1748805148527,None,,,1359.1910756737925,None,1.5534391534391534,0.8488259576261044,1359.1910756737925,None,,,,,,,1357.1746088690124,None,1357.357931673061,1357.3747361330315,,,,,,,166,001,2024_Feb_22_1600,SpeechDraft1Carolyn_lessNoise_PlusLocalization,2021.2.3,59.81271167420278,
,,,,,,,,farLeft,-19.1,5,ch1Sound_localizationTask.wav,-19.1,"(667, 878)","(-293,-202)",-285,-338,,,,,,,,,,,,,1,2,9,0,,,,,,,,,,,,,,,,,,,,,,,,,,,,,,,,,,,,,,,,1360.041464466136,None,,,1363.0576900658198,None,1.3433862433862434,1.5158662577159703,1363.0576900658198,None,,,,,,,1361.041559162084,None,1361.224631457124,1361.2413317537867,,,,,,,166,001,2024_Feb_22_1600,SpeechDraft1Carolyn_lessNoise_PlusLocalization,2021.2.3,59.81271167420278,
,,,,,,,,midRight,13.0,3,ch1Sound_localizationTask.wav,13.0,"(1142, 878)","(182, -202)",190,-338,,,,,,,,,,,,,1,3,10,5,,,,,,,,,,,,,,,,,,,,,,,,,,,,,,,,,,,,,,,,1364.5748100657947,None,,,1367.5908980248496,None,1.573015873015873,1.1997430631890893,1367.5908980248496,None,,,,,,,1365.5748916477896,None,1365.7580654821359,1365.7745655318722,,,,,,,166,001,2024_Feb_22_1600,SpeechDraft1Carolyn_lessNoise_PlusLocalization,2021.2.3,59.81271167420278,
,,,,,,,,center,0.0,6,ch1Sound_localizationTask.wav,0.0,"(952, 878)","(-8,-202)",0,-338,,,,,,,,,,,,,1,4,11,3,,,,,,,,,,,,,,,,,,,,,,,,,,,,,,,,,,,,,,,,1368.7917725262232,None,,,1371.8078878307715,None,1.4835978835978836,0.8481000387109816,1371.8078878307715,None,,,,,,,1369.7913571242243,None,1369.9746827022173,1369.991316062864,,,,,,,166,001,2024_Feb_22_1600,SpeechDraft1Carolyn_lessNoise_PlusLocalization,2021.2.3,59.81271167420278,
,,,,,,,,nearLeft,-6.5,1,ch1Sound_localizationTask.wav,-6.5,"(857, 878)","(-103,-202)",-95,-338,,,,,,,,,,,,,1,5,12,2,,,,,,,,,,,,,,,,,,,,,,,,,,,,,,,,,,,,,,,,1372.6580736399628,None,,,1375.6744040302,None,1.4523809523809523,0.7987749557942152,1375.6744040302,None,,,,,,,1373.6579311979003,None,1373.841264620889,1373.8579699401744,,,,,,,166,001,2024_Feb_22_1600,SpeechDraft1Carolyn_lessNoise_PlusLocalization,2021.2.3,59.81271167420278,
,,,,,,,,midRight,13.0,3,ch1Sound_localizationTask.wav,13.0,"(1142, 878)","(182, -202)",190,-338,,,,,,,,,,,,,1,6,13,5,,,,,,,,,,,,,,,,,,,,,,,,,,,,,,,,,,,,,,,,1376.474825462792,None,,,1379.4912778032012,None,1.5973544973544973,1.0664876163937151,1379.4912778032012,None,,,,,,,1377.474730573129,None,1377.6579343117774,1377.67469700519,,,,,,,166,001,2024_Feb_22_1600,SpeechDraft1Carolyn_lessNoise_PlusLocalization,2021.2.3,59.81271167420278,
,,,,,,,,farRight,19.1,4,ch1Sound_localizationTask.wav,19.1,"(1237, 878)","(277,-202)",285,-338,,,,,,,,,,,,,2,0,14,6,,,,,,,,,,,,,,,,,,,,,,,,,,,,,,,,,,,,,,,,1380.5583411799744,None,,,1383.5743223181926,None,1.6465608465608466,0.8160816021263599,1383.5743223181926,None,,,,,,,1381.557966568973,None,1381.7413165471517,1381.7582882838324,,,,,,,166,001,2024_Feb_22_1600,SpeechDraft1Carolyn_lessNoise_PlusLocalization,2021.2.3,59.81271167420278,
,,,,,,,,center,0.0,6,ch1Sound_localizationTask.wav,0.0,"(952, 878)","(-8,-202)",0,-338,,,,,,,,,,,,,2,1,15,3,,,,,,,,,,,,,,,,,,,,,,,,,,,,,,,,,,,,,,,,1384.3913067998365,None,,,1387.4079125160351,None,1.5,0.9160596719011664,1387.4079125160351,None,,,,,,,1385.3914359109476,None,1385.5749643458985,1385.5912560210563,,,,,,,166,001,2024_Feb_22_1600,SpeechDraft1Carolyn_lessNoise_PlusLocalization,2021.2.3,59.81271167420278,
,,,,,,,,nearRight,6.5,0,ch1Sound_localizationTask.wav,6.5,"(1047, 878)","(87, -202)",95,-338,,,,,,,,,,,,,2,2,16,4,,,,,,,,,,,,,,,,,,,,,,,,,,,,,,,,,,,,,,,,1388.3249494419433,None,,,1391.3411488831043,None,1.5402116402116404,1.081998982001096,1391.3411488831043,None,,,,,,,1389.3246776480228,None,1389.508027778007,1389.5247463472188,,,,,,,166,001,2024_Feb_22_1600,SpeechDraft1Carolyn_lessNoise_PlusLocalization,2021.2.3,59.81271167420278,
,,,,,,,,nearLeft,-6.5,1,ch1Sound_localizationTask.wav,-6.5,"(857, 878)","(-103,-202)",-95,-338,,,,,,,,,,,,,2,3,17,2,,,,,,,,,,,,,,,,,,,,,,,,,,,,,,,,,,,,,,,,1392.424953544978,None,,,1395.4411555291153,None,1.4671957671957672,1.1660721502266824,1395.4411555291153,None,,,,,,,1393.4246920058504,None,1393.6079639210366,1393.6247284840792,,,,,,,166,001,2024_Feb_22_1600,SpeechDraft1Carolyn_lessNoise_PlusLocalization,2021.2.3,59.81271167420278,
,,,,,,,,nearLeft,-6.5,1,ch1Sound_localizationTask.wav,-6.5,"(857, 878)","(-103,-202)",-95,-338,,,,,,,,,,,,,2,4,18,2,,,,,,,,,,,,,,,,,,,,,,,,,,,,,,,,,,,,,,,,1396.6082250601612,None,,,1399.6247036289424,None,1.4476190476190476,2.8495372273027897,1399.6247036289424,None,,,,,,,1397.6081801289693,None,1397.7913858960383,1397.8081698538736,,,,,,,166,001,2024_Feb_22_1600,SpeechDraft1Carolyn_lessNoise_PlusLocalization,2021.2.3,59.81271167420278,
,,,,,,,,farLeft,-19.1,5,ch1Sound_localizationTask.wav,-19.1,"(667, 878)","(-293,-202)",-285,-338,,,,,,,,,,,,,2,5,19,0,,,,,,,,,,,,,,,,,,,,,,,,,,,,,,,,,,,,,,,,1402.474782099016,None,,,1405.4910179129802,None,1.3037037037037038,0.9984600841999054,1405.4910179129802,None,,,,,,,1403.4747002702206,None,1403.658178716898,1403.6747706918977,,,,,,,166,001,2024_Feb_22_1600,SpeechDraft1Carolyn_lessNoise_PlusLocalization,2021.2.3,59.81271167420278,
,,,,,,,,farRight,19.1,4,ch1Sound_localizationTask.wav,19.1,"(1237, 878)","(277,-202)",285,-338,,,,,,,,,,,,,2,6,20,6,,,,,,,,,,,,,,,,,,,,,,,,,,,,,,,,,,,,,,,,1406.4916630499065,None,,,1409.5077812159434,None,1.6391534391534393,1.1814078260213137,1409.5077812159434,None,,,,,,,1407.4913546908647,None,1407.6748747639358,1407.691515239887,,,,,,,166,001,2024_Feb_22_1600,SpeechDraft1Carolyn_lessNoise_PlusLocalization,2021.2.3,59.81271167420278,
,,,,,,,,nearLeft,-6.5,1,ch1Sound_localizationTask.wav,-6.5,"(857, 878)","(-103,-202)",-95,-338,,,,,,,,,,,,,3,0,21,2,,,,,,,,,,,,,,,,,,,,,,,,,,,,,,,,,,,,,,,,1410.6913279551081,None,,,1413.7077210322022,None,1.4481481481481482,0.8153357999399304,1413.7077210322022,None,,,,,,,1411.6917178542353,None,1411.8748283591121,1411.891501128208,,,,,,,166,001,2024_Feb_22_1600,SpeechDraft1Carolyn_lessNoise_PlusLocalization,2021.2.3,59.81271167420278,
,,,,,,,,center,0.0,6,ch1Sound_localizationTask.wav,0.0,"(952, 878)","(-8,-202)",0,-338,,,,,,,,,,,,,3,1,22,3,,,,,,,,,,,,,,,,,,,,,,,,,,,,,,,,,,,,,,,,1414.5249820728786,None,,,1417.5410600388423,None,1.5137566137566139,0.6497276849113405,1417.5410600388423,None,,,,,,,1415.5249673761427,None,1415.7084009191021,1415.7247259807773,,,,,,,166,001,2024_Feb_22_1600,SpeechDraft1Carolyn_lessNoise_PlusLocalization,2021.2.3,59.81271167420278,
,,,,,,,,midLeft,-13.0,2,ch1Sound_localizationTask.wav,-13.0,"(762, 878)","(-198,-202)",-190,-338,,,,,,,,,,,,,3,2,23,1,,,,,,,,,,,,,,,,,,,,,,,,,,,,,,,,,,,,,,,,1418.1916546900757,None,,,1421.2079197359271,None,1.3851851851851853,1.1494401912204921,1421.2079197359271,None,,,,,,,1419.1913155158982,None,1419.3747710930184,1419.3913032468408,,,,,,,166,001,2024_Feb_22_1600,SpeechDraft1Carolyn_lessNoise_PlusLocalization,2021.2.3,59.81271167420278,
,,,,,,,,center,0.0,6,ch1Sound_localizationTask.wav,0.0,"(952, 878)","(-8,-202)",0,-338,,,,,,,,,,,,,3,3,24,3,,,,,,,,,,,,,,,,,,,,,,,,,,,,,,,,,,,,,,,,1422.3750750939362,None,,,1425.3912182371132,None,1.494179894179894,0.765581042971462,1425.3912182371132,None,,,,,,,1423.374845338054,None,1423.5580556038767,1423.5750913377851,,,,,,,166,001,2024_Feb_22_1600,SpeechDraft1Carolyn_lessNoise_PlusLocalization,2021.2.3,59.81271167420278,
,,,,,,,,farRight,19.1,4,ch1Sound_localizationTask.wav,19.1,"(1237, 878)","(277,-202)",285,-338,,,,,,,,,,,,,3,4,25,6,,,,,,,,,,,,,,,,,,,,,,,,,,,,,,,,,,,,,,,,1426.1582618718967,None,,,1429.1747400080785,None,1.6576719576719576,0.7316131237894297,1429.1747400080785,None,,,,,,,1427.1580179859884,None,1427.3416849919595,1427.3580100620165,,,,,,,166,001,2024_Feb_22_1600,SpeechDraft1Carolyn_lessNoise_PlusLocalization,2021.2.3,59.81271167420278,
,,,,,,,,farLeft,-19.1,5,ch1Sound_localizationTask.wav,-19.1,"(667, 878)","(-293,-202)",-285,-338,,,,,,,,,,,,,3,5,26,0,,,,,,,,,,,,,,,,,,,,,,,,,,,,,,,,,,,,,,,,1429.9083113567904,None,,,1432.924619603902,None,1.3105820105820105,1.1653387742117047,1432.924619603902,None,,,,,,,1430.90807253588,None,1431.0915816570632,1431.1080237701535,,,,,,,166,001,2024_Feb_22_1600,SpeechDraft1Carolyn_lessNoise_PlusLocalization,2021.2.3,59.81271167420278,
,,,,,,,,nearRight,6.5,0,ch1Sound_localizationTask.wav,6.5,"(1047, 878)","(87, -202)",95,-338,,,,,,,,,,,,,3,6,27,4,,,,,,,,,,,,,,,,,,,,,,,,,,,,,,,,,,,,,,,,1434.0916322851554,None,,,1437.1080310689285,None,1.5428571428571427,1.332609892822802,1437.1080310689285,None,,,,,,,1435.0913927718066,None,1435.2747147241607,1435.291415473912,,,,,,,166,001,2024_Feb_22_1600,SpeechDraft1Carolyn_lessNoise_PlusLocalization,2021.2.3,59.81271167420278,
,,,,,,,,midLeft,-13.0,2,ch1Sound_localizationTask.wav,-13.0,"(762, 878)","(-198,-202)",-190,-338,,,,,,,,,,,,,4,0,28,1,,,,,,,,,,,,,,,,,,,,,,,,,,,,,,,,,,,,,,,,1438.4413823611103,None,,,1441.4578890558332,None,1.3814814814814815,0.9647175869904459,1441.4578890558332,None,,,,,,,1439.4413978750817,None,1439.6250353688374,1439.6416736338288,,,,,,,166,001,2024_Feb_22_1600,SpeechDraft1Carolyn_lessNoise_PlusLocalization,2021.2.3,59.81271167420278,
,,,,,,,,farLeft,-19.1,5,ch1Sound_localizationTask.wav,-19.1,"(667, 878)","(-293,-202)",-285,-338,,,,,,,,,,,,,4,1,29,0,,,,,,,,,,,,,,,,,,,,,,,,,,,,,,,,,,,,,,,,1442.4250875669532,None,,,1445.4411240802146,None,1.32010582010582,1.6654600640758872,1445.4411240802146,None,,,,,,,1443.425053422805,None,1443.6080748820677,1443.6247400939465,,,,,,,166,001,2024_Feb_22_1600,SpeechDraft1Carolyn_lessNoise_PlusLocalization,2021.2.3,59.81271167420278,
,,,,,,,,nearLeft,-6.5,1,ch1Sound_localizationTask.wav,-6.5,"(857, 878)","(-103,-202)",-95,-338,,,,,,,,,,,,,4,2,30,2,,,,,,,,,,,,,,,,,,,,,,,,,,,,,,,,,,,,,,,,1447.108048651833,None,,,1450.1245855940506,None,1.4661375661375662,1.1658465308137238,1450.1245855940506,None,,,,,,,1448.1083521791734,None,1448.2914106589742,1448.3080571601167,,,,,,,166,001,2024_Feb_22_1600,SpeechDraft1Carolyn_lessNoise_PlusLocalization,2021.2.3,59.81271167420278,
,,,,,,,,farRight,19.1,4,ch1Sound_localizationTask.wav,19.1,"(1237, 878)","(277,-202)",285,-338,,,,,,,,,,,,,4,3,31,6,,,,,,,,,,,,,,,,,,,,,,,,,,,,,,,,,,,,,,,,1451.2916660699993,None,,,1454.3079108297825,None,1.6481481481481481,0.7843788769096136,1454.3079108297825,None,,,,,,,1452.2915367260575,None,1452.4748774608597,1452.4915352379903,,,,,,,166,001,2024_Feb_22_1600,SpeechDraft1Carolyn_lessNoise_PlusLocalization,2021.2.3,59.81271167420278,
,,,,,,,,nearLeft,-6.5,1,ch1Sound_localizationTask.wav,-6.5,"(857, 878)","(-103,-202)",-95,-338,,,,,,,,,,,,,4,4,32,2,,,,,,,,,,,,,,,,,,,,,,,,,,,,,,,,,,,,,,,,1455.10811989801,None,,,1458.1246173228137,None,1.4137566137566138,0.7650880101136863,1458.1246173228137,None,,,,,,,1456.1082810289226,None,1456.2917600399815,1456.3079996379092,,,,,,,166,001,2024_Feb_22_1600,SpeechDraft1Carolyn_lessNoise_PlusLocalization,2021.2.3,59.81271167420278,
,,,,,,,,center,0.0,6,ch1Sound_localizationTask.wav,0.0,"(952, 878)","(-8,-202)",0,-338,,,,,,,,,,,,,4,5,33,3,,,,,,,,,,,,,,,,,,,,,,,,,,,,,,,,,,,,,,,,1458.8915028898045,None,,,1461.9079224672168,None,1.4952380952380953,0.9990063640289009,1461.9079224672168,None,,,,,,,1459.8918386590667,None,1460.0751657648943,1460.0918371300213,,,,,,,166,001,2024_Feb_22_1600,SpeechDraft1Carolyn_lessNoise_PlusLocalization,2021.2.3,59.81271167420278,
,,,,,,,,midRight,13.0,3,ch1Sound_localizationTask.wav,13.0,"(1142, 878)","(182, -202)",190,-338,,,,,,,,,,,,,4,6,34,5,,,,,,,,,,,,,,,,,,,,,,,,,,,,,,,,,,,,,,,,1462.9081385871395,None,,,1465.9245480000973,None,1.5952380952380953,1.049760386813432,1465.9245480000973,None,,,,,,,1463.908395532053,None,1464.0914011308923,1464.1081560389139,,,,,,,166,001,2024_Feb_22_1600,SpeechDraft1Carolyn_lessNoise_PlusLocalization,2021.2.3,59.81271167420278,
,,,,,,,,nearLeft,-6.5,1,ch1Sound_localizationTask.wav,-6.5,"(857, 878)","(-103,-202)",-95,-338,,,,,,,,,,,,,5,0,35,2,,,,,,,,,,,,,,,,,,,,,,,,,,,,,,,,,,,,,,,,1466.9751728898846,None,,,1469.991235413123,None,1.4566137566137567,1.1830933280289173,1469.991235413123,None,,,,,,,1467.974920105189,None,1468.1581670260057,1468.174828294199,,,,,,,166,001,2024_Feb_22_1600,SpeechDraft1Carolyn_lessNoise_PlusLocalization,2021.2.3,59.81271167420278,
,,,,,,,,farRight,19.1,4,ch1Sound_localizationTask.wav,19.1,"(1237, 878)","(277,-202)",285,-338,,,,,,,,,,,,,5,1,36,6,,,,,,,,,,,,,,,,,,,,,,,,,,,,,,,,,,,,,,,,1471.175239500124,None,,,1474.191276817117,None,1.6174603174603175,1.031833132263273,1474.191276817117,None,,,,,,,1472.17504577199,None,1472.358320422005,1472.3750941609032,,,,,,,166,001,2024_Feb_22_1600,SpeechDraft1Carolyn_lessNoise_PlusLocalization,2021.2.3,59.81271167420278,
,,,,,,,,farLeft,-19.1,5,ch1Sound_localizationTask.wav,-19.1,"(667, 878)","(-293,-202)",-285,-338,,,,,,,,,,,,,5,2,37,0,,,,,,,,,,,,,,,,,,,,,,,,,,,,,,,,,,,,,,,,1475.225009966176,None,,,1478.241196278017,None,1.28994708994709,0.8325909348204732,1478.241196278017,None,,,,,,,1476.2251551328227,None,1476.4081775038503,1476.424829363823,,,,,,,166,001,2024_Feb_22_1600,SpeechDraft1Carolyn_lessNoise_PlusLocalization,2021.2.3,59.81271167420278,
,,,,,,,,farLeft,-19.1,5,ch1Sound_localizationTask.wav,-19.1,"(667, 878)","(-293,-202)",-285,-338,,,,,,,,,,,,,5,3,38,0,,,,,,,,,,,,,,,,,,,,,,,,,,,,,,,,,,,,,,,,1479.0747987772338,None,,,1482.0912337708287,None,1.3656084656084655,0.9656989090144634,1482.0912337708287,None,,,,,,,1480.0747979087755,None,1480.2580673038028,1480.2748855692334,,,,,,,166,001,2024_Feb_22_1600,SpeechDraft1Carolyn_lessNoise_PlusLocalization,2021.2.3,59.81271167420278,
,,,,,,,,center,0.0,6,ch1Sound_localizationTask.wav,0.0,"(952, 878)","(-8,-202)",0,-338,,,,,,,,,,,,,5,4,39,3,,,,,,,,,,,,,,,,,,,,,,,,,,,,,,,,,,,,,,,,1483.0581291690469,None,,,1486.0746618011035,None,1.498941798941799,0.7648616707883775,1486.0746618011035,None,,,,,,,1484.058175924234,None,1484.2415273198858,1484.258156017866,,,,,,,166,001,2024_Feb_22_1600,SpeechDraft1Carolyn_lessNoise_PlusLocalization,2021.2.3,59.81271167420278,
,,,,,,,,midLeft,-13.0,2,ch1Sound_localizationTask.wav,-13.0,"(762, 878)","(-198,-202)",-190,-338,,,,,,,,,,,,,5,5,40,1,,,,,,,,,,,,,,,,,,,,,,,,,,,,,,,,,,,,,,,,1486.841532487888,None,,,1489.8580329981633,None,1.3608465608465607,0.8151480960659683,1489.8580329981633,None,,,,,,,1487.8415655279532,None,1488.0247850441374,1488.0414342721924,,,,,,,166,001,2024_Feb_22_1600,SpeechDraft1Carolyn_lessNoise_PlusLocalization,2021.2.3,59.81271167420278,
,,,,,,,,farLeft,-19.1,5,ch1Sound_localizationTask.wav,-19.1,"(667, 878)","(-293,-202)",-285,-338,,,,,,,,,,,,,5,6,41,0,,,,,,,,,,,,,,,,,,,,,,,,,,,,,,,,,,,,,,,,1490.6747044548392,None,,,1493.6912531810813,None,1.3407407407407408,0.8499870970845222,1493.6912531810813,None,,,,,,,1491.6748116752133,None,1491.8582296278328,1491.8748171748593,,,,,,,166,001,2024_Feb_22_1600,SpeechDraft1Carolyn_lessNoise_PlusLocalization,2021.2.3,59.81271167420278,
,,,,,,,,midLeft,-13.0,2,ch1Sound_localizationTask.wav,-13.0,"(762, 878)","(-198,-202)",-190,-338,,,,,,,,,,,,,6,0,42,1,,,,,,,,,,,,,,,,,,,,,,,,,,,,,,,,,,,,,,,,1494.541689320933,None,,,1497.5579589880072,None,1.408994708994709,0.8830751879140735,1497.5579589880072,None,,,,,,,1495.5415248190984,None,1495.7250985968858,1495.7415188681334,,,,,,,166,001,2024_Feb_22_1600,SpeechDraft1Carolyn_lessNoise_PlusLocalization,2021.2.3,59.81271167420278,
,,,,,,,,center,0.0,6,ch1Sound_localizationTask.wav,0.0,"(952, 878)","(-8,-202)",0,-338,,,,,,,,,,,,,6,1,43,3,,,,,,,,,,,,,,,,,,,,,,,,,,,,,,,,,,,,,,,,1498.4416806809604,None,,,1501.4579982138239,None,1.5010582010582012,0.8825654918327928,1501.4579982138239,None,,,,,,,1499.441522573121,None,1499.6247917981818,1499.6415041862056,,,,,,,166,001,2024_Feb_22_1600,SpeechDraft1Carolyn_lessNoise_PlusLocalization,2021.2.3,59.81271167420278,
,,,,,,,,nearRight,6.5,0,ch1Sound_localizationTask.wav,6.5,"(1047, 878)","(87, -202)",95,-338,,,,,,,,,,,,,6,2,44,4,,,,,,,,,,,,,,,,,,,,,,,,,,,,,,,,,,,,,,,,1502.34191395808,None,,,1505.3578590438701,None,1.5666666666666667,0.9653996960259974,1505.3578590438701,None,,,,,,,1503.3414870458655,None,1503.5248941150494,1503.5416076448746,,,,,,,166,001,2024_Feb_22_1600,SpeechDraft1Carolyn_lessNoise_PlusLocalization,2021.2.3,59.81271167420278,
,,,,,,,,midLeft,-13.0,2,ch1Sound_localizationTask.wav,-13.0,"(762, 878)","(-198,-202)",-190,-338,,,,,,,,,,,,,6,3,45,1,,,,,,,,,,,,,,,,,,,,,,,,,,,,,,,,,,,,,,,,1506.3248783098534,None,,,1509.3413090561517,None,1.380952380952381,1.0159355159848928,1509.3413090561517,None,,,,,,,1507.3248872640543,None,1507.508294314146,1507.5250621731393,,,,,,,166,001,2024_Feb_22_1600,SpeechDraft1Carolyn_lessNoise_PlusLocalization,2021.2.3,59.81271167420278,
,,,,,,,,midRight,13.0,3,ch1Sound_localizationTask.wav,13.0,"(1142, 878)","(182, -202)",190,-338,,,,,,,,,,,,,6,4,46,5,,,,,,,,,,,,,,,,,,,,,,,,,,,,,,,,,,,,,,,,1510.358219918795,None,,,1513.374674173072,None,1.6026455026455027,0.8993171970359981,1513.374674173072,None,,,,,,,1511.358170425985,None,1511.5416200701147,1511.5582284000702,,,,,,,166,001,2024_Feb_22_1600,SpeechDraft1Carolyn_lessNoise_PlusLocalization,2021.2.3,59.81271167420278,
,,,,,,,,nearRight,6.5,0,ch1Sound_localizationTask.wav,6.5,"(1047, 878)","(87, -202)",95,-338,,,,,,,,,,,,,6,5,47,4,,,,,,,,,,,,,,,,,,,,,,,,,,,,,,,,,,,,,,,,1514.2751063080505,None,,,1517.2914877030998,None,1.5708994708994708,0.7651227582246065,1517.2914877030998,None,,,,,,,1515.2749623600394,None,1515.4582691760734,1515.4750307728536,,,,,,,166,001,2024_Feb_22_1600,SpeechDraft1Carolyn_lessNoise_PlusLocalization,2021.2.3,59.81271167420278,
,,,,,,,,nearLeft,-6.5,1,ch1Sound_localizationTask.wav,-6.5,"(857, 878)","(-103,-202)",-95,-338,,,,,,,,,,,,,6,6,48,2,,,,,,,,,,,,,,,,,,,,,,,,,,,,,,,,,,,,,,,,1518.0584624041803,None,,,1521.0745833371766,None,1.4608465608465608,0.9162831627763808,1521.0745833371766,None,,,,,,,1519.0586793590337,None,1519.2415725900792,1519.2585882269777,,,,,,,166,001,2024_Feb_22_1600,SpeechDraft1Carolyn_lessNoise_PlusLocalization,2021.2.3,59.81271167420278,
,,,,,,,,midRight,13.0,3,ch1Sound_localizationTask.wav,13.0,"(1142, 878)","(182, -202)",190,-338,,,,,,,,,,,,,7,0,49,5,,,,,,,,,,,,,,,,,,,,,,,,,,,,,,,,,,,,,,,,1521.9918229398318,None,,,1525.0083268620074,None,1.6037037037037036,0.8824271489866078,1525.0083268620074,None,,,,,,,1522.9915643939748,None,1523.1749206390232,1523.1915877019055,,,,,,,166,001,2024_Feb_22_1600,SpeechDraft1Carolyn_lessNoise_PlusLocalization,2021.2.3,59.81271167420278,
,,,,,,,,farRight,19.1,4,ch1Sound_localizationTask.wav,19.1,"(1237, 878)","(277,-202)",285,-338,,,,,,,,,,,,,7,1,50,6,,,,,,,,,,,,,,,,,,,,,,,,,,,,,,,,,,,,,,,,1525.8917719721794,None,,,1528.9079813300632,None,1.6661375661375661,1.0327777732163668,1528.9079813300632,None,,,,,,,1526.8916325247847,None,1527.0749214780517,1527.0915585509501,,,,,,,166,001,2024_Feb_22_1600,SpeechDraft1Carolyn_lessNoise_PlusLocalization,2021.2.3,59.81271167420278,
,,,,,,,,farLeft,-19.1,5,ch1Sound_localizationTask.wav,-19.1,"(667, 878)","(-293,-202)",-285,-338,,,,,,,,,,,,,7,2,51,0,,,,,,,,,,,,,,,,,,,,,,,,,,,,,,,,,,,,,,,,1529.9415879291482,None,,,1532.9579176758416,None,1.3412698412698414,1.032999699935317,1532.9579176758416,None,,,,,,,1530.9417050350457,None,1531.1250676298514,1531.1416683262214,,,,,,,166,001,2024_Feb_22_1600,SpeechDraft1Carolyn_lessNoise_PlusLocalization,2021.2.3,59.81271167420278,
,,,,,,,,midRight,13.0,3,ch1Sound_localizationTask.wav,13.0,"(1142, 878)","(182, -202)",190,-338,,,,,,,,,,,,,7,3,52,5,,,,,,,,,,,,,,,,,,,,,,,,,,,,,,,,,,,,,,,,1533.9917526468635,None,,,1537.0080680591054,None,1.6137566137566137,0.8990079942159355,1537.0080680591054,None,,,,,,,1534.9915915601887,None,1535.1750933900476,1535.191581318155,,,,,,,166,001,2024_Feb_22_1600,SpeechDraft1Carolyn_lessNoise_PlusLocalization,2021.2.3,59.81271167420278,
,,,,,,,,midRight,13.0,3,ch1Sound_localizationTask.wav,13.0,"(1142, 878)","(182, -202)",190,-338,,,,,,,,,,,,,7,4,53,5,,,,,,,,,,,,,,,,,,,,,,,,,,,,,,,,,,,,,,,,1537.9084251280874,None,,,1540.9246357232332,None,1.6153439153439153,2.2160974917933345,1540.9246357232332,None,,,,,,,1538.9082188820466,None,1539.0918941400014,1539.108265069779,,,,,,,166,001,2024_Feb_22_1600,SpeechDraft1Carolyn_lessNoise_PlusLocalization,2021.2.3,59.81271167420278,
,,,,,,,,midLeft,-13.0,2,ch1Sound_localizationTask.wav,-13.0,"(762, 878)","(-198,-202)",-190,-338,,,,,,,,,,,,,7,5,54,1,,,,,,,,,,,,,,,,,,,,,,,,,,,,,,,,,,,,,,,,1543.1415918641724,None,,,1546.1580458912067,None,1.353968253968254,0.6655132723972201,1546.1580458912067,None,,,,,,,1544.1415487518534,None,1544.3248472418636,1544.3415633831173,,,,,,,166,001,2024_Feb_22_1600,SpeechDraft1Carolyn_lessNoise_PlusLocalization,2021.2.3,59.81271167420278,
,,,,,,,,midLeft,-13.0,2,ch1Sound_localizationTask.wav,-13.0,"(762, 878)","(-198,-202)",-190,-338,,,,,,,,,,,,,7,6,55,1,,,,,,,,,,,,,,,,,,,,,,,,,,,,,,,,,,,,,,,,1546.8248812188394,None,,,1549.841321696993,None,1.403174603174603,0.8824002901092172,1549.841321696993,None,,,,,,,1547.8249040930532,None,1548.0085035250522,1548.0248888148926,,,,,,,166,001,2024_Feb_22_1600,SpeechDraft1Carolyn_lessNoise_PlusLocalization,2021.2.3,59.81271167420278,
,,,,,,,,,,,,,,,,,,,,,,,,,,,,,,,,,,,,,,,,,,,,,,,,,,,,,,,,,,,,,,,,,,,,,,,,,,,,,,,,,,,,,,,,,,,,1550.7252964391373,None,c,200.92846601596102,1551.7082651928067,None,166,001,2024_Feb_22_1600,SpeechDraft1Carolyn_lessNoise_PlusLocalization,2021.2.3,59.81271167420278,
