Audio_Only_Files,Video_Files,Original_Word_List,noiseLevelCode,conditionCodes,noiseLevelFile1,noiseLevelFile2,InstrTextVar,targetSpeakerName,targetSpeakerEccen,targetSpkrChannel,targetSpkrSound,targetVisualDegrees,visStimLoc,visStimLoc2,visStimW,visStimH,practiceTrials.thisRepN,practiceTrials.thisTrialN,practiceTrials.thisN,practiceTrials.thisIndex,trials.thisRepN,trials.thisTrialN,trials.thisN,trials.thisIndex,audLocalLoop.thisRepN,audLocalLoop.thisTrialN,audLocalLoop.thisN,audLocalLoop.thisIndex,visualLocalLoop.thisRepN,visualLocalLoop.thisTrialN,visualLocalLoop.thisN,visualLocalLoop.thisIndex,letsGoAlready.keys,letsGoAlready.rt,letsGoAlready.started,letsGoAlready.stopped,text_2.started,text_2.stopped,text_3.started,text_3.stopped,key_resp_2.keys,key_resp_2.rt,key_resp_2.started,key_resp_2.stopped,text_5.started,text_5.stopped,fixCross.started,fixCross.stopped,fixCross2.started,fixCross2.stopped,answerPrompt.started,answerPrompt.stopped,getAnswer.text,getAnswer.started,getAnswer.stopped,goToNext.keys,goToNext.rt,goToNext.started,goToNext.stopped,stretchBreakTxrt.started,stretchBreakTxrt.stopped,key_resp_3.keys,key_resp_3.rt,key_resp_3.started,key_resp_3.stopped,letsGoLocal.keys,letsGoLocal.rt,letsGoLocal.started,letsGoLocal.stopped,text_4.started,text_4.stopped,prepFixTxt.started,prepFixTxt.stopped,prepFixTxt_2.started,prepFixTxt_2.stopped,respPromptLocal.started,respPromptLocal.stopped,slider.response,slider.rt,slider.started,slider.stopped,letsGoLocal_2.keys,letsGoLocal_2.rt,letsGoLocal_2.started,letsGoLocal_2.stopped,text_7.started,text_7.stopped,prepFixTxt_3.started,prepFixTxt_3.stopped,grating.started,grating.stopped,exitTxt.started,exitTxt.stopped,key_resp.keys,key_resp.rt,key_resp.started,key_resp.stopped,participant,session,date,expName,psychopyVersion,frameRate,
,,,,,,,,,,,,,,,,,,,,,,,,,,,,,,,,,space,148.05991860292852,63.051091944333166,None,,,,,,,,,,,,,,,,,,,,,,,,,,,,,,,,,,,,,,,,,,,,,,,,,,,,,,,,,,,,,,168,001,2024_Feb_26_1652,SpeechDraft1Carolyn_lessNoise_PlusLocalization,2021.2.3,59.89909267622205,
,,,,,,,,,,,,,,,,,,,,,,,,,,,,,,,,,,,,,63.051091944333166,None,211.23479321599007,None,space,10.773210687097162,211.4177685570903,None,,,,,,,,,,,,,,,,,,,,,,,,,,,,,,,,,,,,,,,,,,,,,,,,,,,,,,168,001,2024_Feb_26_1652,SpeechDraft1Carolyn_lessNoise_PlusLocalization,2021.2.3,59.89909267622205,
ash.wav,ash.mpg,ash,1,A,Pink_Noise_1_1.wav,Pink_Noise_1_2.wav,"This is an example of an

AUDIO trial",,,,,,,,,,0,0,0,0,,,,,,,,,,,,,,,,,,,,,,,,,222.25088821118698,None,223.23449032614008,None,226.45094327628613,None,227.85112547501922,None,ash,227.85112547501922,None,return,6.016493085771799,227.9345673089847,None,,,,,,,,,,,,,,,,,,,,,,,,,,,,,,,,,,,,,,,168,001,2024_Feb_26_1652,SpeechDraft1Carolyn_lessNoise_PlusLocalization,2021.2.3,59.89909267622205,
ash.wav,ash.mpg,ash,1,AV,Pink_Noise_1_1.wav,Pink_Noise_1_2.wav,"This is an example of an

AUDIO + VIDEO  trial",,,,,,,,,,0,1,1,1,,,,,,,,,,,,,,,,,,,,,,,,,233.98440436832607,None,234.98446055594832,None,236.46761579997838,None,237.8510674322024,None,ash,237.8510674322024,None,return,4.056542832870036,237.93460182193667,None,,,,,,,,,,,,,,,,,,,,,,,,,,,,,,,,,,,,,,,168,001,2024_Feb_26_1652,SpeechDraft1Carolyn_lessNoise_PlusLocalization,2021.2.3,59.89909267622205,
,,,,,,,,,,,,,,,,,,,,,,,,,,,,,,,,,,,,,,,,,,,,,,,,,,,,,,,,,,,,242.03432817896828,None,space,6.693045599851757,242.21792126912624,None,,,,,,,,,,,,,,,,,,,,,,,,,,,,,,,,,168,001,2024_Feb_26_1652,SpeechDraft1Carolyn_lessNoise_PlusLocalization,2021.2.3,59.89909267622205,
dip.wav,dip.mpg,dip,4,AV,Pink_Noise_4_1.wav,Pink_Noise_4_2.wav,,,,,,,,,,,,,,,0,0,0,107,,,,,,,,,,,,,,,,,,,,,,,248.96759769227356,None,250.45094727631658,None,251.83449380099773,None,dip,251.83449380099773,None,return,2.6091057239100337,251.91786336433142,None,,,,,,,,,,,,,,,,,,,,,,,,,,,,,,,,,,,,,,,168,001,2024_Feb_26_1652,SpeechDraft1Carolyn_lessNoise_PlusLocalization,2021.2.3,59.89909267622205,
clutch.wav,clutch.mpg,clutch,3,AV,Pink_Noise_3_1.wav,Pink_Noise_3_2.wav,,,,,,,,,,,,,,,0,1,1,108,,,,,,,,,,,,,,,,,,,,,,,254.55124104302377,None,256.0509543023072,None,257.43442195421085,None,"clutch
",257.43442195421085,None,return,2.6170737049542367,257.517920514103,None,,,,,,,,,,,,,,,,,,,,,,,,,,,,,,,,,,,,,,,168,001,2024_Feb_26_1652,SpeechDraft1Carolyn_lessNoise_PlusLocalization,2021.2.3,59.89909267622205,
grin.wav,grin.mpg,grin,3,A,Pink_Noise_3_1.wav,Pink_Noise_3_2.wav,,,,,,,,,,,,,,,0,2,2,10,,,,,,,,,,,,,,,,,,,,,,,260.1679487442598,None,261.6676090070978,None,263.05135336332023,None,rim,263.05135336332023,None,return,1.9924890212714672,263.13453852618113,None,,,,,,,,,,,,,,,,,,,,,,,,,,,,,,,,,,,,,,,168,001,2024_Feb_26_1652,SpeechDraft1Carolyn_lessNoise_PlusLocalization,2021.2.3,59.89909267622205,
groan.wav,groan.mpg,groan,1,AV,Pink_Noise_1_1.wav,Pink_Noise_1_2.wav,,,,,,,,,,,,,,,0,3,3,105,,,,,,,,,,,,,,,,,,,,,,,265.15123474411666,None,266.6510747661814,None,268.0345591651276,None,grow,268.0345591651276,None,return,2.0971285761334,268.1179538471624,None,,,,,,,,,,,,,,,,,,,,,,,,,,,,,,,,,,,,,,,168,001,2024_Feb_26_1652,SpeechDraft1Carolyn_lessNoise_PlusLocalization,2021.2.3,59.89909267622205,
dove.wav,dove.mpg,dove,1,AV,Pink_Noise_1_1.wav,Pink_Noise_1_2.wav,,,,,,,,,,,,,,,0,4,4,66,,,,,,,,,,,,,,,,,,,,,,,270.23460302036256,None,271.73440683307126,None,273.1178080881946,None,dove,273.1178080881946,None,return,0.9898585840128362,273.20124421129003,None,,,,,,,,,,,,,,,,,,,,,,,,,,,,,,,,,,,,,,,168,001,2024_Feb_26_1652,SpeechDraft1Carolyn_lessNoise_PlusLocalization,2021.2.3,59.89909267622205,
flaw.wav,flaw.mpg,flaw,5,A,Pink_Noise_5_1.wav,Pink_Noise_5_2.wav,,,,,,,,,,,,,,,0,5,5,0,,,,,,,,,,,,,,,,,,,,,,,274.2179327500053,None,275.71757511934265,None,277.1012577502988,None,war,277.1012577502988,None,return,1.0384343466721475,277.18460067920387,None,,,,,,,,,,,,,,,,,,,,,,,,,,,,,,,,,,,,,,,168,001,2024_Feb_26_1652,SpeechDraft1Carolyn_lessNoise_PlusLocalization,2021.2.3,59.89909267622205,
fond.wav,fond.mpg,fond,6,AV,Pink_Noise_6_1.wav,Pink_Noise_6_2.wav,,,,,,,,,,,,,,,0,6,6,81,,,,,,,,,,,,,,,,,,,,,,,278.2512231399305,None,279.7509275022894,None,281.1344465841539,None,far,281.1344465841539,None,return,0.7731603537686169,281.2179371039383,None,,,,,,,,,,,,,,,,,,,,,,,,,,,,,,,,,,,,,,,168,001,2024_Feb_26_1652,SpeechDraft1Carolyn_lessNoise_PlusLocalization,2021.2.3,59.89909267622205,
crisp.wav,crisp.mpg,crisp,4,AV,Pink_Noise_4_1.wav,Pink_Noise_4_2.wav,,,,,,,,,,,,,,,0,7,7,116,,,,,,,,,,,,,,,,,,,,,,,282.01791526796296,None,283.5019797720015,None,284.88461299194023,None,crisp,284.88461299194023,None,return,0.9832190568558872,284.9678623643704,None,,,,,,,,,,,,,,,,,,,,,,,,,,,,,,,,,,,,,,,168,001,2024_Feb_26_1652,SpeechDraft1Carolyn_lessNoise_PlusLocalization,2021.2.3,59.89909267622205,
green.wav,green.mpg,green,6,A,Pink_Noise_6_1.wav,Pink_Noise_6_2.wav,,,,,,,,,,,,,,,0,8,8,8,,,,,,,,,,,,,,,,,,,,,,,285.9679476651363,None,287.4676722129807,None,288.851273604203,None,tear,288.851273604203,None,return,3.616443034261465,288.9346147160977,None,,,,,,,,,,,,,,,,,,,,,,,,,,,,,,,,,,,,,,,168,001,2024_Feb_26_1652,SpeechDraft1Carolyn_lessNoise_PlusLocalization,2021.2.3,59.89909267622205,
jam.wav,jam.mpg,jam,5,AV,Pink_Noise_5_1.wav,Pink_Noise_5_2.wav,,,,,,,,,,,,,,,0,9,9,79,,,,,,,,,,,,,,,,,,,,,,,292.56801595911384,None,294.0515895243734,None,295.4345547230914,None,"jam
",295.4345547230914,None,return,2.80109263304621,295.5178875750862,None,,,,,,,,,,,,,,,,,,,,,,,,,,,,,,,,,,,,,,,168,001,2024_Feb_26_1652,SpeechDraft1Carolyn_lessNoise_PlusLocalization,2021.2.3,59.89909267622205,
burn.wav,burn.mpg,burn,1,A,Pink_Noise_1_1.wav,Pink_Noise_1_2.wav,,,,,,,,,,,,,,,0,10,10,31,,,,,,,,,,,,,,,,,,,,,,,298.3512580101378,None,299.8511117743328,None,301.2346331169829,None,"burn
",301.2346331169829,None,return,2.6170272207818925,301.3179590799846,None,,,,,,,,,,,,,,,,,,,,,,,,,,,,,,,,,,,,,,,168,001,2024_Feb_26_1652,SpeechDraft1Carolyn_lessNoise_PlusLocalization,2021.2.3,59.89909267622205,
bust.wav,bust.mpg,bust,4,A,Pink_Noise_4_1.wav,Pink_Noise_4_2.wav,,,,,,,,,,,,,,,0,11,11,41,,,,,,,,,,,,,,,,,,,,,,,303.9679909241386,None,305.4677254552953,None,306.8513071089983,None,fast,306.8513071089983,None,return,2.080441943835467,306.93460213113576,None,,,,,,,,,,,,,,,,,,,,,,,,,,,,,,,,,,,,,,,168,001,2024_Feb_26_1652,SpeechDraft1Carolyn_lessNoise_PlusLocalization,2021.2.3,59.89909267622205,
cold.wav,cold.mpg,cold,3,A,Pink_Noise_3_1.wav,Pink_Noise_3_2.wav,,,,,,,,,,,,,,,0,12,12,49,,,,,,,,,,,,,,,,,,,,,,,309.03459771024063,None,310.53449393901974,None,311.91796021023765,None,"cp;d
",311.91796021023765,None,return,0.701673989649862,312.00130883138627,None,,,,,,,,,,,,,,,,,,,,,,,,,,,,,,,,,,,,,,,168,001,2024_Feb_26_1652,SpeechDraft1Carolyn_lessNoise_PlusLocalization,2021.2.3,59.89909267622205,
tart.wav,tart.mpg,tart,1,A,Pink_Noise_1_1.wav,Pink_Noise_1_2.wav,,,,,,,,,,,,,,,0,13,13,51,,,,,,,,,,,,,,,,,,,,,,,312.73476057406515,None,314.2180440253578,None,315.6012147539295,None,tart,315.6012147539295,None,return,1.6583245606161654,315.6846453133039,None,,,,,,,,,,,,,,,,,,,,,,,,,,,,,,,,,,,,,,,168,001,2024_Feb_26_1652,SpeechDraft1Carolyn_lessNoise_PlusLocalization,2021.2.3,59.89909267622205,
due.wav,due.mpg,due,6,AV,Pink_Noise_6_1.wav,Pink_Noise_6_2.wav,,,,,,,,,,,,,,,0,14,14,98,,,,,,,,,,,,,,,,,,,,,,,317.3679777062498,None,318.8519401331432,None,320.23461817903444,None,green,320.23461817903444,None,return,4.233085959218442,320.3179686353542,None,,,,,,,,,,,,,,,,,,,,,,,,,,,,,,,,,,,,,,,168,001,2024_Feb_26_1652,SpeechDraft1Carolyn_lessNoise_PlusLocalization,2021.2.3,59.89909267622205,
duke.wav,duke.mpg,duke,2,A,Pink_Noise_2_1.wav,Pink_Noise_2_2.wav,,,,,,,,,,,,,,,0,15,15,23,,,,,,,,,,,,,,,,,,,,,,,324.5680871210061,None,326.0676716142334,None,327.45124702202156,None,duke,327.45124702202156,None,return,3.3603044128976762,327.5346657130867,None,,,,,,,,,,,,,,,,,,,,,,,,,,,,,,,,,,,,,,,168,001,2024_Feb_26_1652,SpeechDraft1Carolyn_lessNoise_PlusLocalization,2021.2.3,59.89909267622205,
two.wav,two.mpg,two,4,AV,Pink_Noise_4_1.wav,Pink_Noise_4_2.wav,,,,,,,,,,,,,,,0,16,16,67,,,,,,,,,,,,,,,,,,,,,,,330.91800419893116,None,332.4177091852762,None,333.80133609101176,None,two,333.80133609101176,None,return,2.1143670422025025,333.8846314563416,None,,,,,,,,,,,,,,,,,,,,,,,,,,,,,,,,,,,,,,,168,001,2024_Feb_26_1652,SpeechDraft1Carolyn_lessNoise_PlusLocalization,2021.2.3,59.89909267622205,
cause.wav,cause.mpg,cause,2,AV,Pink_Noise_2_1.wav,Pink_Noise_2_2.wav,,,,,,,,,,,,,,,0,17,17,110,,,,,,,,,,,,,,,,,,,,,,,336.0179454940371,None,337.5030159773305,None,338.88472044095397,None,"cars
",338.88472044095397,None,return,1.534965183120221,338.9680082080886,None,,,,,,,,,,,,,,,,,,,,,,,,,,,,,,,,,,,,,,,168,001,2024_Feb_26_1652,SpeechDraft1Carolyn_lessNoise_PlusLocalization,2021.2.3,59.89909267622205,
bless.wav,bless.mpg,bless,5,AV,Pink_Noise_5_1.wav,Pink_Noise_5_2.wav,,,,,,,,,,,,,,,0,18,18,64,,,,,,,,,,,,,,,,,,,,,,,340.5347398570739,None,342.0343540580943,None,343.4180001253262,None,math,343.4180001253262,None,return,1.60963213769719,343.50133795430884,None,,,,,,,,,,,,,,,,,,,,,,,,,,,,,,,,,,,,,,,168,001,2024_Feb_26_1652,SpeechDraft1Carolyn_lessNoise_PlusLocalization,2021.2.3,59.89909267622205,
fresh.wav,fresh.mpg,fresh,6,AV,Pink_Noise_6_1.wav,Pink_Noise_6_2.wav,,,,,,,,,,,,,,,0,19,19,87,,,,,,,,,,,,,,,,,,,,,,,345.1346587832086,None,346.63428070629016,None,348.01814707601443,None,"far
",348.01814707601443,None,return,1.817558892071247,348.1014128429815,None,,,,,,,,,,,,,,,,,,,,,,,,,,,,,,,,,,,,,,,168,001,2024_Feb_26_1652,SpeechDraft1Carolyn_lessNoise_PlusLocalization,2021.2.3,59.89909267622205,
click.wav,click.mpg,click,3,AV,Pink_Noise_3_1.wav,Pink_Noise_3_2.wav,,,,,,,,,,,,,,,0,20,20,62,,,,,,,,,,,,,,,,,,,,,,,349.9513144902885,None,351.4365679579787,None,352.81790315918624,None,click,352.81790315918624,None,return,2.345646206755191,352.90135857928544,None,,,,,,,,,,,,,,,,,,,,,,,,,,,,,,,,,,,,,,,168,001,2024_Feb_26_1652,SpeechDraft1Carolyn_lessNoise_PlusLocalization,2021.2.3,59.89909267622205,
flair.wav,flair.mpg,flair,3,A,Pink_Noise_3_1.wav,Pink_Noise_3_2.wav,,,,,,,,,,,,,,,0,21,21,37,,,,,,,,,,,,,,,,,,,,,,,355.2679567169398,None,356.76774497004226,None,358.1513877972029,None,"cla,",358.1513877972029,None,return,3.1164181609638035,358.2346364730038,None,,,,,,,,,,,,,,,,,,,,,,,,,,,,,,,,,,,,,,,168,001,2024_Feb_26_1652,SpeechDraft1Carolyn_lessNoise_PlusLocalization,2021.2.3,59.89909267622205,
boot.wav,boot.mpg,boot,2,A,Pink_Noise_2_1.wav,Pink_Noise_2_2.wav,,,,,,,,,,,,,,,0,22,22,42,,,,,,,,,,,,,,,,,,,,,,,361.36795696010813,None,362.86767015000805,None,364.2513993033208,None,boot,364.2513993033208,None,return,4.104310946073383,364.3346794382669,None,,,,,,,,,,,,,,,,,,,,,,,,,,,,,,,,,,,,,,,168,001,2024_Feb_26_1652,SpeechDraft1Carolyn_lessNoise_PlusLocalization,2021.2.3,59.89909267622205,
sock.wav,sock.mpg,sock,2,AV,Pink_Noise_2_1.wav,Pink_Noise_2_2.wav,,,,,,,,,,,,,,,0,23,23,85,,,,,,,,,,,,,,,,,,,,,,,368.46802697936073,None,369.9676760099828,None,371.35136444028467,None,spcl,371.35136444028467,None,return,5.228288047015667,371.43470722902566,None,,,,,,,,,,,,,,,,,,,,,,,,,,,,,,,,,,,,,,,168,001,2024_Feb_26_1652,SpeechDraft1Carolyn_lessNoise_PlusLocalization,2021.2.3,59.89909267622205,
gap.wav,gap.mpg,gap,5,AV,Pink_Noise_5_1.wav,Pink_Noise_5_2.wav,,,,,,,,,,,,,,,0,24,24,112,,,,,,,,,,,,,,,,,,,,,,,376.6847316911444,None,378.1843974129297,None,379.5679970961064,None,gap,379.5679970961064,None,return,3.8436407721601427,379.651363294106,None,,,,,,,,,,,,,,,,,,,,,,,,,,,,,,,,,,,,,,,168,001,2024_Feb_26_1652,SpeechDraft1Carolyn_lessNoise_PlusLocalization,2021.2.3,59.89909267622205,
glow.wav,glow.mpg,glow,3,AV,Pink_Noise_3_1.wav,Pink_Noise_3_2.wav,,,,,,,,,,,,,,,0,25,25,82,,,,,,,,,,,,,,,,,,,,,,,383.5180387860164,None,385.017841309309,None,386.4013802120462,None,glow,386.4013802120462,None,return,2.6662889160215855,386.4847363140434,None,,,,,,,,,,,,,,,,,,,,,,,,,,,,,,,,,,,,,,,168,001,2024_Feb_26_1652,SpeechDraft1Carolyn_lessNoise_PlusLocalization,2021.2.3,59.89909267622205,
crime.wav,crime.mpg,crime,3,AV,Pink_Noise_3_1.wav,Pink_Noise_3_2.wav,,,,,,,,,,,,,,,0,26,26,102,,,,,,,,,,,,,,,,,,,,,,,389.1680626561865,None,390.6677280883305,None,392.051368040964,None,crime,392.051368040964,None,return,1.4643130130134523,392.1346697942354,None,,,,,,,,,,,,,,,,,,,,,,,,,,,,,,,,,,,,,,,168,001,2024_Feb_26_1652,SpeechDraft1Carolyn_lessNoise_PlusLocalization,2021.2.3,59.89909267622205,
read.wav,read.mpg,read,6,AV,Pink_Noise_6_1.wav,Pink_Noise_6_2.wav,,,,,,,,,,,,,,,0,27,27,109,,,,,,,,,,,,,,,,,,,,,,,393.6180694573559,None,395.11778450617567,None,396.5015673143789,None,rain,396.5015673143789,None,return,4.294206080026925,396.5847711651586,None,,,,,,,,,,,,,,,,,,,,,,,,,,,,,,,,,,,,,,,168,001,2024_Feb_26_1652,SpeechDraft1Carolyn_lessNoise_PlusLocalization,2021.2.3,59.89909267622205,
fill.wav,fill.mpg,fill,2,A,Pink_Noise_2_1.wav,Pink_Noise_2_2.wav,,,,,,,,,,,,,,,0,28,28,20,,,,,,,,,,,,,,,,,,,,,,,400.9015278611332,None,402.40111331129447,None,403.7847823719494,None,"fill
",403.7847823719494,None,return,1.00290113594383,403.86807891028,None,,,,,,,,,,,,,,,,,,,,,,,,,,,,,,,,,,,,,,,168,001,2024_Feb_26_1652,SpeechDraft1Carolyn_lessNoise_PlusLocalization,2021.2.3,59.89909267622205,
wheat.wav,wheat.mpg,wheat,3,A,Pink_Noise_3_1.wav,Pink_Noise_3_2.wav,,,,,,,,,,,,,,,0,29,29,45,,,,,,,,,,,,,,,,,,,,,,,404.90135290427133,None,406.40109771536663,None,407.7847131891176,None,fleet,407.7847131891176,None,return,2.106961940880865,407.8680724520236,None,,,,,,,,,,,,,,,,,,,,,,,,,,,,,,,,,,,,,,,168,001,2024_Feb_26_1652,SpeechDraft1Carolyn_lessNoise_PlusLocalization,2021.2.3,59.89909267622205,
your.wav,your.mpg,your,6,AV,Pink_Noise_6_1.wav,Pink_Noise_6_2.wav,,,,,,,,,,,,,,,0,30,30,100,,,,,,,,,,,,,,,,,,,,,,,410.00138694327325,None,411.5010647960007,None,412.88480291096494,None,dorm,412.88480291096494,None,return,1.8390130857005715,412.9681358332746,None,,,,,,,,,,,,,,,,,,,,,,,,,,,,,,,,,,,,,,,168,001,2024_Feb_26_1652,SpeechDraft1Carolyn_lessNoise_PlusLocalization,2021.2.3,59.89909267622205,
sun.wav,sun.mpg,sun,3,A,Pink_Noise_3_1.wav,Pink_Noise_3_2.wav,,,,,,,,,,,,,,,0,31,31,59,,,,,,,,,,,,,,,,,,,,,,,414.83472696505487,None,416.3344658780843,None,417.71806230023503,None,"solve
",417.71806230023503,None,return,1.0855835359543562,417.8013833211735,None,,,,,,,,,,,,,,,,,,,,,,,,,,,,,,,,,,,,,,,168,001,2024_Feb_26_1652,SpeechDraft1Carolyn_lessNoise_PlusLocalization,2021.2.3,59.89909267622205,
flesh.wav,flesh.mpg,flesh,5,AV,Pink_Noise_5_1.wav,Pink_Noise_5_2.wav,,,,,,,,,,,,,,,0,32,32,73,,,,,,,,,,,,,,,,,,,,,,,418.91809792630374,None,420.4178323149681,None,421.80135590117425,None,"fletch
",421.80135590117425,None,return,4.050156109966338,421.88482857635245,None,,,,,,,,,,,,,,,,,,,,,,,,,,,,,,,,,,,,,,,168,001,2024_Feb_26_1652,SpeechDraft1Carolyn_lessNoise_PlusLocalization,2021.2.3,59.89909267622205,
bulb.wav,bulb.mpg,bulb,5,AV,Pink_Noise_5_1.wav,Pink_Noise_5_2.wav,,,,,,,,,,,,,,,0,33,33,72,,,,,,,,,,,,,,,,,,,,,,,425.96814178628847,None,427.4678451800719,None,428.851382965222,None,"blink
",428.851382965222,None,return,2.568201976362616,428.9347791080363,None,,,,,,,,,,,,,,,,,,,,,,,,,,,,,,,,,,,,,,,168,001,2024_Feb_26_1652,SpeechDraft1Carolyn_lessNoise_PlusLocalization,2021.2.3,59.89909267622205,
bad.wav,bad.mpg,bad,1,AV,Pink_Noise_1_1.wav,Pink_Noise_1_2.wav,,,,,,,,,,,,,,,0,34,34,77,,,,,,,,,,,,,,,,,,,,,,,431.5348269743845,None,433.0345395989716,None,434.4179805503227,None,bad,434.4179805503227,None,return,0.8816449185833335,434.5014369771816,None,,,,,,,,,,,,,,,,,,,,,,,,,,,,,,,,,,,,,,,168,001,2024_Feb_26_1652,SpeechDraft1Carolyn_lessNoise_PlusLocalization,2021.2.3,59.89909267622205,
drunk.wav,drunk.mpg,drunk,4,A,Pink_Noise_4_1.wav,Pink_Noise_4_2.wav,,,,,,,,,,,,,,,0,35,35,55,,,,,,,,,,,,,,,,,,,,,,,435.40146870026365,None,436.90107627213,None,438.2849752269685,None,drunk,438.2849752269685,None,return,0.8469060473144054,438.36813751328737,None,,,,,,,,,,,,,,,,,,,,,,,,,,,,,,,,,,,,,,,168,001,2024_Feb_26_1652,SpeechDraft1Carolyn_lessNoise_PlusLocalization,2021.2.3,59.89909267622205,
cliff.wav,cliff.mpg,cliff,4,A,Pink_Noise_4_1.wav,Pink_Noise_4_2.wav,,,,,,,,,,,,,,,0,36,36,7,,,,,,,,,,,,,,,,,,,,,,,439.23480063909665,None,440.73454640014097,None,442.11837028712034,None,cold,442.11837028712034,None,return,0.805599276907742,442.2014913801104,None,,,,,,,,,,,,,,,,,,,,,,,,,,,,,,,,,,,,,,,168,001,2024_Feb_26_1652,SpeechDraft1Carolyn_lessNoise_PlusLocalization,2021.2.3,59.89909267622205,
clog.wav,clog.mpg,clog,4,A,Pink_Noise_4_1.wav,Pink_Noise_4_2.wav,,,,,,,,,,,,,,,0,37,37,27,,,,,,,,,,,,,,,,,,,,,,,443.0348151382059,None,444.53447944903746,None,445.91813608724624,None,car,445.91813608724624,None,return,0.6294703590683639,446.00153916701674,None,,,,,,,,,,,,,,,,,,,,,,,,,,,,,,,,,,,,,,,168,001,2024_Feb_26_1652,SpeechDraft1Carolyn_lessNoise_PlusLocalization,2021.2.3,59.89909267622205,
eight.wav,eight.mpg,eight,1,A,Pink_Noise_1_1.wav,Pink_Noise_1_2.wav,,,,,,,,,,,,,,,0,38,38,52,,,,,,,,,,,,,,,,,,,,,,,446.65160917816684,None,448.1512339040637,None,449.5348156201653,None,eat,449.5348156201653,None,return,1.5729519426822662,449.61818838631734,None,,,,,,,,,,,,,,,,,,,,,,,,,,,,,,,,,,,,,,,168,001,2024_Feb_26_1652,SpeechDraft1Carolyn_lessNoise_PlusLocalization,2021.2.3,59.89909267622205,
bench.wav,bench.mpg,bench,6,A,Pink_Noise_6_1.wav,Pink_Noise_6_2.wav,,,,,,,,,,,,,,,0,39,39,46,,,,,,,,,,,,,,,,,,,,,,,451.2181538059376,None,452.71815972821787,None,454.1014627441764,None,clutch,454.1014627441764,None,return,1.3101578783243895,454.18481204938143,None,,,,,,,,,,,,,,,,,,,,,,,,,,,,,,,,,,,,,,,168,001,2024_Feb_26_1652,SpeechDraft1Carolyn_lessNoise_PlusLocalization,2021.2.3,59.89909267622205,
brow.wav,brow.mpg,brow,2,A,Pink_Noise_2_1.wav,Pink_Noise_2_2.wav,,,,,,,,,,,,,,,0,40,40,9,,,,,,,,,,,,,,,,,,,,,,,455.5182668203488,None,457.0178488260135,None,458.4015307519585,None,brown,458.4015307519585,None,return,2.298202207777649,458.4848543521948,None,,,,,,,,,,,,,,,,,,,,,,,,,,,,,,,,,,,,,,,168,001,2024_Feb_26_1652,SpeechDraft1Carolyn_lessNoise_PlusLocalization,2021.2.3,59.89909267622205,
gaze.wav,gaze.mpg,gaze,2,AV,Pink_Noise_2_1.wav,Pink_Noise_2_2.wav,,,,,,,,,,,,,,,0,41,41,99,,,,,,,,,,,,,,,,,,,,,,,460.80157495616004,None,462.30119728296995,None,463.68484685430303,None,gase,463.68484685430303,None,return,3.958878338802606,463.76809662301093,None,,,,,,,,,,,,,,,,,,,,,,,,,,,,,,,,,,,,,,,168,001,2024_Feb_26_1652,SpeechDraft1Carolyn_lessNoise_PlusLocalization,2021.2.3,59.89909267622205,
claw.wav,claw.mpg,claw,6,AV,Pink_Noise_6_1.wav,Pink_Noise_6_2.wav,,,,,,,,,,,,,,,0,42,42,97,,,,,,,,,,,,,,,,,,,,,,,467.7515800590627,None,469.2513044322841,None,470.6347809303552,None,long,470.6347809303552,None,return,2.1206698501482606,470.7183122993447,None,,,,,,,,,,,,,,,,,,,,,,,,,,,,,,,,,,,,,,,168,001,2024_Feb_26_1652,SpeechDraft1Carolyn_lessNoise_PlusLocalization,2021.2.3,59.89909267622205,
core.wav,core.mpg,core,4,A,Pink_Noise_4_1.wav,Pink_Noise_4_2.wav,,,,,,,,,,,,,,,0,43,43,11,,,,,,,,,,,,,,,,,,,,,,,472.8682601400651,None,474.3677911711857,None,475.7517050700262,None,bore,475.7517050700262,None,return,1.1241443362087011,475.83489787811413,None,,,,,,,,,,,,,,,,,,,,,,,,,,,,,,,,,,,,,,,168,001,2024_Feb_26_1652,SpeechDraft1Carolyn_lessNoise_PlusLocalization,2021.2.3,59.89909267622205,
dusk.wav,dusk.mpg,dusk,6,A,Pink_Noise_6_1.wav,Pink_Noise_6_2.wav,,,,,,,,,,,,,,,0,44,44,38,,,,,,,,,,,,,,,,,,,,,,,476.9848857242614,None,478.48452952923253,None,479.8682676181197,None,won't,479.8682676181197,None,return,3.327229628805071,479.9517380129546,None,,,,,,,,,,,,,,,,,,,,,,,,,,,,,,,,,,,,,,,168,001,2024_Feb_26_1652,SpeechDraft1Carolyn_lessNoise_PlusLocalization,2021.2.3,59.89909267622205,
nine.wav,nine.mpg,nine,6,AV,Pink_Noise_6_1.wav,Pink_Noise_6_2.wav,,,,,,,,,,,,,,,0,45,45,106,,,,,,,,,,,,,,,,,,,,,,,483.3014551009983,None,484.80118854437023,None,486.18497189413756,None,lie,486.18497189413756,None,return,2.154765306971967,486.26821333914995,None,,,,,,,,,,,,,,,,,,,,,,,,,,,,,,,,,,,,,,,168,001,2024_Feb_26_1652,SpeechDraft1Carolyn_lessNoise_PlusLocalization,2021.2.3,59.89909267622205,
squat.wav,squat.mpg,squat,2,A,Pink_Noise_2_1.wav,Pink_Noise_2_2.wav,,,,,,,,,,,,,,,0,46,46,12,,,,,,,,,,,,,,,,,,,,,,,488.45153269311413,None,489.9511969992891,None,491.33485594112426,None,squat,491.33485594112426,None,return,1.4767742692492902,491.4181910259649,None,,,,,,,,,,,,,,,,,,,,,,,,,,,,,,,,,,,,,,,168,001,2024_Feb_26_1652,SpeechDraft1Carolyn_lessNoise_PlusLocalization,2021.2.3,59.89909267622205,
gain.wav,gain.mpg,gain,5,A,Pink_Noise_5_1.wav,Pink_Noise_5_2.wav,,,,,,,,,,,,,,,0,47,47,43,,,,,,,,,,,,,,,,,,,,,,,492.91826829500496,None,494.41785436309874,None,495.80166729027405,None,build,495.80166729027405,None,return,7.682103401981294,495.88495163898915,None,,,,,,,,,,,,,,,,,,,,,,,,,,,,,,,,,,,,,,,168,001,2024_Feb_26_1652,SpeechDraft1Carolyn_lessNoise_PlusLocalization,2021.2.3,59.89909267622205,
bear.wav,bear.mpg,bear,3,A,Pink_Noise_3_1.wav,Pink_Noise_3_2.wav,,,,,,,,,,,,,,,0,48,48,14,,,,,,,,,,,,,,,,,,,,,,,503.5849644532427,None,505.08453495195135,None,506.46824972331524,None,bear,506.46824972331524,None,return,5.4793894831091166,506.5515904361382,None,,,,,,,,,,,,,,,,,,,,,,,,,,,,,,,,,,,,,,,168,001,2024_Feb_26_1652,SpeechDraft1Carolyn_lessNoise_PlusLocalization,2021.2.3,59.89909267622205,
bee.wav,bee.mpg,bee,5,A,Pink_Noise_5_1.wav,Pink_Noise_5_2.wav,,,,,,,,,,,,,,,0,49,49,28,,,,,,,,,,,,,,,,,,,,,,,512.051614810247,None,513.5519652552903,None,514.9349504671991,None,"eat
",514.9349504671991,None,return,0.852709140162915,515.018278485164,None,,,,,,,,,,,,,,,,,,,,,,,,,,,,,,,,,,,,,,,168,001,2024_Feb_26_1652,SpeechDraft1Carolyn_lessNoise_PlusLocalization,2021.2.3,59.89909267622205,
glue.wav,glue.mpg,glue,2,A,Pink_Noise_2_1.wav,Pink_Noise_2_2.wav,,,,,,,,,,,,,,,0,50,50,3,,,,,,,,,,,,,,,,,,,,,,,515.9017463759519,None,517.4012601110153,None,518.7849372192286,None,groove,518.7849372192286,None,return,1.6989129995927215,518.868224079255,None,,,,,,,,,,,,,,,,,,,,,,,,,,,,,,,,,,,,,,,168,001,2024_Feb_26_1652,SpeechDraft1Carolyn_lessNoise_PlusLocalization,2021.2.3,59.89909267622205,
bug.wav,bug.mpg,bug,1,AV,Pink_Noise_1_1.wav,Pink_Noise_1_2.wav,,,,,,,,,,,,,,,0,51,51,80,,,,,,,,,,,,,,,,,,,,,,,520.5849260552786,None,522.0846684402786,None,523.4682886353694,None,bug,523.4682886353694,None,return,2.743398386053741,523.5516054020263,None,,,,,,,,,,,,,,,,,,,,,,,,,,,,,,,,,,,,,,,168,001,2024_Feb_26_1652,SpeechDraft1Carolyn_lessNoise_PlusLocalization,2021.2.3,59.89909267622205,
glare.wav,glare.mpg,glare,1,AV,Pink_Noise_1_1.wav,Pink_Noise_1_2.wav,,,,,,,,,,,,,,,0,52,52,69,,,,,,,,,,,,,,,,,,,,,,,526.3182760323398,None,527.8178698043339,None,529.2015969441272,None,glare,529.2015969441272,None,return,1.2661354397423565,529.2849110350944,None,,,,,,,,,,,,,,,,,,,,,,,,,,,,,,,,,,,,,,,168,001,2024_Feb_26_1652,SpeechDraft1Carolyn_lessNoise_PlusLocalization,2021.2.3,59.89909267622205,
clean.wav,clean.mpg,clean,5,A,Pink_Noise_5_1.wav,Pink_Noise_5_2.wav,,,,,,,,,,,,,,,0,53,53,17,,,,,,,,,,,,,,,,,,,,,,,530.5682839970104,None,532.0679604620673,None,533.4516325439326,None,fuel,533.4516325439326,None,return,1.9920600331388414,533.5349107300863,None,,,,,,,,,,,,,,,,,,,,,,,,,,,,,,,,,,,,,,,168,001,2024_Feb_26_1652,SpeechDraft1Carolyn_lessNoise_PlusLocalization,2021.2.3,59.89909267622205,
fad.wav,fad.mpg,fad,6,A,Pink_Noise_6_1.wav,Pink_Noise_6_2.wav,,,,,,,,,,,,,,,0,54,54,15,,,,,,,,,,,,,,,,,,,,,,,535.5516046020202,None,537.0513984039426,None,538.4349766322412,None,"fight
",538.4349766322412,None,return,2.5366524839773774,538.5183280971833,None,,,,,,,,,,,,,,,,,,,,,,,,,,,,,,,,,,,,,,,168,001,2024_Feb_26_1652,SpeechDraft1Carolyn_lessNoise_PlusLocalization,2021.2.3,59.89909267622205,
bleed.wav,bleed.mpg,bleed,2,AV,Pink_Noise_2_1.wav,Pink_Noise_2_2.wav,,,,,,,,,,,,,,,0,55,55,111,,,,,,,,,,,,,,,,,,,,,,,541.0850295443088,None,542.5846519102342,None,543.9682497303002,None,bleed,543.9682497303002,None,return,1.5873092580586672,544.0516715482809,None,,,,,,,,,,,,,,,,,,,,,,,,,,,,,,,,,,,,,,,168,001,2024_Feb_26_1652,SpeechDraft1Carolyn_lessNoise_PlusLocalization,2021.2.3,59.89909267622205,
chin.wav,chin.mpg,chin,2,AV,Pink_Noise_2_1.wav,Pink_Noise_2_2.wav,,,,,,,,,,,,,,,0,56,56,91,,,,,,,,,,,,,,,,,,,,,,,545.6684273313731,None,547.1680589211173,None,548.5515384282917,None,chin,548.5515384282917,None,return,1.0759513601660728,548.6350184739567,None,,,,,,,,,,,,,,,,,,,,,,,,,,,,,,,,,,,,,,,168,001,2024_Feb_26_1652,SpeechDraft1Carolyn_lessNoise_PlusLocalization,2021.2.3,59.89909267622205,
dream.wav,dream.mpg,dream,1,AV,Pink_Noise_1_1.wav,Pink_Noise_1_2.wav,,,,,,,,,,,,,,,0,57,57,76,,,,,,,,,,,,,,,,,,,,,,,549.7349099749699,None,551.2346546673216,None,552.6181966490112,None,dream,552.6181966490112,None,return,2.67359660519287,552.701592956204,None,,,,,,,,,,,,,,,,,,,,,,,,,,,,,,,,,,,,,,,168,001,2024_Feb_26_1652,SpeechDraft1Carolyn_lessNoise_PlusLocalization,2021.2.3,59.89909267622205,
bat.wav,bat.mpg,bat,5,A,Pink_Noise_5_1.wav,Pink_Noise_5_2.wav,,,,,,,,,,,,,,,0,58,58,24,,,,,,,,,,,,,,,,,,,,,,,555.4016652712598,None,556.9013448981568,None,558.2849765829742,None,"blood
",558.2849765829742,None,return,1.5027187187224627,558.3682636301965,None,,,,,,,,,,,,,,,,,,,,,,,,,,,,,,,,,,,,,,,168,001,2024_Feb_26_1652,SpeechDraft1Carolyn_lessNoise_PlusLocalization,2021.2.3,59.89909267622205,
cough.wav,cough.mpg,cough,6,A,Pink_Noise_6_1.wav,Pink_Noise_6_2.wav,,,,,,,,,,,,,,,0,59,59,39,,,,,,,,,,,,,,,,,,,,,,,559.9017373621464,None,561.4014143380336,None,562.7851105369627,None,"bad
",562.7851105369627,None,return,3.6506452378816903,562.8683274951763,None,,,,,,,,,,,,,,,,,,,,,,,,,,,,,,,,,,,,,,,168,001,2024_Feb_26_1652,SpeechDraft1Carolyn_lessNoise_PlusLocalization,2021.2.3,59.89909267622205,
bin.wav,bin.mpg,bin,3,A,Pink_Noise_3_1.wav,Pink_Noise_3_2.wav,,,,,,,,,,,,,,,0,60,60,29,,,,,,,,,,,,,,,,,,,,,,,566.5516828689724,None,568.0513011449948,None,569.4349747193046,None,fill,569.4349747193046,None,return,1.2567023108713329,569.5183607111685,None,,,,,,,,,,,,,,,,,,,,,,,,,,,,,,,,,,,,,,,168,001,2024_Feb_26_1652,SpeechDraft1Carolyn_lessNoise_PlusLocalization,2021.2.3,59.89909267622205,
fuel.wav,fuel.mpg,fuel,4,AV,Pink_Noise_4_1.wav,Pink_Noise_4_2.wav,,,,,,,,,,,,,,,0,61,61,95,,,,,,,,,,,,,,,,,,,,,,,570.8016181681305,None,572.301737959031,None,573.6848973361775,None,fuel,573.6848973361775,None,return,0.9586737579666078,573.7682934151962,None,,,,,,,,,,,,,,,,,,,,,,,,,,,,,,,,,,,,,,,168,001,2024_Feb_26_1652,SpeechDraft1Carolyn_lessNoise_PlusLocalization,2021.2.3,59.89909267622205,
toast.wav,toast.mpg,toast,5,A,Pink_Noise_5_1.wav,Pink_Noise_5_2.wav,,,,,,,,,,,,,,,0,62,62,40,,,,,,,,,,,,,,,,,,,,,,,574.7516697561368,None,576.2515311720781,None,577.6352345431224,None,clutch,577.6352345431224,None,return,1.5046385549940169,577.7183613590896,None,,,,,,,,,,,,,,,,,,,,,,,,,,,,,,,,,,,,,,,168,001,2024_Feb_26_1652,SpeechDraft1Carolyn_lessNoise_PlusLocalization,2021.2.3,59.89909267622205,
grill.wav,grill.mpg,grill,5,AV,Pink_Noise_5_1.wav,Pink_Noise_5_2.wav,,,,,,,,,,,,,,,0,63,63,86,,,,,,,,,,,,,,,,,,,,,,,579.2516127303243,None,580.7681763321161,None,582.1516397441737,None,dream,582.1516397441737,None,return,1.2599802217446268,582.2350125522353,None,,,,,,,,,,,,,,,,,,,,,,,,,,,,,,,,,,,,,,,168,001,2024_Feb_26_1652,SpeechDraft1Carolyn_lessNoise_PlusLocalization,2021.2.3,59.89909267622205,
grown.wav,grown.mpg,grown,6,AV,Pink_Noise_6_1.wav,Pink_Noise_6_2.wav,,,,,,,,,,,,,,,0,64,64,78,,,,,,,,,,,,,,,,,,,,,,,583.5183458300307,None,585.0179140162654,None,586.4017323181033,None,glow,586.4017323181033,None,return,1.5779445907101035,586.4850237322971,None,,,,,,,,,,,,,,,,,,,,,,,,,,,,,,,,,,,,,,,168,001,2024_Feb_26_1652,SpeechDraft1Carolyn_lessNoise_PlusLocalization,2021.2.3,59.89909267622205,
beat.wav,beat.mpg,beat,4,AV,Pink_Noise_4_1.wav,Pink_Noise_4_2.wav,,,,,,,,,,,,,,,0,65,65,92,,,,,,,,,,,,,,,,,,,,,,,588.0850479709916,None,589.5857704081573,None,590.9683274673298,None,bit,590.9683274673298,None,return,0.915264087729156,591.0518036400899,None,,,,,,,,,,,,,,,,,,,,,,,,,,,,,,,,,,,,,,,168,001,2024_Feb_26_1652,SpeechDraft1Carolyn_lessNoise_PlusLocalization,2021.2.3,59.89909267622205,
stone.wav,stone.mpg,stone,5,A,Pink_Noise_5_1.wav,Pink_Noise_5_2.wav,,,,,,,,,,,,,,,0,66,66,50,,,,,,,,,,,,,,,,,,,,,,,591.9850169420242,None,593.4845847520046,None,594.8683525542729,None,stay,594.8683525542729,None,return,1.271311670076102,594.9516776702367,None,,,,,,,,,,,,,,,,,,,,,,,,,,,,,,,,,,,,,,,168,001,2024_Feb_26_1652,SpeechDraft1Carolyn_lessNoise_PlusLocalization,2021.2.3,59.89909267622205,
tense.wav,tense.mpg,tense,2,AV,Pink_Noise_2_1.wav,Pink_Noise_2_2.wav,,,,,,,,,,,,,,,0,67,67,65,,,,,,,,,,,,,,,,,,,,,,,596.2518892292865,None,597.751412036363,None,599.1349731879309,None,tense,599.1349731879309,None,return,0.9645938351750374,599.2184029030614,None,,,,,,,,,,,,,,,,,,,,,,,,,,,,,,,,,,,,,,,168,001,2024_Feb_26_1652,SpeechDraft1Carolyn_lessNoise_PlusLocalization,2021.2.3,59.89909267622205,
bag.wav,bag.mpg,bag,5,A,Pink_Noise_5_1.wav,Pink_Noise_5_2.wav,,,,,,,,,,,,,,,0,68,68,22,,,,,,,,,,,,,,,,,,,,,,,600.2015874669887,None,601.701282876078,None,603.0849925801158,None,ad,603.0849925801158,None,return,5.446759862359613,603.1683303471655,None,,,,,,,,,,,,,,,,,,,,,,,,,,,,,,,,,,,,,,,168,001,2024_Feb_26_1652,SpeechDraft1Carolyn_lessNoise_PlusLocalization,2021.2.3,59.89909267622205,
base.wav,base.mpg,base,1,AV,Pink_Noise_1_1.wav,Pink_Noise_1_2.wav,,,,,,,,,,,,,,,0,69,69,113,,,,,,,,,,,,,,,,,,,,,,,608.6350327911787,None,610.134864686057,None,611.5183527320623,None,base,611.5183527320623,None,return,2.829199264757335,611.6017693062313,None,,,,,,,,,,,,,,,,,,,,,,,,,,,,,,,,,,,,,,,168,001,2024_Feb_26_1652,SpeechDraft1Carolyn_lessNoise_PlusLocalization,2021.2.3,59.89909267622205,
folk.wav,folk.mpg,folk,5,AV,Pink_Noise_5_1.wav,Pink_Noise_5_2.wav,,,,,,,,,,,,,,,0,70,70,83,,,,,,,,,,,,,,,,,,,,,,,614.4518503770232,None,615.9681981201284,None,617.3516370132565,None,fork,617.3516370132565,None,return,3.8599835759960115,617.4349850583822,None,,,,,,,,,,,,,,,,,,,,,,,,,,,,,,,,,,,,,,,168,001,2024_Feb_26_1652,SpeechDraft1Carolyn_lessNoise_PlusLocalization,2021.2.3,59.89909267622205,
fit.wav,fit.mpg,fit,3,A,Pink_Noise_3_1.wav,Pink_Noise_3_2.wav,,,,,,,,,,,,,,,0,71,71,4,,,,,,,,,,,,,,,,,,,,,,,621.3184107290581,None,622.8181082652882,None,624.2017314042896,None,"fit
",624.2017314042896,None,return,0.9699733997695148,624.2850022311322,None,,,,,,,,,,,,,,,,,,,,,,,,,,,,,,,,,,,,,,,168,001,2024_Feb_26_1652,SpeechDraft1Carolyn_lessNoise_PlusLocalization,2021.2.3,59.89909267622205,
roar.wav,roar.mpg,roar,4,AV,Pink_Noise_4_1.wav,Pink_Noise_4_2.wav,,,,,,,,,,,,,,,0,72,72,68,,,,,,,,,,,,,,,,,,,,,,,625.2850097781047,None,626.7848116229288,None,628.1682153521106,None,war,628.1682153521106,None,return,0.5712491539306939,628.251734319143,None,,,,,,,,,,,,,,,,,,,,,,,,,,,,,,,,,,,,,,,168,001,2024_Feb_26_1652,SpeechDraft1Carolyn_lessNoise_PlusLocalization,2021.2.3,59.89909267622205,
boss.wav,boss.mpg,boss,4,AV,Pink_Noise_4_1.wav,Pink_Noise_4_2.wav,,,,,,,,,,,,,,,0,73,73,118,,,,,,,,,,,,,,,,,,,,,,,628.8517298693769,None,630.3513138131239,None,631.7350943642668,None,"bus
",631.7350943642668,None,return,0.636516320053488,631.8184654372744,None,,,,,,,,,,,,,,,,,,,,,,,,,,,,,,,,,,,,,,,168,001,2024_Feb_26_1652,SpeechDraft1Carolyn_lessNoise_PlusLocalization,2021.2.3,59.89909267622205,
axe.wav,axe.mpg,axe,4,A,Pink_Noise_4_1.wav,Pink_Noise_4_2.wav,,,,,,,,,,,,,,,0,74,74,47,,,,,,,,,,,,,,,,,,,,,,,632.4851313210092,None,633.9848888041452,None,635.3683249060996,None,arts,635.3683249060996,None,return,1.0751719162799418,635.4518201672472,None,,,,,,,,,,,,,,,,,,,,,,,,,,,,,,,,,,,,,,,168,001,2024_Feb_26_1652,SpeechDraft1Carolyn_lessNoise_PlusLocalization,2021.2.3,59.89909267622205,
bell.wav,bell.mpg,bell,1,A,Pink_Noise_1_1.wav,Pink_Noise_1_2.wav,,,,,,,,,,,,,,,0,75,75,48,,,,,,,,,,,,,,,,,,,,,,,636.5517542720772,None,638.0525134662166,None,639.4349887189455,None,bell,639.4349887189455,None,return,1.9605271620675921,639.5184485241771,None,,,,,,,,,,,,,,,,,,,,,,,,,,,,,,,,,,,,,,,168,001,2024_Feb_26_1652,SpeechDraft1Carolyn_lessNoise_PlusLocalization,2021.2.3,59.89909267622205,
bomb.wav,bomb.mpg,bomb,5,AV,Pink_Noise_5_1.wav,Pink_Noise_5_2.wav,,,,,,,,,,,,,,,0,76,76,60,,,,,,,,,,,,,,,,,,,,,,,641.5019114231691,None,643.0014576502144,None,644.3851326541044,None,bomb,644.3851326541044,None,return,2.8745670402422547,644.4684436549433,None,,,,,,,,,,,,,,,,,,,,,,,,,,,,,,,,,,,,,,,168,001,2024_Feb_26_1652,SpeechDraft1Carolyn_lessNoise_PlusLocalization,2021.2.3,59.89909267622205,
drain.wav,drain.mpg,drain,1,AV,Pink_Noise_1_1.wav,Pink_Noise_1_2.wav,,,,,,,,,,,,,,,0,77,77,115,,,,,,,,,,,,,,,,,,,,,,,647.3684865622781,None,648.8681213152595,None,650.2517214100808,None,drain,650.2517214100808,None,return,1.2638953039422631,650.3351711649448,None,,,,,,,,,,,,,,,,,,,,,,,,,,,,,,,,,,,,,,,168,001,2024_Feb_26_1652,SpeechDraft1Carolyn_lessNoise_PlusLocalization,2021.2.3,59.89909267622205,
brick.wav,brick.mpg,brick,6,A,Pink_Noise_6_1.wav,Pink_Noise_6_2.wav,,,,,,,,,,,,,,,0,78,78,21,,,,,,,,,,,,,,,,,,,,,,,651.6184056131169,None,653.1197297340259,None,654.5017829220742,None,"drink
",654.5017829220742,None,return,0.9177340320311487,654.5852442891337,None,,,,,,,,,,,,,,,,,,,,,,,,,,,,,,,,,,,,,,,168,001,2024_Feb_26_1652,SpeechDraft1Carolyn_lessNoise_PlusLocalization,2021.2.3,59.89909267622205,
friend.wav,friend.mpg,friend,1,A,Pink_Noise_1_1.wav,Pink_Noise_1_2.wav,,,,,,,,,,,,,,,0,79,79,25,,,,,,,,,,,,,,,,,,,,,,,655.5352028179914,None,657.0348251932301,None,658.4183773989789,None,drend,658.4183773989789,None,return,1.041246407199651,658.5017701881006,None,,,,,,,,,,,,,,,,,,,,,,,,,,,,,,,,,,,,,,,168,001,2024_Feb_26_1652,SpeechDraft1Carolyn_lessNoise_PlusLocalization,2021.2.3,59.89909267622205,
gloom.wav,gloom.mpg,gloom,6,A,Pink_Noise_6_1.wav,Pink_Noise_6_2.wav,,,,,,,,,,,,,,,0,80,80,57,,,,,,,,,,,,,,,,,,,,,,,659.568521510344,None,661.068146424368,None,662.4523485950194,None,"war
",662.4523485950194,None,return,5.903842712752521,662.5351295620203,None,,,,,,,,,,,,,,,,,,,,,,,,,,,,,,,,,,,,,,,168,001,2024_Feb_26_1652,SpeechDraft1Carolyn_lessNoise_PlusLocalization,2021.2.3,59.89909267622205,
grand.wav,grand.mpg,grand,2,A,Pink_Noise_2_1.wav,Pink_Noise_2_2.wav,,,,,,,,,,,,,,,0,81,81,35,,,,,,,,,,,,,,,,,,,,,,,668.4684562799521,None,669.969307614956,None,671.351810883265,None,grand,671.351810883265,None,return,0.8758856141939759,671.4350743312389,None,,,,,,,,,,,,,,,,,,,,,,,,,,,,,,,,,,,,,,,168,001,2024_Feb_26_1652,SpeechDraft1Carolyn_lessNoise_PlusLocalization,2021.2.3,59.89909267622205,
grunt.wav,grunt.mpg,grunt,4,AV,Pink_Noise_4_1.wav,Pink_Noise_4_2.wav,,,,,,,,,,,,,,,0,82,82,101,,,,,,,,,,,,,,,,,,,,,,,672.3351207580417,None,673.8348168800585,None,675.2199958129786,None,grunch,675.2199958129786,None,return,1.8407555068843067,675.302232215181,None,,,,,,,,,,,,,,,,,,,,,,,,,,,,,,,,,,,,,,,168,001,2024_Feb_26_1652,SpeechDraft1Carolyn_lessNoise_PlusLocalization,2021.2.3,59.89909267622205,
fed.wav,fed.mpg,fed,3,AV,Pink_Noise_3_1.wav,Pink_Noise_3_2.wav,,,,,,,,,,,,,,,0,83,83,70,,,,,,,,,,,,,,,,,,,,,,,677.1685136370361,None,678.6848567822017,None,680.0684096240439,None,"fed
",680.0684096240439,None,return,0.7349864030256867,680.1519841239788,None,,,,,,,,,,,,,,,,,,,,,,,,,,,,,,,,,,,,,,,168,001,2024_Feb_26_1652,SpeechDraft1Carolyn_lessNoise_PlusLocalization,2021.2.3,59.89909267622205,
cloak.wav,cloak.mpg,cloak,6,A,Pink_Noise_6_1.wav,Pink_Noise_6_2.wav,,,,,,,,,,,,,,,0,84,84,32,,,,,,,,,,,,,,,,,,,,,,,680.918516645208,None,682.4181668781675,None,683.8018188751303,None,fed,683.8018188751303,None,return,1.2499167849309742,683.8851629481651,None,,,,,,,,,,,,,,,,,,,,,,,,,,,,,,,,,,,,,,,168,001,2024_Feb_26_1652,SpeechDraft1Carolyn_lessNoise_PlusLocalization,2021.2.3,59.89909267622205,
chess.wav,chess.mpg,chess,1,A,Pink_Noise_1_1.wav,Pink_Noise_1_2.wav,,,,,,,,,,,,,,,0,85,85,1,,,,,,,,,,,,,,,,,,,,,,,685.15194050828,None,686.6515039489605,None,688.036696291063,None,ches,688.036696291063,None,return,0.8966596438549459,688.1184280901216,None,,,,,,,,,,,,,,,,,,,,,,,,,,,,,,,,,,,,,,,168,001,2024_Feb_26_1652,SpeechDraft1Carolyn_lessNoise_PlusLocalization,2021.2.3,59.89909267622205,
damp.wav,damp.mpg,damp,6,A,Pink_Noise_6_1.wav,Pink_Noise_6_2.wav,,,,,,,,,,,,,,,0,86,86,26,,,,,,,,,,,,,,,,,,,,,,,689.0351666333154,None,690.5348354200833,None,691.9186700060964,None,chess,691.9186700060964,None,return,1.2611776450648904,692.001845268067,None,,,,,,,,,,,,,,,,,,,,,,,,,,,,,,,,,,,,,,,168,001,2024_Feb_26_1652,SpeechDraft1Carolyn_lessNoise_PlusLocalization,2021.2.3,59.89909267622205,
gum.wav,gum.mpg,gum,3,AV,Pink_Noise_3_1.wav,Pink_Noise_3_2.wav,,,,,,,,,,,,,,,0,87,87,74,,,,,,,,,,,,,,,,,,,,,,,693.2850966751575,None,694.8015037770383,None,696.1850552610122,None,gum,696.1850552610122,None,return,3.3624978084117174,696.2684825812466,None,,,,,,,,,,,,,,,,,,,,,,,,,,,,,,,,,,,,,,,168,001,2024_Feb_26_1652,SpeechDraft1Carolyn_lessNoise_PlusLocalization,2021.2.3,59.89909267622205,
flex.wav,flex.mpg,flex,3,A,Pink_Noise_3_1.wav,Pink_Noise_3_2.wav,,,,,,,,,,,,,,,0,88,88,18,,,,,,,,,,,,,,,,,,,,,,,699.6517282621935,None,701.1515737161972,None,702.5351481479593,None,"flex
",702.5351481479593,None,return,1.0364656788296998,702.6185108269565,None,,,,,,,,,,,,,,,,,,,,,,,,,,,,,,,,,,,,,,,168,001,2024_Feb_26_1652,SpeechDraft1Carolyn_lessNoise_PlusLocalization,2021.2.3,59.89909267622205,
bind.wav,bind.mpg,bind,2,AV,Pink_Noise_2_1.wav,Pink_Noise_2_2.wav,,,,,,,,,,,,,,,0,89,89,119,,,,,,,,,,,,,,,,,,,,,,,703.6851469143294,None,705.201964348089,None,706.5851803431287,None,"bind
",706.5851803431287,None,return,0.7864748048596084,706.668487214949,None,,,,,,,,,,,,,,,,,,,,,,,,,,,,,,,,,,,,,,,168,001,2024_Feb_26_1652,SpeechDraft1Carolyn_lessNoise_PlusLocalization,2021.2.3,59.89909267622205,
cab.wav,cab.mpg,cab,1,AV,Pink_Noise_1_1.wav,Pink_Noise_1_2.wav,,,,,,,,,,,,,,,0,90,90,96,,,,,,,,,,,,,,,,,,,,,,,707.4851672621444,None,709.0014581060968,None,710.3852128582075,None,cab,710.3852128582075,None,return,3.2744768150150776,710.4685086663812,None,,,,,,,,,,,,,,,,,,,,,,,,,,,,,,,,,,,,,,,168,001,2024_Feb_26_1652,SpeechDraft1Carolyn_lessNoise_PlusLocalization,2021.2.3,59.89909267622205,
broil.wav,broil.mpg,broil,2,AV,Pink_Noise_2_1.wav,Pink_Noise_2_2.wav,,,,,,,,,,,,,,,0,91,91,88,,,,,,,,,,,,,,,,,,,,,,,713.7685526921414,None,715.2848736420274,None,716.6684584841132,None,royal,716.6684584841132,None,return,1.2950408859178424,716.7519463421777,None,,,,,,,,,,,,,,,,,,,,,,,,,,,,,,,,,,,,,,,168,001,2024_Feb_26_1652,SpeechDraft1Carolyn_lessNoise_PlusLocalization,2021.2.3,59.89909267622205,
aunt.wav,aunt.mpg,aunt,2,AV,Pink_Noise_2_1.wav,Pink_Noise_2_2.wav,,,,,,,,,,,,,,,0,92,92,93,,,,,,,,,,,,,,,,,,,,,,,718.0685380143113,None,719.6016590669751,None,720.9850821243599,None,ut,720.9850821243599,None,return,3.978459941688925,721.0685278279707,None,,,,,,,,,,,,,,,,,,,,,,,,,,,,,,,,,,,,,,,168,001,2024_Feb_26_1652,SpeechDraft1Carolyn_lessNoise_PlusLocalization,2021.2.3,59.89909267622205,
coat.wav,coat.mpg,coat,5,A,Pink_Noise_5_1.wav,Pink_Noise_5_2.wav,,,,,,,,,,,,,,,0,93,93,2,,,,,,,,,,,,,,,,,,,,,,,725.0685287383385,None,726.5852068359964,None,727.9685123879462,None,wall,727.9685123879462,None,return,5.3951406087726355,728.0518469773233,None,,,,,,,,,,,,,,,,,,,,,,,,,,,,,,,,,,,,,,,168,001,2024_Feb_26_1652,SpeechDraft1Carolyn_lessNoise_PlusLocalization,2021.2.3,59.89909267622205,
earn.wav,earn.mpg,earn,4,A,Pink_Noise_4_1.wav,Pink_Noise_4_2.wav,,,,,,,,,,,,,,,0,94,94,16,,,,,,,,,,,,,,,,,,,,,,,733.4686147593893,None,734.9682438150048,None,736.3519366220571,None,"oath
",736.3519366220571,None,return,6.251777357887477,736.4351952113211,None,,,,,,,,,,,,,,,,,,,,,,,,,,,,,,,,,,,,,,,168,001,2024_Feb_26_1652,SpeechDraft1Carolyn_lessNoise_PlusLocalization,2021.2.3,59.89909267622205,
choke.wav,choke.mpg,choke,6,AV,Pink_Noise_6_1.wav,Pink_Noise_6_2.wav,,,,,,,,,,,,,,,0,95,95,117,,,,,,,,,,,,,,,,,,,,,,,742.7184970253147,None,744.2355379732326,None,745.6184266330674,None,choke,745.6184266330674,None,return,1.3610799200832844,745.7018911791965,None,,,,,,,,,,,,,,,,,,,,,,,,,,,,,,,,,,,,,,,168,001,2024_Feb_26_1652,SpeechDraft1Carolyn_lessNoise_PlusLocalization,2021.2.3,59.89909267622205,
champ.wav,champ.mpg,champ,1,AV,Pink_Noise_1_1.wav,Pink_Noise_1_2.wav,,,,,,,,,,,,,,,0,96,96,75,,,,,,,,,,,,,,,,,,,,,,,747.0854611690156,None,748.5849983850494,None,749.9685402759351,None,champ,749.9685402759351,None,return,1.0992054059170187,750.0518895830028,None,,,,,,,,,,,,,,,,,,,,,,,,,,,,,,,,,,,,,,,168,001,2024_Feb_26_1652,SpeechDraft1Carolyn_lessNoise_PlusLocalization,2021.2.3,59.89909267622205,
tear.wav,tear.mpg,tear,3,AV,Pink_Noise_3_1.wav,Pink_Noise_3_2.wav,,,,,,,,,,,,,,,0,97,97,114,,,,,,,,,,,,,,,,,,,,,,,751.1687946552411,None,752.6853969073854,None,754.0684884041548,None,tear,754.0684884041548,None,return,1.5271310159005225,754.1518846512772,None,,,,,,,,,,,,,,,,,,,,,,,,,,,,,,,,,,,,,,,168,001,2024_Feb_26_1652,SpeechDraft1Carolyn_lessNoise_PlusLocalization,2021.2.3,59.89909267622205,
chase.wav,chase.mpg,chase,6,AV,Pink_Noise_6_1.wav,Pink_Noise_6_2.wav,,,,,,,,,,,,,,,0,98,98,63,,,,,,,,,,,,,,,,,,,,,,,755.7018600301817,None,757.2183758551255,None,758.601762695238,None,chess,758.601762695238,None,return,1.1617518900893629,758.6852336190641,None,,,,,,,,,,,,,,,,,,,,,,,,,,,,,,,,,,,,,,,168,001,2024_Feb_26_1652,SpeechDraft1Carolyn_lessNoise_PlusLocalization,2021.2.3,59.89909267622205,
float.wav,float.mpg,float,4,A,Pink_Noise_4_1.wav,Pink_Noise_4_2.wav,,,,,,,,,,,,,,,0,99,99,44,,,,,,,,,,,,,,,,,,,,,,,759.8686436573043,None,761.3851311290637,None,762.7685383283533,None,float,762.7685383283533,None,return,1.8431011238135397,762.8518507643603,None,,,,,,,,,,,,,,,,,,,,,,,,,,,,,,,,,,,,,,,168,001,2024_Feb_26_1652,SpeechDraft1Carolyn_lessNoise_PlusLocalization,2021.2.3,59.89909267622205,
shut.wav,shut.mpg,shut,1,A,Pink_Noise_1_1.wav,Pink_Noise_1_2.wav,,,,,,,,,,,,,,,0,100,100,13,,,,,,,,,,,,,,,,,,,,,,,764.7186975800432,None,766.2350185629912,None,767.6187555310316,None,shot,767.6187555310316,None,return,0.8731224811635911,767.7019925350323,None,,,,,,,,,,,,,,,,,,,,,,,,,,,,,,,,,,,,,,,168,001,2024_Feb_26_1652,SpeechDraft1Carolyn_lessNoise_PlusLocalization,2021.2.3,59.89909267622205,
chomp.wav,chomp.mpg,chomp,2,A,Pink_Noise_2_1.wav,Pink_Noise_2_2.wav,,,,,,,,,,,,,,,0,101,101,33,,,,,,,,,,,,,,,,,,,,,,,768.601966381073,None,770.1182224950753,None,771.5020236079581,None,champ,771.5020236079581,None,return,1.0776356873102486,771.5853473879397,None,,,,,,,,,,,,,,,,,,,,,,,,,,,,,,,,,,,,,,,168,001,2024_Feb_26_1652,SpeechDraft1Carolyn_lessNoise_PlusLocalization,2021.2.3,59.89909267622205,
bible.wav,bible.mpg,bible,6,A,Pink_Noise_6_1.wav,Pink_Noise_6_2.wav,,,,,,,,,,,,,,,0,102,102,19,,,,,,,,,,,,,,,,,,,,,,,772.6853315723129,None,774.1853498942219,None,775.5687326751649,None,bubble,775.5687326751649,None,return,0.9551177662797272,775.6519577731378,None,,,,,,,,,,,,,,,,,,,,,,,,,,,,,,,,,,,,,,,168,001,2024_Feb_26_1652,SpeechDraft1Carolyn_lessNoise_PlusLocalization,2021.2.3,59.89909267622205,
gulp.wav,gulp.mpg,gulp,2,A,Pink_Noise_2_1.wav,Pink_Noise_2_2.wav,,,,,,,,,,,,,,,0,103,103,56,,,,,,,,,,,,,,,,,,,,,,,776.6352400393225,None,778.134889927227,None,779.5185854341835,None,golf,779.5185854341835,None,return,0.773150707129389,779.601967680268,None,,,,,,,,,,,,,,,,,,,,,,,,,,,,,,,,,,,,,,,168,001,2024_Feb_26_1652,SpeechDraft1Carolyn_lessNoise_PlusLocalization,2021.2.3,59.89909267622205,
forth.wav,forth.mpg,forth,2,AV,Pink_Noise_2_1.wav,Pink_Noise_2_2.wav,,,,,,,,,,,,,,,0,104,104,71,,,,,,,,,,,,,,,,,,,,,,,780.4020135630853,None,781.918356642127,None,783.3018293371424,None,fourth,783.3018293371424,None,return,1.5818103081546724,783.3852757699788,None,,,,,,,,,,,,,,,,,,,,,,,,,,,,,,,,,,,,,,,168,001,2024_Feb_26_1652,SpeechDraft1Carolyn_lessNoise_PlusLocalization,2021.2.3,59.89909267622205,
goat.wav,goat.mpg,goat,3,AV,Pink_Noise_3_1.wav,Pink_Noise_3_2.wav,,,,,,,,,,,,,,,0,105,105,61,,,,,,,,,,,,,,,,,,,,,,,784.9853169280104,None,786.484975263942,None,787.8685807920992,None,"goat
",787.8685807920992,None,return,1.1670353538356721,787.9519431213848,None,,,,,,,,,,,,,,,,,,,,,,,,,,,,,,,,,,,,,,,168,001,2024_Feb_26_1652,SpeechDraft1Carolyn_lessNoise_PlusLocalization,2021.2.3,59.89909267622205,
box.wav,box.mpg,box,1,A,Pink_Noise_1_1.wav,Pink_Noise_1_2.wav,,,,,,,,,,,,,,,0,106,106,58,,,,,,,,,,,,,,,,,,,,,,,789.152029460296,None,790.6516586793587,None,792.035392488353,None,box,792.035392488353,None,return,1.2963934848085046,792.1186374491081,None,,,,,,,,,,,,,,,,,,,,,,,,,,,,,,,,,,,,,,,168,001,2024_Feb_26_1652,SpeechDraft1Carolyn_lessNoise_PlusLocalization,2021.2.3,59.89909267622205,
bloom.wav,bloom.mpg,bloom,4,AV,Pink_Noise_4_1.wav,Pink_Noise_4_2.wav,,,,,,,,,,,,,,,0,107,107,104,,,,,,,,,,,,,,,,,,,,,,,793.435443290975,None,794.936730701942,None,796.3184512010776,None,bloom,796.3184512010776,None,return,1.9731576358899474,796.4019594681449,None,,,,,,,,,,,,,,,,,,,,,,,,,,,,,,,,,,,,,,,168,001,2024_Feb_26_1652,SpeechDraft1Carolyn_lessNoise_PlusLocalization,2021.2.3,59.89909267622205,
dent.wav,dent.mpg,dent,5,AV,Pink_Noise_5_1.wav,Pink_Noise_5_2.wav,,,,,,,,,,,,,,,0,108,108,94,,,,,,,,,,,,,,,,,,,,,,,798.4020106522366,None,799.9183170972392,None,801.3018111730926,None,get,801.3018111730926,None,return,2.7898779599927366,801.3852499271743,None,,,,,,,,,,,,,,,,,,,,,,,,,,,,,,,,,,,,,,,168,001,2024_Feb_26_1652,SpeechDraft1Carolyn_lessNoise_PlusLocalization,2021.2.3,59.89909267622205,
wind.wav,wind.mpg,wind,3,AV,Pink_Noise_3_1.wav,Pink_Noise_3_2.wav,,,,,,,,,,,,,,,0,109,109,103,,,,,,,,,,,,,,,,,,,,,,,804.202117969282,None,805.7025168710388,None,807.0852708369493,None,"wind
",807.0852708369493,None,return,1.270077786874026,807.1689013633877,None,,,,,,,,,,,,,,,,,,,,,,,,,,,,,,,,,,,,,,,168,001,2024_Feb_26_1652,SpeechDraft1Carolyn_lessNoise_PlusLocalization,2021.2.3,59.89909267622205,
book.wav,book.mpg,book,4,A,Pink_Noise_4_1.wav,Pink_Noise_4_2.wav,,,,,,,,,,,,,,,0,110,110,36,,,,,,,,,,,,,,,,,,,,,,,808.4687946350314,None,809.9689584029838,None,811.3518966753036,None,book,811.3518966753036,None,return,3.2436096291057765,811.4353596051224,None,,,,,,,,,,,,,,,,,,,,,,,,,,,,,,,,,,,,,,,168,001,2024_Feb_26_1652,SpeechDraft1Carolyn_lessNoise_PlusLocalization,2021.2.3,59.89909267622205,
blame.wav,blame.mpg,blame,5,AV,Pink_Noise_5_1.wav,Pink_Noise_5_2.wav,,,,,,,,,,,,,,,0,111,111,84,,,,,,,,,,,,,,,,,,,,,,,814.7019577841274,None,816.2355317319743,None,817.6186037841253,None,blame,817.6186037841253,None,return,1.6970562036149204,817.7019832320511,None,,,,,,,,,,,,,,,,,,,,,,,,,,,,,,,,,,,,,,,168,001,2024_Feb_26_1652,SpeechDraft1Carolyn_lessNoise_PlusLocalization,2021.2.3,59.89909267622205,
blast.wav,blast.mpg,blast,2,A,Pink_Noise_2_1.wav,Pink_Noise_2_2.wav,,,,,,,,,,,,,,,0,112,112,34,,,,,,,,,,,,,,,,,,,,,,,819.4186080060899,None,820.935042632278,None,822.3186742370017,None,blast,822.3186742370017,None,return,0.9490151340141892,822.4020108743571,None,,,,,,,,,,,,,,,,,,,,,,,,,,,,,,,,,,,,,,,168,001,2024_Feb_26_1652,SpeechDraft1Carolyn_lessNoise_PlusLocalization,2021.2.3,59.89909267622205,
rid.wav,rid.mpg,rid,4,A,Pink_Noise_4_1.wav,Pink_Noise_4_2.wav,,,,,,,,,,,,,,,0,113,113,30,,,,,,,,,,,,,,,,,,,,,,,823.3686993843876,None,824.8850806863047,None,826.2687035049312,None,"read
",826.2687035049312,None,return,1.167014379054308,826.3519543409348,None,,,,,,,,,,,,,,,,,,,,,,,,,,,,,,,,,,,,,,,168,001,2024_Feb_26_1652,SpeechDraft1Carolyn_lessNoise_PlusLocalization,2021.2.3,59.89909267622205,
none.wav,none.mpg,none,1,A,Pink_Noise_1_1.wav,Pink_Noise_1_2.wav,,,,,,,,,,,,,,,0,114,114,5,,,,,,,,,,,,,,,,,,,,,,,827.5519942590035,None,829.0683113033883,None,830.4520670259371,None,none,830.4520670259371,None,return,0.7595959380269051,830.5353749231435,None,,,,,,,,,,,,,,,,,,,,,,,,,,,,,,,,,,,,,,,168,001,2024_Feb_26_1652,SpeechDraft1Carolyn_lessNoise_PlusLocalization,2021.2.3,59.89909267622205,
fan.wav,fan.mpg,fan,1,A,Pink_Noise_1_1.wav,Pink_Noise_1_2.wav,,,,,,,,,,,,,,,0,115,115,53,,,,,,,,,,,,,,,,,,,,,,,831.3187000839971,None,832.8350168913603,None,834.2187606319785,None,fan,834.2187606319785,None,return,1.1289452309720218,834.302046942059,None,,,,,,,,,,,,,,,,,,,,,,,,,,,,,,,,,,,,,,,168,001,2024_Feb_26_1652,SpeechDraft1Carolyn_lessNoise_PlusLocalization,2021.2.3,59.89909267622205,
dump.wav,dump.mpg,dump,3,A,Pink_Noise_3_1.wav,Pink_Noise_3_2.wav,,,,,,,,,,,,,,,0,116,116,6,,,,,,,,,,,,,,,,,,,,,,,835.4520179913379,None,836.952706807293,None,838.3353398730978,None,dump,838.3353398730978,None,return,0.9244028590619564,838.4186963480897,None,,,,,,,,,,,,,,,,,,,,,,,,,,,,,,,,,,,,,,,168,001,2024_Feb_26_1652,SpeechDraft1Carolyn_lessNoise_PlusLocalization,2021.2.3,59.89909267622205,
date.wav,date.mpg,date,5,A,Pink_Noise_5_1.wav,Pink_Noise_5_2.wav,,,,,,,,,,,,,,,0,117,117,54,,,,,,,,,,,,,,,,,,,,,,,839.3687299489975,None,840.8858241080306,None,842.2687519481406,None,"bit
",842.2687519481406,None,return,0.5747799673117697,842.3521985709667,None,,,,,,,,,,,,,,,,,,,,,,,,,,,,,,,,,,,,,,,168,001,2024_Feb_26_1652,SpeechDraft1Carolyn_lessNoise_PlusLocalization,2021.2.3,59.89909267622205,
chord.wav,chord.mpg,chord,3,AV,Pink_Noise_3_1.wav,Pink_Noise_3_2.wav,,,,,,,,,,,,,,,0,118,118,89,,,,,,,,,,,,,,,,,,,,,,,842.9689042232931,None,844.4850988960825,None,845.8686978090554,None,cord,845.8686978090554,None,return,1.0549462190829217,845.95203680126,None,,,,,,,,,,,,,,,,,,,,,,,,,,,,,,,,,,,,,,,168,001,2024_Feb_26_1652,SpeechDraft1Carolyn_lessNoise_PlusLocalization,2021.2.3,59.89909267622205,
blend.wav,blend.mpg,blend,4,AV,Pink_Noise_4_1.wav,Pink_Noise_4_2.wav,,,,,,,,,,,,,,,0,119,119,90,,,,,,,,,,,,,,,,,,,,,,,847.0354423471726,None,848.5684305070899,None,849.9520869823173,None,blame,849.9520869823173,None,return,0.9157168199308217,850.035355777014,None,,,,,,,,,,,,,,,,,,,,,,,,,,,,,,,,,,,,,,,168,001,2024_Feb_26_1652,SpeechDraft1Carolyn_lessNoise_PlusLocalization,2021.2.3,59.89909267622205,
,,,,,,,,,,,,,,,,,,,,,,,,,,,,,,,,,,,,,,,,,,,,,,,,,,,,,,,,,,,,,,,,,,space,20.474227434955537,851.0687508750707,None,,,,,,,,,,,,,,,,,,,,,,,,,,,,,168,001,2024_Feb_26_1652,SpeechDraft1Carolyn_lessNoise_PlusLocalization,2021.2.3,59.89909267622205,
,,,,,,,,nearLeft,-6.5,1,ch1Sound_localizationTask.wav,-6.5,"(857, 878)","(-103,-202)",-95,-338,,,,,,,,,0,0,0,2,,,,,,,,,,,,,,,,,,,,,,,,,,,,,,,,,,,,,,,,,,851.0687508750707,None,871.5852308333851,None,872.6855190442875,None,873.6188430399634,None,1.3243386243386244,1.8524355459958315,873.6188430399634,None,,,,,,,,,,,,,,,,,168,001,2024_Feb_26_1652,SpeechDraft1Carolyn_lessNoise_PlusLocalization,2021.2.3,59.89909267622205,
,,,,,,,,farLeft,-19.1,5,ch1Sound_localizationTask.wav,-19.1,"(667, 878)","(-293,-202)",-285,-338,,,,,,,,,0,1,1,0,,,,,,,,,,,,,,,,,,,,,,,,,,,,,,,,,,,,,,,,,,,,875.4704448562115,None,876.5852149561979,None,877.5017837020569,None,1.2878306878306878,0.7851006351411343,877.5017837020569,None,,,,,,,,,,,,,,,,,168,001,2024_Feb_26_1652,SpeechDraft1Carolyn_lessNoise_PlusLocalization,2021.2.3,59.89909267622205,
,,,,,,,,nearLeft,-6.5,1,ch1Sound_localizationTask.wav,-6.5,"(857, 878)","(-103,-202)",-95,-338,,,,,,,,,0,2,2,2,,,,,,,,,,,,,,,,,,,,,,,,,,,,,,,,,,,,,,,,,,,,878.3022361453623,None,879.4018147923052,None,880.3351914850064,None,1.4878306878306877,1.1497103963047266,880.3351914850064,None,,,,,,,,,,,,,,,,,168,001,2024_Feb_26_1652,SpeechDraft1Carolyn_lessNoise_PlusLocalization,2021.2.3,59.89909267622205,
,,,,,,,,midRight,13.0,3,ch1Sound_localizationTask.wav,13.0,"(1142, 878)","(182, -202)",190,-338,,,,,,,,,0,3,3,5,,,,,,,,,,,,,,,,,,,,,,,,,,,,,,,,,,,,,,,,,,,,881.4860237180255,None,882.5850701970048,None,883.5183771862648,None,1.6661375661375661,0.7500960640609264,883.5183771862648,None,,,,,,,,,,,,,,,,,168,001,2024_Feb_26_1652,SpeechDraft1Carolyn_lessNoise_PlusLocalization,2021.2.3,59.89909267622205,
,,,,,,,,farLeft,-19.1,5,ch1Sound_localizationTask.wav,-19.1,"(667, 878)","(-293,-202)",-285,-338,,,,,,,,,0,4,4,0,,,,,,,,,,,,,,,,,,,,,,,,,,,,,,,,,,,,,,,,,,,,884.2695187963545,None,885.3685569362715,None,886.3018546509556,None,1.3026455026455026,0.9013048759661615,886.3018546509556,None,,,,,,,,,,,,,,,,,168,001,2024_Feb_26_1652,SpeechDraft1Carolyn_lessNoise_PlusLocalization,2021.2.3,59.89909267622205,
,,,,,,,,midRight,13.0,3,ch1Sound_localizationTask.wav,13.0,"(1142, 878)","(182, -202)",190,-338,,,,,,,,,0,5,5,5,,,,,,,,,,,,,,,,,,,,,,,,,,,,,,,,,,,,,,,,,,,,887.2188428752124,None,888.3184879799373,None,889.2519791903906,None,1.6227513227513226,0.8508406532928348,889.2519791903906,None,,,,,,,,,,,,,,,,,168,001,2024_Feb_26_1652,SpeechDraft1Carolyn_lessNoise_PlusLocalization,2021.2.3,59.89909267622205,
,,,,,,,,midLeft,-13.0,2,ch1Sound_localizationTask.wav,-13.0,"(762, 878)","(-198,-202)",-190,-338,,,,,,,,,0,6,6,1,,,,,,,,,,,,,,,,,,,,,,,,,,,,,,,,,,,,,,,,,,,,890.1188124972396,None,891.2185551850125,None,892.1518667973578,None,1.366137566137566,0.9158186269924045,892.1518667973578,None,,,,,,,,,,,,,,,,,168,001,2024_Feb_26_1652,SpeechDraft1Carolyn_lessNoise_PlusLocalization,2021.2.3,59.89909267622205,
,,,,,,,,nearLeft,-6.5,1,ch1Sound_localizationTask.wav,-6.5,"(857, 878)","(-103,-202)",-95,-338,,,,,,,,,1,0,7,2,,,,,,,,,,,,,,,,,,,,,,,,,,,,,,,,,,,,,,,,,,,,893.0695521142334,None,894.168639136944,None,895.1018574093468,None,1.4894179894179893,0.8331952029839158,895.1018574093468,None,,,,,,,,,,,,,,,,,168,001,2024_Feb_26_1652,SpeechDraft1Carolyn_lessNoise_PlusLocalization,2021.2.3,59.89909267622205,
,,,,,,,,midLeft,-13.0,2,ch1Sound_localizationTask.wav,-13.0,"(762, 878)","(-198,-202)",-190,-338,,,,,,,,,1,1,8,1,,,,,,,,,,,,,,,,,,,,,,,,,,,,,,,,,,,,,,,,,,,,895.9356632083654,None,897.035222123377,None,897.9688103501685,None,1.4375661375661375,0.8499325541779399,897.9688103501685,None,,,,,,,,,,,,,,,,,168,001,2024_Feb_26_1652,SpeechDraft1Carolyn_lessNoise_PlusLocalization,2021.2.3,59.89909267622205,
,,,,,,,,center,0.0,6,ch1Sound_localizationTask.wav,0.0,"(952, 878)","(-8,-202)",0,-338,,,,,,,,,1,2,9,3,,,,,,,,,,,,,,,,,,,,,,,,,,,,,,,,,,,,,,,,,,,,898.8192200642079,None,899.9185437113047,None,900.8520338810049,None,1.519047619047619,0.8485293062403798,900.8520338810049,None,,,,,,,,,,,,,,,,,168,001,2024_Feb_26_1652,SpeechDraft1Carolyn_lessNoise_PlusLocalization,2021.2.3,59.89909267622205,
,,,,,,,,midRight,13.0,3,ch1Sound_localizationTask.wav,13.0,"(1142, 878)","(182, -202)",190,-338,,,,,,,,,1,3,10,5,,,,,,,,,,,,,,,,,,,,,,,,,,,,,,,,,,,,,,,,,,,,901.702155156061,None,902.8018471309915,None,903.7351645603776,None,1.625925925925926,0.8327285121195018,903.7351645603776,None,,,,,,,,,,,,,,,,,168,001,2024_Feb_26_1652,SpeechDraft1Carolyn_lessNoise_PlusLocalization,2021.2.3,59.89909267622205,
,,,,,,,,midLeft,-13.0,2,ch1Sound_localizationTask.wav,-13.0,"(762, 878)","(-198,-202)",-190,-338,,,,,,,,,1,4,11,1,,,,,,,,,,,,,,,,,,,,,,,,,,,,,,,,,,,,,,,,,,,,904.5698320502415,None,905.6852384591475,None,906.6019026450813,None,1.3714285714285714,0.8336333907209337,906.6019026450813,None,,,,,,,,,,,,,,,,,168,001,2024_Feb_26_1652,SpeechDraft1Carolyn_lessNoise_PlusLocalization,2021.2.3,59.89909267622205,
,,,,,,,,nearLeft,-6.5,1,ch1Sound_localizationTask.wav,-6.5,"(857, 878)","(-103,-202)",-95,-338,,,,,,,,,1,5,12,2,,,,,,,,,,,,,,,,,,,,,,,,,,,,,,,,,,,,,,,,,,,,907.4522837391123,None,908.5518418103456,None,909.485212657135,None,1.48994708994709,0.6318029630929232,909.485212657135,None,,,,,,,,,,,,,,,,,168,001,2024_Feb_26_1652,SpeechDraft1Carolyn_lessNoise_PlusLocalization,2021.2.3,59.89909267622205,
,,,,,,,,farLeft,-19.1,5,ch1Sound_localizationTask.wav,-19.1,"(667, 878)","(-293,-202)",-285,-338,,,,,,,,,1,6,13,0,,,,,,,,,,,,,,,,,,,,,,,,,,,,,,,,,,,,,,,,,,,,910.1188009493053,None,911.2186858160421,None,912.1519134133123,None,1.3492063492063493,0.700007745064795,912.1519134133123,None,,,,,,,,,,,,,,,,,168,001,2024_Feb_26_1652,SpeechDraft1Carolyn_lessNoise_PlusLocalization,2021.2.3,59.89909267622205,
,,,,,,,,nearLeft,-6.5,1,ch1Sound_localizationTask.wav,-6.5,"(857, 878)","(-103,-202)",-95,-338,,,,,,,,,2,0,14,2,,,,,,,,,,,,,,,,,,,,,,,,,,,,,,,,,,,,,,,,,,,,912.8688299041241,None,913.9686570302583,None,914.901867988985,None,1.483068783068783,1.0331145892851055,914.901867988985,None,,,,,,,,,,,,,,,,,168,001,2024_Feb_26_1652,SpeechDraft1Carolyn_lessNoise_PlusLocalization,2021.2.3,59.89909267622205,
,,,,,,,,midLeft,-13.0,2,ch1Sound_localizationTask.wav,-13.0,"(762, 878)","(-198,-202)",-190,-338,,,,,,,,,2,1,15,1,,,,,,,,,,,,,,,,,,,,,,,,,,,,,,,,,,,,,,,,,,,,915.9358376632445,None,917.0351722282358,None,917.9685919652693,None,1.366137566137566,0.5007260199636221,917.9685919652693,None,,,,,,,,,,,,,,,,,168,001,2024_Feb_26_1652,SpeechDraft1Carolyn_lessNoise_PlusLocalization,2021.2.3,59.89909267622205,
,,,,,,,,farLeft,-19.1,5,ch1Sound_localizationTask.wav,-19.1,"(667, 878)","(-293,-202)",-285,-338,,,,,,,,,2,2,16,0,,,,,,,,,,,,,,,,,,,,,,,,,,,,,,,,,,,,,,,,,,,,918.4855953352526,None,919.5852046413347,None,920.5185062442906,None,1.2947089947089947,0.5172410779632628,920.5185062442906,None,,,,,,,,,,,,,,,,,168,001,2024_Feb_26_1652,SpeechDraft1Carolyn_lessNoise_PlusLocalization,2021.2.3,59.89909267622205,
,,,,,,,,midRight,13.0,3,ch1Sound_localizationTask.wav,13.0,"(1142, 878)","(182, -202)",190,-338,,,,,,,,,2,3,17,5,,,,,,,,,,,,,,,,,,,,,,,,,,,,,,,,,,,,,,,,,,,,921.052341774106,None,922.1518971272744,None,923.0851500853896,None,1.6068783068783068,0.7497617760673165,923.0851500853896,None,,,,,,,,,,,,,,,,,168,001,2024_Feb_26_1652,SpeechDraft1Carolyn_lessNoise_PlusLocalization,2021.2.3,59.89909267622205,
,,,,,,,,farRight,19.1,4,ch1Sound_localizationTask.wav,19.1,"(1237, 878)","(277,-202)",285,-338,,,,,,,,,2,4,18,6,,,,,,,,,,,,,,,,,,,,,,,,,,,,,,,,,,,,,,,,,,,,923.8358733421192,None,924.9353939951397,None,925.8686494231224,None,1.6862433862433863,0.532900650985539,925.8686494231224,None,,,,,,,,,,,,,,,,,168,001,2024_Feb_26_1652,SpeechDraft1Carolyn_lessNoise_PlusLocalization,2021.2.3,59.89909267622205,
,,,,,,,,center,0.0,6,ch1Sound_localizationTask.wav,0.0,"(952, 878)","(-8,-202)",0,-338,,,,,,,,,2,5,19,3,,,,,,,,,,,,,,,,,,,,,,,,,,,,,,,,,,,,,,,,,,,,926.4026568043046,None,927.5019078361802,None,928.4352349820547,None,1.4968253968253968,0.71654281206429,928.4352349820547,None,,,,,,,,,,,,,,,,,168,001,2024_Feb_26_1652,SpeechDraft1Carolyn_lessNoise_PlusLocalization,2021.2.3,59.89909267622205,
,,,,,,,,nearRight,6.5,0,ch1Sound_localizationTask.wav,6.5,"(1047, 878)","(87, -202)",95,-338,,,,,,,,,2,6,20,4,,,,,,,,,,,,,,,,,,,,,,,,,,,,,,,,,,,,,,,,,,,,929.1532750851475,None,930.2685386920348,None,931.1855284529738,None,1.5613756613756613,0.48431563284248114,931.1855284529738,None,,,,,,,,,,,,,,,,,168,001,2024_Feb_26_1652,SpeechDraft1Carolyn_lessNoise_PlusLocalization,2021.2.3,59.89909267622205,
,,,,,,,,farLeft,-19.1,5,ch1Sound_localizationTask.wav,-19.1,"(667, 878)","(-293,-202)",-285,-338,,,,,,,,,3,0,21,0,,,,,,,,,,,,,,,,,,,,,,,,,,,,,,,,,,,,,,,,,,,,931.6854546610266,None,932.7850830359384,None,933.7184925661422,None,1.3211640211640212,0.6169479610398412,933.7184925661422,None,,,,,,,,,,,,,,,,,168,001,2024_Feb_26_1652,SpeechDraft1Carolyn_lessNoise_PlusLocalization,2021.2.3,59.89909267622205,
,,,,,,,,midRight,13.0,3,ch1Sound_localizationTask.wav,13.0,"(1142, 878)","(182, -202)",190,-338,,,,,,,,,3,1,22,5,,,,,,,,,,,,,,,,,,,,,,,,,,,,,,,,,,,,,,,,,,,,934.3522907821462,None,935.4518785299733,None,936.3852625801228,None,1.5873015873015874,0.7502206647768617,936.3852625801228,None,,,,,,,,,,,,,,,,,168,001,2024_Feb_26_1652,SpeechDraft1Carolyn_lessNoise_PlusLocalization,2021.2.3,59.89909267622205,
,,,,,,,,midLeft,-13.0,2,ch1Sound_localizationTask.wav,-13.0,"(762, 878)","(-198,-202)",-190,-338,,,,,,,,,3,2,23,1,,,,,,,,,,,,,,,,,,,,,,,,,,,,,,,,,,,,,,,,,,,,937.1523038842715,None,938.2519168602303,None,939.1854065372609,None,1.3232804232804232,0.600086493883282,939.1854065372609,None,,,,,,,,,,,,,,,,,168,001,2024_Feb_26_1652,SpeechDraft1Carolyn_lessNoise_PlusLocalization,2021.2.3,59.89909267622205,
,,,,,,,,center,0.0,6,ch1Sound_localizationTask.wav,0.0,"(952, 878)","(-8,-202)",0,-338,,,,,,,,,3,3,24,3,,,,,,,,,,,,,,,,,,,,,,,,,,,,,,,,,,,,,,,,,,,,939.8021717891097,None,940.9018686800264,None,941.8352247411385,None,1.5037037037037035,0.9165134760551155,941.8352247411385,None,,,,,,,,,,,,,,,,,168,001,2024_Feb_26_1652,SpeechDraft1Carolyn_lessNoise_PlusLocalization,2021.2.3,59.89909267622205,
,,,,,,,,center,0.0,6,ch1Sound_localizationTask.wav,0.0,"(952, 878)","(-8,-202)",0,-338,,,,,,,,,3,4,25,3,,,,,,,,,,,,,,,,,,,,,,,,,,,,,,,,,,,,,,,,,,,,942.7526441491209,None,943.8519198410213,None,944.7851486071013,None,1.4984126984126984,0.6327809682115912,944.7851486071013,None,,,,,,,,,,,,,,,,,168,001,2024_Feb_26_1652,SpeechDraft1Carolyn_lessNoise_PlusLocalization,2021.2.3,59.89909267622205,
,,,,,,,,midLeft,-13.0,2,ch1Sound_localizationTask.wav,-13.0,"(762, 878)","(-198,-202)",-190,-338,,,,,,,,,3,5,26,1,,,,,,,,,,,,,,,,,,,,,,,,,,,,,,,,,,,,,,,,,,,,945.4351106602699,None,946.5352307911962,None,947.4520643129945,None,1.3703703703703702,0.6505160140804946,947.4520643129945,None,,,,,,,,,,,,,,,,,168,001,2024_Feb_26_1652,SpeechDraft1Carolyn_lessNoise_PlusLocalization,2021.2.3,59.89909267622205,
,,,,,,,,center,0.0,6,ch1Sound_localizationTask.wav,0.0,"(952, 878)","(-8,-202)",0,-338,,,,,,,,,3,6,27,3,,,,,,,,,,,,,,,,,,,,,,,,,,,,,,,,,,,,,,,,,,,,948.1188393682241,None,949.2185751879588,None,950.1519784312695,None,1.4904761904761905,0.8658353667706251,950.1519784312695,None,,,,,,,,,,,,,,,,,168,001,2024_Feb_26_1652,SpeechDraft1Carolyn_lessNoise_PlusLocalization,2021.2.3,59.89909267622205,
,,,,,,,,nearRight,6.5,0,ch1Sound_localizationTask.wav,6.5,"(1047, 878)","(87, -202)",95,-338,,,,,,,,,4,0,28,4,,,,,,,,,,,,,,,,,,,,,,,,,,,,,,,,,,,,,,,,,,,,951.019936316181,None,952.1355491289869,None,953.0520172319375,None,1.5656084656084657,0.5658809379674494,953.0520172319375,None,,,,,,,,,,,,,,,,,168,001,2024_Feb_26_1652,SpeechDraft1Carolyn_lessNoise_PlusLocalization,2021.2.3,59.89909267622205,
,,,,,,,,farLeft,-19.1,5,ch1Sound_localizationTask.wav,-19.1,"(667, 878)","(-293,-202)",-285,-338,,,,,,,,,4,1,29,0,,,,,,,,,,,,,,,,,,,,,,,,,,,,,,,,,,,,,,,,,,,,953.6197831579484,None,954.7185752452351,None,955.6520900730975,None,1.3052910052910054,0.616972133051604,955.6520900730975,None,,,,,,,,,,,,,,,,,168,001,2024_Feb_26_1652,SpeechDraft1Carolyn_lessNoise_PlusLocalization,2021.2.3,59.89909267622205,
,,,,,,,,midLeft,-13.0,2,ch1Sound_localizationTask.wav,-13.0,"(762, 878)","(-198,-202)",-190,-338,,,,,,,,,4,2,30,1,,,,,,,,,,,,,,,,,,,,,,,,,,,,,,,,,,,,,,,,,,,,956.2856411789544,None,957.3853570460342,None,958.3185352450237,None,1.3470899470899471,0.7815095488913357,958.3185352450237,None,,,,,,,,,,,,,,,,,168,001,2024_Feb_26_1652,SpeechDraft1Carolyn_lessNoise_PlusLocalization,2021.2.3,59.89909267622205,
,,,,,,,,nearRight,6.5,0,ch1Sound_localizationTask.wav,6.5,"(1047, 878)","(87, -202)",95,-338,,,,,,,,,4,3,31,4,,,,,,,,,,,,,,,,,,,,,,,,,,,,,,,,,,,,,,,,,,,,959.1022417782806,None,960.2019968801178,None,961.1352715482935,None,1.5476190476190477,0.6834180443547666,961.1352715482935,None,,,,,,,,,,,,,,,,,168,001,2024_Feb_26_1652,SpeechDraft1Carolyn_lessNoise_PlusLocalization,2021.2.3,59.89909267622205,
,,,,,,,,farRight,19.1,4,ch1Sound_localizationTask.wav,19.1,"(1237, 878)","(277,-202)",285,-338,,,,,,,,,4,4,32,6,,,,,,,,,,,,,,,,,,,,,,,,,,,,,,,,,,,,,,,,,,,,961.8357227761298,None,962.9352537761442,None,963.868482016027,None,1.71005291005291,0.6165958661586046,963.868482016027,None,,,,,,,,,,,,,,,,,168,001,2024_Feb_26_1652,SpeechDraft1Carolyn_lessNoise_PlusLocalization,2021.2.3,59.89909267622205,
,,,,,,,,nearLeft,-6.5,1,ch1Sound_localizationTask.wav,-6.5,"(857, 878)","(-103,-202)",-95,-338,,,,,,,,,4,5,33,2,,,,,,,,,,,,,,,,,,,,,,,,,,,,,,,,,,,,,,,,,,,,964.4866752349772,None,965.5854750941508,None,966.5185532211326,None,1.4407407407407407,0.650100439786911,966.5185532211326,None,,,,,,,,,,,,,,,,,168,001,2024_Feb_26_1652,SpeechDraft1Carolyn_lessNoise_PlusLocalization,2021.2.3,59.89909267622205,
,,,,,,,,farRight,19.1,4,ch1Sound_localizationTask.wav,19.1,"(1237, 878)","(277,-202)",285,-338,,,,,,,,,4,6,34,6,,,,,,,,,,,,,,,,,,,,,,,,,,,,,,,,,,,,,,,,,,,,967.1857420429587,None,968.2853079750203,None,969.2186146480963,None,1.7507936507936508,0.5504234731197357,969.2186146480963,None,,,,,,,,,,,,,,,,,168,001,2024_Feb_26_1652,SpeechDraft1Carolyn_lessNoise_PlusLocalization,2021.2.3,59.89909267622205,
,,,,,,,,midRight,13.0,3,ch1Sound_localizationTask.wav,13.0,"(1142, 878)","(182, -202)",190,-338,,,,,,,,,5,0,35,5,,,,,,,,,,,,,,,,,,,,,,,,,,,,,,,,,,,,,,,,,,,,969.7856382839382,None,970.8852036041208,None,971.8188351672143,None,1.656084656084656,0.7838318650610745,971.8188351672143,None,,,,,,,,,,,,,,,,,168,001,2024_Feb_26_1652,SpeechDraft1Carolyn_lessNoise_PlusLocalization,2021.2.3,59.89909267622205,
,,,,,,,,farRight,19.1,4,ch1Sound_localizationTask.wav,19.1,"(1237, 878)","(277,-202)",285,-338,,,,,,,,,5,1,36,6,,,,,,,,,,,,,,,,,,,,,,,,,,,,,,,,,,,,,,,,,,,,972.6190236681141,None,973.7186269951053,None,974.6532353330404,None,1.6899470899470899,0.6996441911906004,974.6532353330404,None,,,,,,,,,,,,,,,,,168,001,2024_Feb_26_1652,SpeechDraft1Carolyn_lessNoise_PlusLocalization,2021.2.3,59.89909267622205,
,,,,,,,,nearLeft,-6.5,1,ch1Sound_localizationTask.wav,-6.5,"(857, 878)","(-103,-202)",-95,-338,,,,,,,,,5,2,37,2,,,,,,,,,,,,,,,,,,,,,,,,,,,,,,,,,,,,,,,,,,,,975.3690735879354,None,976.4687100299634,None,977.4019872602075,None,1.4523809523809523,0.7834917069412768,977.4019872602075,None,,,,,,,,,,,,,,,,,168,001,2024_Feb_26_1652,SpeechDraft1Carolyn_lessNoise_PlusLocalization,2021.2.3,59.89909267622205,
,,,,,,,,farRight,19.1,4,ch1Sound_localizationTask.wav,19.1,"(1237, 878)","(277,-202)",285,-338,,,,,,,,,5,3,38,6,,,,,,,,,,,,,,,,,,,,,,,,,,,,,,,,,,,,,,,,,,,,978.2023320761509,None,979.3018762669526,None,980.2353791799396,None,1.5904761904761906,0.5837841811589897,980.2353791799396,None,,,,,,,,,,,,,,,,,168,001,2024_Feb_26_1652,SpeechDraft1Carolyn_lessNoise_PlusLocalization,2021.2.3,59.89909267622205,
,,,,,,,,farRight,19.1,4,ch1Sound_localizationTask.wav,19.1,"(1237, 878)","(277,-202)",285,-338,,,,,,,,,5,4,39,6,,,,,,,,,,,,,,,,,,,,,,,,,,,,,,,,,,,,,,,,,,,,980.8356208982877,None,981.9353223782964,None,982.8686465881765,None,1.6746031746031746,0.9665262424387038,982.8686465881765,None,,,,,,,,,,,,,,,,,168,001,2024_Feb_26_1652,SpeechDraft1Carolyn_lessNoise_PlusLocalization,2021.2.3,59.89909267622205,
,,,,,,,,midLeft,-13.0,2,ch1Sound_localizationTask.wav,-13.0,"(762, 878)","(-198,-202)",-190,-338,,,,,,,,,5,5,40,1,,,,,,,,,,,,,,,,,,,,,,,,,,,,,,,,,,,,,,,,,,,,983.8523332909681,None,984.9520413391292,None,985.8853329340927,None,1.3417989417989418,0.5846427483484149,985.8853329340927,None,,,,,,,,,,,,,,,,,168,001,2024_Feb_26_1652,SpeechDraft1Carolyn_lessNoise_PlusLocalization,2021.2.3,59.89909267622205,
,,,,,,,,nearRight,6.5,0,ch1Sound_localizationTask.wav,6.5,"(1047, 878)","(87, -202)",95,-338,,,,,,,,,5,6,41,4,,,,,,,,,,,,,,,,,,,,,,,,,,,,,,,,,,,,,,,,,,,,986.4856167961843,None,987.5854284269735,None,988.5186065402813,None,1.502116402116402,0.9998098881915212,988.5186065402813,None,,,,,,,,,,,,,,,,,168,001,2024_Feb_26_1652,SpeechDraft1Carolyn_lessNoise_PlusLocalization,2021.2.3,59.89909267622205,
,,,,,,,,midRight,13.0,3,ch1Sound_localizationTask.wav,13.0,"(1142, 878)","(182, -202)",190,-338,,,,,,,,,6,0,42,5,,,,,,,,,,,,,,,,,,,,,,,,,,,,,,,,,,,,,,,,,,,,989.535517515149,None,990.6353085911833,None,991.5686244703829,None,1.6597883597883598,0.7831608070991933,991.5686244703829,None,,,,,,,,,,,,,,,,,168,001,2024_Feb_26_1652,SpeechDraft1Carolyn_lessNoise_PlusLocalization,2021.2.3,59.89909267622205,
,,,,,,,,center,0.0,6,ch1Sound_localizationTask.wav,0.0,"(952, 878)","(-8,-202)",0,-338,,,,,,,,,6,1,43,3,,,,,,,,,,,,,,,,,,,,,,,,,,,,,,,,,,,,,,,,,,,,992.3525002812967,None,993.4520893511362,None,994.3854189631529,None,1.5052910052910053,0.7664435510523617,994.3854189631529,None,,,,,,,,,,,,,,,,,168,001,2024_Feb_26_1652,SpeechDraft1Carolyn_lessNoise_PlusLocalization,2021.2.3,59.89909267622205,
,,,,,,,,farLeft,-19.1,5,ch1Sound_localizationTask.wav,-19.1,"(667, 878)","(-293,-202)",-285,-338,,,,,,,,,6,2,44,0,,,,,,,,,,,,,,,,,,,,,,,,,,,,,,,,,,,,,,,,,,,,995.1529763950966,None,996.2520317360759,None,997.1853459752165,None,1.342857142857143,0.4869486279785633,997.1853459752165,None,,,,,,,,,,,,,,,,,168,001,2024_Feb_26_1652,SpeechDraft1Carolyn_lessNoise_PlusLocalization,2021.2.3,59.89909267622205,
,,,,,,,,farRight,19.1,4,ch1Sound_localizationTask.wav,19.1,"(1237, 878)","(277,-202)",285,-338,,,,,,,,,6,3,45,6,,,,,,,,,,,,,,,,,,,,,,,,,,,,,,,,,,,,,,,,,,,,997.685887016356,None,998.7851928053424,None,999.7187903542072,None,1.687830687830688,0.616242291405797,999.7187903542072,None,,,,,,,,,,,,,,,,,168,001,2024_Feb_26_1652,SpeechDraft1Carolyn_lessNoise_PlusLocalization,2021.2.3,59.89909267622205,
,,,,,,,,center,0.0,6,ch1Sound_localizationTask.wav,0.0,"(952, 878)","(-8,-202)",0,-338,,,,,,,,,6,4,46,3,,,,,,,,,,,,,,,,,,,,,,,,,,,,,,,,,,,,,,,,,,,,1000.3524364773184,None,1001.4519561631605,None,1002.3855358343571,None,1.4984126984126984,0.7994557362981141,1002.3855358343571,None,,,,,,,,,,,,,,,,,168,001,2024_Feb_26_1652,SpeechDraft1Carolyn_lessNoise_PlusLocalization,2021.2.3,59.89909267622205,
,,,,,,,,midRight,13.0,3,ch1Sound_localizationTask.wav,13.0,"(1142, 878)","(182, -202)",190,-338,,,,,,,,,6,5,47,5,,,,,,,,,,,,,,,,,,,,,,,,,,,,,,,,,,,,,,,,,,,,1003.1858119391836,None,1004.285368506331,None,1005.2192322523333,None,1.624867724867725,0.5661070770584047,1005.2192322523333,None,,,,,,,,,,,,,,,,,168,001,2024_Feb_26_1652,SpeechDraft1Carolyn_lessNoise_PlusLocalization,2021.2.3,59.89909267622205,
,,,,,,,,nearRight,6.5,0,ch1Sound_localizationTask.wav,6.5,"(1047, 878)","(87, -202)",95,-338,,,,,,,,,6,6,48,4,,,,,,,,,,,,,,,,,,,,,,,,,,,,,,,,,,,,,,,,,,,,1005.7858581249602,None,1006.8853227333166,None,1007.8187007992528,None,1.5444444444444443,0.46620310097932816,1007.8187007992528,None,,,,,,,,,,,,,,,,,168,001,2024_Feb_26_1652,SpeechDraft1Carolyn_lessNoise_PlusLocalization,2021.2.3,59.89909267622205,
,,,,,,,,center,0.0,6,ch1Sound_localizationTask.wav,0.0,"(952, 878)","(-8,-202)",0,-338,,,,,,,,,7,0,49,3,,,,,,,,,,,,,,,,,,,,,,,,,,,,,,,,,,,,,,,,,,,,1008.2856401503086,None,1009.3853589631617,None,1010.3186756870709,None,1.4984126984126984,0.616365744266659,1010.3186756870709,None,,,,,,,,,,,,,,,,,168,001,2024_Feb_26_1652,SpeechDraft1Carolyn_lessNoise_PlusLocalization,2021.2.3,59.89909267622205,
,,,,,,,,nearLeft,-6.5,1,ch1Sound_localizationTask.wav,-6.5,"(857, 878)","(-103,-202)",-95,-338,,,,,,,,,7,1,50,2,,,,,,,,,,,,,,,,,,,,,,,,,,,,,,,,,,,,,,,,,,,,1010.9360833200626,None,1012.0353047000244,None,1012.9689525011927,None,1.447089947089947,0.5680349082686007,1012.9689525011927,None,,,,,,,,,,,,,,,,,168,001,2024_Feb_26_1652,SpeechDraft1Carolyn_lessNoise_PlusLocalization,2021.2.3,59.89909267622205,
,,,,,,,,nearRight,6.5,0,ch1Sound_localizationTask.wav,6.5,"(1047, 878)","(87, -202)",95,-338,,,,,,,,,7,2,51,4,,,,,,,,,,,,,,,,,,,,,,,,,,,,,,,,,,,,,,,,,,,,1013.5523057491519,None,1014.6521672592498,None,1015.5856474819593,None,1.547089947089947,0.6158468639478087,1015.5856474819593,None,,,,,,,,,,,,,,,,,168,001,2024_Feb_26_1652,SpeechDraft1Carolyn_lessNoise_PlusLocalization,2021.2.3,59.89909267622205,
,,,,,,,,nearRight,6.5,0,ch1Sound_localizationTask.wav,6.5,"(1047, 878)","(87, -202)",95,-338,,,,,,,,,7,3,52,4,,,,,,,,,,,,,,,,,,,,,,,,,,,,,,,,,,,,,,,,,,,,1016.2189545440488,None,1017.3185756742023,None,1018.252019372303,None,1.519047619047619,0.31743600498884916,1018.252019372303,None,,,,,,,,,,,,,,,,,168,001,2024_Feb_26_1652,SpeechDraft1Carolyn_lessNoise_PlusLocalization,2021.2.3,59.89909267622205,
,,,,,,,,nearRight,6.5,0,ch1Sound_localizationTask.wav,6.5,"(1047, 878)","(87, -202)",95,-338,,,,,,,,,7,4,53,4,,,,,,,,,,,,,,,,,,,,,,,,,,,,,,,,,,,,,,,,,,,,1018.5858753169887,None,1019.6853517713025,None,1020.6186238103546,None,1.507936507936508,0.700299093965441,1020.6186238103546,None,,,,,,,,,,,,,,,,,168,001,2024_Feb_26_1652,SpeechDraft1Carolyn_lessNoise_PlusLocalization,2021.2.3,59.89909267622205,
,,,,,,,,farLeft,-19.1,5,ch1Sound_localizationTask.wav,-19.1,"(667, 878)","(-293,-202)",-285,-338,,,,,,,,,7,5,54,0,,,,,,,,,,,,,,,,,,,,,,,,,,,,,,,,,,,,,,,,,,,,1021.3194008520804,None,1022.4186386251822,None,1023.3520708940923,None,1.3328042328042329,0.6005147839896381,1023.3520708940923,None,,,,,,,,,,,,,,,,,168,001,2024_Feb_26_1652,SpeechDraft1Carolyn_lessNoise_PlusLocalization,2021.2.3,59.89909267622205,
,,,,,,,,farRight,19.1,4,ch1Sound_localizationTask.wav,19.1,"(1237, 878)","(277,-202)",285,-338,,,,,,,,,7,6,55,6,,,,,,,,,,,,,,,,,,,,,,,,,,,,,,,,,,,,,,,,,,,,1023.969171767123,None,1025.0686845500022,None,1026.0020230533555,None,1.6978835978835978,0.7325172326527536,1026.0020230533555,None,,,,,,,,,,,,,,,,,168,001,2024_Feb_26_1652,SpeechDraft1Carolyn_lessNoise_PlusLocalization,2021.2.3,59.89909267622205,
,,,,,,,,,,,,,,,,,,,,,,,,,,,,,,,,,,,,,,,,,,,,,,,,,,,,,,,,,,,,,,,,,,,,,,,,,,,,,,,,,,space,9.083999891299754,1026.8189795822836,None,,,,,,,,,,,,,168,001,2024_Feb_26_1652,SpeechDraft1Carolyn_lessNoise_PlusLocalization,2021.2.3,59.89909267622205,
,,,,,,,,nearLeft,-6.5,1,ch1Sound_localizationTask.wav,-6.5,"(857, 878)","(-103,-202)",-95,-338,,,,,,,,,,,,,0,0,0,2,,,,,,,,,,,,,,,,,,,,,,,,,,,,,,,,,,,,,,,,1035.9519981150515,None,,,1038.9855590141378,None,1.433862433862434,0.7883435292169452,1038.9855590141378,None,,,,,1026.8189795822836,None,1036.9522935310379,None,1037.1357685653493,1037.1522750151344,,,,,,,168,001,2024_Feb_26_1652,SpeechDraft1Carolyn_lessNoise_PlusLocalization,2021.2.3,59.89909267622205,
,,,,,,,,midLeft,-13.0,2,ch1Sound_localizationTask.wav,-13.0,"(762, 878)","(-198,-202)",-190,-338,,,,,,,,,,,,,0,1,1,1,,,,,,,,,,,,,,,,,,,,,,,,,,,,,,,,,,,,,,,,1039.7856771433726,None,,,1042.8020372581668,None,1.4052910052910053,0.7170101399533451,1042.8020372581668,None,,,,,,,1040.7857228540815,None,1040.9689712100662,1040.9857407440431,,,,,,,168,001,2024_Feb_26_1652,SpeechDraft1Carolyn_lessNoise_PlusLocalization,2021.2.3,59.89909267622205,
,,,,,,,,midRight,13.0,3,ch1Sound_localizationTask.wav,13.0,"(1142, 878)","(182, -202)",190,-338,,,,,,,,,,,,,0,2,2,5,,,,,,,,,,,,,,,,,,,,,,,,,,,,,,,,,,,,,,,,1043.5355986841023,None,,,1046.5521604949608,None,1.608994708994709,0.7649133037775755,1046.5521604949608,None,,,,,,,1044.5355914039537,None,1044.7189510371536,1044.7356394841336,,,,,,,168,001,2024_Feb_26_1652,SpeechDraft1Carolyn_lessNoise_PlusLocalization,2021.2.3,59.89909267622205,
,,,,,,,,midLeft,-13.0,2,ch1Sound_localizationTask.wav,-13.0,"(762, 878)","(-198,-202)",-190,-338,,,,,,,,,,,,,0,3,3,1,,,,,,,,,,,,,,,,,,,,,,,,,,,,,,,,,,,,,,,,1047.3191423723474,None,,,1050.3353393110447,None,1.42010582010582,0.6673250813037157,1050.3353393110447,None,,,,,,,1048.3189707300626,None,1048.502351666335,1048.5189637793228,,,,,,,168,001,2024_Feb_26_1652,SpeechDraft1Carolyn_lessNoise_PlusLocalization,2021.2.3,59.89909267622205,
,,,,,,,,farRight,19.1,4,ch1Sound_localizationTask.wav,19.1,"(1237, 878)","(277,-202)",285,-338,,,,,,,,,,,,,0,4,4,6,,,,,,,,,,,,,,,,,,,,,,,,,,,,,,,,,,,,,,,,1051.0191176082008,None,,,1054.0353720430285,None,1.6677248677248677,0.6524594961665571,1054.0353720430285,None,,,,,,,1052.0190918063745,None,1052.2024403843097,1052.2189909853041,,,,,,,168,001,2024_Feb_26_1652,SpeechDraft1Carolyn_lessNoise_PlusLocalization,2021.2.3,59.89909267622205,
,,,,,,,,farRight,19.1,4,ch1Sound_localizationTask.wav,19.1,"(1237, 878)","(277,-202)",285,-338,,,,,,,,,,,,,0,5,5,6,,,,,,,,,,,,,,,,,,,,,,,,,,,,,,,,,,,,,,,,1054.7023975402117,None,,,1057.7187258810736,None,1.6502645502645503,0.8654701421037316,1057.7187258810736,None,,,,,,,1055.70228748722,None,1055.8857031669468,1055.9022845081054,,,,,,,168,001,2024_Feb_26_1652,SpeechDraft1Carolyn_lessNoise_PlusLocalization,2021.2.3,59.89909267622205,
,,,,,,,,nearLeft,-6.5,1,ch1Sound_localizationTask.wav,-6.5,"(857, 878)","(-103,-202)",-95,-338,,,,,,,,,,,,,0,6,6,2,,,,,,,,,,,,,,,,,,,,,,,,,,,,,,,,,,,,,,,,1058.5868086521514,None,,,1061.6187472599559,None,1.4492063492063492,1.0003713951446116,1061.6187472599559,None,,,,,,,1059.602391045075,None,1059.7857209951617,1059.8023261250928,,,,,,,168,001,2024_Feb_26_1652,SpeechDraft1Carolyn_lessNoise_PlusLocalization,2021.2.3,59.89909267622205,
,,,,,,,,center,0.0,6,ch1Sound_localizationTask.wav,0.0,"(952, 878)","(-8,-202)",0,-338,,,,,,,,,,,,,1,0,7,3,,,,,,,,,,,,,,,,,,,,,,,,,,,,,,,,,,,,,,,,1062.6355715240352,None,,,1065.652020484209,None,1.498941798941799,0.8661515796557069,1065.652020484209,None,,,,,,,1063.6356561682187,None,1063.8189455303364,1063.835639658384,,,,,,,168,001,2024_Feb_26_1652,SpeechDraft1Carolyn_lessNoise_PlusLocalization,2021.2.3,59.89909267622205,
,,,,,,,,nearRight,6.5,0,ch1Sound_localizationTask.wav,6.5,"(1047, 878)","(87, -202)",95,-338,,,,,,,,,,,,,1,1,8,4,,,,,,,,,,,,,,,,,,,,,,,,,,,,,,,,,,,,,,,,1066.5199960232712,None,,,1069.5355386859737,None,1.5592592592592593,0.632795232348144,1069.5355386859737,None,,,,,,,1067.519027528353,None,1067.7023388673551,1067.7191091333516,,,,,,,168,001,2024_Feb_26_1652,SpeechDraft1Carolyn_lessNoise_PlusLocalization,2021.2.3,59.89909267622205,
,,,,,,,,farLeft,-19.1,5,ch1Sound_localizationTask.wav,-19.1,"(667, 878)","(-293,-202)",-285,-338,,,,,,,,,,,,,1,2,9,0,,,,,,,,,,,,,,,,,,,,,,,,,,,,,,,,,,,,,,,,1070.169448853936,None,,,1073.1854460993782,None,1.3338624338624339,0.601240236312151,1073.1854460993782,None,,,,,,,1071.1690135989338,None,1071.3523802333511,1071.3689801553264,,,,,,,168,001,2024_Feb_26_1652,SpeechDraft1Carolyn_lessNoise_PlusLocalization,2021.2.3,59.89909267622205,
,,,,,,,,center,0.0,6,ch1Sound_localizationTask.wav,0.0,"(952, 878)","(-8,-202)",0,-338,,,,,,,,,,,,,1,3,10,3,,,,,,,,,,,,,,,,,,,,,,,,,,,,,,,,,,,,,,,,1073.8024071021937,None,,,1076.8189029702917,None,1.4962962962962962,1.0825369008816779,1076.8189029702917,None,,,,,,,1074.8023819220252,None,1074.985764906276,1075.0023530949838,,,,,,,168,001,2024_Feb_26_1652,SpeechDraft1Carolyn_lessNoise_PlusLocalization,2021.2.3,59.89909267622205,
,,,,,,,,midRight,13.0,3,ch1Sound_localizationTask.wav,13.0,"(1142, 878)","(182, -202)",190,-338,,,,,,,,,,,,,1,4,11,5,,,,,,,,,,,,,,,,,,,,,,,,,,,,,,,,,,,,,,,,1077.919142560102,None,,,1080.9353659539483,None,1.602116402116402,0.7652298700995743,1080.9353659539483,None,,,,,,,1078.9190164343454,None,1079.102398415096,1079.1190682221204,,,,,,,168,001,2024_Feb_26_1652,SpeechDraft1Carolyn_lessNoise_PlusLocalization,2021.2.3,59.89909267622205,
,,,,,,,,center,0.0,6,ch1Sound_localizationTask.wav,0.0,"(952, 878)","(-8,-202)",0,-338,,,,,,,,,,,,,1,5,12,3,,,,,,,,,,,,,,,,,,,,,,,,,,,,,,,,,,,,,,,,1081.7023395202123,None,,,1084.7187684630044,None,1.5010582010582012,0.6826825099997222,1084.7187684630044,None,,,,,,,1082.702382131014,None,1082.8856464400887,1082.9022710169666,,,,,,,168,001,2024_Feb_26_1652,SpeechDraft1Carolyn_lessNoise_PlusLocalization,2021.2.3,59.89909267622205,
,,,,,,,,nearRight,6.5,0,ch1Sound_localizationTask.wav,6.5,"(1047, 878)","(87, -202)",95,-338,,,,,,,,,,,,,1,6,13,4,,,,,,,,,,,,,,,,,,,,,,,,,,,,,,,,,,,,,,,,1085.4036574093625,None,,,1088.4353981940076,None,1.5582010582010581,0.7489576009102166,1088.4353981940076,None,,,,,,,1086.4191222302616,None,1086.602522434201,1086.6191200921312,,,,,,,168,001,2024_Feb_26_1652,SpeechDraft1Carolyn_lessNoise_PlusLocalization,2021.2.3,59.89909267622205,
,,,,,,,,center,0.0,6,ch1Sound_localizationTask.wav,0.0,"(952, 878)","(-8,-202)",0,-338,,,,,,,,,,,,,2,0,14,3,,,,,,,,,,,,,,,,,,,,,,,,,,,,,,,,,,,,,,,,1089.1857704343274,None,,,1092.202364908997,None,1.4925925925925925,1.000922645907849,1092.202364908997,None,,,,,,,1090.1857399581932,None,1090.3691330482252,1090.3856999580748,,,,,,,168,001,2024_Feb_26_1652,SpeechDraft1Carolyn_lessNoise_PlusLocalization,2021.2.3,59.89909267622205,
,,,,,,,,farLeft,-19.1,5,ch1Sound_localizationTask.wav,-19.1,"(667, 878)","(-293,-202)",-285,-338,,,,,,,,,,,,,2,1,15,0,,,,,,,,,,,,,,,,,,,,,,,,,,,,,,,,,,,,,,,,1093.2191238892265,None,,,1096.235480051022,None,1.3317460317460317,0.6657316801138222,1096.235480051022,None,,,,,,,1094.2190596000291,None,1094.4024204872549,1094.419114469085,,,,,,,168,001,2024_Feb_26_1652,SpeechDraft1Carolyn_lessNoise_PlusLocalization,2021.2.3,59.89909267622205,
,,,,,,,,nearLeft,-6.5,1,ch1Sound_localizationTask.wav,-6.5,"(857, 878)","(-103,-202)",-95,-338,,,,,,,,,,,,,2,2,16,2,,,,,,,,,,,,,,,,,,,,,,,,,,,,,,,,,,,,,,,,1096.9192299391143,None,,,1099.935538358055,None,1.4555555555555555,0.9161033499985933,1099.935538358055,None,,,,,,,1097.9190478790551,None,1098.1024910509586,1098.1190158929676,,,,,,,168,001,2024_Feb_26_1652,SpeechDraft1Carolyn_lessNoise_PlusLocalization,2021.2.3,59.89909267622205,
,,,,,,,,center,0.0,6,ch1Sound_localizationTask.wav,0.0,"(952, 878)","(-8,-202)",0,-338,,,,,,,,,,,,,2,3,17,3,,,,,,,,,,,,,,,,,,,,,,,,,,,,,,,,,,,,,,,,1100.8526369449683,None,,,1103.8690347163938,None,1.4904761904761905,0.8665966619737446,1103.8690347163938,None,,,,,,,1101.852382037323,None,1102.0356171200983,1102.052402756177,,,,,,,168,001,2024_Feb_26_1652,SpeechDraft1Carolyn_lessNoise_PlusLocalization,2021.2.3,59.89909267622205,
,,,,,,,,midLeft,-13.0,2,ch1Sound_localizationTask.wav,-13.0,"(762, 878)","(-198,-202)",-190,-338,,,,,,,,,,,,,2,4,18,1,,,,,,,,,,,,,,,,,,,,,,,,,,,,,,,,,,,,,,,,1104.7524178619497,None,,,1107.7688239612617,None,1.3862433862433863,0.6675007133744657,1107.7688239612617,None,,,,,,,1105.7524251113646,None,1105.935770190321,1105.9524347023107,,,,,,,168,001,2024_Feb_26_1652,SpeechDraft1Carolyn_lessNoise_PlusLocalization,2021.2.3,59.89909267622205,
,,,,,,,,midLeft,-13.0,2,ch1Sound_localizationTask.wav,-13.0,"(762, 878)","(-198,-202)",-190,-338,,,,,,,,,,,,,2,5,19,1,,,,,,,,,,,,,,,,,,,,,,,,,,,,,,,,,,,,,,,,1108.452560108155,None,,,1111.4688158421777,None,1.4026455026455027,0.6174889178946614,1111.4688158421777,None,,,,,,,1109.4523416040465,None,1109.6357573242858,1109.652545137331,,,,,,,168,001,2024_Feb_26_1652,SpeechDraft1Carolyn_lessNoise_PlusLocalization,2021.2.3,59.89909267622205,
,,,,,,,,nearLeft,-6.5,1,ch1Sound_localizationTask.wav,-6.5,"(857, 878)","(-103,-202)",-95,-338,,,,,,,,,,,,,2,6,20,2,,,,,,,,,,,,,,,,,,,,,,,,,,,,,,,,,,,,,,,,1112.1027725241147,None,,,1115.1187346330844,None,1.4576719576719577,0.9003915870562196,1115.1187346330844,None,,,,,,,1113.102407446131,None,1113.2857296410948,1113.3023491930217,,,,,,,168,001,2024_Feb_26_1652,SpeechDraft1Carolyn_lessNoise_PlusLocalization,2021.2.3,59.89909267622205,
,,,,,,,,nearLeft,-6.5,1,ch1Sound_localizationTask.wav,-6.5,"(857, 878)","(-103,-202)",-95,-338,,,,,,,,,,,,,3,0,21,2,,,,,,,,,,,,,,,,,,,,,,,,,,,,,,,,,,,,,,,,1116.0357644441538,None,,,1119.052241444122,None,1.4513227513227513,0.6834403178654611,1119.052241444122,None,,,,,,,1117.0357257863507,None,1117.219030668959,1117.2357328631915,,,,,,,168,001,2024_Feb_26_1652,SpeechDraft1Carolyn_lessNoise_PlusLocalization,2021.2.3,59.89909267622205,
,,,,,,,,midRight,13.0,3,ch1Sound_localizationTask.wav,13.0,"(1142, 878)","(182, -202)",190,-338,,,,,,,,,,,,,3,1,22,5,,,,,,,,,,,,,,,,,,,,,,,,,,,,,,,,,,,,,,,,1119.7365625579841,None,,,1122.7523252163082,None,1.5349206349206348,0.032589757815003395,1122.7523252163082,None,,,,,,,1120.7357216821983,None,1120.9191247480921,1120.935781180393,,,,,,,168,001,2024_Feb_26_1652,SpeechDraft1Carolyn_lessNoise_PlusLocalization,2021.2.3,59.89909267622205,
,,,,,,,,farLeft,-19.1,5,ch1Sound_localizationTask.wav,-19.1,"(667, 878)","(-293,-202)",-285,-338,,,,,,,,,,,,,3,2,23,0,,,,,,,,,,,,,,,,,,,,,,,,,,,,,,,,,,,,,,,,1122.7864038031548,None,,,1125.8022443181835,None,1.3,0.9329307908192277,1125.8022443181835,None,,,,,,,1123.7858079583384,None,1123.969170648139,1123.9857020191848,,,,,,,168,001,2024_Feb_26_1652,SpeechDraft1Carolyn_lessNoise_PlusLocalization,2021.2.3,59.89909267622205,
,,,,,,,,center,0.0,6,ch1Sound_localizationTask.wav,0.0,"(952, 878)","(-8,-202)",0,-338,,,,,,,,,,,,,3,3,24,3,,,,,,,,,,,,,,,,,,,,,,,,,,,,,,,,,,,,,,,,1126.7527025649324,None,,,1129.768974589184,None,1.4841269841269842,0.9144538193941116,1129.768974589184,None,,,,,,,1127.7524489280768,None,1127.9356686179526,1127.9524622182362,,,,,,,168,001,2024_Feb_26_1652,SpeechDraft1Carolyn_lessNoise_PlusLocalization,2021.2.3,59.89909267622205,
,,,,,,,,nearRight,6.5,0,ch1Sound_localizationTask.wav,6.5,"(1047, 878)","(87, -202)",95,-338,,,,,,,,,,,,,3,4,25,4,,,,,,,,,,,,,,,,,,,,,,,,,,,,,,,,,,,,,,,,1130.6857663900591,None,,,1133.7022579563782,None,1.5682539682539682,0.46709001902490854,1133.7022579563782,None,,,,,,,1131.685751083307,None,1131.8691014563665,1131.8857453479432,,,,,,,168,001,2024_Feb_26_1652,SpeechDraft1Carolyn_lessNoise_PlusLocalization,2021.2.3,59.89909267622205,
,,,,,,,,farLeft,-19.1,5,ch1Sound_localizationTask.wav,-19.1,"(667, 878)","(-293,-202)",-285,-338,,,,,,,,,,,,,3,5,26,0,,,,,,,,,,,,,,,,,,,,,,,,,,,,,,,,,,,,,,,,1134.1858444409445,None,,,1137.2021687552333,None,1.3296296296296295,0.7839746316894889,1137.2021687552333,None,,,,,,,1135.1859557921998,None,1135.3691757461056,1135.3857481051236,,,,,,,168,001,2024_Feb_26_1652,SpeechDraft1Carolyn_lessNoise_PlusLocalization,2021.2.3,59.89909267622205,
,,,,,,,,midRight,13.0,3,ch1Sound_localizationTask.wav,13.0,"(1142, 878)","(182, -202)",190,-338,,,,,,,,,,,,,3,6,27,5,,,,,,,,,,,,,,,,,,,,,,,,,,,,,,,,,,,,,,,,1138.0025187539868,None,,,1141.019003035035,None,1.6105820105820106,1.1834157463163137,1141.019003035035,None,,,,,,,1139.00252728723,None,1139.1857921052724,1139.2026050360873,,,,,,,168,001,2024_Feb_26_1652,SpeechDraft1Carolyn_lessNoise_PlusLocalization,2021.2.3,59.89909267622205,
,,,,,,,,center,0.0,6,ch1Sound_localizationTask.wav,0.0,"(952, 878)","(-8,-202)",0,-338,,,,,,,,,,,,,4,0,28,3,,,,,,,,,,,,,,,,,,,,,,,,,,,,,,,,,,,,,,,,1142.2193870269693,None,,,1145.2355466801673,None,1.5005291005291004,0.7325455951504409,1145.2355466801673,None,,,,,,,1143.2191414250992,None,1143.4025191189721,1143.4190848753788,,,,,,,168,001,2024_Feb_26_1652,SpeechDraft1Carolyn_lessNoise_PlusLocalization,2021.2.3,59.89909267622205,
,,,,,,,,nearRight,6.5,0,ch1Sound_localizationTask.wav,6.5,"(1047, 878)","(87, -202)",95,-338,,,,,,,,,,,,,4,1,29,4,,,,,,,,,,,,,,,,,,,,,,,,,,,,,,,,,,,,,,,,1145.9859845349565,None,,,1149.002201775089,None,1.552910052910053,0.7323985807597637,1149.002201775089,None,,,,,,,1146.9858283251524,None,1147.1692263241857,1147.1857843622565,,,,,,,168,001,2024_Feb_26_1652,SpeechDraft1Carolyn_lessNoise_PlusLocalization,2021.2.3,59.89909267622205,
,,,,,,,,nearRight,6.5,0,ch1Sound_localizationTask.wav,6.5,"(1047, 878)","(87, -202)",95,-338,,,,,,,,,,,,,4,2,30,4,,,,,,,,,,,,,,,,,,,,,,,,,,,,,,,,,,,,,,,,1149.7367266369984,None,,,1152.752233219333,None,1.5423280423280423,0.2824182650074363,1152.752233219333,None,,,,,,,1150.7358083422296,None,1150.9191138329916,1150.935866702348,,,,,,,168,001,2024_Feb_26_1652,SpeechDraft1Carolyn_lessNoise_PlusLocalization,2021.2.3,59.89909267622205,
,,,,,,,,farRight,19.1,4,ch1Sound_localizationTask.wav,19.1,"(1237, 878)","(277,-202)",285,-338,,,,,,,,,,,,,4,3,31,6,,,,,,,,,,,,,,,,,,,,,,,,,,,,,,,,,,,,,,,,1153.036014445126,None,,,1156.0523580610752,None,1.6735449735449737,0.43209168082103133,1156.0523580610752,None,,,,,,,1154.0358728361316,None,1154.219141557347,1154.2357505033724,,,,,,,168,001,2024_Feb_26_1652,SpeechDraft1Carolyn_lessNoise_PlusLocalization,2021.2.3,59.89909267622205,
,,,,,,,,nearLeft,-6.5,1,ch1Sound_localizationTask.wav,-6.5,"(857, 878)","(-103,-202)",-95,-338,,,,,,,,,,,,,4,4,32,2,,,,,,,,,,,,,,,,,,,,,,,,,,,,,,,,,,,,,,,,1156.4858213439584,None,,,1159.5023209089413,None,1.4507936507936507,0.8997446401044726,1159.5023209089413,None,,,,,,,1157.4858256671578,None,1157.6691362531856,1157.6860133060254,,,,,,,168,001,2024_Feb_26_1652,SpeechDraft1Carolyn_lessNoise_PlusLocalization,2021.2.3,59.89909267622205,
,,,,,,,,midRight,13.0,3,ch1Sound_localizationTask.wav,13.0,"(1142, 878)","(182, -202)",190,-338,,,,,,,,,,,,,4,5,33,5,,,,,,,,,,,,,,,,,,,,,,,,,,,,,,,,,,,,,,,,1160.4027447169647,None,,,1163.419066498056,None,1.5883597883597882,0.9505397761240602,1163.419066498056,None,,,,,,,1161.4024879150093,None,1161.5856957989745,1161.6026508179493,,,,,,,168,001,2024_Feb_26_1652,SpeechDraft1Carolyn_lessNoise_PlusLocalization,2021.2.3,59.89909267622205,
,,,,,,,,farRight,19.1,4,ch1Sound_localizationTask.wav,19.1,"(1237, 878)","(277,-202)",285,-338,,,,,,,,,,,,,4,6,34,6,,,,,,,,,,,,,,,,,,,,,,,,,,,,,,,,,,,,,,,,1164.3857689099386,None,,,1167.4022501790896,None,1.6306878306878307,1.032640588004142,1167.4022501790896,None,,,,,,,1165.3857953911647,None,1165.569201495964,1165.5857722093351,,,,,,,168,001,2024_Feb_26_1652,SpeechDraft1Carolyn_lessNoise_PlusLocalization,2021.2.3,59.89909267622205,
,,,,,,,,farLeft,-19.1,5,ch1Sound_localizationTask.wav,-19.1,"(667, 878)","(-293,-202)",-285,-338,,,,,,,,,,,,,5,0,35,0,,,,,,,,,,,,,,,,,,,,,,,,,,,,,,,,,,,,,,,,1168.436046699062,None,,,1171.452118512243,None,1.3470899470899471,0.799386546947062,1171.452118512243,None,,,,,,,1169.4358333903365,None,1169.6191576123238,1169.635882213246,,,,,,,168,001,2024_Feb_26_1652,SpeechDraft1Carolyn_lessNoise_PlusLocalization,2021.2.3,59.89909267622205,
,,,,,,,,midRight,13.0,3,ch1Sound_localizationTask.wav,13.0,"(1142, 878)","(182, -202)",190,-338,,,,,,,,,,,,,5,1,36,5,,,,,,,,,,,,,,,,,,,,,,,,,,,,,,,,,,,,,,,,1172.252839337103,None,,,1175.2689823480323,None,1.5973544973544973,0.8494466836564243,1175.2689823480323,None,,,,,,,1173.2524629291147,None,1173.4358437932096,1173.452513765078,,,,,,,168,001,2024_Feb_26_1652,SpeechDraft1Carolyn_lessNoise_PlusLocalization,2021.2.3,59.89909267622205,
,,,,,,,,farLeft,-19.1,5,ch1Sound_localizationTask.wav,-19.1,"(667, 878)","(-293,-202)",-285,-338,,,,,,,,,,,,,5,2,37,0,,,,,,,,,,,,,,,,,,,,,,,,,,,,,,,,,,,,,,,,1176.1198070719838,None,,,1179.1356562259607,None,1.3365079365079366,0.6499188332818449,1179.1356562259607,None,,,,,,,1177.1192939071916,None,1177.3024922660552,1177.319125968963,,,,,,,168,001,2024_Feb_26_1652,SpeechDraft1Carolyn_lessNoise_PlusLocalization,2021.2.3,59.89909267622205,
,,,,,,,,farRight,19.1,4,ch1Sound_localizationTask.wav,19.1,"(1237, 878)","(277,-202)",285,-338,,,,,,,,,,,,,5,3,38,6,,,,,,,,,,,,,,,,,,,,,,,,,,,,,,,,,,,,,,,,1179.7870503882878,None,,,1182.8189362599514,None,1.6772486772486772,1.0325164697133005,1182.8189362599514,None,,,,,,,1180.8025628109463,None,1180.9857545820996,1181.0025194319896,,,,,,,168,001,2024_Feb_26_1652,SpeechDraft1Carolyn_lessNoise_PlusLocalization,2021.2.3,59.89909267622205,
,,,,,,,,midRight,13.0,3,ch1Sound_localizationTask.wav,13.0,"(1142, 878)","(182, -202)",190,-338,,,,,,,,,,,,,5,4,39,5,,,,,,,,,,,,,,,,,,,,,,,,,,,,,,,,,,,,,,,,1183.852547392249,None,,,1186.8689225823618,None,1.5925925925925926,0.7326897350139916,1186.8689225823618,None,,,,,,,1184.8526175329462,None,1185.036012724042,1185.0524821910076,,,,,,,168,001,2024_Feb_26_1652,SpeechDraft1Carolyn_lessNoise_PlusLocalization,2021.2.3,59.89909267622205,
,,,,,,,,midRight,13.0,3,ch1Sound_localizationTask.wav,13.0,"(1142, 878)","(182, -202)",190,-338,,,,,,,,,,,,,5,5,40,5,,,,,,,,,,,,,,,,,,,,,,,,,,,,,,,,,,,,,,,,1187.602988735307,None,,,1190.618970640935,None,1.5962962962962963,0.4655791181139648,1190.618970640935,None,,,,,,,1188.6026590219699,None,1188.7859077122994,1188.8025530963205,,,,,,,168,001,2024_Feb_26_1652,SpeechDraft1Carolyn_lessNoise_PlusLocalization,2021.2.3,59.89909267622205,
,,,,,,,,midLeft,-13.0,2,ch1Sound_localizationTask.wav,-13.0,"(762, 878)","(-198,-202)",-190,-338,,,,,,,,,,,,,5,6,41,1,,,,,,,,,,,,,,,,,,,,,,,,,,,,,,,,,,,,,,,,1191.085872813128,None,,,1194.1023404281586,None,1.3968253968253967,0.8826272590085864,1194.1023404281586,None,,,,,,,1192.0858359020203,None,1192.2692725909874,1192.2858385932632,,,,,,,168,001,2024_Feb_26_1652,SpeechDraft1Carolyn_lessNoise_PlusLocalization,2021.2.3,59.89909267622205,
,,,,,,,,nearRight,6.5,0,ch1Sound_localizationTask.wav,6.5,"(1047, 878)","(87, -202)",95,-338,,,,,,,,,,,,,6,0,42,4,,,,,,,,,,,,,,,,,,,,,,,,,,,,,,,,,,,,,,,,1194.9862229591236,None,,,1198.0021996819414,None,1.5645502645502645,0.9324090592563152,1198.0021996819414,None,,,,,,,1195.9858660949394,None,1196.1695585492998,1196.1858176309615,,,,,,,168,001,2024_Feb_26_1652,SpeechDraft1Carolyn_lessNoise_PlusLocalization,2021.2.3,59.89909267622205,
,,,,,,,,nearRight,6.5,0,ch1Sound_localizationTask.wav,6.5,"(1047, 878)","(87, -202)",95,-338,,,,,,,,,,,,,6,1,43,4,,,,,,,,,,,,,,,,,,,,,,,,,,,,,,,,,,,,,,,,1198.9364211671054,None,,,1201.9522552872077,None,1.5455026455026455,0.4822602109052241,1201.9522552872077,None,,,,,,,1199.935875562951,None,1200.1191077800468,1200.135863810312,,,,,,,168,001,2024_Feb_26_1652,SpeechDraft1Carolyn_lessNoise_PlusLocalization,2021.2.3,59.89909267622205,
,,,,,,,,farRight,19.1,4,ch1Sound_localizationTask.wav,19.1,"(1237, 878)","(277,-202)",285,-338,,,,,,,,,,,,,6,2,44,6,,,,,,,,,,,,,,,,,,,,,,,,,,,,,,,,,,,,,,,,1202.4363604793325,None,,,1205.4522314900532,None,1.7338624338624338,0.6660078330896795,1205.4522314900532,None,,,,,,,1203.4359151651151,None,1203.6191456462257,1203.6359231853858,,,,,,,168,001,2024_Feb_26_1652,SpeechDraft1Carolyn_lessNoise_PlusLocalization,2021.2.3,59.89909267622205,
,,,,,,,,farRight,19.1,4,ch1Sound_localizationTask.wav,19.1,"(1237, 878)","(277,-202)",285,-338,,,,,,,,,,,,,6,3,45,6,,,,,,,,,,,,,,,,,,,,,,,,,,,,,,,,,,,,,,,,1206.1197491162457,None,,,1209.135581087321,None,1.6513227513227513,0.7829650342464447,1209.135581087321,None,,,,,,,1207.1192285781726,None,1207.3026586342603,1207.3192587071098,,,,,,,168,001,2024_Feb_26_1652,SpeechDraft1Carolyn_lessNoise_PlusLocalization,2021.2.3,59.89909267622205,
,,,,,,,,nearLeft,-6.5,1,ch1Sound_localizationTask.wav,-6.5,"(857, 878)","(-103,-202)",-95,-338,,,,,,,,,,,,,6,4,46,2,,,,,,,,,,,,,,,,,,,,,,,,,,,,,,,,,,,,,,,,1209.9200124060735,None,,,1212.9356425590813,None,1.4428571428571428,0.8663250701501966,1212.9356425590813,None,,,,,,,1210.9192708772607,None,1211.1025354932062,1211.1192373572849,,,,,,,168,001,2024_Feb_26_1652,SpeechDraft1Carolyn_lessNoise_PlusLocalization,2021.2.3,59.89909267622205,
,,,,,,,,farRight,19.1,4,ch1Sound_localizationTask.wav,19.1,"(1237, 878)","(277,-202)",285,-338,,,,,,,,,,,,,6,5,47,6,,,,,,,,,,,,,,,,,,,,,,,,,,,,,,,,,,,,,,,,1213.8033889643848,None,,,1216.8191224792972,None,1.6846560846560847,0.8163798386231065,1216.8191224792972,None,,,,,,,1214.8027323479764,None,1214.9859021003358,1215.0026070489548,,,,,,,168,001,2024_Feb_26_1652,SpeechDraft1Carolyn_lessNoise_PlusLocalization,2021.2.3,59.89909267622205,
,,,,,,,,nearLeft,-6.5,1,ch1Sound_localizationTask.wav,-6.5,"(857, 878)","(-103,-202)",-95,-338,,,,,,,,,,,,,6,6,48,2,,,,,,,,,,,,,,,,,,,,,,,,,,,,,,,,,,,,,,,,1217.6360937110148,None,,,1220.6521673873067,None,1.4582010582010583,0.8159661828540266,1220.6521673873067,None,,,,,,,1218.635892172344,None,1218.8191460561939,1218.8358954740688,,,,,,,168,001,2024_Feb_26_1652,SpeechDraft1Carolyn_lessNoise_PlusLocalization,2021.2.3,59.89909267622205,
,,,,,,,,midLeft,-13.0,2,ch1Sound_localizationTask.wav,-13.0,"(762, 878)","(-198,-202)",-190,-338,,,,,,,,,,,,,7,0,49,1,,,,,,,,,,,,,,,,,,,,,,,,,,,,,,,,,,,,,,,,1221.4695375729352,None,,,1224.4856838211417,None,1.4185185185185185,1.233227564021945,1224.4856838211417,None,,,,,,,1222.4692388162948,None,1222.6525183641352,1222.6692325272597,,,,,,,168,001,2024_Feb_26_1652,SpeechDraft1Carolyn_lessNoise_PlusLocalization,2021.2.3,59.89909267622205,
,,,,,,,,farLeft,-19.1,5,ch1Sound_localizationTask.wav,-19.1,"(667, 878)","(-293,-202)",-285,-338,,,,,,,,,,,,,7,1,50,0,,,,,,,,,,,,,,,,,,,,,,,,,,,,,,,,,,,,,,,,1225.719897259958,None,,,1228.7357562952675,None,1.3296296296296295,0.9662110661156476,1228.7357562952675,None,,,,,,,1226.7192120370455,None,1226.9025699892081,1226.919117837213,,,,,,,168,001,2024_Feb_26_1652,SpeechDraft1Carolyn_lessNoise_PlusLocalization,2021.2.3,59.89909267622205,
,,,,,,,,midLeft,-13.0,2,ch1Sound_localizationTask.wav,-13.0,"(762, 878)","(-198,-202)",-190,-338,,,,,,,,,,,,,7,2,51,1,,,,,,,,,,,,,,,,,,,,,,,,,,,,,,,,,,,,,,,,1229.7192686321214,None,,,1232.7357550952584,None,1.4142857142857141,0.7343709012493491,1232.7357550952584,None,,,,,,,1230.7192477541976,None,1230.9025557902642,1230.9192121420056,,,,,,,168,001,2024_Feb_26_1652,SpeechDraft1Carolyn_lessNoise_PlusLocalization,2021.2.3,59.89909267622205,
,,,,,,,,farLeft,-19.1,5,ch1Sound_localizationTask.wav,-19.1,"(667, 878)","(-293,-202)",-285,-338,,,,,,,,,,,,,7,3,52,0,,,,,,,,,,,,,,,,,,,,,,,,,,,,,,,,,,,,,,,,1233.485899482388,None,,,1236.5023090913892,None,1.3306878306878307,0.6670212219469249,1236.5023090913892,None,,,,,,,1234.4858892792836,None,1234.6701038731262,1234.685868719127,,,,,,,168,001,2024_Feb_26_1652,SpeechDraft1Carolyn_lessNoise_PlusLocalization,2021.2.3,59.89909267622205,
,,,,,,,,nearRight,6.5,0,ch1Sound_localizationTask.wav,6.5,"(1047, 878)","(87, -202)",95,-338,,,,,,,,,,,,,7,4,53,4,,,,,,,,,,,,,,,,,,,,,,,,,,,,,,,,,,,,,,,,1237.1859665750526,None,,,1240.2024484411813,None,1.5756613756613755,0.6985206962563097,1240.2024484411813,None,,,,,,,1238.185891520232,None,1238.3695013392717,1238.3860628581606,,,,,,,168,001,2024_Feb_26_1652,SpeechDraft1Carolyn_lessNoise_PlusLocalization,2021.2.3,59.89909267622205,
,,,,,,,,midLeft,-13.0,2,ch1Sound_localizationTask.wav,-13.0,"(762, 878)","(-198,-202)",-190,-338,,,,,,,,,,,,,7,5,54,1,,,,,,,,,,,,,,,,,,,,,,,,,,,,,,,,,,,,,,,,1240.9029627973214,None,,,1243.9189143031836,None,1.4126984126984126,0.5641376269049942,1243.9189143031836,None,,,,,,,1241.9025566820055,None,1242.0860196049325,1242.102687557228,,,,,,,168,001,2024_Feb_26_1652,SpeechDraft1Carolyn_lessNoise_PlusLocalization,2021.2.3,59.89909267622205,
,,,,,,,,center,0.0,6,ch1Sound_localizationTask.wav,0.0,"(952, 878)","(-8,-202)",0,-338,,,,,,,,,,,,,7,6,55,3,,,,,,,,,,,,,,,,,,,,,,,,,,,,,,,,,,,,,,,,1244.5027097100392,None,,,1247.5190157000907,None,1.5052910052910053,0.49996618973091245,1247.5190157000907,None,,,,,,,1245.5024778922088,None,1245.6859338493086,1245.702501184307,,,,,,,168,001,2024_Feb_26_1652,SpeechDraft1Carolyn_lessNoise_PlusLocalization,2021.2.3,59.89909267622205,
,,,,,,,,,,,,,,,,,,,,,,,,,,,,,,,,,,,,,,,,,,,,,,,,,,,,,,,,,,,,,,,,,,,,,,,,,,,,,,,,,,,,,,,,,,,,1248.035863548983,None,c,172.40384259307757,1249.0192572781816,None,168,001,2024_Feb_26_1652,SpeechDraft1Carolyn_lessNoise_PlusLocalization,2021.2.3,59.89909267622205,
