Audio_Only_Files,Video_Files,Original_Word_List,noiseLevelCode,conditionCodes,noiseLevelFile1,noiseLevelFile2,InstrTextVar,targetSpeakerName,targetSpeakerEccen,targetSpkrChannel,targetSpkrSound,targetVisualDegrees,visStimLoc,visStimLoc2,visStimW,visStimH,practiceTrials.thisRepN,practiceTrials.thisTrialN,practiceTrials.thisN,practiceTrials.thisIndex,trials.thisRepN,trials.thisTrialN,trials.thisN,trials.thisIndex,audLocalLoop.thisRepN,audLocalLoop.thisTrialN,audLocalLoop.thisN,audLocalLoop.thisIndex,visualLocalLoop.thisRepN,visualLocalLoop.thisTrialN,visualLocalLoop.thisN,visualLocalLoop.thisIndex,letsGoAlready.keys,letsGoAlready.rt,letsGoAlready.started,letsGoAlready.stopped,text_2.started,text_2.stopped,text_3.started,text_3.stopped,key_resp_2.keys,key_resp_2.rt,key_resp_2.started,key_resp_2.stopped,text_5.started,text_5.stopped,fixCross.started,fixCross.stopped,fixCross2.started,fixCross2.stopped,answerPrompt.started,answerPrompt.stopped,getAnswer.text,getAnswer.started,getAnswer.stopped,goToNext.keys,goToNext.rt,goToNext.started,goToNext.stopped,stretchBreakTxrt.started,stretchBreakTxrt.stopped,key_resp_3.keys,key_resp_3.rt,key_resp_3.started,key_resp_3.stopped,letsGoLocal.keys,letsGoLocal.rt,letsGoLocal.started,letsGoLocal.stopped,text_4.started,text_4.stopped,prepFixTxt.started,prepFixTxt.stopped,prepFixTxt_2.started,prepFixTxt_2.stopped,respPromptLocal.started,respPromptLocal.stopped,slider.response,slider.rt,slider.started,slider.stopped,letsGoLocal_2.keys,letsGoLocal_2.rt,letsGoLocal_2.started,letsGoLocal_2.stopped,text_7.started,text_7.stopped,prepFixTxt_3.started,prepFixTxt_3.stopped,grating.started,grating.stopped,exitTxt.started,exitTxt.stopped,key_resp.keys,key_resp.rt,key_resp.started,key_resp.stopped,participant,session,date,expName,psychopyVersion,frameRate,
,,,,,,,,,,,,,,,,,,,,,,,,,,,,,,,,,space,323.624733034987,16.82846219977364,None,,,,,,,,,,,,,,,,,,,,,,,,,,,,,,,,,,,,,,,,,,,,,,,,,,,,,,,,,,,,,,169,001,2024_Feb_27_1149,SpeechDraft1Carolyn_lessNoise_PlusLocalization,2021.2.3,60.016533388284586,
,,,,,,,,,,,,,,,,,,,,,,,,,,,,,,,,,,,,,16.82846219977364,None,340.5791154927574,None,space,9.019237923901528,340.7620223839767,None,,,,,,,,,,,,,,,,,,,,,,,,,,,,,,,,,,,,,,,,,,,,,,,,,,,,,,169,001,2024_Feb_27_1149,SpeechDraft1Carolyn_lessNoise_PlusLocalization,2021.2.3,60.016533388284586,
ash.wav,ash.mpg,ash,1,A,Pink_Noise_1_1.wav,Pink_Noise_1_2.wav,"This is an example of an

AUDIO trial",,,,,,,,,,0,0,0,0,,,,,,,,,,,,,,,,,,,,,,,,,349.8289980357513,None,350.82874092366546,None,354.02846506703645,None,355.41361078759655,None,ash,355.41361078759655,None,return,8.357803705148399,355.4953899849206,None,,,,,,,,,,,,,,,,,,,,,,,,,,,,,,,,,,,,,,,169,001,2024_Feb_27_1149,SpeechDraft1Carolyn_lessNoise_PlusLocalization,2021.2.3,60.016533388284586,
ash.wav,ash.mpg,ash,1,AV,Pink_Noise_1_1.wav,Pink_Noise_1_2.wav,"This is an example of an

AUDIO + VIDEO  trial",,,,,,,,,,0,1,1,1,,,,,,,,,,,,,,,,,,,,,,,,,363.89502427959815,None,364.8954122909345,None,366.3785205585882,None,367.7620298718102,None,ash,367.7620298718102,None,return,4.943789039272815,367.84540778864175,None,,,,,,,,,,,,,,,,,,,,,,,,,,,,,,,,,,,,,,,169,001,2024_Feb_27_1149,SpeechDraft1Carolyn_lessNoise_PlusLocalization,2021.2.3,60.016533388284586,
,,,,,,,,,,,,,,,,,,,,,,,,,,,,,,,,,,,,,,,,,,,,,,,,,,,,,,,,,,,,372.82859226781875,None,space,31.457181378267705,373.01204973086715,None,,,,,,,,,,,,,,,,,,,,,,,,,,,,,,,,,169,001,2024_Feb_27_1149,SpeechDraft1Carolyn_lessNoise_PlusLocalization,2021.2.3,60.016533388284586,
brow.wav,brow.mpg,brow,5,AV,Pink_Noise_5_1.wav,Pink_Noise_5_2.wav,,,,,,,,,,,,,,,0,0,0,119,,,,,,,,,,,,,,,,,,,,,,,404.5284624258056,None,406.01184955984354,None,407.395424074959,None,"row
",407.395424074959,None,return,3.3344382061623037,407.4787838216871,None,,,,,,,,,,,,,,,,,,,,,,,,,,,,,,,,,,,,,,,169,001,2024_Feb_27_1149,SpeechDraft1Carolyn_lessNoise_PlusLocalization,2021.2.3,60.016533388284586,
blind.wav,blind.mpg,blind,3,AV,Pink_Noise_3_1.wav,Pink_Noise_3_2.wav,,,,,,,,,,,,,,,0,1,1,70,,,,,,,,,,,,,,,,,,,,,,,410.8455384937115,None,412.34509111894295,None,413.7287332559936,None,blind,413.7287332559936,None,return,2.8811003672890365,413.8121034610085,None,,,,,,,,,,,,,,,,,,,,,,,,,,,,,,,,,,,,,,,169,001,2024_Feb_27_1149,SpeechDraft1Carolyn_lessNoise_PlusLocalization,2021.2.3,60.016533388284586,
feed.wav,feed.mpg,feed,1,AV,Pink_Noise_1_1.wav,Pink_Noise_1_2.wav,,,,,,,,,,,,,,,0,2,2,79,,,,,,,,,,,,,,,,,,,,,,,416.7121226028539,None,418.211780001875,None,419.59539105091244,None,feed,419.59539105091244,None,return,2.806556020863354,419.67874595569447,None,,,,,,,,,,,,,,,,,,,,,,,,,,,,,,,,,,,,,,,169,001,2024_Feb_27_1149,SpeechDraft1Carolyn_lessNoise_PlusLocalization,2021.2.3,60.016533388284586,
lost.wav,lost.mpg,lost,3,AV,Pink_Noise_3_1.wav,Pink_Noise_3_2.wav,,,,,,,,,,,,,,,0,3,3,71,,,,,,,,,,,,,,,,,,,,,,,422.5121240578592,None,423.9952359716408,None,425.37876309175044,None,"lost
",425.37876309175044,None,return,1.5670629660598934,425.462150039617,None,,,,,,,,,,,,,,,,,,,,,,,,,,,,,,,,,,,,,,,169,001,2024_Feb_27_1149,SpeechDraft1Carolyn_lessNoise_PlusLocalization,2021.2.3,60.016533388284586,
bathe.wav,bathe.mpg,bathe,3,A,Pink_Noise_3_1.wav,Pink_Noise_3_2.wav,,,,,,,,,,,,,,,0,4,4,14,,,,,,,,,,,,,,,,,,,,,,,427.06223820662126,None,428.5618633120321,None,429.9454342806712,None,alien,429.9454342806712,None,return,2.2882073898799717,430.0291451616213,None,,,,,,,,,,,,,,,,,,,,,,,,,,,,,,,,,,,,,,,169,001,2024_Feb_27_1149,SpeechDraft1Carolyn_lessNoise_PlusLocalization,2021.2.3,60.016533388284586,
style.wav,style.mpg,style,6,AV,Pink_Noise_6_1.wav,Pink_Noise_6_2.wav,,,,,,,,,,,,,,,0,5,5,110,,,,,,,,,,,,,,,,,,,,,,,432.3455080348067,None,433.8452425976284,None,435.22871135687456,None,sound,435.22871135687456,None,return,3.5250975131057203,435.31216397183016,None,,,,,,,,,,,,,,,,,,,,,,,,,,,,,,,,,,,,,,,169,001,2024_Feb_27_1149,SpeechDraft1Carolyn_lessNoise_PlusLocalization,2021.2.3,60.016533388284586,
unit.wav,unit.mpg,unit,2,A,Pink_Noise_2_1.wav,Pink_Noise_2_2.wav,,,,,,,,,,,,,,,0,6,6,0,,,,,,,,,,,,,,,,,,,,,,,438.86213241284713,None,440.36190679389983,None,441.7455399646424,None,"unit
",441.7455399646424,None,return,2.1844019037671387,441.82881544390693,None,,,,,,,,,,,,,,,,,,,,,,,,,,,,,,,,,,,,,,,169,001,2024_Feb_27_1149,SpeechDraft1Carolyn_lessNoise_PlusLocalization,2021.2.3,60.016533388284586,
smack.wav,smack.mpg,smack,2,A,Pink_Noise_2_1.wav,Pink_Noise_2_2.wav,,,,,,,,,,,,,,,0,7,7,8,,,,,,,,,,,,,,,,,,,,,,,444.0455620395951,None,445.54526882385835,None,446.92884514294565,None,smack,446.92884514294565,None,return,3.009041978046298,447.012157803867,None,,,,,,,,,,,,,,,,,,,,,,,,,,,,,,,,,,,,,,,169,001,2024_Feb_27_1149,SpeechDraft1Carolyn_lessNoise_PlusLocalization,2021.2.3,60.016533388284586,
blimp.wav,blimp.mpg,blimp,2,AV,Pink_Noise_2_1.wav,Pink_Noise_2_2.wav,,,,,,,,,,,,,,,0,8,8,92,,,,,,,,,,,,,,,,,,,,,,,450.04568607592955,None,451.5452755158767,None,452.92864581476897,None,"lip
",452.92864581476897,None,return,3.38493715133518,453.012274753768,None,,,,,,,,,,,,,,,,,,,,,,,,,,,,,,,,,,,,,,,169,001,2024_Feb_27_1149,SpeechDraft1Carolyn_lessNoise_PlusLocalization,2021.2.3,60.016533388284586,
glide.wav,glide.mpg,glide,2,A,Pink_Noise_2_1.wav,Pink_Noise_2_2.wav,,,,,,,,,,,,,,,0,9,9,22,,,,,,,,,,,,,,,,,,,,,,,456.428781171795,None,457.92851499374956,None,459.3121956498362,None,glide,459.3121956498362,None,return,2.3376304768025875,459.39560438878834,None,,,,,,,,,,,,,,,,,,,,,,,,,,,,,,,,,,,,,,,169,001,2024_Feb_27_1149,SpeechDraft1Carolyn_lessNoise_PlusLocalization,2021.2.3,60.016533388284586,
grape.wav,grape.mpg,grape,6,A,Pink_Noise_6_1.wav,Pink_Noise_6_2.wav,,,,,,,,,,,,,,,0,10,10,1,,,,,,,,,,,,,,,,,,,,,,,461.76223134668544,None,463.2458525276743,None,464.6289074947126,None,race,464.6289074947126,None,return,2.8929260331206024,464.7123254737817,None,,,,,,,,,,,,,,,,,,,,,,,,,,,,,,,,,,,,,,,169,001,2024_Feb_27_1149,SpeechDraft1Carolyn_lessNoise_PlusLocalization,2021.2.3,60.016533388284586,
swan.wav,swan.mpg,swan,6,A,Pink_Noise_6_1.wav,Pink_Noise_6_2.wav,,,,,,,,,,,,,,,0,11,11,24,,,,,,,,,,,,,,,,,,,,,,,467.62898756796494,None,469.12853090884164,None,470.5122766690329,None,go,470.5122766690329,None,return,2.3935941378585994,470.5956047256477,None,,,,,,,,,,,,,,,,,,,,,,,,,,,,,,,,,,,,,,,169,001,2024_Feb_27_1149,SpeechDraft1Carolyn_lessNoise_PlusLocalization,2021.2.3,60.016533388284586,
eye.wav,eye.mpg,eye,6,A,Pink_Noise_6_1.wav,Pink_Noise_6_2.wav,,,,,,,,,,,,,,,0,12,12,5,,,,,,,,,,,,,,,,,,,,,,,473.01214741775766,None,474.49525918764994,None,475.8788102166727,None,hire,475.8788102166727,None,return,3.570969423279166,475.96224247757345,None,,,,,,,,,,,,,,,,,,,,,,,,,,,,,,,,,,,,,,,169,001,2024_Feb_27_1149,SpeechDraft1Carolyn_lessNoise_PlusLocalization,2021.2.3,60.016533388284586,
fail.wav,fail.mpg,fail,2,A,Pink_Noise_2_1.wav,Pink_Noise_2_2.wav,,,,,,,,,,,,,,,0,13,13,10,,,,,,,,,,,,,,,,,,,,,,,479.5622174697928,None,481.0620194366202,None,482.44558793492615,None,fail,482.44558793492615,None,return,1.5563679849728942,482.5288740596734,None,,,,,,,,,,,,,,,,,,,,,,,,,,,,,,,,,,,,,,,169,001,2024_Feb_27_1149,SpeechDraft1Carolyn_lessNoise_PlusLocalization,2021.2.3,60.016533388284586,
cough.wav,cough.mpg,cough,2,AV,Pink_Noise_2_1.wav,Pink_Noise_2_2.wav,,,,,,,,,,,,,,,0,14,14,112,,,,,,,,,,,,,,,,,,,,,,,484.1122167808935,None,485.5953187686391,None,486.9788710628636,None,cough,486.9788710628636,None,return,3.6391361211426556,487.0622304128483,None,,,,,,,,,,,,,,,,,,,,,,,,,,,,,,,,,,,,,,,169,001,2024_Feb_27_1149,SpeechDraft1Carolyn_lessNoise_PlusLocalization,2021.2.3,60.016533388284586,
gag.wav,gag.mpg,gag,5,A,Pink_Noise_5_1.wav,Pink_Noise_5_2.wav,,,,,,,,,,,,,,,0,15,15,41,,,,,,,,,,,,,,,,,,,,,,,490.728902279865,None,492.21219141501933,None,493.5954901948571,None,gag,493.5954901948571,None,return,1.2382726110517979,493.67906297463924,None,,,,,,,,,,,,,,,,,,,,,,,,,,,,,,,,,,,,,,,169,001,2024_Feb_27_1149,SpeechDraft1Carolyn_lessNoise_PlusLocalization,2021.2.3,60.016533388284586,
bond.wav,bond.mpg,bond,5,AV,Pink_Noise_5_1.wav,Pink_Noise_5_2.wav,,,,,,,,,,,,,,,0,16,16,107,,,,,,,,,,,,,,,,,,,,,,,494.9455649838783,None,496.44530345266685,None,497.82878001686186,None,wind,497.82878001686186,None,return,1.133026722818613,497.91224869387224,None,,,,,,,,,,,,,,,,,,,,,,,,,,,,,,,,,,,,,,,169,001,2024_Feb_27_1149,SpeechDraft1Carolyn_lessNoise_PlusLocalization,2021.2.3,60.016533388284586,
crate.wav,crate.mpg,crate,4,AV,Pink_Noise_4_1.wav,Pink_Noise_4_2.wav,,,,,,,,,,,,,,,0,17,17,113,,,,,,,,,,,,,,,,,,,,,,,499.06230131862685,None,500.5453031756915,None,501.9288334758021,None,"create
",501.9288334758021,None,return,9.168968252837658,502.0122457155958,None,,,,,,,,,,,,,,,,,,,,,,,,,,,,,,,,,,,,,,,169,001,2024_Feb_27_1149,SpeechDraft1Carolyn_lessNoise_PlusLocalization,2021.2.3,60.016533388284586,
damn.wav,damn.mpg,damn,1,AV,Pink_Noise_1_1.wav,Pink_Noise_1_2.wav,,,,,,,,,,,,,,,0,18,18,80,,,,,,,,,,,,,,,,,,,,,,,511.2122218157165,None,512.7120394967496,None,514.0955532086082,None,damp,514.0955532086082,None,return,2.9063955331221223,514.1789526897483,None,,,,,,,,,,,,,,,,,,,,,,,,,,,,,,,,,,,,,,,169,001,2024_Feb_27_1149,SpeechDraft1Carolyn_lessNoise_PlusLocalization,2021.2.3,60.016533388284586,
fetch.wav,fetch.mpg,fetch,2,AV,Pink_Noise_2_1.wav,Pink_Noise_2_2.wav,,,,,,,,,,,,,,,0,19,19,66,,,,,,,,,,,,,,,,,,,,,,,517.1123208119534,None,518.6120896688662,None,519.995486500673,None,fetch,519.995486500673,None,return,5.277750573121011,520.0794376409613,None,,,,,,,,,,,,,,,,,,,,,,,,,,,,,,,,,,,,,,,169,001,2024_Feb_27_1149,SpeechDraft1Carolyn_lessNoise_PlusLocalization,2021.2.3,60.016533388284586,
bush.wav,bush.mpg,bush,3,AV,Pink_Noise_3_1.wav,Pink_Noise_3_2.wav,,,,,,,,,,,,,,,0,20,20,97,,,,,,,,,,,,,,,,,,,,,,,525.3788851117715,None,526.8787555396557,None,528.262194249779,None,brush,528.262194249779,None,return,1.2115167290903628,528.3456951268017,None,,,,,,,,,,,,,,,,,,,,,,,,,,,,,,,,,,,,,,,169,001,2024_Feb_27_1149,SpeechDraft1Carolyn_lessNoise_PlusLocalization,2021.2.3,60.016533388284586,
flair.wav,flair.mpg,flair,3,AV,Pink_Noise_3_1.wav,Pink_Noise_3_2.wav,,,,,,,,,,,,,,,0,21,21,100,,,,,,,,,,,,,,,,,,,,,,,529.5791280106641,None,531.0786176389083,None,532.4622756266035,None,glare,532.4622756266035,None,return,2.027606706134975,532.5455925869755,None,,,,,,,,,,,,,,,,,,,,,,,,,,,,,,,,,,,,,,,169,001,2024_Feb_27_1149,SpeechDraft1Carolyn_lessNoise_PlusLocalization,2021.2.3,60.016533388284586,
bunch.wav,bunch.mpg,bunch,4,AV,Pink_Noise_4_1.wav,Pink_Noise_4_2.wav,,,,,,,,,,,,,,,0,22,22,68,,,,,,,,,,,,,,,,,,,,,,,534.5955848880112,None,536.0955030787736,None,537.4788577398285,None,bush,537.4788577398285,None,return,0.7389927492477,537.5622638650239,None,,,,,,,,,,,,,,,,,,,,,,,,,,,,,,,,,,,,,,,169,001,2024_Feb_27_1149,SpeechDraft1Carolyn_lessNoise_PlusLocalization,2021.2.3,60.016533388284586,
truce.wav,truce.mpg,truce,3,AV,Pink_Noise_3_1.wav,Pink_Noise_3_2.wav,,,,,,,,,,,,,,,0,23,23,84,,,,,,,,,,,,,,,,,,,,,,,538.328932848759,None,539.8286238056608,None,541.2121522990055,None,truce,541.2121522990055,None,return,1.9815595904365182,541.2957175299525,None,,,,,,,,,,,,,,,,,,,,,,,,,,,,,,,,,,,,,,,169,001,2024_Feb_27_1149,SpeechDraft1Carolyn_lessNoise_PlusLocalization,2021.2.3,60.016533388284586,
clap.wav,clap.mpg,clap,3,A,Pink_Noise_3_1.wav,Pink_Noise_3_2.wav,,,,,,,,,,,,,,,0,24,24,35,,,,,,,,,,,,,,,,,,,,,,,543.2956458060071,None,544.7953646169044,None,546.1623260159977,None,clap,546.1623260159977,None,return,1.5435459148138762,546.2456646058708,None,,,,,,,,,,,,,,,,,,,,,,,,,,,,,,,,,,,,,,,169,001,2024_Feb_27_1149,SpeechDraft1Carolyn_lessNoise_PlusLocalization,2021.2.3,60.016533388284586,
croak.wav,croak.mpg,croak,3,A,Pink_Noise_3_1.wav,Pink_Noise_3_2.wav,,,,,,,,,,,,,,,0,25,25,15,,,,,,,,,,,,,,,,,,,,,,,547.8123643388972,None,549.3120509539731,None,550.6957007567398,None,"croak
",550.6957007567398,None,return,1.9702372984029353,550.7789938487113,None,,,,,,,,,,,,,,,,,,,,,,,,,,,,,,,,,,,,,,,169,001,2024_Feb_27_1149,SpeechDraft1Carolyn_lessNoise_PlusLocalization,2021.2.3,60.016533388284586,
guest.wav,guest.mpg,guest,1,A,Pink_Noise_1_1.wav,Pink_Noise_1_2.wav,,,,,,,,,,,,,,,0,26,26,55,,,,,,,,,,,,,,,,,,,,,,,552.7789940559305,None,554.2787094898522,None,555.662358937785,None,guest,555.662358937785,None,return,2.2996247140690684,555.7456213789992,None,,,,,,,,,,,,,,,,,,,,,,,,,,,,,,,,,,,,,,,169,001,2024_Feb_27_1149,SpeechDraft1Carolyn_lessNoise_PlusLocalization,2021.2.3,60.016533388284586,
shut.wav,shut.mpg,shut,6,A,Pink_Noise_6_1.wav,Pink_Noise_6_2.wav,,,,,,,,,,,,,,,0,27,27,33,,,,,,,,,,,,,,,,,,,,,,,558.0623308219947,None,559.5620118346997,None,560.9456703327596,None,idk,560.9456703327596,None,return,5.296159802004695,561.0290978406556,None,,,,,,,,,,,,,,,,,,,,,,,,,,,,,,,,,,,,,,,169,001,2024_Feb_27_1149,SpeechDraft1Carolyn_lessNoise_PlusLocalization,2021.2.3,60.016533388284586,
bless.wav,bless.mpg,bless,2,AV,Pink_Noise_2_1.wav,Pink_Noise_2_2.wav,,,,,,,,,,,,,,,0,28,28,99,,,,,,,,,,,,,,,,,,,,,,,566.3456615526229,None,567.862222940661,None,569.245741977822,None,"bless
",569.245741977822,None,return,1.2841817308217287,569.3290439099073,None,,,,,,,,,,,,,,,,,,,,,,,,,,,,,,,,,,,,,,,169,001,2024_Feb_27_1149,SpeechDraft1Carolyn_lessNoise_PlusLocalization,2021.2.3,60.016533388284586,
bear.wav,bear.mpg,bear,5,A,Pink_Noise_5_1.wav,Pink_Noise_5_2.wav,,,,,,,,,,,,,,,0,29,29,13,,,,,,,,,,,,,,,,,,,,,,,570.6457807407714,None,572.1294121807441,None,573.5123178078793,None,stare,573.5123178078793,None,return,1.9455731809139252,573.5956776328385,None,,,,,,,,,,,,,,,,,,,,,,,,,,,,,,,,,,,,,,,169,001,2024_Feb_27_1149,SpeechDraft1Carolyn_lessNoise_PlusLocalization,2021.2.3,60.016533388284586,
gun.wav,gun.mpg,gun,1,A,Pink_Noise_1_1.wav,Pink_Noise_1_2.wav,,,,,,,,,,,,,,,0,30,30,27,,,,,,,,,,,,,,,,,,,,,,,575.5624262546189,None,577.0467516495846,None,578.4290728317574,None,gun,578.4290728317574,None,return,1.9809479569084942,578.5123531138524,None,,,,,,,,,,,,,,,,,,,,,,,,,,,,,,,,,,,,,,,169,001,2024_Feb_27_1149,SpeechDraft1Carolyn_lessNoise_PlusLocalization,2021.2.3,60.016533388284586,
slick.wav,slick.mpg,slick,6,AV,Pink_Noise_6_1.wav,Pink_Noise_6_2.wav,,,,,,,,,,,,,,,0,31,31,83,,,,,,,,,,,,,,,,,,,,,,,580.5123257557862,None,582.0120929209515,None,583.3956023198552,None,sit,583.3956023198552,None,return,4.710168131161481,583.4790279907174,None,,,,,,,,,,,,,,,,,,,,,,,,,,,,,,,,,,,,,,,169,001,2024_Feb_27_1149,SpeechDraft1Carolyn_lessNoise_PlusLocalization,2021.2.3,60.016533388284586,
dive.wav,dive.mpg,dive,2,A,Pink_Noise_2_1.wav,Pink_Noise_2_2.wav,,,,,,,,,,,,,,,0,32,32,7,,,,,,,,,,,,,,,,,,,,,,,588.2123737828806,None,589.7120696096681,None,591.09576839488,None,die,591.09576839488,None,return,2.5781896230764687,591.1790130357258,None,,,,,,,,,,,,,,,,,,,,,,,,,,,,,,,,,,,,,,,169,001,2024_Feb_27_1149,SpeechDraft1Carolyn_lessNoise_PlusLocalization,2021.2.3,60.016533388284586,
frame.wav,frame.mpg,frame,3,A,Pink_Noise_3_1.wav,Pink_Noise_3_2.wav,,,,,,,,,,,,,,,0,33,33,25,,,,,,,,,,,,,,,,,,,,,,,593.7789915925823,None,595.2787682898343,None,596.6623842716217,None,"rain
",596.6623842716217,None,return,1.0674810740165412,596.7457215986215,None,,,,,,,,,,,,,,,,,,,,,,,,,,,,,,,,,,,,,,,169,001,2024_Feb_27_1149,SpeechDraft1Carolyn_lessNoise_PlusLocalization,2021.2.3,60.016533388284586,
desk.wav,desk.mpg,desk,4,A,Pink_Noise_4_1.wav,Pink_Noise_4_2.wav,,,,,,,,,,,,,,,0,34,34,42,,,,,,,,,,,,,,,,,,,,,,,597.8456536647864,None,599.3454251689836,None,600.729137650691,None,dust,600.729137650691,None,return,1.39280721032992,600.8123911479488,None,,,,,,,,,,,,,,,,,,,,,,,,,,,,,,,,,,,,,,,169,001,2024_Feb_27_1149,SpeechDraft1Carolyn_lessNoise_PlusLocalization,2021.2.3,60.016533388284586,
draw.wav,draw.mpg,draw,5,A,Pink_Noise_5_1.wav,Pink_Noise_5_2.wav,,,,,,,,,,,,,,,0,35,35,44,,,,,,,,,,,,,,,,,,,,,,,602.2291594087146,None,603.7287921826355,None,605.1124551296234,None,draw,605.1124551296234,None,return,0.8494135322980583,605.1958631779999,None,,,,,,,,,,,,,,,,,,,,,,,,,,,,,,,,,,,,,,,169,001,2024_Feb_27_1149,SpeechDraft1Carolyn_lessNoise_PlusLocalization,2021.2.3,60.016533388284586,
grind.wav,grind.mpg,grind,1,A,Pink_Noise_1_1.wav,Pink_Noise_1_2.wav,,,,,,,,,,,,,,,0,36,36,12,,,,,,,,,,,,,,,,,,,,,,,606.0624585379846,None,607.5620893887244,None,608.9457004875876,None,grind,608.9457004875876,None,return,1.424178705085069,609.0290933079086,None,,,,,,,,,,,,,,,,,,,,,,,,,,,,,,,,,,,,,,,169,001,2024_Feb_27_1149,SpeechDraft1Carolyn_lessNoise_PlusLocalization,2021.2.3,60.016533388284586,
die.wav,die.mpg,die,5,AV,Pink_Noise_5_1.wav,Pink_Noise_5_2.wav,,,,,,,,,,,,,,,0,37,37,74,,,,,,,,,,,,,,,,,,,,,,,610.4790505827405,None,611.9788006399758,None,613.3623166829348,None,die,613.3623166829348,None,return,2.527425543870777,613.4457744779065,None,,,,,,,,,,,,,,,,,,,,,,,,,,,,,,,,,,,,,,,169,001,2024_Feb_27_1149,SpeechDraft1Carolyn_lessNoise_PlusLocalization,2021.2.3,60.016533388284586,
freeze.wav,freeze.mpg,freeze,1,AV,Pink_Noise_1_1.wav,Pink_Noise_1_2.wav,,,,,,,,,,,,,,,0,38,38,85,,,,,,,,,,,,,,,,,,,,,,,615.9956985176541,None,617.4954593046568,None,618.8790566846728,None,"freeze
",618.8790566846728,None,return,1.602760833222419,618.9624560549855,None,,,,,,,,,,,,,,,,,,,,,,,,,,,,,,,,,,,,,,,169,001,2024_Feb_27_1149,SpeechDraft1Carolyn_lessNoise_PlusLocalization,2021.2.3,60.016533388284586,
beast.wav,beast.mpg,beast,2,A,Pink_Noise_2_1.wav,Pink_Noise_2_2.wav,,,,,,,,,,,,,,,0,39,39,17,,,,,,,,,,,,,,,,,,,,,,,620.5957679976709,None,622.0954311257228,None,623.4791052336805,None,beast,623.4791052336805,None,return,1.8107499927282333,623.5624489127658,None,,,,,,,,,,,,,,,,,,,,,,,,,,,,,,,,,,,,,,,169,001,2024_Feb_27_1149,SpeechDraft1Carolyn_lessNoise_PlusLocalization,2021.2.3,60.016533388284586,
coat.wav,coat.mpg,coat,3,A,Pink_Noise_3_1.wav,Pink_Noise_3_2.wav,,,,,,,,,,,,,,,0,40,40,52,,,,,,,,,,,,,,,,,,,,,,,625.3957560868002,None,626.8954132930376,None,628.2790483767167,None,coat,628.2790483767167,None,return,1.2427889117971063,628.3624094617553,None,,,,,,,,,,,,,,,,,,,,,,,,,,,,,,,,,,,,,,,169,001,2024_Feb_27_1149,SpeechDraft1Carolyn_lessNoise_PlusLocalization,2021.2.3,60.016533388284586,
gate.wav,gate.mpg,gate,5,AV,Pink_Noise_5_1.wav,Pink_Noise_5_2.wav,,,,,,,,,,,,,,,0,41,41,101,,,,,,,,,,,,,,,,,,,,,,,629.6290977518074,None,631.1288110339083,None,632.5122847487219,None,eight,632.5122847487219,None,return,3.137458728160709,632.5957566346042,None,,,,,,,,,,,,,,,,,,,,,,,,,,,,,,,,,,,,,,,169,001,2024_Feb_27_1149,SpeechDraft1Carolyn_lessNoise_PlusLocalization,2021.2.3,60.016533388284586,
tart.wav,tart.mpg,tart,3,AV,Pink_Noise_3_1.wav,Pink_Noise_3_2.wav,,,,,,,,,,,,,,,0,42,42,65,,,,,,,,,,,,,,,,,,,,,,,635.7624635947868,None,637.2621550946496,None,638.6456958726048,None,tart,638.6456958726048,None,return,3.1722162449732423,638.7291032657959,None,,,,,,,,,,,,,,,,,,,,,,,,,,,,,,,,,,,,,,,169,001,2024_Feb_27_1149,SpeechDraft1Carolyn_lessNoise_PlusLocalization,2021.2.3,60.016533388284586,
gown.wav,gown.mpg,gown,2,AV,Pink_Noise_2_1.wav,Pink_Noise_2_2.wav,,,,,,,,,,,,,,,0,43,43,108,,,,,,,,,,,,,,,,,,,,,,,641.929406891577,None,643.4289304586127,None,644.8128446587361,None,bell,644.8128446587361,None,return,5.981408141087741,644.8958023618907,None,,,,,,,,,,,,,,,,,,,,,,,,,,,,,,,,,,,,,,,169,001,2024_Feb_27_1149,SpeechDraft1Carolyn_lessNoise_PlusLocalization,2021.2.3,60.016533388284586,
gust.wav,gust.mpg,gust,5,A,Pink_Noise_5_1.wav,Pink_Noise_5_2.wav,,,,,,,,,,,,,,,0,44,44,38,,,,,,,,,,,,,,,,,,,,,,,650.8958736159839,None,652.3955562789924,None,653.7791084987111,None,gust,653.7791084987111,None,return,2.678757653106004,653.8624575687572,None,,,,,,,,,,,,,,,,,,,,,,,,,,,,,,,,,,,,,,,169,001,2024_Feb_27_1149,SpeechDraft1Carolyn_lessNoise_PlusLocalization,2021.2.3,60.016533388284586,
dust.wav,dust.mpg,dust,4,A,Pink_Noise_4_1.wav,Pink_Noise_4_2.wav,,,,,,,,,,,,,,,0,45,45,23,,,,,,,,,,,,,,,,,,,,,,,656.5626257490367,None,658.0621223510243,None,659.4458138467744,None,"bust
",659.4458138467744,None,return,4.036072980146855,659.5291382567957,None,,,,,,,,,,,,,,,,,,,,,,,,,,,,,,,,,,,,,,,169,001,2024_Feb_27_1149,SpeechDraft1Carolyn_lessNoise_PlusLocalization,2021.2.3,60.016533388284586,
born.wav,born.mpg,born,5,AV,Pink_Noise_5_1.wav,Pink_Noise_5_2.wav,,,,,,,,,,,,,,,0,46,46,78,,,,,,,,,,,,,,,,,,,,,,,663.5958790308796,None,665.0955307008699,None,666.4790809657425,None,forward,666.4790809657425,None,return,2.7066973918117583,666.5625491510145,None,,,,,,,,,,,,,,,,,,,,,,,,,,,,,,,,,,,,,,,169,001,2024_Feb_27_1149,SpeechDraft1Carolyn_lessNoise_PlusLocalization,2021.2.3,60.016533388284586,
guess.wav,guess.mpg,guess,4,A,Pink_Noise_4_1.wav,Pink_Noise_4_2.wav,,,,,,,,,,,,,,,0,47,47,56,,,,,,,,,,,,,,,,,,,,,,,669.2956758858636,None,670.7955510728061,None,672.1792094809934,None,"dus
",672.1792094809934,None,return,1.5347816268913448,672.2624294026755,None,,,,,,,,,,,,,,,,,,,,,,,,,,,,,,,,,,,,,,,169,001,2024_Feb_27_1149,SpeechDraft1Carolyn_lessNoise_PlusLocalization,2021.2.3,60.016533388284586,
groom.wav,groom.mpg,groom,1,AV,Pink_Noise_1_1.wav,Pink_Noise_1_2.wav,,,,,,,,,,,,,,,0,48,48,90,,,,,,,,,,,,,,,,,,,,,,,673.8293413599022,None,675.3288555908948,None,676.7124682608992,None,grow,676.7124682608992,None,return,0.7293050079606473,676.7959040408023,None,,,,,,,,,,,,,,,,,,,,,,,,,,,,,,,,,,,,,,,169,001,2024_Feb_27_1149,SpeechDraft1Carolyn_lessNoise_PlusLocalization,2021.2.3,60.016533388284586,
priest.wav,priest.mpg,priest,2,A,Pink_Noise_2_1.wav,Pink_Noise_2_2.wav,,,,,,,,,,,,,,,0,49,49,18,,,,,,,,,,,,,,,,,,,,,,,677.5458966698498,None,679.0455325618386,None,680.4291817047633,None,priest,680.4291817047633,None,return,1.948725275695324,680.5125512396917,None,,,,,,,,,,,,,,,,,,,,,,,,,,,,,,,,,,,,,,,169,001,2024_Feb_27_1149,SpeechDraft1Carolyn_lessNoise_PlusLocalization,2021.2.3,60.016533388284586,
brew.wav,brew.mpg,brew,1,AV,Pink_Noise_1_1.wav,Pink_Noise_1_2.wav,,,,,,,,,,,,,,,0,50,50,87,,,,,,,,,,,,,,,,,,,,,,,682.4791626138613,None,683.9790232968517,None,685.3625720618293,None,bew,685.3625720618293,None,return,1.5913864318281412,685.4458123897202,None,,,,,,,,,,,,,,,,,,,,,,,,,,,,,,,,,,,,,,,169,001,2024_Feb_27_1149,SpeechDraft1Carolyn_lessNoise_PlusLocalization,2021.2.3,60.016533388284586,
claw.wav,claw.mpg,claw,1,AV,Pink_Noise_1_1.wav,Pink_Noise_1_2.wav,,,,,,,,,,,,,,,0,51,51,62,,,,,,,,,,,,,,,,,,,,,,,687.0623801797628,None,688.5622773608193,None,689.9458362148143,None,claw,689.9458362148143,None,return,1.0879568760283291,690.0292444797233,None,,,,,,,,,,,,,,,,,,,,,,,,,,,,,,,,,,,,,,,169,001,2024_Feb_27_1149,SpeechDraft1Carolyn_lessNoise_PlusLocalization,2021.2.3,60.016533388284586,
glue.wav,glue.mpg,glue,2,AV,Pink_Noise_2_1.wav,Pink_Noise_2_2.wav,,,,,,,,,,,,,,,0,52,52,103,,,,,,,,,,,,,,,,,,,,,,,691.1458234987222,None,692.6456596516073,None,694.0291217458434,None,glue,694.0291217458434,None,return,1.0767587800510228,694.1124544739723,None,,,,,,,,,,,,,,,,,,,,,,,,,,,,,,,,,,,,,,,169,001,2024_Feb_27_1149,SpeechDraft1Carolyn_lessNoise_PlusLocalization,2021.2.3,60.016533388284586,
weep.wav,weep.mpg,weep,6,AV,Pink_Noise_6_1.wav,Pink_Noise_6_2.wav,,,,,,,,,,,,,,,0,53,53,82,,,,,,,,,,,,,,,,,,,,,,,695.2124966275878,None,696.7122488017194,None,698.09580111783,None,feel,698.09580111783,None,return,1.4901146669872105,698.1791662028991,None,,,,,,,,,,,,,,,,,,,,,,,,,,,,,,,,,,,,,,,169,001,2024_Feb_27_1149,SpeechDraft1Carolyn_lessNoise_PlusLocalization,2021.2.3,60.016533388284586,
buy.wav,buy.mpg,buy,2,A,Pink_Noise_2_1.wav,Pink_Noise_2_2.wav,,,,,,,,,,,,,,,0,54,54,28,,,,,,,,,,,,,,,,,,,,,,,699.6960565466434,None,701.1955606560223,None,702.579219092615,None,bye,702.579219092615,None,return,0.6786940982565284,702.662520645652,None,,,,,,,,,,,,,,,,,,,,,,,,,,,,,,,,,,,,,,,169,001,2024_Feb_27_1149,SpeechDraft1Carolyn_lessNoise_PlusLocalization,2021.2.3,60.016533388284586,
cork.wav,cork.mpg,cork,6,AV,Pink_Noise_6_1.wav,Pink_Noise_6_2.wav,,,,,,,,,,,,,,,0,55,55,109,,,,,,,,,,,,,,,,,,,,,,,703.3625565567054,None,704.862330401782,None,706.2460369318724,None,"work
",706.2460369318724,None,return,3.035994955804199,706.3292179689743,None,,,,,,,,,,,,,,,,,,,,,,,,,,,,,,,,,,,,,,,169,001,2024_Feb_27_1149,SpeechDraft1Carolyn_lessNoise_PlusLocalization,2021.2.3,60.016533388284586,
gone.wav,gone.mpg,gone,1,AV,Pink_Noise_1_1.wav,Pink_Noise_1_2.wav,,,,,,,,,,,,,,,0,56,56,64,,,,,,,,,,,,,,,,,,,,,,,709.3958205669187,None,710.8954909667373,None,712.27916200459,None,gone,712.27916200459,None,return,0.7785701733082533,712.3626505197026,None,,,,,,,,,,,,,,,,,,,,,,,,,,,,,,,,,,,,,,,169,001,2024_Feb_27_1149,SpeechDraft1Carolyn_lessNoise_PlusLocalization,2021.2.3,60.016533388284586,
chop.wav,chop.mpg,chop,6,A,Pink_Noise_6_1.wav,Pink_Noise_6_2.wav,,,,,,,,,,,,,,,0,57,57,21,,,,,,,,,,,,,,,,,,,,,,,713.1625266857445,None,714.6622745497152,None,716.0459119677544,None,shush,716.0459119677544,None,return,6.363949778024107,716.1292559290305,None,,,,,,,,,,,,,,,,,,,,,,,,,,,,,,,,,,,,,,,169,001,2024_Feb_27_1149,SpeechDraft1Carolyn_lessNoise_PlusLocalization,2021.2.3,60.016533388284586,
clown.wav,clown.mpg,clown,6,A,Pink_Noise_6_1.wav,Pink_Noise_6_2.wav,,,,,,,,,,,,,,,0,58,58,40,,,,,,,,,,,,,,,,,,,,,,,722.5125319487415,None,724.0122839869,None,725.3959544040263,None,glow,725.3959544040263,None,return,5.374034991022199,725.4791743280366,None,,,,,,,,,,,,,,,,,,,,,,,,,,,,,,,,,,,,,,,169,001,2024_Feb_27_1149,SpeechDraft1Carolyn_lessNoise_PlusLocalization,2021.2.3,60.016533388284586,
count.wav,count.mpg,count,5,A,Pink_Noise_5_1.wav,Pink_Noise_5_2.wav,,,,,,,,,,,,,,,0,59,59,16,,,,,,,,,,,,,,,,,,,,,,,730.8794143986888,None,732.3791125766002,None,733.7625760957599,None,stop,733.7625760957599,None,return,2.9113166299648583,733.8458840367384,None,,,,,,,,,,,,,,,,,,,,,,,,,,,,,,,,,,,,,,,169,001,2024_Feb_27_1149,SpeechDraft1Carolyn_lessNoise_PlusLocalization,2021.2.3,60.016533388284586,
fried.wav,fried.mpg,fried,4,AV,Pink_Noise_4_1.wav,Pink_Noise_4_2.wav,,,,,,,,,,,,,,,0,60,60,72,,,,,,,,,,,,,,,,,,,,,,,736.7792159458622,None,738.2790056127124,None,739.6625351589173,None,"dry
",739.6625351589173,None,return,1.0193000896833837,739.745915401727,None,,,,,,,,,,,,,,,,,,,,,,,,,,,,,,,,,,,,,,,169,001,2024_Feb_27_1149,SpeechDraft1Carolyn_lessNoise_PlusLocalization,2021.2.3,60.016533388284586,
claim.wav,claim.mpg,claim,2,AV,Pink_Noise_2_1.wav,Pink_Noise_2_2.wav,,,,,,,,,,,,,,,0,61,61,91,,,,,,,,,,,,,,,,,,,,,,,740.7959392778575,None,742.2957310290076,None,743.6791266626678,None,claim,743.6791266626678,None,return,1.5467211841605604,743.7625659476034,None,,,,,,,,,,,,,,,,,,,,,,,,,,,,,,,,,,,,,,,169,001,2024_Feb_27_1149,SpeechDraft1Carolyn_lessNoise_PlusLocalization,2021.2.3,60.016533388284586,
club.wav,club.mpg,club,5,A,Pink_Noise_5_1.wav,Pink_Noise_5_2.wav,,,,,,,,,,,,,,,0,62,62,36,,,,,,,,,,,,,,,,,,,,,,,745.3293137606233,None,746.8290410856716,None,748.2126134745777,None,cart,748.2126134745777,None,return,3.5092042186297476,748.2960267807357,None,,,,,,,,,,,,,,,,,,,,,,,,,,,,,,,,,,,,,,,169,001,2024_Feb_27_1149,SpeechDraft1Carolyn_lessNoise_PlusLocalization,2021.2.3,60.016533388284586,
blame.wav,blame.mpg,blame,6,AV,Pink_Noise_6_1.wav,Pink_Noise_6_2.wav,,,,,,,,,,,,,,,0,63,63,105,,,,,,,,,,,,,,,,,,,,,,,751.8292642249726,None,753.3289774069563,None,754.7126046679914,None,,754.7126046679914,None,return,0.2651646360754967,754.7961026658304,None,,,,,,,,,,,,,,,,,,,,,,,,,,,,,,,,,,,,,,,169,001,2024_Feb_27_1149,SpeechDraft1Carolyn_lessNoise_PlusLocalization,2021.2.3,60.016533388284586,
beach.wav,beach.mpg,beach,4,A,Pink_Noise_4_1.wav,Pink_Noise_4_2.wav,,,,,,,,,,,,,,,0,64,64,34,,,,,,,,,,,,,,,,,,,,,,,755.0794119709171,None,756.5806310167536,None,757.9626306337304,None,"
",757.9626306337304,None,return,0.351229390129447,758.0459677088074,None,,,,,,,,,,,,,,,,,,,,,,,,,,,,,,,,,,,,,,,169,001,2024_Feb_27_1149,SpeechDraft1Carolyn_lessNoise_PlusLocalization,2021.2.3,60.016533388284586,
tense.wav,tense.mpg,tense,1,A,Pink_Noise_1_1.wav,Pink_Noise_1_2.wav,,,,,,,,,,,,,,,0,65,65,57,,,,,,,,,,,,,,,,,,,,,,,758.4292803169228,None,759.9289863537997,None,761.312550208997,None,"tense
",761.312550208997,None,return,1.3853100910782814,761.3959044418298,None,,,,,,,,,,,,,,,,,,,,,,,,,,,,,,,,,,,,,,,169,001,2024_Feb_27_1149,SpeechDraft1Carolyn_lessNoise_PlusLocalization,2021.2.3,60.016533388284586,
blush.wav,blush.mpg,blush,4,AV,Pink_Noise_4_1.wav,Pink_Noise_4_2.wav,,,,,,,,,,,,,,,0,66,66,67,,,,,,,,,,,,,,,,,,,,,,,762.8127137366682,None,764.3123472328298,None,765.6958890180103,None,flush,765.6958890180103,None,return,1.2978694406338036,765.779323676601,None,,,,,,,,,,,,,,,,,,,,,,,,,,,,,,,,,,,,,,,169,001,2024_Feb_27_1149,SpeechDraft1Carolyn_lessNoise_PlusLocalization,2021.2.3,60.016533388284586,
gush.wav,gush.mpg,gush,6,A,Pink_Noise_6_1.wav,Pink_Noise_6_2.wav,,,,,,,,,,,,,,,0,67,67,53,,,,,,,,,,,,,,,,,,,,,,,767.095956439618,None,768.5956129929982,None,769.9793746159412,None,gush,769.9793746159412,None,return,1.454597805161029,770.062621681951,None,,,,,,,,,,,,,,,,,,,,,,,,,,,,,,,,,,,,,,,169,001,2024_Feb_27_1149,SpeechDraft1Carolyn_lessNoise_PlusLocalization,2021.2.3,60.016533388284586,
spray.wav,spray.mpg,spray,4,A,Pink_Noise_4_1.wav,Pink_Noise_4_2.wav,,,,,,,,,,,,,,,0,68,68,32,,,,,,,,,,,,,,,,,,,,,,,771.5459402659908,None,773.0456575918943,None,774.429235602729,None,spead,774.429235602729,None,return,2.644602063111961,774.5125969150104,None,,,,,,,,,,,,,,,,,,,,,,,,,,,,,,,,,,,,,,,169,001,2024_Feb_27_1149,SpeechDraft1Carolyn_lessNoise_PlusLocalization,2021.2.3,60.016533388284586,
faith.wav,faith.mpg,faith,4,AV,Pink_Noise_4_1.wav,Pink_Noise_4_2.wav,,,,,,,,,,,,,,,0,69,69,88,,,,,,,,,,,,,,,,,,,,,,,777.1793776047416,None,778.6957023097202,None,780.0794072118588,None,face,780.0794072118588,None,return,1.1465864377096295,780.1626778389327,None,,,,,,,,,,,,,,,,,,,,,,,,,,,,,,,,,,,,,,,169,001,2024_Feb_27_1149,SpeechDraft1Carolyn_lessNoise_PlusLocalization,2021.2.3,60.016533388284586,
bird.wav,bird.mpg,bird,2,AV,Pink_Noise_2_1.wav,Pink_Noise_2_2.wav,,,,,,,,,,,,,,,0,70,70,115,,,,,,,,,,,,,,,,,,,,,,,781.3293465808965,None,782.8457023380324,None,784.2292067748494,None,bird,784.2292067748494,None,return,0.8444739449769258,784.3127266890369,None,,,,,,,,,,,,,,,,,,,,,,,,,,,,,,,,,,,,,,,169,001,2024_Feb_27_1149,SpeechDraft1Carolyn_lessNoise_PlusLocalization,2021.2.3,60.016533388284586,
rid.wav,rid.mpg,rid,6,AV,Pink_Noise_6_1.wav,Pink_Noise_6_2.wav,,,,,,,,,,,,,,,0,71,71,118,,,,,,,,,,,,,,,,,,,,,,,785.1793218539096,None,786.6790742878802,None,788.0627417876385,None,real,788.0627417876385,None,return,1.611252536997199,788.1459468747489,None,,,,,,,,,,,,,,,,,,,,,,,,,,,,,,,,,,,,,,,169,001,2024_Feb_27_1149,SpeechDraft1Carolyn_lessNoise_PlusLocalization,2021.2.3,60.016533388284586,
chunk.wav,chunk.mpg,chunk,5,AV,Pink_Noise_5_1.wav,Pink_Noise_5_2.wav,,,,,,,,,,,,,,,0,72,72,104,,,,,,,,,,,,,,,,,,,,,,,789.7793364566751,None,791.295707450714,None,792.6792290476151,None,chart,792.6792290476151,None,return,2.194393218960613,792.7628088300116,None,,,,,,,,,,,,,,,,,,,,,,,,,,,,,,,,,,,,,,,169,001,2024_Feb_27_1149,SpeechDraft1Carolyn_lessNoise_PlusLocalization,2021.2.3,60.016533388284586,
bye.wav,bye.mpg,bye,4,AV,Pink_Noise_4_1.wav,Pink_Noise_4_2.wav,,,,,,,,,,,,,,,0,73,73,93,,,,,,,,,,,,,,,,,,,,,,,794.9794113258831,None,796.4798342459835,None,797.8625837857835,None,bye,797.8625837857835,None,return,2.1952284458093345,797.9459984079003,None,,,,,,,,,,,,,,,,,,,,,,,,,,,,,,,,,,,,,,,169,001,2024_Feb_27_1149,SpeechDraft1Carolyn_lessNoise_PlusLocalization,2021.2.3,60.016533388284586,
brisk.wav,brisk.mpg,brisk,2,A,Pink_Noise_2_1.wav,Pink_Noise_2_2.wav,,,,,,,,,,,,,,,0,74,74,20,,,,,,,,,,,,,,,,,,,,,,,800.1626008446328,None,801.6790496218018,None,803.0460282326676,None,"brisk
",803.0460282326676,None,return,2.4679333022795618,803.1292706597596,None,,,,,,,,,,,,,,,,,,,,,,,,,,,,,,,,,,,,,,,169,001,2024_Feb_27_1149,SpeechDraft1Carolyn_lessNoise_PlusLocalization,2021.2.3,60.016533388284586,
quest.wav,quest.mpg,quest,1,AV,Pink_Noise_1_1.wav,Pink_Noise_1_2.wav,,,,,,,,,,,,,,,0,75,75,89,,,,,,,,,,,,,,,,,,,,,,,805.6295106518082,None,807.1296417727135,None,808.5126622426324,None,"quest
",808.5126622426324,None,return,2.0011269617825747,808.5960766468197,None,,,,,,,,,,,,,,,,,,,,,,,,,,,,,,,,,,,,,,,169,001,2024_Feb_27_1149,SpeechDraft1Carolyn_lessNoise_PlusLocalization,2021.2.3,60.016533388284586,
rent.wav,rent.mpg,rent,4,A,Pink_Noise_4_1.wav,Pink_Noise_4_2.wav,,,,,,,,,,,,,,,0,76,76,9,,,,,,,,,,,,,,,,,,,,,,,810.6293284646235,None,812.129896834027,None,813.512716720812,None,dread,813.512716720812,None,return,2.097287396900356,813.596042570658,None,,,,,,,,,,,,,,,,,,,,,,,,,,,,,,,,,,,,,,,169,001,2024_Feb_27_1149,SpeechDraft1Carolyn_lessNoise_PlusLocalization,2021.2.3,60.016533388284586,
flight.wav,flight.mpg,flight,1,A,Pink_Noise_1_1.wav,Pink_Noise_1_2.wav,,,,,,,,,,,,,,,0,77,77,26,,,,,,,,,,,,,,,,,,,,,,,815.7127311616205,None,817.2124346666969,None,818.5960730146617,None,"flight
",818.5960730146617,None,return,1.8538961648009717,818.6793085448444,None,,,,,,,,,,,,,,,,,,,,,,,,,,,,,,,,,,,,,,,169,001,2024_Feb_27_1149,SpeechDraft1Carolyn_lessNoise_PlusLocalization,2021.2.3,60.016533388284586,
fate.wav,fate.mpg,fate,4,A,Pink_Noise_4_1.wav,Pink_Noise_4_2.wav,,,,,,,,,,,,,,,0,78,78,39,,,,,,,,,,,,,,,,,,,,,,,820.5626372187398,None,822.0792377847247,None,823.4628150979988,None,fate,823.4628150979988,None,return,1.059137687087059,823.5460619679652,None,,,,,,,,,,,,,,,,,,,,,,,,,,,,,,,,,,,,,,,169,001,2024_Feb_27_1149,SpeechDraft1Carolyn_lessNoise_PlusLocalization,2021.2.3,60.016533388284586,
grin.wav,grin.mpg,grin,4,A,Pink_Noise_4_1.wav,Pink_Noise_4_2.wav,,,,,,,,,,,,,,,0,79,79,2,,,,,,,,,,,,,,,,,,,,,,,824.6294299256988,None,826.1458325837739,None,827.5294051850215,None,grin,827.5294051850215,None,return,2.0806113677099347,827.6126667419448,None,,,,,,,,,,,,,,,,,,,,,,,,,,,,,,,,,,,,,,,169,001,2024_Feb_27_1149,SpeechDraft1Carolyn_lessNoise_PlusLocalization,2021.2.3,60.016533388284586,
blond.wav,blond.mpg,blond,1,A,Pink_Noise_1_1.wav,Pink_Noise_1_2.wav,,,,,,,,,,,,,,,0,80,80,11,,,,,,,,,,,,,,,,,,,,,,,829.7126783556305,None,831.2291212249547,None,832.6126642660238,None,"blode
",832.6126642660238,None,return,3.9171977802179754,832.6960040978156,None,,,,,,,,,,,,,,,,,,,,,,,,,,,,,,,,,,,,,,,169,001,2024_Feb_27_1149,SpeechDraft1Carolyn_lessNoise_PlusLocalization,2021.2.3,60.016533388284586,
drive.wav,drive.mpg,drive,1,A,Pink_Noise_1_1.wav,Pink_Noise_1_2.wav,,,,,,,,,,,,,,,0,81,81,51,,,,,,,,,,,,,,,,,,,,,,,836.6460233237594,None,838.1624215338379,None,839.5461139306426,None,"drive
",839.5461139306426,None,return,3.1198382126167417,839.6293726768345,None,,,,,,,,,,,,,,,,,,,,,,,,,,,,,,,,,,,,,,,169,001,2024_Feb_27_1149,SpeechDraft1Carolyn_lessNoise_PlusLocalization,2021.2.3,60.016533388284586,
shrimp.wav,shrimp.mpg,shrimp,6,A,Pink_Noise_6_1.wav,Pink_Noise_6_2.wav,,,,,,,,,,,,,,,0,82,82,54,,,,,,,,,,,,,,,,,,,,,,,842.7793892617337,None,844.2957468596287,None,845.6795133990236,None,truce,845.6795133990236,None,return,3.0584897827357054,845.7627104516141,None,,,,,,,,,,,,,,,,,,,,,,,,,,,,,,,,,,,,,,,169,001,2024_Feb_27_1149,SpeechDraft1Carolyn_lessNoise_PlusLocalization,2021.2.3,60.016533388284586,
cramp.wav,cramp.mpg,cramp,1,A,Pink_Noise_1_1.wav,Pink_Noise_1_2.wav,,,,,,,,,,,,,,,0,83,83,46,,,,,,,,,,,,,,,,,,,,,,,848.8460652106442,None,850.3628236209042,None,851.7462049159221,None,cramp,851.7462049159221,None,return,2.407665468752384,851.8295397786424,None,,,,,,,,,,,,,,,,,,,,,,,,,,,,,,,,,,,,,,,169,001,2024_Feb_27_1149,SpeechDraft1Carolyn_lessNoise_PlusLocalization,2021.2.3,60.016533388284586,
dine.wav,dine.mpg,dine,3,AV,Pink_Noise_3_1.wav,Pink_Noise_3_2.wav,,,,,,,,,,,,,,,0,84,84,114,,,,,,,,,,,,,,,,,,,,,,,854.2627466516569,None,855.7959072799422,None,857.1793569708243,None,"stein
",857.1793569708243,None,return,3.5344486222602427,857.2627536179498,None,,,,,,,,,,,,,,,,,,,,,,,,,,,,,,,,,,,,,,,169,001,2024_Feb_27_1149,SpeechDraft1Carolyn_lessNoise_PlusLocalization,2021.2.3,60.016533388284586,
ease.wav,ease.mpg,ease,4,AV,Pink_Noise_4_1.wav,Pink_Noise_4_2.wav,,,,,,,,,,,,,,,0,85,85,86,,,,,,,,,,,,,,,,,,,,,,,860.8293417016976,None,862.3625167268328,None,863.7461657780223,None,ease,863.7461657780223,None,return,1.5436461376957595,863.8295512506738,None,,,,,,,,,,,,,,,,,,,,,,,,,,,,,,,,,,,,,,,169,001,2024_Feb_27_1149,SpeechDraft1Carolyn_lessNoise_PlusLocalization,2021.2.3,60.016533388284586,
cloak.wav,cloak.mpg,cloak,5,AV,Pink_Noise_5_1.wav,Pink_Noise_5_2.wav,,,,,,,,,,,,,,,0,86,86,63,,,,,,,,,,,,,,,,,,,,,,,865.3961215559393,None,866.9125524079427,None,868.2960740057752,None,"cloak
",868.2960740057752,None,return,2.21780059998855,868.3794115488417,None,,,,,,,,,,,,,,,,,,,,,,,,,,,,,,,,,,,,,,,169,001,2024_Feb_27_1149,SpeechDraft1Carolyn_lessNoise_PlusLocalization,2021.2.3,60.016533388284586,
funk.wav,funk.mpg,funk,2,AV,Pink_Noise_2_1.wav,Pink_Noise_2_2.wav,,,,,,,,,,,,,,,0,87,87,69,,,,,,,,,,,,,,,,,,,,,,,870.6294392668642,None,872.1458703880198,None,873.5294769508764,None,funk,873.5294769508764,None,return,1.9444884569384158,873.6127136368304,None,,,,,,,,,,,,,,,,,,,,,,,,,,,,,,,,,,,,,,,169,001,2024_Feb_27_1149,SpeechDraft1Carolyn_lessNoise_PlusLocalization,2021.2.3,60.016533388284586,
chess.wav,chess.mpg,chess,6,A,Pink_Noise_6_1.wav,Pink_Noise_6_2.wav,,,,,,,,,,,,,,,0,88,88,50,,,,,,,,,,,,,,,,,,,,,,,875.5794525598176,None,877.0958259035833,None,878.4794692029245,None,trust,878.4794692029245,None,return,2.8584484942257404,878.5627515995875,None,,,,,,,,,,,,,,,,,,,,,,,,,,,,,,,,,,,,,,,169,001,2024_Feb_27_1149,SpeechDraft1Carolyn_lessNoise_PlusLocalization,2021.2.3,60.016533388284586,
bland.wav,bland.mpg,bland,5,A,Pink_Noise_5_1.wav,Pink_Noise_5_2.wav,,,,,,,,,,,,,,,0,89,89,43,,,,,,,,,,,,,,,,,,,,,,,881.4461243939586,None,882.9791597086005,None,884.3627946889028,None,"glare
",884.3627946889028,None,return,1.703064545057714,884.4461625046097,None,,,,,,,,,,,,,,,,,,,,,,,,,,,,,,,,,,,,,,,169,001,2024_Feb_27_1149,SpeechDraft1Carolyn_lessNoise_PlusLocalization,2021.2.3,60.016533388284586,
flat.wav,flat.mpg,flat,3,A,Pink_Noise_3_1.wav,Pink_Noise_3_2.wav,,,,,,,,,,,,,,,0,90,90,37,,,,,,,,,,,,,,,,,,,,,,,886.1794892428443,None,887.6959523628466,None,889.0794369787909,None,"fla
",889.0794369787909,None,return,1.386432958766818,889.1627799039707,None,,,,,,,,,,,,,,,,,,,,,,,,,,,,,,,,,,,,,,,169,001,2024_Feb_27_1149,SpeechDraft1Carolyn_lessNoise_PlusLocalization,2021.2.3,60.016533388284586,
cheap.wav,cheap.mpg,cheap,6,AV,Pink_Noise_6_1.wav,Pink_Noise_6_2.wav,,,,,,,,,,,,,,,0,91,91,73,,,,,,,,,,,,,,,,,,,,,,,890.57939538965,None,892.0959300789982,None,893.4794178358279,None,cheap,893.4794178358279,None,return,3.5224776109680533,893.5627668998204,None,,,,,,,,,,,,,,,,,,,,,,,,,,,,,,,,,,,,,,,169,001,2024_Feb_27_1149,SpeechDraft1Carolyn_lessNoise_PlusLocalization,2021.2.3,60.016533388284586,
cop.wav,cop.mpg,cop,1,AV,Pink_Noise_1_1.wav,Pink_Noise_1_2.wav,,,,,,,,,,,,,,,0,92,92,106,,,,,,,,,,,,,,,,,,,,,,,897.1132707186043,None,898.6136611308903,None,899.9960459638387,None,cop,899.9960459638387,None,return,1.4137625838629901,900.0795076210052,None,,,,,,,,,,,,,,,,,,,,,,,,,,,,,,,,,,,,,,,169,001,2024_Feb_27_1149,SpeechDraft1Carolyn_lessNoise_PlusLocalization,2021.2.3,60.016533388284586,
core.wav,core.mpg,core,3,AV,Pink_Noise_3_1.wav,Pink_Noise_3_2.wav,,,,,,,,,,,,,,,0,93,93,117,,,,,,,,,,,,,,,,,,,,,,,901.5129555817693,None,903.0131738716736,None,904.3961672387086,None,"core
",904.3961672387086,None,return,1.7176743787713349,904.4795411378145,None,,,,,,,,,,,,,,,,,,,,,,,,,,,,,,,,,,,,,,,169,001,2024_Feb_27_1149,SpeechDraft1Carolyn_lessNoise_PlusLocalization,2021.2.3,60.016533388284586,
solve.wav,solve.mpg,solve,6,AV,Pink_Noise_6_1.wav,Pink_Noise_6_2.wav,,,,,,,,,,,,,,,0,94,94,77,,,,,,,,,,,,,,,,,,,,,,,906.2295685480349,None,907.7793099395931,None,909.1627914239652,None,solve,909.1627914239652,None,return,1.8951075389049947,909.246106271632,None,,,,,,,,,,,,,,,,,,,,,,,,,,,,,,,,,,,,,,,169,001,2024_Feb_27_1149,SpeechDraft1Carolyn_lessNoise_PlusLocalization,2021.2.3,60.016533388284586,
clog.wav,clog.mpg,clog,3,A,Pink_Noise_3_1.wav,Pink_Noise_3_2.wav,,,,,,,,,,,,,,,0,95,95,3,,,,,,,,,,,,,,,,,,,,,,,911.1627915939316,None,912.67925404571,None,914.062871675007,None,clog,914.062871675007,None,return,2.9550862801261246,914.1461651357822,None,,,,,,,,,,,,,,,,,,,,,,,,,,,,,,,,,,,,,,,169,001,2024_Feb_27_1149,SpeechDraft1Carolyn_lessNoise_PlusLocalization,2021.2.3,60.016533388284586,
bat.wav,bat.mpg,bat,5,A,Pink_Noise_5_1.wav,Pink_Noise_5_2.wav,,,,,,,,,,,,,,,0,96,96,29,,,,,,,,,,,,,,,,,,,,,,,917.1294603617862,None,918.6295858528465,None,920.012928252574,None,"sauce
",920.012928252574,None,return,2.0690869633108377,920.096116472967,None,,,,,,,,,,,,,,,,,,,,,,,,,,,,,,,,,,,,,,,169,001,2024_Feb_27_1149,SpeechDraft1Carolyn_lessNoise_PlusLocalization,2021.2.3,60.016533388284586,
bust.wav,bust.mpg,bust,2,A,Pink_Noise_2_1.wav,Pink_Noise_2_2.wav,,,,,,,,,,,,,,,0,97,97,49,,,,,,,,,,,,,,,,,,,,,,,922.1961197010241,None,923.7125936606899,None,925.0962779517286,None,"trust
",925.0962779517286,None,return,4.785603946074843,925.1796088549308,None,,,,,,,,,,,,,,,,,,,,,,,,,,,,,,,,,,,,,,,169,001,2024_Feb_27_1149,SpeechDraft1Carolyn_lessNoise_PlusLocalization,2021.2.3,60.016533388284586,
edge.wav,edge.mpg,edge,6,A,Pink_Noise_6_1.wav,Pink_Noise_6_2.wav,,,,,,,,,,,,,,,0,98,98,6,,,,,,,,,,,,,,,,,,,,,,,929.9962074579671,None,931.4960339977406,None,932.8795515475795,None,harsh,932.8795515475795,None,return,3.226222532335669,932.9629756896757,None,,,,,,,,,,,,,,,,,,,,,,,,,,,,,,,,,,,,,,,169,001,2024_Feb_27_1149,SpeechDraft1Carolyn_lessNoise_PlusLocalization,2021.2.3,60.016533388284586,
game.wav,game.mpg,game,4,A,Pink_Noise_4_1.wav,Pink_Noise_4_2.wav,,,,,,,,,,,,,,,0,99,99,48,,,,,,,,,,,,,,,,,,,,,,,936.2128447690047,None,937.7292158557102,None,939.1128719048575,None,gay,939.1128719048575,None,return,3.0090290531516075,939.1961974049918,None,,,,,,,,,,,,,,,,,,,,,,,,,,,,,,,,,,,,,,,169,001,2024_Feb_27_1149,SpeechDraft1Carolyn_lessNoise_PlusLocalization,2021.2.3,60.016533388284586,
brawl.wav,brawl.mpg,brawl,3,AV,Pink_Noise_3_1.wav,Pink_Noise_3_2.wav,,,,,,,,,,,,,,,0,100,100,76,,,,,,,,,,,,,,,,,,,,,,,942.2295178496279,None,943.7460265979171,None,945.1294377767481,None,brawl,945.1294377767481,None,return,3.6324369120411575,945.212823303882,None,,,,,,,,,,,,,,,,,,,,,,,,,,,,,,,,,,,,,,,169,001,2024_Feb_27_1149,SpeechDraft1Carolyn_lessNoise_PlusLocalization,2021.2.3,60.016533388284586,
cloth.wav,cloth.mpg,cloth,3,A,Pink_Noise_3_1.wav,Pink_Noise_3_2.wav,,,,,,,,,,,,,,,0,101,101,47,,,,,,,,,,,,,,,,,,,,,,,948.862915369682,None,950.3960456326604,None,951.7796035078354,None,clog,951.7796035078354,None,return,4.6223407769575715,951.862966382876,None,,,,,,,,,,,,,,,,,,,,,,,,,,,,,,,,,,,,,,,169,001,2024_Feb_27_1149,SpeechDraft1Carolyn_lessNoise_PlusLocalization,2021.2.3,60.016533388284586,
grant.wav,grant.mpg,grant,5,A,Pink_Noise_5_1.wav,Pink_Noise_5_2.wav,,,,,,,,,,,,,,,0,102,102,58,,,,,,,,,,,,,,,,,,,,,,,956.5130126508884,None,958.0292360647582,None,959.4128194558434,None,rant,959.4128194558434,None,return,2.3089869669638574,959.4962121006101,None,,,,,,,,,,,,,,,,,,,,,,,,,,,,,,,,,,,,,,,169,001,2024_Feb_27_1149,SpeechDraft1Carolyn_lessNoise_PlusLocalization,2021.2.3,60.016533388284586,
four.wav,four.mpg,four,3,AV,Pink_Noise_3_1.wav,Pink_Noise_3_2.wav,,,,,,,,,,,,,,,0,103,103,81,,,,,,,,,,,,,,,,,,,,,,,961.829639616888,None,963.345952570904,None,964.7295077978633,None,for,964.7295077978633,None,return,1.4803669899702072,964.8129390049726,None,,,,,,,,,,,,,,,,,,,,,,,,,,,,,,,,,,,,,,,169,001,2024_Feb_27_1149,SpeechDraft1Carolyn_lessNoise_PlusLocalization,2021.2.3,60.016533388284586,
bean.wav,bean.mpg,bean,1,A,Pink_Noise_1_1.wav,Pink_Noise_1_2.wav,,,,,,,,,,,,,,,0,104,104,4,,,,,,,,,,,,,,,,,,,,,,,966.3128664977849,None,967.8292211405933,None,969.2128460798413,None,minion,969.2128460798413,None,return,4.108958313241601,969.2962479237467,None,,,,,,,,,,,,,,,,,,,,,,,,,,,,,,,,,,,,,,,169,001,2024_Feb_27_1149,SpeechDraft1Carolyn_lessNoise_PlusLocalization,2021.2.3,60.016533388284586,
fine.wav,fine.mpg,fine,6,AV,Pink_Noise_6_1.wav,Pink_Noise_6_2.wav,,,,,,,,,,,,,,,0,105,105,111,,,,,,,,,,,,,,,,,,,,,,,973.4295963109471,None,974.9459662898444,None,976.3295314796269,None,fly,976.3295314796269,None,return,1.5442266906611621,976.412955834996,None,,,,,,,,,,,,,,,,,,,,,,,,,,,,,,,,,,,,,,,169,001,2024_Feb_27_1149,SpeechDraft1Carolyn_lessNoise_PlusLocalization,2021.2.3,60.016533388284586,
friend.wav,friend.mpg,friend,3,A,Pink_Noise_3_1.wav,Pink_Noise_3_2.wav,,,,,,,,,,,,,,,0,106,106,31,,,,,,,,,,,,,,,,,,,,,,,977.9796060016379,None,979.4795896788128,None,980.8629828058183,None,"friend
",980.8629828058183,None,return,2.1870373259298503,980.9461664976552,None,,,,,,,,,,,,,,,,,,,,,,,,,,,,,,,,,,,,,,,169,001,2024_Feb_27_1149,SpeechDraft1Carolyn_lessNoise_PlusLocalization,2021.2.3,60.016533388284586,
clam.wav,clam.mpg,clam,4,AV,Pink_Noise_4_1.wav,Pink_Noise_4_2.wav,,,,,,,,,,,,,,,0,107,107,60,,,,,,,,,,,,,,,,,,,,,,,983.1628933548927,None,984.6793736787513,None,986.062914957758,None,glam,986.062914957758,None,return,2.8830077736638486,986.1462413365953,None,,,,,,,,,,,,,,,,,,,,,,,,,,,,,,,,,,,,,,,169,001,2024_Feb_27_1149,SpeechDraft1Carolyn_lessNoise_PlusLocalization,2021.2.3,60.016533388284586,
wound.wav,wound.mpg,wound,1,A,Pink_Noise_1_1.wav,Pink_Noise_1_2.wav,,,,,,,,,,,,,,,0,108,108,19,,,,,,,,,,,,,,,,,,,,,,,989.046350272838,None,990.5960213625804,None,991.9796973248012,None,"wound
",991.9796973248012,None,return,1.358262007124722,992.0629579615779,None,,,,,,,,,,,,,,,,,,,,,,,,,,,,,,,,,,,,,,,169,001,2024_Feb_27_1149,SpeechDraft1Carolyn_lessNoise_PlusLocalization,2021.2.3,60.016533388284586,
skull.wav,skull.mpg,skull,5,AV,Pink_Noise_5_1.wav,Pink_Noise_5_2.wav,,,,,,,,,,,,,,,0,109,109,94,,,,,,,,,,,,,,,,,,,,,,,993.4629946239293,None,994.9792976058088,None,996.362819863949,None,"pull
",996.362819863949,None,return,1.9028829936869442,996.446348530706,None,,,,,,,,,,,,,,,,,,,,,,,,,,,,,,,,,,,,,,,169,001,2024_Feb_27_1149,SpeechDraft1Carolyn_lessNoise_PlusLocalization,2021.2.3,60.016533388284586,
beam.wav,beam.mpg,beam,2,AV,Pink_Noise_2_1.wav,Pink_Noise_2_2.wav,,,,,,,,,,,,,,,0,110,110,96,,,,,,,,,,,,,,,,,,,,,,,998.3796373428777,None,999.8961182367057,None,1001.2795421569608,None,bee,1001.2795421569608,None,return,1.0422516167163849,1001.3629575548694,None,,,,,,,,,,,,,,,,,,,,,,,,,,,,,,,,,,,,,,,169,001,2024_Feb_27_1149,SpeechDraft1Carolyn_lessNoise_PlusLocalization,2021.2.3,60.016533388284586,
bend.wav,bend.mpg,bend,5,AV,Pink_Noise_5_1.wav,Pink_Noise_5_2.wav,,,,,,,,,,,,,,,0,111,111,61,,,,,,,,,,,,,,,,,,,,,,,1002.4296522196382,None,1003.9461012086831,None,1005.3295681527816,None,bend,1005.3295681527816,None,return,1.0882101096212864,1005.4130462068133,None,,,,,,,,,,,,,,,,,,,,,,,,,,,,,,,,,,,,,,,169,001,2024_Feb_27_1149,SpeechDraft1Carolyn_lessNoise_PlusLocalization,2021.2.3,60.016533388284586,
bone.wav,bone.mpg,bone,4,A,Pink_Noise_4_1.wav,Pink_Noise_4_2.wav,,,,,,,,,,,,,,,0,112,112,30,,,,,,,,,,,,,,,,,,,,,,,1006.5296317897737,None,1008.0459414748475,None,1009.4296124665998,None,thrown,1009.4296124665998,None,return,3.796270847786218,1009.512993270997,None,,,,,,,,,,,,,,,,,,,,,,,,,,,,,,,,,,,,,,,169,001,2024_Feb_27_1149,SpeechDraft1Carolyn_lessNoise_PlusLocalization,2021.2.3,60.016533388284586,
grace.wav,grace.mpg,grace,3,A,Pink_Noise_3_1.wav,Pink_Noise_3_2.wav,,,,,,,,,,,,,,,0,113,113,59,,,,,,,,,,,,,,,,,,,,,,,1013.3297856790014,None,1014.8459570296109,None,1016.2296115299687,None,grace,1016.2296115299687,None,return,1.0441477159038186,1016.3130511376075,None,,,,,,,,,,,,,,,,,,,,,,,,,,,,,,,,,,,,,,,169,001,2024_Feb_27_1149,SpeechDraft1Carolyn_lessNoise_PlusLocalization,2021.2.3,60.016533388284586,
crank.wav,crank.mpg,crank,4,AV,Pink_Noise_4_1.wav,Pink_Noise_4_2.wav,,,,,,,,,,,,,,,0,114,114,75,,,,,,,,,,,,,,,,,,,,,,,1017.379893432837,None,1018.8960845167749,None,1020.2795337499119,None,"christ
",1020.2795337499119,None,return,3.8342595868743956,1020.3629510137253,None,,,,,,,,,,,,,,,,,,,,,,,,,,,,,,,,,,,,,,,169,001,2024_Feb_27_1149,SpeechDraft1Carolyn_lessNoise_PlusLocalization,2021.2.3,60.016533388284586,
fork.wav,fork.mpg,fork,4,AV,Pink_Noise_4_1.wav,Pink_Noise_4_2.wav,,,,,,,,,,,,,,,0,115,115,98,,,,,,,,,,,,,,,,,,,,,,,1024.229605818633,None,1025.764214346651,None,1027.146238412708,None,"fork
",1027.146238412708,None,return,1.303547813091427,1027.2296592378989,None,,,,,,,,,,,,,,,,,,,,,,,,,,,,,,,,,,,,,,,169,001,2024_Feb_27_1149,SpeechDraft1Carolyn_lessNoise_PlusLocalization,2021.2.3,60.016533388284586,
brown.wav,brown.mpg,brown,1,AV,Pink_Noise_1_1.wav,Pink_Noise_1_2.wav,,,,,,,,,,,,,,,0,116,116,116,,,,,,,,,,,,,,,,,,,,,,,1028.5630227397196,None,1030.0794040085748,None,1031.4629906946793,None,brown,1031.4629906946793,None,return,1.8589958790689707,1031.5462397276424,None,,,,,,,,,,,,,,,,,,,,,,,,,,,,,,,,,,,,,,,169,001,2024_Feb_27_1149,SpeechDraft1Carolyn_lessNoise_PlusLocalization,2021.2.3,60.016533388284586,
drill.wav,drill.mpg,drill,5,AV,Pink_Noise_5_1.wav,Pink_Noise_5_2.wav,,,,,,,,,,,,,,,0,117,117,102,,,,,,,,,,,,,,,,,,,,,,,1033.4296310278587,None,1034.946090544574,None,1036.3296336890198,None,drill,1036.3296336890198,None,return,6.896236668806523,1036.413019076921,None,,,,,,,,,,,,,,,,,,,,,,,,,,,,,,,,,,,,,,,169,001,2024_Feb_27_1149,SpeechDraft1Carolyn_lessNoise_PlusLocalization,2021.2.3,60.016533388284586,
check.wav,check.mpg,check,5,A,Pink_Noise_5_1.wav,Pink_Noise_5_2.wav,,,,,,,,,,,,,,,0,118,118,45,,,,,,,,,,,,,,,,,,,,,,,1043.329652744811,None,1044.8461464066058,None,1046.229636339005,None,chech,1046.229636339005,None,return,1.3241809480823576,1046.3130540549755,None,,,,,,,,,,,,,,,,,,,,,,,,,,,,,,,,,,,,,,,169,001,2024_Feb_27_1149,SpeechDraft1Carolyn_lessNoise_PlusLocalization,2021.2.3,60.016533388284586,
crawl.wav,crawl.mpg,crawl,6,AV,Pink_Noise_6_1.wav,Pink_Noise_6_2.wav,,,,,,,,,,,,,,,0,119,119,95,,,,,,,,,,,,,,,,,,,,,,,1047.663032956887,None,1049.1793572148308,None,1050.5630040545948,None,clog,1050.5630040545948,None,return,1.5267609893344343,1050.6464289268479,None,,,,,,,,,,,,,,,,,,,,,,,,,,,,,,,,,,,,,,,169,001,2024_Feb_27_1149,SpeechDraft1Carolyn_lessNoise_PlusLocalization,2021.2.3,60.016533388284586,
,,,,,,,,,,,,,,,,,,,,,,,,,,,,,,,,,,,,,,,,,,,,,,,,,,,,,,,,,,,,,,,,,,space,23.70081154210493,1052.2963879788294,None,,,,,,,,,,,,,,,,,,,,,,,,,,,,,169,001,2024_Feb_27_1149,SpeechDraft1Carolyn_lessNoise_PlusLocalization,2021.2.3,60.016533388284586,
,,,,,,,,midLeft,-13.0,2,ch1Sound_localizationTask.wav,-13.0,"(762, 878)","(-198,-202)",-190,-338,,,,,,,,,0,0,0,1,,,,,,,,,,,,,,,,,,,,,,,,,,,,,,,,,,,,,,,,,,1052.2963879788294,None,1076.046226305887,None,1077.1462352690287,None,1078.0793748330325,None,1.3534391534391534,4.135802307166159,1078.0793748330325,None,,,,,,,,,,,,,,,,,169,001,2024_Feb_27_1149,SpeechDraft1Carolyn_lessNoise_PlusLocalization,2021.2.3,60.016533388284586,
,,,,,,,,midRight,13.0,3,ch1Sound_localizationTask.wav,13.0,"(1142, 878)","(182, -202)",190,-338,,,,,,,,,0,1,1,5,,,,,,,,,,,,,,,,,,,,,,,,,,,,,,,,,,,,,,,,,,,,1082.2131683197804,None,1083.3128496119753,None,1084.246291089803,None,1.8100529100529101,8.966531852725893,1084.246291089803,None,,,,,,,,,,,,,,,,,169,001,2024_Feb_27_1149,SpeechDraft1Carolyn_lessNoise_PlusLocalization,2021.2.3,60.016533388284586,
,,,,,,,,farLeft,-19.1,5,ch1Sound_localizationTask.wav,-19.1,"(667, 878)","(-293,-202)",-285,-338,,,,,,,,,0,2,2,0,,,,,,,,,,,,,,,,,,,,,,,,,,,,,,,,,,,,,,,,,,,,1093.213534633629,None,1094.312833715696,None,1095.246111113578,None,1.1555555555555554,2.633652568794787,1095.246111113578,None,,,,,,,,,,,,,,,,,169,001,2024_Feb_27_1149,SpeechDraft1Carolyn_lessNoise_PlusLocalization,2021.2.3,60.016533388284586,
,,,,,,,,midRight,13.0,3,ch1Sound_localizationTask.wav,13.0,"(1142, 878)","(182, -202)",190,-338,,,,,,,,,0,3,3,5,,,,,,,,,,,,,,,,,,,,,,,,,,,,,,,,,,,,,,,,,,,,1097.8803606908768,None,1098.9794766227715,None,1099.9129056087695,None,1.680952380952381,1.781564402859658,1099.9129056087695,None,,,,,,,,,,,,,,,,,169,001,2024_Feb_27_1149,SpeechDraft1Carolyn_lessNoise_PlusLocalization,2021.2.3,60.016533388284586,
,,,,,,,,nearRight,6.5,0,ch1Sound_localizationTask.wav,6.5,"(1047, 878)","(87, -202)",95,-338,,,,,,,,,0,4,4,4,,,,,,,,,,,,,,,,,,,,,,,,,,,,,,,,,,,,,,,,,,,,1101.6966778850183,None,1102.7961425329559,None,1103.7294623525813,None,1.5063492063492063,0.816175329964608,1103.7294623525813,None,,,,,,,,,,,,,,,,,169,001,2024_Feb_27_1149,SpeechDraft1Carolyn_lessNoise_PlusLocalization,2021.2.3,60.016533388284586,
,,,,,,,,farRight,19.1,4,ch1Sound_localizationTask.wav,19.1,"(1237, 878)","(277,-202)",285,-338,,,,,,,,,0,5,5,6,,,,,,,,,,,,,,,,,,,,,,,,,,,,,,,,,,,,,,,,,,,,1104.546573619824,None,1105.6463322415948,None,1106.5794843398035,None,1.7375661375661375,0.9159031300805509,1106.5794843398035,None,,,,,,,,,,,,,,,,,169,001,2024_Feb_27_1149,SpeechDraft1Carolyn_lessNoise_PlusLocalization,2021.2.3,60.016533388284586,
,,,,,,,,center,0.0,6,ch1Sound_localizationTask.wav,0.0,"(952, 878)","(-8,-202)",0,-338,,,,,,,,,0,6,6,3,,,,,,,,,,,,,,,,,,,,,,,,,,,,,,,,,,,,,,,,,,,,1107.4964028839022,None,1108.5962293068878,None,1109.5295040979981,None,1.425925925925926,0.8835852830670774,1109.5295040979981,None,,,,,,,,,,,,,,,,,169,001,2024_Feb_27_1149,SpeechDraft1Carolyn_lessNoise_PlusLocalization,2021.2.3,60.016533388284586,
,,,,,,,,midRight,13.0,3,ch1Sound_localizationTask.wav,13.0,"(1142, 878)","(182, -202)",190,-338,,,,,,,,,1,0,7,5,,,,,,,,,,,,,,,,,,,,,,,,,,,,,,,,,,,,,,,,,,,,1110.413555470761,None,1111.5128489867784,None,1112.446260063909,None,1.6042328042328042,0.7998391878791153,1112.446260063909,None,,,,,,,,,,,,,,,,,169,001,2024_Feb_27_1149,SpeechDraft1Carolyn_lessNoise_PlusLocalization,2021.2.3,60.016533388284586,
,,,,,,,,nearRight,6.5,0,ch1Sound_localizationTask.wav,6.5,"(1047, 878)","(87, -202)",95,-338,,,,,,,,,1,1,8,4,,,,,,,,,,,,,,,,,,,,,,,,,,,,,,,,,,,,,,,,,,,,1113.247059092857,None,1114.3461774406023,None,1115.279703186825,None,1.5275132275132275,0.7829553219489753,1115.279703186825,None,,,,,,,,,,,,,,,,,169,001,2024_Feb_27_1149,SpeechDraft1Carolyn_lessNoise_PlusLocalization,2021.2.3,60.016533388284586,
,,,,,,,,nearLeft,-6.5,1,ch1Sound_localizationTask.wav,-6.5,"(857, 878)","(-103,-202)",-95,-338,,,,,,,,,1,2,9,2,,,,,,,,,,,,,,,,,,,,,,,,,,,,,,,,,,,,,,,,,,,,1116.0635621719994,None,1117.1629290846176,None,1118.0961207286455,None,1.4026455026455027,1.4669549339450896,1118.0961207286455,None,,,,,,,,,,,,,,,,,169,001,2024_Feb_27_1149,SpeechDraft1Carolyn_lessNoise_PlusLocalization,2021.2.3,60.016533388284586,
,,,,,,,,midRight,13.0,3,ch1Sound_localizationTask.wav,13.0,"(1142, 878)","(182, -202)",190,-338,,,,,,,,,1,3,10,5,,,,,,,,,,,,,,,,,,,,,,,,,,,,,,,,,,,,,,,,,,,,1119.563226934988,None,1120.6628636596724,None,1121.5962267387658,None,1.6142857142857143,0.8492983938194811,1121.5962267387658,None,,,,,,,,,,,,,,,,,169,001,2024_Feb_27_1149,SpeechDraft1Carolyn_lessNoise_PlusLocalization,2021.2.3,60.016533388284586,
,,,,,,,,nearLeft,-6.5,1,ch1Sound_localizationTask.wav,-6.5,"(857, 878)","(-103,-202)",-95,-338,,,,,,,,,1,4,11,2,,,,,,,,,,,,,,,,,,,,,,,,,,,,,,,,,,,,,,,,,,,,1122.4469493697397,None,1123.5462754280306,None,1124.4795702556148,None,1.3470899470899471,0.7828023699112236,1124.4795702556148,None,,,,,,,,,,,,,,,,,169,001,2024_Feb_27_1149,SpeechDraft1Carolyn_lessNoise_PlusLocalization,2021.2.3,60.016533388284586,
,,,,,,,,midLeft,-13.0,2,ch1Sound_localizationTask.wav,-13.0,"(762, 878)","(-198,-202)",-190,-338,,,,,,,,,1,5,12,1,,,,,,,,,,,,,,,,,,,,,,,,,,,,,,,,,,,,,,,,,,,,1125.2632279256359,None,1126.362756441813,None,1127.2962601846084,None,1.2751322751322751,0.6989105897955596,1127.2962601846084,None,,,,,,,,,,,,,,,,,169,001,2024_Feb_27_1149,SpeechDraft1Carolyn_lessNoise_PlusLocalization,2021.2.3,60.016533388284586,
,,,,,,,,midRight,13.0,3,ch1Sound_localizationTask.wav,13.0,"(1142, 878)","(182, -202)",190,-338,,,,,,,,,1,6,13,5,,,,,,,,,,,,,,,,,,,,,,,,,,,,,,,,,,,,,,,,,,,,1127.996488914825,None,1129.0962446806952,None,1130.0296887378208,None,1.5481481481481483,0.8496458032168448,1130.0296887378208,None,,,,,,,,,,,,,,,,,169,001,2024_Feb_27_1149,SpeechDraft1Carolyn_lessNoise_PlusLocalization,2021.2.3,60.016533388284586,
,,,,,,,,farLeft,-19.1,5,ch1Sound_localizationTask.wav,-19.1,"(667, 878)","(-293,-202)",-285,-338,,,,,,,,,2,0,14,0,,,,,,,,,,,,,,,,,,,,,,,,,,,,,,,,,,,,,,,,,,,,1130.8806338026188,None,1131.9795187800191,None,1132.9129641805775,None,1.1084656084656084,1.416368889156729,1132.9129641805775,None,,,,,,,,,,,,,,,,,169,001,2024_Feb_27_1149,SpeechDraft1Carolyn_lessNoise_PlusLocalization,2021.2.3,60.016533388284586,
,,,,,,,,nearLeft,-6.5,1,ch1Sound_localizationTask.wav,-6.5,"(857, 878)","(-103,-202)",-95,-338,,,,,,,,,2,1,15,2,,,,,,,,,,,,,,,,,,,,,,,,,,,,,,,,,,,,,,,,,,,,1134.3299154229462,None,1135.4294077828526,None,1136.363012373913,None,1.4084656084656084,0.7499435823410749,1136.363012373913,None,,,,,,,,,,,,,,,,,169,001,2024_Feb_27_1149,SpeechDraft1Carolyn_lessNoise_PlusLocalization,2021.2.3,60.016533388284586,
,,,,,,,,midRight,13.0,3,ch1Sound_localizationTask.wav,13.0,"(1142, 878)","(182, -202)",190,-338,,,,,,,,,2,2,16,5,,,,,,,,,,,,,,,,,,,,,,,,,,,,,,,,,,,,,,,,,,,,1137.1298397639766,None,1138.229509927798,None,1139.1629213946871,None,1.6164021164021163,0.9007508773356676,1139.1629213946871,None,,,,,,,,,,,,,,,,,169,001,2024_Feb_27_1149,SpeechDraft1Carolyn_lessNoise_PlusLocalization,2021.2.3,60.016533388284586,
,,,,,,,,center,0.0,6,ch1Sound_localizationTask.wav,0.0,"(952, 878)","(-8,-202)",0,-338,,,,,,,,,2,3,17,3,,,,,,,,,,,,,,,,,,,,,,,,,,,,,,,,,,,,,,,,,,,,1140.0798184117302,None,1141.1795825669542,None,1142.1129980715923,None,1.4158730158730157,0.48288999777287245,1142.1129980715923,None,,,,,,,,,,,,,,,,,169,001,2024_Feb_27_1149,SpeechDraft1Carolyn_lessNoise_PlusLocalization,2021.2.3,60.016533388284586,
,,,,,,,,nearRight,6.5,0,ch1Sound_localizationTask.wav,6.5,"(1047, 878)","(87, -202)",95,-338,,,,,,,,,2,4,18,4,,,,,,,,,,,,,,,,,,,,,,,,,,,,,,,,,,,,,,,,,,,,1142.5980670568533,None,1143.7129077757709,None,1144.6296068187803,None,1.4433862433862434,13.982892946340144,1144.6296068187803,None,,,,,,,,,,,,,,,,,169,001,2024_Feb_27_1149,SpeechDraft1Carolyn_lessNoise_PlusLocalization,2021.2.3,60.016533388284586,
,,,,,,,,nearRight,6.5,0,ch1Sound_localizationTask.wav,6.5,"(1047, 878)","(87, -202)",95,-338,,,,,,,,,2,5,19,4,,,,,,,,,,,,,,,,,,,,,,,,,,,,,,,,,,,,,,,,,,,,1158.6133552407846,None,1159.713020434603,None,1160.6463331836276,None,1.5333333333333332,0.9328456940129399,1160.6463331836276,None,,,,,,,,,,,,,,,,,169,001,2024_Feb_27_1149,SpeechDraft1Carolyn_lessNoise_PlusLocalization,2021.2.3,60.016533388284586,
,,,,,,,,farLeft,-19.1,5,ch1Sound_localizationTask.wav,-19.1,"(667, 878)","(-293,-202)",-285,-338,,,,,,,,,2,6,20,0,,,,,,,,,,,,,,,,,,,,,,,,,,,,,,,,,,,,,,,,,,,,1161.579948907718,None,1162.6795152658597,None,1163.6130628148094,None,1.3338624338624339,1.016429959796369,1163.6130628148094,None,,,,,,,,,,,,,,,,,169,001,2024_Feb_27_1149,SpeechDraft1Carolyn_lessNoise_PlusLocalization,2021.2.3,60.016533388284586,
,,,,,,,,center,0.0,6,ch1Sound_localizationTask.wav,0.0,"(952, 878)","(-8,-202)",0,-338,,,,,,,,,3,0,21,3,,,,,,,,,,,,,,,,,,,,,,,,,,,,,,,,,,,,,,,,,,,,1164.6301321587525,None,1165.7295534578152,None,1166.6630392107181,None,1.588888888888889,1.8654960580170155,1166.6630392107181,None,,,,,,,,,,,,,,,,,169,001,2024_Feb_27_1149,SpeechDraft1Carolyn_lessNoise_PlusLocalization,2021.2.3,60.016533388284586,
,,,,,,,,nearLeft,-6.5,1,ch1Sound_localizationTask.wav,-6.5,"(857, 878)","(-103,-202)",-95,-338,,,,,,,,,3,1,22,2,,,,,,,,,,,,,,,,,,,,,,,,,,,,,,,,,,,,,,,,,,,,1168.5298769837245,None,1169.6295594316907,None,1170.5629578367807,None,1.438095238095238,0.8336642440408468,1170.5629578367807,None,,,,,,,,,,,,,,,,,169,001,2024_Feb_27_1149,SpeechDraft1Carolyn_lessNoise_PlusLocalization,2021.2.3,60.016533388284586,
,,,,,,,,farLeft,-19.1,5,ch1Sound_localizationTask.wav,-19.1,"(667, 878)","(-293,-202)",-285,-338,,,,,,,,,3,2,23,0,,,,,,,,,,,,,,,,,,,,,,,,,,,,,,,,,,,,,,,,,,,,1171.3967926655896,None,1172.496150285937,None,1173.4296348229982,None,1.3322751322751323,0.7831046199426055,1173.4296348229982,None,,,,,,,,,,,,,,,,,169,001,2024_Feb_27_1149,SpeechDraft1Carolyn_lessNoise_PlusLocalization,2021.2.3,60.016533388284586,
,,,,,,,,nearRight,6.5,0,ch1Sound_localizationTask.wav,6.5,"(1047, 878)","(87, -202)",95,-338,,,,,,,,,3,3,24,4,,,,,,,,,,,,,,,,,,,,,,,,,,,,,,,,,,,,,,,,,,,,1174.2135504758917,None,1175.3129729209468,None,1176.2463395618834,None,1.5396825396825395,1.250093290116638,1176.2463395618834,None,,,,,,,,,,,,,,,,,169,001,2024_Feb_27_1149,SpeechDraft1Carolyn_lessNoise_PlusLocalization,2021.2.3,60.016533388284586,
,,,,,,,,farLeft,-19.1,5,ch1Sound_localizationTask.wav,-19.1,"(667, 878)","(-293,-202)",-285,-338,,,,,,,,,3,4,25,0,,,,,,,,,,,,,,,,,,,,,,,,,,,,,,,,,,,,,,,,,,,,1177.4968237369321,None,1178.5963054308668,None,1179.5296717756428,None,1.3391534391534392,0.8994389800354838,1179.5296717756428,None,,,,,,,,,,,,,,,,,169,001,2024_Feb_27_1149,SpeechDraft1Carolyn_lessNoise_PlusLocalization,2021.2.3,60.016533388284586,
,,,,,,,,nearLeft,-6.5,1,ch1Sound_localizationTask.wav,-6.5,"(857, 878)","(-103,-202)",-95,-338,,,,,,,,,3,5,26,2,,,,,,,,,,,,,,,,,,,,,,,,,,,,,,,,,,,,,,,,,,,,1180.430331157986,None,1181.529700901825,None,1182.4630051646382,None,1.3931216931216932,0.9661790519021451,1182.4630051646382,None,,,,,,,,,,,,,,,,,169,001,2024_Feb_27_1149,SpeechDraft1Carolyn_lessNoise_PlusLocalization,2021.2.3,60.016533388284586,
,,,,,,,,nearLeft,-6.5,1,ch1Sound_localizationTask.wav,-6.5,"(857, 878)","(-103,-202)",-95,-338,,,,,,,,,3,6,27,2,,,,,,,,,,,,,,,,,,,,,,,,,,,,,,,,,,,,,,,,,,,,1183.4301142008044,None,1184.5295697646216,None,1185.4630073197186,None,1.439153439153439,0.9830066398717463,1185.4630073197186,None,,,,,,,,,,,,,,,,,169,001,2024_Feb_27_1149,SpeechDraft1Carolyn_lessNoise_PlusLocalization,2021.2.3,60.016533388284586,
,,,,,,,,farLeft,-19.1,5,ch1Sound_localizationTask.wav,-19.1,"(667, 878)","(-293,-202)",-285,-338,,,,,,,,,4,0,28,0,,,,,,,,,,,,,,,,,,,,,,,,,,,,,,,,,,,,,,,,,,,,1186.4470601137727,None,1187.5463605057448,None,1188.4795967019163,None,1.3354497354497354,0.8995648780837655,1188.4795967019163,None,,,,,,,,,,,,,,,,,169,001,2024_Feb_27_1149,SpeechDraft1Carolyn_lessNoise_PlusLocalization,2021.2.3,60.016533388284586,
,,,,,,,,nearRight,6.5,0,ch1Sound_localizationTask.wav,6.5,"(1047, 878)","(87, -202)",95,-338,,,,,,,,,4,1,29,4,,,,,,,,,,,,,,,,,,,,,,,,,,,,,,,,,,,,,,,,,,,,1189.3803606657311,None,1190.4797552167438,None,1191.4129912406206,None,1.5349206349206348,1.1653741872869432,1191.4129912406206,None,,,,,,,,,,,,,,,,,169,001,2024_Feb_27_1149,SpeechDraft1Carolyn_lessNoise_PlusLocalization,2021.2.3,60.016533388284586,
,,,,,,,,farRight,19.1,4,ch1Sound_localizationTask.wav,19.1,"(1237, 878)","(277,-202)",285,-338,,,,,,,,,4,2,30,6,,,,,,,,,,,,,,,,,,,,,,,,,,,,,,,,,,,,,,,,,,,,1192.579941039905,None,1193.6797032188624,None,1194.6130192037672,None,1.6349206349206349,1.1324156131595373,1194.6130192037672,None,,,,,,,,,,,,,,,,,169,001,2024_Feb_27_1149,SpeechDraft1Carolyn_lessNoise_PlusLocalization,2021.2.3,60.016533388284586,
,,,,,,,,nearLeft,-6.5,1,ch1Sound_localizationTask.wav,-6.5,"(857, 878)","(-103,-202)",-95,-338,,,,,,,,,4,3,31,2,,,,,,,,,,,,,,,,,,,,,,,,,,,,,,,,,,,,,,,,,,,,1195.7465231455863,None,1196.8462546849623,None,1197.7796936486848,None,1.392063492063492,1.632603402249515,1197.7796936486848,None,,,,,,,,,,,,,,,,,169,001,2024_Feb_27_1149,SpeechDraft1Carolyn_lessNoise_PlusLocalization,2021.2.3,60.016533388284586,
,,,,,,,,center,0.0,6,ch1Sound_localizationTask.wav,0.0,"(952, 878)","(-8,-202)",0,-338,,,,,,,,,4,4,32,3,,,,,,,,,,,,,,,,,,,,,,,,,,,,,,,,,,,,,,,,,,,,1199.4132011588663,None,1200.5129964076914,None,1201.4463264406659,None,1.4375661375661375,0.5332721886225045,1201.4463264406659,None,,,,,,,,,,,,,,,,,169,001,2024_Feb_27_1149,SpeechDraft1Carolyn_lessNoise_PlusLocalization,2021.2.3,60.016533388284586,
,,,,,,,,farLeft,-19.1,5,ch1Sound_localizationTask.wav,-19.1,"(667, 878)","(-293,-202)",-285,-338,,,,,,,,,4,5,33,0,,,,,,,,,,,,,,,,,,,,,,,,,,,,,,,,,,,,,,,,,,,,1201.9799139685929,None,1203.079735536594,None,1204.0129531389102,None,1.3343915343915345,1.0164309097453952,1204.0129531389102,None,,,,,,,,,,,,,,,,,169,001,2024_Feb_27_1149,SpeechDraft1Carolyn_lessNoise_PlusLocalization,2021.2.3,60.016533388284586,
,,,,,,,,nearLeft,-6.5,1,ch1Sound_localizationTask.wav,-6.5,"(857, 878)","(-103,-202)",-95,-338,,,,,,,,,4,6,34,2,,,,,,,,,,,,,,,,,,,,,,,,,,,,,,,,,,,,,,,,,,,,1205.0305154928938,None,1206.129776254762,None,1207.062888796907,None,1.37989417989418,0.4665211462415755,1207.062888796907,None,,,,,,,,,,,,,,,,,169,001,2024_Feb_27_1149,SpeechDraft1Carolyn_lessNoise_PlusLocalization,2021.2.3,60.016533388284586,
,,,,,,,,midLeft,-13.0,2,ch1Sound_localizationTask.wav,-13.0,"(762, 878)","(-198,-202)",-190,-338,,,,,,,,,5,0,35,1,,,,,,,,,,,,,,,,,,,,,,,,,,,,,,,,,,,,,,,,,,,,1207.530458053574,None,1208.6297219647095,None,1209.5630284207873,None,1.3386243386243386,0.4491335148923099,1209.5630284207873,None,,,,,,,,,,,,,,,,,169,001,2024_Feb_27_1149,SpeechDraft1Carolyn_lessNoise_PlusLocalization,2021.2.3,60.016533388284586,
,,,,,,,,midLeft,-13.0,2,ch1Sound_localizationTask.wav,-13.0,"(762, 878)","(-198,-202)",-190,-338,,,,,,,,,5,1,36,1,,,,,,,,,,,,,,,,,,,,,,,,,,,,,,,,,,,,,,,,,,,,1210.0300782267004,None,1211.129601164721,None,1212.0463369856589,None,1.3904761904761904,0.9333863565698266,1212.0463369856589,None,,,,,,,,,,,,,,,,,169,001,2024_Feb_27_1149,SpeechDraft1Carolyn_lessNoise_PlusLocalization,2021.2.3,60.016533388284586,
,,,,,,,,midLeft,-13.0,2,ch1Sound_localizationTask.wav,-13.0,"(762, 878)","(-198,-202)",-190,-338,,,,,,,,,5,2,37,1,,,,,,,,,,,,,,,,,,,,,,,,,,,,,,,,,,,,,,,,,,,,1212.9802458286285,None,1214.0796012589708,None,1215.0129455877468,None,1.3391534391534392,0.5987580232322216,1215.0129455877468,None,,,,,,,,,,,,,,,,,169,001,2024_Feb_27_1149,SpeechDraft1Carolyn_lessNoise_PlusLocalization,2021.2.3,60.016533388284586,
,,,,,,,,midLeft,-13.0,2,ch1Sound_localizationTask.wav,-13.0,"(762, 878)","(-198,-202)",-190,-338,,,,,,,,,5,3,38,1,,,,,,,,,,,,,,,,,,,,,,,,,,,,,,,,,,,,,,,,,,,,1215.613257118035,None,1216.7130497777835,None,1217.6463254159316,None,1.342857142857143,0.5157802309840918,1217.6463254159316,None,,,,,,,,,,,,,,,,,169,001,2024_Feb_27_1149,SpeechDraft1Carolyn_lessNoise_PlusLocalization,2021.2.3,60.016533388284586,
,,,,,,,,farRight,19.1,4,ch1Sound_localizationTask.wav,19.1,"(1237, 878)","(277,-202)",285,-338,,,,,,,,,5,4,39,6,,,,,,,,,,,,,,,,,,,,,,,,,,,,,,,,,,,,,,,,,,,,1218.163288696669,None,1219.26303920988,None,1220.1962944329716,None,1.5761904761904761,0.9999424079433084,1220.1962944329716,None,,,,,,,,,,,,,,,,,169,001,2024_Feb_27_1149,SpeechDraft1Carolyn_lessNoise_PlusLocalization,2021.2.3,60.016533388284586,
,,,,,,,,farRight,19.1,4,ch1Sound_localizationTask.wav,19.1,"(1237, 878)","(277,-202)",285,-338,,,,,,,,,5,5,40,6,,,,,,,,,,,,,,,,,,,,,,,,,,,,,,,,,,,,,,,,,,,,1221.1970894248225,None,1222.2963287946768,None,1223.2297227857634,None,1.5915343915343916,1.0165600101463497,1223.2297227857634,None,,,,,,,,,,,,,,,,,169,001,2024_Feb_27_1149,SpeechDraft1Carolyn_lessNoise_PlusLocalization,2021.2.3,60.016533388284586,
,,,,,,,,farRight,19.1,4,ch1Sound_localizationTask.wav,19.1,"(1237, 878)","(277,-202)",285,-338,,,,,,,,,5,6,41,6,,,,,,,,,,,,,,,,,,,,,,,,,,,,,,,,,,,,,,,,,,,,1224.2469536489807,None,1225.3462643767707,None,1226.2796966726892,None,1.5687830687830688,1.1670445753261447,1226.2796966726892,None,,,,,,,,,,,,,,,,,169,001,2024_Feb_27_1149,SpeechDraft1Carolyn_lessNoise_PlusLocalization,2021.2.3,60.016533388284586,
,,,,,,,,center,0.0,6,ch1Sound_localizationTask.wav,0.0,"(952, 878)","(-8,-202)",0,-338,,,,,,,,,6,0,42,3,,,,,,,,,,,,,,,,,,,,,,,,,,,,,,,,,,,,,,,,,,,,1227.446747213602,None,1228.5463386648335,None,1229.479756588582,None,1.483068783068783,0.8494421378709376,1229.479756588582,None,,,,,,,,,,,,,,,,,169,001,2024_Feb_27_1149,SpeechDraft1Carolyn_lessNoise_PlusLocalization,2021.2.3,60.016533388284586,
,,,,,,,,center,0.0,6,ch1Sound_localizationTask.wav,0.0,"(952, 878)","(-8,-202)",0,-338,,,,,,,,,6,1,43,3,,,,,,,,,,,,,,,,,,,,,,,,,,,,,,,,,,,,,,,,,,,,1230.3298796568997,None,1231.42976110382,None,1232.362972126808,None,1.5042328042328044,0.6501404838636518,1232.362972126808,None,,,,,,,,,,,,,,,,,169,001,2024_Feb_27_1149,SpeechDraft1Carolyn_lessNoise_PlusLocalization,2021.2.3,60.016533388284586,
,,,,,,,,center,0.0,6,ch1Sound_localizationTask.wav,0.0,"(952, 878)","(-8,-202)",0,-338,,,,,,,,,6,2,44,3,,,,,,,,,,,,,,,,,,,,,,,,,,,,,,,,,,,,,,,,,,,,1233.0132909067906,None,1234.113004149869,None,1235.0464489320293,None,1.5042328042328044,0.4836565190926194,1235.0464489320293,None,,,,,,,,,,,,,,,,,169,001,2024_Feb_27_1149,SpeechDraft1Carolyn_lessNoise_PlusLocalization,2021.2.3,60.016533388284586,
,,,,,,,,farRight,19.1,4,ch1Sound_localizationTask.wav,19.1,"(1237, 878)","(277,-202)",285,-338,,,,,,,,,6,3,45,6,,,,,,,,,,,,,,,,,,,,,,,,,,,,,,,,,,,,,,,,,,,,1235.530420272611,None,1236.6296946629882,None,1237.5629868758842,None,1.5343915343915344,0.4665582478046417,1237.5629868758842,None,,,,,,,,,,,,,,,,,169,001,2024_Feb_27_1149,SpeechDraft1Carolyn_lessNoise_PlusLocalization,2021.2.3,60.016533388284586,
,,,,,,,,center,0.0,6,ch1Sound_localizationTask.wav,0.0,"(952, 878)","(-8,-202)",0,-338,,,,,,,,,6,4,46,3,,,,,,,,,,,,,,,,,,,,,,,,,,,,,,,,,,,,,,,,,,,,1238.0305917370133,None,1239.1297021405771,None,1240.0632739947177,None,1.4814814814814814,0.5290644369088113,1240.0632739947177,None,,,,,,,,,,,,,,,,,169,001,2024_Feb_27_1149,SpeechDraft1Carolyn_lessNoise_PlusLocalization,2021.2.3,60.016533388284586,
,,,,,,,,farRight,19.1,4,ch1Sound_localizationTask.wav,19.1,"(1237, 878)","(277,-202)",285,-338,,,,,,,,,6,5,47,6,,,,,,,,,,,,,,,,,,,,,,,,,,,,,,,,,,,,,,,,,,,,1240.596536371857,None,1241.696387453936,None,1242.6296931835823,None,1.6253968253968254,1.2495772927068174,1242.6296931835823,None,,,,,,,,,,,,,,,,,169,001,2024_Feb_27_1149,SpeechDraft1Carolyn_lessNoise_PlusLocalization,2021.2.3,60.016533388284586,
,,,,,,,,midLeft,-13.0,2,ch1Sound_localizationTask.wav,-13.0,"(762, 878)","(-198,-202)",-190,-338,,,,,,,,,6,6,48,1,,,,,,,,,,,,,,,,,,,,,,,,,,,,,,,,,,,,,,,,,,,,1243.8800483439118,None,1244.9795903237537,None,1245.9130449579097,None,1.4492063492063492,0.9669582042843103,1245.9130449579097,None,,,,,,,,,,,,,,,,,169,001,2024_Feb_27_1149,SpeechDraft1Carolyn_lessNoise_PlusLocalization,2021.2.3,60.016533388284586,
,,,,,,,,midLeft,-13.0,2,ch1Sound_localizationTask.wav,-13.0,"(762, 878)","(-198,-202)",-190,-338,,,,,,,,,7,0,49,1,,,,,,,,,,,,,,,,,,,,,,,,,,,,,,,,,,,,,,,,,,,,1246.8966756486334,None,1247.9964103046805,None,1248.9297540797852,None,1.41005291005291,1.166970323305577,1248.9297540797852,None,,,,,,,,,,,,,,,,,169,001,2024_Feb_27_1149,SpeechDraft1Carolyn_lessNoise_PlusLocalization,2021.2.3,60.016533388284586,
,,,,,,,,nearRight,6.5,0,ch1Sound_localizationTask.wav,6.5,"(1047, 878)","(87, -202)",95,-338,,,,,,,,,7,1,50,4,,,,,,,,,,,,,,,,,,,,,,,,,,,,,,,,,,,,,,,,,,,,1250.097924205009,None,1251.213017086964,None,1252.1298276809976,None,1.5820105820105819,1.2491643191315234,1252.1298276809976,None,,,,,,,,,,,,,,,,,169,001,2024_Feb_27_1149,SpeechDraft1Carolyn_lessNoise_PlusLocalization,2021.2.3,60.016533388284586,
,,,,,,,,midRight,13.0,3,ch1Sound_localizationTask.wav,13.0,"(1142, 878)","(182, -202)",190,-338,,,,,,,,,7,2,51,5,,,,,,,,,,,,,,,,,,,,,,,,,,,,,,,,,,,,,,,,,,,,1253.3802066678181,None,1254.4798091398552,None,1255.413007760886,None,1.6179894179894179,0.9499019589275122,1255.413007760886,None,,,,,,,,,,,,,,,,,169,001,2024_Feb_27_1149,SpeechDraft1Carolyn_lessNoise_PlusLocalization,2021.2.3,60.016533388284586,
,,,,,,,,midRight,13.0,3,ch1Sound_localizationTask.wav,13.0,"(1142, 878)","(182, -202)",190,-338,,,,,,,,,7,3,52,5,,,,,,,,,,,,,,,,,,,,,,,,,,,,,,,,,,,,,,,,,,,,1256.3643895760179,None,1257.4797187168151,None,1258.396388482768,None,1.6365079365079365,0.56502804486081,1258.396388482768,None,,,,,,,,,,,,,,,,,169,001,2024_Feb_27_1149,SpeechDraft1Carolyn_lessNoise_PlusLocalization,2021.2.3,60.016533388284586,
,,,,,,,,farRight,19.1,4,ch1Sound_localizationTask.wav,19.1,"(1237, 878)","(277,-202)",285,-338,,,,,,,,,7,4,53,6,,,,,,,,,,,,,,,,,,,,,,,,,,,,,,,,,,,,,,,,,,,,1258.9636560999788,None,1260.0630054818466,None,1260.9963067146018,None,1.655026455026455,0.9485862380824983,1260.9963067146018,None,,,,,,,,,,,,,,,,,169,001,2024_Feb_27_1149,SpeechDraft1Carolyn_lessNoise_PlusLocalization,2021.2.3,60.016533388284586,
,,,,,,,,nearRight,6.5,0,ch1Sound_localizationTask.wav,6.5,"(1047, 878)","(87, -202)",95,-338,,,,,,,,,7,5,54,4,,,,,,,,,,,,,,,,,,,,,,,,,,,,,,,,,,,,,,,,,,,,1261.9466374227777,None,1263.0463476106524,None,1263.9797018789686,None,1.5,0.7987676807679236,1263.9797018789686,None,,,,,,,,,,,,,,,,,169,001,2024_Feb_27_1149,SpeechDraft1Carolyn_lessNoise_PlusLocalization,2021.2.3,60.016533388284586,
,,,,,,,,farLeft,-19.1,5,ch1Sound_localizationTask.wav,-19.1,"(667, 878)","(-293,-202)",-285,-338,,,,,,,,,7,6,55,0,,,,,,,,,,,,,,,,,,,,,,,,,,,,,,,,,,,,,,,,,,,,1264.7806305666454,None,1265.8796518859453,None,1266.813123030588,None,1.3767195767195768,1.2836021296679974,1266.813123030588,None,,,,,,,,,,,,,,,,,169,001,2024_Feb_27_1149,SpeechDraft1Carolyn_lessNoise_PlusLocalization,2021.2.3,60.016533388284586,
,,,,,,,,,,,,,,,,,,,,,,,,,,,,,,,,,,,,,,,,,,,,,,,,,,,,,,,,,,,,,,,,,,,,,,,,,,,,,,,,,,space,10.433164814021438,1268.1800590730272,None,,,,,,,,,,,,,169,001,2024_Feb_27_1149,SpeechDraft1Carolyn_lessNoise_PlusLocalization,2021.2.3,60.016533388284586,
,,,,,,,,nearLeft,-6.5,1,ch1Sound_localizationTask.wav,-6.5,"(857, 878)","(-103,-202)",-95,-338,,,,,,,,,,,,,0,0,0,2,,,,,,,,,,,,,,,,,,,,,,,,,,,,,,,,,,,,,,,,1278.646392433904,None,,,1281.6797899547964,None,1.4317460317460318,1.5541660427115858,1281.6797899547964,None,,,,,1268.1800590730272,None,1279.6466874787584,None,1279.8301053629257,1279.8467803797685,,,,,,,169,001,2024_Feb_27_1149,SpeechDraft1Carolyn_lessNoise_PlusLocalization,2021.2.3,60.016533388284586,
,,,,,,,,farLeft,-19.1,5,ch1Sound_localizationTask.wav,-19.1,"(667, 878)","(-293,-202)",-285,-338,,,,,,,,,,,,,0,1,1,0,,,,,,,,,,,,,,,,,,,,,,,,,,,,,,,,,,,,,,,,1283.2469043368474,None,,,1286.2632935149595,None,1.3380952380952382,0.8494035578332841,1286.2632935149595,None,,,,,,,1284.2467474588193,None,1284.4300440088846,1284.446684778668,,,,,,,169,001,2024_Feb_27_1149,SpeechDraft1Carolyn_lessNoise_PlusLocalization,2021.2.3,60.016533388284586,
,,,,,,,,midLeft,-13.0,2,ch1Sound_localizationTask.wav,-13.0,"(762, 878)","(-198,-202)",-190,-338,,,,,,,,,,,,,0,2,2,1,,,,,,,,,,,,,,,,,,,,,,,,,,,,,,,,,,,,,,,,1287.1300783739425,None,,,1290.1464323597029,None,1.4058201058201059,0.8501163250766695,1290.1464323597029,None,,,,,,,1288.1300284597091,None,1288.3133654310368,1288.3302071746439,,,,,,,169,001,2024_Feb_27_1149,SpeechDraft1Carolyn_lessNoise_PlusLocalization,2021.2.3,60.016533388284586,
,,,,,,,,farRight,19.1,4,ch1Sound_localizationTask.wav,19.1,"(1237, 878)","(277,-202)",285,-338,,,,,,,,,,,,,0,3,3,6,,,,,,,,,,,,,,,,,,,,,,,,,,,,,,,,,,,,,,,,1291.013423786033,None,,,1294.0298583349213,None,1.657142857142857,1.2997085712850094,1294.0298583349213,None,,,,,,,1292.0133627508767,None,1292.1966935666278,1292.2135394127108,,,,,,,169,001,2024_Feb_27_1149,SpeechDraft1Carolyn_lessNoise_PlusLocalization,2021.2.3,60.016533388284586,
,,,,,,,,center,0.0,6,ch1Sound_localizationTask.wav,0.0,"(952, 878)","(-8,-202)",0,-338,,,,,,,,,,,,,0,4,4,3,,,,,,,,,,,,,,,,,,,,,,,,,,,,,,,,,,,,,,,,1295.3315938687883,None,,,1298.3631982156076,None,1.4851851851851852,1.2157725603319705,1298.3631982156076,None,,,,,,,1296.3468069708906,None,1296.5300481296144,1296.5466985167004,,,,,,,169,001,2024_Feb_27_1149,SpeechDraft1Carolyn_lessNoise_PlusLocalization,2021.2.3,60.016533388284586,
,,,,,,,,farRight,19.1,4,ch1Sound_localizationTask.wav,19.1,"(1237, 878)","(277,-202)",285,-338,,,,,,,,,,,,,0,5,5,6,,,,,,,,,,,,,,,,,,,,,,,,,,,,,,,,,,,,,,,,1299.580054926686,None,,,1302.5966137237847,None,1.6433862433862434,1.099435976240784,1302.5966137237847,None,,,,,,,1300.580100093037,None,1300.7633470897563,1300.7800984648056,,,,,,,169,001,2024_Feb_27_1149,SpeechDraft1Carolyn_lessNoise_PlusLocalization,2021.2.3,60.016533388284586,
,,,,,,,,farRight,19.1,4,ch1Sound_localizationTask.wav,19.1,"(1237, 878)","(277,-202)",285,-338,,,,,,,,,,,,,0,6,6,6,,,,,,,,,,,,,,,,,,,,,,,,,,,,,,,,,,,,,,,,1303.6976494169794,None,,,1306.7131841615774,None,1.6486772486772487,0.049387955106794834,1306.7131841615774,None,,,,,,,1304.6967466427013,None,1304.8800874128938,1304.8967422898859,,,,,,,169,001,2024_Feb_27_1149,SpeechDraft1Carolyn_lessNoise_PlusLocalization,2021.2.3,60.016533388284586,
,,,,,,,,center,0.0,6,ch1Sound_localizationTask.wav,0.0,"(952, 878)","(-8,-202)",0,-338,,,,,,,,,,,,,1,0,7,3,,,,,,,,,,,,,,,,,,,,,,,,,,,,,,,,,,,,,,,,1306.7633702689782,None,,,1309.7799190557562,None,1.483068783068783,1.082691635005176,1309.7799190557562,None,,,,,,,1307.7633422790095,None,1307.946769024711,1307.9634670768864,,,,,,,169,001,2024_Feb_27_1149,SpeechDraft1Carolyn_lessNoise_PlusLocalization,2021.2.3,60.016533388284586,
,,,,,,,,nearRight,6.5,0,ch1Sound_localizationTask.wav,6.5,"(1047, 878)","(87, -202)",95,-338,,,,,,,,,,,,,1,1,8,4,,,,,,,,,,,,,,,,,,,,,,,,,,,,,,,,,,,,,,,,1310.8635036735795,None,,,1313.8798380349763,None,1.565079365079365,2.6499459906481206,1313.8798380349763,None,,,,,,,1311.8635680736043,None,1312.0467334436253,1312.063578786794,,,,,,,169,001,2024_Feb_27_1149,SpeechDraft1Carolyn_lessNoise_PlusLocalization,2021.2.3,60.016533388284586,
,,,,,,,,midRight,13.0,3,ch1Sound_localizationTask.wav,13.0,"(1142, 878)","(182, -202)",190,-338,,,,,,,,,,,,,1,2,9,5,,,,,,,,,,,,,,,,,,,,,,,,,,,,,,,,,,,,,,,,1316.5467447326519,None,,,1319.5631475648843,None,1.6825396825396826,1.6667178757488728,1319.5631475648843,None,,,,,,,1317.5467580929399,None,1317.7302671987563,1317.7467550858855,,,,,,,169,001,2024_Feb_27_1149,SpeechDraft1Carolyn_lessNoise_PlusLocalization,2021.2.3,60.016533388284586,
,,,,,,,,center,0.0,6,ch1Sound_localizationTask.wav,0.0,"(952, 878)","(-8,-202)",0,-338,,,,,,,,,,,,,1,3,10,3,,,,,,,,,,,,,,,,,,,,,,,,,,,,,,,,,,,,,,,,1321.2469566906802,None,,,1324.2633283897303,None,1.4936507936507937,0.8159346673637629,1324.2633283897303,None,,,,,,,1322.2468524379656,None,1322.4302321798168,1322.446781040635,,,,,,,169,001,2024_Feb_27_1149,SpeechDraft1Carolyn_lessNoise_PlusLocalization,2021.2.3,60.016533388284586,
,,,,,,,,center,0.0,6,ch1Sound_localizationTask.wav,0.0,"(952, 878)","(-8,-202)",0,-338,,,,,,,,,,,,,1,4,11,3,,,,,,,,,,,,,,,,,,,,,,,,,,,,,,,,,,,,,,,,1325.0815459568985,None,,,1328.1132469316944,None,1.4984126984126984,0.8002129909582436,1328.1132469316944,None,,,,,,,1326.0967746409588,None,1326.2801702925935,1326.2966331546195,,,,,,,169,001,2024_Feb_27_1149,SpeechDraft1Carolyn_lessNoise_PlusLocalization,2021.2.3,60.016533388284586,
,,,,,,,,midLeft,-13.0,2,ch1Sound_localizationTask.wav,-13.0,"(762, 878)","(-198,-202)",-190,-338,,,,,,,,,,,,,1,5,12,1,,,,,,,,,,,,,,,,,,,,,,,,,,,,,,,,,,,,,,,,1328.9301509168,None,,,1331.9464819058776,None,1.3814814814814815,0.9163544196635485,1331.9464819058776,None,,,,,,,1329.9301003436558,None,1330.1138113378547,1330.1305490238592,,,,,,,169,001,2024_Feb_27_1149,SpeechDraft1Carolyn_lessNoise_PlusLocalization,2021.2.3,60.016533388284586,
,,,,,,,,midLeft,-13.0,2,ch1Sound_localizationTask.wav,-13.0,"(762, 878)","(-198,-202)",-190,-338,,,,,,,,,,,,,1,6,13,1,,,,,,,,,,,,,,,,,,,,,,,,,,,,,,,,,,,,,,,,1332.8645802019164,None,,,1335.8965290798806,None,1.374074074074074,1.0667002419941127,1335.8965290798806,None,,,,,,,1333.8801506967284,None,1334.0634006769396,1334.0801618457772,,,,,,,169,001,2024_Feb_27_1149,SpeechDraft1Carolyn_lessNoise_PlusLocalization,2021.2.3,60.016533388284586,
,,,,,,,,midRight,13.0,3,ch1Sound_localizationTask.wav,13.0,"(1142, 878)","(182, -202)",190,-338,,,,,,,,,,,,,2,0,14,5,,,,,,,,,,,,,,,,,,,,,,,,,,,,,,,,,,,,,,,,1336.9800801696256,None,,,1339.996502629947,None,1.633862433862434,1.2818451933562756,1339.996502629947,None,,,,,,,1337.980094437953,None,1338.1634495258331,1338.1800691736862,,,,,,,169,001,2024_Feb_27_1149,SpeechDraft1Carolyn_lessNoise_PlusLocalization,2021.2.3,60.016533388284586,
,,,,,,,,midRight,13.0,3,ch1Sound_localizationTask.wav,13.0,"(1142, 878)","(182, -202)",190,-338,,,,,,,,,,,,,2,1,15,5,,,,,,,,,,,,,,,,,,,,,,,,,,,,,,,,,,,,,,,,1341.280568013899,None,,,1344.2966799899004,None,1.5936507936507938,0.7828819546848536,1344.2966799899004,None,,,,,,,1342.2803163137287,None,1342.463554716669,1342.4800682296045,,,,,,,169,001,2024_Feb_27_1149,SpeechDraft1Carolyn_lessNoise_PlusLocalization,2021.2.3,60.016533388284586,
,,,,,,,,nearRight,6.5,0,ch1Sound_localizationTask.wav,6.5,"(1047, 878)","(87, -202)",95,-338,,,,,,,,,,,,,2,2,16,4,,,,,,,,,,,,,,,,,,,,,,,,,,,,,,,,,,,,,,,,1345.0803564339876,None,,,1348.09655728098,None,1.5502645502645502,0.8822462549433112,1348.09655728098,None,,,,,,,1346.0799680906348,None,1346.2634095358662,1346.2799741616473,,,,,,,169,001,2024_Feb_27_1149,SpeechDraft1Carolyn_lessNoise_PlusLocalization,2021.2.3,60.016533388284586,
,,,,,,,,midLeft,-13.0,2,ch1Sound_localizationTask.wav,-13.0,"(762, 878)","(-198,-202)",-190,-338,,,,,,,,,,,,,2,3,17,1,,,,,,,,,,,,,,,,,,,,,,,,,,,,,,,,,,,,,,,,1348.9802157739177,None,,,1351.996548682917,None,1.391005291005291,0.6329199839383364,1351.996548682917,None,,,,,,,1349.9801480597816,None,1350.1633867626078,1350.1800441858359,,,,,,,169,001,2024_Feb_27_1149,SpeechDraft1Carolyn_lessNoise_PlusLocalization,2021.2.3,60.016533388284586,
,,,,,,,,nearRight,6.5,0,ch1Sound_localizationTask.wav,6.5,"(1047, 878)","(87, -202)",95,-338,,,,,,,,,,,,,2,4,18,4,,,,,,,,,,,,,,,,,,,,,,,,,,,,,,,,,,,,,,,,1352.6469222046435,None,,,1355.663224207703,None,1.5492063492063493,1.3997800326906145,1355.663224207703,None,,,,,,,1353.6467075357214,None,1353.8302274346352,1353.8470163536258,,,,,,,169,001,2024_Feb_27_1149,SpeechDraft1Carolyn_lessNoise_PlusLocalization,2021.2.3,60.016533388284586,
,,,,,,,,midRight,13.0,3,ch1Sound_localizationTask.wav,13.0,"(1142, 878)","(182, -202)",190,-338,,,,,,,,,,,,,2,5,19,5,,,,,,,,,,,,,,,,,,,,,,,,,,,,,,,,,,,,,,,,1357.0641006305814,None,,,1360.080231887754,None,1.6105820105820106,1.3127407780848444,1360.080231887754,None,,,,,,,1358.0634995019063,None,1358.2467437558807,1358.2634951816872,,,,,,,169,001,2024_Feb_27_1149,SpeechDraft1Carolyn_lessNoise_PlusLocalization,2021.2.3,60.016533388284586,
,,,,,,,,nearLeft,-6.5,1,ch1Sound_localizationTask.wav,-6.5,"(857, 878)","(-103,-202)",-95,-338,,,,,,,,,,,,,2,6,20,2,,,,,,,,,,,,,,,,,,,,,,,,,,,,,,,,,,,,,,,,1361.3978586257435,None,,,1364.4132671258412,None,1.4084656084656084,1.2166432803496718,1364.4132671258412,None,,,,,,,1362.3967707837,None,1362.5802016938105,1362.596869696863,,,,,,,169,001,2024_Feb_27_1149,SpeechDraft1Carolyn_lessNoise_PlusLocalization,2021.2.3,60.016533388284586,
,,,,,,,,farRight,19.1,4,ch1Sound_localizationTask.wav,19.1,"(1237, 878)","(277,-202)",285,-338,,,,,,,,,,,,,3,0,21,6,,,,,,,,,,,,,,,,,,,,,,,,,,,,,,,,,,,,,,,,1365.646964463871,None,,,1368.663122692611,None,1.6624338624338624,1.0653287330642343,1368.663122692611,None,,,,,,,1366.646801489871,None,1366.8302734405734,1366.846788297873,,,,,,,169,001,2024_Feb_27_1149,SpeechDraft1Carolyn_lessNoise_PlusLocalization,2021.2.3,60.016533388284586,
,,,,,,,,farLeft,-19.1,5,ch1Sound_localizationTask.wav,-19.1,"(667, 878)","(-293,-202)",-285,-338,,,,,,,,,,,,,3,1,22,0,,,,,,,,,,,,,,,,,,,,,,,,,,,,,,,,,,,,,,,,1369.7301449077204,None,,,1372.746759957634,None,1.319047619047619,0.9487976436503232,1372.746759957634,None,,,,,,,1370.730084897019,None,1370.9136572917923,1370.9300959557295,,,,,,,169,001,2024_Feb_27_1149,SpeechDraft1Carolyn_lessNoise_PlusLocalization,2021.2.3,60.016533388284586,
,,,,,,,,nearLeft,-6.5,1,ch1Sound_localizationTask.wav,-6.5,"(857, 878)","(-103,-202)",-95,-338,,,,,,,,,,,,,3,2,23,2,,,,,,,,,,,,,,,,,,,,,,,,,,,,,,,,,,,,,,,,1373.7134473309852,None,,,1376.7299095438793,None,1.4481481481481482,1.1505106249824166,1376.7299095438793,None,,,,,,,1374.713417225983,None,1374.8969336538576,1374.9134144778363,,,,,,,169,001,2024_Feb_27_1149,SpeechDraft1Carolyn_lessNoise_PlusLocalization,2021.2.3,60.016533388284586,
,,,,,,,,midRight,13.0,3,ch1Sound_localizationTask.wav,13.0,"(1142, 878)","(182, -202)",190,-338,,,,,,,,,,,,,3,3,24,5,,,,,,,,,,,,,,,,,,,,,,,,,,,,,,,,,,,,,,,,1377.8968184050173,None,,,1380.9132989067584,None,1.625925925925926,0.8169827964156866,1380.9132989067584,None,,,,,,,1378.896811337676,None,1379.0801338288002,1379.096833822783,,,,,,,169,001,2024_Feb_27_1149,SpeechDraft1Carolyn_lessNoise_PlusLocalization,2021.2.3,60.016533388284586,
,,,,,,,,nearRight,6.5,0,ch1Sound_localizationTask.wav,6.5,"(1047, 878)","(87, -202)",95,-338,,,,,,,,,,,,,3,4,25,4,,,,,,,,,,,,,,,,,,,,,,,,,,,,,,,,,,,,,,,,1381.7468761228956,None,,,1384.7633281066082,None,1.547089947089947,1.2009234987199306,1384.7633281066082,None,,,,,,,1382.7469737497158,None,1382.930178640876,1382.9468502667733,,,,,,,169,001,2024_Feb_27_1149,SpeechDraft1Carolyn_lessNoise_PlusLocalization,2021.2.3,60.016533388284586,
,,,,,,,,midLeft,-13.0,2,ch1Sound_localizationTask.wav,-13.0,"(762, 878)","(-198,-202)",-190,-338,,,,,,,,,,,,,3,5,26,1,,,,,,,,,,,,,,,,,,,,,,,,,,,,,,,,,,,,,,,,1385.9801926459186,None,,,1388.9964688667096,None,1.3883597883597885,0.8822100991383195,1388.9964688667096,None,,,,,,,1386.9801102597266,None,1387.163450111635,1387.180183173623,,,,,,,169,001,2024_Feb_27_1149,SpeechDraft1Carolyn_lessNoise_PlusLocalization,2021.2.3,60.016533388284586,
,,,,,,,,nearRight,6.5,0,ch1Sound_localizationTask.wav,6.5,"(1047, 878)","(87, -202)",95,-338,,,,,,,,,,,,,3,6,27,4,,,,,,,,,,,,,,,,,,,,,,,,,,,,,,,,,,,,,,,,1389.8808129006065,None,,,1392.8966150539927,None,1.5518518518518518,0.7661003307439387,1392.8966150539927,None,,,,,,,1390.880201649852,None,1391.0633949330077,1391.0801705927588,,,,,,,169,001,2024_Feb_27_1149,SpeechDraft1Carolyn_lessNoise_PlusLocalization,2021.2.3,60.016533388284586,
,,,,,,,,nearLeft,-6.5,1,ch1Sound_localizationTask.wav,-6.5,"(857, 878)","(-103,-202)",-95,-338,,,,,,,,,,,,,4,0,28,2,,,,,,,,,,,,,,,,,,,,,,,,,,,,,,,,,,,,,,,,1393.663883260917,None,,,1396.679932294879,None,1.433862433862434,0.9329066816717386,1396.679932294879,None,,,,,,,1394.6634788839146,None,1394.846775077749,1394.863631337881,,,,,,,169,001,2024_Feb_27_1149,SpeechDraft1Carolyn_lessNoise_PlusLocalization,2021.2.3,60.016533388284586,
,,,,,,,,farLeft,-19.1,5,ch1Sound_localizationTask.wav,-19.1,"(667, 878)","(-293,-202)",-285,-338,,,,,,,,,,,,,4,1,29,0,,,,,,,,,,,,,,,,,,,,,,,,,,,,,,,,,,,,,,,,1397.6134573109448,None,,,1400.630011427682,None,1.3158730158730159,0.898468263912946,1400.630011427682,None,,,,,,,1398.6134906676598,None,1398.7968004466966,1398.8135276688263,,,,,,,169,001,2024_Feb_27_1149,SpeechDraft1Carolyn_lessNoise_PlusLocalization,2021.2.3,60.016533388284586,
,,,,,,,,farLeft,-19.1,5,ch1Sound_localizationTask.wav,-19.1,"(667, 878)","(-293,-202)",-285,-338,,,,,,,,,,,,,4,2,30,0,,,,,,,,,,,,,,,,,,,,,,,,,,,,,,,,,,,,,,,,1401.530162976589,None,,,1404.546623619739,None,1.3158730158730159,1.3160082288086414,1404.546623619739,None,,,,,,,1402.5301908487454,None,1402.7134849159047,1402.7302421368659,,,,,,,169,001,2024_Feb_27_1149,SpeechDraft1Carolyn_lessNoise_PlusLocalization,2021.2.3,60.016533388284586,
,,,,,,,,nearLeft,-6.5,1,ch1Sound_localizationTask.wav,-6.5,"(857, 878)","(-103,-202)",-95,-338,,,,,,,,,,,,,4,3,31,2,,,,,,,,,,,,,,,,,,,,,,,,,,,,,,,,,,,,,,,,1405.8633889849298,None,,,1408.879930656869,None,1.435978835978836,1.015973303001374,1408.879930656869,None,,,,,,,1406.8635018439963,None,1407.0469247750007,1407.0636015078053,,,,,,,169,001,2024_Feb_27_1149,SpeechDraft1Carolyn_lessNoise_PlusLocalization,2021.2.3,60.016533388284586,
,,,,,,,,farRight,19.1,4,ch1Sound_localizationTask.wav,19.1,"(1237, 878)","(277,-202)",285,-338,,,,,,,,,,,,,4,4,32,6,,,,,,,,,,,,,,,,,,,,,,,,,,,,,,,,,,,,,,,,1409.8967810436152,None,,,1412.9133008727804,None,1.668783068783069,0.8492471519857645,1412.9133008727804,None,,,,,,,1410.896853605751,None,1411.0801675068215,1411.096818452701,,,,,,,169,001,2024_Feb_27_1149,SpeechDraft1Carolyn_lessNoise_PlusLocalization,2021.2.3,60.016533388284586,
,,,,,,,,nearRight,6.5,0,ch1Sound_localizationTask.wav,6.5,"(1047, 878)","(87, -202)",95,-338,,,,,,,,,,,,,4,5,33,4,,,,,,,,,,,,,,,,,,,,,,,,,,,,,,,,,,,,,,,,1413.7801602156833,None,,,1416.7965101986192,None,1.5492063492063493,1.2828070842660964,1416.7965101986192,None,,,,,,,1414.7801882149652,None,1414.9635075456463,1414.9801983367652,,,,,,,169,001,2024_Feb_27_1149,SpeechDraft1Carolyn_lessNoise_PlusLocalization,2021.2.3,60.016533388284586,
,,,,,,,,center,0.0,6,ch1Sound_localizationTask.wav,0.0,"(952, 878)","(-8,-202)",0,-338,,,,,,,,,,,,,4,6,34,3,,,,,,,,,,,,,,,,,,,,,,,,,,,,,,,,,,,,,,,,1418.0802309866995,None,,,1421.0968430796638,None,1.5063492063492063,0.8163801799528301,1421.0968430796638,None,,,,,,,1419.0803169277497,None,1419.2636755616404,1419.2802731916308,,,,,,,169,001,2024_Feb_27_1149,SpeechDraft1Carolyn_lessNoise_PlusLocalization,2021.2.3,60.016533388284586,
,,,,,,,,nearLeft,-6.5,1,ch1Sound_localizationTask.wav,-6.5,"(857, 878)","(-103,-202)",-95,-338,,,,,,,,,,,,,5,0,35,2,,,,,,,,,,,,,,,,,,,,,,,,,,,,,,,,,,,,,,,,1421.9302475959994,None,,,1424.9467564718798,None,1.4285714285714286,0.8824169086292386,1424.9467564718798,None,,,,,,,1422.9302460956387,None,1423.113441132009,1423.1301766536199,,,,,,,169,001,2024_Feb_27_1149,SpeechDraft1Carolyn_lessNoise_PlusLocalization,2021.2.3,60.016533388284586,
,,,,,,,,farLeft,-19.1,5,ch1Sound_localizationTask.wav,-19.1,"(667, 878)","(-293,-202)",-285,-338,,,,,,,,,,,,,5,1,36,0,,,,,,,,,,,,,,,,,,,,,,,,,,,,,,,,,,,,,,,,1425.830133376643,None,,,1428.846738602966,None,1.3555555555555556,1.365609809756279,1428.846738602966,None,,,,,,,1426.8302006116137,None,1427.0135375978425,1427.030225646682,,,,,,,169,001,2024_Feb_27_1149,SpeechDraft1Carolyn_lessNoise_PlusLocalization,2021.2.3,60.016533388284586,
,,,,,,,,nearRight,6.5,0,ch1Sound_localizationTask.wav,6.5,"(1047, 878)","(87, -202)",95,-338,,,,,,,,,,,,,5,2,37,4,,,,,,,,,,,,,,,,,,,,,,,,,,,,,,,,,,,,,,,,1430.2135164048523,None,,,1433.229943072889,None,1.573015873015873,1.097692329902202,1433.229943072889,None,,,,,,,1431.213615632616,None,1431.396945799701,1431.4135050806217,,,,,,,169,001,2024_Feb_27_1149,SpeechDraft1Carolyn_lessNoise_PlusLocalization,2021.2.3,60.016533388284586,
,,,,,,,,midLeft,-13.0,2,ch1Sound_localizationTask.wav,-13.0,"(762, 878)","(-198,-202)",-190,-338,,,,,,,,,,,,,5,3,38,1,,,,,,,,,,,,,,,,,,,,,,,,,,,,,,,,,,,,,,,,1434.3302522576414,None,,,1437.346834229771,None,1.374074074074074,1.36507838498801,1437.346834229771,None,,,,,,,1435.3302407888696,None,1435.5135698327795,1435.5302193937823,,,,,,,169,001,2024_Feb_27_1149,SpeechDraft1Carolyn_lessNoise_PlusLocalization,2021.2.3,60.016533388284586,
,,,,,,,,midRight,13.0,3,ch1Sound_localizationTask.wav,13.0,"(1142, 878)","(182, -202)",190,-338,,,,,,,,,,,,,5,4,39,5,,,,,,,,,,,,,,,,,,,,,,,,,,,,,,,,,,,,,,,,1438.7136796889827,None,,,1441.7300119656138,None,1.6433862433862434,1.0994947492145002,1441.7300119656138,None,,,,,,,1439.7135540125892,None,1439.8968161167577,1439.9136208249256,,,,,,,169,001,2024_Feb_27_1149,SpeechDraft1Carolyn_lessNoise_PlusLocalization,2021.2.3,60.016533388284586,
,,,,,,,,midRight,13.0,3,ch1Sound_localizationTask.wav,13.0,"(1142, 878)","(182, -202)",190,-338,,,,,,,,,,,,,5,5,40,5,,,,,,,,,,,,,,,,,,,,,,,,,,,,,,,,,,,,,,,,1442.8303049919195,None,,,1445.8466772809625,None,1.5825396825396827,1.081889043096453,1445.8466772809625,None,,,,,,,1443.8303115069866,None,1444.0136137716472,1444.0302976337261,,,,,,,169,001,2024_Feb_27_1149,SpeechDraft1Carolyn_lessNoise_PlusLocalization,2021.2.3,60.016533388284586,
,,,,,,,,center,0.0,6,ch1Sound_localizationTask.wav,0.0,"(952, 878)","(-8,-202)",0,-338,,,,,,,,,,,,,5,6,41,3,,,,,,,,,,,,,,,,,,,,,,,,,,,,,,,,,,,,,,,,1446.9302231166512,None,,,1449.946734052617,None,1.5031746031746032,1.6331744133494794,1449.946734052617,None,,,,,,,1447.9302504179068,None,1448.1136522740126,1448.130253853742,,,,,,,169,001,2024_Feb_27_1149,SpeechDraft1Carolyn_lessNoise_PlusLocalization,2021.2.3,60.016533388284586,
,,,,,,,,center,0.0,6,ch1Sound_localizationTask.wav,0.0,"(952, 878)","(-8,-202)",0,-338,,,,,,,,,,,,,6,0,42,3,,,,,,,,,,,,,,,,,,,,,,,,,,,,,,,,,,,,,,,,1451.596864612773,None,,,1454.613248356618,None,1.4894179894179893,0.9496288318186998,1454.613248356618,None,,,,,,,1452.5969281676225,None,1452.780277485028,1452.79686853569,,,,,,,169,001,2024_Feb_27_1149,SpeechDraft1Carolyn_lessNoise_PlusLocalization,2021.2.3,60.016533388284586,
,,,,,,,,midLeft,-13.0,2,ch1Sound_localizationTask.wav,-13.0,"(762, 878)","(-198,-202)",-190,-338,,,,,,,,,,,,,6,1,43,1,,,,,,,,,,,,,,,,,,,,,,,,,,,,,,,,,,,,,,,,1455.5802621208131,None,,,1458.5967354266904,None,1.366137566137566,1.532629530876875,1458.5967354266904,None,,,,,,,1456.5802724258974,None,1456.7635510917753,1456.7802935140207,,,,,,,169,001,2024_Feb_27_1149,SpeechDraft1Carolyn_lessNoise_PlusLocalization,2021.2.3,60.016533388284586,
,,,,,,,,nearLeft,-6.5,1,ch1Sound_localizationTask.wav,-6.5,"(857, 878)","(-103,-202)",-95,-338,,,,,,,,,,,,,6,2,44,2,,,,,,,,,,,,,,,,,,,,,,,,,,,,,,,,,,,,,,,,1460.1302118278109,None,,,1463.1467854287475,None,1.452910052910053,0.9819565042853355,1463.1467854287475,None,,,,,,,1461.1302383798175,None,1461.3135800287127,1461.3303017648868,,,,,,,169,001,2024_Feb_27_1149,SpeechDraft1Carolyn_lessNoise_PlusLocalization,2021.2.3,60.016533388284586,
,,,,,,,,farRight,19.1,4,ch1Sound_localizationTask.wav,19.1,"(1237, 878)","(277,-202)",285,-338,,,,,,,,,,,,,6,3,45,6,,,,,,,,,,,,,,,,,,,,,,,,,,,,,,,,,,,,,,,,1464.1302699819207,None,,,1467.146689931862,None,1.664021164021164,0.3495974028483033,1467.146689931862,None,,,,,,,1465.1302412929945,None,1465.313653810881,1465.3301923288964,,,,,,,169,001,2024_Feb_27_1149,SpeechDraft1Carolyn_lessNoise_PlusLocalization,2021.2.3,60.016533388284586,
,,,,,,,,farRight,19.1,4,ch1Sound_localizationTask.wav,19.1,"(1237, 878)","(277,-202)",285,-338,,,,,,,,,,,,,6,4,46,6,,,,,,,,,,,,,,,,,,,,,,,,,,,,,,,,,,,,,,,,1467.4973492356949,None,,,1470.5133478767239,None,1.6153439153439153,1.2150510349310935,1470.5133478767239,None,,,,,,,1468.496937436983,None,1468.6802220507525,1468.6969510056078,,,,,,,169,001,2024_Feb_27_1149,SpeechDraft1Carolyn_lessNoise_PlusLocalization,2021.2.3,60.016533388284586,
,,,,,,,,farLeft,-19.1,5,ch1Sound_localizationTask.wav,-19.1,"(667, 878)","(-293,-202)",-285,-338,,,,,,,,,,,,,6,5,47,0,,,,,,,,,,,,,,,,,,,,,,,,,,,,,,,,,,,,,,,,1471.7303567798808,None,,,1474.7468132609501,None,1.348148148148148,2.1493046511895955,1474.7468132609501,None,,,,,,,1472.7302794428542,None,1472.9136588228866,1472.9302621167153,,,,,,,169,001,2024_Feb_27_1149,SpeechDraft1Carolyn_lessNoise_PlusLocalization,2021.2.3,60.016533388284586,
,,,,,,,,farRight,19.1,4,ch1Sound_localizationTask.wav,19.1,"(1237, 878)","(277,-202)",285,-338,,,,,,,,,,,,,6,6,48,6,,,,,,,,,,,,,,,,,,,,,,,,,,,,,,,,,,,,,,,,1476.896931876894,None,,,1479.9134251088835,None,1.6661375661375661,1.6481218240223825,1479.9134251088835,None,,,,,,,1477.896977786906,None,1478.0802498268895,1478.0969245489687,,,,,,,169,001,2024_Feb_27_1149,SpeechDraft1Carolyn_lessNoise_PlusLocalization,2021.2.3,60.016533388284586,
,,,,,,,,farLeft,-19.1,5,ch1Sound_localizationTask.wav,-19.1,"(667, 878)","(-293,-202)",-285,-338,,,,,,,,,,,,,7,0,49,0,,,,,,,,,,,,,,,,,,,,,,,,,,,,,,,,,,,,,,,,1481.5636111060157,None,,,1484.5799864926375,None,1.3518518518518519,1.3482688409276307,1484.5799864926375,None,,,,,,,1482.5635890075937,None,1482.7468858426437,1482.763544113841,,,,,,,169,001,2024_Feb_27_1149,SpeechDraft1Carolyn_lessNoise_PlusLocalization,2021.2.3,60.016533388284586,
,,,,,,,,farLeft,-19.1,5,ch1Sound_localizationTask.wav,-19.1,"(667, 878)","(-293,-202)",-285,-338,,,,,,,,,,,,,7,1,50,0,,,,,,,,,,,,,,,,,,,,,,,,,,,,,,,,,,,,,,,,1485.9308048626408,None,,,1488.94664164586,None,1.3555555555555556,0.14962317934259772,1488.94664164586,None,,,,,,,1486.9302987395786,None,1487.1136799799278,1487.1304250746034,,,,,,,169,001,2024_Feb_27_1149,SpeechDraft1Carolyn_lessNoise_PlusLocalization,2021.2.3,60.016533388284586,
,,,,,,,,center,0.0,6,ch1Sound_localizationTask.wav,0.0,"(952, 878)","(-8,-202)",0,-338,,,,,,,,,,,,,7,2,51,3,,,,,,,,,,,,,,,,,,,,,,,,,,,,,,,,,,,,,,,,1489.0968795586377,None,,,1492.1134758936241,None,1.498941798941799,1.0327077750116587,1492.1134758936241,None,,,,,,,1490.0969711369835,None,1490.280283703003,1490.2970570307225,,,,,,,169,001,2024_Feb_27_1149,SpeechDraft1Carolyn_lessNoise_PlusLocalization,2021.2.3,60.016533388284586,
,,,,,,,,midLeft,-13.0,2,ch1Sound_localizationTask.wav,-13.0,"(762, 878)","(-198,-202)",-190,-338,,,,,,,,,,,,,7,3,52,1,,,,,,,,,,,,,,,,,,,,,,,,,,,,,,,,,,,,,,,,1493.1469786060043,None,,,1496.1634778305888,None,1.3814814814814815,1.3004083009436727,1496.1634778305888,None,,,,,,,1494.1468859268352,None,1494.3303256300278,1494.3469054396264,,,,,,,169,001,2024_Feb_27_1149,SpeechDraft1Carolyn_lessNoise_PlusLocalization,2021.2.3,60.016533388284586,
,,,,,,,,nearLeft,-6.5,1,ch1Sound_localizationTask.wav,-6.5,"(857, 878)","(-103,-202)",-95,-338,,,,,,,,,,,,,7,4,53,2,,,,,,,,,,,,,,,,,,,,,,,,,,,,,,,,,,,,,,,,1497.4803800629452,None,,,1500.496817136649,None,1.452910052910053,0.8655034201219678,1500.496817136649,None,,,,,,,1498.4803292518482,None,1498.6635574810207,1498.6803367049433,,,,,,,169,001,2024_Feb_27_1149,SpeechDraft1Carolyn_lessNoise_PlusLocalization,2021.2.3,60.016533388284586,
,,,,,,,,midRight,13.0,3,ch1Sound_localizationTask.wav,13.0,"(1142, 878)","(182, -202)",190,-338,,,,,,,,,,,,,7,5,54,5,,,,,,,,,,,,,,,,,,,,,,,,,,,,,,,,,,,,,,,,1501.3640435826965,None,,,1504.3800746137276,None,1.5820105820105819,0.9657859238795936,1504.3800746137276,None,,,,,,,1502.3637223397382,None,1502.5469928849488,1502.5635926979594,,,,,,,169,001,2024_Feb_27_1149,SpeechDraft1Carolyn_lessNoise_PlusLocalization,2021.2.3,60.016533388284586,
,,,,,,,,nearRight,6.5,0,ch1Sound_localizationTask.wav,6.5,"(1047, 878)","(87, -202)",95,-338,,,,,,,,,,,,,7,6,55,4,,,,,,,,,,,,,,,,,,,,,,,,,,,,,,,,,,,,,,,,1505.3469372079708,None,,,1508.363528394606,None,1.5455026455026455,0.6494213701225817,1508.363528394606,None,,,,,,,1506.3469535578042,None,1506.5302926315926,1506.5470244525932,,,,,,,169,001,2024_Feb_27_1149,SpeechDraft1Carolyn_lessNoise_PlusLocalization,2021.2.3,60.016533388284586,
,,,,,,,,,,,,,,,,,,,,,,,,,,,,,,,,,,,,,,,,,,,,,,,,,,,,,,,,,,,,,,,,,,,,,,,,,,,,,,,,,,,,,,,,,,,,1509.0138175268658,None,c,54.168156642932445,1509.997055057902,None,169,001,2024_Feb_27_1149,SpeechDraft1Carolyn_lessNoise_PlusLocalization,2021.2.3,60.016533388284586,
