Audio_Only_Files,Video_Files,Original_Word_List,noiseLevelCode,conditionCodes,noiseLevelFile1,noiseLevelFile2,InstrTextVar,practiceTrials.thisRepN,practiceTrials.thisTrialN,practiceTrials.thisN,practiceTrials.thisIndex,trials.thisRepN,trials.thisTrialN,trials.thisN,trials.thisIndex,letsGoAlready.keys,letsGoAlready.rt,letsGoAlready.started,letsGoAlready.stopped,text_2.started,text_2.stopped,text_3.started,text_3.stopped,key_resp_2.keys,key_resp_2.rt,key_resp_2.started,key_resp_2.stopped,text_5.started,text_5.stopped,fixCross.started,fixCross.stopped,fixCross2.started,fixCross2.stopped,answerPrompt.started,answerPrompt.stopped,getAnswer.text,getAnswer.started,getAnswer.stopped,goToNext.keys,goToNext.rt,goToNext.started,goToNext.stopped,stretchBreakTxrt.started,stretchBreakTxrt.stopped,key_resp_3.keys,key_resp_3.rt,key_resp_3.started,key_resp_3.stopped,participant,session,date,expName,psychopyVersion,frameRate,
,,,,,,,,,,,,,,,,space,1.3443344539846294,9.696255898976233,None,,,,,,,,,,,,,,,,,,,,,,,,,,,,,,16,001,2023_Feb_13_1608,SpeechDraft1Carolyn_lessNoise,2021.2.3,59.95386861564521,
,,,,,,,,,,,,,,,,,,,,9.696255898976233,None,11.063261807023082,None,space,0.5380602800287306,11.24662010197062,None,,,,,,,,,,,,,,,,,,,,,,16,001,2023_Feb_13_1608,SpeechDraft1Carolyn_lessNoise,2021.2.3,59.95386861564521,
ash.wav,ash.mpg,ash,1,A,Pink_Noise_1_1.wav,Pink_Noise_1_2.wav,"This is an example of an

AUDIO trial",0,0,0,0,,,,,,,,,,,,,,,,,11.846389074984472,None,12.829639389005024,None,14.92960434401175,None,16.313308870012406,None,ash,16.313308870012406,None,return,19.108242849993985,16.396306986978743,None,,,,,,,16,001,2023_Feb_13_1608,SpeechDraft1Carolyn_lessNoise,2021.2.3,59.95386861564521,
ash.wav,ash.mpg,ash,1,AV,Pink_Noise_1_1.wav,Pink_Noise_1_2.wav,"This is an example of an

AUDIO + VIDEO  trial",0,1,1,1,,,,,,,,,,,,,,,,,35.54608076700242,None,36.54631311801495,None,38.04637170600472,None,39.4296734710224,None,"ash
",39.4296734710224,None,return,2.7355271900305524,39.51303374697454,None,,,,,,,16,001,2023_Feb_13_1608,SpeechDraft1Carolyn_lessNoise,2021.2.3,59.95386861564521,
,,,,,,,,,,,,,,,,,,,,,,,,,,,,,,,,,,,,,,,,,,,42.295984201016836,None,space,5.8008725559921,42.47969131398713,None,16,001,2023_Feb_13_1608,SpeechDraft1Carolyn_lessNoise,2021.2.3,59.95386861564521,
cheer.wav,cheer.mpg,cheer,5,A,Pink_Noise_5_1.wav,Pink_Noise_5_2.wav,,,,,,0,0,0,50,,,,,,,,,,,,,,,48.34607792599127,None,49.82976263802266,None,51.21300078602508,None,"cheat
",51.21300078602508,None,return,5.536198910034727,51.2963510369882,None,,,,,,,16,001,2023_Feb_13_1608,SpeechDraft1Carolyn_lessNoise,2021.2.3,59.95386861564521,
bass.wav,bass.mpg,bass,1,AV,Pink_Noise_1_1.wav,Pink_Noise_1_2.wav,,,,,,0,1,1,103,,,,,,,,,,,,,,,56.86311306501739,None,58.363202987995464,None,59.74635094299447,None,base,59.74635094299447,None,return,2.810851886984892,59.82970144296996,None,,,,,,,16,001,2023_Feb_13_1608,SpeechDraft1Carolyn_lessNoise,2021.2.3,59.95386861564521,
cleft.wav,cleft.mpg,cleft,5,AV,Pink_Noise_5_1.wav,Pink_Noise_5_2.wav,,,,,,0,2,2,105,,,,,,,,,,,,,,,62.663035375007894,None,64.16298638400622,None,65.54642239701934,None,laugh,65.54642239701934,None,return,3.290837566019036,65.62971314397873,None,,,,,,,16,001,2023_Feb_13_1608,SpeechDraft1Carolyn_lessNoise,2021.2.3,59.95386861564521,
gulf.wav,gulf.mpg,gulf,1,A,Pink_Noise_1_1.wav,Pink_Noise_1_2.wav,,,,,,0,3,3,12,,,,,,,,,,,,,,,68.94639062602073,None,70.44628017197829,None,71.82972776098177,None,golf,71.82972776098177,None,return,1.8236081799841486,71.91306545800762,None,,,,,,,16,001,2023_Feb_13_1608,SpeechDraft1Carolyn_lessNoise,2021.2.3,59.95386861564521,
frog.wav,frog.mpg,frog,2,AV,Pink_Noise_2_1.wav,Pink_Noise_2_2.wav,,,,,,0,4,4,95,,,,,,,,,,,,,,,73.76302046602359,None,75.26451566297328,None,76.64632335701026,None,frog,76.64632335701026,None,return,2.5268064760020934,76.72974778997013,None,,,,,,,16,001,2023_Feb_13_1608,SpeechDraft1Carolyn_lessNoise,2021.2.3,59.95386861564521,
drain.wav,drain.mpg,drain,5,AV,Pink_Noise_5_1.wav,Pink_Noise_5_2.wav,,,,,,0,5,5,87,,,,,,,,,,,,,,,79.27976070600562,None,80.77957301802235,None,82.16314375097863,None,strain,82.16314375097863,None,return,5.482207829016261,82.24647768697469,None,,,,,,,16,001,2023_Feb_13_1608,SpeechDraft1Carolyn_lessNoise,2021.2.3,59.95386861564521,
read.wav,read.mpg,read,2,A,Pink_Noise_2_1.wav,Pink_Noise_2_2.wav,,,,,,0,6,6,3,,,,,,,,,,,,,,,87.74645372899249,None,89.26303178502712,None,90.629737448995,None,read,90.629737448995,None,return,1.8475082269869745,90.71307456999784,None,,,,,,,16,001,2023_Feb_13_1608,SpeechDraft1Carolyn_lessNoise,2021.2.3,59.95386861564521,
bell.wav,bell.mpg,bell,2,AV,Pink_Noise_2_1.wav,Pink_Noise_2_2.wav,,,,,,0,7,7,88,,,,,,,,,,,,,,,92.57994812901597,None,94.07981419202406,None,95.46311161498306,None,bell,95.46311161498306,None,return,1.5581266470253468,95.5464664750034,None,,,,,,,16,001,2023_Feb_13_1608,SpeechDraft1Carolyn_lessNoise,2021.2.3,59.95386861564521,
cash.wav,cash.mpg,cash,2,A,Pink_Noise_2_1.wav,Pink_Noise_2_2.wav,,,,,,0,8,8,19,,,,,,,,,,,,,,,97.12974177498836,None,98.62956404400757,None,100.01308202598011,None,"cash
",100.01308202598011,None,return,2.368092657008674,100.0964704210055,None,,,,,,,16,001,2023_Feb_13_1608,SpeechDraft1Carolyn_lessNoise,2021.2.3,59.95386861564521,
druid.wav,druid.mpg,druid,1,AV,Pink_Noise_1_1.wav,Pink_Noise_1_2.wav,,,,,,0,9,9,65,,,,,,,,,,,,,,,102.49645466398215,None,103.99651374696987,None,105.37989768700209,None,druid,105.37989768700209,None,return,17.145406486000866,105.46315557498019,None,,,,,,,16,001,2023_Feb_13_1608,SpeechDraft1Carolyn_lessNoise,2021.2.3,59.95386861564521,
axe.wav,axe.mpg,axe,4,AV,Pink_Noise_4_1.wav,Pink_Noise_4_2.wav,,,,,,0,10,10,94,,,,,,,,,,,,,,,122.62985278200358,None,124.12972221098607,None,125.51309588301228,None,ask,125.51309588301228,None,return,3.060130167985335,125.59642692899797,None,,,,,,,16,001,2023_Feb_13_1608,SpeechDraft1Carolyn_lessNoise,2021.2.3,59.95386861564521,
bride.wav,bride.mpg,bride,5,A,Pink_Noise_5_1.wav,Pink_Noise_5_2.wav,,,,,,0,11,11,48,,,,,,,,,,,,,,,128.67983478901442,None,130.17981303099077,None,131.56318006198853,None,frog,131.56318006198853,None,return,2.082013060047757,131.64662635599962,None,,,,,,,16,001,2023_Feb_13_1608,SpeechDraft1Carolyn_lessNoise,2021.2.3,59.95386861564521,
cop.wav,cop.mpg,cop,4,A,Pink_Noise_4_1.wav,Pink_Noise_4_2.wav,,,,,,0,12,12,39,,,,,,,,,,,,,,,133.74648332200013,None,135.24635214102454,None,136.6298408600269,None,"cost
",136.6298408600269,None,return,1.9193991460488178,136.713169138995,None,,,,,,,16,001,2023_Feb_13_1608,SpeechDraft1Carolyn_lessNoise,2021.2.3,59.95386861564521,
bribe.wav,bribe.mpg,bribe,2,AV,Pink_Noise_2_1.wav,Pink_Noise_2_2.wav,,,,,,0,13,13,70,,,,,,,,,,,,,,,138.6631841440103,None,140.16296681400854,None,141.54645412001992,None,bribe,141.54645412001992,None,return,2.162643594958354,141.6299106439692,None,,,,,,,16,001,2023_Feb_13_1608,SpeechDraft1Carolyn_lessNoise,2021.2.3,59.95386861564521,
blast.wav,blast.mpg,blast,3,A,Pink_Noise_3_1.wav,Pink_Noise_3_2.wav,,,,,,0,14,14,18,,,,,,,,,,,,,,,143.81316044100095,None,145.31299473397667,None,146.69648507301463,None,"last
",146.69648507301463,None,return,1.852716744004283,146.77984542096965,None,,,,,,,16,001,2023_Feb_13_1608,SpeechDraft1Carolyn_lessNoise,2021.2.3,59.95386861564521,
dish.wav,dish.mpg,dish,6,A,Pink_Noise_6_1.wav,Pink_Noise_6_2.wav,,,,,,0,15,15,6,,,,,,,,,,,,,,,148.66319190897048,None,150.16314985399367,None,151.54650716402102,None,bitch??,151.54650716402102,None,return,4.6907473700121045,151.62989927997114,None,,,,,,,16,001,2023_Feb_13_1608,SpeechDraft1Carolyn_lessNoise,2021.2.3,59.95386861564521,
flip.wav,flip.mpg,flip,6,AV,Pink_Noise_6_1.wav,Pink_Noise_6_2.wav,,,,,,0,16,16,107,,,,,,,,,,,,,,,156.3465476160054,None,157.846439519024,None,159.22981934598647,None,"flip
",159.22981934598647,None,return,2.967332106025424,159.31323087698547,None,,,,,,,16,001,2023_Feb_13_1608,SpeechDraft1Carolyn_lessNoise,2021.2.3,59.95386861564521,
flask.wav,flask.mpg,flask,4,AV,Pink_Noise_4_1.wav,Pink_Noise_4_2.wav,,,,,,0,17,17,111,,,,,,,,,,,,,,,162.31337852601428,None,163.81320929102367,None,165.19653300201753,None,fast,165.19653300201753,None,return,6.624612969986629,165.27993944397895,None,,,,,,,16,001,2023_Feb_13_1608,SpeechDraft1Carolyn_lessNoise,2021.2.3,59.95386861564521,
bold.wav,bold.mpg,bold,4,AV,Pink_Noise_4_1.wav,Pink_Noise_4_2.wav,,,,,,0,18,18,96,,,,,,,,,,,,,,,171.9299070109846,None,173.42978904297343,None,174.81322592502693,None,bold,174.81322592502693,None,return,3.1600636430084705,174.8964909070055,None,,,,,,,16,001,2023_Feb_13_1608,SpeechDraft1Carolyn_lessNoise,2021.2.3,59.95386861564521,
quest.wav,quest.mpg,quest,6,A,Pink_Noise_6_1.wav,Pink_Noise_6_2.wav,,,,,,0,19,19,2,,,,,,,,,,,,,,,178.0798967059818,None,179.57983315299498,None,180.96341573400423,None,next,180.96341573400423,None,return,2.753982830035966,181.04657094698632,None,,,,,,,16,001,2023_Feb_13_1608,SpeechDraft1Carolyn_lessNoise,2021.2.3,59.95386861564521,
three.wav,three.mpg,three,3,AV,Pink_Noise_3_1.wav,Pink_Noise_3_2.wav,,,,,,0,20,20,114,,,,,,,,,,,,,,,183.82996356900549,None,185.32974100101274,None,186.71321130299475,None,three,186.71321130299475,None,return,2.3720373289543204,186.79659989097854,None,,,,,,,16,001,2023_Feb_13_1608,SpeechDraft1Carolyn_lessNoise,2021.2.3,59.95386861564521,
grin.wav,grin.mpg,grin,1,A,Pink_Noise_1_1.wav,Pink_Noise_1_2.wav,,,,,,0,21,21,44,,,,,,,,,,,,,,,189.1966396520147,None,190.69715791899944,None,192.08006071101408,None,grin,192.08006071101408,None,return,1.525285746960435,192.16326306102565,None,,,,,,,16,001,2023_Feb_13_1608,SpeechDraft1Carolyn_lessNoise,2021.2.3,59.95386861564521,
broke.wav,broke.mpg,broke,5,AV,Pink_Noise_5_1.wav,Pink_Noise_5_2.wav,,,,,,0,22,22,99,,,,,,,,,,,,,,,193.71339453698602,None,195.21331651497167,None,196.5965404830058,None,bowl,196.5965404830058,None,return,4.280517014965881,196.6800771059934,None,,,,,,,16,001,2023_Feb_13_1608,SpeechDraft1Carolyn_lessNoise,2021.2.3,59.95386861564521,
gush.wav,gush.mpg,gush,4,A,Pink_Noise_4_1.wav,Pink_Noise_4_2.wav,,,,,,0,23,23,4,,,,,,,,,,,,,,,200.98002406198066,None,202.48009414598346,None,203.863381460018,None,gush,203.863381460018,None,return,1.9817645599832758,203.94687920302385,None,,,,,,,16,001,2023_Feb_13_1608,SpeechDraft1Carolyn_lessNoise,2021.2.3,59.95386861564521,
toast.wav,toast.mpg,toast,2,AV,Pink_Noise_2_1.wav,Pink_Noise_2_2.wav,,,,,,0,24,24,83,,,,,,,,,,,,,,,205.9465755749843,None,207.44638036598917,None,208.82998870697338,None,toast,208.82998870697338,None,return,2.063373865035828,208.9132936919923,None,,,,,,,16,001,2023_Feb_13_1608,SpeechDraft1Carolyn_lessNoise,2021.2.3,59.95386861564521,
bark.wav,bark.mpg,bark,2,A,Pink_Noise_2_1.wav,Pink_Noise_2_2.wav,,,,,,0,25,25,54,,,,,,,,,,,,,,,210.99664039199706,None,212.496639880992,None,213.88005927199265,None,ark,213.88005927199265,None,return,2.9093117089942098,213.96324594400357,None,,,,,,,16,001,2023_Feb_13_1608,SpeechDraft1Carolyn_lessNoise,2021.2.3,59.95386861564521,
chant.wav,chant.mpg,chant,3,A,Pink_Noise_3_1.wav,Pink_Noise_3_2.wav,,,,,,0,26,26,55,,,,,,,,,,,,,,,216.89661961700767,None,218.39644011901692,None,219.77991404599743,None,chant,219.77991404599743,None,return,2.009205879003275,219.86334375600563,None,,,,,,,16,001,2023_Feb_13_1608,SpeechDraft1Carolyn_lessNoise,2021.2.3,59.95386861564521,
curse.wav,curse.mpg,curse,3,AV,Pink_Noise_3_1.wav,Pink_Noise_3_2.wav,,,,,,0,27,27,106,,,,,,,,,,,,,,,221.89661851897836,None,223.39864438096993,None,224.7798636109801,None,curse,224.7798636109801,None,return,3.249317492998671,224.86334811599227,None,,,,,,,16,001,2023_Feb_13_1608,SpeechDraft1Carolyn_lessNoise,2021.2.3,59.95386861564521,
champ.wav,champ.mpg,champ,5,A,Pink_Noise_5_1.wav,Pink_Noise_5_2.wav,,,,,,0,28,28,24,,,,,,,,,,,,,,,228.12996961397585,None,229.62982959201327,None,231.0134163100156,None,child,231.0134163100156,None,return,1.83200036798371,231.0966470610001,None,,,,,,,16,001,2023_Feb_13_1608,SpeechDraft1Carolyn_lessNoise,2021.2.3,59.95386861564521,
floor.wav,floor.mpg,floor,4,A,Pink_Noise_4_1.wav,Pink_Noise_4_2.wav,,,,,,0,29,29,29,,,,,,,,,,,,,,,232.946680655994,None,234.44646414997987,None,235.83008954999968,None,ploy,235.83008954999968,None,return,1.8631859999732114,235.9134273789823,None,,,,,,,16,001,2023_Feb_13_1608,SpeechDraft1Carolyn_lessNoise,2021.2.3,59.95386861564521,
drab.wav,drab.mpg,drab,4,AV,Pink_Noise_4_1.wav,Pink_Noise_4_2.wav,,,,,,0,30,30,81,,,,,,,,,,,,,,,237.79667672899086,None,239.2978552679997,None,240.679994229984,None,drab,240.679994229984,None,return,2.1491062880377285,240.76352369697997,None,,,,,,,16,001,2023_Feb_13_1608,SpeechDraft1Carolyn_lessNoise,2021.2.3,59.95386861564521,
droop.wav,droop.mpg,droop,2,AV,Pink_Noise_2_1.wav,Pink_Noise_2_2.wav,,,,,,0,31,31,110,,,,,,,,,,,,,,,242.93001345801167,None,244.4297736340086,None,245.81329585798085,None,droop,245.81329585798085,None,return,1.8478706780006178,245.89672923501348,None,,,,,,,16,001,2023_Feb_13_1608,SpeechDraft1Carolyn_lessNoise,2021.2.3,59.95386861564521,
fright.wav,fright.mpg,fright,5,AV,Pink_Noise_5_1.wav,Pink_Noise_5_2.wav,,,,,,0,32,32,79,,,,,,,,,,,,,,,247.76333382801386,None,249.26330414501717,None,250.64672904397594,None,front,250.64672904397594,None,return,2.6466331129777245,250.73001767799724,None,,,,,,,16,001,2023_Feb_13_1608,SpeechDraft1Carolyn_lessNoise,2021.2.3,59.95386861564521,
dry.wav,dry.mpg,dry,2,AV,Pink_Noise_2_1.wav,Pink_Noise_2_2.wav,,,,,,0,33,33,91,,,,,,,,,,,,,,,253.39664104301482,None,254.8973044080194,None,256.2800192409777,None,dry,256.2800192409777,None,return,1.7492818500031717,256.3633742110105,None,,,,,,,16,001,2023_Feb_13_1608,SpeechDraft1Carolyn_lessNoise,2021.2.3,59.95386861564521,
shut.wav,shut.mpg,shut,3,A,Pink_Noise_3_1.wav,Pink_Noise_3_2.wav,,,,,,0,34,34,36,,,,,,,,,,,,,,,258.130047062994,None,259.6298169619986,None,261.0134401770192,None,shut,261.0134401770192,None,return,2.4558717029867694,261.09681480098516,None,,,,,,,16,001,2023_Feb_13_1608,SpeechDraft1Carolyn_lessNoise,2021.2.3,59.95386861564521,
boil.wav,boil.mpg,boil,4,A,Pink_Noise_4_1.wav,Pink_Noise_4_2.wav,,,,,,0,35,35,47,,,,,,,,,,,,,,,263.58005843102,None,265.0810942989774,None,266.4634045640123,None,"square
",266.4634045640123,None,return,2.7018563320161775,266.54670606099535,None,,,,,,,16,001,2023_Feb_13_1608,SpeechDraft1Carolyn_lessNoise,2021.2.3,59.95386861564521,
bleed.wav,bleed.mpg,bleed,1,AV,Pink_Noise_1_1.wav,Pink_Noise_1_2.wav,,,,,,0,36,36,101,,,,,,,,,,,,,,,269.28001077100635,None,270.7800757450168,None,272.16329327900894,None,"bleed
",272.16329327900894,None,return,1.8178789369994774,272.24670886801323,None,,,,,,,16,001,2023_Feb_13_1608,SpeechDraft1Carolyn_lessNoise,2021.2.3,59.95386861564521,
gown.wav,gown.mpg,gown,1,AV,Pink_Noise_1_1.wav,Pink_Noise_1_2.wav,,,,,,0,37,37,98,,,,,,,,,,,,,,,274.0968026799965,None,275.59657371399226,None,276.9801695210044,None,gown,276.9801695210044,None,return,2.529161885031499,277.06341729999986,None,,,,,,,16,001,2023_Feb_13_1608,SpeechDraft1Carolyn_lessNoise,2021.2.3,59.95386861564521,
fun.wav,fun.mpg,fun,6,AV,Pink_Noise_6_1.wav,Pink_Noise_6_2.wav,,,,,,0,38,38,75,,,,,,,,,,,,,,,279.6297237239778,None,281.1297611200134,None,282.5133718000143,None,fine,282.5133718000143,None,return,4.6919165719882585,282.59668509400217,None,,,,,,,16,001,2023_Feb_13_1608,SpeechDraft1Carolyn_lessNoise,2021.2.3,59.95386861564521,
base.wav,base.mpg,base,4,A,Pink_Noise_4_1.wav,Pink_Noise_4_2.wav,,,,,,0,39,39,37,,,,,,,,,,,,,,,287.3134248490096,None,288.8133199539734,None,290.19686099200044,None,thinks,290.19686099200044,None,return,6.792374684009701,290.2801740039722,None,,,,,,,16,001,2023_Feb_13_1608,SpeechDraft1Carolyn_lessNoise,2021.2.3,59.95386861564521,
cross.wav,cross.mpg,cross,1,AV,Pink_Noise_1_1.wav,Pink_Noise_1_2.wav,,,,,,0,40,40,64,,,,,,,,,,,,,,,297.0967467770097,None,298.5974202370271,None,299.98007975000655,None,cross,299.98007975000655,None,return,2.857216859003529,300.0634243739769,None,,,,,,,16,001,2023_Feb_13_1608,SpeechDraft1Carolyn_lessNoise,2021.2.3,59.95386861564521,
budge.wav,budge.mpg,budge,2,A,Pink_Noise_2_1.wav,Pink_Noise_2_2.wav,,,,,,0,41,41,46,,,,,,,,,,,,,,,302.94681669102283,None,304.44657358701807,None,305.8301083080005,None,"budge
",305.8301083080005,None,return,1.5190675689955242,305.9134956949856,None,,,,,,,16,001,2023_Feb_13_1608,SpeechDraft1Carolyn_lessNoise,2021.2.3,59.95386861564521,
flake.wav,flake.mpg,flake,6,A,Pink_Noise_6_1.wav,Pink_Noise_6_2.wav,,,,,,0,42,42,25,,,,,,,,,,,,,,,307.463487748988,None,308.96341480500996,None,310.34686388797127,None,switch,310.34686388797127,None,return,2.4665125170140527,310.43010133598,None,,,,,,,16,001,2023_Feb_13_1608,SpeechDraft1Carolyn_lessNoise,2021.2.3,59.95386861564521,
clue.wav,clue.mpg,clue,2,AV,Pink_Noise_2_1.wav,Pink_Noise_2_2.wav,,,,,,0,43,43,85,,,,,,,,,,,,,,,312.9134225830203,None,314.4299570400035,None,315.796701558982,None,clue,315.796701558982,None,return,1.4405442300485447,315.8801385789993,None,,,,,,,16,001,2023_Feb_13_1608,SpeechDraft1Carolyn_lessNoise,2021.2.3,59.95386861564521,
dream.wav,dream.mpg,dream,6,AV,Pink_Noise_6_1.wav,Pink_Noise_6_2.wav,,,,,,0,44,44,90,,,,,,,,,,,,,,,317.3468012730009,None,318.8466422689962,None,320.23013294802513,None,dream,320.23013294802513,None,return,2.598992366984021,320.3136338259792,None,,,,,,,16,001,2023_Feb_13_1608,SpeechDraft1Carolyn_lessNoise,2021.2.3,59.95386861564521,
clean.wav,clean.mpg,clean,4,AV,Pink_Noise_4_1.wav,Pink_Noise_4_2.wav,,,,,,0,45,45,89,,,,,,,,,,,,,,,322.93020591599634,None,324.4310271330178,None,325.8135011540144,None,"clear
",325.8135011540144,None,return,5.735734855988994,325.89681806101,None,,,,,,,16,001,2023_Feb_13_1608,SpeechDraft1Carolyn_lessNoise,2021.2.3,59.95386861564521,
crypt.wav,crypt.mpg,crypt,3,AV,Pink_Noise_3_1.wav,Pink_Noise_3_2.wav,,,,,,0,46,46,60,,,,,,,,,,,,,,,331.6634801629698,None,333.1632406450226,None,334.5467935290071,None,crypt,334.5467935290071,None,return,5.858395214017946,334.63016031699954,None,,,,,,,16,001,2023_Feb_13_1608,SpeechDraft1Carolyn_lessNoise,2021.2.3,59.95386861564521,
fist.wav,fist.mpg,fist,3,AV,Pink_Noise_3_1.wav,Pink_Noise_3_2.wav,,,,,,0,47,47,86,,,,,,,,,,,,,,,340.5135070499964,None,342.0471610989771,None,343.41369707597187,None,fist,343.41369707597187,None,return,2.6077560030389577,343.49683472700417,None,,,,,,,16,001,2023_Feb_13_1608,SpeechDraft1Carolyn_lessNoise,2021.2.3,59.95386861564521,
grill.wav,grill.mpg,grill,6,AV,Pink_Noise_6_1.wav,Pink_Noise_6_2.wav,,,,,,0,48,48,69,,,,,,,,,,,,,,,346.1302042659954,None,347.63096419197973,None,349.01348370697815,None,with,349.01348370697815,None,return,8.89569215895608,349.0968669069698,None,,,,,,,16,001,2023_Feb_13_1608,SpeechDraft1Carolyn_lessNoise,2021.2.3,59.95386861564521,
bread.wav,bread.mpg,bread,4,AV,Pink_Noise_4_1.wav,Pink_Noise_4_2.wav,,,,,,0,49,49,104,,,,,,,,,,,,,,,358.01350018102676,None,359.51323849201435,None,360.8967594510177,None,spread,360.8967594510177,None,return,2.3963594179949723,360.9802377980086,None,,,,,,,16,001,2023_Feb_13_1608,SpeechDraft1Carolyn_lessNoise,2021.2.3,59.95386861564521,
edge.wav,edge.mpg,edge,4,AV,Pink_Noise_4_1.wav,Pink_Noise_4_2.wav,,,,,,0,50,50,78,,,,,,,,,,,,,,,363.3969453530153,None,364.89681821200065,None,366.2801960129873,None,edge,366.2801960129873,None,return,1.765042804996483,366.36361574201146,None,,,,,,,16,001,2023_Feb_13_1608,SpeechDraft1Carolyn_lessNoise,2021.2.3,59.95386861564521,
cap.wav,cap.mpg,cap,5,AV,Pink_Noise_5_1.wav,Pink_Noise_5_2.wav,,,,,,0,51,51,93,,,,,,,,,,,,,,,368.1470365150017,None,369.6468203110271,None,371.03023056697566,None,cap,371.03023056697566,None,return,1.5749993540230207,371.1135579600232,None,,,,,,,16,001,2023_Feb_13_1608,SpeechDraft1Carolyn_lessNoise,2021.2.3,59.95386861564521,
fix.wav,fix.mpg,fix,1,A,Pink_Noise_1_1.wav,Pink_Noise_1_2.wav,,,,,,0,52,52,35,,,,,,,,,,,,,,,372.7134914469789,None,374.21424465597374,None,375.59694298997056,None,"fix
",375.59694298997056,None,return,1.5843247309676372,375.6802320749848,None,,,,,,,16,001,2023_Feb_13_1608,SpeechDraft1Carolyn_lessNoise,2021.2.3,59.95386861564521,
cab.wav,cab.mpg,cab,1,AV,Pink_Noise_1_1.wav,Pink_Noise_1_2.wav,,,,,,0,53,53,119,,,,,,,,,,,,,,,377.2969294739887,None,378.79670550097944,None,380.18012981000356,None,cab,380.18012981000356,None,return,1.3048027589684352,380.2637501549907,None,,,,,,,16,001,2023_Feb_13_1608,SpeechDraft1Carolyn_lessNoise,2021.2.3,59.95386861564521,
crop.wav,crop.mpg,crop,6,A,Pink_Noise_6_1.wav,Pink_Noise_6_2.wav,,,,,,0,54,54,5,,,,,,,,,,,,,,,381.59700489998795,None,383.0984774599783,None,384.48026195098646,None,cast,384.48026195098646,None,return,1.5409593890071847,384.5636946950108,None,,,,,,,16,001,2023_Feb_13_1608,SpeechDraft1Carolyn_lessNoise,2021.2.3,59.95386861564521,
ton.wav,ton.mpg,ton,6,AV,Pink_Noise_6_1.wav,Pink_Noise_6_2.wav,,,,,,0,55,55,115,,,,,,,,,,,,,,,386.1302009730134,None,387.6300792939728,None,389.01361615397036,None,knock,389.01361615397036,None,return,1.9997670679586008,389.0968837420223,None,,,,,,,16,001,2023_Feb_13_1608,SpeechDraft1Carolyn_lessNoise,2021.2.3,59.95386861564521,
crack.wav,crack.mpg,crack,5,AV,Pink_Noise_5_1.wav,Pink_Noise_5_2.wav,,,,,,0,56,56,97,,,,,,,,,,,,,,,391.11367370799417,None,392.61349549301667,None,393.99691813997924,None,crack,393.99691813997924,None,return,3.016407857008744,394.0802542279707,None,,,,,,,16,001,2023_Feb_13_1608,SpeechDraft1Carolyn_lessNoise,2021.2.3,59.95386861564521,
dope.wav,dope.mpg,dope,2,A,Pink_Noise_2_1.wav,Pink_Noise_2_2.wav,,,,,,0,57,57,43,,,,,,,,,,,,,,,397.11363511899253,None,398.6145575270057,None,399.9969493820099,None,"dope
",399.9969493820099,None,return,1.5843217660440132,400.08023800799856,None,,,,,,,16,001,2023_Feb_13_1608,SpeechDraft1Carolyn_lessNoise,2021.2.3,59.95386861564521,
bye.wav,bye.mpg,bye,2,A,Pink_Noise_2_1.wav,Pink_Noise_2_2.wav,,,,,,0,58,58,58,,,,,,,,,,,,,,,401.69692990899784,None,403.1983100899961,None,404.5802187540103,None,buy,404.5802187540103,None,return,3.873005978006404,404.6636402630247,None,,,,,,,16,001,2023_Feb_13_1608,SpeechDraft1Carolyn_lessNoise,2021.2.3,59.95386861564521,
brake.wav,brake.mpg,brake,1,A,Pink_Noise_1_1.wav,Pink_Noise_1_2.wav,,,,,,0,59,59,59,,,,,,,,,,,,,,,408.5636074580252,None,410.06337582098786,None,411.44866540899966,None,break,411.44866540899966,None,return,1.3583275079727173,411.5302123550209,None,,,,,,,16,001,2023_Feb_13_1608,SpeechDraft1Carolyn_lessNoise,2021.2.3,59.95386861564521,
paid.wav,paid.mpg,paid,3,A,Pink_Noise_3_1.wav,Pink_Noise_3_2.wav,,,,,,0,60,60,0,,,,,,,,,,,,,,,412.91362982499413,None,414.41340414300794,None,415.79701499297516,None,pay,415.79701499297516,None,return,1.424313617986627,415.8802989399992,None,,,,,,,16,001,2023_Feb_13_1608,SpeechDraft1Carolyn_lessNoise,2021.2.3,59.95386861564521,
foul.wav,foul.mpg,foul,2,A,Pink_Noise_2_1.wav,Pink_Noise_2_2.wav,,,,,,0,61,61,52,,,,,,,,,,,,,,,417.3304445599788,None,418.8304029949941,None,420.21365990198683,None,foul,420.21365990198683,None,return,3.0475758539978415,420.2970679880236,None,,,,,,,16,001,2023_Feb_13_1608,SpeechDraft1Carolyn_lessNoise,2021.2.3,59.95386861564521,
gaze.wav,gaze.mpg,gaze,3,A,Pink_Noise_3_1.wav,Pink_Noise_3_2.wav,,,,,,0,62,62,10,,,,,,,,,,,,,,,423.3636279659695,None,424.8634945550002,None,426.2469623979996,None,gaze,426.2469623979996,None,return,1.6622389080002904,426.33032014401397,None,,,,,,,16,001,2023_Feb_13_1608,SpeechDraft1Carolyn_lessNoise,2021.2.3,59.95386861564521,
crown.wav,crown.mpg,crown,2,AV,Pink_Noise_2_1.wav,Pink_Noise_2_2.wav,,,,,,0,63,63,92,,,,,,,,,,,,,,,428.0136258249986,None,429.5133832839783,None,430.8969814570155,None,crowd,430.8969814570155,None,return,1.6122050560079515,430.9803579329746,None,,,,,,,16,001,2023_Feb_13_1608,SpeechDraft1Carolyn_lessNoise,2021.2.3,59.95386861564521,
creep.wav,creep.mpg,creep,3,AV,Pink_Noise_3_1.wav,Pink_Noise_3_2.wav,,,,,,0,64,64,108,,,,,,,,,,,,,,,432.61360190302366,None,434.1152960159816,None,435.4970270509948,None,creep,435.4970270509948,None,return,1.9483443530043587,435.58028667100007,None,,,,,,,16,001,2023_Feb_13_1608,SpeechDraft1Carolyn_lessNoise,2021.2.3,59.95386861564521,
cheat.wav,cheat.mpg,cheat,3,AV,Pink_Noise_3_1.wav,Pink_Noise_3_2.wav,,,,,,0,65,65,68,,,,,,,,,,,,,,,437.5470378099708,None,439.04689388599945,None,440.43028065399267,None,"cheat
",440.43028065399267,None,return,1.8868145560263656,440.51373095298186,None,,,,,,,16,001,2023_Feb_13_1608,SpeechDraft1Carolyn_lessNoise,2021.2.3,59.95386861564521,
blood.wav,blood.mpg,blood,4,AV,Pink_Noise_4_1.wav,Pink_Noise_4_2.wav,,,,,,0,66,66,82,,,,,,,,,,,,,,,442.4303550280165,None,443.9468790339888,None,445.31363601697376,None,"blood
",445.31363601697376,None,return,3.067548668012023,445.39700913400156,None,,,,,,,16,001,2023_Feb_13_1608,SpeechDraft1Carolyn_lessNoise,2021.2.3,59.95386861564521,
mass.wav,mass.mpg,mass,3,AV,Pink_Noise_3_1.wav,Pink_Noise_3_2.wav,,,,,,0,67,67,63,,,,,,,,,,,,,,,448.4969758599764,None,449.99695128400344,None,451.3803230350022,None,mask,451.3803230350022,None,return,4.273095284996089,451.46365147002507,None,,,,,,,16,001,2023_Feb_13_1608,SpeechDraft1Carolyn_lessNoise,2021.2.3,59.95386861564521,
nine.wav,nine.mpg,nine,2,AV,Pink_Noise_2_1.wav,Pink_Noise_2_2.wav,,,,,,0,68,68,116,,,,,,,,,,,,,,,455.7638496350264,None,457.26336682599504,None,458.6469694150146,None,nine,458.6469694150146,None,return,3.3661978259915486,458.7304272549809,None,,,,,,,16,001,2023_Feb_13_1608,SpeechDraft1Carolyn_lessNoise,2021.2.3,59.95386861564521,
gloom.wav,gloom.mpg,gloom,1,A,Pink_Noise_1_1.wav,Pink_Noise_1_2.wav,,,,,,0,69,69,11,,,,,,,,,,,,,,,462.11369811202167,None,463.6150081109954,None,464.9970476339804,None,glue,464.9970476339804,None,return,1.640293087984901,465.0803699209937,None,,,,,,,16,001,2023_Feb_13_1608,SpeechDraft1Carolyn_lessNoise,2021.2.3,59.95386861564521,
box.wav,box.mpg,box,6,AV,Pink_Noise_6_1.wav,Pink_Noise_6_2.wav,,,,,,0,70,70,71,,,,,,,,,,,,,,,466.7470840929891,None,468.24693513300736,None,469.6302864609752,None,box,469.6302864609752,None,return,8.942829795007128,469.7137191480142,None,,,,,,,16,001,2023_Feb_13_1608,SpeechDraft1Carolyn_lessNoise,2021.2.3,59.95386861564521,
row.wav,row.mpg,row,6,AV,Pink_Noise_6_1.wav,Pink_Noise_6_2.wav,,,,,,0,71,71,84,,,,,,,,,,,,,,,478.68046497600153,None,480.18197323201457,None,481.56387206399813,None,woe,481.56387206399813,None,return,3.5775110790273175,481.6470884120208,None,,,,,,,16,001,2023_Feb_13_1608,SpeechDraft1Carolyn_lessNoise,2021.2.3,59.95386861564521,
foil.wav,foil.mpg,foil,5,A,Pink_Noise_5_1.wav,Pink_Noise_5_2.wav,,,,,,0,72,72,31,,,,,,,,,,,,,,,485.2470795540139,None,486.74714200000744,None,488.13040617801016,None,break,488.13040617801016,None,return,2.4829197369981557,488.21372724696994,None,,,,,,,16,001,2023_Feb_13_1608,SpeechDraft1Carolyn_lessNoise,2021.2.3,59.95386861564521,
cough.wav,cough.mpg,cough,6,A,Pink_Noise_6_1.wav,Pink_Noise_6_2.wav,,,,,,0,73,73,13,,,,,,,,,,,,,,,490.71378498896956,None,492.21374682697933,None,493.59709068597294,None,call,493.59709068597294,None,return,7.296240526018664,493.68036802700954,None,,,,,,,16,001,2023_Feb_13_1608,SpeechDraft1Carolyn_lessNoise,2021.2.3,59.95386861564521,
cure.wav,cure.mpg,cure,5,A,Pink_Noise_5_1.wav,Pink_Noise_5_2.wav,,,,,,0,74,74,41,,,,,,,,,,,,,,,500.9971082939883,None,502.5135530239786,None,503.88042562198825,None,stick,503.88042562198825,None,return,3.7968799629597925,503.96376714902,None,,,,,,,16,001,2023_Feb_13_1608,SpeechDraft1Carolyn_lessNoise,2021.2.3,59.95386861564521,
cliff.wav,cliff.mpg,cliff,4,AV,Pink_Noise_4_1.wav,Pink_Noise_4_2.wav,,,,,,0,75,75,66,,,,,,,,,,,,,,,507.7804430149845,None,509.28046852798434,None,510.663718952972,None,cliff,510.663718952972,None,return,3.0294429680216126,510.7471090159961,None,,,,,,,16,001,2023_Feb_13_1608,SpeechDraft1Carolyn_lessNoise,2021.2.3,59.95386861564521,
chef.wav,chef.mpg,chef,6,A,Pink_Noise_6_1.wav,Pink_Noise_6_2.wav,,,,,,0,76,76,1,,,,,,,,,,,,,,,513.7971996359993,None,515.2970010149875,None,516.6803555740044,None,chest,516.6803555740044,None,return,2.5247633300023153,516.7637925730087,None,,,,,,,16,001,2023_Feb_13_1608,SpeechDraft1Carolyn_lessNoise,2021.2.3,59.95386861564521,
blur.wav,blur.mpg,blur,4,AV,Pink_Noise_4_1.wav,Pink_Noise_4_2.wav,,,,,,0,77,77,80,,,,,,,,,,,,,,,519.3138203109847,None,520.8301730860258,None,522.1972453949857,None,blurb,522.1972453949857,None,return,3.0561826699995436,522.2804598980001,None,,,,,,,16,001,2023_Feb_13_1608,SpeechDraft1Carolyn_lessNoise,2021.2.3,59.95386861564521,
flood.wav,flood.mpg,flood,6,AV,Pink_Noise_6_1.wav,Pink_Noise_6_2.wav,,,,,,0,78,78,73,,,,,,,,,,,,,,,525.3637557739858,None,526.8637774839881,None,528.2470614209888,None,"fine
",528.2470614209888,None,return,6.333982269978151,528.3305855880026,None,,,,,,,16,001,2023_Feb_13_1608,SpeechDraft1Carolyn_lessNoise,2021.2.3,59.95386861564521,
stain.wav,stain.mpg,stain,2,AV,Pink_Noise_2_1.wav,Pink_Noise_2_2.wav,,,,,,0,79,79,74,,,,,,,,,,,,,,,534.6971425259835,None,536.2135643829824,None,537.5803756529931,None,stain,537.5803756529931,None,return,2.1206001039827242,537.6639680539956,None,,,,,,,16,001,2023_Feb_13_1608,SpeechDraft1Carolyn_lessNoise,2021.2.3,59.95386861564521,
batch.wav,batch.mpg,batch,1,AV,Pink_Noise_1_1.wav,Pink_Noise_1_2.wav,,,,,,0,80,80,61,,,,,,,,,,,,,,,539.813885585987,None,541.3159593499731,None,542.6971536889905,None,batch,542.6971536889905,None,return,3.316072924004402,542.7805504869903,None,,,,,,,16,001,2023_Feb_13_1608,SpeechDraft1Carolyn_lessNoise,2021.2.3,59.95386861564521,
bond.wav,bond.mpg,bond,5,AV,Pink_Noise_5_1.wav,Pink_Noise_5_2.wav,,,,,,0,81,81,77,,,,,,,,,,,,,,,546.1138862129883,None,547.6136339419754,None,548.9970669730101,None,bind,548.9970669730101,None,return,2.600049188011326,549.0805239729816,None,,,,,,,16,001,2023_Feb_13_1608,SpeechDraft1Carolyn_lessNoise,2021.2.3,59.95386861564521,
grant.wav,grant.mpg,grant,5,A,Pink_Noise_5_1.wav,Pink_Noise_5_2.wav,,,,,,0,82,82,20,,,,,,,,,,,,,,,551.6971078710048,None,553.2137371380231,None,554.5971973019768,None,great,554.5971973019768,None,return,2.5040242220275104,554.6805286810268,None,,,,,,,16,001,2023_Feb_13_1608,SpeechDraft1Carolyn_lessNoise,2021.2.3,59.95386861564521,
rid.wav,rid.mpg,rid,3,A,Pink_Noise_3_1.wav,Pink_Noise_3_2.wav,,,,,,0,83,83,57,,,,,,,,,,,,,,,557.2138609469985,None,558.7136259989929,None,560.097262152005,None,"grid
",560.097262152005,None,return,1.8680487529491074,560.1805189540028,None,,,,,,,16,001,2023_Feb_13_1608,SpeechDraft1Carolyn_lessNoise,2021.2.3,59.95386861564521,
brisk.wav,brisk.mpg,brisk,6,A,Pink_Noise_6_1.wav,Pink_Noise_6_2.wav,,,,,,0,84,84,8,,,,,,,,,,,,,,,562.0805273629958,None,563.5804102559923,None,564.9638542580069,None,crypt,564.9638542580069,None,return,3.841205399017781,565.047392537992,None,,,,,,,16,001,2023_Feb_13_1608,SpeechDraft1Carolyn_lessNoise,2021.2.3,59.95386861564521,
grunt.wav,grunt.mpg,grunt,5,AV,Pink_Noise_5_1.wav,Pink_Noise_5_2.wav,,,,,,0,85,85,62,,,,,,,,,,,,,,,568.9140612609917,None,570.4304387429729,None,571.8138462150237,None,"crud
",571.8138462150237,None,return,8.767376335978042,571.8971696710214,None,,,,,,,16,001,2023_Feb_13_1608,SpeechDraft1Carolyn_lessNoise,2021.2.3,59.95386861564521,
cramp.wav,cramp.mpg,cramp,2,A,Pink_Noise_2_1.wav,Pink_Noise_2_2.wav,,,,,,0,86,86,42,,,,,,,,,,,,,,,580.697176014015,None,582.2137030499871,None,583.5806182739907,None,cramp,583.5806182739907,None,return,1.904653256002348,583.6639087260119,None,,,,,,,16,001,2023_Feb_13_1608,SpeechDraft1Carolyn_lessNoise,2021.2.3,59.95386861564521,
thief.wav,thief.mpg,thief,4,A,Pink_Noise_4_1.wav,Pink_Noise_4_2.wav,,,,,,0,87,87,23,,,,,,,,,,,,,,,585.5986397509696,None,587.113675844972,None,588.4972791670007,None,"faith
",588.4972791670007,None,return,2.683902051008772,588.5806614980102,None,,,,,,,16,001,2023_Feb_13_1608,SpeechDraft1Carolyn_lessNoise,2021.2.3,59.95386861564521,
priest.wav,priest.mpg,priest,6,AV,Pink_Noise_6_1.wav,Pink_Noise_6_2.wav,,,,,,0,88,88,117,,,,,,,,,,,,,,,591.2971902280115,None,592.7985764240148,None,594.1805999159697,None,priest,594.1805999159697,None,return,2.4485550659592263,594.2640936489915,None,,,,,,,16,001,2023_Feb_13_1608,SpeechDraft1Carolyn_lessNoise,2021.2.3,59.95386861564521,
vest.wav,vest.mpg,vest,4,A,Pink_Noise_4_1.wav,Pink_Noise_4_2.wav,,,,,,0,89,89,53,,,,,,,,,,,,,,,596.7305936689954,None,598.2305541509995,None,599.6138889999711,None,fast,599.6138889999711,None,return,1.7993332769838162,599.6972710149712,None,,,,,,,16,001,2023_Feb_13_1608,SpeechDraft1Carolyn_lessNoise,2021.2.3,59.95386861564521,
bound.wav,bound.mpg,bound,5,A,Pink_Noise_5_1.wav,Pink_Noise_5_2.wav,,,,,,0,90,90,34,,,,,,,,,,,,,,,601.5139424279914,None,603.0138391429791,None,604.3972385419765,None,fowl,604.3972385419765,None,return,2.9919613790116273,604.480594832974,None,,,,,,,16,001,2023_Feb_13_1608,SpeechDraft1Carolyn_lessNoise,2021.2.3,59.95386861564521,
fad.wav,fad.mpg,fad,5,A,Pink_Noise_5_1.wav,Pink_Noise_5_2.wav,,,,,,0,91,91,45,,,,,,,,,,,,,,,607.4972134670243,None,608.9970497349859,None,610.3805917209829,None,"mind
",610.3805917209829,None,return,1.9685901820193976,610.4639613240142,None,,,,,,,16,001,2023_Feb_13_1608,SpeechDraft1Carolyn_lessNoise,2021.2.3,59.95386861564521,
wet.wav,wet.mpg,wet,3,A,Pink_Noise_3_1.wav,Pink_Noise_3_2.wav,,,,,,0,92,92,26,,,,,,,,,,,,,,,612.4641559019801,None,613.9803848820156,None,615.3640063430066,None,wet,615.3640063430066,None,return,1.1772799280006438,615.4472596059786,None,,,,,,,16,001,2023_Feb_13_1608,SpeechDraft1Carolyn_lessNoise,2021.2.3,59.95386861564521,
gate.wav,gate.mpg,gate,5,AV,Pink_Noise_5_1.wav,Pink_Noise_5_2.wav,,,,,,0,93,93,72,,,,,,,,,,,,,,,616.6474548120168,None,618.147376140987,None,619.5305095699732,None,gaze,619.5305095699732,None,return,1.9784393739537336,619.6141196899698,None,,,,,,,16,001,2023_Feb_13_1608,SpeechDraft1Carolyn_lessNoise,2021.2.3,59.95386861564521,
blob.wav,blob.mpg,blob,1,A,Pink_Noise_1_1.wav,Pink_Noise_1_2.wav,,,,,,0,94,94,15,,,,,,,,,,,,,,,621.6139359020162,None,623.1304051509942,None,624.4972733649774,None,blob,624.4972733649774,None,return,1.4279456890071742,624.580607765005,None,,,,,,,16,001,2023_Feb_13_1608,SpeechDraft1Carolyn_lessNoise,2021.2.3,59.95386861564521,
crude.wav,crude.mpg,crude,1,A,Pink_Noise_1_1.wav,Pink_Noise_1_2.wav,,,,,,0,95,95,27,,,,,,,,,,,,,,,626.030643888982,None,627.532550162985,None,628.9139989939868,None,crude,628.9139989939868,None,return,1.339081577025354,628.9975485519972,None,,,,,,,16,001,2023_Feb_13_1608,SpeechDraft1Carolyn_lessNoise,2021.2.3,59.95386861564521,
groom.wav,groom.mpg,groom,3,A,Pink_Noise_3_1.wav,Pink_Noise_3_2.wav,,,,,,0,96,96,17,,,,,,,,,,,,,,,630.3639617600129,None,631.8640660169767,None,633.247217822005,None,grift,633.247217822005,None,return,2.4938364580157213,633.330715426011,None,,,,,,,16,001,2023_Feb_13_1608,SpeechDraft1Carolyn_lessNoise,2021.2.3,59.95386861564521,
duct.wav,duct.mpg,duct,3,AV,Pink_Noise_3_1.wav,Pink_Noise_3_2.wav,,,,,,0,97,97,100,,,,,,,,,,,,,,,635.8473148330231,None,637.3472730659996,None,638.7307468230138,None,dot,638.7307468230138,None,return,2.5786097980453633,638.8139562170254,None,,,,,,,16,001,2023_Feb_13_1608,SpeechDraft1Carolyn_lessNoise,2021.2.3,59.95386861564521,
bun.wav,bun.mpg,bun,5,A,Pink_Noise_5_1.wav,Pink_Noise_5_2.wav,,,,,,0,98,98,9,,,,,,,,,,,,,,,641.4139210780268,None,642.9137934690225,None,644.2973214120138,None,front,644.2973214120138,None,return,2.115906489023473,644.380725784984,None,,,,,,,16,001,2023_Feb_13_1608,SpeechDraft1Carolyn_lessNoise,2021.2.3,59.95386861564521,
pike.wav,pike.mpg,pike,2,A,Pink_Noise_2_1.wav,Pink_Noise_2_2.wav,,,,,,0,99,99,16,,,,,,,,,,,,,,,646.5139515969786,None,648.0305317430175,None,649.4140007370152,None,hike,649.4140007370152,None,return,1.9432421390083618,649.4973258569953,None,,,,,,,16,001,2023_Feb_13_1608,SpeechDraft1Carolyn_lessNoise,2021.2.3,59.95386861564521,
blond.wav,blond.mpg,blond,1,A,Pink_Noise_1_1.wav,Pink_Noise_1_2.wav,,,,,,0,100,100,30,,,,,,,,,,,,,,,651.4642292109784,None,652.9804510800168,None,654.3640185329714,None,blond,654.3640185329714,None,return,5.481192163948435,654.4473785510054,None,,,,,,,16,001,2023_Feb_13_1608,SpeechDraft1Carolyn_lessNoise,2021.2.3,59.95386861564521,
fate.wav,fate.mpg,fate,1,AV,Pink_Noise_1_1.wav,Pink_Noise_1_2.wav,,,,,,0,101,101,118,,,,,,,,,,,,,,,659.9472563780146,None,661.4472264689975,None,662.8306650120066,None,fate,662.8306650120066,None,return,2.2224766580038704,662.9141588250059,None,,,,,,,16,001,2023_Feb_13_1608,SpeechDraft1Carolyn_lessNoise,2021.2.3,59.95386861564521,
grief.wav,grief.mpg,grief,3,A,Pink_Noise_3_1.wav,Pink_Noise_3_2.wav,,,,,,0,102,102,38,,,,,,,,,,,,,,,665.1640462499927,None,666.6637068060227,None,668.0473548339796,None,"grief
",668.0473548339796,None,return,1.9338094120030291,668.1307547420147,None,,,,,,,16,001,2023_Feb_13_1608,SpeechDraft1Carolyn_lessNoise,2021.2.3,59.95386861564521,
faith.wav,faith.mpg,faith,3,AV,Pink_Noise_3_1.wav,Pink_Noise_3_2.wav,,,,,,0,103,103,113,,,,,,,,,,,,,,,670.0973331109853,None,671.5990119460039,None,672.9807392120128,None,faith,672.9807392120128,None,return,2.4166117450222373,673.0640103699989,None,,,,,,,16,001,2023_Feb_13_1608,SpeechDraft1Carolyn_lessNoise,2021.2.3,59.95386861564521,
bay.wav,bay.mpg,bay,3,A,Pink_Noise_3_1.wav,Pink_Noise_3_2.wav,,,,,,0,104,104,7,,,,,,,,,,,,,,,675.4975617359742,None,677.013772803999,None,678.3806095140171,None,bang,678.3806095140171,None,return,1.488573552982416,678.4641597120208,None,,,,,,,16,001,2023_Feb_13_1608,SpeechDraft1Carolyn_lessNoise,2021.2.3,59.95386861564521,
guilt.wav,guilt.mpg,guilt,5,A,Pink_Noise_5_1.wav,Pink_Noise_5_2.wav,,,,,,0,105,105,56,,,,,,,,,,,,,,,679.9807074950077,None,681.4973236549995,None,682.8807024660055,None,"guilt
",682.8807024660055,None,return,2.252388651948422,682.964164473,None,,,,,,,16,001,2023_Feb_13_1608,SpeechDraft1Carolyn_lessNoise,2021.2.3,59.95386861564521,
crush.wav,crush.mpg,crush,5,AV,Pink_Noise_5_1.wav,Pink_Noise_5_2.wav,,,,,,0,106,106,102,,,,,,,,,,,,,,,685.2474478869699,None,686.7638254400226,None,688.1472945309943,None,"crush
",688.1472945309943,None,return,2.233869024028536,688.2306967600016,None,,,,,,,16,001,2023_Feb_13_1608,SpeechDraft1Carolyn_lessNoise,2021.2.3,59.95386861564521,
swayed.wav,swayed.mpg,swayed,6,A,Pink_Noise_6_1.wav,Pink_Noise_6_2.wav,,,,,,0,107,107,33,,,,,,,,,,,,,,,690.497349584999,None,691.9973513790173,None,693.380734189006,None,secure,693.380734189006,None,return,3.960510083998088,693.4640374549781,None,,,,,,,16,001,2023_Feb_13_1608,SpeechDraft1Carolyn_lessNoise,2021.2.3,59.95386861564521,
sue.wav,sue.mpg,sue,4,A,Pink_Noise_4_1.wav,Pink_Noise_4_2.wav,,,,,,0,108,108,32,,,,,,,,,,,,,,,697.4474281999865,None,698.9474243100267,None,700.3307407759712,None,soup,700.3307407759712,None,return,4.858476423018146,700.4141063700081,None,,,,,,,16,001,2023_Feb_13_1608,SpeechDraft1Carolyn_lessNoise,2021.2.3,59.95386861564521,
fit.wav,fit.mpg,fit,6,AV,Pink_Noise_6_1.wav,Pink_Noise_6_2.wav,,,,,,0,109,109,67,,,,,,,,,,,,,,,705.2975014399854,None,706.8137757030199,None,708.1974320340087,None,face,708.1974320340087,None,return,1.791832392977085,708.2807306899922,None,,,,,,,16,001,2023_Feb_13_1608,SpeechDraft1Carolyn_lessNoise,2021.2.3,59.95386861564521,
chore.wav,chore.mpg,chore,1,A,Pink_Noise_1_1.wav,Pink_Noise_1_2.wav,,,,,,0,110,110,14,,,,,,,,,,,,,,,710.0974658639752,None,711.6138564060093,None,712.9974877979839,None,chore,712.9974877979839,None,return,1.2878103929688223,713.0807408469846,None,,,,,,,16,001,2023_Feb_13_1608,SpeechDraft1Carolyn_lessNoise,2021.2.3,59.95386861564521,
duet.wav,duet.mpg,duet,6,A,Pink_Noise_6_1.wav,Pink_Noise_6_2.wav,,,,,,0,111,111,28,,,,,,,,,,,,,,,714.3974113009754,None,715.9138666890212,None,717.2807698909892,None,deluxe,717.2807698909892,None,return,5.2044197709765285,717.3641433769953,None,,,,,,,16,001,2023_Feb_13_1608,SpeechDraft1Carolyn_lessNoise,2021.2.3,59.95386861564521,
fox.wav,fox.mpg,fox,6,A,Pink_Noise_6_1.wav,Pink_Noise_6_2.wav,,,,,,0,112,112,49,,,,,,,,,,,,,,,722.59743544698,None,724.1140643419931,None,725.4808139160159,None,"size
",725.4808139160159,None,return,2.700465831963811,725.5640912589733,None,,,,,,,16,001,2023_Feb_13_1608,SpeechDraft1Carolyn_lessNoise,2021.2.3,59.95386861564521,
curl.wav,curl.mpg,curl,4,A,Pink_Noise_4_1.wav,Pink_Noise_4_2.wav,,,,,,0,113,113,40,,,,,,,,,,,,,,,728.2975863129832,None,729.7984416849795,None,731.1808805289911,None,cruel,731.1808805289911,None,return,2.05651610402856,731.264175535005,None,,,,,,,16,001,2023_Feb_13_1608,SpeechDraft1Carolyn_lessNoise,2021.2.3,59.95386861564521,
built.wav,built.mpg,built,4,A,Pink_Noise_4_1.wav,Pink_Noise_4_2.wav,,,,,,0,114,114,22,,,,,,,,,,,,,,,733.3475920520141,None,734.8639271319844,None,736.2475280290237,None,gui;t,736.2475280290237,None,return,5.149907141982112,736.3307232119842,None,,,,,,,16,001,2023_Feb_13_1608,SpeechDraft1Carolyn_lessNoise,2021.2.3,59.95386861564521,
four.wav,four.mpg,four,1,AV,Pink_Noise_1_1.wav,Pink_Noise_1_2.wav,,,,,,0,115,115,76,,,,,,,,,,,,,,,741.4978088309872,None,742.9979172369931,None,744.380859507015,None,"for
",744.380859507015,None,return,1.9843442140263505,744.4641927549965,None,,,,,,,16,001,2023_Feb_13_1608,SpeechDraft1Carolyn_lessNoise,2021.2.3,59.95386861564521,
bin.wav,bin.mpg,bin,3,AV,Pink_Noise_3_1.wav,Pink_Noise_3_2.wav,,,,,,0,116,116,109,,,,,,,,,,,,,,,746.4808444050141,None,747.9971344909864,None,749.3807517479872,None,bin,749.3807517479872,None,return,1.3924355760100298,749.4641141620232,None,,,,,,,16,001,2023_Feb_13_1608,SpeechDraft1Carolyn_lessNoise,2021.2.3,59.95386861564521,
your.wav,your.mpg,your,2,A,Pink_Noise_2_1.wav,Pink_Noise_2_2.wav,,,,,,0,117,117,21,,,,,,,,,,,,,,,750.8809123309911,None,752.3826835799846,None,753.7642102320096,None,your,753.7642102320096,None,return,1.2411705470294692,753.8474949019728,None,,,,,,,16,001,2023_Feb_13_1608,SpeechDraft1Carolyn_lessNoise,2021.2.3,59.95386861564521,
crook.wav,crook.mpg,crook,1,AV,Pink_Noise_1_1.wav,Pink_Noise_1_2.wav,,,,,,0,118,118,112,,,,,,,,,,,,,,,755.1141930830199,None,756.6307007300202,None,758.0141825660248,None,"srook
",758.0141825660248,None,return,1.550944251997862,758.0976550300256,None,,,,,,,16,001,2023_Feb_13_1608,SpeechDraft1Carolyn_lessNoise,2021.2.3,59.95386861564521,
buy.wav,buy.mpg,buy,1,A,Pink_Noise_1_1.wav,Pink_Noise_1_2.wav,,,,,,0,119,119,51,,,,,,,,,,,,,,,759.6810424230061,None,761.1819691159762,None,762.564195400977,None,buy,762.564195400977,None,return,1.4491482760058716,762.6475154280197,None,,,,,,,16,001,2023_Feb_13_1608,SpeechDraft1Carolyn_lessNoise,2021.2.3,59.95386861564521,
