Audio_Only_Files,Video_Files,Original_Word_List,noiseLevelCode,conditionCodes,noiseLevelFile1,noiseLevelFile2,InstrTextVar,targetSpeakerName,targetSpeakerEccen,targetSpkrChannel,targetSpkrSound,targetVisualDegrees,visStimLoc,visStimLoc2,visStimW,visStimH,practiceTrials.thisRepN,practiceTrials.thisTrialN,practiceTrials.thisN,practiceTrials.thisIndex,trials.thisRepN,trials.thisTrialN,trials.thisN,trials.thisIndex,audLocalLoop.thisRepN,audLocalLoop.thisTrialN,audLocalLoop.thisN,audLocalLoop.thisIndex,visualLocalLoop.thisRepN,visualLocalLoop.thisTrialN,visualLocalLoop.thisN,visualLocalLoop.thisIndex,letsGoAlready.keys,letsGoAlready.rt,letsGoAlready.started,letsGoAlready.stopped,text_2.started,text_2.stopped,text_3.started,text_3.stopped,key_resp_2.keys,key_resp_2.rt,key_resp_2.started,key_resp_2.stopped,text_5.started,text_5.stopped,fixCross.started,fixCross.stopped,fixCross2.started,fixCross2.stopped,answerPrompt.started,answerPrompt.stopped,getAnswer.text,getAnswer.started,getAnswer.stopped,goToNext.keys,goToNext.rt,goToNext.started,goToNext.stopped,stretchBreakTxrt.started,stretchBreakTxrt.stopped,key_resp_3.keys,key_resp_3.rt,key_resp_3.started,key_resp_3.stopped,letsGoLocal.keys,letsGoLocal.rt,letsGoLocal.started,letsGoLocal.stopped,text_4.started,text_4.stopped,prepFixTxt.started,prepFixTxt.stopped,prepFixTxt_2.started,prepFixTxt_2.stopped,respPromptLocal.started,respPromptLocal.stopped,slider.response,slider.rt,slider.started,slider.stopped,letsGoLocal_2.keys,letsGoLocal_2.rt,letsGoLocal_2.started,letsGoLocal_2.stopped,text_7.started,text_7.stopped,prepFixTxt_3.started,prepFixTxt_3.stopped,grating.started,grating.stopped,exitTxt.started,exitTxt.stopped,key_resp.keys,key_resp.rt,key_resp.started,key_resp.stopped,participant,session,date,expName,psychopyVersion,frameRate,
,,,,,,,,,,,,,,,,,,,,,,,,,,,,,,,,,space,24.61500637186691,105.10892471205443,None,,,,,,,,,,,,,,,,,,,,,,,,,,,,,,,,,,,,,,,,,,,,,,,,,,,,,,,,,,,,,,171,001,2024_Feb_28_1415,SpeechDraft1Carolyn_lessNoise_PlusLocalization,2021.2.3,60.004200689272594,
,,,,,,,,,,,,,,,,,,,,,,,,,,,,,,,,,,,,,105.10892471205443,None,129.84239007905126,None,space,24.378128175158054,130.02574290102348,None,,,,,,,,,,,,,,,,,,,,,,,,,,,,,,,,,,,,,,,,,,,,,,,,,,,,,,171,001,2024_Feb_28_1415,SpeechDraft1Carolyn_lessNoise_PlusLocalization,2021.2.3,60.004200689272594,
ash.wav,ash.mpg,ash,1,A,Pink_Noise_1_1.wav,Pink_Noise_1_2.wav,"This is an example of an

AUDIO trial",,,,,,,,,,0,0,0,0,,,,,,,,,,,,,,,,,,,,,,,,,154.44347691815346,None,155.4420879012905,None,159.5920044160448,None,160.99189241603017,None,ashe,160.99189241603017,None,return,8.433109839912504,161.05880935303867,None,,,,,,,,,,,,,,,,,,,,,,,,,,,,,,,,,,,,,,,171,001,2024_Feb_28_1415,SpeechDraft1Carolyn_lessNoise_PlusLocalization,2021.2.3,60.004200689272594,
ash.wav,ash.mpg,ash,1,AV,Pink_Noise_1_1.wav,Pink_Noise_1_2.wav,"This is an example of an

AUDIO + VIDEO  trial",,,,,,,,,,0,1,1,1,,,,,,,,,,,,,,,,,,,,,,,,,169.52512492099777,None,170.52552253799513,None,172.0251256879419,None,173.40886243991554,None,ashe,173.40886243991554,None,return,7.159709088969976,173.4921565828845,None,,,,,,,,,,,,,,,,,,,,,,,,,,,,,,,,,,,,,,,171,001,2024_Feb_28_1415,SpeechDraft1Carolyn_lessNoise_PlusLocalization,2021.2.3,60.004200689272594,
,,,,,,,,,,,,,,,,,,,,,,,,,,,,,,,,,,,,,,,,,,,,,,,,,,,,,,,,,,,,180.69183212704957,None,space,48.07237451011315,180.87556791026145,None,,,,,,,,,,,,,,,,,,,,,,,,,,,,,,,,,171,001,2024_Feb_28_1415,SpeechDraft1Carolyn_lessNoise_PlusLocalization,2021.2.3,60.004200689272594,
crowd.wav,crowd.mpg,crowd,6,AV,Pink_Noise_6_1.wav,Pink_Noise_6_2.wav,,,,,,,,,,,,,,,0,0,0,104,,,,,,,,,,,,,,,,,,,,,,,229.00861011911184,None,230.49191426532343,None,231.87548220297322,None,crowd,231.87548220297322,None,return,7.661020437721163,231.95885388320312,None,,,,,,,,,,,,,,,,,,,,,,,,,,,,,,,,,,,,,,,171,001,2024_Feb_28_1415,SpeechDraft1Carolyn_lessNoise_PlusLocalization,2021.2.3,60.004200689272594,
hug.wav,hug.mpg,hug,4,AV,Pink_Noise_4_1.wav,Pink_Noise_4_2.wav,,,,,,,,,,,,,,,0,1,1,92,,,,,,,,,,,,,,,,,,,,,,,239.64221571898088,None,241.14199658390135,None,242.5254765623249,None,cup,242.5254765623249,None,return,35.57095498032868,242.60889600217342,None,,,,,,,,,,,,,,,,,,,,,,,,,,,,,,,,,,,,,,,171,001,2024_Feb_28_1415,SpeechDraft1Carolyn_lessNoise_PlusLocalization,2021.2.3,60.004200689272594,
date.wav,date.mpg,date,4,AV,Pink_Noise_4_1.wav,Pink_Noise_4_2.wav,,,,,,,,,,,,,,,0,2,2,79,,,,,,,,,,,,,,,,,,,,,,,278.2089957790449,None,279.70866309991106,None,281.0921420012601,None,addict,281.0921420012601,None,return,39.80430403770879,281.1755598029122,None,,,,,,,,,,,,,,,,,,,,,,,,,,,,,,,,,,,,,,,171,001,2024_Feb_28_1415,SpeechDraft1Carolyn_lessNoise_PlusLocalization,2021.2.3,60.004200689272594,
fuse.wav,fuse.mpg,fuse,2,A,Pink_Noise_2_1.wav,Pink_Noise_2_2.wav,,,,,,,,,,,,,,,0,3,3,56,,,,,,,,,,,,,,,,,,,,,,,321.0090658441186,None,322.50876596104354,None,323.89237450109795,None,shoes,323.89237450109795,None,return,8.204182890243828,323.9756685262546,None,,,,,,,,,,,,,,,,,,,,,,,,,,,,,,,,,,,,,,,171,001,2024_Feb_28_1415,SpeechDraft1Carolyn_lessNoise_PlusLocalization,2021.2.3,60.004200689272594,
dim.wav,dim.mpg,dim,2,A,Pink_Noise_2_1.wav,Pink_Noise_2_2.wav,,,,,,,,,,,,,,,0,4,4,47,,,,,,,,,,,,,,,,,,,,,,,332.2090304051526,None,333.70880360528827,None,335.0923009943217,None,differ,335.0923009943217,None,return,28.580207161139697,335.1757259769365,None,,,,,,,,,,,,,,,,,,,,,,,,,,,,,,,,,,,,,,,171,001,2024_Feb_28_1415,SpeechDraft1Carolyn_lessNoise_PlusLocalization,2021.2.3,60.004200689272594,
cheap.wav,cheap.mpg,cheap,4,A,Pink_Noise_4_1.wav,Pink_Noise_4_2.wav,,,,,,,,,,,,,,,0,5,5,43,,,,,,,,,,,,,,,,,,,,,,,363.7757673370652,None,365.2754894979298,None,366.65918109798804,None,cheek,366.65918109798804,None,return,23.84559894632548,366.74228959018365,None,,,,,,,,,,,,,,,,,,,,,,,,,,,,,,,,,,,,,,,171,001,2024_Feb_28_1415,SpeechDraft1Carolyn_lessNoise_PlusLocalization,2021.2.3,60.004200689272594,
cap.wav,cap.mpg,cap,1,A,Pink_Noise_1_1.wav,Pink_Noise_1_2.wav,,,,,,,,,,,,,,,0,6,6,30,,,,,,,,,,,,,,,,,,,,,,,390.60914123104885,None,392.1088802679442,None,393.4925297931768,None,cap,393.4925297931768,None,return,6.731988328974694,393.5759609211236,None,,,,,,,,,,,,,,,,,,,,,,,,,,,,,,,,,,,,,,,171,001,2024_Feb_28_1415,SpeechDraft1Carolyn_lessNoise_PlusLocalization,2021.2.3,60.004200689272594,
click.wav,click.mpg,click,3,A,Pink_Noise_3_1.wav,Pink_Noise_3_2.wav,,,,,,,,,,,,,,,0,7,7,2,,,,,,,,,,,,,,,,,,,,,,,400.32578029017895,None,401.8254830879159,None,403.209347947035,None,click,403.209347947035,None,return,10.391433786600828,403.2924814429134,None,,,,,,,,,,,,,,,,,,,,,,,,,,,,,,,,,,,,,,,171,001,2024_Feb_28_1415,SpeechDraft1Carolyn_lessNoise_PlusLocalization,2021.2.3,60.004200689272594,
grin.wav,grin.mpg,grin,6,AV,Pink_Noise_6_1.wav,Pink_Noise_6_2.wav,,,,,,,,,,,,,,,0,8,8,109,,,,,,,,,,,,,,,,,,,,,,,413.70912009617314,None,415.2087681442499,None,416.59243431827053,None,"roy
",416.59243431827053,None,return,15.135960698127747,416.67589996987954,None,,,,,,,,,,,,,,,,,,,,,,,,,,,,,,,,,,,,,,,171,001,2024_Feb_28_1415,SpeechDraft1Carolyn_lessNoise_PlusLocalization,2021.2.3,60.004200689272594,
greed.wav,greed.mpg,greed,2,AV,Pink_Noise_2_1.wav,Pink_Noise_2_2.wav,,,,,,,,,,,,,,,0,9,9,94,,,,,,,,,,,,,,,,,,,,,,,431.8425507983193,None,433.34222935093567,None,434.72582799429074,None,greed,434.72582799429074,None,return,5.538860618136823,434.8091094358824,None,,,,,,,,,,,,,,,,,,,,,,,,,,,,,,,,,,,,,,,171,001,2024_Feb_28_1415,SpeechDraft1Carolyn_lessNoise_PlusLocalization,2021.2.3,60.004200689272594,
cook.wav,cook.mpg,cook,1,A,Pink_Noise_1_1.wav,Pink_Noise_1_2.wav,,,,,,,,,,,,,,,0,10,10,11,,,,,,,,,,,,,,,,,,,,,,,440.37579410430044,None,441.8756041992456,None,443.259144235868,None,cook,443.259144235868,None,return,4.677298306021839,443.342550331261,None,,,,,,,,,,,,,,,,,,,,,,,,,,,,,,,,,,,,,,,171,001,2024_Feb_28_1415,SpeechDraft1Carolyn_lessNoise_PlusLocalization,2021.2.3,60.004200689272594,
bruise.wav,bruise.mpg,bruise,4,A,Pink_Noise_4_1.wav,Pink_Noise_4_2.wav,,,,,,,,,,,,,,,0,11,11,32,,,,,,,,,,,,,,,,,,,,,,,448.0424882629886,None,449.54212852800265,None,450.92587885214016,None,use,450.92587885214016,None,return,14.162621844094247,451.00924153625965,None,,,,,,,,,,,,,,,,,,,,,,,,,,,,,,,,,,,,,,,171,001,2024_Feb_28_1415,SpeechDraft1Carolyn_lessNoise_PlusLocalization,2021.2.3,60.004200689272594,
strike.wav,strike.mpg,strike,2,A,Pink_Noise_2_1.wav,Pink_Noise_2_2.wav,,,,,,,,,,,,,,,0,12,12,41,,,,,,,,,,,,,,,,,,,,,,,465.1925536240451,None,466.6922608180903,None,468.07606586115435,None,strike,468.07606586115435,None,return,10.372712685726583,468.15923214610666,None,,,,,,,,,,,,,,,,,,,,,,,,,,,,,,,,,,,,,,,171,001,2024_Feb_28_1415,SpeechDraft1Carolyn_lessNoise_PlusLocalization,2021.2.3,60.004200689272594,
champ.wav,champ.mpg,champ,1,AV,Pink_Noise_1_1.wav,Pink_Noise_1_2.wav,,,,,,,,,,,,,,,0,13,13,71,,,,,,,,,,,,,,,,,,,,,,,478.55922159925103,None,480.05917217908427,None,481.4425662881695,None,champ,481.4425662881695,None,return,10.293986347969621,481.5258967159316,None,,,,,,,,,,,,,,,,,,,,,,,,,,,,,,,,,,,,,,,171,001,2024_Feb_28_1415,SpeechDraft1Carolyn_lessNoise_PlusLocalization,2021.2.3,60.004200689272594,
bush.wav,bush.mpg,bush,2,AV,Pink_Noise_2_1.wav,Pink_Noise_2_2.wav,,,,,,,,,,,,,,,0,14,14,102,,,,,,,,,,,,,,,,,,,,,,,491.8427144330926,None,493.3423292571679,None,494.72597259888425,None,brush,494.72597259888425,None,return,7.554508300963789,494.80934625305235,None,,,,,,,,,,,,,,,,,,,,,,,,,,,,,,,,,,,,,,,171,001,2024_Feb_28_1415,SpeechDraft1Carolyn_lessNoise_PlusLocalization,2021.2.3,60.004200689272594,
wild.wav,wild.mpg,wild,2,A,Pink_Noise_2_1.wav,Pink_Noise_2_2.wav,,,,,,,,,,,,,,,0,15,15,55,,,,,,,,,,,,,,,,,,,,,,,502.3925272380002,None,503.8922067140229,None,505.27590539399534,None,wild,505.27590539399534,None,return,6.980552356690168,505.35930070793256,None,,,,,,,,,,,,,,,,,,,,,,,,,,,,,,,,,,,,,,,171,001,2024_Feb_28_1415,SpeechDraft1Carolyn_lessNoise_PlusLocalization,2021.2.3,60.004200689272594,
dark.wav,dark.mpg,dark,4,AV,Pink_Noise_4_1.wav,Pink_Noise_4_2.wav,,,,,,,,,,,,,,,0,16,16,82,,,,,,,,,,,,,,,,,,,,,,,512.3593184272759,None,513.8590279030614,None,515.2425463162363,None,"start
",515.2425463162363,None,return,8.10191676998511,515.3259444329888,None,,,,,,,,,,,,,,,,,,,,,,,,,,,,,,,,,,,,,,,171,001,2024_Feb_28_1415,SpeechDraft1Carolyn_lessNoise_PlusLocalization,2021.2.3,60.004200689272594,
card.wav,card.mpg,card,5,AV,Pink_Noise_5_1.wav,Pink_Noise_5_2.wav,,,,,,,,,,,,,,,0,17,17,107,,,,,,,,,,,,,,,,,,,,,,,523.4592822552659,None,524.9599813632667,None,526.3426210032776,None,card,526.3426210032776,None,return,5.665864379145205,526.4260613070801,None,,,,,,,,,,,,,,,,,,,,,,,,,,,,,,,,,,,,,,,171,001,2024_Feb_28_1415,SpeechDraft1Carolyn_lessNoise_PlusLocalization,2021.2.3,60.004200689272594,
fierce.wav,fierce.mpg,fierce,4,AV,Pink_Noise_4_1.wav,Pink_Noise_4_2.wav,,,,,,,,,,,,,,,0,18,18,65,,,,,,,,,,,,,,,,,,,,,,,532.1093681780621,None,533.6090579819866,None,534.9927147640847,None,force,534.9927147640847,None,return,14.855910916812718,535.0760512449779,None,,,,,,,,,,,,,,,,,,,,,,,,,,,,,,,,,,,,,,,171,001,2024_Feb_28_1415,SpeechDraft1Carolyn_lessNoise_PlusLocalization,2021.2.3,60.004200689272594,
shrimp.wav,shrimp.mpg,shrimp,3,A,Pink_Noise_3_1.wav,Pink_Noise_3_2.wav,,,,,,,,,,,,,,,0,19,19,54,,,,,,,,,,,,,,,,,,,,,,,549.9593759160489,None,551.4591272361577,None,552.8426330620423,None,"shrimp
",552.8426330620423,None,return,16.333726071752608,552.926157114096,None,,,,,,,,,,,,,,,,,,,,,,,,,,,,,,,,,,,,,,,171,001,2024_Feb_28_1415,SpeechDraft1Carolyn_lessNoise_PlusLocalization,2021.2.3,60.004200689272594,
cliff.wav,cliff.mpg,cliff,6,AV,Pink_Noise_6_1.wav,Pink_Noise_6_2.wav,,,,,,,,,,,,,,,0,20,20,101,,,,,,,,,,,,,,,,,,,,,,,569.2927321181633,None,570.7923609679565,None,572.1759466282092,None,leave,572.1759466282092,None,return,9.440598439890891,572.2593845040537,None,,,,,,,,,,,,,,,,,,,,,,,,,,,,,,,,,,,,,,,171,001,2024_Feb_28_1415,SpeechDraft1Carolyn_lessNoise_PlusLocalization,2021.2.3,60.004200689272594,
ease.wav,ease.mpg,ease,6,A,Pink_Noise_6_1.wav,Pink_Noise_6_2.wav,,,,,,,,,,,,,,,0,21,21,6,,,,,,,,,,,,,,,,,,,,,,,581.7261435640976,None,583.2257068650797,None,584.6095164068975,None,slace,584.6095164068975,None,return,10.28713541617617,584.6927280263044,None,,,,,,,,,,,,,,,,,,,,,,,,,,,,,,,,,,,,,,,171,001,2024_Feb_28_1415,SpeechDraft1Carolyn_lessNoise_PlusLocalization,2021.2.3,60.004200689272594,
droop.wav,droop.mpg,droop,2,AV,Pink_Noise_2_1.wav,Pink_Noise_2_2.wav,,,,,,,,,,,,,,,0,22,22,73,,,,,,,,,,,,,,,,,,,,,,,595.0093624540605,None,596.5091118719429,None,597.8926326911896,None,droop,597.8926326911896,None,return,7.3159026792272925,597.9760469230823,None,,,,,,,,,,,,,,,,,,,,,,,,,,,,,,,,,,,,,,,171,001,2024_Feb_28_1415,SpeechDraft1Carolyn_lessNoise_PlusLocalization,2021.2.3,60.004200689272594,
traps.wav,traps.mpg,traps,6,AV,Pink_Noise_6_1.wav,Pink_Noise_6_2.wav,,,,,,,,,,,,,,,0,23,23,78,,,,,,,,,,,,,,,,,,,,,,,605.3094760300592,None,606.809184201993,None,608.1926468182355,None,traims,608.1926468182355,None,return,27.343715462833643,608.2761648981832,None,,,,,,,,,,,,,,,,,,,,,,,,,,,,,,,,,,,,,,,171,001,2024_Feb_28_1415,SpeechDraft1Carolyn_lessNoise_PlusLocalization,2021.2.3,60.004200689272594,
carve.wav,carve.mpg,carve,1,A,Pink_Noise_1_1.wav,Pink_Noise_1_2.wav,,,,,,,,,,,,,,,0,24,24,3,,,,,,,,,,,,,,,,,,,,,,,635.6428111279383,None,637.1592428833246,None,638.5428108479828,None,carve,638.5428108479828,None,return,13.425473582930863,638.626367688179,None,,,,,,,,,,,,,,,,,,,,,,,,,,,,,,,,,,,,,,,171,001,2024_Feb_28_1415,SpeechDraft1Carolyn_lessNoise_PlusLocalization,2021.2.3,60.004200689272594,
flood.wav,flood.mpg,flood,1,A,Pink_Noise_1_1.wav,Pink_Noise_1_2.wav,,,,,,,,,,,,,,,0,25,25,37,,,,,,,,,,,,,,,,,,,,,,,652.0760993473232,None,653.5758520062082,None,654.9594602780417,None,flood,654.9594602780417,None,return,5.041060170158744,655.0428721481003,None,,,,,,,,,,,,,,,,,,,,,,,,,,,,,,,,,,,,,,,171,001,2024_Feb_28_1415,SpeechDraft1Carolyn_lessNoise_PlusLocalization,2021.2.3,60.004200689272594,
roast.wav,roast.mpg,roast,1,A,Pink_Noise_1_1.wav,Pink_Noise_1_2.wav,,,,,,,,,,,,,,,0,26,26,35,,,,,,,,,,,,,,,,,,,,,,,660.1094523472711,None,661.6091728708707,None,662.9928050069138,None,rost,662.9928050069138,None,return,10.415702982340008,663.0762211512774,None,,,,,,,,,,,,,,,,,,,,,,,,,,,,,,,,,,,,,,,171,001,2024_Feb_28_1415,SpeechDraft1Carolyn_lessNoise_PlusLocalization,2021.2.3,60.004200689272594,
birch.wav,birch.mpg,birch,6,A,Pink_Noise_6_1.wav,Pink_Noise_6_2.wav,,,,,,,,,,,,,,,0,27,27,23,,,,,,,,,,,,,,,,,,,,,,,673.5095235230401,None,675.01041266229,None,676.3928705961443,None,clich,676.3928705961443,None,return,11.05572503618896,676.4761866410263,None,,,,,,,,,,,,,,,,,,,,,,,,,,,,,,,,,,,,,,,171,001,2024_Feb_28_1415,SpeechDraft1Carolyn_lessNoise_PlusLocalization,2021.2.3,60.004200689272594,
chain.wav,chain.mpg,chain,2,AV,Pink_Noise_2_1.wav,Pink_Noise_2_2.wav,,,,,,,,,,,,,,,0,28,28,108,,,,,,,,,,,,,,,,,,,,,,,687.5594941149466,None,689.0759748863056,None,690.4595811120234,None,chain,690.4595811120234,None,return,5.604960403870791,690.5429111439735,None,,,,,,,,,,,,,,,,,,,,,,,,,,,,,,,,,,,,,,,171,001,2024_Feb_28_1415,SpeechDraft1Carolyn_lessNoise_PlusLocalization,2021.2.3,60.004200689272594,
blink.wav,blink.mpg,blink,3,AV,Pink_Noise_3_1.wav,Pink_Noise_3_2.wav,,,,,,,,,,,,,,,0,29,29,119,,,,,,,,,,,,,,,,,,,,,,,696.1761490870267,None,697.6760424813256,None,699.0594110828824,None,"make
",699.0594110828824,None,return,4.71687997598201,699.1429730942473,None,,,,,,,,,,,,,,,,,,,,,,,,,,,,,,,,,,,,,,,171,001,2024_Feb_28_1415,SpeechDraft1Carolyn_lessNoise_PlusLocalization,2021.2.3,60.004200689272594,
fat.wav,fat.mpg,fat,6,A,Pink_Noise_6_1.wav,Pink_Noise_6_2.wav,,,,,,,,,,,,,,,0,30,30,14,,,,,,,,,,,,,,,,,,,,,,,703.8928145589307,None,705.3925913562998,None,706.7761701522395,None,"starve
",706.7761701522395,None,return,13.152334196027368,706.8595263790339,None,,,,,,,,,,,,,,,,,,,,,,,,,,,,,,,,,,,,,,,171,001,2024_Feb_28_1415,SpeechDraft1Carolyn_lessNoise_PlusLocalization,2021.2.3,60.004200689272594,
goose.wav,goose.mpg,goose,4,AV,Pink_Noise_4_1.wav,Pink_Noise_4_2.wav,,,,,,,,,,,,,,,0,31,31,69,,,,,,,,,,,,,,,,,,,,,,,720.0428306232207,None,721.5593982450664,None,722.9428940173239,None,goose,722.9428940173239,None,return,5.513704434037209,723.0262110698968,None,,,,,,,,,,,,,,,,,,,,,,,,,,,,,,,,,,,,,,,171,001,2024_Feb_28_1415,SpeechDraft1Carolyn_lessNoise_PlusLocalization,2021.2.3,60.004200689272594,
bait.wav,bait.mpg,bait,2,AV,Pink_Noise_2_1.wav,Pink_Noise_2_2.wav,,,,,,,,,,,,,,,0,32,32,77,,,,,,,,,,,,,,,,,,,,,,,728.5594893358648,None,730.0758957252838,None,731.442919516936,None,"bate
",731.442919516936,None,return,25.101573904044926,731.526287805289,None,,,,,,,,,,,,,,,,,,,,,,,,,,,,,,,,,,,,,,,171,001,2024_Feb_28_1415,SpeechDraft1Carolyn_lessNoise_PlusLocalization,2021.2.3,60.004200689272594,
greek.wav,greek.mpg,greek,5,A,Pink_Noise_5_1.wav,Pink_Noise_5_2.wav,,,,,,,,,,,,,,,0,33,33,9,,,,,,,,,,,,,,,,,,,,,,,756.6595855499618,None,758.1606876752339,None,759.5429125740193,None,scrape,759.5429125740193,None,return,7.041557138320059,759.6262971172109,None,,,,,,,,,,,,,,,,,,,,,,,,,,,,,,,,,,,,,,,171,001,2024_Feb_28_1415,SpeechDraft1Carolyn_lessNoise_PlusLocalization,2021.2.3,60.004200689272594,
bridge.wav,bridge.mpg,bridge,5,A,Pink_Noise_5_1.wav,Pink_Noise_5_2.wav,,,,,,,,,,,,,,,0,34,34,50,,,,,,,,,,,,,,,,,,,,,,,766.6929088588804,None,768.1937664733268,None,769.5764187220484,None,bridge,769.5764187220484,None,return,10.728281937073916,769.6596134831198,None,,,,,,,,,,,,,,,,,,,,,,,,,,,,,,,,,,,,,,,171,001,2024_Feb_28_1415,SpeechDraft1Carolyn_lessNoise_PlusLocalization,2021.2.3,60.004200689272594,
beige.wav,beige.mpg,beige,1,A,Pink_Noise_1_1.wav,Pink_Noise_1_2.wav,,,,,,,,,,,,,,,0,35,35,19,,,,,,,,,,,,,,,,,,,,,,,780.4095513289794,None,781.9260458331555,None,783.2930864943191,None,baish,783.2930864943191,None,return,27.7554577072151,783.3764640293084,None,,,,,,,,,,,,,,,,,,,,,,,,,,,,,,,,,,,,,,,171,001,2024_Feb_28_1415,SpeechDraft1Carolyn_lessNoise_PlusLocalization,2021.2.3,60.004200689272594,
blade.wav,blade.mpg,blade,3,AV,Pink_Noise_3_1.wav,Pink_Noise_3_2.wav,,,,,,,,,,,,,,,0,36,36,111,,,,,,,,,,,,,,,,,,,,,,,811.1596368039027,None,812.676202962175,None,814.0597202982754,None,"splay
",814.0597202982754,None,return,19.65283316001296,814.1430316329934,None,,,,,,,,,,,,,,,,,,,,,,,,,,,,,,,,,,,,,,,171,001,2024_Feb_28_1415,SpeechDraft1Carolyn_lessNoise_PlusLocalization,2021.2.3,60.004200689272594,
drunk.wav,drunk.mpg,drunk,3,AV,Pink_Noise_3_1.wav,Pink_Noise_3_2.wav,,,,,,,,,,,,,,,0,37,37,76,,,,,,,,,,,,,,,,,,,,,,,833.8263405072503,None,835.3260801811703,None,836.7095883418806,None,drug,836.7095883418806,None,return,3.690810214728117,836.7931970232166,None,,,,,,,,,,,,,,,,,,,,,,,,,,,,,,,,,,,,,,,171,001,2024_Feb_28_1415,SpeechDraft1Carolyn_lessNoise_PlusLocalization,2021.2.3,60.004200689272594,
poll.wav,poll.mpg,poll,5,AV,Pink_Noise_5_1.wav,Pink_Noise_5_2.wav,,,,,,,,,,,,,,,0,38,38,87,,,,,,,,,,,,,,,,,,,,,,,840.5097384070978,None,842.0104809869081,None,843.3930340381339,None,bowl,843.3930340381339,None,return,2.871536634862423,843.4763242038898,None,,,,,,,,,,,,,,,,,,,,,,,,,,,,,,,,,,,,,,,171,001,2024_Feb_28_1415,SpeechDraft1Carolyn_lessNoise_PlusLocalization,2021.2.3,60.004200689272594,
chore.wav,chore.mpg,chore,1,AV,Pink_Noise_1_1.wav,Pink_Noise_1_2.wav,,,,,,,,,,,,,,,0,39,39,62,,,,,,,,,,,,,,,,,,,,,,,846.3763291179202,None,847.8761673700064,None,849.2596820131876,None,choir,849.2596820131876,None,return,10.820828018244356,849.3430327400565,None,,,,,,,,,,,,,,,,,,,,,,,,,,,,,,,,,,,,,,,171,001,2024_Feb_28_1415,SpeechDraft1Carolyn_lessNoise_PlusLocalization,2021.2.3,60.004200689272594,
crop.wav,crop.mpg,crop,3,A,Pink_Noise_3_1.wav,Pink_Noise_3_2.wav,,,,,,,,,,,,,,,0,40,40,39,,,,,,,,,,,,,,,,,,,,,,,860.1931075952016,None,861.7095292629674,None,863.0764485578984,None,class,863.0764485578984,None,return,5.124256511218846,863.1596961701289,None,,,,,,,,,,,,,,,,,,,,,,,,,,,,,,,,,,,,,,,171,001,2024_Feb_28_1415,SpeechDraft1Carolyn_lessNoise_PlusLocalization,2021.2.3,60.004200689272594,
born.wav,born.mpg,born,6,AV,Pink_Noise_6_1.wav,Pink_Noise_6_2.wav,,,,,,,,,,,,,,,0,41,41,116,,,,,,,,,,,,,,,,,,,,,,,868.3098488380201,None,869.8095590760931,None,871.1929898578674,None,bore,871.1929898578674,None,return,2.0473688328638673,871.2764912741259,None,,,,,,,,,,,,,,,,,,,,,,,,,,,,,,,,,,,,,,,171,001,2024_Feb_28_1415,SpeechDraft1Carolyn_lessNoise_PlusLocalization,2021.2.3,60.004200689272594,
cheer.wav,cheer.mpg,cheer,6,A,Pink_Noise_6_1.wav,Pink_Noise_6_2.wav,,,,,,,,,,,,,,,0,42,42,13,,,,,,,,,,,,,,,,,,,,,,,873.3431125069037,None,874.8594255940989,None,876.226573002059,None,chim,876.226573002059,None,return,18.910097065381706,876.3097495352849,None,,,,,,,,,,,,,,,,,,,,,,,,,,,,,,,,,,,,,,,171,001,2024_Feb_28_1415,SpeechDraft1Carolyn_lessNoise_PlusLocalization,2021.2.3,60.004200689272594,
cruel.wav,cruel.mpg,cruel,3,AV,Pink_Noise_3_1.wav,Pink_Noise_3_2.wav,,,,,,,,,,,,,,,0,43,43,89,,,,,,,,,,,,,,,,,,,,,,,895.2431238172576,None,896.7430243561976,None,898.126361518167,None,"cruel
",898.126361518167,None,return,12.169932004064322,898.2099291519262,None,,,,,,,,,,,,,,,,,,,,,,,,,,,,,,,,,,,,,,,171,001,2024_Feb_28_1415,SpeechDraft1Carolyn_lessNoise_PlusLocalization,2021.2.3,60.004200689272594,
foul.wav,foul.mpg,foul,4,AV,Pink_Noise_4_1.wav,Pink_Noise_4_2.wav,,,,,,,,,,,,,,,0,44,44,105,,,,,,,,,,,,,,,,,,,,,,,910.4099921928719,None,911.9261745898984,None,913.30984339118,None,fire,913.30984339118,None,return,7.70679082069546,913.3931856802665,None,,,,,,,,,,,,,,,,,,,,,,,,,,,,,,,,,,,,,,,171,001,2024_Feb_28_1415,SpeechDraft1Carolyn_lessNoise_PlusLocalization,2021.2.3,60.004200689272594,
dash.wav,dash.mpg,dash,2,AV,Pink_Noise_2_1.wav,Pink_Noise_2_2.wav,,,,,,,,,,,,,,,0,45,45,66,,,,,,,,,,,,,,,,,,,,,,,921.1265601720661,None,922.6428704638965,None,924.0264590000734,None,dash,924.0264590000734,None,return,8.621939745731652,924.110032861121,None,,,,,,,,,,,,,,,,,,,,,,,,,,,,,,,,,,,,,,,171,001,2024_Feb_28_1415,SpeechDraft1Carolyn_lessNoise_PlusLocalization,2021.2.3,60.004200689272594,
frame.wav,frame.mpg,frame,5,AV,Pink_Noise_5_1.wav,Pink_Noise_5_2.wav,,,,,,,,,,,,,,,0,46,46,60,,,,,,,,,,,,,,,,,,,,,,,932.7598581919447,None,934.2597789620049,None,935.6430819379166,None,"frame
",935.6430819379166,None,return,4.469266223721206,935.7265959521756,None,,,,,,,,,,,,,,,,,,,,,,,,,,,,,,,,,,,,,,,171,001,2024_Feb_28_1415,SpeechDraft1Carolyn_lessNoise_PlusLocalization,2021.2.3,60.004200689272594,
boss.wav,boss.mpg,boss,1,AV,Pink_Noise_1_1.wav,Pink_Noise_1_2.wav,,,,,,,,,,,,,,,0,47,47,83,,,,,,,,,,,,,,,,,,,,,,,940.2264855131507,None,941.7262577931397,None,943.1097766379826,None,boss,943.1097766379826,None,return,11.890598355326802,943.1933677322231,None,,,,,,,,,,,,,,,,,,,,,,,,,,,,,,,,,,,,,,,171,001,2024_Feb_28_1415,SpeechDraft1Carolyn_lessNoise_PlusLocalization,2021.2.3,60.004200689272594,
else.wav,else.mpg,else,3,A,Pink_Noise_3_1.wav,Pink_Noise_3_2.wav,,,,,,,,,,,,,,,0,48,48,33,,,,,,,,,,,,,,,,,,,,,,,955.1098831081763,None,956.6097129001282,None,957.993169636,None,"else
",957.993169636,None,return,6.967231569811702,958.0766396392137,None,,,,,,,,,,,,,,,,,,,,,,,,,,,,,,,,,,,,,,,171,001,2024_Feb_28_1415,SpeechDraft1Carolyn_lessNoise_PlusLocalization,2021.2.3,60.004200689272594,
paid.wav,paid.mpg,paid,6,AV,Pink_Noise_6_1.wav,Pink_Noise_6_2.wav,,,,,,,,,,,,,,,0,49,49,70,,,,,,,,,,,,,,,,,,,,,,,965.0766015602276,None,966.5780042442493,None,967.9598762989044,None,bame,967.9598762989044,None,return,7.128552991896868,968.043310646899,None,,,,,,,,,,,,,,,,,,,,,,,,,,,,,,,,,,,,,,,171,001,2024_Feb_28_1415,SpeechDraft1Carolyn_lessNoise_PlusLocalization,2021.2.3,60.004200689272594,
truck.wav,truck.mpg,truck,6,A,Pink_Noise_6_1.wav,Pink_Noise_6_2.wav,,,,,,,,,,,,,,,0,50,50,44,,,,,,,,,,,,,,,,,,,,,,,975.1932244272903,None,976.6935011250898,None,978.0765885640867,None,chock,978.0765885640867,None,return,2.995908508077264,978.1599475140683,None,,,,,,,,,,,,,,,,,,,,,,,,,,,,,,,,,,,,,,,171,001,2024_Feb_28_1415,SpeechDraft1Carolyn_lessNoise_PlusLocalization,2021.2.3,60.004200689272594,
oats.wav,oats.mpg,oats,2,AV,Pink_Noise_2_1.wav,Pink_Noise_2_2.wav,,,,,,,,,,,,,,,0,51,51,97,,,,,,,,,,,,,,,,,,,,,,,981.1764759179205,None,982.6763684549369,None,984.0599651183002,None,"oats
",984.0599651183002,None,return,2.684592898003757,984.1432620328851,None,,,,,,,,,,,,,,,,,,,,,,,,,,,,,,,,,,,,,,,171,001,2024_Feb_28_1415,SpeechDraft1Carolyn_lessNoise_PlusLocalization,2021.2.3,60.004200689272594,
chalk.wav,chalk.mpg,chalk,3,A,Pink_Noise_3_1.wav,Pink_Noise_3_2.wav,,,,,,,,,,,,,,,0,52,52,29,,,,,,,,,,,,,,,,,,,,,,,986.8599430653267,None,988.3597637359053,None,989.7432539910078,None,chock,989.7432539910078,None,return,2.225111505948007,989.8267280301079,None,,,,,,,,,,,,,,,,,,,,,,,,,,,,,,,,,,,,,,,171,001,2024_Feb_28_1415,SpeechDraft1Carolyn_lessNoise_PlusLocalization,2021.2.3,60.004200689272594,
stuck.wav,stuck.mpg,stuck,2,A,Pink_Noise_2_1.wav,Pink_Noise_2_2.wav,,,,,,,,,,,,,,,0,53,53,17,,,,,,,,,,,,,,,,,,,,,,,992.0766220521182,None,993.593155132141,None,994.9766366998665,None,stuck,994.9766366998665,None,return,3.2478703293018043,995.0599874518812,None,,,,,,,,,,,,,,,,,,,,,,,,,,,,,,,,,,,,,,,171,001,2024_Feb_28_1415,SpeechDraft1Carolyn_lessNoise_PlusLocalization,2021.2.3,60.004200689272594,
blot.wav,blot.mpg,blot,3,AV,Pink_Noise_3_1.wav,Pink_Noise_3_2.wav,,,,,,,,,,,,,,,0,54,54,72,,,,,,,,,,,,,,,,,,,,,,,998.3266481221654,None,999.8431600192562,None,1001.2265727692284,None,blut,1001.2265727692284,None,return,4.709904326125979,1001.3099871883169,None,,,,,,,,,,,,,,,,,,,,,,,,,,,,,,,,,,,,,,,171,001,2024_Feb_28_1415,SpeechDraft1Carolyn_lessNoise_PlusLocalization,2021.2.3,60.004200689272594,
steam.wav,steam.mpg,steam,1,A,Pink_Noise_1_1.wav,Pink_Noise_1_2.wav,,,,,,,,,,,,,,,0,55,55,36,,,,,,,,,,,,,,,,,,,,,,,1006.0432704761624,None,1007.5598781751469,None,1008.9433067860082,None,steam,1008.9433067860082,None,return,6.849238286726177,1009.026720777154,None,,,,,,,,,,,,,,,,,,,,,,,,,,,,,,,,,,,,,,,171,001,2024_Feb_28_1415,SpeechDraft1Carolyn_lessNoise_PlusLocalization,2021.2.3,60.004200689272594,
bread.wav,bread.mpg,bread,1,AV,Pink_Noise_1_1.wav,Pink_Noise_1_2.wav,,,,,,,,,,,,,,,0,56,56,117,,,,,,,,,,,,,,,,,,,,,,,1015.8932211962529,None,1017.4264224390499,None,1018.8099410631694,None,bread,1018.8099410631694,None,return,3.614177969750017,1018.8937290622853,None,,,,,,,,,,,,,,,,,,,,,,,,,,,,,,,,,,,,,,,171,001,2024_Feb_28_1415,SpeechDraft1Carolyn_lessNoise_PlusLocalization,2021.2.3,60.004200689272594,
bribe.wav,bribe.mpg,bribe,4,A,Pink_Noise_4_1.wav,Pink_Noise_4_2.wav,,,,,,,,,,,,,,,0,57,57,1,,,,,,,,,,,,,,,,,,,,,,,1022.526703577023,None,1024.0430116550997,None,1025.426703776233,None,strive,1025.426703776233,None,return,6.74200690491125,1025.5098739331588,None,,,,,,,,,,,,,,,,,,,,,,,,,,,,,,,,,,,,,,,171,001,2024_Feb_28_1415,SpeechDraft1Carolyn_lessNoise_PlusLocalization,2021.2.3,60.004200689272594,
quest.wav,quest.mpg,quest,5,A,Pink_Noise_5_1.wav,Pink_Noise_5_2.wav,,,,,,,,,,,,,,,0,58,58,4,,,,,,,,,,,,,,,,,,,,,,,1032.2766868262552,None,1033.776319483295,None,1035.160039935261,None,cust,1035.160039935261,None,return,5.896468841936439,1035.243472699076,None,,,,,,,,,,,,,,,,,,,,,,,,,,,,,,,,,,,,,,,171,001,2024_Feb_28_1415,SpeechDraft1Carolyn_lessNoise_PlusLocalization,2021.2.3,60.004200689272594,
cloth.wav,cloth.mpg,cloth,6,A,Pink_Noise_6_1.wav,Pink_Noise_6_2.wav,,,,,,,,,,,,,,,0,59,59,38,,,,,,,,,,,,,,,,,,,,,,,1041.1600323868915,None,1042.659815700259,None,1044.0434637111612,None,strive,1044.0434637111612,None,return,25.629130030050874,1044.126723817084,None,,,,,,,,,,,,,,,,,,,,,,,,,,,,,,,,,,,,,,,171,001,2024_Feb_28_1415,SpeechDraft1Carolyn_lessNoise_PlusLocalization,2021.2.3,60.004200689272594,
break.wav,break.mpg,break,5,AV,Pink_Noise_5_1.wav,Pink_Noise_5_2.wav,,,,,,,,,,,,,,,0,60,60,99,,,,,,,,,,,,,,,,,,,,,,,1069.776696476154,None,1071.293051070068,None,1072.6768019893207,None,break,1072.6768019893207,None,return,2.2117174132727087,1072.7601459221914,None,,,,,,,,,,,,,,,,,,,,,,,,,,,,,,,,,,,,,,,171,001,2024_Feb_28_1415,SpeechDraft1Carolyn_lessNoise_PlusLocalization,2021.2.3,60.004200689272594,
blast.wav,blast.mpg,blast,4,A,Pink_Noise_4_1.wav,Pink_Noise_4_2.wav,,,,,,,,,,,,,,,0,61,61,59,,,,,,,,,,,,,,,,,,,,,,,1074.9935301630758,None,1076.509793208912,None,1077.8935315571725,None,relaxed,1077.8935315571725,None,return,3.5709857107140124,1077.9768778411672,None,,,,,,,,,,,,,,,,,,,,,,,,,,,,,,,,,,,,,,,171,001,2024_Feb_28_1415,SpeechDraft1Carolyn_lessNoise_PlusLocalization,2021.2.3,60.004200689272594,
beach.wav,beach.mpg,beach,5,A,Pink_Noise_5_1.wav,Pink_Noise_5_2.wav,,,,,,,,,,,,,,,0,62,62,31,,,,,,,,,,,,,,,,,,,,,,,1081.5768134072423,None,1083.0766412289813,None,1084.4600758762099,None,bleech,1084.4600758762099,None,return,14.748613529838622,1084.5433494802564,None,,,,,,,,,,,,,,,,,,,,,,,,,,,,,,,,,,,,,,,171,001,2024_Feb_28_1415,SpeechDraft1Carolyn_lessNoise_PlusLocalization,2021.2.3,60.004200689272594,
fruit.wav,fruit.mpg,fruit,1,A,Pink_Noise_1_1.wav,Pink_Noise_1_2.wav,,,,,,,,,,,,,,,0,63,63,16,,,,,,,,,,,,,,,,,,,,,,,1099.3101848051883,None,1100.8264365829527,None,1102.2102181189694,None,fruit,1102.2102181189694,None,return,11.678446392994374,1102.2934029651806,None,,,,,,,,,,,,,,,,,,,,,,,,,,,,,,,,,,,,,,,171,001,2024_Feb_28_1415,SpeechDraft1Carolyn_lessNoise_PlusLocalization,2021.2.3,60.004200689272594,
flip.wav,flip.mpg,flip,4,A,Pink_Noise_4_1.wav,Pink_Noise_4_2.wav,,,,,,,,,,,,,,,0,64,64,15,,,,,,,,,,,,,,,,,,,,,,,1113.993607356213,None,1115.4930921639316,None,1116.8768300069496,None,rape,1116.8768300069496,None,return,4.923660466913134,1116.9602505271323,None,,,,,,,,,,,,,,,,,,,,,,,,,,,,,,,,,,,,,,,171,001,2024_Feb_28_1415,SpeechDraft1Carolyn_lessNoise_PlusLocalization,2021.2.3,60.004200689272594,
fold.wav,fold.mpg,fold,1,AV,Pink_Noise_1_1.wav,Pink_Noise_1_2.wav,,,,,,,,,,,,,,,0,65,65,114,,,,,,,,,,,,,,,,,,,,,,,1121.9101314209402,None,1123.426519813016,None,1124.8101440039463,None,fold,1124.8101440039463,None,return,12.494569717906415,1124.8933245209046,None,,,,,,,,,,,,,,,,,,,,,,,,,,,,,,,,,,,,,,,171,001,2024_Feb_28_1415,SpeechDraft1Carolyn_lessNoise_PlusLocalization,2021.2.3,60.004200689272594,
swamp.wav,swamp.mpg,swamp,6,A,Pink_Noise_6_1.wav,Pink_Noise_6_2.wav,,,,,,,,,,,,,,,0,66,66,48,,,,,,,,,,,,,,,,,,,,,,,1137.4101516762748,None,1138.9098403011449,None,1140.2934552161023,None,"slich
",1140.2934552161023,None,return,10.219132511876523,1140.376730020158,None,,,,,,,,,,,,,,,,,,,,,,,,,,,,,,,,,,,,,,,171,001,2024_Feb_28_1415,SpeechDraft1Carolyn_lessNoise_PlusLocalization,2021.2.3,60.004200689272594,
bloom.wav,bloom.mpg,bloom,2,A,Pink_Noise_2_1.wav,Pink_Noise_2_2.wav,,,,,,,,,,,,,,,0,67,67,5,,,,,,,,,,,,,,,,,,,,,,,1150.6270166779868,None,1152.1432150872424,None,1153.5268984162249,None,look,1153.5268984162249,None,return,1.5376196191646159,1153.6102244490758,None,,,,,,,,,,,,,,,,,,,,,,,,,,,,,,,,,,,,,,,171,001,2024_Feb_28_1415,SpeechDraft1Carolyn_lessNoise_PlusLocalization,2021.2.3,60.004200689272594,
grab.wav,grab.mpg,grab,5,AV,Pink_Noise_5_1.wav,Pink_Noise_5_2.wav,,,,,,,,,,,,,,,0,68,68,75,,,,,,,,,,,,,,,,,,,,,,,1155.1768369958736,None,1156.6933600208722,None,1158.0767200062983,None,rabbit,1158.0767200062983,None,return,20.76376773416996,1158.1601424468681,None,,,,,,,,,,,,,,,,,,,,,,,,,,,,,,,,,,,,,,,171,001,2024_Feb_28_1415,SpeechDraft1Carolyn_lessNoise_PlusLocalization,2021.2.3,60.004200689272594,
gas.wav,gas.mpg,gas,4,AV,Pink_Noise_4_1.wav,Pink_Noise_4_2.wav,,,,,,,,,,,,,,,0,69,69,86,,,,,,,,,,,,,,,,,,,,,,,1178.9436082290486,None,1180.4434177712537,None,1181.8269431241788,None,"desk
",1181.8269431241788,None,return,2.8856130028143525,1181.9102482972667,None,,,,,,,,,,,,,,,,,,,,,,,,,,,,,,,,,,,,,,,171,001,2024_Feb_28_1415,SpeechDraft1Carolyn_lessNoise_PlusLocalization,2021.2.3,60.004200689272594,
bell.wav,bell.mpg,bell,2,A,Pink_Noise_2_1.wav,Pink_Noise_2_2.wav,,,,,,,,,,,,,,,0,70,70,8,,,,,,,,,,,,,,,,,,,,,,,1184.826932610944,None,1186.3433426399715,None,1187.7269265162759,None,failed,1187.7269265162759,None,return,7.281791310291737,1187.8101672180928,None,,,,,,,,,,,,,,,,,,,,,,,,,,,,,,,,,,,,,,,171,001,2024_Feb_28_1415,SpeechDraft1Carolyn_lessNoise_PlusLocalization,2021.2.3,60.004200689272594,
gloom.wav,gloom.mpg,gloom,3,AV,Pink_Noise_3_1.wav,Pink_Noise_3_2.wav,,,,,,,,,,,,,,,0,71,71,106,,,,,,,,,,,,,,,,,,,,,,,1195.1102494620718,None,1196.6099506462924,None,1197.9934448599815,None,glue,1197.9934448599815,None,return,2.0630975519306958,1198.0768356369808,None,,,,,,,,,,,,,,,,,,,,,,,,,,,,,,,,,,,,,,,171,001,2024_Feb_28_1415,SpeechDraft1Carolyn_lessNoise_PlusLocalization,2021.2.3,60.004200689272594,
pipe.wav,pipe.mpg,pipe,5,AV,Pink_Noise_5_1.wav,Pink_Noise_5_2.wav,,,,,,,,,,,,,,,0,72,72,95,,,,,,,,,,,,,,,,,,,,,,,1200.1601705229841,None,1201.660319000017,None,1203.043474575039,None,"paper
",1203.043474575039,None,return,5.652914635371417,1203.1269451761618,None,,,,,,,,,,,,,,,,,,,,,,,,,,,,,,,,,,,,,,,171,001,2024_Feb_28_1415,SpeechDraft1Carolyn_lessNoise_PlusLocalization,2021.2.3,60.004200689272594,
globe.wav,globe.mpg,globe,5,AV,Pink_Noise_5_1.wav,Pink_Noise_5_2.wav,,,,,,,,,,,,,,,0,73,73,61,,,,,,,,,,,,,,,,,,,,,,,1208.8102461402304,None,1210.3266542991623,None,1211.7101850891486,None,"globe
",1211.7101850891486,None,return,11.986249543726444,1211.793609734159,None,,,,,,,,,,,,,,,,,,,,,,,,,,,,,,,,,,,,,,,171,001,2024_Feb_28_1415,SpeechDraft1Carolyn_lessNoise_PlusLocalization,2021.2.3,60.004200689272594,
flea.wav,flea.mpg,flea,3,AV,Pink_Noise_3_1.wav,Pink_Noise_3_2.wav,,,,,,,,,,,,,,,0,74,74,67,,,,,,,,,,,,,,,,,,,,,,,1223.8102945890278,None,1225.326654008124,None,1226.7103413282894,None,flee,1226.7103413282894,None,return,1.6742916898801923,1226.7936719469726,None,,,,,,,,,,,,,,,,,,,,,,,,,,,,,,,,,,,,,,,171,001,2024_Feb_28_1415,SpeechDraft1Carolyn_lessNoise_PlusLocalization,2021.2.3,60.004200689272594,
bite.wav,bite.mpg,bite,6,A,Pink_Noise_6_1.wav,Pink_Noise_6_2.wav,,,,,,,,,,,,,,,0,75,75,46,,,,,,,,,,,,,,,,,,,,,,,1228.4936040751636,None,1230.010001000017,None,1231.3936417130753,None,white,1231.3936417130753,None,return,6.86303181713447,1231.4769145268947,None,,,,,,,,,,,,,,,,,,,,,,,,,,,,,,,,,,,,,,,171,001,2024_Feb_28_1415,SpeechDraft1Carolyn_lessNoise_PlusLocalization,2021.2.3,60.004200689272594,
clutch.wav,clutch.mpg,clutch,6,AV,Pink_Noise_6_1.wav,Pink_Noise_6_2.wav,,,,,,,,,,,,,,,0,76,76,103,,,,,,,,,,,,,,,,,,,,,,,1238.3603412522934,None,1239.860553380102,None,1241.2435799059458,None,"touch
",1241.2435799059458,None,return,6.036814220715314,1241.3270110529847,None,,,,,,,,,,,,,,,,,,,,,,,,,,,,,,,,,,,,,,,171,001,2024_Feb_28_1415,SpeechDraft1Carolyn_lessNoise_PlusLocalization,2021.2.3,60.004200689272594,
deem.wav,deem.mpg,deem,3,AV,Pink_Noise_3_1.wav,Pink_Noise_3_2.wav,,,,,,,,,,,,,,,0,77,77,91,,,,,,,,,,,,,,,,,,,,,,,1247.393643247895,None,1248.9100217348896,None,1250.2937487158924,None,"deem
",1250.2937487158924,None,return,2.2508690198883414,1250.3769944612868,None,,,,,,,,,,,,,,,,,,,,,,,,,,,,,,,,,,,,,,,171,001,2024_Feb_28_1415,SpeechDraft1Carolyn_lessNoise_PlusLocalization,2021.2.3,60.004200689272594,
please.wav,please.mpg,please,1,AV,Pink_Noise_1_1.wav,Pink_Noise_1_2.wav,,,,,,,,,,,,,,,0,78,78,68,,,,,,,,,,,,,,,,,,,,,,,1252.6602921411395,None,1254.1766694881953,None,1255.5435666111298,None,please,1255.5435666111298,None,return,4.840767189860344,1255.6271600481123,None,,,,,,,,,,,,,,,,,,,,,,,,,,,,,,,,,,,,,,,171,001,2024_Feb_28_1415,SpeechDraft1Carolyn_lessNoise_PlusLocalization,2021.2.3,60.004200689272594,
bail.wav,bail.mpg,bail,6,AV,Pink_Noise_6_1.wav,Pink_Noise_6_2.wav,,,,,,,,,,,,,,,0,79,79,64,,,,,,,,,,,,,,,,,,,,,,,1260.4935477650724,None,1262.010034780018,None,1263.3935416592285,None,bell,1263.3935416592285,None,return,2.6069867932237685,1263.4769438351505,None,,,,,,,,,,,,,,,,,,,,,,,,,,,,,,,,,,,,,,,171,001,2024_Feb_28_1415,SpeechDraft1Carolyn_lessNoise_PlusLocalization,2021.2.3,60.004200689272594,
chant.wav,chant.mpg,chant,3,AV,Pink_Noise_3_1.wav,Pink_Noise_3_2.wav,,,,,,,,,,,,,,,0,80,80,63,,,,,,,,,,,,,,,,,,,,,,,1266.1103501371108,None,1267.6268917201087,None,1269.010421993211,None,chaint,1269.010421993211,None,return,6.222262172959745,1269.0936635131948,None,,,,,,,,,,,,,,,,,,,,,,,,,,,,,,,,,,,,,,,171,001,2024_Feb_28_1415,SpeechDraft1Carolyn_lessNoise_PlusLocalization,2021.2.3,60.004200689272594,
cheat.wav,cheat.mpg,cheat,5,AV,Pink_Noise_5_1.wav,Pink_Noise_5_2.wav,,,,,,,,,,,,,,,0,81,81,115,,,,,,,,,,,,,,,,,,,,,,,1275.3436306971125,None,1276.8600286352448,None,1278.243771880865,None,cheese,1278.243771880865,None,return,3.7329811393283308,1278.3269644202664,None,,,,,,,,,,,,,,,,,,,,,,,,,,,,,,,,,,,,,,,171,001,2024_Feb_28_1415,SpeechDraft1Carolyn_lessNoise_PlusLocalization,2021.2.3,60.004200689272594,
none.wav,none.mpg,none,4,AV,Pink_Noise_4_1.wav,Pink_Noise_4_2.wav,,,,,,,,,,,,,,,0,82,82,81,,,,,,,,,,,,,,,,,,,,,,,1282.0770907630213,None,1283.593939776998,None,1284.9769547209144,None,darm,1284.9769547209144,None,return,18.43955239886418,1285.0604487811215,None,,,,,,,,,,,,,,,,,,,,,,,,,,,,,,,,,,,,,,,171,001,2024_Feb_28_1415,SpeechDraft1Carolyn_lessNoise_PlusLocalization,2021.2.3,60.004200689272594,
flash.wav,flash.mpg,flash,3,A,Pink_Noise_3_1.wav,Pink_Noise_3_2.wav,,,,,,,,,,,,,,,0,83,83,57,,,,,,,,,,,,,,,,,,,,,,,1303.5269440938719,None,1305.043497479055,None,1306.42704693228,None,dash,1306.42704693228,None,return,3.7254614401608706,1306.510392113123,None,,,,,,,,,,,,,,,,,,,,,,,,,,,,,,,,,,,,,,,171,001,2024_Feb_28_1415,SpeechDraft1Carolyn_lessNoise_PlusLocalization,2021.2.3,60.004200689272594,
funk.wav,funk.mpg,funk,6,AV,Pink_Noise_6_1.wav,Pink_Noise_6_2.wav,,,,,,,,,,,,,,,0,84,84,98,,,,,,,,,,,,,,,,,,,,,,,1310.2603423530236,None,1311.7935889312066,None,1313.1771443220787,None,funk,1313.1771443220787,None,return,34.83948937105015,1313.260471733287,None,,,,,,,,,,,,,,,,,,,,,,,,,,,,,,,,,,,,,,,171,001,2024_Feb_28_1415,SpeechDraft1Carolyn_lessNoise_PlusLocalization,2021.2.3,60.004200689272594,
fowl.wav,fowl.mpg,fowl,4,AV,Pink_Noise_4_1.wav,Pink_Noise_4_2.wav,,,,,,,,,,,,,,,0,85,85,96,,,,,,,,,,,,,,,,,,,,,,,1348.1271173851565,None,1349.643578720279,None,1351.0272025358863,None,fower,1351.0272025358863,None,return,7.59747760463506,1351.110402141232,None,,,,,,,,,,,,,,,,,,,,,,,,,,,,,,,,,,,,,,,171,001,2024_Feb_28_1415,SpeechDraft1Carolyn_lessNoise_PlusLocalization,2021.2.3,60.004200689272594,
swayed.wav,swayed.mpg,swayed,5,A,Pink_Noise_5_1.wav,Pink_Noise_5_2.wav,,,,,,,,,,,,,,,0,86,86,34,,,,,,,,,,,,,,,,,,,,,,,1358.7271068361588,None,1360.24351038225,None,1361.6272886130027,None,"chase
",1361.6272886130027,None,return,4.485400820150971,1361.7104616272263,None,,,,,,,,,,,,,,,,,,,,,,,,,,,,,,,,,,,,,,,171,001,2024_Feb_28_1415,SpeechDraft1Carolyn_lessNoise_PlusLocalization,2021.2.3,60.004200689272594,
clerk.wav,clerk.mpg,clerk,4,AV,Pink_Noise_4_1.wav,Pink_Noise_4_2.wav,,,,,,,,,,,,,,,0,87,87,80,,,,,,,,,,,,,,,,,,,,,,,1366.2271205498837,None,1367.7435748842545,None,1369.1271516880952,None,cook,1369.1271516880952,None,return,5.945375393144786,1369.2105344082229,None,,,,,,,,,,,,,,,,,,,,,,,,,,,,,,,,,,,,,,,171,001,2024_Feb_28_1415,SpeechDraft1Carolyn_lessNoise_PlusLocalization,2021.2.3,60.004200689272594,
fall.wav,fall.mpg,fall,5,AV,Pink_Noise_5_1.wav,Pink_Noise_5_2.wav,,,,,,,,,,,,,,,0,88,88,110,,,,,,,,,,,,,,,,,,,,,,,1375.17713852413,None,1376.6936114463024,None,1378.077145322226,None,fall,1378.077145322226,None,return,1.8753488878719509,1378.160506804008,None,,,,,,,,,,,,,,,,,,,,,,,,,,,,,,,,,,,,,,,171,001,2024_Feb_28_1415,SpeechDraft1Carolyn_lessNoise_PlusLocalization,2021.2.3,60.004200689272594,
stove.wav,stove.mpg,stove,6,A,Pink_Noise_6_1.wav,Pink_Noise_6_2.wav,,,,,,,,,,,,,,,0,89,89,51,,,,,,,,,,,,,,,,,,,,,,,1380.060663305223,None,1381.576928397175,None,1382.960528081283,None,"steve
",1382.960528081283,None,return,4.503998571075499,1383.0438559572212,None,,,,,,,,,,,,,,,,,,,,,,,,,,,,,,,,,,,,,,,171,001,2024_Feb_28_1415,SpeechDraft1Carolyn_lessNoise_PlusLocalization,2021.2.3,60.004200689272594,
brown.wav,brown.mpg,brown,3,AV,Pink_Noise_3_1.wav,Pink_Noise_3_2.wav,,,,,,,,,,,,,,,0,90,90,93,,,,,,,,,,,,,,,,,,,,,,,1387.5772010888904,None,1389.1102406443097,None,1390.4937341129407,None,brown,1390.4937341129407,None,return,2.4746915511786938,1390.577172684949,None,,,,,,,,,,,,,,,,,,,,,,,,,,,,,,,,,,,,,,,171,001,2024_Feb_28_1415,SpeechDraft1Carolyn_lessNoise_PlusLocalization,2021.2.3,60.004200689272594,
fond.wav,fond.mpg,fond,4,A,Pink_Noise_4_1.wav,Pink_Noise_4_2.wav,,,,,,,,,,,,,,,0,91,91,40,,,,,,,,,,,,,,,,,,,,,,,1393.0772210820578,None,1394.5935258851387,None,1395.97718911618,None,find,1395.97718911618,None,return,3.4713780963793397,1396.0604737089016,None,,,,,,,,,,,,,,,,,,,,,,,,,,,,,,,,,,,,,,,171,001,2024_Feb_28_1415,SpeechDraft1Carolyn_lessNoise_PlusLocalization,2021.2.3,60.004200689272594,
thorn.wav,thorn.mpg,thorn,6,A,Pink_Noise_6_1.wav,Pink_Noise_6_2.wav,,,,,,,,,,,,,,,0,92,92,10,,,,,,,,,,,,,,,,,,,,,,,1399.5604926422238,None,1401.0771415862255,None,1402.4604912982322,None,start,1402.4604912982322,None,return,10.491912398021668,1402.5439170780592,None,,,,,,,,,,,,,,,,,,,,,,,,,,,,,,,,,,,,,,,171,001,2024_Feb_28_1415,SpeechDraft1Carolyn_lessNoise_PlusLocalization,2021.2.3,60.004200689272594,
row.wav,row.mpg,row,1,AV,Pink_Noise_1_1.wav,Pink_Noise_1_2.wav,,,,,,,,,,,,,,,0,93,93,112,,,,,,,,,,,,,,,,,,,,,,,1413.060554615222,None,1414.6106100832112,None,1415.993899715133,None,row,1415.993899715133,None,return,4.326665056869388,1416.0772099671885,None,,,,,,,,,,,,,,,,,,,,,,,,,,,,,,,,,,,,,,,171,001,2024_Feb_28_1415,SpeechDraft1Carolyn_lessNoise_PlusLocalization,2021.2.3,60.004200689272594,
bunch.wav,bunch.mpg,bunch,1,AV,Pink_Noise_1_1.wav,Pink_Noise_1_2.wav,,,,,,,,,,,,,,,0,94,94,118,,,,,,,,,,,,,,,,,,,,,,,1420.4271781928837,None,1421.9602383589372,None,1423.3438135040924,None,bunch,1423.3438135040924,None,return,6.072717473842204,1423.4272264260799,None,,,,,,,,,,,,,,,,,,,,,,,,,,,,,,,,,,,,,,,171,001,2024_Feb_28_1415,SpeechDraft1Carolyn_lessNoise_PlusLocalization,2021.2.3,60.004200689272594,
stain.wav,stain.mpg,stain,4,A,Pink_Noise_4_1.wav,Pink_Noise_4_2.wav,,,,,,,,,,,,,,,0,95,95,49,,,,,,,,,,,,,,,,,,,,,,,1429.5273264502175,None,1431.0436180271208,None,1432.4275156469084,None,"scam
",1432.4275156469084,None,return,6.6851153881289065,1432.5107469982468,None,,,,,,,,,,,,,,,,,,,,,,,,,,,,,,,,,,,,,,,171,001,2024_Feb_28_1415,SpeechDraft1Carolyn_lessNoise_PlusLocalization,2021.2.3,60.004200689272594,
bleed.wav,bleed.mpg,bleed,2,AV,Pink_Noise_2_1.wav,Pink_Noise_2_2.wav,,,,,,,,,,,,,,,0,96,96,84,,,,,,,,,,,,,,,,,,,,,,,1439.2271845662035,None,1440.744886935223,None,1442.1271462859586,None,bleed,1442.1271462859586,None,return,2.641261518932879,1442.2106123790145,None,,,,,,,,,,,,,,,,,,,,,,,,,,,,,,,,,,,,,,,171,001,2024_Feb_28_1415,SpeechDraft1Carolyn_lessNoise_PlusLocalization,2021.2.3,60.004200689272594,
egg.wav,egg.mpg,egg,6,AV,Pink_Noise_6_1.wav,Pink_Noise_6_2.wav,,,,,,,,,,,,,,,0,97,97,113,,,,,,,,,,,,,,,,,,,,,,,1444.877255924046,None,1446.3936646082439,None,1447.777223629877,None,ache,1447.777223629877,None,return,5.5911821983754635,1447.8606397560798,None,,,,,,,,,,,,,,,,,,,,,,,,,,,,,,,,,,,,,,,171,001,2024_Feb_28_1415,SpeechDraft1Carolyn_lessNoise_PlusLocalization,2021.2.3,60.004200689272594,
bomb.wav,bomb.mpg,bomb,3,A,Pink_Noise_3_1.wav,Pink_Noise_3_2.wav,,,,,,,,,,,,,,,0,98,98,24,,,,,,,,,,,,,,,,,,,,,,,1453.4772220281884,None,1454.9935864382423,None,1456.377293705009,None,flower,1456.377293705009,None,return,6.471364139113575,1456.4605531720445,None,,,,,,,,,,,,,,,,,,,,,,,,,,,,,,,,,,,,,,,171,001,2024_Feb_28_1415,SpeechDraft1Carolyn_lessNoise_PlusLocalization,2021.2.3,60.004200689272594,
cloud.wav,cloud.mpg,cloud,1,AV,Pink_Noise_1_1.wav,Pink_Noise_1_2.wav,,,,,,,,,,,,,,,0,99,99,100,,,,,,,,,,,,,,,,,,,,,,,1462.9606657880358,None,1464.4936242871918,None,1465.8771960209124,None,cloud,1465.8771960209124,None,return,5.779295843094587,1465.9605711442418,None,,,,,,,,,,,,,,,,,,,,,,,,,,,,,,,,,,,,,,,171,001,2024_Feb_28_1415,SpeechDraft1Carolyn_lessNoise_PlusLocalization,2021.2.3,60.004200689272594,
base.wav,base.mpg,base,2,AV,Pink_Noise_2_1.wav,Pink_Noise_2_2.wav,,,,,,,,,,,,,,,0,100,100,85,,,,,,,,,,,,,,,,,,,,,,,1471.7605819501914,None,1473.2937060832046,None,1474.6605763942935,None,base,1474.6605763942935,None,return,1.659897293895483,1474.7439754549414,None,,,,,,,,,,,,,,,,,,,,,,,,,,,,,,,,,,,,,,,171,001,2024_Feb_28_1415,SpeechDraft1Carolyn_lessNoise_PlusLocalization,2021.2.3,60.004200689272594,
clot.wav,clot.mpg,clot,1,A,Pink_Noise_1_1.wav,Pink_Noise_1_2.wav,,,,,,,,,,,,,,,0,101,101,22,,,,,,,,,,,,,,,,,,,,,,,1476.4273260240443,None,1477.9604001692496,None,1479.3440460041165,None,crupt,1479.3440460041165,None,return,9.880597528070211,1479.4272736161947,None,,,,,,,,,,,,,,,,,,,,,,,,,,,,,,,,,,,,,,,171,001,2024_Feb_28_1415,SpeechDraft1Carolyn_lessNoise_PlusLocalization,2021.2.3,60.004200689272594,
curl.wav,curl.mpg,curl,2,A,Pink_Noise_2_1.wav,Pink_Noise_2_2.wav,,,,,,,,,,,,,,,0,102,102,25,,,,,,,,,,,,,,,,,,,,,,,1489.3272896301933,None,1490.8770718500018,None,1492.2606776012108,None,curl,1492.2606776012108,None,return,8.923964753281325,1492.3440201990306,None,,,,,,,,,,,,,,,,,,,,,,,,,,,,,,,,,,,,,,,171,001,2024_Feb_28_1415,SpeechDraft1Carolyn_lessNoise_PlusLocalization,2021.2.3,60.004200689272594,
bowl.wav,bowl.mpg,bowl,4,A,Pink_Noise_4_1.wav,Pink_Noise_4_2.wav,,,,,,,,,,,,,,,0,103,103,53,,,,,,,,,,,,,,,,,,,,,,,1501.2939878869802,None,1502.810897378251,None,1504.1939431452192,None,rome,1504.1939431452192,None,return,6.262514148838818,1504.2773922560737,None,,,,,,,,,,,,,,,,,,,,,,,,,,,,,,,,,,,,,,,171,001,2024_Feb_28_1415,SpeechDraft1Carolyn_lessNoise_PlusLocalization,2021.2.3,60.004200689272594,
quit.wav,quit.mpg,quit,5,A,Pink_Noise_5_1.wav,Pink_Noise_5_2.wav,,,,,,,,,,,,,,,0,104,104,42,,,,,,,,,,,,,,,,,,,,,,,1510.5606533773243,None,1512.0939028048888,None,1513.4772493001074,None,quick,1513.4772493001074,None,return,2.347202292177826,1513.5607222691178,None,,,,,,,,,,,,,,,,,,,,,,,,,,,,,,,,,,,,,,,171,001,2024_Feb_28_1415,SpeechDraft1Carolyn_lessNoise_PlusLocalization,2021.2.3,60.004200689272594,
flock.wav,flock.mpg,flock,2,A,Pink_Noise_2_1.wav,Pink_Noise_2_2.wav,,,,,,,,,,,,,,,0,105,105,12,,,,,,,,,,,,,,,,,,,,,,,1515.927286228165,None,1517.4604255142622,None,1518.8439611759968,None,flup,1518.8439611759968,None,return,8.75660527171567,1518.9273444670253,None,,,,,,,,,,,,,,,,,,,,,,,,,,,,,,,,,,,,,,,171,001,2024_Feb_28_1415,SpeechDraft1Carolyn_lessNoise_PlusLocalization,2021.2.3,60.004200689272594,
blunt.wav,blunt.mpg,blunt,3,A,Pink_Noise_3_1.wav,Pink_Noise_3_2.wav,,,,,,,,,,,,,,,0,106,106,7,,,,,,,,,,,,,,,,,,,,,,,1527.7106627421454,None,1529.2438077419065,None,1530.6273335679434,None,what,1530.6273335679434,None,return,5.493162907194346,1530.710690320935,None,,,,,,,,,,,,,,,,,,,,,,,,,,,,,,,,,,,,,,,171,001,2024_Feb_28_1415,SpeechDraft1Carolyn_lessNoise_PlusLocalization,2021.2.3,60.004200689272594,
buff.wav,buff.mpg,buff,5,A,Pink_Noise_5_1.wav,Pink_Noise_5_2.wav,,,,,,,,,,,,,,,0,107,107,52,,,,,,,,,,,,,,,,,,,,,,,1536.2274216283113,None,1537.7938187490217,None,1539.17736983113,None,"cook
",1539.17736983113,None,return,14.167162843048573,1539.2607064419426,None,,,,,,,,,,,,,,,,,,,,,,,,,,,,,,,,,,,,,,,171,001,2024_Feb_28_1415,SpeechDraft1Carolyn_lessNoise_PlusLocalization,2021.2.3,60.004200689272594,
batch.wav,batch.mpg,batch,5,A,Pink_Noise_5_1.wav,Pink_Noise_5_2.wav,,,,,,,,,,,,,,,0,108,108,20,,,,,,,,,,,,,,,,,,,,,,,1553.4606751371175,None,1554.9937819549814,None,1556.3774812659249,None,dash,1556.3774812659249,None,return,1.8471448980271816,1556.4607981969602,None,,,,,,,,,,,,,,,,,,,,,,,,,,,,,,,,,,,,,,,171,001,2024_Feb_28_1415,SpeechDraft1Carolyn_lessNoise_PlusLocalization,2021.2.3,60.004200689272594,
bump.wav,bump.mpg,bump,5,A,Pink_Noise_5_1.wav,Pink_Noise_5_2.wav,,,,,,,,,,,,,,,0,109,109,26,,,,,,,,,,,,,,,,,,,,,,,1558.3274451782927,None,1559.8437730162404,None,1561.227337836288,None,strawberry,1561.227337836288,None,return,7.43701629107818,1561.3108432572335,None,,,,,,,,,,,,,,,,,,,,,,,,,,,,,,,,,,,,,,,171,001,2024_Feb_28_1415,SpeechDraft1Carolyn_lessNoise_PlusLocalization,2021.2.3,60.004200689272594,
coy.wav,coy.mpg,coy,1,AV,Pink_Noise_1_1.wav,Pink_Noise_1_2.wav,,,,,,,,,,,,,,,0,110,110,74,,,,,,,,,,,,,,,,,,,,,,,1568.7774626063183,None,1570.2937886952423,None,1571.6773028019816,None,"coy
",1571.6773028019816,None,return,28.635138120036572,1571.7607218013145,None,,,,,,,,,,,,,,,,,,,,,,,,,,,,,,,,,,,,,,,171,001,2024_Feb_28_1415,SpeechDraft1Carolyn_lessNoise_PlusLocalization,2021.2.3,60.004200689272594,
feast.wav,feast.mpg,feast,1,A,Pink_Noise_1_1.wav,Pink_Noise_1_2.wav,,,,,,,,,,,,,,,0,111,111,45,,,,,,,,,,,,,,,,,,,,,,,1600.4273438099772,None,1601.9605360720307,None,1603.3441486889496,None,feast,1603.3441486889496,None,return,2.2884063171222806,1603.4275027140975,None,,,,,,,,,,,,,,,,,,,,,,,,,,,,,,,,,,,,,,,171,001,2024_Feb_28_1415,SpeechDraft1Carolyn_lessNoise_PlusLocalization,2021.2.3,60.004200689272594,
brief.wav,brief.mpg,brief,3,A,Pink_Noise_3_1.wav,Pink_Noise_3_2.wav,,,,,,,,,,,,,,,0,112,112,0,,,,,,,,,,,,,,,,,,,,,,,1605.7604220639914,None,1607.2943605119362,None,1608.6775064882822,None,"breathe
",1608.6775064882822,None,return,15.187006086111069,1608.7608279082924,None,,,,,,,,,,,,,,,,,,,,,,,,,,,,,,,,,,,,,,,171,001,2024_Feb_28_1415,SpeechDraft1Carolyn_lessNoise_PlusLocalization,2021.2.3,60.004200689272594,
duct.wav,duct.mpg,duct,5,AV,Pink_Noise_5_1.wav,Pink_Noise_5_2.wav,,,,,,,,,,,,,,,0,113,113,88,,,,,,,,,,,,,,,,,,,,,,,1623.9774950752035,None,1625.5272473632358,None,1626.910966411233,None,suck,1626.910966411233,None,return,2.9456723369657993,1626.994201307185,None,,,,,,,,,,,,,,,,,,,,,,,,,,,,,,,,,,,,,,,171,001,2024_Feb_28_1415,SpeechDraft1Carolyn_lessNoise_PlusLocalization,2021.2.3,60.004200689272594,
beer.wav,beer.mpg,beer,3,A,Pink_Noise_3_1.wav,Pink_Noise_3_2.wav,,,,,,,,,,,,,,,0,114,114,27,,,,,,,,,,,,,,,,,,,,,,,1629.960852716118,None,1631.494049942121,None,1632.8775826110505,None,beard,1632.8775826110505,None,return,5.547189168166369,1632.9607743341476,None,,,,,,,,,,,,,,,,,,,,,,,,,,,,,,,,,,,,,,,171,001,2024_Feb_28_1415,SpeechDraft1Carolyn_lessNoise_PlusLocalization,2021.2.3,60.004200689272594,
bean.wav,bean.mpg,bean,2,AV,Pink_Noise_2_1.wav,Pink_Noise_2_2.wav,,,,,,,,,,,,,,,0,115,115,90,,,,,,,,,,,,,,,,,,,,,,,1638.5275401622057,None,1640.093918879982,None,1641.4773427313194,None,beam,1641.4773427313194,None,return,4.147043015807867,1641.5608784160577,None,,,,,,,,,,,,,,,,,,,,,,,,,,,,,,,,,,,,,,,171,001,2024_Feb_28_1415,SpeechDraft1Carolyn_lessNoise_PlusLocalization,2021.2.3,60.004200689272594,
rod.wav,rod.mpg,rod,5,A,Pink_Noise_5_1.wav,Pink_Noise_5_2.wav,,,,,,,,,,,,,,,0,116,116,21,,,,,,,,,,,,,,,,,,,,,,,1645.7275506681763,None,1647.260610178113,None,1648.6442113551311,None,rush,1648.6442113551311,None,return,2.0603341716341674,1648.7275310601108,None,,,,,,,,,,,,,,,,,,,,,,,,,,,,,,,,,,,,,,,171,001,2024_Feb_28_1415,SpeechDraft1Carolyn_lessNoise_PlusLocalization,2021.2.3,60.004200689272594,
file.wav,file.mpg,file,4,A,Pink_Noise_4_1.wav,Pink_Noise_4_2.wav,,,,,,,,,,,,,,,0,117,117,18,,,,,,,,,,,,,,,,,,,,,,,1650.8109176969156,None,1652.3273542891257,None,1653.7109593572095,None,file,1653.7109593572095,None,return,1.8575583193451166,1653.7942896261811,None,,,,,,,,,,,,,,,,,,,,,,,,,,,,,,,,,,,,,,,171,001,2024_Feb_28_1415,SpeechDraft1Carolyn_lessNoise_PlusLocalization,2021.2.3,60.004200689272594,
nice.wav,nice.mpg,nice,4,A,Pink_Noise_4_1.wav,Pink_Noise_4_2.wav,,,,,,,,,,,,,,,0,118,118,28,,,,,,,,,,,,,,,,,,,,,,,1655.6775394240394,None,1657.1939651858993,None,1658.5777328619733,None,next,1658.5777328619733,None,return,1.3830689638853073,1658.6608639480546,None,,,,,,,,,,,,,,,,,,,,,,,,,,,,,,,,,,,,,,,171,001,2024_Feb_28_1415,SpeechDraft1Carolyn_lessNoise_PlusLocalization,2021.2.3,60.004200689272594,
film.wav,film.mpg,film,2,A,Pink_Noise_2_1.wav,Pink_Noise_2_2.wav,,,,,,,,,,,,,,,0,119,119,58,,,,,,,,,,,,,,,,,,,,,,,1660.0608564321883,None,1661.5771514852531,None,1662.9609517143108,None,filled,1662.9609517143108,None,return,4.68759110243991,1663.0442693089135,None,,,,,,,,,,,,,,,,,,,,,,,,,,,,,,,,,,,,,,,171,001,2024_Feb_28_1415,SpeechDraft1Carolyn_lessNoise_PlusLocalization,2021.2.3,60.004200689272594,
,,,,,,,,,,,,,,,,,,,,,,,,,,,,,,,,,,,,,,,,,,,,,,,,,,,,,,,,,,,,,,,,,,space,29.04704053606838,1667.860909842886,None,,,,,,,,,,,,,,,,,,,,,,,,,,,,,171,001,2024_Feb_28_1415,SpeechDraft1Carolyn_lessNoise_PlusLocalization,2021.2.3,60.004200689272594,
,,,,,,,,farRight,19.1,4,ch1Sound_localizationTask.wav,19.1,"(1237, 878)","(277,-202)",285,-338,,,,,,,,,0,0,0,6,,,,,,,,,,,,,,,,,,,,,,,,,,,,,,,,,,,,,,,,,,1667.860909842886,None,1696.9440602101386,None,1698.0607069190592,None,1698.9774436443113,None,1.3333333333333333,3.669410307891667,1698.9774436443113,None,,,,,,,,,,,,,,,,,171,001,2024_Feb_28_1415,SpeechDraft1Carolyn_lessNoise_PlusLocalization,2021.2.3,60.004200689272594,
,,,,,,,,farLeft,-19.1,5,ch1Sound_localizationTask.wav,-19.1,"(667, 878)","(-293,-202)",-285,-338,,,,,,,,,0,1,1,0,,,,,,,,,,,,,,,,,,,,,,,,,,,,,,,,,,,,,,,,,,,,1702.6454272912815,None,1703.7606694819406,None,1704.6774122770876,None,1.0793650793650793,1.7497622151859105,1704.6774122770876,None,,,,,,,,,,,,,,,,,171,001,2024_Feb_28_1415,SpeechDraft1Carolyn_lessNoise_PlusLocalization,2021.2.3,60.004200689272594,
,,,,,,,,midRight,13.0,3,ch1Sound_localizationTask.wav,13.0,"(1142, 878)","(182, -202)",190,-338,,,,,,,,,0,2,2,5,,,,,,,,,,,,,,,,,,,,,,,,,,,,,,,,,,,,,,,,,,,,1706.4280526600778,None,1707.5273177591152,None,1708.4607732780278,None,1.9,1.8333712699823081,1708.4607732780278,None,,,,,,,,,,,,,,,,,171,001,2024_Feb_28_1415,SpeechDraft1Carolyn_lessNoise_PlusLocalization,2021.2.3,60.004200689272594,
,,,,,,,,midLeft,-13.0,2,ch1Sound_localizationTask.wav,-13.0,"(762, 878)","(-198,-202)",-190,-338,,,,,,,,,0,3,3,1,,,,,,,,,,,,,,,,,,,,,,,,,,,,,,,,,,,,,,,,,,,,1710.2945339689031,None,1711.394028807059,None,1712.3274516882375,None,1.3412698412698414,1.8831414710730314,1712.3274516882375,None,,,,,,,,,,,,,,,,,171,001,2024_Feb_28_1415,SpeechDraft1Carolyn_lessNoise_PlusLocalization,2021.2.3,60.004200689272594,
,,,,,,,,center,0.0,6,ch1Sound_localizationTask.wav,0.0,"(952, 878)","(-8,-202)",0,-338,,,,,,,,,0,4,4,3,,,,,,,,,,,,,,,,,,,,,,,,,,,,,,,,,,,,,,,,,,,,1714.211257494986,None,1715.3106471532956,None,1716.2440748200752,None,1.6433862433862434,0.9327862639911473,1716.2440748200752,None,,,,,,,,,,,,,,,,,171,001,2024_Feb_28_1415,SpeechDraft1Carolyn_lessNoise_PlusLocalization,2021.2.3,60.004200689272594,
,,,,,,,,nearLeft,-6.5,1,ch1Sound_localizationTask.wav,-6.5,"(857, 878)","(-103,-202)",-95,-338,,,,,,,,,0,5,5,2,,,,,,,,,,,,,,,,,,,,,,,,,,,,,,,,,,,,,,,,,,,,1717.1776779489592,None,1718.2772028339095,None,1719.2107723900117,None,1.4296296296296296,1.0328945382498205,1719.2107723900117,None,,,,,,,,,,,,,,,,,171,001,2024_Feb_28_1415,SpeechDraft1Carolyn_lessNoise_PlusLocalization,2021.2.3,60.004200689272594,
,,,,,,,,farLeft,-19.1,5,ch1Sound_localizationTask.wav,-19.1,"(667, 878)","(-293,-202)",-285,-338,,,,,,,,,0,6,6,0,,,,,,,,,,,,,,,,,,,,,,,,,,,,,,,,,,,,,,,,,,,,1720.2443609461188,None,1721.344023739919,None,1722.277412018273,None,1.234920634920635,0.8829083619639277,1722.277412018273,None,,,,,,,,,,,,,,,,,171,001,2024_Feb_28_1415,SpeechDraft1Carolyn_lessNoise_PlusLocalization,2021.2.3,60.004200689272594,
,,,,,,,,nearLeft,-6.5,1,ch1Sound_localizationTask.wav,-6.5,"(857, 878)","(-103,-202)",-95,-338,,,,,,,,,1,0,7,2,,,,,,,,,,,,,,,,,,,,,,,,,,,,,,,,,,,,,,,,,,,,1723.161084946245,None,1724.2606834461913,None,1725.1940826880746,None,1.4164021164021166,1.100600905250758,1725.1940826880746,None,,,,,,,,,,,,,,,,,171,001,2024_Feb_28_1415,SpeechDraft1Carolyn_lessNoise_PlusLocalization,2021.2.3,60.004200689272594,
,,,,,,,,farRight,19.1,4,ch1Sound_localizationTask.wav,19.1,"(1237, 878)","(277,-202)",285,-338,,,,,,,,,1,1,8,6,,,,,,,,,,,,,,,,,,,,,,,,,,,,,,,,,,,,,,,,,,,,1726.2946812082082,None,1727.3939705551602,None,1728.3273540250957,None,1.7624338624338625,0.9171236259862781,1728.3273540250957,None,,,,,,,,,,,,,,,,,171,001,2024_Feb_28_1415,SpeechDraft1Carolyn_lessNoise_PlusLocalization,2021.2.3,60.004200689272594,
,,,,,,,,midLeft,-13.0,2,ch1Sound_localizationTask.wav,-13.0,"(762, 878)","(-198,-202)",-190,-338,,,,,,,,,1,2,9,1,,,,,,,,,,,,,,,,,,,,,,,,,,,,,,,,,,,,,,,,,,,,1729.2447475190274,None,1730.3440942158923,None,1731.2774853832088,None,1.3095238095238095,1.5508648669347167,1731.2774853832088,None,,,,,,,,,,,,,,,,,171,001,2024_Feb_28_1415,SpeechDraft1Carolyn_lessNoise_PlusLocalization,2021.2.3,60.004200689272594,
,,,,,,,,nearLeft,-6.5,1,ch1Sound_localizationTask.wav,-6.5,"(857, 878)","(-103,-202)",-95,-338,,,,,,,,,1,3,10,2,,,,,,,,,,,,,,,,,,,,,,,,,,,,,,,,,,,,,,,,,,,,1732.844256086275,None,1733.944038135931,None,1734.8774052718654,None,1.508994708994709,0.665852481033653,1734.8774052718654,None,,,,,,,,,,,,,,,,,171,001,2024_Feb_28_1415,SpeechDraft1Carolyn_lessNoise_PlusLocalization,2021.2.3,60.004200689272594,
,,,,,,,,center,0.0,6,ch1Sound_localizationTask.wav,0.0,"(952, 878)","(-8,-202)",0,-338,,,,,,,,,1,4,11,3,,,,,,,,,,,,,,,,,,,,,,,,,,,,,,,,,,,,,,,,,,,,1735.5443396531045,None,1736.6441363850608,None,1737.5773054109886,None,1.5497354497354499,0.6999095808714628,1737.5773054109886,None,,,,,,,,,,,,,,,,,171,001,2024_Feb_28_1415,SpeechDraft1Carolyn_lessNoise_PlusLocalization,2021.2.3,60.004200689272594,
,,,,,,,,midRight,13.0,3,ch1Sound_localizationTask.wav,13.0,"(1142, 878)","(182, -202)",190,-338,,,,,,,,,1,5,12,5,,,,,,,,,,,,,,,,,,,,,,,,,,,,,,,,,,,,,,,,,,,,1738.2779006822966,None,1739.3774225502275,None,1740.3107461552136,None,1.7439153439153439,0.699299672152847,1740.3107461552136,None,,,,,,,,,,,,,,,,,171,001,2024_Feb_28_1415,SpeechDraft1Carolyn_lessNoise_PlusLocalization,2021.2.3,60.004200689272594,
,,,,,,,,farRight,19.1,4,ch1Sound_localizationTask.wav,19.1,"(1237, 878)","(277,-202)",285,-338,,,,,,,,,1,6,13,6,,,,,,,,,,,,,,,,,,,,,,,,,,,,,,,,,,,,,,,,,,,,1741.0110823139548,None,1742.1106939893216,None,1743.0444802138954,None,1.8095238095238095,0.7471472048200667,1743.0444802138954,None,,,,,,,,,,,,,,,,,171,001,2024_Feb_28_1415,SpeechDraft1Carolyn_lessNoise_PlusLocalization,2021.2.3,60.004200689272594,
,,,,,,,,center,0.0,6,ch1Sound_localizationTask.wav,0.0,"(952, 878)","(-8,-202)",0,-338,,,,,,,,,2,0,14,3,,,,,,,,,,,,,,,,,,,,,,,,,,,,,,,,,,,,,,,,,,,,1743.8109757779166,None,1744.9108451493084,None,1745.8441102472134,None,1.4825396825396826,0.93286137515679,1745.8441102472134,None,,,,,,,,,,,,,,,,,171,001,2024_Feb_28_1415,SpeechDraft1Carolyn_lessNoise_PlusLocalization,2021.2.3,60.004200689272594,
,,,,,,,,nearRight,6.5,0,ch1Sound_localizationTask.wav,6.5,"(1047, 878)","(87, -202)",95,-338,,,,,,,,,2,1,15,4,,,,,,,,,,,,,,,,,,,,,,,,,,,,,,,,,,,,,,,,,,,,1746.7777164331637,None,1747.8774479292333,None,1748.8106979629956,None,1.6761904761904762,0.6154800159856677,1748.8106979629956,None,,,,,,,,,,,,,,,,,171,001,2024_Feb_28_1415,SpeechDraft1Carolyn_lessNoise_PlusLocalization,2021.2.3,60.004200689272594,
,,,,,,,,farRight,19.1,4,ch1Sound_localizationTask.wav,19.1,"(1237, 878)","(277,-202)",285,-338,,,,,,,,,2,2,16,6,,,,,,,,,,,,,,,,,,,,,,,,,,,,,,,,,,,,,,,,,,,,1749.4276494588703,None,1750.5274294791743,None,1751.4607713422738,None,1.8634920634920635,0.9807407730259001,1751.4607713422738,None,,,,,,,,,,,,,,,,,171,001,2024_Feb_28_1415,SpeechDraft1Carolyn_lessNoise_PlusLocalization,2021.2.3,60.004200689272594,
,,,,,,,,farLeft,-19.1,5,ch1Sound_localizationTask.wav,-19.1,"(667, 878)","(-293,-202)",-285,-338,,,,,,,,,2,3,17,0,,,,,,,,,,,,,,,,,,,,,,,,,,,,,,,,,,,,,,,,,,,,1752.4443902499042,None,1753.544135666918,None,1754.4774158992805,None,1.2862433862433862,0.9834070252254605,1754.4774158992805,None,,,,,,,,,,,,,,,,,171,001,2024_Feb_28_1415,SpeechDraft1Carolyn_lessNoise_PlusLocalization,2021.2.3,60.004200689272594,
,,,,,,,,nearRight,6.5,0,ch1Sound_localizationTask.wav,6.5,"(1047, 878)","(87, -202)",95,-338,,,,,,,,,2,4,18,4,,,,,,,,,,,,,,,,,,,,,,,,,,,,,,,,,,,,,,,,,,,,1755.4614405571483,None,1756.5607405370101,None,1757.494054341223,None,1.6275132275132276,1.2159106084145606,1757.494054341223,None,,,,,,,,,,,,,,,,,171,001,2024_Feb_28_1415,SpeechDraft1Carolyn_lessNoise_PlusLocalization,2021.2.3,60.004200689272594,
,,,,,,,,center,0.0,6,ch1Sound_localizationTask.wav,0.0,"(952, 878)","(-8,-202)",0,-338,,,,,,,,,2,5,19,3,,,,,,,,,,,,,,,,,,,,,,,,,,,,,,,,,,,,,,,,,,,,1758.7111918819137,None,1759.81073999824,None,1760.74400569126,None,1.546031746031746,0.6985491099767387,1760.74400569126,None,,,,,,,,,,,,,,,,,171,001,2024_Feb_28_1415,SpeechDraft1Carolyn_lessNoise_PlusLocalization,2021.2.3,60.004200689272594,
,,,,,,,,farLeft,-19.1,5,ch1Sound_localizationTask.wav,-19.1,"(667, 878)","(-293,-202)",-285,-338,,,,,,,,,2,6,20,0,,,,,,,,,,,,,,,,,,,,,,,,,,,,,,,,,,,,,,,,,,,,1761.4442977309227,None,1762.5441540619358,None,1763.477481879294,None,1.2576719576719577,0.6819271291606128,1763.477481879294,None,,,,,,,,,,,,,,,,,171,001,2024_Feb_28_1415,SpeechDraft1Carolyn_lessNoise_PlusLocalization,2021.2.3,60.004200689272594,
,,,,,,,,nearRight,6.5,0,ch1Sound_localizationTask.wav,6.5,"(1047, 878)","(87, -202)",95,-338,,,,,,,,,3,0,21,4,,,,,,,,,,,,,,,,,,,,,,,,,,,,,,,,,,,,,,,,,,,,1764.1611263751984,None,1765.2607243862003,None,1766.1940933130682,None,1.591005291005291,0.8995159156620502,1766.1940933130682,None,,,,,,,,,,,,,,,,,171,001,2024_Feb_28_1415,SpeechDraft1Carolyn_lessNoise_PlusLocalization,2021.2.3,60.004200689272594,
,,,,,,,,farLeft,-19.1,5,ch1Sound_localizationTask.wav,-19.1,"(667, 878)","(-293,-202)",-285,-338,,,,,,,,,3,1,22,0,,,,,,,,,,,,,,,,,,,,,,,,,,,,,,,,,,,,,,,,,,,,1767.0946536380798,None,1768.1941922041588,None,1769.1275670072064,None,1.3005291005291006,0.7163364989683032,1769.1275670072064,None,,,,,,,,,,,,,,,,,171,001,2024_Feb_28_1415,SpeechDraft1Carolyn_lessNoise_PlusLocalization,2021.2.3,60.004200689272594,
,,,,,,,,farRight,19.1,4,ch1Sound_localizationTask.wav,19.1,"(1237, 878)","(277,-202)",285,-338,,,,,,,,,3,2,23,6,,,,,,,,,,,,,,,,,,,,,,,,,,,,,,,,,,,,,,,,,,,,1769.8446843321435,None,1770.9441327461973,None,1771.8775488720275,None,1.753968253968254,0.832386467140168,1771.8775488720275,None,,,,,,,,,,,,,,,,,171,001,2024_Feb_28_1415,SpeechDraft1Carolyn_lessNoise_PlusLocalization,2021.2.3,60.004200689272594,
,,,,,,,,nearLeft,-6.5,1,ch1Sound_localizationTask.wav,-6.5,"(857, 878)","(-103,-202)",-95,-338,,,,,,,,,3,3,24,2,,,,,,,,,,,,,,,,,,,,,,,,,,,,,,,,,,,,,,,,,,,,1772.711209080182,None,1773.8108165352605,None,1774.7440095469356,None,1.380952380952381,0.8166721742600203,1774.7440095469356,None,,,,,,,,,,,,,,,,,171,001,2024_Feb_28_1415,SpeechDraft1Carolyn_lessNoise_PlusLocalization,2021.2.3,60.004200689272594,
,,,,,,,,midRight,13.0,3,ch1Sound_localizationTask.wav,13.0,"(1142, 878)","(182, -202)",190,-338,,,,,,,,,3,4,25,5,,,,,,,,,,,,,,,,,,,,,,,,,,,,,,,,,,,,,,,,,,,,1775.561056917999,None,1776.6608444219455,None,1777.594027174171,None,1.6513227513227513,0.9334426238201559,1777.594027174171,None,,,,,,,,,,,,,,,,,171,001,2024_Feb_28_1415,SpeechDraft1Carolyn_lessNoise_PlusLocalization,2021.2.3,60.004200689272594,
,,,,,,,,center,0.0,6,ch1Sound_localizationTask.wav,0.0,"(952, 878)","(-8,-202)",0,-338,,,,,,,,,3,5,26,3,,,,,,,,,,,,,,,,,,,,,,,,,,,,,,,,,,,,,,,,,,,,1778.5282653891481,None,1779.6276036482304,None,1780.5608844868839,None,1.5164021164021164,0.8661791039630771,1780.5608844868839,None,,,,,,,,,,,,,,,,,171,001,2024_Feb_28_1415,SpeechDraft1Carolyn_lessNoise_PlusLocalization,2021.2.3,60.004200689272594,
,,,,,,,,farLeft,-19.1,5,ch1Sound_localizationTask.wav,-19.1,"(667, 878)","(-293,-202)",-285,-338,,,,,,,,,3,6,27,0,,,,,,,,,,,,,,,,,,,,,,,,,,,,,,,,,,,,,,,,,,,,1781.4279236500151,None,1782.5274233510718,None,1783.4608386228792,None,1.271957671957672,0.5822587260045111,1783.4608386228792,None,,,,,,,,,,,,,,,,,171,001,2024_Feb_28_1415,SpeechDraft1Carolyn_lessNoise_PlusLocalization,2021.2.3,60.004200689272594,
,,,,,,,,center,0.0,6,ch1Sound_localizationTask.wav,0.0,"(952, 878)","(-8,-202)",0,-338,,,,,,,,,4,0,28,3,,,,,,,,,,,,,,,,,,,,,,,,,,,,,,,,,,,,,,,,,,,,1784.0444901119918,None,1785.144022549037,None,1786.0774730481207,None,1.516931216931217,0.6660922379232943,1786.0774730481207,None,,,,,,,,,,,,,,,,,171,001,2024_Feb_28_1415,SpeechDraft1Carolyn_lessNoise_PlusLocalization,2021.2.3,60.004200689272594,
,,,,,,,,midRight,13.0,3,ch1Sound_localizationTask.wav,13.0,"(1142, 878)","(182, -202)",190,-338,,,,,,,,,4,1,29,5,,,,,,,,,,,,,,,,,,,,,,,,,,,,,,,,,,,,,,,,,,,,1786.7448339881375,None,1787.844068176113,None,1788.777558218222,None,1.6783068783068784,1.0668381219729781,1788.777558218222,None,,,,,,,,,,,,,,,,,171,001,2024_Feb_28_1415,SpeechDraft1Carolyn_lessNoise_PlusLocalization,2021.2.3,60.004200689272594,
,,,,,,,,farLeft,-19.1,5,ch1Sound_localizationTask.wav,-19.1,"(667, 878)","(-293,-202)",-285,-338,,,,,,,,,4,2,30,0,,,,,,,,,,,,,,,,,,,,,,,,,,,,,,,,,,,,,,,,,,,,1789.84470061725,None,1790.944246917963,None,1791.8775353981182,None,1.298941798941799,1.3995937118306756,1791.8775353981182,None,,,,,,,,,,,,,,,,,171,001,2024_Feb_28_1415,SpeechDraft1Carolyn_lessNoise_PlusLocalization,2021.2.3,60.004200689272594,
,,,,,,,,midLeft,-13.0,2,ch1Sound_localizationTask.wav,-13.0,"(762, 878)","(-198,-202)",-190,-338,,,,,,,,,4,3,31,1,,,,,,,,,,,,,,,,,,,,,,,,,,,,,,,,,,,,,,,,,,,,1793.2779518342577,None,1794.3774877050892,None,1795.310965047218,None,1.3656084656084655,0.7498600711114705,1795.310965047218,None,,,,,,,,,,,,,,,,,171,001,2024_Feb_28_1415,SpeechDraft1Carolyn_lessNoise_PlusLocalization,2021.2.3,60.004200689272594,
,,,,,,,,midLeft,-13.0,2,ch1Sound_localizationTask.wav,-13.0,"(762, 878)","(-198,-202)",-190,-338,,,,,,,,,4,4,32,1,,,,,,,,,,,,,,,,,,,,,,,,,,,,,,,,,,,,,,,,,,,,1796.0613275910728,None,1797.160802633036,None,1798.0941414688714,None,1.33015873015873,0.7161746420897543,1798.0941414688714,None,,,,,,,,,,,,,,,,,171,001,2024_Feb_28_1415,SpeechDraft1Carolyn_lessNoise_PlusLocalization,2021.2.3,60.004200689272594,
,,,,,,,,midLeft,-13.0,2,ch1Sound_localizationTask.wav,-13.0,"(762, 878)","(-198,-202)",-190,-338,,,,,,,,,4,5,33,1,,,,,,,,,,,,,,,,,,,,,,,,,,,,,,,,,,,,,,,,,,,,1798.827804991044,None,1799.9274768088944,None,1800.8442011349835,None,1.33015873015873,0.48338772216811776,1800.8442011349835,None,,,,,,,,,,,,,,,,,171,001,2024_Feb_28_1415,SpeechDraft1Carolyn_lessNoise_PlusLocalization,2021.2.3,60.004200689272594,
,,,,,,,,farRight,19.1,4,ch1Sound_localizationTask.wav,19.1,"(1237, 878)","(277,-202)",285,-338,,,,,,,,,4,6,34,6,,,,,,,,,,,,,,,,,,,,,,,,,,,,,,,,,,,,,,,,,,,,1801.3280094270594,None,1802.4275006093085,None,1803.3608902138658,None,1.773015873015873,1.6483488618396223,1803.3608902138658,None,,,,,,,,,,,,,,,,,171,001,2024_Feb_28_1415,SpeechDraft1Carolyn_lessNoise_PlusLocalization,2021.2.3,60.004200689272594,
,,,,,,,,midLeft,-13.0,2,ch1Sound_localizationTask.wav,-13.0,"(762, 878)","(-198,-202)",-190,-338,,,,,,,,,5,0,35,1,,,,,,,,,,,,,,,,,,,,,,,,,,,,,,,,,,,,,,,,,,,,1805.011001393199,None,1806.1108400751837,None,1807.044125452172,None,1.3058201058201058,1.165514858905226,1807.044125452172,None,,,,,,,,,,,,,,,,,171,001,2024_Feb_28_1415,SpeechDraft1Carolyn_lessNoise_PlusLocalization,2021.2.3,60.004200689272594,
,,,,,,,,midLeft,-13.0,2,ch1Sound_localizationTask.wav,-13.0,"(762, 878)","(-198,-202)",-190,-338,,,,,,,,,5,1,36,1,,,,,,,,,,,,,,,,,,,,,,,,,,,,,,,,,,,,,,,,,,,,1808.211055953987,None,1809.3108565071598,None,1810.244350390043,None,1.282010582010582,0.8001082339324057,1810.244350390043,None,,,,,,,,,,,,,,,,,171,001,2024_Feb_28_1415,SpeechDraft1Carolyn_lessNoise_PlusLocalization,2021.2.3,60.004200689272594,
,,,,,,,,nearRight,6.5,0,ch1Sound_localizationTask.wav,6.5,"(1047, 878)","(87, -202)",95,-338,,,,,,,,,5,2,37,4,,,,,,,,,,,,,,,,,,,,,,,,,,,,,,,,,,,,,,,,,,,,1811.044900082983,None,1812.144253701903,None,1813.077583055012,None,1.6306878306878307,1.1494682719931006,1813.077583055012,None,,,,,,,,,,,,,,,,,171,001,2024_Feb_28_1415,SpeechDraft1Carolyn_lessNoise_PlusLocalization,2021.2.3,60.004200689272594,
,,,,,,,,nearLeft,-6.5,1,ch1Sound_localizationTask.wav,-6.5,"(857, 878)","(-103,-202)",-95,-338,,,,,,,,,5,3,38,2,,,,,,,,,,,,,,,,,,,,,,,,,,,,,,,,,,,,,,,,,,,,1814.2283059949987,None,1815.3275147010572,None,1816.2610357538797,None,1.3825396825396825,0.7482762951403856,1816.2610357538797,None,,,,,,,,,,,,,,,,,171,001,2024_Feb_28_1415,SpeechDraft1Carolyn_lessNoise_PlusLocalization,2021.2.3,60.004200689272594,
,,,,,,,,center,0.0,6,ch1Sound_localizationTask.wav,0.0,"(952, 878)","(-8,-202)",0,-338,,,,,,,,,5,4,39,3,,,,,,,,,,,,,,,,,,,,,,,,,,,,,,,,,,,,,,,,,,,,1817.0111547713168,None,1818.1109581002966,None,1819.0441030822694,None,1.560846560846561,1.182065887376666,1819.0441030822694,None,,,,,,,,,,,,,,,,,171,001,2024_Feb_28_1415,SpeechDraft1Carolyn_lessNoise_PlusLocalization,2021.2.3,60.004200689272594,
,,,,,,,,farRight,19.1,4,ch1Sound_localizationTask.wav,19.1,"(1237, 878)","(277,-202)",285,-338,,,,,,,,,5,5,40,6,,,,,,,,,,,,,,,,,,,,,,,,,,,,,,,,,,,,,,,,,,,,1820.2280044802465,None,1821.3275237069465,None,1822.2608506958932,None,1.747089947089947,0.6655933652073145,1822.2608506958932,None,,,,,,,,,,,,,,,,,171,001,2024_Feb_28_1415,SpeechDraft1Carolyn_lessNoise_PlusLocalization,2021.2.3,60.004200689272594,
,,,,,,,,nearRight,6.5,0,ch1Sound_localizationTask.wav,6.5,"(1047, 878)","(87, -202)",95,-338,,,,,,,,,5,6,41,4,,,,,,,,,,,,,,,,,,,,,,,,,,,,,,,,,,,,,,,,,,,,1822.927886261139,None,1824.0275534843095,None,1824.9608659022488,None,1.6280423280423282,0.6826209388673306,1824.9608659022488,None,,,,,,,,,,,,,,,,,171,001,2024_Feb_28_1415,SpeechDraft1Carolyn_lessNoise_PlusLocalization,2021.2.3,60.004200689272594,
,,,,,,,,nearLeft,-6.5,1,ch1Sound_localizationTask.wav,-6.5,"(857, 878)","(-103,-202)",-95,-338,,,,,,,,,6,0,42,2,,,,,,,,,,,,,,,,,,,,,,,,,,,,,,,,,,,,,,,,,,,,1825.6447494858876,None,1826.7441606032662,None,1827.6775447311811,None,1.4126984126984126,0.7328451061621308,1827.6775447311811,None,,,,,,,,,,,,,,,,,171,001,2024_Feb_28_1415,SpeechDraft1Carolyn_lessNoise_PlusLocalization,2021.2.3,60.004200689272594,
,,,,,,,,center,0.0,6,ch1Sound_localizationTask.wav,0.0,"(952, 878)","(-8,-202)",0,-338,,,,,,,,,6,1,43,3,,,,,,,,,,,,,,,,,,,,,,,,,,,,,,,,,,,,,,,,,,,,1828.4111324092373,None,1829.5109474891797,None,1830.4441544013098,None,1.561904761904762,0.9826305927708745,1830.4441544013098,None,,,,,,,,,,,,,,,,,171,001,2024_Feb_28_1415,SpeechDraft1Carolyn_lessNoise_PlusLocalization,2021.2.3,60.004200689272594,
,,,,,,,,midRight,13.0,3,ch1Sound_localizationTask.wav,13.0,"(1142, 878)","(182, -202)",190,-338,,,,,,,,,6,2,44,5,,,,,,,,,,,,,,,,,,,,,,,,,,,,,,,,,,,,,,,,,,,,1831.4277553092688,None,1832.5273840059526,None,1833.4608377311379,None,1.7074074074074075,0.7155542569234967,1833.4608377311379,None,,,,,,,,,,,,,,,,,171,001,2024_Feb_28_1415,SpeechDraft1Carolyn_lessNoise_PlusLocalization,2021.2.3,60.004200689272594,
,,,,,,,,midRight,13.0,3,ch1Sound_localizationTask.wav,13.0,"(1142, 878)","(182, -202)",190,-338,,,,,,,,,6,3,45,5,,,,,,,,,,,,,,,,,,,,,,,,,,,,,,,,,,,,,,,,,,,,1834.17788900109,None,1835.2776075219736,None,1836.2109488178976,None,1.6544973544973545,0.6156720379367471,1836.2109488178976,None,,,,,,,,,,,,,,,,,171,001,2024_Feb_28_1415,SpeechDraft1Carolyn_lessNoise_PlusLocalization,2021.2.3,60.004200689272594,
,,,,,,,,nearRight,6.5,0,ch1Sound_localizationTask.wav,6.5,"(1047, 878)","(87, -202)",95,-338,,,,,,,,,6,4,46,4,,,,,,,,,,,,,,,,,,,,,,,,,,,,,,,,,,,,,,,,,,,,1836.8283141031861,None,1837.927586785052,None,1838.860991760157,None,1.5846560846560847,0.5828822259791195,1838.860991760157,None,,,,,,,,,,,,,,,,,171,001,2024_Feb_28_1415,SpeechDraft1Carolyn_lessNoise_PlusLocalization,2021.2.3,60.004200689272594,
,,,,,,,,midRight,13.0,3,ch1Sound_localizationTask.wav,13.0,"(1142, 878)","(182, -202)",190,-338,,,,,,,,,6,5,47,5,,,,,,,,,,,,,,,,,,,,,,,,,,,,,,,,,,,,,,,,,,,,1839.4445151770487,None,1840.5441636401229,None,1841.4775803959928,None,1.6682539682539683,0.5501368478871882,1841.4775803959928,None,,,,,,,,,,,,,,,,,171,001,2024_Feb_28_1415,SpeechDraft1Carolyn_lessNoise_PlusLocalization,2021.2.3,60.004200689272594,
,,,,,,,,nearLeft,-6.5,1,ch1Sound_localizationTask.wav,-6.5,"(857, 878)","(-103,-202)",-95,-338,,,,,,,,,6,6,48,2,,,,,,,,,,,,,,,,,,,,,,,,,,,,,,,,,,,,,,,,,,,,1842.028415007051,None,1843.1275714021176,None,1844.0609148540534,None,1.4105820105820106,0.6665166281163692,1844.0609148540534,None,,,,,,,,,,,,,,,,,171,001,2024_Feb_28_1415,SpeechDraft1Carolyn_lessNoise_PlusLocalization,2021.2.3,60.004200689272594,
,,,,,,,,nearRight,6.5,0,ch1Sound_localizationTask.wav,6.5,"(1047, 878)","(87, -202)",95,-338,,,,,,,,,7,0,49,4,,,,,,,,,,,,,,,,,,,,,,,,,,,,,,,,,,,,,,,,,,,,1844.728031201288,None,1845.8274700460024,None,1846.7608699118719,None,1.6365079365079365,0.6647987589240074,1846.7608699118719,None,,,,,,,,,,,,,,,,,171,001,2024_Feb_28_1415,SpeechDraft1Carolyn_lessNoise_PlusLocalization,2021.2.3,60.004200689272594,
,,,,,,,,nearLeft,-6.5,1,ch1Sound_localizationTask.wav,-6.5,"(857, 878)","(-103,-202)",-95,-338,,,,,,,,,7,1,50,2,,,,,,,,,,,,,,,,,,,,,,,,,,,,,,,,,,,,,,,,,,,,1847.4278304241598,None,1848.5276038902812,None,1849.460883477237,None,1.4232804232804233,0.5653295461088419,1849.460883477237,None,,,,,,,,,,,,,,,,,171,001,2024_Feb_28_1415,SpeechDraft1Carolyn_lessNoise_PlusLocalization,2021.2.3,60.004200689272594,
,,,,,,,,farRight,19.1,4,ch1Sound_localizationTask.wav,19.1,"(1237, 878)","(277,-202)",285,-338,,,,,,,,,7,2,51,6,,,,,,,,,,,,,,,,,,,,,,,,,,,,,,,,,,,,,,,,,,,,1850.0278050932102,None,1851.1275209221058,None,1852.0608435571194,None,1.817989417989418,0.5828945999965072,1852.0608435571194,None,,,,,,,,,,,,,,,,,171,001,2024_Feb_28_1415,SpeechDraft1Carolyn_lessNoise_PlusLocalization,2021.2.3,60.004200689272594,
,,,,,,,,farLeft,-19.1,5,ch1Sound_localizationTask.wav,-19.1,"(667, 878)","(-293,-202)",-285,-338,,,,,,,,,7,3,52,0,,,,,,,,,,,,,,,,,,,,,,,,,,,,,,,,,,,,,,,,,,,,1852.644926276058,None,1853.7443271940574,None,1854.6776014599018,None,1.3095238095238095,0.866268714889884,1854.6776014599018,None,,,,,,,,,,,,,,,,,171,001,2024_Feb_28_1415,SpeechDraft1Carolyn_lessNoise_PlusLocalization,2021.2.3,60.004200689272594,
,,,,,,,,nearRight,6.5,0,ch1Sound_localizationTask.wav,6.5,"(1047, 878)","(87, -202)",95,-338,,,,,,,,,7,4,53,4,,,,,,,,,,,,,,,,,,,,,,,,,,,,,,,,,,,,,,,,,,,,1855.5445334683172,None,1856.6442548041232,None,1857.5774971791543,None,1.6582010582010582,1.1160982525907457,1857.5774971791543,None,,,,,,,,,,,,,,,,,171,001,2024_Feb_28_1415,SpeechDraft1Carolyn_lessNoise_PlusLocalization,2021.2.3,60.004200689272594,
,,,,,,,,midRight,13.0,3,ch1Sound_localizationTask.wav,13.0,"(1142, 878)","(182, -202)",190,-338,,,,,,,,,7,5,54,5,,,,,,,,,,,,,,,,,,,,,,,,,,,,,,,,,,,,,,,,,,,,1858.694991983939,None,1859.794184490107,None,1860.72768181609,None,1.5947089947089947,0.5495689823292196,1860.72768181609,None,,,,,,,,,,,,,,,,,171,001,2024_Feb_28_1415,SpeechDraft1Carolyn_lessNoise_PlusLocalization,2021.2.3,60.004200689272594,
,,,,,,,,midLeft,-13.0,2,ch1Sound_localizationTask.wav,-13.0,"(762, 878)","(-198,-202)",-190,-338,,,,,,,,,7,6,55,1,,,,,,,,,,,,,,,,,,,,,,,,,,,,,,,,,,,,,,,,,,,,1861.2780362940393,None,1862.3776007499546,None,1863.3109692460857,None,1.2185185185185186,0.6659032702445984,1863.3109692460857,None,,,,,,,,,,,,,,,,,171,001,2024_Feb_28_1415,SpeechDraft1Carolyn_lessNoise_PlusLocalization,2021.2.3,60.004200689272594,
,,,,,,,,,,,,,,,,,,,,,,,,,,,,,,,,,,,,,,,,,,,,,,,,,,,,,,,,,,,,,,,,,,,,,,,,,,,,,,,,,,space,22.71861689630896,1864.0612345901318,None,,,,,,,,,,,,,171,001,2024_Feb_28_1415,SpeechDraft1Carolyn_lessNoise_PlusLocalization,2021.2.3,60.004200689272594,
,,,,,,,,midRight,13.0,3,ch1Sound_localizationTask.wav,13.0,"(1142, 878)","(182, -202)",190,-338,,,,,,,,,,,,,0,0,0,5,,,,,,,,,,,,,,,,,,,,,,,,,,,,,,,,,,,,,,,,1886.8276322600432,None,,,1889.860999865923,None,1.664021164021164,1.736430395860225,1889.860999865923,None,,,,,1864.0612345901318,None,1887.827883664053,None,1888.0110867898911,1888.0278326473199,,,,,,,171,001,2024_Feb_28_1415,SpeechDraft1Carolyn_lessNoise_PlusLocalization,2021.2.3,60.004200689272594,
,,,,,,,,nearLeft,-6.5,1,ch1Sound_localizationTask.wav,-6.5,"(857, 878)","(-103,-202)",-95,-338,,,,,,,,,,,,,0,1,1,2,,,,,,,,,,,,,,,,,,,,,,,,,,,,,,,,,,,,,,,,1891.595383651089,None,,,1894.6108480249532,None,1.4507936507936507,0.9316839398816228,1894.6108480249532,None,,,,,,,1892.5945244310424,None,1892.777918653097,1892.794470614288,,,,,,,171,001,2024_Feb_28_1415,SpeechDraft1Carolyn_lessNoise_PlusLocalization,2021.2.3,60.004200689272594,
,,,,,,,,nearRight,6.5,0,ch1Sound_localizationTask.wav,6.5,"(1047, 878)","(87, -202)",95,-338,,,,,,,,,,,,,0,2,2,4,,,,,,,,,,,,,,,,,,,,,,,,,,,,,,,,,,,,,,,,1895.5445435643196,None,,,1898.56116962526,None,1.553968253968254,0.7162254732102156,1898.56116962526,None,,,,,,,1896.5444385982119,None,1896.72778014699,1896.744516339153,,,,,,,171,001,2024_Feb_28_1415,SpeechDraft1Carolyn_lessNoise_PlusLocalization,2021.2.3,60.004200689272594,
,,,,,,,,farRight,19.1,4,ch1Sound_localizationTask.wav,19.1,"(1237, 878)","(277,-202)",285,-338,,,,,,,,,,,,,0,3,3,6,,,,,,,,,,,,,,,,,,,,,,,,,,,,,,,,,,,,,,,,1899.27791205002,None,,,1902.294354148209,None,1.6677248677248677,0.7663566642440856,1902.294354148209,None,,,,,,,1900.2779188710265,None,1900.4612508099526,1900.4778869231232,,,,,,,171,001,2024_Feb_28_1415,SpeechDraft1Carolyn_lessNoise_PlusLocalization,2021.2.3,60.004200689272594,
,,,,,,,,center,0.0,6,ch1Sound_localizationTask.wav,0.0,"(952, 878)","(-8,-202)",0,-338,,,,,,,,,,,,,0,4,4,3,,,,,,,,,,,,,,,,,,,,,,,,,,,,,,,,,,,,,,,,1903.0617701280862,None,,,1906.0777081400156,None,1.4984126984126984,1.0984025280922651,1906.0777081400156,None,,,,,,,1904.0611390201375,None,1904.2445552330464,1904.2611454930156,,,,,,,171,001,2024_Feb_28_1415,SpeechDraft1Carolyn_lessNoise_PlusLocalization,2021.2.3,60.004200689272594,
,,,,,,,,farRight,19.1,4,ch1Sound_localizationTask.wav,19.1,"(1237, 878)","(277,-202)",285,-338,,,,,,,,,,,,,0,5,5,6,,,,,,,,,,,,,,,,,,,,,,,,,,,,,,,,,,,,,,,,1907.1778293852694,None,,,1910.1943486621603,None,1.657142857142857,1.0995190748944879,1910.1943486621603,None,,,,,,,1908.1779521191493,None,1908.3612439730205,1908.3778955852613,,,,,,,171,001,2024_Feb_28_1415,SpeechDraft1Carolyn_lessNoise_PlusLocalization,2021.2.3,60.004200689272594,
,,,,,,,,midRight,13.0,3,ch1Sound_localizationTask.wav,13.0,"(1142, 878)","(182, -202)",190,-338,,,,,,,,,,,,,0,6,6,5,,,,,,,,,,,,,,,,,,,,,,,,,,,,,,,,,,,,,,,,1911.2952579972334,None,,,1914.310966480989,None,1.5793650793650795,1.049010162241757,1914.310966480989,None,,,,,,,1912.2946754391305,None,1912.477828939911,1912.494520792272,,,,,,,171,001,2024_Feb_28_1415,SpeechDraft1Carolyn_lessNoise_PlusLocalization,2021.2.3,60.004200689272594,
,,,,,,,,nearRight,6.5,0,ch1Sound_localizationTask.wav,6.5,"(1047, 878)","(87, -202)",95,-338,,,,,,,,,,,,,1,0,7,4,,,,,,,,,,,,,,,,,,,,,,,,,,,,,,,,,,,,,,,,1915.3612390900962,None,,,1918.3777040299028,None,1.537037037037037,0.8829561830498278,1918.3777040299028,None,,,,,,,1916.361238623038,None,1916.544524487108,1916.5615550200455,,,,,,,171,001,2024_Feb_28_1415,SpeechDraft1Carolyn_lessNoise_PlusLocalization,2021.2.3,60.004200689272594,
,,,,,,,,midRight,13.0,3,ch1Sound_localizationTask.wav,13.0,"(1142, 878)","(182, -202)",190,-338,,,,,,,,,,,,,1,1,8,5,,,,,,,,,,,,,,,,,,,,,,,,,,,,,,,,,,,,,,,,1919.2613672711886,None,,,1922.2776544131339,None,1.6365079365079365,0.6823260271921754,1922.2776544131339,None,,,,,,,1920.2612979728729,None,1920.444527498912,1920.461485738866,,,,,,,171,001,2024_Feb_28_1415,SpeechDraft1Carolyn_lessNoise_PlusLocalization,2021.2.3,60.004200689272594,
,,,,,,,,midLeft,-13.0,2,ch1Sound_localizationTask.wav,-13.0,"(762, 878)","(-198,-202)",-190,-338,,,,,,,,,,,,,1,2,9,1,,,,,,,,,,,,,,,,,,,,,,,,,,,,,,,,,,,,,,,,1922.961237482261,None,,,1925.9775964128785,None,1.4047619047619047,0.8832246568053961,1925.9775964128785,None,,,,,,,1923.961275509093,None,1924.144656597171,1924.161395341158,,,,,,,171,001,2024_Feb_28_1415,SpeechDraft1Carolyn_lessNoise_PlusLocalization,2021.2.3,60.004200689272594,
,,,,,,,,midRight,13.0,3,ch1Sound_localizationTask.wav,13.0,"(1142, 878)","(182, -202)",190,-338,,,,,,,,,,,,,1,3,10,5,,,,,,,,,,,,,,,,,,,,,,,,,,,,,,,,,,,,,,,,1926.8613426610827,None,,,1929.8775733718649,None,1.597883597883598,1.0995474229566753,1929.8775733718649,None,,,,,,,1927.86124243401,None,1928.0446122400463,1928.0612726481631,,,,,,,171,001,2024_Feb_28_1415,SpeechDraft1Carolyn_lessNoise_PlusLocalization,2021.2.3,60.004200689272594,
,,,,,,,,nearLeft,-6.5,1,ch1Sound_localizationTask.wav,-6.5,"(857, 878)","(-103,-202)",-95,-338,,,,,,,,,,,,,1,4,11,2,,,,,,,,,,,,,,,,,,,,,,,,,,,,,,,,,,,,,,,,1930.9782635150477,None,,,1933.9943280508742,None,1.4433862433862434,0.5823986339382827,1933.9943280508742,None,,,,,,,1931.977977978997,None,1932.1613112878986,1932.1779852020554,,,,,,,171,001,2024_Feb_28_1415,SpeechDraft1Carolyn_lessNoise_PlusLocalization,2021.2.3,60.004200689272594,
,,,,,,,,farLeft,-19.1,5,ch1Sound_localizationTask.wav,-19.1,"(667, 878)","(-293,-202)",-285,-338,,,,,,,,,,,,,1,5,12,0,,,,,,,,,,,,,,,,,,,,,,,,,,,,,,,,,,,,,,,,1934.5780951622874,None,,,1937.594361096155,None,1.326984126984127,1.54907037736848,1937.594361096155,None,,,,,,,1935.577875975985,None,1935.7613920192234,1935.7779330969788,,,,,,,171,001,2024_Feb_28_1415,SpeechDraft1Carolyn_lessNoise_PlusLocalization,2021.2.3,60.004200689272594,
,,,,,,,,midLeft,-13.0,2,ch1Sound_localizationTask.wav,-13.0,"(762, 878)","(-198,-202)",-190,-338,,,,,,,,,,,,,1,6,13,1,,,,,,,,,,,,,,,,,,,,,,,,,,,,,,,,,,,,,,,,1939.1447134800255,None,,,1942.1610041721724,None,1.4005291005291005,0.949260693974793,1942.1610041721724,None,,,,,,,1940.1446033460088,None,1940.327938565053,1940.344608628191,,,,,,,171,001,2024_Feb_28_1415,SpeechDraft1Carolyn_lessNoise_PlusLocalization,2021.2.3,60.004200689272594,
,,,,,,,,nearRight,6.5,0,ch1Sound_localizationTask.wav,6.5,"(1047, 878)","(87, -202)",95,-338,,,,,,,,,,,,,2,0,14,4,,,,,,,,,,,,,,,,,,,,,,,,,,,,,,,,,,,,,,,,1943.1117374659516,None,,,1946.1276851189323,None,1.5666666666666667,0.6144854668527842,1946.1276851189323,None,,,,,,,1944.11126173893,None,1944.2946344362572,1944.3112403322011,,,,,,,171,001,2024_Feb_28_1415,SpeechDraft1Carolyn_lessNoise_PlusLocalization,2021.2.3,60.004200689272594,
,,,,,,,,farLeft,-19.1,5,ch1Sound_localizationTask.wav,-19.1,"(667, 878)","(-293,-202)",-285,-338,,,,,,,,,,,,,2,1,15,0,,,,,,,,,,,,,,,,,,,,,,,,,,,,,,,,,,,,,,,,1946.7446753452532,None,,,1949.76109542232,None,1.3322751322751323,1.0829562251456082,1949.76109542232,None,,,,,,,1947.7446985552087,None,1947.9279570691288,1947.944506936241,,,,,,,171,001,2024_Feb_28_1415,SpeechDraft1Carolyn_lessNoise_PlusLocalization,2021.2.3,60.004200689272594,
,,,,,,,,farLeft,-19.1,5,ch1Sound_localizationTask.wav,-19.1,"(667, 878)","(-293,-202)",-285,-338,,,,,,,,,,,,,2,2,16,0,,,,,,,,,,,,,,,,,,,,,,,,,,,,,,,,,,,,,,,,1950.8446151348762,None,,,1953.861100783106,None,1.3407407407407408,0.9160575028508902,1953.861100783106,None,,,,,,,1951.8446363671683,None,1952.0279568061233,1952.0446746828966,,,,,,,171,001,2024_Feb_28_1415,SpeechDraft1Carolyn_lessNoise_PlusLocalization,2021.2.3,60.004200689272594,
,,,,,,,,midRight,13.0,3,ch1Sound_localizationTask.wav,13.0,"(1142, 878)","(182, -202)",190,-338,,,,,,,,,,,,,2,3,17,5,,,,,,,,,,,,,,,,,,,,,,,,,,,,,,,,,,,,,,,,1954.7783019202761,None,,,1957.79435574729,None,1.588888888888889,0.5992142269387841,1957.79435574729,None,,,,,,,1955.7779756872915,None,1955.9612922258675,1955.9780185283162,,,,,,,171,001,2024_Feb_28_1415,SpeechDraft1Carolyn_lessNoise_PlusLocalization,2021.2.3,60.004200689272594,
,,,,,,,,midLeft,-13.0,2,ch1Sound_localizationTask.wav,-13.0,"(762, 878)","(-198,-202)",-190,-338,,,,,,,,,,,,,2,4,18,1,,,,,,,,,,,,,,,,,,,,,,,,,,,,,,,,,,,,,,,,1958.3945833202451,None,,,1961.4110112902708,None,1.4126984126984126,1.0663312878459692,1961.4110112902708,None,,,,,,,1959.3946281708777,None,1959.5779881342314,1959.5947471503168,,,,,,,171,001,2024_Feb_28_1415,SpeechDraft1Carolyn_lessNoise_PlusLocalization,2021.2.3,60.004200689272594,
,,,,,,,,nearRight,6.5,0,ch1Sound_localizationTask.wav,6.5,"(1047, 878)","(87, -202)",95,-338,,,,,,,,,,,,,2,5,19,4,,,,,,,,,,,,,,,,,,,,,,,,,,,,,,,,,,,,,,,,1962.4784104470164,None,,,1965.4944543149322,None,1.5492063492063493,0.9661962171085179,1965.4944543149322,None,,,,,,,1963.4779689651914,None,1963.6612269082107,1963.6779382522218,,,,,,,171,001,2024_Feb_28_1415,SpeechDraft1Carolyn_lessNoise_PlusLocalization,2021.2.3,60.004200689272594,
,,,,,,,,farRight,19.1,4,ch1Sound_localizationTask.wav,19.1,"(1237, 878)","(277,-202)",285,-338,,,,,,,,,,,,,2,6,20,6,,,,,,,,,,,,,,,,,,,,,,,,,,,,,,,,,,,,,,,,1966.4613504582085,None,,,1969.477781065274,None,1.6708994708994709,1.1828508200123906,1969.477781065274,None,,,,,,,1967.4613062050194,None,1967.644686639309,1967.66139940219,,,,,,,171,001,2024_Feb_28_1415,SpeechDraft1Carolyn_lessNoise_PlusLocalization,2021.2.3,60.004200689272594,
,,,,,,,,center,0.0,6,ch1Sound_localizationTask.wav,0.0,"(952, 878)","(-8,-202)",0,-338,,,,,,,,,,,,,3,0,21,3,,,,,,,,,,,,,,,,,,,,,,,,,,,,,,,,,,,,,,,,1970.6614161022007,None,,,1973.677817018237,None,1.5201058201058202,0.8662090809084475,1973.677817018237,None,,,,,,,1971.6614033910446,None,1971.8446441222914,1971.8614732041024,,,,,,,171,001,2024_Feb_28_1415,SpeechDraft1Carolyn_lessNoise_PlusLocalization,2021.2.3,60.004200689272594,
,,,,,,,,midRight,13.0,3,ch1Sound_localizationTask.wav,13.0,"(1142, 878)","(182, -202)",190,-338,,,,,,,,,,,,,3,1,22,5,,,,,,,,,,,,,,,,,,,,,,,,,,,,,,,,,,,,,,,,1974.5449523553252,None,,,1977.5611535781063,None,1.6052910052910052,0.6831356701441109,1977.5611535781063,None,,,,,,,1975.5445943162777,None,1975.7280207099393,1975.744579361286,,,,,,,171,001,2024_Feb_28_1415,SpeechDraft1Carolyn_lessNoise_PlusLocalization,2021.2.3,60.004200689272594,
,,,,,,,,nearRight,6.5,0,ch1Sound_localizationTask.wav,6.5,"(1047, 878)","(87, -202)",95,-338,,,,,,,,,,,,,3,2,23,4,,,,,,,,,,,,,,,,,,,,,,,,,,,,,,,,,,,,,,,,1978.2449743291363,None,,,1981.2610849072225,None,1.5407407407407407,0.8328475556336343,1981.2610849072225,None,,,,,,,1979.2447013598867,None,1979.428024417255,1979.4447023812681,,,,,,,171,001,2024_Feb_28_1415,SpeechDraft1Carolyn_lessNoise_PlusLocalization,2021.2.3,60.004200689272594,
,,,,,,,,midRight,13.0,3,ch1Sound_localizationTask.wav,13.0,"(1142, 878)","(182, -202)",190,-338,,,,,,,,,,,,,3,3,24,5,,,,,,,,,,,,,,,,,,,,,,,,,,,,,,,,,,,,,,,,1982.094851335045,None,,,1985.1111627002247,None,1.6,0.465732186101377,1985.1111627002247,None,,,,,,,1983.0947345630266,None,1983.2781625152566,1983.2946961722337,,,,,,,171,001,2024_Feb_28_1415,SpeechDraft1Carolyn_lessNoise_PlusLocalization,2021.2.3,60.004200689272594,
,,,,,,,,farLeft,-19.1,5,ch1Sound_localizationTask.wav,-19.1,"(667, 878)","(-293,-202)",-285,-338,,,,,,,,,,,,,3,4,25,0,,,,,,,,,,,,,,,,,,,,,,,,,,,,,,,,,,,,,,,,1985.578167841304,None,,,1988.5944011448883,None,1.3518518518518519,0.9324119077064097,1988.5944011448883,None,,,,,,,1986.5781609890983,None,1986.7612936538644,1986.7780013349839,,,,,,,171,001,2024_Feb_28_1415,SpeechDraft1Carolyn_lessNoise_PlusLocalization,2021.2.3,60.004200689272594,
,,,,,,,,center,0.0,6,ch1Sound_localizationTask.wav,0.0,"(952, 878)","(-8,-202)",0,-338,,,,,,,,,,,,,3,5,26,3,,,,,,,,,,,,,,,,,,,,,,,,,,,,,,,,,,,,,,,,1989.5280131571926,None,,,1992.5444012670778,None,1.5074074074074075,1.1163355531170964,1992.5444012670778,None,,,,,,,1990.528042274993,None,1990.7113210549578,1990.7280358751304,,,,,,,171,001,2024_Feb_28_1415,SpeechDraft1Carolyn_lessNoise_PlusLocalization,2021.2.3,60.004200689272594,
,,,,,,,,farLeft,-19.1,5,ch1Sound_localizationTask.wav,-19.1,"(667, 878)","(-293,-202)",-285,-338,,,,,,,,,,,,,3,6,27,0,,,,,,,,,,,,,,,,,,,,,,,,,,,,,,,,,,,,,,,,1993.6781044970267,None,,,1996.6944598299451,None,1.3497354497354497,0.9334296262823045,1996.6944598299451,None,,,,,,,1994.6779321138747,None,1994.8613254120573,1994.8779607489705,,,,,,,171,001,2024_Feb_28_1415,SpeechDraft1Carolyn_lessNoise_PlusLocalization,2021.2.3,60.004200689272594,
,,,,,,,,farLeft,-19.1,5,ch1Sound_localizationTask.wav,-19.1,"(667, 878)","(-293,-202)",-285,-338,,,,,,,,,,,,,4,0,28,0,,,,,,,,,,,,,,,,,,,,,,,,,,,,,,,,,,,,,,,,1997.6446607741527,None,,,2000.6611317088827,None,1.3624338624338623,0.7831524657085538,2000.6611317088827,None,,,,,,,1998.6447197468951,None,1998.828033305239,1998.8447631411254,,,,,,,171,001,2024_Feb_28_1415,SpeechDraft1Carolyn_lessNoise_PlusLocalization,2021.2.3,60.004200689272594,
,,,,,,,,nearLeft,-6.5,1,ch1Sound_localizationTask.wav,-6.5,"(857, 878)","(-103,-202)",-95,-338,,,,,,,,,,,,,4,1,29,2,,,,,,,,,,,,,,,,,,,,,,,,,,,,,,,,,,,,,,,,2001.4449329539202,None,,,2004.4610995380208,None,1.4370370370370371,0.7831061081960797,2004.4610995380208,None,,,,,,,2002.4446569848806,None,2002.628006122075,2002.644663357176,,,,,,,171,001,2024_Feb_28_1415,SpeechDraft1Carolyn_lessNoise_PlusLocalization,2021.2.3,60.004200689272594,
,,,,,,,,farRight,19.1,4,ch1Sound_localizationTask.wav,19.1,"(1237, 878)","(277,-202)",285,-338,,,,,,,,,,,,,4,2,30,6,,,,,,,,,,,,,,,,,,,,,,,,,,,,,,,,,,,,,,,,2005.244946449995,None,,,2008.2611574181356,None,1.7121693121693122,1.8326313314028084,2008.2611574181356,None,,,,,,,2006.2448310810141,None,2006.4281243942678,2006.4446340929717,,,,,,,171,001,2024_Feb_28_1415,SpeechDraft1Carolyn_lessNoise_PlusLocalization,2021.2.3,60.004200689272594,
,,,,,,,,midLeft,-13.0,2,ch1Sound_localizationTask.wav,-13.0,"(762, 878)","(-198,-202)",-190,-338,,,,,,,,,,,,,4,3,31,1,,,,,,,,,,,,,,,,,,,,,,,,,,,,,,,,,,,,,,,,2010.0955665479414,None,,,2013.1111102593131,None,1.3571428571428572,0.7660032426938415,2013.1111102593131,None,,,,,,,2011.0946568152867,None,2011.2781760389917,2011.2947008148767,,,,,,,171,001,2024_Feb_28_1415,SpeechDraft1Carolyn_lessNoise_PlusLocalization,2021.2.3,60.004200689272594,
,,,,,,,,farRight,19.1,4,ch1Sound_localizationTask.wav,19.1,"(1237, 878)","(277,-202)",285,-338,,,,,,,,,,,,,4,4,32,6,,,,,,,,,,,,,,,,,,,,,,,,,,,,,,,,,,,,,,,,2013.8785279020667,None,,,2016.8944621873088,None,1.6671957671957671,1.4161884002387524,2016.8944621873088,None,,,,,,,2014.8781025689095,None,2015.061391938012,2015.0780932982452,,,,,,,171,001,2024_Feb_28_1415,SpeechDraft1Carolyn_lessNoise_PlusLocalization,2021.2.3,60.004200689272594,
,,,,,,,,nearLeft,-6.5,1,ch1Sound_localizationTask.wav,-6.5,"(857, 878)","(-103,-202)",-95,-338,,,,,,,,,,,,,4,5,33,2,,,,,,,,,,,,,,,,,,,,,,,,,,,,,,,,,,,,,,,,2018.3115256698802,None,,,2021.3277860172093,None,1.4476190476190476,1.1986408177763224,2021.3277860172093,None,,,,,,,2019.3113757562824,None,2019.4947265591472,2019.5114082531072,,,,,,,171,001,2024_Feb_28_1415,SpeechDraft1Carolyn_lessNoise_PlusLocalization,2021.2.3,60.004200689272594,
,,,,,,,,midLeft,-13.0,2,ch1Sound_localizationTask.wav,-13.0,"(762, 878)","(-198,-202)",-190,-338,,,,,,,,,,,,,4,6,34,1,,,,,,,,,,,,,,,,,,,,,,,,,,,,,,,,,,,,,,,,2022.5280879330821,None,,,2025.5446547721513,None,1.3825396825396825,1.3997390097938478,2025.5446547721513,None,,,,,,,2023.528024067171,None,2023.7114210440777,2023.728177129291,,,,,,,171,001,2024_Feb_28_1415,SpeechDraft1Carolyn_lessNoise_PlusLocalization,2021.2.3,60.004200689272594,
,,,,,,,,farLeft,-19.1,5,ch1Sound_localizationTask.wav,-19.1,"(667, 878)","(-293,-202)",-285,-338,,,,,,,,,,,,,5,0,35,0,,,,,,,,,,,,,,,,,,,,,,,,,,,,,,,,,,,,,,,,2026.944936947897,None,,,2029.961252195295,None,1.32010582010582,1.066413918044418,2029.961252195295,None,,,,,,,2027.944723307155,None,2028.128109372221,2028.1447162292898,,,,,,,171,001,2024_Feb_28_1415,SpeechDraft1Carolyn_lessNoise_PlusLocalization,2021.2.3,60.004200689272594,
,,,,,,,,center,0.0,6,ch1Sound_localizationTask.wav,0.0,"(952, 878)","(-8,-202)",0,-338,,,,,,,,,,,,,5,1,36,3,,,,,,,,,,,,,,,,,,,,,,,,,,,,,,,,,,,,,,,,2031.0285001089796,None,,,2034.0445078900084,None,1.507936507936508,1.0165466330945492,2034.0445078900084,None,,,,,,,2032.027970673982,None,2032.2114071589895,2032.2280476279557,,,,,,,171,001,2024_Feb_28_1415,SpeechDraft1Carolyn_lessNoise_PlusLocalization,2021.2.3,60.004200689272594,
,,,,,,,,midLeft,-13.0,2,ch1Sound_localizationTask.wav,-13.0,"(762, 878)","(-198,-202)",-190,-338,,,,,,,,,,,,,5,2,37,1,,,,,,,,,,,,,,,,,,,,,,,,,,,,,,,,,,,,,,,,2035.0617336579598,None,,,2038.077877572272,None,1.402116402116402,1.0667178821749985,2038.077877572272,None,,,,,,,2036.0614312482066,None,2036.2447666269727,2036.2613944569603,,,,,,,171,001,2024_Feb_28_1415,SpeechDraft1Carolyn_lessNoise_PlusLocalization,2021.2.3,60.004200689272594,
,,,,,,,,center,0.0,6,ch1Sound_localizationTask.wav,0.0,"(952, 878)","(-8,-202)",0,-338,,,,,,,,,,,,,5,3,38,3,,,,,,,,,,,,,,,,,,,,,,,,,,,,,,,,,,,,,,,,2039.145402892027,None,,,2042.161200853996,None,1.4883597883597883,0.8494297848083079,2042.161200853996,None,,,,,,,2040.1446746992879,None,2040.32814181922,2040.3447757191025,,,,,,,171,001,2024_Feb_28_1415,SpeechDraft1Carolyn_lessNoise_PlusLocalization,2021.2.3,60.004200689272594,
,,,,,,,,nearRight,6.5,0,ch1Sound_localizationTask.wav,6.5,"(1047, 878)","(87, -202)",95,-338,,,,,,,,,,,,,5,4,39,4,,,,,,,,,,,,,,,,,,,,,,,,,,,,,,,,,,,,,,,,2043.0117063042708,None,,,2046.0278385221027,None,1.5391534391534392,1.30030999192968,2046.0278385221027,None,,,,,,,2044.0113716460764,None,2044.1947710062377,2044.2114567318931,,,,,,,171,001,2024_Feb_28_1415,SpeechDraft1Carolyn_lessNoise_PlusLocalization,2021.2.3,60.004200689272594,
,,,,,,,,center,0.0,6,ch1Sound_localizationTask.wav,0.0,"(952, 878)","(-8,-202)",0,-338,,,,,,,,,,,,,5,5,40,3,,,,,,,,,,,,,,,,,,,,,,,,,,,,,,,,,,,,,,,,2047.3447704100981,None,,,2050.3612568192184,None,1.4936507936507937,0.76631083432585,2050.3612568192184,None,,,,,,,2048.3447685660794,None,2048.5280767721124,2048.5448102559894,,,,,,,171,001,2024_Feb_28_1415,SpeechDraft1Carolyn_lessNoise_PlusLocalization,2021.2.3,60.004200689272594,
,,,,,,,,midLeft,-13.0,2,ch1Sound_localizationTask.wav,-13.0,"(762, 878)","(-198,-202)",-190,-338,,,,,,,,,,,,,5,6,41,1,,,,,,,,,,,,,,,,,,,,,,,,,,,,,,,,,,,,,,,,2051.129251948092,None,,,2054.1611494589597,None,1.3894179894179894,0.7163813267834485,2054.1611494589597,None,,,,,,,2052.1447316179983,None,2052.328167932108,2052.344823553227,,,,,,,171,001,2024_Feb_28_1415,SpeechDraft1Carolyn_lessNoise_PlusLocalization,2021.2.3,60.004200689272594,
,,,,,,,,nearLeft,-6.5,1,ch1Sound_localizationTask.wav,-6.5,"(857, 878)","(-103,-202)",-95,-338,,,,,,,,,,,,,6,0,42,2,,,,,,,,,,,,,,,,,,,,,,,,,,,,,,,,,,,,,,,,2054.8781204740517,None,,,2057.894506304059,None,1.433862433862434,0.7993325651623309,2057.894506304059,None,,,,,,,2055.878113524057,None,2056.061609231867,2056.078109391965,,,,,,,171,001,2024_Feb_28_1415,SpeechDraft1Carolyn_lessNoise_PlusLocalization,2021.2.3,60.004200689272594,
,,,,,,,,nearLeft,-6.5,1,ch1Sound_localizationTask.wav,-6.5,"(857, 878)","(-103,-202)",-95,-338,,,,,,,,,,,,,6,1,43,2,,,,,,,,,,,,,,,,,,,,,,,,,,,,,,,,,,,,,,,,2058.6949581522495,None,,,2061.7113040420227,None,1.462962962962963,0.6160759530030191,2061.7113040420227,None,,,,,,,2059.694722603075,None,2059.8780056801625,2059.8947954522446,,,,,,,171,001,2024_Feb_28_1415,SpeechDraft1Carolyn_lessNoise_PlusLocalization,2021.2.3,60.004200689272594,
,,,,,,,,farRight,19.1,4,ch1Sound_localizationTask.wav,19.1,"(1237, 878)","(277,-202)",285,-338,,,,,,,,,,,,,6,2,44,6,,,,,,,,,,,,,,,,,,,,,,,,,,,,,,,,,,,,,,,,2062.3286663559265,None,,,2065.3446032903157,None,1.6746031746031746,1.1332613518461585,2065.3446032903157,None,,,,,,,2063.3280464652926,None,2063.511488423217,2063.528061001096,,,,,,,171,001,2024_Feb_28_1415,SpeechDraft1Carolyn_lessNoise_PlusLocalization,2021.2.3,60.004200689272594,
,,,,,,,,farRight,19.1,4,ch1Sound_localizationTask.wav,19.1,"(1237, 878)","(277,-202)",285,-338,,,,,,,,,,,,,6,3,45,6,,,,,,,,,,,,,,,,,,,,,,,,,,,,,,,,,,,,,,,,2066.4949418902397,None,,,2069.5113392202184,None,1.6751322751322753,0.9344987608492374,2069.5113392202184,None,,,,,,,2067.494705902878,None,2067.678080732003,2067.694836648181,,,,,,,171,001,2024_Feb_28_1415,SpeechDraft1Carolyn_lessNoise_PlusLocalization,2021.2.3,60.004200689272594,
,,,,,,,,nearRight,6.5,0,ch1Sound_localizationTask.wav,6.5,"(1047, 878)","(87, -202)",95,-338,,,,,,,,,,,,,6,4,46,4,,,,,,,,,,,,,,,,,,,,,,,,,,,,,,,,,,,,,,,,2070.461615459062,None,,,2073.4779502372257,None,1.5767195767195767,0.6333632781170309,2073.4779502372257,None,,,,,,,2071.461531617213,None,2071.6447434080765,2071.661509637255,,,,,,,171,001,2024_Feb_28_1415,SpeechDraft1Carolyn_lessNoise_PlusLocalization,2021.2.3,60.004200689272594,
,,,,,,,,center,0.0,6,ch1Sound_localizationTask.wav,0.0,"(952, 878)","(-8,-202)",0,-338,,,,,,,,,,,,,6,5,47,3,,,,,,,,,,,,,,,,,,,,,,,,,,,,,,,,,,,,,,,,2074.128308873158,None,,,2077.1444973950274,None,1.5185185185185186,0.6661047991365194,2077.1444973950274,None,,,,,,,2075.12819920294,None,2075.311480079312,2075.328066550195,,,,,,,171,001,2024_Feb_28_1415,SpeechDraft1Carolyn_lessNoise_PlusLocalization,2021.2.3,60.004200689272594,
,,,,,,,,farLeft,-19.1,5,ch1Sound_localizationTask.wav,-19.1,"(667, 878)","(-293,-202)",-285,-338,,,,,,,,,,,,,6,6,48,0,,,,,,,,,,,,,,,,,,,,,,,,,,,,,,,,,,,,,,,,2077.8117185411975,None,,,2080.8280104990117,None,1.3153439153439153,2.0672713429667056,2080.8280104990117,None,,,,,,,2078.8113903072663,None,2078.994766098913,2079.011428981088,,,,,,,171,001,2024_Feb_28_1415,SpeechDraft1Carolyn_lessNoise_PlusLocalization,2021.2.3,60.004200689272594,
,,,,,,,,midRight,13.0,3,ch1Sound_localizationTask.wav,13.0,"(1142, 878)","(182, -202)",190,-338,,,,,,,,,,,,,7,0,49,5,,,,,,,,,,,,,,,,,,,,,,,,,,,,,,,,,,,,,,,,2082.9117095600814,None,,,2085.9278891850263,None,1.601058201058201,1.299932710826397,2085.9278891850263,None,,,,,,,2083.9114514761604,None,2084.094856688287,2084.1114254472777,,,,,,,171,001,2024_Feb_28_1415,SpeechDraft1Carolyn_lessNoise_PlusLocalization,2021.2.3,60.004200689272594,
,,,,,,,,farRight,19.1,4,ch1Sound_localizationTask.wav,19.1,"(1237, 878)","(277,-202)",285,-338,,,,,,,,,,,,,7,1,50,6,,,,,,,,,,,,,,,,,,,,,,,,,,,,,,,,,,,,,,,,2087.2284847162664,None,,,2090.244625733234,None,1.6396825396825396,0.9653048468753695,2090.244625733234,None,,,,,,,2088.228209096007,None,2088.4115404239856,2088.4281096360646,,,,,,,171,001,2024_Feb_28_1415,SpeechDraft1Carolyn_lessNoise_PlusLocalization,2021.2.3,60.004200689272594,
,,,,,,,,nearRight,6.5,0,ch1Sound_localizationTask.wav,6.5,"(1047, 878)","(87, -202)",95,-338,,,,,,,,,,,,,7,2,51,4,,,,,,,,,,,,,,,,,,,,,,,,,,,,,,,,,,,,,,,,2091.2115068729036,None,,,2094.2278192662634,None,1.5677248677248676,1.0332876821048558,2094.2278192662634,None,,,,,,,2092.2114423471503,None,2092.394822635222,2092.411474195309,,,,,,,171,001,2024_Feb_28_1415,SpeechDraft1Carolyn_lessNoise_PlusLocalization,2021.2.3,60.004200689272594,
,,,,,,,,center,0.0,6,ch1Sound_localizationTask.wav,0.0,"(952, 878)","(-8,-202)",0,-338,,,,,,,,,,,,,7,3,52,3,,,,,,,,,,,,,,,,,,,,,,,,,,,,,,,,,,,,,,,,2095.2782867751084,None,,,2098.2945598862134,None,1.4957671957671956,0.5828057266771793,2098.2945598862134,None,,,,,,,2096.278208314907,None,2096.461517494172,2096.47826309409,,,,,,,171,001,2024_Feb_28_1415,SpeechDraft1Carolyn_lessNoise_PlusLocalization,2021.2.3,60.004200689272594,
,,,,,,,,midLeft,-13.0,2,ch1Sound_localizationTask.wav,-13.0,"(762, 878)","(-198,-202)",-190,-338,,,,,,,,,,,,,7,4,53,1,,,,,,,,,,,,,,,,,,,,,,,,,,,,,,,,,,,,,,,,2098.8790020248853,None,,,2101.894596891012,None,1.38994708994709,0.5657120533287525,2101.894596891012,None,,,,,,,2099.8781208372675,None,2100.0615013889037,2100.0781922889873,,,,,,,171,001,2024_Feb_28_1415,SpeechDraft1Carolyn_lessNoise_PlusLocalization,2021.2.3,60.004200689272594,
,,,,,,,,nearLeft,-6.5,1,ch1Sound_localizationTask.wav,-6.5,"(857, 878)","(-103,-202)",-95,-338,,,,,,,,,,,,,7,5,54,2,,,,,,,,,,,,,,,,,,,,,,,,,,,,,,,,,,,,,,,,2102.4615126610734,None,,,2105.477963682264,None,1.4428571428571428,0.8485517031513155,2105.477963682264,None,,,,,,,2103.46142632002,None,2103.6448374660686,2103.661590619944,,,,,,,171,001,2024_Feb_28_1415,SpeechDraft1Carolyn_lessNoise_PlusLocalization,2021.2.3,60.004200689272594,
,,,,,,,,nearLeft,-6.5,1,ch1Sound_localizationTask.wav,-6.5,"(857, 878)","(-103,-202)",-95,-338,,,,,,,,,,,,,7,6,55,2,,,,,,,,,,,,,,,,,,,,,,,,,,,,,,,,,,,,,,,,2106.328257831279,None,,,2109.3446028633043,None,1.4492063492063492,0.9161823089234531,2109.3446028633043,None,,,,,,,2107.328213278204,None,2107.5114543573,2107.528244865127,,,,,,,171,001,2024_Feb_28_1415,SpeechDraft1Carolyn_lessNoise_PlusLocalization,2021.2.3,60.004200689272594,
,,,,,,,,,,,,,,,,,,,,,,,,,,,,,,,,,,,,,,,,,,,,,,,,,,,,,,,,,,,,,,,,,,,,,,,,,,,,,,,,,,,,,,,,,,,,2110.2619148283266,None,c,127.2470988468267,2111.24484452093,None,171,001,2024_Feb_28_1415,SpeechDraft1Carolyn_lessNoise_PlusLocalization,2021.2.3,60.004200689272594,
