Audio_Only_Files,Video_Files,Original_Word_List,noiseLevelCode,conditionCodes,noiseLevelFile1,noiseLevelFile2,InstrTextVar,targetSpeakerName,targetSpeakerEccen,targetSpkrChannel,targetSpkrSound,targetVisualDegrees,visStimLoc,visStimLoc2,visStimW,visStimH,practiceTrials.thisRepN,practiceTrials.thisTrialN,practiceTrials.thisN,practiceTrials.thisIndex,trials.thisRepN,trials.thisTrialN,trials.thisN,trials.thisIndex,audLocalLoop.thisRepN,audLocalLoop.thisTrialN,audLocalLoop.thisN,audLocalLoop.thisIndex,visualLocalLoop.thisRepN,visualLocalLoop.thisTrialN,visualLocalLoop.thisN,visualLocalLoop.thisIndex,letsGoAlready.keys,letsGoAlready.rt,letsGoAlready.started,letsGoAlready.stopped,text_2.started,text_2.stopped,text_3.started,text_3.stopped,key_resp_2.keys,key_resp_2.rt,key_resp_2.started,key_resp_2.stopped,text_5.started,text_5.stopped,fixCross.started,fixCross.stopped,fixCross2.started,fixCross2.stopped,answerPrompt.started,answerPrompt.stopped,getAnswer.text,getAnswer.started,getAnswer.stopped,goToNext.keys,goToNext.rt,goToNext.started,goToNext.stopped,stretchBreakTxrt.started,stretchBreakTxrt.stopped,key_resp_3.keys,key_resp_3.rt,key_resp_3.started,key_resp_3.stopped,letsGoLocal.keys,letsGoLocal.rt,letsGoLocal.started,letsGoLocal.stopped,text_4.started,text_4.stopped,prepFixTxt.started,prepFixTxt.stopped,prepFixTxt_2.started,prepFixTxt_2.stopped,respPromptLocal.started,respPromptLocal.stopped,slider.response,slider.rt,slider.started,slider.stopped,letsGoLocal_2.keys,letsGoLocal_2.rt,letsGoLocal_2.started,letsGoLocal_2.stopped,text_7.started,text_7.stopped,prepFixTxt_3.started,prepFixTxt_3.stopped,grating.started,grating.stopped,exitTxt.started,exitTxt.stopped,key_resp.keys,key_resp.rt,key_resp.started,key_resp.stopped,participant,session,date,expName,psychopyVersion,frameRate,
,,,,,,,,,,,,,,,,,,,,,,,,,,,,,,,,,space,250.64236024208367,14.966287794988602,None,,,,,,,,,,,,,,,,,,,,,,,,,,,,,,,,,,,,,,,,,,,,,,,,,,,,,,,,,,,,,,172,001,2024_Feb_28_1756,SpeechDraft1Carolyn_lessNoise_PlusLocalization,2021.2.3,60.01050207152382,
,,,,,,,,,,,,,,,,,,,,,,,,,,,,,,,,,,,,,14.966287794988602,None,265.7332474719733,None,space,9.507918188814074,265.91669601015747,None,,,,,,,,,,,,,,,,,,,,,,,,,,,,,,,,,,,,,,,,,,,,,,,,,,,,,,172,001,2024_Feb_28_1756,SpeechDraft1Carolyn_lessNoise_PlusLocalization,2021.2.3,60.01050207152382,
ash.wav,ash.mpg,ash,1,A,Pink_Noise_1_1.wav,Pink_Noise_1_2.wav,"This is an example of an

AUDIO trial",,,,,,,,,,0,0,0,0,,,,,,,,,,,,,,,,,,,,,,,,,275.4672275050543,None,276.4667035462335,None,279.7162780719809,None,281.084663297981,None,"Ash
",281.084663297981,None,return,8.353924090974033,281.1667046449147,None,,,,,,,,,,,,,,,,,,,,,,,,,,,,,,,,,,,,,,,172,001,2024_Feb_28_1756,SpeechDraft1Carolyn_lessNoise_PlusLocalization,2021.2.3,60.01050207152382,
ash.wav,ash.mpg,ash,1,AV,Pink_Noise_1_1.wav,Pink_Noise_1_2.wav,"This is an example of an

AUDIO + VIDEO  trial",,,,,,,,,,0,1,1,1,,,,,,,,,,,,,,,,,,,,,,,,,289.583160828799,None,290.5834320830181,None,292.0830696988851,None,293.4666368961334,None,ash,293.4666368961334,None,return,5.338826595339924,293.55003548786044,None,,,,,,,,,,,,,,,,,,,,,,,,,,,,,,,,,,,,,,,172,001,2024_Feb_28_1756,SpeechDraft1Carolyn_lessNoise_PlusLocalization,2021.2.3,60.01050207152382,
,,,,,,,,,,,,,,,,,,,,,,,,,,,,,,,,,,,,,,,,,,,,,,,,,,,,,,,,,,,,298.9331147088669,None,space,22.29189097788185,299.1167450309731,None,,,,,,,,,,,,,,,,,,,,,,,,,,,,,,,,,172,001,2024_Feb_28_1756,SpeechDraft1Carolyn_lessNoise_PlusLocalization,2021.2.3,60.01050207152382,
flair.wav,flair.mpg,flair,6,A,Pink_Noise_6_1.wav,Pink_Noise_6_2.wav,,,,,,,,,,,,,,,0,0,0,50,,,,,,,,,,,,,,,,,,,,,,,321.46642618998885,None,322.94967080885544,None,324.3335022958927,None,"dan
",324.3335022958927,None,return,1.335802311077714,324.41686239186674,None,,,,,,,,,,,,,,,,,,,,,,,,,,,,,,,,,,,,,,,172,001,2024_Feb_28_1756,SpeechDraft1Carolyn_lessNoise_PlusLocalization,2021.2.3,60.01050207152382,
coin.wav,coin.mpg,coin,2,A,Pink_Noise_2_1.wav,Pink_Noise_2_2.wav,,,,,,,,,,,,,,,0,1,1,30,,,,,,,,,,,,,,,,,,,,,,,325.7834105431102,None,327.28310731006786,None,328.6667106919922,None,coin,328.6667106919922,None,return,2.8825230677612126,328.750188277103,None,,,,,,,,,,,,,,,,,,,,,,,,,,,,,,,,,,,,,,,172,001,2024_Feb_28_1756,SpeechDraft1Carolyn_lessNoise_PlusLocalization,2021.2.3,60.01050207152382,
bow.wav,bow.mpg,bow,3,A,Pink_Noise_3_1.wav,Pink_Noise_3_2.wav,,,,,,,,,,,,,,,0,2,2,49,,,,,,,,,,,,,,,,,,,,,,,331.65017451392487,None,333.14977944782004,None,334.5334052401595,None,bow,334.5334052401595,None,return,1.1438418212346733,334.6167745948769,None,,,,,,,,,,,,,,,,,,,,,,,,,,,,,,,,,,,,,,,172,001,2024_Feb_28_1756,SpeechDraft1Carolyn_lessNoise_PlusLocalization,2021.2.3,60.01050207152382,
cape.wav,cape.mpg,cape,2,A,Pink_Noise_2_1.wav,Pink_Noise_2_2.wav,,,,,,,,,,,,,,,0,3,3,53,,,,,,,,,,,,,,,,,,,,,,,335.7834568959661,None,337.2831071219407,None,338.66685544280335,None,"cape
",338.66685544280335,None,return,0.8505876762792468,338.7500584172085,None,,,,,,,,,,,,,,,,,,,,,,,,,,,,,,,,,,,,,,,172,001,2024_Feb_28_1756,SpeechDraft1Carolyn_lessNoise_PlusLocalization,2021.2.3,60.01050207152382,
cow.wav,cow.mpg,cow,3,A,Pink_Noise_3_1.wav,Pink_Noise_3_2.wav,,,,,,,,,,,,,,,0,4,4,38,,,,,,,,,,,,,,,,,,,,,,,339.6335005611181,None,341.13302295608446,None,342.5168013861403,None,cow,342.5168013861403,None,return,4.528458300977945,342.6001699739136,None,,,,,,,,,,,,,,,,,,,,,,,,,,,,,,,,,,,,,,,172,001,2024_Feb_28_1756,SpeechDraft1Carolyn_lessNoise_PlusLocalization,2021.2.3,60.01050207152382,
jam.wav,jam.mpg,jam,3,AV,Pink_Noise_3_1.wav,Pink_Noise_3_2.wav,,,,,,,,,,,,,,,0,5,5,61,,,,,,,,,,,,,,,,,,,,,,,347.1500637321733,None,348.64991218503565,None,350.0335365929641,None,jam,350.0335365929641,None,return,0.9797902540303767,350.11692744493484,None,,,,,,,,,,,,,,,,,,,,,,,,,,,,,,,,,,,,,,,172,001,2024_Feb_28_1756,SpeechDraft1Carolyn_lessNoise_PlusLocalization,2021.2.3,60.01050207152382,
bib.wav,bib.mpg,bib,3,AV,Pink_Noise_3_1.wav,Pink_Noise_3_2.wav,,,,,,,,,,,,,,,0,6,6,66,,,,,,,,,,,,,,,,,,,,,,,351.11686026724055,None,352.6178886932321,None,354.0000311238691,None,bib,354.0000311238691,None,return,2.9971924480050802,354.0834353901446,None,,,,,,,,,,,,,,,,,,,,,,,,,,,,,,,,,,,,,,,172,001,2024_Feb_28_1756,SpeechDraft1Carolyn_lessNoise_PlusLocalization,2021.2.3,60.01050207152382,
bribe.wav,bribe.mpg,bribe,4,AV,Pink_Noise_4_1.wav,Pink_Noise_4_2.wav,,,,,,,,,,,,,,,0,7,7,116,,,,,,,,,,,,,,,,,,,,,,,357.1001593680121,None,358.5998019981198,None,359.9834352210164,None,bribe,359.9834352210164,None,return,2.7820166903547943,360.06673989398405,None,,,,,,,,,,,,,,,,,,,,,,,,,,,,,,,,,,,,,,,172,001,2024_Feb_28_1756,SpeechDraft1Carolyn_lessNoise_PlusLocalization,2021.2.3,60.01050207152382,
deal.wav,deal.mpg,deal,1,AV,Pink_Noise_1_1.wav,Pink_Noise_1_2.wav,,,,,,,,,,,,,,,0,8,8,60,,,,,,,,,,,,,,,,,,,,,,,362.86684136791155,None,364.3664992460981,None,365.75022827880457,None,deal,365.75022827880457,None,return,1.0232329950667918,365.83347132382914,None,,,,,,,,,,,,,,,,,,,,,,,,,,,,,,,,,,,,,,,172,001,2024_Feb_28_1756,SpeechDraft1Carolyn_lessNoise_PlusLocalization,2021.2.3,60.01050207152382,
chow.wav,chow.mpg,chow,5,AV,Pink_Noise_5_1.wav,Pink_Noise_5_2.wav,,,,,,,,,,,,,,,0,9,9,84,,,,,,,,,,,,,,,,,,,,,,,366.8835445512086,None,368.3833036981523,None,369.7667904640548,None,chow,369.7667904640548,None,return,4.038489211350679,369.8501970269717,None,,,,,,,,,,,,,,,,,,,,,,,,,,,,,,,,,,,,,,,172,001,2024_Feb_28_1756,SpeechDraft1Carolyn_lessNoise_PlusLocalization,2021.2.3,60.01050207152382,
build.wav,build.mpg,build,2,AV,Pink_Noise_2_1.wav,Pink_Noise_2_2.wav,,,,,,,,,,,,,,,0,10,10,113,,,,,,,,,,,,,,,,,,,,,,,373.9168699788861,None,375.41658733412623,None,376.8000332522206,None,build,376.8000332522206,None,return,1.3091719057410955,376.8834625389427,None,,,,,,,,,,,,,,,,,,,,,,,,,,,,,,,,,,,,,,,172,001,2024_Feb_28_1756,SpeechDraft1Carolyn_lessNoise_PlusLocalization,2021.2.3,60.01050207152382,
ban.wav,ban.mpg,ban,2,AV,Pink_Noise_2_1.wav,Pink_Noise_2_2.wav,,,,,,,,,,,,,,,0,11,11,81,,,,,,,,,,,,,,,,,,,,,,,378.2169372658245,None,379.71664437418804,None,381.1001365650445,None,band,381.1001365650445,None,return,2.041203110013157,381.1834562718868,None,,,,,,,,,,,,,,,,,,,,,,,,,,,,,,,,,,,,,,,172,001,2024_Feb_28_1756,SpeechDraft1Carolyn_lessNoise_PlusLocalization,2021.2.3,60.01050207152382,
drug.wav,drug.mpg,drug,3,A,Pink_Noise_3_1.wav,Pink_Noise_3_2.wav,,,,,,,,,,,,,,,0,12,12,52,,,,,,,,,,,,,,,,,,,,,,,383.250211162027,None,384.7499556951225,None,386.1335126501508,None,drug,386.1335126501508,None,return,0.9276858288794756,386.2169386348687,None,,,,,,,,,,,,,,,,,,,,,,,,,,,,,,,,,,,,,,,172,001,2024_Feb_28_1756,SpeechDraft1Carolyn_lessNoise_PlusLocalization,2021.2.3,60.01050207152382,
glow.wav,glow.mpg,glow,6,A,Pink_Noise_6_1.wav,Pink_Noise_6_2.wav,,,,,,,,,,,,,,,0,13,13,9,,,,,,,,,,,,,,,,,,,,,,,387.1668279110454,None,388.6665267269127,None,390.050122638233,None,low,390.050122638233,None,return,0.9072442981414497,390.1335056112148,None,,,,,,,,,,,,,,,,,,,,,,,,,,,,,,,,,,,,,,,172,001,2024_Feb_28_1756,SpeechDraft1Carolyn_lessNoise_PlusLocalization,2021.2.3,60.01050207152382,
fade.wav,fade.mpg,fade,5,A,Pink_Noise_5_1.wav,Pink_Noise_5_2.wav,,,,,,,,,,,,,,,0,14,14,43,,,,,,,,,,,,,,,,,,,,,,,391.06682454701513,None,392.5665986710228,None,393.95021074591205,None,,393.95021074591205,None,return,1.5431401897221804,394.0334713580087,None,,,,,,,,,,,,,,,,,,,,,,,,,,,,,,,,,,,,,,,172,001,2024_Feb_28_1756,SpeechDraft1Carolyn_lessNoise_PlusLocalization,2021.2.3,60.01050207152382,
choke.wav,choke.mpg,choke,6,AV,Pink_Noise_6_1.wav,Pink_Noise_6_2.wav,,,,,,,,,,,,,,,0,15,15,92,,,,,,,,,,,,,,,,,,,,,,,395.6002584458329,None,397.09984294790775,None,398.4834469668567,None,"joe
",398.4834469668567,None,return,0.8017004323191941,398.56694462010637,None,,,,,,,,,,,,,,,,,,,,,,,,,,,,,,,,,,,,,,,172,001,2024_Feb_28_1756,SpeechDraft1Carolyn_lessNoise_PlusLocalization,2021.2.3,60.01050207152382,
cling.wav,cling.mpg,cling,6,AV,Pink_Noise_6_1.wav,Pink_Noise_6_2.wav,,,,,,,,,,,,,,,0,16,16,82,,,,,,,,,,,,,,,,,,,,,,,399.4002847932279,None,400.89989892486483,None,402.2835206910968,None,,402.2835206910968,None,return,1.6978235552087426,402.3668320402503,None,,,,,,,,,,,,,,,,,,,,,,,,,,,,,,,,,,,,,,,172,001,2024_Feb_28_1756,SpeechDraft1Carolyn_lessNoise_PlusLocalization,2021.2.3,60.01050207152382,
mass.wav,mass.mpg,mass,3,A,Pink_Noise_3_1.wav,Pink_Noise_3_2.wav,,,,,,,,,,,,,,,0,17,17,5,,,,,,,,,,,,,,,,,,,,,,,404.08359405910596,None,405.583282569889,None,406.9669288638979,None,less,406.9669288638979,None,return,1.2144831321202219,407.05015343800187,None,,,,,,,,,,,,,,,,,,,,,,,,,,,,,,,,,,,,,,,172,001,2024_Feb_28_1756,SpeechDraft1Carolyn_lessNoise_PlusLocalization,2021.2.3,60.01050207152382,
flex.wav,flex.mpg,flex,6,AV,Pink_Noise_6_1.wav,Pink_Noise_6_2.wav,,,,,,,,,,,,,,,0,18,18,75,,,,,,,,,,,,,,,,,,,,,,,408.28351306915283,None,409.7833543410525,None,411.1668140562251,None,flax,411.1668140562251,None,return,1.2943487837910652,411.2502742470242,None,,,,,,,,,,,,,,,,,,,,,,,,,,,,,,,,,,,,,,,172,001,2024_Feb_28_1756,SpeechDraft1Carolyn_lessNoise_PlusLocalization,2021.2.3,60.01050207152382,
skull.wav,skull.mpg,skull,5,AV,Pink_Noise_5_1.wav,Pink_Noise_5_2.wav,,,,,,,,,,,,,,,0,19,19,96,,,,,,,,,,,,,,,,,,,,,,,412.5668374658562,None,414.06662002997473,None,415.4502770039253,None,sto,415.4502770039253,None,return,1.2910486590117216,415.53359251189977,None,,,,,,,,,,,,,,,,,,,,,,,,,,,,,,,,,,,,,,,172,001,2024_Feb_28_1756,SpeechDraft1Carolyn_lessNoise_PlusLocalization,2021.2.3,60.01050207152382,
cube.wav,cube.mpg,cube,2,A,Pink_Noise_2_1.wav,Pink_Noise_2_2.wav,,,,,,,,,,,,,,,0,20,20,20,,,,,,,,,,,,,,,,,,,,,,,416.85033017909154,None,418.34984553884715,None,419.7336640842259,None,cute,419.7336640842259,None,return,2.3915789439342916,419.8170446269214,None,,,,,,,,,,,,,,,,,,,,,,,,,,,,,,,,,,,,,,,172,001,2024_Feb_28_1756,SpeechDraft1Carolyn_lessNoise_PlusLocalization,2021.2.3,60.01050207152382,
coat.wav,coat.mpg,coat,5,AV,Pink_Noise_5_1.wav,Pink_Noise_5_2.wav,,,,,,,,,,,,,,,0,21,21,88,,,,,,,,,,,,,,,,,,,,,,,422.2336323237978,None,423.7333298921585,None,425.11691487720236,None,coat,425.11691487720236,None,return,1.088455944787711,425.20026942901313,None,,,,,,,,,,,,,,,,,,,,,,,,,,,,,,,,,,,,,,,172,001,2024_Feb_28_1756,SpeechDraft1Carolyn_lessNoise_PlusLocalization,2021.2.3,60.01050207152382,
choir.wav,choir.mpg,choir,6,A,Pink_Noise_6_1.wav,Pink_Noise_6_2.wav,,,,,,,,,,,,,,,0,22,22,15,,,,,,,,,,,,,,,,,,,,,,,426.3168992968276,None,427.8333077239804,None,429.2168990331702,None,,429.2168990331702,None,return,0.40451068384572864,429.3002025000751,None,,,,,,,,,,,,,,,,,,,,,,,,,,,,,,,,,,,,,,,172,001,2024_Feb_28_1756,SpeechDraft1Carolyn_lessNoise_PlusLocalization,2021.2.3,60.01050207152382,
roar.wav,roar.mpg,roar,6,A,Pink_Noise_6_1.wav,Pink_Noise_6_2.wav,,,,,,,,,,,,,,,0,23,23,44,,,,,,,,,,,,,,,,,,,,,,,429.7334673581645,None,431.23324328288436,None,432.6169290598482,None,floor,432.6169290598482,None,return,1.3243489009328187,432.70027703698725,None,,,,,,,,,,,,,,,,,,,,,,,,,,,,,,,,,,,,,,,172,001,2024_Feb_28_1756,SpeechDraft1Carolyn_lessNoise_PlusLocalization,2021.2.3,60.01050207152382,
earth.wav,earth.mpg,earth,2,AV,Pink_Noise_2_1.wav,Pink_Noise_2_2.wav,,,,,,,,,,,,,,,0,24,24,104,,,,,,,,,,,,,,,,,,,,,,,434.05027510086074,None,435.5499944537878,None,436.9334764908999,None,earth,436.9334764908999,None,return,1.087668773252517,437.0169511451386,None,,,,,,,,,,,,,,,,,,,,,,,,,,,,,,,,,,,,,,,172,001,2024_Feb_28_1756,SpeechDraft1Carolyn_lessNoise_PlusLocalization,2021.2.3,60.01050207152382,
brand.wav,brand.mpg,brand,5,AV,Pink_Noise_5_1.wav,Pink_Noise_5_2.wav,,,,,,,,,,,,,,,0,25,25,94,,,,,,,,,,,,,,,,,,,,,,,438.1336716292426,None,439.6332356580533,None,441.0169051401317,None,,441.0169051401317,None,return,0.6442809919826686,441.1003214921802,None,,,,,,,,,,,,,,,,,,,,,,,,,,,,,,,,,,,,,,,172,001,2024_Feb_28_1756,SpeechDraft1Carolyn_lessNoise_PlusLocalization,2021.2.3,60.01050207152382,
groom.wav,groom.mpg,groom,5,AV,Pink_Noise_5_1.wav,Pink_Noise_5_2.wav,,,,,,,,,,,,,,,0,26,26,67,,,,,,,,,,,,,,,,,,,,,,,441.7671647062525,None,443.2666303580627,None,444.65023933397606,None,"drew
",444.65023933397606,None,return,0.8668541559018195,444.73378730611876,None,,,,,,,,,,,,,,,,,,,,,,,,,,,,,,,,,,,,,,,172,001,2024_Feb_28_1756,SpeechDraft1Carolyn_lessNoise_PlusLocalization,2021.2.3,60.01050207152382,
blank.wav,blank.mpg,blank,2,A,Pink_Noise_2_1.wav,Pink_Noise_2_2.wav,,,,,,,,,,,,,,,0,27,27,57,,,,,,,,,,,,,,,,,,,,,,,445.6336855990812,None,447.13400886114687,None,448.5170201668516,None,like,448.5170201668516,None,return,4.2564900713041425,448.60027108481154,None,,,,,,,,,,,,,,,,,,,,,,,,,,,,,,,,,,,,,,,172,001,2024_Feb_28_1756,SpeechDraft1Carolyn_lessNoise_PlusLocalization,2021.2.3,60.01050207152382,
claim.wav,claim.mpg,claim,5,A,Pink_Noise_5_1.wav,Pink_Noise_5_2.wav,,,,,,,,,,,,,,,0,28,28,39,,,,,,,,,,,,,,,,,,,,,,,452.88352448213845,None,454.383280408103,None,455.7668343852274,None,,455.7668343852274,None,return,0.8143275007605553,455.8503566728905,None,,,,,,,,,,,,,,,,,,,,,,,,,,,,,,,,,,,,,,,172,001,2024_Feb_28_1756,SpeechDraft1Carolyn_lessNoise_PlusLocalization,2021.2.3,60.01050207152382,
strive.wav,strive.mpg,strive,1,AV,Pink_Noise_1_1.wav,Pink_Noise_1_2.wav,,,,,,,,,,,,,,,0,29,29,77,,,,,,,,,,,,,,,,,,,,,,,456.68409857619554,None,458.18425254616886,None,459.56688146293163,None,strive,459.56688146293163,None,return,3.1664010039530694,459.65034341812134,None,,,,,,,,,,,,,,,,,,,,,,,,,,,,,,,,,,,,,,,172,001,2024_Feb_28_1756,SpeechDraft1Carolyn_lessNoise_PlusLocalization,2021.2.3,60.01050207152382,
swan.wav,swan.mpg,swan,4,A,Pink_Noise_4_1.wav,Pink_Noise_4_2.wav,,,,,,,,,,,,,,,0,30,30,8,,,,,,,,,,,,,,,,,,,,,,,462.83357154997066,None,464.33331433311105,None,465.7168780071661,None,,465.7168780071661,None,return,0.6405256339348853,465.8002354511991,None,,,,,,,,,,,,,,,,,,,,,,,,,,,,,,,,,,,,,,,172,001,2024_Feb_28_1756,SpeechDraft1Carolyn_lessNoise_PlusLocalization,2021.2.3,60.01050207152382,
calm.wav,calm.mpg,calm,4,A,Pink_Noise_4_1.wav,Pink_Noise_4_2.wav,,,,,,,,,,,,,,,0,31,31,16,,,,,,,,,,,,,,,,,,,,,,,466.4670395888388,None,467.9666142780334,None,469.35036150505766,None,all,469.35036150505766,None,return,0.815091195050627,469.43358455086127,None,,,,,,,,,,,,,,,,,,,,,,,,,,,,,,,,,,,,,,,172,001,2024_Feb_28_1756,SpeechDraft1Carolyn_lessNoise_PlusLocalization,2021.2.3,60.01050207152382,
debt.wav,debt.mpg,debt,3,A,Pink_Noise_3_1.wav,Pink_Noise_3_2.wav,,,,,,,,,,,,,,,0,32,32,42,,,,,,,,,,,,,,,,,,,,,,,470.2669073808938,None,471.7672755001113,None,473.150390884839,None,"desk
",473.150390884839,None,return,1.6870015496388078,473.2336242008023,None,,,,,,,,,,,,,,,,,,,,,,,,,,,,,,,,,,,,,,,172,001,2024_Feb_28_1756,SpeechDraft1Carolyn_lessNoise_PlusLocalization,2021.2.3,60.01050207152382,
chain.wav,chain.mpg,chain,2,A,Pink_Noise_2_1.wav,Pink_Noise_2_2.wav,,,,,,,,,,,,,,,0,33,33,1,,,,,,,,,,,,,,,,,,,,,,,474.9504156531766,None,476.450034391135,None,477.83367868606,None,chain,477.83367868606,None,return,0.9557753698900342,477.9170104060322,None,,,,,,,,,,,,,,,,,,,,,,,,,,,,,,,,,,,,,,,172,001,2024_Feb_28_1756,SpeechDraft1Carolyn_lessNoise_PlusLocalization,2021.2.3,60.01050207152382,
flog.wav,flog.mpg,flog,5,AV,Pink_Noise_5_1.wav,Pink_Noise_5_2.wav,,,,,,,,,,,,,,,0,34,34,99,,,,,,,,,,,,,,,,,,,,,,,478.90033546602353,None,480.3999958350323,None,481.7836754168384,None,"floor
",481.7836754168384,None,return,1.701552847865969,481.86707649519667,None,,,,,,,,,,,,,,,,,,,,,,,,,,,,,,,,,,,,,,,172,001,2024_Feb_28_1756,SpeechDraft1Carolyn_lessNoise_PlusLocalization,2021.2.3,60.01050207152382,
brash.wav,brash.mpg,brash,2,A,Pink_Noise_2_1.wav,Pink_Noise_2_2.wav,,,,,,,,,,,,,,,0,35,35,22,,,,,,,,,,,,,,,,,,,,,,,483.6003054548055,None,485.0999577860348,None,486.48374679498374,None,breash,486.48374679498374,None,return,3.1455371621996164,486.56709380308166,None,,,,,,,,,,,,,,,,,,,,,,,,,,,,,,,,,,,,,,,172,001,2024_Feb_28_1756,SpeechDraft1Carolyn_lessNoise_PlusLocalization,2021.2.3,60.01050207152382,
hug.wav,hug.mpg,hug,3,AV,Pink_Noise_3_1.wav,Pink_Noise_3_2.wav,,,,,,,,,,,,,,,0,36,36,117,,,,,,,,,,,,,,,,,,,,,,,489.7336436570622,None,491.23335018288344,None,492.6169652938843,None,hug,492.6169652938843,None,return,0.8282283181324601,492.70039238315076,None,,,,,,,,,,,,,,,,,,,,,,,,,,,,,,,,,,,,,,,172,001,2024_Feb_28_1756,SpeechDraft1Carolyn_lessNoise_PlusLocalization,2021.2.3,60.01050207152382,
crush.wav,crush.mpg,crush,5,A,Pink_Noise_5_1.wav,Pink_Noise_5_2.wav,,,,,,,,,,,,,,,0,37,37,41,,,,,,,,,,,,,,,,,,,,,,,493.55032480088994,None,495.06664628116414,None,496.4503346388228,None,crush,496.4503346388228,None,return,0.8830748097971082,496.5336550138891,None,,,,,,,,,,,,,,,,,,,,,,,,,,,,,,,,,,,,,,,172,001,2024_Feb_28_1756,SpeechDraft1Carolyn_lessNoise_PlusLocalization,2021.2.3,60.01050207152382,
grief.wav,grief.mpg,grief,3,AV,Pink_Noise_3_1.wav,Pink_Noise_3_2.wav,,,,,,,,,,,,,,,0,38,38,100,,,,,,,,,,,,,,,,,,,,,,,497.43369967024773,None,498.93335137097165,None,500.31712673790753,None,greive,500.31712673790753,None,return,3.8722713021561503,500.4004213982262,None,,,,,,,,,,,,,,,,,,,,,,,,,,,,,,,,,,,,,,,172,001,2024_Feb_28_1756,SpeechDraft1Carolyn_lessNoise_PlusLocalization,2021.2.3,60.01050207152382,
blunt.wav,blunt.mpg,blunt,3,A,Pink_Noise_3_1.wav,Pink_Noise_3_2.wav,,,,,,,,,,,,,,,0,39,39,26,,,,,,,,,,,,,,,,,,,,,,,504.3004421899095,None,505.79989434825256,None,507.1836929982528,None,blunt,507.1836929982528,None,return,3.5975788682699203,507.267081100028,None,,,,,,,,,,,,,,,,,,,,,,,,,,,,,,,,,,,,,,,172,001,2024_Feb_28_1756,SpeechDraft1Carolyn_lessNoise_PlusLocalization,2021.2.3,60.01050207152382,
card.wav,card.mpg,card,1,A,Pink_Noise_1_1.wav,Pink_Noise_1_2.wav,,,,,,,,,,,,,,,0,40,40,28,,,,,,,,,,,,,,,,,,,,,,,510.88386136712506,None,512.3833560869098,None,513.7670175628737,None,card,513.7670175628737,None,return,2.038320017978549,513.8503636647947,None,,,,,,,,,,,,,,,,,,,,,,,,,,,,,,,,,,,,,,,172,001,2024_Feb_28_1756,SpeechDraft1Carolyn_lessNoise_PlusLocalization,2021.2.3,60.01050207152382,
feed.wav,feed.mpg,feed,2,A,Pink_Noise_2_1.wav,Pink_Noise_2_2.wav,,,,,,,,,,,,,,,0,41,41,55,,,,,,,,,,,,,,,,,,,,,,,515.9172141789459,None,517.4167984589003,None,518.800454006996,None,"seed
",518.800454006996,None,return,1.284898922778666,518.88374385098,None,,,,,,,,,,,,,,,,,,,,,,,,,,,,,,,,,,,,,,,172,001,2024_Feb_28_1756,SpeechDraft1Carolyn_lessNoise_PlusLocalization,2021.2.3,60.01050207152382,
gab.wav,gab.mpg,gab,6,A,Pink_Noise_6_1.wav,Pink_Noise_6_2.wav,,,,,,,,,,,,,,,0,42,42,29,,,,,,,,,,,,,,,,,,,,,,,520.2004332449287,None,521.700098594185,None,523.083644518163,None,flask,523.083644518163,None,return,1.4496949641034007,523.1670454838313,None,,,,,,,,,,,,,,,,,,,,,,,,,,,,,,,,,,,,,,,172,001,2024_Feb_28_1756,SpeechDraft1Carolyn_lessNoise_PlusLocalization,2021.2.3,60.01050207152382,
bone.wav,bone.mpg,bone,5,A,Pink_Noise_5_1.wav,Pink_Noise_5_2.wav,,,,,,,,,,,,,,,0,43,43,17,,,,,,,,,,,,,,,,,,,,,,,524.6336954240687,None,526.1334233488888,None,527.5170626421459,None,"bone
",527.5170626421459,None,return,0.736191094852984,527.6004351070151,None,,,,,,,,,,,,,,,,,,,,,,,,,,,,,,,,,,,,,,,172,001,2024_Feb_28_1756,SpeechDraft1Carolyn_lessNoise_PlusLocalization,2021.2.3,60.01050207152382,
guess.wav,guess.mpg,guess,1,A,Pink_Noise_1_1.wav,Pink_Noise_1_2.wav,,,,,,,,,,,,,,,0,44,44,47,,,,,,,,,,,,,,,,,,,,,,,528.3671802771278,None,529.8834631522186,None,531.2670599301346,None,guest,531.2670599301346,None,return,0.5062174960039556,531.3505044472404,None,,,,,,,,,,,,,,,,,,,,,,,,,,,,,,,,,,,,,,,172,001,2024_Feb_28_1756,SpeechDraft1Carolyn_lessNoise_PlusLocalization,2021.2.3,60.01050207152382,
croak.wav,croak.mpg,croak,4,AV,Pink_Noise_4_1.wav,Pink_Noise_4_2.wav,,,,,,,,,,,,,,,0,45,45,109,,,,,,,,,,,,,,,,,,,,,,,531.8837262107991,None,533.3834500899538,None,534.7670510010794,None,throat,534.7670510010794,None,return,2.4063193518668413,534.8504588888027,None,,,,,,,,,,,,,,,,,,,,,,,,,,,,,,,,,,,,,,,172,001,2024_Feb_28_1756,SpeechDraft1Carolyn_lessNoise_PlusLocalization,2021.2.3,60.01050207152382,
ball.wav,ball.mpg,ball,1,AV,Pink_Noise_1_1.wav,Pink_Noise_1_2.wav,,,,,,,,,,,,,,,0,46,46,108,,,,,,,,,,,,,,,,,,,,,,,537.2837409460917,None,538.8000611020252,None,540.1836387822405,None,ball,540.1836387822405,None,return,0.7496030409820378,540.2671393980272,None,,,,,,,,,,,,,,,,,,,,,,,,,,,,,,,,,,,,,,,172,001,2024_Feb_28_1756,SpeechDraft1Carolyn_lessNoise_PlusLocalization,2021.2.3,60.01050207152382,
blend.wav,blend.mpg,blend,3,A,Pink_Noise_3_1.wav,Pink_Noise_3_2.wav,,,,,,,,,,,,,,,0,47,47,45,,,,,,,,,,,,,,,,,,,,,,,541.0338023430668,None,542.5334335751832,None,543.9171452680603,None,lent,543.9171452680603,None,return,0.9042374207638204,544.0003870348446,None,,,,,,,,,,,,,,,,,,,,,,,,,,,,,,,,,,,,,,,172,001,2024_Feb_28_1756,SpeechDraft1Carolyn_lessNoise_PlusLocalization,2021.2.3,60.01050207152382,
lie.wav,lie.mpg,lie,5,AV,Pink_Noise_5_1.wav,Pink_Noise_5_2.wav,,,,,,,,,,,,,,,0,48,48,73,,,,,,,,,,,,,,,,,,,,,,,544.9338651178405,None,546.4501733900979,None,547.8336567510851,None,"lie
",547.8336567510851,None,return,0.6194403232075274,547.9171980409883,None,,,,,,,,,,,,,,,,,,,,,,,,,,,,,,,,,,,,,,,172,001,2024_Feb_28_1756,SpeechDraft1Carolyn_lessNoise_PlusLocalization,2021.2.3,60.01050207152382,
wet.wav,wet.mpg,wet,4,A,Pink_Noise_4_1.wav,Pink_Noise_4_2.wav,,,,,,,,,,,,,,,0,49,49,10,,,,,,,,,,,,,,,,,,,,,,,548.5671385871246,None,550.083409295883,None,551.4671570588835,None,let,551.4671570588835,None,return,0.5064320210367441,551.5503905438818,None,,,,,,,,,,,,,,,,,,,,,,,,,,,,,,,,,,,,,,,172,001,2024_Feb_28_1756,SpeechDraft1Carolyn_lessNoise_PlusLocalization,2021.2.3,60.01050207152382,
bug.wav,bug.mpg,bug,5,A,Pink_Noise_5_1.wav,Pink_Noise_5_2.wav,,,,,,,,,,,,,,,0,50,50,51,,,,,,,,,,,,,,,,,,,,,,,552.0838728230447,None,553.5841581858695,None,554.9671436259523,None,bark,554.9671436259523,None,return,1.3581860060803592,555.0504294619896,None,,,,,,,,,,,,,,,,,,,,,,,,,,,,,,,,,,,,,,,172,001,2024_Feb_28_1756,SpeechDraft1Carolyn_lessNoise_PlusLocalization,2021.2.3,60.01050207152382,
bell.wav,bell.mpg,bell,4,A,Pink_Noise_4_1.wav,Pink_Noise_4_2.wav,,,,,,,,,,,,,,,0,51,51,11,,,,,,,,,,,,,,,,,,,,,,,556.4337304728106,None,557.9334183330648,None,559.3171413522214,None,"bell
",559.3171413522214,None,return,1.1521886237896979,559.400422859937,None,,,,,,,,,,,,,,,,,,,,,,,,,,,,,,,,,,,,,,,172,001,2024_Feb_28_1756,SpeechDraft1Carolyn_lessNoise_PlusLocalization,2021.2.3,60.01050207152382,
cash.wav,cash.mpg,cash,4,AV,Pink_Noise_4_1.wav,Pink_Noise_4_2.wav,,,,,,,,,,,,,,,0,52,52,71,,,,,,,,,,,,,,,,,,,,,,,560.58374684304,None,562.1000843159854,None,563.4837102009915,None,cash,563.4837102009915,None,return,0.9374640923924744,563.5671660900116,None,,,,,,,,,,,,,,,,,,,,,,,,,,,,,,,,,,,,,,,172,001,2024_Feb_28_1756,SpeechDraft1Carolyn_lessNoise_PlusLocalization,2021.2.3,60.01050207152382,
drunk.wav,drunk.mpg,drunk,2,AV,Pink_Noise_2_1.wav,Pink_Noise_2_2.wav,,,,,,,,,,,,,,,0,53,53,105,,,,,,,,,,,,,,,,,,,,,,,564.5337880831212,None,566.0334474220872,None,567.4170671608299,None,"drug
",567.4170671608299,None,return,0.8202052190899849,567.5004444359802,None,,,,,,,,,,,,,,,,,,,,,,,,,,,,,,,,,,,,,,,172,001,2024_Feb_28_1756,SpeechDraft1Carolyn_lessNoise_PlusLocalization,2021.2.3,60.01050207152382,
cheat.wav,cheat.mpg,cheat,5,A,Pink_Noise_5_1.wav,Pink_Noise_5_2.wav,,,,,,,,,,,,,,,0,54,54,36,,,,,,,,,,,,,,,,,,,,,,,568.3504072800279,None,569.8500885968097,None,571.2338733607903,None,chase,571.2338733607903,None,return,1.0754995411261916,571.3171436302364,None,,,,,,,,,,,,,,,,,,,,,,,,,,,,,,,,,,,,,,,172,001,2024_Feb_28_1756,SpeechDraft1Carolyn_lessNoise_PlusLocalization,2021.2.3,60.01050207152382,
leapt.wav,leapt.mpg,leapt,4,A,Pink_Noise_4_1.wav,Pink_Noise_4_2.wav,,,,,,,,,,,,,,,0,55,55,6,,,,,,,,,,,,,,,,,,,,,,,572.4171944041736,None,573.9167500562035,None,575.3005812489428,None,let,575.3005812489428,None,return,0.4407181623391807,575.3839166671969,None,,,,,,,,,,,,,,,,,,,,,,,,,,,,,,,,,,,,,,,172,001,2024_Feb_28_1756,SpeechDraft1Carolyn_lessNoise_PlusLocalization,2021.2.3,60.01050207152382,
cloth.wav,cloth.mpg,cloth,2,A,Pink_Noise_2_1.wav,Pink_Noise_2_2.wav,,,,,,,,,,,,,,,0,56,56,56,,,,,,,,,,,,,,,,,,,,,,,575.8504553781822,None,577.3669401048683,None,578.7504047080874,None,cloth,578.7504047080874,None,return,2.910824737045914,578.8338532238267,None,,,,,,,,,,,,,,,,,,,,,,,,,,,,,,,,,,,,,,,172,001,2024_Feb_28_1756,SpeechDraft1Carolyn_lessNoise_PlusLocalization,2021.2.3,60.01050207152382,
dirt.wav,dirt.mpg,dirt,3,A,Pink_Noise_3_1.wav,Pink_Noise_3_2.wav,,,,,,,,,,,,,,,0,57,57,23,,,,,,,,,,,,,,,,,,,,,,,581.7671314082108,None,583.2666764599271,None,584.6504611158744,None,"dirt
",584.6504611158744,None,return,0.7868826407939196,584.7337442459539,None,,,,,,,,,,,,,,,,,,,,,,,,,,,,,,,,,,,,,,,172,001,2024_Feb_28_1756,SpeechDraft1Carolyn_lessNoise_PlusLocalization,2021.2.3,60.01050207152382,
blade.wav,blade.mpg,blade,6,AV,Pink_Noise_6_1.wav,Pink_Noise_6_2.wav,,,,,,,,,,,,,,,0,58,58,97,,,,,,,,,,,,,,,,,,,,,,,585.5504305679351,None,587.0500493771397,None,588.4337351717986,None,"plau
",588.4337351717986,None,return,5.4513707049191,588.5172513457946,None,,,,,,,,,,,,,,,,,,,,,,,,,,,,,,,,,,,,,,,172,001,2024_Feb_28_1756,SpeechDraft1Carolyn_lessNoise_PlusLocalization,2021.2.3,60.01050207152382,
clam.wav,clam.mpg,clam,4,A,Pink_Noise_4_1.wav,Pink_Noise_4_2.wav,,,,,,,,,,,,,,,0,59,59,58,,,,,,,,,,,,,,,,,,,,,,,594.0005310750566,None,595.500055952929,None,596.8837761068717,None,plan,596.8837761068717,None,return,0.9935417887754738,596.9670916940086,None,,,,,,,,,,,,,,,,,,,,,,,,,,,,,,,,,,,,,,,172,001,2024_Feb_28_1756,SpeechDraft1Carolyn_lessNoise_PlusLocalization,2021.2.3,60.01050207152382,
break.wav,break.mpg,break,1,A,Pink_Noise_1_1.wav,Pink_Noise_1_2.wav,,,,,,,,,,,,,,,0,60,60,18,,,,,,,,,,,,,,,,,,,,,,,597.9838234200142,None,599.4835171811283,None,600.8671377049759,None,brake,600.8671377049759,None,return,1.4822652437724173,600.9504657429643,None,,,,,,,,,,,,,,,,,,,,,,,,,,,,,,,,,,,,,,,172,001,2024_Feb_28_1756,SpeechDraft1Carolyn_lessNoise_PlusLocalization,2021.2.3,60.01050207152382,
bound.wav,bound.mpg,bound,1,A,Pink_Noise_1_1.wav,Pink_Noise_1_2.wav,,,,,,,,,,,,,,,0,61,61,0,,,,,,,,,,,,,,,,,,,,,,,602.4505279702134,None,603.9501551650465,None,605.3337730430067,None,bout,605.3337730430067,None,return,7.02351508801803,605.4172703851946,None,,,,,,,,,,,,,,,,,,,,,,,,,,,,,,,,,,,,,,,172,001,2024_Feb_28_1756,SpeechDraft1Carolyn_lessNoise_PlusLocalization,2021.2.3,60.01050207152382,
chump.wav,chump.mpg,chump,3,A,Pink_Noise_3_1.wav,Pink_Noise_3_2.wav,,,,,,,,,,,,,,,0,62,62,34,,,,,,,,,,,,,,,,,,,,,,,612.4671598919667,None,613.9668767992407,None,615.3504907088354,None,chun,615.3504907088354,None,return,3.0068176509812474,615.4338722908869,None,,,,,,,,,,,,,,,,,,,,,,,,,,,,,,,,,,,,,,,172,001,2024_Feb_28_1756,SpeechDraft1Carolyn_lessNoise_PlusLocalization,2021.2.3,60.01050207152382,
flank.wav,flank.mpg,flank,4,AV,Pink_Noise_4_1.wav,Pink_Noise_4_2.wav,,,,,,,,,,,,,,,0,63,63,101,,,,,,,,,,,,,,,,,,,,,,,618.4672509180382,None,619.9835137221962,None,621.3671143609099,None,flank,621.3671143609099,None,return,1.5981371640227735,621.4505160269327,None,,,,,,,,,,,,,,,,,,,,,,,,,,,,,,,,,,,,,,,172,001,2024_Feb_28_1756,SpeechDraft1Carolyn_lessNoise_PlusLocalization,2021.2.3,60.01050207152382,
cone.wav,cone.mpg,cone,3,AV,Pink_Noise_3_1.wav,Pink_Noise_3_2.wav,,,,,,,,,,,,,,,0,64,64,114,,,,,,,,,,,,,,,,,,,,,,,623.0672745560296,None,624.5668586790562,None,625.9505616440438,None,cold,625.9505616440438,None,return,0.774764206726104,626.0338764688931,None,,,,,,,,,,,,,,,,,,,,,,,,,,,,,,,,,,,,,,,172,001,2024_Feb_28_1756,SpeechDraft1Carolyn_lessNoise_PlusLocalization,2021.2.3,60.01050207152382,
click.wav,click.mpg,click,1,A,Pink_Noise_1_1.wav,Pink_Noise_1_2.wav,,,,,,,,,,,,,,,0,65,65,33,,,,,,,,,,,,,,,,,,,,,,,626.833943542093,None,628.3346458198503,None,629.7172401552089,None,"click
",629.7172401552089,None,return,0.8881094311363995,629.8005281551741,None,,,,,,,,,,,,,,,,,,,,,,,,,,,,,,,,,,,,,,,172,001,2024_Feb_28_1756,SpeechDraft1Carolyn_lessNoise_PlusLocalization,2021.2.3,60.01050207152382,
cold.wav,cold.mpg,cold,5,AV,Pink_Noise_5_1.wav,Pink_Noise_5_2.wav,,,,,,,,,,,,,,,0,66,66,103,,,,,,,,,,,,,,,,,,,,,,,630.7174719288014,None,632.2335964851081,None,633.6171197360381,None,horse,633.6171197360381,None,return,1.9961815597489476,633.7004875731654,None,,,,,,,,,,,,,,,,,,,,,,,,,,,,,,,,,,,,,,,172,001,2024_Feb_28_1756,SpeechDraft1Carolyn_lessNoise_PlusLocalization,2021.2.3,60.01050207152382,
frog.wav,frog.mpg,frog,6,AV,Pink_Noise_6_1.wav,Pink_Noise_6_2.wav,,,,,,,,,,,,,,,0,67,67,111,,,,,,,,,,,,,,,,,,,,,,,635.7173200808465,None,637.2335555511527,None,638.6170070231892,None,far,638.6170070231892,None,return,0.8441140549257398,638.7004934921861,None,,,,,,,,,,,,,,,,,,,,,,,,,,,,,,,,,,,,,,,172,001,2024_Feb_28_1756,SpeechDraft1Carolyn_lessNoise_PlusLocalization,2021.2.3,60.01050207152382,
frail.wav,frail.mpg,frail,6,A,Pink_Noise_6_1.wav,Pink_Noise_6_2.wav,,,,,,,,,,,,,,,0,68,68,19,,,,,,,,,,,,,,,,,,,,,,,639.5671822479926,None,641.0835036770441,None,642.4672501790337,None,,642.4672501790337,None,return,1.2258901097811759,642.5507287411019,None,,,,,,,,,,,,,,,,,,,,,,,,,,,,,,,,,,,,,,,172,001,2024_Feb_28_1756,SpeechDraft1Carolyn_lessNoise_PlusLocalization,2021.2.3,60.01050207152382,
pact.wav,pact.mpg,pact,5,AV,Pink_Noise_5_1.wav,Pink_Noise_5_2.wav,,,,,,,,,,,,,,,0,69,69,107,,,,,,,,,,,,,,,,,,,,,,,643.800571470987,None,645.3169124191627,None,646.7004579561763,None,pat,646.7004579561763,None,return,1.1765946196392179,646.7840099348687,None,,,,,,,,,,,,,,,,,,,,,,,,,,,,,,,,,,,,,,,172,001,2024_Feb_28_1756,SpeechDraft1Carolyn_lessNoise_PlusLocalization,2021.2.3,60.01050207152382,
smack.wav,smack.mpg,smack,3,A,Pink_Noise_3_1.wav,Pink_Noise_3_2.wav,,,,,,,,,,,,,,,0,70,70,40,,,,,,,,,,,,,,,,,,,,,,,647.9837539992295,None,649.484804129228,None,650.8673825291917,None,snake,650.8673825291917,None,return,1.026064018253237,650.9505524639972,None,,,,,,,,,,,,,,,,,,,,,,,,,,,,,,,,,,,,,,,172,001,2024_Feb_28_1756,SpeechDraft1Carolyn_lessNoise_PlusLocalization,2021.2.3,60.01050207152382,
batch.wav,batch.mpg,batch,1,A,Pink_Noise_1_1.wav,Pink_Noise_1_2.wav,,,,,,,,,,,,,,,0,71,71,21,,,,,,,,,,,,,,,,,,,,,,,652.0005039968528,None,653.5335731110536,None,654.917231565807,None,batch,654.917231565807,None,return,1.7119827750138938,655.0006383960135,None,,,,,,,,,,,,,,,,,,,,,,,,,,,,,,,,,,,,,,,172,001,2024_Feb_28_1756,SpeechDraft1Carolyn_lessNoise_PlusLocalization,2021.2.3,60.01050207152382,
dwell.wav,dwell.mpg,dwell,4,AV,Pink_Noise_4_1.wav,Pink_Noise_4_2.wav,,,,,,,,,,,,,,,0,72,72,106,,,,,,,,,,,,,,,,,,,,,,,656.7339179138653,None,658.2503881221637,None,659.6339904461056,None,"dwell
",659.6339904461056,None,return,1.803417857736349,659.7172042950988,None,,,,,,,,,,,,,,,,,,,,,,,,,,,,,,,,,,,,,,,172,001,2024_Feb_28_1756,SpeechDraft1Carolyn_lessNoise_PlusLocalization,2021.2.3,60.01050207152382,
boost.wav,boost.mpg,boost,5,AV,Pink_Noise_5_1.wav,Pink_Noise_5_2.wav,,,,,,,,,,,,,,,0,73,73,98,,,,,,,,,,,,,,,,,,,,,,,661.5506010409445,None,663.0677423081361,None,664.45075619407,None,boost,664.45075619407,None,return,1.330746095161885,664.5338958660141,None,,,,,,,,,,,,,,,,,,,,,,,,,,,,,,,,,,,,,,,172,001,2024_Feb_28_1756,SpeechDraft1Carolyn_lessNoise_PlusLocalization,2021.2.3,60.01050207152382,
mold.wav,mold.mpg,mold,1,A,Pink_Noise_1_1.wav,Pink_Noise_1_2.wav,,,,,,,,,,,,,,,0,74,74,24,,,,,,,,,,,,,,,,,,,,,,,665.8838460128754,None,667.3839482632466,None,668.7671809052117,None,old,668.7671809052117,None,return,1.3498898292891681,668.8507206467912,None,,,,,,,,,,,,,,,,,,,,,,,,,,,,,,,,,,,,,,,172,001,2024_Feb_28_1756,SpeechDraft1Carolyn_lessNoise_PlusLocalization,2021.2.3,60.01050207152382,
beam.wav,beam.mpg,beam,3,AV,Pink_Noise_3_1.wav,Pink_Noise_3_2.wav,,,,,,,,,,,,,,,0,75,75,69,,,,,,,,,,,,,,,,,,,,,,,670.2172784288414,None,671.7336230459623,None,673.1174098728225,None,beam,673.1174098728225,None,return,1.7120915111154318,673.2005411721766,None,,,,,,,,,,,,,,,,,,,,,,,,,,,,,,,,,,,,,,,172,001,2024_Feb_28_1756,SpeechDraft1Carolyn_lessNoise_PlusLocalization,2021.2.3,60.01050207152382,
fan.wav,fan.mpg,fan,5,A,Pink_Noise_5_1.wav,Pink_Noise_5_2.wav,,,,,,,,,,,,,,,0,76,76,37,,,,,,,,,,,,,,,,,,,,,,,674.9340256941505,None,676.45038281288,None,677.8339543100446,None,"say
",677.8339543100446,None,return,2.0192613662220538,677.917381180916,None,,,,,,,,,,,,,,,,,,,,,,,,,,,,,,,,,,,,,,,172,001,2024_Feb_28_1756,SpeechDraft1Carolyn_lessNoise_PlusLocalization,2021.2.3,60.01050207152382,
fond.wav,fond.mpg,fond,1,AV,Pink_Noise_1_1.wav,Pink_Noise_1_2.wav,,,,,,,,,,,,,,,0,77,77,86,,,,,,,,,,,,,,,,,,,,,,,679.9673049552366,None,681.4836189588532,None,682.8672739989124,None,fond,682.8672739989124,None,return,1.6660492531955242,682.9506371160969,None,,,,,,,,,,,,,,,,,,,,,,,,,,,,,,,,,,,,,,,172,001,2024_Feb_28_1756,SpeechDraft1Carolyn_lessNoise_PlusLocalization,2021.2.3,60.01050207152382,
fowl.wav,fowl.mpg,fowl,1,AV,Pink_Noise_1_1.wav,Pink_Noise_1_2.wav,,,,,,,,,,,,,,,0,78,78,102,,,,,,,,,,,,,,,,,,,,,,,684.6504026302136,None,686.1669425508007,None,687.5506462859921,None,foul,687.5506462859921,None,return,0.8387739262543619,687.6339237908833,None,,,,,,,,,,,,,,,,,,,,,,,,,,,,,,,,,,,,,,,172,001,2024_Feb_28_1756,SpeechDraft1Carolyn_lessNoise_PlusLocalization,2021.2.3,60.01050207152382,
fine.wav,fine.mpg,fine,4,AV,Pink_Noise_4_1.wav,Pink_Noise_4_2.wav,,,,,,,,,,,,,,,0,79,79,72,,,,,,,,,,,,,,,,,,,,,,,688.5006855311804,None,690.0169308069162,None,691.4004565770738,None,frame,691.4004565770738,None,return,0.9728037929162383,691.4839416178875,None,,,,,,,,,,,,,,,,,,,,,,,,,,,,,,,,,,,,,,,172,001,2024_Feb_28_1756,SpeechDraft1Carolyn_lessNoise_PlusLocalization,2021.2.3,60.01050207152382,
cleft.wav,cleft.mpg,cleft,4,AV,Pink_Noise_4_1.wav,Pink_Noise_4_2.wav,,,,,,,,,,,,,,,0,80,80,90,,,,,,,,,,,,,,,,,,,,,,,692.4839207939804,None,694.0170272868127,None,695.4004679038189,None,clife,695.4004679038189,None,return,2.6287430548109114,695.4838899080642,None,,,,,,,,,,,,,,,,,,,,,,,,,,,,,,,,,,,,,,,172,001,2024_Feb_28_1756,SpeechDraft1Carolyn_lessNoise_PlusLocalization,2021.2.3,60.01050207152382,
quit.wav,quit.mpg,quit,2,AV,Pink_Noise_2_1.wav,Pink_Noise_2_2.wav,,,,,,,,,,,,,,,0,81,81,89,,,,,,,,,,,,,,,,,,,,,,,698.1339862011373,None,699.6503479960375,None,701.0340487649664,None,quit,701.0340487649664,None,return,1.0273564560338855,701.1172611461952,None,,,,,,,,,,,,,,,,,,,,,,,,,,,,,,,,,,,,,,,172,001,2024_Feb_28_1756,SpeechDraft1Carolyn_lessNoise_PlusLocalization,2021.2.3,60.01050207152382,
cycle.wav,cycle.mpg,cycle,6,A,Pink_Noise_6_1.wav,Pink_Noise_6_2.wav,,,,,,,,,,,,,,,0,82,82,46,,,,,,,,,,,,,,,,,,,,,,,702.1673634718172,None,703.6836098982021,None,705.0672900271602,None,,705.0672900271602,None,return,0.3061028867959976,705.1506143189035,None,,,,,,,,,,,,,,,,,,,,,,,,,,,,,,,,,,,,,,,172,001,2024_Feb_28_1756,SpeechDraft1Carolyn_lessNoise_PlusLocalization,2021.2.3,60.01050207152382,
snake.wav,snake.mpg,snake,3,AV,Pink_Noise_3_1.wav,Pink_Noise_3_2.wav,,,,,,,,,,,,,,,0,83,83,95,,,,,,,,,,,,,,,,,,,,,,,705.48438273184,None,707.0002300208434,None,708.3839286551811,None,snake,708.3839286551811,None,return,0.949310215190053,708.4674192639068,None,,,,,,,,,,,,,,,,,,,,,,,,,,,,,,,,,,,,,,,172,001,2024_Feb_28_1756,SpeechDraft1Carolyn_lessNoise_PlusLocalization,2021.2.3,60.01050207152382,
jeep.wav,jeep.mpg,jeep,4,A,Pink_Noise_4_1.wav,Pink_Noise_4_2.wav,,,,,,,,,,,,,,,0,84,84,2,,,,,,,,,,,,,,,,,,,,,,,709.434071120806,None,710.9502744958736,None,712.3340832330287,None,jake,712.3340832330287,None,return,0.6155118839815259,712.4173117182218,None,,,,,,,,,,,,,,,,,,,,,,,,,,,,,,,,,,,,,,,172,001,2024_Feb_28_1756,SpeechDraft1Carolyn_lessNoise_PlusLocalization,2021.2.3,60.01050207152382,
hit.wav,hit.mpg,hit,1,AV,Pink_Noise_1_1.wav,Pink_Noise_1_2.wav,,,,,,,,,,,,,,,0,85,85,115,,,,,,,,,,,,,,,,,,,,,,,713.0506656188518,None,714.5838531539775,None,715.9672543741763,None,hit,715.9672543741763,None,return,0.774122673086822,716.0506231128238,None,,,,,,,,,,,,,,,,,,,,,,,,,,,,,,,,,,,,,,,172,001,2024_Feb_28_1756,SpeechDraft1Carolyn_lessNoise_PlusLocalization,2021.2.3,60.01050207152382,
coy.wav,coy.mpg,coy,2,A,Pink_Noise_2_1.wav,Pink_Noise_2_2.wav,,,,,,,,,,,,,,,0,86,86,7,,,,,,,,,,,,,,,,,,,,,,,716.8506549699232,None,718.3669796232134,None,719.7507473891601,None,toy,719.7507473891601,None,return,3.7585702599026263,719.8340722261928,None,,,,,,,,,,,,,,,,,,,,,,,,,,,,,,,,,,,,,,,172,001,2024_Feb_28_1756,SpeechDraft1Carolyn_lessNoise_PlusLocalization,2021.2.3,60.01050207152382,
fruit.wav,fruit.mpg,fruit,6,AV,Pink_Noise_6_1.wav,Pink_Noise_6_2.wav,,,,,,,,,,,,,,,0,87,87,68,,,,,,,,,,,,,,,,,,,,,,,723.6173332338221,None,725.1336992611177,None,726.517093851231,None,"forth
",726.517093851231,None,return,2.1359279276803136,726.6007035011426,None,,,,,,,,,,,,,,,,,,,,,,,,,,,,,,,,,,,,,,,172,001,2024_Feb_28_1756,SpeechDraft1Carolyn_lessNoise_PlusLocalization,2021.2.3,60.01050207152382,
drain.wav,drain.mpg,drain,5,A,Pink_Noise_5_1.wav,Pink_Noise_5_2.wav,,,,,,,,,,,,,,,0,88,88,35,,,,,,,,,,,,,,,,,,,,,,,728.7674624500796,None,730.3005014131777,None,731.6840439871885,None,hey,731.6840439871885,None,return,2.2973045487888157,731.7673314060085,None,,,,,,,,,,,,,,,,,,,,,,,,,,,,,,,,,,,,,,,172,001,2024_Feb_28_1756,SpeechDraft1Carolyn_lessNoise_PlusLocalization,2021.2.3,60.01050207152382,
dot.wav,dot.mpg,dot,2,A,Pink_Noise_2_1.wav,Pink_Noise_2_2.wav,,,,,,,,,,,,,,,0,89,89,3,,,,,,,,,,,,,,,,,,,,,,,734.0840090569109,None,735.6003709570505,None,736.9839515131898,None,dot,736.9839515131898,None,return,0.6452985373325646,737.0673536858521,None,,,,,,,,,,,,,,,,,,,,,,,,,,,,,,,,,,,,,,,172,001,2024_Feb_28_1756,SpeechDraft1Carolyn_lessNoise_PlusLocalization,2021.2.3,60.01050207152382,
gown.wav,gown.mpg,gown,4,A,Pink_Noise_4_1.wav,Pink_Noise_4_2.wav,,,,,,,,,,,,,,,0,90,90,25,,,,,,,,,,,,,,,,,,,,,,,737.7340045841411,None,739.2504360559396,None,740.6340899490751,None,bell,740.6340899490751,None,return,0.8994018519297242,740.7172776442021,None,,,,,,,,,,,,,,,,,,,,,,,,,,,,,,,,,,,,,,,172,001,2024_Feb_28_1756,SpeechDraft1Carolyn_lessNoise_PlusLocalization,2021.2.3,60.01050207152382,
fame.wav,fame.mpg,fame,1,A,Pink_Noise_1_1.wav,Pink_Noise_1_2.wav,,,,,,,,,,,,,,,0,91,91,12,,,,,,,,,,,,,,,,,,,,,,,741.6340904911049,None,743.1503520109691,None,744.5340390438214,None,fame,744.5340390438214,None,return,1.0313563668169081,744.6172766471282,None,,,,,,,,,,,,,,,,,,,,,,,,,,,,,,,,,,,,,,,172,001,2024_Feb_28_1756,SpeechDraft1Carolyn_lessNoise_PlusLocalization,2021.2.3,60.01050207152382,
grip.wav,grip.mpg,grip,2,AV,Pink_Noise_2_1.wav,Pink_Noise_2_2.wav,,,,,,,,,,,,,,,0,92,92,93,,,,,,,,,,,,,,,,,,,,,,,745.6673897961155,None,747.1837106659077,None,748.5674469391815,None,grip,748.5674469391815,None,return,0.9977924879640341,748.6508831060492,None,,,,,,,,,,,,,,,,,,,,,,,,,,,,,,,,,,,,,,,172,001,2024_Feb_28_1756,SpeechDraft1Carolyn_lessNoise_PlusLocalization,2021.2.3,60.01050207152382,
flee.wav,flee.mpg,flee,1,AV,Pink_Noise_1_1.wav,Pink_Noise_1_2.wav,,,,,,,,,,,,,,,0,93,93,63,,,,,,,,,,,,,,,,,,,,,,,749.6674381778575,None,751.1860005329363,None,752.5674122418277,None,flee,752.5674122418277,None,return,0.9258833467029035,752.6507394588552,None,,,,,,,,,,,,,,,,,,,,,,,,,,,,,,,,,,,,,,,172,001,2024_Feb_28_1756,SpeechDraft1Carolyn_lessNoise_PlusLocalization,2021.2.3,60.01050207152382,
dash.wav,dash.mpg,dash,6,AV,Pink_Noise_6_1.wav,Pink_Noise_6_2.wav,,,,,,,,,,,,,,,0,94,94,118,,,,,,,,,,,,,,,,,,,,,,,753.600752485916,None,755.133578020148,None,756.5175331272185,None,ditch,756.5175331272185,None,return,1.159790567588061,756.6008253628388,None,,,,,,,,,,,,,,,,,,,,,,,,,,,,,,,,,,,,,,,172,001,2024_Feb_28_1756,SpeechDraft1Carolyn_lessNoise_PlusLocalization,2021.2.3,60.01050207152382,
bright.wav,bright.mpg,bright,6,A,Pink_Noise_6_1.wav,Pink_Noise_6_2.wav,,,,,,,,,,,,,,,0,95,95,54,,,,,,,,,,,,,,,,,,,,,,,757.7841427051462,None,759.3169310521334,None,760.7006067042239,None,flow,760.7006067042239,None,return,0.7604879271239042,760.7841279110871,None,,,,,,,,,,,,,,,,,,,,,,,,,,,,,,,,,,,,,,,172,001,2024_Feb_28_1756,SpeechDraft1Carolyn_lessNoise_PlusLocalization,2021.2.3,60.01050207152382,
strike.wav,strike.mpg,strike,3,AV,Pink_Noise_3_1.wav,Pink_Noise_3_2.wav,,,,,,,,,,,,,,,0,96,96,78,,,,,,,,,,,,,,,,,,,,,,,761.5674197431654,None,763.0837821448222,None,764.4673101999797,None,"strike
",764.4673101999797,None,return,1.4018001360818744,764.550816767849,None,,,,,,,,,,,,,,,,,,,,,,,,,,,,,,,,,,,,,,,172,001,2024_Feb_28_1756,SpeechDraft1Carolyn_lessNoise_PlusLocalization,2021.2.3,60.01050207152382,
grass.wav,grass.mpg,grass,4,AV,Pink_Noise_4_1.wav,Pink_Noise_4_2.wav,,,,,,,,,,,,,,,0,97,97,79,,,,,,,,,,,,,,,,,,,,,,,765.9840632649139,None,767.5169853102416,None,768.900592144113,None,"grass
",768.900592144113,None,return,1.5684711537323892,768.9841795437969,None,,,,,,,,,,,,,,,,,,,,,,,,,,,,,,,,,,,,,,,172,001,2024_Feb_28_1756,SpeechDraft1Carolyn_lessNoise_PlusLocalization,2021.2.3,60.01050207152382,
pop.wav,pop.mpg,pop,6,AV,Pink_Noise_6_1.wav,Pink_Noise_6_2.wav,,,,,,,,,,,,,,,0,98,98,74,,,,,,,,,,,,,,,,,,,,,,,770.5841066520661,None,772.1005196371116,None,773.4840123760514,None,pipe,773.4840123760514,None,return,0.9771810309030116,773.5674424590543,None,,,,,,,,,,,,,,,,,,,,,,,,,,,,,,,,,,,,,,,172,001,2024_Feb_28_1756,SpeechDraft1Carolyn_lessNoise_PlusLocalization,2021.2.3,60.01050207152382,
grand.wav,grand.mpg,grand,2,AV,Pink_Noise_2_1.wav,Pink_Noise_2_2.wav,,,,,,,,,,,,,,,0,99,99,65,,,,,,,,,,,,,,,,,,,,,,,774.5672800391912,None,776.1023448389024,None,777.4839907968417,None,grand,777.4839907968417,None,return,1.6092956806533039,777.5673567680642,None,,,,,,,,,,,,,,,,,,,,,,,,,,,,,,,,,,,,,,,172,001,2024_Feb_28_1756,SpeechDraft1Carolyn_lessNoise_PlusLocalization,2021.2.3,60.01050207152382,
wild.wav,wild.mpg,wild,6,A,Pink_Noise_6_1.wav,Pink_Noise_6_2.wav,,,,,,,,,,,,,,,0,100,100,4,,,,,,,,,,,,,,,,,,,,,,,779.2007261440158,None,780.7504414650612,None,782.1340884938836,None,white,782.1340884938836,None,return,0.8231317917816341,782.2175701428205,None,,,,,,,,,,,,,,,,,,,,,,,,,,,,,,,,,,,,,,,172,001,2024_Feb_28_1756,SpeechDraft1Carolyn_lessNoise_PlusLocalization,2021.2.3,60.01050207152382,
tool.wav,tool.mpg,tool,2,AV,Pink_Noise_2_1.wav,Pink_Noise_2_2.wav,,,,,,,,,,,,,,,0,101,101,64,,,,,,,,,,,,,,,,,,,,,,,783.0674427878112,None,784.5847153710201,None,785.9673300208524,None,toy,785.9673300208524,None,return,0.8300182642415166,786.0507223098539,None,,,,,,,,,,,,,,,,,,,,,,,,,,,,,,,,,,,,,,,172,001,2024_Feb_28_1756,SpeechDraft1Carolyn_lessNoise_PlusLocalization,2021.2.3,60.01050207152382,
dance.wav,dance.mpg,dance,5,A,Pink_Noise_5_1.wav,Pink_Noise_5_2.wav,,,,,,,,,,,,,,,0,102,102,27,,,,,,,,,,,,,,,,,,,,,,,786.9007204798982,None,788.4172109188512,None,789.8007819522172,None,,789.8007819522172,None,return,0.6205124398693442,789.8841238799505,None,,,,,,,,,,,,,,,,,,,,,,,,,,,,,,,,,,,,,,,172,001,2024_Feb_28_1756,SpeechDraft1Carolyn_lessNoise_PlusLocalization,2021.2.3,60.01050207152382,
curb.wav,curb.mpg,curb,3,AV,Pink_Noise_3_1.wav,Pink_Noise_3_2.wav,,,,,,,,,,,,,,,0,103,103,112,,,,,,,,,,,,,,,,,,,,,,,790.5344990137964,None,792.0504706930369,None,793.4340189988725,None,curb,793.4340189988725,None,return,1.07513692881912,793.5175034068525,None,,,,,,,,,,,,,,,,,,,,,,,,,,,,,,,,,,,,,,,172,001,2024_Feb_28_1756,SpeechDraft1Carolyn_lessNoise_PlusLocalization,2021.2.3,60.01050207152382,
gang.wav,gang.mpg,gang,4,AV,Pink_Noise_4_1.wav,Pink_Noise_4_2.wav,,,,,,,,,,,,,,,0,104,104,119,,,,,,,,,,,,,,,,,,,,,,,794.6174842962064,None,796.1347189708613,None,797.5174696189351,None,"gang
",797.5174696189351,None,return,1.1358996760100126,797.6007290510461,None,,,,,,,,,,,,,,,,,,,,,,,,,,,,,,,,,,,,,,,172,001,2024_Feb_28_1756,SpeechDraft1Carolyn_lessNoise_PlusLocalization,2021.2.3,60.01050207152382,
chase.wav,chase.mpg,chase,3,AV,Pink_Noise_3_1.wav,Pink_Noise_3_2.wav,,,,,,,,,,,,,,,0,105,105,91,,,,,,,,,,,,,,,,,,,,,,,798.7673804489896,None,800.2840011972003,None,801.6673008929938,None,chase,801.6673008929938,None,return,0.8738613869063556,801.7508731181733,None,,,,,,,,,,,,,,,,,,,,,,,,,,,,,,,,,,,,,,,172,001,2024_Feb_28_1756,SpeechDraft1Carolyn_lessNoise_PlusLocalization,2021.2.3,60.01050207152382,
boat.wav,boat.mpg,boat,6,AV,Pink_Noise_6_1.wav,Pink_Noise_6_2.wav,,,,,,,,,,,,,,,0,106,106,110,,,,,,,,,,,,,,,,,,,,,,,802.6507655777968,None,804.2004579892382,None,805.5841176328249,None,boat,805.5841176328249,None,return,0.7573503628373146,805.6674196152017,None,,,,,,,,,,,,,,,,,,,,,,,,,,,,,,,,,,,,,,,172,001,2024_Feb_28_1756,SpeechDraft1Carolyn_lessNoise_PlusLocalization,2021.2.3,60.01050207152382,
gym.wav,gym.mpg,gym,6,AV,Pink_Noise_6_1.wav,Pink_Noise_6_2.wav,,,,,,,,,,,,,,,0,107,107,76,,,,,,,,,,,,,,,,,,,,,,,806.4508942398243,None,807.9838439710438,None,809.3684411100112,None,chip,809.3684411100112,None,return,1.0779286161996424,809.4506881320849,None,,,,,,,,,,,,,,,,,,,,,,,,,,,,,,,,,,,,,,,172,001,2024_Feb_28_1756,SpeechDraft1Carolyn_lessNoise_PlusLocalization,2021.2.3,60.01050207152382,
clog.wav,clog.mpg,clog,4,A,Pink_Noise_4_1.wav,Pink_Noise_4_2.wav,,,,,,,,,,,,,,,0,108,108,14,,,,,,,,,,,,,,,,,,,,,,,810.55082554603,None,812.0838441550732,None,813.4676443520002,None,bond,813.4676443520002,None,return,2.5299018248915672,813.5507811601274,None,,,,,,,,,,,,,,,,,,,,,,,,,,,,,,,,,,,,,,,172,001,2024_Feb_28_1756,SpeechDraft1Carolyn_lessNoise_PlusLocalization,2021.2.3,60.01050207152382,
flat.wav,flat.mpg,flat,1,A,Pink_Noise_1_1.wav,Pink_Noise_1_2.wav,,,,,,,,,,,,,,,0,109,109,31,,,,,,,,,,,,,,,,,,,,,,,816.1007952620275,None,817.6171052041464,None,819.0008683120832,None,fla,819.0008683120832,None,return,1.1085252398625016,819.0840964792296,None,,,,,,,,,,,,,,,,,,,,,,,,,,,,,,,,,,,,,,,172,001,2024_Feb_28_1756,SpeechDraft1Carolyn_lessNoise_PlusLocalization,2021.2.3,60.01050207152382,
chat.wav,chat.mpg,chat,6,A,Pink_Noise_6_1.wav,Pink_Noise_6_2.wav,,,,,,,,,,,,,,,0,110,110,32,,,,,,,,,,,,,,,,,,,,,,,820.2175282700919,None,821.7506039841101,None,823.1342478510924,None,chack,823.1342478510924,None,return,2.847197212744504,823.2174303391948,None,,,,,,,,,,,,,,,,,,,,,,,,,,,,,,,,,,,,,,,172,001,2024_Feb_28_1756,SpeechDraft1Carolyn_lessNoise_PlusLocalization,2021.2.3,60.01050207152382,
unit.wav,unit.mpg,unit,1,A,Pink_Noise_1_1.wav,Pink_Noise_1_2.wav,,,,,,,,,,,,,,,0,111,111,59,,,,,,,,,,,,,,,,,,,,,,,826.0842690430582,None,827.6003754460253,None,828.9841639101505,None,"unit
",828.9841639101505,None,return,1.9011493609286845,829.0674830921926,None,,,,,,,,,,,,,,,,,,,,,,,,,,,,,,,,,,,,,,,172,001,2024_Feb_28_1756,SpeechDraft1Carolyn_lessNoise_PlusLocalization,2021.2.3,60.01050207152382,
grape.wav,grape.mpg,grape,1,AV,Pink_Noise_1_1.wav,Pink_Noise_1_2.wav,,,,,,,,,,,,,,,0,112,112,62,,,,,,,,,,,,,,,,,,,,,,,831.0008386862464,None,832.5171170770191,None,833.9007214568555,None,"grape
",833.9007214568555,None,return,1.4004912870004773,833.9841546858661,None,,,,,,,,,,,,,,,,,,,,,,,,,,,,,,,,,,,,,,,172,001,2024_Feb_28_1756,SpeechDraft1Carolyn_lessNoise_PlusLocalization,2021.2.3,60.01050207152382,
beg.wav,beg.mpg,beg,5,A,Pink_Noise_5_1.wav,Pink_Noise_5_2.wav,,,,,,,,,,,,,,,0,113,113,48,,,,,,,,,,,,,,,,,,,,,,,835.4173534791917,None,836.9504939741455,None,838.3342366339639,None,,838.3342366339639,None,return,0.3751644450239837,838.4174596760422,None,,,,,,,,,,,,,,,,,,,,,,,,,,,,,,,,,,,,,,,172,001,2024_Feb_28_1756,SpeechDraft1Carolyn_lessNoise_PlusLocalization,2021.2.3,60.01050207152382,
curl.wav,curl.mpg,curl,4,A,Pink_Noise_4_1.wav,Pink_Noise_4_2.wav,,,,,,,,,,,,,,,0,114,114,13,,,,,,,,,,,,,,,,,,,,,,,838.8177333478816,None,840.3505428992212,None,841.7341150618158,None,girl,841.7341150618158,None,return,3.078996278811246,841.8176223221235,None,,,,,,,,,,,,,,,,,,,,,,,,,,,,,,,,,,,,,,,172,001,2024_Feb_28_1756,SpeechDraft1Carolyn_lessNoise_PlusLocalization,2021.2.3,60.01050207152382,
fate.wav,fate.mpg,fate,1,AV,Pink_Noise_1_1.wav,Pink_Noise_1_2.wav,,,,,,,,,,,,,,,0,115,115,87,,,,,,,,,,,,,,,,,,,,,,,844.9174725590274,None,846.4339155950584,None,847.81760992622,None,"fit
",847.81760992622,None,return,1.4197449451312423,847.9008761420846,None,,,,,,,,,,,,,,,,,,,,,,,,,,,,,,,,,,,,,,,172,001,2024_Feb_28_1756,SpeechDraft1Carolyn_lessNoise_PlusLocalization,2021.2.3,60.01050207152382,
led.wav,led.mpg,led,2,AV,Pink_Noise_2_1.wav,Pink_Noise_2_2.wav,,,,,,,,,,,,,,,0,116,116,85,,,,,,,,,,,,,,,,,,,,,,,849.3508878778666,None,850.8837650828063,None,852.2673757118173,None,"led
",852.2673757118173,None,return,0.6017830758355558,852.3508330909535,None,,,,,,,,,,,,,,,,,,,,,,,,,,,,,,,,,,,,,,,172,001,2024_Feb_28_1756,SpeechDraft1Carolyn_lessNoise_PlusLocalization,2021.2.3,60.01050207152382,
cough.wav,cough.mpg,cough,2,AV,Pink_Noise_2_1.wav,Pink_Noise_2_2.wav,,,,,,,,,,,,,,,0,117,117,80,,,,,,,,,,,,,,,,,,,,,,,852.9841618440114,None,854.500432997942,None,855.8842595471069,None,cough,855.8842595471069,None,return,2.145134844817221,855.9674999620765,None,,,,,,,,,,,,,,,,,,,,,,,,,,,,,,,,,,,,,,,172,001,2024_Feb_28_1756,SpeechDraft1Carolyn_lessNoise_PlusLocalization,2021.2.3,60.01050207152382,
count.wav,count.mpg,count,4,AV,Pink_Noise_4_1.wav,Pink_Noise_4_2.wav,,,,,,,,,,,,,,,0,118,118,70,,,,,,,,,,,,,,,,,,,,,,,858.134170319885,None,859.667185659986,None,861.0510054160841,None,"kelt
",861.0510054160841,None,return,2.4344448358751833,861.1341856429353,None,,,,,,,,,,,,,,,,,,,,,,,,,,,,,,,,,,,,,,,172,001,2024_Feb_28_1756,SpeechDraft1Carolyn_lessNoise_PlusLocalization,2021.2.3,60.01050207152382,
bowl.wav,bowl.mpg,bowl,1,AV,Pink_Noise_1_1.wav,Pink_Noise_1_2.wav,,,,,,,,,,,,,,,0,119,119,83,,,,,,,,,,,,,,,,,,,,,,,863.6008243020624,None,865.1187905902043,None,866.5009210929275,None,"bold
",866.5009210929275,None,return,0.8004518491216004,866.5841746679507,None,,,,,,,,,,,,,,,,,,,,,,,,,,,,,,,,,,,,,,,172,001,2024_Feb_28_1756,SpeechDraft1Carolyn_lessNoise_PlusLocalization,2021.2.3,60.01050207152382,
,,,,,,,,,,,,,,,,,,,,,,,,,,,,,,,,,,,,,,,,,,,,,,,,,,,,,,,,,,,,,,,,,,space,16.067021491006017,867.5176072241738,None,,,,,,,,,,,,,,,,,,,,,,,,,,,,,172,001,2024_Feb_28_1756,SpeechDraft1Carolyn_lessNoise_PlusLocalization,2021.2.3,60.01050207152382,
,,,,,,,,nearRight,6.5,0,ch1Sound_localizationTask.wav,6.5,"(1047, 878)","(87, -202)",95,-338,,,,,,,,,0,0,0,4,,,,,,,,,,,,,,,,,,,,,,,,,,,,,,,,,,,,,,,,,,867.5176072241738,None,883.6340510849841,None,884.7340087629855,None,885.6672500721179,None,1.4878306878306877,3.7196512361988425,885.6672500721179,None,,,,,,,,,,,,,,,,,172,001,2024_Feb_28_1756,SpeechDraft1Carolyn_lessNoise_PlusLocalization,2021.2.3,60.01050207152382,
,,,,,,,,midLeft,-13.0,2,ch1Sound_localizationTask.wav,-13.0,"(762, 878)","(-198,-202)",-190,-338,,,,,,,,,0,1,1,1,,,,,,,,,,,,,,,,,,,,,,,,,,,,,,,,,,,,,,,,,,,,889.3844704432413,None,890.4839795338921,None,891.4174111080356,None,1.328042328042328,0.6505250302143395,891.4174111080356,None,,,,,,,,,,,,,,,,,172,001,2024_Feb_28_1756,SpeechDraft1Carolyn_lessNoise_PlusLocalization,2021.2.3,60.01050207152382,
,,,,,,,,center,0.0,6,ch1Sound_localizationTask.wav,0.0,"(952, 878)","(-8,-202)",0,-338,,,,,,,,,0,2,2,3,,,,,,,,,,,,,,,,,,,,,,,,,,,,,,,,,,,,,,,,,,,,892.0844990541227,None,893.1840167520568,None,894.1172519898973,None,1.4772486772486773,0.7001419151201844,894.1172519898973,None,,,,,,,,,,,,,,,,,172,001,2024_Feb_28_1756,SpeechDraft1Carolyn_lessNoise_PlusLocalization,2021.2.3,60.01050207152382,
,,,,,,,,farRight,19.1,4,ch1Sound_localizationTask.wav,19.1,"(1237, 878)","(277,-202)",285,-338,,,,,,,,,0,3,3,6,,,,,,,,,,,,,,,,,,,,,,,,,,,,,,,,,,,,,,,,,,,,894.8344244128093,None,895.9340355237946,None,896.8674018699676,None,1.6576719576719576,0.7661410076543689,896.8674018699676,None,,,,,,,,,,,,,,,,,172,001,2024_Feb_28_1756,SpeechDraft1Carolyn_lessNoise_PlusLocalization,2021.2.3,60.01050207152382,
,,,,,,,,center,0.0,6,ch1Sound_localizationTask.wav,0.0,"(952, 878)","(-8,-202)",0,-338,,,,,,,,,0,4,4,3,,,,,,,,,,,,,,,,,,,,,,,,,,,,,,,,,,,,,,,,,,,,897.6344727990218,None,898.7340237079188,None,899.667468666099,None,1.4444444444444444,0.8505474231205881,899.667468666099,None,,,,,,,,,,,,,,,,,172,001,2024_Feb_28_1756,SpeechDraft1Carolyn_lessNoise_PlusLocalization,2021.2.3,60.01050207152382,
,,,,,,,,farLeft,-19.1,5,ch1Sound_localizationTask.wav,-19.1,"(667, 878)","(-293,-202)",-285,-338,,,,,,,,,0,5,5,0,,,,,,,,,,,,,,,,,,,,,,,,,,,,,,,,,,,,,,,,,,,,900.53426717408,None,901.6339750229381,None,902.5673248209059,None,1.2111111111111112,0.6334445807151496,902.5673248209059,None,,,,,,,,,,,,,,,,,172,001,2024_Feb_28_1756,SpeechDraft1Carolyn_lessNoise_PlusLocalization,2021.2.3,60.01050207152382,
,,,,,,,,center,0.0,6,ch1Sound_localizationTask.wav,0.0,"(952, 878)","(-8,-202)",0,-338,,,,,,,,,0,6,6,3,,,,,,,,,,,,,,,,,,,,,,,,,,,,,,,,,,,,,,,,,,,,903.2176264268346,None,904.3172727189958,None,905.2507868781686,None,1.5708994708994708,0.8653588714078069,905.2507868781686,None,,,,,,,,,,,,,,,,,172,001,2024_Feb_28_1756,SpeechDraft1Carolyn_lessNoise_PlusLocalization,2021.2.3,60.01050207152382,
,,,,,,,,midRight,13.0,3,ch1Sound_localizationTask.wav,13.0,"(1142, 878)","(182, -202)",190,-338,,,,,,,,,1,0,7,5,,,,,,,,,,,,,,,,,,,,,,,,,,,,,,,,,,,,,,,,,,,,906.11777910823,None,907.2173449671827,None,908.1506204269826,None,1.8169312169312168,0.8304350380785763,908.1506204269826,None,,,,,,,,,,,,,,,,,172,001,2024_Feb_28_1756,SpeechDraft1Carolyn_lessNoise_PlusLocalization,2021.2.3,60.01050207152382,
,,,,,,,,farRight,19.1,4,ch1Sound_localizationTask.wav,19.1,"(1237, 878)","(277,-202)",285,-338,,,,,,,,,1,1,8,6,,,,,,,,,,,,,,,,,,,,,,,,,,,,,,,,,,,,,,,,,,,,908.9843321349472,None,910.0839462229051,None,911.0173979569227,None,1.8185185185185184,0.5658291666768491,911.0173979569227,None,,,,,,,,,,,,,,,,,172,001,2024_Feb_28_1756,SpeechDraft1Carolyn_lessNoise_PlusLocalization,2021.2.3,60.01050207152382,
,,,,,,,,nearLeft,-6.5,1,ch1Sound_localizationTask.wav,-6.5,"(857, 878)","(-103,-202)",-95,-338,,,,,,,,,1,2,9,2,,,,,,,,,,,,,,,,,,,,,,,,,,,,,,,,,,,,,,,,,,,,911.5844461079687,None,912.6838515689597,None,913.6172676160932,None,1.3968253968253967,1.065789844840765,913.6172676160932,None,,,,,,,,,,,,,,,,,172,001,2024_Feb_28_1756,SpeechDraft1Carolyn_lessNoise_PlusLocalization,2021.2.3,60.01050207152382,
,,,,,,,,center,0.0,6,ch1Sound_localizationTask.wav,0.0,"(952, 878)","(-8,-202)",0,-338,,,,,,,,,1,3,10,3,,,,,,,,,,,,,,,,,,,,,,,,,,,,,,,,,,,,,,,,,,,,914.6844630241394,None,915.7839786950499,None,916.7173784552142,None,1.4412698412698413,0.5824160734191537,916.7173784552142,None,,,,,,,,,,,,,,,,,172,001,2024_Feb_28_1756,SpeechDraft1Carolyn_lessNoise_PlusLocalization,2021.2.3,60.01050207152382,
,,,,,,,,nearLeft,-6.5,1,ch1Sound_localizationTask.wav,-6.5,"(857, 878)","(-103,-202)",-95,-338,,,,,,,,,1,4,11,2,,,,,,,,,,,,,,,,,,,,,,,,,,,,,,,,,,,,,,,,,,,,917.3010222217999,None,918.4007815038785,None,919.3339329818264,None,1.3375661375661376,0.6169573552906513,919.3339329818264,None,,,,,,,,,,,,,,,,,172,001,2024_Feb_28_1756,SpeechDraft1Carolyn_lessNoise_PlusLocalization,2021.2.3,60.01050207152382,
,,,,,,,,midRight,13.0,3,ch1Sound_localizationTask.wav,13.0,"(1142, 878)","(182, -202)",190,-338,,,,,,,,,1,5,12,5,,,,,,,,,,,,,,,,,,,,,,,,,,,,,,,,,,,,,,,,,,,,919.9677521060221,None,921.0672462438233,None,922.0005241958424,None,1.6867724867724867,1.0987011571414769,922.0005241958424,None,,,,,,,,,,,,,,,,,172,001,2024_Feb_28_1756,SpeechDraft1Carolyn_lessNoise_PlusLocalization,2021.2.3,60.01050207152382,
,,,,,,,,farLeft,-19.1,5,ch1Sound_localizationTask.wav,-19.1,"(667, 878)","(-293,-202)",-285,-338,,,,,,,,,1,6,13,0,,,,,,,,,,,,,,,,,,,,,,,,,,,,,,,,,,,,,,,,,,,,923.1009833370335,None,924.2006619670428,None,925.134007719811,None,1.3174603174603174,0.7837861976586282,925.134007719811,None,,,,,,,,,,,,,,,,,172,001,2024_Feb_28_1756,SpeechDraft1Carolyn_lessNoise_PlusLocalization,2021.2.3,60.01050207152382,
,,,,,,,,nearLeft,-6.5,1,ch1Sound_localizationTask.wav,-6.5,"(857, 878)","(-103,-202)",-95,-338,,,,,,,,,2,0,14,2,,,,,,,,,,,,,,,,,,,,,,,,,,,,,,,,,,,,,,,,,,,,925.9343110588379,None,927.0340534849092,None,927.9672302119434,None,1.3904761904761904,0.6670920802280307,927.9672302119434,None,,,,,,,,,,,,,,,,,172,001,2024_Feb_28_1756,SpeechDraft1Carolyn_lessNoise_PlusLocalization,2021.2.3,60.01050207152382,
,,,,,,,,farLeft,-19.1,5,ch1Sound_localizationTask.wav,-19.1,"(667, 878)","(-293,-202)",-285,-338,,,,,,,,,2,1,15,0,,,,,,,,,,,,,,,,,,,,,,,,,,,,,,,,,,,,,,,,,,,,928.6511877737939,None,929.7507630297914,None,930.6843112758361,None,1.4227513227513229,0.7296034460887313,930.6843112758361,None,,,,,,,,,,,,,,,,,172,001,2024_Feb_28_1756,SpeechDraft1Carolyn_lessNoise_PlusLocalization,2021.2.3,60.01050207152382,
,,,,,,,,farRight,19.1,4,ch1Sound_localizationTask.wav,19.1,"(1237, 878)","(277,-202)",285,-338,,,,,,,,,2,2,16,6,,,,,,,,,,,,,,,,,,,,,,,,,,,,,,,,,,,,,,,,,,,,931.4344702679664,None,932.534131817054,None,933.4673222210258,None,1.75978835978836,0.682891130913049,933.4673222210258,None,,,,,,,,,,,,,,,,,172,001,2024_Feb_28_1756,SpeechDraft1Carolyn_lessNoise_PlusLocalization,2021.2.3,60.01050207152382,
,,,,,,,,nearLeft,-6.5,1,ch1Sound_localizationTask.wav,-6.5,"(857, 878)","(-103,-202)",-95,-338,,,,,,,,,2,3,17,2,,,,,,,,,,,,,,,,,,,,,,,,,,,,,,,,,,,,,,,,,,,,934.1519948770292,None,935.2672252710909,None,936.1841082908213,None,1.4052910052910053,0.6674504647962749,936.1841082908213,None,,,,,,,,,,,,,,,,,172,001,2024_Feb_28_1756,SpeechDraft1Carolyn_lessNoise_PlusLocalization,2021.2.3,60.01050207152382,
,,,,,,,,nearRight,6.5,0,ch1Sound_localizationTask.wav,6.5,"(1047, 878)","(87, -202)",95,-338,,,,,,,,,2,4,18,4,,,,,,,,,,,,,,,,,,,,,,,,,,,,,,,,,,,,,,,,,,,,936.8676161807962,None,937.9673373731785,None,938.9007062269375,None,1.506878306878307,0.5827080300077796,938.9007062269375,None,,,,,,,,,,,,,,,,,172,001,2024_Feb_28_1756,SpeechDraft1Carolyn_lessNoise_PlusLocalization,2021.2.3,60.01050207152382,
,,,,,,,,farLeft,-19.1,5,ch1Sound_localizationTask.wav,-19.1,"(667, 878)","(-293,-202)",-285,-338,,,,,,,,,2,5,19,0,,,,,,,,,,,,,,,,,,,,,,,,,,,,,,,,,,,,,,,,,,,,939.4854243202135,None,940.6008647200651,None,941.5173417059705,None,1.3497354497354497,0.550165147986263,941.5173417059705,None,,,,,,,,,,,,,,,,,172,001,2024_Feb_28_1756,SpeechDraft1Carolyn_lessNoise_PlusLocalization,2021.2.3,60.01050207152382,
,,,,,,,,midRight,13.0,3,ch1Sound_localizationTask.wav,13.0,"(1142, 878)","(182, -202)",190,-338,,,,,,,,,2,6,20,5,,,,,,,,,,,,,,,,,,,,,,,,,,,,,,,,,,,,,,,,,,,,942.0843520858325,None,943.1839432772249,None,944.1174056110904,None,1.6285714285714286,0.6651516039855778,944.1174056110904,None,,,,,,,,,,,,,,,,,172,001,2024_Feb_28_1756,SpeechDraft1Carolyn_lessNoise_PlusLocalization,2021.2.3,60.01050207152382,
,,,,,,,,midRight,13.0,3,ch1Sound_localizationTask.wav,13.0,"(1142, 878)","(182, -202)",190,-338,,,,,,,,,3,0,21,5,,,,,,,,,,,,,,,,,,,,,,,,,,,,,,,,,,,,,,,,,,,,944.7845038818195,None,945.8840548722073,None,946.8173018358648,None,1.5634920634920635,1.0499981041066349,946.8173018358648,None,,,,,,,,,,,,,,,,,172,001,2024_Feb_28_1756,SpeechDraft1Carolyn_lessNoise_PlusLocalization,2021.2.3,60.01050207152382,
,,,,,,,,midRight,13.0,3,ch1Sound_localizationTask.wav,13.0,"(1142, 878)","(182, -202)",190,-338,,,,,,,,,3,1,22,5,,,,,,,,,,,,,,,,,,,,,,,,,,,,,,,,,,,,,,,,,,,,947.8688940010034,None,948.9842087710276,None,949.9006814449094,None,1.6470899470899472,0.49866165267303586,949.9006814449094,None,,,,,,,,,,,,,,,,,172,001,2024_Feb_28_1756,SpeechDraft1Carolyn_lessNoise_PlusLocalization,2021.2.3,60.01050207152382,
,,,,,,,,midLeft,-13.0,2,ch1Sound_localizationTask.wav,-13.0,"(762, 878)","(-198,-202)",-190,-338,,,,,,,,,3,2,23,1,,,,,,,,,,,,,,,,,,,,,,,,,,,,,,,,,,,,,,,,,,,,950.4010164309293,None,951.5007491619326,None,952.4342272719368,None,1.366137566137566,0.7661442197859287,952.4342272719368,None,,,,,,,,,,,,,,,,,172,001,2024_Feb_28_1756,SpeechDraft1Carolyn_lessNoise_PlusLocalization,2021.2.3,60.01050207152382,
,,,,,,,,nearLeft,-6.5,1,ch1Sound_localizationTask.wav,-6.5,"(857, 878)","(-103,-202)",-95,-338,,,,,,,,,3,3,24,2,,,,,,,,,,,,,,,,,,,,,,,,,,,,,,,,,,,,,,,,,,,,953.2024655127898,None,954.317301467061,None,955.2340378812514,None,1.4576719576719577,0.7335526491515338,955.2340378812514,None,,,,,,,,,,,,,,,,,172,001,2024_Feb_28_1756,SpeechDraft1Carolyn_lessNoise_PlusLocalization,2021.2.3,60.01050207152382,
,,,,,,,,midLeft,-13.0,2,ch1Sound_localizationTask.wav,-13.0,"(762, 878)","(-198,-202)",-190,-338,,,,,,,,,3,4,25,1,,,,,,,,,,,,,,,,,,,,,,,,,,,,,,,,,,,,,,,,,,,,955.968466015067,None,957.0673360531218,None,958.0006649470888,None,1.3767195767195768,0.4833064186386764,958.0006649470888,None,,,,,,,,,,,,,,,,,172,001,2024_Feb_28_1756,SpeechDraft1Carolyn_lessNoise_PlusLocalization,2021.2.3,60.01050207152382,
,,,,,,,,midLeft,-13.0,2,ch1Sound_localizationTask.wav,-13.0,"(762, 878)","(-198,-202)",-190,-338,,,,,,,,,3,5,26,1,,,,,,,,,,,,,,,,,,,,,,,,,,,,,,,,,,,,,,,,,,,,958.4861162868328,None,959.6006890479475,None,960.5173448021524,None,1.3735449735449734,0.48298400873318315,960.5173448021524,None,,,,,,,,,,,,,,,,,172,001,2024_Feb_28_1756,SpeechDraft1Carolyn_lessNoise_PlusLocalization,2021.2.3,60.01050207152382,
,,,,,,,,center,0.0,6,ch1Sound_localizationTask.wav,0.0,"(952, 878)","(-8,-202)",0,-338,,,,,,,,,3,6,27,3,,,,,,,,,,,,,,,,,,,,,,,,,,,,,,,,,,,,,,,,,,,,961.0176426838152,None,962.1175054740161,None,963.0507841641083,None,1.4502645502645501,0.48374123591929674,963.0507841641083,None,,,,,,,,,,,,,,,,,172,001,2024_Feb_28_1756,SpeechDraft1Carolyn_lessNoise_PlusLocalization,2021.2.3,60.01050207152382,
,,,,,,,,center,0.0,6,ch1Sound_localizationTask.wav,0.0,"(952, 878)","(-8,-202)",0,-338,,,,,,,,,4,0,28,3,,,,,,,,,,,,,,,,,,,,,,,,,,,,,,,,,,,,,,,,,,,,963.5509499772452,None,964.6507581211627,None,965.5839405260049,None,1.4894179894179893,0.4166241348721087,965.5839405260049,None,,,,,,,,,,,,,,,,,172,001,2024_Feb_28_1756,SpeechDraft1Carolyn_lessNoise_PlusLocalization,2021.2.3,60.01050207152382,
,,,,,,,,farRight,19.1,4,ch1Sound_localizationTask.wav,19.1,"(1237, 878)","(277,-202)",285,-338,,,,,,,,,4,1,29,6,,,,,,,,,,,,,,,,,,,,,,,,,,,,,,,,,,,,,,,,,,,,966.0179111920297,None,967.1174798188731,None,968.050827883184,None,1.716931216931217,0.6826658402569592,968.050827883184,None,,,,,,,,,,,,,,,,,172,001,2024_Feb_28_1756,SpeechDraft1Carolyn_lessNoise_PlusLocalization,2021.2.3,60.01050207152382,
,,,,,,,,nearRight,6.5,0,ch1Sound_localizationTask.wav,6.5,"(1047, 878)","(87, -202)",95,-338,,,,,,,,,4,2,30,4,,,,,,,,,,,,,,,,,,,,,,,,,,,,,,,,,,,,,,,,,,,,968.7343913139775,None,969.8341965652071,None,970.7672850838862,None,1.5455026455026455,0.5835750387050211,970.7672850838862,None,,,,,,,,,,,,,,,,,172,001,2024_Feb_28_1756,SpeechDraft1Carolyn_lessNoise_PlusLocalization,2021.2.3,60.01050207152382,
,,,,,,,,midLeft,-13.0,2,ch1Sound_localizationTask.wav,-13.0,"(762, 878)","(-198,-202)",-190,-338,,,,,,,,,4,3,31,1,,,,,,,,,,,,,,,,,,,,,,,,,,,,,,,,,,,,,,,,,,,,971.3676966931671,None,972.4674515509978,None,973.4007280170918,None,1.366137566137566,0.6175465816631913,973.4007280170918,None,,,,,,,,,,,,,,,,,172,001,2024_Feb_28_1756,SpeechDraft1Carolyn_lessNoise_PlusLocalization,2021.2.3,60.01050207152382,
,,,,,,,,midLeft,-13.0,2,ch1Sound_localizationTask.wav,-13.0,"(762, 878)","(-198,-202)",-190,-338,,,,,,,,,4,4,32,1,,,,,,,,,,,,,,,,,,,,,,,,,,,,,,,,,,,,,,,,,,,,974.0345881441608,None,975.1339646829292,None,976.0673356009647,None,1.3814814814814815,0.500386553350836,976.0673356009647,None,,,,,,,,,,,,,,,,,172,001,2024_Feb_28_1756,SpeechDraft1Carolyn_lessNoise_PlusLocalization,2021.2.3,60.01050207152382,
,,,,,,,,farLeft,-19.1,5,ch1Sound_localizationTask.wav,-19.1,"(667, 878)","(-293,-202)",-285,-338,,,,,,,,,4,5,33,0,,,,,,,,,,,,,,,,,,,,,,,,,,,,,,,,,,,,,,,,,,,,976.5843903860077,None,977.684049363248,None,978.6174402171746,None,1.3915343915343916,0.5494221998378634,978.6174402171746,None,,,,,,,,,,,,,,,,,172,001,2024_Feb_28_1756,SpeechDraft1Carolyn_lessNoise_PlusLocalization,2021.2.3,60.01050207152382,
,,,,,,,,nearRight,6.5,0,ch1Sound_localizationTask.wav,6.5,"(1047, 878)","(87, -202)",95,-338,,,,,,,,,4,6,34,4,,,,,,,,,,,,,,,,,,,,,,,,,,,,,,,,,,,,,,,,,,,,979.1687083858997,None,980.2673974870704,None,981.2006485080346,None,1.5894179894179894,0.5655928812921047,981.2006485080346,None,,,,,,,,,,,,,,,,,172,001,2024_Feb_28_1756,SpeechDraft1Carolyn_lessNoise_PlusLocalization,2021.2.3,60.01050207152382,
,,,,,,,,nearRight,6.5,0,ch1Sound_localizationTask.wav,6.5,"(1047, 878)","(87, -202)",95,-338,,,,,,,,,5,0,35,4,,,,,,,,,,,,,,,,,,,,,,,,,,,,,,,,,,,,,,,,,,,,981.7677218280733,None,982.8673670548014,None,983.8007697761059,None,1.5878306878306878,0.38274875888600945,983.8007697761059,None,,,,,,,,,,,,,,,,,172,001,2024_Feb_28_1756,SpeechDraft1Carolyn_lessNoise_PlusLocalization,2021.2.3,60.01050207152382,
,,,,,,,,nearRight,6.5,0,ch1Sound_localizationTask.wav,6.5,"(1047, 878)","(87, -202)",95,-338,,,,,,,,,5,1,36,4,,,,,,,,,,,,,,,,,,,,,,,,,,,,,,,,,,,,,,,,,,,,984.184262061026,None,985.2839961429127,None,986.217373189982,None,1.6333333333333333,0.5998024409636855,986.217373189982,None,,,,,,,,,,,,,,,,,172,001,2024_Feb_28_1756,SpeechDraft1Carolyn_lessNoise_PlusLocalization,2021.2.3,60.01050207152382,
,,,,,,,,farLeft,-19.1,5,ch1Sound_localizationTask.wav,-19.1,"(667, 878)","(-293,-202)",-285,-338,,,,,,,,,5,2,37,0,,,,,,,,,,,,,,,,,,,,,,,,,,,,,,,,,,,,,,,,,,,,986.8182306671515,None,987.9174330211245,None,988.8507213760167,None,1.3888888888888888,0.6990671409294009,988.8507213760167,None,,,,,,,,,,,,,,,,,172,001,2024_Feb_28_1756,SpeechDraft1Carolyn_lessNoise_PlusLocalization,2021.2.3,60.01050207152382,
,,,,,,,,center,0.0,6,ch1Sound_localizationTask.wav,0.0,"(952, 878)","(-8,-202)",0,-338,,,,,,,,,5,3,38,3,,,,,,,,,,,,,,,,,,,,,,,,,,,,,,,,,,,,,,,,,,,,989.5519032431766,None,990.6509786099195,None,991.5840905872174,None,1.5746031746031746,0.5828365609049797,991.5840905872174,None,,,,,,,,,,,,,,,,,172,001,2024_Feb_28_1756,SpeechDraft1Carolyn_lessNoise_PlusLocalization,2021.2.3,60.01050207152382,
,,,,,,,,farLeft,-19.1,5,ch1Sound_localizationTask.wav,-19.1,"(667, 878)","(-293,-202)",-285,-338,,,,,,,,,5,4,39,0,,,,,,,,,,,,,,,,,,,,,,,,,,,,,,,,,,,,,,,,,,,,992.1681217048317,None,993.2675050580874,None,994.2006935821846,None,1.3502645502645503,0.5166756068356335,994.2006935821846,None,,,,,,,,,,,,,,,,,172,001,2024_Feb_28_1756,SpeechDraft1Carolyn_lessNoise_PlusLocalization,2021.2.3,60.01050207152382,
,,,,,,,,farRight,19.1,4,ch1Sound_localizationTask.wav,19.1,"(1237, 878)","(277,-202)",285,-338,,,,,,,,,5,5,40,6,,,,,,,,,,,,,,,,,,,,,,,,,,,,,,,,,,,,,,,,,,,,994.7344517209567,None,995.8339708251879,None,996.7673790850677,None,1.6624338624338624,0.6828290689736605,996.7673790850677,None,,,,,,,,,,,,,,,,,172,001,2024_Feb_28_1756,SpeechDraft1Carolyn_lessNoise_PlusLocalization,2021.2.3,60.01050207152382,
,,,,,,,,farRight,19.1,4,ch1Sound_localizationTask.wav,19.1,"(1237, 878)","(277,-202)",285,-338,,,,,,,,,5,6,41,6,,,,,,,,,,,,,,,,,,,,,,,,,,,,,,,,,,,,,,,,,,,,997.4513807641342,None,998.5507906740531,None,999.4841019981541,None,1.6058201058201058,0.6167400502599776,999.4841019981541,None,,,,,,,,,,,,,,,,,172,001,2024_Feb_28_1756,SpeechDraft1Carolyn_lessNoise_PlusLocalization,2021.2.3,60.01050207152382,
,,,,,,,,nearLeft,-6.5,1,ch1Sound_localizationTask.wav,-6.5,"(857, 878)","(-103,-202)",-95,-338,,,,,,,,,6,0,42,2,,,,,,,,,,,,,,,,,,,,,,,,,,,,,,,,,,,,,,,,,,,,1000.1013352582231,None,1001.2009254940785,None,1002.1340614561923,None,1.446031746031746,0.5169891640543938,1002.1340614561923,None,,,,,,,,,,,,,,,,,172,001,2024_Feb_28_1756,SpeechDraft1Carolyn_lessNoise_PlusLocalization,2021.2.3,60.01050207152382,
,,,,,,,,nearLeft,-6.5,1,ch1Sound_localizationTask.wav,-6.5,"(857, 878)","(-103,-202)",-95,-338,,,,,,,,,6,1,43,2,,,,,,,,,,,,,,,,,,,,,,,,,,,,,,,,,,,,,,,,,,,,1002.6678162589669,None,1003.7674090121873,None,1004.7007918660529,None,1.4417989417989419,0.6512295911088586,1004.7007918660529,None,,,,,,,,,,,,,,,,,172,001,2024_Feb_28_1756,SpeechDraft1Carolyn_lessNoise_PlusLocalization,2021.2.3,60.01050207152382,
,,,,,,,,nearRight,6.5,0,ch1Sound_localizationTask.wav,6.5,"(1047, 878)","(87, -202)",95,-338,,,,,,,,,6,2,44,4,,,,,,,,,,,,,,,,,,,,,,,,,,,,,,,,,,,,,,,,,,,,1005.3677593572065,None,1006.4674102352001,None,1007.4008436040021,None,1.5735449735449736,0.5663340939208865,1007.4008436040021,None,,,,,,,,,,,,,,,,,172,001,2024_Feb_28_1756,SpeechDraft1Carolyn_lessNoise_PlusLocalization,2021.2.3,60.01050207152382,
,,,,,,,,nearRight,6.5,0,ch1Sound_localizationTask.wav,6.5,"(1047, 878)","(87, -202)",95,-338,,,,,,,,,6,3,45,4,,,,,,,,,,,,,,,,,,,,,,,,,,,,,,,,,,,,,,,,,,,,1007.9681416200474,None,1009.0674720872194,None,1010.0007622032426,None,1.5756613756613755,0.4994739410467446,1010.0007622032426,None,,,,,,,,,,,,,,,,,172,001,2024_Feb_28_1756,SpeechDraft1Carolyn_lessNoise_PlusLocalization,2021.2.3,60.01050207152382,
,,,,,,,,midRight,13.0,3,ch1Sound_localizationTask.wav,13.0,"(1142, 878)","(182, -202)",190,-338,,,,,,,,,6,4,46,5,,,,,,,,,,,,,,,,,,,,,,,,,,,,,,,,,,,,,,,,,,,,1010.5011206539348,None,1011.6008654381149,None,1012.5341841499321,None,1.6555555555555554,0.38257197570055723,1012.5341841499321,None,,,,,,,,,,,,,,,,,172,001,2024_Feb_28_1756,SpeechDraft1Carolyn_lessNoise_PlusLocalization,2021.2.3,60.01050207152382,
,,,,,,,,midLeft,-13.0,2,ch1Sound_localizationTask.wav,-13.0,"(762, 878)","(-198,-202)",-190,-338,,,,,,,,,6,5,47,1,,,,,,,,,,,,,,,,,,,,,,,,,,,,,,,,,,,,,,,,,,,,1012.9182109669782,None,1014.0176798580214,None,1014.9507914362475,None,1.3126984126984127,0.6674748449586332,1014.9507914362475,None,,,,,,,,,,,,,,,,,172,001,2024_Feb_28_1756,SpeechDraft1Carolyn_lessNoise_PlusLocalization,2021.2.3,60.01050207152382,
,,,,,,,,farLeft,-19.1,5,ch1Sound_localizationTask.wav,-19.1,"(667, 878)","(-293,-202)",-285,-338,,,,,,,,,6,6,48,0,,,,,,,,,,,,,,,,,,,,,,,,,,,,,,,,,,,,,,,,,,,,1015.634583348874,None,1016.7341196760535,None,1017.6674833120778,None,1.2116402116402116,1.0160529483109713,1017.6674833120778,None,,,,,,,,,,,,,,,,,172,001,2024_Feb_28_1756,SpeechDraft1Carolyn_lessNoise_PlusLocalization,2021.2.3,60.01050207152382,
,,,,,,,,center,0.0,6,ch1Sound_localizationTask.wav,0.0,"(952, 878)","(-8,-202)",0,-338,,,,,,,,,7,0,49,3,,,,,,,,,,,,,,,,,,,,,,,,,,,,,,,,,,,,,,,,,,,,1018.6855189451016,None,1019.8008099752478,None,1020.7177413748577,None,1.5365079365079364,0.4492771150544286,1020.7177413748577,None,,,,,,,,,,,,,,,,,172,001,2024_Feb_28_1756,SpeechDraft1Carolyn_lessNoise_PlusLocalization,2021.2.3,60.01050207152382,
,,,,,,,,nearLeft,-6.5,1,ch1Sound_localizationTask.wav,-6.5,"(857, 878)","(-103,-202)",-95,-338,,,,,,,,,7,1,50,2,,,,,,,,,,,,,,,,,,,,,,,,,,,,,,,,,,,,,,,,,,,,1021.1844530971721,None,1022.2841511289589,None,1023.2175367767923,None,1.5523809523809524,1.183935064356774,1023.2175367767923,None,,,,,,,,,,,,,,,,,172,001,2024_Feb_28_1756,SpeechDraft1Carolyn_lessNoise_PlusLocalization,2021.2.3,60.01050207152382,
,,,,,,,,midRight,13.0,3,ch1Sound_localizationTask.wav,13.0,"(1142, 878)","(182, -202)",190,-338,,,,,,,,,7,2,51,5,,,,,,,,,,,,,,,,,,,,,,,,,,,,,,,,,,,,,,,,,,,,1024.4176774038933,None,1025.5175791480578,None,1026.450846488122,None,1.7338624338624338,0.7991653177887201,1026.450846488122,None,,,,,,,,,,,,,,,,,172,001,2024_Feb_28_1756,SpeechDraft1Carolyn_lessNoise_PlusLocalization,2021.2.3,60.01050207152382,
,,,,,,,,farRight,19.1,4,ch1Sound_localizationTask.wav,19.1,"(1237, 878)","(277,-202)",285,-338,,,,,,,,,7,3,52,6,,,,,,,,,,,,,,,,,,,,,,,,,,,,,,,,,,,,,,,,,,,,1027.251259167213,None,1028.3507985537872,None,1029.2842284068465,None,1.75978835978836,0.4653870090842247,1029.2842284068465,None,,,,,,,,,,,,,,,,,172,001,2024_Feb_28_1756,SpeechDraft1Carolyn_lessNoise_PlusLocalization,2021.2.3,60.01050207152382,
,,,,,,,,midLeft,-13.0,2,ch1Sound_localizationTask.wav,-13.0,"(762, 878)","(-198,-202)",-190,-338,,,,,,,,,7,4,53,1,,,,,,,,,,,,,,,,,,,,,,,,,,,,,,,,,,,,,,,,,,,,1029.7511660400778,None,1030.8508946457878,None,1031.784113119822,None,1.3814814814814815,0.8151922877877951,1031.784113119822,None,,,,,,,,,,,,,,,,,172,001,2024_Feb_28_1756,SpeechDraft1Carolyn_lessNoise_PlusLocalization,2021.2.3,60.01050207152382,
,,,,,,,,farRight,19.1,4,ch1Sound_localizationTask.wav,19.1,"(1237, 878)","(277,-202)",285,-338,,,,,,,,,7,5,54,6,,,,,,,,,,,,,,,,,,,,,,,,,,,,,,,,,,,,,,,,,,,,1032.6010645702481,None,1033.7007856150158,None,1034.6342212059535,None,1.715873015873016,2.167260132730007,1034.6342212059535,None,,,,,,,,,,,,,,,,,172,001,2024_Feb_28_1756,SpeechDraft1Carolyn_lessNoise_PlusLocalization,2021.2.3,60.01050207152382,
,,,,,,,,midRight,13.0,3,ch1Sound_localizationTask.wav,13.0,"(1142, 878)","(182, -202)",190,-338,,,,,,,,,7,6,55,5,,,,,,,,,,,,,,,,,,,,,,,,,,,,,,,,,,,,,,,,,,,,1036.8026399891824,None,1037.9176011038944,None,1038.8343078722246,None,1.6396825396825396,0.5655828341841698,1038.8343078722246,None,,,,,,,,,,,,,,,,,172,001,2024_Feb_28_1756,SpeechDraft1Carolyn_lessNoise_PlusLocalization,2021.2.3,60.01050207152382,
,,,,,,,,,,,,,,,,,,,,,,,,,,,,,,,,,,,,,,,,,,,,,,,,,,,,,,,,,,,,,,,,,,,,,,,,,,,,,,,,,,space,14.452160212676972,1039.4845554302447,None,,,,,,,,,,,,,172,001,2024_Feb_28_1756,SpeechDraft1Carolyn_lessNoise_PlusLocalization,2021.2.3,60.01050207152382,
,,,,,,,,nearRight,6.5,0,ch1Sound_localizationTask.wav,6.5,"(1047, 878)","(87, -202)",95,-338,,,,,,,,,,,,,0,0,0,4,,,,,,,,,,,,,,,,,,,,,,,,,,,,,,,,,,,,,,,,1053.9841706091538,None,,,1057.0018006809987,None,1.5703703703703704,2.687227088958025,1057.0018006809987,None,,,,,1039.4845554302447,None,1054.9844790180214,None,1055.1678561759181,1055.1844642967917,,,,,,,172,001,2024_Feb_28_1756,SpeechDraft1Carolyn_lessNoise_PlusLocalization,2021.2.3,60.01050207152382,
,,,,,,,,center,0.0,6,ch1Sound_localizationTask.wav,0.0,"(952, 878)","(-8,-202)",0,-338,,,,,,,,,,,,,0,1,1,3,,,,,,,,,,,,,,,,,,,,,,,,,,,,,,,,,,,,,,,,1059.7010910180397,None,,,1062.717570221983,None,1.5026455026455028,0.6986131654120982,1062.717570221983,None,,,,,,,1060.7011274998076,None,1060.8843925148249,1060.901163883973,,,,,,,172,001,2024_Feb_28_1756,SpeechDraft1Carolyn_lessNoise_PlusLocalization,2021.2.3,60.01050207152382,
,,,,,,,,farRight,19.1,4,ch1Sound_localizationTask.wav,19.1,"(1237, 878)","(277,-202)",285,-338,,,,,,,,,,,,,0,2,2,6,,,,,,,,,,,,,,,,,,,,,,,,,,,,,,,,,,,,,,,,1063.4186148378067,None,,,1066.4343056939542,None,1.6804232804232804,0.9828500258736312,1066.4343056939542,None,,,,,,,1064.4177951538004,None,1064.6011880319566,1064.6177819138393,,,,,,,172,001,2024_Feb_28_1756,SpeechDraft1Carolyn_lessNoise_PlusLocalization,2021.2.3,60.01050207152382,
,,,,,,,,midRight,13.0,3,ch1Sound_localizationTask.wav,13.0,"(1142, 878)","(182, -202)",190,-338,,,,,,,,,,,,,0,3,3,5,,,,,,,,,,,,,,,,,,,,,,,,,,,,,,,,,,,,,,,,1067.4182963781059,None,,,1070.4342397660948,None,1.6068783068783068,0.6330169546417892,1070.4342397660948,None,,,,,,,1068.4177468540147,None,1068.60107032815,1068.617953937035,,,,,,,172,001,2024_Feb_28_1756,SpeechDraft1Carolyn_lessNoise_PlusLocalization,2021.2.3,60.01050207152382,
,,,,,,,,midRight,13.0,3,ch1Sound_localizationTask.wav,13.0,"(1142, 878)","(182, -202)",190,-338,,,,,,,,,,,,,0,4,4,5,,,,,,,,,,,,,,,,,,,,,,,,,,,,,,,,,,,,,,,,1071.0682331579737,None,,,1074.0842895200476,None,1.6322751322751323,0.6324730003252625,1074.0842895200476,None,,,,,,,1072.0678729270585,None,1072.2511502830312,1072.2678512232378,,,,,,,172,001,2024_Feb_28_1756,SpeechDraft1Carolyn_lessNoise_PlusLocalization,2021.2.3,60.01050207152382,
,,,,,,,,nearLeft,-6.5,1,ch1Sound_localizationTask.wav,-6.5,"(857, 878)","(-103,-202)",-95,-338,,,,,,,,,,,,,0,5,5,2,,,,,,,,,,,,,,,,,,,,,,,,,,,,,,,,,,,,,,,,1074.7182469009422,None,,,1077.7341626179405,None,1.4476190476190476,0.8664203640073538,1077.7341626179405,None,,,,,,,1075.717947836034,None,1075.9011372220702,1075.917844037991,,,,,,,172,001,2024_Feb_28_1756,SpeechDraft1Carolyn_lessNoise_PlusLocalization,2021.2.3,60.01050207152382,
,,,,,,,,nearLeft,-6.5,1,ch1Sound_localizationTask.wav,-6.5,"(857, 878)","(-103,-202)",-95,-338,,,,,,,,,,,,,0,6,6,2,,,,,,,,,,,,,,,,,,,,,,,,,,,,,,,,,,,,,,,,1078.6017621620558,None,,,1081.617622135207,None,1.4671957671957672,0.7329419078305364,1081.617622135207,None,,,,,,,1079.601148549933,None,1079.7846384029835,1079.8011894598603,,,,,,,172,001,2024_Feb_28_1756,SpeechDraft1Carolyn_lessNoise_PlusLocalization,2021.2.3,60.01050207152382,
,,,,,,,,midLeft,-13.0,2,ch1Sound_localizationTask.wav,-13.0,"(762, 878)","(-198,-202)",-190,-338,,,,,,,,,,,,,1,0,7,1,,,,,,,,,,,,,,,,,,,,,,,,,,,,,,,,,,,,,,,,1082.3513535549864,None,,,1085.3675737511367,None,1.3820105820105821,0.6827655332162976,1085.3675737511367,None,,,,,,,1083.3510625180788,None,1083.5345613439567,1083.5511157610454,,,,,,,172,001,2024_Feb_28_1756,SpeechDraft1Carolyn_lessNoise_PlusLocalization,2021.2.3,60.01050207152382,
,,,,,,,,center,0.0,6,ch1Sound_localizationTask.wav,0.0,"(952, 878)","(-8,-202)",0,-338,,,,,,,,,,,,,1,1,8,3,,,,,,,,,,,,,,,,,,,,,,,,,,,,,,,,,,,,,,,,1086.052136648912,None,,,1089.0675273169763,None,1.5031746031746032,1.198757499922067,1089.0675273169763,None,,,,,,,1087.051169870887,None,1087.2345990510657,1087.251151268836,,,,,,,172,001,2024_Feb_28_1756,SpeechDraft1Carolyn_lessNoise_PlusLocalization,2021.2.3,60.01050207152382,
,,,,,,,,nearLeft,-6.5,1,ch1Sound_localizationTask.wav,-6.5,"(857, 878)","(-103,-202)",-95,-338,,,,,,,,,,,,,1,2,9,2,,,,,,,,,,,,,,,,,,,,,,,,,,,,,,,,,,,,,,,,1090.2679594377987,None,,,1093.2842720150948,None,1.4417989417989419,0.7661093920469284,1093.2842720150948,None,,,,,,,1091.267834723927,None,1091.4512646561489,1091.4678404941224,,,,,,,172,001,2024_Feb_28_1756,SpeechDraft1Carolyn_lessNoise_PlusLocalization,2021.2.3,60.01050207152382,
,,,,,,,,farRight,19.1,4,ch1Sound_localizationTask.wav,19.1,"(1237, 878)","(277,-202)",285,-338,,,,,,,,,,,,,1,3,10,6,,,,,,,,,,,,,,,,,,,,,,,,,,,,,,,,,,,,,,,,1094.0515194358304,None,,,1097.067562226206,None,1.6767195767195768,0.9998530261218548,1097.067562226206,None,,,,,,,1095.0512107540853,None,1095.2345222439617,1095.251176288817,,,,,,,172,001,2024_Feb_28_1756,SpeechDraft1Carolyn_lessNoise_PlusLocalization,2021.2.3,60.01050207152382,
,,,,,,,,center,0.0,6,ch1Sound_localizationTask.wav,0.0,"(952, 878)","(-8,-202)",0,-338,,,,,,,,,,,,,1,4,11,3,,,,,,,,,,,,,,,,,,,,,,,,,,,,,,,,,,,,,,,,1098.0683470419608,None,,,1101.0843493612483,None,1.519047619047619,0.5825737849809229,1101.0843493612483,None,,,,,,,1099.0678925449029,None,1099.251176233869,1099.2679606121965,,,,,,,172,001,2024_Feb_28_1756,SpeechDraft1Carolyn_lessNoise_PlusLocalization,2021.2.3,60.01050207152382,
,,,,,,,,farRight,19.1,4,ch1Sound_localizationTask.wav,19.1,"(1237, 878)","(277,-202)",285,-338,,,,,,,,,,,,,1,5,12,6,,,,,,,,,,,,,,,,,,,,,,,,,,,,,,,,,,,,,,,,1101.6681113420054,None,,,1104.6841996461153,None,1.6814814814814816,0.8983511603437364,1104.6841996461153,None,,,,,,,1102.6678872751072,None,1102.8513240329921,1102.8679034011438,,,,,,,172,001,2024_Feb_28_1756,SpeechDraft1Carolyn_lessNoise_PlusLocalization,2021.2.3,60.01050207152382,
,,,,,,,,nearLeft,-6.5,1,ch1Sound_localizationTask.wav,-6.5,"(857, 878)","(-103,-202)",-95,-338,,,,,,,,,,,,,1,6,13,2,,,,,,,,,,,,,,,,,,,,,,,,,,,,,,,,,,,,,,,,1105.5845505651087,None,,,1108.600962933153,None,1.4365079365079365,0.8996579386293888,1108.600962933153,None,,,,,,,1106.5847111209296,None,1106.7678552670404,1106.784702945035,,,,,,,172,001,2024_Feb_28_1756,SpeechDraft1Carolyn_lessNoise_PlusLocalization,2021.2.3,60.01050207152382,
,,,,,,,,farLeft,-19.1,5,ch1Sound_localizationTask.wav,-19.1,"(667, 878)","(-293,-202)",-285,-338,,,,,,,,,,,,,2,0,14,0,,,,,,,,,,,,,,,,,,,,,,,,,,,,,,,,,,,,,,,,1109.501967066899,None,,,1112.517682727892,None,1.3497354497354497,0.9498128639534116,1112.517682727892,None,,,,,,,1110.5013118400238,None,1110.6848870208487,1110.7015073439106,,,,,,,172,001,2024_Feb_28_1756,SpeechDraft1Carolyn_lessNoise_PlusLocalization,2021.2.3,60.01050207152382,
,,,,,,,,midRight,13.0,3,ch1Sound_localizationTask.wav,13.0,"(1142, 878)","(182, -202)",190,-338,,,,,,,,,,,,,2,1,15,5,,,,,,,,,,,,,,,,,,,,,,,,,,,,,,,,,,,,,,,,1113.4687296841294,None,,,1116.4843653100543,None,1.619047619047619,1.0315469368360937,1116.4843653100543,None,,,,,,,1114.4679000470787,None,1114.6511550662108,1114.667853957042,,,,,,,172,001,2024_Feb_28_1756,SpeechDraft1Carolyn_lessNoise_PlusLocalization,2021.2.3,60.01050207152382,
,,,,,,,,farRight,19.1,4,ch1Sound_localizationTask.wav,19.1,"(1237, 878)","(277,-202)",285,-338,,,,,,,,,,,,,2,2,16,6,,,,,,,,,,,,,,,,,,,,,,,,,,,,,,,,,,,,,,,,1117.5180207719095,None,,,1120.5341945029795,None,1.6952380952380952,1.0828749327920377,1120.5341945029795,None,,,,,,,1118.5179360308684,None,1118.7012684592046,1118.7179198800586,,,,,,,172,001,2024_Feb_28_1756,SpeechDraft1Carolyn_lessNoise_PlusLocalization,2021.2.3,60.01050207152382,
,,,,,,,,midRight,13.0,3,ch1Sound_localizationTask.wav,13.0,"(1142, 878)","(182, -202)",190,-338,,,,,,,,,,,,,2,3,17,5,,,,,,,,,,,,,,,,,,,,,,,,,,,,,,,,,,,,,,,,1121.6182799390517,None,,,1124.6343147852458,None,1.607936507936508,1.1330792838707566,1124.6343147852458,None,,,,,,,1122.6178871882148,None,1122.8011969658546,1122.818052391056,,,,,,,172,001,2024_Feb_28_1756,SpeechDraft1Carolyn_lessNoise_PlusLocalization,2021.2.3,60.01050207152382,
,,,,,,,,farLeft,-19.1,5,ch1Sound_localizationTask.wav,-19.1,"(667, 878)","(-293,-202)",-285,-338,,,,,,,,,,,,,2,4,18,0,,,,,,,,,,,,,,,,,,,,,,,,,,,,,,,,,,,,,,,,1125.768082098104,None,,,1128.7842578869313,None,1.342857142857143,1.0325155789032578,1128.7842578869313,None,,,,,,,1126.7679419480264,None,1126.9511507991701,1126.968053122051,,,,,,,172,001,2024_Feb_28_1756,SpeechDraft1Carolyn_lessNoise_PlusLocalization,2021.2.3,60.01050207152382,
,,,,,,,,nearRight,6.5,0,ch1Sound_localizationTask.wav,6.5,"(1047, 878)","(87, -202)",95,-338,,,,,,,,,,,,,2,5,19,4,,,,,,,,,,,,,,,,,,,,,,,,,,,,,,,,,,,,,,,,1129.8181175040081,None,,,1132.8342302660458,None,1.5513227513227514,0.9994548591785133,1132.8342302660458,None,,,,,,,1130.8179046711884,None,1131.0013076970354,1131.0178536428139,,,,,,,172,001,2024_Feb_28_1756,SpeechDraft1Carolyn_lessNoise_PlusLocalization,2021.2.3,60.01050207152382,
,,,,,,,,center,0.0,6,ch1Sound_localizationTask.wav,0.0,"(952, 878)","(-8,-202)",0,-338,,,,,,,,,,,,,2,6,20,3,,,,,,,,,,,,,,,,,,,,,,,,,,,,,,,,,,,,,,,,1133.8352784039453,None,,,1136.851009003818,None,1.5047619047619047,1.182869368698448,1136.851009003818,None,,,,,,,1134.8346493788995,None,1135.0181426010095,1135.0345459529199,,,,,,,172,001,2024_Feb_28_1756,SpeechDraft1Carolyn_lessNoise_PlusLocalization,2021.2.3,60.01050207152382,
,,,,,,,,nearRight,6.5,0,ch1Sound_localizationTask.wav,6.5,"(1047, 878)","(87, -202)",95,-338,,,,,,,,,,,,,3,0,21,4,,,,,,,,,,,,,,,,,,,,,,,,,,,,,,,,,,,,,,,,1138.0352978408337,None,,,1141.0509470440447,None,1.5444444444444443,0.5992418332025409,1141.0509470440447,None,,,,,,,1139.0345724131912,None,1139.217873366084,1139.234552394133,,,,,,,172,001,2024_Feb_28_1756,SpeechDraft1Carolyn_lessNoise_PlusLocalization,2021.2.3,60.01050207152382,
,,,,,,,,midLeft,-13.0,2,ch1Sound_localizationTask.wav,-13.0,"(762, 878)","(-198,-202)",-190,-338,,,,,,,,,,,,,3,1,22,1,,,,,,,,,,,,,,,,,,,,,,,,,,,,,,,,,,,,,,,,1141.651288960129,None,,,1144.6677503418177,None,1.402116402116402,0.7993349977768958,1144.6677503418177,None,,,,,,,1142.6514084311202,None,1142.8346034209244,1142.8512716311961,,,,,,,172,001,2024_Feb_28_1756,SpeechDraft1Carolyn_lessNoise_PlusLocalization,2021.2.3,60.01050207152382,
,,,,,,,,farLeft,-19.1,5,ch1Sound_localizationTask.wav,-19.1,"(667, 878)","(-293,-202)",-285,-338,,,,,,,,,,,,,3,2,23,0,,,,,,,,,,,,,,,,,,,,,,,,,,,,,,,,,,,,,,,,1145.4680601931177,None,,,1148.4844180811197,None,1.342857142857143,0.4830268961377442,1148.4844180811197,None,,,,,,,1146.4678842760623,None,1146.6512740552425,1146.6679386231117,,,,,,,172,001,2024_Feb_28_1756,SpeechDraft1Carolyn_lessNoise_PlusLocalization,2021.2.3,60.01050207152382,
,,,,,,,,farLeft,-19.1,5,ch1Sound_localizationTask.wav,-19.1,"(667, 878)","(-293,-202)",-285,-338,,,,,,,,,,,,,3,3,24,0,,,,,,,,,,,,,,,,,,,,,,,,,,,,,,,,,,,,,,,,1148.9683231958188,None,,,1151.9842580421828,None,1.3164021164021165,0.43324478808790445,1151.9842580421828,None,,,,,,,1149.9679313572124,None,1150.1513068019412,1150.167962627951,,,,,,,172,001,2024_Feb_28_1756,SpeechDraft1Carolyn_lessNoise_PlusLocalization,2021.2.3,60.01050207152382,
,,,,,,,,midLeft,-13.0,2,ch1Sound_localizationTask.wav,-13.0,"(762, 878)","(-198,-202)",-190,-338,,,,,,,,,,,,,3,4,25,1,,,,,,,,,,,,,,,,,,,,,,,,,,,,,,,,,,,,,,,,1152.4183873310685,None,,,1155.434360415209,None,1.3873015873015873,0.5493206009268761,1155.434360415209,None,,,,,,,1153.4180518691428,None,1153.6012138328515,1153.6180043970235,,,,,,,172,001,2024_Feb_28_1756,SpeechDraft1Carolyn_lessNoise_PlusLocalization,2021.2.3,60.01050207152382,
,,,,,,,,nearRight,6.5,0,ch1Sound_localizationTask.wav,6.5,"(1047, 878)","(87, -202)",95,-338,,,,,,,,,,,,,3,5,26,4,,,,,,,,,,,,,,,,,,,,,,,,,,,,,,,,,,,,,,,,1155.9845812241547,None,,,1159.0010792058893,None,1.543915343915344,0.549488730262965,1159.0010792058893,None,,,,,,,1156.9845075751655,None,1157.1679448178038,1157.184582957998,,,,,,,172,001,2024_Feb_28_1756,SpeechDraft1Carolyn_lessNoise_PlusLocalization,2021.2.3,60.01050207152382,
,,,,,,,,midLeft,-13.0,2,ch1Sound_localizationTask.wav,-13.0,"(762, 878)","(-198,-202)",-190,-338,,,,,,,,,,,,,3,6,27,1,,,,,,,,,,,,,,,,,,,,,,,,,,,,,,,,,,,,,,,,1159.5513677499257,None,,,1162.5678047030233,None,1.3820105820105821,0.8998533869162202,1162.5678047030233,None,,,,,,,1160.5513170422055,None,1160.734704344999,1160.7513400982134,,,,,,,172,001,2024_Feb_28_1756,SpeechDraft1Carolyn_lessNoise_PlusLocalization,2021.2.3,60.01050207152382,
,,,,,,,,farRight,19.1,4,ch1Sound_localizationTask.wav,19.1,"(1237, 878)","(277,-202)",285,-338,,,,,,,,,,,,,4,0,28,6,,,,,,,,,,,,,,,,,,,,,,,,,,,,,,,,,,,,,,,,1163.4687667060643,None,,,1166.4843358797953,None,1.6915343915343914,0.6331328297965229,1166.4843358797953,None,,,,,,,1164.4680381510407,None,1164.651293035131,1164.6680211960338,,,,,,,172,001,2024_Feb_28_1756,SpeechDraft1Carolyn_lessNoise_PlusLocalization,2021.2.3,60.01050207152382,
,,,,,,,,center,0.0,6,ch1Sound_localizationTask.wav,0.0,"(952, 878)","(-8,-202)",0,-338,,,,,,,,,,,,,4,1,29,3,,,,,,,,,,,,,,,,,,,,,,,,,,,,,,,,,,,,,,,,1167.1184312719852,None,,,1170.1343994210474,None,1.502116402116402,1.0998043599538505,1170.1343994210474,None,,,,,,,1168.1179848890752,None,1168.3012019651942,1168.3180618281476,,,,,,,172,001,2024_Feb_28_1756,SpeechDraft1Carolyn_lessNoise_PlusLocalization,2021.2.3,60.01050207152382,
,,,,,,,,nearLeft,-6.5,1,ch1Sound_localizationTask.wav,-6.5,"(857, 878)","(-103,-202)",-95,-338,,,,,,,,,,,,,4,2,30,2,,,,,,,,,,,,,,,,,,,,,,,,,,,,,,,,,,,,,,,,1171.2351394318976,None,,,1174.2511081518605,None,1.456084656084656,0.6321443440392613,1174.2511081518605,None,,,,,,,1172.2346448930912,None,1172.4180463622324,1172.4345855088905,,,,,,,172,001,2024_Feb_28_1756,SpeechDraft1Carolyn_lessNoise_PlusLocalization,2021.2.3,60.01050207152382,
,,,,,,,,nearRight,6.5,0,ch1Sound_localizationTask.wav,6.5,"(1047, 878)","(87, -202)",95,-338,,,,,,,,,,,,,4,3,31,4,,,,,,,,,,,,,,,,,,,,,,,,,,,,,,,,,,,,,,,,1174.8847338538617,None,,,1177.900989486836,None,1.561904761904762,0.4489090130664408,1177.900989486836,None,,,,,,,1175.8846942172386,None,1176.067881716881,1176.0847680601291,,,,,,,172,001,2024_Feb_28_1756,SpeechDraft1Carolyn_lessNoise_PlusLocalization,2021.2.3,60.01050207152382,
,,,,,,,,nearRight,6.5,0,ch1Sound_localizationTask.wav,6.5,"(1047, 878)","(87, -202)",95,-338,,,,,,,,,,,,,4,4,32,4,,,,,,,,,,,,,,,,,,,,,,,,,,,,,,,,,,,,,,,,1178.351295037195,None,,,1181.3677057088353,None,1.5624338624338625,0.4329992597922683,1181.3677057088353,None,,,,,,,1179.3512400719337,None,1179.5345951500349,1179.5512580000795,,,,,,,172,001,2024_Feb_28_1756,SpeechDraft1Carolyn_lessNoise_PlusLocalization,2021.2.3,60.01050207152382,
,,,,,,,,center,0.0,6,ch1Sound_localizationTask.wav,0.0,"(952, 878)","(-8,-202)",0,-338,,,,,,,,,,,,,4,5,33,3,,,,,,,,,,,,,,,,,,,,,,,,,,,,,,,,,,,,,,,,1181.8016589651816,None,,,1184.8177049099468,None,1.492063492063492,0.8001061263494194,1184.8177049099468,None,,,,,,,1182.8013480138034,None,1182.9846403822303,1183.0013278862461,,,,,,,172,001,2024_Feb_28_1756,SpeechDraft1Carolyn_lessNoise_PlusLocalization,2021.2.3,60.01050207152382,
,,,,,,,,farLeft,-19.1,5,ch1Sound_localizationTask.wav,-19.1,"(667, 878)","(-293,-202)",-285,-338,,,,,,,,,,,,,4,6,34,0,,,,,,,,,,,,,,,,,,,,,,,,,,,,,,,,,,,,,,,,1185.6184345879592,None,,,1188.6344655910507,None,1.335978835978836,0.9500396428629756,1188.6344655910507,None,,,,,,,1186.617903187871,None,1186.8012952008285,1186.8179100900888,,,,,,,172,001,2024_Feb_28_1756,SpeechDraft1Carolyn_lessNoise_PlusLocalization,2021.2.3,60.01050207152382,
,,,,,,,,nearLeft,-6.5,1,ch1Sound_localizationTask.wav,-6.5,"(857, 878)","(-103,-202)",-95,-338,,,,,,,,,,,,,5,0,35,2,,,,,,,,,,,,,,,,,,,,,,,,,,,,,,,,,,,,,,,,1189.6013758908957,None,,,1192.6176485172473,None,1.4523809523809523,0.5826902836561203,1192.6176485172473,None,,,,,,,1190.6012228019536,None,1190.7847349499352,1190.8013306418434,,,,,,,172,001,2024_Feb_28_1756,SpeechDraft1Carolyn_lessNoise_PlusLocalization,2021.2.3,60.01050207152382,
,,,,,,,,midLeft,-13.0,2,ch1Sound_localizationTask.wav,-13.0,"(762, 878)","(-198,-202)",-190,-338,,,,,,,,,,,,,5,1,36,1,,,,,,,,,,,,,,,,,,,,,,,,,,,,,,,,,,,,,,,,1193.2015026560985,None,,,1196.2177249989472,None,1.3687830687830687,0.48293221602216363,1196.2177249989472,None,,,,,,,1194.2012911918573,None,1194.3847166378982,1194.4012648831122,,,,,,,172,001,2024_Feb_28_1756,SpeechDraft1Carolyn_lessNoise_PlusLocalization,2021.2.3,60.01050207152382,
,,,,,,,,farLeft,-19.1,5,ch1Sound_localizationTask.wav,-19.1,"(667, 878)","(-293,-202)",-285,-338,,,,,,,,,,,,,5,2,37,0,,,,,,,,,,,,,,,,,,,,,,,,,,,,,,,,,,,,,,,,1196.7016551378183,None,,,1199.717727897223,None,1.348148148148148,0.48288286197930574,1199.717727897223,None,,,,,,,1197.7013821471483,None,1197.8846265571192,1197.9014492938295,,,,,,,172,001,2024_Feb_28_1756,SpeechDraft1Carolyn_lessNoise_PlusLocalization,2021.2.3,60.01050207152382,
,,,,,,,,nearLeft,-6.5,1,ch1Sound_localizationTask.wav,-6.5,"(857, 878)","(-103,-202)",-95,-338,,,,,,,,,,,,,5,3,38,2,,,,,,,,,,,,,,,,,,,,,,,,,,,,,,,,,,,,,,,,1200.2015909608454,None,,,1203.217738554813,None,1.4301587301587302,0.6162682361900806,1203.217738554813,None,,,,,,,1201.2013324080035,None,1201.3847059439868,1201.4013203671202,,,,,,,172,001,2024_Feb_28_1756,SpeechDraft1Carolyn_lessNoise_PlusLocalization,2021.2.3,60.01050207152382,
,,,,,,,,midRight,13.0,3,ch1Sound_localizationTask.wav,13.0,"(1142, 878)","(182, -202)",190,-338,,,,,,,,,,,,,5,4,39,5,,,,,,,,,,,,,,,,,,,,,,,,,,,,,,,,,,,,,,,,1203.8349376451224,None,,,1206.8511113859713,None,1.6296296296296298,1.0656193722970784,1206.8511113859713,None,,,,,,,1204.8346947818063,None,1205.0180234531872,1205.0347773409449,,,,,,,172,001,2024_Feb_28_1756,SpeechDraft1Carolyn_lessNoise_PlusLocalization,2021.2.3,60.01050207152382,
,,,,,,,,farRight,19.1,4,ch1Sound_localizationTask.wav,19.1,"(1237, 878)","(277,-202)",285,-338,,,,,,,,,,,,,5,5,40,6,,,,,,,,,,,,,,,,,,,,,,,,,,,,,,,,,,,,,,,,1207.9189826650545,None,,,1210.9510318720713,None,1.7264550264550265,0.8495695148594677,1210.9510318720713,None,,,,,,,1208.9346867599525,None,1209.1180320740677,1209.1346714710817,,,,,,,172,001,2024_Feb_28_1756,SpeechDraft1Carolyn_lessNoise_PlusLocalization,2021.2.3,60.01050207152382,
,,,,,,,,center,0.0,6,ch1Sound_localizationTask.wav,0.0,"(952, 878)","(-8,-202)",0,-338,,,,,,,,,,,,,5,6,41,3,,,,,,,,,,,,,,,,,,,,,,,,,,,,,,,,,,,,,,,,1211.8019724120386,None,,,1214.8176948921755,None,1.4947089947089947,0.6660488620400429,1214.8176948921755,None,,,,,,,1212.801315989811,None,1212.98460271582,1213.0013661119156,,,,,,,172,001,2024_Feb_28_1756,SpeechDraft1Carolyn_lessNoise_PlusLocalization,2021.2.3,60.01050207152382,
,,,,,,,,nearLeft,-6.5,1,ch1Sound_localizationTask.wav,-6.5,"(857, 878)","(-103,-202)",-95,-338,,,,,,,,,,,,,6,0,42,2,,,,,,,,,,,,,,,,,,,,,,,,,,,,,,,,,,,,,,,,1215.4851523260586,None,,,1218.5010965280235,None,1.438095238095238,0.8325703348964453,1218.5010965280235,None,,,,,,,1216.4846972399391,None,1216.6679437737912,1216.684777338989,,,,,,,172,001,2024_Feb_28_1756,SpeechDraft1Carolyn_lessNoise_PlusLocalization,2021.2.3,60.01050207152382,
,,,,,,,,nearRight,6.5,0,ch1Sound_localizationTask.wav,6.5,"(1047, 878)","(87, -202)",95,-338,,,,,,,,,,,,,6,1,43,4,,,,,,,,,,,,,,,,,,,,,,,,,,,,,,,,,,,,,,,,1219.3347553671338,None,,,1222.3509986512363,None,1.5746031746031746,0.9316939427517354,1222.3509986512363,None,,,,,,,1220.3348150681704,None,1220.5180876608938,1220.5347749860957,,,,,,,172,001,2024_Feb_28_1756,SpeechDraft1Carolyn_lessNoise_PlusLocalization,2021.2.3,60.01050207152382,
,,,,,,,,farRight,19.1,4,ch1Sound_localizationTask.wav,19.1,"(1237, 878)","(277,-202)",285,-338,,,,,,,,,,,,,6,2,44,6,,,,,,,,,,,,,,,,,,,,,,,,,,,,,,,,,,,,,,,,1223.2846640921198,None,,,1226.3010562099516,None,1.6925925925925926,0.6488718912005424,1226.3010562099516,None,,,,,,,1224.2845447901636,None,1224.4679535119794,1224.4845947362483,,,,,,,172,001,2024_Feb_28_1756,SpeechDraft1Carolyn_lessNoise_PlusLocalization,2021.2.3,60.01050207152382,
,,,,,,,,midLeft,-13.0,2,ch1Sound_localizationTask.wav,-13.0,"(762, 878)","(-198,-202)",-190,-338,,,,,,,,,,,,,6,3,45,1,,,,,,,,,,,,,,,,,,,,,,,,,,,,,,,,,,,,,,,,1226.9514218498953,None,,,1229.9676114860922,None,1.3851851851851853,0.8661965881474316,1229.9676114860922,None,,,,,,,1227.9513539960608,None,1228.1348813688383,1228.1513226721436,,,,,,,172,001,2024_Feb_28_1756,SpeechDraft1Carolyn_lessNoise_PlusLocalization,2021.2.3,60.01050207152382,
,,,,,,,,farRight,19.1,4,ch1Sound_localizationTask.wav,19.1,"(1237, 878)","(277,-202)",285,-338,,,,,,,,,,,,,6,4,46,6,,,,,,,,,,,,,,,,,,,,,,,,,,,,,,,,,,,,,,,,1230.8352968147956,None,,,1233.8511760048568,None,1.6899470899470899,1.0828290083445609,1233.8511760048568,None,,,,,,,1231.8346886131912,None,1232.0180276180618,1232.034774741158,,,,,,,172,001,2024_Feb_28_1756,SpeechDraft1Carolyn_lessNoise_PlusLocalization,2021.2.3,60.01050207152382,
,,,,,,,,midLeft,-13.0,2,ch1Sound_localizationTask.wav,-13.0,"(762, 878)","(-198,-202)",-190,-338,,,,,,,,,,,,,6,5,47,1,,,,,,,,,,,,,,,,,,,,,,,,,,,,,,,,,,,,,,,,1234.9349258341826,None,,,1237.9511567167938,None,1.4026455026455027,0.9993065907619894,1237.9511567167938,None,,,,,,,1235.9348235079087,None,1236.1181755149737,1236.1347326990217,,,,,,,172,001,2024_Feb_28_1756,SpeechDraft1Carolyn_lessNoise_PlusLocalization,2021.2.3,60.01050207152382,
,,,,,,,,center,0.0,6,ch1Sound_localizationTask.wav,0.0,"(952, 878)","(-8,-202)",0,-338,,,,,,,,,,,,,6,6,48,3,,,,,,,,,,,,,,,,,,,,,,,,,,,,,,,,,,,,,,,,1238.9517653300427,None,,,1241.967819948215,None,1.507936507936508,0.8826391980983317,1241.967819948215,None,,,,,,,1239.9515004837885,None,1240.134700329043,1240.151469770819,,,,,,,172,001,2024_Feb_28_1756,SpeechDraft1Carolyn_lessNoise_PlusLocalization,2021.2.3,60.01050207152382,
,,,,,,,,nearRight,6.5,0,ch1Sound_localizationTask.wav,6.5,"(1047, 878)","(87, -202)",95,-338,,,,,,,,,,,,,7,0,49,4,,,,,,,,,,,,,,,,,,,,,,,,,,,,,,,,,,,,,,,,1242.8514033472165,None,,,1245.867872573901,None,1.4777777777777779,0.9829560811631382,1245.867872573901,None,,,,,,,1243.8514010468498,None,1244.0348084280267,1244.0514336768538,,,,,,,172,001,2024_Feb_28_1756,SpeechDraft1Carolyn_lessNoise_PlusLocalization,2021.2.3,60.01050207152382,
,,,,,,,,midRight,13.0,3,ch1Sound_localizationTask.wav,13.0,"(1142, 878)","(182, -202)",190,-338,,,,,,,,,,,,,7,1,50,5,,,,,,,,,,,,,,,,,,,,,,,,,,,,,,,,,,,,,,,,1246.8519264888018,None,,,1249.8677159589715,None,1.6126984126984127,1.0321553251706064,1249.8677159589715,None,,,,,,,1247.8513337229379,None,1248.0346797299571,1248.051278796047,,,,,,,172,001,2024_Feb_28_1756,SpeechDraft1Carolyn_lessNoise_PlusLocalization,2021.2.3,60.01050207152382,
,,,,,,,,farLeft,-19.1,5,ch1Sound_localizationTask.wav,-19.1,"(667, 878)","(-293,-202)",-285,-338,,,,,,,,,,,,,7,2,51,0,,,,,,,,,,,,,,,,,,,,,,,,,,,,,,,,,,,,,,,,1250.9014072432183,None,,,1253.917785488069,None,1.3365079365079366,1.2835225546732545,1253.917785488069,None,,,,,,,1251.9014556128532,None,1252.0847054501064,1252.1014839420095,,,,,,,172,001,2024_Feb_28_1756,SpeechDraft1Carolyn_lessNoise_PlusLocalization,2021.2.3,60.01050207152382,
,,,,,,,,midLeft,-13.0,2,ch1Sound_localizationTask.wav,-13.0,"(762, 878)","(-198,-202)",-190,-338,,,,,,,,,,,,,7,3,52,1,,,,,,,,,,,,,,,,,,,,,,,,,,,,,,,,,,,,,,,,1255.2182233720087,None,,,1258.2344984640367,None,1.4206349206349207,0.63187395920977,1258.2344984640367,None,,,,,,,1256.2180509022437,None,1256.4013704531826,1256.4180104718544,,,,,,,172,001,2024_Feb_28_1756,SpeechDraft1Carolyn_lessNoise_PlusLocalization,2021.2.3,60.01050207152382,
,,,,,,,,midRight,13.0,3,ch1Sound_localizationTask.wav,13.0,"(1142, 878)","(182, -202)",190,-338,,,,,,,,,,,,,7,4,53,5,,,,,,,,,,,,,,,,,,,,,,,,,,,,,,,,,,,,,,,,1258.8681000228971,None,,,1261.8844412178732,None,1.6132275132275131,0.5159100890159607,1261.8844412178732,None,,,,,,,1259.868201309815,None,1260.0513770319521,1260.0681066839024,,,,,,,172,001,2024_Feb_28_1756,SpeechDraft1Carolyn_lessNoise_PlusLocalization,2021.2.3,60.01050207152382,
,,,,,,,,farLeft,-19.1,5,ch1Sound_localizationTask.wav,-19.1,"(667, 878)","(-293,-202)",-285,-338,,,,,,,,,,,,,7,5,54,0,,,,,,,,,,,,,,,,,,,,,,,,,,,,,,,,,,,,,,,,1262.4018118549138,None,,,1265.4178222399205,None,1.33015873015873,0.6985003878362477,1265.4178222399205,None,,,,,,,1263.4015655112453,None,1263.5848348569125,1263.6015361160971,,,,,,,172,001,2024_Feb_28_1756,SpeechDraft1Carolyn_lessNoise_PlusLocalization,2021.2.3,60.01050207152382,
,,,,,,,,midRight,13.0,3,ch1Sound_localizationTask.wav,13.0,"(1142, 878)","(182, -202)",190,-338,,,,,,,,,,,,,7,6,55,5,,,,,,,,,,,,,,,,,,,,,,,,,,,,,,,,,,,,,,,,1266.1186150158755,None,,,1269.1344445818104,None,1.6031746031746033,0.8154002190567553,1269.1344445818104,None,,,,,,,1267.1180306621827,None,1267.3014487121254,1267.3180993748829,,,,,,,172,001,2024_Feb_28_1756,SpeechDraft1Carolyn_lessNoise_PlusLocalization,2021.2.3,60.01050207152382,
,,,,,,,,,,,,,,,,,,,,,,,,,,,,,,,,,,,,,,,,,,,,,,,,,,,,,,,,,,,,,,,,,,,,,,,,,,,,,,,,,,,,,,,,,,,,1269.9514800631441,None,c,37.74583559902385,1270.9347875169478,None,172,001,2024_Feb_28_1756,SpeechDraft1Carolyn_lessNoise_PlusLocalization,2021.2.3,60.01050207152382,
