Audio_Only_Files,Video_Files,Original_Word_List,noiseLevelCode,conditionCodes,noiseLevelFile1,noiseLevelFile2,InstrTextVar,targetSpeakerName,targetSpeakerEccen,targetSpkrChannel,targetSpkrSound,targetVisualDegrees,visStimLoc,visStimLoc2,visStimW,visStimH,practiceTrials.thisRepN,practiceTrials.thisTrialN,practiceTrials.thisN,practiceTrials.thisIndex,trials.thisRepN,trials.thisTrialN,trials.thisN,trials.thisIndex,audLocalLoop.thisRepN,audLocalLoop.thisTrialN,audLocalLoop.thisN,audLocalLoop.thisIndex,visualLocalLoop.thisRepN,visualLocalLoop.thisTrialN,visualLocalLoop.thisN,visualLocalLoop.thisIndex,letsGoAlready.keys,letsGoAlready.rt,letsGoAlready.started,letsGoAlready.stopped,text_2.started,text_2.stopped,text_3.started,text_3.stopped,key_resp_2.keys,key_resp_2.rt,key_resp_2.started,key_resp_2.stopped,text_5.started,text_5.stopped,fixCross.started,fixCross.stopped,fixCross2.started,fixCross2.stopped,answerPrompt.started,answerPrompt.stopped,getAnswer.text,getAnswer.started,getAnswer.stopped,goToNext.keys,goToNext.rt,goToNext.started,goToNext.stopped,stretchBreakTxrt.started,stretchBreakTxrt.stopped,key_resp_3.keys,key_resp_3.rt,key_resp_3.started,key_resp_3.stopped,letsGoLocal.keys,letsGoLocal.rt,letsGoLocal.started,letsGoLocal.stopped,text_4.started,text_4.stopped,prepFixTxt.started,prepFixTxt.stopped,prepFixTxt_2.started,prepFixTxt_2.stopped,respPromptLocal.started,respPromptLocal.stopped,slider.response,slider.rt,slider.started,slider.stopped,letsGoLocal_2.keys,letsGoLocal_2.rt,letsGoLocal_2.started,letsGoLocal_2.stopped,text_7.started,text_7.stopped,prepFixTxt_3.started,prepFixTxt_3.stopped,grating.started,grating.stopped,participant,session,date,expName,psychopyVersion,frameRate,
,,,,,,,,,,,,,,,,,,,,,,,,,,,,,,,,,space,28.44621869456023,148.80363842006773,None,,,,,,,,,,,,,,,,,,,,,,,,,,,,,,,,,,,,,,,,,,,,,,,,,,,,,,,,174,001,2024_Mar_04_1209,SpeechDraft1Carolyn_lessNoise_PlusLocalization,2021.2.3,59.902995962019176,
,,,,,,,,,,,,,,,,,,,,,,,,,,,,,,,,,,,,,148.80363842006773,None,177.37053157109767,None,space,8.12858400400728,177.55319813545793,None,,,,,,,,,,,,,,,,,,,,,,,,,,,,,,,,,,,,,,,,,,,,,,,,174,001,2024_Mar_04_1209,SpeechDraft1Carolyn_lessNoise_PlusLocalization,2021.2.3,59.902995962019176,
ash.wav,ash.mpg,ash,1,A,Pink_Noise_1_1.wav,Pink_Noise_1_2.wav,"This is an example of an

AUDIO trial",,,,,,,,,,0,0,0,0,,,,,,,,,,,,,,,,,,,,,,,,,185.73618562985212,None,186.7198792276904,None,190.08639464061707,None,191.46989869326353,None,ash,191.46989869326353,None,return,5.232636275701225,191.55320567730814,None,,,,,,,,,,,,,,,,,,,,,,,,,,,,,,,,,174,001,2024_Mar_04_1209,SpeechDraft1Carolyn_lessNoise_PlusLocalization,2021.2.3,59.902995962019176,
ash.wav,ash.mpg,ash,1,AV,Pink_Noise_1_1.wav,Pink_Noise_1_2.wav,"This is an example of an

AUDIO + VIDEO  trial",,,,,,,,,,0,1,1,1,,,,,,,,,,,,,,,,,,,,,,,,,196.8196446597576,None,197.81990681122988,None,199.3030888410285,None,200.6864345157519,None,ash,200.6864345157519,None,return,4.375855325721204,200.76991173624992,None,,,,,,,,,,,,,,,,,,,,,,,,,,,,,,,,,174,001,2024_Mar_04_1209,SpeechDraft1Carolyn_lessNoise_PlusLocalization,2021.2.3,59.902995962019176,
,,,,,,,,,,,,,,,,,,,,,,,,,,,,,,,,,,,,,,,,,,,,,,,,,,,,,,,,,,,,205.18630224373192,None,space,5.951797594316304,205.36998433060944,None,,,,,,,,,,,,,,,,,,,,,,,,,,,174,001,2024_Mar_04_1209,SpeechDraft1Carolyn_lessNoise_PlusLocalization,2021.2.3,59.902995962019176,
drab.wav,drab.mpg,drab,3,AV,Pink_Noise_3_1.wav,Pink_Noise_3_2.wav,,,,,,,,,,,,,,,0,0,0,96,,,,,,,,,,,,,,,,,,,,,,,211.3862826898694,None,212.86965239793062,None,214.25311861746013,None,trap,214.25311861746013,None,return,2.2332503348588943,214.3365770643577,None,,,,,,,,,,,,,,,,,,,,,,,,,,,,,,,,,174,001,2024_Mar_04_1209,SpeechDraft1Carolyn_lessNoise_PlusLocalization,2021.2.3,59.902995962019176,
pact.wav,pact.mpg,pact,2,AV,Pink_Noise_2_1.wav,Pink_Noise_2_2.wav,,,,,,,,,,,,,,,0,1,1,68,,,,,,,,,,,,,,,,,,,,,,,216.58653365913779,None,218.08623610064387,None,219.4697958007455,None,pat,219.4697958007455,None,return,3.088632711209357,219.5532719846815,None,,,,,,,,,,,,,,,,,,,,,,,,,,,,,,,,,174,001,2024_Mar_04_1209,SpeechDraft1Carolyn_lessNoise_PlusLocalization,2021.2.3,59.902995962019176,
floor.wav,floor.mpg,floor,3,AV,Pink_Noise_3_1.wav,Pink_Noise_3_2.wav,,,,,,,,,,,,,,,0,2,2,118,,,,,,,,,,,,,,,,,,,,,,,222.6699921404943,None,224.16958098765463,None,225.55320848431438,None,door,225.55320848431438,None,return,1.4611866669729352,225.63658329006284,None,,,,,,,,,,,,,,,,,,,,,,,,,,,,,,,,,174,001,2024_Mar_04_1209,SpeechDraft1Carolyn_lessNoise_PlusLocalization,2021.2.3,59.902995962019176,
bean.wav,bean.mpg,bean,1,AV,Pink_Noise_1_1.wav,Pink_Noise_1_2.wav,,,,,,,,,,,,,,,0,3,3,99,,,,,,,,,,,,,,,,,,,,,,,227.11989691946656,None,228.61978017631918,None,230.00314269587398,None,bean,230.00314269587398,None,return,4.515288197435439,230.08656328450888,None,,,,,,,,,,,,,,,,,,,,,,,,,,,,,,,,,174,001,2024_Mar_04_1209,SpeechDraft1Carolyn_lessNoise_PlusLocalization,2021.2.3,59.902995962019176,
led.wav,led.mpg,led,1,AV,Pink_Noise_1_1.wav,Pink_Noise_1_2.wav,,,,,,,,,,,,,,,0,4,4,91,,,,,,,,,,,,,,,,,,,,,,,234.6198932044208,None,236.1197428498417,None,237.50320034846663,None,lead,237.50320034846663,None,return,0.9591552084311843,237.58665127772838,None,,,,,,,,,,,,,,,,,,,,,,,,,,,,,,,,,174,001,2024_Mar_04_1209,SpeechDraft1Carolyn_lessNoise_PlusLocalization,2021.2.3,59.902995962019176,
pride.wav,pride.mpg,pride,5,AV,Pink_Noise_5_1.wav,Pink_Noise_5_2.wav,,,,,,,,,,,,,,,0,5,5,116,,,,,,,,,,,,,,,,,,,,,,,238.56997546367347,None,240.06964138429612,None,241.45321709290147,None,way,241.45321709290147,None,return,1.3370644627138972,241.53670837264508,None,,,,,,,,,,,,,,,,,,,,,,,,,,,,,,,,,174,001,2024_Mar_04_1209,SpeechDraft1Carolyn_lessNoise_PlusLocalization,2021.2.3,59.902995962019176,
cake.wav,cake.mpg,cake,3,A,Pink_Noise_3_1.wav,Pink_Noise_3_2.wav,,,,,,,,,,,,,,,0,6,6,14,,,,,,,,,,,,,,,,,,,,,,,242.90328947082162,None,244.4029782032594,None,245.78657096344978,None,cake,245.78657096344978,None,return,0.724014101549983,245.86991479806602,None,,,,,,,,,,,,,,,,,,,,,,,,,,,,,,,,,174,001,2024_Mar_04_1209,SpeechDraft1Carolyn_lessNoise_PlusLocalization,2021.2.3,59.902995962019176,
bible.wav,bible.mpg,bible,2,AV,Pink_Noise_2_1.wav,Pink_Noise_2_2.wav,,,,,,,,,,,,,,,0,7,7,100,,,,,,,,,,,,,,,,,,,,,,,246.62003659456968,None,248.1196743734181,None,249.50322557333857,None,bibler,249.50322557333857,None,return,0.7591764936223626,249.58662443514913,None,,,,,,,,,,,,,,,,,,,,,,,,,,,,,,,,,174,001,2024_Mar_04_1209,SpeechDraft1Carolyn_lessNoise_PlusLocalization,2021.2.3,59.902995962019176,
boil.wav,boil.mpg,boil,5,AV,Pink_Noise_5_1.wav,Pink_Noise_5_2.wav,,,,,,,,,,,,,,,0,8,8,90,,,,,,,,,,,,,,,,,,,,,,,250.37000120896846,None,251.8696709871292,None,253.25330642051995,None,boy,253.25330642051995,None,return,1.0253017665818334,253.33658253774047,None,,,,,,,,,,,,,,,,,,,,,,,,,,,,,,,,,174,001,2024_Mar_04_1209,SpeechDraft1Carolyn_lessNoise_PlusLocalization,2021.2.3,59.902995962019176,
flock.wav,flock.mpg,flock,1,A,Pink_Noise_1_1.wav,Pink_Noise_1_2.wav,,,,,,,,,,,,,,,0,9,9,8,,,,,,,,,,,,,,,,,,,,,,,254.38666348159313,None,255.88639800995588,None,257.2699055466801,None,flock,257.2699055466801,None,return,1.0566186420619488,257.35329063236713,None,,,,,,,,,,,,,,,,,,,,,,,,,,,,,,,,,174,001,2024_Mar_04_1209,SpeechDraft1Carolyn_lessNoise_PlusLocalization,2021.2.3,59.902995962019176,
core.wav,core.mpg,core,4,A,Pink_Noise_4_1.wav,Pink_Noise_4_2.wav,,,,,,,,,,,,,,,0,10,10,12,,,,,,,,,,,,,,,,,,,,,,,258.43648088909686,None,259.9363309396431,None,261.30328319966793,None,"bohy
",261.30328319966793,None,return,0.702969828620553,261.38681513257325,None,,,,,,,,,,,,,,,,,,,,,,,,,,,,,,,,,174,001,2024_Mar_04_1209,SpeechDraft1Carolyn_lessNoise_PlusLocalization,2021.2.3,59.902995962019176,
fool.wav,fool.mpg,fool,2,AV,Pink_Noise_2_1.wav,Pink_Noise_2_2.wav,,,,,,,,,,,,,,,0,11,11,66,,,,,,,,,,,,,,,,,,,,,,,262.1200437620282,None,263.61975564528257,None,265.0032625645399,None,fool,265.0032625645399,None,return,1.3381409430876374,265.0876978999004,None,,,,,,,,,,,,,,,,,,,,,,,,,,,,,,,,,174,001,2024_Mar_04_1209,SpeechDraft1Carolyn_lessNoise_PlusLocalization,2021.2.3,59.902995962019176,
dread.wav,dread.mpg,dread,3,AV,Pink_Noise_3_1.wav,Pink_Noise_3_2.wav,,,,,,,,,,,,,,,0,12,12,105,,,,,,,,,,,,,,,,,,,,,,,266.4532697973773,None,267.95312848314643,None,269.33664034772664,None,dread,269.33664034772664,None,return,5.709702080115676,269.420084211044,None,,,,,,,,,,,,,,,,,,,,,,,,,,,,,,,,,174,001,2024_Mar_04_1209,SpeechDraft1Carolyn_lessNoise_PlusLocalization,2021.2.3,59.902995962019176,
drive.wav,drive.mpg,drive,4,A,Pink_Noise_4_1.wav,Pink_Noise_4_2.wav,,,,,,,,,,,,,,,0,13,13,7,,,,,,,,,,,,,,,,,,,,,,,275.1532914964482,None,276.65321174357086,None,278.03663990926,None,dry,278.03663990926,None,return,0.7458678120747209,278.1199028696865,None,,,,,,,,,,,,,,,,,,,,,,,,,,,,,,,,,174,001,2024_Mar_04_1209,SpeechDraft1Carolyn_lessNoise_PlusLocalization,2021.2.3,59.902995962019176,
blood.wav,blood.mpg,blood,6,A,Pink_Noise_6_1.wav,Pink_Noise_6_2.wav,,,,,,,,,,,,,,,0,14,14,48,,,,,,,,,,,,,,,,,,,,,,,278.886790683493,None,280.3862856226042,None,281.7701876619831,None,"brush
",281.7701876619831,None,return,4.668102128431201,281.8536729970947,None,,,,,,,,,,,,,,,,,,,,,,,,,,,,,,,,,174,001,2024_Mar_04_1209,SpeechDraft1Carolyn_lessNoise_PlusLocalization,2021.2.3,59.902995962019176,
eight.wav,eight.mpg,eight,3,A,Pink_Noise_3_1.wav,Pink_Noise_3_2.wav,,,,,,,,,,,,,,,0,15,15,37,,,,,,,,,,,,,,,,,,,,,,,286.55330305173993,None,288.0530982827768,None,289.4365848163143,None,ate,289.4365848163143,None,return,1.105840003117919,289.5199942579493,None,,,,,,,,,,,,,,,,,,,,,,,,,,,,,,,,,174,001,2024_Mar_04_1209,SpeechDraft1Carolyn_lessNoise_PlusLocalization,2021.2.3,59.902995962019176,
gone.wav,gone.mpg,gone,2,AV,Pink_Noise_2_1.wav,Pink_Noise_2_2.wav,,,,,,,,,,,,,,,0,16,16,117,,,,,,,,,,,,,,,,,,,,,,,290.65338314138353,None,292.1530513372272,None,293.53667942341417,None,gone,293.53667942341417,None,return,2.6778021985664964,293.6199669968337,None,,,,,,,,,,,,,,,,,,,,,,,,,,,,,,,,,174,001,2024_Mar_04_1209,SpeechDraft1Carolyn_lessNoise_PlusLocalization,2021.2.3,59.902995962019176,
crow.wav,crow.mpg,crow,3,A,Pink_Noise_3_1.wav,Pink_Noise_3_2.wav,,,,,,,,,,,,,,,0,17,17,18,,,,,,,,,,,,,,,,,,,,,,,296.3200492495671,None,297.81973307952285,None,299.203531450592,None,crow,299.203531450592,None,return,0.9631892535835505,299.2866509575397,None,,,,,,,,,,,,,,,,,,,,,,,,,,,,,,,,,174,001,2024_Mar_04_1209,SpeechDraft1Carolyn_lessNoise_PlusLocalization,2021.2.3,59.902995962019176,
gem.wav,gem.mpg,gem,2,A,Pink_Noise_2_1.wav,Pink_Noise_2_2.wav,,,,,,,,,,,,,,,0,18,18,56,,,,,,,,,,,,,,,,,,,,,,,300.2700017793104,None,301.76973450928926,None,303.153426640667,None,joe,303.153426640667,None,return,0.6611066795885563,303.23666456807405,None,,,,,,,,,,,,,,,,,,,,,,,,,,,,,,,,,174,001,2024_Mar_04_1209,SpeechDraft1Carolyn_lessNoise_PlusLocalization,2021.2.3,59.902995962019176,
bare.wav,bare.mpg,bare,6,A,Pink_Noise_6_1.wav,Pink_Noise_6_2.wav,,,,,,,,,,,,,,,0,19,19,33,,,,,,,,,,,,,,,,,,,,,,,303.9201475987211,None,305.4197693420574,None,306.80335962586105,None,,306.80335962586105,None,return,1.4430635469034314,306.88671207707375,None,,,,,,,,,,,,,,,,,,,,,,,,,,,,,,,,,174,001,2024_Mar_04_1209,SpeechDraft1Carolyn_lessNoise_PlusLocalization,2021.2.3,59.902995962019176,
cup.wav,cup.mpg,cup,4,A,Pink_Noise_4_1.wav,Pink_Noise_4_2.wav,,,,,,,,,,,,,,,0,20,20,21,,,,,,,,,,,,,,,,,,,,,,,308.3547989465296,None,309.86969775147736,None,311.2533167107031,None,quiet,311.2533167107031,None,return,2.4574326910078526,311.3366464879364,None,,,,,,,,,,,,,,,,,,,,,,,,,,,,,,,,,174,001,2024_Mar_04_1209,SpeechDraft1Carolyn_lessNoise_PlusLocalization,2021.2.3,59.902995962019176,
chin.wav,chin.mpg,chin,2,A,Pink_Noise_2_1.wav,Pink_Noise_2_2.wav,,,,,,,,,,,,,,,0,21,21,44,,,,,,,,,,,,,,,,,,,,,,,313.82021071203053,None,315.31972329877317,None,316.7033857740462,None,chair,316.7033857740462,None,return,0.8390984619036317,316.78675610292703,None,,,,,,,,,,,,,,,,,,,,,,,,,,,,,,,,,174,001,2024_Mar_04_1209,SpeechDraft1Carolyn_lessNoise_PlusLocalization,2021.2.3,59.902995962019176,
beer.wav,beer.mpg,beer,3,AV,Pink_Noise_3_1.wav,Pink_Noise_3_2.wav,,,,,,,,,,,,,,,0,22,22,85,,,,,,,,,,,,,,,,,,,,,,,317.65344405546784,None,319.1531503293663,None,320.5367425298318,None,beer,320.5367425298318,None,return,1.1498417425900698,320.6200052546337,None,,,,,,,,,,,,,,,,,,,,,,,,,,,,,,,,,174,001,2024_Mar_04_1209,SpeechDraft1Carolyn_lessNoise_PlusLocalization,2021.2.3,59.902995962019176,
friend.wav,friend.mpg,friend,5,A,Pink_Noise_5_1.wav,Pink_Noise_5_2.wav,,,,,,,,,,,,,,,0,23,23,43,,,,,,,,,,,,,,,,,,,,,,,321.7868298338726,None,323.28650648891926,None,324.67017177306116,None,read,324.67017177306116,None,return,0.824394952505827,324.7533912723884,None,,,,,,,,,,,,,,,,,,,,,,,,,,,,,,,,,174,001,2024_Mar_04_1209,SpeechDraft1Carolyn_lessNoise_PlusLocalization,2021.2.3,59.902995962019176,
your.wav,your.mpg,your,1,AV,Pink_Noise_1_1.wav,Pink_Noise_1_2.wav,,,,,,,,,,,,,,,0,24,24,60,,,,,,,,,,,,,,,,,,,,,,,325.6033500973135,None,327.103092988953,None,328.4866542154923,None,your,328.4866542154923,None,return,0.7917146207764745,328.57005279604346,None,,,,,,,,,,,,,,,,,,,,,,,,,,,,,,,,,174,001,2024_Mar_04_1209,SpeechDraft1Carolyn_lessNoise_PlusLocalization,2021.2.3,59.902995962019176,
feast.wav,feast.mpg,feast,6,AV,Pink_Noise_6_1.wav,Pink_Noise_6_2.wav,,,,,,,,,,,,,,,0,25,25,62,,,,,,,,,,,,,,,,,,,,,,,329.386683633551,None,330.8864139970392,None,332.2699258066714,None,fis,332.2699258066714,None,return,1.0084314672276378,332.35335669573396,None,,,,,,,,,,,,,,,,,,,,,,,,,,,,,,,,,174,001,2024_Mar_04_1209,SpeechDraft1Carolyn_lessNoise_PlusLocalization,2021.2.3,59.902995962019176,
chore.wav,chore.mpg,chore,1,A,Pink_Noise_1_1.wav,Pink_Noise_1_2.wav,,,,,,,,,,,,,,,0,26,26,6,,,,,,,,,,,,,,,,,,,,,,,333.38676154240966,None,334.8864940367639,None,336.2701520649716,None,chore,336.2701520649716,None,return,0.5123669672757387,336.3534044707194,None,,,,,,,,,,,,,,,,,,,,,,,,,,,,,,,,,174,001,2024_Mar_04_1209,SpeechDraft1Carolyn_lessNoise_PlusLocalization,2021.2.3,59.902995962019176,
flee.wav,flee.mpg,flee,6,AV,Pink_Noise_6_1.wav,Pink_Noise_6_2.wav,,,,,,,,,,,,,,,0,27,27,83,,,,,,,,,,,,,,,,,,,,,,,336.8867581728846,None,338.3864524811506,None,339.7699660975486,None,flee,339.7699660975486,None,return,2.6763711096718907,339.85342310369015,None,,,,,,,,,,,,,,,,,,,,,,,,,,,,,,,,,174,001,2024_Mar_04_1209,SpeechDraft1Carolyn_lessNoise_PlusLocalization,2021.2.3,59.902995962019176,
cute.wav,cute.mpg,cute,2,A,Pink_Noise_2_1.wav,Pink_Noise_2_2.wav,,,,,,,,,,,,,,,0,28,28,19,,,,,,,,,,,,,,,,,,,,,,,342.55339072085917,None,344.053165666759,None,345.4367525530979,None,cute,345.4367525530979,None,return,4.529685257002711,345.52019251324236,None,,,,,,,,,,,,,,,,,,,,,,,,,,,,,,,,,174,001,2024_Mar_04_1209,SpeechDraft1Carolyn_lessNoise_PlusLocalization,2021.2.3,59.902995962019176,
crypt.wav,crypt.mpg,crypt,5,AV,Pink_Noise_5_1.wav,Pink_Noise_5_2.wav,,,,,,,,,,,,,,,0,29,29,64,,,,,,,,,,,,,,,,,,,,,,,350.07006905879825,None,351.5697894440964,None,352.95347606856376,None,grape,352.95347606856376,None,return,5.7410699827596545,353.03675072453916,None,,,,,,,,,,,,,,,,,,,,,,,,,,,,,,,,,174,001,2024_Mar_04_1209,SpeechDraft1Carolyn_lessNoise_PlusLocalization,2021.2.3,59.902995962019176,
ease.wav,ease.mpg,ease,5,A,Pink_Noise_5_1.wav,Pink_Noise_5_2.wav,,,,,,,,,,,,,,,0,30,30,47,,,,,,,,,,,,,,,,,,,,,,,358.8034487813711,None,360.3031805753708,None,361.6868721432984,None,race,361.6868721432984,None,return,4.047741612419486,361.7700741030276,None,,,,,,,,,,,,,,,,,,,,,,,,,,,,,,,,,174,001,2024_Mar_04_1209,SpeechDraft1Carolyn_lessNoise_PlusLocalization,2021.2.3,59.902995962019176,
flair.wav,flair.mpg,flair,5,A,Pink_Noise_5_1.wav,Pink_Noise_5_2.wav,,,,,,,,,,,,,,,0,31,31,53,,,,,,,,,,,,,,,,,,,,,,,365.83681667782366,None,367.33654883597046,None,368.720059433952,None,"fair
",368.720059433952,None,return,3.71832924336195,368.803453553468,None,,,,,,,,,,,,,,,,,,,,,,,,,,,,,,,,,174,001,2024_Mar_04_1209,SpeechDraft1Carolyn_lessNoise_PlusLocalization,2021.2.3,59.902995962019176,
blind.wav,blind.mpg,blind,4,AV,Pink_Noise_4_1.wav,Pink_Noise_4_2.wav,,,,,,,,,,,,,,,0,32,32,115,,,,,,,,,,,,,,,,,,,,,,,372.5534452563152,None,374.0532323708758,None,375.43685934785753,None,blind,375.43685934785753,None,return,1.05771314073354,375.52014292031527,None,,,,,,,,,,,,,,,,,,,,,,,,,,,,,,,,,174,001,2024_Mar_04_1209,SpeechDraft1Carolyn_lessNoise_PlusLocalization,2021.2.3,59.902995962019176,
bench.wav,bench.mpg,bench,1,AV,Pink_Noise_1_1.wav,Pink_Noise_1_2.wav,,,,,,,,,,,,,,,0,33,33,94,,,,,,,,,,,,,,,,,,,,,,,376.60344764683396,None,378.1031836178154,None,379.4868706809357,None,bench,379.4868706809357,None,return,0.9916632249951363,379.57010693941265,None,,,,,,,,,,,,,,,,,,,,,,,,,,,,,,,,,174,001,2024_Mar_04_1209,SpeechDraft1Carolyn_lessNoise_PlusLocalization,2021.2.3,59.902995962019176,
blur.wav,blur.mpg,blur,1,AV,Pink_Noise_1_1.wav,Pink_Noise_1_2.wav,,,,,,,,,,,,,,,0,34,34,112,,,,,,,,,,,,,,,,,,,,,,,380.58684546034783,None,382.08663259632885,None,383.47011461108923,None,"blur
",383.47011461108923,None,return,1.120278712362051,383.5535131152719,None,,,,,,,,,,,,,,,,,,,,,,,,,,,,,,,,,174,001,2024_Mar_04_1209,SpeechDraft1Carolyn_lessNoise_PlusLocalization,2021.2.3,59.902995962019176,
pants.wav,pants.mpg,pants,4,A,Pink_Noise_4_1.wav,Pink_Noise_4_2.wav,,,,,,,,,,,,,,,0,35,35,13,,,,,,,,,,,,,,,,,,,,,,,384.7035454949364,None,386.2031645523384,None,387.58685086108744,None,"pants
",387.58685086108744,None,return,0.8033299641683698,387.6704458426684,None,,,,,,,,,,,,,,,,,,,,,,,,,,,,,,,,,174,001,2024_Mar_04_1209,SpeechDraft1Carolyn_lessNoise_PlusLocalization,2021.2.3,59.902995962019176,
fan.wav,fan.mpg,fan,5,A,Pink_Noise_5_1.wav,Pink_Noise_5_2.wav,,,,,,,,,,,,,,,0,36,36,52,,,,,,,,,,,,,,,,,,,,,,,388.50356391631067,None,390.0035716947168,None,391.38688257243484,None,sailing,391.38688257243484,None,return,1.5796300834044814,391.470215649344,None,,,,,,,,,,,,,,,,,,,,,,,,,,,,,,,,,174,001,2024_Mar_04_1209,SpeechDraft1Carolyn_lessNoise_PlusLocalization,2021.2.3,59.902995962019176,
fold.wav,fold.mpg,fold,2,A,Pink_Noise_2_1.wav,Pink_Noise_2_2.wav,,,,,,,,,,,,,,,0,37,37,11,,,,,,,,,,,,,,,,,,,,,,,393.07023276761174,None,394.5697835786268,None,395.9534218618646,None,"sold
",395.9534218618646,None,return,0.7170731956139207,396.0367074739188,None,,,,,,,,,,,,,,,,,,,,,,,,,,,,,,,,,174,001,2024_Mar_04_1209,SpeechDraft1Carolyn_lessNoise_PlusLocalization,2021.2.3,59.902995962019176,
traps.wav,traps.mpg,traps,4,A,Pink_Noise_4_1.wav,Pink_Noise_4_2.wav,,,,,,,,,,,,,,,0,38,38,3,,,,,,,,,,,,,,,,,,,,,,,396.7867945553735,None,398.28678047377616,None,399.6701789405197,None,traps,399.6701789405197,None,return,0.5922069130465388,399.7535600569099,None,,,,,,,,,,,,,,,,,,,,,,,,,,,,,,,,,174,001,2024_Mar_04_1209,SpeechDraft1Carolyn_lessNoise_PlusLocalization,2021.2.3,59.902995962019176,
blimp.wav,blimp.mpg,blimp,2,A,Pink_Noise_2_1.wav,Pink_Noise_2_2.wav,,,,,,,,,,,,,,,0,39,39,59,,,,,,,,,,,,,,,,,,,,,,,400.3702114596963,None,401.8698892276734,None,403.2544893315062,None,"flip
",403.2544893315062,None,return,0.5529242921620607,403.33686780836433,None,,,,,,,,,,,,,,,,,,,,,,,,,,,,,,,,,174,001,2024_Mar_04_1209,SpeechDraft1Carolyn_lessNoise_PlusLocalization,2021.2.3,59.902995962019176,
bomb.wav,bomb.mpg,bomb,4,AV,Pink_Noise_4_1.wav,Pink_Noise_4_2.wav,,,,,,,,,,,,,,,0,40,40,80,,,,,,,,,,,,,,,,,,,,,,,403.920157039538,None,405.4200020879507,None,406.80333012435585,None,"bio,",406.80333012435585,None,return,2.523118176497519,406.8868294879794,None,,,,,,,,,,,,,,,,,,,,,,,,,,,,,,,,,174,001,2024_Mar_04_1209,SpeechDraft1Carolyn_lessNoise_PlusLocalization,2021.2.3,59.902995962019176,
badge.wav,badge.mpg,badge,2,AV,Pink_Noise_2_1.wav,Pink_Noise_2_2.wav,,,,,,,,,,,,,,,0,41,41,87,,,,,,,,,,,,,,,,,,,,,,,409.43684940598905,None,410.93656430765986,None,412.3200075952336,None,"badge
",412.3200075952336,None,return,3.117928195744753,412.41985958907753,None,,,,,,,,,,,,,,,,,,,,,,,,,,,,,,,,,174,001,2024_Mar_04_1209,SpeechDraft1Carolyn_lessNoise_PlusLocalization,2021.2.3,59.902995962019176,
shut.wav,shut.mpg,shut,3,AV,Pink_Noise_3_1.wav,Pink_Noise_3_2.wav,,,,,,,,,,,,,,,0,42,42,74,,,,,,,,,,,,,,,,,,,,,,,415.57028507627547,None,417.0699063045904,None,418.4536755606532,None,"shut
",418.4536755606532,None,return,2.6169405998662114,418.5368155669421,None,,,,,,,,,,,,,,,,,,,,,,,,,,,,,,,,,174,001,2024_Mar_04_1209,SpeechDraft1Carolyn_lessNoise_PlusLocalization,2021.2.3,59.902995962019176,
unit.wav,unit.mpg,unit,3,AV,Pink_Noise_3_1.wav,Pink_Noise_3_2.wav,,,,,,,,,,,,,,,0,43,43,61,,,,,,,,,,,,,,,,,,,,,,,421.1868375260383,None,422.68679232988507,None,424.0702749490738,None,unit,424.0702749490738,None,return,1.4403024446219206,424.1535435942933,None,,,,,,,,,,,,,,,,,,,,,,,,,,,,,,,,,174,001,2024_Mar_04_1209,SpeechDraft1Carolyn_lessNoise_PlusLocalization,2021.2.3,59.902995962019176,
curb.wav,curb.mpg,curb,4,AV,Pink_Noise_4_1.wav,Pink_Noise_4_2.wav,,,,,,,,,,,,,,,0,44,44,97,,,,,,,,,,,,,,,,,,,,,,,425.62021017074585,None,427.11991844233125,None,428.50343562755734,None,curb,428.50343562755734,None,return,1.046911428682506,428.5869052000344,None,,,,,,,,,,,,,,,,,,,,,,,,,,,,,,,,,174,001,2024_Mar_04_1209,SpeechDraft1Carolyn_lessNoise_PlusLocalization,2021.2.3,59.902995962019176,
doom.wav,doom.mpg,doom,5,AV,Pink_Noise_5_1.wav,Pink_Noise_5_2.wav,,,,,,,,,,,,,,,0,45,45,76,,,,,,,,,,,,,,,,,,,,,,,429.653555653058,None,431.16986605804414,None,432.5534536316991,None,do,432.5534536316991,None,return,0.20473817083984613,432.6370522743091,None,,,,,,,,,,,,,,,,,,,,,,,,,,,,,,,,,174,001,2024_Mar_04_1209,SpeechDraft1Carolyn_lessNoise_PlusLocalization,2021.2.3,59.902995962019176,
dense.wav,dense.mpg,dense,3,A,Pink_Noise_3_1.wav,Pink_Noise_3_2.wav,,,,,,,,,,,,,,,0,46,46,23,,,,,,,,,,,,,,,,,,,,,,,432.87014888226986,None,434.3699095901102,None,435.7537773726508,None,dance,435.7537773726508,None,return,0.5489973677322268,435.836865093559,None,,,,,,,,,,,,,,,,,,,,,,,,,,,,,,,,,174,001,2024_Mar_04_1209,SpeechDraft1Carolyn_lessNoise_PlusLocalization,2021.2.3,59.902995962019176,
flop.wav,flop.mpg,flop,2,A,Pink_Noise_2_1.wav,Pink_Noise_2_2.wav,,,,,,,,,,,,,,,0,47,47,40,,,,,,,,,,,,,,,,,,,,,,,436.40373072307557,None,437.90325372014195,None,439.28683798760176,None,dly,439.28683798760176,None,return,0.9436000976711512,439.3701689885929,None,,,,,,,,,,,,,,,,,,,,,,,,,,,,,,,,,174,001,2024_Mar_04_1209,SpeechDraft1Carolyn_lessNoise_PlusLocalization,2021.2.3,59.902995962019176,
grave.wav,grave.mpg,grave,2,A,Pink_Noise_2_1.wav,Pink_Noise_2_2.wav,,,,,,,,,,,,,,,0,48,48,1,,,,,,,,,,,,,,,,,,,,,,,440.3369141649455,None,441.83657861314714,None,443.22029884159565,None,grey,443.22029884159565,None,return,0.7220964729785919,443.3037365358323,None,,,,,,,,,,,,,,,,,,,,,,,,,,,,,,,,,174,001,2024_Mar_04_1209,SpeechDraft1Carolyn_lessNoise_PlusLocalization,2021.2.3,59.902995962019176,
grind.wav,grind.mpg,grind,1,AV,Pink_Noise_1_1.wav,Pink_Noise_1_2.wav,,,,,,,,,,,,,,,0,49,49,79,,,,,,,,,,,,,,,,,,,,,,,444.05367990676314,None,445.5532333580777,None,446.93689677864313,None,grind,446.93689677864313,None,return,2.445616379380226,447.02019509579986,None,,,,,,,,,,,,,,,,,,,,,,,,,,,,,,,,,174,001,2024_Mar_04_1209,SpeechDraft1Carolyn_lessNoise_PlusLocalization,2021.2.3,59.902995962019176,
cheer.wav,cheer.mpg,cheer,6,AV,Pink_Noise_6_1.wav,Pink_Noise_6_2.wav,,,,,,,,,,,,,,,0,50,50,65,,,,,,,,,,,,,,,,,,,,,,,449.48687979672104,None,450.9866480771452,None,452.37012125365436,None,"cheer
",452.37012125365436,None,return,1.3002252839505672,452.45356284826994,None,,,,,,,,,,,,,,,,,,,,,,,,,,,,,,,,,174,001,2024_Mar_04_1209,SpeechDraft1Carolyn_lessNoise_PlusLocalization,2021.2.3,59.902995962019176,
gang.wav,gang.mpg,gang,3,AV,Pink_Noise_3_1.wav,Pink_Noise_3_2.wav,,,,,,,,,,,,,,,0,51,51,98,,,,,,,,,,,,,,,,,,,,,,,453.78708442579955,None,455.2866054046899,None,456.67020828742534,None,gat,456.67020828742534,None,return,1.7601947905495763,456.7535983910784,None,,,,,,,,,,,,,,,,,,,,,,,,,,,,,,,,,174,001,2024_Mar_04_1209,SpeechDraft1Carolyn_lessNoise_PlusLocalization,2021.2.3,59.902995962019176,
tomb.wav,tomb.mpg,tomb,4,AV,Pink_Noise_4_1.wav,Pink_Noise_4_2.wav,,,,,,,,,,,,,,,0,52,52,73,,,,,,,,,,,,,,,,,,,,,,,458.5369089115411,None,460.0383181180805,None,461.4203144973144,None,two,461.4203144973144,None,return,0.8982100626453757,461.50364469736814,None,,,,,,,,,,,,,,,,,,,,,,,,,,,,,,,,,174,001,2024_Mar_04_1209,SpeechDraft1Carolyn_lessNoise_PlusLocalization,2021.2.3,59.902995962019176,
block.wav,block.mpg,block,2,A,Pink_Noise_2_1.wav,Pink_Noise_2_2.wav,,,,,,,,,,,,,,,0,53,53,0,,,,,,,,,,,,,,,,,,,,,,,462.4203367102891,None,463.93676069471985,None,465.32026929501444,None,"flock
",465.32026929501444,None,return,0.8701965752989054,465.40357456728816,None,,,,,,,,,,,,,,,,,,,,,,,,,,,,,,,,,174,001,2024_Mar_04_1209,SpeechDraft1Carolyn_lessNoise_PlusLocalization,2021.2.3,59.902995962019176,
jeep.wav,jeep.mpg,jeep,4,AV,Pink_Noise_4_1.wav,Pink_Noise_4_2.wav,,,,,,,,,,,,,,,0,54,54,106,,,,,,,,,,,,,,,,,,,,,,,466.30355550535023,None,467.8200056310743,None,469.20352474134415,None,cheao,469.20352474134415,None,return,0.9550113752484322,469.2868748176843,None,,,,,,,,,,,,,,,,,,,,,,,,,,,,,,,,,174,001,2024_Mar_04_1209,SpeechDraft1Carolyn_lessNoise_PlusLocalization,2021.2.3,59.902995962019176,
green.wav,green.mpg,green,2,AV,Pink_Noise_2_1.wav,Pink_Noise_2_2.wav,,,,,,,,,,,,,,,0,55,55,67,,,,,,,,,,,,,,,,,,,,,,,470.2701370343566,None,471.7866420466453,None,473.170413560234,None,green,473.170413560234,None,return,0.9563720999285579,473.25358102377504,None,,,,,,,,,,,,,,,,,,,,,,,,,,,,,,,,,174,001,2024_Mar_04_1209,SpeechDraft1Carolyn_lessNoise_PlusLocalization,2021.2.3,59.902995962019176,
bruise.wav,bruise.mpg,bruise,1,AV,Pink_Noise_1_1.wav,Pink_Noise_1_2.wav,,,,,,,,,,,,,,,0,56,56,107,,,,,,,,,,,,,,,,,,,,,,,474.2370140366256,None,475.73737252596766,None,477.12021683435887,None,"bruise
",477.12021683435887,None,return,1.0701838433742523,477.20360883139074,None,,,,,,,,,,,,,,,,,,,,,,,,,,,,,,,,,174,001,2024_Mar_04_1209,SpeechDraft1Carolyn_lessNoise_PlusLocalization,2021.2.3,59.902995962019176,
tank.wav,tank.mpg,tank,6,A,Pink_Noise_6_1.wav,Pink_Noise_6_2.wav,,,,,,,,,,,,,,,0,57,57,41,,,,,,,,,,,,,,,,,,,,,,,478.3035972677171,None,479.80334358569235,None,481.1869232458994,None,,481.1869232458994,None,return,0.9717045919969678,481.27018694859,None,,,,,,,,,,,,,,,,,,,,,,,,,,,,,,,,,174,001,2024_Mar_04_1209,SpeechDraft1Carolyn_lessNoise_PlusLocalization,2021.2.3,59.902995962019176,
bear.wav,bear.mpg,bear,1,A,Pink_Noise_1_1.wav,Pink_Noise_1_2.wav,,,,,,,,,,,,,,,0,58,58,16,,,,,,,,,,,,,,,,,,,,,,,482.270415507257,None,483.7707002647221,None,485.15360831841826,None,bear,485.15360831841826,None,return,0.5729786781594157,485.2369766877964,None,,,,,,,,,,,,,,,,,,,,,,,,,,,,,,,,,174,001,2024_Mar_04_1209,SpeechDraft1Carolyn_lessNoise_PlusLocalization,2021.2.3,59.902995962019176,
claw.wav,claw.mpg,claw,6,A,Pink_Noise_6_1.wav,Pink_Noise_6_2.wav,,,,,,,,,,,,,,,0,59,59,45,,,,,,,,,,,,,,,,,,,,,,,485.8369263969362,None,487.33752120565623,None,488.7203482789919,None,long,488.7203482789919,None,return,2.0621419213712215,488.80362990964204,None,,,,,,,,,,,,,,,,,,,,,,,,,,,,,,,,,174,001,2024_Mar_04_1209,SpeechDraft1Carolyn_lessNoise_PlusLocalization,2021.2.3,59.902995962019176,
ask.wav,ask.mpg,ask,6,A,Pink_Noise_6_1.wav,Pink_Noise_6_2.wav,,,,,,,,,,,,,,,0,60,60,2,,,,,,,,,,,,,,,,,,,,,,,490.88693818822503,None,492.40333232749254,None,493.78700804524124,None,,493.78700804524124,None,return,0.30758855771273375,493.8703392650932,None,,,,,,,,,,,,,,,,,,,,,,,,,,,,,,,,,174,001,2024_Mar_04_1209,SpeechDraft1Carolyn_lessNoise_PlusLocalization,2021.2.3,59.902995962019176,
brief.wav,brief.mpg,brief,6,AV,Pink_Noise_6_1.wav,Pink_Noise_6_2.wav,,,,,,,,,,,,,,,0,61,61,72,,,,,,,,,,,,,,,,,,,,,,,494.2052459716797,None,495.7200572360307,None,497.10368049144745,None,brief,497.10368049144745,None,return,0.9908869760110974,497.18699995428324,None,,,,,,,,,,,,,,,,,,,,,,,,,,,,,,,,,174,001,2024_Mar_04_1209,SpeechDraft1Carolyn_lessNoise_PlusLocalization,2021.2.3,59.902995962019176,
box.wav,box.mpg,box,1,A,Pink_Noise_1_1.wav,Pink_Noise_1_2.wav,,,,,,,,,,,,,,,0,62,62,35,,,,,,,,,,,,,,,,,,,,,,,498.2036630017683,None,499.7034418126568,None,501.0870110010728,None,box,501.0870110010728,None,return,0.6314836768433452,501.17035832535475,None,,,,,,,,,,,,,,,,,,,,,,,,,,,,,,,,,174,001,2024_Mar_04_1209,SpeechDraft1Carolyn_lessNoise_PlusLocalization,2021.2.3,59.902995962019176,
frost.wav,frost.mpg,frost,6,A,Pink_Noise_6_1.wav,Pink_Noise_6_2.wav,,,,,,,,,,,,,,,0,63,63,10,,,,,,,,,,,,,,,,,,,,,,,501.8203957537189,None,503.3218567389995,None,504.70363916642964,None,west,504.70363916642964,None,return,1.1427897475659847,504.78699670080096,None,,,,,,,,,,,,,,,,,,,,,,,,,,,,,,,,,174,001,2024_Mar_04_1209,SpeechDraft1Carolyn_lessNoise_PlusLocalization,2021.2.3,59.902995962019176,
crew.wav,crew.mpg,crew,4,AV,Pink_Noise_4_1.wav,Pink_Noise_4_2.wav,,,,,,,,,,,,,,,0,64,64,63,,,,,,,,,,,,,,,,,,,,,,,505.95363064762205,None,507.46995241194963,None,508.83685475680977,None,curb,508.83685475680977,None,return,0.7934165140613914,508.9203861579299,None,,,,,,,,,,,,,,,,,,,,,,,,,,,,,,,,,174,001,2024_Mar_04_1209,SpeechDraft1Carolyn_lessNoise_PlusLocalization,2021.2.3,59.902995962019176,
bay.wav,bay.mpg,bay,5,A,Pink_Noise_5_1.wav,Pink_Noise_5_2.wav,,,,,,,,,,,,,,,0,65,65,32,,,,,,,,,,,,,,,,,,,,,,,509.7370196580887,None,511.26999991573393,None,512.6537453560159,None,bed,512.6537453560159,None,return,0.704890938475728,512.7369499634951,None,,,,,,,,,,,,,,,,,,,,,,,,,,,,,,,,,174,001,2024_Mar_04_1209,SpeechDraft1Carolyn_lessNoise_PlusLocalization,2021.2.3,59.902995962019176,
cube.wav,cube.mpg,cube,1,A,Pink_Noise_1_1.wav,Pink_Noise_1_2.wav,,,,,,,,,,,,,,,0,66,66,26,,,,,,,,,,,,,,,,,,,,,,,513.4702545236796,None,514.9865823378786,None,516.3704755418003,None,cube,516.3704755418003,None,return,0.5323519520461559,516.4535111030564,None,,,,,,,,,,,,,,,,,,,,,,,,,,,,,,,,,174,001,2024_Mar_04_1209,SpeechDraft1Carolyn_lessNoise_PlusLocalization,2021.2.3,59.902995962019176,
bust.wav,bust.mpg,bust,5,A,Pink_Noise_5_1.wav,Pink_Noise_5_2.wav,,,,,,,,,,,,,,,0,67,67,15,,,,,,,,,,,,,,,,,,,,,,,517.0037040347233,None,518.5368612417951,None,519.9204509221017,None,trust,519.9204509221017,None,return,1.2540997499600053,520.003680457361,None,,,,,,,,,,,,,,,,,,,,,,,,,,,,,,,,,174,001,2024_Mar_04_1209,SpeechDraft1Carolyn_lessNoise_PlusLocalization,2021.2.3,59.902995962019176,
bland.wav,bland.mpg,bland,6,A,Pink_Noise_6_1.wav,Pink_Noise_6_2.wav,,,,,,,,,,,,,,,0,68,68,51,,,,,,,,,,,,,,,,,,,,,,,521.2870794655755,None,522.8038126369938,None,524.1869113892317,None,long,524.1869113892317,None,return,1.1235806085169315,524.2703464953229,None,,,,,,,,,,,,,,,,,,,,,,,,,,,,,,,,,174,001,2024_Mar_04_1209,SpeechDraft1Carolyn_lessNoise_PlusLocalization,2021.2.3,59.902995962019176,
glide.wav,glide.mpg,glide,6,AV,Pink_Noise_6_1.wav,Pink_Noise_6_2.wav,,,,,,,,,,,,,,,0,69,69,81,,,,,,,,,,,,,,,,,,,,,,,525.420361360535,None,526.9368151016533,None,528.3201179020107,None,slide,528.3201179020107,None,return,2.8461723467335105,528.4036581050605,None,,,,,,,,,,,,,,,,,,,,,,,,,,,,,,,,,174,001,2024_Mar_04_1209,SpeechDraft1Carolyn_lessNoise_PlusLocalization,2021.2.3,59.902995962019176,
date.wav,date.mpg,date,5,A,Pink_Noise_5_1.wav,Pink_Noise_5_2.wav,,,,,,,,,,,,,,,0,70,70,30,,,,,,,,,,,,,,,,,,,,,,,531.2703624283895,None,532.7867955174297,None,534.1537567414343,None,dense,534.1537567414343,None,return,1.1166286561638117,534.2371555957943,None,,,,,,,,,,,,,,,,,,,,,,,,,,,,,,,,,174,001,2024_Mar_04_1209,SpeechDraft1Carolyn_lessNoise_PlusLocalization,2021.2.3,59.902995962019176,
goose.wav,goose.mpg,goose,3,A,Pink_Noise_3_1.wav,Pink_Noise_3_2.wav,,,,,,,,,,,,,,,0,71,71,55,,,,,,,,,,,,,,,,,,,,,,,535.3704532729462,None,536.8866258524358,None,538.2703997194767,None,goose,538.2703997194767,None,return,0.824135635048151,538.3537746723741,None,,,,,,,,,,,,,,,,,,,,,,,,,,,,,,,,,174,001,2024_Mar_04_1209,SpeechDraft1Carolyn_lessNoise_PlusLocalization,2021.2.3,59.902995962019176,
beat.wav,beat.mpg,beat,6,AV,Pink_Noise_6_1.wav,Pink_Noise_6_2.wav,,,,,,,,,,,,,,,0,72,72,82,,,,,,,,,,,,,,,,,,,,,,,539.203751466237,None,540.7200096417218,None,542.1036195689812,None,"beat
",542.1036195689812,None,return,1.5026430506259203,542.187133747153,None,,,,,,,,,,,,,,,,,,,,,,,,,,,,,,,,,174,001,2024_Mar_04_1209,SpeechDraft1Carolyn_lessNoise_PlusLocalization,2021.2.3,59.902995962019176,
gulp.wav,gulp.mpg,gulp,6,A,Pink_Noise_6_1.wav,Pink_Noise_6_2.wav,,,,,,,,,,,,,,,0,73,73,46,,,,,,,,,,,,,,,,,,,,,,,543.7203258797526,None,545.2367294467986,None,546.6205310719088,None,bok,546.6205310719088,None,return,2.130199184641242,546.7036801520735,None,,,,,,,,,,,,,,,,,,,,,,,,,,,,,,,,,174,001,2024_Mar_04_1209,SpeechDraft1Carolyn_lessNoise_PlusLocalization,2021.2.3,59.902995962019176,
pop.wav,pop.mpg,pop,4,A,Pink_Noise_4_1.wav,Pink_Noise_4_2.wav,,,,,,,,,,,,,,,0,74,74,5,,,,,,,,,,,,,,,,,,,,,,,548.8537093214691,None,550.3552743485197,None,551.7370456457138,None,tup,551.7370456457138,None,return,1.8455021660774946,551.8202938269824,None,,,,,,,,,,,,,,,,,,,,,,,,,,,,,,,,,174,001,2024_Mar_04_1209,SpeechDraft1Carolyn_lessNoise_PlusLocalization,2021.2.3,59.902995962019176,
bend.wav,bend.mpg,bend,3,AV,Pink_Noise_3_1.wav,Pink_Noise_3_2.wav,,,,,,,,,,,,,,,0,75,75,78,,,,,,,,,,,,,,,,,,,,,,,553.6870928071439,None,555.2035527136177,None,556.5870263250545,None,bend,556.5870263250545,None,return,1.0273666055873036,556.6703967023641,None,,,,,,,,,,,,,,,,,,,,,,,,,,,,,,,,,174,001,2024_Mar_04_1209,SpeechDraft1Carolyn_lessNoise_PlusLocalization,2021.2.3,59.902995962019176,
fifth.wav,fifth.mpg,fifth,2,A,Pink_Noise_2_1.wav,Pink_Noise_2_2.wav,,,,,,,,,,,,,,,0,76,76,17,,,,,,,,,,,,,,,,,,,,,,,557.720450842753,None,559.236902882345,None,560.6204748675227,None,fifth,560.6204748675227,None,return,1.1939998334273696,560.703767998144,None,,,,,,,,,,,,,,,,,,,,,,,,,,,,,,,,,174,001,2024_Mar_04_1209,SpeechDraft1Carolyn_lessNoise_PlusLocalization,2021.2.3,59.902995962019176,
ban.wav,ban.mpg,ban,4,AV,Pink_Noise_4_1.wav,Pink_Noise_4_2.wav,,,,,,,,,,,,,,,0,77,77,102,,,,,,,,,,,,,,,,,,,,,,,561.9204907566309,None,563.4367590211332,None,564.8036539489403,None,"ban
",564.8036539489403,None,return,0.818606823682785,564.8871714742854,None,,,,,,,,,,,,,,,,,,,,,,,,,,,,,,,,,174,001,2024_Mar_04_1209,SpeechDraft1Carolyn_lessNoise_PlusLocalization,2021.2.3,59.902995962019176,
chef.wav,chef.mpg,chef,6,AV,Pink_Noise_6_1.wav,Pink_Noise_6_2.wav,,,,,,,,,,,,,,,0,78,78,93,,,,,,,,,,,,,,,,,,,,,,,565.7370406147093,None,567.2367231315002,None,568.6203364217654,None,chef,568.6203364217654,None,return,1.0419992906972766,568.7037834469229,None,,,,,,,,,,,,,,,,,,,,,,,,,,,,,,,,,174,001,2024_Mar_04_1209,SpeechDraft1Carolyn_lessNoise_PlusLocalization,2021.2.3,59.902995962019176,
game.wav,game.mpg,game,4,A,Pink_Noise_4_1.wav,Pink_Noise_4_2.wav,,,,,,,,,,,,,,,0,79,79,39,,,,,,,,,,,,,,,,,,,,,,,569.7704311432317,None,571.2703761365265,None,572.6538130808622,None,gay,572.6538130808622,None,return,1.1766922697424889,572.7371090697125,None,,,,,,,,,,,,,,,,,,,,,,,,,,,,,,,,,174,001,2024_Mar_04_1209,SpeechDraft1Carolyn_lessNoise_PlusLocalization,2021.2.3,59.902995962019176,
grail.wav,grail.mpg,grail,1,A,Pink_Noise_1_1.wav,Pink_Noise_1_2.wav,,,,,,,,,,,,,,,0,80,80,27,,,,,,,,,,,,,,,,,,,,,,,573.93704939913,None,575.4534265398979,None,576.8370863515884,None,grail,576.8370863515884,None,return,0.8813939141109586,576.9204042162746,None,,,,,,,,,,,,,,,,,,,,,,,,,,,,,,,,,174,001,2024_Mar_04_1209,SpeechDraft1Carolyn_lessNoise_PlusLocalization,2021.2.3,59.902995962019176,
chick.wav,chick.mpg,chick,1,A,Pink_Noise_1_1.wav,Pink_Noise_1_2.wav,,,,,,,,,,,,,,,0,81,81,42,,,,,,,,,,,,,,,,,,,,,,,577.8203836837783,None,579.3367639798671,None,580.7203637361526,None,chick,580.7203637361526,None,return,3.3900561528280377,580.8037838665769,None,,,,,,,,,,,,,,,,,,,,,,,,,,,,,,,,,174,001,2024_Mar_04_1209,SpeechDraft1Carolyn_lessNoise_PlusLocalization,2021.2.3,59.902995962019176,
swayed.wav,swayed.mpg,swayed,6,A,Pink_Noise_6_1.wav,Pink_Noise_6_2.wav,,,,,,,,,,,,,,,0,82,82,50,,,,,,,,,,,,,,,,,,,,,,,584.220389444381,None,585.7219126615673,None,587.1037584589794,None,  ,587.1037584589794,None,return,2.870732767507434,587.1870376970619,None,,,,,,,,,,,,,,,,,,,,,,,,,,,,,,,,,174,001,2024_Mar_04_1209,SpeechDraft1Carolyn_lessNoise_PlusLocalization,2021.2.3,59.902995962019176,
gift.wav,gift.mpg,gift,2,AV,Pink_Noise_2_1.wav,Pink_Noise_2_2.wav,,,,,,,,,,,,,,,0,83,83,111,,,,,,,,,,,,,,,,,,,,,,,590.0870818011463,None,591.6201312988997,None,593.0036922236905,None,gift,593.0036922236905,None,return,3.114672197960317,593.0871404232457,None,,,,,,,,,,,,,,,,,,,,,,,,,,,,,,,,,174,001,2024_Mar_04_1209,SpeechDraft1Carolyn_lessNoise_PlusLocalization,2021.2.3,59.902995962019176,
paid.wav,paid.mpg,paid,4,AV,Pink_Noise_4_1.wav,Pink_Noise_4_2.wav,,,,,,,,,,,,,,,0,84,84,89,,,,,,,,,,,,,,,,,,,,,,,596.2204404380172,None,597.7368792816997,None,599.1204921044409,None,pay,599.1204921044409,None,return,1.8459455287083983,599.2038360098377,None,,,,,,,,,,,,,,,,,,,,,,,,,,,,,,,,,174,001,2024_Mar_04_1209,SpeechDraft1Carolyn_lessNoise_PlusLocalization,2021.2.3,59.902995962019176,
file.wav,file.mpg,file,6,AV,Pink_Noise_6_1.wav,Pink_Noise_6_2.wav,,,,,,,,,,,,,,,0,85,85,92,,,,,,,,,,,,,,,,,,,,,,,601.0705969864503,None,602.5869461596012,None,603.9704333264381,None,"flag
",603.9704333264381,None,return,0.4679597318172455,604.0538420118392,None,,,,,,,,,,,,,,,,,,,,,,,,,,,,,,,,,174,001,2024_Mar_04_1209,SpeechDraft1Carolyn_lessNoise_PlusLocalization,2021.2.3,59.902995962019176,
bind.wav,bind.mpg,bind,1,A,Pink_Noise_1_1.wav,Pink_Noise_1_2.wav,,,,,,,,,,,,,,,0,86,86,54,,,,,,,,,,,,,,,,,,,,,,,604.5539919044822,None,606.0537592833862,None,607.4384571323171,None,"find
",607.4384571323171,None,return,2.201152832247317,607.5206256294623,None,,,,,,,,,,,,,,,,,,,,,,,,,,,,,,,,,174,001,2024_Mar_04_1209,SpeechDraft1Carolyn_lessNoise_PlusLocalization,2021.2.3,59.902995962019176,
crush.wav,crush.mpg,crush,5,AV,Pink_Noise_5_1.wav,Pink_Noise_5_2.wav,,,,,,,,,,,,,,,0,87,87,110,,,,,,,,,,,,,,,,,,,,,,,609.7538236528635,None,611.2705990476534,None,612.6537827756256,None,crush,612.6537827756256,None,return,4.616633356548846,612.7371593611315,None,,,,,,,,,,,,,,,,,,,,,,,,,,,,,,,,,174,001,2024_Mar_04_1209,SpeechDraft1Carolyn_lessNoise_PlusLocalization,2021.2.3,59.902995962019176,
cause.wav,cause.mpg,cause,3,A,Pink_Noise_3_1.wav,Pink_Noise_3_2.wav,,,,,,,,,,,,,,,0,88,88,34,,,,,,,,,,,,,,,,,,,,,,,617.3704927777871,None,618.903608196415,None,620.2872489504516,None,clause,620.2872489504516,None,return,1.3432876141741872,620.3705153530464,None,,,,,,,,,,,,,,,,,,,,,,,,,,,,,,,,,174,001,2024_Mar_04_1209,SpeechDraft1Carolyn_lessNoise_PlusLocalization,2021.2.3,59.902995962019176,
drink.wav,drink.mpg,drink,2,AV,Pink_Noise_2_1.wav,Pink_Noise_2_2.wav,,,,,,,,,,,,,,,0,89,89,101,,,,,,,,,,,,,,,,,,,,,,,621.7373508829623,None,623.2702045664191,None,624.6536421198398,None,"drink
",624.6536421198398,None,return,4.952655081637204,624.7371267313138,None,,,,,,,,,,,,,,,,,,,,,,,,,,,,,,,,,174,001,2024_Mar_04_1209,SpeechDraft1Carolyn_lessNoise_PlusLocalization,2021.2.3,59.902995962019176,
crude.wav,crude.mpg,crude,3,A,Pink_Noise_3_1.wav,Pink_Noise_3_2.wav,,,,,,,,,,,,,,,0,90,90,38,,,,,,,,,,,,,,,,,,,,,,,629.7205584831536,None,631.2368002254516,None,632.6204751031473,None,crude,632.6204751031473,None,return,0.9777755653485656,632.7039903970435,None,,,,,,,,,,,,,,,,,,,,,,,,,,,,,,,,,174,001,2024_Mar_04_1209,SpeechDraft1Carolyn_lessNoise_PlusLocalization,2021.2.3,59.902995962019176,
chomp.wav,chomp.mpg,chomp,4,A,Pink_Noise_4_1.wav,Pink_Noise_4_2.wav,,,,,,,,,,,,,,,0,91,91,28,,,,,,,,,,,,,,,,,,,,,,,633.7038890933618,None,635.2201907895505,None,636.6038170084357,None,strong,636.6038170084357,None,return,1.1467202519997954,636.687134841457,None,,,,,,,,,,,,,,,,,,,,,,,,,,,,,,,,,174,001,2024_Mar_04_1209,SpeechDraft1Carolyn_lessNoise_PlusLocalization,2021.2.3,59.902995962019176,
quart.wav,quart.mpg,quart,3,A,Pink_Noise_3_1.wav,Pink_Noise_3_2.wav,,,,,,,,,,,,,,,0,92,92,25,,,,,,,,,,,,,,,,,,,,,,,637.85380965285,None,639.3702273014933,None,640.7538877474144,None,court,640.7538877474144,None,return,1.0205590659752488,640.8372088866308,None,,,,,,,,,,,,,,,,,,,,,,,,,,,,,,,,,174,001,2024_Mar_04_1209,SpeechDraft1Carolyn_lessNoise_PlusLocalization,2021.2.3,59.902995962019176,
coach.wav,coach.mpg,coach,1,AV,Pink_Noise_1_1.wav,Pink_Noise_1_2.wav,,,,,,,,,,,,,,,0,93,93,88,,,,,,,,,,,,,,,,,,,,,,,641.8872435539961,None,643.4201561799273,None,644.8038768069819,None,"coach
",644.8038768069819,None,return,0.6507492214441299,644.8870339719579,None,,,,,,,,,,,,,,,,,,,,,,,,,,,,,,,,,174,001,2024_Mar_04_1209,SpeechDraft1Carolyn_lessNoise_PlusLocalization,2021.2.3,59.902995962019176,
bye.wav,bye.mpg,bye,3,AV,Pink_Noise_3_1.wav,Pink_Noise_3_2.wav,,,,,,,,,,,,,,,0,94,94,70,,,,,,,,,,,,,,,,,,,,,,,645.5705483527854,None,647.0869501186535,None,648.4704810474068,None,bye,648.4704810474068,None,return,0.6239727297797799,648.5538981407881,None,,,,,,,,,,,,,,,,,,,,,,,,,,,,,,,,,174,001,2024_Mar_04_1209,SpeechDraft1Carolyn_lessNoise_PlusLocalization,2021.2.3,59.902995962019176,
champ.wav,champ.mpg,champ,5,AV,Pink_Noise_5_1.wav,Pink_Noise_5_2.wav,,,,,,,,,,,,,,,0,95,95,108,,,,,,,,,,,,,,,,,,,,,,,649.2039410769939,None,650.7036090707406,None,652.0870900033042,None,champ,652.0870900033042,None,return,4.679154692217708,652.1706126620993,None,,,,,,,,,,,,,,,,,,,,,,,,,,,,,,,,,174,001,2024_Mar_04_1209,SpeechDraft1Carolyn_lessNoise_PlusLocalization,2021.2.3,59.902995962019176,
dine.wav,dine.mpg,dine,2,AV,Pink_Noise_2_1.wav,Pink_Noise_2_2.wav,,,,,,,,,,,,,,,0,96,96,69,,,,,,,,,,,,,,,,,,,,,,,656.870596498251,None,658.3869741978124,None,659.77064377442,None,"dine
",659.77064377442,None,return,0.4679636200889945,659.8538464959711,None,,,,,,,,,,,,,,,,,,,,,,,,,,,,,,,,,174,001,2024_Mar_04_1209,SpeechDraft1Carolyn_lessNoise_PlusLocalization,2021.2.3,59.902995962019176,
beard.wav,beard.mpg,beard,5,AV,Pink_Noise_5_1.wav,Pink_Noise_5_2.wav,,,,,,,,,,,,,,,0,97,97,104,,,,,,,,,,,,,,,,,,,,,,,660.353912865743,None,661.8869151771069,None,663.2703797742724,None,beer,663.2703797742724,None,return,0.711950758472085,663.3538273945451,None,,,,,,,,,,,,,,,,,,,,,,,,,,,,,,,,,174,001,2024_Mar_04_1209,SpeechDraft1Carolyn_lessNoise_PlusLocalization,2021.2.3,59.902995962019176,
deck.wav,deck.mpg,deck,1,AV,Pink_Noise_1_1.wav,Pink_Noise_1_2.wav,,,,,,,,,,,,,,,0,98,98,103,,,,,,,,,,,,,,,,,,,,,,,664.0873041087762,None,665.5879535516724,None,666.9705225629732,None,declk,666.9705225629732,None,return,3.4999924702569842,667.0538402944803,None,,,,,,,,,,,,,,,,,,,,,,,,,,,,,,,,,174,001,2024_Mar_04_1209,SpeechDraft1Carolyn_lessNoise_PlusLocalization,2021.2.3,59.902995962019176,
gum.wav,gum.mpg,gum,5,AV,Pink_Noise_5_1.wav,Pink_Noise_5_2.wav,,,,,,,,,,,,,,,0,99,99,77,,,,,,,,,,,,,,,,,,,,,,,670.5705560566857,None,672.120338499546,None,673.5038375044242,None,gum,673.5038375044242,None,return,1.3265982447192073,673.587177705951,None,,,,,,,,,,,,,,,,,,,,,,,,,,,,,,,,,174,001,2024_Mar_04_1209,SpeechDraft1Carolyn_lessNoise_PlusLocalization,2021.2.3,59.902995962019176,
grim.wav,grim.mpg,grim,4,A,Pink_Noise_4_1.wav,Pink_Noise_4_2.wav,,,,,,,,,,,,,,,0,100,100,57,,,,,,,,,,,,,,,,,,,,,,,674.9374002423137,None,676.4535630028695,None,677.837452291511,None,"grant
",677.837452291511,None,return,5.785269033163786,677.9205011026934,None,,,,,,,,,,,,,,,,,,,,,,,,,,,,,,,,,174,001,2024_Mar_04_1209,SpeechDraft1Carolyn_lessNoise_PlusLocalization,2021.2.3,59.902995962019176,
dock.wav,dock.mpg,dock,2,AV,Pink_Noise_2_1.wav,Pink_Noise_2_2.wav,,,,,,,,,,,,,,,0,101,101,119,,,,,,,,,,,,,,,,,,,,,,,683.7372982166708,None,685.2535493299365,None,686.6371730789542,None,duck,686.6371730789542,None,return,0.8092326400801539,686.7205622326583,None,,,,,,,,,,,,,,,,,,,,,,,,,,,,,,,,,174,001,2024_Mar_04_1209,SpeechDraft1Carolyn_lessNoise_PlusLocalization,2021.2.3,59.902995962019176,
farm.wav,farm.mpg,farm,3,A,Pink_Noise_3_1.wav,Pink_Noise_3_2.wav,,,,,,,,,,,,,,,0,102,102,4,,,,,,,,,,,,,,,,,,,,,,,687.5538979340345,None,689.0703447936103,None,690.4539460595697,None,carve,690.4539460595697,None,return,0.9045307449996471,690.5372472852468,None,,,,,,,,,,,,,,,,,,,,,,,,,,,,,,,,,174,001,2024_Mar_04_1209,SpeechDraft1Carolyn_lessNoise_PlusLocalization,2021.2.3,59.902995962019176,
axe.wav,axe.mpg,axe,5,A,Pink_Noise_5_1.wav,Pink_Noise_5_2.wav,,,,,,,,,,,,,,,0,103,103,31,,,,,,,,,,,,,,,,,,,,,,,691.4706067135558,None,692.9870292572305,None,694.3705251272768,None,axe,694.3705251272768,None,return,0.7958514979109168,694.4539212537929,None,,,,,,,,,,,,,,,,,,,,,,,,,,,,,,,,,174,001,2024_Mar_04_1209,SpeechDraft1Carolyn_lessNoise_PlusLocalization,2021.2.3,59.902995962019176,
deed.wav,deed.mpg,deed,5,A,Pink_Noise_5_1.wav,Pink_Noise_5_2.wav,,,,,,,,,,,,,,,0,104,104,29,,,,,,,,,,,,,,,,,,,,,,,695.2706226184964,None,696.8041968289763,None,698.1873352564871,None,ee,698.1873352564871,None,return,0.3232086356729269,698.2706500776112,None,,,,,,,,,,,,,,,,,,,,,,,,,,,,,,,,,174,001,2024_Mar_04_1209,SpeechDraft1Carolyn_lessNoise_PlusLocalization,2021.2.3,59.902995962019176,
clumps.wav,clumps.mpg,clumps,4,AV,Pink_Noise_4_1.wav,Pink_Noise_4_2.wav,,,,,,,,,,,,,,,0,105,105,114,,,,,,,,,,,,,,,,,,,,,,,698.6206299224868,None,700.1537505453452,None,701.5371794151142,None,close,701.5371794151142,None,return,1.1573486411944032,701.6205925904214,None,,,,,,,,,,,,,,,,,,,,,,,,,,,,,,,,,174,001,2024_Mar_04_1209,SpeechDraft1Carolyn_lessNoise_PlusLocalization,2021.2.3,59.902995962019176,
grown.wav,grown.mpg,grown,2,A,Pink_Noise_2_1.wav,Pink_Noise_2_2.wav,,,,,,,,,,,,,,,0,106,106,58,,,,,,,,,,,,,,,,,,,,,,,702.8039980502799,None,704.337007981725,None,705.720557291992,None,gro,705.720557291992,None,return,0.5900261681526899,705.8038976537064,None,,,,,,,,,,,,,,,,,,,,,,,,,,,,,,,,,174,001,2024_Mar_04_1209,SpeechDraft1Carolyn_lessNoise_PlusLocalization,2021.2.3,59.902995962019176,
ball.wav,ball.mpg,ball,1,AV,Pink_Noise_1_1.wav,Pink_Noise_1_2.wav,,,,,,,,,,,,,,,0,107,107,95,,,,,,,,,,,,,,,,,,,,,,,706.4206053633243,None,707.9370445292443,None,709.3207419048995,None,bow,709.3207419048995,None,return,0.421854168176651,709.4039299422875,None,,,,,,,,,,,,,,,,,,,,,,,,,,,,,,,,,174,001,2024_Mar_04_1209,SpeechDraft1Carolyn_lessNoise_PlusLocalization,2021.2.3,59.902995962019176,
carve.wav,carve.mpg,carve,5,A,Pink_Noise_5_1.wav,Pink_Noise_5_2.wav,,,,,,,,,,,,,,,0,108,108,20,,,,,,,,,,,,,,,,,,,,,,,709.8539922609925,None,711.3703409945592,None,712.7539308089763,None,carve,712.7539308089763,None,return,0.7566589852795005,712.8372508687899,None,,,,,,,,,,,,,,,,,,,,,,,,,,,,,,,,,174,001,2024_Mar_04_1209,SpeechDraft1Carolyn_lessNoise_PlusLocalization,2021.2.3,59.902995962019176,
creek.wav,creek.mpg,creek,4,A,Pink_Noise_4_1.wav,Pink_Noise_4_2.wav,,,,,,,,,,,,,,,0,109,109,49,,,,,,,,,,,,,,,,,,,,,,,713.6206037448719,None,715.1369801983237,None,716.5205206852406,None,"creek
",716.5205206852406,None,return,1.9178000018000603,716.6040031835437,None,,,,,,,,,,,,,,,,,,,,,,,,,,,,,,,,,174,001,2024_Mar_04_1209,SpeechDraft1Carolyn_lessNoise_PlusLocalization,2021.2.3,59.902995962019176,
fetch.wav,fetch.mpg,fetch,3,A,Pink_Noise_3_1.wav,Pink_Noise_3_2.wav,,,,,,,,,,,,,,,0,110,110,22,,,,,,,,,,,,,,,,,,,,,,,718.5539856953546,None,720.0704206032678,None,721.4541304865852,None,touch,721.4541304865852,None,return,1.2084679659456015,721.5373026719317,None,,,,,,,,,,,,,,,,,,,,,,,,,,,,,,,,,174,001,2024_Mar_04_1209,SpeechDraft1Carolyn_lessNoise_PlusLocalization,2021.2.3,59.902995962019176,
count.wav,count.mpg,count,5,AV,Pink_Noise_5_1.wav,Pink_Noise_5_2.wav,,,,,,,,,,,,,,,0,111,111,109,,,,,,,,,,,,,,,,,,,,,,,722.7707758629695,None,724.3037042524666,None,725.6872399225831,None,count,725.6872399225831,None,return,0.6152019966393709,725.7706869216636,None,,,,,,,,,,,,,,,,,,,,,,,,,,,,,,,,,174,001,2024_Mar_04_1209,SpeechDraft1Carolyn_lessNoise_PlusLocalization,2021.2.3,59.902995962019176,
grab.wav,grab.mpg,grab,6,AV,Pink_Noise_6_1.wav,Pink_Noise_6_2.wav,,,,,,,,,,,,,,,0,112,112,84,,,,,,,,,,,,,,,,,,,,,,,726.4039916945621,None,727.9204239975661,None,729.3038967419416,None,"drive
",729.3038967419416,None,return,1.150409396737814,729.3873510872945,None,,,,,,,,,,,,,,,,,,,,,,,,,,,,,,,,,174,001,2024_Mar_04_1209,SpeechDraft1Carolyn_lessNoise_PlusLocalization,2021.2.3,59.902995962019176,
feud.wav,feud.mpg,feud,1,A,Pink_Noise_1_1.wav,Pink_Noise_1_2.wav,,,,,,,,,,,,,,,0,113,113,36,,,,,,,,,,,,,,,,,,,,,,,730.5707766870037,None,732.0869938218966,None,733.4707044372335,None,feud,733.4707044372335,None,return,1.0718972785398364,733.5540101667866,None,,,,,,,,,,,,,,,,,,,,,,,,,,,,,,,,,174,001,2024_Mar_04_1209,SpeechDraft1Carolyn_lessNoise_PlusLocalization,2021.2.3,59.902995962019176,
duct.wav,duct.mpg,duct,3,AV,Pink_Noise_3_1.wav,Pink_Noise_3_2.wav,,,,,,,,,,,,,,,0,114,114,71,,,,,,,,,,,,,,,,,,,,,,,734.6541274627671,None,736.1703961268067,None,737.5372658288106,None,duct,737.5372658288106,None,return,0.757151797413826,737.6206742366776,None,,,,,,,,,,,,,,,,,,,,,,,,,,,,,,,,,174,001,2024_Mar_04_1209,SpeechDraft1Carolyn_lessNoise_PlusLocalization,2021.2.3,59.902995962019176,
bass.wav,bass.mpg,bass,4,AV,Pink_Noise_4_1.wav,Pink_Noise_4_2.wav,,,,,,,,,,,,,,,0,115,115,113,,,,,,,,,,,,,,,,,,,,,,,738.4039489598945,None,739.9204116500914,None,741.3042046483606,None,base,741.3042046483606,None,return,0.7103705387562513,741.3874309947714,None,,,,,,,,,,,,,,,,,,,,,,,,,,,,,,,,,174,001,2024_Mar_04_1209,SpeechDraft1Carolyn_lessNoise_PlusLocalization,2021.2.3,59.902995962019176,
deem.wav,deem.mpg,deem,1,A,Pink_Noise_1_1.wav,Pink_Noise_1_2.wav,,,,,,,,,,,,,,,0,116,116,9,,,,,,,,,,,,,,,,,,,,,,,742.120663722977,None,743.6538163963705,None,745.0372641226277,None,dean,745.0372641226277,None,return,2.2251997170969844,745.1206172024831,None,,,,,,,,,,,,,,,,,,,,,,,,,,,,,,,,,174,001,2024_Mar_04_1209,SpeechDraft1Carolyn_lessNoise_PlusLocalization,2021.2.3,59.902995962019176,
crowd.wav,crowd.mpg,crowd,6,AV,Pink_Noise_6_1.wav,Pink_Noise_6_2.wav,,,,,,,,,,,,,,,0,117,117,75,,,,,,,,,,,,,,,,,,,,,,,747.3705237032846,None,748.8871507747099,None,750.270623725839,None,crown,750.270623725839,None,return,0.8799404371529818,750.3539425162598,None,,,,,,,,,,,,,,,,,,,,,,,,,,,,,,,,,174,001,2024_Mar_04_1209,SpeechDraft1Carolyn_lessNoise_PlusLocalization,2021.2.3,59.902995962019176,
globe.wav,globe.mpg,globe,6,A,Pink_Noise_6_1.wav,Pink_Noise_6_2.wav,,,,,,,,,,,,,,,0,118,118,24,,,,,,,,,,,,,,,,,,,,,,,751.253912971355,None,752.7704846290872,None,754.1540574897081,None,build,754.1540574897081,None,return,2.2284844778478146,754.2373008076102,None,,,,,,,,,,,,,,,,,,,,,,,,,,,,,,,,,174,001,2024_Mar_04_1209,SpeechDraft1Carolyn_lessNoise_PlusLocalization,2021.2.3,59.902995962019176,
chunk.wav,chunk.mpg,chunk,5,AV,Pink_Noise_5_1.wav,Pink_Noise_5_2.wav,,,,,,,,,,,,,,,0,119,119,86,,,,,,,,,,,,,,,,,,,,,,,756.4874639874324,None,758.0537326866761,None,759.437237676233,None,chuckle,759.437237676233,None,return,1.241103857755661,759.520669308491,None,,,,,,,,,,,,,,,,,,,,,,,,,,,,,,,,,174,001,2024_Mar_04_1209,SpeechDraft1Carolyn_lessNoise_PlusLocalization,2021.2.3,59.902995962019176,
,,,,,,,,,,,,,,,,,,,,,,,,,,,,,,,,,,,,,,,,,,,,,,,,,,,,,,,,,,,,,,,,,,space,25.49028994422406,760.8875126810744,None,,,,,,,,,,,,,,,,,,,,,,,174,001,2024_Mar_04_1209,SpeechDraft1Carolyn_lessNoise_PlusLocalization,2021.2.3,59.902995962019176,
,,,,,,,,midLeft,-13.0,2,ch1Sound_localizationTask.wav,-13.0,"(762, 878)","(-198,-202)",-190,-338,,,,,,,,,0,0,0,1,,,,,,,,,,,,,,,,,,,,,,,,,,,,,,,,,,,,,,,,,,760.8875126810744,None,786.4205871988088,None,787.5377547815442,None,788.4706639368087,None,1.1333333333333333,2.9278913401067257,788.4706639368087,None,,,,,,,,,,,174,001,2024_Mar_04_1209,SpeechDraft1Carolyn_lessNoise_PlusLocalization,2021.2.3,59.902995962019176,
,,,,,,,,nearLeft,-6.5,1,ch1Sound_localizationTask.wav,-6.5,"(857, 878)","(-103,-202)",-95,-338,,,,,,,,,0,1,1,2,,,,,,,,,,,,,,,,,,,,,,,,,,,,,,,,,,,,,,,,,,,,791.3885018983856,None,792.4871876453981,None,793.4205628689378,None,1.102116402116402,0.7668476346880198,793.4205628689378,None,,,,,,,,,,,174,001,2024_Mar_04_1209,SpeechDraft1Carolyn_lessNoise_PlusLocalization,2021.2.3,59.902995962019176,
,,,,,,,,midLeft,-13.0,2,ch1Sound_localizationTask.wav,-13.0,"(762, 878)","(-198,-202)",-190,-338,,,,,,,,,0,2,2,1,,,,,,,,,,,,,,,,,,,,,,,,,,,,,,,,,,,,,,,,,,,,794.2042749049142,None,795.3038449659944,None,796.2371734743938,None,1.144973544973545,0.567033370025456,796.2371734743938,None,,,,,,,,,,,174,001,2024_Mar_04_1209,SpeechDraft1Carolyn_lessNoise_PlusLocalization,2021.2.3,59.902995962019176,
,,,,,,,,farLeft,-19.1,5,ch1Sound_localizationTask.wav,-19.1,"(667, 878)","(-293,-202)",-285,-338,,,,,,,,,0,3,3,0,,,,,,,,,,,,,,,,,,,,,,,,,,,,,,,,,,,,,,,,,,,,796.8207473568618,None,797.9205553811044,None,798.8537381123751,None,1,1.7169870985671878,798.8537381123751,None,,,,,,,,,,,174,001,2024_Mar_04_1209,SpeechDraft1Carolyn_lessNoise_PlusLocalization,2021.2.3,59.902995962019176,
,,,,,,,,farLeft,-19.1,5,ch1Sound_localizationTask.wav,-19.1,"(667, 878)","(-293,-202)",-285,-338,,,,,,,,,0,4,4,0,,,,,,,,,,,,,,,,,,,,,,,,,,,,,,,,,,,,,,,,,,,,800.587752702646,None,801.6871482860297,None,802.6205277545378,None,1.3656084656084655,1.2657789252698421,802.6205277545378,None,,,,,,,,,,,174,001,2024_Mar_04_1209,SpeechDraft1Carolyn_lessNoise_PlusLocalization,2021.2.3,59.902995962019176,
,,,,,,,,farLeft,-19.1,5,ch1Sound_localizationTask.wav,-19.1,"(667, 878)","(-293,-202)",-285,-338,,,,,,,,,0,5,5,0,,,,,,,,,,,,,,,,,,,,,,,,,,,,,,,,,,,,,,,,,,,,803.8875792808831,None,804.9872476998717,None,805.9204291375354,None,1.3322751322751323,0.5324798580259085,805.9204291375354,None,,,,,,,,,,,174,001,2024_Mar_04_1209,SpeechDraft1Carolyn_lessNoise_PlusLocalization,2021.2.3,59.902995962019176,
,,,,,,,,farRight,19.1,4,ch1Sound_localizationTask.wav,19.1,"(1237, 878)","(277,-202)",285,-338,,,,,,,,,0,6,6,6,,,,,,,,,,,,,,,,,,,,,,,,,,,,,,,,,,,,,,,,,,,,806.4541176026687,None,807.55374885723,None,808.4871496139094,None,1.8534391534391534,0.8503804877400398,808.4871496139094,None,,,,,,,,,,,174,001,2024_Mar_04_1209,SpeechDraft1Carolyn_lessNoise_PlusLocalization,2021.2.3,59.902995962019176,
,,,,,,,,farRight,19.1,4,ch1Sound_localizationTask.wav,19.1,"(1237, 878)","(277,-202)",285,-338,,,,,,,,,1,0,7,6,,,,,,,,,,,,,,,,,,,,,,,,,,,,,,,,,,,,,,,,,,,,809.3379882024601,None,810.4372610654682,None,811.3707141764462,None,1.637037037037037,0.49882027693092823,811.3707141764462,None,,,,,,,,,,,174,001,2024_Mar_04_1209,SpeechDraft1Carolyn_lessNoise_PlusLocalization,2021.2.3,59.902995962019176,
,,,,,,,,midRight,13.0,3,ch1Sound_localizationTask.wav,13.0,"(1142, 878)","(182, -202)",190,-338,,,,,,,,,1,1,8,5,,,,,,,,,,,,,,,,,,,,,,,,,,,,,,,,,,,,,,,,,,,,811.8710515713319,None,812.9705782933161,None,813.9037992721424,None,1.580952380952381,0.38269537687301636,813.9037992721424,None,,,,,,,,,,,174,001,2024_Mar_04_1209,SpeechDraft1Carolyn_lessNoise_PlusLocalization,2021.2.3,59.902995962019176,
,,,,,,,,midLeft,-13.0,2,ch1Sound_localizationTask.wav,-13.0,"(762, 878)","(-198,-202)",-190,-338,,,,,,,,,1,2,9,1,,,,,,,,,,,,,,,,,,,,,,,,,,,,,,,,,,,,,,,,,,,,814.2875649509951,None,815.3873117920011,None,816.3205348392949,None,1.3518518518518519,0.683762576431036,816.3205348392949,None,,,,,,,,,,,174,001,2024_Mar_04_1209,SpeechDraft1Carolyn_lessNoise_PlusLocalization,2021.2.3,59.902995962019176,
,,,,,,,,center,0.0,6,ch1Sound_localizationTask.wav,0.0,"(952, 878)","(-8,-202)",0,-338,,,,,,,,,1,3,10,3,,,,,,,,,,,,,,,,,,,,,,,,,,,,,,,,,,,,,,,,,,,,817.0047712391242,None,818.1039929613471,None,819.0372016634792,None,1.5010582010582012,0.6158722750842571,819.0372016634792,None,,,,,,,,,,,174,001,2024_Mar_04_1209,SpeechDraft1Carolyn_lessNoise_PlusLocalization,2021.2.3,59.902995962019176,
,,,,,,,,farLeft,-19.1,5,ch1Sound_localizationTask.wav,-19.1,"(667, 878)","(-293,-202)",-285,-338,,,,,,,,,1,4,11,0,,,,,,,,,,,,,,,,,,,,,,,,,,,,,,,,,,,,,,,,,,,,819.6542672310024,None,820.7537547545508,None,821.6871057609096,None,1.2677248677248678,0.23260280676186085,821.6871057609096,None,,,,,,,,,,,174,001,2024_Mar_04_1209,SpeechDraft1Carolyn_lessNoise_PlusLocalization,2021.2.3,59.902995962019176,
,,,,,,,,farLeft,-19.1,5,ch1Sound_localizationTask.wav,-19.1,"(667, 878)","(-293,-202)",-285,-338,,,,,,,,,1,5,12,0,,,,,,,,,,,,,,,,,,,,,,,,,,,,,,,,,,,,,,,,,,,,821.9208675250411,None,823.0206525987014,None,823.9539526933804,None,1.328042328042328,0.1329423449933529,823.9539526933804,None,,,,,,,,,,,174,001,2024_Mar_04_1209,SpeechDraft1Carolyn_lessNoise_PlusLocalization,2021.2.3,59.902995962019176,
,,,,,,,,midRight,13.0,3,ch1Sound_localizationTask.wav,13.0,"(1142, 878)","(182, -202)",190,-338,,,,,,,,,1,6,13,5,,,,,,,,,,,,,,,,,,,,,,,,,,,,,,,,,,,,,,,,,,,,824.0877630552277,None,825.1871606484056,None,826.1205041445792,None,1.6962962962962962,0.683924525976181,826.1205041445792,None,,,,,,,,,,,174,001,2024_Mar_04_1209,SpeechDraft1Carolyn_lessNoise_PlusLocalization,2021.2.3,59.902995962019176,
,,,,,,,,center,0.0,6,ch1Sound_localizationTask.wav,0.0,"(952, 878)","(-8,-202)",0,-338,,,,,,,,,2,0,14,3,,,,,,,,,,,,,,,,,,,,,,,,,,,,,,,,,,,,,,,,,,,,826.820724060759,None,827.9204872921109,None,828.8540337029845,None,1.446031746031746,0.5161315659061074,828.8540337029845,None,,,,,,,,,,,174,001,2024_Mar_04_1209,SpeechDraft1Carolyn_lessNoise_PlusLocalization,2021.2.3,59.902995962019176,
,,,,,,,,midRight,13.0,3,ch1Sound_localizationTask.wav,13.0,"(1142, 878)","(182, -202)",190,-338,,,,,,,,,2,1,15,5,,,,,,,,,,,,,,,,,,,,,,,,,,,,,,,,,,,,,,,,,,,,829.3708405746147,None,830.4706027004868,None,831.4038594709709,None,1.6470899470899472,0.28193808905780315,831.4038594709709,None,,,,,,,,,,,174,001,2024_Mar_04_1209,SpeechDraft1Carolyn_lessNoise_PlusLocalization,2021.2.3,59.902995962019176,
,,,,,,,,center,0.0,6,ch1Sound_localizationTask.wav,0.0,"(952, 878)","(-8,-202)",0,-338,,,,,,,,,2,2,16,3,,,,,,,,,,,,,,,,,,,,,,,,,,,,,,,,,,,,,,,,,,,,831.6878207316622,None,832.7871597139165,None,833.7205314682797,None,1.4952380952380953,0.6826585279777646,833.7205314682797,None,,,,,,,,,,,174,001,2024_Mar_04_1209,SpeechDraft1Carolyn_lessNoise_PlusLocalization,2021.2.3,59.902995962019176,
,,,,,,,,nearLeft,-6.5,1,ch1Sound_localizationTask.wav,-6.5,"(857, 878)","(-103,-202)",-95,-338,,,,,,,,,2,3,17,2,,,,,,,,,,,,,,,,,,,,,,,,,,,,,,,,,,,,,,,,,,,,834.4040920073166,None,835.5037992205471,None,836.4373322268948,None,1.4687830687830687,0.31516530737280846,836.4373322268948,None,,,,,,,,,,,174,001,2024_Mar_04_1209,SpeechDraft1Carolyn_lessNoise_PlusLocalization,2021.2.3,59.902995962019176,
,,,,,,,,nearLeft,-6.5,1,ch1Sound_localizationTask.wav,-6.5,"(857, 878)","(-103,-202)",-95,-338,,,,,,,,,2,4,18,2,,,,,,,,,,,,,,,,,,,,,,,,,,,,,,,,,,,,,,,,,,,,836.7542728735134,None,837.8539025159553,None,838.7872059736401,None,1.4804232804232804,0.4509385898709297,838.7872059736401,None,,,,,,,,,,,174,001,2024_Mar_04_1209,SpeechDraft1Carolyn_lessNoise_PlusLocalization,2021.2.3,59.902995962019176,
,,,,,,,,center,0.0,6,ch1Sound_localizationTask.wav,0.0,"(952, 878)","(-8,-202)",0,-338,,,,,,,,,2,5,19,3,,,,,,,,,,,,,,,,,,,,,,,,,,,,,,,,,,,,,,,,,,,,839.2381657874212,None,840.3371109627187,None,841.2706120498478,None,1.482010582010582,0.25045684166252613,841.2706120498478,None,,,,,,,,,,,174,001,2024_Mar_04_1209,SpeechDraft1Carolyn_lessNoise_PlusLocalization,2021.2.3,59.902995962019176,
,,,,,,,,midLeft,-13.0,2,ch1Sound_localizationTask.wav,-13.0,"(762, 878)","(-198,-202)",-190,-338,,,,,,,,,2,6,20,1,,,,,,,,,,,,,,,,,,,,,,,,,,,,,,,,,,,,,,,,,,,,841.5374510362744,None,842.6371760535985,None,843.5705648940057,None,1.3571428571428572,0.40078961942344904,843.5705648940057,None,,,,,,,,,,,174,001,2024_Mar_04_1209,SpeechDraft1Carolyn_lessNoise_PlusLocalization,2021.2.3,59.902995962019176,
,,,,,,,,farLeft,-19.1,5,ch1Sound_localizationTask.wav,-19.1,"(667, 878)","(-293,-202)",-285,-338,,,,,,,,,3,0,21,0,,,,,,,,,,,,,,,,,,,,,,,,,,,,,,,,,,,,,,,,,,,,843.9875835515559,None,845.0874435137957,None,846.0204682117328,None,1.1592592592592592,0.549638569355011,846.0204682117328,None,,,,,,,,,,,174,001,2024_Mar_04_1209,SpeechDraft1Carolyn_lessNoise_PlusLocalization,2021.2.3,59.902995962019176,
,,,,,,,,farRight,19.1,4,ch1Sound_localizationTask.wav,19.1,"(1237, 878)","(277,-202)",285,-338,,,,,,,,,3,1,22,6,,,,,,,,,,,,,,,,,,,,,,,,,,,,,,,,,,,,,,,,,,,,846.5717882737517,None,847.6874141730368,None,848.6039249673486,None,1.7523809523809524,0.650001922622323,848.6039249673486,None,,,,,,,,,,,174,001,2024_Mar_04_1209,SpeechDraft1Carolyn_lessNoise_PlusLocalization,2021.2.3,59.902995962019176,
,,,,,,,,nearLeft,-6.5,1,ch1Sound_localizationTask.wav,-6.5,"(857, 878)","(-103,-202)",-95,-338,,,,,,,,,3,2,23,2,,,,,,,,,,,,,,,,,,,,,,,,,,,,,,,,,,,,,,,,,,,,849.2708804672584,None,850.3705236297101,None,851.3038398064673,None,1.3735449735449734,0.5490875709801912,851.3038398064673,None,,,,,,,,,,,174,001,2024_Mar_04_1209,SpeechDraft1Carolyn_lessNoise_PlusLocalization,2021.2.3,59.902995962019176,
,,,,,,,,nearRight,6.5,0,ch1Sound_localizationTask.wav,6.5,"(1047, 878)","(87, -202)",95,-338,,,,,,,,,3,3,24,4,,,,,,,,,,,,,,,,,,,,,,,,,,,,,,,,,,,,,,,,,,,,851.8548642629758,None,852.9537830809131,None,853.8871779069304,None,1.5904761904761906,0.5833460092544556,853.8871779069304,None,,,,,,,,,,,174,001,2024_Mar_04_1209,SpeechDraft1Carolyn_lessNoise_PlusLocalization,2021.2.3,59.902995962019176,
,,,,,,,,center,0.0,6,ch1Sound_localizationTask.wav,0.0,"(952, 878)","(-8,-202)",0,-338,,,,,,,,,3,4,25,3,,,,,,,,,,,,,,,,,,,,,,,,,,,,,,,,,,,,,,,,,,,,854.4876178940758,None,855.5873888656497,None,856.5204889597371,None,1.4962962962962962,0.49985034577548504,856.5204889597371,None,,,,,,,,,,,174,001,2024_Mar_04_1209,SpeechDraft1Carolyn_lessNoise_PlusLocalization,2021.2.3,59.902995962019176,
,,,,,,,,farRight,19.1,4,ch1Sound_localizationTask.wav,19.1,"(1237, 878)","(277,-202)",285,-338,,,,,,,,,3,5,26,6,,,,,,,,,,,,,,,,,,,,,,,,,,,,,,,,,,,,,,,,,,,,857.0207937527448,None,858.1206474890932,None,859.0540173631161,None,1.8116402116402117,0.5669678468257189,859.0540173631161,None,,,,,,,,,,,174,001,2024_Mar_04_1209,SpeechDraft1Carolyn_lessNoise_PlusLocalization,2021.2.3,59.902995962019176,
,,,,,,,,farRight,19.1,4,ch1Sound_localizationTask.wav,19.1,"(1237, 878)","(277,-202)",285,-338,,,,,,,,,3,6,27,6,,,,,,,,,,,,,,,,,,,,,,,,,,,,,,,,,,,,,,,,,,,,859.6375139448792,None,860.7372944280505,None,861.6704898597673,None,1.8582010582010582,0.6155935153365135,861.6704898597673,None,,,,,,,,,,,174,001,2024_Mar_04_1209,SpeechDraft1Carolyn_lessNoise_PlusLocalization,2021.2.3,59.902995962019176,
,,,,,,,,nearRight,6.5,0,ch1Sound_localizationTask.wav,6.5,"(1047, 878)","(87, -202)",95,-338,,,,,,,,,4,0,28,4,,,,,,,,,,,,,,,,,,,,,,,,,,,,,,,,,,,,,,,,,,,,862.2874840646982,None,863.3872741032392,None,864.3204695675522,None,1.505820105820106,0.6014953991398215,864.3204695675522,None,,,,,,,,,,,174,001,2024_Mar_04_1209,SpeechDraft1Carolyn_lessNoise_PlusLocalization,2021.2.3,59.902995962019176,
,,,,,,,,nearLeft,-6.5,1,ch1Sound_localizationTask.wav,-6.5,"(857, 878)","(-103,-202)",-95,-338,,,,,,,,,4,1,29,2,,,,,,,,,,,,,,,,,,,,,,,,,,,,,,,,,,,,,,,,,,,,864.9374465029687,None,866.0372634083033,None,866.9706230163574,None,1.4095238095238094,0.6330369040369987,866.9706230163574,None,,,,,,,,,,,174,001,2024_Mar_04_1209,SpeechDraft1Carolyn_lessNoise_PlusLocalization,2021.2.3,59.902995962019176,
,,,,,,,,farRight,19.1,4,ch1Sound_localizationTask.wav,19.1,"(1237, 878)","(277,-202)",285,-338,,,,,,,,,4,2,30,6,,,,,,,,,,,,,,,,,,,,,,,,,,,,,,,,,,,,,,,,,,,,867.6050042388961,None,868.703887835145,None,869.6374313589185,None,1.7417989417989417,0.5163655895739794,869.6374313589185,None,,,,,,,,,,,174,001,2024_Mar_04_1209,SpeechDraft1Carolyn_lessNoise_PlusLocalization,2021.2.3,59.902995962019176,
,,,,,,,,center,0.0,6,ch1Sound_localizationTask.wav,0.0,"(952, 878)","(-8,-202)",0,-338,,,,,,,,,4,3,31,3,,,,,,,,,,,,,,,,,,,,,,,,,,,,,,,,,,,,,,,,,,,,870.1542564984411,None,871.2539013605565,None,872.1872739633545,None,1.2846560846560846,0.4162095207720995,872.1872739633545,None,,,,,,,,,,,174,001,2024_Mar_04_1209,SpeechDraft1Carolyn_lessNoise_PlusLocalization,2021.2.3,59.902995962019176,
,,,,,,,,midLeft,-13.0,2,ch1Sound_localizationTask.wav,-13.0,"(762, 878)","(-198,-202)",-190,-338,,,,,,,,,4,4,32,1,,,,,,,,,,,,,,,,,,,,,,,,,,,,,,,,,,,,,,,,,,,,872.6046741977334,None,873.7038613799959,None,874.6372740454972,None,1.025925925925926,0.48186390195041895,874.6372740454972,None,,,,,,,,,,,174,001,2024_Mar_04_1209,SpeechDraft1Carolyn_lessNoise_PlusLocalization,2021.2.3,59.902995962019176,
,,,,,,,,farLeft,-19.1,5,ch1Sound_localizationTask.wav,-19.1,"(667, 878)","(-293,-202)",-285,-338,,,,,,,,,4,5,33,0,,,,,,,,,,,,,,,,,,,,,,,,,,,,,,,,,,,,,,,,,,,,875.1209809444845,None,876.2206846550107,None,877.154024394229,None,1,0.416879640892148,877.154024394229,None,,,,,,,,,,,174,001,2024_Mar_04_1209,SpeechDraft1Carolyn_lessNoise_PlusLocalization,2021.2.3,59.902995962019176,
,,,,,,,,nearLeft,-6.5,1,ch1Sound_localizationTask.wav,-6.5,"(857, 878)","(-103,-202)",-95,-338,,,,,,,,,4,6,34,2,,,,,,,,,,,,,,,,,,,,,,,,,,,,,,,,,,,,,,,,,,,,877.5711550544947,None,878.6706522023305,None,879.603829562664,None,1.483068783068783,0.950458899140358,879.603829562664,None,,,,,,,,,,,174,001,2024_Mar_04_1209,SpeechDraft1Carolyn_lessNoise_PlusLocalization,2021.2.3,59.902995962019176,
,,,,,,,,farLeft,-19.1,5,ch1Sound_localizationTask.wav,-19.1,"(667, 878)","(-293,-202)",-285,-338,,,,,,,,,5,0,35,0,,,,,,,,,,,,,,,,,,,,,,,,,,,,,,,,,,,,,,,,,,,,880.5544060617685,None,881.653924299404,None,882.5871897563338,None,1.204232804232804,0.33472850266844034,882.5871897563338,None,,,,,,,,,,,174,001,2024_Mar_04_1209,SpeechDraft1Carolyn_lessNoise_PlusLocalization,2021.2.3,59.902995962019176,
,,,,,,,,farRight,19.1,4,ch1Sound_localizationTask.wav,19.1,"(1237, 878)","(277,-202)",285,-338,,,,,,,,,5,1,36,6,,,,,,,,,,,,,,,,,,,,,,,,,,,,,,,,,,,,,,,,,,,,882.9375455519184,None,884.0372522789985,None,884.9706085436046,None,1.8529100529100528,0.7507022880017757,884.9706085436046,None,,,,,,,,,,,174,001,2024_Mar_04_1209,SpeechDraft1Carolyn_lessNoise_PlusLocalization,2021.2.3,59.902995962019176,
,,,,,,,,midRight,13.0,3,ch1Sound_localizationTask.wav,13.0,"(1142, 878)","(182, -202)",190,-338,,,,,,,,,5,2,37,5,,,,,,,,,,,,,,,,,,,,,,,,,,,,,,,,,,,,,,,,,,,,885.7375822374597,None,886.8373491084203,None,887.7707872726023,None,1.5142857142857142,0.6987528260797262,887.7707872726023,None,,,,,,,,,,,174,001,2024_Mar_04_1209,SpeechDraft1Carolyn_lessNoise_PlusLocalization,2021.2.3,59.902995962019176,
,,,,,,,,nearRight,6.5,0,ch1Sound_localizationTask.wav,6.5,"(1047, 878)","(87, -202)",95,-338,,,,,,,,,5,3,38,4,,,,,,,,,,,,,,,,,,,,,,,,,,,,,,,,,,,,,,,,,,,,888.4709794986993,None,889.5704744216055,None,890.503892778419,None,1.517989417989418,0.5164747461676598,890.503892778419,None,,,,,,,,,,,174,001,2024_Mar_04_1209,SpeechDraft1Carolyn_lessNoise_PlusLocalization,2021.2.3,59.902995962019176,
,,,,,,,,midRight,13.0,3,ch1Sound_localizationTask.wav,13.0,"(1142, 878)","(182, -202)",190,-338,,,,,,,,,5,4,39,5,,,,,,,,,,,,,,,,,,,,,,,,,,,,,,,,,,,,,,,,,,,,891.0209362506866,None,892.1206379998475,None,893.0539922229946,None,1.6322751322751323,0.3832221133634448,893.0539922229946,None,,,,,,,,,,,174,001,2024_Mar_04_1209,SpeechDraft1Carolyn_lessNoise_PlusLocalization,2021.2.3,59.902995962019176,
,,,,,,,,nearLeft,-6.5,1,ch1Sound_localizationTask.wav,-6.5,"(857, 878)","(-103,-202)",-95,-338,,,,,,,,,5,5,40,2,,,,,,,,,,,,,,,,,,,,,,,,,,,,,,,,,,,,,,,,,,,,893.4376044915989,None,894.5372940367088,None,895.4706786433235,None,1.4328042328042327,0.36702231876552105,895.4706786433235,None,,,,,,,,,,,174,001,2024_Mar_04_1209,SpeechDraft1Carolyn_lessNoise_PlusLocalization,2021.2.3,59.902995962019176,
,,,,,,,,nearRight,6.5,0,ch1Sound_localizationTask.wav,6.5,"(1047, 878)","(87, -202)",95,-338,,,,,,,,,5,6,41,4,,,,,,,,,,,,,,,,,,,,,,,,,,,,,,,,,,,,,,,,,,,,895.8542757593095,None,896.9539924664423,None,897.8871562611312,None,1.4978835978835978,0.8503340696915984,897.8871562611312,None,,,,,,,,,,,174,001,2024_Mar_04_1209,SpeechDraft1Carolyn_lessNoise_PlusLocalization,2021.2.3,59.902995962019176,
,,,,,,,,nearRight,6.5,0,ch1Sound_localizationTask.wav,6.5,"(1047, 878)","(87, -202)",95,-338,,,,,,,,,6,0,42,4,,,,,,,,,,,,,,,,,,,,,,,,,,,,,,,,,,,,,,,,,,,,898.7541954154149,None,899.8541012993082,None,900.7872681589797,None,1.5047619047619047,0.3667377941310406,900.7872681589797,None,,,,,,,,,,,174,001,2024_Mar_04_1209,SpeechDraft1Carolyn_lessNoise_PlusLocalization,2021.2.3,59.902995962019176,
,,,,,,,,center,0.0,6,ch1Sound_localizationTask.wav,0.0,"(952, 878)","(-8,-202)",0,-338,,,,,,,,,6,1,43,3,,,,,,,,,,,,,,,,,,,,,,,,,,,,,,,,,,,,,,,,,,,,901.1545248888433,None,902.2539630206302,None,903.1872506802902,None,1.464021164021164,0.36605500895529985,903.1872506802902,None,,,,,,,,,,,174,001,2024_Mar_04_1209,SpeechDraft1Carolyn_lessNoise_PlusLocalization,2021.2.3,59.902995962019176,
,,,,,,,,nearRight,6.5,0,ch1Sound_localizationTask.wav,6.5,"(1047, 878)","(87, -202)",95,-338,,,,,,,,,6,2,44,4,,,,,,,,,,,,,,,,,,,,,,,,,,,,,,,,,,,,,,,,,,,,903.5543709974736,None,904.6539976894855,None,905.5873655723408,None,1.48994708994709,0.34888568334281445,905.5873655723408,None,,,,,,,,,,,174,001,2024_Mar_04_1209,SpeechDraft1Carolyn_lessNoise_PlusLocalization,2021.2.3,59.902995962019176,
,,,,,,,,midRight,13.0,3,ch1Sound_localizationTask.wav,13.0,"(1142, 878)","(182, -202)",190,-338,,,,,,,,,6,3,45,5,,,,,,,,,,,,,,,,,,,,,,,,,,,,,,,,,,,,,,,,,,,,905.9376255664974,None,907.0373718496412,None,907.970622908324,None,1.5492063492063493,0.19979451410472393,907.970622908324,None,,,,,,,,,,,174,001,2024_Mar_04_1209,SpeechDraft1Carolyn_lessNoise_PlusLocalization,2021.2.3,59.902995962019176,
,,,,,,,,midLeft,-13.0,2,ch1Sound_localizationTask.wav,-13.0,"(762, 878)","(-198,-202)",-190,-338,,,,,,,,,6,4,46,1,,,,,,,,,,,,,,,,,,,,,,,,,,,,,,,,,,,,,,,,,,,,908.1710862088948,None,909.2706265570596,None,910.2039976781234,None,1.1576719576719576,0.31734178960323334,910.2039976781234,None,,,,,,,,,,,174,001,2024_Mar_04_1209,SpeechDraft1Carolyn_lessNoise_PlusLocalization,2021.2.3,59.902995962019176,
,,,,,,,,nearRight,6.5,0,ch1Sound_localizationTask.wav,6.5,"(1047, 878)","(87, -202)",95,-338,,,,,,,,,6,5,47,4,,,,,,,,,,,,,,,,,,,,,,,,,,,,,,,,,,,,,,,,,,,,910.5376378502697,None,911.6373454192653,None,912.5707218647003,None,1.4772486772486773,0.5175197180360556,912.5707218647003,None,,,,,,,,,,,174,001,2024_Mar_04_1209,SpeechDraft1Carolyn_lessNoise_PlusLocalization,2021.2.3,59.902995962019176,
,,,,,,,,center,0.0,6,ch1Sound_localizationTask.wav,0.0,"(952, 878)","(-8,-202)",0,-338,,,,,,,,,6,6,48,3,,,,,,,,,,,,,,,,,,,,,,,,,,,,,,,,,,,,,,,,,,,,913.1042687287554,None,914.2040962232277,None,915.1372921923175,None,1.4730158730158731,0.6162908561527729,915.1372921923175,None,,,,,,,,,,,174,001,2024_Mar_04_1209,SpeechDraft1Carolyn_lessNoise_PlusLocalization,2021.2.3,59.902995962019176,
,,,,,,,,midRight,13.0,3,ch1Sound_localizationTask.wav,13.0,"(1142, 878)","(182, -202)",190,-338,,,,,,,,,7,0,49,5,,,,,,,,,,,,,,,,,,,,,,,,,,,,,,,,,,,,,,,,,,,,915.7542617348954,None,916.8538993820548,None,917.7872417131439,None,1.67989417989418,0.38289819564670324,917.7872417131439,None,,,,,,,,,,,174,001,2024_Mar_04_1209,SpeechDraft1Carolyn_lessNoise_PlusLocalization,2021.2.3,59.902995962019176,
,,,,,,,,midLeft,-13.0,2,ch1Sound_localizationTask.wav,-13.0,"(762, 878)","(-198,-202)",-190,-338,,,,,,,,,7,1,50,1,,,,,,,,,,,,,,,,,,,,,,,,,,,,,,,,,,,,,,,,,,,,918.1709101339802,None,919.2705923235044,None,920.2039525443688,None,1.2116402116402116,3.5160723496228456,920.2039525443688,None,,,,,,,,,,,174,001,2024_Mar_04_1209,SpeechDraft1Carolyn_lessNoise_PlusLocalization,2021.2.3,59.902995962019176,
,,,,,,,,midLeft,-13.0,2,ch1Sound_localizationTask.wav,-13.0,"(762, 878)","(-198,-202)",-190,-338,,,,,,,,,7,2,51,1,,,,,,,,,,,,,,,,,,,,,,,,,,,,,,,,,,,,,,,,,,,,923.7212995709851,None,924.8205569814891,None,925.7539489706978,None,1.2661375661375662,0.7660864302888513,925.7539489706978,None,,,,,,,,,,,174,001,2024_Mar_04_1209,SpeechDraft1Carolyn_lessNoise_PlusLocalization,2021.2.3,59.902995962019176,
,,,,,,,,midRight,13.0,3,ch1Sound_localizationTask.wav,13.0,"(1142, 878)","(182, -202)",190,-338,,,,,,,,,7,3,52,5,,,,,,,,,,,,,,,,,,,,,,,,,,,,,,,,,,,,,,,,,,,,926.5209301738068,None,927.6206993320957,None,928.5539524052292,None,1.6634920634920634,0.8340176846832037,928.5539524052292,None,,,,,,,,,,,174,001,2024_Mar_04_1209,SpeechDraft1Carolyn_lessNoise_PlusLocalization,2021.2.3,59.902995962019176,
,,,,,,,,nearRight,6.5,0,ch1Sound_localizationTask.wav,6.5,"(1047, 878)","(87, -202)",95,-338,,,,,,,,,7,4,53,4,,,,,,,,,,,,,,,,,,,,,,,,,,,,,,,,,,,,,,,,,,,,929.4044421482831,None,930.5040744524449,None,931.4374023107812,None,1.5037037037037035,0.815222735516727,931.4374023107812,None,,,,,,,,,,,174,001,2024_Mar_04_1209,SpeechDraft1Carolyn_lessNoise_PlusLocalization,2021.2.3,59.902995962019176,
,,,,,,,,nearLeft,-6.5,1,ch1Sound_localizationTask.wav,-6.5,"(857, 878)","(-103,-202)",-95,-338,,,,,,,,,7,5,54,2,,,,,,,,,,,,,,,,,,,,,,,,,,,,,,,,,,,,,,,,,,,,932.2544269086793,None,933.3540002480149,None,934.2875229027122,None,1.425925925925926,0.6502230390906334,934.2875229027122,None,,,,,,,,,,,174,001,2024_Mar_04_1209,SpeechDraft1Carolyn_lessNoise_PlusLocalization,2021.2.3,59.902995962019176,
,,,,,,,,farRight,19.1,4,ch1Sound_localizationTask.wav,19.1,"(1237, 878)","(277,-202)",285,-338,,,,,,,,,7,6,55,6,,,,,,,,,,,,,,,,,,,,,,,,,,,,,,,,,,,,,,,,,,,,934.9546637898311,None,936.053912801668,None,936.9872792391106,None,1.7772486772486773,0.732664461247623,936.9872792391106,None,,,,,,,,,,,174,001,2024_Mar_04_1209,SpeechDraft1Carolyn_lessNoise_PlusLocalization,2021.2.3,59.902995962019176,
,,,,,,,,,,,,,,,,,,,,,,,,,,,,,,,,,,,,,,,,,,,,,,,,,,,,,,,,,,,,,,,,,,,,,,,,,,,,,,,,,,space,11.733546135947108,937.8042392274365,None,,,,,,,174,001,2024_Mar_04_1209,SpeechDraft1Carolyn_lessNoise_PlusLocalization,2021.2.3,59.902995962019176,
,,,,,,,,midLeft,-13.0,2,ch1Sound_localizationTask.wav,-13.0,"(762, 878)","(-198,-202)",-190,-338,,,,,,,,,,,,,0,0,0,1,,,,,,,,,,,,,,,,,,,,,,,,,,,,,,,,,,,,,,,,949.5873225247487,None,,,952.6206928221509,None,1.3693121693121693,1.0543762287124991,952.6206928221509,None,,,,,937.8042392274365,None,950.5878392225131,None,950.771028297022,950.7878008941188,174,001,2024_Mar_04_1209,SpeechDraft1Carolyn_lessNoise_PlusLocalization,2021.2.3,59.902995962019176,
,,,,,,,,midRight,13.0,3,ch1Sound_localizationTask.wav,13.0,"(1142, 878)","(182, -202)",190,-338,,,,,,,,,,,,,0,1,1,5,,,,,,,,,,,,,,,,,,,,,,,,,,,,,,,,,,,,,,,,953.6877217004076,None,,,956.7040550038218,None,1.619047619047619,0.8149520037695765,956.7040550038218,None,,,,,,,954.6876342939213,None,954.8709648977965,954.8876963844523,174,001,2024_Mar_04_1209,SpeechDraft1Carolyn_lessNoise_PlusLocalization,2021.2.3,59.902995962019176,
,,,,,,,,midRight,13.0,3,ch1Sound_localizationTask.wav,13.0,"(1142, 878)","(182, -202)",190,-338,,,,,,,,,,,,,0,2,2,5,,,,,,,,,,,,,,,,,,,,,,,,,,,,,,,,,,,,,,,,957.5210102684796,None,,,960.5374940568581,None,1.5920634920634922,0.6157335974276066,960.5374940568581,None,,,,,,,958.5209892792627,None,958.7042333139107,958.7209080439061,174,001,2024_Mar_04_1209,SpeechDraft1Carolyn_lessNoise_PlusLocalization,2021.2.3,59.902995962019176,
,,,,,,,,center,0.0,6,ch1Sound_localizationTask.wav,0.0,"(952, 878)","(-8,-202)",0,-338,,,,,,,,,,,,,0,3,3,3,,,,,,,,,,,,,,,,,,,,,,,,,,,,,,,,,,,,,,,,961.1542131034657,None,,,964.1706640934572,None,1.5042328042328044,0.5496177831664681,964.1706640934572,None,,,,,,,962.1544376015663,None,962.3375899801031,962.3544677998871,174,001,2024_Mar_04_1209,SpeechDraft1Carolyn_lessNoise_PlusLocalization,2021.2.3,59.902995962019176,
,,,,,,,,farLeft,-19.1,5,ch1Sound_localizationTask.wav,-19.1,"(667, 878)","(-293,-202)",-285,-338,,,,,,,,,,,,,0,4,4,0,,,,,,,,,,,,,,,,,,,,,,,,,,,,,,,,,,,,,,,,964.7209143387154,None,,,967.7373283300549,None,1.3322751322751323,0.7189841084182262,967.7373283300549,None,,,,,,,965.7210306730121,None,965.9043566370383,965.920971872285,174,001,2024_Mar_04_1209,SpeechDraft1Carolyn_lessNoise_PlusLocalization,2021.2.3,59.902995962019176,
,,,,,,,,midRight,13.0,3,ch1Sound_localizationTask.wav,13.0,"(1142, 878)","(182, -202)",190,-338,,,,,,,,,,,,,0,5,5,5,,,,,,,,,,,,,,,,,,,,,,,,,,,,,,,,,,,,,,,,968.4722324609756,None,,,971.5039129657671,None,1.5947089947089947,0.6669578738510609,971.5039129657671,None,,,,,,,969.4877070207149,None,969.671044472605,969.6876693889499,174,001,2024_Mar_04_1209,SpeechDraft1Carolyn_lessNoise_PlusLocalization,2021.2.3,59.902995962019176,
,,,,,,,,nearLeft,-6.5,1,ch1Sound_localizationTask.wav,-6.5,"(857, 878)","(-103,-202)",-95,-338,,,,,,,,,,,,,0,6,6,2,,,,,,,,,,,,,,,,,,,,,,,,,,,,,,,,,,,,,,,,972.1877816105261,None,,,975.2040214119479,None,1.4322751322751324,1.6334971562027931,975.2040214119479,None,,,,,,,973.1876620249823,None,973.3710167864338,973.3876028731465,174,001,2024_Mar_04_1209,SpeechDraft1Carolyn_lessNoise_PlusLocalization,2021.2.3,59.902995962019176,
,,,,,,,,nearRight,6.5,0,ch1Sound_localizationTask.wav,6.5,"(1047, 878)","(87, -202)",95,-338,,,,,,,,,,,,,1,0,7,4,,,,,,,,,,,,,,,,,,,,,,,,,,,,,,,,,,,,,,,,976.8544093267992,None,,,979.870788066648,None,1.560846560846561,0.7335651200264692,979.870788066648,None,,,,,,,977.8543322263286,None,978.037754599005,978.0543761802837,174,001,2024_Mar_04_1209,SpeechDraft1Carolyn_lessNoise_PlusLocalization,2021.2.3,59.902995962019176,
,,,,,,,,nearRight,6.5,0,ch1Sound_localizationTask.wav,6.5,"(1047, 878)","(87, -202)",95,-338,,,,,,,,,,,,,1,1,8,4,,,,,,,,,,,,,,,,,,,,,,,,,,,,,,,,,,,,,,,,980.6057788981125,None,,,983.6374640837312,None,1.5560846560846562,0.4985354542732239,983.6374640837312,None,,,,,,,981.620984445326,None,981.8044265769422,981.8210963038728,174,001,2024_Mar_04_1209,SpeechDraft1Carolyn_lessNoise_PlusLocalization,2021.2.3,59.902995962019176,
,,,,,,,,farRight,19.1,4,ch1Sound_localizationTask.wav,19.1,"(1237, 878)","(277,-202)",285,-338,,,,,,,,,,,,,1,2,9,6,,,,,,,,,,,,,,,,,,,,,,,,,,,,,,,,,,,,,,,,984.1377467717975,None,,,987.154098472558,None,1.6455026455026456,0.7990158665925264,987.154098472558,None,,,,,,,985.1377148451284,None,985.3211450111121,985.3376785051078,174,001,2024_Mar_04_1209,SpeechDraft1Carolyn_lessNoise_PlusLocalization,2021.2.3,59.902995962019176,
,,,,,,,,nearRight,6.5,0,ch1Sound_localizationTask.wav,6.5,"(1047, 878)","(87, -202)",95,-338,,,,,,,,,,,,,1,3,10,4,,,,,,,,,,,,,,,,,,,,,,,,,,,,,,,,,,,,,,,,987.9543833043426,None,,,990.9707963084802,None,1.5587301587301587,0.749021396972239,990.9707963084802,None,,,,,,,988.9544683918357,None,989.13763875328,989.1543847229332,174,001,2024_Mar_04_1209,SpeechDraft1Carolyn_lessNoise_PlusLocalization,2021.2.3,59.902995962019176,
,,,,,,,,farLeft,-19.1,5,ch1Sound_localizationTask.wav,-19.1,"(667, 878)","(-293,-202)",-285,-338,,,,,,,,,,,,,1,4,11,0,,,,,,,,,,,,,,,,,,,,,,,,,,,,,,,,,,,,,,,,991.7208922877908,None,,,994.7374327536672,None,1.3402116402116402,0.7331210626289248,994.7374327536672,None,,,,,,,992.7209899099544,None,992.9043789785355,992.9209508011118,174,001,2024_Mar_04_1209,SpeechDraft1Carolyn_lessNoise_PlusLocalization,2021.2.3,59.902995962019176,
,,,,,,,,farRight,19.1,4,ch1Sound_localizationTask.wav,19.1,"(1237, 878)","(277,-202)",285,-338,,,,,,,,,,,,,1,5,12,6,,,,,,,,,,,,,,,,,,,,,,,,,,,,,,,,,,,,,,,,995.4712136453018,None,,,998.4875248940662,None,1.6095238095238096,1.1970244785770774,998.4875248940662,None,,,,,,,996.4711926942691,None,996.6544218901545,996.6711951903999,174,001,2024_Mar_04_1209,SpeechDraft1Carolyn_lessNoise_PlusLocalization,2021.2.3,59.902995962019176,
,,,,,,,,center,0.0,6,ch1Sound_localizationTask.wav,0.0,"(952, 878)","(-8,-202)",0,-338,,,,,,,,,,,,,1,6,13,3,,,,,,,,,,,,,,,,,,,,,,,,,,,,,,,,,,,,,,,,999.7042161030695,None,,,1002.7207674300298,None,1.4544973544973545,0.733229773119092,1002.7207674300298,None,,,,,,,1000.7043163888156,None,1000.8876202879474,1000.9043926307932,174,001,2024_Mar_04_1209,SpeechDraft1Carolyn_lessNoise_PlusLocalization,2021.2.3,59.902995962019176,
,,,,,,,,farLeft,-19.1,5,ch1Sound_localizationTask.wav,-19.1,"(667, 878)","(-293,-202)",-285,-338,,,,,,,,,,,,,2,0,14,0,,,,,,,,,,,,,,,,,,,,,,,,,,,,,,,,,,,,,,,,1003.4711838066578,None,,,1006.48749530036,None,1.3264550264550263,0.7493741754442453,1006.48749530036,None,,,,,,,1004.4710261896253,None,1004.6544009670615,1004.6710171336308,174,001,2024_Mar_04_1209,SpeechDraft1Carolyn_lessNoise_PlusLocalization,2021.2.3,59.902995962019176,
,,,,,,,,farRight,19.1,4,ch1Sound_localizationTask.wav,19.1,"(1237, 878)","(277,-202)",285,-338,,,,,,,,,,,,,2,1,15,6,,,,,,,,,,,,,,,,,,,,,,,,,,,,,,,,,,,,,,,,1007.2376300664619,None,,,1010.2542009083554,None,1.625925925925926,1.2648898987099528,1010.2542009083554,None,,,,,,,1008.2377122510225,None,1008.4209693539888,1008.4377868650481,174,001,2024_Mar_04_1209,SpeechDraft1Carolyn_lessNoise_PlusLocalization,2021.2.3,59.902995962019176,
,,,,,,,,midRight,13.0,3,ch1Sound_localizationTask.wav,13.0,"(1142, 878)","(182, -202)",190,-338,,,,,,,,,,,,,2,2,16,5,,,,,,,,,,,,,,,,,,,,,,,,,,,,,,,,,,,,,,,,1011.5209815651178,None,,,1014.5375394430012,None,1.585185185185185,0.8151255631819367,1014.5375394430012,None,,,,,,,1012.5210394216701,None,1012.7043571937829,1012.7210946651176,174,001,2024_Mar_04_1209,SpeechDraft1Carolyn_lessNoise_PlusLocalization,2021.2.3,59.902995962019176,
,,,,,,,,center,0.0,6,ch1Sound_localizationTask.wav,0.0,"(952, 878)","(-8,-202)",0,-338,,,,,,,,,,,,,2,3,17,3,,,,,,,,,,,,,,,,,,,,,,,,,,,,,,,,,,,,,,,,1015.3543166257441,None,,,1018.3710090750828,None,1.4952380952380953,0.9996541412547231,1018.3710090750828,None,,,,,,,1016.3545108176768,None,1016.537787723355,1016.5545465359464,174,001,2024_Mar_04_1209,SpeechDraft1Carolyn_lessNoise_PlusLocalization,2021.2.3,59.902995962019176,
,,,,,,,,farLeft,-19.1,5,ch1Sound_localizationTask.wav,-19.1,"(667, 878)","(-293,-202)",-285,-338,,,,,,,,,,,,,2,4,18,0,,,,,,,,,,,,,,,,,,,,,,,,,,,,,,,,,,,,,,,,1019.3715670574456,None,,,1022.3873770320788,None,1.3402116402116402,0.6672318894416094,1022.3873770320788,None,,,,,,,1020.3711186349392,None,1020.5543881440535,1020.5710994480178,174,001,2024_Mar_04_1209,SpeechDraft1Carolyn_lessNoise_PlusLocalization,2021.2.3,59.902995962019176,
,,,,,,,,midLeft,-13.0,2,ch1Sound_localizationTask.wav,-13.0,"(762, 878)","(-198,-202)",-190,-338,,,,,,,,,,,,,2,5,19,1,,,,,,,,,,,,,,,,,,,,,,,,,,,,,,,,,,,,,,,,1023.0710790138692,None,,,1026.0873935054988,None,1.4026455026455027,0.7331745959818363,1026.0873935054988,None,,,,,,,1024.0710200769827,None,1024.2543222038075,1024.2711029322818,174,001,2024_Mar_04_1209,SpeechDraft1Carolyn_lessNoise_PlusLocalization,2021.2.3,59.902995962019176,
,,,,,,,,nearRight,6.5,0,ch1Sound_localizationTask.wav,6.5,"(1047, 878)","(87, -202)",95,-338,,,,,,,,,,,,,2,6,20,4,,,,,,,,,,,,,,,,,,,,,,,,,,,,,,,,,,,,,,,,1026.8214883189648,None,,,1029.8374190386385,None,1.547089947089947,1.5156577751040459,1029.8374190386385,None,,,,,,,1027.8211591430008,None,1028.0044675525278,1028.0210996083915,174,001,2024_Mar_04_1209,SpeechDraft1Carolyn_lessNoise_PlusLocalization,2021.2.3,59.902995962019176,
,,,,,,,,midRight,13.0,3,ch1Sound_localizationTask.wav,13.0,"(1142, 878)","(182, -202)",190,-338,,,,,,,,,,,,,3,0,21,5,,,,,,,,,,,,,,,,,,,,,,,,,,,,,,,,,,,,,,,,1031.3543672496453,None,,,1034.3708035256714,None,1.588888888888889,0.6838089404627681,1034.3708035256714,None,,,,,,,1032.3544569592923,None,1032.5376976514235,1032.5545031940565,174,001,2024_Mar_04_1209,SpeechDraft1Carolyn_lessNoise_PlusLocalization,2021.2.3,59.902995962019176,
,,,,,,,,midLeft,-13.0,2,ch1Sound_localizationTask.wav,-13.0,"(762, 878)","(-198,-202)",-190,-338,,,,,,,,,,,,,3,1,22,1,,,,,,,,,,,,,,,,,,,,,,,,,,,,,,,,,,,,,,,,1035.0710768783465,None,,,1038.0873719705269,None,1.361904761904762,0.7985092792659998,1038.0873719705269,None,,,,,,,1036.0711310794577,None,1036.2544766962528,1036.2711545135826,174,001,2024_Mar_04_1209,SpeechDraft1Carolyn_lessNoise_PlusLocalization,2021.2.3,59.902995962019176,
,,,,,,,,center,0.0,6,ch1Sound_localizationTask.wav,0.0,"(952, 878)","(-8,-202)",0,-338,,,,,,,,,,,,,3,2,23,3,,,,,,,,,,,,,,,,,,,,,,,,,,,,,,,,,,,,,,,,1038.8882358809933,None,,,1041.9041496338323,None,1.4962962962962962,0.8155669709667563,1041.9041496338323,None,,,,,,,1039.8877364266664,None,1040.071103525348,1040.087777722627,174,001,2024_Mar_04_1209,SpeechDraft1Carolyn_lessNoise_PlusLocalization,2021.2.3,59.902995962019176,
,,,,,,,,nearRight,6.5,0,ch1Sound_localizationTask.wav,6.5,"(1047, 878)","(87, -202)",95,-338,,,,,,,,,,,,,3,3,24,4,,,,,,,,,,,,,,,,,,,,,,,,,,,,,,,,,,,,,,,,1042.721333722584,None,,,1045.7374497586861,None,1.5507936507936508,0.8824723307043314,1045.7374497586861,None,,,,,,,1043.721206258051,None,1043.90445556771,1043.9211016995832,174,001,2024_Mar_04_1209,SpeechDraft1Carolyn_lessNoise_PlusLocalization,2021.2.3,59.902995962019176,
,,,,,,,,midLeft,-13.0,2,ch1Sound_localizationTask.wav,-13.0,"(762, 878)","(-198,-202)",-190,-338,,,,,,,,,,,,,3,4,25,1,,,,,,,,,,,,,,,,,,,,,,,,,,,,,,,,,,,,,,,,1046.6209832159802,None,,,1049.6376760425046,None,1.366137566137566,0.8832639530301094,1049.6376760425046,None,,,,,,,1047.6211263844743,None,1047.80449740123,1047.8211114751175,174,001,2024_Mar_04_1209,SpeechDraft1Carolyn_lessNoise_PlusLocalization,2021.2.3,59.902995962019176,
,,,,,,,,nearLeft,-6.5,1,ch1Sound_localizationTask.wav,-6.5,"(857, 878)","(-103,-202)",-95,-338,,,,,,,,,,,,,3,5,26,2,,,,,,,,,,,,,,,,,,,,,,,,,,,,,,,,,,,,,,,,1050.5378886824474,None,,,1053.5541606526822,None,1.4396825396825397,0.9513491280376911,1053.5541606526822,None,,,,,,,1051.5377457654104,None,1051.7210858827457,1051.7378305988386,174,001,2024_Mar_04_1209,SpeechDraft1Carolyn_lessNoise_PlusLocalization,2021.2.3,59.902995962019176,
,,,,,,,,nearLeft,-6.5,1,ch1Sound_localizationTask.wav,-6.5,"(857, 878)","(-103,-202)",-95,-338,,,,,,,,,,,,,3,6,27,2,,,,,,,,,,,,,,,,,,,,,,,,,,,,,,,,,,,,,,,,1054.5211366340518,None,,,1057.5374421896413,None,1.4497354497354498,0.8859883248806,1057.5374421896413,None,,,,,,,1055.5211923541501,None,1055.7044121846557,1055.7211276181042,174,001,2024_Mar_04_1209,SpeechDraft1Carolyn_lessNoise_PlusLocalization,2021.2.3,59.902995962019176,
,,,,,,,,nearRight,6.5,0,ch1Sound_localizationTask.wav,6.5,"(1047, 878)","(87, -202)",95,-338,,,,,,,,,,,,,4,0,28,4,,,,,,,,,,,,,,,,,,,,,,,,,,,,,,,,,,,,,,,,1058.4385626856238,None,,,1061.4541774736717,None,1.5523809523809524,0.6480567902326584,1061.4541774736717,None,,,,,,,1059.437876863405,None,1059.6211769934744,1059.637854362838,174,001,2024_Mar_04_1209,SpeechDraft1Carolyn_lessNoise_PlusLocalization,2021.2.3,59.902995962019176,
,,,,,,,,center,0.0,6,ch1Sound_localizationTask.wav,0.0,"(952, 878)","(-8,-202)",0,-338,,,,,,,,,,,,,4,1,29,3,,,,,,,,,,,,,,,,,,,,,,,,,,,,,,,,,,,,,,,,1062.1044649323449,None,,,1065.1208669450134,None,1.5010582010582012,0.7160661574453115,1065.1208669450134,None,,,,,,,1063.1043985085562,None,1063.2878656480461,1063.304575521499,174,001,2024_Mar_04_1209,SpeechDraft1Carolyn_lessNoise_PlusLocalization,2021.2.3,59.902995962019176,
,,,,,,,,nearLeft,-6.5,1,ch1Sound_localizationTask.wav,-6.5,"(857, 878)","(-103,-202)",-95,-338,,,,,,,,,,,,,4,2,30,2,,,,,,,,,,,,,,,,,,,,,,,,,,,,,,,,,,,,,,,,1065.8378365915269,None,,,1068.8542118379846,None,1.4682539682539684,0.23280298244208097,1068.8542118379846,None,,,,,,,1066.8377604642883,None,1067.0211394578218,1067.0377765307203,174,001,2024_Mar_04_1209,SpeechDraft1Carolyn_lessNoise_PlusLocalization,2021.2.3,59.902995962019176,
,,,,,,,,farRight,19.1,4,ch1Sound_localizationTask.wav,19.1,"(1237, 878)","(277,-202)",285,-338,,,,,,,,,,,,,4,3,31,6,,,,,,,,,,,,,,,,,,,,,,,,,,,,,,,,,,,,,,,,1069.0877832453698,None,,,1072.1041730716825,None,1.6682539682539683,0.9660549461841583,1072.1041730716825,None,,,,,,,1070.0878182537854,None,1070.2711039949208,1070.2877568658441,174,001,2024_Mar_04_1209,SpeechDraft1Carolyn_lessNoise_PlusLocalization,2021.2.3,59.902995962019176,
,,,,,,,,nearLeft,-6.5,1,ch1Sound_localizationTask.wav,-6.5,"(857, 878)","(-103,-202)",-95,-338,,,,,,,,,,,,,4,4,32,2,,,,,,,,,,,,,,,,,,,,,,,,,,,,,,,,,,,,,,,,1073.070993758738,None,,,1076.0875383159146,None,1.4486772486772486,0.9812533231452107,1076.0875383159146,None,,,,,,,1074.071111643687,None,1074.2544701779261,1074.2711350983009,174,001,2024_Mar_04_1209,SpeechDraft1Carolyn_lessNoise_PlusLocalization,2021.2.3,59.902995962019176,
,,,,,,,,farRight,19.1,4,ch1Sound_localizationTask.wav,19.1,"(1237, 878)","(277,-202)",285,-338,,,,,,,,,,,,,4,5,33,6,,,,,,,,,,,,,,,,,,,,,,,,,,,,,,,,,,,,,,,,1077.071037216112,None,,,1080.087530490011,None,1.665079365079365,0.6834837878122926,1080.087530490011,None,,,,,,,1078.0711808465421,None,1078.2545232335106,1078.2711453530937,174,001,2024_Mar_04_1209,SpeechDraft1Carolyn_lessNoise_PlusLocalization,2021.2.3,59.902995962019176,
,,,,,,,,nearLeft,-6.5,1,ch1Sound_localizationTask.wav,-6.5,"(857, 878)","(-103,-202)",-95,-338,,,,,,,,,,,,,4,6,34,2,,,,,,,,,,,,,,,,,,,,,,,,,,,,,,,,,,,,,,,,1080.7711631692946,None,,,1083.7875993428752,None,1.428042328042328,0.6982513684779406,1083.7875993428752,None,,,,,,,1081.7711342563853,None,1081.9544216040522,1081.9711894476786,174,001,2024_Mar_04_1209,SpeechDraft1Carolyn_lessNoise_PlusLocalization,2021.2.3,59.902995962019176,
,,,,,,,,nearLeft,-6.5,1,ch1Sound_localizationTask.wav,-6.5,"(857, 878)","(-103,-202)",-95,-338,,,,,,,,,,,,,5,0,35,2,,,,,,,,,,,,,,,,,,,,,,,,,,,,,,,,,,,,,,,,1084.487802028656,None,,,1087.5041452422738,None,1.4444444444444444,1.147592781111598,1087.5041452422738,None,,,,,,,1085.4877172196284,None,1085.671140721999,1085.6877126684412,174,001,2024_Mar_04_1209,SpeechDraft1Carolyn_lessNoise_PlusLocalization,2021.2.3,59.902995962019176,
,,,,,,,,farLeft,-19.1,5,ch1Sound_localizationTask.wav,-19.1,"(667, 878)","(-293,-202)",-285,-338,,,,,,,,,,,,,5,1,36,0,,,,,,,,,,,,,,,,,,,,,,,,,,,,,,,,,,,,,,,,1088.6544891847298,None,,,1091.670872184448,None,1.3529100529100528,0.7160147465765476,1091.670872184448,None,,,,,,,1089.654475540854,None,1089.837866127491,1089.8544476535171,174,001,2024_Mar_04_1209,SpeechDraft1Carolyn_lessNoise_PlusLocalization,2021.2.3,59.902995962019176,
,,,,,,,,midLeft,-13.0,2,ch1Sound_localizationTask.wav,-13.0,"(762, 878)","(-198,-202)",-190,-338,,,,,,,,,,,,,5,2,37,1,,,,,,,,,,,,,,,,,,,,,,,,,,,,,,,,,,,,,,,,1092.3877767557278,None,,,1095.4042524555698,None,1.3952380952380952,1.4166224040091038,1095.4042524555698,None,,,,,,,1093.3878630464897,None,1093.5712285926566,1093.5878313593566,174,001,2024_Mar_04_1209,SpeechDraft1Carolyn_lessNoise_PlusLocalization,2021.2.3,59.902995962019176,
,,,,,,,,farRight,19.1,4,ch1Sound_localizationTask.wav,19.1,"(1237, 878)","(277,-202)",285,-338,,,,,,,,,,,,,5,3,38,6,,,,,,,,,,,,,,,,,,,,,,,,,,,,,,,,,,,,,,,,1096.8214970882982,None,,,1099.8376590730622,None,1.664021164021164,1.8660376016050577,1099.8376590730622,None,,,,,,,1097.821301500313,None,1098.00453695748,1098.021164466627,174,001,2024_Mar_04_1209,SpeechDraft1Carolyn_lessNoise_PlusLocalization,2021.2.3,59.902995962019176,
,,,,,,,,center,0.0,6,ch1Sound_localizationTask.wav,0.0,"(952, 878)","(-8,-202)",0,-338,,,,,,,,,,,,,5,4,39,3,,,,,,,,,,,,,,,,,,,,,,,,,,,,,,,,,,,,,,,,1101.7044918313622,None,,,1104.7208999358118,None,1.5005291005291004,1.6819815216585994,1104.7208999358118,None,,,,,,,1102.7045636642724,None,1102.8880289820954,1102.9045672994107,174,001,2024_Mar_04_1209,SpeechDraft1Carolyn_lessNoise_PlusLocalization,2021.2.3,59.902995962019176,
,,,,,,,,farLeft,-19.1,5,ch1Sound_localizationTask.wav,-19.1,"(667, 878)","(-293,-202)",-285,-338,,,,,,,,,,,,,5,5,40,0,,,,,,,,,,,,,,,,,,,,,,,,,,,,,,,,,,,,,,,,1106.4044623048976,None,,,1109.420975299552,None,1.3253968253968254,0.6818482540547848,1109.420975299552,None,,,,,,,1107.4044711710885,None,1107.5878303833306,1107.6045624734834,174,001,2024_Mar_04_1209,SpeechDraft1Carolyn_lessNoise_PlusLocalization,2021.2.3,59.902995962019176,
,,,,,,,,midRight,13.0,3,ch1Sound_localizationTask.wav,13.0,"(1142, 878)","(182, -202)",190,-338,,,,,,,,,,,,,5,6,41,5,,,,,,,,,,,,,,,,,,,,,,,,,,,,,,,,,,,,,,,,1110.1044609388337,None,,,1113.1208360865712,None,1.6142857142857143,0.8831218034029007,1113.1208360865712,None,,,,,,,1111.1044441545382,None,1111.2878185510635,1111.304460618645,174,001,2024_Mar_04_1209,SpeechDraft1Carolyn_lessNoise_PlusLocalization,2021.2.3,59.902995962019176,
,,,,,,,,farRight,19.1,4,ch1Sound_localizationTask.wav,19.1,"(1237, 878)","(277,-202)",285,-338,,,,,,,,,,,,,6,0,42,6,,,,,,,,,,,,,,,,,,,,,,,,,,,,,,,,,,,,,,,,1114.0213127098978,None,,,1117.0375087996945,None,1.657142857142857,0.7674114694818854,1117.0375087996945,None,,,,,,,1115.0213055666536,None,1115.2045056503266,1115.221141946502,174,001,2024_Mar_04_1209,SpeechDraft1Carolyn_lessNoise_PlusLocalization,2021.2.3,59.902995962019176,
,,,,,,,,midLeft,-13.0,2,ch1Sound_localizationTask.wav,-13.0,"(762, 878)","(-198,-202)",-190,-338,,,,,,,,,,,,,6,1,43,1,,,,,,,,,,,,,,,,,,,,,,,,,,,,,,,,,,,,,,,,1117.8212606692687,None,,,1120.8378077978268,None,1.361904761904762,0.7489682007580996,1120.8378077978268,None,,,,,,,1118.82121710293,None,1119.004549103789,1119.0212532998994,174,001,2024_Mar_04_1209,SpeechDraft1Carolyn_lessNoise_PlusLocalization,2021.2.3,59.902995962019176,
,,,,,,,,midLeft,-13.0,2,ch1Sound_localizationTask.wav,-13.0,"(762, 878)","(-198,-202)",-190,-338,,,,,,,,,,,,,6,2,44,1,,,,,,,,,,,,,,,,,,,,,,,,,,,,,,,,,,,,,,,,1121.5877535557374,None,,,1124.6042616274208,None,1.402116402116402,0.6162976315245032,1124.6042616274208,None,,,,,,,1122.5878597768024,None,1122.7712312098593,1122.787819395773,174,001,2024_Mar_04_1209,SpeechDraft1Carolyn_lessNoise_PlusLocalization,2021.2.3,59.902995962019176,
,,,,,,,,farLeft,-19.1,5,ch1Sound_localizationTask.wav,-19.1,"(667, 878)","(-293,-202)",-285,-338,,,,,,,,,,,,,6,3,45,0,,,,,,,,,,,,,,,,,,,,,,,,,,,,,,,,,,,,,,,,1125.221179976128,None,,,1128.237590844743,None,1.3518518518518519,0.8663956867530942,1128.237590844743,None,,,,,,,1126.2212178884074,None,1126.4046290107071,1126.421193048358,174,001,2024_Mar_04_1209,SpeechDraft1Carolyn_lessNoise_PlusLocalization,2021.2.3,59.902995962019176,
,,,,,,,,farLeft,-19.1,5,ch1Sound_localizationTask.wav,-19.1,"(667, 878)","(-293,-202)",-285,-338,,,,,,,,,,,,,6,4,46,0,,,,,,,,,,,,,,,,,,,,,,,,,,,,,,,,,,,,,,,,1129.1045138649642,None,,,1132.120958019048,None,1.3470899470899471,0.7991898264735937,1132.120958019048,None,,,,,,,1130.10455221124,None,1130.2880670595914,1130.3045781217515,174,001,2024_Mar_04_1209,SpeechDraft1Carolyn_lessNoise_PlusLocalization,2021.2.3,59.902995962019176,
,,,,,,,,nearRight,6.5,0,ch1Sound_localizationTask.wav,6.5,"(1047, 878)","(87, -202)",95,-338,,,,,,,,,,,,,6,5,47,4,,,,,,,,,,,,,,,,,,,,,,,,,,,,,,,,,,,,,,,,1132.9213459333405,None,,,1135.9376618582755,None,1.6317460317460317,1.0823828028514981,1135.9376618582755,None,,,,,,,1133.9210922047496,None,1134.1045766053721,1134.12120686844,174,001,2024_Mar_04_1209,SpeechDraft1Carolyn_lessNoise_PlusLocalization,2021.2.3,59.902995962019176,
,,,,,,,,farRight,19.1,4,ch1Sound_localizationTask.wav,19.1,"(1237, 878)","(277,-202)",285,-338,,,,,,,,,,,,,6,6,48,6,,,,,,,,,,,,,,,,,,,,,,,,,,,,,,,,,,,,,,,,1137.0212374217808,None,,,1140.0377553906292,None,1.6661375661375661,0.8655799981206656,1140.0377553906292,None,,,,,,,1138.0213040625677,None,1138.2046292889863,1138.2212351877242,174,001,2024_Mar_04_1209,SpeechDraft1Carolyn_lessNoise_PlusLocalization,2021.2.3,59.902995962019176,
,,,,,,,,midRight,13.0,3,ch1Sound_localizationTask.wav,13.0,"(1142, 878)","(182, -202)",190,-338,,,,,,,,,,,,,7,0,49,5,,,,,,,,,,,,,,,,,,,,,,,,,,,,,,,,,,,,,,,,1140.9045400200412,None,,,1143.9209358049557,None,1.5989417989417989,0.9329293156042695,1143.9209358049557,None,,,,,,,1141.9045782433823,None,1142.0877382000908,1142.1045897314325,174,001,2024_Mar_04_1209,SpeechDraft1Carolyn_lessNoise_PlusLocalization,2021.2.3,59.902995962019176,
,,,,,,,,nearRight,6.5,0,ch1Sound_localizationTask.wav,6.5,"(1047, 878)","(87, -202)",95,-338,,,,,,,,,,,,,7,1,50,4,,,,,,,,,,,,,,,,,,,,,,,,,,,,,,,,,,,,,,,,1144.8546838816255,None,,,1147.8709361637011,None,1.555026455026455,0.8820778401568532,1147.8709361637011,None,,,,,,,1145.8545366432518,None,1146.0379285607487,1146.0545830503106,174,001,2024_Mar_04_1209,SpeechDraft1Carolyn_lessNoise_PlusLocalization,2021.2.3,59.902995962019176,
,,,,,,,,midRight,13.0,3,ch1Sound_localizationTask.wav,13.0,"(1142, 878)","(182, -202)",190,-338,,,,,,,,,,,,,7,2,51,5,,,,,,,,,,,,,,,,,,,,,,,,,,,,,,,,,,,,,,,,1148.7546000760049,None,,,1151.771018809639,None,1.5825396825396827,0.6990660009905696,1151.771018809639,None,,,,,,,1149.7544780848548,None,1149.937909109518,1149.9545681625605,174,001,2024_Mar_04_1209,SpeechDraft1Carolyn_lessNoise_PlusLocalization,2021.2.3,59.902995962019176,
,,,,,,,,center,0.0,6,ch1Sound_localizationTask.wav,0.0,"(952, 878)","(-8,-202)",0,-338,,,,,,,,,,,,,7,3,52,3,,,,,,,,,,,,,,,,,,,,,,,,,,,,,,,,,,,,,,,,1152.4712384566665,None,,,1155.4875496933237,None,1.5052910052910053,0.932147353887558,1155.4875496933237,None,,,,,,,1153.4712532153353,None,1153.6546096913517,1153.6713210856542,174,001,2024_Mar_04_1209,SpeechDraft1Carolyn_lessNoise_PlusLocalization,2021.2.3,59.902995962019176,
,,,,,,,,nearLeft,-6.5,1,ch1Sound_localizationTask.wav,-6.5,"(857, 878)","(-103,-202)",-95,-338,,,,,,,,,,,,,7,4,53,2,,,,,,,,,,,,,,,,,,,,,,,,,,,,,,,,,,,,,,,,1156.4211603384465,None,,,1159.4376722555608,None,1.447089947089947,0.7493646908551455,1159.4376722555608,None,,,,,,,1157.4212410748005,None,1157.6046543866396,1157.6212737979367,174,001,2024_Mar_04_1209,SpeechDraft1Carolyn_lessNoise_PlusLocalization,2021.2.3,59.902995962019176,
,,,,,,,,midLeft,-13.0,2,ch1Sound_localizationTask.wav,-13.0,"(762, 878)","(-198,-202)",-190,-338,,,,,,,,,,,,,7,5,54,1,,,,,,,,,,,,,,,,,,,,,,,,,,,,,,,,,,,,,,,,1160.1879811277613,None,,,1163.2043494088575,None,1.1264550264550266,1.2510182969272137,1163.2043494088575,None,,,,,,,1161.1879100473598,None,1161.3712277840823,1161.3879038887098,174,001,2024_Mar_04_1209,SpeechDraft1Carolyn_lessNoise_PlusLocalization,2021.2.3,59.902995962019176,
,,,,,,,,center,0.0,6,ch1Sound_localizationTask.wav,0.0,"(952, 878)","(-8,-202)",0,-338,,,,,,,,,,,,,7,6,55,3,,,,,,,,,,,,,,,,,,,,,,,,,,,,,,,,,,,,,,,,1164.4712993958965,None,,,1167.4876492153853,None,1.4947089947089947,0.9657338932156563,1167.4876492153853,None,,,,,,,1165.4712627660483,None,1165.6546049099416,1165.6713143959641,174,001,2024_Mar_04_1209,SpeechDraft1Carolyn_lessNoise_PlusLocalization,2021.2.3,59.902995962019176,
