Audio_Only_Files,Video_Files,Original_Word_List,noiseLevelCode,conditionCodes,noiseLevelFile1,noiseLevelFile2,InstrTextVar,targetSpeakerName,targetSpeakerEccen,targetSpkrChannel,targetSpkrSound,targetVisualDegrees,visStimLoc,visStimLoc2,visStimW,visStimH,practiceTrials.thisRepN,practiceTrials.thisTrialN,practiceTrials.thisN,practiceTrials.thisIndex,trials.thisRepN,trials.thisTrialN,trials.thisN,trials.thisIndex,audLocalLoop.thisRepN,audLocalLoop.thisTrialN,audLocalLoop.thisN,audLocalLoop.thisIndex,visualLocalLoop.thisRepN,visualLocalLoop.thisTrialN,visualLocalLoop.thisN,visualLocalLoop.thisIndex,letsGoAlready.keys,letsGoAlready.rt,letsGoAlready.started,letsGoAlready.stopped,text_2.started,text_2.stopped,text_3.started,text_3.stopped,key_resp_2.keys,key_resp_2.rt,key_resp_2.started,key_resp_2.stopped,text_5.started,text_5.stopped,fixCross.started,fixCross.stopped,fixCross2.started,fixCross2.stopped,answerPrompt.started,answerPrompt.stopped,getAnswer.text,getAnswer.started,getAnswer.stopped,goToNext.keys,goToNext.rt,goToNext.started,goToNext.stopped,stretchBreakTxrt.started,stretchBreakTxrt.stopped,key_resp_3.keys,key_resp_3.rt,key_resp_3.started,key_resp_3.stopped,letsGoLocal.keys,letsGoLocal.rt,letsGoLocal.started,letsGoLocal.stopped,text_4.started,text_4.stopped,prepFixTxt.started,prepFixTxt.stopped,prepFixTxt_2.started,prepFixTxt_2.stopped,respPromptLocal.started,respPromptLocal.stopped,slider.response,slider.rt,slider.started,slider.stopped,letsGoLocal_2.keys,letsGoLocal_2.rt,letsGoLocal_2.started,letsGoLocal_2.stopped,text_7.started,text_7.stopped,prepFixTxt_3.started,prepFixTxt_3.stopped,grating.started,grating.stopped,exitTxt.started,exitTxt.stopped,key_resp.keys,key_resp.rt,key_resp.started,key_resp.stopped,participant,session,date,expName,psychopyVersion,frameRate,
,,,,,,,,,,,,,,,,,,,,,,,,,,,,,,,,,space,192.63329395558685,17.970735353417695,None,,,,,,,,,,,,,,,,,,,,,,,,,,,,,,,,,,,,,,,,,,,,,,,,,,,,,,,,,,,,,,175,001,2024_Mar_05_1219,SpeechDraft1Carolyn_lessNoise_PlusLocalization,2021.2.3,60.03326698584126,
,,,,,,,,,,,,,,,,,,,,,,,,,,,,,,,,,,,,,17.970735353417695,None,210.73637217003852,None,space,8.381158869713545,210.91886914800853,None,,,,,,,,,,,,,,,,,,,,,,,,,,,,,,,,,,,,,,,,,,,,,,,,,,,,,,175,001,2024_Mar_05_1219,SpeechDraft1Carolyn_lessNoise_PlusLocalization,2021.2.3,60.03326698584126,
ash.wav,ash.mpg,ash,1,A,Pink_Noise_1_1.wav,Pink_Noise_1_2.wav,"This is an example of an

AUDIO trial",,,,,,,,,,0,0,0,0,,,,,,,,,,,,,,,,,,,,,,,,,219.35205460805446,None,220.33551081921905,None,223.5852951761335,None,224.98568364419043,None,ash,224.98568364419043,None,return,3.9432725748047233,225.06876635551453,None,,,,,,,,,,,,,,,,,,,,,,,,,,,,,,,,,,,,,,,175,001,2024_Mar_05_1219,SpeechDraft1Carolyn_lessNoise_PlusLocalization,2021.2.3,60.03326698584126,
ash.wav,ash.mpg,ash,1,AV,Pink_Noise_1_1.wav,Pink_Noise_1_2.wav,"This is an example of an

AUDIO + VIDEO  trial",,,,,,,,,,0,1,1,1,,,,,,,,,,,,,,,,,,,,,,,,,229.05188550241292,None,230.05227910354733,None,231.5519211757928,None,232.93557745870203,None,ash,232.93557745870203,None,return,10.145265351980925,233.01877320092171,None,,,,,,,,,,,,,,,,,,,,,,,,,,,,,,,,,,,,,,,175,001,2024_Mar_05_1219,SpeechDraft1Carolyn_lessNoise_PlusLocalization,2021.2.3,60.03326698584126,
,,,,,,,,,,,,,,,,,,,,,,,,,,,,,,,,,,,,,,,,,,,,,,,,,,,,,,,,,,,,243.20195960439742,None,space,7.826509993523359,243.38553025200963,None,,,,,,,,,,,,,,,,,,,,,,,,,,,,,,,,,175,001,2024_Mar_05_1219,SpeechDraft1Carolyn_lessNoise_PlusLocalization,2021.2.3,60.03326698584126,
toy.wav,toy.mpg,toy,1,AV,Pink_Noise_1_1.wav,Pink_Noise_1_2.wav,,,,,,,,,,,,,,,0,0,0,116,,,,,,,,,,,,,,,,,,,,,,,251.2686104197055,None,252.752405741252,None,254.1355003938079,None,toy,254.1355003938079,None,return,5.625158555805683,254.21888853330165,None,,,,,,,,,,,,,,,,,,,,,,,,,,,,,,,,,,,,,,,175,001,2024_Mar_05_1219,SpeechDraft1Carolyn_lessNoise_PlusLocalization,2021.2.3,60.03326698584126,
cube.wav,cube.mpg,cube,4,AV,Pink_Noise_4_1.wav,Pink_Noise_4_2.wav,,,,,,,,,,,,,,,0,1,1,86,,,,,,,,,,,,,,,,,,,,,,,259.86883857194334,None,261.3686554124579,None,262.73566715605557,None,cube,262.73566715605557,None,return,8.86523902695626,262.81886312086135,None,,,,,,,,,,,,,,,,,,,,,,,,,,,,,,,,,,,,,,,175,001,2024_Mar_05_1219,SpeechDraft1Carolyn_lessNoise_PlusLocalization,2021.2.3,60.03326698584126,
brand.wav,brand.mpg,brand,4,A,Pink_Noise_4_1.wav,Pink_Noise_4_2.wav,,,,,,,,,,,,,,,0,2,2,17,,,,,,,,,,,,,,,,,,,,,,,271.70233754906803,None,273.202000788413,None,274.5855425586924,None,"rained
",274.5855425586924,None,return,3.3671478061005473,274.6688874894753,None,,,,,,,,,,,,,,,,,,,,,,,,,,,,,,,,,,,,,,,175,001,2024_Mar_05_1219,SpeechDraft1Carolyn_lessNoise_PlusLocalization,2021.2.3,60.03326698584126,
dead.wav,dead.mpg,dead,6,AV,Pink_Noise_6_1.wav,Pink_Noise_6_2.wav,,,,,,,,,,,,,,,0,3,3,65,,,,,,,,,,,,,,,,,,,,,,,278.0689523881301,None,279.5688035292551,None,280.95218524802476,None,deatj,280.95218524802476,None,return,1.2324935859069228,281.03565757069737,None,,,,,,,,,,,,,,,,,,,,,,,,,,,,,,,,,,,,,,,175,001,2024_Mar_05_1219,SpeechDraft1Carolyn_lessNoise_PlusLocalization,2021.2.3,60.03326698584126,
dull.wav,dull.mpg,dull,1,AV,Pink_Noise_1_1.wav,Pink_Noise_1_2.wav,,,,,,,,,,,,,,,0,4,4,101,,,,,,,,,,,,,,,,,,,,,,,282.28591658268124,None,283.78527923021466,None,285.1689940309152,None,"doll
",285.1689940309152,None,return,0.9678066493943334,285.25222231727093,None,,,,,,,,,,,,,,,,,,,,,,,,,,,,,,,,,,,,,,,175,001,2024_Mar_05_1219,SpeechDraft1Carolyn_lessNoise_PlusLocalization,2021.2.3,60.03326698584126,
bull.wav,bull.mpg,bull,5,AV,Pink_Noise_5_1.wav,Pink_Noise_5_2.wav,,,,,,,,,,,,,,,0,5,5,63,,,,,,,,,,,,,,,,,,,,,,,286.25245016347617,None,287.7519546020776,None,289.13552855793387,None,"bowl
",289.13552855793387,None,return,5.552993754856288,289.2190328584984,None,,,,,,,,,,,,,,,,,,,,,,,,,,,,,,,,,,,,,,,175,001,2024_Mar_05_1219,SpeechDraft1Carolyn_lessNoise_PlusLocalization,2021.2.3,60.03326698584126,
grill.wav,grill.mpg,grill,1,A,Pink_Noise_1_1.wav,Pink_Noise_1_2.wav,,,,,,,,,,,,,,,0,6,6,12,,,,,,,,,,,,,,,,,,,,,,,294.80222618579865,None,296.3019561851397,None,297.6856080926955,None,"growth
",297.6856080926955,None,return,6.250922366976738,297.7691065715626,None,,,,,,,,,,,,,,,,,,,,,,,,,,,,,,,,,,,,,,,175,001,2024_Mar_05_1219,SpeechDraft1Carolyn_lessNoise_PlusLocalization,2021.2.3,60.03326698584126,
bone.wav,bone.mpg,bone,5,A,Pink_Noise_5_1.wav,Pink_Noise_5_2.wav,,,,,,,,,,,,,,,0,7,7,2,,,,,,,,,,,,,,,,,,,,,,,304.0523410132155,None,305.55200472753495,None,306.9189395690337,None,bow,306.9189395690337,None,return,2.849904265254736,307.0022644205019,None,,,,,,,,,,,,,,,,,,,,,,,,,,,,,,,,,,,,,,,175,001,2024_Mar_05_1219,SpeechDraft1Carolyn_lessNoise_PlusLocalization,2021.2.3,60.03326698584126,
duct.wav,duct.mpg,duct,4,AV,Pink_Noise_4_1.wav,Pink_Noise_4_2.wav,,,,,,,,,,,,,,,0,8,8,89,,,,,,,,,,,,,,,,,,,,,,,309.8689415110275,None,311.38541469629854,None,312.7690583979711,None,dot,312.7690583979711,None,return,0.8237738339230418,312.8523215521127,None,,,,,,,,,,,,,,,,,,,,,,,,,,,,,,,,,,,,,,,175,001,2024_Mar_05_1219,SpeechDraft1Carolyn_lessNoise_PlusLocalization,2021.2.3,60.03326698584126,
dig.wav,dig.mpg,dig,1,AV,Pink_Noise_1_1.wav,Pink_Noise_1_2.wav,,,,,,,,,,,,,,,0,9,9,73,,,,,,,,,,,,,,,,,,,,,,,313.7024112222716,None,315.20221618469805,None,316.5855956496671,None,dig,316.5855956496671,None,return,3.606893138960004,316.66920894011855,None,,,,,,,,,,,,,,,,,,,,,,,,,,,,,,,,,,,,,,,175,001,2024_Mar_05_1219,SpeechDraft1Carolyn_lessNoise_PlusLocalization,2021.2.3,60.03326698584126,
clean.wav,clean.mpg,clean,2,AV,Pink_Noise_2_1.wav,Pink_Noise_2_2.wav,,,,,,,,,,,,,,,0,10,10,111,,,,,,,,,,,,,,,,,,,,,,,320.30232357326895,None,321.80208066944033,None,323.1856290688738,None,clean,323.1856290688738,None,return,1.0389493610709906,323.26917016040534,None,,,,,,,,,,,,,,,,,,,,,,,,,,,,,,,,,,,,,,,175,001,2024_Mar_05_1219,SpeechDraft1Carolyn_lessNoise_PlusLocalization,2021.2.3,60.03326698584126,
fright.wav,fright.mpg,fright,6,AV,Pink_Noise_6_1.wav,Pink_Noise_6_2.wav,,,,,,,,,,,,,,,0,11,11,68,,,,,,,,,,,,,,,,,,,,,,,324.33565663266927,None,325.8353736428544,None,327.2189986379817,None,fresh,327.2189986379817,None,return,2.9256631694734097,327.30236027855426,None,,,,,,,,,,,,,,,,,,,,,,,,,,,,,,,,,,,,,,,175,001,2024_Mar_05_1219,SpeechDraft1Carolyn_lessNoise_PlusLocalization,2021.2.3,60.03326698584126,
floor.wav,floor.mpg,floor,1,AV,Pink_Noise_1_1.wav,Pink_Noise_1_2.wav,,,,,,,,,,,,,,,0,12,12,62,,,,,,,,,,,,,,,,,,,,,,,330.2524958169088,None,331.75204742513597,None,333.13562570512295,None,floor,333.13562570512295,None,return,4.673210491426289,333.21900524478406,None,,,,,,,,,,,,,,,,,,,,,,,,,,,,,,,,,,,,,,,175,001,2024_Mar_05_1219,SpeechDraft1Carolyn_lessNoise_PlusLocalization,2021.2.3,60.03326698584126,
grunt.wav,grunt.mpg,grunt,5,A,Pink_Noise_5_1.wav,Pink_Noise_5_2.wav,,,,,,,,,,,,,,,0,13,13,46,,,,,,,,,,,,,,,,,,,,,,,337.919075390324,None,339.4187568174675,None,340.80238217301667,None,brush,340.80238217301667,None,return,1.8384510027244687,340.8856376707554,None,,,,,,,,,,,,,,,,,,,,,,,,,,,,,,,,,,,,,,,175,001,2024_Mar_05_1219,SpeechDraft1Carolyn_lessNoise_PlusLocalization,2021.2.3,60.03326698584126,
flush.wav,flush.mpg,flush,2,AV,Pink_Noise_2_1.wav,Pink_Noise_2_2.wav,,,,,,,,,,,,,,,0,14,14,78,,,,,,,,,,,,,,,,,,,,,,,342.75232024211437,None,344.2522454680875,None,345.63562704250216,None,"flush
",345.63562704250216,None,return,1.085049162618816,345.71897902339697,None,,,,,,,,,,,,,,,,,,,,,,,,,,,,,,,,,,,,,,,175,001,2024_Mar_05_1219,SpeechDraft1Carolyn_lessNoise_PlusLocalization,2021.2.3,60.03326698584126,
choke.wav,choke.mpg,choke,5,AV,Pink_Noise_5_1.wav,Pink_Noise_5_2.wav,,,,,,,,,,,,,,,0,15,15,71,,,,,,,,,,,,,,,,,,,,,,,346.83585648145527,None,348.3354111164808,None,349.718758280389,None,church,349.718758280389,None,return,1.2817554725334048,349.80235614441335,None,,,,,,,,,,,,,,,,,,,,,,,,,,,,,,,,,,,,,,,175,001,2024_Mar_05_1219,SpeechDraft1Carolyn_lessNoise_PlusLocalization,2021.2.3,60.03326698584126,
beach.wav,beach.mpg,beach,3,A,Pink_Noise_3_1.wav,Pink_Noise_3_2.wav,,,,,,,,,,,,,,,0,16,16,10,,,,,,,,,,,,,,,,,,,,,,,351.1023401133716,None,352.602044608444,None,353.9858077187091,None,beach,353.9858077187091,None,return,1.0710344342514873,354.06900518294424,None,,,,,,,,,,,,,,,,,,,,,,,,,,,,,,,,,,,,,,,175,001,2024_Mar_05_1219,SpeechDraft1Carolyn_lessNoise_PlusLocalization,2021.2.3,60.03326698584126,
sock.wav,sock.mpg,sock,3,A,Pink_Noise_3_1.wav,Pink_Noise_3_2.wav,,,,,,,,,,,,,,,0,17,17,44,,,,,,,,,,,,,,,,,,,,,,,355.1690536830574,None,356.66868660226464,None,358.0523909730837,None,"sock
",358.0523909730837,None,return,1.0203568544238806,358.135676166974,None,,,,,,,,,,,,,,,,,,,,,,,,,,,,,,,,,,,,,,,175,001,2024_Mar_05_1219,SpeechDraft1Carolyn_lessNoise_PlusLocalization,2021.2.3,60.03326698584126,
giant.wav,giant.mpg,giant,1,A,Pink_Noise_1_1.wav,Pink_Noise_1_2.wav,,,,,,,,,,,,,,,0,18,18,57,,,,,,,,,,,,,,,,,,,,,,,359.18564071971923,None,360.6855231234804,None,362.06906866654754,None,giant,362.06906866654754,None,return,0.9156887736171484,362.1523827780038,None,,,,,,,,,,,,,,,,,,,,,,,,,,,,,,,,,,,,,,,175,001,2024_Mar_05_1219,SpeechDraft1Carolyn_lessNoise_PlusLocalization,2021.2.3,60.03326698584126,
budge.wav,budge.mpg,budge,4,A,Pink_Noise_4_1.wav,Pink_Noise_4_2.wav,,,,,,,,,,,,,,,0,19,19,3,,,,,,,,,,,,,,,,,,,,,,,363.0856813173741,None,364.5853767422959,None,365.9691025065258,None,flush,365.9691025065258,None,return,1.3596200766041875,366.05238694511354,None,,,,,,,,,,,,,,,,,,,,,,,,,,,,,,,,,,,,,,,175,001,2024_Mar_05_1219,SpeechDraft1Carolyn_lessNoise_PlusLocalization,2021.2.3,60.03326698584126,
bat.wav,bat.mpg,bat,2,A,Pink_Noise_2_1.wav,Pink_Noise_2_2.wav,,,,,,,,,,,,,,,0,20,20,27,,,,,,,,,,,,,,,,,,,,,,,367.4357458250597,None,368.9354152539745,None,370.318972078152,None,bet,370.318972078152,None,return,2.057643426582217,370.402406857349,None,,,,,,,,,,,,,,,,,,,,,,,,,,,,,,,,,,,,,,,175,001,2024_Mar_05_1219,SpeechDraft1Carolyn_lessNoise_PlusLocalization,2021.2.3,60.03326698584126,
cork.wav,cork.mpg,cork,3,AV,Pink_Noise_3_1.wav,Pink_Noise_3_2.wav,,,,,,,,,,,,,,,0,21,21,75,,,,,,,,,,,,,,,,,,,,,,,372.48572584427893,None,373.985480196774,None,375.3689419059083,None,cork,375.3689419059083,None,return,4.623787146992981,375.45235238131136,None,,,,,,,,,,,,,,,,,,,,,,,,,,,,,,,,,,,,,,,175,001,2024_Mar_05_1219,SpeechDraft1Carolyn_lessNoise_PlusLocalization,2021.2.3,60.03326698584126,
dock.wav,dock.mpg,dock,6,A,Pink_Noise_6_1.wav,Pink_Noise_6_2.wav,,,,,,,,,,,,,,,0,22,22,0,,,,,,,,,,,,,,,,,,,,,,,380.1023987736553,None,381.6021424662322,None,382.9857393661514,None,"torch
",382.9857393661514,None,return,2.9028969733044505,383.0691313389689,None,,,,,,,,,,,,,,,,,,,,,,,,,,,,,,,,,,,,,,,175,001,2024_Mar_05_1219,SpeechDraft1Carolyn_lessNoise_PlusLocalization,2021.2.3,60.03326698584126,
calm.wav,calm.mpg,calm,5,A,Pink_Noise_5_1.wav,Pink_Noise_5_2.wav,,,,,,,,,,,,,,,0,23,23,23,,,,,,,,,,,,,,,,,,,,,,,386.0023666890338,None,387.5021305633709,None,388.88587813451886,None,paw,388.88587813451886,None,return,1.0268953824415803,388.9691368211061,None,,,,,,,,,,,,,,,,,,,,,,,,,,,,,,,,,,,,,,,175,001,2024_Mar_05_1219,SpeechDraft1Carolyn_lessNoise_PlusLocalization,2021.2.3,60.03326698584126,
freak.wav,freak.mpg,freak,4,A,Pink_Noise_4_1.wav,Pink_Noise_4_2.wav,,,,,,,,,,,,,,,0,24,24,21,,,,,,,,,,,,,,,,,,,,,,,390.0190853588283,None,391.5189348887652,None,392.9024797594175,None,breath,392.9024797594175,None,return,6.010324854403734,392.9857408264652,None,,,,,,,,,,,,,,,,,,,,,,,,,,,,,,,,,,,,,,,175,001,2024_Mar_05_1219,SpeechDraft1Carolyn_lessNoise_PlusLocalization,2021.2.3,60.03326698584126,
dumb.wav,dumb.mpg,dumb,5,A,Pink_Noise_5_1.wav,Pink_Noise_5_2.wav,,,,,,,,,,,,,,,0,25,25,31,,,,,,,,,,,,,,,,,,,,,,,399.01912256795913,None,400.5188839016482,None,401.9023386556655,None,shush,401.9023386556655,None,return,2.5142124108970165,401.98581652808934,None,,,,,,,,,,,,,,,,,,,,,,,,,,,,,,,,,,,,,,,175,001,2024_Mar_05_1219,SpeechDraft1Carolyn_lessNoise_PlusLocalization,2021.2.3,60.03326698584126,
clam.wav,clam.mpg,clam,3,A,Pink_Noise_3_1.wav,Pink_Noise_3_2.wav,,,,,,,,,,,,,,,0,26,26,16,,,,,,,,,,,,,,,,,,,,,,,404.51923166401684,None,406.01885596010834,None,407.40245282277465,None,"clam
",407.40245282277465,None,return,1.8862460162490606,407.48578212875873,None,,,,,,,,,,,,,,,,,,,,,,,,,,,,,,,,,,,,,,,175,001,2024_Mar_05_1219,SpeechDraft1Carolyn_lessNoise_PlusLocalization,2021.2.3,60.03326698584126,
cord.wav,cord.mpg,cord,1,A,Pink_Noise_1_1.wav,Pink_Noise_1_2.wav,,,,,,,,,,,,,,,0,27,27,37,,,,,,,,,,,,,,,,,,,,,,,409.4023769311607,None,410.90218213386834,None,412.2858075229451,None,"chord
",412.2858075229451,None,return,1.0669305613264441,412.3691069930792,None,,,,,,,,,,,,,,,,,,,,,,,,,,,,,,,,,,,,,,,175,001,2024_Mar_05_1219,SpeechDraft1Carolyn_lessNoise_PlusLocalization,2021.2.3,60.03326698584126,
cleft.wav,cleft.mpg,cleft,5,A,Pink_Noise_5_1.wav,Pink_Noise_5_2.wav,,,,,,,,,,,,,,,0,28,28,29,,,,,,,,,,,,,,,,,,,,,,,413.469081514515,None,414.96895725280046,None,416.35235242638737,None,flesh,416.35235242638737,None,return,5.192015124484897,416.4360012039542,None,,,,,,,,,,,,,,,,,,,,,,,,,,,,,,,,,,,,,,,175,001,2024_Mar_05_1219,SpeechDraft1Carolyn_lessNoise_PlusLocalization,2021.2.3,60.03326698584126,
clog.wav,clog.mpg,clog,5,AV,Pink_Noise_5_1.wav,Pink_Noise_5_2.wav,,,,,,,,,,,,,,,0,29,29,91,,,,,,,,,,,,,,,,,,,,,,,421.6526258215308,None,423.1522556077689,None,424.535810704343,None,sign,424.535810704343,None,return,2.336846855469048,424.6191852465272,None,,,,,,,,,,,,,,,,,,,,,,,,,,,,,,,,,,,,,,,175,001,2024_Mar_05_1219,SpeechDraft1Carolyn_lessNoise_PlusLocalization,2021.2.3,60.03326698584126,
pipe.wav,pipe.mpg,pipe,6,A,Pink_Noise_6_1.wav,Pink_Noise_6_2.wav,,,,,,,,,,,,,,,0,30,30,28,,,,,,,,,,,,,,,,,,,,,,,426.9858052562922,None,428.4855777518824,None,429.8695126408711,None,"pitch
",429.8695126408711,None,return,2.603466473519802,429.952552748844,None,,,,,,,,,,,,,,,,,,,,,,,,,,,,,,,,,,,,,,,175,001,2024_Mar_05_1219,SpeechDraft1Carolyn_lessNoise_PlusLocalization,2021.2.3,60.03326698584126,
flick.wav,flick.mpg,flick,1,A,Pink_Noise_1_1.wav,Pink_Noise_1_2.wav,,,,,,,,,,,,,,,0,31,31,35,,,,,,,,,,,,,,,,,,,,,,,432.58587186969817,None,434.0856048250571,None,435.46915392484516,None,flick,435.46915392484516,None,return,1.0436253463849425,435.552390107885,None,,,,,,,,,,,,,,,,,,,,,,,,,,,,,,,,,,,,,,,175,001,2024_Mar_05_1219,SpeechDraft1Carolyn_lessNoise_PlusLocalization,2021.2.3,60.03326698584126,
grant.wav,grant.mpg,grant,3,A,Pink_Noise_3_1.wav,Pink_Noise_3_2.wav,,,,,,,,,,,,,,,0,32,32,45,,,,,,,,,,,,,,,,,,,,,,,436.6191893881187,None,438.11900760699064,None,439.50252616778016,None,"grant
",439.50252616778016,None,return,1.4021310862153769,439.58590610791,None,,,,,,,,,,,,,,,,,,,,,,,,,,,,,,,,,,,,,,,175,001,2024_Mar_05_1219,SpeechDraft1Carolyn_lessNoise_PlusLocalization,2021.2.3,60.03326698584126,
bad.wav,bad.mpg,bad,1,AV,Pink_Noise_1_1.wav,Pink_Noise_1_2.wav,,,,,,,,,,,,,,,0,33,33,87,,,,,,,,,,,,,,,,,,,,,,,441.0191466398537,None,442.51902692671865,None,443.9023725539446,None,bad,443.9023725539446,None,return,0.7462307624518871,443.9858400961384,None,,,,,,,,,,,,,,,,,,,,,,,,,,,,,,,,,,,,,,,175,001,2024_Mar_05_1219,SpeechDraft1Carolyn_lessNoise_PlusLocalization,2021.2.3,60.03326698584126,
forth.wav,forth.mpg,forth,6,A,Pink_Noise_6_1.wav,Pink_Noise_6_2.wav,,,,,,,,,,,,,,,0,34,34,8,,,,,,,,,,,,,,,,,,,,,,,444.75272169616073,None,446.2522533228621,None,447.6358306687325,None,fish,447.6358306687325,None,return,1.0928489193320274,447.7191831115633,None,,,,,,,,,,,,,,,,,,,,,,,,,,,,,,,,,,,,,,,175,001,2024_Mar_05_1219,SpeechDraft1Carolyn_lessNoise_PlusLocalization,2021.2.3,60.03326698584126,
coast.wav,coast.mpg,coast,2,AV,Pink_Noise_2_1.wav,Pink_Noise_2_2.wav,,,,,,,,,,,,,,,0,35,35,72,,,,,,,,,,,,,,,,,,,,,,,448.8359425254166,None,450.33553901314735,None,451.71920130122453,None,"coast
",451.71920130122453,None,return,1.7854789793491364,451.80255093611777,None,,,,,,,,,,,,,,,,,,,,,,,,,,,,,,,,,,,,,,,175,001,2024_Mar_05_1219,SpeechDraft1Carolyn_lessNoise_PlusLocalization,2021.2.3,60.03326698584126,
clerk.wav,clerk.mpg,clerk,4,AV,Pink_Noise_4_1.wav,Pink_Noise_4_2.wav,,,,,,,,,,,,,,,0,36,36,109,,,,,,,,,,,,,,,,,,,,,,,453.6191847557202,None,455.1189286308363,None,456.5024704011157,None,cook,456.5024704011157,None,return,2.1141572603955865,456.5858863638714,None,,,,,,,,,,,,,,,,,,,,,,,,,,,,,,,,,,,,,,,175,001,2024_Mar_05_1219,SpeechDraft1Carolyn_lessNoise_PlusLocalization,2021.2.3,60.03326698584126,
fake.wav,fake.mpg,fake,4,A,Pink_Noise_4_1.wav,Pink_Noise_4_2.wav,,,,,,,,,,,,,,,0,37,37,58,,,,,,,,,,,,,,,,,,,,,,,458.71934303082526,None,460.21910174004734,None,461.6025607958436,None,"fish
",461.6025607958436,None,return,1.2222068663686514,461.6857915306464,None,,,,,,,,,,,,,,,,,,,,,,,,,,,,,,,,,,,,,,,175,001,2024_Mar_05_1219,SpeechDraft1Carolyn_lessNoise_PlusLocalization,2021.2.3,60.03326698584126,
cold.wav,cold.mpg,cold,2,AV,Pink_Noise_2_1.wav,Pink_Noise_2_2.wav,,,,,,,,,,,,,,,0,38,38,104,,,,,,,,,,,,,,,,,,,,,,,462.9525135187432,None,464.4522706065327,None,465.8357764557004,None,cold,465.8357764557004,None,return,0.6128990296274424,465.9192177159712,None,,,,,,,,,,,,,,,,,,,,,,,,,,,,,,,,,,,,,,,175,001,2024_Mar_05_1219,SpeechDraft1Carolyn_lessNoise_PlusLocalization,2021.2.3,60.03326698584126,
crack.wav,crack.mpg,crack,3,AV,Pink_Noise_3_1.wav,Pink_Noise_3_2.wav,,,,,,,,,,,,,,,0,39,39,94,,,,,,,,,,,,,,,,,,,,,,,466.55250811297446,None,468.06881542224437,None,469.45257555227727,None,crack,469.45257555227727,None,return,1.1241028793156147,469.53591025806963,None,,,,,,,,,,,,,,,,,,,,,,,,,,,,,,,,,,,,,,,175,001,2024_Mar_05_1219,SpeechDraft1Carolyn_lessNoise_PlusLocalization,2021.2.3,60.03326698584126,
bloom.wav,bloom.mpg,bloom,2,AV,Pink_Noise_2_1.wav,Pink_Noise_2_2.wav,,,,,,,,,,,,,,,0,40,40,76,,,,,,,,,,,,,,,,,,,,,,,470.6859050290659,None,472.185564131476,None,473.5691214557737,None,blue,473.5691214557737,None,return,0.8316340213641524,473.6525002103299,None,,,,,,,,,,,,,,,,,,,,,,,,,,,,,,,,,,,,,,,175,001,2024_Mar_05_1219,SpeechDraft1Carolyn_lessNoise_PlusLocalization,2021.2.3,60.03326698584126,
brisk.wav,brisk.mpg,brisk,3,A,Pink_Noise_3_1.wav,Pink_Noise_3_2.wav,,,,,,,,,,,,,,,0,41,41,39,,,,,,,,,,,,,,,,,,,,,,,474.50247549824417,None,476.0022573461756,None,477.3863745322451,None,risk,477.3863745322451,None,return,0.5587228192016482,477.4692944372073,None,,,,,,,,,,,,,,,,,,,,,,,,,,,,,,,,,,,,,,,175,001,2024_Mar_05_1219,SpeechDraft1Carolyn_lessNoise_PlusLocalization,2021.2.3,60.03326698584126,
glove.wav,glove.mpg,glove,1,AV,Pink_Noise_1_1.wav,Pink_Noise_1_2.wav,,,,,,,,,,,,,,,0,42,42,92,,,,,,,,,,,,,,,,,,,,,,,478.05254107527435,None,479.5522713428363,None,480.9357999647036,None,"glove
",480.9357999647036,None,return,6.816761578433216,481.01926835346967,None,,,,,,,,,,,,,,,,,,,,,,,,,,,,,,,,,,,,,,,175,001,2024_Mar_05_1219,SpeechDraft1Carolyn_lessNoise_PlusLocalization,2021.2.3,60.03326698584126,
paid.wav,paid.mpg,paid,4,A,Pink_Noise_4_1.wav,Pink_Noise_4_2.wav,,,,,,,,,,,,,,,0,43,43,43,,,,,,,,,,,,,,,,,,,,,,,487.869173922576,None,489.36898210365325,None,490.7525189332664,None,"change
",490.7525189332664,None,return,3.352112798951566,490.8359161010012,None,,,,,,,,,,,,,,,,,,,,,,,,,,,,,,,,,,,,,,,175,001,2024_Mar_05_1219,SpeechDraft1Carolyn_lessNoise_PlusLocalization,2021.2.3,60.03326698584126,
crisp.wav,crisp.mpg,crisp,6,AV,Pink_Noise_6_1.wav,Pink_Noise_6_2.wav,,,,,,,,,,,,,,,0,44,44,119,,,,,,,,,,,,,,,,,,,,,,,494.21920030284673,None,495.71886248420924,None,497.1024250248447,None,crisp,497.1024250248447,None,return,1.466115003451705,497.1859578518197,None,,,,,,,,,,,,,,,,,,,,,,,,,,,,,,,,,,,,,,,175,001,2024_Mar_05_1219,SpeechDraft1Carolyn_lessNoise_PlusLocalization,2021.2.3,60.03326698584126,
dry.wav,dry.mpg,dry,1,A,Pink_Noise_1_1.wav,Pink_Noise_1_2.wav,,,,,,,,,,,,,,,0,45,45,24,,,,,,,,,,,,,,,,,,,,,,,498.6694208784029,None,500.16932126227766,None,501.5533519014716,None,dry,501.5533519014716,None,return,1.0722874850034714,501.63584520015866,None,,,,,,,,,,,,,,,,,,,,,,,,,,,,,,,,,,,,,,,175,001,2024_Mar_05_1219,SpeechDraft1Carolyn_lessNoise_PlusLocalization,2021.2.3,60.03326698584126,
curl.wav,curl.mpg,curl,5,A,Pink_Noise_5_1.wav,Pink_Noise_5_2.wav,,,,,,,,,,,,,,,0,46,46,26,,,,,,,,,,,,,,,,,,,,,,,502.7359332945198,None,504.2357064411044,None,505.6192335067317,None,"froze
",505.6192335067317,None,return,2.9014908699318767,505.70252965949476,None,,,,,,,,,,,,,,,,,,,,,,,,,,,,,,,,,,,,,,,175,001,2024_Mar_05_1219,SpeechDraft1Carolyn_lessNoise_PlusLocalization,2021.2.3,60.03326698584126,
blur.wav,blur.mpg,blur,1,A,Pink_Noise_1_1.wav,Pink_Noise_1_2.wav,,,,,,,,,,,,,,,0,47,47,32,,,,,,,,,,,,,,,,,,,,,,,508.63595543429255,None,510.1357980640605,None,511.5193591080606,None,blur,511.5193591080606,None,return,10.409384496510029,511.60263678245246,None,,,,,,,,,,,,,,,,,,,,,,,,,,,,,,,,,,,,,,,175,001,2024_Mar_05_1219,SpeechDraft1Carolyn_lessNoise_PlusLocalization,2021.2.3,60.03326698584126,
bin.wav,bin.mpg,bin,2,A,Pink_Noise_2_1.wav,Pink_Noise_2_2.wav,,,,,,,,,,,,,,,0,48,48,4,,,,,,,,,,,,,,,,,,,,,,,522.0359087251127,None,523.5357128195465,None,524.9192627239972,None,fin,524.9192627239972,None,return,7.073509053327143,525.0025610011071,None,,,,,,,,,,,,,,,,,,,,,,,,,,,,,,,,,,,,,,,175,001,2024_Mar_05_1219,SpeechDraft1Carolyn_lessNoise_PlusLocalization,2021.2.3,60.03326698584126,
wind.wav,wind.mpg,wind,1,A,Pink_Noise_1_1.wav,Pink_Noise_1_2.wav,,,,,,,,,,,,,,,0,49,49,34,,,,,,,,,,,,,,,,,,,,,,,532.1026916131377,None,533.6022956380621,None,534.985947621055,None,wind,534.985947621055,None,return,7.9747328935191035,535.0693074781448,None,,,,,,,,,,,,,,,,,,,,,,,,,,,,,,,,,,,,,,,175,001,2024_Mar_05_1219,SpeechDraft1Carolyn_lessNoise_PlusLocalization,2021.2.3,60.03326698584126,
grain.wav,grain.mpg,grain,4,A,Pink_Noise_4_1.wav,Pink_Noise_4_2.wav,,,,,,,,,,,,,,,0,50,50,1,,,,,,,,,,,,,,,,,,,,,,,543.0694763120264,None,544.569156578742,None,545.9525999557227,None,rain,545.9525999557227,None,return,3.0242068842053413,546.0359385916963,None,,,,,,,,,,,,,,,,,,,,,,,,,,,,,,,,,,,,,,,175,001,2024_Mar_05_1219,SpeechDraft1Carolyn_lessNoise_PlusLocalization,2021.2.3,60.03326698584126,
layer.wav,layer.mpg,layer,4,A,Pink_Noise_4_1.wav,Pink_Noise_4_2.wav,,,,,,,,,,,,,,,0,51,51,22,,,,,,,,,,,,,,,,,,,,,,,549.0860617971048,None,550.6024296246469,None,551.9861922739074,None,giant,551.9861922739074,None,return,7.398797579109669,552.0692970650271,None,,,,,,,,,,,,,,,,,,,,,,,,,,,,,,,,,,,,,,,175,001,2024_Mar_05_1219,SpeechDraft1Carolyn_lessNoise_PlusLocalization,2021.2.3,60.03326698584126,
batch.wav,batch.mpg,batch,2,A,Pink_Noise_2_1.wav,Pink_Noise_2_2.wav,,,,,,,,,,,,,,,0,52,52,49,,,,,,,,,,,,,,,,,,,,,,,559.4859521146864,None,561.0024668583646,None,562.3861367078498,None,batch,562.3861367078498,None,return,1.5744774863123894,562.4695879314095,None,,,,,,,,,,,,,,,,,,,,,,,,,,,,,,,,,,,,,,,175,001,2024_Mar_05_1219,SpeechDraft1Carolyn_lessNoise_PlusLocalization,2021.2.3,60.03326698584126,
crash.wav,crash.mpg,crash,4,AV,Pink_Noise_4_1.wav,Pink_Noise_4_2.wav,,,,,,,,,,,,,,,0,53,53,96,,,,,,,,,,,,,,,,,,,,,,,564.0694087184966,None,565.5691029988229,None,566.952599696815,None,crash,566.952599696815,None,return,1.5039633959531784,567.0360681451857,None,,,,,,,,,,,,,,,,,,,,,,,,,,,,,,,,,,,,,,,175,001,2024_Mar_05_1219,SpeechDraft1Carolyn_lessNoise_PlusLocalization,2021.2.3,60.03326698584126,
thrown.wav,thrown.mpg,thrown,6,AV,Pink_Noise_6_1.wav,Pink_Noise_6_2.wav,,,,,,,,,,,,,,,0,54,54,85,,,,,,,,,,,,,,,,,,,,,,,568.56935330946,None,570.0690355598927,None,571.4527777768672,None,throw,571.4527777768672,None,return,1.2279799999669194,571.5360655579716,None,,,,,,,,,,,,,,,,,,,,,,,,,,,,,,,,,,,,,,,175,001,2024_Mar_05_1219,SpeechDraft1Carolyn_lessNoise_PlusLocalization,2021.2.3,60.03326698584126,
bomb.wav,bomb.mpg,bomb,3,AV,Pink_Noise_3_1.wav,Pink_Noise_3_2.wav,,,,,,,,,,,,,,,0,55,55,98,,,,,,,,,,,,,,,,,,,,,,,572.785989263095,None,574.285745376721,None,575.6692897435278,None,bomb,575.6692897435278,None,return,1.379240813665092,575.7527908105403,None,,,,,,,,,,,,,,,,,,,,,,,,,,,,,,,,,,,,,,,175,001,2024_Mar_05_1219,SpeechDraft1Carolyn_lessNoise_PlusLocalization,2021.2.3,60.03326698584126,
fee.wav,fee.mpg,fee,2,AV,Pink_Noise_2_1.wav,Pink_Noise_2_2.wav,,,,,,,,,,,,,,,0,56,56,102,,,,,,,,,,,,,,,,,,,,,,,577.1526493579149,None,578.652807594277,None,580.0358442580327,None,fee,580.0358442580327,None,return,0.8446718454360962,580.1193472389132,None,,,,,,,,,,,,,,,,,,,,,,,,,,,,,,,,,,,,,,,175,001,2024_Mar_05_1219,SpeechDraft1Carolyn_lessNoise_PlusLocalization,2021.2.3,60.03326698584126,
quest.wav,quest.mpg,quest,1,AV,Pink_Noise_1_1.wav,Pink_Noise_1_2.wav,,,,,,,,,,,,,,,0,57,57,110,,,,,,,,,,,,,,,,,,,,,,,580.9861416909844,None,582.4872167026624,None,583.8693092949688,None,quest,583.8693092949688,None,return,3.8433058923110366,583.9527084277943,None,,,,,,,,,,,,,,,,,,,,,,,,,,,,,,,,,,,,,,,175,001,2024_Mar_05_1219,SpeechDraft1Carolyn_lessNoise_PlusLocalization,2021.2.3,60.03326698584126,
camp.wav,camp.mpg,camp,3,A,Pink_Noise_3_1.wav,Pink_Noise_3_2.wav,,,,,,,,,,,,,,,0,58,58,5,,,,,,,,,,,,,,,,,,,,,,,587.8194626653567,None,589.3191512022167,None,590.7028031535447,None,kill,590.7028031535447,None,return,19.249810948967934,590.7862409744412,None,,,,,,,,,,,,,,,,,,,,,,,,,,,,,,,,,,,,,,,175,001,2024_Mar_05_1219,SpeechDraft1Carolyn_lessNoise_PlusLocalization,2021.2.3,60.03326698584126,
chin.wav,chin.mpg,chin,6,AV,Pink_Noise_6_1.wav,Pink_Noise_6_2.wav,,,,,,,,,,,,,,,0,59,59,64,,,,,,,,,,,,,,,,,,,,,,,610.0528213195503,None,611.5524528156966,None,612.9359676064923,None,chain,612.9359676064923,None,return,3.6645315531641245,613.0195104302838,None,,,,,,,,,,,,,,,,,,,,,,,,,,,,,,,,,,,,,,,175,001,2024_Mar_05_1219,SpeechDraft1Carolyn_lessNoise_PlusLocalization,2021.2.3,60.03326698584126,
deck.wav,deck.mpg,deck,3,A,Pink_Noise_3_1.wav,Pink_Noise_3_2.wav,,,,,,,,,,,,,,,0,60,60,53,,,,,,,,,,,,,,,,,,,,,,,616.7028177380562,None,618.202378179878,None,619.5861107874662,None,deck,619.5861107874662,None,return,0.9425552561879158,619.6694594053552,None,,,,,,,,,,,,,,,,,,,,,,,,,,,,,,,,,,,,,,,175,001,2024_Mar_05_1219,SpeechDraft1Carolyn_lessNoise_PlusLocalization,2021.2.3,60.03326698584126,
strive.wav,strive.mpg,strive,6,A,Pink_Noise_6_1.wav,Pink_Noise_6_2.wav,,,,,,,,,,,,,,,0,61,61,30,,,,,,,,,,,,,,,,,,,,,,,620.6360710328445,None,622.152456172742,None,623.5362598337233,None,flee,623.5362598337233,None,return,1.280743470415473,623.6193613316864,None,,,,,,,,,,,,,,,,,,,,,,,,,,,,,,,,,,,,,,,175,001,2024_Mar_05_1219,SpeechDraft1Carolyn_lessNoise_PlusLocalization,2021.2.3,60.03326698584126,
frost.wav,frost.mpg,frost,5,AV,Pink_Noise_5_1.wav,Pink_Noise_5_2.wav,,,,,,,,,,,,,,,0,62,62,99,,,,,,,,,,,,,,,,,,,,,,,624.9194752443582,None,626.4191155554727,None,627.8026967849582,None,"frost
",627.8026967849582,None,return,1.1179391210898757,627.8860833067447,None,,,,,,,,,,,,,,,,,,,,,,,,,,,,,,,,,,,,,,,175,001,2024_Mar_05_1219,SpeechDraft1Carolyn_lessNoise_PlusLocalization,2021.2.3,60.03326698584126,
climb.wav,climb.mpg,climb,2,A,Pink_Noise_2_1.wav,Pink_Noise_2_2.wav,,,,,,,,,,,,,,,0,63,63,14,,,,,,,,,,,,,,,,,,,,,,,629.0360862221569,None,630.5524803809822,None,631.9360818797722,None,"climb
",631.9360818797722,None,return,7.584640055894852,632.0193797694519,None,,,,,,,,,,,,,,,,,,,,,,,,,,,,,,,,,,,,,,,175,001,2024_Mar_05_1219,SpeechDraft1Carolyn_lessNoise_PlusLocalization,2021.2.3,60.03326698584126,
cross.wav,cross.mpg,cross,2,A,Pink_Noise_2_1.wav,Pink_Noise_2_2.wav,,,,,,,,,,,,,,,0,64,64,15,,,,,,,,,,,,,,,,,,,,,,,639.6360297817737,None,641.1523922616616,None,642.5362339904532,None,cross,642.5362339904532,None,return,1.12852796446532,642.6195438839495,None,,,,,,,,,,,,,,,,,,,,,,,,,,,,,,,,,,,,,,,175,001,2024_Mar_05_1219,SpeechDraft1Carolyn_lessNoise_PlusLocalization,2021.2.3,60.03326698584126,
chill.wav,chill.mpg,chill,3,AV,Pink_Noise_3_1.wav,Pink_Noise_3_2.wav,,,,,,,,,,,,,,,0,65,65,95,,,,,,,,,,,,,,,,,,,,,,,643.7693473659456,None,645.2707264097407,None,646.6527204792947,None,chil,646.6527204792947,None,return,0.8919544657692313,646.7360709654167,None,,,,,,,,,,,,,,,,,,,,,,,,,,,,,,,,,,,,,,,175,001,2024_Mar_05_1219,SpeechDraft1Carolyn_lessNoise_PlusLocalization,2021.2.3,60.03326698584126,
buzz.wav,buzz.mpg,buzz,5,AV,Pink_Noise_5_1.wav,Pink_Noise_5_2.wav,,,,,,,,,,,,,,,0,66,66,90,,,,,,,,,,,,,,,,,,,,,,,647.6527411164716,None,649.1693108808249,None,650.5361680621281,None,"buzz
",650.5361680621281,None,return,7.168491796590388,650.6195513969287,None,,,,,,,,,,,,,,,,,,,,,,,,,,,,,,,,,,,,,,,175,001,2024_Mar_05_1219,SpeechDraft1Carolyn_lessNoise_PlusLocalization,2021.2.3,60.03326698584126,
brief.wav,brief.mpg,brief,6,A,Pink_Noise_6_1.wav,Pink_Noise_6_2.wav,,,,,,,,,,,,,,,0,67,67,40,,,,,,,,,,,,,,,,,,,,,,,657.8193948967382,None,659.3191159972921,None,660.7028083819896,None,tree,660.7028083819896,None,return,5.065839619375765,660.7862183982506,None,,,,,,,,,,,,,,,,,,,,,,,,,,,,,,,,,,,,,,,175,001,2024_Mar_05_1219,SpeechDraft1Carolyn_lessNoise_PlusLocalization,2021.2.3,60.03326698584126,
clot.wav,clot.mpg,clot,5,A,Pink_Noise_5_1.wav,Pink_Noise_5_2.wav,,,,,,,,,,,,,,,0,68,68,56,,,,,,,,,,,,,,,,,,,,,,,665.8695285022259,None,667.3859303072095,None,668.7695866115391,None,flayt,668.7695866115391,None,return,1.2313150651752949,668.8527132933959,None,,,,,,,,,,,,,,,,,,,,,,,,,,,,,,,,,,,,,,,175,001,2024_Mar_05_1219,SpeechDraft1Carolyn_lessNoise_PlusLocalization,2021.2.3,60.03326698584126,
crane.wav,crane.mpg,crane,5,A,Pink_Noise_5_1.wav,Pink_Noise_5_2.wav,,,,,,,,,,,,,,,0,69,69,59,,,,,,,,,,,,,,,,,,,,,,,670.102954137139,None,671.602651135996,None,672.9861751794815,None,breath,672.9861751794815,None,return,2.462469970807433,673.0695667490363,None,,,,,,,,,,,,,,,,,,,,,,,,,,,,,,,,,,,,,,,175,001,2024_Mar_05_1219,SpeechDraft1Carolyn_lessNoise_PlusLocalization,2021.2.3,60.03326698584126,
beg.wav,beg.mpg,beg,3,A,Pink_Noise_3_1.wav,Pink_Noise_3_2.wav,,,,,,,,,,,,,,,0,70,70,11,,,,,,,,,,,,,,,,,,,,,,,675.5529428627342,None,677.069124118425,None,678.4529037652537,None,bath,678.4529037652537,None,return,1.2598426090553403,678.5361668718979,None,,,,,,,,,,,,,,,,,,,,,,,,,,,,,,,,,,,,,,,175,001,2024_Mar_05_1219,SpeechDraft1Carolyn_lessNoise_PlusLocalization,2021.2.3,60.03326698584126,
freeze.wav,freeze.mpg,freeze,3,AV,Pink_Noise_3_1.wav,Pink_Noise_3_2.wav,,,,,,,,,,,,,,,0,71,71,115,,,,,,,,,,,,,,,,,,,,,,,679.8196456190199,None,681.3359027449042,None,682.7196467667818,None,freeze,682.7196467667818,None,return,2.9612197345122695,682.8028207784519,None,,,,,,,,,,,,,,,,,,,,,,,,,,,,,,,,,,,,,,,175,001,2024_Mar_05_1219,SpeechDraft1Carolyn_lessNoise_PlusLocalization,2021.2.3,60.03326698584126,
pact.wav,pact.mpg,pact,2,A,Pink_Noise_2_1.wav,Pink_Noise_2_2.wav,,,,,,,,,,,,,,,0,72,72,18,,,,,,,,,,,,,,,,,,,,,,,685.7862255554646,None,687.2862326549366,None,688.6694678356871,None,oact,688.6694678356871,None,return,1.4912055116146803,688.7528535407037,None,,,,,,,,,,,,,,,,,,,,,,,,,,,,,,,,,,,,,,,175,001,2024_Mar_05_1219,SpeechDraft1Carolyn_lessNoise_PlusLocalization,2021.2.3,60.03326698584126,
strike.wav,strike.mpg,strike,6,AV,Pink_Noise_6_1.wav,Pink_Noise_6_2.wav,,,,,,,,,,,,,,,0,73,73,82,,,,,,,,,,,,,,,,,,,,,,,690.2695318479091,None,691.8026035660878,None,693.1860832488164,None,try,693.1860832488164,None,return,1.9985561231151223,693.2695566155016,None,,,,,,,,,,,,,,,,,,,,,,,,,,,,,,,,,,,,,,,175,001,2024_Mar_05_1219,SpeechDraft1Carolyn_lessNoise_PlusLocalization,2021.2.3,60.03326698584126,
four.wav,four.mpg,four,5,AV,Pink_Noise_5_1.wav,Pink_Noise_5_2.wav,,,,,,,,,,,,,,,0,74,74,107,,,,,,,,,,,,,,,,,,,,,,,695.2861395487562,None,696.8025790620595,None,698.1861487431452,None,"full
",698.1861487431452,None,return,9.934603211469948,698.2694184556603,None,,,,,,,,,,,,,,,,,,,,,,,,,,,,,,,,,,,,,,,175,001,2024_Mar_05_1219,SpeechDraft1Carolyn_lessNoise_PlusLocalization,2021.2.3,60.03326698584126,
chant.wav,chant.mpg,chant,4,A,Pink_Noise_4_1.wav,Pink_Noise_4_2.wav,,,,,,,,,,,,,,,0,75,75,50,,,,,,,,,,,,,,,,,,,,,,,708.2362153287977,None,709.7525536706671,None,711.1362413670868,None,chest,711.1362413670868,None,return,2.1764434492215514,711.2195857651532,None,,,,,,,,,,,,,,,,,,,,,,,,,,,,,,,,,,,,,,,175,001,2024_Mar_05_1219,SpeechDraft1Carolyn_lessNoise_PlusLocalization,2021.2.3,60.03326698584126,
gate.wav,gate.mpg,gate,6,A,Pink_Noise_6_1.wav,Pink_Noise_6_2.wav,,,,,,,,,,,,,,,0,76,76,13,,,,,,,,,,,,,,,,,,,,,,,713.41951288376,None,714.9359199693426,None,716.3195679718629,None,fetch,716.3195679718629,None,return,4.297298460267484,716.4027704810724,None,,,,,,,,,,,,,,,,,,,,,,,,,,,,,,,,,,,,,,,175,001,2024_Mar_05_1219,SpeechDraft1Carolyn_lessNoise_PlusLocalization,2021.2.3,60.03326698584126,
cap.wav,cap.mpg,cap,1,AV,Pink_Noise_1_1.wav,Pink_Noise_1_2.wav,,,,,,,,,,,,,,,0,77,77,108,,,,,,,,,,,,,,,,,,,,,,,720.7195017524064,None,722.2359024798498,None,723.6196695417166,None,cap,723.6196695417166,None,return,0.6212069923058152,723.7028249138966,None,,,,,,,,,,,,,,,,,,,,,,,,,,,,,,,,,,,,,,,175,001,2024_Mar_05_1219,SpeechDraft1Carolyn_lessNoise_PlusLocalization,2021.2.3,60.03326698584126,
cloth.wav,cloth.mpg,cloth,4,AV,Pink_Noise_4_1.wav,Pink_Noise_4_2.wav,,,,,,,,,,,,,,,0,78,78,84,,,,,,,,,,,,,,,,,,,,,,,724.352809228003,None,725.8860275410116,None,727.2694806996733,None,"cloth
",727.2694806996733,None,return,1.6190539384260774,727.3529866114259,None,,,,,,,,,,,,,,,,,,,,,,,,,,,,,,,,,,,,,,,175,001,2024_Mar_05_1219,SpeechDraft1Carolyn_lessNoise_PlusLocalization,2021.2.3,60.03326698584126,
lead.wav,lead.mpg,lead,5,AV,Pink_Noise_5_1.wav,Pink_Noise_5_2.wav,,,,,,,,,,,,,,,0,79,79,97,,,,,,,,,,,,,,,,,,,,,,,729.0028864583,None,730.5193775603548,None,731.9028860693797,None,late,731.9028860693797,None,return,0.8257230008020997,731.9862847793847,None,,,,,,,,,,,,,,,,,,,,,,,,,,,,,,,,,,,,,,,175,001,2024_Mar_05_1219,SpeechDraft1Carolyn_lessNoise_PlusLocalization,2021.2.3,60.03326698584126,
bold.wav,bold.mpg,bold,6,AV,Pink_Noise_6_1.wav,Pink_Noise_6_2.wav,,,,,,,,,,,,,,,0,80,80,74,,,,,,,,,,,,,,,,,,,,,,,732.8361752666533,None,734.3370918799192,None,735.7195622883737,None,"broth
",735.7195622883737,None,return,9.81719568464905,735.8028337182477,None,,,,,,,,,,,,,,,,,,,,,,,,,,,,,,,,,,,,,,,175,001,2024_Mar_05_1219,SpeechDraft1Carolyn_lessNoise_PlusLocalization,2021.2.3,60.03326698584126,
drive.wav,drive.mpg,drive,1,A,Pink_Noise_1_1.wav,Pink_Noise_1_2.wav,,,,,,,,,,,,,,,0,81,81,54,,,,,,,,,,,,,,,,,,,,,,,745.6530081490055,None,747.1525904349983,None,748.5362453628331,None,"drive
",748.5362453628331,None,return,1.4002204984426498,748.6198089635,None,,,,,,,,,,,,,,,,,,,,,,,,,,,,,,,,,,,,,,,175,001,2024_Mar_05_1219,SpeechDraft1Carolyn_lessNoise_PlusLocalization,2021.2.3,60.03326698584126,
bass.wav,bass.mpg,bass,2,A,Pink_Noise_2_1.wav,Pink_Noise_2_2.wav,,,,,,,,,,,,,,,0,82,82,55,,,,,,,,,,,,,,,,,,,,,,,750.052851960063,None,751.5693326015025,None,752.9529176903889,None,base,752.9529176903889,None,return,1.0638645188882947,753.0362250059843,None,,,,,,,,,,,,,,,,,,,,,,,,,,,,,,,,,,,,,,,175,001,2024_Mar_05_1219,SpeechDraft1Carolyn_lessNoise_PlusLocalization,2021.2.3,60.03326698584126,
blind.wav,blind.mpg,blind,4,AV,Pink_Noise_4_1.wav,Pink_Noise_4_2.wav,,,,,,,,,,,,,,,0,83,83,105,,,,,,,,,,,,,,,,,,,,,,,754.1195844784379,None,755.6370483282954,None,757.0197380743921,None,mind,757.0197380743921,None,return,0.9411196941509843,757.1029226453975,None,,,,,,,,,,,,,,,,,,,,,,,,,,,,,,,,,,,,,,,175,001,2024_Mar_05_1219,SpeechDraft1Carolyn_lessNoise_PlusLocalization,2021.2.3,60.03326698584126,
broke.wav,broke.mpg,broke,6,A,Pink_Noise_6_1.wav,Pink_Noise_6_2.wav,,,,,,,,,,,,,,,0,84,84,47,,,,,,,,,,,,,,,,,,,,,,,758.069644106552,None,759.5860270792618,None,760.9694793978706,None,fit,760.9694793978706,None,return,3.311170108616352,761.0528789451346,None,,,,,,,,,,,,,,,,,,,,,,,,,,,,,,,,,,,,,,,175,001,2024_Mar_05_1219,SpeechDraft1Carolyn_lessNoise_PlusLocalization,2021.2.3,60.03326698584126,
led.wav,led.mpg,led,3,A,Pink_Noise_3_1.wav,Pink_Noise_3_2.wav,,,,,,,,,,,,,,,0,85,85,33,,,,,,,,,,,,,,,,,,,,,,,764.3862082678825,None,765.9193998845294,None,767.3029764536768,None,night,767.3029764536768,None,return,1.4657300114631653,767.3863564273342,None,,,,,,,,,,,,,,,,,,,,,,,,,,,,,,,,,,,,,,,175,001,2024_Mar_05_1219,SpeechDraft1Carolyn_lessNoise_PlusLocalization,2021.2.3,60.03326698584126,
oats.wav,oats.mpg,oats,5,AV,Pink_Noise_5_1.wav,Pink_Noise_5_2.wav,,,,,,,,,,,,,,,0,86,86,118,,,,,,,,,,,,,,,,,,,,,,,768.869566953741,None,770.3861138448119,None,771.7696041800082,None,hoot,771.7696041800082,None,return,4.663215280510485,771.8529040124267,None,,,,,,,,,,,,,,,,,,,,,,,,,,,,,,,,,,,,,,,175,001,2024_Mar_05_1219,SpeechDraft1Carolyn_lessNoise_PlusLocalization,2021.2.3,60.03326698584126,
bib.wav,bib.mpg,bib,3,AV,Pink_Noise_3_1.wav,Pink_Noise_3_2.wav,,,,,,,,,,,,,,,0,87,87,100,,,,,,,,,,,,,,,,,,,,,,,776.5364904925227,None,778.0527615481988,None,779.4361723689362,None,"bath
",779.4361723689362,None,return,4.452409639954567,779.5196045227349,None,,,,,,,,,,,,,,,,,,,,,,,,,,,,,,,,,,,,,,,175,001,2024_Mar_05_1219,SpeechDraft1Carolyn_lessNoise_PlusLocalization,2021.2.3,60.03326698584126,
flea.wav,flea.mpg,flea,4,AV,Pink_Noise_4_1.wav,Pink_Noise_4_2.wav,,,,,,,,,,,,,,,0,88,88,61,,,,,,,,,,,,,,,,,,,,,,,784.0030650254339,None,785.5194568159059,None,786.9030808694661,None,flee,786.9030808694661,None,return,1.0898579824715853,786.9862630562857,None,,,,,,,,,,,,,,,,,,,,,,,,,,,,,,,,,,,,,,,175,001,2024_Mar_05_1219,SpeechDraft1Carolyn_lessNoise_PlusLocalization,2021.2.3,60.03326698584126,
flask.wav,flask.mpg,flask,1,A,Pink_Noise_1_1.wav,Pink_Noise_1_2.wav,,,,,,,,,,,,,,,0,89,89,51,,,,,,,,,,,,,,,,,,,,,,,788.1030112775043,None,789.6194260800257,None,791.0029577128589,None,"blask
",791.0029577128589,None,return,4.517404076643288,791.0866484167054,None,,,,,,,,,,,,,,,,,,,,,,,,,,,,,,,,,,,,,,,175,001,2024_Mar_05_1219,SpeechDraft1Carolyn_lessNoise_PlusLocalization,2021.2.3,60.03326698584126,
crop.wav,crop.mpg,crop,6,AV,Pink_Noise_6_1.wav,Pink_Noise_6_2.wav,,,,,,,,,,,,,,,0,90,90,106,,,,,,,,,,,,,,,,,,,,,,,795.6364523274824,None,797.1539063863456,None,798.5363650592044,None,crib,798.5363650592044,None,return,2.856493014842272,798.6196533255279,None,,,,,,,,,,,,,,,,,,,,,,,,,,,,,,,,,,,,,,,175,001,2024_Mar_05_1219,SpeechDraft1Carolyn_lessNoise_PlusLocalization,2021.2.3,60.03326698584126,
tomb.wav,tomb.mpg,tomb,3,AV,Pink_Noise_3_1.wav,Pink_Noise_3_2.wav,,,,,,,,,,,,,,,0,91,91,113,,,,,,,,,,,,,,,,,,,,,,,801.5030459715053,None,803.0360112683848,None,804.419641520828,None,tube,804.419641520828,None,return,0.7892106082290411,804.5029784673825,None,,,,,,,,,,,,,,,,,,,,,,,,,,,,,,,,,,,,,,,175,001,2024_Mar_05_1219,SpeechDraft1Carolyn_lessNoise_PlusLocalization,2021.2.3,60.03326698584126,
fast.wav,fast.mpg,fast,4,A,Pink_Noise_4_1.wav,Pink_Noise_4_2.wav,,,,,,,,,,,,,,,0,92,92,25,,,,,,,,,,,,,,,,,,,,,,,805.3196328682825,None,806.8360472247005,None,808.2195258308202,None,flas,808.2195258308202,None,return,2.3410684876143932,808.3029766408727,None,,,,,,,,,,,,,,,,,,,,,,,,,,,,,,,,,,,,,,,175,001,2024_Mar_05_1219,SpeechDraft1Carolyn_lessNoise_PlusLocalization,2021.2.3,60.03326698584126,
cent.wav,cent.mpg,cent,2,AV,Pink_Noise_2_1.wav,Pink_Noise_2_2.wav,,,,,,,,,,,,,,,0,93,93,66,,,,,,,,,,,,,,,,,,,,,,,810.6698245182633,None,812.1859778910875,None,813.5695190103725,None,"scent
",813.5695190103725,None,return,1.6869776379317045,813.6530195940286,None,,,,,,,,,,,,,,,,,,,,,,,,,,,,,,,,,,,,,,,175,001,2024_Mar_05_1219,SpeechDraft1Carolyn_lessNoise_PlusLocalization,2021.2.3,60.03326698584126,
greed.wav,greed.mpg,greed,2,AV,Pink_Noise_2_1.wav,Pink_Noise_2_2.wav,,,,,,,,,,,,,,,0,94,94,103,,,,,,,,,,,,,,,,,,,,,,,815.3697876632214,None,816.8860626257956,None,818.2698058532551,None,greed,818.2698058532551,None,return,2.515084478072822,818.3530409326777,None,,,,,,,,,,,,,,,,,,,,,,,,,,,,,,,,,,,,,,,175,001,2024_Mar_05_1219,SpeechDraft1Carolyn_lessNoise_PlusLocalization,2021.2.3,60.03326698584126,
gone.wav,gone.mpg,gone,5,AV,Pink_Noise_5_1.wav,Pink_Noise_5_2.wav,,,,,,,,,,,,,,,0,95,95,70,,,,,,,,,,,,,,,,,,,,,,,820.88629851304,None,822.402830469422,None,823.7862851526588,None,hard,823.7862851526588,None,return,0.9424027781933546,823.8696496719494,None,,,,,,,,,,,,,,,,,,,,,,,,,,,,,,,,,,,,,,,175,001,2024_Mar_05_1219,SpeechDraft1Carolyn_lessNoise_PlusLocalization,2021.2.3,60.03326698584126,
fork.wav,fork.mpg,fork,2,A,Pink_Noise_2_1.wav,Pink_Noise_2_2.wav,,,,,,,,,,,,,,,0,96,96,36,,,,,,,,,,,,,,,,,,,,,,,824.8364101005718,None,826.3527811141685,None,827.7363388985395,None,fork,827.7363388985395,None,return,0.9283545920625329,827.8196793766692,None,,,,,,,,,,,,,,,,,,,,,,,,,,,,,,,,,,,,,,,175,001,2024_Mar_05_1219,SpeechDraft1Carolyn_lessNoise_PlusLocalization,2021.2.3,60.03326698584126,
cheer.wav,cheer.mpg,cheer,6,A,Pink_Noise_6_1.wav,Pink_Noise_6_2.wav,,,,,,,,,,,,,,,0,97,97,42,,,,,,,,,,,,,,,,,,,,,,,828.7697128700092,None,830.486161313951,None,831.8696638243273,None,chew,831.8696638243273,None,return,3.075067068450153,831.9529429422691,None,,,,,,,,,,,,,,,,,,,,,,,,,,,,,,,,,,,,,,,175,001,2024_Mar_05_1219,SpeechDraft1Carolyn_lessNoise_PlusLocalization,2021.2.3,60.03326698584126,
pop.wav,pop.mpg,pop,4,A,Pink_Noise_4_1.wav,Pink_Noise_4_2.wav,,,,,,,,,,,,,,,0,98,98,19,,,,,,,,,,,,,,,,,,,,,,,835.0530568398535,None,836.5860957512632,None,837.9698775094002,None,hot,837.9698775094002,None,return,0.6070630885660648,838.0530389314517,None,,,,,,,,,,,,,,,,,,,,,,,,,,,,,,,,,,,,,,,175,001,2024_Mar_05_1219,SpeechDraft1Carolyn_lessNoise_PlusLocalization,2021.2.3,60.03326698584126,
lost.wav,lost.mpg,lost,6,A,Pink_Noise_6_1.wav,Pink_Noise_6_2.wav,,,,,,,,,,,,,,,0,99,99,38,,,,,,,,,,,,,,,,,,,,,,,838.6863544341177,None,840.2193680172786,None,841.6031112633646,None,flesh,841.6031112633646,None,return,2.013658545911312,841.6864092731848,None,,,,,,,,,,,,,,,,,,,,,,,,,,,,,,,,,,,,,,,175,001,2024_Mar_05_1219,SpeechDraft1Carolyn_lessNoise_PlusLocalization,2021.2.3,60.03326698584126,
folk.wav,folk.mpg,folk,5,A,Pink_Noise_5_1.wav,Pink_Noise_5_2.wav,,,,,,,,,,,,,,,0,100,100,48,,,,,,,,,,,,,,,,,,,,,,,843.7198413964361,None,845.2361095426604,None,846.6198488017544,None,bot,846.6198488017544,None,return,2.6929110446944833,846.7031160481274,None,,,,,,,,,,,,,,,,,,,,,,,,,,,,,,,,,,,,,,,175,001,2024_Mar_05_1219,SpeechDraft1Carolyn_lessNoise_PlusLocalization,2021.2.3,60.03326698584126,
bathe.wav,bathe.mpg,bathe,6,AV,Pink_Noise_6_1.wav,Pink_Noise_6_2.wav,,,,,,,,,,,,,,,0,101,101,69,,,,,,,,,,,,,,,,,,,,,,,849.419761207886,None,850.9361987505108,None,852.3196614710614,None,bath,852.3196614710614,None,return,2.5448356894776225,852.4031975353137,None,,,,,,,,,,,,,,,,,,,,,,,,,,,,,,,,,,,,,,,175,001,2024_Mar_05_1219,SpeechDraft1Carolyn_lessNoise_PlusLocalization,2021.2.3,60.03326698584126,
food.wav,food.mpg,food,4,AV,Pink_Noise_4_1.wav,Pink_Noise_4_2.wav,,,,,,,,,,,,,,,0,102,102,88,,,,,,,,,,,,,,,,,,,,,,,854.9697275869548,None,856.5028180647641,None,857.8862633183599,None,fool,857.8862633183599,None,return,1.0582898389548063,857.9697151388973,None,,,,,,,,,,,,,,,,,,,,,,,,,,,,,,,,,,,,,,,175,001,2024_Mar_05_1219,SpeechDraft1Carolyn_lessNoise_PlusLocalization,2021.2.3,60.03326698584126,
club.wav,club.mpg,club,6,A,Pink_Noise_6_1.wav,Pink_Noise_6_2.wav,,,,,,,,,,,,,,,0,103,103,7,,,,,,,,,,,,,,,,,,,,,,,859.0529933227226,None,860.5860298173502,None,861.969792176038,None,"flesh
",861.969792176038,None,return,2.4867621725425124,862.0532677238807,None,,,,,,,,,,,,,,,,,,,,,,,,,,,,,,,,,,,,,,,175,001,2024_Mar_05_1219,SpeechDraft1Carolyn_lessNoise_PlusLocalization,2021.2.3,60.03326698584126,
damn.wav,damn.mpg,damn,1,A,Pink_Noise_1_1.wav,Pink_Noise_1_2.wav,,,,,,,,,,,,,,,0,104,104,9,,,,,,,,,,,,,,,,,,,,,,,864.5696762287989,None,866.1026737801731,None,867.4863769216463,None,damp,867.4863769216463,None,return,1.6103632096201181,867.5696659255773,None,,,,,,,,,,,,,,,,,,,,,,,,,,,,,,,,,,,,,,,175,001,2024_Mar_05_1219,SpeechDraft1Carolyn_lessNoise_PlusLocalization,2021.2.3,60.03326698584126,
dark.wav,dark.mpg,dark,3,AV,Pink_Noise_3_1.wav,Pink_Noise_3_2.wav,,,,,,,,,,,,,,,0,105,105,112,,,,,,,,,,,,,,,,,,,,,,,869.2030684137717,None,870.719469262287,None,872.103017824702,None,"dark
",872.103017824702,None,return,0.9533997103571892,872.1865937160328,None,,,,,,,,,,,,,,,,,,,,,,,,,,,,,,,,,,,,,,,175,001,2024_Mar_05_1219,SpeechDraft1Carolyn_lessNoise_PlusLocalization,2021.2.3,60.03326698584126,
grind.wav,grind.mpg,grind,1,AV,Pink_Noise_1_1.wav,Pink_Noise_1_2.wav,,,,,,,,,,,,,,,0,106,106,93,,,,,,,,,,,,,,,,,,,,,,,873.1699252938852,None,874.6694428389892,None,876.0530566480011,None,"grind
",876.0530566480011,None,return,1.0036039063706994,876.1364173088223,None,,,,,,,,,,,,,,,,,,,,,,,,,,,,,,,,,,,,,,,175,001,2024_Mar_05_1219,SpeechDraft1Carolyn_lessNoise_PlusLocalization,2021.2.3,60.03326698584126,
quart.wav,quart.mpg,quart,3,A,Pink_Noise_3_1.wav,Pink_Noise_3_2.wav,,,,,,,,,,,,,,,0,107,107,41,,,,,,,,,,,,,,,,,,,,,,,877.1697279922664,None,878.686149161309,None,880.0697693200782,None,"court
",880.0697693200782,None,return,1.186870489269495,880.1531496308744,None,,,,,,,,,,,,,,,,,,,,,,,,,,,,,,,,,,,,,,,175,001,2024_Mar_05_1219,SpeechDraft1Carolyn_lessNoise_PlusLocalization,2021.2.3,60.03326698584126,
cloud.wav,cloud.mpg,cloud,4,AV,Pink_Noise_4_1.wav,Pink_Noise_4_2.wav,,,,,,,,,,,,,,,0,108,108,81,,,,,,,,,,,,,,,,,,,,,,,881.3697434607893,None,882.8861521929502,None,884.2699588369578,None,c;pid,884.2699588369578,None,return,0.9307670723646879,884.3532688813284,None,,,,,,,,,,,,,,,,,,,,,,,,,,,,,,,,,,,,,,,175,001,2024_Mar_05_1219,SpeechDraft1Carolyn_lessNoise_PlusLocalization,2021.2.3,60.03326698584126,
tense.wav,tense.mpg,tense,2,A,Pink_Noise_2_1.wav,Pink_Noise_2_2.wav,,,,,,,,,,,,,,,0,109,109,52,,,,,,,,,,,,,,,,,,,,,,,885.3030722020194,None,886.8194710807875,None,888.2030495051295,None,"tense
",888.2030495051295,None,return,1.2696484057232738,888.2863877797499,None,,,,,,,,,,,,,,,,,,,,,,,,,,,,,,,,,,,,,,,175,001,2024_Mar_05_1219,SpeechDraft1Carolyn_lessNoise_PlusLocalization,2021.2.3,60.03326698584126,
thief.wav,thief.mpg,thief,3,AV,Pink_Noise_3_1.wav,Pink_Noise_3_2.wav,,,,,,,,,,,,,,,0,110,110,114,,,,,,,,,,,,,,,,,,,,,,,889.5864271884784,None,891.103569701314,None,892.486313296482,None,theif,892.486313296482,None,return,1.1542771477252245,892.569754592143,None,,,,,,,,,,,,,,,,,,,,,,,,,,,,,,,,,,,,,,,175,001,2024_Mar_05_1219,SpeechDraft1Carolyn_lessNoise_PlusLocalization,2021.2.3,60.03326698584126,
built.wav,built.mpg,built,2,AV,Pink_Noise_2_1.wav,Pink_Noise_2_2.wav,,,,,,,,,,,,,,,0,111,111,60,,,,,,,,,,,,,,,,,,,,,,,893.753119437024,None,895.3195798620582,None,896.7032753461972,None,built,896.7032753461972,None,return,2.465608454309404,896.7864262415096,None,,,,,,,,,,,,,,,,,,,,,,,,,,,,,,,,,,,,,,,175,001,2024_Mar_05_1219,SpeechDraft1Carolyn_lessNoise_PlusLocalization,2021.2.3,60.03326698584126,
doll.wav,doll.mpg,doll,4,AV,Pink_Noise_4_1.wav,Pink_Noise_4_2.wav,,,,,,,,,,,,,,,0,112,112,79,,,,,,,,,,,,,,,,,,,,,,,899.2698075175285,None,900.802814591676,None,902.1863383743912,None,die,902.1863383743912,None,return,4.414218746125698,902.2698149671778,None,,,,,,,,,,,,,,,,,,,,,,,,,,,,,,,,,,,,,,,175,001,2024_Mar_05_1219,SpeechDraft1Carolyn_lessNoise_PlusLocalization,2021.2.3,60.03326698584126,
dwell.wav,dwell.mpg,dwell,3,AV,Pink_Noise_3_1.wav,Pink_Noise_3_2.wav,,,,,,,,,,,,,,,0,113,113,83,,,,,,,,,,,,,,,,,,,,,,,906.7031081989408,None,908.2195145869628,None,909.6032336717471,None,wealth,909.6032336717471,None,return,1.3255866626277566,909.6864546574652,None,,,,,,,,,,,,,,,,,,,,,,,,,,,,,,,,,,,,,,,175,001,2024_Mar_05_1219,SpeechDraft1Carolyn_lessNoise_PlusLocalization,2021.2.3,60.03326698584126,
cope.wav,cope.mpg,cope,2,AV,Pink_Noise_2_1.wav,Pink_Noise_2_2.wav,,,,,,,,,,,,,,,0,114,114,117,,,,,,,,,,,,,,,,,,,,,,,911.0366387218237,None,912.5528540117666,None,913.936435284093,None,cope,913.936435284093,None,return,1.3602408356964588,914.019802830182,None,,,,,,,,,,,,,,,,,,,,,,,,,,,,,,,,,,,,,,,175,001,2024_Mar_05_1219,SpeechDraft1Carolyn_lessNoise_PlusLocalization,2021.2.3,60.03326698584126,
dim.wav,dim.mpg,dim,1,AV,Pink_Noise_1_1.wav,Pink_Noise_1_2.wav,,,,,,,,,,,,,,,0,115,115,77,,,,,,,,,,,,,,,,,,,,,,,915.4032225552946,None,916.9196200249717,None,918.3032550532371,None,dim,918.3032550532371,None,return,0.8496106015518308,918.3864868720993,None,,,,,,,,,,,,,,,,,,,,,,,,,,,,,,,,,,,,,,,175,001,2024_Mar_05_1219,SpeechDraft1Carolyn_lessNoise_PlusLocalization,2021.2.3,60.03326698584126,
cone.wav,cone.mpg,cone,5,AV,Pink_Noise_5_1.wav,Pink_Noise_5_2.wav,,,,,,,,,,,,,,,0,116,116,67,,,,,,,,,,,,,,,,,,,,,,,919.2532202480361,None,920.7862825598568,None,922.1698375074193,None,cold,922.1698375074193,None,return,2.5908922934904695,922.2531238468364,None,,,,,,,,,,,,,,,,,,,,,,,,,,,,,,,,,,,,,,,175,001,2024_Mar_05_1219,SpeechDraft1Carolyn_lessNoise_PlusLocalization,2021.2.3,60.03326698584126,
bring.wav,bring.mpg,bring,5,A,Pink_Noise_5_1.wav,Pink_Noise_5_2.wav,,,,,,,,,,,,,,,0,117,117,6,,,,,,,,,,,,,,,,,,,,,,,924.8699741419405,None,926.4029574450105,None,927.7869112668559,None,"freeze
",927.7869112668559,None,return,9.134180348366499,927.8698602560908,None,,,,,,,,,,,,,,,,,,,,,,,,,,,,,,,,,,,,,,,175,001,2024_Mar_05_1219,SpeechDraft1Carolyn_lessNoise_PlusLocalization,2021.2.3,60.03326698584126,
ham.wav,ham.mpg,ham,6,AV,Pink_Noise_6_1.wav,Pink_Noise_6_2.wav,,,,,,,,,,,,,,,0,118,118,80,,,,,,,,,,,,,,,,,,,,,,,937.0364687982947,None,938.5545110814273,None,939.9365590121597,None,ham,939.9365590121597,None,return,3.360122130252421,940.0199054963887,None,,,,,,,,,,,,,,,,,,,,,,,,,,,,,,,,,,,,,,,175,001,2024_Mar_05_1219,SpeechDraft1Carolyn_lessNoise_PlusLocalization,2021.2.3,60.03326698584126,
gain.wav,gain.mpg,gain,2,A,Pink_Noise_2_1.wav,Pink_Noise_2_2.wav,,,,,,,,,,,,,,,0,119,119,20,,,,,,,,,,,,,,,,,,,,,,,943.4032441983,None,944.9205598859116,None,946.3032108051702,None,gain,946.3032108051702,None,return,1.0334945619106293,946.3865238269791,None,,,,,,,,,,,,,,,,,,,,,,,,,,,,,,,,,,,,,,,175,001,2024_Mar_05_1219,SpeechDraft1Carolyn_lessNoise_PlusLocalization,2021.2.3,60.03326698584126,
,,,,,,,,,,,,,,,,,,,,,,,,,,,,,,,,,,,,,,,,,,,,,,,,,,,,,,,,,,,,,,,,,,space,12.995526203885674,947.5365167222917,None,,,,,,,,,,,,,,,,,,,,,,,,,,,,,175,001,2024_Mar_05_1219,SpeechDraft1Carolyn_lessNoise_PlusLocalization,2021.2.3,60.03326698584126,
,,,,,,,,nearRight,6.5,0,ch1Sound_localizationTask.wav,6.5,"(1047, 878)","(87, -202)",95,-338,,,,,,,,,0,0,0,4,,,,,,,,,,,,,,,,,,,,,,,,,,,,,,,,,,,,,,,,,,947.5365167222917,None,960.5695957699791,None,961.686429229565,None,962.6028985083103,None,1.11005291005291,4.83662339206785,962.6028985083103,None,,,,,,,,,,,,,,,,,175,001,2024_Mar_05_1219,SpeechDraft1Carolyn_lessNoise_PlusLocalization,2021.2.3,60.03326698584126,
,,,,,,,,center,0.0,6,ch1Sound_localizationTask.wav,0.0,"(952, 878)","(-8,-202)",0,-338,,,,,,,,,0,1,1,3,,,,,,,,,,,,,,,,,,,,,,,,,,,,,,,,,,,,,,,,,,,,967.4365438967943,None,968.536353090778,None,969.4696549549699,None,1.2301587301587302,1.7190044354647398,969.4696549549699,None,,,,,,,,,,,,,,,,,175,001,2024_Mar_05_1219,SpeechDraft1Carolyn_lessNoise_PlusLocalization,2021.2.3,60.03326698584126,
,,,,,,,,midLeft,-13.0,2,ch1Sound_localizationTask.wav,-13.0,"(762, 878)","(-198,-202)",-190,-338,,,,,,,,,0,2,2,1,,,,,,,,,,,,,,,,,,,,,,,,,,,,,,,,,,,,,,,,,,,,971.2039641458541,None,972.3030649209395,None,973.2365797199309,None,1.2185185185185186,0.6826794808730483,973.2365797199309,None,,,,,,,,,,,,,,,,,175,001,2024_Mar_05_1219,SpeechDraft1Carolyn_lessNoise_PlusLocalization,2021.2.3,60.03326698584126,
,,,,,,,,nearLeft,-6.5,1,ch1Sound_localizationTask.wav,-6.5,"(857, 878)","(-103,-202)",-95,-338,,,,,,,,,0,3,3,2,,,,,,,,,,,,,,,,,,,,,,,,,,,,,,,,,,,,,,,,,,,,973.919821491465,None,975.0197348734364,None,975.9529184494168,None,1.1899470899470899,2.2671697195619345,975.9529184494168,None,,,,,,,,,,,,,,,,,175,001,2024_Mar_05_1219,SpeechDraft1Carolyn_lessNoise_PlusLocalization,2021.2.3,60.03326698584126,
,,,,,,,,farLeft,-19.1,5,ch1Sound_localizationTask.wav,-19.1,"(667, 878)","(-293,-202)",-285,-338,,,,,,,,,0,4,4,0,,,,,,,,,,,,,,,,,,,,,,,,,,,,,,,,,,,,,,,,,,,,978.2204086398706,None,979.319990914315,None,980.2529913242906,None,1.1671957671957673,1.1006361534819007,980.2529913242906,None,,,,,,,,,,,,,,,,,175,001,2024_Mar_05_1219,SpeechDraft1Carolyn_lessNoise_PlusLocalization,2021.2.3,60.03326698584126,
,,,,,,,,midRight,13.0,3,ch1Sound_localizationTask.wav,13.0,"(1142, 878)","(182, -202)",190,-338,,,,,,,,,0,5,5,5,,,,,,,,,,,,,,,,,,,,,,,,,,,,,,,,,,,,,,,,,,,,981.3541701799259,None,982.4530589925125,None,983.386301423423,None,1.7380952380952381,1.5994854299351573,983.386301423423,None,,,,,,,,,,,,,,,,,175,001,2024_Mar_05_1219,SpeechDraft1Carolyn_lessNoise_PlusLocalization,2021.2.3,60.03326698584126,
,,,,,,,,nearRight,6.5,0,ch1Sound_localizationTask.wav,6.5,"(1047, 878)","(87, -202)",95,-338,,,,,,,,,0,6,6,4,,,,,,,,,,,,,,,,,,,,,,,,,,,,,,,,,,,,,,,,,,,,984.9873727541417,None,986.0862132431939,None,987.0196609413251,None,1.83015873015873,1.3501393841579556,987.0196609413251,None,,,,,,,,,,,,,,,,,175,001,2024_Mar_05_1219,SpeechDraft1Carolyn_lessNoise_PlusLocalization,2021.2.3,60.03326698584126,
,,,,,,,,center,0.0,6,ch1Sound_localizationTask.wav,0.0,"(952, 878)","(-8,-202)",0,-338,,,,,,,,,1,0,7,3,,,,,,,,,,,,,,,,,,,,,,,,,,,,,,,,,,,,,,,,,,,,988.3704808587208,None,989.469701807946,None,990.4030814636499,None,1.7857142857142856,0.7318268762901425,990.4030814636499,None,,,,,,,,,,,,,,,,,175,001,2024_Mar_05_1219,SpeechDraft1Carolyn_lessNoise_PlusLocalization,2021.2.3,60.03326698584126,
,,,,,,,,nearLeft,-6.5,1,ch1Sound_localizationTask.wav,-6.5,"(857, 878)","(-103,-202)",-95,-338,,,,,,,,,1,1,8,2,,,,,,,,,,,,,,,,,,,,,,,,,,,,,,,,,,,,,,,,,,,,991.13655139599,None,992.236302244477,None,993.1696579409763,None,1.4010582010582011,0.9827310238033533,993.1696579409763,None,,,,,,,,,,,,,,,,,175,001,2024_Mar_05_1219,SpeechDraft1Carolyn_lessNoise_PlusLocalization,2021.2.3,60.03326698584126,
,,,,,,,,farRight,19.1,4,ch1Sound_localizationTask.wav,19.1,"(1237, 878)","(277,-202)",285,-338,,,,,,,,,1,2,9,6,,,,,,,,,,,,,,,,,,,,,,,,,,,,,,,,,,,,,,,,,,,,994.1532035227865,None,995.2529364228249,None,996.1864448841661,None,1.5666666666666667,0.4495153557509184,996.1864448841661,None,,,,,,,,,,,,,,,,,175,001,2024_Mar_05_1219,SpeechDraft1Carolyn_lessNoise_PlusLocalization,2021.2.3,60.03326698584126,
,,,,,,,,farLeft,-19.1,5,ch1Sound_localizationTask.wav,-19.1,"(667, 878)","(-293,-202)",-285,-338,,,,,,,,,1,3,10,0,,,,,,,,,,,,,,,,,,,,,,,,,,,,,,,,,,,,,,,,,,,,996.6371864071116,None,997.7363231349736,None,998.6697651464492,None,1.3142857142857143,1.199956949800253,998.6697651464492,None,,,,,,,,,,,,,,,,,175,001,2024_Mar_05_1219,SpeechDraft1Carolyn_lessNoise_PlusLocalization,2021.2.3,60.03326698584126,
,,,,,,,,farLeft,-19.1,5,ch1Sound_localizationTask.wav,-19.1,"(667, 878)","(-293,-202)",-285,-338,,,,,,,,,1,4,11,0,,,,,,,,,,,,,,,,,,,,,,,,,,,,,,,,,,,,,,,,,,,,999.869933645241,None,1000.9696902493015,None,1001.9033163702115,None,1.1137566137566137,1.2657187758013606,1001.9033163702115,None,,,,,,,,,,,,,,,,,175,001,2024_Mar_05_1219,SpeechDraft1Carolyn_lessNoise_PlusLocalization,2021.2.3,60.03326698584126,
,,,,,,,,nearRight,6.5,0,ch1Sound_localizationTask.wav,6.5,"(1047, 878)","(87, -202)",95,-338,,,,,,,,,1,5,12,4,,,,,,,,,,,,,,,,,,,,,,,,,,,,,,,,,,,,,,,,,,,,1003.1862334609032,None,1004.2864439021796,None,1005.2030160296708,None,1.6068783068783068,1.4828677037730813,1005.2030160296708,None,,,,,,,,,,,,,,,,,175,001,2024_Mar_05_1219,SpeechDraft1Carolyn_lessNoise_PlusLocalization,2021.2.3,60.03326698584126,
,,,,,,,,farLeft,-19.1,5,ch1Sound_localizationTask.wav,-19.1,"(667, 878)","(-293,-202)",-285,-338,,,,,,,,,1,6,13,0,,,,,,,,,,,,,,,,,,,,,,,,,,,,,,,,,,,,,,,,,,,,1006.686537087895,None,1007.786400988698,None,1008.719970301725,None,1.3291005291005291,0.7991800960153341,1008.719970301725,None,,,,,,,,,,,,,,,,,175,001,2024_Mar_05_1219,SpeechDraft1Carolyn_lessNoise_PlusLocalization,2021.2.3,60.03326698584126,
,,,,,,,,nearLeft,-6.5,1,ch1Sound_localizationTask.wav,-6.5,"(857, 878)","(-103,-202)",-95,-338,,,,,,,,,2,0,14,2,,,,,,,,,,,,,,,,,,,,,,,,,,,,,,,,,,,,,,,,,,,,1009.5199297880754,None,1010.6195785021409,None,1011.5529897296801,None,1.41005291005291,0.5993670076131821,1011.5529897296801,None,,,,,,,,,,,,,,,,,175,001,2024_Mar_05_1219,SpeechDraft1Carolyn_lessNoise_PlusLocalization,2021.2.3,60.03326698584126,
,,,,,,,,midLeft,-13.0,2,ch1Sound_localizationTask.wav,-13.0,"(762, 878)","(-198,-202)",-190,-338,,,,,,,,,2,1,15,1,,,,,,,,,,,,,,,,,,,,,,,,,,,,,,,,,,,,,,,,,,,,1012.1533265933394,None,1013.2531252158806,None,1014.1862851679325,None,1.2507936507936508,0.8334253691136837,1014.1862851679325,None,,,,,,,,,,,,,,,,,175,001,2024_Mar_05_1219,SpeechDraft1Carolyn_lessNoise_PlusLocalization,2021.2.3,60.03326698584126,
,,,,,,,,midRight,13.0,3,ch1Sound_localizationTask.wav,13.0,"(1142, 878)","(182, -202)",190,-338,,,,,,,,,2,2,16,5,,,,,,,,,,,,,,,,,,,,,,,,,,,,,,,,,,,,,,,,,,,,1015.0366331813857,None,1016.1361920339987,None,1017.0698024276644,None,1.7449735449735448,0.8328524027019739,1017.0698024276644,None,,,,,,,,,,,,,,,,,175,001,2024_Mar_05_1219,SpeechDraft1Carolyn_lessNoise_PlusLocalization,2021.2.3,60.03326698584126,
,,,,,,,,midRight,13.0,3,ch1Sound_localizationTask.wav,13.0,"(1142, 878)","(182, -202)",190,-338,,,,,,,,,2,3,17,5,,,,,,,,,,,,,,,,,,,,,,,,,,,,,,,,,,,,,,,,,,,,1017.9032582389191,None,1019.0029412554577,None,1019.9363789865747,None,1.806878306878307,0.8490395117551088,1019.9363789865747,None,,,,,,,,,,,,,,,,,175,001,2024_Mar_05_1219,SpeechDraft1Carolyn_lessNoise_PlusLocalization,2021.2.3,60.03326698584126,
,,,,,,,,nearRight,6.5,0,ch1Sound_localizationTask.wav,6.5,"(1047, 878)","(87, -202)",95,-338,,,,,,,,,2,4,18,4,,,,,,,,,,,,,,,,,,,,,,,,,,,,,,,,,,,,,,,,,,,,1020.7866386882961,None,1021.8862101482227,None,1022.8198738358915,None,1.7444444444444445,0.4648968242108822,1022.8198738358915,None,,,,,,,,,,,,,,,,,175,001,2024_Mar_05_1219,SpeechDraft1Carolyn_lessNoise_PlusLocalization,2021.2.3,60.03326698584126,
,,,,,,,,center,0.0,6,ch1Sound_localizationTask.wav,0.0,"(952, 878)","(-8,-202)",0,-338,,,,,,,,,2,5,19,3,,,,,,,,,,,,,,,,,,,,,,,,,,,,,,,,,,,,,,,,,,,,1023.2866126541048,None,1024.3864075457677,None,1025.31978849601,None,1.4317460317460318,0.5661571016535163,1025.31978849601,None,,,,,,,,,,,,,,,,,175,001,2024_Mar_05_1219,SpeechDraft1Carolyn_lessNoise_PlusLocalization,2021.2.3,60.03326698584126,
,,,,,,,,farRight,19.1,4,ch1Sound_localizationTask.wav,19.1,"(1237, 878)","(277,-202)",285,-338,,,,,,,,,2,6,20,6,,,,,,,,,,,,,,,,,,,,,,,,,,,,,,,,,,,,,,,,,,,,1025.8867001831532,None,1026.986420190893,None,1027.9196792803705,None,1.6444444444444444,0.20013082399964333,1027.9196792803705,None,,,,,,,,,,,,,,,,,175,001,2024_Mar_05_1219,SpeechDraft1Carolyn_lessNoise_PlusLocalization,2021.2.3,60.03326698584126,
,,,,,,,,center,0.0,6,ch1Sound_localizationTask.wav,0.0,"(952, 878)","(-8,-202)",0,-338,,,,,,,,,3,0,21,3,,,,,,,,,,,,,,,,,,,,,,,,,,,,,,,,,,,,,,,,,,,,1028.119933581911,None,1029.2196467323229,None,1030.1530898436904,None,1.3285714285714285,1.1028908621519804,1030.1530898436904,None,,,,,,,,,,,,,,,,,175,001,2024_Mar_05_1219,SpeechDraft1Carolyn_lessNoise_PlusLocalization,2021.2.3,60.03326698584126,
,,,,,,,,farRight,19.1,4,ch1Sound_localizationTask.wav,19.1,"(1237, 878)","(277,-202)",285,-338,,,,,,,,,3,1,22,6,,,,,,,,,,,,,,,,,,,,,,,,,,,,,,,,,,,,,,,,,,,,1031.27048386354,None,1032.3697866145521,None,1033.3030004398897,None,1.808994708994709,0.048602026887238026,1033.3030004398897,None,,,,,,,,,,,,,,,,,175,001,2024_Mar_05_1219,SpeechDraft1Carolyn_lessNoise_PlusLocalization,2021.2.3,60.03326698584126,
,,,,,,,,midLeft,-13.0,2,ch1Sound_localizationTask.wav,-13.0,"(762, 878)","(-198,-202)",-190,-338,,,,,,,,,3,2,23,1,,,,,,,,,,,,,,,,,,,,,,,,,,,,,,,,,,,,,,,,,,,,1033.353429122828,None,1034.4530064594,None,1035.3865260677412,None,1.2492063492063492,0.46706300880759954,1035.3865260677412,None,,,,,,,,,,,,,,,,,175,001,2024_Mar_05_1219,SpeechDraft1Carolyn_lessNoise_PlusLocalization,2021.2.3,60.03326698584126,
,,,,,,,,farRight,19.1,4,ch1Sound_localizationTask.wav,19.1,"(1237, 878)","(277,-202)",285,-338,,,,,,,,,3,3,24,6,,,,,,,,,,,,,,,,,,,,,,,,,,,,,,,,,,,,,,,,,,,,1035.8532586758956,None,1036.953111231327,None,1037.8863436467946,None,1.6714285714285715,1.0809622136875987,1037.8863436467946,None,,,,,,,,,,,,,,,,,175,001,2024_Mar_05_1219,SpeechDraft1Carolyn_lessNoise_PlusLocalization,2021.2.3,60.03326698584126,
,,,,,,,,midLeft,-13.0,2,ch1Sound_localizationTask.wav,-13.0,"(762, 878)","(-198,-202)",-190,-338,,,,,,,,,3,4,25,1,,,,,,,,,,,,,,,,,,,,,,,,,,,,,,,,,,,,,,,,,,,,1038.9700751509517,None,1040.069828494452,None,1041.0030768392608,None,1.2682539682539682,0.41629534121602774,1041.0030768392608,None,,,,,,,,,,,,,,,,,175,001,2024_Mar_05_1219,SpeechDraft1Carolyn_lessNoise_PlusLocalization,2021.2.3,60.03326698584126,
,,,,,,,,midLeft,-13.0,2,ch1Sound_localizationTask.wav,-13.0,"(762, 878)","(-198,-202)",-190,-338,,,,,,,,,3,5,26,1,,,,,,,,,,,,,,,,,,,,,,,,,,,,,,,,,,,,,,,,,,,,1041.4200346022844,None,1042.5196266379207,None,1043.4531664531678,None,1.1994708994708994,0.49992834590375423,1043.4531664531678,None,,,,,,,,,,,,,,,,,175,001,2024_Mar_05_1219,SpeechDraft1Carolyn_lessNoise_PlusLocalization,2021.2.3,60.03326698584126,
,,,,,,,,nearLeft,-6.5,1,ch1Sound_localizationTask.wav,-6.5,"(857, 878)","(-103,-202)",-95,-338,,,,,,,,,3,6,27,2,,,,,,,,,,,,,,,,,,,,,,,,,,,,,,,,,,,,,,,,,,,,1043.9533884348348,None,1045.0529830353335,None,1045.9865003246814,None,1.3624338624338623,0.28336036670953035,1045.9865003246814,None,,,,,,,,,,,,,,,,,175,001,2024_Mar_05_1219,SpeechDraft1Carolyn_lessNoise_PlusLocalization,2021.2.3,60.03326698584126,
,,,,,,,,center,0.0,6,ch1Sound_localizationTask.wav,0.0,"(952, 878)","(-8,-202)",0,-338,,,,,,,,,4,0,28,3,,,,,,,,,,,,,,,,,,,,,,,,,,,,,,,,,,,,,,,,,,,,1046.26997203473,None,1047.3697706889361,None,1048.3031011065468,None,1.3650793650793651,0.53351407404989,1048.3031011065468,None,,,,,,,,,,,,,,,,,175,001,2024_Mar_05_1219,SpeechDraft1Carolyn_lessNoise_PlusLocalization,2021.2.3,60.03326698584126,
,,,,,,,,center,0.0,6,ch1Sound_localizationTask.wav,0.0,"(952, 878)","(-8,-202)",0,-338,,,,,,,,,4,1,29,3,,,,,,,,,,,,,,,,,,,,,,,,,,,,,,,,,,,,,,,,,,,,1048.8367994083092,None,1049.9363554939628,None,1050.8699094951153,None,1.4285714285714286,0.4485986614599824,1050.8699094951153,None,,,,,,,,,,,,,,,,,175,001,2024_Mar_05_1219,SpeechDraft1Carolyn_lessNoise_PlusLocalization,2021.2.3,60.03326698584126,
,,,,,,,,farLeft,-19.1,5,ch1Sound_localizationTask.wav,-19.1,"(667, 878)","(-293,-202)",-285,-338,,,,,,,,,4,2,30,0,,,,,,,,,,,,,,,,,,,,,,,,,,,,,,,,,,,,,,,,,,,,1051.320003842935,None,1052.4196982122958,None,1053.353286685422,None,1.2338624338624338,0.48382972925901413,1053.353286685422,None,,,,,,,,,,,,,,,,,175,001,2024_Mar_05_1219,SpeechDraft1Carolyn_lessNoise_PlusLocalization,2021.2.3,60.03326698584126,
,,,,,,,,nearLeft,-6.5,1,ch1Sound_localizationTask.wav,-6.5,"(857, 878)","(-103,-202)",-95,-338,,,,,,,,,4,3,31,2,,,,,,,,,,,,,,,,,,,,,,,,,,,,,,,,,,,,,,,,,,,,1053.8372784527019,None,1054.9363869950175,None,1055.8697666153312,None,1.3603174603174604,0.36718474607914686,1055.8697666153312,None,,,,,,,,,,,,,,,,,175,001,2024_Mar_05_1219,SpeechDraft1Carolyn_lessNoise_PlusLocalization,2021.2.3,60.03326698584126,
,,,,,,,,midLeft,-13.0,2,ch1Sound_localizationTask.wav,-13.0,"(762, 878)","(-198,-202)",-190,-338,,,,,,,,,4,4,32,1,,,,,,,,,,,,,,,,,,,,,,,,,,,,,,,,,,,,,,,,,,,,1056.236669715494,None,1057.3364798938856,None,1058.2697666864842,None,1.2423280423280423,0.10060624219477177,1058.2697666864842,None,,,,,,,,,,,,,,,,,175,001,2024_Mar_05_1219,SpeechDraft1Carolyn_lessNoise_PlusLocalization,2021.2.3,60.03326698584126,
,,,,,,,,farRight,19.1,4,ch1Sound_localizationTask.wav,19.1,"(1237, 878)","(277,-202)",285,-338,,,,,,,,,4,5,33,6,,,,,,,,,,,,,,,,,,,,,,,,,,,,,,,,,,,,,,,,,,,,1058.3713661571965,None,1059.4868495641276,None,1060.402968313545,None,1.5666666666666667,0.5501546766608953,1060.402968313545,None,,,,,,,,,,,,,,,,,175,001,2024_Mar_05_1219,SpeechDraft1Carolyn_lessNoise_PlusLocalization,2021.2.3,60.03326698584126,
,,,,,,,,farRight,19.1,4,ch1Sound_localizationTask.wav,19.1,"(1237, 878)","(277,-202)",285,-338,,,,,,,,,4,6,34,6,,,,,,,,,,,,,,,,,,,,,,,,,,,,,,,,,,,,,,,,,,,,1060.953336585313,None,1062.053041351959,None,1062.986404732801,None,1.7328042328042328,0.2329213349148631,1062.986404732801,None,,,,,,,,,,,,,,,,,175,001,2024_Mar_05_1219,SpeechDraft1Carolyn_lessNoise_PlusLocalization,2021.2.3,60.03326698584126,
,,,,,,,,nearLeft,-6.5,1,ch1Sound_localizationTask.wav,-6.5,"(857, 878)","(-103,-202)",-95,-338,,,,,,,,,5,0,35,2,,,,,,,,,,,,,,,,,,,,,,,,,,,,,,,,,,,,,,,,,,,,1063.220247382298,None,1064.3196666259319,None,1065.2533698445186,None,1.4227513227513229,1.0664347484707832,1065.2533698445186,None,,,,,,,,,,,,,,,,,175,001,2024_Mar_05_1219,SpeechDraft1Carolyn_lessNoise_PlusLocalization,2021.2.3,60.03326698584126,
,,,,,,,,nearLeft,-6.5,1,ch1Sound_localizationTask.wav,-6.5,"(857, 878)","(-103,-202)",-95,-338,,,,,,,,,5,1,36,2,,,,,,,,,,,,,,,,,,,,,,,,,,,,,,,,,,,,,,,,,,,,1066.3200450493023,None,1067.4198686107993,None,1068.3531504208222,None,1.2746031746031745,0.7666581040248275,1068.3531504208222,None,,,,,,,,,,,,,,,,,175,001,2024_Mar_05_1219,SpeechDraft1Carolyn_lessNoise_PlusLocalization,2021.2.3,60.03326698584126,
,,,,,,,,farLeft,-19.1,5,ch1Sound_localizationTask.wav,-19.1,"(667, 878)","(-293,-202)",-285,-338,,,,,,,,,5,2,37,0,,,,,,,,,,,,,,,,,,,,,,,,,,,,,,,,,,,,,,,,,,,,1069.120087129064,None,1070.2198564661667,None,1071.153274005279,None,1.2835978835978836,2.766447573900223,1071.153274005279,None,,,,,,,,,,,,,,,,,175,001,2024_Mar_05_1219,SpeechDraft1Carolyn_lessNoise_PlusLocalization,2021.2.3,60.03326698584126,
,,,,,,,,midRight,13.0,3,ch1Sound_localizationTask.wav,13.0,"(1142, 878)","(182, -202)",190,-338,,,,,,,,,5,3,38,5,,,,,,,,,,,,,,,,,,,,,,,,,,,,,,,,,,,,,,,,,,,,1073.9201061772183,None,1075.0197526998818,None,1075.953080266714,None,1.5936507936507938,0.46575548220425844,1075.953080266714,None,,,,,,,,,,,,,,,,,175,001,2024_Mar_05_1219,SpeechDraft1Carolyn_lessNoise_PlusLocalization,2021.2.3,60.03326698584126,
,,,,,,,,farRight,19.1,4,ch1Sound_localizationTask.wav,19.1,"(1237, 878)","(277,-202)",285,-338,,,,,,,,,5,4,39,6,,,,,,,,,,,,,,,,,,,,,,,,,,,,,,,,,,,,,,,,,,,,1076.420385624282,None,1077.5197194581851,None,1078.453112879768,None,1.704232804232804,0.08294190652668476,1078.453112879768,None,,,,,,,,,,,,,,,,,175,001,2024_Mar_05_1219,SpeechDraft1Carolyn_lessNoise_PlusLocalization,2021.2.3,60.03326698584126,
,,,,,,,,nearRight,6.5,0,ch1Sound_localizationTask.wav,6.5,"(1047, 878)","(87, -202)",95,-338,,,,,,,,,5,5,40,4,,,,,,,,,,,,,,,,,,,,,,,,,,,,,,,,,,,,,,,,,,,,1078.5366607587785,None,1079.6363271642476,None,1080.5700729601085,None,1.6169312169312169,0.2832498103380203,1080.5700729601085,None,,,,,,,,,,,,,,,,,175,001,2024_Mar_05_1219,SpeechDraft1Carolyn_lessNoise_PlusLocalization,2021.2.3,60.03326698584126,
,,,,,,,,midRight,13.0,3,ch1Sound_localizationTask.wav,13.0,"(1142, 878)","(182, -202)",190,-338,,,,,,,,,5,6,41,5,,,,,,,,,,,,,,,,,,,,,,,,,,,,,,,,,,,,,,,,,,,,1080.8534680595621,None,1081.9531349223107,None,1082.8864514594898,None,1.6952380952380952,2.682581719942391,1082.8864514594898,None,,,,,,,,,,,,,,,,,175,001,2024_Mar_05_1219,SpeechDraft1Carolyn_lessNoise_PlusLocalization,2021.2.3,60.03326698584126,
,,,,,,,,midRight,13.0,3,ch1Sound_localizationTask.wav,13.0,"(1142, 878)","(182, -202)",190,-338,,,,,,,,,6,0,42,5,,,,,,,,,,,,,,,,,,,,,,,,,,,,,,,,,,,,,,,,,,,,1085.570301214233,None,1086.6697599207982,None,1087.6031269142404,None,1.7126984126984128,1.0323658362030983,1087.6031269142404,None,,,,,,,,,,,,,,,,,175,001,2024_Mar_05_1219,SpeechDraft1Carolyn_lessNoise_PlusLocalization,2021.2.3,60.03326698584126,
,,,,,,,,center,0.0,6,ch1Sound_localizationTask.wav,0.0,"(952, 878)","(-8,-202)",0,-338,,,,,,,,,6,1,43,3,,,,,,,,,,,,,,,,,,,,,,,,,,,,,,,,,,,,,,,,,,,,1088.6367685552686,None,1089.736457535997,None,1090.6698717474937,None,1.6201058201058203,1.2991475695744157,1090.6698717474937,None,,,,,,,,,,,,,,,,,175,001,2024_Mar_05_1219,SpeechDraft1Carolyn_lessNoise_PlusLocalization,2021.2.3,60.03326698584126,
,,,,,,,,nearRight,6.5,0,ch1Sound_localizationTask.wav,6.5,"(1047, 878)","(87, -202)",95,-338,,,,,,,,,6,2,44,4,,,,,,,,,,,,,,,,,,,,,,,,,,,,,,,,,,,,,,,,,,,,1091.9700417835265,None,1093.0697702225298,None,1094.0031667938456,None,1.6201058201058203,0.4494526321068406,1094.0031667938456,None,,,,,,,,,,,,,,,,,175,001,2024_Mar_05_1219,SpeechDraft1Carolyn_lessNoise_PlusLocalization,2021.2.3,60.03326698584126,
,,,,,,,,nearRight,6.5,0,ch1Sound_localizationTask.wav,6.5,"(1047, 878)","(87, -202)",95,-338,,,,,,,,,6,3,45,4,,,,,,,,,,,,,,,,,,,,,,,,,,,,,,,,,,,,,,,,,,,,1094.4534171763808,None,1095.5531040970236,None,1096.4864509105682,None,1.6201058201058203,0.8001093538478017,1096.4864509105682,None,,,,,,,,,,,,,,,,,175,001,2024_Mar_05_1219,SpeechDraft1Carolyn_lessNoise_PlusLocalization,2021.2.3,60.03326698584126,
,,,,,,,,midRight,13.0,3,ch1Sound_localizationTask.wav,13.0,"(1142, 878)","(182, -202)",190,-338,,,,,,,,,6,4,46,5,,,,,,,,,,,,,,,,,,,,,,,,,,,,,,,,,,,,,,,,,,,,1097.2868504561484,None,1098.3864470180124,None,1099.31984372437,None,1.635978835978836,0.5666422415524721,1099.31984372437,None,,,,,,,,,,,,,,,,,175,001,2024_Mar_05_1219,SpeechDraft1Carolyn_lessNoise_PlusLocalization,2021.2.3,60.03326698584126,
,,,,,,,,center,0.0,6,ch1Sound_localizationTask.wav,0.0,"(952, 878)","(-8,-202)",0,-338,,,,,,,,,6,5,47,3,,,,,,,,,,,,,,,,,,,,,,,,,,,,,,,,,,,,,,,,,,,,1099.8867539567873,None,1100.9864566158503,None,1101.9198682103306,None,1.3169312169312168,0.43260739278048277,1101.9198682103306,None,,,,,,,,,,,,,,,,,175,001,2024_Mar_05_1219,SpeechDraft1Carolyn_lessNoise_PlusLocalization,2021.2.3,60.03326698584126,
,,,,,,,,midRight,13.0,3,ch1Sound_localizationTask.wav,13.0,"(1142, 878)","(182, -202)",190,-338,,,,,,,,,6,6,48,5,,,,,,,,,,,,,,,,,,,,,,,,,,,,,,,,,,,,,,,,,,,,1102.3535737888888,None,1103.453061020933,None,1104.3862580955029,None,1.5486772486772487,0.5164883313700557,1104.3862580955029,None,,,,,,,,,,,,,,,,,175,001,2024_Mar_05_1219,SpeechDraft1Carolyn_lessNoise_PlusLocalization,2021.2.3,60.03326698584126,
,,,,,,,,farLeft,-19.1,5,ch1Sound_localizationTask.wav,-19.1,"(667, 878)","(-293,-202)",-285,-338,,,,,,,,,7,0,49,0,,,,,,,,,,,,,,,,,,,,,,,,,,,,,,,,,,,,,,,,,,,,1104.9033358348534,None,1106.0032135732472,None,1106.9364962149411,None,1.3460317460317461,0.16559102665632963,1106.9364962149411,None,,,,,,,,,,,,,,,,,175,001,2024_Mar_05_1219,SpeechDraft1Carolyn_lessNoise_PlusLocalization,2021.2.3,60.03326698584126,
,,,,,,,,nearLeft,-6.5,1,ch1Sound_localizationTask.wav,-6.5,"(857, 878)","(-103,-202)",-95,-338,,,,,,,,,7,1,50,2,,,,,,,,,,,,,,,,,,,,,,,,,,,,,,,,,,,,,,,,,,,,1107.1034383308142,None,1108.203003869392,None,1109.1364754112437,None,1.3894179894179894,0.6825260799378157,1109.1364754112437,None,,,,,,,,,,,,,,,,,175,001,2024_Mar_05_1219,SpeechDraft1Carolyn_lessNoise_PlusLocalization,2021.2.3,60.03326698584126,
,,,,,,,,farRight,19.1,4,ch1Sound_localizationTask.wav,19.1,"(1237, 878)","(277,-202)",285,-338,,,,,,,,,7,2,51,6,,,,,,,,,,,,,,,,,,,,,,,,,,,,,,,,,,,,,,,,,,,,1109.820100040175,None,1110.9199195588008,None,1111.8531695092097,None,1.6555555555555554,0.14884416293352842,1111.8531695092097,None,,,,,,,,,,,,,,,,,175,001,2024_Mar_05_1219,SpeechDraft1Carolyn_lessNoise_PlusLocalization,2021.2.3,60.03326698584126,
,,,,,,,,nearRight,6.5,0,ch1Sound_localizationTask.wav,6.5,"(1047, 878)","(87, -202)",95,-338,,,,,,,,,7,3,52,4,,,,,,,,,,,,,,,,,,,,,,,,,,,,,,,,,,,,,,,,,,,,1112.0034176297486,None,1113.103229851462,None,1114.036577024497,None,1.4788359788359788,0.8003275692462921,1114.036577024497,None,,,,,,,,,,,,,,,,,175,001,2024_Mar_05_1219,SpeechDraft1Carolyn_lessNoise_PlusLocalization,2021.2.3,60.03326698584126,
,,,,,,,,midLeft,-13.0,2,ch1Sound_localizationTask.wav,-13.0,"(762, 878)","(-198,-202)",-190,-338,,,,,,,,,7,4,53,1,,,,,,,,,,,,,,,,,,,,,,,,,,,,,,,,,,,,,,,,,,,,1114.836901933886,None,1115.936581295915,None,1116.8699216740206,None,1.408994708994709,0.2133435057476163,1116.8699216740206,None,,,,,,,,,,,,,,,,,175,001,2024_Mar_05_1219,SpeechDraft1Carolyn_lessNoise_PlusLocalization,2021.2.3,60.03326698584126,
,,,,,,,,farLeft,-19.1,5,ch1Sound_localizationTask.wav,-19.1,"(667, 878)","(-293,-202)",-285,-338,,,,,,,,,7,5,54,0,,,,,,,,,,,,,,,,,,,,,,,,,,,,,,,,,,,,,,,,,,,,1117.1034988341853,None,1118.2032231809571,None,1119.1365269310772,None,1.1296296296296298,0.7825700649991632,1119.1365269310772,None,,,,,,,,,,,,,,,,,175,001,2024_Mar_05_1219,SpeechDraft1Carolyn_lessNoise_PlusLocalization,2021.2.3,60.03326698584126,
,,,,,,,,midLeft,-13.0,2,ch1Sound_localizationTask.wav,-13.0,"(762, 878)","(-198,-202)",-190,-338,,,,,,,,,7,6,55,1,,,,,,,,,,,,,,,,,,,,,,,,,,,,,,,,,,,,,,,,,,,,1119.9200750999153,None,1121.019715147093,None,1121.9533058609813,None,1.2576719576719577,0.8154806550592184,1121.9533058609813,None,,,,,,,,,,,,,,,,,175,001,2024_Mar_05_1219,SpeechDraft1Carolyn_lessNoise_PlusLocalization,2021.2.3,60.03326698584126,
,,,,,,,,,,,,,,,,,,,,,,,,,,,,,,,,,,,,,,,,,,,,,,,,,,,,,,,,,,,,,,,,,,,,,,,,,,,,,,,,,,space,10.622409823350608,1122.853607121855,None,,,,,,,,,,,,,175,001,2024_Mar_05_1219,SpeechDraft1Carolyn_lessNoise_PlusLocalization,2021.2.3,60.03326698584126,
,,,,,,,,midRight,13.0,3,ch1Sound_localizationTask.wav,13.0,"(1142, 878)","(182, -202)",190,-338,,,,,,,,,,,,,0,0,0,5,,,,,,,,,,,,,,,,,,,,,,,,,,,,,,,,,,,,,,,,1133.5198198100552,None,,,1136.5383756337687,None,1.662962962962963,1.2701718593016267,1136.5383756337687,None,,,,,1122.853607121855,None,1134.520140402019,None,1134.703578860499,1134.7201499110088,,,,,,,175,001,2024_Mar_05_1219,SpeechDraft1Carolyn_lessNoise_PlusLocalization,2021.2.3,60.03326698584126,
,,,,,,,,farLeft,-19.1,5,ch1Sound_localizationTask.wav,-19.1,"(667, 878)","(-293,-202)",-285,-338,,,,,,,,,,,,,0,1,1,0,,,,,,,,,,,,,,,,,,,,,,,,,,,,,,,,,,,,,,,,1137.8204436898232,None,,,1140.836617684923,None,1.3253968253968254,0.5814144825562835,1140.836617684923,None,,,,,,,1138.8201350746676,None,1139.0034368550405,1139.020127819851,,,,,,,175,001,2024_Mar_05_1219,SpeechDraft1Carolyn_lessNoise_PlusLocalization,2021.2.3,60.03326698584126,
,,,,,,,,nearLeft,-6.5,1,ch1Sound_localizationTask.wav,-6.5,"(857, 878)","(-103,-202)",-95,-338,,,,,,,,,,,,,0,2,2,2,,,,,,,,,,,,,,,,,,,,,,,,,,,,,,,,,,,,,,,,1141.42006337177,None,,,1144.4366574212909,None,1.4211640211640213,0.5819928180426359,1144.4366574212909,None,,,,,,,1142.4201280651614,None,1142.6034622555599,1142.6201520897448,,,,,,,175,001,2024_Mar_05_1219,SpeechDraft1Carolyn_lessNoise_PlusLocalization,2021.2.3,60.03326698584126,
,,,,,,,,midLeft,-13.0,2,ch1Sound_localizationTask.wav,-13.0,"(762, 878)","(-198,-202)",-190,-338,,,,,,,,,,,,,0,3,3,1,,,,,,,,,,,,,,,,,,,,,,,,,,,,,,,,,,,,,,,,1145.0201198840514,None,,,1148.0364804444835,None,1.4211640211640213,0.5498512173071504,1148.0364804444835,None,,,,,,,1146.0201046383008,None,1146.2035868018866,1146.2202948462218,,,,,,,175,001,2024_Mar_05_1219,SpeechDraft1Carolyn_lessNoise_PlusLocalization,2021.2.3,60.03326698584126,
,,,,,,,,farRight,19.1,4,ch1Sound_localizationTask.wav,19.1,"(1237, 878)","(277,-202)",285,-338,,,,,,,,,,,,,0,4,4,6,,,,,,,,,,,,,,,,,,,,,,,,,,,,,,,,,,,,,,,,1148.5867524258792,None,,,1151.603282717988,None,1.621164021164021,1.4832680188119411,1151.603282717988,None,,,,,,,1149.5867356406525,None,1149.7701065074652,1149.7867727177218,,,,,,,175,001,2024_Mar_05_1219,SpeechDraft1Carolyn_lessNoise_PlusLocalization,2021.2.3,60.03326698584126,
,,,,,,,,nearRight,6.5,0,ch1Sound_localizationTask.wav,6.5,"(1047, 878)","(87, -202)",95,-338,,,,,,,,,,,,,0,5,5,4,,,,,,,,,,,,,,,,,,,,,,,,,,,,,,,,,,,,,,,,1153.087019894272,None,,,1156.1031118743122,None,1.564021164021164,0.564514584839344,1156.1031118743122,None,,,,,,,1154.0868674227968,None,1154.2702255565673,1154.2868553707376,,,,,,,175,001,2024_Mar_05_1219,SpeechDraft1Carolyn_lessNoise_PlusLocalization,2021.2.3,60.03326698584126,
,,,,,,,,center,0.0,6,ch1Sound_localizationTask.wav,0.0,"(952, 878)","(-8,-202)",0,-338,,,,,,,,,,,,,0,6,6,3,,,,,,,,,,,,,,,,,,,,,,,,,,,,,,,,,,,,,,,,1156.6868199994788,None,,,1159.7032467536628,None,1.4582010582010583,0.5339022362604737,1159.7032467536628,None,,,,,,,1157.6868825312704,None,1157.8705047750846,1157.8870563972741,,,,,,,175,001,2024_Mar_05_1219,SpeechDraft1Carolyn_lessNoise_PlusLocalization,2021.2.3,60.03326698584126,
,,,,,,,,farRight,19.1,4,ch1Sound_localizationTask.wav,19.1,"(1237, 878)","(277,-202)",285,-338,,,,,,,,,,,,,1,0,7,6,,,,,,,,,,,,,,,,,,,,,,,,,,,,,,,,,,,,,,,,1160.2535055568442,None,,,1163.2698214212433,None,1.6253968253968254,0.5829044701531529,1163.2698214212433,None,,,,,,,1161.2534995172173,None,1161.4369759159163,1161.4534455137327,,,,,,,175,001,2024_Mar_05_1219,SpeechDraft1Carolyn_lessNoise_PlusLocalization,2021.2.3,60.03326698584126,
,,,,,,,,farRight,19.1,4,ch1Sound_localizationTask.wav,19.1,"(1237, 878)","(277,-202)",285,-338,,,,,,,,,,,,,1,1,8,6,,,,,,,,,,,,,,,,,,,,,,,,,,,,,,,,,,,,,,,,1163.8534906264395,None,,,1166.8698875913396,None,1.6465608465608466,0.3159994510933757,1166.8698875913396,None,,,,,,,1164.8535100743175,None,1165.036809870042,1165.0536174941808,,,,,,,175,001,2024_Mar_05_1219,SpeechDraft1Carolyn_lessNoise_PlusLocalization,2021.2.3,60.03326698584126,
,,,,,,,,midLeft,-13.0,2,ch1Sound_localizationTask.wav,-13.0,"(762, 878)","(-198,-202)",-190,-338,,,,,,,,,,,,,1,2,9,1,,,,,,,,,,,,,,,,,,,,,,,,,,,,,,,,,,,,,,,,1167.18675617408,None,,,1170.2032751711085,None,1.3846560846560847,0.8133081961423159,1170.2032751711085,None,,,,,,,1168.1868345551193,None,1168.3700787024572,1168.3868276523426,,,,,,,175,001,2024_Mar_05_1219,SpeechDraft1Carolyn_lessNoise_PlusLocalization,2021.2.3,60.03326698584126,
,,,,,,,,farRight,19.1,4,ch1Sound_localizationTask.wav,19.1,"(1237, 878)","(277,-202)",285,-338,,,,,,,,,,,,,1,3,10,6,,,,,,,,,,,,,,,,,,,,,,,,,,,,,,,,,,,,,,,,1171.0204217219725,None,,,1174.0367246177047,None,1.6433862433862434,0.9315215460956097,1174.0367246177047,None,,,,,,,1172.0201375475153,None,1172.2035113340244,1172.2201871611178,,,,,,,175,001,2024_Mar_05_1219,SpeechDraft1Carolyn_lessNoise_PlusLocalization,2021.2.3,60.03326698584126,
,,,,,,,,midRight,13.0,3,ch1Sound_localizationTask.wav,13.0,"(1142, 878)","(182, -202)",190,-338,,,,,,,,,,,,,1,4,11,5,,,,,,,,,,,,,,,,,,,,,,,,,,,,,,,,,,,,,,,,1174.9703163960949,None,,,1177.9864820931107,None,1.601058201058201,3.0689971894025803,1177.9864820931107,None,,,,,,,1175.970266237855,None,1176.1535616880283,1176.1700936676934,,,,,,,175,001,2024_Mar_05_1219,SpeechDraft1Carolyn_lessNoise_PlusLocalization,2021.2.3,60.03326698584126,
,,,,,,,,midLeft,-13.0,2,ch1Sound_localizationTask.wav,-13.0,"(762, 878)","(-198,-202)",-190,-338,,,,,,,,,,,,,1,5,12,1,,,,,,,,,,,,,,,,,,,,,,,,,,,,,,,,,,,,,,,,1181.0707926098257,None,,,1184.0866171931848,None,1.4137566137566138,1.0667514223605394,1184.0866171931848,None,,,,,,,1182.070161724463,None,1182.2536174487323,1182.2702894210815,,,,,,,175,001,2024_Mar_05_1219,SpeechDraft1Carolyn_lessNoise_PlusLocalization,2021.2.3,60.03326698584126,
,,,,,,,,midLeft,-13.0,2,ch1Sound_localizationTask.wav,-13.0,"(762, 878)","(-198,-202)",-190,-338,,,,,,,,,,,,,1,6,13,1,,,,,,,,,,,,,,,,,,,,,,,,,,,,,,,,,,,,,,,,1185.153694441542,None,,,1188.1698792120442,None,1.4179894179894181,0.5327787399291992,1188.1698792120442,None,,,,,,,1186.1534538641572,None,1186.3368436982855,1186.3534278385341,,,,,,,175,001,2024_Mar_05_1219,SpeechDraft1Carolyn_lessNoise_PlusLocalization,2021.2.3,60.03326698584126,
,,,,,,,,farRight,19.1,4,ch1Sound_localizationTask.wav,19.1,"(1237, 878)","(277,-202)",285,-338,,,,,,,,,,,,,2,0,14,6,,,,,,,,,,,,,,,,,,,,,,,,,,,,,,,,,,,,,,,,1188.7037774091586,None,,,1191.7198710506782,None,1.6354497354497355,0.49964000657200813,1191.7198710506782,None,,,,,,,1189.7035345854238,None,1189.8868539277464,1189.9036287162453,,,,,,,175,001,2024_Mar_05_1219,SpeechDraft1Carolyn_lessNoise_PlusLocalization,2021.2.3,60.03326698584126,
,,,,,,,,farRight,19.1,4,ch1Sound_localizationTask.wav,19.1,"(1237, 878)","(277,-202)",285,-338,,,,,,,,,,,,,2,1,15,6,,,,,,,,,,,,,,,,,,,,,,,,,,,,,,,,,,,,,,,,1192.220222321339,None,,,1195.2364947590977,None,1.6201058201058203,2.4002505941316485,1195.2364947590977,None,,,,,,,1193.220175541006,None,1193.4035525461659,1193.42037160974,,,,,,,175,001,2024_Mar_05_1219,SpeechDraft1Carolyn_lessNoise_PlusLocalization,2021.2.3,60.03326698584126,
,,,,,,,,nearLeft,-6.5,1,ch1Sound_localizationTask.wav,-6.5,"(857, 878)","(-103,-202)",-95,-338,,,,,,,,,,,,,2,2,16,2,,,,,,,,,,,,,,,,,,,,,,,,,,,,,,,,,,,,,,,,1197.636930881068,None,,,1200.6533486507833,None,1.4412698412698413,0.41604939568787813,1200.6533486507833,None,,,,,,,1198.6368777528405,None,1198.8202085439116,1198.8368396842852,,,,,,,175,001,2024_Mar_05_1219,SpeechDraft1Carolyn_lessNoise_PlusLocalization,2021.2.3,60.03326698584126,
,,,,,,,,nearRight,6.5,0,ch1Sound_localizationTask.wav,6.5,"(1047, 878)","(87, -202)",95,-338,,,,,,,,,,,,,2,3,17,4,,,,,,,,,,,,,,,,,,,,,,,,,,,,,,,,,,,,,,,,1201.070115301758,None,,,1204.0867204451934,None,1.5645502645502645,0.899055483750999,1204.0867204451934,None,,,,,,,1202.0704766912386,None,1202.2536108149216,1202.2702440265566,,,,,,,175,001,2024_Mar_05_1219,SpeechDraft1Carolyn_lessNoise_PlusLocalization,2021.2.3,60.03326698584126,
,,,,,,,,farLeft,-19.1,5,ch1Sound_localizationTask.wav,-19.1,"(667, 878)","(-293,-202)",-285,-338,,,,,,,,,,,,,2,4,18,0,,,,,,,,,,,,,,,,,,,,,,,,,,,,,,,,,,,,,,,,1204.9870301028714,None,,,1208.0032625133172,None,1.342857142857143,0.4995769886299968,1208.0032625133172,None,,,,,,,1205.9868133924901,None,1206.170197785832,1206.1870507197455,,,,,,,175,001,2024_Mar_05_1219,SpeechDraft1Carolyn_lessNoise_PlusLocalization,2021.2.3,60.03326698584126,
,,,,,,,,center,0.0,6,ch1Sound_localizationTask.wav,0.0,"(952, 878)","(-8,-202)",0,-338,,,,,,,,,,,,,2,5,19,3,,,,,,,,,,,,,,,,,,,,,,,,,,,,,,,,,,,,,,,,1208.5038435515016,None,,,1211.5198913263157,None,1.5010582010582012,0.4656855668872595,1211.5198913263157,None,,,,,,,1209.5036537898704,None,1209.6869517490268,1209.703612089157,,,,,,,175,001,2024_Mar_05_1219,SpeechDraft1Carolyn_lessNoise_PlusLocalization,2021.2.3,60.03326698584126,
,,,,,,,,nearRight,6.5,0,ch1Sound_localizationTask.wav,6.5,"(1047, 878)","(87, -202)",95,-338,,,,,,,,,,,,,2,6,20,4,,,,,,,,,,,,,,,,,,,,,,,,,,,,,,,,,,,,,,,,1211.9869384225458,None,,,1215.0032882597297,None,1.5783068783068783,0.9317797245457768,1215.0032882597297,None,,,,,,,1212.986876130104,None,1213.1702522672713,1213.1868712101132,,,,,,,175,001,2024_Mar_05_1219,SpeechDraft1Carolyn_lessNoise_PlusLocalization,2021.2.3,60.03326698584126,
,,,,,,,,farRight,19.1,4,ch1Sound_localizationTask.wav,19.1,"(1237, 878)","(277,-202)",285,-338,,,,,,,,,,,,,3,0,21,6,,,,,,,,,,,,,,,,,,,,,,,,,,,,,,,,,,,,,,,,1215.9368951115757,None,,,1218.9535561809316,None,1.6375661375661377,0.5659300526604056,1218.9535561809316,None,,,,,,,1216.9368851138279,None,1217.1203421708196,1217.1368259191513,,,,,,,175,001,2024_Mar_05_1219,SpeechDraft1Carolyn_lessNoise_PlusLocalization,2021.2.3,60.03326698584126,
,,,,,,,,midRight,13.0,3,ch1Sound_localizationTask.wav,13.0,"(1142, 878)","(182, -202)",190,-338,,,,,,,,,,,,,3,1,22,5,,,,,,,,,,,,,,,,,,,,,,,,,,,,,,,,,,,,,,,,1219.5203926637769,None,,,1222.5366594074294,None,1.6243386243386242,0.4997234819456935,1222.5366594074294,None,,,,,,,1220.5206210818142,None,1220.7035207310691,1220.7204243084416,,,,,,,175,001,2024_Mar_05_1219,SpeechDraft1Carolyn_lessNoise_PlusLocalization,2021.2.3,60.03326698584126,
,,,,,,,,nearRight,6.5,0,ch1Sound_localizationTask.wav,6.5,"(1047, 878)","(87, -202)",95,-338,,,,,,,,,,,,,3,2,23,4,,,,,,,,,,,,,,,,,,,,,,,,,,,,,,,,,,,,,,,,1223.0368741285056,None,,,1226.053349523805,None,1.5518518518518518,0.5668580206111073,1226.053349523805,None,,,,,,,1224.0370316747576,None,1224.2203003680333,1224.236839266494,,,,,,,175,001,2024_Mar_05_1219,SpeechDraft1Carolyn_lessNoise_PlusLocalization,2021.2.3,60.03326698584126,
,,,,,,,,center,0.0,6,ch1Sound_localizationTask.wav,0.0,"(952, 878)","(-8,-202)",0,-338,,,,,,,,,,,,,3,3,24,3,,,,,,,,,,,,,,,,,,,,,,,,,,,,,,,,,,,,,,,,1226.6202180404216,None,,,1229.6367039056495,None,1.475132275132275,0.5496838223189116,1229.6367039056495,None,,,,,,,1227.6202426180243,None,1227.803721559234,1227.8202082514763,,,,,,,175,001,2024_Mar_05_1219,SpeechDraft1Carolyn_lessNoise_PlusLocalization,2021.2.3,60.03326698584126,
,,,,,,,,farLeft,-19.1,5,ch1Sound_localizationTask.wav,-19.1,"(667, 878)","(-293,-202)",-285,-338,,,,,,,,,,,,,3,4,25,0,,,,,,,,,,,,,,,,,,,,,,,,,,,,,,,,,,,,,,,,1230.186992825009,None,,,1233.203325279057,None,1.3460317460317461,0.6163434535264969,1233.203325279057,None,,,,,,,1231.186903897673,None,1231.370215587318,1231.3869594540447,,,,,,,175,001,2024_Mar_05_1219,SpeechDraft1Carolyn_lessNoise_PlusLocalization,2021.2.3,60.03326698584126,
,,,,,,,,farRight,19.1,4,ch1Sound_localizationTask.wav,19.1,"(1237, 878)","(277,-202)",285,-338,,,,,,,,,,,,,3,5,26,6,,,,,,,,,,,,,,,,,,,,,,,,,,,,,,,,,,,,,,,,1233.8217959953472,None,,,1236.853271513246,None,1.668783068783069,1.2988829463720322,1236.853271513246,None,,,,,,,1234.8370376620442,None,1235.020226973109,1235.036898667924,,,,,,,175,001,2024_Mar_05_1219,SpeechDraft1Carolyn_lessNoise_PlusLocalization,2021.2.3,60.03326698584126,
,,,,,,,,farLeft,-19.1,5,ch1Sound_localizationTask.wav,-19.1,"(667, 878)","(-293,-202)",-285,-338,,,,,,,,,,,,,3,6,27,0,,,,,,,,,,,,,,,,,,,,,,,,,,,,,,,,,,,,,,,,1238.1538039203733,None,,,1241.170189791359,None,1.3264550264550263,0.629104751162231,1241.170189791359,None,,,,,,,1239.1536665540189,None,1239.3369203228503,1239.3535653408617,,,,,,,175,001,2024_Mar_05_1219,SpeechDraft1Carolyn_lessNoise_PlusLocalization,2021.2.3,60.03326698584126,
,,,,,,,,midLeft,-13.0,2,ch1Sound_localizationTask.wav,-13.0,"(762, 878)","(-198,-202)",-190,-338,,,,,,,,,,,,,4,0,28,1,,,,,,,,,,,,,,,,,,,,,,,,,,,,,,,,,,,,,,,,1241.8036543456838,None,,,1244.8200620543212,None,1.5142857142857142,3.082883073017001,1244.8200620543212,None,,,,,,,1242.8035560641438,None,1242.986888859421,1243.003776377067,,,,,,,175,001,2024_Mar_05_1219,SpeechDraft1Carolyn_lessNoise_PlusLocalization,2021.2.3,60.03326698584126,
,,,,,,,,midRight,13.0,3,ch1Sound_localizationTask.wav,13.0,"(1142, 878)","(182, -202)",190,-338,,,,,,,,,,,,,4,1,29,5,,,,,,,,,,,,,,,,,,,,,,,,,,,,,,,,,,,,,,,,1247.903656495735,None,,,1250.9200342930853,None,1.5915343915343916,0.49963828828185797,1250.9200342930853,None,,,,,,,1248.9040842838585,None,1249.086904979311,1249.1035760911182,,,,,,,175,001,2024_Mar_05_1219,SpeechDraft1Carolyn_lessNoise_PlusLocalization,2021.2.3,60.03326698584126,
,,,,,,,,midRight,13.0,3,ch1Sound_localizationTask.wav,13.0,"(1142, 878)","(182, -202)",190,-338,,,,,,,,,,,,,4,2,30,5,,,,,,,,,,,,,,,,,,,,,,,,,,,,,,,,,,,,,,,,1251.420366441831,None,,,1254.4366625593975,None,1.5957671957671957,0.5828003464266658,1254.4366625593975,None,,,,,,,1252.4203883940354,None,1252.6035651592538,1252.620272998698,,,,,,,175,001,2024_Mar_05_1219,SpeechDraft1Carolyn_lessNoise_PlusLocalization,2021.2.3,60.03326698584126,
,,,,,,,,farLeft,-19.1,5,ch1Sound_localizationTask.wav,-19.1,"(667, 878)","(-293,-202)",-285,-338,,,,,,,,,,,,,4,3,31,0,,,,,,,,,,,,,,,,,,,,,,,,,,,,,,,,,,,,,,,,1255.020308307372,None,,,1258.0366179682314,None,1.3698412698412699,0.8990703001618385,1258.0366179682314,None,,,,,,,1256.0203265342861,None,1256.2036585649475,1256.2203371515498,,,,,,,175,001,2024_Mar_05_1219,SpeechDraft1Carolyn_lessNoise_PlusLocalization,2021.2.3,60.03326698584126,
,,,,,,,,center,0.0,6,ch1Sound_localizationTask.wav,0.0,"(952, 878)","(-8,-202)",0,-338,,,,,,,,,,,,,4,4,32,3,,,,,,,,,,,,,,,,,,,,,,,,,,,,,,,,,,,,,,,,1258.936933318153,None,,,1261.9534211112186,None,1.4994708994708994,1.0485455878078938,1261.9534211112186,None,,,,,,,1259.936883641407,None,1260.1202335301787,1260.137016328983,,,,,,,175,001,2024_Mar_05_1219,SpeechDraft1Carolyn_lessNoise_PlusLocalization,2021.2.3,60.03326698584126,
,,,,,,,,midRight,13.0,3,ch1Sound_localizationTask.wav,13.0,"(1142, 878)","(182, -202)",190,-338,,,,,,,,,,,,,4,5,33,5,,,,,,,,,,,,,,,,,,,,,,,,,,,,,,,,,,,,,,,,1263.0036199586466,None,,,1266.0200886167586,None,1.5878306878306878,0.8988860277459025,1266.0200886167586,None,,,,,,,1264.003603072837,None,1264.1869619581848,1264.2035815911368,,,,,,,175,001,2024_Mar_05_1219,SpeechDraft1Carolyn_lessNoise_PlusLocalization,2021.2.3,60.03326698584126,
,,,,,,,,nearLeft,-6.5,1,ch1Sound_localizationTask.wav,-6.5,"(857, 878)","(-103,-202)",-95,-338,,,,,,,,,,,,,4,6,34,2,,,,,,,,,,,,,,,,,,,,,,,,,,,,,,,,,,,,,,,,1266.9203298259526,None,,,1269.9366839732975,None,1.4444444444444444,0.6320681292563677,1269.9366839732975,None,,,,,,,1267.9202313739806,None,1268.103588921018,1268.1202585948631,,,,,,,175,001,2024_Mar_05_1219,SpeechDraft1Carolyn_lessNoise_PlusLocalization,2021.2.3,60.03326698584126,
,,,,,,,,midRight,13.0,3,ch1Sound_localizationTask.wav,13.0,"(1142, 878)","(182, -202)",190,-338,,,,,,,,,,,,,5,0,35,5,,,,,,,,,,,,,,,,,,,,,,,,,,,,,,,,,,,,,,,,1270.570373549126,None,,,1273.586819618009,None,1.602116402116402,0.8829849855974317,1273.586819618009,None,,,,,,,1271.5703516136855,None,1271.7536360975355,1271.7703711623326,,,,,,,175,001,2024_Mar_05_1219,SpeechDraft1Carolyn_lessNoise_PlusLocalization,2021.2.3,60.03326698584126,
,,,,,,,,midLeft,-13.0,2,ch1Sound_localizationTask.wav,-13.0,"(762, 878)","(-198,-202)",-190,-338,,,,,,,,,,,,,5,1,36,1,,,,,,,,,,,,,,,,,,,,,,,,,,,,,,,,,,,,,,,,1274.4703333321959,None,,,1277.4867246560752,None,1.408994708994709,0.8822360429912806,1277.4867246560752,None,,,,,,,1275.4702659575269,None,1275.6536271646619,1275.6703198300675,,,,,,,175,001,2024_Mar_05_1219,SpeechDraft1Carolyn_lessNoise_PlusLocalization,2021.2.3,60.03326698584126,
,,,,,,,,nearRight,6.5,0,ch1Sound_localizationTask.wav,6.5,"(1047, 878)","(87, -202)",95,-338,,,,,,,,,,,,,5,2,37,4,,,,,,,,,,,,,,,,,,,,,,,,,,,,,,,,,,,,,,,,1278.3703340953216,None,,,1281.3867753567174,None,1.5560846560846562,0.9651928870007396,1281.3867753567174,None,,,,,,,1279.3703727079555,None,1279.553722976707,1279.5705112507567,,,,,,,175,001,2024_Mar_05_1219,SpeechDraft1Carolyn_lessNoise_PlusLocalization,2021.2.3,60.03326698584126,
,,,,,,,,center,0.0,6,ch1Sound_localizationTask.wav,0.0,"(952, 878)","(-8,-202)",0,-338,,,,,,,,,,,,,5,3,38,3,,,,,,,,,,,,,,,,,,,,,,,,,,,,,,,,,,,,,,,,1282.3536114683375,None,,,1285.370079882443,None,1.4746031746031747,0.49960634019225836,1285.370079882443,None,,,,,,,1283.3537986148149,None,1283.5370158450678,1283.5536915082484,,,,,,,175,001,2024_Mar_05_1219,SpeechDraft1Carolyn_lessNoise_PlusLocalization,2021.2.3,60.03326698584126,
,,,,,,,,nearLeft,-6.5,1,ch1Sound_localizationTask.wav,-6.5,"(857, 878)","(-103,-202)",-95,-338,,,,,,,,,,,,,5,4,39,2,,,,,,,,,,,,,,,,,,,,,,,,,,,,,,,,,,,,,,,,1285.8703110776842,None,,,1288.8866972103715,None,1.4142857142857141,0.465345935896039,1288.8866972103715,None,,,,,,,1286.8702948922291,None,1287.0536744790152,1287.0703357597813,,,,,,,175,001,2024_Mar_05_1219,SpeechDraft1Carolyn_lessNoise_PlusLocalization,2021.2.3,60.03326698584126,
,,,,,,,,nearRight,6.5,0,ch1Sound_localizationTask.wav,6.5,"(1047, 878)","(87, -202)",95,-338,,,,,,,,,,,,,5,5,40,4,,,,,,,,,,,,,,,,,,,,,,,,,,,,,,,,,,,,,,,,1289.3536767624319,None,,,1292.370086601004,None,1.5555555555555556,0.6664713164791465,1292.370086601004,None,,,,,,,1290.353919049725,None,1290.5369935790077,1290.553637568839,,,,,,,175,001,2024_Mar_05_1219,SpeechDraft1Carolyn_lessNoise_PlusLocalization,2021.2.3,60.03326698584126,
,,,,,,,,center,0.0,6,ch1Sound_localizationTask.wav,0.0,"(952, 878)","(-8,-202)",0,-338,,,,,,,,,,,,,5,6,41,3,,,,,,,,,,,,,,,,,,,,,,,,,,,,,,,,,,,,,,,,1293.0370177729055,None,,,1296.0534167634323,None,1.498941798941799,0.5664912266656756,1296.0534167634323,None,,,,,,,1294.0370293818414,None,1294.2204239415005,1294.2369773080572,,,,,,,175,001,2024_Mar_05_1219,SpeechDraft1Carolyn_lessNoise_PlusLocalization,2021.2.3,60.03326698584126,
,,,,,,,,midRight,13.0,3,ch1Sound_localizationTask.wav,13.0,"(1142, 878)","(182, -202)",190,-338,,,,,,,,,,,,,6,0,42,5,,,,,,,,,,,,,,,,,,,,,,,,,,,,,,,,,,,,,,,,1296.6203911025077,None,,,1299.6368865380064,None,1.597883597883598,0.666093748062849,1299.6368865380064,None,,,,,,,1297.620254745707,None,1297.8037149123847,1297.8203320093453,,,,,,,175,001,2024_Mar_05_1219,SpeechDraft1Carolyn_lessNoise_PlusLocalization,2021.2.3,60.03326698584126,
,,,,,,,,farLeft,-19.1,5,ch1Sound_localizationTask.wav,-19.1,"(667, 878)","(-293,-202)",-285,-338,,,,,,,,,,,,,6,1,43,0,,,,,,,,,,,,,,,,,,,,,,,,,,,,,,,,,,,,,,,,1300.303681225516,None,,,1303.3199980249628,None,1.3650793650793651,0.6318437354639173,1303.3199980249628,None,,,,,,,1301.3036881852895,None,1301.487062512897,1301.5036943024024,,,,,,,175,001,2024_Mar_05_1219,SpeechDraft1Carolyn_lessNoise_PlusLocalization,2021.2.3,60.03326698584126,
,,,,,,,,center,0.0,6,ch1Sound_localizationTask.wav,0.0,"(952, 878)","(-8,-202)",0,-338,,,,,,,,,,,,,6,2,44,3,,,,,,,,,,,,,,,,,,,,,,,,,,,,,,,,,,,,,,,,1303.953639329411,None,,,1306.9700526883826,None,1.5074074074074075,1.0494486866518855,1306.9700526883826,None,,,,,,,1304.953709686175,None,1305.1370010348037,1305.15365785826,,,,,,,175,001,2024_Mar_05_1219,SpeechDraft1Carolyn_lessNoise_PlusLocalization,2021.2.3,60.03326698584126,
,,,,,,,,nearLeft,-6.5,1,ch1Sound_localizationTask.wav,-6.5,"(857, 878)","(-103,-202)",-95,-338,,,,,,,,,,,,,6,3,45,2,,,,,,,,,,,,,,,,,,,,,,,,,,,,,,,,,,,,,,,,1308.0203219242394,None,,,1311.0366982547566,None,1.4396825396825397,0.8988814912736416,1311.0366982547566,None,,,,,,,1309.0203339112923,None,1309.203697398305,1309.2203819993883,,,,,,,175,001,2024_Mar_05_1219,SpeechDraft1Carolyn_lessNoise_PlusLocalization,2021.2.3,60.03326698584126,
,,,,,,,,farLeft,-19.1,5,ch1Sound_localizationTask.wav,-19.1,"(667, 878)","(-293,-202)",-285,-338,,,,,,,,,,,,,6,4,46,0,,,,,,,,,,,,,,,,,,,,,,,,,,,,,,,,,,,,,,,,1311.937036562711,None,,,1314.953520023264,None,1.3772486772486774,0.2661180719733238,1314.953520023264,None,,,,,,,1312.9369972450659,None,1313.1202974310145,1313.137027233839,,,,,,,175,001,2024_Mar_05_1219,SpeechDraft1Carolyn_lessNoise_PlusLocalization,2021.2.3,60.03326698584126,
,,,,,,,,center,0.0,6,ch1Sound_localizationTask.wav,0.0,"(952, 878)","(-8,-202)",0,-338,,,,,,,,,,,,,6,5,47,3,,,,,,,,,,,,,,,,,,,,,,,,,,,,,,,,,,,,,,,,1315.2203080905601,None,,,1318.2367689451203,None,1.5047619047619047,1.1494876584038138,1318.2367689451203,None,,,,,,,1316.2203230522573,None,1316.4036839185283,1316.4203475443646,,,,,,,175,001,2024_Mar_05_1219,SpeechDraft1Carolyn_lessNoise_PlusLocalization,2021.2.3,60.03326698584126,
,,,,,,,,nearRight,6.5,0,ch1Sound_localizationTask.wav,6.5,"(1047, 878)","(87, -202)",95,-338,,,,,,,,,,,,,6,6,48,4,,,,,,,,,,,,,,,,,,,,,,,,,,,,,,,,,,,,,,,,1319.3870602361858,None,,,1322.4035110343248,None,1.5756613756613755,1.1154852416366339,1322.4035110343248,None,,,,,,,1320.3870181404054,None,1320.5704814204946,1320.5870114210993,,,,,,,175,001,2024_Mar_05_1219,SpeechDraft1Carolyn_lessNoise_PlusLocalization,2021.2.3,60.03326698584126,
,,,,,,,,nearLeft,-6.5,1,ch1Sound_localizationTask.wav,-6.5,"(857, 878)","(-103,-202)",-95,-338,,,,,,,,,,,,,7,0,49,2,,,,,,,,,,,,,,,,,,,,,,,,,,,,,,,,,,,,,,,,1323.52053326834,None,,,1326.536800746806,None,1.4428571428571428,0.882361801341176,1326.536800746806,None,,,,,,,1324.520304554142,None,1324.7037350488827,1324.7202959600836,,,,,,,175,001,2024_Mar_05_1219,SpeechDraft1Carolyn_lessNoise_PlusLocalization,2021.2.3,60.03326698584126,
,,,,,,,,nearLeft,-6.5,1,ch1Sound_localizationTask.wav,-6.5,"(857, 878)","(-103,-202)",-95,-338,,,,,,,,,,,,,7,1,50,2,,,,,,,,,,,,,,,,,,,,,,,,,,,,,,,,,,,,,,,,1327.420485897921,None,,,1330.436859048903,None,1.4502645502645501,0.6987611697986722,1330.436859048903,None,,,,,,,1328.420271679759,None,1328.6037008371204,1328.620293433778,,,,,,,175,001,2024_Mar_05_1219,SpeechDraft1Carolyn_lessNoise_PlusLocalization,2021.2.3,60.03326698584126,
,,,,,,,,nearRight,6.5,0,ch1Sound_localizationTask.wav,6.5,"(1047, 878)","(87, -202)",95,-338,,,,,,,,,,,,,7,2,51,4,,,,,,,,,,,,,,,,,,,,,,,,,,,,,,,,,,,,,,,,1331.137823779136,None,,,1334.1534515647218,None,1.552910052910053,1.0663733314722776,1334.1534515647218,None,,,,,,,1332.137042448856,None,1332.3203172152862,1332.3370043300092,,,,,,,175,001,2024_Mar_05_1219,SpeechDraft1Carolyn_lessNoise_PlusLocalization,2021.2.3,60.03326698584126,
,,,,,,,,midLeft,-13.0,2,ch1Sound_localizationTask.wav,-13.0,"(762, 878)","(-198,-202)",-190,-338,,,,,,,,,,,,,7,3,52,1,,,,,,,,,,,,,,,,,,,,,,,,,,,,,,,,,,,,,,,,1335.220471196808,None,,,1338.2366928029805,None,1.4296296296296296,1.1973064122721553,1338.2366928029805,None,,,,,,,1336.2204130273312,None,1336.403747643344,1336.4203602699563,,,,,,,175,001,2024_Mar_05_1219,SpeechDraft1Carolyn_lessNoise_PlusLocalization,2021.2.3,60.03326698584126,
,,,,,,,,nearLeft,-6.5,1,ch1Sound_localizationTask.wav,-6.5,"(857, 878)","(-103,-202)",-95,-338,,,,,,,,,,,,,7,4,53,2,,,,,,,,,,,,,,,,,,,,,,,,,,,,,,,,,,,,,,,,1339.4372250167653,None,,,1342.4534233650193,None,1.4417989417989419,0.3153862738981843,1342.4534233650193,None,,,,,,,1340.4370585028082,None,1340.620479768142,1340.6369822155684,,,,,,,175,001,2024_Mar_05_1219,SpeechDraft1Carolyn_lessNoise_PlusLocalization,2021.2.3,60.03326698584126,
,,,,,,,,midLeft,-13.0,2,ch1Sound_localizationTask.wav,-13.0,"(762, 878)","(-198,-202)",-190,-338,,,,,,,,,,,,,7,5,54,1,,,,,,,,,,,,,,,,,,,,,,,,,,,,,,,,,,,,,,,,1342.7703993758187,None,,,1345.786829808727,None,1.4417989417989419,0.5828717323020101,1345.786829808727,None,,,,,,,1343.7704069335014,None,1343.9537382647395,1343.9703806638718,,,,,,,175,001,2024_Mar_05_1219,SpeechDraft1Carolyn_lessNoise_PlusLocalization,2021.2.3,60.03326698584126,
,,,,,,,,farLeft,-19.1,5,ch1Sound_localizationTask.wav,-19.1,"(667, 878)","(-293,-202)",-285,-338,,,,,,,,,,,,,7,6,55,0,,,,,,,,,,,,,,,,,,,,,,,,,,,,,,,,,,,,,,,,1346.3704717438668,None,,,1349.3868362288922,None,1.4005291005291005,0.5655030719935894,1349.3868362288922,None,,,,,,,1347.3703831396997,None,1347.5536196539178,1347.5704540247098,,,,,,,175,001,2024_Mar_05_1219,SpeechDraft1Carolyn_lessNoise_PlusLocalization,2021.2.3,60.03326698584126,
,,,,,,,,,,,,,,,,,,,,,,,,,,,,,,,,,,,,,,,,,,,,,,,,,,,,,,,,,,,,,,,,,,,,,,,,,,,,,,,,,,,,,,,,,,,,1349.95372691378,None,c,60.03498474787921,1350.9370370516554,None,175,001,2024_Mar_05_1219,SpeechDraft1Carolyn_lessNoise_PlusLocalization,2021.2.3,60.03326698584126,
