Audio_Only_Files,Video_Files,Original_Word_List,noiseLevelCode,conditionCodes,noiseLevelFile1,noiseLevelFile2,InstrTextVar,targetSpeakerName,targetSpeakerEccen,targetSpkrChannel,targetSpkrSound,targetVisualDegrees,visStimLoc,visStimLoc2,visStimW,visStimH,practiceTrials.thisRepN,practiceTrials.thisTrialN,practiceTrials.thisN,practiceTrials.thisIndex,trials.thisRepN,trials.thisTrialN,trials.thisN,trials.thisIndex,audLocalLoop.thisRepN,audLocalLoop.thisTrialN,audLocalLoop.thisN,audLocalLoop.thisIndex,visualLocalLoop.thisRepN,visualLocalLoop.thisTrialN,visualLocalLoop.thisN,visualLocalLoop.thisIndex,letsGoAlready.keys,letsGoAlready.rt,letsGoAlready.started,letsGoAlready.stopped,text_2.started,text_2.stopped,text_3.started,text_3.stopped,key_resp_2.keys,key_resp_2.rt,key_resp_2.started,key_resp_2.stopped,text_5.started,text_5.stopped,fixCross.started,fixCross.stopped,fixCross2.started,fixCross2.stopped,answerPrompt.started,answerPrompt.stopped,getAnswer.text,getAnswer.started,getAnswer.stopped,goToNext.keys,goToNext.rt,goToNext.started,goToNext.stopped,stretchBreakTxrt.started,stretchBreakTxrt.stopped,key_resp_3.keys,key_resp_3.rt,key_resp_3.started,key_resp_3.stopped,letsGoLocal.keys,letsGoLocal.rt,letsGoLocal.started,letsGoLocal.stopped,text_4.started,text_4.stopped,prepFixTxt.started,prepFixTxt.stopped,prepFixTxt_2.started,prepFixTxt_2.stopped,respPromptLocal.started,respPromptLocal.stopped,slider.response,slider.rt,slider.started,slider.stopped,letsGoLocal_2.keys,letsGoLocal_2.rt,letsGoLocal_2.started,letsGoLocal_2.stopped,text_7.started,text_7.stopped,prepFixTxt_3.started,prepFixTxt_3.stopped,grating.started,grating.stopped,exitTxt.started,exitTxt.stopped,key_resp.keys,key_resp.rt,key_resp.started,key_resp.stopped,participant,session,date,expName,psychopyVersion,frameRate,
,,,,,,,,,,,,,,,,,,,,,,,,,,,,,,,,,space,15.337398267351091,141.59580297395587,None,,,,,,,,,,,,,,,,,,,,,,,,,,,,,,,,,,,,,,,,,,,,,,,,,,,,,,,,,,,,,,176,001,2024_Mar_05_1717,SpeechDraft1Carolyn_lessNoise_PlusLocalization,2021.2.3,59.89364837455628,
,,,,,,,,,,,,,,,,,,,,,,,,,,,,,,,,,,,,,141.59580297395587,None,157.06217198073864,None,space,8.503554940223694,157.24558064062148,None,,,,,,,,,,,,,,,,,,,,,,,,,,,,,,,,,,,,,,,,,,,,,,,,,,,,,,176,001,2024_Mar_05_1717,SpeechDraft1Carolyn_lessNoise_PlusLocalization,2021.2.3,59.89364837455628,
ash.wav,ash.mpg,ash,1,A,Pink_Noise_1_1.wav,Pink_Noise_1_2.wav,"This is an example of an

AUDIO trial",,,,,,,,,,0,0,0,0,,,,,,,,,,,,,,,,,,,,,,,,,165.79556615650654,None,166.7957787597552,None,170.87871840782464,None,172.26220707595348,None,ash,172.26220707595348,None,return,4.3155919425189495,172.34552651830018,None,,,,,,,,,,,,,,,,,,,,,,,,,,,,,,,,,,,,,,,176,001,2024_Mar_05_1717,SpeechDraft1Carolyn_lessNoise_PlusLocalization,2021.2.3,59.89364837455628,
ash.wav,ash.mpg,ash,1,AV,Pink_Noise_1_1.wav,Pink_Noise_1_2.wav,"This is an example of an

AUDIO + VIDEO  trial",,,,,,,,,,0,1,1,1,,,,,,,,,,,,,,,,,,,,,,,,,176.6952833114192,None,177.69550480600446,None,179.17864487692714,None,180.56220589764416,None,ash,180.56220589764416,None,return,4.191356814466417,180.6456921864301,None,,,,,,,,,,,,,,,,,,,,,,,,,,,,,,,,,,,,,,,176,001,2024_Mar_05_1717,SpeechDraft1Carolyn_lessNoise_PlusLocalization,2021.2.3,59.89364837455628,
,,,,,,,,,,,,,,,,,,,,,,,,,,,,,,,,,,,,,,,,,,,,,,,,,,,,,,,,,,,,184.87873599957675,None,space,11.126785800792277,185.0622609714046,None,,,,,,,,,,,,,,,,,,,,,,,,,,,,,,,,,176,001,2024_Mar_05_1717,SpeechDraft1Carolyn_lessNoise_PlusLocalization,2021.2.3,59.89364837455628,
quest.wav,quest.mpg,quest,4,A,Pink_Noise_4_1.wav,Pink_Noise_4_2.wav,,,,,,,,,,,,,,,0,0,0,13,,,,,,,,,,,,,,,,,,,,,,,196.24526799842715,None,197.7286405991763,None,199.11229643784463,None,wes,199.11229643784463,None,return,3.289472820237279,199.19565128535032,None,,,,,,,,,,,,,,,,,,,,,,,,,,,,,,,,,,,,,,,176,001,2024_Mar_05_1717,SpeechDraft1Carolyn_lessNoise_PlusLocalization,2021.2.3,59.89364837455628,
mass.wav,mass.mpg,mass,2,AV,Pink_Noise_2_1.wav,Pink_Noise_2_2.wav,,,,,,,,,,,,,,,0,1,1,94,,,,,,,,,,,,,,,,,,,,,,,202.51225946471095,None,204.01205166056752,None,205.3956090733409,None,mess,205.3956090733409,None,return,1.4462007526308298,205.47892070002854,None,,,,,,,,,,,,,,,,,,,,,,,,,,,,,,,,,,,,,,,176,001,2024_Mar_05_1717,SpeechDraft1Carolyn_lessNoise_PlusLocalization,2021.2.3,59.89364837455628,
fee.wav,fee.mpg,fee,3,A,Pink_Noise_3_1.wav,Pink_Noise_3_2.wav,,,,,,,,,,,,,,,0,2,2,42,,,,,,,,,,,,,,,,,,,,,,,206.9456982994452,None,208.445307017304,None,209.829001031816,None,p,209.829001031816,None,return,2.5888645946979523,209.91229304671288,None,,,,,,,,,,,,,,,,,,,,,,,,,,,,,,,,,,,,,,,176,001,2024_Mar_05_1717,SpeechDraft1Carolyn_lessNoise_PlusLocalization,2021.2.3,59.89364837455628,
dare.wav,dare.mpg,dare,4,AV,Pink_Noise_4_1.wav,Pink_Noise_4_2.wav,,,,,,,,,,,,,,,0,3,3,89,,,,,,,,,,,,,,,,,,,,,,,212.52894696965814,None,214.02870029583573,None,215.41218296065927,None,"day
",215.41218296065927,None,return,1.5174347022548318,215.49563035555184,None,,,,,,,,,,,,,,,,,,,,,,,,,,,,,,,,,,,,,,,176,001,2024_Mar_05_1717,SpeechDraft1Carolyn_lessNoise_PlusLocalization,2021.2.3,59.89364837455628,
crush.wav,crush.mpg,crush,2,AV,Pink_Noise_2_1.wav,Pink_Noise_2_2.wav,,,,,,,,,,,,,,,0,4,4,64,,,,,,,,,,,,,,,,,,,,,,,217.04562348034233,None,218.5291293002665,None,219.92871225439012,None,crush,219.92871225439012,None,return,0.8897072393447161,219.99558276776224,None,,,,,,,,,,,,,,,,,,,,,,,,,,,,,,,,,,,,,,,176,001,2024_Mar_05_1717,SpeechDraft1Carolyn_lessNoise_PlusLocalization,2021.2.3,59.89364837455628,
bib.wav,bib.mpg,bib,2,AV,Pink_Noise_2_1.wav,Pink_Noise_2_2.wav,,,,,,,,,,,,,,,0,5,5,104,,,,,,,,,,,,,,,,,,,,,,,220.91232031956315,None,222.39623338822275,None,223.7789429537952,None,bib,223.7789429537952,None,return,0.6947744814679027,223.86229213234037,None,,,,,,,,,,,,,,,,,,,,,,,,,,,,,,,,,,,,,,,176,001,2024_Mar_05_1717,SpeechDraft1Carolyn_lessNoise_PlusLocalization,2021.2.3,59.89364837455628,
fool.wav,fool.mpg,fool,1,A,Pink_Noise_1_1.wav,Pink_Noise_1_2.wav,,,,,,,,,,,,,,,0,6,6,6,,,,,,,,,,,,,,,,,,,,,,,224.57895456906408,None,226.06214208249003,None,227.44563210196793,None,fool,227.44563210196793,None,return,5.076061090454459,227.52899572253227,None,,,,,,,,,,,,,,,,,,,,,,,,,,,,,,,,,,,,,,,176,001,2024_Mar_05_1717,SpeechDraft1Carolyn_lessNoise_PlusLocalization,2021.2.3,59.89364837455628,
dot.wav,dot.mpg,dot,2,A,Pink_Noise_2_1.wav,Pink_Noise_2_2.wav,,,,,,,,,,,,,,,0,7,7,36,,,,,,,,,,,,,,,,,,,,,,,232.62889877706766,None,234.12863068748266,None,235.5123014114797,None,doy,235.5123014114797,None,return,6.697520376183093,235.59559559635818,None,,,,,,,,,,,,,,,,,,,,,,,,,,,,,,,,,,,,,,,176,001,2024_Mar_05_1717,SpeechDraft1Carolyn_lessNoise_PlusLocalization,2021.2.3,59.89364837455628,
sock.wav,sock.mpg,sock,6,A,Pink_Noise_6_1.wav,Pink_Noise_6_2.wav,,,,,,,,,,,,,,,0,8,8,33,,,,,,,,,,,,,,,,,,,,,,,242.31234195735306,None,243.81201235298067,None,245.1958612445742,None,lust,245.1958612445742,None,return,3.18210956081748,245.27901762351394,None,,,,,,,,,,,,,,,,,,,,,,,,,,,,,,,,,,,,,,,176,001,2024_Mar_05_1717,SpeechDraft1Carolyn_lessNoise_PlusLocalization,2021.2.3,59.89364837455628,
pride.wav,pride.mpg,pride,6,A,Pink_Noise_6_1.wav,Pink_Noise_6_2.wav,,,,,,,,,,,,,,,0,9,9,37,,,,,,,,,,,,,,,,,,,,,,,248.47897004242986,None,249.97876097355038,None,251.36235600989312,None,stay,251.36235600989312,None,return,2.5113649144768715,251.44570259656757,None,,,,,,,,,,,,,,,,,,,,,,,,,,,,,,,,,,,,,,,176,001,2024_Mar_05_1717,SpeechDraft1Carolyn_lessNoise_PlusLocalization,2021.2.3,59.89364837455628,
fed.wav,fed.mpg,fed,1,A,Pink_Noise_1_1.wav,Pink_Noise_1_2.wav,,,,,,,,,,,,,,,0,10,10,47,,,,,,,,,,,,,,,,,,,,,,,253.97909588273615,None,255.46278091333807,None,256.84566323738545,None,fed,256.84566323738545,None,return,0.9079882092773914,256.92906115576625,None,,,,,,,,,,,,,,,,,,,,,,,,,,,,,,,,,,,,,,,176,001,2024_Mar_05_1717,SpeechDraft1Carolyn_lessNoise_PlusLocalization,2021.2.3,59.89364837455628,
batch.wav,batch.mpg,batch,6,AV,Pink_Noise_6_1.wav,Pink_Noise_6_2.wav,,,,,,,,,,,,,,,0,11,11,107,,,,,,,,,,,,,,,,,,,,,,,257.86236894037575,None,259.34711912926286,None,260.72897474002093,None,mesh,260.72897474002093,None,return,1.056765053421259,260.81237226817757,None,,,,,,,,,,,,,,,,,,,,,,,,,,,,,,,,,,,,,,,176,001,2024_Mar_05_1717,SpeechDraft1Carolyn_lessNoise_PlusLocalization,2021.2.3,59.89364837455628,
brick.wav,brick.mpg,brick,5,A,Pink_Noise_5_1.wav,Pink_Noise_5_2.wav,,,,,,,,,,,,,,,0,12,12,16,,,,,,,,,,,,,,,,,,,,,,,261.8956112889573,None,263.4120641313493,None,264.7956086564809,None,britch,264.7956086564809,None,return,5.2061723889783025,264.8790069613606,None,,,,,,,,,,,,,,,,,,,,,,,,,,,,,,,,,,,,,,,176,001,2024_Mar_05_1717,SpeechDraft1Carolyn_lessNoise_PlusLocalization,2021.2.3,59.89364837455628,
beg.wav,beg.mpg,beg,6,AV,Pink_Noise_6_1.wav,Pink_Noise_6_2.wav,,,,,,,,,,,,,,,0,13,13,65,,,,,,,,,,,,,,,,,,,,,,,270.1123543633148,None,271.6121309613809,None,272.9956567324698,None,may,272.9956567324698,None,return,4.614057428203523,273.07902930583805,None,,,,,,,,,,,,,,,,,,,,,,,,,,,,,,,,,,,,,,,176,001,2024_Mar_05_1717,SpeechDraft1Carolyn_lessNoise_PlusLocalization,2021.2.3,59.89364837455628,
deem.wav,deem.mpg,deem,5,A,Pink_Noise_5_1.wav,Pink_Noise_5_2.wav,,,,,,,,,,,,,,,0,14,14,27,,,,,,,,,,,,,,,,,,,,,,,277.7123570982367,None,279.1959671396762,None,280.5790931712836,None,s,280.5790931712836,None,return,6.366789562627673,280.66231748461723,None,,,,,,,,,,,,,,,,,,,,,,,,,,,,,,,,,,,,,,,176,001,2024_Mar_05_1717,SpeechDraft1Carolyn_lessNoise_PlusLocalization,2021.2.3,59.89364837455628,
bell.wav,bell.mpg,bell,5,AV,Pink_Noise_5_1.wav,Pink_Noise_5_2.wav,,,,,,,,,,,,,,,0,15,15,111,,,,,,,,,,,,,,,,,,,,,,,287.04569723270833,None,288.54546154197305,None,289.9456591513008,None,mel,289.9456591513008,None,return,3.0000658351927996,290.0290333069861,None,,,,,,,,,,,,,,,,,,,,,,,,,,,,,,,,,,,,,,,176,001,2024_Mar_05_1717,SpeechDraft1Carolyn_lessNoise_PlusLocalization,2021.2.3,59.89364837455628,
build.wav,build.mpg,build,3,AV,Pink_Noise_3_1.wav,Pink_Noise_3_2.wav,,,,,,,,,,,,,,,0,16,16,62,,,,,,,,,,,,,,,,,,,,,,,293.0456475233659,None,294.5454235980287,None,295.9290774203837,None,bills,295.9290774203837,None,return,1.7206061594188213,296.01245546434075,None,,,,,,,,,,,,,,,,,,,,,,,,,,,,,,,,,,,,,,,176,001,2024_Mar_05_1717,SpeechDraft1Carolyn_lessNoise_PlusLocalization,2021.2.3,59.89364837455628,
your.wav,your.mpg,your,1,AV,Pink_Noise_1_1.wav,Pink_Noise_1_2.wav,,,,,,,,,,,,,,,0,17,17,84,,,,,,,,,,,,,,,,,,,,,,,297.76240745093673,None,299.2621580455452,None,300.64563729800284,None,your,300.64563729800284,None,return,2.147980242036283,300.7290870808065,None,,,,,,,,,,,,,,,,,,,,,,,,,,,,,,,,,,,,,,,176,001,2024_Mar_05_1717,SpeechDraft1Carolyn_lessNoise_PlusLocalization,2021.2.3,59.89364837455628,
chess.wav,chess.mpg,chess,1,A,Pink_Noise_1_1.wav,Pink_Noise_1_2.wav,,,,,,,,,,,,,,,0,18,18,22,,,,,,,,,,,,,,,,,,,,,,,302.89574222639203,None,304.3954072194174,None,305.780187481083,None,chest,305.780187481083,None,return,0.9906581984832883,305.8624357050285,None,,,,,,,,,,,,,,,,,,,,,,,,,,,,,,,,,,,,,,,176,001,2024_Mar_05_1717,SpeechDraft1Carolyn_lessNoise_PlusLocalization,2021.2.3,59.89364837455628,
tense.wav,tense.mpg,tense,2,A,Pink_Noise_2_1.wav,Pink_Noise_2_2.wav,,,,,,,,,,,,,,,0,19,19,9,,,,,,,,,,,,,,,,,,,,,,,306.8792908480391,None,308.3787832176313,None,309.7624758873135,None,tense,309.7624758873135,None,return,2.4394719526171684,309.84569279290736,None,,,,,,,,,,,,,,,,,,,,,,,,,,,,,,,,,,,,,,,176,001,2024_Mar_05_1717,SpeechDraft1Carolyn_lessNoise_PlusLocalization,2021.2.3,59.89364837455628,
draw.wav,draw.mpg,draw,2,AV,Pink_Noise_2_1.wav,Pink_Noise_2_2.wav,,,,,,,,,,,,,,,0,20,20,66,,,,,,,,,,,,,,,,,,,,,,,312.31242134422064,None,313.8121348172426,None,315.1789913130924,None,"draw
",315.1789913130924,None,return,0.8865605425089598,315.2624961975962,None,,,,,,,,,,,,,,,,,,,,,,,,,,,,,,,,,,,,,,,176,001,2024_Mar_05_1717,SpeechDraft1Carolyn_lessNoise_PlusLocalization,2021.2.3,59.89364837455628,
cease.wav,cease.mpg,cease,6,AV,Pink_Noise_6_1.wav,Pink_Noise_6_2.wav,,,,,,,,,,,,,,,0,21,21,63,,,,,,,,,,,,,,,,,,,,,,,316.1791242994368,None,317.67873790394515,None,319.0623795846477,None,cease,319.0623795846477,None,return,2.107409789226949,319.1457642670721,None,,,,,,,,,,,,,,,,,,,,,,,,,,,,,,,,,,,,,,,176,001,2024_Mar_05_1717,SpeechDraft1Carolyn_lessNoise_PlusLocalization,2021.2.3,59.89364837455628,
gloom.wav,gloom.mpg,gloom,3,A,Pink_Noise_3_1.wav,Pink_Noise_3_2.wav,,,,,,,,,,,,,,,0,22,22,35,,,,,,,,,,,,,,,,,,,,,,,321.2791414586827,None,322.77880123164505,None,324.1624079113826,None,gloom,324.1624079113826,None,return,2.215402957983315,324.24576529301703,None,,,,,,,,,,,,,,,,,,,,,,,,,,,,,,,,,,,,,,,176,001,2024_Mar_05_1717,SpeechDraft1Carolyn_lessNoise_PlusLocalization,2021.2.3,59.89364837455628,
damn.wav,damn.mpg,damn,4,A,Pink_Noise_4_1.wav,Pink_Noise_4_2.wav,,,,,,,,,,,,,,,0,23,23,39,,,,,,,,,,,,,,,,,,,,,,,326.4790846100077,None,327.97889829054475,None,329.36235455516726,None,dare,329.36235455516726,None,return,3.3912560744211078,329.4457910778001,None,,,,,,,,,,,,,,,,,,,,,,,,,,,,,,,,,,,,,,,176,001,2024_Mar_05_1717,SpeechDraft1Carolyn_lessNoise_PlusLocalization,2021.2.3,59.89364837455628,
clad.wav,clad.mpg,clad,3,A,Pink_Noise_3_1.wav,Pink_Noise_3_2.wav,,,,,,,,,,,,,,,0,24,24,51,,,,,,,,,,,,,,,,,,,,,,,332.8624921478331,None,334.36221103649586,None,335.7457266943529,None,fan,335.7457266943529,None,return,1.495905565097928,335.8291518976912,None,,,,,,,,,,,,,,,,,,,,,,,,,,,,,,,,,,,,,,,176,001,2024_Mar_05_1717,SpeechDraft1Carolyn_lessNoise_PlusLocalization,2021.2.3,59.89364837455628,
file.wav,file.mpg,file,4,AV,Pink_Noise_4_1.wav,Pink_Noise_4_2.wav,,,,,,,,,,,,,,,0,25,25,71,,,,,,,,,,,,,,,,,,,,,,,337.34581198822707,None,338.8454951196909,None,340.228983104229,None,file,340.228983104229,None,return,3.916581505909562,340.3124778009951,None,,,,,,,,,,,,,,,,,,,,,,,,,,,,,,,,,,,,,,,176,001,2024_Mar_05_1717,SpeechDraft1Carolyn_lessNoise_PlusLocalization,2021.2.3,59.89364837455628,
flow.wav,flow.mpg,flow,6,A,Pink_Noise_6_1.wav,Pink_Noise_6_2.wav,,,,,,,,,,,,,,,0,26,26,4,,,,,,,,,,,,,,,,,,,,,,,344.24585758522153,None,345.7455299673602,None,347.1291289925575,None,"fo
",347.1291289925575,None,return,3.7365982877090573,347.2124613644555,None,,,,,,,,,,,,,,,,,,,,,,,,,,,,,,,,,,,,,,,176,001,2024_Mar_05_1717,SpeechDraft1Carolyn_lessNoise_PlusLocalization,2021.2.3,59.89364837455628,
date.wav,date.mpg,date,5,A,Pink_Noise_5_1.wav,Pink_Noise_5_2.wav,,,,,,,,,,,,,,,0,27,27,44,,,,,,,,,,,,,,,,,,,,,,,350.97913894057274,None,352.47884707152843,None,353.86258127260953,None,disc,353.86258127260953,None,return,4.083301113918424,353.9457820393145,None,,,,,,,,,,,,,,,,,,,,,,,,,,,,,,,,,,,,,,,176,001,2024_Mar_05_1717,SpeechDraft1Carolyn_lessNoise_PlusLocalization,2021.2.3,59.89364837455628,
dawn.wav,dawn.mpg,dawn,4,A,Pink_Noise_4_1.wav,Pink_Noise_4_2.wav,,,,,,,,,,,,,,,0,28,28,41,,,,,,,,,,,,,,,,,,,,,,,358.04580307379365,None,359.5455295005813,None,360.92917037848383,None,dark,360.92917037848383,None,return,2.416463606990874,361.0126176159829,None,,,,,,,,,,,,,,,,,,,,,,,,,,,,,,,,,,,,,,,176,001,2024_Mar_05_1717,SpeechDraft1Carolyn_lessNoise_PlusLocalization,2021.2.3,59.89364837455628,
bass.wav,bass.mpg,bass,2,AV,Pink_Noise_2_1.wav,Pink_Noise_2_2.wav,,,,,,,,,,,,,,,0,29,29,92,,,,,,,,,,,,,,,,,,,,,,,363.4457797249779,None,364.94552201684564,None,366.3290338004008,None,base,366.3290338004008,None,return,1.2164268530905247,366.41269679926336,None,,,,,,,,,,,,,,,,,,,,,,,,,,,,,,,,,,,,,,,176,001,2024_Mar_05_1717,SpeechDraft1Carolyn_lessNoise_PlusLocalization,2021.2.3,59.89364837455628,
bribe.wav,bribe.mpg,bribe,1,AV,Pink_Noise_1_1.wav,Pink_Noise_1_2.wav,,,,,,,,,,,,,,,0,30,30,93,,,,,,,,,,,,,,,,,,,,,,,367.64581274893135,None,369.1456898059696,None,370.52911011036485,None,bribe,370.52911011036485,None,return,3.912541041150689,370.61250677891076,None,,,,,,,,,,,,,,,,,,,,,,,,,,,,,,,,,,,,,,,176,001,2024_Mar_05_1717,SpeechDraft1Carolyn_lessNoise_PlusLocalization,2021.2.3,59.89364837455628,
dwell.wav,dwell.mpg,dwell,3,A,Pink_Noise_3_1.wav,Pink_Noise_3_2.wav,,,,,,,,,,,,,,,0,31,31,23,,,,,,,,,,,,,,,,,,,,,,,374.5458475910127,None,376.04558273404837,None,377.42924109101295,None,dwell,377.42924109101295,None,return,3.1724612256512046,377.51259681675583,None,,,,,,,,,,,,,,,,,,,,,,,,,,,,,,,,,,,,,,,176,001,2024_Mar_05_1717,SpeechDraft1Carolyn_lessNoise_PlusLocalization,2021.2.3,59.89364837455628,
camp.wav,camp.mpg,camp,4,A,Pink_Noise_4_1.wav,Pink_Noise_4_2.wav,,,,,,,,,,,,,,,0,32,32,3,,,,,,,,,,,,,,,,,,,,,,,380.71247652731836,None,382.2124101575464,None,383.59574159421027,None,kill,383.59574159421027,None,return,1.1098278975114226,383.67925722151995,None,,,,,,,,,,,,,,,,,,,,,,,,,,,,,,,,,,,,,,,176,001,2024_Mar_05_1717,SpeechDraft1Carolyn_lessNoise_PlusLocalization,2021.2.3,59.89364837455628,
cash.wav,cash.mpg,cash,6,A,Pink_Noise_6_1.wav,Pink_Noise_6_2.wav,,,,,,,,,,,,,,,0,33,33,32,,,,,,,,,,,,,,,,,,,,,,,384.812517167069,None,386.3122543040663,None,387.69585452601314,None,touch,387.69585452601314,None,return,1.3777659060433507,387.7792995236814,None,,,,,,,,,,,,,,,,,,,,,,,,,,,,,,,,,,,,,,,176,001,2024_Mar_05_1717,SpeechDraft1Carolyn_lessNoise_PlusLocalization,2021.2.3,59.89364837455628,
clue.wav,clue.mpg,clue,2,A,Pink_Noise_2_1.wav,Pink_Noise_2_2.wav,,,,,,,,,,,,,,,0,34,34,56,,,,,,,,,,,,,,,,,,,,,,,389.1794014852494,None,390.67891060281545,None,392.0628332449123,None,clue,392.0628332449123,None,return,2.1151604326441884,392.1459658322856,None,,,,,,,,,,,,,,,,,,,,,,,,,,,,,,,,,,,,,,,176,001,2024_Mar_05_1717,SpeechDraft1Carolyn_lessNoise_PlusLocalization,2021.2.3,59.89364837455628,
boil.wav,boil.mpg,boil,2,AV,Pink_Noise_2_1.wav,Pink_Noise_2_2.wav,,,,,,,,,,,,,,,0,35,35,69,,,,,,,,,,,,,,,,,,,,,,,394.27939083985984,None,395.7791415452957,None,397.16241100616753,None,boil,397.16241100616753,None,return,4.983246572315693,397.24589604046196,None,,,,,,,,,,,,,,,,,,,,,,,,,,,,,,,,,,,,,,,176,001,2024_Mar_05_1717,SpeechDraft1Carolyn_lessNoise_PlusLocalization,2021.2.3,59.89364837455628,
wet.wav,wet.mpg,wet,3,AV,Pink_Noise_3_1.wav,Pink_Noise_3_2.wav,,,,,,,,,,,,,,,0,36,36,106,,,,,,,,,,,,,,,,,,,,,,,402.245857370086,None,403.7456258488819,None,405.1291858032346,None,"wet
",405.1291858032346,None,return,1.368505579419434,405.2125570094213,None,,,,,,,,,,,,,,,,,,,,,,,,,,,,,,,,,,,,,,,176,001,2024_Mar_05_1717,SpeechDraft1Carolyn_lessNoise_PlusLocalization,2021.2.3,59.89364837455628,
fifth.wav,fifth.mpg,fifth,6,AV,Pink_Noise_6_1.wav,Pink_Noise_6_2.wav,,,,,,,,,,,,,,,0,37,37,115,,,,,,,,,,,,,,,,,,,,,,,406.61260260175914,None,408.1123311398551,None,409.49584306869656,None,fifth,409.49584306869656,None,return,3.1617854656651616,409.5792695134878,None,,,,,,,,,,,,,,,,,,,,,,,,,,,,,,,,,,,,,,,176,001,2024_Mar_05_1717,SpeechDraft1Carolyn_lessNoise_PlusLocalization,2021.2.3,59.89364837455628,
duke.wav,duke.mpg,duke,6,A,Pink_Noise_6_1.wav,Pink_Noise_6_2.wav,,,,,,,,,,,,,,,0,38,38,38,,,,,,,,,,,,,,,,,,,,,,,412.76246150769293,None,414.27911225985736,None,415.66255922988057,None,disk,415.66255922988057,None,return,2.3071772856637836,415.74596474599093,None,,,,,,,,,,,,,,,,,,,,,,,,,,,,,,,,,,,,,,,176,001,2024_Mar_05_1717,SpeechDraft1Carolyn_lessNoise_PlusLocalization,2021.2.3,59.89364837455628,
bible.wav,bible.mpg,bible,5,A,Pink_Noise_5_1.wav,Pink_Noise_5_2.wav,,,,,,,,,,,,,,,0,39,39,21,,,,,,,,,,,,,,,,,,,,,,,418.07926528155804,None,419.57900307234377,None,420.96254686359316,None,"bibe
",420.96254686359316,None,return,2.9030829202383757,421.04597632586956,None,,,,,,,,,,,,,,,,,,,,,,,,,,,,,,,,,,,,,,,176,001,2024_Mar_05_1717,SpeechDraft1Carolyn_lessNoise_PlusLocalization,2021.2.3,59.89364837455628,
feed.wav,feed.mpg,feed,2,A,Pink_Noise_2_1.wav,Pink_Noise_2_2.wav,,,,,,,,,,,,,,,0,40,40,18,,,,,,,,,,,,,,,,,,,,,,,423.9792907126248,None,425.4790044417605,None,426.8625664934516,None,"change
",426.8625664934516,None,return,2.003110277466476,426.94595771376044,None,,,,,,,,,,,,,,,,,,,,,,,,,,,,,,,,,,,,,,,176,001,2024_Mar_05_1717,SpeechDraft1Carolyn_lessNoise_PlusLocalization,2021.2.3,59.89364837455628,
chef.wav,chef.mpg,chef,4,A,Pink_Noise_4_1.wav,Pink_Noise_4_2.wav,,,,,,,,,,,,,,,0,41,41,49,,,,,,,,,,,,,,,,,,,,,,,428.97942670993507,None,430.47911172546446,None,431.8625753624365,None,shush,431.8625753624365,None,return,3.3233138946816325,431.9458530219272,None,,,,,,,,,,,,,,,,,,,,,,,,,,,,,,,,,,,,,,,176,001,2024_Mar_05_1717,SpeechDraft1Carolyn_lessNoise_PlusLocalization,2021.2.3,59.89364837455628,
fame.wav,fame.mpg,fame,3,A,Pink_Noise_3_1.wav,Pink_Noise_3_2.wav,,,,,,,,,,,,,,,0,42,42,24,,,,,,,,,,,,,,,,,,,,,,,435.2959283683449,None,436.79568187799305,None,438.1794391795993,None,"fang
",438.1794391795993,None,return,1.48640794493258,438.26265809871256,None,,,,,,,,,,,,,,,,,,,,,,,,,,,,,,,,,,,,,,,176,001,2024_Mar_05_1717,SpeechDraft1Carolyn_lessNoise_PlusLocalization,2021.2.3,59.89364837455628,
chunk.wav,chunk.mpg,chunk,2,A,Pink_Noise_2_1.wav,Pink_Noise_2_2.wav,,,,,,,,,,,,,,,0,43,43,45,,,,,,,,,,,,,,,,,,,,,,,439.7794077452272,None,441.2789708087221,None,442.66278133448213,None,chunk,442.66278133448213,None,return,3.9231946002691984,442.74592260085046,None,,,,,,,,,,,,,,,,,,,,,,,,,,,,,,,,,,,,,,,176,001,2024_Mar_05_1717,SpeechDraft1Carolyn_lessNoise_PlusLocalization,2021.2.3,59.89364837455628,
choke.wav,choke.mpg,choke,2,AV,Pink_Noise_2_1.wav,Pink_Noise_2_2.wav,,,,,,,,,,,,,,,0,44,44,75,,,,,,,,,,,,,,,,,,,,,,,446.6959110405296,None,448.1967979641631,None,449.5791464652866,None,choke,449.5791464652866,None,return,9.366464575752616,449.66261418443173,None,,,,,,,,,,,,,,,,,,,,,,,,,,,,,,,,,,,,,,,176,001,2024_Mar_05_1717,SpeechDraft1Carolyn_lessNoise_PlusLocalization,2021.2.3,59.89364837455628,
guard.wav,guard.mpg,guard,5,AV,Pink_Noise_5_1.wav,Pink_Noise_5_2.wav,,,,,,,,,,,,,,,0,45,45,85,,,,,,,,,,,,,,,,,,,,,,,459.0460892021656,None,460.54559997469187,None,461.929265698418,None,gaurd,461.929265698418,None,return,3.592241881415248,462.0128284757957,None,,,,,,,,,,,,,,,,,,,,,,,,,,,,,,,,,,,,,,,176,001,2024_Mar_05_1717,SpeechDraft1Carolyn_lessNoise_PlusLocalization,2021.2.3,59.89364837455628,
bland.wav,bland.mpg,bland,3,AV,Pink_Noise_3_1.wav,Pink_Noise_3_2.wav,,,,,,,,,,,,,,,0,46,46,101,,,,,,,,,,,,,,,,,,,,,,,465.62937784474343,None,467.12903895787895,None,468.51252375356853,None,blad,468.51252375356853,None,return,5.529089576564729,468.59598734322935,None,,,,,,,,,,,,,,,,,,,,,,,,,,,,,,,,,,,,,,,176,001,2024_Mar_05_1717,SpeechDraft1Carolyn_lessNoise_PlusLocalization,2021.2.3,59.89364837455628,
crime.wav,crime.mpg,crime,1,A,Pink_Noise_1_1.wav,Pink_Noise_1_2.wav,,,,,,,,,,,,,,,0,47,47,20,,,,,,,,,,,,,,,,,,,,,,,474.1461389483884,None,475.64571206551045,None,477.0292842015624,None,cri me,477.0292842015624,None,return,1.9484868189319968,477.1126522356644,None,,,,,,,,,,,,,,,,,,,,,,,,,,,,,,,,,,,,,,,176,001,2024_Mar_05_1717,SpeechDraft1Carolyn_lessNoise_PlusLocalization,2021.2.3,59.89364837455628,
swan.wav,swan.mpg,swan,2,A,Pink_Noise_2_1.wav,Pink_Noise_2_2.wav,,,,,,,,,,,,,,,0,48,48,50,,,,,,,,,,,,,,,,,,,,,,,479.0793042900041,None,480.5790573954582,None,481.96260703075677,None,squirm,481.96260703075677,None,return,2.9750585751608014,482.04603485390544,None,,,,,,,,,,,,,,,,,,,,,,,,,,,,,,,,,,,,,,,176,001,2024_Mar_05_1717,SpeechDraft1Carolyn_lessNoise_PlusLocalization,2021.2.3,59.89364837455628,
clumps.wav,clumps.mpg,clumps,5,AV,Pink_Noise_5_1.wav,Pink_Noise_5_2.wav,,,,,,,,,,,,,,,0,49,49,81,,,,,,,,,,,,,,,,,,,,,,,485.0460158539936,None,486.5457012038678,None,487.92932616267353,None,"clubs
",487.92932616267353,None,return,6.200359296053648,488.0127007132396,None,,,,,,,,,,,,,,,,,,,,,,,,,,,,,,,,,,,,,,,176,001,2024_Mar_05_1717,SpeechDraft1Carolyn_lessNoise_PlusLocalization,2021.2.3,59.89364837455628,
crop.wav,crop.mpg,crop,3,A,Pink_Noise_3_1.wav,Pink_Noise_3_2.wav,,,,,,,,,,,,,,,0,50,50,26,,,,,,,,,,,,,,,,,,,,,,,494.2459687096998,None,495.7456226637587,None,497.1293810438365,None,"class
",497.1293810438365,None,return,1.0003439923748374,497.21271586138755,None,,,,,,,,,,,,,,,,,,,,,,,,,,,,,,,,,,,,,,,176,001,2024_Mar_05_1717,SpeechDraft1Carolyn_lessNoise_PlusLocalization,2021.2.3,59.89364837455628,
chin.wav,chin.mpg,chin,4,AV,Pink_Noise_4_1.wav,Pink_Noise_4_2.wav,,,,,,,,,,,,,,,0,51,51,87,,,,,,,,,,,,,,,,,,,,,,,498.2462706118822,None,499.7457824330777,None,501.1294698845595,None,chin,501.1294698845595,None,return,2.4324020640924573,501.2127350587398,None,,,,,,,,,,,,,,,,,,,,,,,,,,,,,,,,,,,,,,,176,001,2024_Mar_05_1717,SpeechDraft1Carolyn_lessNoise_PlusLocalization,2021.2.3,59.89364837455628,
bear.wav,bear.mpg,bear,2,A,Pink_Noise_2_1.wav,Pink_Noise_2_2.wav,,,,,,,,,,,,,,,0,52,52,57,,,,,,,,,,,,,,,,,,,,,,,503.66268684063107,None,505.16308977641165,None,506.5461152419448,None,bear,506.5461152419448,None,return,1.6397124091163278,506.6294876243919,None,,,,,,,,,,,,,,,,,,,,,,,,,,,,,,,,,,,,,,,176,001,2024_Mar_05_1717,SpeechDraft1Carolyn_lessNoise_PlusLocalization,2021.2.3,59.89364837455628,
curl.wav,curl.mpg,curl,1,AV,Pink_Noise_1_1.wav,Pink_Noise_1_2.wav,,,,,,,,,,,,,,,0,53,53,68,,,,,,,,,,,,,,,,,,,,,,,508.29605889040977,None,509.79577380325645,None,511.17921698559076,None,"cur;
",511.17921698559076,None,return,2.934354418888688,511.26273318659514,None,,,,,,,,,,,,,,,,,,,,,,,,,,,,,,,,,,,,,,,176,001,2024_Mar_05_1717,SpeechDraft1Carolyn_lessNoise_PlusLocalization,2021.2.3,59.89364837455628,
card.wav,card.mpg,card,3,A,Pink_Noise_3_1.wav,Pink_Noise_3_2.wav,,,,,,,,,,,,,,,0,54,54,2,,,,,,,,,,,,,,,,,,,,,,,514.2294077184051,None,515.7290504872799,None,517.1127028688788,None,hard,517.1127028688788,None,return,2.592669968493283,517.1963772885501,None,,,,,,,,,,,,,,,,,,,,,,,,,,,,,,,,,,,,,,,176,001,2024_Mar_05_1717,SpeechDraft1Carolyn_lessNoise_PlusLocalization,2021.2.3,59.89364837455628,
grow.wav,grow.mpg,grow,3,AV,Pink_Noise_3_1.wav,Pink_Noise_3_2.wav,,,,,,,,,,,,,,,0,55,55,88,,,,,,,,,,,,,,,,,,,,,,,519.8127034418285,None,521.3125811042264,None,522.6959684938192,None,grow,522.6959684938192,None,return,5.009553274139762,522.7794848959893,None,,,,,,,,,,,,,,,,,,,,,,,,,,,,,,,,,,,,,,,176,001,2024_Mar_05_1717,SpeechDraft1Carolyn_lessNoise_PlusLocalization,2021.2.3,59.89364837455628,
belch.wav,belch.mpg,belch,6,AV,Pink_Noise_6_1.wav,Pink_Noise_6_2.wav,,,,,,,,,,,,,,,0,56,56,113,,,,,,,,,,,,,,,,,,,,,,,527.8126991204917,None,529.3291260357946,None,530.7128534475341,None,bench,530.7128534475341,None,return,1.0490235332399607,530.7960809338838,None,,,,,,,,,,,,,,,,,,,,,,,,,,,,,,,,,,,,,,,176,001,2024_Mar_05_1717,SpeechDraft1Carolyn_lessNoise_PlusLocalization,2021.2.3,59.89364837455628,
climb.wav,climb.mpg,climb,1,A,Pink_Noise_1_1.wav,Pink_Noise_1_2.wav,,,,,,,,,,,,,,,0,57,57,30,,,,,,,,,,,,,,,,,,,,,,,531.8627092437819,None,533.3790361667052,None,534.7627792526037,None,climb,534.7627792526037,None,return,5.598948439583182,534.8462176639587,None,,,,,,,,,,,,,,,,,,,,,,,,,,,,,,,,,,,,,,,176,001,2024_Mar_05_1717,SpeechDraft1Carolyn_lessNoise_PlusLocalization,2021.2.3,59.89364837455628,
bulb.wav,bulb.mpg,bulb,2,A,Pink_Noise_2_1.wav,Pink_Noise_2_2.wav,,,,,,,,,,,,,,,0,58,58,1,,,,,,,,,,,,,,,,,,,,,,,540.4626615187153,None,541.9624730488285,None,543.3459936575964,None,end,543.3459936575964,None,return,1.047655500471592,543.4294179184362,None,,,,,,,,,,,,,,,,,,,,,,,,,,,,,,,,,,,,,,,176,001,2024_Mar_05_1717,SpeechDraft1Carolyn_lessNoise_PlusLocalization,2021.2.3,59.89364837455628,
claw.wav,claw.mpg,claw,6,AV,Pink_Noise_6_1.wav,Pink_Noise_6_2.wav,,,,,,,,,,,,,,,0,59,59,72,,,,,,,,,,,,,,,,,,,,,,,544.4962014015764,None,545.9964458635077,None,547.379403158091,None,lock,547.379403158091,None,return,1.182375960983336,547.4627124555409,None,,,,,,,,,,,,,,,,,,,,,,,,,,,,,,,,,,,,,,,176,001,2024_Mar_05_1717,SpeechDraft1Carolyn_lessNoise_PlusLocalization,2021.2.3,59.89364837455628,
skull.wav,skull.mpg,skull,3,A,Pink_Noise_3_1.wav,Pink_Noise_3_2.wav,,,,,,,,,,,,,,,0,60,60,43,,,,,,,,,,,,,,,,,,,,,,,548.6627197666094,None,550.1624498208985,None,551.5460491897538,None,"skull
",551.5460491897538,None,return,2.5356057826429605,551.6294583901763,None,,,,,,,,,,,,,,,,,,,,,,,,,,,,,,,,,,,,,,,176,001,2024_Mar_05_1717,SpeechDraft1Carolyn_lessNoise_PlusLocalization,2021.2.3,59.89364837455628,
quit.wav,quit.mpg,quit,3,AV,Pink_Noise_3_1.wav,Pink_Noise_3_2.wav,,,,,,,,,,,,,,,0,61,61,99,,,,,,,,,,,,,,,,,,,,,,,554.1961998790503,None,555.695920208469,None,557.0794027196243,None,qui,557.0794027196243,None,return,1.1943554989993572,557.1627092296258,None,,,,,,,,,,,,,,,,,,,,,,,,,,,,,,,,,,,,,,,176,001,2024_Mar_05_1717,SpeechDraft1Carolyn_lessNoise_PlusLocalization,2021.2.3,59.89364837455628,
goose.wav,goose.mpg,goose,6,AV,Pink_Noise_6_1.wav,Pink_Noise_6_2.wav,,,,,,,,,,,,,,,0,62,62,79,,,,,,,,,,,,,,,,,,,,,,,558.3794474750757,None,559.8791959956288,None,561.2627323698252,None,"juice
",561.2627323698252,None,return,2.0509612932801247,561.3460996588692,None,,,,,,,,,,,,,,,,,,,,,,,,,,,,,,,,,,,,,,,176,001,2024_Mar_05_1717,SpeechDraft1Carolyn_lessNoise_PlusLocalization,2021.2.3,59.89364837455628,
bloat.wav,bloat.mpg,bloat,2,AV,Pink_Noise_2_1.wav,Pink_Noise_2_2.wav,,,,,,,,,,,,,,,0,63,63,105,,,,,,,,,,,,,,,,,,,,,,,563.4295923002064,None,564.9459917135537,None,566.3295934358612,None,brote,566.3295934358612,None,return,2.8642550595104694,566.4128352068365,None,,,,,,,,,,,,,,,,,,,,,,,,,,,,,,,,,,,,,,,176,001,2024_Mar_05_1717,SpeechDraft1Carolyn_lessNoise_PlusLocalization,2021.2.3,59.89364837455628,
base.wav,base.mpg,base,6,A,Pink_Noise_6_1.wav,Pink_Noise_6_2.wav,,,,,,,,,,,,,,,0,64,64,19,,,,,,,,,,,,,,,,,,,,,,,569.2962802685797,None,570.79576536268,None,572.1795907560736,None,dish,572.1795907560736,None,return,2.662356157787144,572.2627682434395,None,,,,,,,,,,,,,,,,,,,,,,,,,,,,,,,,,,,,,,,176,001,2024_Mar_05_1717,SpeechDraft1Carolyn_lessNoise_PlusLocalization,2021.2.3,59.89364837455628,
folk.wav,folk.mpg,folk,4,AV,Pink_Noise_4_1.wav,Pink_Noise_4_2.wav,,,,,,,,,,,,,,,0,65,65,109,,,,,,,,,,,,,,,,,,,,,,,574.9460725868121,None,576.445728209801,None,577.8293772283942,None,folk,577.8293772283942,None,return,1.460300698876381,577.9127437630668,None,,,,,,,,,,,,,,,,,,,,,,,,,,,,,,,,,,,,,,,176,001,2024_Mar_05_1717,SpeechDraft1Carolyn_lessNoise_PlusLocalization,2021.2.3,59.89364837455628,
gash.wav,gash.mpg,gash,3,AV,Pink_Noise_3_1.wav,Pink_Noise_3_2.wav,,,,,,,,,,,,,,,0,66,66,112,,,,,,,,,,,,,,,,,,,,,,,579.3961036484689,None,580.9125734455884,None,582.2960658427328,None,gash,582.2960658427328,None,return,3.537592802196741,582.3794499048963,None,,,,,,,,,,,,,,,,,,,,,,,,,,,,,,,,,,,,,,,176,001,2024_Mar_05_1717,SpeechDraft1Carolyn_lessNoise_PlusLocalization,2021.2.3,59.89364837455628,
flag.wav,flag.mpg,flag,1,A,Pink_Noise_1_1.wav,Pink_Noise_1_2.wav,,,,,,,,,,,,,,,0,67,67,8,,,,,,,,,,,,,,,,,,,,,,,585.9461101619527,None,587.4458358064294,None,588.8294121092185,None,flag,588.8294121092185,None,return,1.5724162654951215,588.9127876432613,None,,,,,,,,,,,,,,,,,,,,,,,,,,,,,,,,,,,,,,,176,001,2024_Mar_05_1717,SpeechDraft1Carolyn_lessNoise_PlusLocalization,2021.2.3,59.89364837455628,
chalk.wav,chalk.mpg,chalk,5,A,Pink_Noise_5_1.wav,Pink_Noise_5_2.wav,,,,,,,,,,,,,,,0,68,68,29,,,,,,,,,,,,,,,,,,,,,,,590.5127849811688,None,592.0124641507864,None,593.3962517576292,None,"trash
",593.3962517576292,None,return,1.5015876488760114,593.4794750818983,None,,,,,,,,,,,,,,,,,,,,,,,,,,,,,,,,,,,,,,,176,001,2024_Mar_05_1717,SpeechDraft1Carolyn_lessNoise_PlusLocalization,2021.2.3,59.89364837455628,
flake.wav,flake.mpg,flake,1,AV,Pink_Noise_1_1.wav,Pink_Noise_1_2.wav,,,,,,,,,,,,,,,0,69,69,73,,,,,,,,,,,,,,,,,,,,,,,595.0127917248756,None,596.5139050325379,None,597.8960204636678,None,"flake
",597.8960204636678,None,return,1.8175974348559976,597.9794578487054,None,,,,,,,,,,,,,,,,,,,,,,,,,,,,,,,,,,,,,,,176,001,2024_Mar_05_1717,SpeechDraft1Carolyn_lessNoise_PlusLocalization,2021.2.3,59.89364837455628,
blue.wav,blue.mpg,blue,4,A,Pink_Noise_4_1.wav,Pink_Noise_4_2.wav,,,,,,,,,,,,,,,0,70,70,28,,,,,,,,,,,,,,,,,,,,,,,599.829511879012,None,601.3462185924873,None,602.7294398890808,None,leech,602.7294398890808,None,return,5.832264977507293,602.8128358349204,None,,,,,,,,,,,,,,,,,,,,,,,,,,,,,,,,,,,,,,,176,001,2024_Mar_05_1717,SpeechDraft1Carolyn_lessNoise_PlusLocalization,2021.2.3,59.89364837455628,
client.wav,client.mpg,client,4,A,Pink_Noise_4_1.wav,Pink_Noise_4_2.wav,,,,,,,,,,,,,,,0,71,71,15,,,,,,,,,,,,,,,,,,,,,,,608.6629268452525,None,610.163158454001,None,611.5461711399257,None,client,611.5461711399257,None,return,2.6955161979421973,611.6295606046915,None,,,,,,,,,,,,,,,,,,,,,,,,,,,,,,,,,,,,,,,176,001,2024_Mar_05_1717,SpeechDraft1Carolyn_lessNoise_PlusLocalization,2021.2.3,59.89364837455628,
gross.wav,gross.mpg,gross,6,AV,Pink_Noise_6_1.wav,Pink_Noise_6_2.wav,,,,,,,,,,,,,,,0,72,72,61,,,,,,,,,,,,,,,,,,,,,,,614.3461238201708,None,615.8625376103446,None,617.2461847933009,None,"gros
",617.2461847933009,None,return,1.4193649487569928,617.3296967893839,None,,,,,,,,,,,,,,,,,,,,,,,,,,,,,,,,,,,,,,,176,001,2024_Mar_05_1717,SpeechDraft1Carolyn_lessNoise_PlusLocalization,2021.2.3,59.89364837455628,
phase.wav,phase.mpg,phase,3,AV,Pink_Noise_3_1.wav,Pink_Noise_3_2.wav,,,,,,,,,,,,,,,0,73,73,76,,,,,,,,,,,,,,,,,,,,,,,618.7795745301992,None,620.2792594963685,None,621.662938348949,None,faze,621.662938348949,None,return,2.1229719817638397,621.7462017200887,None,,,,,,,,,,,,,,,,,,,,,,,,,,,,,,,,,,,,,,,176,001,2024_Mar_05_1717,SpeechDraft1Carolyn_lessNoise_PlusLocalization,2021.2.3,59.89364837455628,
droop.wav,droop.mpg,droop,3,AV,Pink_Noise_3_1.wav,Pink_Noise_3_2.wav,,,,,,,,,,,,,,,0,74,74,102,,,,,,,,,,,,,,,,,,,,,,,623.896126113832,None,625.4126598527655,None,626.7794230720028,None,"droop
",626.7794230720028,None,return,3.302223840728402,626.8628371534869,None,,,,,,,,,,,,,,,,,,,,,,,,,,,,,,,,,,,,,,,176,001,2024_Mar_05_1717,SpeechDraft1Carolyn_lessNoise_PlusLocalization,2021.2.3,59.89364837455628,
eat.wav,eat.mpg,eat,5,A,Pink_Noise_5_1.wav,Pink_Noise_5_2.wav,,,,,,,,,,,,,,,0,75,75,34,,,,,,,,,,,,,,,,,,,,,,,630.1961327213794,None,631.6958026736975,None,633.0796423954889,None,kiss,633.0796423954889,None,return,2.522187538444996,633.162960300222,None,,,,,,,,,,,,,,,,,,,,,,,,,,,,,,,,,,,,,,,176,001,2024_Mar_05_1717,SpeechDraft1Carolyn_lessNoise_PlusLocalization,2021.2.3,59.89364837455628,
guide.wav,guide.mpg,guide,1,A,Pink_Noise_1_1.wav,Pink_Noise_1_2.wav,,,,,,,,,,,,,,,0,76,76,59,,,,,,,,,,,,,,,,,,,,,,,635.7128951856866,None,637.2126680603251,None,638.5962560893968,None,guide,638.5962560893968,None,return,1.0293607786297798,638.6797330370173,None,,,,,,,,,,,,,,,,,,,,,,,,,,,,,,,,,,,,,,,176,001,2024_Mar_05_1717,SpeechDraft1Carolyn_lessNoise_PlusLocalization,2021.2.3,59.89364837455628,
burn.wav,burn.mpg,burn,6,A,Pink_Noise_6_1.wav,Pink_Noise_6_2.wav,,,,,,,,,,,,,,,0,77,77,46,,,,,,,,,,,,,,,,,,,,,,,639.7295264424756,None,641.2301766052842,None,642.6128511326388,None,grow,642.6128511326388,None,return,2.148916087113321,642.6961977537721,None,,,,,,,,,,,,,,,,,,,,,,,,,,,,,,,,,,,,,,,176,001,2024_Mar_05_1717,SpeechDraft1Carolyn_lessNoise_PlusLocalization,2021.2.3,59.89364837455628,
film.wav,film.mpg,film,1,AV,Pink_Noise_1_1.wav,Pink_Noise_1_2.wav,,,,,,,,,,,,,,,0,78,78,86,,,,,,,,,,,,,,,,,,,,,,,644.8629066525027,None,646.3635232485831,None,647.747761785984,None,filn,647.747761785984,None,return,3.463522625155747,647.8296116543934,None,,,,,,,,,,,,,,,,,,,,,,,,,,,,,,,,,,,,,,,176,001,2024_Mar_05_1717,SpeechDraft1Carolyn_lessNoise_PlusLocalization,2021.2.3,59.89364837455628,
lead.wav,lead.mpg,lead,5,AV,Pink_Noise_5_1.wav,Pink_Noise_5_2.wav,,,,,,,,,,,,,,,0,79,79,114,,,,,,,,,,,,,,,,,,,,,,,651.3129719533026,None,652.8292595930398,None,654.2295019505545,None,led,654.2295019505545,None,return,2.4921352341771126,654.3129398524761,None,,,,,,,,,,,,,,,,,,,,,,,,,,,,,,,,,,,,,,,176,001,2024_Mar_05_1717,SpeechDraft1Carolyn_lessNoise_PlusLocalization,2021.2.3,59.89364837455628,
cheap.wav,cheap.mpg,cheap,2,A,Pink_Noise_2_1.wav,Pink_Noise_2_2.wav,,,,,,,,,,,,,,,0,80,80,55,,,,,,,,,,,,,,,,,,,,,,,656.8295385269448,None,658.3463049260899,None,659.729665081948,None,cheek,659.729665081948,None,return,1.4482399877160788,659.8128788582981,None,,,,,,,,,,,,,,,,,,,,,,,,,,,,,,,,,,,,,,,176,001,2024_Mar_05_1717,SpeechDraft1Carolyn_lessNoise_PlusLocalization,2021.2.3,59.89364837455628,
bold.wav,bold.mpg,bold,4,A,Pink_Noise_4_1.wav,Pink_Noise_4_2.wav,,,,,,,,,,,,,,,0,81,81,53,,,,,,,,,,,,,,,,,,,,,,,661.2796029718593,None,662.7792642544955,None,664.1629003612325,None,day,664.1629003612325,None,return,1.8787837820127606,664.2462985664606,None,,,,,,,,,,,,,,,,,,,,,,,,,,,,,,,,,,,,,,,176,001,2024_Mar_05_1717,SpeechDraft1Carolyn_lessNoise_PlusLocalization,2021.2.3,59.89364837455628,
grief.wav,grief.mpg,grief,4,AV,Pink_Noise_4_1.wav,Pink_Noise_4_2.wav,,,,,,,,,,,,,,,0,82,82,116,,,,,,,,,,,,,,,,,,,,,,,666.1462135240436,None,667.6626328807324,None,669.0463556600735,None,cheif,669.0463556600735,None,return,1.7634473042562604,669.1296049747616,None,,,,,,,,,,,,,,,,,,,,,,,,,,,,,,,,,,,,,,,176,001,2024_Mar_05_1717,SpeechDraft1Carolyn_lessNoise_PlusLocalization,2021.2.3,59.89364837455628,
slick.wav,slick.mpg,slick,6,A,Pink_Noise_6_1.wav,Pink_Noise_6_2.wav,,,,,,,,,,,,,,,0,83,83,17,,,,,,,,,,,,,,,,,,,,,,,670.9129330199212,None,672.4131185980514,None,673.7962008789182,None,sex,673.7962008789182,None,return,2.2934628827497363,673.87958052475,None,,,,,,,,,,,,,,,,,,,,,,,,,,,,,,,,,,,,,,,176,001,2024_Mar_05_1717,SpeechDraft1Carolyn_lessNoise_PlusLocalization,2021.2.3,59.89364837455628,
coil.wav,coil.mpg,coil,5,A,Pink_Noise_5_1.wav,Pink_Noise_5_2.wav,,,,,,,,,,,,,,,0,84,84,5,,,,,,,,,,,,,,,,,,,,,,,676.1963032735512,None,677.7127463975921,None,679.0965323857963,None,choice,679.0965323857963,None,return,1.5055405125021935,679.1796109713614,None,,,,,,,,,,,,,,,,,,,,,,,,,,,,,,,,,,,,,,,176,001,2024_Mar_05_1717,SpeechDraft1Carolyn_lessNoise_PlusLocalization,2021.2.3,59.89364837455628,
draft.wav,draft.mpg,draft,4,AV,Pink_Noise_4_1.wav,Pink_Noise_4_2.wav,,,,,,,,,,,,,,,0,85,85,67,,,,,,,,,,,,,,,,,,,,,,,680.7129556452855,None,682.2293858835474,None,683.6129080746323,None,"draft
",683.6129080746323,None,return,1.8208420053124428,683.6962362388149,None,,,,,,,,,,,,,,,,,,,,,,,,,,,,,,,,,,,,,,,176,001,2024_Mar_05_1717,SpeechDraft1Carolyn_lessNoise_PlusLocalization,2021.2.3,59.89364837455628,
tool.wav,tool.mpg,tool,4,AV,Pink_Noise_4_1.wav,Pink_Noise_4_2.wav,,,,,,,,,,,,,,,0,86,86,82,,,,,,,,,,,,,,,,,,,,,,,685.5461990386248,None,687.0626288205385,None,688.4462484298274,None,tool,688.4462484298274,None,return,1.2434072345495224,688.5296474089846,None,,,,,,,,,,,,,,,,,,,,,,,,,,,,,,,,,,,,,,,176,001,2024_Mar_05_1717,SpeechDraft1Carolyn_lessNoise_PlusLocalization,2021.2.3,59.89364837455628,
bomb.wav,bomb.mpg,bomb,5,A,Pink_Noise_5_1.wav,Pink_Noise_5_2.wav,,,,,,,,,,,,,,,0,87,87,48,,,,,,,,,,,,,,,,,,,,,,,689.7962664598599,None,691.2959554148838,None,692.6797177325934,None,love,692.6797177325934,None,return,0.89814661629498,692.7629093248397,None,,,,,,,,,,,,,,,,,,,,,,,,,,,,,,,,,,,,,,,176,001,2024_Mar_05_1717,SpeechDraft1Carolyn_lessNoise_PlusLocalization,2021.2.3,59.89364837455628,
curse.wav,curse.mpg,curse,5,AV,Pink_Noise_5_1.wav,Pink_Noise_5_2.wav,,,,,,,,,,,,,,,0,88,88,103,,,,,,,,,,,,,,,,,,,,,,,693.6796273412183,None,695.1793921291828,None,696.5628171199933,None,"nurse
",696.5628171199933,None,return,2.3507283683866262,696.6463344087824,None,,,,,,,,,,,,,,,,,,,,,,,,,,,,,,,,,,,,,,,176,001,2024_Mar_05_1717,SpeechDraft1Carolyn_lessNoise_PlusLocalization,2021.2.3,59.89364837455628,
cent.wav,cent.mpg,cent,6,A,Pink_Noise_6_1.wav,Pink_Noise_6_2.wav,,,,,,,,,,,,,,,0,89,89,0,,,,,,,,,,,,,,,,,,,,,,,699.0295971399173,None,700.5293625667691,None,701.9129507616162,None,"vet
",701.9129507616162,None,return,1.7847624784335494,701.9962965874001,None,,,,,,,,,,,,,,,,,,,,,,,,,,,,,,,,,,,,,,,176,001,2024_Mar_05_1717,SpeechDraft1Carolyn_lessNoise_PlusLocalization,2021.2.3,59.89364837455628,
fried.wav,fried.mpg,fried,4,AV,Pink_Noise_4_1.wav,Pink_Noise_4_2.wav,,,,,,,,,,,,,,,0,90,90,95,,,,,,,,,,,,,,,,,,,,,,,703.8129828460515,None,705.3294815346599,None,706.7129798140377,None,ride,706.7129798140377,None,return,2.144469960592687,706.7965736463666,None,,,,,,,,,,,,,,,,,,,,,,,,,,,,,,,,,,,,,,,176,001,2024_Mar_05_1717,SpeechDraft1Carolyn_lessNoise_PlusLocalization,2021.2.3,59.89364837455628,
guest.wav,guest.mpg,guest,1,AV,Pink_Noise_1_1.wav,Pink_Noise_1_2.wav,,,,,,,,,,,,,,,0,91,91,98,,,,,,,,,,,,,,,,,,,,,,,708.9629940744489,None,710.4793810630217,None,711.8628745535389,None,guest,711.8628745535389,None,return,2.1307506803423166,711.9463541945443,None,,,,,,,,,,,,,,,,,,,,,,,,,,,,,,,,,,,,,,,176,001,2024_Mar_05_1717,SpeechDraft1Carolyn_lessNoise_PlusLocalization,2021.2.3,59.89364837455628,
fuss.wav,fuss.mpg,fuss,5,AV,Pink_Noise_5_1.wav,Pink_Noise_5_2.wav,,,,,,,,,,,,,,,0,92,92,108,,,,,,,,,,,,,,,,,,,,,,,714.0963777787983,None,715.6126314243302,None,716.9963246602565,None,fuss,716.9963246602565,None,return,1.2053586840629578,717.0798006439582,None,,,,,,,,,,,,,,,,,,,,,,,,,,,,,,,,,,,,,,,176,001,2024_Mar_05_1717,SpeechDraft1Carolyn_lessNoise_PlusLocalization,2021.2.3,59.89364837455628,
blank.wav,blank.mpg,blank,5,A,Pink_Noise_5_1.wav,Pink_Noise_5_2.wav,,,,,,,,,,,,,,,0,93,93,14,,,,,,,,,,,,,,,,,,,,,,,718.3130972357467,None,719.8293941719458,None,721.1964595224708,None,rice,721.1964595224708,None,return,2.8212167462334037,721.2798332162201,None,,,,,,,,,,,,,,,,,,,,,,,,,,,,,,,,,,,,,,,176,001,2024_Mar_05_1717,SpeechDraft1Carolyn_lessNoise_PlusLocalization,2021.2.3,59.89364837455628,
dune.wav,dune.mpg,dune,3,A,Pink_Noise_3_1.wav,Pink_Noise_3_2.wav,,,,,,,,,,,,,,,0,94,94,7,,,,,,,,,,,,,,,,,,,,,,,724.1295955535024,None,725.6460835123435,None,727.0297344466671,None,doom,727.0297344466671,None,return,4.172090588137507,727.1130261560902,None,,,,,,,,,,,,,,,,,,,,,,,,,,,,,,,,,,,,,,,176,001,2024_Mar_05_1717,SpeechDraft1Carolyn_lessNoise_PlusLocalization,2021.2.3,59.89364837455628,
pipe.wav,pipe.mpg,pipe,6,A,Pink_Noise_6_1.wav,Pink_Noise_6_2.wav,,,,,,,,,,,,,,,0,95,95,54,,,,,,,,,,,,,,,,,,,,,,,731.3130556177348,None,732.8295666025952,None,734.212979500182,None,siy,734.212979500182,None,return,3.7407423919066787,734.2963826376945,None,,,,,,,,,,,,,,,,,,,,,,,,,,,,,,,,,,,,,,,176,001,2024_Mar_05_1717,SpeechDraft1Carolyn_lessNoise_PlusLocalization,2021.2.3,59.89364837455628,
fast.wav,fast.mpg,fast,5,A,Pink_Noise_5_1.wav,Pink_Noise_5_2.wav,,,,,,,,,,,,,,,0,96,96,52,,,,,,,,,,,,,,,,,,,,,,,738.0630347812548,None,739.5628595389426,None,740.9463681029156,None,test,740.9463681029156,None,return,3.487420581281185,741.0296332966536,None,,,,,,,,,,,,,,,,,,,,,,,,,,,,,,,,,,,,,,,176,001,2024_Mar_05_1717,SpeechDraft1Carolyn_lessNoise_PlusLocalization,2021.2.3,59.89364837455628,
fill.wav,fill.mpg,fill,6,AV,Pink_Noise_6_1.wav,Pink_Noise_6_2.wav,,,,,,,,,,,,,,,0,97,97,117,,,,,,,,,,,,,,,,,,,,,,,744.5464266818017,None,746.0627205139026,None,747.4464696198702,None,fill,747.4464696198702,None,return,0.8433504002168775,747.5296993460506,None,,,,,,,,,,,,,,,,,,,,,,,,,,,,,,,,,,,,,,,176,001,2024_Mar_05_1717,SpeechDraft1Carolyn_lessNoise_PlusLocalization,2021.2.3,59.89364837455628,
fine.wav,fine.mpg,fine,4,A,Pink_Noise_4_1.wav,Pink_Noise_4_2.wav,,,,,,,,,,,,,,,0,98,98,11,,,,,,,,,,,,,,,,,,,,,,,748.396498516202,None,749.9126225216314,None,751.2966657830402,None,curl,751.2966657830402,None,return,0.7133097667247057,751.3798649255186,None,,,,,,,,,,,,,,,,,,,,,,,,,,,,,,,,,,,,,,,176,001,2024_Mar_05_1717,SpeechDraft1Carolyn_lessNoise_PlusLocalization,2021.2.3,59.89364837455628,
guess.wav,guess.mpg,guess,3,AV,Pink_Noise_3_1.wav,Pink_Noise_3_2.wav,,,,,,,,,,,,,,,0,99,99,78,,,,,,,,,,,,,,,,,,,,,,,752.1131916474551,None,753.6129858009517,None,754.9962745886296,None,guess,754.9962745886296,None,return,2.461121667176485,755.0799368135631,None,,,,,,,,,,,,,,,,,,,,,,,,,,,,,,,,,,,,,,,176,001,2024_Mar_05_1717,SpeechDraft1Carolyn_lessNoise_PlusLocalization,2021.2.3,59.89364837455628,
blot.wav,blot.mpg,blot,5,AV,Pink_Noise_5_1.wav,Pink_Noise_5_2.wav,,,,,,,,,,,,,,,0,100,100,119,,,,,,,,,,,,,,,,,,,,,,,757.5630751373246,None,759.079308534041,None,760.4629425313324,None,black,760.4629425313324,None,return,3.62654697149992,760.5465089138597,None,,,,,,,,,,,,,,,,,,,,,,,,,,,,,,,,,,,,,,,176,001,2024_Mar_05_1717,SpeechDraft1Carolyn_lessNoise_PlusLocalization,2021.2.3,59.89364837455628,
beef.wav,beef.mpg,beef,1,AV,Pink_Noise_1_1.wav,Pink_Noise_1_2.wav,,,,,,,,,,,,,,,0,101,101,77,,,,,,,,,,,,,,,,,,,,,,,764.1963978037238,None,765.712812830694,None,767.0962883662432,None,beef,767.0962883662432,None,return,2.0573787996545434,767.1798511138186,None,,,,,,,,,,,,,,,,,,,,,,,,,,,,,,,,,,,,,,,176,001,2024_Mar_05_1717,SpeechDraft1Carolyn_lessNoise_PlusLocalization,2021.2.3,59.89364837455628,
gain.wav,gain.mpg,gain,1,AV,Pink_Noise_1_1.wav,Pink_Noise_1_2.wav,,,,,,,,,,,,,,,0,102,102,90,,,,,,,,,,,,,,,,,,,,,,,769.2630266714841,None,770.7628991361707,None,772.1464305408299,None,gain,772.1464305408299,None,return,5.447277791798115,772.2298140153289,None,,,,,,,,,,,,,,,,,,,,,,,,,,,,,,,,,,,,,,,176,001,2024_Mar_05_1717,SpeechDraft1Carolyn_lessNoise_PlusLocalization,2021.2.3,59.89364837455628,
crypt.wav,crypt.mpg,crypt,5,AV,Pink_Noise_5_1.wav,Pink_Noise_5_2.wav,,,,,,,,,,,,,,,0,103,103,74,,,,,,,,,,,,,,,,,,,,,,,777.6964149242267,None,779.196683075279,None,780.5796439554542,None,crypt,780.5796439554542,None,return,8.421992934308946,780.6632377905771,None,,,,,,,,,,,,,,,,,,,,,,,,,,,,,,,,,,,,,,,176,001,2024_Mar_05_1717,SpeechDraft1Carolyn_lessNoise_PlusLocalization,2021.2.3,59.89364837455628,
bald.wav,bald.mpg,bald,6,AV,Pink_Noise_6_1.wav,Pink_Noise_6_2.wav,,,,,,,,,,,,,,,0,104,104,118,,,,,,,,,,,,,,,,,,,,,,,789.1131435679272,None,790.62946020253,None,792.0130418622866,None,ball,792.0130418622866,None,return,1.14070466440171,792.0964963454753,None,,,,,,,,,,,,,,,,,,,,,,,,,,,,,,,,,,,,,,,176,001,2024_Mar_05_1717,SpeechDraft1Carolyn_lessNoise_PlusLocalization,2021.2.3,59.89364837455628,
pact.wav,pact.mpg,pact,2,AV,Pink_Noise_2_1.wav,Pink_Noise_2_2.wav,,,,,,,,,,,,,,,0,105,105,110,,,,,,,,,,,,,,,,,,,,,,,793.2631917102262,None,794.7643341440707,None,796.1463688854128,None,pact,796.1463688854128,None,return,4.943215756677091,796.2298324620351,None,,,,,,,,,,,,,,,,,,,,,,,,,,,,,,,,,,,,,,,176,001,2024_Mar_05_1717,SpeechDraft1Carolyn_lessNoise_PlusLocalization,2021.2.3,59.89364837455628,
flop.wav,flop.mpg,flop,2,AV,Pink_Noise_2_1.wav,Pink_Noise_2_2.wav,,,,,,,,,,,,,,,0,106,106,91,,,,,,,,,,,,,,,,,,,,,,,801.1964764613658,None,802.6964605497196,None,804.0798197295517,None,flap,804.0798197295517,None,return,2.2659893417730927,804.1631177095696,None,,,,,,,,,,,,,,,,,,,,,,,,,,,,,,,,,,,,,,,176,001,2024_Mar_05_1717,SpeechDraft1Carolyn_lessNoise_PlusLocalization,2021.2.3,59.89364837455628,
golf.wav,golf.mpg,golf,4,A,Pink_Noise_4_1.wav,Pink_Noise_4_2.wav,,,,,,,,,,,,,,,0,107,107,40,,,,,,,,,,,,,,,,,,,,,,,806.4464079663157,None,807.9627048419788,None,809.3464334374294,None,vault,809.3464334374294,None,return,2.7911790795624256,809.429867005907,None,,,,,,,,,,,,,,,,,,,,,,,,,,,,,,,,,,,,,,,176,001,2024_Mar_05_1717,SpeechDraft1Carolyn_lessNoise_PlusLocalization,2021.2.3,59.89364837455628,
cure.wav,cure.mpg,cure,1,AV,Pink_Noise_1_1.wav,Pink_Noise_1_2.wav,,,,,,,,,,,,,,,0,108,108,80,,,,,,,,,,,,,,,,,,,,,,,812.2463780809194,None,813.7470218446106,None,815.1296841390431,None,"cure
",815.1296841390431,None,return,5.688001027330756,815.2130884379148,None,,,,,,,,,,,,,,,,,,,,,,,,,,,,,,,,,,,,,,,176,001,2024_Mar_05_1717,SpeechDraft1Carolyn_lessNoise_PlusLocalization,2021.2.3,59.89364837455628,
broke.wav,broke.mpg,broke,1,AV,Pink_Noise_1_1.wav,Pink_Noise_1_2.wav,,,,,,,,,,,,,,,0,109,109,83,,,,,,,,,,,,,,,,,,,,,,,820.929768758826,None,822.4473983487114,None,823.829807206057,None,broke,823.829807206057,None,return,4.147971382364631,823.9131324952468,None,,,,,,,,,,,,,,,,,,,,,,,,,,,,,,,,,,,,,,,176,001,2024_Mar_05_1717,SpeechDraft1Carolyn_lessNoise_PlusLocalization,2021.2.3,59.89364837455628,
boot.wav,boot.mpg,boot,3,A,Pink_Noise_3_1.wav,Pink_Noise_3_2.wav,,,,,,,,,,,,,,,0,110,110,58,,,,,,,,,,,,,,,,,,,,,,,828.079960046336,None,829.59622966405,None,830.9799943240359,None,boot,830.9799943240359,None,return,1.6139467088505626,831.0631597153842,None,,,,,,,,,,,,,,,,,,,,,,,,,,,,,,,,,,,,,,,176,001,2024_Mar_05_1717,SpeechDraft1Carolyn_lessNoise_PlusLocalization,2021.2.3,59.89364837455628,
bathe.wav,bathe.mpg,bathe,1,A,Pink_Noise_1_1.wav,Pink_Noise_1_2.wav,,,,,,,,,,,,,,,0,111,111,31,,,,,,,,,,,,,,,,,,,,,,,832.6964620891958,None,834.2128044506535,None,835.5966381104663,None,bathe,835.5966381104663,None,return,2.4211398027837276,835.6799027202651,None,,,,,,,,,,,,,,,,,,,,,,,,,,,,,,,,,,,,,,,176,001,2024_Mar_05_1717,SpeechDraft1Carolyn_lessNoise_PlusLocalization,2021.2.3,59.89364837455628,
clog.wav,clog.mpg,clog,3,AV,Pink_Noise_3_1.wav,Pink_Noise_3_2.wav,,,,,,,,,,,,,,,0,112,112,70,,,,,,,,,,,,,,,,,,,,,,,838.129800984636,None,839.6310563478619,None,841.0130712548271,None,clog,841.0130712548271,None,return,9.292605586349964,841.0964508866891,None,,,,,,,,,,,,,,,,,,,,,,,,,,,,,,,,,,,,,,,176,001,2024_Mar_05_1717,SpeechDraft1Carolyn_lessNoise_PlusLocalization,2021.2.3,59.89364837455628,
truck.wav,truck.mpg,truck,2,A,Pink_Noise_2_1.wav,Pink_Noise_2_2.wav,,,,,,,,,,,,,,,0,113,113,25,,,,,,,,,,,,,,,,,,,,,,,850.413173715584,None,851.9296191846952,None,853.3133612992242,None,truck,853.3133612992242,None,return,3.51260532066226,853.3965005902573,None,,,,,,,,,,,,,,,,,,,,,,,,,,,,,,,,,,,,,,,176,001,2024_Mar_05_1717,SpeechDraft1Carolyn_lessNoise_PlusLocalization,2021.2.3,59.89364837455628,
gift.wav,gift.mpg,gift,1,A,Pink_Noise_1_1.wav,Pink_Noise_1_2.wav,,,,,,,,,,,,,,,0,114,114,12,,,,,,,,,,,,,,,,,,,,,,,856.929898862727,None,858.4465226344764,None,859.8298968486488,None,"gift
",859.8298968486488,None,return,1.4037971356883645,859.9132614927366,None,,,,,,,,,,,,,,,,,,,,,,,,,,,,,,,,,,,,,,,176,001,2024_Mar_05_1717,SpeechDraft1Carolyn_lessNoise_PlusLocalization,2021.2.3,59.89364837455628,
clash.wav,clash.mpg,clash,4,AV,Pink_Noise_4_1.wav,Pink_Noise_4_2.wav,,,,,,,,,,,,,,,0,115,115,100,,,,,,,,,,,,,,,,,,,,,,,861.3465556306764,None,862.8629138479009,None,864.2466014130041,None,lash,864.2466014130041,None,return,2.1951910238713026,864.3298604693264,None,,,,,,,,,,,,,,,,,,,,,,,,,,,,,,,,,,,,,,,176,001,2024_Mar_05_1717,SpeechDraft1Carolyn_lessNoise_PlusLocalization,2021.2.3,59.89364837455628,
click.wav,click.mpg,click,1,A,Pink_Noise_1_1.wav,Pink_Noise_1_2.wav,,,,,,,,,,,,,,,0,116,116,10,,,,,,,,,,,,,,,,,,,,,,,866.5467841457576,None,868.062915770337,None,869.4464817428961,None,click,869.4464817428961,None,return,1.2991299089044333,869.5299875950441,None,,,,,,,,,,,,,,,,,,,,,,,,,,,,,,,,,,,,,,,176,001,2024_Mar_05_1717,SpeechDraft1Carolyn_lessNoise_PlusLocalization,2021.2.3,59.89364837455628,
fierce.wav,fierce.mpg,fierce,5,AV,Pink_Noise_5_1.wav,Pink_Noise_5_2.wav,,,,,,,,,,,,,,,0,117,117,97,,,,,,,,,,,,,,,,,,,,,,,870.8466424643993,None,872.3629633802921,None,873.7465115683153,None,"fierce
",873.7465115683153,None,return,1.7511288253590465,873.8299298519269,None,,,,,,,,,,,,,,,,,,,,,,,,,,,,,,,,,,,,,,,176,001,2024_Mar_05_1717,SpeechDraft1Carolyn_lessNoise_PlusLocalization,2021.2.3,59.89364837455628,
bowl.wav,bowl.mpg,bowl,4,AV,Pink_Noise_4_1.wav,Pink_Noise_4_2.wav,,,,,,,,,,,,,,,0,118,118,60,,,,,,,,,,,,,,,,,,,,,,,875.6133450074121,None,877.129643603228,None,878.5132711268961,None,bowl,878.5132711268961,None,return,2.224501804448664,878.5965780084953,None,,,,,,,,,,,,,,,,,,,,,,,,,,,,,,,,,,,,,,,176,001,2024_Mar_05_1717,SpeechDraft1Carolyn_lessNoise_PlusLocalization,2021.2.3,59.89364837455628,
stuck.wav,stuck.mpg,stuck,5,AV,Pink_Noise_5_1.wav,Pink_Noise_5_2.wav,,,,,,,,,,,,,,,0,119,119,96,,,,,,,,,,,,,,,,,,,,,,,880.8465132396668,None,882.3629506640136,None,883.746503344737,None,suck,883.746503344737,None,return,0.8951680660247803,883.8298773253337,None,,,,,,,,,,,,,,,,,,,,,,,,,,,,,,,,,,,,,,,176,001,2024_Mar_05_1717,SpeechDraft1Carolyn_lessNoise_PlusLocalization,2021.2.3,59.89364837455628,
,,,,,,,,,,,,,,,,,,,,,,,,,,,,,,,,,,,,,,,,,,,,,,,,,,,,,,,,,,,,,,,,,,space,28.34313580673188,884.8299071742222,None,,,,,,,,,,,,,,,,,,,,,,,,,,,,,176,001,2024_Mar_05_1717,SpeechDraft1Carolyn_lessNoise_PlusLocalization,2021.2.3,59.89364837455628,
,,,,,,,,center,0.0,6,ch1Sound_localizationTask.wav,0.0,"(952, 878)","(-8,-202)",0,-338,,,,,,,,,0,0,0,3,,,,,,,,,,,,,,,,,,,,,,,,,,,,,,,,,,,,,,,,,,884.8299071742222,None,913.2130137085915,None,914.330043790862,None,915.2464888244867,None,1.270899470899471,1.8080168152227998,915.2464888244867,None,,,,,,,,,,,,,,,,,176,001,2024_Mar_05_1717,SpeechDraft1Carolyn_lessNoise_PlusLocalization,2021.2.3,59.89364837455628,
,,,,,,,,midRight,13.0,3,ch1Sound_localizationTask.wav,13.0,"(1142, 878)","(182, -202)",190,-338,,,,,,,,,0,1,1,5,,,,,,,,,,,,,,,,,,,,,,,,,,,,,,,,,,,,,,,,,,,,917.063269441016,None,918.1630643066019,None,919.0964163513854,None,1.7148148148148148,2.3163296170532703,919.0964163513854,None,,,,,,,,,,,,,,,,,176,001,2024_Mar_05_1717,SpeechDraft1Carolyn_lessNoise_PlusLocalization,2021.2.3,59.89364837455628,
,,,,,,,,center,0.0,6,ch1Sound_localizationTask.wav,0.0,"(952, 878)","(-8,-202)",0,-338,,,,,,,,,0,2,2,3,,,,,,,,,,,,,,,,,,,,,,,,,,,,,,,,,,,,,,,,,,,,921.4133393000811,None,922.5130534376949,None,923.4465611577034,None,1.6206349206349207,0.49863600730895996,923.4465611577034,None,,,,,,,,,,,,,,,,,176,001,2024_Mar_05_1717,SpeechDraft1Carolyn_lessNoise_PlusLocalization,2021.2.3,59.89364837455628,
,,,,,,,,midRight,13.0,3,ch1Sound_localizationTask.wav,13.0,"(1142, 878)","(182, -202)",190,-338,,,,,,,,,0,3,3,5,,,,,,,,,,,,,,,,,,,,,,,,,,,,,,,,,,,,,,,,,,,,923.9466084949672,None,925.0463078776374,None,925.9796725157648,None,1.6793650793650794,0.3993199812248349,925.9796725157648,None,,,,,,,,,,,,,,,,,176,001,2024_Mar_05_1717,SpeechDraft1Carolyn_lessNoise_PlusLocalization,2021.2.3,59.89364837455628,
,,,,,,,,nearRight,6.5,0,ch1Sound_localizationTask.wav,6.5,"(1047, 878)","(87, -202)",95,-338,,,,,,,,,0,4,4,4,,,,,,,,,,,,,,,,,,,,,,,,,,,,,,,,,,,,,,,,,,,,926.3800186319277,None,927.4797244146466,None,928.4131073830649,None,1.6555555555555554,0.48257644288241863,928.4131073830649,None,,,,,,,,,,,,,,,,,176,001,2024_Mar_05_1717,SpeechDraft1Carolyn_lessNoise_PlusLocalization,2021.2.3,59.89364837455628,
,,,,,,,,midLeft,-13.0,2,ch1Sound_localizationTask.wav,-13.0,"(762, 878)","(-198,-202)",-190,-338,,,,,,,,,0,5,5,1,,,,,,,,,,,,,,,,,,,,,,,,,,,,,,,,,,,,,,,,,,,,928.8969242088497,None,929.9962669536471,None,930.9296062607318,None,1.335978835978836,2.001783805899322,930.9296062607318,None,,,,,,,,,,,,,,,,,176,001,2024_Mar_05_1717,SpeechDraft1Carolyn_lessNoise_PlusLocalization,2021.2.3,59.89364837455628,
,,,,,,,,farLeft,-19.1,5,ch1Sound_localizationTask.wav,-19.1,"(667, 878)","(-293,-202)",-285,-338,,,,,,,,,0,6,6,0,,,,,,,,,,,,,,,,,,,,,,,,,,,,,,,,,,,,,,,,,,,,932.9465857483447,None,934.0464236605912,None,934.9797075483948,None,1.2613756613756615,0.8315625721588731,934.9797075483948,None,,,,,,,,,,,,,,,,,176,001,2024_Mar_05_1717,SpeechDraft1Carolyn_lessNoise_PlusLocalization,2021.2.3,59.89364837455628,
,,,,,,,,center,0.0,6,ch1Sound_localizationTask.wav,0.0,"(952, 878)","(-8,-202)",0,-338,,,,,,,,,1,0,7,3,,,,,,,,,,,,,,,,,,,,,,,,,,,,,,,,,,,,,,,,,,,,935.8133134543896,None,936.9130112137645,None,937.8465467505157,None,1.4735449735449735,0.2669227374717593,937.8465467505157,None,,,,,,,,,,,,,,,,,176,001,2024_Mar_05_1717,SpeechDraft1Carolyn_lessNoise_PlusLocalization,2021.2.3,59.89364837455628,
,,,,,,,,center,0.0,6,ch1Sound_localizationTask.wav,0.0,"(952, 878)","(-8,-202)",0,-338,,,,,,,,,1,1,8,3,,,,,,,,,,,,,,,,,,,,,,,,,,,,,,,,,,,,,,,,,,,,938.1300578685477,None,939.2301875632256,None,940.1630185442045,None,1.5428571428571427,0.6661382056772709,940.1630185442045,None,,,,,,,,,,,,,,,,,176,001,2024_Mar_05_1717,SpeechDraft1Carolyn_lessNoise_PlusLocalization,2021.2.3,59.89364837455628,
,,,,,,,,farRight,19.1,4,ch1Sound_localizationTask.wav,19.1,"(1237, 878)","(277,-202)",285,-338,,,,,,,,,1,2,9,6,,,,,,,,,,,,,,,,,,,,,,,,,,,,,,,,,,,,,,,,,,,,940.8299896549433,None,941.9297118047252,None,942.8629227504134,None,1.6835978835978835,0.8658439498394728,942.8629227504134,None,,,,,,,,,,,,,,,,,176,001,2024_Mar_05_1717,SpeechDraft1Carolyn_lessNoise_PlusLocalization,2021.2.3,59.89364837455628,
,,,,,,,,farLeft,-19.1,5,ch1Sound_localizationTask.wav,-19.1,"(667, 878)","(-293,-202)",-285,-338,,,,,,,,,1,3,10,0,,,,,,,,,,,,,,,,,,,,,,,,,,,,,,,,,,,,,,,,,,,,943.7301840633154,None,944.8297697901726,None,945.7629499025643,None,1.3169312169312168,0.8661227440461516,945.7629499025643,None,,,,,,,,,,,,,,,,,176,001,2024_Mar_05_1717,SpeechDraft1Carolyn_lessNoise_PlusLocalization,2021.2.3,59.89364837455628,
,,,,,,,,center,0.0,6,ch1Sound_localizationTask.wav,0.0,"(952, 878)","(-8,-202)",0,-338,,,,,,,,,1,4,11,3,,,,,,,,,,,,,,,,,,,,,,,,,,,,,,,,,,,,,,,,,,,,946.6465578768402,None,947.7464773440734,None,948.6797458045185,None,1.5544973544973546,0.15076017472893,948.6797458045185,None,,,,,,,,,,,,,,,,,176,001,2024_Mar_05_1717,SpeechDraft1Carolyn_lessNoise_PlusLocalization,2021.2.3,59.89364837455628,
,,,,,,,,farLeft,-19.1,5,ch1Sound_localizationTask.wav,-19.1,"(667, 878)","(-293,-202)",-285,-338,,,,,,,,,1,5,12,0,,,,,,,,,,,,,,,,,,,,,,,,,,,,,,,,,,,,,,,,,,,,948.8466726988554,None,949.9464791100472,None,950.8796569202095,None,1.3211640211640212,0.7489639362320304,950.8796569202095,None,,,,,,,,,,,,,,,,,176,001,2024_Mar_05_1717,SpeechDraft1Carolyn_lessNoise_PlusLocalization,2021.2.3,59.89364837455628,
,,,,,,,,nearLeft,-6.5,1,ch1Sound_localizationTask.wav,-6.5,"(857, 878)","(-103,-202)",-95,-338,,,,,,,,,1,6,13,2,,,,,,,,,,,,,,,,,,,,,,,,,,,,,,,,,,,,,,,,,,,,951.6300663705915,None,952.7297021020204,None,953.6631276160479,None,1.5132275132275133,0.4986096965149045,953.6631276160479,None,,,,,,,,,,,,,,,,,176,001,2024_Mar_05_1717,SpeechDraft1Carolyn_lessNoise_PlusLocalization,2021.2.3,59.89364837455628,
,,,,,,,,midLeft,-13.0,2,ch1Sound_localizationTask.wav,-13.0,"(762, 878)","(-198,-202)",-190,-338,,,,,,,,,2,0,14,1,,,,,,,,,,,,,,,,,,,,,,,,,,,,,,,,,,,,,,,,,,,,954.1633572494611,None,955.2631160337478,None,956.196413368918,None,1.3608465608465607,0.8500058921054006,956.196413368918,None,,,,,,,,,,,,,,,,,176,001,2024_Mar_05_1717,SpeechDraft1Carolyn_lessNoise_PlusLocalization,2021.2.3,59.89364837455628,
,,,,,,,,nearLeft,-6.5,1,ch1Sound_localizationTask.wav,-6.5,"(857, 878)","(-103,-202)",-95,-338,,,,,,,,,2,1,15,2,,,,,,,,,,,,,,,,,,,,,,,,,,,,,,,,,,,,,,,,,,,,957.0635387357324,None,958.1631906423718,None,959.0965193659067,None,1.4428571428571428,1.0829226514324546,959.0965193659067,None,,,,,,,,,,,,,,,,,176,001,2024_Mar_05_1717,SpeechDraft1Carolyn_lessNoise_PlusLocalization,2021.2.3,59.89364837455628,
,,,,,,,,center,0.0,6,ch1Sound_localizationTask.wav,0.0,"(952, 878)","(-8,-202)",0,-338,,,,,,,,,2,2,16,3,,,,,,,,,,,,,,,,,,,,,,,,,,,,,,,,,,,,,,,,,,,,960.1966296387836,None,961.2963818907738,None,962.2297181440517,None,1.506878306878307,0.6163684371858835,962.2297181440517,None,,,,,,,,,,,,,,,,,176,001,2024_Mar_05_1717,SpeechDraft1Carolyn_lessNoise_PlusLocalization,2021.2.3,59.89364837455628,
,,,,,,,,farRight,19.1,4,ch1Sound_localizationTask.wav,19.1,"(1237, 878)","(277,-202)",285,-338,,,,,,,,,2,3,17,6,,,,,,,,,,,,,,,,,,,,,,,,,,,,,,,,,,,,,,,,,,,,962.8467564042658,None,963.9464679844677,None,964.8798638144508,None,1.7312169312169312,0.6663694381713867,964.8798638144508,None,,,,,,,,,,,,,,,,,176,001,2024_Mar_05_1717,SpeechDraft1Carolyn_lessNoise_PlusLocalization,2021.2.3,59.89364837455628,
,,,,,,,,farRight,19.1,4,ch1Sound_localizationTask.wav,19.1,"(1237, 878)","(277,-202)",285,-338,,,,,,,,,2,4,18,6,,,,,,,,,,,,,,,,,,,,,,,,,,,,,,,,,,,,,,,,,,,,965.5466910162941,None,966.6463548596948,None,967.5798163712025,None,1.6375661375661377,0.46607114002108574,967.5798163712025,None,,,,,,,,,,,,,,,,,176,001,2024_Mar_05_1717,SpeechDraft1Carolyn_lessNoise_PlusLocalization,2021.2.3,59.89364837455628,
,,,,,,,,midRight,13.0,3,ch1Sound_localizationTask.wav,13.0,"(1142, 878)","(182, -202)",190,-338,,,,,,,,,2,5,19,5,,,,,,,,,,,,,,,,,,,,,,,,,,,,,,,,,,,,,,,,,,,,968.0470641059801,None,969.1464772457257,None,970.0797016080469,None,1.5878306878306878,0.4835786921903491,970.0797016080469,None,,,,,,,,,,,,,,,,,176,001,2024_Mar_05_1717,SpeechDraft1Carolyn_lessNoise_PlusLocalization,2021.2.3,59.89364837455628,
,,,,,,,,nearLeft,-6.5,1,ch1Sound_localizationTask.wav,-6.5,"(857, 878)","(-103,-202)",-95,-338,,,,,,,,,2,6,20,2,,,,,,,,,,,,,,,,,,,,,,,,,,,,,,,,,,,,,,,,,,,,970.563495230861,None,971.6632174057886,None,972.596680874005,None,1.4433862433862434,0.8500805264338851,972.596680874005,None,,,,,,,,,,,,,,,,,176,001,2024_Mar_05_1717,SpeechDraft1Carolyn_lessNoise_PlusLocalization,2021.2.3,59.89364837455628,
,,,,,,,,nearRight,6.5,0,ch1Sound_localizationTask.wav,6.5,"(1047, 878)","(87, -202)",95,-338,,,,,,,,,3,0,21,4,,,,,,,,,,,,,,,,,,,,,,,,,,,,,,,,,,,,,,,,,,,,973.463390994817,None,974.5630898177624,None,975.4968142416328,None,1.5455026455026455,0.600655211135745,975.4968142416328,None,,,,,,,,,,,,,,,,,176,001,2024_Mar_05_1717,SpeechDraft1Carolyn_lessNoise_PlusLocalization,2021.2.3,59.89364837455628,
,,,,,,,,nearLeft,-6.5,1,ch1Sound_localizationTask.wav,-6.5,"(857, 878)","(-103,-202)",-95,-338,,,,,,,,,3,1,22,2,,,,,,,,,,,,,,,,,,,,,,,,,,,,,,,,,,,,,,,,,,,,976.1133862296119,None,977.2132392870262,None,978.146437634714,None,1.3571428571428572,0.6340580200776458,978.146437634714,None,,,,,,,,,,,,,,,,,176,001,2024_Mar_05_1717,SpeechDraft1Carolyn_lessNoise_PlusLocalization,2021.2.3,59.89364837455628,
,,,,,,,,midLeft,-13.0,2,ch1Sound_localizationTask.wav,-13.0,"(762, 878)","(-198,-202)",-190,-338,,,,,,,,,3,2,23,1,,,,,,,,,,,,,,,,,,,,,,,,,,,,,,,,,,,,,,,,,,,,978.7968070907518,None,979.8964206818491,None,980.8297099461779,None,1.3820105820105821,0.8168942583724856,980.8297099461779,None,,,,,,,,,,,,,,,,,176,001,2024_Mar_05_1717,SpeechDraft1Carolyn_lessNoise_PlusLocalization,2021.2.3,59.89364837455628,
,,,,,,,,farLeft,-19.1,5,ch1Sound_localizationTask.wav,-19.1,"(667, 878)","(-293,-202)",-285,-338,,,,,,,,,3,3,24,0,,,,,,,,,,,,,,,,,,,,,,,,,,,,,,,,,,,,,,,,,,,,981.6636233795434,None,982.763107531704,None,983.6964576467872,None,1.3587301587301588,0.6655533295124769,983.6964576467872,None,,,,,,,,,,,,,,,,,176,001,2024_Mar_05_1717,SpeechDraft1Carolyn_lessNoise_PlusLocalization,2021.2.3,59.89364837455628,
,,,,,,,,midRight,13.0,3,ch1Sound_localizationTask.wav,13.0,"(1142, 878)","(182, -202)",190,-338,,,,,,,,,3,4,25,5,,,,,,,,,,,,,,,,,,,,,,,,,,,,,,,,,,,,,,,,,,,,984.3803763221949,None,985.4797615008429,None,986.4131142944098,None,1.621164021164021,0.9669003337621689,986.4131142944098,None,,,,,,,,,,,,,,,,,176,001,2024_Mar_05_1717,SpeechDraft1Carolyn_lessNoise_PlusLocalization,2021.2.3,59.89364837455628,
,,,,,,,,farLeft,-19.1,5,ch1Sound_localizationTask.wav,-19.1,"(667, 878)","(-293,-202)",-285,-338,,,,,,,,,3,5,26,0,,,,,,,,,,,,,,,,,,,,,,,,,,,,,,,,,,,,,,,,,,,,987.3967673983425,None,988.4962797090411,None,989.4298248616979,None,1.3555555555555556,0.9005946097895503,989.4298248616979,None,,,,,,,,,,,,,,,,,176,001,2024_Mar_05_1717,SpeechDraft1Carolyn_lessNoise_PlusLocalization,2021.2.3,59.89364837455628,
,,,,,,,,midRight,13.0,3,ch1Sound_localizationTask.wav,13.0,"(1142, 878)","(182, -202)",190,-338,,,,,,,,,3,6,27,5,,,,,,,,,,,,,,,,,,,,,,,,,,,,,,,,,,,,,,,,,,,,990.3467092076316,None,991.4463667115197,None,992.3798407530412,None,1.6455026455026456,0.9013731461018324,992.3798407530412,None,,,,,,,,,,,,,,,,,176,001,2024_Mar_05_1717,SpeechDraft1Carolyn_lessNoise_PlusLocalization,2021.2.3,59.89364837455628,
,,,,,,,,nearLeft,-6.5,1,ch1Sound_localizationTask.wav,-6.5,"(857, 878)","(-103,-202)",-95,-338,,,,,,,,,4,0,28,2,,,,,,,,,,,,,,,,,,,,,,,,,,,,,,,,,,,,,,,,,,,,993.2968727964908,None,994.3965686513111,None,995.3299823058769,None,1.4492063492063492,1.035021466203034,995.3299823058769,None,,,,,,,,,,,,,,,,,176,001,2024_Mar_05_1717,SpeechDraft1Carolyn_lessNoise_PlusLocalization,2021.2.3,59.89364837455628,
,,,,,,,,farLeft,-19.1,5,ch1Sound_localizationTask.wav,-19.1,"(667, 878)","(-293,-202)",-285,-338,,,,,,,,,4,1,29,0,,,,,,,,,,,,,,,,,,,,,,,,,,,,,,,,,,,,,,,,,,,,996.3801273647696,None,997.4799416847527,None,998.4130314476788,None,1.331216931216931,0.7330592097714543,998.4130314476788,None,,,,,,,,,,,,,,,,,176,001,2024_Mar_05_1717,SpeechDraft1Carolyn_lessNoise_PlusLocalization,2021.2.3,59.89364837455628,
,,,,,,,,farLeft,-19.1,5,ch1Sound_localizationTask.wav,-19.1,"(667, 878)","(-293,-202)",-285,-338,,,,,,,,,4,2,30,0,,,,,,,,,,,,,,,,,,,,,,,,,,,,,,,,,,,,,,,,,,,,999.1481884550303,None,1000.2631839737296,None,1001.1796507881954,None,1.3354497354497354,0.6006885301321745,1001.1796507881954,None,,,,,,,,,,,,,,,,,176,001,2024_Mar_05_1717,SpeechDraft1Carolyn_lessNoise_PlusLocalization,2021.2.3,59.89364837455628,
,,,,,,,,nearRight,6.5,0,ch1Sound_localizationTask.wav,6.5,"(1047, 878)","(87, -202)",95,-338,,,,,,,,,4,3,31,4,,,,,,,,,,,,,,,,,,,,,,,,,,,,,,,,,,,,,,,,,,,,1001.7967357598245,None,1002.8965390939265,None,1003.8298508292064,None,1.6121693121693121,0.7168202316388488,1003.8298508292064,None,,,,,,,,,,,,,,,,,176,001,2024_Mar_05_1717,SpeechDraft1Carolyn_lessNoise_PlusLocalization,2021.2.3,59.89364837455628,
,,,,,,,,nearRight,6.5,0,ch1Sound_localizationTask.wav,6.5,"(1047, 878)","(87, -202)",95,-338,,,,,,,,,4,4,32,4,,,,,,,,,,,,,,,,,,,,,,,,,,,,,,,,,,,,,,,,,,,,1004.5476286122575,None,1005.6465184707195,None,1006.5796987293288,None,1.5264550264550265,0.44965015538036823,1006.5796987293288,None,,,,,,,,,,,,,,,,,176,001,2024_Mar_05_1717,SpeechDraft1Carolyn_lessNoise_PlusLocalization,2021.2.3,59.89364837455628,
,,,,,,,,farRight,19.1,4,ch1Sound_localizationTask.wav,19.1,"(1237, 878)","(277,-202)",285,-338,,,,,,,,,4,5,33,6,,,,,,,,,,,,,,,,,,,,,,,,,,,,,,,,,,,,,,,,,,,,1007.0300850262865,None,1008.1297623645514,None,1009.0631421264261,None,1.7084656084656085,0.7330744005739689,1009.0631421264261,None,,,,,,,,,,,,,,,,,176,001,2024_Mar_05_1717,SpeechDraft1Carolyn_lessNoise_PlusLocalization,2021.2.3,59.89364837455628,
,,,,,,,,farRight,19.1,4,ch1Sound_localizationTask.wav,19.1,"(1237, 878)","(277,-202)",285,-338,,,,,,,,,4,6,34,6,,,,,,,,,,,,,,,,,,,,,,,,,,,,,,,,,,,,,,,,,,,,1009.7968052644283,None,1010.8964828038588,None,1011.8297840887681,None,1.665079365079365,0.44962748419493437,1011.8297840887681,None,,,,,,,,,,,,,,,,,176,001,2024_Mar_05_1717,SpeechDraft1Carolyn_lessNoise_PlusLocalization,2021.2.3,59.89364837455628,
,,,,,,,,nearRight,6.5,0,ch1Sound_localizationTask.wav,6.5,"(1047, 878)","(87, -202)",95,-338,,,,,,,,,5,0,35,4,,,,,,,,,,,,,,,,,,,,,,,,,,,,,,,,,,,,,,,,,,,,1012.2800506912172,None,1013.3798880856484,None,1014.313287303783,None,1.5746031746031746,0.4659731797873974,1014.313287303783,None,,,,,,,,,,,,,,,,,176,001,2024_Mar_05_1717,SpeechDraft1Carolyn_lessNoise_PlusLocalization,2021.2.3,59.89364837455628,
,,,,,,,,farLeft,-19.1,5,ch1Sound_localizationTask.wav,-19.1,"(667, 878)","(-293,-202)",-285,-338,,,,,,,,,5,1,36,0,,,,,,,,,,,,,,,,,,,,,,,,,,,,,,,,,,,,,,,,,,,,1014.7811788022518,None,1015.896522150375,None,1016.813336526975,None,1.2449735449735448,1.08408107701689,1016.813336526975,None,,,,,,,,,,,,,,,,,176,001,2024_Mar_05_1717,SpeechDraft1Carolyn_lessNoise_PlusLocalization,2021.2.3,59.89364837455628,
,,,,,,,,center,0.0,6,ch1Sound_localizationTask.wav,0.0,"(952, 878)","(-8,-202)",0,-338,,,,,,,,,5,2,37,3,,,,,,,,,,,,,,,,,,,,,,,,,,,,,,,,,,,,,,,,,,,,1017.9135344810784,None,1019.0131174437702,None,1019.9464590027928,None,1.5613756613756613,1.483006039634347,1019.9464590027928,None,,,,,,,,,,,,,,,,,176,001,2024_Mar_05_1717,SpeechDraft1Carolyn_lessNoise_PlusLocalization,2021.2.3,59.89364837455628,
,,,,,,,,farRight,19.1,4,ch1Sound_localizationTask.wav,19.1,"(1237, 878)","(277,-202)",285,-338,,,,,,,,,5,3,38,6,,,,,,,,,,,,,,,,,,,,,,,,,,,,,,,,,,,,,,,,,,,,1021.4303485415876,None,1022.5299447244033,None,1023.463194902055,None,1.8058201058201058,1.3681193077936769,1023.463194902055,None,,,,,,,,,,,,,,,,,176,001,2024_Mar_05_1717,SpeechDraft1Carolyn_lessNoise_PlusLocalization,2021.2.3,59.89364837455628,
,,,,,,,,nearLeft,-6.5,1,ch1Sound_localizationTask.wav,-6.5,"(857, 878)","(-103,-202)",-95,-338,,,,,,,,,5,4,39,2,,,,,,,,,,,,,,,,,,,,,,,,,,,,,,,,,,,,,,,,,,,,1024.8469532169402,None,1025.9465641034767,None,1026.8798279166222,None,1.3772486772486774,1.282095986418426,1026.8798279166222,None,,,,,,,,,,,,,,,,,176,001,2024_Mar_05_1717,SpeechDraft1Carolyn_lessNoise_PlusLocalization,2021.2.3,59.89364837455628,
,,,,,,,,midLeft,-13.0,2,ch1Sound_localizationTask.wav,-13.0,"(762, 878)","(-198,-202)",-190,-338,,,,,,,,,5,5,40,1,,,,,,,,,,,,,,,,,,,,,,,,,,,,,,,,,,,,,,,,,,,,1028.1634886367247,None,1029.2631081547588,None,1030.1965888207778,None,1.4873015873015873,0.8185731861740351,1030.1965888207778,None,,,,,,,,,,,,,,,,,176,001,2024_Mar_05_1717,SpeechDraft1Carolyn_lessNoise_PlusLocalization,2021.2.3,59.89364837455628,
,,,,,,,,midLeft,-13.0,2,ch1Sound_localizationTask.wav,-13.0,"(762, 878)","(-198,-202)",-190,-338,,,,,,,,,5,6,41,1,,,,,,,,,,,,,,,,,,,,,,,,,,,,,,,,,,,,,,,,,,,,1031.0303015820682,None,1032.1297877505422,None,1033.0632470762357,None,1.317989417989418,1.0336422929540277,1033.0632470762357,None,,,,,,,,,,,,,,,,,176,001,2024_Mar_05_1717,SpeechDraft1Carolyn_lessNoise_PlusLocalization,2021.2.3,59.89364837455628,
,,,,,,,,midRight,13.0,3,ch1Sound_localizationTask.wav,13.0,"(1142, 878)","(182, -202)",190,-338,,,,,,,,,6,0,42,5,,,,,,,,,,,,,,,,,,,,,,,,,,,,,,,,,,,,,,,,,,,,1034.1134973932058,None,1035.2131818095222,None,1036.1466040061787,None,1.671957671957672,1.5995500376448035,1036.1466040061787,None,,,,,,,,,,,,,,,,,176,001,2024_Mar_05_1717,SpeechDraft1Carolyn_lessNoise_PlusLocalization,2021.2.3,59.89364837455628,
,,,,,,,,nearRight,6.5,0,ch1Sound_localizationTask.wav,6.5,"(1047, 878)","(87, -202)",95,-338,,,,,,,,,6,1,43,4,,,,,,,,,,,,,,,,,,,,,,,,,,,,,,,,,,,,,,,,,,,,1037.7468963852152,None,1038.846658310853,None,1039.7800301406533,None,1.5386243386243388,0.6662114812061191,1039.7800301406533,None,,,,,,,,,,,,,,,,,176,001,2024_Mar_05_1717,SpeechDraft1Carolyn_lessNoise_PlusLocalization,2021.2.3,59.89364837455628,
,,,,,,,,midLeft,-13.0,2,ch1Sound_localizationTask.wav,-13.0,"(762, 878)","(-198,-202)",-190,-338,,,,,,,,,6,2,44,1,,,,,,,,,,,,,,,,,,,,,,,,,,,,,,,,,,,,,,,,,,,,1040.4636345589533,None,1041.56322939042,None,1042.496587054804,None,1.356084656084656,1.0668144598603249,1042.496587054804,None,,,,,,,,,,,,,,,,,176,001,2024_Mar_05_1717,SpeechDraft1Carolyn_lessNoise_PlusLocalization,2021.2.3,59.89364837455628,
,,,,,,,,midRight,13.0,3,ch1Sound_localizationTask.wav,13.0,"(1142, 878)","(182, -202)",190,-338,,,,,,,,,6,3,45,5,,,,,,,,,,,,,,,,,,,,,,,,,,,,,,,,,,,,,,,,,,,,1043.58011177741,None,1044.679980118759,None,1045.6131937960163,None,1.6375661375661377,0.5992541220039129,1045.6131937960163,None,,,,,,,,,,,,,,,,,176,001,2024_Mar_05_1717,SpeechDraft1Carolyn_lessNoise_PlusLocalization,2021.2.3,59.89364837455628,
,,,,,,,,midLeft,-13.0,2,ch1Sound_localizationTask.wav,-13.0,"(762, 878)","(-198,-202)",-190,-338,,,,,,,,,6,4,46,1,,,,,,,,,,,,,,,,,,,,,,,,,,,,,,,,,,,,,,,,,,,,1046.2148972796276,None,1047.3298278646544,None,1048.2465420365334,None,1.3523809523809525,0.8349017258733511,1048.2465420365334,None,,,,,,,,,,,,,,,,,176,001,2024_Mar_05_1717,SpeechDraft1Carolyn_lessNoise_PlusLocalization,2021.2.3,59.89364837455628,
,,,,,,,,nearRight,6.5,0,ch1Sound_localizationTask.wav,6.5,"(1047, 878)","(87, -202)",95,-338,,,,,,,,,6,5,47,4,,,,,,,,,,,,,,,,,,,,,,,,,,,,,,,,,,,,,,,,,,,,1049.0968428300694,None,1050.1964852027595,None,1051.129815781489,None,1.6169312169312169,0.6323925405740738,1051.129815781489,None,,,,,,,,,,,,,,,,,176,001,2024_Mar_05_1717,SpeechDraft1Carolyn_lessNoise_PlusLocalization,2021.2.3,59.89364837455628,
,,,,,,,,midRight,13.0,3,ch1Sound_localizationTask.wav,13.0,"(1142, 878)","(182, -202)",190,-338,,,,,,,,,6,6,48,5,,,,,,,,,,,,,,,,,,,,,,,,,,,,,,,,,,,,,,,,,,,,1051.763502208516,None,1052.8630180349573,None,1053.7966039795429,None,1.6365079365079365,0.5994550976902246,1053.7966039795429,None,,,,,,,,,,,,,,,,,176,001,2024_Mar_05_1717,SpeechDraft1Carolyn_lessNoise_PlusLocalization,2021.2.3,59.89364837455628,
,,,,,,,,nearLeft,-6.5,1,ch1Sound_localizationTask.wav,-6.5,"(857, 878)","(-103,-202)",-95,-338,,,,,,,,,7,0,49,2,,,,,,,,,,,,,,,,,,,,,,,,,,,,,,,,,,,,,,,,,,,,1054.4134710393846,None,1055.5133147528395,None,1056.4466786133125,None,1.3714285714285714,0.7494341377168894,1056.4466786133125,None,,,,,,,,,,,,,,,,,176,001,2024_Mar_05_1717,SpeechDraft1Carolyn_lessNoise_PlusLocalization,2021.2.3,59.89364837455628,
,,,,,,,,nearLeft,-6.5,1,ch1Sound_localizationTask.wav,-6.5,"(857, 878)","(-103,-202)",-95,-338,,,,,,,,,7,1,50,2,,,,,,,,,,,,,,,,,,,,,,,,,,,,,,,,,,,,,,,,,,,,1057.2135167978704,None,1058.313350864686,None,1059.2465988360345,None,1.4825396825396826,0.6010852670297027,1059.2465988360345,None,,,,,,,,,,,,,,,,,176,001,2024_Mar_05_1717,SpeechDraft1Carolyn_lessNoise_PlusLocalization,2021.2.3,59.89364837455628,
,,,,,,,,nearRight,6.5,0,ch1Sound_localizationTask.wav,6.5,"(1047, 878)","(87, -202)",95,-338,,,,,,,,,7,2,51,4,,,,,,,,,,,,,,,,,,,,,,,,,,,,,,,,,,,,,,,,,,,,1059.863690258935,None,1060.96332985349,None,1061.8966951854527,None,1.5915343915343916,0.582624432630837,1061.8966951854527,None,,,,,,,,,,,,,,,,,176,001,2024_Mar_05_1717,SpeechDraft1Carolyn_lessNoise_PlusLocalization,2021.2.3,59.89364837455628,
,,,,,,,,midLeft,-13.0,2,ch1Sound_localizationTask.wav,-13.0,"(762, 878)","(-198,-202)",-190,-338,,,,,,,,,7,3,52,1,,,,,,,,,,,,,,,,,,,,,,,,,,,,,,,,,,,,,,,,,,,,1062.4803560608998,None,1063.5798301249743,None,1064.5133224129677,None,1.3042328042328042,0.6660477193072438,1064.5133224129677,None,,,,,,,,,,,,,,,,,176,001,2024_Mar_05_1717,SpeechDraft1Carolyn_lessNoise_PlusLocalization,2021.2.3,59.89364837455628,
,,,,,,,,farRight,19.1,4,ch1Sound_localizationTask.wav,19.1,"(1237, 878)","(277,-202)",285,-338,,,,,,,,,7,4,53,6,,,,,,,,,,,,,,,,,,,,,,,,,,,,,,,,,,,,,,,,,,,,1065.1801718296483,None,1066.2799619091675,None,1067.213203384541,None,1.656084656084656,0.7979032397270203,1067.213203384541,None,,,,,,,,,,,,,,,,,176,001,2024_Mar_05_1717,SpeechDraft1Carolyn_lessNoise_PlusLocalization,2021.2.3,59.89364837455628,
,,,,,,,,farRight,19.1,4,ch1Sound_localizationTask.wav,19.1,"(1237, 878)","(277,-202)",285,-338,,,,,,,,,7,5,54,6,,,,,,,,,,,,,,,,,,,,,,,,,,,,,,,,,,,,,,,,,,,,1068.013607014902,None,1069.1132208583876,None,1070.0466311629862,None,1.782010582010582,0.868596613407135,1070.0466311629862,None,,,,,,,,,,,,,,,,,176,001,2024_Mar_05_1717,SpeechDraft1Carolyn_lessNoise_PlusLocalization,2021.2.3,59.89364837455628,
,,,,,,,,center,0.0,6,ch1Sound_localizationTask.wav,0.0,"(952, 878)","(-8,-202)",0,-338,,,,,,,,,7,6,55,3,,,,,,,,,,,,,,,,,,,,,,,,,,,,,,,,,,,,,,,,,,,,1070.9302454292774,None,1072.0298594478518,None,1072.9631142634898,None,1.5037037037037035,0.6010223710909486,1072.9631142634898,None,,,,,,,,,,,,,,,,,176,001,2024_Mar_05_1717,SpeechDraft1Carolyn_lessNoise_PlusLocalization,2021.2.3,59.89364837455628,
,,,,,,,,,,,,,,,,,,,,,,,,,,,,,,,,,,,,,,,,,,,,,,,,,,,,,,,,,,,,,,,,,,,,,,,,,,,,,,,,,,space,20.485468010418117,1073.66360844858,None,,,,,,,,,,,,,176,001,2024_Mar_05_1717,SpeechDraft1Carolyn_lessNoise_PlusLocalization,2021.2.3,59.89364837455628,
,,,,,,,,nearLeft,-6.5,1,ch1Sound_localizationTask.wav,-6.5,"(857, 878)","(-103,-202)",-95,-338,,,,,,,,,,,,,0,0,0,2,,,,,,,,,,,,,,,,,,,,,,,,,,,,,,,,,,,,,,,,1094.1965790204704,None,,,1097.213380199857,None,1.428042328042328,1.035987184382975,1097.213380199857,None,,,,,1073.66360844858,None,1095.1968496749178,None,1095.3801650879905,1095.3968422170728,,,,,,,176,001,2024_Mar_05_1717,SpeechDraft1Carolyn_lessNoise_PlusLocalization,2021.2.3,59.89364837455628,
,,,,,,,,midLeft,-13.0,2,ch1Sound_localizationTask.wav,-13.0,"(762, 878)","(-198,-202)",-190,-338,,,,,,,,,,,,,0,1,1,1,,,,,,,,,,,,,,,,,,,,,,,,,,,,,,,,,,,,,,,,1098.2635503700003,None,,,1101.2799380477518,None,1.3756613756613758,0.9663217337802052,1101.2799380477518,None,,,,,,,1099.263578874059,None,1099.4468963164836,1099.4637101162225,,,,,,,176,001,2024_Mar_05_1717,SpeechDraft1Carolyn_lessNoise_PlusLocalization,2021.2.3,59.89364837455628,
,,,,,,,,nearRight,6.5,0,ch1Sound_localizationTask.wav,6.5,"(1047, 878)","(87, -202)",95,-338,,,,,,,,,,,,,0,2,2,4,,,,,,,,,,,,,,,,,,,,,,,,,,,,,,,,,,,,,,,,1102.2636558180675,None,,,1105.2798836193979,None,1.552910052910053,0.6652890397235751,1105.2798836193979,None,,,,,,,1103.263956911862,None,1103.446841582656,1103.4635991482064,,,,,,,176,001,2024_Mar_05_1717,SpeechDraft1Carolyn_lessNoise_PlusLocalization,2021.2.3,59.89364837455628,
,,,,,,,,midRight,13.0,3,ch1Sound_localizationTask.wav,13.0,"(1142, 878)","(182, -202)",190,-338,,,,,,,,,,,,,0,3,3,5,,,,,,,,,,,,,,,,,,,,,,,,,,,,,,,,,,,,,,,,1105.9631607243791,None,,,1108.980026356876,None,1.633862433862434,0.6827926766127348,1108.980026356876,None,,,,,,,1106.9635636368766,None,1107.1469654971734,1107.1635031988844,,,,,,,176,001,2024_Mar_05_1717,SpeechDraft1Carolyn_lessNoise_PlusLocalization,2021.2.3,59.89364837455628,
,,,,,,,,center,0.0,6,ch1Sound_localizationTask.wav,0.0,"(952, 878)","(-8,-202)",0,-338,,,,,,,,,,,,,0,4,4,3,,,,,,,,,,,,,,,,,,,,,,,,,,,,,,,,,,,,,,,,1109.6648168545216,None,,,1112.6966435220093,None,1.5037037037037035,0.7499313736334443,1112.6966435220093,None,,,,,,,1110.680228287354,None,1110.863526490517,1110.8803084120154,,,,,,,176,001,2024_Mar_05_1717,SpeechDraft1Carolyn_lessNoise_PlusLocalization,2021.2.3,59.89364837455628,
,,,,,,,,midRight,13.0,3,ch1Sound_localizationTask.wav,13.0,"(1142, 878)","(182, -202)",190,-338,,,,,,,,,,,,,0,5,5,5,,,,,,,,,,,,,,,,,,,,,,,,,,,,,,,,,,,,,,,,1113.4635630734265,None,,,1116.4800336547196,None,1.6164021164021163,0.46768058836460114,1116.4800336547196,None,,,,,,,1114.4637001994997,None,1114.6470158938318,1114.6636151792482,,,,,,,176,001,2024_Mar_05_1717,SpeechDraft1Carolyn_lessNoise_PlusLocalization,2021.2.3,59.89364837455628,
,,,,,,,,midRight,13.0,3,ch1Sound_localizationTask.wav,13.0,"(1142, 878)","(182, -202)",190,-338,,,,,,,,,,,,,0,6,6,5,,,,,,,,,,,,,,,,,,,,,,,,,,,,,,,,,,,,,,,,1116.9635335989296,None,,,1119.9799772314727,None,1.574074074074074,0.4823647188022733,1119.9799772314727,None,,,,,,,1117.9637103406712,None,1118.1468324325979,1118.16350254789,,,,,,,176,001,2024_Mar_05_1717,SpeechDraft1Carolyn_lessNoise_PlusLocalization,2021.2.3,59.89364837455628,
,,,,,,,,farRight,19.1,4,ch1Sound_localizationTask.wav,19.1,"(1237, 878)","(277,-202)",285,-338,,,,,,,,,,,,,1,0,7,6,,,,,,,,,,,,,,,,,,,,,,,,,,,,,,,,,,,,,,,,1120.4802425140515,None,,,1123.4965705815703,None,1.6407407407407408,0.6823024153709412,1123.4965705815703,None,,,,,,,1121.4802412716672,None,1121.6636069640517,1121.6801823517308,,,,,,,176,001,2024_Mar_05_1717,SpeechDraft1Carolyn_lessNoise_PlusLocalization,2021.2.3,59.89364837455628,
,,,,,,,,farRight,19.1,4,ch1Sound_localizationTask.wav,19.1,"(1237, 878)","(277,-202)",285,-338,,,,,,,,,,,,,1,1,8,6,,,,,,,,,,,,,,,,,,,,,,,,,,,,,,,,,,,,,,,,1124.1802053619176,None,,,1127.1965906480327,None,1.6343915343915345,0.4159362083300948,1127.1965906480327,None,,,,,,,1125.1802693037316,None,1125.3636005120352,1125.3802405670285,,,,,,,176,001,2024_Mar_05_1717,SpeechDraft1Carolyn_lessNoise_PlusLocalization,2021.2.3,59.89364837455628,
,,,,,,,,nearRight,6.5,0,ch1Sound_localizationTask.wav,6.5,"(1047, 878)","(87, -202)",95,-338,,,,,,,,,,,,,1,2,9,4,,,,,,,,,,,,,,,,,,,,,,,,,,,,,,,,,,,,,,,,1127.6134682297707,None,,,1130.6302822669968,None,1.5513227513227514,0.6821558550000191,1130.6302822669968,None,,,,,,,1128.6135709956288,None,1128.7970064273104,1128.8135748682544,,,,,,,176,001,2024_Mar_05_1717,SpeechDraft1Carolyn_lessNoise_PlusLocalization,2021.2.3,59.89364837455628,
,,,,,,,,farLeft,-19.1,5,ch1Sound_localizationTask.wav,-19.1,"(667, 878)","(-293,-202)",-285,-338,,,,,,,,,,,,,1,3,10,0,,,,,,,,,,,,,,,,,,,,,,,,,,,,,,,,,,,,,,,,1131.330228687264,None,,,1134.3467613887042,None,1.3513227513227513,0.9167717499658465,1134.3467613887042,None,,,,,,,1132.3301895204931,None,1132.51354439836,1132.5303547158837,,,,,,,176,001,2024_Mar_05_1717,SpeechDraft1Carolyn_lessNoise_PlusLocalization,2021.2.3,59.89364837455628,
,,,,,,,,midRight,13.0,3,ch1Sound_localizationTask.wav,13.0,"(1142, 878)","(182, -202)",190,-338,,,,,,,,,,,,,1,4,11,5,,,,,,,,,,,,,,,,,,,,,,,,,,,,,,,,,,,,,,,,1135.28070400469,None,,,1138.296706456691,None,1.5984126984126985,1.0659638131037354,1138.296706456691,None,,,,,,,1136.28035072051,None,1136.4636659054086,1136.4803568692878,,,,,,,176,001,2024_Mar_05_1717,SpeechDraft1Carolyn_lessNoise_PlusLocalization,2021.2.3,59.89364837455628,
,,,,,,,,midRight,13.0,3,ch1Sound_localizationTask.wav,13.0,"(1142, 878)","(182, -202)",190,-338,,,,,,,,,,,,,1,5,12,5,,,,,,,,,,,,,,,,,,,,,,,,,,,,,,,,,,,,,,,,1139.3636389179155,None,,,1142.3801350956783,None,1.5931216931216932,0.7815214432775974,1142.3801350956783,None,,,,,,,1140.3636420713738,None,1140.5468711070716,1140.5635729534552,,,,,,,176,001,2024_Mar_05_1717,SpeechDraft1Carolyn_lessNoise_PlusLocalization,2021.2.3,59.89364837455628,
,,,,,,,,farLeft,-19.1,5,ch1Sound_localizationTask.wav,-19.1,"(667, 878)","(-293,-202)",-285,-338,,,,,,,,,,,,,1,6,13,0,,,,,,,,,,,,,,,,,,,,,,,,,,,,,,,,,,,,,,,,1143.1635759649798,None,,,1146.17994200252,None,1.3597883597883598,1.0156431691721082,1146.17994200252,None,,,,,,,1144.1635376708582,None,1144.3469554288313,1144.363597762771,,,,,,,176,001,2024_Mar_05_1717,SpeechDraft1Carolyn_lessNoise_PlusLocalization,2021.2.3,59.89364837455628,
,,,,,,,,midLeft,-13.0,2,ch1Sound_localizationTask.wav,-13.0,"(762, 878)","(-198,-202)",-190,-338,,,,,,,,,,,,,2,0,14,1,,,,,,,,,,,,,,,,,,,,,,,,,,,,,,,,,,,,,,,,1147.1968983802944,None,,,1150.2133833048865,None,1.4052910052910053,0.5999390864744782,1150.2133833048865,None,,,,,,,1148.1969183227047,None,1148.3802013080567,1148.396999573335,,,,,,,176,001,2024_Mar_05_1717,SpeechDraft1Carolyn_lessNoise_PlusLocalization,2021.2.3,59.89364837455628,
,,,,,,,,farRight,19.1,4,ch1Sound_localizationTask.wav,19.1,"(1237, 878)","(277,-202)",285,-338,,,,,,,,,,,,,2,1,15,6,,,,,,,,,,,,,,,,,,,,,,,,,,,,,,,,,,,,,,,,1150.8139530774206,None,,,1153.8300167936832,None,1.6402116402116402,0.7825369723141193,1153.8300167936832,None,,,,,,,1151.8136464795098,None,1151.9969352865592,1152.0136369392276,,,,,,,176,001,2024_Mar_05_1717,SpeechDraft1Carolyn_lessNoise_PlusLocalization,2021.2.3,59.89364837455628,
,,,,,,,,farLeft,-19.1,5,ch1Sound_localizationTask.wav,-19.1,"(667, 878)","(-293,-202)",-285,-338,,,,,,,,,,,,,2,2,16,0,,,,,,,,,,,,,,,,,,,,,,,,,,,,,,,,,,,,,,,,1154.613567871973,None,,,1157.6300670662895,None,1.3185185185185184,0.966845428571105,1157.6300670662895,None,,,,,,,1155.6135753449053,None,1155.7968875095248,1155.8135642036796,,,,,,,176,001,2024_Mar_05_1717,SpeechDraft1Carolyn_lessNoise_PlusLocalization,2021.2.3,59.89364837455628,
,,,,,,,,nearLeft,-6.5,1,ch1Sound_localizationTask.wav,-6.5,"(857, 878)","(-103,-202)",-95,-338,,,,,,,,,,,,,2,3,17,2,,,,,,,,,,,,,,,,,,,,,,,,,,,,,,,,,,,,,,,,1158.613623718731,None,,,1161.6299939518794,None,1.4576719576719577,0.7994355168193579,1161.6299939518794,None,,,,,,,1159.6135731283575,None,1159.7969401385635,1159.8136465344578,,,,,,,176,001,2024_Mar_05_1717,SpeechDraft1Carolyn_lessNoise_PlusLocalization,2021.2.3,59.89364837455628,
,,,,,,,,farLeft,-19.1,5,ch1Sound_localizationTask.wav,-19.1,"(667, 878)","(-293,-202)",-285,-338,,,,,,,,,,,,,2,4,18,0,,,,,,,,,,,,,,,,,,,,,,,,,,,,,,,,,,,,,,,,1162.4304225789383,None,,,1165.4469412164763,None,1.3380952380952382,0.8499346971511841,1165.4469412164763,None,,,,,,,1163.430302948691,None,1163.6135587897152,1163.6303493380547,,,,,,,176,001,2024_Mar_05_1717,SpeechDraft1Carolyn_lessNoise_PlusLocalization,2021.2.3,59.89364837455628,
,,,,,,,,nearLeft,-6.5,1,ch1Sound_localizationTask.wav,-6.5,"(857, 878)","(-103,-202)",-95,-338,,,,,,,,,,,,,2,5,19,2,,,,,,,,,,,,,,,,,,,,,,,,,,,,,,,,,,,,,,,,1166.3135193288326,None,,,1169.330085775815,None,1.4222222222222223,0.9486802434548736,1169.330085775815,None,,,,,,,1167.3135549444705,None,1167.496965029277,1167.513704401441,,,,,,,176,001,2024_Mar_05_1717,SpeechDraft1Carolyn_lessNoise_PlusLocalization,2021.2.3,59.89364837455628,
,,,,,,,,nearRight,6.5,0,ch1Sound_localizationTask.wav,6.5,"(1047, 878)","(87, -202)",95,-338,,,,,,,,,,,,,2,6,20,4,,,,,,,,,,,,,,,,,,,,,,,,,,,,,,,,,,,,,,,,1170.2804824449122,None,,,1173.296705238521,None,1.6179894179894179,2.0140814194455743,1173.296705238521,None,,,,,,,1171.28031665273,None,1171.4640833130106,1171.4804069260135,,,,,,,176,001,2024_Mar_05_1717,SpeechDraft1Carolyn_lessNoise_PlusLocalization,2021.2.3,59.89364837455628,
,,,,,,,,farLeft,-19.1,5,ch1Sound_localizationTask.wav,-19.1,"(667, 878)","(-293,-202)",-285,-338,,,,,,,,,,,,,3,0,21,0,,,,,,,,,,,,,,,,,,,,,,,,,,,,,,,,,,,,,,,,1175.3302653804421,None,,,1178.3468596711755,None,1.353968253968254,0.664908210746944,1178.3468596711755,None,,,,,,,1176.3303269790486,None,1176.5135911516845,1176.530392982997,,,,,,,176,001,2024_Mar_05_1717,SpeechDraft1Carolyn_lessNoise_PlusLocalization,2021.2.3,59.89364837455628,
,,,,,,,,center,0.0,6,ch1Sound_localizationTask.wav,0.0,"(952, 878)","(-8,-202)",0,-338,,,,,,,,,,,,,3,1,22,3,,,,,,,,,,,,,,,,,,,,,,,,,,,,,,,,,,,,,,,,1179.013594340533,None,,,1182.0301142837852,None,1.4925925925925925,0.6657347306609154,1182.0301142837852,None,,,,,,,1180.0138045875356,None,1180.1970728458837,1180.2135142171755,,,,,,,176,001,2024_Mar_05_1717,SpeechDraft1Carolyn_lessNoise_PlusLocalization,2021.2.3,59.89364837455628,
,,,,,,,,midRight,13.0,3,ch1Sound_localizationTask.wav,13.0,"(1142, 878)","(182, -202)",190,-338,,,,,,,,,,,,,3,2,23,5,,,,,,,,,,,,,,,,,,,,,,,,,,,,,,,,,,,,,,,,1182.6969542792067,None,,,1185.713320975192,None,1.6507936507936507,0.499341300688684,1185.713320975192,None,,,,,,,1183.6969414576888,None,1183.8802898628637,1183.8969343919307,,,,,,,176,001,2024_Mar_05_1717,SpeechDraft1Carolyn_lessNoise_PlusLocalization,2021.2.3,59.89364837455628,
,,,,,,,,center,0.0,6,ch1Sound_localizationTask.wav,0.0,"(952, 878)","(-8,-202)",0,-338,,,,,,,,,,,,,3,3,24,3,,,,,,,,,,,,,,,,,,,,,,,,,,,,,,,,,,,,,,,,1186.2137896176428,None,,,1189.2301392229274,None,1.5222222222222221,0.9157347856089473,1189.2301392229274,None,,,,,,,1187.2138008307666,None,1187.396937230602,1187.4136945819482,,,,,,,176,001,2024_Mar_05_1717,SpeechDraft1Carolyn_lessNoise_PlusLocalization,2021.2.3,59.89364837455628,
,,,,,,,,nearLeft,-6.5,1,ch1Sound_localizationTask.wav,-6.5,"(857, 878)","(-103,-202)",-95,-338,,,,,,,,,,,,,3,4,25,2,,,,,,,,,,,,,,,,,,,,,,,,,,,,,,,,,,,,,,,,1190.1471251593903,None,,,1193.1635695174336,None,1.4137566137566138,0.6839806865900755,1193.1635695174336,None,,,,,,,1191.147124517709,None,1191.330701643601,1191.3471518894657,,,,,,,176,001,2024_Mar_05_1717,SpeechDraft1Carolyn_lessNoise_PlusLocalization,2021.2.3,59.89364837455628,
,,,,,,,,center,0.0,6,ch1Sound_localizationTask.wav,0.0,"(952, 878)","(-8,-202)",0,-338,,,,,,,,,,,,,3,5,26,3,,,,,,,,,,,,,,,,,,,,,,,,,,,,,,,,,,,,,,,,1193.8637088313699,None,,,1196.8799659358338,None,1.507936507936508,0.5167043786495924,1196.8799659358338,None,,,,,,,1194.863639069721,None,1195.0470866058022,1195.0636575622484,,,,,,,176,001,2024_Mar_05_1717,SpeechDraft1Carolyn_lessNoise_PlusLocalization,2021.2.3,59.89364837455628,
,,,,,,,,midLeft,-13.0,2,ch1Sound_localizationTask.wav,-13.0,"(762, 878)","(-198,-202)",-190,-338,,,,,,,,,,,,,3,6,27,1,,,,,,,,,,,,,,,,,,,,,,,,,,,,,,,,,,,,,,,,1197.4136049980298,None,,,1200.4299956252798,None,1.3613756613756614,0.8336260765790939,1200.4299956252798,None,,,,,,,1198.4136171462014,None,1198.596980237402,1198.613643025048,,,,,,,176,001,2024_Mar_05_1717,SpeechDraft1Carolyn_lessNoise_PlusLocalization,2021.2.3,59.89364837455628,
,,,,,,,,nearLeft,-6.5,1,ch1Sound_localizationTask.wav,-6.5,"(857, 878)","(-103,-202)",-95,-338,,,,,,,,,,,,,4,0,28,2,,,,,,,,,,,,,,,,,,,,,,,,,,,,,,,,,,,,,,,,1201.280536624603,None,,,1204.2967875776812,None,1.4677248677248678,0.8164667477831244,1204.2967875776812,None,,,,,,,1202.2803133083507,None,1202.4636367857456,1202.4803179036826,,,,,,,176,001,2024_Mar_05_1717,SpeechDraft1Carolyn_lessNoise_PlusLocalization,2021.2.3,59.89364837455628,
,,,,,,,,center,0.0,6,ch1Sound_localizationTask.wav,0.0,"(952, 878)","(-8,-202)",0,-338,,,,,,,,,,,,,4,1,29,3,,,,,,,,,,,,,,,,,,,,,,,,,,,,,,,,,,,,,,,,1205.1137906601653,None,,,1208.1301654689014,None,1.511111111111111,0.8617565603926778,1208.1301654689014,None,,,,,,,1206.113792244345,None,1206.2970015183091,1206.3136524725705,,,,,,,176,001,2024_Mar_05_1717,SpeechDraft1Carolyn_lessNoise_PlusLocalization,2021.2.3,59.89364837455628,
,,,,,,,,nearRight,6.5,0,ch1Sound_localizationTask.wav,6.5,"(1047, 878)","(87, -202)",95,-338,,,,,,,,,,,,,4,2,30,4,,,,,,,,,,,,,,,,,,,,,,,,,,,,,,,,,,,,,,,,1208.997160694562,None,,,1212.0133544588462,None,1.5687830687830688,0.7988508716225624,1212.0133544588462,None,,,,,,,1209.9969764258713,None,1210.180394474417,1210.1970553845167,,,,,,,176,001,2024_Mar_05_1717,SpeechDraft1Carolyn_lessNoise_PlusLocalization,2021.2.3,59.89364837455628,
,,,,,,,,midLeft,-13.0,2,ch1Sound_localizationTask.wav,-13.0,"(762, 878)","(-198,-202)",-190,-338,,,,,,,,,,,,,4,3,31,1,,,,,,,,,,,,,,,,,,,,,,,,,,,,,,,,,,,,,,,,1212.8137316042557,None,,,1215.8301876587793,None,1.3936507936507936,0.8666526935994625,1215.8301876587793,None,,,,,,,1213.8136574849486,None,1213.9969682665542,1214.0136332949623,,,,,,,176,001,2024_Mar_05_1717,SpeechDraft1Carolyn_lessNoise_PlusLocalization,2021.2.3,59.89364837455628,
,,,,,,,,nearLeft,-6.5,1,ch1Sound_localizationTask.wav,-6.5,"(857, 878)","(-103,-202)",-95,-338,,,,,,,,,,,,,4,4,32,2,,,,,,,,,,,,,,,,,,,,,,,,,,,,,,,,,,,,,,,,1216.7137253405526,None,,,1219.7301117116585,None,1.475132275132275,0.9165488611906767,1219.7301117116585,None,,,,,,,1217.7137386593968,None,1217.8970873877406,1217.913739874959,,,,,,,176,001,2024_Mar_05_1717,SpeechDraft1Carolyn_lessNoise_PlusLocalization,2021.2.3,59.89364837455628,
,,,,,,,,center,0.0,6,ch1Sound_localizationTask.wav,0.0,"(952, 878)","(-8,-202)",0,-338,,,,,,,,,,,,,4,5,33,3,,,,,,,,,,,,,,,,,,,,,,,,,,,,,,,,,,,,,,,,1220.6478573540226,None,,,1223.6634485656396,None,1.511111111111111,0.801771430298686,1223.6634485656396,None,,,,,,,1221.647235320881,None,1221.8303803615272,1221.8470433354378,,,,,,,176,001,2024_Mar_05_1717,SpeechDraft1Carolyn_lessNoise_PlusLocalization,2021.2.3,59.89364837455628,
,,,,,,,,farRight,19.1,4,ch1Sound_localizationTask.wav,19.1,"(1237, 878)","(277,-202)",285,-338,,,,,,,,,,,,,4,6,34,6,,,,,,,,,,,,,,,,,,,,,,,,,,,,,,,,,,,,,,,,1224.4804670633748,None,,,1227.4968315288424,None,1.665079365079365,0.8847472360357642,1227.4968315288424,None,,,,,,,1225.480321646668,None,1225.6636996129528,1225.680357160978,,,,,,,176,001,2024_Mar_05_1717,SpeechDraft1Carolyn_lessNoise_PlusLocalization,2021.2.3,59.89364837455628,
,,,,,,,,farLeft,-19.1,5,ch1Sound_localizationTask.wav,-19.1,"(667, 878)","(-293,-202)",-285,-338,,,,,,,,,,,,,5,0,35,0,,,,,,,,,,,,,,,,,,,,,,,,,,,,,,,,,,,,,,,,1228.3971862057224,None,,,1231.4135790197179,None,1.3417989417989418,0.6320359259843826,1231.4135790197179,None,,,,,,,1229.3971461756155,None,1229.5803948743269,1229.5970828589052,,,,,,,176,001,2024_Mar_05_1717,SpeechDraft1Carolyn_lessNoise_PlusLocalization,2021.2.3,59.89364837455628,
,,,,,,,,midLeft,-13.0,2,ch1Sound_localizationTask.wav,-13.0,"(762, 878)","(-198,-202)",-190,-338,,,,,,,,,,,,,5,1,36,1,,,,,,,,,,,,,,,,,,,,,,,,,,,,,,,,,,,,,,,,1232.0472257360816,None,,,1235.0633913064376,None,1.4222222222222223,0.4643900189548731,1235.0633913064376,None,,,,,,,1233.0470467582345,None,1233.23034530133,1233.2470667762682,,,,,,,176,001,2024_Mar_05_1717,SpeechDraft1Carolyn_lessNoise_PlusLocalization,2021.2.3,59.89364837455628,
,,,,,,,,midLeft,-13.0,2,ch1Sound_localizationTask.wav,-13.0,"(762, 878)","(-198,-202)",-190,-338,,,,,,,,,,,,,5,2,37,1,,,,,,,,,,,,,,,,,,,,,,,,,,,,,,,,,,,,,,,,1235.5303858472034,None,,,1238.5467701004818,None,1.4132275132275132,0.9663941571488976,1238.5467701004818,None,,,,,,,1236.5304971709847,None,1236.7138282069936,1236.7304995059967,,,,,,,176,001,2024_Mar_05_1717,SpeechDraft1Carolyn_lessNoise_PlusLocalization,2021.2.3,59.89364837455628,
,,,,,,,,farRight,19.1,4,ch1Sound_localizationTask.wav,19.1,"(1237, 878)","(277,-202)",285,-338,,,,,,,,,,,,,5,3,38,6,,,,,,,,,,,,,,,,,,,,,,,,,,,,,,,,,,,,,,,,1239.5139327049255,None,,,1242.530129885301,None,1.6343915343915345,0.4674742901697755,1242.530129885301,None,,,,,,,1240.5137513102964,None,1240.697060267441,1240.7136572906747,,,,,,,176,001,2024_Mar_05_1717,SpeechDraft1Carolyn_lessNoise_PlusLocalization,2021.2.3,59.89364837455628,
,,,,,,,,midRight,13.0,3,ch1Sound_localizationTask.wav,13.0,"(1142, 878)","(182, -202)",190,-338,,,,,,,,,,,,,5,4,39,5,,,,,,,,,,,,,,,,,,,,,,,,,,,,,,,,,,,,,,,,1243.0137331280857,None,,,1246.0301894396544,None,1.6005291005291005,0.6323294090107083,1246.0301894396544,None,,,,,,,1244.0138240735978,None,1244.1970467548817,1244.213894849643,,,,,,,176,001,2024_Mar_05_1717,SpeechDraft1Carolyn_lessNoise_PlusLocalization,2021.2.3,59.89364837455628,
,,,,,,,,farLeft,-19.1,5,ch1Sound_localizationTask.wav,-19.1,"(667, 878)","(-293,-202)",-285,-338,,,,,,,,,,,,,5,5,40,0,,,,,,,,,,,,,,,,,,,,,,,,,,,,,,,,,,,,,,,,1246.6637133080512,None,,,1249.680104474537,None,1.3555555555555556,1.0162996742874384,1249.680104474537,None,,,,,,,1247.6637101555243,None,1247.8471222342923,1247.8636440997943,,,,,,,176,001,2024_Mar_05_1717,SpeechDraft1Carolyn_lessNoise_PlusLocalization,2021.2.3,59.89364837455628,
,,,,,,,,center,0.0,6,ch1Sound_localizationTask.wav,0.0,"(952, 878)","(-8,-202)",0,-338,,,,,,,,,,,,,5,6,41,3,,,,,,,,,,,,,,,,,,,,,,,,,,,,,,,,,,,,,,,,1250.6975662130862,None,,,1253.7134272037074,None,1.508994708994709,0.6993198841810226,1253.7134272037074,None,,,,,,,1251.6971090463921,None,1251.8804724970832,1251.897149153985,,,,,,,176,001,2024_Mar_05_1717,SpeechDraft1Carolyn_lessNoise_PlusLocalization,2021.2.3,59.89364837455628,
,,,,,,,,farRight,19.1,4,ch1Sound_localizationTask.wav,19.1,"(1237, 878)","(277,-202)",285,-338,,,,,,,,,,,,,6,0,42,6,,,,,,,,,,,,,,,,,,,,,,,,,,,,,,,,,,,,,,,,1254.413688087836,None,,,1257.430161230266,None,1.6846560846560847,1.0333046177402139,1257.430161230266,None,,,,,,,1255.4136994946748,None,1255.5970677286386,1255.613714441657,,,,,,,176,001,2024_Mar_05_1717,SpeechDraft1Carolyn_lessNoise_PlusLocalization,2021.2.3,59.89364837455628,
,,,,,,,,center,0.0,6,ch1Sound_localizationTask.wav,0.0,"(952, 878)","(-8,-202)",0,-338,,,,,,,,,,,,,6,1,43,3,,,,,,,,,,,,,,,,,,,,,,,,,,,,,,,,,,,,,,,,1258.4644299037755,None,,,1261.4801413891837,None,1.5253968253968253,0.6995201390236616,1261.4801413891837,None,,,,,,,1259.4637699648738,None,1259.6472350507975,1259.6639237618074,,,,,,,176,001,2024_Mar_05_1717,SpeechDraft1Carolyn_lessNoise_PlusLocalization,2021.2.3,59.89364837455628,
,,,,,,,,nearLeft,-6.5,1,ch1Sound_localizationTask.wav,-6.5,"(857, 878)","(-103,-202)",-95,-338,,,,,,,,,,,,,6,2,44,2,,,,,,,,,,,,,,,,,,,,,,,,,,,,,,,,,,,,,,,,1262.1971334619448,None,,,1265.2134453384206,None,1.4211640211640213,0.6317192986607552,1265.2134453384206,None,,,,,,,1263.1971747195348,None,1263.3803726434708,1263.3970480766147,,,,,,,176,001,2024_Mar_05_1717,SpeechDraft1Carolyn_lessNoise_PlusLocalization,2021.2.3,59.89364837455628,
,,,,,,,,nearLeft,-6.5,1,ch1Sound_localizationTask.wav,-6.5,"(857, 878)","(-103,-202)",-95,-338,,,,,,,,,,,,,6,3,45,2,,,,,,,,,,,,,,,,,,,,,,,,,,,,,,,,,,,,,,,,1265.8476287219673,None,,,1268.8634949987754,None,1.4671957671957672,0.7822973849251866,1268.8634949987754,None,,,,,,,1266.8471423992887,None,1267.0306266788393,1267.0472835404798,,,,,,,176,001,2024_Mar_05_1717,SpeechDraft1Carolyn_lessNoise_PlusLocalization,2021.2.3,59.89364837455628,
,,,,,,,,farLeft,-19.1,5,ch1Sound_localizationTask.wav,-19.1,"(667, 878)","(-293,-202)",-285,-338,,,,,,,,,,,,,6,4,46,0,,,,,,,,,,,,,,,,,,,,,,,,,,,,,,,,,,,,,,,,1269.6475518383086,None,,,1272.6635312968865,None,1.3402116402116402,0.7655714126303792,1272.6635312968865,None,,,,,,,1270.6471303636208,None,1270.83042733185,1270.847078117542,,,,,,,176,001,2024_Mar_05_1717,SpeechDraft1Carolyn_lessNoise_PlusLocalization,2021.2.3,59.89364837455628,
,,,,,,,,nearRight,6.5,0,ch1Sound_localizationTask.wav,6.5,"(1047, 878)","(87, -202)",95,-338,,,,,,,,,,,,,6,5,47,4,,,,,,,,,,,,,,,,,,,,,,,,,,,,,,,,,,,,,,,,1273.4305355707183,None,,,1276.446877305396,None,1.5735449735449736,1.0332232797518373,1276.446877305396,None,,,,,,,1274.4304472012445,None,1274.6139067038894,1274.630641371943,,,,,,,176,001,2024_Mar_05_1717,SpeechDraft1Carolyn_lessNoise_PlusLocalization,2021.2.3,59.89364837455628,
,,,,,,,,nearRight,6.5,0,ch1Sound_localizationTask.wav,6.5,"(1047, 878)","(87, -202)",95,-338,,,,,,,,,,,,,6,6,48,4,,,,,,,,,,,,,,,,,,,,,,,,,,,,,,,,,,,,,,,,1277.4804427130148,None,,,1280.4968081638217,None,1.5312169312169313,0.6822830131277442,1280.4968081638217,None,,,,,,,1278.4804268786684,None,1278.6637951890007,1278.6804279321805,,,,,,,176,001,2024_Mar_05_1717,SpeechDraft1Carolyn_lessNoise_PlusLocalization,2021.2.3,59.89364837455628,
,,,,,,,,farRight,19.1,4,ch1Sound_localizationTask.wav,19.1,"(1237, 878)","(277,-202)",285,-338,,,,,,,,,,,,,7,0,49,6,,,,,,,,,,,,,,,,,,,,,,,,,,,,,,,,,,,,,,,,1281.180487374775,None,,,1284.1969679184258,None,1.6312169312169313,0.8167876284569502,1284.1969679184258,None,,,,,,,1282.1804141225293,None,1282.3637478062883,1282.3803926762193,,,,,,,176,001,2024_Mar_05_1717,SpeechDraft1Carolyn_lessNoise_PlusLocalization,2021.2.3,59.89364837455628,
,,,,,,,,midLeft,-13.0,2,ch1Sound_localizationTask.wav,-13.0,"(762, 878)","(-198,-202)",-190,-338,,,,,,,,,,,,,7,1,50,1,,,,,,,,,,,,,,,,,,,,,,,,,,,,,,,,,,,,,,,,1285.01403579209,None,,,1288.0302660660818,None,1.3904761904761904,0.7319063413888216,1288.0302660660818,None,,,,,,,1286.013782352209,None,1286.1972620403394,1286.213816344738,,,,,,,176,001,2024_Mar_05_1717,SpeechDraft1Carolyn_lessNoise_PlusLocalization,2021.2.3,59.89364837455628,
,,,,,,,,midRight,13.0,3,ch1Sound_localizationTask.wav,13.0,"(1142, 878)","(182, -202)",190,-338,,,,,,,,,,,,,7,2,51,5,,,,,,,,,,,,,,,,,,,,,,,,,,,,,,,,,,,,,,,,1288.7638898994774,None,,,1291.7801384124905,None,1.619047619047619,0.6998978657647967,1291.7801384124905,None,,,,,,,1289.7638465315104,None,1289.9471758650616,1289.9638637872413,,,,,,,176,001,2024_Mar_05_1717,SpeechDraft1Carolyn_lessNoise_PlusLocalization,2021.2.3,59.89364837455628,
,,,,,,,,midLeft,-13.0,2,ch1Sound_localizationTask.wav,-13.0,"(762, 878)","(-198,-202)",-190,-338,,,,,,,,,,,,,7,3,52,1,,,,,,,,,,,,,,,,,,,,,,,,,,,,,,,,,,,,,,,,1292.4972040234134,None,,,1295.5135571723804,None,1.3973544973544973,0.6506740320473909,1295.5135571723804,None,,,,,,,1293.4971563415602,None,1293.6804247684777,1293.6972090210766,,,,,,,176,001,2024_Mar_05_1717,SpeechDraft1Carolyn_lessNoise_PlusLocalization,2021.2.3,59.89364837455628,
,,,,,,,,nearRight,6.5,0,ch1Sound_localizationTask.wav,6.5,"(1047, 878)","(87, -202)",95,-338,,,,,,,,,,,,,7,4,53,4,,,,,,,,,,,,,,,,,,,,,,,,,,,,,,,,,,,,,,,,1296.1805639062077,None,,,1299.1968237394467,None,1.5492063492063493,0.5314216874539852,1299.1968237394467,None,,,,,,,1297.1804203270003,None,1297.3637189967558,1297.3805476007983,,,,,,,176,001,2024_Mar_05_1717,SpeechDraft1Carolyn_lessNoise_PlusLocalization,2021.2.3,59.89364837455628,
,,,,,,,,nearRight,6.5,0,ch1Sound_localizationTask.wav,6.5,"(1047, 878)","(87, -202)",95,-338,,,,,,,,,,,,,7,5,54,4,,,,,,,,,,,,,,,,,,,,,,,,,,,,,,,,,,,,,,,,1299.7315027592704,None,,,1302.7634853553027,None,1.547089947089947,0.3829535050317645,1302.7634853553027,None,,,,,,,1300.7473043212667,None,1300.9304390558973,1300.9473082497716,,,,,,,176,001,2024_Mar_05_1717,SpeechDraft1Carolyn_lessNoise_PlusLocalization,2021.2.3,59.89364837455628,
,,,,,,,,farRight,19.1,4,ch1Sound_localizationTask.wav,19.1,"(1237, 878)","(277,-202)",285,-338,,,,,,,,,,,,,7,6,55,6,,,,,,,,,,,,,,,,,,,,,,,,,,,,,,,,,,,,,,,,1303.1638186015189,None,,,1306.180182673037,None,1.4878306878306877,2.7985989032313228,1306.180182673037,None,,,,,,,1304.1637686239555,None,1304.3472782596946,1304.3638157090172,,,,,,,176,001,2024_Mar_05_1717,SpeechDraft1Carolyn_lessNoise_PlusLocalization,2021.2.3,59.89364837455628,
,,,,,,,,,,,,,,,,,,,,,,,,,,,,,,,,,,,,,,,,,,,,,,,,,,,,,,,,,,,,,,,,,,,,,,,,,,,,,,,,,,,,,,,,,,,,1308.9805958177894,None,c,1540.313315084204,1309.9637410398573,None,176,001,2024_Mar_05_1717,SpeechDraft1Carolyn_lessNoise_PlusLocalization,2021.2.3,59.89364837455628,
