Audio_Only_Files,Video_Files,Original_Word_List,noiseLevelCode,conditionCodes,noiseLevelFile1,noiseLevelFile2,InstrTextVar,targetSpeakerName,targetSpeakerEccen,targetSpkrChannel,targetSpkrSound,targetVisualDegrees,visStimLoc,visStimLoc2,visStimW,visStimH,practiceTrials.thisRepN,practiceTrials.thisTrialN,practiceTrials.thisN,practiceTrials.thisIndex,trials.thisRepN,trials.thisTrialN,trials.thisN,trials.thisIndex,audLocalLoop.thisRepN,audLocalLoop.thisTrialN,audLocalLoop.thisN,audLocalLoop.thisIndex,visualLocalLoop.thisRepN,visualLocalLoop.thisTrialN,visualLocalLoop.thisN,visualLocalLoop.thisIndex,letsGoAlready.keys,letsGoAlready.rt,letsGoAlready.started,letsGoAlready.stopped,text_2.started,text_2.stopped,text_3.started,text_3.stopped,key_resp_2.keys,key_resp_2.rt,key_resp_2.started,key_resp_2.stopped,text_5.started,text_5.stopped,fixCross.started,fixCross.stopped,fixCross2.started,fixCross2.stopped,answerPrompt.started,answerPrompt.stopped,getAnswer.text,getAnswer.started,getAnswer.stopped,goToNext.keys,goToNext.rt,goToNext.started,goToNext.stopped,stretchBreakTxrt.started,stretchBreakTxrt.stopped,key_resp_3.keys,key_resp_3.rt,key_resp_3.started,key_resp_3.stopped,letsGoLocal.keys,letsGoLocal.rt,letsGoLocal.started,letsGoLocal.stopped,text_4.started,text_4.stopped,prepFixTxt.started,prepFixTxt.stopped,prepFixTxt_2.started,prepFixTxt_2.stopped,respPromptLocal.started,respPromptLocal.stopped,slider.response,slider.rt,slider.started,slider.stopped,letsGoLocal_2.keys,letsGoLocal_2.rt,letsGoLocal_2.started,letsGoLocal_2.stopped,text_7.started,text_7.stopped,prepFixTxt_3.started,prepFixTxt_3.stopped,grating.started,grating.stopped,exitTxt.started,exitTxt.stopped,key_resp.keys,key_resp.rt,key_resp.started,key_resp.stopped,participant,session,date,expName,psychopyVersion,frameRate,
,,,,,,,,,,,,,,,,,,,,,,,,,,,,,,,,,space,23.017621017992496,22.702888623811305,None,,,,,,,,,,,,,,,,,,,,,,,,,,,,,,,,,,,,,,,,,,,,,,,,,,,,,,,,,,,,,,177,001,2024_Mar_06_1421,SpeechDraft1Carolyn_lessNoise_PlusLocalization,2021.2.3,59.95397230797203,
,,,,,,,,,,,,,,,,,,,,,,,,,,,,,,,,,,,,,22.702888623811305,None,45.86864923033863,None,space,12.205108583904803,46.03551636449993,None,,,,,,,,,,,,,,,,,,,,,,,,,,,,,,,,,,,,,,,,,,,,,,,,,,,,,,177,001,2024_Mar_06_1421,SpeechDraft1Carolyn_lessNoise_PlusLocalization,2021.2.3,59.95397230797203,
ash.wav,ash.mpg,ash,1,A,Pink_Noise_1_1.wav,Pink_Noise_1_2.wav,"This is an example of an

AUDIO trial",,,,,,,,,,0,0,0,0,,,,,,,,,,,,,,,,,,,,,,,,,58.30197521392256,None,59.28551132325083,None,62.601930778473616,None,63.98537367768586,None,ash,63.98537367768586,None,return,5.443707846105099,64.06879634875804,None,,,,,,,,,,,,,,,,,,,,,,,,,,,,,,,,,,,,,,,177,001,2024_Mar_06_1421,SpeechDraft1Carolyn_lessNoise_PlusLocalization,2021.2.3,59.95397230797203,
ash.wav,ash.mpg,ash,1,AV,Pink_Noise_1_1.wav,Pink_Noise_1_2.wav,"This is an example of an

AUDIO + VIDEO  trial",,,,,,,,,,0,1,1,1,,,,,,,,,,,,,,,,,,,,,,,,,69.55182782560587,None,70.55225244071335,None,72.03528509754688,None,73.418875397183,None,"ash
",73.418875397183,None,return,4.218328565359116,73.50217801332474,None,,,,,,,,,,,,,,,,,,,,,,,,,,,,,,,,,,,,,,,177,001,2024_Mar_06_1421,SpeechDraft1Carolyn_lessNoise_PlusLocalization,2021.2.3,59.95397230797203,
,,,,,,,,,,,,,,,,,,,,,,,,,,,,,,,,,,,,,,,,,,,,,,,,,,,,,,,,,,,,77.76861420925707,None,space,13.024361418560147,77.95214369799942,None,,,,,,,,,,,,,,,,,,,,,,,,,,,,,,,,,177,001,2024_Mar_06_1421,SpeechDraft1Carolyn_lessNoise_PlusLocalization,2021.2.3,59.95397230797203,
cloak.wav,cloak.mpg,cloak,6,A,Pink_Noise_6_1.wav,Pink_Noise_6_2.wav,,,,,,,,,,,,,,,0,0,0,20,,,,,,,,,,,,,,,,,,,,,,,91.03524647373706,None,92.51852093357593,None,93.9022006476298,None,hi,93.9022006476298,None,return,9.438984130509198,93.98563406430185,None,,,,,,,,,,,,,,,,,,,,,,,,,,,,,,,,,,,,,,,177,001,2024_Mar_06_1421,SpeechDraft1Carolyn_lessNoise_PlusLocalization,2021.2.3,59.95397230797203,
bridge.wav,bridge.mpg,bridge,3,AV,Pink_Noise_3_1.wav,Pink_Noise_3_2.wav,,,,,,,,,,,,,,,0,1,1,93,,,,,,,,,,,,,,,,,,,,,,,103.45229613035917,None,104.95409756340086,None,106.33551025390625,None,bridge,106.33551025390625,None,return,2.6056830771267414,106.41896540485322,None,,,,,,,,,,,,,,,,,,,,,,,,,,,,,,,,,,,,,,,177,001,2024_Mar_06_1421,SpeechDraft1Carolyn_lessNoise_PlusLocalization,2021.2.3,59.95397230797203,
goat.wav,goat.mpg,goat,6,A,Pink_Noise_6_1.wav,Pink_Noise_6_2.wav,,,,,,,,,,,,,,,0,2,2,15,,,,,,,,,,,,,,,,,,,,,,,109.0522471005097,None,110.55194490402937,None,111.93570844549686,None,sit,111.93570844549686,None,return,4.093700014986098,112.0188540481031,None,,,,,,,,,,,,,,,,,,,,,,,,,,,,,,,,,,,,,,,177,001,2024_Mar_06_1421,SpeechDraft1Carolyn_lessNoise_PlusLocalization,2021.2.3,59.95397230797203,
dirt.wav,dirt.mpg,dirt,5,AV,Pink_Noise_5_1.wav,Pink_Noise_5_2.wav,,,,,,,,,,,,,,,0,3,3,64,,,,,,,,,,,,,,,,,,,,,,,116.13562372885644,None,117.6187484562397,None,119.00209655892104,None,church,119.00209655892104,None,return,2.354889187030494,119.0856922287494,None,,,,,,,,,,,,,,,,,,,,,,,,,,,,,,,,,,,,,,,177,001,2024_Mar_06_1421,SpeechDraft1Carolyn_lessNoise_PlusLocalization,2021.2.3,59.95397230797203,
live.wav,live.mpg,live,6,A,Pink_Noise_6_1.wav,Pink_Noise_6_2.wav,,,,,,,,,,,,,,,0,4,4,24,,,,,,,,,,,,,,,,,,,,,,,121.46895540785044,None,122.95192000642419,None,124.33554408419877,None,judge,124.33554408419877,None,return,8.38978168927133,124.41889821458608,None,,,,,,,,,,,,,,,,,,,,,,,,,,,,,,,,,,,,,,,177,001,2024_Mar_06_1421,SpeechDraft1Carolyn_lessNoise_PlusLocalization,2021.2.3,59.95397230797203,
fraud.wav,fraud.mpg,fraud,1,A,Pink_Noise_1_1.wav,Pink_Noise_1_2.wav,,,,,,,,,,,,,,,0,5,5,49,,,,,,,,,,,,,,,,,,,,,,,132.835690157488,None,134.33533133752644,None,135.7190138148144,None,trod,135.7190138148144,None,return,2.342317878268659,135.80221065692604,None,,,,,,,,,,,,,,,,,,,,,,,,,,,,,,,,,,,,,,,177,001,2024_Mar_06_1421,SpeechDraft1Carolyn_lessNoise_PlusLocalization,2021.2.3,59.95397230797203,
giant.wav,giant.mpg,giant,2,A,Pink_Noise_2_1.wav,Pink_Noise_2_2.wav,,,,,,,,,,,,,,,0,6,6,2,,,,,,,,,,,,,,,,,,,,,,,138.16892879083753,None,139.668568700552,None,141.0523879295215,None,"giant
",141.0523879295215,None,return,2.8009659498929977,141.13554457388818,None,,,,,,,,,,,,,,,,,,,,,,,,,,,,,,,,,,,,,,,177,001,2024_Mar_06_1421,SpeechDraft1Carolyn_lessNoise_PlusLocalization,2021.2.3,59.95397230797203,
rid.wav,rid.mpg,rid,6,AV,Pink_Noise_6_1.wav,Pink_Noise_6_2.wav,,,,,,,,,,,,,,,0,7,7,101,,,,,,,,,,,,,,,,,,,,,,,143.9689174639061,None,145.4519645832479,None,146.83552408963442,None,ridhe,146.83552408963442,None,return,4.85737010743469,146.91912777908146,None,,,,,,,,,,,,,,,,,,,,,,,,,,,,,,,,,,,,,,,177,001,2024_Mar_06_1421,SpeechDraft1Carolyn_lessNoise_PlusLocalization,2021.2.3,59.95397230797203,
booth.wav,booth.mpg,booth,3,AV,Pink_Noise_3_1.wav,Pink_Noise_3_2.wav,,,,,,,,,,,,,,,0,8,8,114,,,,,,,,,,,,,,,,,,,,,,,151.80223730765283,None,153.28523085545748,None,154.66883680969477,None,"booth
",154.66883680969477,None,return,1.7842313526198268,154.7522886376828,None,,,,,,,,,,,,,,,,,,,,,,,,,,,,,,,,,,,,,,,177,001,2024_Mar_06_1421,SpeechDraft1Carolyn_lessNoise_PlusLocalization,2021.2.3,59.95397230797203,
gain.wav,gain.mpg,gain,5,A,Pink_Noise_5_1.wav,Pink_Noise_5_2.wav,,,,,,,,,,,,,,,0,9,9,50,,,,,,,,,,,,,,,,,,,,,,,156.56900505162776,None,158.068687829189,None,159.45228117145598,None,slay,159.45228117145598,None,return,11.808927427977324,159.5355990147218,None,,,,,,,,,,,,,,,,,,,,,,,,,,,,,,,,,,,,,,,177,001,2024_Mar_06_1421,SpeechDraft1Carolyn_lessNoise_PlusLocalization,2021.2.3,59.95397230797203,
glove.wav,glove.mpg,glove,3,A,Pink_Noise_3_1.wav,Pink_Noise_3_2.wav,,,,,,,,,,,,,,,0,10,10,7,,,,,,,,,,,,,,,,,,,,,,,171.36887744441628,None,172.86862741131335,None,174.2522910311818,None,glove,174.2522910311818,None,return,3.504857551306486,174.33571105264127,None,,,,,,,,,,,,,,,,,,,,,,,,,,,,,,,,,,,,,,,177,001,2024_Mar_06_1421,SpeechDraft1Carolyn_lessNoise_PlusLocalization,2021.2.3,59.95397230797203,
fox.wav,fox.mpg,fox,2,A,Pink_Noise_2_1.wav,Pink_Noise_2_2.wav,,,,,,,,,,,,,,,0,11,11,30,,,,,,,,,,,,,,,,,,,,,,,177.8691300218925,None,179.35202666092664,None,180.73561384435743,None,facts,180.73561384435743,None,return,7.541396239772439,180.81909932848066,None,,,,,,,,,,,,,,,,,,,,,,,,,,,,,,,,,,,,,,,177,001,2024_Mar_06_1421,SpeechDraft1Carolyn_lessNoise_PlusLocalization,2021.2.3,59.95397230797203,
ghost.wav,ghost.mpg,ghost,5,A,Pink_Noise_5_1.wav,Pink_Noise_5_2.wav,,,,,,,,,,,,,,,0,12,12,25,,,,,,,,,,,,,,,,,,,,,,,188.38567161466926,None,189.88532396778464,None,191.26917526032776,None,ghost,191.26917526032776,None,return,2.160268326289952,191.35228940937668,None,,,,,,,,,,,,,,,,,,,,,,,,,,,,,,,,,,,,,,,177,001,2024_Mar_06_1421,SpeechDraft1Carolyn_lessNoise_PlusLocalization,2021.2.3,59.95397230797203,
cab.wav,cab.mpg,cab,2,AV,Pink_Noise_2_1.wav,Pink_Noise_2_2.wav,,,,,,,,,,,,,,,0,13,13,97,,,,,,,,,,,,,,,,,,,,,,,193.53566304408014,None,195.0354722496122,None,196.41888191644102,None,"cab
",196.41888191644102,None,return,2.8501186659559608,196.50238010752946,None,,,,,,,,,,,,,,,,,,,,,,,,,,,,,,,,,,,,,,,177,001,2024_Mar_06_1421,SpeechDraft1Carolyn_lessNoise_PlusLocalization,2021.2.3,59.95397230797203,
flair.wav,flair.mpg,flair,2,A,Pink_Noise_2_1.wav,Pink_Noise_2_2.wav,,,,,,,,,,,,,,,0,14,14,40,,,,,,,,,,,,,,,,,,,,,,,199.38576001953334,None,200.88547208998352,None,202.26904295943677,None,flare,202.26904295943677,None,return,5.776244263164699,202.35225761588663,None,,,,,,,,,,,,,,,,,,,,,,,,,,,,,,,,,,,,,,,177,001,2024_Mar_06_1421,SpeechDraft1Carolyn_lessNoise_PlusLocalization,2021.2.3,59.95397230797203,
eel.wav,eel.mpg,eel,1,AV,Pink_Noise_1_1.wav,Pink_Noise_1_2.wav,,,,,,,,,,,,,,,0,15,15,85,,,,,,,,,,,,,,,,,,,,,,,208.15232118591666,None,209.63735023047775,None,211.0188595438376,None,feel,211.0188595438376,None,return,2.1621808037161827,211.10235550347716,None,,,,,,,,,,,,,,,,,,,,,,,,,,,,,,,,,,,,,,,177,001,2024_Mar_06_1421,SpeechDraft1Carolyn_lessNoise_PlusLocalization,2021.2.3,59.95397230797203,
block.wav,block.mpg,block,4,AV,Pink_Noise_4_1.wav,Pink_Noise_4_2.wav,,,,,,,,,,,,,,,0,16,16,118,,,,,,,,,,,,,,,,,,,,,,,213.28574526496232,None,214.7854582015425,None,216.1689898595214,None,block,216.1689898595214,None,return,15.260228905826807,216.25231136381626,None,,,,,,,,,,,,,,,,,,,,,,,,,,,,,,,,,,,,,,,177,001,2024_Mar_06_1421,SpeechDraft1Carolyn_lessNoise_PlusLocalization,2021.2.3,59.95397230797203,
grim.wav,grim.mpg,grim,1,A,Pink_Noise_1_1.wav,Pink_Noise_1_2.wav,,,,,,,,,,,,,,,0,17,17,16,,,,,,,,,,,,,,,,,,,,,,,231.53577313944697,None,233.05205179471523,None,234.41903747990727,None,grim,234.41903747990727,None,return,2.5381132243201137,234.50238437391818,None,,,,,,,,,,,,,,,,,,,,,,,,,,,,,,,,,,,,,,,177,001,2024_Mar_06_1421,SpeechDraft1Carolyn_lessNoise_PlusLocalization,2021.2.3,59.95397230797203,
grin.wav,grin.mpg,grin,1,AV,Pink_Noise_1_1.wav,Pink_Noise_1_2.wav,,,,,,,,,,,,,,,0,18,18,95,,,,,,,,,,,,,,,,,,,,,,,237.06907856464386,None,238.55335383024067,None,239.9357535718009,None,grin,239.9357535718009,None,return,1.773540605790913,240.0189985120669,None,,,,,,,,,,,,,,,,,,,,,,,,,,,,,,,,,,,,,,,177,001,2024_Mar_06_1421,SpeechDraft1Carolyn_lessNoise_PlusLocalization,2021.2.3,59.95397230797203,
depth.wav,depth.mpg,depth,6,AV,Pink_Noise_6_1.wav,Pink_Noise_6_2.wav,,,,,,,,,,,,,,,0,19,19,107,,,,,,,,,,,,,,,,,,,,,,,241.8190829306841,None,243.30289361532778,None,244.68553158640862,None,depth,244.68553158640862,None,return,2.1594027746468782,244.76909231767058,None,,,,,,,,,,,,,,,,,,,,,,,,,,,,,,,,,,,,,,,177,001,2024_Mar_06_1421,SpeechDraft1Carolyn_lessNoise_PlusLocalization,2021.2.3,59.95397230797203,
chop.wav,chop.mpg,chop,3,A,Pink_Noise_3_1.wav,Pink_Noise_3_2.wav,,,,,,,,,,,,,,,0,20,20,12,,,,,,,,,,,,,,,,,,,,,,,246.95232321321964,None,248.45215137209743,None,249.83557345997542,None,child,249.83557345997542,None,return,1.3373668752610683,249.91914205159992,None,,,,,,,,,,,,,,,,,,,,,,,,,,,,,,,,,,,,,,,177,001,2024_Mar_06_1421,SpeechDraft1Carolyn_lessNoise_PlusLocalization,2021.2.3,59.95397230797203,
groom.wav,groom.mpg,groom,5,A,Pink_Noise_5_1.wav,Pink_Noise_5_2.wav,,,,,,,,,,,,,,,0,21,21,1,,,,,,,,,,,,,,,,,,,,,,,251.28569823130965,None,252.7854799889028,None,254.1690561575815,None,bruin,254.1690561575815,None,return,3.612125700339675,254.25238712970167,None,,,,,,,,,,,,,,,,,,,,,,,,,,,,,,,,,,,,,,,177,001,2024_Mar_06_1421,SpeechDraft1Carolyn_lessNoise_PlusLocalization,2021.2.3,59.95397230797203,
warmth.wav,warmth.mpg,warmth,2,AV,Pink_Noise_2_1.wav,Pink_Noise_2_2.wav,,,,,,,,,,,,,,,0,22,22,76,,,,,,,,,,,,,,,,,,,,,,,257.885839917697,None,259.3854374047369,None,260.7691497942433,None,"warped
",260.7691497942433,None,return,3.0680235316976905,260.8524761470035,None,,,,,,,,,,,,,,,,,,,,,,,,,,,,,,,,,,,,,,,177,001,2024_Mar_06_1421,SpeechDraft1Carolyn_lessNoise_PlusLocalization,2021.2.3,59.95397230797203,
fowl.wav,fowl.mpg,fowl,5,AV,Pink_Noise_5_1.wav,Pink_Noise_5_2.wav,,,,,,,,,,,,,,,0,23,23,116,,,,,,,,,,,,,,,,,,,,,,,263.9525326639414,None,265.4522393979132,None,266.8360030800104,None,"foul
",266.8360030800104,None,return,2.76931684743613,266.9191873082891,None,,,,,,,,,,,,,,,,,,,,,,,,,,,,,,,,,,,,,,,177,001,2024_Mar_06_1421,SpeechDraft1Carolyn_lessNoise_PlusLocalization,2021.2.3,59.95397230797203,
dense.wav,dense.mpg,dense,6,AV,Pink_Noise_6_1.wav,Pink_Noise_6_2.wav,,,,,,,,,,,,,,,0,24,24,61,,,,,,,,,,,,,,,,,,,,,,,269.7191325444728,None,271.2189424838871,None,272.60241502150893,None,"next
",272.60241502150893,None,return,2.818736359477043,272.685772174038,None,,,,,,,,,,,,,,,,,,,,,,,,,,,,,,,,,,,,,,,177,001,2024_Mar_06_1421,SpeechDraft1Carolyn_lessNoise_PlusLocalization,2021.2.3,59.95397230797203,
wine.wav,wine.mpg,wine,4,AV,Pink_Noise_4_1.wav,Pink_Noise_4_2.wav,,,,,,,,,,,,,,,0,25,25,87,,,,,,,,,,,,,,,,,,,,,,,275.53582550399005,None,277.0355391120538,None,278.41912695299834,None,why,278.41912695299834,None,return,2.106148974969983,278.50252277124673,None,,,,,,,,,,,,,,,,,,,,,,,,,,,,,,,,,,,,,,,177,001,2024_Mar_06_1421,SpeechDraft1Carolyn_lessNoise_PlusLocalization,2021.2.3,59.95397230797203,
clothe.wav,clothe.mpg,clothe,3,AV,Pink_Noise_3_1.wav,Pink_Noise_3_2.wav,,,,,,,,,,,,,,,0,26,26,77,,,,,,,,,,,,,,,,,,,,,,,280.6359321558848,None,282.13565208856016,None,283.5190565204248,None,clothed,283.5190565204248,None,return,2.213982761837542,283.6025299727917,None,,,,,,,,,,,,,,,,,,,,,,,,,,,,,,,,,,,,,,,177,001,2024_Mar_06_1421,SpeechDraft1Carolyn_lessNoise_PlusLocalization,2021.2.3,59.95397230797203,
groan.wav,groan.mpg,groan,2,AV,Pink_Noise_2_1.wav,Pink_Noise_2_2.wav,,,,,,,,,,,,,,,0,27,27,63,,,,,,,,,,,,,,,,,,,,,,,285.8358400100842,None,287.335488175042,None,288.7191661503166,None,grow,288.7191661503166,None,return,3.093900363892317,288.80258943978697,None,,,,,,,,,,,,,,,,,,,,,,,,,,,,,,,,,,,,,,,177,001,2024_Mar_06_1421,SpeechDraft1Carolyn_lessNoise_PlusLocalization,2021.2.3,59.95397230797203,
castle.wav,castle.mpg,castle,4,AV,Pink_Noise_4_1.wav,Pink_Noise_4_2.wav,,,,,,,,,,,,,,,0,28,28,119,,,,,,,,,,,,,,,,,,,,,,,291.919169658795,None,293.40420955140144,None,294.7858577799052,None,hassle,294.7858577799052,None,return,5.907486295327544,294.8690515886992,None,,,,,,,,,,,,,,,,,,,,,,,,,,,,,,,,,,,,,,,177,001,2024_Mar_06_1421,SpeechDraft1Carolyn_lessNoise_PlusLocalization,2021.2.3,59.95397230797203,
champ.wav,champ.mpg,champ,6,AV,Pink_Noise_6_1.wav,Pink_Noise_6_2.wav,,,,,,,,,,,,,,,0,29,29,65,,,,,,,,,,,,,,,,,,,,,,,300.8024804070592,None,302.302144439891,None,303.68595518823713,None,gem,303.68595518823713,None,return,2.0073850760236382,303.7691382113844,None,,,,,,,,,,,,,,,,,,,,,,,,,,,,,,,,,,,,,,,177,001,2024_Mar_06_1421,SpeechDraft1Carolyn_lessNoise_PlusLocalization,2021.2.3,59.95397230797203,
fog.wav,fog.mpg,fog,1,AV,Pink_Noise_1_1.wav,Pink_Noise_1_2.wav,,,,,,,,,,,,,,,0,30,30,99,,,,,,,,,,,,,,,,,,,,,,,305.8025592342019,None,307.30223013367504,None,308.6857822574675,None,"fog
",308.6857822574675,None,return,2.935271124355495,308.76923724636436,None,,,,,,,,,,,,,,,,,,,,,,,,,,,,,,,,,,,,,,,177,001,2024_Mar_06_1421,SpeechDraft1Carolyn_lessNoise_PlusLocalization,2021.2.3,59.95397230797203,
guide.wav,guide.mpg,guide,5,AV,Pink_Noise_5_1.wav,Pink_Noise_5_2.wav,,,,,,,,,,,,,,,0,31,31,94,,,,,,,,,,,,,,,,,,,,,,,311.7358624031767,None,313.23559244628996,None,314.61923782899976,None,nice,314.61923782899976,None,return,6.154026813805103,314.7024840377271,None,,,,,,,,,,,,,,,,,,,,,,,,,,,,,,,,,,,,,,,177,001,2024_Mar_06_1421,SpeechDraft1Carolyn_lessNoise_PlusLocalization,2021.2.3,59.95397230797203,
bold.wav,bold.mpg,bold,2,A,Pink_Noise_2_1.wav,Pink_Noise_2_2.wav,,,,,,,,,,,,,,,0,32,32,10,,,,,,,,,,,,,,,,,,,,,,,320.8859347496182,None,322.3855863371864,None,323.7692109849304,None,bold,323.7692109849304,None,return,1.516034577973187,323.8525289790705,None,,,,,,,,,,,,,,,,,,,,,,,,,,,,,,,,,,,,,,,177,001,2024_Mar_06_1421,SpeechDraft1Carolyn_lessNoise_PlusLocalization,2021.2.3,59.95397230797203,
cloud.wav,cloud.mpg,cloud,3,AV,Pink_Noise_3_1.wav,Pink_Noise_3_2.wav,,,,,,,,,,,,,,,0,33,33,88,,,,,,,,,,,,,,,,,,,,,,,325.3859369084239,None,326.8856090977788,None,328.26922378130257,None,"cloud
",328.26922378130257,None,return,5.704026878811419,328.3524852283299,None,,,,,,,,,,,,,,,,,,,,,,,,,,,,,,,,,,,,,,,177,001,2024_Mar_06_1421,SpeechDraft1Carolyn_lessNoise_PlusLocalization,2021.2.3,59.95397230797203,
chin.wav,chin.mpg,chin,6,AV,Pink_Noise_6_1.wav,Pink_Noise_6_2.wav,,,,,,,,,,,,,,,0,34,34,78,,,,,,,,,,,,,,,,,,,,,,,334.0859199427068,None,335.5865992475301,None,336.9691505972296,None,dream,336.9691505972296,None,return,2.0919148083776236,337.05260627157986,None,,,,,,,,,,,,,,,,,,,,,,,,,,,,,,,,,,,,,,,177,001,2024_Mar_06_1421,SpeechDraft1Carolyn_lessNoise_PlusLocalization,2021.2.3,59.95397230797203,
bay.wav,bay.mpg,bay,3,A,Pink_Noise_3_1.wav,Pink_Noise_3_2.wav,,,,,,,,,,,,,,,0,35,35,45,,,,,,,,,,,,,,,,,,,,,,,339.16923928260803,None,340.66894913930446,None,342.05251508858055,None,bay,342.05251508858055,None,return,3.432702866382897,342.13593837060034,None,,,,,,,,,,,,,,,,,,,,,,,,,,,,,,,,,,,,,,,177,001,2024_Mar_06_1421,SpeechDraft1Carolyn_lessNoise_PlusLocalization,2021.2.3,59.95397230797203,
teen.wav,teen.mpg,teen,1,AV,Pink_Noise_1_1.wav,Pink_Noise_1_2.wav,,,,,,,,,,,,,,,0,36,36,84,,,,,,,,,,,,,,,,,,,,,,,345.58587088342756,None,347.085630800575,None,348.46911520604044,None,teen,348.46911520604044,None,return,1.67195725440979,348.5526526607573,None,,,,,,,,,,,,,,,,,,,,,,,,,,,,,,,,,,,,,,,177,001,2024_Mar_06_1421,SpeechDraft1Carolyn_lessNoise_PlusLocalization,2021.2.3,59.95397230797203,
creek.wav,creek.mpg,creek,1,AV,Pink_Noise_1_1.wav,Pink_Noise_1_2.wav,,,,,,,,,,,,,,,0,37,37,106,,,,,,,,,,,,,,,,,,,,,,,350.25267058145255,None,351.75223648082465,None,353.13589025009423,None,prick,353.13589025009423,None,return,6.133231153711677,353.2193032512441,None,,,,,,,,,,,,,,,,,,,,,,,,,,,,,,,,,,,,,,,177,001,2024_Mar_06_1421,SpeechDraft1Carolyn_lessNoise_PlusLocalization,2021.2.3,59.95397230797203,
fit.wav,fit.mpg,fit,1,A,Pink_Noise_1_1.wav,Pink_Noise_1_2.wav,,,,,,,,,,,,,,,0,38,38,21,,,,,,,,,,,,,,,,,,,,,,,359.3692800886929,None,360.88568776473403,None,362.2692178823054,None,"fit
",362.2692178823054,None,return,5.983964440412819,362.3525468111038,None,,,,,,,,,,,,,,,,,,,,,,,,,,,,,,,,,,,,,,,177,001,2024_Mar_06_1421,SpeechDraft1Carolyn_lessNoise_PlusLocalization,2021.2.3,59.95397230797203,
ear.wav,ear.mpg,ear,6,A,Pink_Noise_6_1.wav,Pink_Noise_6_2.wav,,,,,,,,,,,,,,,0,39,39,47,,,,,,,,,,,,,,,,,,,,,,,368.3692275490612,None,369.8689759206027,None,371.25273559242487,None,warped,371.25273559242487,None,return,9.072734783403575,371.3359363786876,None,,,,,,,,,,,,,,,,,,,,,,,,,,,,,,,,,,,,,,,177,001,2024_Mar_06_1421,SpeechDraft1Carolyn_lessNoise_PlusLocalization,2021.2.3,59.95397230797203,
bottle.wav,bottle.mpg,bottle,1,A,Pink_Noise_1_1.wav,Pink_Noise_1_2.wav,,,,,,,,,,,,,,,0,40,40,38,,,,,,,,,,,,,,,,,,,,,,,380.43593274988234,None,381.93620567489415,None,383.31934081669897,None,bottle,383.31934081669897,None,return,7.1419728910550475,383.40252334903926,None,,,,,,,,,,,,,,,,,,,,,,,,,,,,,,,,,,,,,,,177,001,2024_Mar_06_1421,SpeechDraft1Carolyn_lessNoise_PlusLocalization,2021.2.3,59.95397230797203,
cup.wav,cup.mpg,cup,2,A,Pink_Noise_2_1.wav,Pink_Noise_2_2.wav,,,,,,,,,,,,,,,0,41,41,39,,,,,,,,,,,,,,,,,,,,,,,390.5691965520382,None,392.0690925680101,None,393.45257273036987,None,cup,393.45257273036987,None,return,1.5285734590142965,393.53595442324877,None,,,,,,,,,,,,,,,,,,,,,,,,,,,,,,,,,,,,,,,177,001,2024_Mar_06_1421,SpeechDraft1Carolyn_lessNoise_PlusLocalization,2021.2.3,59.95397230797203,
flash.wav,flash.mpg,flash,3,AV,Pink_Noise_3_1.wav,Pink_Noise_3_2.wav,,,,,,,,,,,,,,,0,42,42,111,,,,,,,,,,,,,,,,,,,,,,,395.08592346683145,None,396.5856740139425,None,397.96932624001056,None,flesh,397.96932624001056,None,return,7.443916761316359,398.0525972992182,None,,,,,,,,,,,,,,,,,,,,,,,,,,,,,,,,,,,,,,,177,001,2024_Mar_06_1421,SpeechDraft1Carolyn_lessNoise_PlusLocalization,2021.2.3,59.95397230797203,
rent.wav,rent.mpg,rent,2,AV,Pink_Noise_2_1.wav,Pink_Noise_2_2.wav,,,,,,,,,,,,,,,0,43,43,81,,,,,,,,,,,,,,,,,,,,,,,405.5192403765395,None,407.0190197424963,None,408.4026320083067,None,rent,408.4026320083067,None,return,3.8424949795007706,408.48603460472077,None,,,,,,,,,,,,,,,,,,,,,,,,,,,,,,,,,,,,,,,177,001,2024_Mar_06_1421,SpeechDraft1Carolyn_lessNoise_PlusLocalization,2021.2.3,59.95397230797203,
gift.wav,gift.mpg,gift,5,A,Pink_Noise_5_1.wav,Pink_Noise_5_2.wav,,,,,,,,,,,,,,,0,44,44,0,,,,,,,,,,,,,,,,,,,,,,,412.3526296336204,None,413.8523105420172,None,415.2359272763133,None,shift,415.2359272763133,None,return,11.641250148415565,415.31927279476076,None,,,,,,,,,,,,,,,,,,,,,,,,,,,,,,,,,,,,,,,177,001,2024_Mar_06_1421,SpeechDraft1Carolyn_lessNoise_PlusLocalization,2021.2.3,59.95397230797203,
dawn.wav,dawn.mpg,dawn,6,A,Pink_Noise_6_1.wav,Pink_Noise_6_2.wav,,,,,,,,,,,,,,,0,45,45,43,,,,,,,,,,,,,,,,,,,,,,,426.98598513100296,None,428.4856792828068,None,429.8692504344508,None,grow,429.8692504344508,None,return,2.8958530966192484,429.9527066759765,None,,,,,,,,,,,,,,,,,,,,,,,,,,,,,,,,,,,,,,,177,001,2024_Mar_06_1421,SpeechDraft1Carolyn_lessNoise_PlusLocalization,2021.2.3,59.95397230797203,
bread.wav,bread.mpg,bread,5,A,Pink_Noise_5_1.wav,Pink_Noise_5_2.wav,,,,,,,,,,,,,,,0,46,46,29,,,,,,,,,,,,,,,,,,,,,,,432.8691879985854,None,434.36906757578254,None,435.7527154330164,None,"stray
",435.7527154330164,None,return,6.684429757297039,435.8360795052722,None,,,,,,,,,,,,,,,,,,,,,,,,,,,,,,,,,,,,,,,177,001,2024_Mar_06_1421,SpeechDraft1Carolyn_lessNoise_PlusLocalization,2021.2.3,59.95397230797203,
cell.wav,cell.mpg,cell,5,AV,Pink_Noise_5_1.wav,Pink_Noise_5_2.wav,,,,,,,,,,,,,,,0,47,47,74,,,,,,,,,,,,,,,,,,,,,,,442.5527842529118,None,444.0524379685521,None,445.4359663790092,None,stealth,445.4359663790092,None,return,4.161173516884446,445.51932480558753,None,,,,,,,,,,,,,,,,,,,,,,,,,,,,,,,,,,,,,,,177,001,2024_Mar_06_1421,SpeechDraft1Carolyn_lessNoise_PlusLocalization,2021.2.3,59.95397230797203,
flake.wav,flake.mpg,flake,2,A,Pink_Noise_2_1.wav,Pink_Noise_2_2.wav,,,,,,,,,,,,,,,0,48,48,19,,,,,,,,,,,,,,,,,,,,,,,449.7026173779741,None,451.20239407289773,None,452.58596786670387,None,flake,452.58596786670387,None,return,10.579094275832176,452.6694344440475,None,,,,,,,,,,,,,,,,,,,,,,,,,,,,,,,,,,,,,,,177,001,2024_Mar_06_1421,SpeechDraft1Carolyn_lessNoise_PlusLocalization,2021.2.3,59.95397230797203,
chomp.wav,chomp.mpg,chomp,4,AV,Pink_Noise_4_1.wav,Pink_Noise_4_2.wav,,,,,,,,,,,,,,,0,49,49,82,,,,,,,,,,,,,,,,,,,,,,,463.269354804419,None,464.76921121403575,None,466.1526007866487,None,charm,466.1526007866487,None,return,4.412493722513318,466.2360321395099,None,,,,,,,,,,,,,,,,,,,,,,,,,,,,,,,,,,,,,,,177,001,2024_Mar_06_1421,SpeechDraft1Carolyn_lessNoise_PlusLocalization,2021.2.3,59.95397230797203,
brew.wav,brew.mpg,brew,3,A,Pink_Noise_3_1.wav,Pink_Noise_3_2.wav,,,,,,,,,,,,,,,0,50,50,52,,,,,,,,,,,,,,,,,,,,,,,470.6695178914815,None,472.16974141635,None,473.5527692968026,None,brood,473.5527692968026,None,return,1.7644107397645712,473.636123358272,None,,,,,,,,,,,,,,,,,,,,,,,,,,,,,,,,,,,,,,,177,001,2024_Mar_06_1421,SpeechDraft1Carolyn_lessNoise_PlusLocalization,2021.2.3,59.95397230797203,
bun.wav,bun.mpg,bun,5,AV,Pink_Noise_5_1.wav,Pink_Noise_5_2.wav,,,,,,,,,,,,,,,0,51,51,110,,,,,,,,,,,,,,,,,,,,,,,475.4194261068478,None,476.9192132623866,None,478.3025719728321,None,bun,478.3025719728321,None,return,9.262517510913312,478.38601560052484,None,,,,,,,,,,,,,,,,,,,,,,,,,,,,,,,,,,,,,,,177,001,2024_Mar_06_1421,SpeechDraft1Carolyn_lessNoise_PlusLocalization,2021.2.3,59.95397230797203,
fetch.wav,fetch.mpg,fetch,5,AV,Pink_Noise_5_1.wav,Pink_Noise_5_2.wav,,,,,,,,,,,,,,,0,52,52,109,,,,,,,,,,,,,,,,,,,,,,,487.66936343349516,None,489.18589729908854,None,490.56931429728866,None,"fetch
",490.56931429728866,None,return,2.4517390839755535,490.65276176389307,None,,,,,,,,,,,,,,,,,,,,,,,,,,,,,,,,,,,,,,,177,001,2024_Mar_06_1421,SpeechDraft1Carolyn_lessNoise_PlusLocalization,2021.2.3,59.95397230797203,
beef.wav,beef.mpg,beef,2,AV,Pink_Noise_2_1.wav,Pink_Noise_2_2.wav,,,,,,,,,,,,,,,0,53,53,83,,,,,,,,,,,,,,,,,,,,,,,493.1361638009548,None,494.63583667296916,None,496.01942963153124,None,beef,496.01942963153124,None,return,3.537852589972317,496.1027107052505,None,,,,,,,,,,,,,,,,,,,,,,,,,,,,,,,,,,,,,,,177,001,2024_Mar_06_1421,SpeechDraft1Carolyn_lessNoise_PlusLocalization,2021.2.3,59.95397230797203,
faint.wav,faint.mpg,faint,4,AV,Pink_Noise_4_1.wav,Pink_Noise_4_2.wav,,,,,,,,,,,,,,,0,54,54,117,,,,,,,,,,,,,,,,,,,,,,,499.66948007419705,None,501.1690659392625,None,502.55282545275986,None,faint,502.55282545275986,None,return,3.8603627951815724,502.63614445738494,None,,,,,,,,,,,,,,,,,,,,,,,,,,,,,,,,,,,,,,,177,001,2024_Mar_06_1421,SpeechDraft1Carolyn_lessNoise_PlusLocalization,2021.2.3,59.95397230797203,
grown.wav,grown.mpg,grown,5,A,Pink_Noise_5_1.wav,Pink_Noise_5_2.wav,,,,,,,,,,,,,,,0,55,55,14,,,,,,,,,,,,,,,,,,,,,,,506.51950144488364,None,508.0192028041929,None,509.40280249807984,None,loathe,509.40280249807984,None,return,4.578444660641253,509.486071635969,None,,,,,,,,,,,,,,,,,,,,,,,,,,,,,,,,,,,,,,,177,001,2024_Mar_06_1421,SpeechDraft1Carolyn_lessNoise_PlusLocalization,2021.2.3,59.95397230797203,
curb.wav,curb.mpg,curb,4,AV,Pink_Noise_4_1.wav,Pink_Noise_4_2.wav,,,,,,,,,,,,,,,0,56,56,68,,,,,,,,,,,,,,,,,,,,,,,514.0862211287022,None,515.6025387849659,None,516.9860820043832,None,curb,516.9860820043832,None,return,7.979011598043144,517.069525311701,None,,,,,,,,,,,,,,,,,,,,,,,,,,,,,,,,,,,,,,,177,001,2024_Mar_06_1421,SpeechDraft1Carolyn_lessNoise_PlusLocalization,2021.2.3,59.95397230797203,
flip.wav,flip.mpg,flip,1,A,Pink_Noise_1_1.wav,Pink_Noise_1_2.wav,,,,,,,,,,,,,,,0,57,57,54,,,,,,,,,,,,,,,,,,,,,,,525.069591479376,None,526.5697503918782,None,527.9528045160696,None,"flip
",527.9528045160696,None,return,5.500287860631943,528.0362127628177,None,,,,,,,,,,,,,,,,,,,,,,,,,,,,,,,,,,,,,,,177,001,2024_Mar_06_1421,SpeechDraft1Carolyn_lessNoise_PlusLocalization,2021.2.3,59.95397230797203,
grave.wav,grave.mpg,grave,1,AV,Pink_Noise_1_1.wav,Pink_Noise_1_2.wav,,,,,,,,,,,,,,,0,58,58,112,,,,,,,,,,,,,,,,,,,,,,,533.5694436263293,None,535.0709966123104,None,536.452555604279,None,grave,536.452555604279,None,return,5.88056372012943,536.535989606753,None,,,,,,,,,,,,,,,,,,,,,,,,,,,,,,,,,,,,,,,177,001,2024_Mar_06_1421,SpeechDraft1Carolyn_lessNoise_PlusLocalization,2021.2.3,59.95397230797203,
crop.wav,crop.mpg,crop,5,AV,Pink_Noise_5_1.wav,Pink_Noise_5_2.wav,,,,,,,,,,,,,,,0,59,59,100,,,,,,,,,,,,,,,,,,,,,,,542.4366894895211,None,543.935992945917,None,545.319887155667,None,trap,545.319887155667,None,return,8.877356723882258,545.4031478837132,None,,,,,,,,,,,,,,,,,,,,,,,,,,,,,,,,,,,,,,,177,001,2024_Mar_06_1421,SpeechDraft1Carolyn_lessNoise_PlusLocalization,2021.2.3,59.95397230797203,
crane.wav,crane.mpg,crane,3,AV,Pink_Noise_3_1.wav,Pink_Noise_3_2.wav,,,,,,,,,,,,,,,0,60,60,113,,,,,,,,,,,,,,,,,,,,,,,554.3028786703944,None,555.8193095764145,None,557.2030077474192,None,"crave
",557.2030077474192,None,return,4.034268041141331,557.2862423108891,None,,,,,,,,,,,,,,,,,,,,,,,,,,,,,,,,,,,,,,,177,001,2024_Mar_06_1421,SpeechDraft1Carolyn_lessNoise_PlusLocalization,2021.2.3,59.95397230797203,
ditch.wav,ditch.mpg,ditch,4,A,Pink_Noise_4_1.wav,Pink_Noise_4_2.wav,,,,,,,,,,,,,,,0,61,61,36,,,,,,,,,,,,,,,,,,,,,,,561.35281664785,None,562.8691990422085,None,564.2530232416466,None,ditch,564.2530232416466,None,return,2.7602572571486235,564.3362657502294,None,,,,,,,,,,,,,,,,,,,,,,,,,,,,,,,,,,,,,,,177,001,2024_Mar_06_1421,SpeechDraft1Carolyn_lessNoise_PlusLocalization,2021.2.3,59.95397230797203,
duke.wav,duke.mpg,duke,3,AV,Pink_Noise_3_1.wav,Pink_Noise_3_2.wav,,,,,,,,,,,,,,,0,62,62,105,,,,,,,,,,,,,,,,,,,,,,,567.119550135918,None,568.6192529639229,None,570.0028198184446,None,duke,570.0028198184446,None,return,2.794215806759894,570.0862854365259,None,,,,,,,,,,,,,,,,,,,,,,,,,,,,,,,,,,,,,,,177,001,2024_Mar_06_1421,SpeechDraft1Carolyn_lessNoise_PlusLocalization,2021.2.3,59.95397230797203,
crown.wav,crown.mpg,crown,3,A,Pink_Noise_3_1.wav,Pink_Noise_3_2.wav,,,,,,,,,,,,,,,0,63,63,28,,,,,,,,,,,,,,,,,,,,,,,572.9029048820958,None,574.4025177955627,None,575.7861898960546,None,,575.7861898960546,None,return,0.4830185165628791,575.8696031579748,None,,,,,,,,,,,,,,,,,,,,,,,,,,,,,,,,,,,,,,,177,001,2024_Mar_06_1421,SpeechDraft1Carolyn_lessNoise_PlusLocalization,2021.2.3,59.95397230797203,
dial.wav,dial.mpg,dial,5,A,Pink_Noise_5_1.wav,Pink_Noise_5_2.wav,,,,,,,,,,,,,,,0,64,64,48,,,,,,,,,,,,,,,,,,,,,,,576.3700016289949,None,577.8694755267352,None,579.2529808487743,None,"diAL
",579.2529808487743,None,return,9.000258370302618,579.3362485514954,None,,,,,,,,,,,,,,,,,,,,,,,,,,,,,,,,,,,,,,,177,001,2024_Mar_06_1421,SpeechDraft1Carolyn_lessNoise_PlusLocalization,2021.2.3,59.95397230797203,
chain.wav,chain.mpg,chain,4,A,Pink_Noise_4_1.wav,Pink_Noise_4_2.wav,,,,,,,,,,,,,,,0,65,65,55,,,,,,,,,,,,,,,,,,,,,,,588.3695564288646,None,589.8697431087494,None,591.2530243275687,None,CHANGE,591.2530243275687,None,return,4.04041479434818,591.3362471368164,None,,,,,,,,,,,,,,,,,,,,,,,,,,,,,,,,,,,,,,,177,001,2024_Mar_06_1421,SpeechDraft1Carolyn_lessNoise_PlusLocalization,2021.2.3,59.95397230797203,
bribe.wav,bribe.mpg,bribe,3,A,Pink_Noise_3_1.wav,Pink_Noise_3_2.wav,,,,,,,,,,,,,,,0,66,66,9,,,,,,,,,,,,,,,,,,,,,,,595.4029632313177,None,596.9026734065264,None,598.286292206496,None,THRIVE,598.286292206496,None,return,2.2390565695241094,598.3695559706539,None,,,,,,,,,,,,,,,,,,,,,,,,,,,,,,,,,,,,,,,177,001,2024_Mar_06_1421,SpeechDraft1Carolyn_lessNoise_PlusLocalization,2021.2.3,59.95397230797203,
crypt.wav,crypt.mpg,crypt,5,AV,Pink_Noise_5_1.wav,Pink_Noise_5_2.wav,,,,,,,,,,,,,,,0,67,67,71,,,,,,,,,,,,,,,,,,,,,,,600.6362346569076,None,602.1359419012442,None,603.5196672258899,None,TRIPPED,603.5196672258899,None,return,20.197645355015993,603.6028863666579,None,,,,,,,,,,,,,,,,,,,,,,,,,,,,,,,,,,,,,,,177,001,2024_Mar_06_1421,SpeechDraft1Carolyn_lessNoise_PlusLocalization,2021.2.3,59.95397230797203,
bust.wav,bust.mpg,bust,1,A,Pink_Noise_1_1.wav,Pink_Noise_1_2.wav,,,,,,,,,,,,,,,0,68,68,11,,,,,,,,,,,,,,,,,,,,,,,623.8196557993069,None,625.3360888836905,None,626.7196440715343,None,"BUST
",626.7196440715343,None,return,7.469562835991383,626.8029339080676,None,,,,,,,,,,,,,,,,,,,,,,,,,,,,,,,,,,,,,,,177,001,2024_Mar_06_1421,SpeechDraft1Carolyn_lessNoise_PlusLocalization,2021.2.3,59.95397230797203,
grow.wav,grow.mpg,grow,2,AV,Pink_Noise_2_1.wav,Pink_Noise_2_2.wav,,,,,,,,,,,,,,,0,69,69,62,,,,,,,,,,,,,,,,,,,,,,,634.3030170034617,None,635.8193779606372,None,637.2029414046556,None,GROW,637.2029414046556,None,return,3.0661843232810497,637.2863574353978,None,,,,,,,,,,,,,,,,,,,,,,,,,,,,,,,,,,,,,,,177,001,2024_Mar_06_1421,SpeechDraft1Carolyn_lessNoise_PlusLocalization,2021.2.3,59.95397230797203,
beg.wav,beg.mpg,beg,5,AV,Pink_Noise_5_1.wav,Pink_Noise_5_2.wav,,,,,,,,,,,,,,,0,70,70,72,,,,,,,,,,,,,,,,,,,,,,,640.3696161611006,None,641.8695526365191,None,643.2528110696003,None,BEG,643.2528110696003,None,return,1.1041575502604246,643.3363427212462,None,,,,,,,,,,,,,,,,,,,,,,,,,,,,,,,,,,,,,,,177,001,2024_Mar_06_1421,SpeechDraft1Carolyn_lessNoise_PlusLocalization,2021.2.3,59.95397230797203,
buy.wav,buy.mpg,buy,3,AV,Pink_Noise_3_1.wav,Pink_Noise_3_2.wav,,,,,,,,,,,,,,,0,71,71,60,,,,,,,,,,,,,,,,,,,,,,,644.469684892334,None,645.9693674370646,None,647.353031639941,None,BUY,647.353031639941,None,return,1.4122342830523849,647.4363400721923,None,,,,,,,,,,,,,,,,,,,,,,,,,,,,,,,,,,,,,,,177,001,2024_Mar_06_1421,SpeechDraft1Carolyn_lessNoise_PlusLocalization,2021.2.3,59.95397230797203,
fold.wav,fold.mpg,fold,1,A,Pink_Noise_1_1.wav,Pink_Noise_1_2.wav,,,,,,,,,,,,,,,0,72,72,18,,,,,,,,,,,,,,,,,,,,,,,648.8696988513693,None,650.3700026767328,None,651.7530166087672,None,"FOLD
",651.7530166087672,None,return,3.2521950313821435,651.8363120565191,None,,,,,,,,,,,,,,,,,,,,,,,,,,,,,,,,,,,,,,,177,001,2024_Mar_06_1421,SpeechDraft1Carolyn_lessNoise_PlusLocalization,2021.2.3,59.95397230797203,
coin.wav,coin.mpg,coin,2,A,Pink_Noise_2_1.wav,Pink_Noise_2_2.wav,,,,,,,,,,,,,,,0,73,73,31,,,,,,,,,,,,,,,,,,,,,,,655.1196597162634,None,656.6193741867319,None,658.003034606576,None,"COIN
",658.003034606576,None,return,2.650124750100076,658.086392772384,None,,,,,,,,,,,,,,,,,,,,,,,,,,,,,,,,,,,,,,,177,001,2024_Mar_06_1421,SpeechDraft1Carolyn_lessNoise_PlusLocalization,2021.2.3,59.95397230797203,
blush.wav,blush.mpg,blush,2,A,Pink_Noise_2_1.wav,Pink_Noise_2_2.wav,,,,,,,,,,,,,,,0,74,74,6,,,,,,,,,,,,,,,,,,,,,,,660.7697235150263,None,662.2697157273069,None,663.6530087850988,None,LUSH,663.6530087850988,None,return,1.5602721041068435,663.7362867910415,None,,,,,,,,,,,,,,,,,,,,,,,,,,,,,,,,,,,,,,,177,001,2024_Mar_06_1421,SpeechDraft1Carolyn_lessNoise_PlusLocalization,2021.2.3,59.95397230797203,
chest.wav,chest.mpg,chest,6,A,Pink_Noise_6_1.wav,Pink_Noise_6_2.wav,,,,,,,,,,,,,,,0,75,75,5,,,,,,,,,,,,,,,,,,,,,,,665.3205966819078,None,666.8361219707876,None,668.203055633232,None,KEPT,668.203055633232,None,return,5.9940081760287285,668.2864872990176,None,,,,,,,,,,,,,,,,,,,,,,,,,,,,,,,,,,,,,,,177,001,2024_Mar_06_1421,SpeechDraft1Carolyn_lessNoise_PlusLocalization,2021.2.3,59.95397230797203,
paid.wav,paid.mpg,paid,1,A,Pink_Noise_1_1.wav,Pink_Noise_1_2.wav,,,,,,,,,,,,,,,0,76,76,58,,,,,,,,,,,,,,,,,,,,,,,674.30320650246,None,675.8028107453138,None,677.186236416921,None,PAYED,677.186236416921,None,return,3.3148918943479657,677.2697048597038,None,,,,,,,,,,,,,,,,,,,,,,,,,,,,,,,,,,,,,,,177,001,2024_Mar_06_1421,SpeechDraft1Carolyn_lessNoise_PlusLocalization,2021.2.3,59.95397230797203,
sock.wav,sock.mpg,sock,1,AV,Pink_Noise_1_1.wav,Pink_Noise_1_2.wav,,,,,,,,,,,,,,,0,77,77,67,,,,,,,,,,,,,,,,,,,,,,,680.603099741973,None,682.1040694722906,None,683.4863224858418,None,SOCK,683.4863224858418,None,return,1.830746571533382,683.569764024578,None,,,,,,,,,,,,,,,,,,,,,,,,,,,,,,,,,,,,,,,177,001,2024_Mar_06_1421,SpeechDraft1Carolyn_lessNoise_PlusLocalization,2021.2.3,59.95397230797203,
fault.wav,fault.mpg,fault,3,A,Pink_Noise_3_1.wav,Pink_Noise_3_2.wav,,,,,,,,,,,,,,,0,78,78,22,,,,,,,,,,,,,,,,,,,,,,,685.419778178446,None,686.9193337094039,None,688.30313805677,None,"BARKED
",688.30313805677,None,return,3.9501892123371363,688.3863158887252,None,,,,,,,,,,,,,,,,,,,,,,,,,,,,,,,,,,,,,,,177,001,2024_Mar_06_1421,SpeechDraft1Carolyn_lessNoise_PlusLocalization,2021.2.3,59.95397230797203,
coach.wav,coach.mpg,coach,1,A,Pink_Noise_1_1.wav,Pink_Noise_1_2.wav,,,,,,,,,,,,,,,0,79,79,26,,,,,,,,,,,,,,,,,,,,,,,692.3697001077235,None,693.8693931149319,None,695.2530188430101,None,COACH,695.2530188430101,None,return,3.3917030077427626,695.3367911139503,None,,,,,,,,,,,,,,,,,,,,,,,,,,,,,,,,,,,,,,,177,001,2024_Mar_06_1421,SpeechDraft1Carolyn_lessNoise_PlusLocalization,2021.2.3,59.95397230797203,
croak.wav,croak.mpg,croak,4,A,Pink_Noise_4_1.wav,Pink_Noise_4_2.wav,,,,,,,,,,,,,,,0,80,80,23,,,,,,,,,,,,,,,,,,,,,,,698.7530831620097,None,700.2694853562862,None,701.6530967112631,None,CLOAK,701.6530967112631,None,return,4.888250200077891,701.7363561876118,None,,,,,,,,,,,,,,,,,,,,,,,,,,,,,,,,,,,,,,,177,001,2024_Mar_06_1421,SpeechDraft1Carolyn_lessNoise_PlusLocalization,2021.2.3,59.95397230797203,
cheat.wav,cheat.mpg,cheat,4,A,Pink_Noise_4_1.wav,Pink_Noise_4_2.wav,,,,,,,,,,,,,,,0,81,81,37,,,,,,,,,,,,,,,,,,,,,,,706.6694853967056,None,708.1861191000789,None,709.5529888859019,None,CHEAT,709.5529888859019,None,return,4.32403424475342,709.6364585757256,None,,,,,,,,,,,,,,,,,,,,,,,,,,,,,,,,,,,,,,,177,001,2024_Mar_06_1421,SpeechDraft1Carolyn_lessNoise_PlusLocalization,2021.2.3,59.95397230797203,
client.wav,client.mpg,client,5,A,Pink_Noise_5_1.wav,Pink_Noise_5_2.wav,,,,,,,,,,,,,,,0,82,82,56,,,,,,,,,,,,,,,,,,,,,,,713.986503331922,None,715.4872268224135,None,716.8697928665206,None,"MIGHT
",716.8697928665206,None,return,2.951342672109604,716.9531647572294,None,,,,,,,,,,,,,,,,,,,,,,,,,,,,,,,,,,,,,,,177,001,2024_Mar_06_1421,SpeechDraft1Carolyn_lessNoise_PlusLocalization,2021.2.3,59.95397230797203,
doll.wav,doll.mpg,doll,6,A,Pink_Noise_6_1.wav,Pink_Noise_6_2.wav,,,,,,,,,,,,,,,0,83,83,34,,,,,,,,,,,,,,,,,,,,,,,719.9364771405235,None,721.4360622307286,None,722.8198506487533,None,NOW,722.8198506487533,None,return,3.6814879095181823,722.903113681823,None,,,,,,,,,,,,,,,,,,,,,,,,,,,,,,,,,,,,,,,177,001,2024_Mar_06_1421,SpeechDraft1Carolyn_lessNoise_PlusLocalization,2021.2.3,59.95397230797203,
shrimp.wav,shrimp.mpg,shrimp,5,A,Pink_Noise_5_1.wav,Pink_Noise_5_2.wav,,,,,,,,,,,,,,,0,84,84,33,,,,,,,,,,,,,,,,,,,,,,,726.6030630609021,None,728.1194981252775,None,729.5032084863633,None,,729.5032084863633,None,return,1.3981442749500275,729.5864178612828,None,,,,,,,,,,,,,,,,,,,,,,,,,,,,,,,,,,,,,,,177,001,2024_Mar_06_1421,SpeechDraft1Carolyn_lessNoise_PlusLocalization,2021.2.3,59.95397230797203,
box.wav,box.mpg,box,2,AV,Pink_Noise_2_1.wav,Pink_Noise_2_2.wav,,,,,,,,,,,,,,,0,85,85,103,,,,,,,,,,,,,,,,,,,,,,,731.0032339179888,None,732.5028350735083,None,733.886458911933,None,BOX,733.886458911933,None,return,2.158794740214944,733.9697244679555,None,,,,,,,,,,,,,,,,,,,,,,,,,,,,,,,,,,,,,,,177,001,2024_Mar_06_1421,SpeechDraft1Carolyn_lessNoise_PlusLocalization,2021.2.3,59.95397230797203,
fruit.wav,fruit.mpg,fruit,6,A,Pink_Noise_6_1.wav,Pink_Noise_6_2.wav,,,,,,,,,,,,,,,0,86,86,4,,,,,,,,,,,,,,,,,,,,,,,736.1532875979319,None,737.6540755266324,None,739.0364598101005,None,,739.0364598101005,None,return,0.5286193462088704,739.1198796043172,None,,,,,,,,,,,,,,,,,,,,,,,,,,,,,,,,,,,,,,,177,001,2024_Mar_06_1421,SpeechDraft1Carolyn_lessNoise_PlusLocalization,2021.2.3,59.95397230797203,
clean.wav,clean.mpg,clean,4,AV,Pink_Noise_4_1.wav,Pink_Noise_4_2.wav,,,,,,,,,,,,,,,0,87,87,69,,,,,,,,,,,,,,,,,,,,,,,739.6697668936104,None,741.1862716739997,None,742.5697619142011,None,"CKEAN
",742.5697619142011,None,return,4.035362630151212,742.6531450962648,None,,,,,,,,,,,,,,,,,,,,,,,,,,,,,,,,,,,,,,,177,001,2024_Mar_06_1421,SpeechDraft1Carolyn_lessNoise_PlusLocalization,2021.2.3,59.95397230797203,
beam.wav,beam.mpg,beam,6,AV,Pink_Noise_6_1.wav,Pink_Noise_6_2.wav,,,,,,,,,,,,,,,0,88,88,70,,,,,,,,,,,,,,,,,,,,,,,746.7198296645656,None,748.2362249027938,None,749.6197513435036,None,ME,749.6197513435036,None,return,0.9454327337443829,749.7030701264739,None,,,,,,,,,,,,,,,,,,,,,,,,,,,,,,,,,,,,,,,177,001,2024_Mar_06_1421,SpeechDraft1Carolyn_lessNoise_PlusLocalization,2021.2.3,59.95397230797203,
goal.wav,goal.mpg,goal,3,AV,Pink_Noise_3_1.wav,Pink_Noise_3_2.wav,,,,,,,,,,,,,,,0,89,89,79,,,,,,,,,,,,,,,,,,,,,,,750.6697819065303,None,752.2028181739151,None,753.586458330974,None,GOAL,753.586458330974,None,return,6.914668217301369,753.6699216244742,None,,,,,,,,,,,,,,,,,,,,,,,,,,,,,,,,,,,,,,,177,001,2024_Mar_06_1421,SpeechDraft1Carolyn_lessNoise_PlusLocalization,2021.2.3,59.95397230797203,
drug.wav,drug.mpg,drug,5,AV,Pink_Noise_5_1.wav,Pink_Noise_5_2.wav,,,,,,,,,,,,,,,0,90,90,73,,,,,,,,,,,,,,,,,,,,,,,760.6031316425651,None,762.1195753011853,None,763.5030732303858,None,"SHRUG
",763.5030732303858,None,return,2.30201633926481,763.586483287625,None,,,,,,,,,,,,,,,,,,,,,,,,,,,,,,,,,,,,,,,177,001,2024_Mar_06_1421,SpeechDraft1Carolyn_lessNoise_PlusLocalization,2021.2.3,59.95397230797203,
curse.wav,curse.mpg,curse,4,A,Pink_Noise_4_1.wav,Pink_Noise_4_2.wav,,,,,,,,,,,,,,,0,91,91,59,,,,,,,,,,,,,,,,,,,,,,,765.9199485946447,None,767.4361890554428,None,768.8199689174071,None,CURSE,768.8199689174071,None,return,3.7373017072677612,768.9032082268968,None,,,,,,,,,,,,,,,,,,,,,,,,,,,,,,,,,,,,,,,177,001,2024_Mar_06_1421,SpeechDraft1Carolyn_lessNoise_PlusLocalization,2021.2.3,59.95397230797203,
cleft.wav,cleft.mpg,cleft,4,A,Pink_Noise_4_1.wav,Pink_Noise_4_2.wav,,,,,,,,,,,,,,,0,92,92,17,,,,,,,,,,,,,,,,,,,,,,,772.6698258249089,None,774.169498459436,None,775.5531260361895,None,"CLAP
",775.5531260361895,None,return,3.236066018231213,775.636449993588,None,,,,,,,,,,,,,,,,,,,,,,,,,,,,,,,,,,,,,,,177,001,2024_Mar_06_1421,SpeechDraft1Carolyn_lessNoise_PlusLocalization,2021.2.3,59.95397230797203,
fence.wav,fence.mpg,fence,5,A,Pink_Noise_5_1.wav,Pink_Noise_5_2.wav,,,,,,,,,,,,,,,0,93,93,42,,,,,,,,,,,,,,,,,,,,,,,778.9033962050453,None,780.4028340158984,None,781.7865203153342,None,,781.7865203153342,None,return,0.09048616979271173,781.8699917588383,None,,,,,,,,,,,,,,,,,,,,,,,,,,,,,,,,,,,,,,,177,001,2024_Mar_06_1421,SpeechDraft1Carolyn_lessNoise_PlusLocalization,2021.2.3,59.95397230797203,
germ.wav,germ.mpg,germ,1,AV,Pink_Noise_1_1.wav,Pink_Noise_1_2.wav,,,,,,,,,,,,,,,0,94,94,104,,,,,,,,,,,,,,,,,,,,,,,781.9864917658269,None,783.4877035981044,None,784.869780340232,None,GERM,784.869780340232,None,return,2.791303318925202,784.9531831368804,None,,,,,,,,,,,,,,,,,,,,,,,,,,,,,,,,,,,,,,,177,001,2024_Mar_06_1421,SpeechDraft1Carolyn_lessNoise_PlusLocalization,2021.2.3,59.95397230797203,
carve.wav,carve.mpg,carve,6,A,Pink_Noise_6_1.wav,Pink_Noise_6_2.wav,,,,,,,,,,,,,,,0,95,95,46,,,,,,,,,,,,,,,,,,,,,,,787.7697927737609,None,789.2863238966092,None,790.6697961483151,None,LOVE,790.6697961483151,None,return,2.2313518365845084,790.7531798789278,None,,,,,,,,,,,,,,,,,,,,,,,,,,,,,,,,,,,,,,,177,001,2024_Mar_06_1421,SpeechDraft1Carolyn_lessNoise_PlusLocalization,2021.2.3,59.95397230797203,
east.wav,east.mpg,east,3,AV,Pink_Noise_3_1.wav,Pink_Noise_3_2.wav,,,,,,,,,,,,,,,0,96,96,89,,,,,,,,,,,,,,,,,,,,,,,793.0032040597871,None,794.5195421734825,None,795.8865350456908,None,EAST,795.8865350456908,None,return,1.390625685453415,795.9699958665296,None,,,,,,,,,,,,,,,,,,,,,,,,,,,,,,,,,,,,,,,177,001,2024_Mar_06_1421,SpeechDraft1Carolyn_lessNoise_PlusLocalization,2021.2.3,59.95397230797203,
chick.wav,chick.mpg,chick,6,AV,Pink_Noise_6_1.wav,Pink_Noise_6_2.wav,,,,,,,,,,,,,,,0,97,97,102,,,,,,,,,,,,,,,,,,,,,,,797.3864468615502,None,798.9029187560081,None,800.2865163180977,None,CHAIN,800.2865163180977,None,return,2.8546564364805818,800.3698547659442,None,,,,,,,,,,,,,,,,,,,,,,,,,,,,,,,,,,,,,,,177,001,2024_Mar_06_1421,SpeechDraft1Carolyn_lessNoise_PlusLocalization,2021.2.3,59.95397230797203,
bag.wav,bag.mpg,bag,1,AV,Pink_Noise_1_1.wav,Pink_Noise_1_2.wav,,,,,,,,,,,,,,,0,98,98,75,,,,,,,,,,,,,,,,,,,,,,,803.2532218480483,None,804.7547152657062,None,806.1365216933191,None,BEG,806.1365216933191,None,return,1.33264784142375,806.219917839393,None,,,,,,,,,,,,,,,,,,,,,,,,,,,,,,,,,,,,,,,177,001,2024_Mar_06_1421,SpeechDraft1Carolyn_lessNoise_PlusLocalization,2021.2.3,59.95397230797203,
film.wav,film.mpg,film,2,A,Pink_Noise_2_1.wav,Pink_Noise_2_2.wav,,,,,,,,,,,,,,,0,99,99,3,,,,,,,,,,,,,,,,,,,,,,,807.5699010426179,None,809.0861129285768,None,810.4699163706973,None,FILM,810.4699163706973,None,return,2.4552037389948964,810.55337656755,None,,,,,,,,,,,,,,,,,,,,,,,,,,,,,,,,,,,,,,,177,001,2024_Mar_06_1421,SpeechDraft1Carolyn_lessNoise_PlusLocalization,2021.2.3,59.95397230797203,
jam.wav,jam.mpg,jam,3,A,Pink_Noise_3_1.wav,Pink_Noise_3_2.wav,,,,,,,,,,,,,,,0,100,100,51,,,,,,,,,,,,,,,,,,,,,,,813.0365266352892,None,814.5367468455806,None,815.9197935014963,None,JAM,815.9197935014963,None,return,2.013450101017952,816.0032652737573,None,,,,,,,,,,,,,,,,,,,,,,,,,,,,,,,,,,,,,,,177,001,2024_Mar_06_1421,SpeechDraft1Carolyn_lessNoise_PlusLocalization,2021.2.3,59.95397230797203,
pop.wav,pop.mpg,pop,6,AV,Pink_Noise_6_1.wav,Pink_Noise_6_2.wav,,,,,,,,,,,,,,,0,101,101,91,,,,,,,,,,,,,,,,,,,,,,,818.0365594252944,None,819.5529180718586,None,820.9365534158424,None,POP,820.9365534158424,None,return,2.1568069718778133,821.0198445618153,None,,,,,,,,,,,,,,,,,,,,,,,,,,,,,,,,,,,,,,,177,001,2024_Mar_06_1421,SpeechDraft1Carolyn_lessNoise_PlusLocalization,2021.2.3,59.95397230797203,
flog.wav,flog.mpg,flog,6,AV,Pink_Noise_6_1.wav,Pink_Noise_6_2.wav,,,,,,,,,,,,,,,0,102,102,86,,,,,,,,,,,,,,,,,,,,,,,823.2032814323902,None,824.7050864743069,None,826.0864818422124,None,"FLAW
",826.0864818422124,None,return,2.1185185983777046,826.1699882289395,None,,,,,,,,,,,,,,,,,,,,,,,,,,,,,,,,,,,,,,,177,001,2024_Mar_06_1421,SpeechDraft1Carolyn_lessNoise_PlusLocalization,2021.2.3,59.95397230797203,
fan.wav,fan.mpg,fan,6,AV,Pink_Noise_6_1.wav,Pink_Noise_6_2.wav,,,,,,,,,,,,,,,0,103,103,92,,,,,,,,,,,,,,,,,,,,,,,828.3198680430651,None,829.8364390935749,None,831.2198231592774,None,"
",831.2198231592774,None,return,4.7692746967077255,831.3032383089885,None,,,,,,,,,,,,,,,,,,,,,,,,,,,,,,,,,,,,,,,177,001,2024_Mar_06_1421,SpeechDraft1Carolyn_lessNoise_PlusLocalization,2021.2.3,59.95397230797203,
flea.wav,flea.mpg,flea,3,A,Pink_Noise_3_1.wav,Pink_Noise_3_2.wav,,,,,,,,,,,,,,,0,104,104,41,,,,,,,,,,,,,,,,,,,,,,,836.1032662820071,None,837.6033536726609,None,838.9865667689592,None,FLEE,838.9865667689592,None,return,2.42662984598428,839.0698678344488,None,,,,,,,,,,,,,,,,,,,,,,,,,,,,,,,,,,,,,,,177,001,2024_Mar_06_1421,SpeechDraft1Carolyn_lessNoise_PlusLocalization,2021.2.3,59.95397230797203,
cycle.wav,cycle.mpg,cycle,2,AV,Pink_Noise_2_1.wav,Pink_Noise_2_2.wav,,,,,,,,,,,,,,,0,105,105,66,,,,,,,,,,,,,,,,,,,,,,,841.5198140395805,None,843.036305282265,None,844.419831758365,None,"PSYCHO
",844.419831758365,None,return,8.217159807682037,844.5033387979493,None,,,,,,,,,,,,,,,,,,,,,,,,,,,,,,,,,,,,,,,177,001,2024_Mar_06_1421,SpeechDraft1Carolyn_lessNoise_PlusLocalization,2021.2.3,59.95397230797203,
drain.wav,drain.mpg,drain,4,AV,Pink_Noise_4_1.wav,Pink_Noise_4_2.wav,,,,,,,,,,,,,,,0,106,106,96,,,,,,,,,,,,,,,,,,,,,,,852.7532995585352,None,854.2695821672678,None,855.6533206822351,None,DRAIN,855.6533206822351,None,return,1.8318420061841607,855.7367973839864,None,,,,,,,,,,,,,,,,,,,,,,,,,,,,,,,,,,,,,,,177,001,2024_Mar_06_1421,SpeechDraft1Carolyn_lessNoise_PlusLocalization,2021.2.3,59.95397230797203,
coy.wav,coy.mpg,coy,1,A,Pink_Noise_1_1.wav,Pink_Noise_1_2.wav,,,,,,,,,,,,,,,0,107,107,53,,,,,,,,,,,,,,,,,,,,,,,857.5866685053334,None,859.1029865415767,None,860.4866092307493,None,"KOI
",860.4866092307493,None,return,24.48661584686488,860.5698770899326,None,,,,,,,,,,,,,,,,,,,,,,,,,,,,,,,,,,,,,,,177,001,2024_Mar_06_1421,SpeechDraft1Carolyn_lessNoise_PlusLocalization,2021.2.3,59.95397230797203,
mars.wav,mars.mpg,mars,4,A,Pink_Noise_4_1.wav,Pink_Noise_4_2.wav,,,,,,,,,,,,,,,0,108,108,35,,,,,,,,,,,,,,,,,,,,,,,885.0866772718728,None,886.6196533730254,None,888.0032558506355,None,FIRES,888.0032558506355,None,return,2.2819334752857685,888.0866586659104,None,,,,,,,,,,,,,,,,,,,,,,,,,,,,,,,,,,,,,,,177,001,2024_Mar_06_1421,SpeechDraft1Carolyn_lessNoise_PlusLocalization,2021.2.3,59.95397230797203,
pipe.wav,pipe.mpg,pipe,3,A,Pink_Noise_3_1.wav,Pink_Noise_3_2.wav,,,,,,,,,,,,,,,0,109,109,8,,,,,,,,,,,,,,,,,,,,,,,890.3867571922019,None,891.9029958527535,None,893.2866245694458,None,HEIGHT,893.2866245694458,None,return,1.1105625499039888,893.3699356466532,None,,,,,,,,,,,,,,,,,,,,,,,,,,,,,,,,,,,,,,,177,001,2024_Mar_06_1421,SpeechDraft1Carolyn_lessNoise_PlusLocalization,2021.2.3,59.95397230797203,
clerk.wav,clerk.mpg,clerk,6,A,Pink_Noise_6_1.wav,Pink_Noise_6_2.wav,,,,,,,,,,,,,,,0,110,110,32,,,,,,,,,,,,,,,,,,,,,,,894.5033306712285,None,896.0197541592643,None,897.4034292791039,None,,897.4034292791039,None,return,0.6578333918005228,897.4866865510121,None,,,,,,,,,,,,,,,,,,,,,,,,,,,,,,,,,,,,,,,177,001,2024_Mar_06_1421,SpeechDraft1Carolyn_lessNoise_PlusLocalization,2021.2.3,59.95397230797203,
dice.wav,dice.mpg,dice,2,AV,Pink_Noise_2_1.wav,Pink_Noise_2_2.wav,,,,,,,,,,,,,,,0,111,111,90,,,,,,,,,,,,,,,,,,,,,,,898.1698529049754,None,899.686431189999,None,901.0701400842518,None,DICE,901.0701400842518,None,return,3.0951821422204375,901.1533483192325,None,,,,,,,,,,,,,,,,,,,,,,,,,,,,,,,,,,,,,,,177,001,2024_Mar_06_1421,SpeechDraft1Carolyn_lessNoise_PlusLocalization,2021.2.3,59.95397230797203,
dull.wav,dull.mpg,dull,4,AV,Pink_Noise_4_1.wav,Pink_Noise_4_2.wav,,,,,,,,,,,,,,,0,112,112,80,,,,,,,,,,,,,,,,,,,,,,,904.2700168536976,None,905.7865283116698,None,907.1699239294976,None,"DULL
",907.1699239294976,None,return,2.219191262498498,907.253318041563,None,,,,,,,,,,,,,,,,,,,,,,,,,,,,,,,,,,,,,,,177,001,2024_Mar_06_1421,SpeechDraft1Carolyn_lessNoise_PlusLocalization,2021.2.3,59.95397230797203,
chew.wav,chew.mpg,chew,4,A,Pink_Noise_4_1.wav,Pink_Noise_4_2.wav,,,,,,,,,,,,,,,0,113,113,27,,,,,,,,,,,,,,,,,,,,,,,909.5033590570092,None,911.0198033992201,None,912.3867868445814,None,CHEW,912.3867868445814,None,return,1.6825519977137446,912.4700141279027,None,,,,,,,,,,,,,,,,,,,,,,,,,,,,,,,,,,,,,,,177,001,2024_Mar_06_1421,SpeechDraft1Carolyn_lessNoise_PlusLocalization,2021.2.3,59.95397230797203,
broke.wav,broke.mpg,broke,1,AV,Pink_Noise_1_1.wav,Pink_Noise_1_2.wav,,,,,,,,,,,,,,,0,114,114,98,,,,,,,,,,,,,,,,,,,,,,,914.1700139744207,None,915.6706443782896,None,917.0532803237438,None,BROKE,917.0532803237438,None,return,7.863936477340758,917.136619951576,None,,,,,,,,,,,,,,,,,,,,,,,,,,,,,,,,,,,,,,,177,001,2024_Mar_06_1421,SpeechDraft1Carolyn_lessNoise_PlusLocalization,2021.2.3,59.95397230797203,
rod.wav,rod.mpg,rod,4,AV,Pink_Noise_4_1.wav,Pink_Noise_4_2.wav,,,,,,,,,,,,,,,0,115,115,108,,,,,,,,,,,,,,,,,,,,,,,925.0200727460906,None,926.5364739503711,None,927.9200837612152,None,RIDE,927.9200837612152,None,return,1.2132271667942405,928.0033545251936,None,,,,,,,,,,,,,,,,,,,,,,,,,,,,,,,,,,,,,,,177,001,2024_Mar_06_1421,SpeechDraft1Carolyn_lessNoise_PlusLocalization,2021.2.3,59.95397230797203,
lost.wav,lost.mpg,lost,4,A,Pink_Noise_4_1.wav,Pink_Noise_4_2.wav,,,,,,,,,,,,,,,0,116,116,57,,,,,,,,,,,,,,,,,,,,,,,929.2367346696556,None,930.7374180136248,None,932.1200644373894,None,LOST,932.1200644373894,None,return,5.349264591932297,932.2033279128373,None,,,,,,,,,,,,,,,,,,,,,,,,,,,,,,,,,,,,,,,177,001,2024_Mar_06_1421,SpeechDraft1Carolyn_lessNoise_PlusLocalization,2021.2.3,59.95397230797203,
foot.wav,foot.mpg,foot,4,A,Pink_Noise_4_1.wav,Pink_Noise_4_2.wav,,,,,,,,,,,,,,,0,117,117,44,,,,,,,,,,,,,,,,,,,,,,,937.5700669903308,None,939.0864241132513,None,940.470022616908,None,,940.470022616908,None,return,0.847206762060523,940.55335821677,None,,,,,,,,,,,,,,,,,,,,,,,,,,,,,,,,,,,,,,,177,001,2024_Mar_06_1421,SpeechDraft1Carolyn_lessNoise_PlusLocalization,2021.2.3,59.95397230797203,
cap.wav,cap.mpg,cap,2,A,Pink_Noise_2_1.wav,Pink_Noise_2_2.wav,,,,,,,,,,,,,,,0,118,118,13,,,,,,,,,,,,,,,,,,,,,,,941.4199615586549,None,942.9363849312067,None,944.3200652077794,None,CAT,944.3200652077794,None,return,2.021040257997811,944.4034699127078,None,,,,,,,,,,,,,,,,,,,,,,,,,,,,,,,,,,,,,,,177,001,2024_Mar_06_1421,SpeechDraft1Carolyn_lessNoise_PlusLocalization,2021.2.3,59.95397230797203,
fund.wav,fund.mpg,fund,2,AV,Pink_Noise_2_1.wav,Pink_Noise_2_2.wav,,,,,,,,,,,,,,,0,119,119,115,,,,,,,,,,,,,,,,,,,,,,,946.4535541730002,None,947.9699330963194,None,949.3532751575112,None,FUND,949.3532751575112,None,return,2.179933814331889,949.4366767806932,None,,,,,,,,,,,,,,,,,,,,,,,,,,,,,,,,,,,,,,,177,001,2024_Mar_06_1421,SpeechDraft1Carolyn_lessNoise_PlusLocalization,2021.2.3,59.95397230797203,
,,,,,,,,,,,,,,,,,,,,,,,,,,,,,,,,,,,,,,,,,,,,,,,,,,,,,,,,,,,,,,,,,,space,16.240492000244558,951.7200378747657,None,,,,,,,,,,,,,,,,,,,,,,,,,,,,,177,001,2024_Mar_06_1421,SpeechDraft1Carolyn_lessNoise_PlusLocalization,2021.2.3,59.95397230797203,
,,,,,,,,midLeft,-13.0,2,ch1Sound_localizationTask.wav,-13.0,"(762, 878)","(-198,-202)",-190,-338,,,,,,,,,0,0,0,1,,,,,,,,,,,,,,,,,,,,,,,,,,,,,,,,,,,,,,,,,,951.7200378747657,None,968.0031652683392,None,969.1047987341881,None,970.0365820880979,None,1.3375661375661376,4.003772242926061,970.0365820880979,None,,,,,,,,,,,,,,,,,177,001,2024_Mar_06_1421,SpeechDraft1Carolyn_lessNoise_PlusLocalization,2021.2.3,59.95397230797203,
,,,,,,,,nearLeft,-6.5,1,ch1Sound_localizationTask.wav,-6.5,"(857, 878)","(-103,-202)",-95,-338,,,,,,,,,0,1,1,2,,,,,,,,,,,,,,,,,,,,,,,,,,,,,,,,,,,,,,,,,,,,974.0379029596224,None,975.153218459338,None,976.069775599055,None,1.328042328042328,1.4672168362885714,976.069775599055,None,,,,,,,,,,,,,,,,,177,001,2024_Mar_06_1421,SpeechDraft1Carolyn_lessNoise_PlusLocalization,2021.2.3,59.95397230797203,
,,,,,,,,farLeft,-19.1,5,ch1Sound_localizationTask.wav,-19.1,"(667, 878)","(-293,-202)",-285,-338,,,,,,,,,0,2,2,0,,,,,,,,,,,,,,,,,,,,,,,,,,,,,,,,,,,,,,,,,,,,977.5536780403927,None,978.6531577510759,None,979.5864232769236,None,1.2904761904761906,0.9161147838458419,979.5864232769236,None,,,,,,,,,,,,,,,,,177,001,2024_Mar_06_1421,SpeechDraft1Carolyn_lessNoise_PlusLocalization,2021.2.3,59.95397230797203,
,,,,,,,,farLeft,-19.1,5,ch1Sound_localizationTask.wav,-19.1,"(667, 878)","(-293,-202)",-285,-338,,,,,,,,,0,3,3,0,,,,,,,,,,,,,,,,,,,,,,,,,,,,,,,,,,,,,,,,,,,,980.5035014636815,None,981.6030869372189,None,982.5365992700681,None,1.262962962962963,0.7833953350782394,982.5365992700681,None,,,,,,,,,,,,,,,,,177,001,2024_Mar_06_1421,SpeechDraft1Carolyn_lessNoise_PlusLocalization,2021.2.3,59.95397230797203,
,,,,,,,,midRight,13.0,3,ch1Sound_localizationTask.wav,13.0,"(1142, 878)","(182, -202)",190,-338,,,,,,,,,0,4,4,5,,,,,,,,,,,,,,,,,,,,,,,,,,,,,,,,,,,,,,,,,,,,983.3207873748615,None,984.4198274165392,None,985.3531666025519,None,1.6037037037037036,1.1333593176677823,985.3531666025519,None,,,,,,,,,,,,,,,,,177,001,2024_Mar_06_1421,SpeechDraft1Carolyn_lessNoise_PlusLocalization,2021.2.3,59.95397230797203,
,,,,,,,,center,0.0,6,ch1Sound_localizationTask.wav,0.0,"(952, 878)","(-8,-202)",0,-338,,,,,,,,,0,5,5,3,,,,,,,,,,,,,,,,,,,,,,,,,,,,,,,,,,,,,,,,,,,,986.5034660585225,None,987.6032543443143,None,988.5364659866318,None,1.4592592592592593,1.216419723816216,988.5364659866318,None,,,,,,,,,,,,,,,,,177,001,2024_Mar_06_1421,SpeechDraft1Carolyn_lessNoise_PlusLocalization,2021.2.3,59.95397230797203,
,,,,,,,,nearLeft,-6.5,1,ch1Sound_localizationTask.wav,-6.5,"(857, 878)","(-103,-202)",-95,-338,,,,,,,,,0,6,6,2,,,,,,,,,,,,,,,,,,,,,,,,,,,,,,,,,,,,,,,,,,,,989.7535060597584,None,990.853268715553,None,991.786536777392,None,1.402116402116402,0.8976762359961867,991.786536777392,None,,,,,,,,,,,,,,,,,177,001,2024_Mar_06_1421,SpeechDraft1Carolyn_lessNoise_PlusLocalization,2021.2.3,59.95397230797203,
,,,,,,,,midLeft,-13.0,2,ch1Sound_localizationTask.wav,-13.0,"(762, 878)","(-198,-202)",-190,-338,,,,,,,,,1,0,7,1,,,,,,,,,,,,,,,,,,,,,,,,,,,,,,,,,,,,,,,,,,,,992.6869400534779,None,993.7864992953837,None,994.7199233463034,None,1.4650793650793652,2.234937174245715,994.7199233463034,None,,,,,,,,,,,,,,,,,177,001,2024_Mar_06_1421,SpeechDraft1Carolyn_lessNoise_PlusLocalization,2021.2.3,59.95397230797203,
,,,,,,,,midRight,13.0,3,ch1Sound_localizationTask.wav,13.0,"(1142, 878)","(182, -202)",190,-338,,,,,,,,,1,1,8,5,,,,,,,,,,,,,,,,,,,,,,,,,,,,,,,,,,,,,,,,,,,,996.9702218053862,None,998.0698079066351,None,999.0031304191798,None,1.673015873015873,1.1198177253827453,999.0031304191798,None,,,,,,,,,,,,,,,,,177,001,2024_Mar_06_1421,SpeechDraft1Carolyn_lessNoise_PlusLocalization,2021.2.3,59.95397230797203,
,,,,,,,,nearRight,6.5,0,ch1Sound_localizationTask.wav,6.5,"(1047, 878)","(87, -202)",95,-338,,,,,,,,,1,2,9,4,,,,,,,,,,,,,,,,,,,,,,,,,,,,,,,,,,,,,,,,,,,,1000.1369339320809,None,1001.2365933004767,None,1002.1699495986104,None,1.5275132275132275,0.8829146567732096,1002.1699495986104,None,,,,,,,,,,,,,,,,,177,001,2024_Mar_06_1421,SpeechDraft1Carolyn_lessNoise_PlusLocalization,2021.2.3,59.95397230797203,
,,,,,,,,midLeft,-13.0,2,ch1Sound_localizationTask.wav,-13.0,"(762, 878)","(-198,-202)",-190,-338,,,,,,,,,1,3,10,1,,,,,,,,,,,,,,,,,,,,,,,,,,,,,,,,,,,,,,,,,,,,1003.0536184944212,None,1004.1531514180824,None,1005.0865543456748,None,1.3465608465608465,0.7679686062037945,1005.0865543456748,None,,,,,,,,,,,,,,,,,177,001,2024_Mar_06_1421,SpeechDraft1Carolyn_lessNoise_PlusLocalization,2021.2.3,59.95397230797203,
,,,,,,,,center,0.0,6,ch1Sound_localizationTask.wav,0.0,"(952, 878)","(-8,-202)",0,-338,,,,,,,,,1,4,11,3,,,,,,,,,,,,,,,,,,,,,,,,,,,,,,,,,,,,,,,,,,,,1005.8701491896063,None,1006.9698633952066,None,1007.903215191327,None,1.4756613756613757,0.16626630257815123,1007.903215191327,None,,,,,,,,,,,,,,,,,177,001,2024_Mar_06_1421,SpeechDraft1Carolyn_lessNoise_PlusLocalization,2021.2.3,59.95397230797203,
,,,,,,,,center,0.0,6,ch1Sound_localizationTask.wav,0.0,"(952, 878)","(-8,-202)",0,-338,,,,,,,,,1,5,12,3,,,,,,,,,,,,,,,,,,,,,,,,,,,,,,,,,,,,,,,,,,,,1008.0701658083126,None,1009.1698098722845,None,1010.103166019544,None,1.4656084656084656,0.6493661906570196,1010.103166019544,None,,,,,,,,,,,,,,,,,177,001,2024_Mar_06_1421,SpeechDraft1Carolyn_lessNoise_PlusLocalization,2021.2.3,59.95397230797203,
,,,,,,,,center,0.0,6,ch1Sound_localizationTask.wav,0.0,"(952, 878)","(-8,-202)",0,-338,,,,,,,,,1,6,13,3,,,,,,,,,,,,,,,,,,,,,,,,,,,,,,,,,,,,,,,,,,,,1010.7537893969566,None,1011.8532593194395,None,1012.7865922600031,None,1.4666666666666668,0.050169785507023335,1012.7865922600031,None,,,,,,,,,,,,,,,,,177,001,2024_Mar_06_1421,SpeechDraft1Carolyn_lessNoise_PlusLocalization,2021.2.3,59.95397230797203,
,,,,,,,,farRight,19.1,4,ch1Sound_localizationTask.wav,19.1,"(1237, 878)","(277,-202)",285,-338,,,,,,,,,2,0,14,6,,,,,,,,,,,,,,,,,,,,,,,,,,,,,,,,,,,,,,,,,,,,1012.8372957967222,None,1013.9365727044642,None,1014.8700022725388,None,1.7253968253968255,0.6994217541068792,1014.8700022725388,None,,,,,,,,,,,,,,,,,177,001,2024_Mar_06_1421,SpeechDraft1Carolyn_lessNoise_PlusLocalization,2021.2.3,59.95397230797203,
,,,,,,,,midLeft,-13.0,2,ch1Sound_localizationTask.wav,-13.0,"(762, 878)","(-198,-202)",-190,-338,,,,,,,,,2,1,15,1,,,,,,,,,,,,,,,,,,,,,,,,,,,,,,,,,,,,,,,,,,,,1015.5701730316505,None,1016.6698427889496,None,1017.6032409379259,None,1.3169312169312168,1.732771816663444,1017.6032409379259,None,,,,,,,,,,,,,,,,,177,001,2024_Mar_06_1421,SpeechDraft1Carolyn_lessNoise_PlusLocalization,2021.2.3,59.95397230797203,
,,,,,,,,midRight,13.0,3,ch1Sound_localizationTask.wav,13.0,"(1142, 878)","(182, -202)",190,-338,,,,,,,,,2,2,16,5,,,,,,,,,,,,,,,,,,,,,,,,,,,,,,,,,,,,,,,,,,,,1019.3376868395135,None,1020.4365473929793,None,1021.3699266314507,None,1.6666666666666667,0.6491441614925861,1021.3699266314507,None,,,,,,,,,,,,,,,,,177,001,2024_Mar_06_1421,SpeechDraft1Carolyn_lessNoise_PlusLocalization,2021.2.3,59.95397230797203,
,,,,,,,,midRight,13.0,3,ch1Sound_localizationTask.wav,13.0,"(1142, 878)","(182, -202)",190,-338,,,,,,,,,2,3,17,5,,,,,,,,,,,,,,,,,,,,,,,,,,,,,,,,,,,,,,,,,,,,1022.020490994677,None,1023.1198138147593,None,1024.053202405572,None,1.7005291005291006,0.6490585543215275,1024.053202405572,None,,,,,,,,,,,,,,,,,177,001,2024_Mar_06_1421,SpeechDraft1Carolyn_lessNoise_PlusLocalization,2021.2.3,59.95397230797203,
,,,,,,,,midLeft,-13.0,2,ch1Sound_localizationTask.wav,-13.0,"(762, 878)","(-198,-202)",-190,-338,,,,,,,,,2,4,18,1,,,,,,,,,,,,,,,,,,,,,,,,,,,,,,,,,,,,,,,,,,,,1024.7043175259605,None,1025.8032852597535,None,1026.7365675345063,None,1.3153439153439153,0.9676299886777997,1026.7365675345063,None,,,,,,,,,,,,,,,,,177,001,2024_Mar_06_1421,SpeechDraft1Carolyn_lessNoise_PlusLocalization,2021.2.3,59.95397230797203,
,,,,,,,,midRight,13.0,3,ch1Sound_localizationTask.wav,13.0,"(1142, 878)","(182, -202)",190,-338,,,,,,,,,2,5,19,5,,,,,,,,,,,,,,,,,,,,,,,,,,,,,,,,,,,,,,,,,,,,1027.7202643137425,None,1028.8199318656698,None,1029.7532267104834,None,1.7,1.2833991684019566,1029.7532267104834,None,,,,,,,,,,,,,,,,,177,001,2024_Mar_06_1421,SpeechDraft1Carolyn_lessNoise_PlusLocalization,2021.2.3,59.95397230797203,
,,,,,,,,midLeft,-13.0,2,ch1Sound_localizationTask.wav,-13.0,"(762, 878)","(-198,-202)",-190,-338,,,,,,,,,2,6,20,1,,,,,,,,,,,,,,,,,,,,,,,,,,,,,,,,,,,,,,,,,,,,1031.053492913954,None,1032.1532649043947,None,1033.08657791093,None,1.3470899470899471,0.9990841979160905,1033.08657791093,None,,,,,,,,,,,,,,,,,177,001,2024_Mar_06_1421,SpeechDraft1Carolyn_lessNoise_PlusLocalization,2021.2.3,59.95397230797203,
,,,,,,,,farLeft,-19.1,5,ch1Sound_localizationTask.wav,-19.1,"(667, 878)","(-293,-202)",-285,-338,,,,,,,,,3,0,21,0,,,,,,,,,,,,,,,,,,,,,,,,,,,,,,,,,,,,,,,,,,,,1034.086774081923,None,1035.1866189828143,None,1036.1198100391775,None,1.3021164021164022,0.866170160472393,1036.1198100391775,None,,,,,,,,,,,,,,,,,177,001,2024_Mar_06_1421,SpeechDraft1Carolyn_lessNoise_PlusLocalization,2021.2.3,59.95397230797203,
,,,,,,,,center,0.0,6,ch1Sound_localizationTask.wav,0.0,"(952, 878)","(-8,-202)",0,-338,,,,,,,,,3,1,22,3,,,,,,,,,,,,,,,,,,,,,,,,,,,,,,,,,,,,,,,,,,,,1036.9868365889415,None,1038.0866074040532,None,1039.0200157118961,None,1.439153439153439,0.6493503553792834,1039.0200157118961,None,,,,,,,,,,,,,,,,,177,001,2024_Mar_06_1421,SpeechDraft1Carolyn_lessNoise_PlusLocalization,2021.2.3,59.95397230797203,
,,,,,,,,farRight,19.1,4,ch1Sound_localizationTask.wav,19.1,"(1237, 878)","(277,-202)",285,-338,,,,,,,,,3,2,23,6,,,,,,,,,,,,,,,,,,,,,,,,,,,,,,,,,,,,,,,,,,,,1039.6702545555308,None,1040.7698286985978,None,1041.7032615728676,None,1.8502645502645503,1.4160987678915262,1041.7032615728676,None,,,,,,,,,,,,,,,,,177,001,2024_Mar_06_1421,SpeechDraft1Carolyn_lessNoise_PlusLocalization,2021.2.3,59.95397230797203,
,,,,,,,,farLeft,-19.1,5,ch1Sound_localizationTask.wav,-19.1,"(667, 878)","(-293,-202)",-285,-338,,,,,,,,,3,3,24,0,,,,,,,,,,,,,,,,,,,,,,,,,,,,,,,,,,,,,,,,,,,,1043.1206859862432,None,1044.219837740995,None,1045.1533618103713,None,1.319047619047619,1.1831312915310264,1045.1533618103713,None,,,,,,,,,,,,,,,,,177,001,2024_Mar_06_1421,SpeechDraft1Carolyn_lessNoise_PlusLocalization,2021.2.3,59.95397230797203,
,,,,,,,,midLeft,-13.0,2,ch1Sound_localizationTask.wav,-13.0,"(762, 878)","(-198,-202)",-190,-338,,,,,,,,,3,4,25,1,,,,,,,,,,,,,,,,,,,,,,,,,,,,,,,,,,,,,,,,,,,,1046.3367628771812,None,1047.4365683626384,None,1048.3699740674347,None,1.3592592592592592,0.3162919236347079,1048.3699740674347,None,,,,,,,,,,,,,,,,,177,001,2024_Mar_06_1421,SpeechDraft1Carolyn_lessNoise_PlusLocalization,2021.2.3,59.95397230797203,
,,,,,,,,farRight,19.1,4,ch1Sound_localizationTask.wav,19.1,"(1237, 878)","(277,-202)",285,-338,,,,,,,,,3,5,26,6,,,,,,,,,,,,,,,,,,,,,,,,,,,,,,,,,,,,,,,,,,,,1048.6870132600889,None,1049.7866175016388,None,1050.7197136068717,None,1.6375661375661377,0.600028321146965,1050.7197136068717,None,,,,,,,,,,,,,,,,,177,001,2024_Mar_06_1421,SpeechDraft1Carolyn_lessNoise_PlusLocalization,2021.2.3,59.95397230797203,
,,,,,,,,midRight,13.0,3,ch1Sound_localizationTask.wav,13.0,"(1142, 878)","(182, -202)",190,-338,,,,,,,,,3,6,27,5,,,,,,,,,,,,,,,,,,,,,,,,,,,,,,,,,,,,,,,,,,,,1051.3368673259392,None,1052.436878372915,None,1053.369925986044,None,1.3682539682539683,1.0680232075974345,1053.369925986044,None,,,,,,,,,,,,,,,,,177,001,2024_Mar_06_1421,SpeechDraft1Carolyn_lessNoise_PlusLocalization,2021.2.3,59.95397230797203,
,,,,,,,,midLeft,-13.0,2,ch1Sound_localizationTask.wav,-13.0,"(762, 878)","(-198,-202)",-190,-338,,,,,,,,,4,0,28,1,,,,,,,,,,,,,,,,,,,,,,,,,,,,,,,,,,,,,,,,,,,,1054.4536086404696,None,1055.5533055188134,None,1056.4865706078708,None,1.4126984126984126,0.5181612372398376,1056.4865706078708,None,,,,,,,,,,,,,,,,,177,001,2024_Mar_06_1421,SpeechDraft1Carolyn_lessNoise_PlusLocalization,2021.2.3,59.95397230797203,
,,,,,,,,center,0.0,6,ch1Sound_localizationTask.wav,0.0,"(952, 878)","(-8,-202)",0,-338,,,,,,,,,4,1,29,3,,,,,,,,,,,,,,,,,,,,,,,,,,,,,,,,,,,,,,,,,,,,1057.0202811555937,None,1058.1199430376291,None,1059.0531212110072,None,1.4761904761904763,0.2515025530010462,1059.0531212110072,None,,,,,,,,,,,,,,,,,177,001,2024_Mar_06_1421,SpeechDraft1Carolyn_lessNoise_PlusLocalization,2021.2.3,59.95397230797203,
,,,,,,,,center,0.0,6,ch1Sound_localizationTask.wav,0.0,"(952, 878)","(-8,-202)",0,-338,,,,,,,,,4,2,30,3,,,,,,,,,,,,,,,,,,,,,,,,,,,,,,,,,,,,,,,,,,,,1059.3201767839491,None,1060.4199783327058,None,1061.353312285617,None,1.5211640211640212,0.45042092353105545,1061.353312285617,None,,,,,,,,,,,,,,,,,177,001,2024_Mar_06_1421,SpeechDraft1Carolyn_lessNoise_PlusLocalization,2021.2.3,59.95397230797203,
,,,,,,,,nearLeft,-6.5,1,ch1Sound_localizationTask.wav,-6.5,"(857, 878)","(-103,-202)",-95,-338,,,,,,,,,4,3,31,2,,,,,,,,,,,,,,,,,,,,,,,,,,,,,,,,,,,,,,,,,,,,1061.804664873518,None,1062.9199273176491,None,1063.8366272067651,None,1.4074074074074074,0.5000664293766022,1063.8366272067651,None,,,,,,,,,,,,,,,,,177,001,2024_Mar_06_1421,SpeechDraft1Carolyn_lessNoise_PlusLocalization,2021.2.3,59.95397230797203,
,,,,,,,,midRight,13.0,3,ch1Sound_localizationTask.wav,13.0,"(1142, 878)","(182, -202)",190,-338,,,,,,,,,4,4,32,5,,,,,,,,,,,,,,,,,,,,,,,,,,,,,,,,,,,,,,,,,,,,1064.3536607576534,None,1065.4535096026957,None,1066.3866266421974,None,1.6492063492063491,0.7651747670024633,1066.3866266421974,None,,,,,,,,,,,,,,,,,177,001,2024_Mar_06_1421,SpeechDraft1Carolyn_lessNoise_PlusLocalization,2021.2.3,59.95397230797203,
,,,,,,,,nearLeft,-6.5,1,ch1Sound_localizationTask.wav,-6.5,"(857, 878)","(-103,-202)",-95,-338,,,,,,,,,4,5,33,2,,,,,,,,,,,,,,,,,,,,,,,,,,,,,,,,,,,,,,,,,,,,1067.1536154104397,None,1068.2532414402813,None,1069.1867180876434,None,1.3925925925925926,0.7147603332996368,1069.1867180876434,None,,,,,,,,,,,,,,,,,177,001,2024_Mar_06_1421,SpeechDraft1Carolyn_lessNoise_PlusLocalization,2021.2.3,59.95397230797203,
,,,,,,,,midRight,13.0,3,ch1Sound_localizationTask.wav,13.0,"(1142, 878)","(182, -202)",190,-338,,,,,,,,,4,6,34,5,,,,,,,,,,,,,,,,,,,,,,,,,,,,,,,,,,,,,,,,,,,,1069.9035043818876,None,1071.0032496228814,None,1071.9365684185177,None,1.6751322751322753,0.6491515394300222,1071.9365684185177,None,,,,,,,,,,,,,,,,,177,001,2024_Mar_06_1421,SpeechDraft1Carolyn_lessNoise_PlusLocalization,2021.2.3,59.95397230797203,
,,,,,,,,nearRight,6.5,0,ch1Sound_localizationTask.wav,6.5,"(1047, 878)","(87, -202)",95,-338,,,,,,,,,5,0,35,4,,,,,,,,,,,,,,,,,,,,,,,,,,,,,,,,,,,,,,,,,,,,1072.5868206275627,None,1073.6866172794253,None,1074.620027760975,None,1.3968253968253967,0.617429792881012,1074.620027760975,None,,,,,,,,,,,,,,,,,177,001,2024_Mar_06_1421,SpeechDraft1Carolyn_lessNoise_PlusLocalization,2021.2.3,59.95397230797203,
,,,,,,,,farRight,19.1,4,ch1Sound_localizationTask.wav,19.1,"(1237, 878)","(277,-202)",285,-338,,,,,,,,,5,1,36,6,,,,,,,,,,,,,,,,,,,,,,,,,,,,,,,,,,,,,,,,,,,,1075.253588212654,None,1076.3533526090905,None,1077.2866718163714,None,1.6788359788359788,0.9991680756211281,1077.2866718163714,None,,,,,,,,,,,,,,,,,177,001,2024_Mar_06_1421,SpeechDraft1Carolyn_lessNoise_PlusLocalization,2021.2.3,59.95397230797203,
,,,,,,,,nearLeft,-6.5,1,ch1Sound_localizationTask.wav,-6.5,"(857, 878)","(-103,-202)",-95,-338,,,,,,,,,5,2,37,2,,,,,,,,,,,,,,,,,,,,,,,,,,,,,,,,,,,,,,,,,,,,1078.2868352290243,None,1079.3867203043774,None,1080.3200426399708,None,1.3656084656084655,0.7664913404732943,1080.3200426399708,None,,,,,,,,,,,,,,,,,177,001,2024_Mar_06_1421,SpeechDraft1Carolyn_lessNoise_PlusLocalization,2021.2.3,59.95397230797203,
,,,,,,,,center,0.0,6,ch1Sound_localizationTask.wav,0.0,"(952, 878)","(-8,-202)",0,-338,,,,,,,,,5,3,38,3,,,,,,,,,,,,,,,,,,,,,,,,,,,,,,,,,,,,,,,,,,,,1081.0873590558767,None,1082.1867591124028,None,1083.1200213478878,None,1.3708994708994708,1.2163740703836083,1083.1200213478878,None,,,,,,,,,,,,,,,,,177,001,2024_Mar_06_1421,SpeechDraft1Carolyn_lessNoise_PlusLocalization,2021.2.3,59.95397230797203,
,,,,,,,,nearRight,6.5,0,ch1Sound_localizationTask.wav,6.5,"(1047, 878)","(87, -202)",95,-338,,,,,,,,,5,4,39,4,,,,,,,,,,,,,,,,,,,,,,,,,,,,,,,,,,,,,,,,,,,,1084.3536969935521,None,1085.4533459981903,None,1086.3866954892874,None,1.5989417989417989,0.7667464418336749,1086.3866954892874,None,,,,,,,,,,,,,,,,,177,001,2024_Mar_06_1421,SpeechDraft1Carolyn_lessNoise_PlusLocalization,2021.2.3,59.95397230797203,
,,,,,,,,farRight,19.1,4,ch1Sound_localizationTask.wav,19.1,"(1237, 878)","(277,-202)",285,-338,,,,,,,,,5,5,40,6,,,,,,,,,,,,,,,,,,,,,,,,,,,,,,,,,,,,,,,,,,,,1087.1550696697086,None,1088.2700207885355,None,1089.186755552888,None,1.6206349206349207,0.5824165847152472,1089.186755552888,None,,,,,,,,,,,,,,,,,177,001,2024_Mar_06_1421,SpeechDraft1Carolyn_lessNoise_PlusLocalization,2021.2.3,59.95397230797203,
,,,,,,,,nearRight,6.5,0,ch1Sound_localizationTask.wav,6.5,"(1047, 878)","(87, -202)",95,-338,,,,,,,,,5,6,41,4,,,,,,,,,,,,,,,,,,,,,,,,,,,,,,,,,,,,,,,,,,,,1089.7702113324776,None,1090.8699817666784,None,1091.8033414287493,None,1.4693121693121693,0.5328152952715755,1091.8033414287493,None,,,,,,,,,,,,,,,,,177,001,2024_Mar_06_1421,SpeechDraft1Carolyn_lessNoise_PlusLocalization,2021.2.3,59.95397230797203,
,,,,,,,,nearLeft,-6.5,1,ch1Sound_localizationTask.wav,-6.5,"(857, 878)","(-103,-202)",-95,-338,,,,,,,,,6,0,42,2,,,,,,,,,,,,,,,,,,,,,,,,,,,,,,,,,,,,,,,,,,,,1092.3369662789628,None,1093.4366895444691,None,1094.3701425092295,None,1.375132275132275,0.8494410049170256,1094.3701425092295,None,,,,,,,,,,,,,,,,,177,001,2024_Mar_06_1421,SpeechDraft1Carolyn_lessNoise_PlusLocalization,2021.2.3,59.95397230797203,
,,,,,,,,farLeft,-19.1,5,ch1Sound_localizationTask.wav,-19.1,"(667, 878)","(-293,-202)",-285,-338,,,,,,,,,6,1,43,0,,,,,,,,,,,,,,,,,,,,,,,,,,,,,,,,,,,,,,,,,,,,1095.2203386547044,None,1096.320005632937,None,1097.2533985255286,None,1.353968253968254,0.5661603892222047,1097.2533985255286,None,,,,,,,,,,,,,,,,,177,001,2024_Mar_06_1421,SpeechDraft1Carolyn_lessNoise_PlusLocalization,2021.2.3,59.95397230797203,
,,,,,,,,farRight,19.1,4,ch1Sound_localizationTask.wav,19.1,"(1237, 878)","(277,-202)",285,-338,,,,,,,,,6,2,44,6,,,,,,,,,,,,,,,,,,,,,,,,,,,,,,,,,,,,,,,,,,,,1097.8203488616273,None,1098.91995037999,None,1099.8533596154302,None,1.6761904761904762,0.9159705452620983,1099.8533596154302,None,,,,,,,,,,,,,,,,,177,001,2024_Mar_06_1421,SpeechDraft1Carolyn_lessNoise_PlusLocalization,2021.2.3,59.95397230797203,
,,,,,,,,nearLeft,-6.5,1,ch1Sound_localizationTask.wav,-6.5,"(857, 878)","(-103,-202)",-95,-338,,,,,,,,,6,3,45,2,,,,,,,,,,,,,,,,,,,,,,,,,,,,,,,,,,,,,,,,,,,,1100.7705986835063,None,1101.8699136096984,None,1102.8033735025674,None,1.374074074074074,0.7514278925955296,1102.8033735025674,None,,,,,,,,,,,,,,,,,177,001,2024_Mar_06_1421,SpeechDraft1Carolyn_lessNoise_PlusLocalization,2021.2.3,59.95397230797203,
,,,,,,,,nearRight,6.5,0,ch1Sound_localizationTask.wav,6.5,"(1047, 878)","(87, -202)",95,-338,,,,,,,,,6,4,46,4,,,,,,,,,,,,,,,,,,,,,,,,,,,,,,,,,,,,,,,,,,,,1103.570349117741,None,1104.6699400534853,None,1105.6034960914403,None,1.53015873015873,0.7653128346428275,1105.6034960914403,None,,,,,,,,,,,,,,,,,177,001,2024_Mar_06_1421,SpeechDraft1Carolyn_lessNoise_PlusLocalization,2021.2.3,59.95397230797203,
,,,,,,,,nearRight,6.5,0,ch1Sound_localizationTask.wav,6.5,"(1047, 878)","(87, -202)",95,-338,,,,,,,,,6,5,47,4,,,,,,,,,,,,,,,,,,,,,,,,,,,,,,,,,,,,,,,,,,,,1106.3701777290553,None,1107.469992192462,None,1108.4032471040264,None,1.53015873015873,0.6819586465135217,1108.4032471040264,None,,,,,,,,,,,,,,,,,177,001,2024_Mar_06_1421,SpeechDraft1Carolyn_lessNoise_PlusLocalization,2021.2.3,59.95397230797203,
,,,,,,,,nearRight,6.5,0,ch1Sound_localizationTask.wav,6.5,"(1047, 878)","(87, -202)",95,-338,,,,,,,,,6,6,48,4,,,,,,,,,,,,,,,,,,,,,,,,,,,,,,,,,,,,,,,,,,,,1109.0869313608855,None,1110.1865938100964,None,1111.119913593866,None,1.433862433862434,0.6673063393682241,1111.119913593866,None,,,,,,,,,,,,,,,,,177,001,2024_Mar_06_1421,SpeechDraft1Carolyn_lessNoise_PlusLocalization,2021.2.3,59.95397230797203,
,,,,,,,,nearLeft,-6.5,1,ch1Sound_localizationTask.wav,-6.5,"(857, 878)","(-103,-202)",-95,-338,,,,,,,,,7,0,49,2,,,,,,,,,,,,,,,,,,,,,,,,,,,,,,,,,,,,,,,,,,,,1111.8036321774125,None,1112.9032966457307,None,1113.836734002456,None,1.5402116402116404,1.082675569690764,1113.836734002456,None,,,,,,,,,,,,,,,,,177,001,2024_Mar_06_1421,SpeechDraft1Carolyn_lessNoise_PlusLocalization,2021.2.3,59.95397230797203,
,,,,,,,,nearRight,6.5,0,ch1Sound_localizationTask.wav,6.5,"(1047, 878)","(87, -202)",95,-338,,,,,,,,,7,1,50,4,,,,,,,,,,,,,,,,,,,,,,,,,,,,,,,,,,,,,,,,,,,,1114.9202480064705,None,1116.0200327672064,None,1116.9534081118181,None,1.51005291005291,1.9494987232610583,1116.9534081118181,None,,,,,,,,,,,,,,,,,177,001,2024_Mar_06_1421,SpeechDraft1Carolyn_lessNoise_PlusLocalization,2021.2.3,59.95397230797203,
,,,,,,,,farLeft,-19.1,5,ch1Sound_localizationTask.wav,-19.1,"(667, 878)","(-293,-202)",-285,-338,,,,,,,,,7,2,51,0,,,,,,,,,,,,,,,,,,,,,,,,,,,,,,,,,,,,,,,,,,,,1118.9036321323365,None,1120.003474299796,None,1120.9367795810103,None,1.3735449735449734,1.6495821494609118,1120.9367795810103,None,,,,,,,,,,,,,,,,,177,001,2024_Mar_06_1421,SpeechDraft1Carolyn_lessNoise_PlusLocalization,2021.2.3,59.95397230797203,
,,,,,,,,farRight,19.1,4,ch1Sound_localizationTask.wav,19.1,"(1237, 878)","(277,-202)",285,-338,,,,,,,,,7,3,52,6,,,,,,,,,,,,,,,,,,,,,,,,,,,,,,,,,,,,,,,,,,,,1122.586966060102,None,1123.6866722200066,None,1124.6201095962897,None,1.7338624338624338,0.9997422583401203,1124.6201095962897,None,,,,,,,,,,,,,,,,,177,001,2024_Mar_06_1421,SpeechDraft1Carolyn_lessNoise_PlusLocalization,2021.2.3,59.95397230797203,
,,,,,,,,farLeft,-19.1,5,ch1Sound_localizationTask.wav,-19.1,"(667, 878)","(-293,-202)",-285,-338,,,,,,,,,7,4,53,0,,,,,,,,,,,,,,,,,,,,,,,,,,,,,,,,,,,,,,,,,,,,1125.6211613975465,None,1126.7202037088573,None,1127.6534704985097,None,1.252910052910053,0.6163279553875327,1127.6534704985097,None,,,,,,,,,,,,,,,,,177,001,2024_Mar_06_1421,SpeechDraft1Carolyn_lessNoise_PlusLocalization,2021.2.3,59.95397230797203,
,,,,,,,,farRight,19.1,4,ch1Sound_localizationTask.wav,19.1,"(1237, 878)","(277,-202)",285,-338,,,,,,,,,7,5,54,6,,,,,,,,,,,,,,,,,,,,,,,,,,,,,,,,,,,,,,,,,,,,1128.2715331846848,None,1129.3866442367435,None,1130.3033317429945,None,1.7206349206349207,0.73174455948174,1130.3033317429945,None,,,,,,,,,,,,,,,,,177,001,2024_Mar_06_1421,SpeechDraft1Carolyn_lessNoise_PlusLocalization,2021.2.3,59.95397230797203,
,,,,,,,,farLeft,-19.1,5,ch1Sound_localizationTask.wav,-19.1,"(667, 878)","(-293,-202)",-285,-338,,,,,,,,,7,6,55,0,,,,,,,,,,,,,,,,,,,,,,,,,,,,,,,,,,,,,,,,,,,,1131.0368781005964,None,1132.1366614522412,None,1133.0700285183266,None,1.3931216931216932,1.1820372296497226,1133.0700285183266,None,,,,,,,,,,,,,,,,,177,001,2024_Mar_06_1421,SpeechDraft1Carolyn_lessNoise_PlusLocalization,2021.2.3,59.95397230797203,
,,,,,,,,,,,,,,,,,,,,,,,,,,,,,,,,,,,,,,,,,,,,,,,,,,,,,,,,,,,,,,,,,,,,,,,,,,,,,,,,,,space,7.1994585152715445,1134.337125621736,None,,,,,,,,,,,,,177,001,2024_Mar_06_1421,SpeechDraft1Carolyn_lessNoise_PlusLocalization,2021.2.3,59.95397230797203,
,,,,,,,,midLeft,-13.0,2,ch1Sound_localizationTask.wav,-13.0,"(762, 878)","(-198,-202)",-190,-338,,,,,,,,,,,,,0,0,0,1,,,,,,,,,,,,,,,,,,,,,,,,,,,,,,,,,,,,,,,,1141.5701083121821,None,,,1144.6034380923957,None,1.3777777777777778,0.9211192857474089,1144.6034380923957,None,,,,,1134.337125621736,None,1142.5703258542344,None,1142.7537732236087,1142.7702577952296,,,,,,,177,001,2024_Mar_06_1421,SpeechDraft1Carolyn_lessNoise_PlusLocalization,2021.2.3,59.95397230797203,
,,,,,,,,center,0.0,6,ch1Sound_localizationTask.wav,0.0,"(952, 878)","(-8,-202)",0,-338,,,,,,,,,,,,,0,1,1,3,,,,,,,,,,,,,,,,,,,,,,,,,,,,,,,,,,,,,,,,1145.5370049374178,None,,,1148.5534618273377,None,1.4841269841269842,0.9837225330993533,1148.5534618273377,None,,,,,,,1146.5371720278636,None,1146.720265074633,1146.7370196199045,,,,,,,177,001,2024_Mar_06_1421,SpeechDraft1Carolyn_lessNoise_PlusLocalization,2021.2.3,59.95397230797203,
,,,,,,,,center,0.0,6,ch1Sound_localizationTask.wav,0.0,"(952, 878)","(-8,-202)",0,-338,,,,,,,,,,,,,0,2,2,3,,,,,,,,,,,,,,,,,,,,,,,,,,,,,,,,,,,,,,,,1149.5536474511027,None,,,1152.5701096048579,None,1.4883597883597883,0.8323231097310781,1152.5701096048579,None,,,,,,,1150.5537256114185,None,1150.736968902871,1150.7536217300221,,,,,,,177,001,2024_Mar_06_1421,SpeechDraft1Carolyn_lessNoise_PlusLocalization,2021.2.3,59.95397230797203,
,,,,,,,,midLeft,-13.0,2,ch1Sound_localizationTask.wav,-13.0,"(762, 878)","(-198,-202)",-190,-338,,,,,,,,,,,,,0,3,3,1,,,,,,,,,,,,,,,,,,,,,,,,,,,,,,,,,,,,,,,,1153.4036656180397,None,,,1156.4201302714646,None,1.392063492063492,1.016726491972804,1156.4201302714646,None,,,,,,,1154.403647141531,None,1154.5869682738557,1154.6037051836029,,,,,,,177,001,2024_Mar_06_1421,SpeechDraft1Carolyn_lessNoise_PlusLocalization,2021.2.3,59.95397230797203,
,,,,,,,,farRight,19.1,4,ch1Sound_localizationTask.wav,19.1,"(1237, 878)","(277,-202)",285,-338,,,,,,,,,,,,,0,4,4,6,,,,,,,,,,,,,,,,,,,,,,,,,,,,,,,,,,,,,,,,1157.453765142709,None,,,1160.4700316675007,None,1.6523809523809523,0.8155749328434467,1160.4700316675007,None,,,,,,,1158.4536760039628,None,1158.6369750387967,1158.6536752600223,,,,,,,177,001,2024_Mar_06_1421,SpeechDraft1Carolyn_lessNoise_PlusLocalization,2021.2.3,59.95397230797203,
,,,,,,,,midLeft,-13.0,2,ch1Sound_localizationTask.wav,-13.0,"(762, 878)","(-198,-202)",-190,-338,,,,,,,,,,,,,0,5,5,1,,,,,,,,,,,,,,,,,,,,,,,,,,,,,,,,,,,,,,,,1161.2870358116925,None,,,1164.3033936666325,None,1.3904761904761904,1.6486415974795818,1164.3033936666325,None,,,,,,,1162.287025439553,None,1162.4703409243375,1162.487100022845,,,,,,,177,001,2024_Mar_06_1421,SpeechDraft1Carolyn_lessNoise_PlusLocalization,2021.2.3,59.95397230797203,
,,,,,,,,nearLeft,-6.5,1,ch1Sound_localizationTask.wav,-6.5,"(857, 878)","(-103,-202)",-95,-338,,,,,,,,,,,,,0,6,6,2,,,,,,,,,,,,,,,,,,,,,,,,,,,,,,,,,,,,,,,,1165.953613627702,None,,,1168.970150073059,None,1.435978835978836,1.0822204714640975,1168.970150073059,None,,,,,,,1166.9538237787783,None,1167.1370393252,1167.1536183645949,,,,,,,177,001,2024_Mar_06_1421,SpeechDraft1Carolyn_lessNoise_PlusLocalization,2021.2.3,59.95397230797203,
,,,,,,,,farRight,19.1,4,ch1Sound_localizationTask.wav,19.1,"(1237, 878)","(277,-202)",285,-338,,,,,,,,,,,,,1,0,7,6,,,,,,,,,,,,,,,,,,,,,,,,,,,,,,,,,,,,,,,,1170.053661774844,None,,,1173.0700855227187,None,1.6841269841269841,1.0330491261556745,1173.0700855227187,None,,,,,,,1171.0537352450192,None,1171.2370915049687,1171.2536869943142,,,,,,,177,001,2024_Mar_06_1421,SpeechDraft1Carolyn_lessNoise_PlusLocalization,2021.2.3,59.95397230797203,
,,,,,,,,farRight,19.1,4,ch1Sound_localizationTask.wav,19.1,"(1237, 878)","(277,-202)",285,-338,,,,,,,,,,,,,1,1,8,6,,,,,,,,,,,,,,,,,,,,,,,,,,,,,,,,,,,,,,,,1174.1201551500708,None,,,1177.1368302842602,None,1.6412698412698412,1.0011613024398685,1177.1368302842602,None,,,,,,,1175.120338080451,None,1175.3039430296049,1175.3207474052906,,,,,,,177,001,2024_Mar_06_1421,SpeechDraft1Carolyn_lessNoise_PlusLocalization,2021.2.3,59.95397230797203,
,,,,,,,,nearLeft,-6.5,1,ch1Sound_localizationTask.wav,-6.5,"(857, 878)","(-103,-202)",-95,-338,,,,,,,,,,,,,1,2,9,2,,,,,,,,,,,,,,,,,,,,,,,,,,,,,,,,,,,,,,,,1178.1538774007931,None,,,1181.170143195428,None,1.4068783068783068,0.7653640042990446,1181.170143195428,None,,,,,,,1179.1537051480263,None,1179.3370301220566,1179.3536767736077,,,,,,,177,001,2024_Mar_06_1421,SpeechDraft1Carolyn_lessNoise_PlusLocalization,2021.2.3,59.95397230797203,
,,,,,,,,midRight,13.0,3,ch1Sound_localizationTask.wav,13.0,"(1142, 878)","(182, -202)",190,-338,,,,,,,,,,,,,1,3,10,5,,,,,,,,,,,,,,,,,,,,,,,,,,,,,,,,,,,,,,,,1181.937073760666,None,,,1184.9534509098157,None,1.6121693121693121,0.8829758502542973,1184.9534509098157,None,,,,,,,1182.9370589451864,None,1183.1204018518329,1183.1370751997456,,,,,,,177,001,2024_Mar_06_1421,SpeechDraft1Carolyn_lessNoise_PlusLocalization,2021.2.3,59.95397230797203,
,,,,,,,,midRight,13.0,3,ch1Sound_localizationTask.wav,13.0,"(1142, 878)","(182, -202)",190,-338,,,,,,,,,,,,,1,4,11,5,,,,,,,,,,,,,,,,,,,,,,,,,,,,,,,,,,,,,,,,1185.8383923070505,None,,,1188.8701251838356,None,1.61005291005291,0.9336495129391551,1188.8701251838356,None,,,,,,,1186.853891786188,None,1187.0371393738315,1187.053792020306,,,,,,,177,001,2024_Mar_06_1421,SpeechDraft1Carolyn_lessNoise_PlusLocalization,2021.2.3,59.95397230797203,
,,,,,,,,midRight,13.0,3,ch1Sound_localizationTask.wav,13.0,"(1142, 878)","(182, -202)",190,-338,,,,,,,,,,,,,1,5,12,5,,,,,,,,,,,,,,,,,,,,,,,,,,,,,,,,,,,,,,,,1189.805003960617,None,,,1192.8368584802374,None,1.6264550264550266,0.7328701829537749,1192.8368584802374,None,,,,,,,1190.820370208472,None,1191.0036217430606,1191.0205206079409,,,,,,,177,001,2024_Mar_06_1421,SpeechDraft1Carolyn_lessNoise_PlusLocalization,2021.2.3,59.95397230797203,
,,,,,,,,midRight,13.0,3,ch1Sound_localizationTask.wav,13.0,"(1142, 878)","(182, -202)",190,-338,,,,,,,,,,,,,1,6,13,5,,,,,,,,,,,,,,,,,,,,,,,,,,,,,,,,,,,,,,,,1193.5704094963148,None,,,1196.5867857811972,None,1.6179894179894179,1.1659999201074243,1196.5867857811972,None,,,,,,,1194.5705122323707,None,1194.7538131382316,1194.7704732455313,,,,,,,177,001,2024_Mar_06_1421,SpeechDraft1Carolyn_lessNoise_PlusLocalization,2021.2.3,59.95397230797203,
,,,,,,,,center,0.0,6,ch1Sound_localizationTask.wav,0.0,"(952, 878)","(-8,-202)",0,-338,,,,,,,,,,,,,2,0,14,3,,,,,,,,,,,,,,,,,,,,,,,,,,,,,,,,,,,,,,,,1197.7538652913645,None,,,1200.7702754335478,None,1.5148148148148148,0.9146483223885298,1200.7702754335478,None,,,,,,,1198.7537106350064,None,1198.9370417678729,1198.9537620833144,,,,,,,177,001,2024_Mar_06_1421,SpeechDraft1Carolyn_lessNoise_PlusLocalization,2021.2.3,59.95397230797203,
,,,,,,,,nearRight,6.5,0,ch1Sound_localizationTask.wav,6.5,"(1047, 878)","(87, -202)",95,-338,,,,,,,,,,,,,2,1,15,4,,,,,,,,,,,,,,,,,,,,,,,,,,,,,,,,,,,,,,,,1201.687119380571,None,,,1204.7033435925841,None,1.5534391534391534,0.7985597662627697,1204.7033435925841,None,,,,,,,1202.6871523773298,None,1202.8703917777166,1202.8870378388092,,,,,,,177,001,2024_Mar_06_1421,SpeechDraft1Carolyn_lessNoise_PlusLocalization,2021.2.3,59.95397230797203,
,,,,,,,,farLeft,-19.1,5,ch1Sound_localizationTask.wav,-19.1,"(667, 878)","(-293,-202)",-285,-338,,,,,,,,,,,,,2,2,16,0,,,,,,,,,,,,,,,,,,,,,,,,,,,,,,,,,,,,,,,,1205.5036170547828,None,,,1208.5199769036844,None,1.319047619047619,1.0489998944103718,1208.5199769036844,None,,,,,,,1206.5037327576429,None,1206.6871175114065,1206.7036736644804,,,,,,,177,001,2024_Mar_06_1421,SpeechDraft1Carolyn_lessNoise_PlusLocalization,2021.2.3,59.95397230797203,
,,,,,,,,midRight,13.0,3,ch1Sound_localizationTask.wav,13.0,"(1142, 878)","(182, -202)",190,-338,,,,,,,,,,,,,2,3,17,5,,,,,,,,,,,,,,,,,,,,,,,,,,,,,,,,,,,,,,,,1209.5704366751015,None,,,1212.5868741776794,None,1.608994708994709,0.8157157273963094,1212.5868741776794,None,,,,,,,1210.570425693877,None,1210.7538640405983,1210.7704753763974,,,,,,,177,001,2024_Mar_06_1421,SpeechDraft1Carolyn_lessNoise_PlusLocalization,2021.2.3,59.95397230797203,
,,,,,,,,nearLeft,-6.5,1,ch1Sound_localizationTask.wav,-6.5,"(857, 878)","(-103,-202)",-95,-338,,,,,,,,,,,,,2,4,18,2,,,,,,,,,,,,,,,,,,,,,,,,,,,,,,,,,,,,,,,,1213.4037645747885,None,,,1216.4202290084213,None,1.4248677248677248,1.21655816398561,1216.4202290084213,None,,,,,,,1214.4037304082885,None,1214.5872361259535,1214.6038227854297,,,,,,,177,001,2024_Mar_06_1421,SpeechDraft1Carolyn_lessNoise_PlusLocalization,2021.2.3,59.95397230797203,
,,,,,,,,midLeft,-13.0,2,ch1Sound_localizationTask.wav,-13.0,"(762, 878)","(-198,-202)",-190,-338,,,,,,,,,,,,,2,5,19,1,,,,,,,,,,,,,,,,,,,,,,,,,,,,,,,,,,,,,,,,1217.6537814186886,None,,,1220.6702147042379,None,1.380952380952381,1.7844164669513702,1220.6702147042379,None,,,,,,,1218.6537699094042,None,1218.8371375007555,1218.8537651337683,,,,,,,177,001,2024_Mar_06_1421,SpeechDraft1Carolyn_lessNoise_PlusLocalization,2021.2.3,59.95397230797203,
,,,,,,,,midRight,13.0,3,ch1Sound_localizationTask.wav,13.0,"(1142, 878)","(182, -202)",190,-338,,,,,,,,,,,,,2,6,20,5,,,,,,,,,,,,,,,,,,,,,,,,,,,,,,,,,,,,,,,,1222.4705469394103,None,,,1225.48680365365,None,1.591005291005291,1.2318914458155632,1225.48680365365,None,,,,,,,1223.4704129789025,None,1223.653835565783,1223.6704626204446,,,,,,,177,001,2024_Mar_06_1421,SpeechDraft1Carolyn_lessNoise_PlusLocalization,2021.2.3,59.95397230797203,
,,,,,,,,farLeft,-19.1,5,ch1Sound_localizationTask.wav,-19.1,"(667, 878)","(-293,-202)",-285,-338,,,,,,,,,,,,,3,0,21,0,,,,,,,,,,,,,,,,,,,,,,,,,,,,,,,,,,,,,,,,1226.7204011017457,None,,,1229.7368532484397,None,1.3767195767195768,1.0664475252851844,1229.7368532484397,None,,,,,,,1227.7205205056816,None,1227.9038386996835,1227.9203334078193,,,,,,,177,001,2024_Mar_06_1421,SpeechDraft1Carolyn_lessNoise_PlusLocalization,2021.2.3,59.95397230797203,
,,,,,,,,nearRight,6.5,0,ch1Sound_localizationTask.wav,6.5,"(1047, 878)","(87, -202)",95,-338,,,,,,,,,,,,,3,1,22,4,,,,,,,,,,,,,,,,,,,,,,,,,,,,,,,,,,,,,,,,1230.8039745157585,None,,,1233.8202205654234,None,1.5587301587301587,0.8326673889532685,1233.8202205654234,None,,,,,,,1231.80378988944,None,1231.9872245499864,1232.0037740776315,,,,,,,177,001,2024_Mar_06_1421,SpeechDraft1Carolyn_lessNoise_PlusLocalization,2021.2.3,59.95397230797203,
,,,,,,,,nearRight,6.5,0,ch1Sound_localizationTask.wav,6.5,"(1047, 878)","(87, -202)",95,-338,,,,,,,,,,,,,3,2,23,4,,,,,,,,,,,,,,,,,,,,,,,,,,,,,,,,,,,,,,,,1234.6537221269682,None,,,1237.670153903775,None,1.5444444444444443,0.7838588766753674,1237.670153903775,None,,,,,,,1235.6537570133805,None,1235.8371267318726,1235.85376597289,,,,,,,177,001,2024_Mar_06_1421,SpeechDraft1Carolyn_lessNoise_PlusLocalization,2021.2.3,59.95397230797203,
,,,,,,,,farLeft,-19.1,5,ch1Sound_localizationTask.wav,-19.1,"(667, 878)","(-293,-202)",-285,-338,,,,,,,,,,,,,3,3,24,0,,,,,,,,,,,,,,,,,,,,,,,,,,,,,,,,,,,,,,,,1238.4705219781026,None,,,1241.4868594268337,None,1.3455026455026455,1.0502815777435899,1241.4868594268337,None,,,,,,,1239.4705288428813,None,1239.6538345105946,1239.670461108908,,,,,,,177,001,2024_Mar_06_1421,SpeechDraft1Carolyn_lessNoise_PlusLocalization,2021.2.3,59.95397230797203,
,,,,,,,,center,0.0,6,ch1Sound_localizationTask.wav,0.0,"(952, 878)","(-8,-202)",0,-338,,,,,,,,,,,,,3,4,25,3,,,,,,,,,,,,,,,,,,,,,,,,,,,,,,,,,,,,,,,,1242.5538764568046,None,,,1245.5702398056164,None,1.5015873015873016,0.9990112911909819,1245.5702398056164,None,,,,,,,1243.5537733044475,None,1243.7371501196176,1243.7538618240505,,,,,,,177,001,2024_Mar_06_1421,SpeechDraft1Carolyn_lessNoise_PlusLocalization,2021.2.3,59.95397230797203,
,,,,,,,,center,0.0,6,ch1Sound_localizationTask.wav,0.0,"(952, 878)","(-8,-202)",0,-338,,,,,,,,,,,,,3,5,26,3,,,,,,,,,,,,,,,,,,,,,,,,,,,,,,,,,,,,,,,,1246.5704174749553,None,,,1249.5869292076677,None,1.5095238095238095,0.515979714691639,1249.5869292076677,None,,,,,,,1247.570493709296,None,1247.7538803359494,1247.7705691996962,,,,,,,177,001,2024_Mar_06_1421,SpeechDraft1Carolyn_lessNoise_PlusLocalization,2021.2.3,59.95397230797203,
,,,,,,,,midRight,13.0,3,ch1Sound_localizationTask.wav,13.0,"(1142, 878)","(182, -202)",190,-338,,,,,,,,,,,,,3,6,27,5,,,,,,,,,,,,,,,,,,,,,,,,,,,,,,,,,,,,,,,,1250.1038512038067,None,,,1253.1202748315409,None,1.6,0.9324602754786611,1253.1202748315409,None,,,,,,,1251.1038829758763,None,1251.2871867213398,1251.3038590997458,,,,,,,177,001,2024_Mar_06_1421,SpeechDraft1Carolyn_lessNoise_PlusLocalization,2021.2.3,59.95397230797203,
,,,,,,,,nearRight,6.5,0,ch1Sound_localizationTask.wav,6.5,"(1047, 878)","(87, -202)",95,-338,,,,,,,,,,,,,4,0,28,4,,,,,,,,,,,,,,,,,,,,,,,,,,,,,,,,,,,,,,,,1254.0539679704234,None,,,1257.07020424027,None,1.5629629629629629,0.8994812536984682,1257.07020424027,None,,,,,,,1255.0539332758635,None,1255.2371566984802,1255.2538494700566,,,,,,,177,001,2024_Mar_06_1421,SpeechDraft1Carolyn_lessNoise_PlusLocalization,2021.2.3,59.95397230797203,
,,,,,,,,midLeft,-13.0,2,ch1Sound_localizationTask.wav,-13.0,"(762, 878)","(-198,-202)",-190,-338,,,,,,,,,,,,,4,1,29,1,,,,,,,,,,,,,,,,,,,,,,,,,,,,,,,,,,,,,,,,1257.9718229062855,None,,,1261.0036302106455,None,1.398941798941799,0.7673214571550488,1261.0036302106455,None,,,,,,,1258.9871185598895,None,1259.1705626696348,1259.1871306272224,,,,,,,177,001,2024_Mar_06_1421,SpeechDraft1Carolyn_lessNoise_PlusLocalization,2021.2.3,59.95397230797203,
,,,,,,,,nearLeft,-6.5,1,ch1Sound_localizationTask.wav,-6.5,"(857, 878)","(-103,-202)",-95,-338,,,,,,,,,,,,,4,2,30,2,,,,,,,,,,,,,,,,,,,,,,,,,,,,,,,,,,,,,,,,1261.7872822834179,None,,,1264.803658039309,None,1.4148148148148147,1.0658425698056817,1264.803658039309,None,,,,,,,1262.7871756069362,None,1262.9706024257466,1262.9871352184564,,,,,,,177,001,2024_Mar_06_1421,SpeechDraft1Carolyn_lessNoise_PlusLocalization,2021.2.3,59.95397230797203,
,,,,,,,,nearRight,6.5,0,ch1Sound_localizationTask.wav,6.5,"(1047, 878)","(87, -202)",95,-338,,,,,,,,,,,,,4,3,31,4,,,,,,,,,,,,,,,,,,,,,,,,,,,,,,,,,,,,,,,,1265.8709351373836,None,,,1268.8869637753814,None,1.5513227513227514,0.7647315729409456,1268.8869637753814,None,,,,,,,1266.8705083467066,None,1267.0538972727954,1267.0705031855032,,,,,,,177,001,2024_Mar_06_1421,SpeechDraft1Carolyn_lessNoise_PlusLocalization,2021.2.3,59.95397230797203,
,,,,,,,,nearLeft,-6.5,1,ch1Sound_localizationTask.wav,-6.5,"(857, 878)","(-103,-202)",-95,-338,,,,,,,,,,,,,4,4,32,2,,,,,,,,,,,,,,,,,,,,,,,,,,,,,,,,,,,,,,,,1269.6537529127672,None,,,1272.670353088528,None,1.4423280423280422,0.7658536024391651,1272.670353088528,None,,,,,,,1270.653765939176,None,1270.8371902052313,1270.8538493718952,,,,,,,177,001,2024_Mar_06_1421,SpeechDraft1Carolyn_lessNoise_PlusLocalization,2021.2.3,59.95397230797203,
,,,,,,,,midLeft,-13.0,2,ch1Sound_localizationTask.wav,-13.0,"(762, 878)","(-198,-202)",-190,-338,,,,,,,,,,,,,4,5,33,1,,,,,,,,,,,,,,,,,,,,,,,,,,,,,,,,,,,,,,,,1273.437826514244,None,,,1276.4537993995473,None,1.408994708994709,0.9336041053757071,1276.4537993995473,None,,,,,,,1274.4371728198603,None,1274.6205326644704,1274.6372226299718,,,,,,,177,001,2024_Mar_06_1421,SpeechDraft1Carolyn_lessNoise_PlusLocalization,2021.2.3,59.95397230797203,
,,,,,,,,midRight,13.0,3,ch1Sound_localizationTask.wav,13.0,"(1142, 878)","(182, -202)",190,-338,,,,,,,,,,,,,4,6,34,5,,,,,,,,,,,,,,,,,,,,,,,,,,,,,,,,,,,,,,,,1277.4039360284805,None,,,1280.4202742334455,None,1.6222222222222222,1.0822226786985993,1280.4202742334455,None,,,,,,,1278.4038629829884,None,1278.5871542179957,1278.6038709767163,,,,,,,177,001,2024_Mar_06_1421,SpeechDraft1Carolyn_lessNoise_PlusLocalization,2021.2.3,59.95397230797203,
,,,,,,,,nearLeft,-6.5,1,ch1Sound_localizationTask.wav,-6.5,"(857, 878)","(-103,-202)",-95,-338,,,,,,,,,,,,,5,0,35,2,,,,,,,,,,,,,,,,,,,,,,,,,,,,,,,,,,,,,,,,1281.5037809628993,None,,,1284.5202636700124,None,1.438095238095238,0.7512735165655613,1284.5202636700124,None,,,,,,,1282.5038784304634,None,1282.6871807426214,1282.7039041770622,,,,,,,177,001,2024_Mar_06_1421,SpeechDraft1Carolyn_lessNoise_PlusLocalization,2021.2.3,59.95397230797203,
,,,,,,,,nearLeft,-6.5,1,ch1Sound_localizationTask.wav,-6.5,"(857, 878)","(-103,-202)",-95,-338,,,,,,,,,,,,,5,1,36,2,,,,,,,,,,,,,,,,,,,,,,,,,,,,,,,,,,,,,,,,1285.2872476540506,None,,,1288.3035991489887,None,1.4555555555555555,0.882173671387136,1288.3035991489887,None,,,,,,,1286.2871516915038,None,1286.4706303710118,1286.4872081493959,,,,,,,177,001,2024_Mar_06_1421,SpeechDraft1Carolyn_lessNoise_PlusLocalization,2021.2.3,59.95397230797203,
,,,,,,,,center,0.0,6,ch1Sound_localizationTask.wav,0.0,"(952, 878)","(-8,-202)",0,-338,,,,,,,,,,,,,5,2,37,3,,,,,,,,,,,,,,,,,,,,,,,,,,,,,,,,,,,,,,,,1289.1872876100242,None,,,1292.203621616587,None,1.4936507936507937,0.9657516842707992,1292.203621616587,None,,,,,,,1290.1871666656807,None,1290.370600150898,1290.3872328232974,,,,,,,177,001,2024_Mar_06_1421,SpeechDraft1Carolyn_lessNoise_PlusLocalization,2021.2.3,59.95397230797203,
,,,,,,,,midLeft,-13.0,2,ch1Sound_localizationTask.wav,-13.0,"(762, 878)","(-198,-202)",-190,-338,,,,,,,,,,,,,5,3,38,1,,,,,,,,,,,,,,,,,,,,,,,,,,,,,,,,,,,,,,,,1293.1709682820365,None,,,1296.1869994187728,None,1.4962962962962962,0.6497068461030722,1296.1869994187728,None,,,,,,,1294.1705411151052,None,1294.3539803540334,1294.3705045776442,,,,,,,177,001,2024_Mar_06_1421,SpeechDraft1Carolyn_lessNoise_PlusLocalization,2021.2.3,59.95397230797203,
,,,,,,,,farLeft,-19.1,5,ch1Sound_localizationTask.wav,-19.1,"(667, 878)","(-293,-202)",-285,-338,,,,,,,,,,,,,5,4,39,0,,,,,,,,,,,,,,,,,,,,,,,,,,,,,,,,,,,,,,,,1296.837593528442,None,,,1299.8536452287808,None,1.4968253968253968,0.5660784281790257,1299.8536452287808,None,,,,,,,1297.8372369278222,None,1298.0205103196204,1298.037230771035,,,,,,,177,001,2024_Mar_06_1421,SpeechDraft1Carolyn_lessNoise_PlusLocalization,2021.2.3,59.95397230797203,
,,,,,,,,nearLeft,-6.5,1,ch1Sound_localizationTask.wav,-6.5,"(857, 878)","(-103,-202)",-95,-338,,,,,,,,,,,,,5,5,40,2,,,,,,,,,,,,,,,,,,,,,,,,,,,,,,,,,,,,,,,,1300.420528032817,None,,,1303.4369143769145,None,1.4968253968253968,0.48309505358338356,1303.4369143769145,None,,,,,,,1301.4205843508244,None,1301.6037649801,1301.6205132892355,,,,,,,177,001,2024_Mar_06_1421,SpeechDraft1Carolyn_lessNoise_PlusLocalization,2021.2.3,59.95397230797203,
,,,,,,,,nearRight,6.5,0,ch1Sound_localizationTask.wav,6.5,"(1047, 878)","(87, -202)",95,-338,,,,,,,,,,,,,5,6,41,4,,,,,,,,,,,,,,,,,,,,,,,,,,,,,,,,,,,,,,,,1303.9205094566569,None,,,1306.9369335416704,None,1.4973544973544972,0.699519557878375,1306.9369335416704,None,,,,,,,1304.9205183256418,None,1305.1038534976542,1305.1204553330317,,,,,,,177,001,2024_Mar_06_1421,SpeechDraft1Carolyn_lessNoise_PlusLocalization,2021.2.3,59.95397230797203,
,,,,,,,,center,0.0,6,ch1Sound_localizationTask.wav,0.0,"(952, 878)","(-8,-202)",0,-338,,,,,,,,,,,,,6,0,42,3,,,,,,,,,,,,,,,,,,,,,,,,,,,,,,,,,,,,,,,,1307.6372040733695,None,,,1310.6536972895265,None,1.4973544973544972,0.3328159926459193,1310.6536972895265,None,,,,,,,1308.6371975764632,None,1308.8205259563401,1308.8372444761917,,,,,,,177,001,2024_Mar_06_1421,SpeechDraft1Carolyn_lessNoise_PlusLocalization,2021.2.3,59.95397230797203,
,,,,,,,,farLeft,-19.1,5,ch1Sound_localizationTask.wav,-19.1,"(667, 878)","(-293,-202)",-285,-338,,,,,,,,,,,,,6,1,43,0,,,,,,,,,,,,,,,,,,,,,,,,,,,,,,,,,,,,,,,,1310.9873045217246,None,,,1314.0036858869717,None,1.4973544973544972,0.13198747020214796,1314.0036858869717,None,,,,,,,1311.98725170549,None,1312.1705456003547,1312.187250659801,,,,,,,177,001,2024_Mar_06_1421,SpeechDraft1Carolyn_lessNoise_PlusLocalization,2021.2.3,59.95397230797203,
,,,,,,,,farRight,19.1,4,ch1Sound_localizationTask.wav,19.1,"(1237, 878)","(277,-202)",285,-338,,,,,,,,,,,,,6,2,44,6,,,,,,,,,,,,,,,,,,,,,,,,,,,,,,,,,,,,,,,,1314.1370835322887,None,,,1317.1536228116602,None,1.5,0.031704274006187916,1317.1536228116602,None,,,,,,,1315.1371932812035,None,1315.320595111698,1315.3372004199773,,,,,,,177,001,2024_Mar_06_1421,SpeechDraft1Carolyn_lessNoise_PlusLocalization,2021.2.3,59.95397230797203,
,,,,,,,,farLeft,-19.1,5,ch1Sound_localizationTask.wav,-19.1,"(667, 878)","(-293,-202)",-285,-338,,,,,,,,,,,,,6,3,45,0,,,,,,,,,,,,,,,,,,,,,,,,,,,,,,,,,,,,,,,,1317.1872564246878,None,,,1320.2037240434438,None,1.5037037037037035,0.032098677940666676,1320.2037240434438,None,,,,,,,1318.1875443710014,None,1318.3705404419452,1318.387232111767,,,,,,,177,001,2024_Mar_06_1421,SpeechDraft1Carolyn_lessNoise_PlusLocalization,2021.2.3,59.95397230797203,
,,,,,,,,midLeft,-13.0,2,ch1Sound_localizationTask.wav,-13.0,"(762, 878)","(-198,-202)",-190,-338,,,,,,,,,,,,,6,4,46,1,,,,,,,,,,,,,,,,,,,,,,,,,,,,,,,,,,,,,,,,1320.237232583575,None,,,1323.2537143537775,None,1.5037037037037035,0.34928631596267223,1323.2537143537775,None,,,,,,,1321.2372515313327,None,1321.4205525750294,1321.4372518332675,,,,,,,177,001,2024_Mar_06_1421,SpeechDraft1Carolyn_lessNoise_PlusLocalization,2021.2.3,59.95397230797203,
,,,,,,,,nearRight,6.5,0,ch1Sound_localizationTask.wav,6.5,"(1047, 878)","(87, -202)",95,-338,,,,,,,,,,,,,6,5,47,4,,,,,,,,,,,,,,,,,,,,,,,,,,,,,,,,,,,,,,,,1323.6038129664958,None,,,1326.6203806679696,None,1.505820105820106,0.6990750217810273,1326.6203806679696,None,,,,,,,1324.6039402000606,None,1324.7872945796698,1324.8038858333603,,,,,,,177,001,2024_Mar_06_1421,SpeechDraft1Carolyn_lessNoise_PlusLocalization,2021.2.3,59.95397230797203,
,,,,,,,,nearRight,6.5,0,ch1Sound_localizationTask.wav,6.5,"(1047, 878)","(87, -202)",95,-338,,,,,,,,,,,,,6,6,48,4,,,,,,,,,,,,,,,,,,,,,,,,,,,,,,,,,,,,,,,,1327.3206172054633,None,,,1330.3370468812063,None,1.505820105820106,0.06628187373280525,1330.3370468812063,None,,,,,,,1328.3206972498447,None,1328.503866343759,1328.5205929698423,,,,,,,177,001,2024_Mar_06_1421,SpeechDraft1Carolyn_lessNoise_PlusLocalization,2021.2.3,59.95397230797203,
,,,,,,,,farLeft,-19.1,5,ch1Sound_localizationTask.wav,-19.1,"(667, 878)","(-293,-202)",-285,-338,,,,,,,,,,,,,7,0,49,0,,,,,,,,,,,,,,,,,,,,,,,,,,,,,,,,,,,,,,,,1330.403940949589,None,,,1333.4204814182594,None,1.506878306878307,0.6327606262639165,1333.4204814182594,None,,,,,,,1331.4040064867586,None,1331.5872565964237,1331.6038669291884,,,,,,,177,001,2024_Mar_06_1421,SpeechDraft1Carolyn_lessNoise_PlusLocalization,2021.2.3,59.95397230797203,
,,,,,,,,farLeft,-19.1,5,ch1Sound_localizationTask.wav,-19.1,"(667, 878)","(-293,-202)",-285,-338,,,,,,,,,,,,,7,1,50,0,,,,,,,,,,,,,,,,,,,,,,,,,,,,,,,,,,,,,,,,1334.0539455609396,None,,,1337.0703462958336,None,1.506878306878307,1.3661459339782596,1337.0703462958336,None,,,,,,,1335.0539152128622,None,1335.2372873853892,1335.2539491429925,,,,,,,177,001,2024_Mar_06_1421,SpeechDraft1Carolyn_lessNoise_PlusLocalization,2021.2.3,59.95397230797203,
,,,,,,,,farRight,19.1,4,ch1Sound_localizationTask.wav,19.1,"(1237, 878)","(277,-202)",285,-338,,,,,,,,,,,,,7,2,51,6,,,,,,,,,,,,,,,,,,,,,,,,,,,,,,,,,,,,,,,,1338.4372455403209,None,,,1341.4537239074707,None,1.506878306878307,0.33240458834916353,1341.4537239074707,None,,,,,,,1339.4373280359432,None,1339.6207870142534,1339.6373535348102,,,,,,,177,001,2024_Mar_06_1421,SpeechDraft1Carolyn_lessNoise_PlusLocalization,2021.2.3,59.95397230797203,
,,,,,,,,farRight,19.1,4,ch1Sound_localizationTask.wav,19.1,"(1237, 878)","(277,-202)",285,-338,,,,,,,,,,,,,7,3,52,6,,,,,,,,,,,,,,,,,,,,,,,,,,,,,,,,,,,,,,,,1341.7872646274045,None,,,1344.8037294922397,None,1.506878306878307,0.3993229791522026,1344.8037294922397,None,,,,,,,1342.7872213684022,None,1342.970633204095,1342.9873605081812,,,,,,,177,001,2024_Mar_06_1421,SpeechDraft1Carolyn_lessNoise_PlusLocalization,2021.2.3,59.95397230797203,
,,,,,,,,farRight,19.1,4,ch1Sound_localizationTask.wav,19.1,"(1237, 878)","(277,-202)",285,-338,,,,,,,,,,,,,7,4,53,6,,,,,,,,,,,,,,,,,,,,,,,,,,,,,,,,,,,,,,,,1345.203831391409,None,,,1348.2204072577879,None,1.506878306878307,0.31615122128278017,1348.2204072577879,None,,,,,,,1346.204031704925,None,1346.3873324738815,1346.4039435405284,,,,,,,177,001,2024_Mar_06_1421,SpeechDraft1Carolyn_lessNoise_PlusLocalization,2021.2.3,59.95397230797203,
,,,,,,,,center,0.0,6,ch1Sound_localizationTask.wav,0.0,"(952, 878)","(-8,-202)",0,-338,,,,,,,,,,,,,7,5,54,3,,,,,,,,,,,,,,,,,,,,,,,,,,,,,,,,,,,,,,,,1348.5374209238216,None,,,1351.5537489168346,None,1.506878306878307,0.1488624745979905,1351.5537489168346,None,,,,,,,1349.5372277237475,None,1349.7206605551764,1349.737414997071,,,,,,,177,001,2024_Mar_06_1421,SpeechDraft1Carolyn_lessNoise_PlusLocalization,2021.2.3,59.95397230797203,
,,,,,,,,farRight,19.1,4,ch1Sound_localizationTask.wav,19.1,"(1237, 878)","(277,-202)",285,-338,,,,,,,,,,,,,7,6,55,6,,,,,,,,,,,,,,,,,,,,,,,,,,,,,,,,,,,,,,,,1351.7039080169052,None,,,1354.7203688174486,None,1.506878306878307,0.1492637237533927,1354.7203688174486,None,,,,,,,1352.7039638040587,None,1352.8873212952167,1352.903970303014,,,,,,,177,001,2024_Mar_06_1421,SpeechDraft1Carolyn_lessNoise_PlusLocalization,2021.2.3,59.95397230797203,
,,,,,,,,,,,,,,,,,,,,,,,,,,,,,,,,,,,,,,,,,,,,,,,,,,,,,,,,,,,,,,,,,,,,,,,,,,,,,,,,,,,,,,,,,,,,1354.8704183427617,None,c,565.5547427535057,1355.853881932795,None,177,001,2024_Mar_06_1421,SpeechDraft1Carolyn_lessNoise_PlusLocalization,2021.2.3,59.95397230797203,
