Audio_Only_Files,Video_Files,Original_Word_List,noiseLevelCode,conditionCodes,noiseLevelFile1,noiseLevelFile2,InstrTextVar,targetSpeakerName,targetSpeakerEccen,targetSpkrChannel,targetSpkrSound,targetVisualDegrees,visStimLoc,visStimLoc2,visStimW,visStimH,practiceTrials.thisRepN,practiceTrials.thisTrialN,practiceTrials.thisN,practiceTrials.thisIndex,trials.thisRepN,trials.thisTrialN,trials.thisN,trials.thisIndex,audLocalLoop.thisRepN,audLocalLoop.thisTrialN,audLocalLoop.thisN,audLocalLoop.thisIndex,visualLocalLoop.thisRepN,visualLocalLoop.thisTrialN,visualLocalLoop.thisN,visualLocalLoop.thisIndex,letsGoAlready.keys,letsGoAlready.rt,letsGoAlready.started,letsGoAlready.stopped,text_2.started,text_2.stopped,text_3.started,text_3.stopped,key_resp_2.keys,key_resp_2.rt,key_resp_2.started,key_resp_2.stopped,text_5.started,text_5.stopped,fixCross.started,fixCross.stopped,fixCross2.started,fixCross2.stopped,answerPrompt.started,answerPrompt.stopped,getAnswer.text,getAnswer.started,getAnswer.stopped,goToNext.keys,goToNext.rt,goToNext.started,goToNext.stopped,stretchBreakTxrt.started,stretchBreakTxrt.stopped,key_resp_3.keys,key_resp_3.rt,key_resp_3.started,key_resp_3.stopped,letsGoLocal.keys,letsGoLocal.rt,letsGoLocal.started,letsGoLocal.stopped,text_4.started,text_4.stopped,prepFixTxt.started,prepFixTxt.stopped,prepFixTxt_2.started,prepFixTxt_2.stopped,respPromptLocal.started,respPromptLocal.stopped,slider.response,slider.rt,slider.started,slider.stopped,letsGoLocal_2.keys,letsGoLocal_2.rt,letsGoLocal_2.started,letsGoLocal_2.stopped,text_7.started,text_7.stopped,prepFixTxt_3.started,prepFixTxt_3.stopped,grating.started,grating.stopped,exitTxt.started,exitTxt.stopped,key_resp.keys,key_resp.rt,key_resp.started,key_resp.stopped,participant,session,date,expName,psychopyVersion,frameRate,
,,,,,,,,,,,,,,,,,,,,,,,,,,,,,,,,,space,145.31844340264797,15.8666378185153,None,,,,,,,,,,,,,,,,,,,,,,,,,,,,,,,,,,,,,,,,,,,,,,,,,,,,,,,,,,,,,,178,001,2024_Mar_06_1658,SpeechDraft1Carolyn_lessNoise_PlusLocalization,2021.2.3,59.90056781484596,
,,,,,,,,,,,,,,,,,,,,,,,,,,,,,,,,,,,,,15.8666378185153,None,161.3162785153836,None,space,12.79727899376303,161.49979410041124,None,,,,,,,,,,,,,,,,,,,,,,,,,,,,,,,,,,,,,,,,,,,,,,,,,,,,,,178,001,2024_Mar_06_1658,SpeechDraft1Carolyn_lessNoise_PlusLocalization,2021.2.3,59.90056781484596,
ash.wav,ash.mpg,ash,1,A,Pink_Noise_1_1.wav,Pink_Noise_1_2.wav,"This is an example of an

AUDIO trial",,,,,,,,,,0,0,0,0,,,,,,,,,,,,,,,,,,,,,,,,,174.33352631516755,None,175.33317734207958,None,178.49955325759947,None,179.86647804267704,None,sesh,179.86647804267704,None,return,31.939240276813507,179.9499328415841,None,,,,,,,,,,,,,,,,,,,,,,,,,,,,,,,,,,,,,,,178,001,2024_Mar_06_1658,SpeechDraft1Carolyn_lessNoise_PlusLocalization,2021.2.3,59.90056781484596,
ash.wav,ash.mpg,ash,1,AV,Pink_Noise_1_1.wav,Pink_Noise_1_2.wav,"This is an example of an

AUDIO + VIDEO  trial",,,,,,,,,,0,1,1,1,,,,,,,,,,,,,,,,,,,,,,,,,211.93285422958434,None,212.93324906006455,None,214.41628787014633,None,215.79991604480892,None,etch,215.79991604480892,None,return,4.829922230914235,215.88326798658818,None,,,,,,,,,,,,,,,,,,,,,,,,,,,,,,,,,,,,,,,178,001,2024_Mar_06_1658,SpeechDraft1Carolyn_lessNoise_PlusLocalization,2021.2.3,59.90056781484596,
,,,,,,,,,,,,,,,,,,,,,,,,,,,,,,,,,,,,,,,,,,,,,,,,,,,,,,,,,,,,220.74960353318602,None,space,32.81186886597425,220.93321640230715,None,,,,,,,,,,,,,,,,,,,,,,,,,,,,,,,,,178,001,2024_Mar_06_1658,SpeechDraft1Carolyn_lessNoise_PlusLocalization,2021.2.3,59.90056781484596,
route.wav,route.mpg,route,3,AV,Pink_Noise_3_1.wav,Pink_Noise_3_2.wav,,,,,,,,,,,,,,,0,0,0,81,,,,,,,,,,,,,,,,,,,,,,,253.7996305245906,None,255.28305301256478,None,256.66660246811807,None,root,256.66660246811807,None,return,10.923124018125236,256.7500127777457,None,,,,,,,,,,,,,,,,,,,,,,,,,,,,,,,,,,,,,,,178,001,2024_Mar_06_1658,SpeechDraft1Carolyn_lessNoise_PlusLocalization,2021.2.3,59.90056781484596,
warmth.wav,warmth.mpg,warmth,5,AV,Pink_Noise_5_1.wav,Pink_Noise_5_2.wav,,,,,,,,,,,,,,,0,1,1,108,,,,,,,,,,,,,,,,,,,,,,,267.6999524887651,None,269.1831637015566,None,270.56661323737353,None,warp,270.56661323737353,None,return,20.08710114657879,270.6499928403646,None,,,,,,,,,,,,,,,,,,,,,,,,,,,,,,,,,,,,,,,178,001,2024_Mar_06_1658,SpeechDraft1Carolyn_lessNoise_PlusLocalization,2021.2.3,59.90056781484596,
flesh.wav,flesh.mpg,flesh,4,A,Pink_Noise_4_1.wav,Pink_Noise_4_2.wav,,,,,,,,,,,,,,,0,2,2,16,,,,,,,,,,,,,,,,,,,,,,,290.76669920422137,None,292.26643620524555,None,293.6501085301861,None,bush,293.6501085301861,None,return,3.907700689509511,293.7333682924509,None,,,,,,,,,,,,,,,,,,,,,,,,,,,,,,,,,,,,,,,178,001,2024_Mar_06_1658,SpeechDraft1Carolyn_lessNoise_PlusLocalization,2021.2.3,59.90056781484596,
two.wav,two.mpg,two,5,A,Pink_Noise_5_1.wav,Pink_Noise_5_2.wav,,,,,,,,,,,,,,,0,3,3,43,,,,,,,,,,,,,,,,,,,,,,,297.66664215922356,None,299.16635497752577,None,300.5500238360837,None,tooth,300.5500238360837,None,return,15.743720105849206,300.63337458577007,None,,,,,,,,,,,,,,,,,,,,,,,,,,,,,,,,,,,,,,,178,001,2024_Mar_06_1658,SpeechDraft1Carolyn_lessNoise_PlusLocalization,2021.2.3,59.90056781484596,
bee.wav,bee.mpg,bee,5,AV,Pink_Noise_5_1.wav,Pink_Noise_5_2.wav,,,,,,,,,,,,,,,0,4,4,75,,,,,,,,,,,,,,,,,,,,,,,316.4000627491623,None,317.89986679609865,None,319.28323543071747,None,"beat
",319.28323543071747,None,return,11.218340835534036,319.3667376646772,None,,,,,,,,,,,,,,,,,,,,,,,,,,,,,,,,,,,,,,,178,001,2024_Mar_06_1658,SpeechDraft1Carolyn_lessNoise_PlusLocalization,2021.2.3,59.90056781484596,
ham.wav,ham.mpg,ham,4,AV,Pink_Noise_4_1.wav,Pink_Noise_4_2.wav,,,,,,,,,,,,,,,0,5,5,99,,,,,,,,,,,,,,,,,,,,,,,330.6167706483975,None,332.1164648011327,None,333.5000395895913,None,am,333.5000395895913,None,return,3.857689445838332,333.58339898008853,None,,,,,,,,,,,,,,,,,,,,,,,,,,,,,,,,,,,,,,,178,001,2024_Mar_06_1658,SpeechDraft1Carolyn_lessNoise_PlusLocalization,2021.2.3,59.90056781484596,
tank.wav,tank.mpg,tank,5,AV,Pink_Noise_5_1.wav,Pink_Noise_5_2.wav,,,,,,,,,,,,,,,0,6,6,91,,,,,,,,,,,,,,,,,,,,,,,337.46674299705774,None,338.9498392082751,None,340.33347108680755,None,type,340.33347108680755,None,return,4.41640533041209,340.41674285847694,None,,,,,,,,,,,,,,,,,,,,,,,,,,,,,,,,,,,,,,,178,001,2024_Mar_06_1658,SpeechDraft1Carolyn_lessNoise_PlusLocalization,2021.2.3,59.90056781484596,
bite.wav,bite.mpg,bite,2,A,Pink_Noise_2_1.wav,Pink_Noise_2_2.wav,,,,,,,,,,,,,,,0,7,7,1,,,,,,,,,,,,,,,,,,,,,,,344.84999692160636,None,346.34976399783045,None,347.73350629769266,None,"bite
",347.73350629769266,None,return,23.200325245968997,347.8167563332245,None,,,,,,,,,,,,,,,,,,,,,,,,,,,,,,,,,,,,,,,178,001,2024_Mar_06_1658,SpeechDraft1Carolyn_lessNoise_PlusLocalization,2021.2.3,59.90056781484596,
duct.wav,duct.mpg,duct,2,A,Pink_Noise_2_1.wav,Pink_Noise_2_2.wav,,,,,,,,,,,,,,,0,8,8,20,,,,,,,,,,,,,,,,,,,,,,,371.0501443175599,None,372.5499575845897,None,373.9334922209382,None,"duct
",373.9334922209382,None,return,7.584241175092757,374.01682904176414,None,,,,,,,,,,,,,,,,,,,,,,,,,,,,,,,,,,,,,,,178,001,2024_Mar_06_1658,SpeechDraft1Carolyn_lessNoise_PlusLocalization,2021.2.3,59.90056781484596,
eight.wav,eight.mpg,eight,2,A,Pink_Noise_2_1.wav,Pink_Noise_2_2.wav,,,,,,,,,,,,,,,0,9,9,42,,,,,,,,,,,,,,,,,,,,,,,381.6334060141817,None,383.1332483291626,None,384.51684092823416,None,"eight
",384.51684092823416,None,return,3.784952704794705,384.6001318106428,None,,,,,,,,,,,,,,,,,,,,,,,,,,,,,,,,,,,,,,,178,001,2024_Mar_06_1658,SpeechDraft1Carolyn_lessNoise_PlusLocalization,2021.2.3,59.90056781484596,
clad.wav,clad.mpg,clad,6,A,Pink_Noise_6_1.wav,Pink_Noise_6_2.wav,,,,,,,,,,,,,,,0,10,10,32,,,,,,,,,,,,,,,,,,,,,,,388.41684142220765,None,389.91657480597496,None,391.3001545611769,None,mall,391.3001545611769,None,return,2.865701354108751,391.38347398117185,None,,,,,,,,,,,,,,,,,,,,,,,,,,,,,,,,,,,,,,,178,001,2024_Mar_06_1658,SpeechDraft1Carolyn_lessNoise_PlusLocalization,2021.2.3,59.90056781484596,
green.wav,green.mpg,green,2,AV,Pink_Noise_2_1.wav,Pink_Noise_2_2.wav,,,,,,,,,,,,,,,0,11,11,88,,,,,,,,,,,,,,,,,,,,,,,394.2668352117762,None,395.750840857625,None,397.1336036529392,None,green,397.1336036529392,None,return,5.01634169369936,397.2168098920956,None,,,,,,,,,,,,,,,,,,,,,,,,,,,,,,,,,,,,,,,178,001,2024_Mar_06_1658,SpeechDraft1Carolyn_lessNoise_PlusLocalization,2021.2.3,59.90056781484596,
glove.wav,glove.mpg,glove,1,AV,Pink_Noise_1_1.wav,Pink_Noise_1_2.wav,,,,,,,,,,,,,,,0,12,12,118,,,,,,,,,,,,,,,,,,,,,,,402.250340398401,None,403.73390956036747,None,405.1165770441294,None,glove,405.1165770441294,None,return,21.624932940118015,405.2001672424376,None,,,,,,,,,,,,,,,,,,,,,,,,,,,,,,,,,,,,,,,178,001,2024_Mar_06_1658,SpeechDraft1Carolyn_lessNoise_PlusLocalization,2021.2.3,59.90056781484596,
shrimp.wav,shrimp.mpg,shrimp,4,AV,Pink_Noise_4_1.wav,Pink_Noise_4_2.wav,,,,,,,,,,,,,,,0,13,13,97,,,,,,,,,,,,,,,,,,,,,,,426.8502356642857,None,428.33333758916706,None,429.71681755036116,None,shrimp,429.71681755036116,None,return,5.208831142634153,429.8002878660336,None,,,,,,,,,,,,,,,,,,,,,,,,,,,,,,,,,,,,,,,178,001,2024_Mar_06_1658,SpeechDraft1Carolyn_lessNoise_PlusLocalization,2021.2.3,59.90056781484596,
catch.wav,catch.mpg,catch,2,A,Pink_Noise_2_1.wav,Pink_Noise_2_2.wav,,,,,,,,,,,,,,,0,14,14,37,,,,,,,,,,,,,,,,,,,,,,,435.0335382036865,None,436.5332557670772,None,437.9169163070619,None,catch,437.9169163070619,None,return,2.3607264822348952,438.0003396803513,None,,,,,,,,,,,,,,,,,,,,,,,,,,,,,,,,,,,,,,,178,001,2024_Mar_06_1658,SpeechDraft1Carolyn_lessNoise_PlusLocalization,2021.2.3,59.90056781484596,
wet.wav,wet.mpg,wet,2,AV,Pink_Noise_2_1.wav,Pink_Noise_2_2.wav,,,,,,,,,,,,,,,0,15,15,109,,,,,,,,,,,,,,,,,,,,,,,440.38356627710164,None,441.8833167301491,None,443.2669484689832,None,wet,443.2669484689832,None,return,10.474957481957972,443.3501373063773,None,,,,,,,,,,,,,,,,,,,,,,,,,,,,,,,,,,,,,,,178,001,2024_Mar_06_1658,SpeechDraft1Carolyn_lessNoise_PlusLocalization,2021.2.3,59.90056781484596,
fraud.wav,fraud.mpg,fraud,1,AV,Pink_Noise_1_1.wav,Pink_Noise_1_2.wav,,,,,,,,,,,,,,,0,16,16,70,,,,,,,,,,,,,,,,,,,,,,,453.85027085617185,None,455.334107411094,None,456.7168834293261,None,fraud,456.7168834293261,None,return,3.70492803491652,456.80021045263857,None,,,,,,,,,,,,,,,,,,,,,,,,,,,,,,,,,,,,,,,178,001,2024_Mar_06_1658,SpeechDraft1Carolyn_lessNoise_PlusLocalization,2021.2.3,59.90056781484596,
fifth.wav,fifth.mpg,fifth,5,AV,Pink_Noise_5_1.wav,Pink_Noise_5_2.wav,,,,,,,,,,,,,,,0,17,17,85,,,,,,,,,,,,,,,,,,,,,,,460.53358439635485,None,462.0333192832768,None,463.41677096299827,None,fifth,463.41677096299827,None,return,5.90880814474076,463.50026192422956,None,,,,,,,,,,,,,,,,,,,,,,,,,,,,,,,,,,,,,,,178,001,2024_Mar_06_1658,SpeechDraft1Carolyn_lessNoise_PlusLocalization,2021.2.3,59.90056781484596,
dawn.wav,dawn.mpg,dawn,1,A,Pink_Noise_1_1.wav,Pink_Noise_1_2.wav,,,,,,,,,,,,,,,0,18,18,51,,,,,,,,,,,,,,,,,,,,,,,469.4336958909407,None,470.91748915519565,None,472.3003314426169,None,dawn,472.3003314426169,None,return,4.073461028747261,472.38368269242346,None,,,,,,,,,,,,,,,,,,,,,,,,,,,,,,,,,,,,,,,178,001,2024_Mar_06_1658,SpeechDraft1Carolyn_lessNoise_PlusLocalization,2021.2.3,59.90056781484596,
cliff.wav,cliff.mpg,cliff,6,A,Pink_Noise_6_1.wav,Pink_Noise_6_2.wav,,,,,,,,,,,,,,,0,19,19,4,,,,,,,,,,,,,,,,,,,,,,,476.4837371939793,None,477.9832405401394,None,479.3668851079419,None,fish,479.3668851079419,None,return,3.0787756200879812,479.45030404254794,None,,,,,,,,,,,,,,,,,,,,,,,,,,,,,,,,,,,,,,,178,001,2024_Mar_06_1658,SpeechDraft1Carolyn_lessNoise_PlusLocalization,2021.2.3,59.90056781484596,
dream.wav,dream.mpg,dream,5,A,Pink_Noise_5_1.wav,Pink_Noise_5_2.wav,,,,,,,,,,,,,,,0,20,20,41,,,,,,,,,,,,,,,,,,,,,,,482.5502094179392,None,484.03453441429883,None,485.41699309367687,None,drink,485.41699309367687,None,return,2.812641923315823,485.50047828722745,None,,,,,,,,,,,,,,,,,,,,,,,,,,,,,,,,,,,,,,,178,001,2024_Mar_06_1658,SpeechDraft1Carolyn_lessNoise_PlusLocalization,2021.2.3,59.90056781484596,
layer.wav,layer.mpg,layer,4,AV,Pink_Noise_4_1.wav,Pink_Noise_4_2.wav,,,,,,,,,,,,,,,0,21,21,103,,,,,,,,,,,,,,,,,,,,,,,488.3335786713287,None,489.8333173682913,None,491.2169477166608,None,layer,491.2169477166608,None,return,6.772949072532356,491.30026006232947,None,,,,,,,,,,,,,,,,,,,,,,,,,,,,,,,,,,,,,,,178,001,2024_Mar_06_1658,SpeechDraft1Carolyn_lessNoise_PlusLocalization,2021.2.3,59.90056781484596,
ask.wav,ask.mpg,ask,2,AV,Pink_Noise_2_1.wav,Pink_Noise_2_2.wav,,,,,,,,,,,,,,,0,22,22,86,,,,,,,,,,,,,,,,,,,,,,,498.10027853306383,None,499.6000163340941,None,500.98356851469725,None,ask,500.98356851469725,None,return,2.310086514800787,501.06699015479535,None,,,,,,,,,,,,,,,,,,,,,,,,,,,,,,,,,,,,,,,178,001,2024_Mar_06_1658,SpeechDraft1Carolyn_lessNoise_PlusLocalization,2021.2.3,59.90056781484596,
clap.wav,clap.mpg,clap,6,AV,Pink_Noise_6_1.wav,Pink_Noise_6_2.wav,,,,,,,,,,,,,,,0,23,23,117,,,,,,,,,,,,,,,,,,,,,,,503.4003833429888,None,504.9000373445451,None,506.28376652207226,None,"clap
",506.28376652207226,None,return,11.58617816772312,506.3669063625857,None,,,,,,,,,,,,,,,,,,,,,,,,,,,,,,,,,,,,,,,178,001,2024_Mar_06_1658,SpeechDraft1Carolyn_lessNoise_PlusLocalization,2021.2.3,59.90056781484596,
spire.wav,spire.mpg,spire,4,A,Pink_Noise_4_1.wav,Pink_Noise_4_2.wav,,,,,,,,,,,,,,,0,24,24,56,,,,,,,,,,,,,,,,,,,,,,,517.9836764642969,None,519.4834029041231,None,520.8670308310539,None,spire,520.8670308310539,None,return,3.794733975082636,520.9503453737125,None,,,,,,,,,,,,,,,,,,,,,,,,,,,,,,,,,,,,,,,178,001,2024_Mar_06_1658,SpeechDraft1Carolyn_lessNoise_PlusLocalization,2021.2.3,59.90056781484596,
shed.wav,shed.mpg,shed,6,AV,Pink_Noise_6_1.wav,Pink_Noise_6_2.wav,,,,,,,,,,,,,,,0,25,25,94,,,,,,,,,,,,,,,,,,,,,,,524.766951858066,None,526.2667200099677,None,527.650272754021,None,jay,527.650272754021,None,return,2.7874434906989336,527.7336291549727,None,,,,,,,,,,,,,,,,,,,,,,,,,,,,,,,,,,,,,,,178,001,2024_Mar_06_1658,SpeechDraft1Carolyn_lessNoise_PlusLocalization,2021.2.3,59.90056781484596,
flow.wav,flow.mpg,flow,6,AV,Pink_Noise_6_1.wav,Pink_Noise_6_2.wav,,,,,,,,,,,,,,,0,26,26,63,,,,,,,,,,,,,,,,,,,,,,,530.5503781111911,None,532.03541224543,None,533.4169969446957,None,flow,533.4169969446957,None,return,2.9728364450857043,533.5003410838544,None,,,,,,,,,,,,,,,,,,,,,,,,,,,,,,,,,,,,,,,178,001,2024_Mar_06_1658,SpeechDraft1Carolyn_lessNoise_PlusLocalization,2021.2.3,59.90056781484596,
crack.wav,crack.mpg,crack,4,AV,Pink_Noise_4_1.wav,Pink_Noise_4_2.wav,,,,,,,,,,,,,,,0,27,27,116,,,,,,,,,,,,,,,,,,,,,,,536.5003538830206,None,538.0000646794215,None,539.3837252557278,None,crack,539.3837252557278,None,return,2.8460645768791437,539.4670905349776,None,,,,,,,,,,,,,,,,,,,,,,,,,,,,,,,,,,,,,,,178,001,2024_Mar_06_1658,SpeechDraft1Carolyn_lessNoise_PlusLocalization,2021.2.3,59.90056781484596,
gas.wav,gas.mpg,gas,3,AV,Pink_Noise_3_1.wav,Pink_Noise_3_2.wav,,,,,,,,,,,,,,,0,28,28,87,,,,,,,,,,,,,,,,,,,,,,,542.3336596935987,None,543.8186361975968,None,545.2005027877167,None,gasp,545.2005027877167,None,return,3.189499583095312,545.2836951613426,None,,,,,,,,,,,,,,,,,,,,,,,,,,,,,,,,,,,,,,,178,001,2024_Mar_06_1658,SpeechDraft1Carolyn_lessNoise_PlusLocalization,2021.2.3,59.90056781484596,
dirt.wav,dirt.mpg,dirt,1,A,Pink_Noise_1_1.wav,Pink_Noise_1_2.wav,,,,,,,,,,,,,,,0,29,29,49,,,,,,,,,,,,,,,,,,,,,,,548.5003950726241,None,550.0000845147297,None,551.3837286932394,None,dirt,551.3837286932394,None,return,2.2540371185168624,551.4670324353501,None,,,,,,,,,,,,,,,,,,,,,,,,,,,,,,,,,,,,,,,178,001,2024_Mar_06_1658,SpeechDraft1Carolyn_lessNoise_PlusLocalization,2021.2.3,59.90056781484596,
strike.wav,strike.mpg,strike,2,AV,Pink_Noise_2_1.wav,Pink_Noise_2_2.wav,,,,,,,,,,,,,,,0,30,30,83,,,,,,,,,,,,,,,,,,,,,,,553.7503588693216,None,555.2508077174425,None,556.63362499699,None,strike,556.63362499699,None,return,8.299986248835921,556.7170741287991,None,,,,,,,,,,,,,,,,,,,,,,,,,,,,,,,,,,,,,,,178,001,2024_Mar_06_1658,SpeechDraft1Carolyn_lessNoise_PlusLocalization,2021.2.3,59.90056781484596,
code.wav,code.mpg,code,3,A,Pink_Noise_3_1.wav,Pink_Noise_3_2.wav,,,,,,,,,,,,,,,0,31,31,10,,,,,,,,,,,,,,,,,,,,,,,565.033775283955,None,566.5334101486951,None,567.9170468831435,None,cove,567.9170468831435,None,return,2.696788334287703,568.0003654072061,None,,,,,,,,,,,,,,,,,,,,,,,,,,,,,,,,,,,,,,,178,001,2024_Mar_06_1658,SpeechDraft1Carolyn_lessNoise_PlusLocalization,2021.2.3,59.90056781484596,
dial.wav,dial.mpg,dial,3,A,Pink_Noise_3_1.wav,Pink_Noise_3_2.wav,,,,,,,,,,,,,,,0,32,32,12,,,,,,,,,,,,,,,,,,,,,,,570.7171319108456,None,572.2168464884162,None,573.6004804521799,None,dial,573.6004804521799,None,return,2.229296389967203,573.6837882483378,None,,,,,,,,,,,,,,,,,,,,,,,,,,,,,,,,,,,,,,,178,001,2024_Mar_06_1658,SpeechDraft1Carolyn_lessNoise_PlusLocalization,2021.2.3,59.90056781484596,
bloat.wav,bloat.mpg,bloat,1,AV,Pink_Noise_1_1.wav,Pink_Noise_1_2.wav,,,,,,,,,,,,,,,0,33,33,112,,,,,,,,,,,,,,,,,,,,,,,575.9338050466031,None,577.4335658270866,None,578.8170082913712,None,blote,578.8170082913712,None,return,3.548744661733508,578.9004087727517,None,,,,,,,,,,,,,,,,,,,,,,,,,,,,,,,,,,,,,,,178,001,2024_Mar_06_1658,SpeechDraft1Carolyn_lessNoise_PlusLocalization,2021.2.3,59.90056781484596,
dark.wav,dark.mpg,dark,5,AV,Pink_Noise_5_1.wav,Pink_Noise_5_2.wav,,,,,,,,,,,,,,,0,34,34,69,,,,,,,,,,,,,,,,,,,,,,,582.4671164592728,None,583.9667879054323,None,585.3503872789443,None,"sung
",585.3503872789443,None,return,3.335350776091218,585.4337376281619,None,,,,,,,,,,,,,,,,,,,,,,,,,,,,,,,,,,,,,,,178,001,2024_Mar_06_1658,SpeechDraft1Carolyn_lessNoise_PlusLocalization,2021.2.3,59.90056781484596,
slush.wav,slush.mpg,slush,2,A,Pink_Noise_2_1.wav,Pink_Noise_2_2.wav,,,,,,,,,,,,,,,0,35,35,48,,,,,,,,,,,,,,,,,,,,,,,588.8004065752029,None,590.3001166032627,None,591.6839796658605,None,slush,591.6839796658605,None,return,4.865962180308998,591.767161861062,None,,,,,,,,,,,,,,,,,,,,,,,,,,,,,,,,,,,,,,,178,001,2024_Mar_06_1658,SpeechDraft1Carolyn_lessNoise_PlusLocalization,2021.2.3,59.90056781484596,
bridge.wav,bridge.mpg,bridge,5,AV,Pink_Noise_5_1.wav,Pink_Noise_5_2.wav,,,,,,,,,,,,,,,0,36,36,77,,,,,,,,,,,,,,,,,,,,,,,596.6504870252684,None,598.150166304782,None,599.5336955571547,None,ridge,599.5336955571547,None,return,6.360013410449028,599.6170742176473,None,,,,,,,,,,,,,,,,,,,,,,,,,,,,,,,,,,,,,,,178,001,2024_Mar_06_1658,SpeechDraft1Carolyn_lessNoise_PlusLocalization,2021.2.3,59.90056781484596,
blade.wav,blade.mpg,blade,1,AV,Pink_Noise_1_1.wav,Pink_Noise_1_2.wav,,,,,,,,,,,,,,,0,37,37,106,,,,,,,,,,,,,,,,,,,,,,,606.0004765931517,None,607.5001428397372,None,608.8836702341214,None,"blade
",608.8836702341214,None,return,7.3698153318837285,608.9672464737669,None,,,,,,,,,,,,,,,,,,,,,,,,,,,,,,,,,,,,,,,178,001,2024_Mar_06_1658,SpeechDraft1Carolyn_lessNoise_PlusLocalization,2021.2.3,59.90056781484596,
sun.wav,sun.mpg,sun,1,AV,Pink_Noise_1_1.wav,Pink_Noise_1_2.wav,,,,,,,,,,,,,,,0,38,38,107,,,,,,,,,,,,,,,,,,,,,,,616.3670838773251,None,617.8668912742287,None,619.2503082547337,None,"sun
",619.2503082547337,None,return,3.451267204247415,619.3338189972565,None,,,,,,,,,,,,,,,,,,,,,,,,,,,,,,,,,,,,,,,178,001,2024_Mar_06_1658,SpeechDraft1Carolyn_lessNoise_PlusLocalization,2021.2.3,59.90056781484596,
blend.wav,blend.mpg,blend,5,A,Pink_Noise_5_1.wav,Pink_Noise_5_2.wav,,,,,,,,,,,,,,,0,39,39,29,,,,,,,,,,,,,,,,,,,,,,,622.8171073207632,None,624.3168811760843,None,625.7005176451057,None,light,625.7005176451057,None,return,2.9133414244279265,625.7837978601456,None,,,,,,,,,,,,,,,,,,,,,,,,,,,,,,,,,,,,,,,178,001,2024_Mar_06_1658,SpeechDraft1Carolyn_lessNoise_PlusLocalization,2021.2.3,59.90056781484596,
fan.wav,fan.mpg,fan,2,A,Pink_Noise_2_1.wav,Pink_Noise_2_2.wav,,,,,,,,,,,,,,,0,40,40,23,,,,,,,,,,,,,,,,,,,,,,,628.7171278977767,None,630.2168929325417,None,631.6005722116679,None,fan,631.6005722116679,None,return,1.8052765829488635,631.6839348515496,None,,,,,,,,,,,,,,,,,,,,,,,,,,,,,,,,,,,,,,,178,001,2024_Mar_06_1658,SpeechDraft1Carolyn_lessNoise_PlusLocalization,2021.2.3,59.90056781484596,
truck.wav,truck.mpg,truck,1,AV,Pink_Noise_1_1.wav,Pink_Noise_1_2.wav,,,,,,,,,,,,,,,0,41,41,79,,,,,,,,,,,,,,,,,,,,,,,633.5172399049625,None,635.0168772628531,None,636.4005231177434,None,truck,636.4005231177434,None,return,12.709249088540673,636.4838198833168,None,,,,,,,,,,,,,,,,,,,,,,,,,,,,,,,,,,,,,,,178,001,2024_Mar_06_1658,SpeechDraft1Carolyn_lessNoise_PlusLocalization,2021.2.3,59.90056781484596,
dent.wav,dent.mpg,dent,3,AV,Pink_Noise_3_1.wav,Pink_Noise_3_2.wav,,,,,,,,,,,,,,,0,42,42,92,,,,,,,,,,,,,,,,,,,,,,,649.2171298433095,None,650.7169631253928,None,652.1004719026387,None,dent,652.1004719026387,None,return,2.0653003016486764,652.1838560607284,None,,,,,,,,,,,,,,,,,,,,,,,,,,,,,,,,,,,,,,,178,001,2024_Mar_06_1658,SpeechDraft1Carolyn_lessNoise_PlusLocalization,2021.2.3,59.90056781484596,
fun.wav,fun.mpg,fun,4,AV,Pink_Noise_4_1.wav,Pink_Noise_4_2.wav,,,,,,,,,,,,,,,0,43,43,104,,,,,,,,,,,,,,,,,,,,,,,654.267164488323,None,655.766924877651,None,657.1506535094231,None,fun,657.1506535094231,None,return,2.6952423276379704,657.2338430564851,None,,,,,,,,,,,,,,,,,,,,,,,,,,,,,,,,,,,,,,,178,001,2024_Mar_06_1658,SpeechDraft1Carolyn_lessNoise_PlusLocalization,2021.2.3,59.90056781484596,
blot.wav,blot.mpg,blot,4,AV,Pink_Noise_4_1.wav,Pink_Noise_4_2.wav,,,,,,,,,,,,,,,0,44,44,102,,,,,,,,,,,,,,,,,,,,,,,659.9505689404905,None,661.4504138156772,None,662.8337837988511,None,"blot
",662.8337837988511,None,return,2.667864534072578,662.9172647958621,None,,,,,,,,,,,,,,,,,,,,,,,,,,,,,,,,,,,,,,,178,001,2024_Mar_06_1658,SpeechDraft1Carolyn_lessNoise_PlusLocalization,2021.2.3,59.90056781484596,
clay.wav,clay.mpg,clay,4,A,Pink_Noise_4_1.wav,Pink_Noise_4_2.wav,,,,,,,,,,,,,,,0,45,45,36,,,,,,,,,,,,,,,,,,,,,,,665.6173036824912,None,667.1169500760734,None,668.5004954002798,None,"cove
",668.5004954002798,None,return,8.985313859768212,668.5837708972394,None,,,,,,,,,,,,,,,,,,,,,,,,,,,,,,,,,,,,,,,178,001,2024_Mar_06_1658,SpeechDraft1Carolyn_lessNoise_PlusLocalization,2021.2.3,59.90056781484596,
news.wav,news.mpg,news,6,A,Pink_Noise_6_1.wav,Pink_Noise_6_2.wav,,,,,,,,,,,,,,,0,46,46,5,,,,,,,,,,,,,,,,,,,,,,,677.6004841169342,None,679.1003735978156,None,680.4838701132685,None,,680.4838701132685,None,return,1.2979429541155696,680.5671819569543,None,,,,,,,,,,,,,,,,,,,,,,,,,,,,,,,,,,,,,,,178,001,2024_Mar_06_1658,SpeechDraft1Carolyn_lessNoise_PlusLocalization,2021.2.3,59.90056781484596,
dock.wav,dock.mpg,dock,1,A,Pink_Noise_1_1.wav,Pink_Noise_1_2.wav,,,,,,,,,,,,,,,0,47,47,45,,,,,,,,,,,,,,,,,,,,,,,681.883831157349,None,683.3836863366887,None,684.7671850854531,None,duck,684.7671850854531,None,return,2.4624484721571207,684.8506216015667,None,,,,,,,,,,,,,,,,,,,,,,,,,,,,,,,,,,,,,,,178,001,2024_Mar_06_1658,SpeechDraft1Carolyn_lessNoise_PlusLocalization,2021.2.3,59.90056781484596,
fierce.wav,fierce.mpg,fierce,4,AV,Pink_Noise_4_1.wav,Pink_Noise_4_2.wav,,,,,,,,,,,,,,,0,48,48,82,,,,,,,,,,,,,,,,,,,,,,,687.3338202936575,None,688.8336258791387,None,690.2171718087047,None,fierce,690.2171718087047,None,return,3.340586293488741,690.3005907461047,None,,,,,,,,,,,,,,,,,,,,,,,,,,,,,,,,,,,,,,,178,001,2024_Mar_06_1658,SpeechDraft1Carolyn_lessNoise_PlusLocalization,2021.2.3,59.90056781484596,
dish.wav,dish.mpg,dish,2,AV,Pink_Noise_2_1.wav,Pink_Noise_2_2.wav,,,,,,,,,,,,,,,0,49,49,74,,,,,,,,,,,,,,,,,,,,,,,693.6673436295241,None,695.166981369257,None,696.5504746353254,None,"dish
",696.5504746353254,None,return,14.567132391035557,696.6339384187013,None,,,,,,,,,,,,,,,,,,,,,,,,,,,,,,,,,,,,,,,178,001,2024_Mar_06_1658,SpeechDraft1Carolyn_lessNoise_PlusLocalization,2021.2.3,59.90056781484596,
brow.wav,brow.mpg,brow,6,AV,Pink_Noise_6_1.wav,Pink_Noise_6_2.wav,,,,,,,,,,,,,,,0,50,50,61,,,,,,,,,,,,,,,,,,,,,,,711.2339164931327,None,712.7337514357641,None,714.1173657393083,None,brow,714.1173657393083,None,return,2.7044436056166887,714.2006538212299,None,,,,,,,,,,,,,,,,,,,,,,,,,,,,,,,,,,,,,,,178,001,2024_Mar_06_1658,SpeechDraft1Carolyn_lessNoise_PlusLocalization,2021.2.3,59.90056781484596,
awe.wav,awe.mpg,awe,3,AV,Pink_Noise_3_1.wav,Pink_Noise_3_2.wav,,,,,,,,,,,,,,,0,51,51,80,,,,,,,,,,,,,,,,,,,,,,,716.9339444357902,None,718.4338641185313,None,719.8172146659344,None,aw,719.8172146659344,None,return,5.276513393037021,719.9005606723949,None,,,,,,,,,,,,,,,,,,,,,,,,,,,,,,,,,,,,,,,178,001,2024_Mar_06_1658,SpeechDraft1Carolyn_lessNoise_PlusLocalization,2021.2.3,59.90056781484596,
guess.wav,guess.mpg,guess,5,AV,Pink_Noise_5_1.wav,Pink_Noise_5_2.wav,,,,,,,,,,,,,,,0,52,52,84,,,,,,,,,,,,,,,,,,,,,,,725.2006580997258,None,726.7004250772297,None,728.0838602222502,None,desl,728.0838602222502,None,return,2.8098259195685387,728.1672399425879,None,,,,,,,,,,,,,,,,,,,,,,,,,,,,,,,,,,,,,,,178,001,2024_Mar_06_1658,SpeechDraft1Carolyn_lessNoise_PlusLocalization,2021.2.3,59.90056781484596,
bare.wav,bare.mpg,bare,1,A,Pink_Noise_1_1.wav,Pink_Noise_1_2.wav,,,,,,,,,,,,,,,0,53,53,34,,,,,,,,,,,,,,,,,,,,,,,731.0006164759398,None,732.5004030643031,None,733.8839106755331,None,bear,733.8839106755331,None,return,6.545692937448621,733.9673951063305,None,,,,,,,,,,,,,,,,,,,,,,,,,,,,,,,,,,,,,,,178,001,2024_Mar_06_1658,SpeechDraft1Carolyn_lessNoise_PlusLocalization,2021.2.3,59.90056781484596,
flank.wav,flank.mpg,flank,1,A,Pink_Noise_1_1.wav,Pink_Noise_1_2.wav,,,,,,,,,,,,,,,0,54,54,54,,,,,,,,,,,,,,,,,,,,,,,740.5340604865924,None,742.0336334556341,None,743.4175037834793,None,flank,743.4175037834793,None,return,25.076454902999103,743.5006572715938,None,,,,,,,,,,,,,,,,,,,,,,,,,,,,,,,,,,,,,,,178,001,2024_Mar_06_1658,SpeechDraft1Carolyn_lessNoise_PlusLocalization,2021.2.3,59.90056781484596,
goose.wav,goose.mpg,goose,3,AV,Pink_Noise_3_1.wav,Pink_Noise_3_2.wav,,,,,,,,,,,,,,,0,55,55,64,,,,,,,,,,,,,,,,,,,,,,,768.6007237043232,None,770.1004400588572,None,771.4840413145721,None,goose,771.4840413145721,None,return,12.08174840733409,771.5673898132518,None,,,,,,,,,,,,,,,,,,,,,,,,,,,,,,,,,,,,,,,178,001,2024_Mar_06_1658,SpeechDraft1Carolyn_lessNoise_PlusLocalization,2021.2.3,59.90056781484596,
firm.wav,firm.mpg,firm,6,A,Pink_Noise_6_1.wav,Pink_Noise_6_2.wav,,,,,,,,,,,,,,,0,56,56,33,,,,,,,,,,,,,,,,,,,,,,,783.6673198500648,None,785.1670722095296,None,786.5507416194305,None,bird,786.5507416194305,None,return,17.215059326961637,786.6341117052361,None,,,,,,,,,,,,,,,,,,,,,,,,,,,,,,,,,,,,,,,178,001,2024_Mar_06_1658,SpeechDraft1Carolyn_lessNoise_PlusLocalization,2021.2.3,59.90056781484596,
flog.wav,flog.mpg,flog,2,AV,Pink_Noise_2_1.wav,Pink_Noise_2_2.wav,,,,,,,,,,,,,,,0,57,57,65,,,,,,,,,,,,,,,,,,,,,,,803.8674341663718,None,805.3670805767179,None,806.7506777467206,None,flawed,806.7506777467206,None,return,7.391067389398813,806.8339993264526,None,,,,,,,,,,,,,,,,,,,,,,,,,,,,,,,,,,,,,,,178,001,2024_Mar_06_1658,SpeechDraft1Carolyn_lessNoise_PlusLocalization,2021.2.3,59.90056781484596,
crow.wav,crow.mpg,crow,6,A,Pink_Noise_6_1.wav,Pink_Noise_6_2.wav,,,,,,,,,,,,,,,0,58,58,38,,,,,,,,,,,,,,,,,,,,,,,814.2507229121402,None,815.7510239602998,None,817.1340377209708,None,"row
",817.1340377209708,None,return,6.567680437117815,817.2174105318263,None,,,,,,,,,,,,,,,,,,,,,,,,,,,,,,,,,,,,,,,178,001,2024_Mar_06_1658,SpeechDraft1Carolyn_lessNoise_PlusLocalization,2021.2.3,59.90056781484596,
blaze.wav,blaze.mpg,blaze,1,A,Pink_Noise_1_1.wav,Pink_Noise_1_2.wav,,,,,,,,,,,,,,,0,59,59,31,,,,,,,,,,,,,,,,,,,,,,,823.8173838993534,None,825.3171456810087,None,826.7006946988404,None,blaze,826.7006946988404,None,return,7.065135131590068,826.7840468836948,None,,,,,,,,,,,,,,,,,,,,,,,,,,,,,,,,,,,,,,,178,001,2024_Mar_06_1658,SpeechDraft1Carolyn_lessNoise_PlusLocalization,2021.2.3,59.90056781484596,
ton.wav,ton.mpg,ton,5,A,Pink_Noise_5_1.wav,Pink_Noise_5_2.wav,,,,,,,,,,,,,,,0,60,60,0,,,,,,,,,,,,,,,,,,,,,,,833.8674747496843,None,835.367116634734,None,836.7506785318255,None,,836.7506785318255,None,return,1.110909380018711,836.8341721445322,None,,,,,,,,,,,,,,,,,,,,,,,,,,,,,,,,,,,,,,,178,001,2024_Mar_06_1658,SpeechDraft1Carolyn_lessNoise_PlusLocalization,2021.2.3,59.90056781484596,
dance.wav,dance.mpg,dance,1,A,Pink_Noise_1_1.wav,Pink_Noise_1_2.wav,,,,,,,,,,,,,,,0,61,61,9,,,,,,,,,,,,,,,,,,,,,,,837.9673973601311,None,839.4671464012936,None,840.8506598360837,None,"dance
",840.8506598360837,None,return,3.434927902184427,840.9341456778347,None,,,,,,,,,,,,,,,,,,,,,,,,,,,,,,,,,,,,,,,178,001,2024_Mar_06_1658,SpeechDraft1Carolyn_lessNoise_PlusLocalization,2021.2.3,59.90056781484596,
grain.wav,grain.mpg,grain,4,A,Pink_Noise_4_1.wav,Pink_Noise_4_2.wav,,,,,,,,,,,,,,,0,62,62,35,,,,,,,,,,,,,,,,,,,,,,,844.4008171223104,None,845.900487434119,None,847.2841306012124,None,"string
",847.2841306012124,None,return,2.801702432334423,847.3673769887537,None,,,,,,,,,,,,,,,,,,,,,,,,,,,,,,,,,,,,,,,178,001,2024_Mar_06_1658,SpeechDraft1Carolyn_lessNoise_PlusLocalization,2021.2.3,59.90056781484596,
pants.wav,pants.mpg,pants,6,AV,Pink_Noise_6_1.wav,Pink_Noise_6_2.wav,,,,,,,,,,,,,,,0,63,63,62,,,,,,,,,,,,,,,,,,,,,,,850.2007789099589,None,851.700492657721,None,853.0841082399711,None,"pant
",853.0841082399711,None,return,9.03352245874703,853.1675567207858,None,,,,,,,,,,,,,,,,,,,,,,,,,,,,,,,,,,,,,,,178,001,2024_Mar_06_1658,SpeechDraft1Carolyn_lessNoise_PlusLocalization,2021.2.3,59.90056781484596,
chore.wav,chore.mpg,chore,2,AV,Pink_Noise_2_1.wav,Pink_Noise_2_2.wav,,,,,,,,,,,,,,,0,64,64,101,,,,,,,,,,,,,,,,,,,,,,,862.2341516260058,None,863.7339646210894,None,865.1174132628366,None,chore,865.1174132628366,None,return,15.224251042120159,865.2008166806772,None,,,,,,,,,,,,,,,,,,,,,,,,,,,,,,,,,,,,,,,178,001,2024_Mar_06_1658,SpeechDraft1Carolyn_lessNoise_PlusLocalization,2021.2.3,59.90056781484596,
aunt.wav,aunt.mpg,aunt,3,A,Pink_Noise_3_1.wav,Pink_Noise_3_2.wav,,,,,,,,,,,,,,,0,65,65,18,,,,,,,,,,,,,,,,,,,,,,,880.4507978996262,None,881.9505972405896,None,883.3340545725077,None,ut,883.3340545725077,None,return,14.84757440444082,883.4175442969427,None,,,,,,,,,,,,,,,,,,,,,,,,,,,,,,,,,,,,,,,178,001,2024_Mar_06_1658,SpeechDraft1Carolyn_lessNoise_PlusLocalization,2021.2.3,59.90056781484596,
brick.wav,brick.mpg,brick,4,A,Pink_Noise_4_1.wav,Pink_Noise_4_2.wav,,,,,,,,,,,,,,,0,66,66,14,,,,,,,,,,,,,,,,,,,,,,,898.2842222973704,None,899.7838606284931,None,901.1674946947023,None,brick,901.1674946947023,None,return,5.910214425995946,901.2508527217433,None,,,,,,,,,,,,,,,,,,,,,,,,,,,,,,,,,,,,,,,178,001,2024_Mar_06_1658,SpeechDraft1Carolyn_lessNoise_PlusLocalization,2021.2.3,59.90056781484596,
beer.wav,beer.mpg,beer,5,A,Pink_Noise_5_1.wav,Pink_Noise_5_2.wav,,,,,,,,,,,,,,,0,67,67,40,,,,,,,,,,,,,,,,,,,,,,,907.1842493200675,None,908.6839152323082,None,910.067489426583,None,,910.067489426583,None,return,1.1622869800776243,910.1508019641042,None,,,,,,,,,,,,,,,,,,,,,,,,,,,,,,,,,,,,,,,178,001,2024_Mar_06_1658,SpeechDraft1Carolyn_lessNoise_PlusLocalization,2021.2.3,59.90056781484596,
flask.wav,flask.mpg,flask,5,AV,Pink_Noise_5_1.wav,Pink_Noise_5_2.wav,,,,,,,,,,,,,,,0,68,68,60,,,,,,,,,,,,,,,,,,,,,,,911.3341696187854,None,912.8339192876592,None,914.2175643015653,None,flask,914.2175643015653,None,return,9.964146960526705,914.3009428866208,None,,,,,,,,,,,,,,,,,,,,,,,,,,,,,,,,,,,,,,,178,001,2024_Mar_06_1658,SpeechDraft1Carolyn_lessNoise_PlusLocalization,2021.2.3,59.90056781484596,
rod.wav,rod.mpg,rod,4,A,Pink_Noise_4_1.wav,Pink_Noise_4_2.wav,,,,,,,,,,,,,,,0,69,69,50,,,,,,,,,,,,,,,,,,,,,,,924.284288207069,None,925.7839963324368,None,927.1675298400223,None,rod,927.1675298400223,None,return,2.574109682813287,927.2509563416243,None,,,,,,,,,,,,,,,,,,,,,,,,,,,,,,,,,,,,,,,178,001,2024_Mar_06_1658,SpeechDraft1Carolyn_lessNoise_PlusLocalization,2021.2.3,59.90056781484596,
buy.wav,buy.mpg,buy,5,A,Pink_Noise_5_1.wav,Pink_Noise_5_2.wav,,,,,,,,,,,,,,,0,70,70,24,,,,,,,,,,,,,,,,,,,,,,,929.8509786473587,None,931.3506873231381,None,932.7343141287565,None,"
",932.7343141287565,None,return,0.7515867576003075,932.8174865916371,None,,,,,,,,,,,,,,,,,,,,,,,,,,,,,,,,,,,,,,,178,001,2024_Mar_06_1658,SpeechDraft1Carolyn_lessNoise_PlusLocalization,2021.2.3,59.90056781484596,
hug.wav,hug.mpg,hug,5,A,Pink_Noise_5_1.wav,Pink_Noise_5_2.wav,,,,,,,,,,,,,,,0,71,71,21,,,,,,,,,,,,,,,,,,,,,,,933.601034687832,None,935.101275889203,None,936.4842673232779,None,cart,936.4842673232779,None,return,2.441557202488184,936.5675553185865,None,,,,,,,,,,,,,,,,,,,,,,,,,,,,,,,,,,,,,,,178,001,2024_Mar_06_1658,SpeechDraft1Carolyn_lessNoise_PlusLocalization,2021.2.3,59.90056781484596,
dull.wav,dull.mpg,dull,1,AV,Pink_Noise_1_1.wav,Pink_Noise_1_2.wav,,,,,,,,,,,,,,,0,72,72,89,,,,,,,,,,,,,,,,,,,,,,,939.0342038348317,None,940.5340634789318,None,941.917473548092,None,doll,941.917473548092,None,return,5.192113417200744,942.000974085182,None,,,,,,,,,,,,,,,,,,,,,,,,,,,,,,,,,,,,,,,178,001,2024_Mar_06_1658,SpeechDraft1Carolyn_lessNoise_PlusLocalization,2021.2.3,59.90056781484596,
none.wav,none.mpg,none,3,A,Pink_Noise_3_1.wav,Pink_Noise_3_2.wav,,,,,,,,,,,,,,,0,73,73,2,,,,,,,,,,,,,,,,,,,,,,,947.2175240237266,None,948.7172836763784,None,950.1008802605793,None,nun',950.1008802605793,None,return,3.760700872167945,950.1843740027398,None,,,,,,,,,,,,,,,,,,,,,,,,,,,,,,,,,,,,,,,178,001,2024_Mar_06_1658,SpeechDraft1Carolyn_lessNoise_PlusLocalization,2021.2.3,59.90056781484596,
grim.wav,grim.mpg,grim,3,AV,Pink_Noise_3_1.wav,Pink_Noise_3_2.wav,,,,,,,,,,,,,,,0,74,74,68,,,,,,,,,,,,,,,,,,,,,,,953.9676437601447,None,955.4673771802336,None,956.8509475672618,None,grim,956.8509475672618,None,return,4.930881573818624,956.9341885829344,None,,,,,,,,,,,,,,,,,,,,,,,,,,,,,,,,,,,,,,,178,001,2024_Mar_06_1658,SpeechDraft1Carolyn_lessNoise_PlusLocalization,2021.2.3,59.90056781484596,
slick.wav,slick.mpg,slick,6,AV,Pink_Noise_6_1.wav,Pink_Noise_6_2.wav,,,,,,,,,,,,,,,0,75,75,90,,,,,,,,,,,,,,,,,,,,,,,961.8842614786699,None,963.3843861045316,None,964.7677357131615,None,stickl,964.7677357131615,None,return,5.390349859371781,964.8508905572817,None,,,,,,,,,,,,,,,,,,,,,,,,,,,,,,,,,,,,,,,178,001,2024_Mar_06_1658,SpeechDraft1Carolyn_lessNoise_PlusLocalization,2021.2.3,59.90056781484596,
duet.wav,duet.mpg,duet,3,AV,Pink_Noise_3_1.wav,Pink_Noise_3_2.wav,,,,,,,,,,,,,,,0,76,76,67,,,,,,,,,,,,,,,,,,,,,,,970.2676793634892,None,971.7840583613142,None,973.1675679218024,None,duet,973.1675679218024,None,return,5.654155649244785,973.2509490083903,None,,,,,,,,,,,,,,,,,,,,,,,,,,,,,,,,,,,,,,,178,001,2024_Mar_06_1658,SpeechDraft1Carolyn_lessNoise_PlusLocalization,2021.2.3,59.90056781484596,
swamp.wav,swamp.mpg,swamp,5,AV,Pink_Noise_5_1.wav,Pink_Noise_5_2.wav,,,,,,,,,,,,,,,0,77,77,73,,,,,,,,,,,,,,,,,,,,,,,978.9342847755179,None,980.4346252866089,None,981.8176228832453,None,swap,981.8176228832453,None,return,13.996062685735524,981.9011097289622,None,,,,,,,,,,,,,,,,,,,,,,,,,,,,,,,,,,,,,,,178,001,2024_Mar_06_1658,SpeechDraft1Carolyn_lessNoise_PlusLocalization,2021.2.3,59.90056781484596,
drive.wav,drive.mpg,drive,6,AV,Pink_Noise_6_1.wav,Pink_Noise_6_2.wav,,,,,,,,,,,,,,,0,78,78,105,,,,,,,,,,,,,,,,,,,,,,,995.9177278131247,None,997.4340875316411,None,998.8008703859523,None,drive,998.8008703859523,None,return,12.572700501419604,998.8844768675044,None,,,,,,,,,,,,,,,,,,,,,,,,,,,,,,,,,,,,,,,178,001,2024_Mar_06_1658,SpeechDraft1Carolyn_lessNoise_PlusLocalization,2021.2.3,59.90056781484596,
weep.wav,weep.mpg,weep,3,A,Pink_Noise_3_1.wav,Pink_Noise_3_2.wav,,,,,,,,,,,,,,,0,79,79,59,,,,,,,,,,,,,,,,,,,,,,,1011.4842965295538,None,1013.0006013810635,None,1014.384324929677,None,"week
",1014.384324929677,None,return,6.317374477162957,1014.4676936352625,None,,,,,,,,,,,,,,,,,,,,,,,,,,,,,,,,,,,,,,,178,001,2024_Mar_06_1658,SpeechDraft1Carolyn_lessNoise_PlusLocalization,2021.2.3,59.90056781484596,
book.wav,book.mpg,book,1,A,Pink_Noise_1_1.wav,Pink_Noise_1_2.wav,,,,,,,,,,,,,,,0,80,80,52,,,,,,,,,,,,,,,,,,,,,,,1020.8176649762318,None,1022.3187130307779,None,1023.701092293486,None,book,1023.701092293486,None,return,10.816822331398726,1023.7843633340672,None,,,,,,,,,,,,,,,,,,,,,,,,,,,,,,,,,,,,,,,178,001,2024_Mar_06_1658,SpeechDraft1Carolyn_lessNoise_PlusLocalization,2021.2.3,59.90056781484596,
chew.wav,chew.mpg,chew,3,AV,Pink_Noise_3_1.wav,Pink_Noise_3_2.wav,,,,,,,,,,,,,,,0,81,81,113,,,,,,,,,,,,,,,,,,,,,,,1034.6180461151525,None,1036.1174179157242,None,1037.5009028557688,None,chew,1037.5009028557688,None,return,13.560613546520472,1037.5844537531957,None,,,,,,,,,,,,,,,,,,,,,,,,,,,,,,,,,,,,,,,178,001,2024_Mar_06_1658,SpeechDraft1Carolyn_lessNoise_PlusLocalization,2021.2.3,59.90056781484596,
grown.wav,grown.mpg,grown,4,A,Pink_Noise_4_1.wav,Pink_Noise_4_2.wav,,,,,,,,,,,,,,,0,82,82,3,,,,,,,,,,,,,,,,,,,,,,,1051.167837401852,None,1052.667437192984,None,1054.0511110210791,None,"row
",1054.0511110210791,None,return,1.1865111142396927,1054.1345593817532,None,,,,,,,,,,,,,,,,,,,,,,,,,,,,,,,,,,,,,,,178,001,2024_Mar_06_1658,SpeechDraft1Carolyn_lessNoise_PlusLocalization,2021.2.3,59.90056781484596,
cheat.wav,cheat.mpg,cheat,6,AV,Pink_Noise_6_1.wav,Pink_Noise_6_2.wav,,,,,,,,,,,,,,,0,83,83,98,,,,,,,,,,,,,,,,,,,,,,,1055.3510648850352,None,1056.8508407361805,None,1058.2344202548265,None,cjeat,1058.2344202548265,None,return,2.939470804296434,1058.317744367756,None,,,,,,,,,,,,,,,,,,,,,,,,,,,,,,,,,,,,,,,178,001,2024_Mar_06_1658,SpeechDraft1Carolyn_lessNoise_PlusLocalization,2021.2.3,59.90056781484596,
bay.wav,bay.mpg,bay,3,A,Pink_Noise_3_1.wav,Pink_Noise_3_2.wav,,,,,,,,,,,,,,,0,84,84,19,,,,,,,,,,,,,,,,,,,,,,,1061.2844869513065,None,1062.784102664329,None,1064.1678470866755,None,bay,1064.1678470866755,None,return,1.8219527853652835,1064.251202788204,None,,,,,,,,,,,,,,,,,,,,,,,,,,,,,,,,,,,,,,,178,001,2024_Mar_06_1658,SpeechDraft1Carolyn_lessNoise_PlusLocalization,2021.2.3,59.90056781484596,
leapt.wav,leapt.mpg,leapt,6,A,Pink_Noise_6_1.wav,Pink_Noise_6_2.wav,,,,,,,,,,,,,,,0,85,85,27,,,,,,,,,,,,,,,,,,,,,,,1066.101088955067,None,1067.6175172403455,None,1069.0011533638462,None,,1069.0011533638462,None,return,0.716675859875977,1069.0844069719315,None,,,,,,,,,,,,,,,,,,,,,,,,,,,,,,,,,,,,,,,178,001,2024_Mar_06_1658,SpeechDraft1Carolyn_lessNoise_PlusLocalization,2021.2.3,59.90056781484596,
pact.wav,pact.mpg,pact,2,AV,Pink_Noise_2_1.wav,Pink_Noise_2_2.wav,,,,,,,,,,,,,,,0,86,86,111,,,,,,,,,,,,,,,,,,,,,,,1069.819341544062,None,1071.334162064828,None,1072.7177219474688,None,pact,1072.7177219474688,None,return,3.6160227321088314,1072.801112039946,None,,,,,,,,,,,,,,,,,,,,,,,,,,,,,,,,,,,,,,,178,001,2024_Mar_06_1658,SpeechDraft1Carolyn_lessNoise_PlusLocalization,2021.2.3,59.90056781484596,
crust.wav,crust.mpg,crust,4,AV,Pink_Noise_4_1.wav,Pink_Noise_4_2.wav,,,,,,,,,,,,,,,0,87,87,71,,,,,,,,,,,,,,,,,,,,,,,1076.4343292182311,None,1077.951240205206,None,1079.3342257896438,None,christ,1079.3342257896438,None,return,2.8473239513114095,1079.4177512945607,None,,,,,,,,,,,,,,,,,,,,,,,,,,,,,,,,,,,,,,,178,001,2024_Mar_06_1658,SpeechDraft1Carolyn_lessNoise_PlusLocalization,2021.2.3,59.90056781484596,
earn.wav,earn.mpg,earn,1,AV,Pink_Noise_1_1.wav,Pink_Noise_1_2.wav,,,,,,,,,,,,,,,0,88,88,66,,,,,,,,,,,,,,,,,,,,,,,1082.2845633821562,None,1083.7840484566987,None,1085.1678001852706,None,earm,1085.1678001852706,None,return,1.3979136059060693,1085.2511895615608,None,,,,,,,,,,,,,,,,,,,,,,,,,,,,,,,,,,,,,,,178,001,2024_Mar_06_1658,SpeechDraft1Carolyn_lessNoise_PlusLocalization,2021.2.3,59.90056781484596,
pipe.wav,pipe.mpg,pipe,6,A,Pink_Noise_6_1.wav,Pink_Noise_6_2.wav,,,,,,,,,,,,,,,0,89,89,15,,,,,,,,,,,,,,,,,,,,,,,1086.6677289903164,None,1088.1675975788385,None,1089.5511514861137,None,kite,1089.5511514861137,None,return,6.198661275207996,1089.634493530728,None,,,,,,,,,,,,,,,,,,,,,,,,,,,,,,,,,,,,,,,178,001,2024_Mar_06_1658,SpeechDraft1Carolyn_lessNoise_PlusLocalization,2021.2.3,59.90056781484596,
flash.wav,flash.mpg,flash,2,AV,Pink_Noise_2_1.wav,Pink_Noise_2_2.wav,,,,,,,,,,,,,,,0,90,90,93,,,,,,,,,,,,,,,,,,,,,,,1095.851196876727,None,1097.3508740691468,None,1098.734472447075,None,flash,1098.734472447075,None,return,3.6233602929860353,1098.8177854269743,None,,,,,,,,,,,,,,,,,,,,,,,,,,,,,,,,,,,,,,,178,001,2024_Mar_06_1658,SpeechDraft1Carolyn_lessNoise_PlusLocalization,2021.2.3,59.90056781484596,
crypt.wav,crypt.mpg,crypt,4,A,Pink_Noise_4_1.wav,Pink_Noise_4_2.wav,,,,,,,,,,,,,,,0,91,91,22,,,,,,,,,,,,,,,,,,,,,,,1102.4678753763437,None,1103.9674683045596,None,1105.3511599339545,None,crypt,1105.3511599339545,None,return,3.87863649148494,1105.434458992444,None,,,,,,,,,,,,,,,,,,,,,,,,,,,,,,,,,,,,,,,178,001,2024_Mar_06_1658,SpeechDraft1Carolyn_lessNoise_PlusLocalization,2021.2.3,59.90056781484596,
chief.wav,chief.mpg,chief,2,AV,Pink_Noise_2_1.wav,Pink_Noise_2_2.wav,,,,,,,,,,,,,,,0,92,92,119,,,,,,,,,,,,,,,,,,,,,,,1109.3345741387457,None,1110.8511149697006,None,1112.2345508486032,None,chief,1112.2345508486032,None,return,1.9872432751581073,1112.3178320359439,None,,,,,,,,,,,,,,,,,,,,,,,,,,,,,,,,,,,,,,,178,001,2024_Mar_06_1658,SpeechDraft1Carolyn_lessNoise_PlusLocalization,2021.2.3,59.90056781484596,
farm.wav,farm.mpg,farm,5,A,Pink_Noise_5_1.wav,Pink_Noise_5_2.wav,,,,,,,,,,,,,,,0,93,93,28,,,,,,,,,,,,,,,,,,,,,,,1114.3346060784534,None,1115.8343250807375,None,1117.217771390453,None,phone,1117.217771390453,None,return,4.7319773100316525,1117.301179443486,None,,,,,,,,,,,,,,,,,,,,,,,,,,,,,,,,,,,,,,,178,001,2024_Mar_06_1658,SpeechDraft1Carolyn_lessNoise_PlusLocalization,2021.2.3,59.90056781484596,
gem.wav,gem.mpg,gem,3,A,Pink_Noise_3_1.wav,Pink_Noise_3_2.wav,,,,,,,,,,,,,,,0,94,94,39,,,,,,,,,,,,,,,,,,,,,,,1122.051174110733,None,1123.5507985539734,None,1124.9345866842195,None,gem,1124.9345866842195,None,return,1.695115546695888,1125.0179414423183,None,,,,,,,,,,,,,,,,,,,,,,,,,,,,,,,,,,,,,,,178,001,2024_Mar_06_1658,SpeechDraft1Carolyn_lessNoise_PlusLocalization,2021.2.3,59.90056781484596,
cease.wav,cease.mpg,cease,1,A,Pink_Noise_1_1.wav,Pink_Noise_1_2.wav,,,,,,,,,,,,,,,0,95,95,26,,,,,,,,,,,,,,,,,,,,,,,1126.7345779538155,None,1128.251035575755,None,1129.6344382986426,None,cease,1129.6344382986426,None,return,2.059074538759887,1129.7179975053295,None,,,,,,,,,,,,,,,,,,,,,,,,,,,,,,,,,,,,,,,178,001,2024_Mar_06_1658,SpeechDraft1Carolyn_lessNoise_PlusLocalization,2021.2.3,59.90056781484596,
clot.wav,clot.mpg,clot,3,A,Pink_Noise_3_1.wav,Pink_Noise_3_2.wav,,,,,,,,,,,,,,,0,96,96,44,,,,,,,,,,,,,,,,,,,,,,,1131.8011539373547,None,1133.3018880160525,None,1134.6845220150426,None,"cloat
",1134.6845220150426,None,return,2.2172702830284834,1134.7678221277893,None,,,,,,,,,,,,,,,,,,,,,,,,,,,,,,,,,,,,,,,178,001,2024_Mar_06_1658,SpeechDraft1Carolyn_lessNoise_PlusLocalization,2021.2.3,59.90056781484596,
calm.wav,calm.mpg,calm,6,A,Pink_Noise_6_1.wav,Pink_Noise_6_2.wav,,,,,,,,,,,,,,,0,97,97,8,,,,,,,,,,,,,,,,,,,,,,,1137.0179209019989,None,1138.5342992916703,None,1139.9178161909804,None,fall,1139.9178161909804,None,return,4.047927654348314,1140.0011758124456,None,,,,,,,,,,,,,,,,,,,,,,,,,,,,,,,,,,,,,,,178,001,2024_Mar_06_1658,SpeechDraft1Carolyn_lessNoise_PlusLocalization,2021.2.3,59.90056781484596,
deal.wav,deal.mpg,deal,6,AV,Pink_Noise_6_1.wav,Pink_Noise_6_2.wav,,,,,,,,,,,,,,,0,98,98,100,,,,,,,,,,,,,,,,,,,,,,,1144.0678043914959,None,1145.5841890545562,None,1146.9678706601262,None,,1146.9678706601262,None,return,0.5812310986220837,1147.067845675163,None,,,,,,,,,,,,,,,,,,,,,,,,,,,,,,,,,,,,,,,178,001,2024_Mar_06_1658,SpeechDraft1Carolyn_lessNoise_PlusLocalization,2021.2.3,59.90056781484596,
foam.wav,foam.mpg,foam,2,A,Pink_Noise_2_1.wav,Pink_Noise_2_2.wav,,,,,,,,,,,,,,,0,99,99,46,,,,,,,,,,,,,,,,,,,,,,,1147.6678219288588,None,1149.1676178881899,None,1150.5512245660648,None,foam,1150.5512245660648,None,return,3.1264224806800485,1150.6346066500992,None,,,,,,,,,,,,,,,,,,,,,,,,,,,,,,,,,,,,,,,178,001,2024_Mar_06_1658,SpeechDraft1Carolyn_lessNoise_PlusLocalization,2021.2.3,59.90056781484596,
germ.wav,germ.mpg,germ,4,A,Pink_Noise_4_1.wav,Pink_Noise_4_2.wav,,,,,,,,,,,,,,,0,100,100,25,,,,,,,,,,,,,,,,,,,,,,,1153.7845701240003,None,1155.2845983570442,None,1156.667976109311,None,"jpe
",1156.667976109311,None,return,1.185883111320436,1156.7511967066675,None,,,,,,,,,,,,,,,,,,,,,,,,,,,,,,,,,,,,,,,178,001,2024_Mar_06_1658,SpeechDraft1Carolyn_lessNoise_PlusLocalization,2021.2.3,59.90056781484596,
blob.wav,blob.mpg,blob,5,A,Pink_Noise_5_1.wav,Pink_Noise_5_2.wav,,,,,,,,,,,,,,,0,101,101,47,,,,,,,,,,,,,,,,,,,,,,,1157.968038547784,None,1159.4843464856967,None,1160.8679072810337,None,fly,1160.8679072810337,None,return,2.0258336793631315,1160.9512319434434,None,,,,,,,,,,,,,,,,,,,,,,,,,,,,,,,,,,,,,,,178,001,2024_Mar_06_1658,SpeechDraft1Carolyn_lessNoise_PlusLocalization,2021.2.3,59.90056781484596,
desk.wav,desk.mpg,desk,4,AV,Pink_Noise_4_1.wav,Pink_Noise_4_2.wav,,,,,,,,,,,,,,,0,102,102,72,,,,,,,,,,,,,,,,,,,,,,,1163.0012863036245,None,1164.5027905050665,None,1165.8846291787922,None,nest,1165.8846291787922,None,return,3.6332293935120106,1165.967920918949,None,,,,,,,,,,,,,,,,,,,,,,,,,,,,,,,,,,,,,,,178,001,2024_Mar_06_1658,SpeechDraft1Carolyn_lessNoise_PlusLocalization,2021.2.3,59.90056781484596,
wheat.wav,wheat.mpg,wheat,1,A,Pink_Noise_1_1.wav,Pink_Noise_1_2.wav,,,,,,,,,,,,,,,0,103,103,57,,,,,,,,,,,,,,,,,,,,,,,1169.6179059064016,None,1171.1342154266313,None,1172.518005236052,None,wheat,1172.518005236052,None,return,2.671967474743724,1172.6012435518205,None,,,,,,,,,,,,,,,,,,,,,,,,,,,,,,,,,,,,,,,178,001,2024_Mar_06_1658,SpeechDraft1Carolyn_lessNoise_PlusLocalization,2021.2.3,59.90056781484596,
clean.wav,clean.mpg,clean,6,AV,Pink_Noise_6_1.wav,Pink_Noise_6_2.wav,,,,,,,,,,,,,,,0,104,104,115,,,,,,,,,,,,,,,,,,,,,,,1175.3012234624475,None,1176.8018131414428,None,1178.184581309557,None,linen,1178.184581309557,None,return,7.13324233610183,1178.267887910828,None,,,,,,,,,,,,,,,,,,,,,,,,,,,,,,,,,,,,,,,178,001,2024_Mar_06_1658,SpeechDraft1Carolyn_lessNoise_PlusLocalization,2021.2.3,59.90056781484596,
cane.wav,cane.mpg,cane,5,A,Pink_Noise_5_1.wav,Pink_Noise_5_2.wav,,,,,,,,,,,,,,,0,105,105,58,,,,,,,,,,,,,,,,,,,,,,,1185.4179666927084,None,1186.934465280734,None,1188.317973576486,None,,1188.317973576486,None,return,0.8478243499994278,1188.4012635052204,None,,,,,,,,,,,,,,,,,,,,,,,,,,,,,,,,,,,,,,,178,001,2024_Mar_06_1658,SpeechDraft1Carolyn_lessNoise_PlusLocalization,2021.2.3,59.90056781484596,
grief.wav,grief.mpg,grief,3,A,Pink_Noise_3_1.wav,Pink_Noise_3_2.wav,,,,,,,,,,,,,,,0,106,106,30,,,,,,,,,,,,,,,,,,,,,,,1189.267901393585,None,1190.784307637252,None,1192.1679139016196,None,roof,1192.1679139016196,None,return,3.365868833847344,1192.2512479564175,None,,,,,,,,,,,,,,,,,,,,,,,,,,,,,,,,,,,,,,,178,001,2024_Mar_06_1658,SpeechDraft1Carolyn_lessNoise_PlusLocalization,2021.2.3,59.90056781484596,
beef.wav,beef.mpg,beef,6,A,Pink_Noise_6_1.wav,Pink_Noise_6_2.wav,,,,,,,,,,,,,,,0,107,107,11,,,,,,,,,,,,,,,,,,,,,,,1195.6345783490688,None,1197.1342595750466,None,1198.5179210770875,None,,1198.5179210770875,None,return,0.15987279452383518,1198.6012255297974,None,,,,,,,,,,,,,,,,,,,,,,,,,,,,,,,,,,,,,,,178,001,2024_Mar_06_1658,SpeechDraft1Carolyn_lessNoise_PlusLocalization,2021.2.3,59.90056781484596,
brand.wav,brand.mpg,brand,3,A,Pink_Noise_3_1.wav,Pink_Noise_3_2.wav,,,,,,,,,,,,,,,0,108,108,17,,,,,,,,,,,,,,,,,,,,,,,1198.784574768506,None,1200.300929006189,None,1201.6846595061943,None,"brand
",1201.6846595061943,None,return,1.9532262310385704,1201.7678479477763,None,,,,,,,,,,,,,,,,,,,,,,,,,,,,,,,,,,,,,,,178,001,2024_Mar_06_1658,SpeechDraft1Carolyn_lessNoise_PlusLocalization,2021.2.3,59.90056781484596,
croak.wav,croak.mpg,croak,3,AV,Pink_Noise_3_1.wav,Pink_Noise_3_2.wav,,,,,,,,,,,,,,,0,109,109,110,,,,,,,,,,,,,,,,,,,,,,,1203.7513600448146,None,1205.2510950043797,None,1206.6345993382856,None,croak,1206.6345993382856,None,return,2.4111165581271052,1206.7179427938536,None,,,,,,,,,,,,,,,,,,,,,,,,,,,,,,,,,,,,,,,178,001,2024_Mar_06_1658,SpeechDraft1Carolyn_lessNoise_PlusLocalization,2021.2.3,59.90056781484596,
crew.wav,crew.mpg,crew,5,AV,Pink_Noise_5_1.wav,Pink_Noise_5_2.wav,,,,,,,,,,,,,,,0,110,110,96,,,,,,,,,,,,,,,,,,,,,,,1209.1513655874878,None,1210.6520571457222,None,1212.0345136597753,None,"crew
",1212.0345136597753,None,return,3.235072921961546,1212.118005410768,None,,,,,,,,,,,,,,,,,,,,,,,,,,,,,,,,,,,,,,,178,001,2024_Mar_06_1658,SpeechDraft1Carolyn_lessNoise_PlusLocalization,2021.2.3,59.90056781484596,
chop.wav,chop.mpg,chop,4,AV,Pink_Noise_4_1.wav,Pink_Noise_4_2.wav,,,,,,,,,,,,,,,0,111,111,78,,,,,,,,,,,,,,,,,,,,,,,1215.3846115646884,None,1216.8843991262838,None,1218.267851847224,None,chop,1218.267851847224,None,return,3.489837390370667,1218.3513065790758,None,,,,,,,,,,,,,,,,,,,,,,,,,,,,,,,,,,,,,,,178,001,2024_Mar_06_1658,SpeechDraft1Carolyn_lessNoise_PlusLocalization,2021.2.3,59.90056781484596,
cone.wav,cone.mpg,cone,6,A,Pink_Noise_6_1.wav,Pink_Noise_6_2.wav,,,,,,,,,,,,,,,0,112,112,53,,,,,,,,,,,,,,,,,,,,,,,1221.8679120587185,None,1223.3843434620649,None,1224.7680314211175,None,,1224.7680314211175,None,return,0.5978146642446518,1224.8512820480391,None,,,,,,,,,,,,,,,,,,,,,,,,,,,,,,,,,,,,,,,178,001,2024_Mar_06_1658,SpeechDraft1Carolyn_lessNoise_PlusLocalization,2021.2.3,59.90056781484596,
gust.wav,gust.mpg,gust,2,A,Pink_Noise_2_1.wav,Pink_Noise_2_2.wav,,,,,,,,,,,,,,,0,113,113,13,,,,,,,,,,,,,,,,,,,,,,,1225.467884930782,None,1226.9843594767153,None,1228.3680626992136,None,"gust
",1228.3680626992136,None,return,3.2697213059291244,1228.4513623006642,None,,,,,,,,,,,,,,,,,,,,,,,,,,,,,,,,,,,,,,,178,001,2024_Mar_06_1658,SpeechDraft1Carolyn_lessNoise_PlusLocalization,2021.2.3,59.90056781484596,
gulp.wav,gulp.mpg,gulp,3,AV,Pink_Noise_3_1.wav,Pink_Noise_3_2.wav,,,,,,,,,,,,,,,0,114,114,95,,,,,,,,,,,,,,,,,,,,,,,1231.7514157555997,None,1233.2676827488467,None,1234.6514006704092,None,gulp,1234.6514006704092,None,return,3.098443165421486,1234.7347174556926,None,,,,,,,,,,,,,,,,,,,,,,,,,,,,,,,,,,,,,,,178,001,2024_Mar_06_1658,SpeechDraft1Carolyn_lessNoise_PlusLocalization,2021.2.3,59.90056781484596,
fuel.wav,fuel.mpg,fuel,1,AV,Pink_Noise_1_1.wav,Pink_Noise_1_2.wav,,,,,,,,,,,,,,,0,115,115,76,,,,,,,,,,,,,,,,,,,,,,,1237.8513124454767,None,1239.3677613763139,None,1240.7512531820685,None,fuel,1240.7512531820685,None,return,3.8145471308380365,1240.8345423555002,None,,,,,,,,,,,,,,,,,,,,,,,,,,,,,,,,,,,,,,,178,001,2024_Mar_06_1658,SpeechDraft1Carolyn_lessNoise_PlusLocalization,2021.2.3,59.90056781484596,
fried.wav,fried.mpg,fried,2,A,Pink_Noise_2_1.wav,Pink_Noise_2_2.wav,,,,,,,,,,,,,,,0,116,116,6,,,,,,,,,,,,,,,,,,,,,,,1244.6679979003966,None,1246.184499192983,None,1247.5680140545592,None,fried,1247.5680140545592,None,return,2.8377704601734877,1247.6513221757486,None,,,,,,,,,,,,,,,,,,,,,,,,,,,,,,,,,,,,,,,178,001,2024_Mar_06_1658,SpeechDraft1Carolyn_lessNoise_PlusLocalization,2021.2.3,59.90056781484596,
cough.wav,cough.mpg,cough,1,AV,Pink_Noise_1_1.wav,Pink_Noise_1_2.wav,,,,,,,,,,,,,,,0,117,117,114,,,,,,,,,,,,,,,,,,,,,,,1250.5180785441771,None,1252.0345051577315,None,1253.4180235965177,None,"cough
",1253.4180235965177,None,return,3.851804865524173,1253.5012807752937,None,,,,,,,,,,,,,,,,,,,,,,,,,,,,,,,,,,,,,,,178,001,2024_Mar_06_1658,SpeechDraft1Carolyn_lessNoise_PlusLocalization,2021.2.3,59.90056781484596,
grave.wav,grave.mpg,grave,2,A,Pink_Noise_2_1.wav,Pink_Noise_2_2.wav,,,,,,,,,,,,,,,0,118,118,7,,,,,,,,,,,,,,,,,,,,,,,1257.384744366631,None,1258.9010873353109,None,1260.2847168240696,None,grave,1260.2847168240696,None,return,1.9290931588038802,1260.3680311599746,None,,,,,,,,,,,,,,,,,,,,,,,,,,,,,,,,,,,,,,,178,001,2024_Mar_06_1658,SpeechDraft1Carolyn_lessNoise_PlusLocalization,2021.2.3,59.90056781484596,
glass.wav,glass.mpg,glass,4,A,Pink_Noise_4_1.wav,Pink_Noise_4_2.wav,,,,,,,,,,,,,,,0,119,119,55,,,,,,,,,,,,,,,,,,,,,,,1262.3180459607393,None,1263.8344879876822,None,1265.2181071480736,None,brass,1265.2181071480736,None,return,2.8757443614304066,1265.3013130342588,None,,,,,,,,,,,,,,,,,,,,,,,,,,,,,,,,,,,,,,,178,001,2024_Mar_06_1658,SpeechDraft1Carolyn_lessNoise_PlusLocalization,2021.2.3,59.90056781484596,
,,,,,,,,,,,,,,,,,,,,,,,,,,,,,,,,,,,,,,,,,,,,,,,,,,,,,,,,,,,,,,,,,,space,14.812118015252054,1268.2849503559992,None,,,,,,,,,,,,,,,,,,,,,,,,,,,,,178,001,2024_Mar_06_1658,SpeechDraft1Carolyn_lessNoise_PlusLocalization,2021.2.3,59.90056781484596,
,,,,,,,,farLeft,-19.1,5,ch1Sound_localizationTask.wav,-19.1,"(667, 878)","(-293,-202)",-285,-338,,,,,,,,,0,0,0,0,,,,,,,,,,,,,,,,,,,,,,,,,,,,,,,,,,,,,,,,,,1268.2849503559992,None,1283.1345370840281,None,1284.234436632134,None,1285.1677851304412,None,1.132804232804233,3.4699344923719764,1285.1677851304412,None,,,,,,,,,,,,,,,,,178,001,2024_Mar_06_1658,SpeechDraft1Carolyn_lessNoise_PlusLocalization,2021.2.3,59.90056781484596,
,,,,,,,,farRight,19.1,4,ch1Sound_localizationTask.wav,19.1,"(1237, 878)","(277,-202)",285,-338,,,,,,,,,0,1,1,6,,,,,,,,,,,,,,,,,,,,,,,,,,,,,,,,,,,,,,,,,,,,1288.6353547405452,None,1289.7345289941877,None,1290.6678640721366,None,1.7947089947089947,1.7324322378262877,1290.6678640721366,None,,,,,,,,,,,,,,,,,178,001,2024_Mar_06_1658,SpeechDraft1Carolyn_lessNoise_PlusLocalization,2021.2.3,59.90056781484596,
,,,,,,,,midRight,13.0,3,ch1Sound_localizationTask.wav,13.0,"(1142, 878)","(182, -202)",190,-338,,,,,,,,,0,2,2,5,,,,,,,,,,,,,,,,,,,,,,,,,,,,,,,,,,,,,,,,,,,,1292.4013944268227,None,1293.5011180667207,None,1294.43464042712,None,1.6708994708994709,3.666762220673263,1294.43464042712,None,,,,,,,,,,,,,,,,,178,001,2024_Mar_06_1658,SpeechDraft1Carolyn_lessNoise_PlusLocalization,2021.2.3,59.90056781484596,
,,,,,,,,nearRight,6.5,0,ch1Sound_localizationTask.wav,6.5,"(1047, 878)","(87, -202)",95,-338,,,,,,,,,0,3,3,4,,,,,,,,,,,,,,,,,,,,,,,,,,,,,,,,,,,,,,,,,,,,1298.101403914392,None,1299.2011381769553,None,1300.1344497511163,None,1.665079365079365,0.6164011508226395,1300.1344497511163,None,,,,,,,,,,,,,,,,,178,001,2024_Mar_06_1658,SpeechDraft1Carolyn_lessNoise_PlusLocalization,2021.2.3,59.90056781484596,
,,,,,,,,nearRight,6.5,0,ch1Sound_localizationTask.wav,6.5,"(1047, 878)","(87, -202)",95,-338,,,,,,,,,0,4,4,4,,,,,,,,,,,,,,,,,,,,,,,,,,,,,,,,,,,,,,,,,,,,1300.7515407390893,None,1301.8512076623738,None,1302.7844975497574,None,1.651851851851852,0.4491485645994544,1302.7844975497574,None,,,,,,,,,,,,,,,,,178,001,2024_Mar_06_1658,SpeechDraft1Carolyn_lessNoise_PlusLocalization,2021.2.3,59.90056781484596,
,,,,,,,,farLeft,-19.1,5,ch1Sound_localizationTask.wav,-19.1,"(667, 878)","(-293,-202)",-285,-338,,,,,,,,,0,5,5,0,,,,,,,,,,,,,,,,,,,,,,,,,,,,,,,,,,,,,,,,,,,,1303.2347521428019,None,1304.3345331875607,None,1305.26782518439,None,1.2015873015873015,1.883649387396872,1305.26782518439,None,,,,,,,,,,,,,,,,,178,001,2024_Mar_06_1658,SpeechDraft1Carolyn_lessNoise_PlusLocalization,2021.2.3,59.90056781484596,
,,,,,,,,nearRight,6.5,0,ch1Sound_localizationTask.wav,6.5,"(1047, 878)","(87, -202)",95,-338,,,,,,,,,0,6,6,4,,,,,,,,,,,,,,,,,,,,,,,,,,,,,,,,,,,,,,,,,,,,1307.16809606459,None,1308.26788161695,None,1309.2012540223077,None,1.6804232804232804,1.26654879655689,1309.2012540223077,None,,,,,,,,,,,,,,,,,178,001,2024_Mar_06_1658,SpeechDraft1Carolyn_lessNoise_PlusLocalization,2021.2.3,59.90056781484596,
,,,,,,,,farRight,19.1,4,ch1Sound_localizationTask.wav,19.1,"(1237, 878)","(277,-202)",285,-338,,,,,,,,,1,0,7,6,,,,,,,,,,,,,,,,,,,,,,,,,,,,,,,,,,,,,,,,,,,,1310.4681337177753,None,1311.5678409757093,None,1312.5012346124277,None,1.8232804232804232,0.783051778562367,1312.5012346124277,None,,,,,,,,,,,,,,,,,178,001,2024_Mar_06_1658,SpeechDraft1Carolyn_lessNoise_PlusLocalization,2021.2.3,59.90056781484596,
,,,,,,,,center,0.0,6,ch1Sound_localizationTask.wav,0.0,"(952, 878)","(-8,-202)",0,-338,,,,,,,,,1,1,8,3,,,,,,,,,,,,,,,,,,,,,,,,,,,,,,,,,,,,,,,,,,,,1313.284769864753,None,1314.3845156012103,None,1315.3178044650704,None,1.6544973544973545,0.9163030087947845,1315.3178044650704,None,,,,,,,,,,,,,,,,,178,001,2024_Mar_06_1658,SpeechDraft1Carolyn_lessNoise_PlusLocalization,2021.2.3,59.90056781484596,
,,,,,,,,farRight,19.1,4,ch1Sound_localizationTask.wav,19.1,"(1237, 878)","(277,-202)",285,-338,,,,,,,,,1,2,9,6,,,,,,,,,,,,,,,,,,,,,,,,,,,,,,,,,,,,,,,,,,,,1316.2349025197327,None,1317.33451368846,None,1318.267880040221,None,1.8497354497354497,0.731671535409987,1318.267880040221,None,,,,,,,,,,,,,,,,,178,001,2024_Mar_06_1658,SpeechDraft1Carolyn_lessNoise_PlusLocalization,2021.2.3,59.90056781484596,
,,,,,,,,farRight,19.1,4,ch1Sound_localizationTask.wav,19.1,"(1237, 878)","(277,-202)",285,-338,,,,,,,,,1,3,10,6,,,,,,,,,,,,,,,,,,,,,,,,,,,,,,,,,,,,,,,,,,,,1319.0014715893194,None,1320.1011989535764,None,1321.0344798834994,None,1.7973544973544975,0.4327896283939481,1321.0344798834994,None,,,,,,,,,,,,,,,,,178,001,2024_Mar_06_1658,SpeechDraft1Carolyn_lessNoise_PlusLocalization,2021.2.3,59.90056781484596,
,,,,,,,,midLeft,-13.0,2,ch1Sound_localizationTask.wav,-13.0,"(762, 878)","(-198,-202)",-190,-338,,,,,,,,,1,4,11,1,,,,,,,,,,,,,,,,,,,,,,,,,,,,,,,,,,,,,,,,,,,,1321.4681209940463,None,1322.567818616517,None,1323.5012923441827,None,1.2798941798941799,1.0984399011358619,1323.5012923441827,None,,,,,,,,,,,,,,,,,178,001,2024_Mar_06_1658,SpeechDraft1Carolyn_lessNoise_PlusLocalization,2021.2.3,59.90056781484596,
,,,,,,,,farLeft,-19.1,5,ch1Sound_localizationTask.wav,-19.1,"(667, 878)","(-293,-202)",-285,-338,,,,,,,,,1,5,12,0,,,,,,,,,,,,,,,,,,,,,,,,,,,,,,,,,,,,,,,,,,,,1324.601519357413,None,1325.7012553531677,None,1326.6345465034246,None,1.331216931216931,1.3486557062715292,1326.6345465034246,None,,,,,,,,,,,,,,,,,178,001,2024_Mar_06_1658,SpeechDraft1Carolyn_lessNoise_PlusLocalization,2021.2.3,59.90056781484596,
,,,,,,,,farLeft,-19.1,5,ch1Sound_localizationTask.wav,-19.1,"(667, 878)","(-293,-202)",-285,-338,,,,,,,,,1,6,13,0,,,,,,,,,,,,,,,,,,,,,,,,,,,,,,,,,,,,,,,,,,,,1327.9849443174899,None,1329.0845409538597,None,1330.0178690152243,None,1.2497354497354498,0.9332616990432143,1330.0178690152243,None,,,,,,,,,,,,,,,,,178,001,2024_Mar_06_1658,SpeechDraft1Carolyn_lessNoise_PlusLocalization,2021.2.3,59.90056781484596,
,,,,,,,,nearLeft,-6.5,1,ch1Sound_localizationTask.wav,-6.5,"(857, 878)","(-103,-202)",-95,-338,,,,,,,,,2,0,14,2,,,,,,,,,,,,,,,,,,,,,,,,,,,,,,,,,,,,,,,,,,,,1330.951668370515,None,1332.0512049579993,None,1332.984552753158,None,1.3783068783068784,0.6159145729616284,1332.984552753158,None,,,,,,,,,,,,,,,,,178,001,2024_Mar_06_1658,SpeechDraft1Carolyn_lessNoise_PlusLocalization,2021.2.3,59.90056781484596,
,,,,,,,,midLeft,-13.0,2,ch1Sound_localizationTask.wav,-13.0,"(762, 878)","(-198,-202)",-190,-338,,,,,,,,,2,1,15,1,,,,,,,,,,,,,,,,,,,,,,,,,,,,,,,,,,,,,,,,,,,,1333.6014943383634,None,1334.7011997494847,None,1335.6346607850865,None,1.3211640211640212,0.5664921524003148,1335.6346607850865,None,,,,,,,,,,,,,,,,,178,001,2024_Mar_06_1658,SpeechDraft1Carolyn_lessNoise_PlusLocalization,2021.2.3,59.90056781484596,
,,,,,,,,center,0.0,6,ch1Sound_localizationTask.wav,0.0,"(952, 878)","(-8,-202)",0,-338,,,,,,,,,2,2,16,3,,,,,,,,,,,,,,,,,,,,,,,,,,,,,,,,,,,,,,,,,,,,1336.2014857167378,None,1337.301183724776,None,1338.234519990161,None,1.5634920634920635,0.6986850034445524,1338.234519990161,None,,,,,,,,,,,,,,,,,178,001,2024_Mar_06_1658,SpeechDraft1Carolyn_lessNoise_PlusLocalization,2021.2.3,59.90056781484596,
,,,,,,,,nearRight,6.5,0,ch1Sound_localizationTask.wav,6.5,"(1047, 878)","(87, -202)",95,-338,,,,,,,,,2,3,17,4,,,,,,,,,,,,,,,,,,,,,,,,,,,,,,,,,,,,,,,,,,,,1338.9347585961223,None,1340.0346514349803,None,1340.9677797723562,None,1.626984126984127,0.633383666165173,1340.9677797723562,None,,,,,,,,,,,,,,,,,178,001,2024_Mar_06_1658,SpeechDraft1Carolyn_lessNoise_PlusLocalization,2021.2.3,59.90056781484596,
,,,,,,,,center,0.0,6,ch1Sound_localizationTask.wav,0.0,"(952, 878)","(-8,-202)",0,-338,,,,,,,,,2,4,18,3,,,,,,,,,,,,,,,,,,,,,,,,,,,,,,,,,,,,,,,,,,,,1341.6014630682766,None,1342.7012089062482,None,1343.6345238266513,None,1.6386243386243386,0.382881835103035,1343.6345238266513,None,,,,,,,,,,,,,,,,,178,001,2024_Mar_06_1658,SpeechDraft1Carolyn_lessNoise_PlusLocalization,2021.2.3,59.90056781484596,
,,,,,,,,nearLeft,-6.5,1,ch1Sound_localizationTask.wav,-6.5,"(857, 878)","(-103,-202)",-95,-338,,,,,,,,,2,5,19,2,,,,,,,,,,,,,,,,,,,,,,,,,,,,,,,,,,,,,,,,,,,,1344.0183365754783,None,1345.1178831271827,None,1346.0512889949605,None,1.3624338624338623,0.6834815749898553,1346.0512889949605,None,,,,,,,,,,,,,,,,,178,001,2024_Mar_06_1658,SpeechDraft1Carolyn_lessNoise_PlusLocalization,2021.2.3,59.90056781484596,
,,,,,,,,nearLeft,-6.5,1,ch1Sound_localizationTask.wav,-6.5,"(857, 878)","(-103,-202)",-95,-338,,,,,,,,,2,6,20,2,,,,,,,,,,,,,,,,,,,,,,,,,,,,,,,,,,,,,,,,,,,,1346.7515219030902,None,1347.8512512175366,None,1348.7845659693703,None,1.439153439153439,0.43280956614762545,1348.7845659693703,None,,,,,,,,,,,,,,,,,178,001,2024_Mar_06_1658,SpeechDraft1Carolyn_lessNoise_PlusLocalization,2021.2.3,59.90056781484596,
,,,,,,,,center,0.0,6,ch1Sound_localizationTask.wav,0.0,"(952, 878)","(-8,-202)",0,-338,,,,,,,,,3,0,21,3,,,,,,,,,,,,,,,,,,,,,,,,,,,,,,,,,,,,,,,,,,,,1349.21811906714,None,1350.3179367724806,None,1351.2512128753588,None,1.6174603174603175,0.6832145769149065,1351.2512128753588,None,,,,,,,,,,,,,,,,,178,001,2024_Mar_06_1658,SpeechDraft1Carolyn_lessNoise_PlusLocalization,2021.2.3,59.90056781484596,
,,,,,,,,farLeft,-19.1,5,ch1Sound_localizationTask.wav,-19.1,"(667, 878)","(-293,-202)",-285,-338,,,,,,,,,3,1,22,0,,,,,,,,,,,,,,,,,,,,,,,,,,,,,,,,,,,,,,,,,,,,1351.9347894843668,None,1353.034556588158,None,1353.967964425683,None,1.1666666666666665,0.6153106205165386,1353.967964425683,None,,,,,,,,,,,,,,,,,178,001,2024_Mar_06_1658,SpeechDraft1Carolyn_lessNoise_PlusLocalization,2021.2.3,59.90056781484596,
,,,,,,,,farLeft,-19.1,5,ch1Sound_localizationTask.wav,-19.1,"(667, 878)","(-293,-202)",-285,-338,,,,,,,,,3,2,23,0,,,,,,,,,,,,,,,,,,,,,,,,,,,,,,,,,,,,,,,,,,,,1354.5848087174818,None,1355.6845461511984,None,1356.6178594054654,None,1.2232804232804233,0.44964734464883804,1356.6178594054654,None,,,,,,,,,,,,,,,,,178,001,2024_Mar_06_1658,SpeechDraft1Carolyn_lessNoise_PlusLocalization,2021.2.3,59.90056781484596,
,,,,,,,,midLeft,-13.0,2,ch1Sound_localizationTask.wav,-13.0,"(762, 878)","(-198,-202)",-190,-338,,,,,,,,,3,3,24,1,,,,,,,,,,,,,,,,,,,,,,,,,,,,,,,,,,,,,,,,,,,,1357.0681208148599,None,1358.1678941613063,None,1359.1013167062774,None,1.144973544973545,0.4156090607866645,1359.1013167062774,None,,,,,,,,,,,,,,,,,178,001,2024_Mar_06_1658,SpeechDraft1Carolyn_lessNoise_PlusLocalization,2021.2.3,59.90056781484596,
,,,,,,,,nearRight,6.5,0,ch1Sound_localizationTask.wav,6.5,"(1047, 878)","(87, -202)",95,-338,,,,,,,,,3,4,25,4,,,,,,,,,,,,,,,,,,,,,,,,,,,,,,,,,,,,,,,,,,,,1359.5181660531089,None,1360.6178141087294,None,1361.5511815762147,None,1.7211640211640211,0.7488798415288329,1361.5511815762147,None,,,,,,,,,,,,,,,,,178,001,2024_Mar_06_1658,SpeechDraft1Carolyn_lessNoise_PlusLocalization,2021.2.3,59.90056781484596,
,,,,,,,,farRight,19.1,4,ch1Sound_localizationTask.wav,19.1,"(1237, 878)","(277,-202)",285,-338,,,,,,,,,3,5,26,6,,,,,,,,,,,,,,,,,,,,,,,,,,,,,,,,,,,,,,,,,,,,1362.3014943515882,None,1363.4010888664052,None,1364.3344675321132,None,1.7851851851851852,0.7331954287365079,1364.3344675321132,None,,,,,,,,,,,,,,,,,178,001,2024_Mar_06_1658,SpeechDraft1Carolyn_lessNoise_PlusLocalization,2021.2.3,59.90056781484596,
,,,,,,,,nearLeft,-6.5,1,ch1Sound_localizationTask.wav,-6.5,"(857, 878)","(-103,-202)",-95,-338,,,,,,,,,3,6,27,2,,,,,,,,,,,,,,,,,,,,,,,,,,,,,,,,,,,,,,,,,,,,1365.0690504461527,None,1366.1679817177355,None,1367.1013298984617,None,1.3677248677248677,0.5001119906082749,1367.1013298984617,None,,,,,,,,,,,,,,,,,178,001,2024_Mar_06_1658,SpeechDraft1Carolyn_lessNoise_PlusLocalization,2021.2.3,59.90056781484596,
,,,,,,,,midRight,13.0,3,ch1Sound_localizationTask.wav,13.0,"(1142, 878)","(182, -202)",190,-338,,,,,,,,,4,0,28,5,,,,,,,,,,,,,,,,,,,,,,,,,,,,,,,,,,,,,,,,,,,,1367.6182402214035,None,1368.717907748185,None,1369.651335827075,None,1.7275132275132274,0.7500462578609586,1369.651335827075,None,,,,,,,,,,,,,,,,,178,001,2024_Mar_06_1658,SpeechDraft1Carolyn_lessNoise_PlusLocalization,2021.2.3,59.90056781484596,
,,,,,,,,midLeft,-13.0,2,ch1Sound_localizationTask.wav,-13.0,"(762, 878)","(-198,-202)",-190,-338,,,,,,,,,4,1,29,1,,,,,,,,,,,,,,,,,,,,,,,,,,,,,,,,,,,,,,,,,,,,1370.4022098593414,None,1371.5012443996966,None,1372.4345975955948,None,1.2105820105820104,1.2494745859876275,1372.4345975955948,None,,,,,,,,,,,,,,,,,178,001,2024_Mar_06_1658,SpeechDraft1Carolyn_lessNoise_PlusLocalization,2021.2.3,59.90056781484596,
,,,,,,,,nearLeft,-6.5,1,ch1Sound_localizationTask.wav,-6.5,"(857, 878)","(-103,-202)",-95,-338,,,,,,,,,4,2,30,2,,,,,,,,,,,,,,,,,,,,,,,,,,,,,,,,,,,,,,,,,,,,1373.6853505615145,None,1374.784483739175,None,1375.7180789224803,None,1.3253968253968254,0.899984891526401,1375.7180789224803,None,,,,,,,,,,,,,,,,,178,001,2024_Mar_06_1658,SpeechDraft1Carolyn_lessNoise_PlusLocalization,2021.2.3,59.90056781484596,
,,,,,,,,farLeft,-19.1,5,ch1Sound_localizationTask.wav,-19.1,"(667, 878)","(-293,-202)",-285,-338,,,,,,,,,4,3,31,0,,,,,,,,,,,,,,,,,,,,,,,,,,,,,,,,,,,,,,,,,,,,1376.6182626476511,None,1377.7179935760796,None,1378.6513493815437,None,1.2317460317460318,0.6162405563518405,1378.6513493815437,None,,,,,,,,,,,,,,,,,178,001,2024_Mar_06_1658,SpeechDraft1Carolyn_lessNoise_PlusLocalization,2021.2.3,59.90056781484596,
,,,,,,,,farRight,19.1,4,ch1Sound_localizationTask.wav,19.1,"(1237, 878)","(277,-202)",285,-338,,,,,,,,,4,4,32,6,,,,,,,,,,,,,,,,,,,,,,,,,,,,,,,,,,,,,,,,,,,,1379.268181852065,None,1380.3680458543822,None,1381.301262397319,None,1.7608465608465609,0.7834642892703414,1381.301262397319,None,,,,,,,,,,,,,,,,,178,001,2024_Mar_06_1658,SpeechDraft1Carolyn_lessNoise_PlusLocalization,2021.2.3,59.90056781484596,
,,,,,,,,nearRight,6.5,0,ch1Sound_localizationTask.wav,6.5,"(1047, 878)","(87, -202)",95,-338,,,,,,,,,4,5,33,4,,,,,,,,,,,,,,,,,,,,,,,,,,,,,,,,,,,,,,,,,,,,1382.0857494072989,None,1383.1846839813516,None,1384.1180058764294,None,1.6264550264550266,0.6667397459968925,1384.1180058764294,None,,,,,,,,,,,,,,,,,178,001,2024_Mar_06_1658,SpeechDraft1Carolyn_lessNoise_PlusLocalization,2021.2.3,59.90056781484596,
,,,,,,,,farRight,19.1,4,ch1Sound_localizationTask.wav,19.1,"(1237, 878)","(277,-202)",285,-338,,,,,,,,,4,6,34,6,,,,,,,,,,,,,,,,,,,,,,,,,,,,,,,,,,,,,,,,,,,,1384.801577091217,None,1385.9013640480116,None,1386.8346504336223,None,1.6793650793650794,0.5330282840877771,1386.8346504336223,None,,,,,,,,,,,,,,,,,178,001,2024_Mar_06_1658,SpeechDraft1Carolyn_lessNoise_PlusLocalization,2021.2.3,59.90056781484596,
,,,,,,,,midLeft,-13.0,2,ch1Sound_localizationTask.wav,-13.0,"(762, 878)","(-198,-202)",-190,-338,,,,,,,,,5,0,35,1,,,,,,,,,,,,,,,,,,,,,,,,,,,,,,,,,,,,,,,,,,,,1387.3681840840727,None,1388.4680152535439,None,1389.4013077476993,None,1.2206349206349207,0.6655003372579813,1389.4013077476993,None,,,,,,,,,,,,,,,,,178,001,2024_Mar_06_1658,SpeechDraft1Carolyn_lessNoise_PlusLocalization,2021.2.3,59.90056781484596,
,,,,,,,,midRight,13.0,3,ch1Sound_localizationTask.wav,13.0,"(1142, 878)","(182, -202)",190,-338,,,,,,,,,5,1,36,5,,,,,,,,,,,,,,,,,,,,,,,,,,,,,,,,,,,,,,,,,,,,1390.0682428218424,None,1391.1680360650644,None,1392.1012193942443,None,1.662962962962963,0.9998667724430561,1392.1012193942443,None,,,,,,,,,,,,,,,,,178,001,2024_Mar_06_1658,SpeechDraft1Carolyn_lessNoise_PlusLocalization,2021.2.3,59.90056781484596,
,,,,,,,,center,0.0,6,ch1Sound_localizationTask.wav,0.0,"(952, 878)","(-8,-202)",0,-338,,,,,,,,,5,2,37,3,,,,,,,,,,,,,,,,,,,,,,,,,,,,,,,,,,,,,,,,,,,,1393.1016471739858,None,1394.2013671323657,None,1395.1345896199346,None,1.5216931216931218,0.4990986241027713,1395.1345896199346,None,,,,,,,,,,,,,,,,,178,001,2024_Mar_06_1658,SpeechDraft1Carolyn_lessNoise_PlusLocalization,2021.2.3,59.90056781484596,
,,,,,,,,nearLeft,-6.5,1,ch1Sound_localizationTask.wav,-6.5,"(857, 878)","(-103,-202)",-95,-338,,,,,,,,,5,3,38,2,,,,,,,,,,,,,,,,,,,,,,,,,,,,,,,,,,,,,,,,,,,,1395.6349955964833,None,1396.7346126912162,None,1397.6678217351437,None,1.3941798941798942,0.5989245809614658,1397.6678217351437,None,,,,,,,,,,,,,,,,,178,001,2024_Mar_06_1658,SpeechDraft1Carolyn_lessNoise_PlusLocalization,2021.2.3,59.90056781484596,
,,,,,,,,nearLeft,-6.5,1,ch1Sound_localizationTask.wav,-6.5,"(857, 878)","(-103,-202)",-95,-338,,,,,,,,,5,4,39,2,,,,,,,,,,,,,,,,,,,,,,,,,,,,,,,,,,,,,,,,,,,,1398.2682701190934,None,1399.3678554790094,None,1400.3013126989827,None,1.2714285714285714,0.7659065239131451,1400.3013126989827,None,,,,,,,,,,,,,,,,,178,001,2024_Mar_06_1658,SpeechDraft1Carolyn_lessNoise_PlusLocalization,2021.2.3,59.90056781484596,
,,,,,,,,farLeft,-19.1,5,ch1Sound_localizationTask.wav,-19.1,"(667, 878)","(-293,-202)",-285,-338,,,,,,,,,5,5,40,0,,,,,,,,,,,,,,,,,,,,,,,,,,,,,,,,,,,,,,,,,,,,1401.0682378411293,None,1402.1679111383855,None,1403.1014882791787,None,1.1619047619047618,1.7993752658367157,1403.1014882791787,None,,,,,,,,,,,,,,,,,178,001,2024_Mar_06_1658,SpeechDraft1Carolyn_lessNoise_PlusLocalization,2021.2.3,59.90056781484596,
,,,,,,,,midLeft,-13.0,2,ch1Sound_localizationTask.wav,-13.0,"(762, 878)","(-198,-202)",-190,-338,,,,,,,,,5,6,41,1,,,,,,,,,,,,,,,,,,,,,,,,,,,,,,,,,,,,,,,,,,,,1404.9015140719712,None,1406.00128587801,None,1406.9345303243026,None,1.2306878306878306,0.7325974563136697,1406.9345303243026,None,,,,,,,,,,,,,,,,,178,001,2024_Mar_06_1658,SpeechDraft1Carolyn_lessNoise_PlusLocalization,2021.2.3,59.90056781484596,
,,,,,,,,center,0.0,6,ch1Sound_localizationTask.wav,0.0,"(952, 878)","(-8,-202)",0,-338,,,,,,,,,6,0,42,3,,,,,,,,,,,,,,,,,,,,,,,,,,,,,,,,,,,,,,,,,,,,1407.6682650130242,None,1408.767896852456,None,1409.7014481537044,None,1.5714285714285714,0.8486187439411879,1409.7014481537044,None,,,,,,,,,,,,,,,,,178,001,2024_Mar_06_1658,SpeechDraft1Carolyn_lessNoise_PlusLocalization,2021.2.3,59.90056781484596,
,,,,,,,,midRight,13.0,3,ch1Sound_localizationTask.wav,13.0,"(1142, 878)","(182, -202)",190,-338,,,,,,,,,6,1,43,5,,,,,,,,,,,,,,,,,,,,,,,,,,,,,,,,,,,,,,,,,,,,1410.5515607129782,None,1411.651378880255,None,1412.5846441006288,None,1.6417989417989418,0.6995932348072529,1412.5846441006288,None,,,,,,,,,,,,,,,,,178,001,2024_Mar_06_1658,SpeechDraft1Carolyn_lessNoise_PlusLocalization,2021.2.3,59.90056781484596,
,,,,,,,,nearRight,6.5,0,ch1Sound_localizationTask.wav,6.5,"(1047, 878)","(87, -202)",95,-338,,,,,,,,,6,2,44,4,,,,,,,,,,,,,,,,,,,,,,,,,,,,,,,,,,,,,,,,,,,,1413.2849912969396,None,1414.3845293167979,None,1415.318119672127,None,1.4079365079365078,0.9992122948169708,1415.318119672127,None,,,,,,,,,,,,,,,,,178,001,2024_Mar_06_1658,SpeechDraft1Carolyn_lessNoise_PlusLocalization,2021.2.3,59.90056781484596,
,,,,,,,,center,0.0,6,ch1Sound_localizationTask.wav,0.0,"(952, 878)","(-8,-202)",0,-338,,,,,,,,,6,3,45,3,,,,,,,,,,,,,,,,,,,,,,,,,,,,,,,,,,,,,,,,,,,,1416.3183108028024,None,1417.417968288064,None,1418.3513325676322,None,1.535978835978836,0.48315542563796043,1418.3513325676322,None,,,,,,,,,,,,,,,,,178,001,2024_Mar_06_1658,SpeechDraft1Carolyn_lessNoise_PlusLocalization,2021.2.3,59.90056781484596,
,,,,,,,,nearLeft,-6.5,1,ch1Sound_localizationTask.wav,-6.5,"(857, 878)","(-103,-202)",-95,-338,,,,,,,,,6,4,46,2,,,,,,,,,,,,,,,,,,,,,,,,,,,,,,,,,,,,,,,,,,,,1418.8349501043558,None,1419.9345227275044,None,1420.8679589051753,None,1.251851851851852,0.6316635841503739,1420.8679589051753,None,,,,,,,,,,,,,,,,,178,001,2024_Mar_06_1658,SpeechDraft1Carolyn_lessNoise_PlusLocalization,2021.2.3,59.90056781484596,
,,,,,,,,midRight,13.0,3,ch1Sound_localizationTask.wav,13.0,"(1142, 878)","(182, -202)",190,-338,,,,,,,,,6,5,47,5,,,,,,,,,,,,,,,,,,,,,,,,,,,,,,,,,,,,,,,,,,,,1421.5017403746024,None,1422.6014138152823,None,1423.5345344226807,None,1.5312169312169313,0.565617335960269,1423.5345344226807,None,,,,,,,,,,,,,,,,,178,001,2024_Mar_06_1658,SpeechDraft1Carolyn_lessNoise_PlusLocalization,2021.2.3,59.90056781484596,
,,,,,,,,midLeft,-13.0,2,ch1Sound_localizationTask.wav,-13.0,"(762, 878)","(-198,-202)",-190,-338,,,,,,,,,6,6,48,1,,,,,,,,,,,,,,,,,,,,,,,,,,,,,,,,,,,,,,,,,,,,1424.1015521874651,None,1425.2012183647603,None,1426.1346405893564,None,1.2560846560846561,0.6148800104856491,1426.1346405893564,None,,,,,,,,,,,,,,,,,178,001,2024_Mar_06_1658,SpeechDraft1Carolyn_lessNoise_PlusLocalization,2021.2.3,59.90056781484596,
,,,,,,,,midRight,13.0,3,ch1Sound_localizationTask.wav,13.0,"(1142, 878)","(182, -202)",190,-338,,,,,,,,,7,0,49,5,,,,,,,,,,,,,,,,,,,,,,,,,,,,,,,,,,,,,,,,,,,,1426.7516014827415,None,1427.8512575151399,None,1428.78459934704,None,1.6264550264550266,0.6495039947330952,1428.78459934704,None,,,,,,,,,,,,,,,,,178,001,2024_Mar_06_1658,SpeechDraft1Carolyn_lessNoise_PlusLocalization,2021.2.3,59.90056781484596,
,,,,,,,,midRight,13.0,3,ch1Sound_localizationTask.wav,13.0,"(1142, 878)","(182, -202)",190,-338,,,,,,,,,7,1,50,5,,,,,,,,,,,,,,,,,,,,,,,,,,,,,,,,,,,,,,,,,,,,1429.434926243499,None,1430.5346607007086,None,1431.468079972081,None,1.6222222222222222,0.44835795275866985,1431.468079972081,None,,,,,,,,,,,,,,,,,178,001,2024_Mar_06_1658,SpeechDraft1Carolyn_lessNoise_PlusLocalization,2021.2.3,59.90056781484596,
,,,,,,,,farRight,19.1,4,ch1Sound_localizationTask.wav,19.1,"(1237, 878)","(277,-202)",285,-338,,,,,,,,,7,2,51,6,,,,,,,,,,,,,,,,,,,,,,,,,,,,,,,,,,,,,,,,,,,,1431.9184151496738,None,1433.0182588137686,None,1433.9514152314514,None,1.61005291005291,0.06665523909032345,1433.9514152314514,None,,,,,,,,,,,,,,,,,178,001,2024_Mar_06_1658,SpeechDraft1Carolyn_lessNoise_PlusLocalization,2021.2.3,59.90056781484596,
,,,,,,,,nearRight,6.5,0,ch1Sound_localizationTask.wav,6.5,"(1047, 878)","(87, -202)",95,-338,,,,,,,,,7,3,52,4,,,,,,,,,,,,,,,,,,,,,,,,,,,,,,,,,,,,,,,,,,,,1434.0184657042846,None,1435.1180236693472,None,1436.0513598592952,None,1.5201058201058202,0.14903045911341906,1436.0513598592952,None,,,,,,,,,,,,,,,,,178,001,2024_Mar_06_1658,SpeechDraft1Carolyn_lessNoise_PlusLocalization,2021.2.3,59.90056781484596,
,,,,,,,,midLeft,-13.0,2,ch1Sound_localizationTask.wav,-13.0,"(762, 878)","(-198,-202)",-190,-338,,,,,,,,,7,4,53,1,,,,,,,,,,,,,,,,,,,,,,,,,,,,,,,,,,,,,,,,,,,,1436.2017068685964,None,1437.3013121075928,None,1438.234788668342,None,1.1957671957671958,0.566661567427218,1438.234788668342,None,,,,,,,,,,,,,,,,,178,001,2024_Mar_06_1658,SpeechDraft1Carolyn_lessNoise_PlusLocalization,2021.2.3,59.90056781484596,
,,,,,,,,midRight,13.0,3,ch1Sound_localizationTask.wav,13.0,"(1142, 878)","(182, -202)",190,-338,,,,,,,,,7,5,54,5,,,,,,,,,,,,,,,,,,,,,,,,,,,,,,,,,,,,,,,,,,,,1438.8017455050722,None,1439.9013791298494,None,1440.834745740518,None,1.5825396825396827,0.5993972606956959,1440.834745740518,None,,,,,,,,,,,,,,,,,178,001,2024_Mar_06_1658,SpeechDraft1Carolyn_lessNoise_PlusLocalization,2021.2.3,59.90056781484596,
,,,,,,,,center,0.0,6,ch1Sound_localizationTask.wav,0.0,"(952, 878)","(-8,-202)",0,-338,,,,,,,,,7,6,55,3,,,,,,,,,,,,,,,,,,,,,,,,,,,,,,,,,,,,,,,,,,,,1441.4349542455748,None,1442.5347080463544,None,1443.4680401636288,None,1.5486772486772487,0.7999822059646249,1443.4680401636288,None,,,,,,,,,,,,,,,,,178,001,2024_Mar_06_1658,SpeechDraft1Carolyn_lessNoise_PlusLocalization,2021.2.3,59.90056781484596,
,,,,,,,,,,,,,,,,,,,,,,,,,,,,,,,,,,,,,,,,,,,,,,,,,,,,,,,,,,,,,,,,,,,,,,,,,,,,,,,,,,space,9.16074210125953,1444.3683616705239,None,,,,,,,,,,,,,178,001,2024_Mar_06_1658,SpeechDraft1Carolyn_lessNoise_PlusLocalization,2021.2.3,59.90056781484596,
,,,,,,,,midRight,13.0,3,ch1Sound_localizationTask.wav,13.0,"(1142, 878)","(182, -202)",190,-338,,,,,,,,,,,,,0,0,0,5,,,,,,,,,,,,,,,,,,,,,,,,,,,,,,,,,,,,,,,,1453.5680914605036,None,,,1456.6012801779434,None,1.5989417989417989,0.836679914034903,1456.6012801779434,None,,,,,1444.3683616705239,None,1454.5686025926843,None,1454.7516516726464,1454.7681491943076,,,,,,,178,001,2024_Mar_06_1658,SpeechDraft1Carolyn_lessNoise_PlusLocalization,2021.2.3,59.90056781484596,
,,,,,,,,nearRight,6.5,0,ch1Sound_localizationTask.wav,6.5,"(1047, 878)","(87, -202)",95,-338,,,,,,,,,,,,,0,1,1,4,,,,,,,,,,,,,,,,,,,,,,,,,,,,,,,,,,,,,,,,1457.4349247235805,None,,,1460.4514266988263,None,1.5349206349206348,0.5491921911016107,1460.4514266988263,None,,,,,,,1458.4349084971473,None,1458.6182802719995,1458.634855400771,,,,,,,178,001,2024_Mar_06_1658,SpeechDraft1Carolyn_lessNoise_PlusLocalization,2021.2.3,59.90056781484596,
,,,,,,,,farLeft,-19.1,5,ch1Sound_localizationTask.wav,-19.1,"(667, 878)","(-293,-202)",-285,-338,,,,,,,,,,,,,0,2,2,0,,,,,,,,,,,,,,,,,,,,,,,,,,,,,,,,,,,,,,,,1461.0016550682485,None,,,1464.0179427172989,None,1.335978835978836,0.6831498593091965,1464.0179427172989,None,,,,,,,1462.0017426423728,None,1462.1850299164653,1462.2016100715846,,,,,,,178,001,2024_Mar_06_1658,SpeechDraft1Carolyn_lessNoise_PlusLocalization,2021.2.3,59.90056781484596,
,,,,,,,,farRight,19.1,4,ch1Sound_localizationTask.wav,19.1,"(1237, 878)","(277,-202)",285,-338,,,,,,,,,,,,,0,3,3,6,,,,,,,,,,,,,,,,,,,,,,,,,,,,,,,,,,,,,,,,1464.7016195086762,None,,,1467.7181248702109,None,1.6523809523809523,0.6660311678424478,1467.7181248702109,None,,,,,,,1465.7016222607344,None,1465.8850064091384,1465.9015861544758,,,,,,,178,001,2024_Mar_06_1658,SpeechDraft1Carolyn_lessNoise_PlusLocalization,2021.2.3,59.90056781484596,
,,,,,,,,farLeft,-19.1,5,ch1Sound_localizationTask.wav,-19.1,"(667, 878)","(-293,-202)",-285,-338,,,,,,,,,,,,,0,4,4,0,,,,,,,,,,,,,,,,,,,,,,,,,,,,,,,,,,,,,,,,1468.3852626103908,None,,,1471.4015087410808,None,1.331216931216931,0.8161589913070202,1471.4015087410808,None,,,,,,,1469.3850374436006,None,1469.5683695627376,1469.5849679308012,,,,,,,178,001,2024_Mar_06_1658,SpeechDraft1Carolyn_lessNoise_PlusLocalization,2021.2.3,59.90056781484596,
,,,,,,,,nearRight,6.5,0,ch1Sound_localizationTask.wav,6.5,"(1047, 878)","(87, -202)",95,-338,,,,,,,,,,,,,0,5,5,4,,,,,,,,,,,,,,,,,,,,,,,,,,,,,,,,,,,,,,,,1472.2351539907977,None,,,1475.2513560662046,None,1.544973544973545,0.9846239639446139,1475.2513560662046,None,,,,,,,1473.2349311215803,None,1473.41832897719,1473.434960693121,,,,,,,178,001,2024_Mar_06_1658,SpeechDraft1Carolyn_lessNoise_PlusLocalization,2021.2.3,59.90056781484596,
,,,,,,,,midRight,13.0,3,ch1Sound_localizationTask.wav,13.0,"(1142, 878)","(182, -202)",190,-338,,,,,,,,,,,,,0,6,6,5,,,,,,,,,,,,,,,,,,,,,,,,,,,,,,,,,,,,,,,,1476.251670553349,None,,,1479.2680337317288,None,1.6111111111111112,0.71512505505234,1479.2680337317288,None,,,,,,,1477.251716889441,None,1477.4350162809715,1477.4516839208081,,,,,,,178,001,2024_Mar_06_1658,SpeechDraft1Carolyn_lessNoise_PlusLocalization,2021.2.3,59.90056781484596,
,,,,,,,,nearRight,6.5,0,ch1Sound_localizationTask.wav,6.5,"(1047, 878)","(87, -202)",95,-338,,,,,,,,,,,,,1,0,7,4,,,,,,,,,,,,,,,,,,,,,,,,,,,,,,,,,,,,,,,,1479.9850832661614,None,,,1483.0013639386743,None,1.5497354497354499,0.6824941597878933,1483.0013639386743,None,,,,,,,1480.985050873831,None,1481.1682321317494,1481.1851047864184,,,,,,,178,001,2024_Mar_06_1658,SpeechDraft1Carolyn_lessNoise_PlusLocalization,2021.2.3,59.90056781484596,
,,,,,,,,center,0.0,6,ch1Sound_localizationTask.wav,0.0,"(952, 878)","(-8,-202)",0,-338,,,,,,,,,,,,,1,1,8,3,,,,,,,,,,,,,,,,,,,,,,,,,,,,,,,,,,,,,,,,1483.6849521314725,None,,,1486.7013967400417,None,1.4857142857142858,0.565482665784657,1486.7013967400417,None,,,,,,,1484.685030178167,None,1484.8684366308153,1484.8850194560364,,,,,,,178,001,2024_Mar_06_1658,SpeechDraft1Carolyn_lessNoise_PlusLocalization,2021.2.3,59.90056781484596,
,,,,,,,,nearLeft,-6.5,1,ch1Sound_localizationTask.wav,-6.5,"(857, 878)","(-103,-202)",-95,-338,,,,,,,,,,,,,1,2,9,2,,,,,,,,,,,,,,,,,,,,,,,,,,,,,,,,,,,,,,,,1487.2684374963865,None,,,1490.284748269245,None,1.4455026455026454,0.649132402613759,1490.284748269245,None,,,,,,,1488.2683193031698,None,1488.4516335343942,1488.4684509132057,,,,,,,178,001,2024_Mar_06_1658,SpeechDraft1Carolyn_lessNoise_PlusLocalization,2021.2.3,59.90056781484596,
,,,,,,,,midLeft,-13.0,2,ch1Sound_localizationTask.wav,-13.0,"(762, 878)","(-198,-202)",-190,-338,,,,,,,,,,,,,1,3,10,1,,,,,,,,,,,,,,,,,,,,,,,,,,,,,,,,,,,,,,,,1490.9349643215537,None,,,1493.9514221325517,None,1.38994708994709,0.8321483796462417,1493.9514221325517,None,,,,,,,1491.9351004734635,None,1492.1183700878173,1492.1350400941446,,,,,,,178,001,2024_Mar_06_1658,SpeechDraft1Carolyn_lessNoise_PlusLocalization,2021.2.3,59.90056781484596,
,,,,,,,,center,0.0,6,ch1Sound_localizationTask.wav,0.0,"(952, 878)","(-8,-202)",0,-338,,,,,,,,,,,,,1,4,11,3,,,,,,,,,,,,,,,,,,,,,,,,,,,,,,,,,,,,,,,,1494.7850182708353,None,,,1497.8015457121655,None,1.5005291005291004,0.9486882211640477,1497.8015457121655,None,,,,,,,1495.7851531961933,None,1495.9684136100113,1495.9851205218583,,,,,,,178,001,2024_Mar_06_1658,SpeechDraft1Carolyn_lessNoise_PlusLocalization,2021.2.3,59.90056781484596,
,,,,,,,,midRight,13.0,3,ch1Sound_localizationTask.wav,13.0,"(1142, 878)","(182, -202)",190,-338,,,,,,,,,,,,,1,5,12,5,,,,,,,,,,,,,,,,,,,,,,,,,,,,,,,,,,,,,,,,1498.7516853809357,None,,,1501.7680751867592,None,1.6185185185185185,0.6149172782897949,1501.7680751867592,None,,,,,,,1499.7516577560455,None,1499.9351155925542,1499.9517085226253,,,,,,,178,001,2024_Mar_06_1658,SpeechDraft1Carolyn_lessNoise_PlusLocalization,2021.2.3,59.90056781484596,
,,,,,,,,nearLeft,-6.5,1,ch1Sound_localizationTask.wav,-6.5,"(857, 878)","(-103,-202)",-95,-338,,,,,,,,,,,,,1,6,13,2,,,,,,,,,,,,,,,,,,,,,,,,,,,,,,,,,,,,,,,,1502.3853693008423,None,,,1505.4014496663585,None,1.4402116402116403,1.0820174515247345,1505.4014496663585,None,,,,,,,1503.3850362626836,None,1503.5682974075899,1503.5850055972114,,,,,,,178,001,2024_Mar_06_1658,SpeechDraft1Carolyn_lessNoise_PlusLocalization,2021.2.3,59.90056781484596,
,,,,,,,,midRight,13.0,3,ch1Sound_localizationTask.wav,13.0,"(1142, 878)","(182, -202)",190,-338,,,,,,,,,,,,,2,0,14,5,,,,,,,,,,,,,,,,,,,,,,,,,,,,,,,,,,,,,,,,1506.4851882262155,None,,,1509.5014758501202,None,1.6227513227513226,1.1823553731665015,1509.5014758501202,None,,,,,,,1507.4850445920601,None,1507.66829734575,1507.685108882375,,,,,,,178,001,2024_Mar_06_1658,SpeechDraft1Carolyn_lessNoise_PlusLocalization,2021.2.3,59.90056781484596,
,,,,,,,,nearRight,6.5,0,ch1Sound_localizationTask.wav,6.5,"(1047, 878)","(87, -202)",95,-338,,,,,,,,,,,,,2,1,15,4,,,,,,,,,,,,,,,,,,,,,,,,,,,,,,,,,,,,,,,,1510.70163736213,None,,,1513.718213815242,None,1.5492063492063493,0.8704690942540765,1513.718213815242,None,,,,,,,1511.701752141118,None,1511.8850049106404,1511.9017435247079,,,,,,,178,001,2024_Mar_06_1658,SpeechDraft1Carolyn_lessNoise_PlusLocalization,2021.2.3,59.90056781484596,
,,,,,,,,farRight,19.1,4,ch1Sound_localizationTask.wav,19.1,"(1237, 878)","(277,-202)",285,-338,,,,,,,,,,,,,2,2,16,6,,,,,,,,,,,,,,,,,,,,,,,,,,,,,,,,,,,,,,,,1514.6023866655305,None,,,1517.6181831769645,None,1.6677248677248677,0.865654893219471,1517.6181831769645,None,,,,,,,1515.6017661681399,None,1515.7850369997323,1515.8018136247993,,,,,,,178,001,2024_Mar_06_1658,SpeechDraft1Carolyn_lessNoise_PlusLocalization,2021.2.3,59.90056781484596,
,,,,,,,,midRight,13.0,3,ch1Sound_localizationTask.wav,13.0,"(1142, 878)","(182, -202)",190,-338,,,,,,,,,,,,,2,3,17,5,,,,,,,,,,,,,,,,,,,,,,,,,,,,,,,,,,,,,,,,1518.4867960475385,None,,,1521.518151880242,None,1.615873015873016,0.8830627910792828,1521.518151880242,None,,,,,,,1519.501696543768,None,1519.6850049644709,1519.7017162051052,,,,,,,178,001,2024_Mar_06_1658,SpeechDraft1Carolyn_lessNoise_PlusLocalization,2021.2.3,59.90056781484596,
,,,,,,,,nearRight,6.5,0,ch1Sound_localizationTask.wav,6.5,"(1047, 878)","(87, -202)",95,-338,,,,,,,,,,,,,2,4,18,4,,,,,,,,,,,,,,,,,,,,,,,,,,,,,,,,,,,,,,,,1522.402148569934,None,,,1525.4181870007887,None,1.5513227513227514,1.0166066996753216,1525.4181870007887,None,,,,,,,1523.401613661088,None,1523.5850718142465,1523.6016913866624,,,,,,,178,001,2024_Mar_06_1658,SpeechDraft1Carolyn_lessNoise_PlusLocalization,2021.2.3,59.90056781484596,
,,,,,,,,midLeft,-13.0,2,ch1Sound_localizationTask.wav,-13.0,"(762, 878)","(-198,-202)",-190,-338,,,,,,,,,,,,,2,5,19,1,,,,,,,,,,,,,,,,,,,,,,,,,,,,,,,,,,,,,,,,1526.4350204104558,None,,,1529.4514351496473,None,1.3328042328042329,0.8996984483674169,1529.4514351496473,None,,,,,,,1527.435211436823,None,1527.6184500949457,1527.6350767612457,,,,,,,178,001,2024_Mar_06_1658,SpeechDraft1Carolyn_lessNoise_PlusLocalization,2021.2.3,59.90056781484596,
,,,,,,,,midLeft,-13.0,2,ch1Sound_localizationTask.wav,-13.0,"(762, 878)","(-198,-202)",-190,-338,,,,,,,,,,,,,2,6,20,1,,,,,,,,,,,,,,,,,,,,,,,,,,,,,,,,,,,,,,,,1530.3518070746213,None,,,1533.3682352658361,None,1.3883597883597885,0.8334644101560116,1533.3682352658361,None,,,,,,,1531.3517808113247,None,1531.5350632844493,1531.551890145056,,,,,,,178,001,2024_Mar_06_1658,SpeechDraft1Carolyn_lessNoise_PlusLocalization,2021.2.3,59.90056781484596,
,,,,,,,,nearLeft,-6.5,1,ch1Sound_localizationTask.wav,-6.5,"(857, 878)","(-103,-202)",-95,-338,,,,,,,,,,,,,3,0,21,2,,,,,,,,,,,,,,,,,,,,,,,,,,,,,,,,,,,,,,,,1534.2188568897545,None,,,1537.2348382109776,None,1.433862433862434,0.9490975961089134,1537.2348382109776,None,,,,,,,1535.2184286443517,None,1535.4017052622512,1535.4184085521847,,,,,,,178,001,2024_Mar_06_1658,SpeechDraft1Carolyn_lessNoise_PlusLocalization,2021.2.3,59.90056781484596,
,,,,,,,,midRight,13.0,3,ch1Sound_localizationTask.wav,13.0,"(1142, 878)","(182, -202)",190,-338,,,,,,,,,,,,,3,1,22,5,,,,,,,,,,,,,,,,,,,,,,,,,,,,,,,,,,,,,,,,1538.185108677484,None,,,1541.2015333818272,None,1.6015873015873017,0.8997760992497206,1541.2015333818272,None,,,,,,,1539.1850895890966,None,1539.3685052534565,1539.3851302424446,,,,,,,178,001,2024_Mar_06_1658,SpeechDraft1Carolyn_lessNoise_PlusLocalization,2021.2.3,59.90056781484596,
,,,,,,,,center,0.0,6,ch1Sound_localizationTask.wav,0.0,"(952, 878)","(-8,-202)",0,-338,,,,,,,,,,,,,3,2,23,3,,,,,,,,,,,,,,,,,,,,,,,,,,,,,,,,,,,,,,,,1542.1016306327656,None,,,1545.1182046020404,None,1.4835978835978836,0.7662429865449667,1545.1182046020404,None,,,,,,,1543.1017949236557,None,1543.2851147102192,1543.3016724437475,,,,,,,178,001,2024_Mar_06_1658,SpeechDraft1Carolyn_lessNoise_PlusLocalization,2021.2.3,59.90056781484596,
,,,,,,,,nearLeft,-6.5,1,ch1Sound_localizationTask.wav,-6.5,"(857, 878)","(-103,-202)",-95,-338,,,,,,,,,,,,,3,3,24,2,,,,,,,,,,,,,,,,,,,,,,,,,,,,,,,,,,,,,,,,1545.88524535764,None,,,1548.9015636276454,None,1.4455026455026454,0.7828921657055616,1548.9015636276454,None,,,,,,,1546.8851170502603,None,1547.0684151910245,1547.0850125839934,,,,,,,178,001,2024_Mar_06_1658,SpeechDraft1Carolyn_lessNoise_PlusLocalization,2021.2.3,59.90056781484596,
,,,,,,,,midLeft,-13.0,2,ch1Sound_localizationTask.wav,-13.0,"(762, 878)","(-198,-202)",-190,-338,,,,,,,,,,,,,3,4,25,1,,,,,,,,,,,,,,,,,,,,,,,,,,,,,,,,,,,,,,,,1549.6851061610505,None,,,1552.7014690199867,None,1.3894179894179894,1.1488241953775287,1552.7014690199867,None,,,,,,,1550.6851525353268,None,1550.868519638665,1550.8850929401815,,,,,,,178,001,2024_Mar_06_1658,SpeechDraft1Carolyn_lessNoise_PlusLocalization,2021.2.3,59.90056781484596,
,,,,,,,,nearLeft,-6.5,1,ch1Sound_localizationTask.wav,-6.5,"(857, 878)","(-103,-202)",-95,-338,,,,,,,,,,,,,3,5,26,2,,,,,,,,,,,,,,,,,,,,,,,,,,,,,,,,,,,,,,,,1553.8519510440528,None,,,1556.8682512389496,None,1.457142857142857,0.816326230764389,1556.8682512389496,None,,,,,,,1554.8517353897914,None,1555.0351235307753,1555.0519286729395,,,,,,,178,001,2024_Mar_06_1658,SpeechDraft1Carolyn_lessNoise_PlusLocalization,2021.2.3,59.90056781484596,
,,,,,,,,farLeft,-19.1,5,ch1Sound_localizationTask.wav,-19.1,"(667, 878)","(-293,-202)",-285,-338,,,,,,,,,,,,,3,6,27,0,,,,,,,,,,,,,,,,,,,,,,,,,,,,,,,,,,,,,,,,1557.6850430741906,None,,,1560.701517926529,None,1.3074074074074074,1.0508344797417521,1560.701517926529,None,,,,,,,1558.6850850498304,None,1558.8684811163694,1558.8849966106936,,,,,,,178,001,2024_Mar_06_1658,SpeechDraft1Carolyn_lessNoise_PlusLocalization,2021.2.3,59.90056781484596,
,,,,,,,,farRight,19.1,4,ch1Sound_localizationTask.wav,19.1,"(1237, 878)","(277,-202)",285,-338,,,,,,,,,,,,,4,0,28,6,,,,,,,,,,,,,,,,,,,,,,,,,,,,,,,,,,,,,,,,1561.7684120861813,None,,,1564.7848670240492,None,1.708994708994709,1.267427844926715,1564.7848670240492,None,,,,,,,1562.768471854739,None,1562.9517811145633,1562.9683809923008,,,,,,,178,001,2024_Mar_06_1658,SpeechDraft1Carolyn_lessNoise_PlusLocalization,2021.2.3,59.90056781484596,
,,,,,,,,midLeft,-13.0,2,ch1Sound_localizationTask.wav,-13.0,"(762, 878)","(-198,-202)",-190,-338,,,,,,,,,,,,,4,1,29,1,,,,,,,,,,,,,,,,,,,,,,,,,,,,,,,,,,,,,,,,1566.0685936082155,None,,,1569.0849005077034,None,1.3507936507936509,1.233863147906959,1569.0849005077034,None,,,,,,,1567.0684716152027,None,1567.251824842766,1567.2684277351946,,,,,,,178,001,2024_Mar_06_1658,SpeechDraft1Carolyn_lessNoise_PlusLocalization,2021.2.3,59.90056781484596,
,,,,,,,,nearRight,6.5,0,ch1Sound_localizationTask.wav,6.5,"(1047, 878)","(87, -202)",95,-338,,,,,,,,,,,,,4,2,30,4,,,,,,,,,,,,,,,,,,,,,,,,,,,,,,,,,,,,,,,,1570.335076556541,None,,,1573.3516814066097,None,1.5857142857142859,0.916031988337636,1573.3516814066097,None,,,,,,,1571.3350733481348,None,1571.5185188893229,1571.5351492352784,,,,,,,178,001,2024_Mar_06_1658,SpeechDraft1Carolyn_lessNoise_PlusLocalization,2021.2.3,59.90056781484596,
,,,,,,,,nearLeft,-6.5,1,ch1Sound_localizationTask.wav,-6.5,"(857, 878)","(-103,-202)",-95,-338,,,,,,,,,,,,,4,3,31,2,,,,,,,,,,,,,,,,,,,,,,,,,,,,,,,,,,,,,,,,1574.2684310115874,None,,,1577.2850170508027,None,1.4126984126984126,0.9001824725419283,1577.2850170508027,None,,,,,,,1575.2684934129938,None,1575.4517589211464,1575.4684306504205,,,,,,,178,001,2024_Mar_06_1658,SpeechDraft1Carolyn_lessNoise_PlusLocalization,2021.2.3,59.90056781484596,
,,,,,,,,farLeft,-19.1,5,ch1Sound_localizationTask.wav,-19.1,"(667, 878)","(-293,-202)",-285,-338,,,,,,,,,,,,,4,4,32,0,,,,,,,,,,,,,,,,,,,,,,,,,,,,,,,,,,,,,,,,1578.1857824875042,None,,,1581.2015405232087,None,1.3195767195767196,0.8162347283214331,1581.2015405232087,None,,,,,,,1579.1851268121973,None,1579.3684900803491,1579.3851047893986,,,,,,,178,001,2024_Mar_06_1658,SpeechDraft1Carolyn_lessNoise_PlusLocalization,2021.2.3,59.90056781484596,
,,,,,,,,farRight,19.1,4,ch1Sound_localizationTask.wav,19.1,"(1237, 878)","(277,-202)",285,-338,,,,,,,,,,,,,4,5,33,6,,,,,,,,,,,,,,,,,,,,,,,,,,,,,,,,,,,,,,,,1582.035265892744,None,,,1585.051560743712,None,1.71005291005291,1.0327803157269955,1585.051560743712,None,,,,,,,1583.0351582523435,None,1583.218505793251,1583.2351217921823,,,,,,,178,001,2024_Mar_06_1658,SpeechDraft1Carolyn_lessNoise_PlusLocalization,2021.2.3,59.90056781484596,
,,,,,,,,midLeft,-13.0,2,ch1Sound_localizationTask.wav,-13.0,"(762, 878)","(-198,-202)",-190,-338,,,,,,,,,,,,,4,6,34,1,,,,,,,,,,,,,,,,,,,,,,,,,,,,,,,,,,,,,,,,1586.0851870486513,None,,,1589.1015728004277,None,1.397883597883598,0.9164940491318703,1589.1015728004277,None,,,,,,,1587.0851156264544,None,1587.2684268420562,1587.2852325281128,,,,,,,178,001,2024_Mar_06_1658,SpeechDraft1Carolyn_lessNoise_PlusLocalization,2021.2.3,59.90056781484596,
,,,,,,,,center,0.0,6,ch1Sound_localizationTask.wav,0.0,"(952, 878)","(-8,-202)",0,-338,,,,,,,,,,,,,5,0,35,3,,,,,,,,,,,,,,,,,,,,,,,,,,,,,,,,,,,,,,,,1590.0188687676564,None,,,1593.0349280154333,None,1.4952380952380953,0.716458648443222,1593.0349280154333,None,,,,,,,1591.018425885588,None,1591.2018757360056,1591.2186423661187,,,,,,,178,001,2024_Mar_06_1658,SpeechDraft1Carolyn_lessNoise_PlusLocalization,2021.2.3,59.90056781484596,
,,,,,,,,nearRight,6.5,0,ch1Sound_localizationTask.wav,6.5,"(1047, 878)","(87, -202)",95,-338,,,,,,,,,,,,,5,1,36,4,,,,,,,,,,,,,,,,,,,,,,,,,,,,,,,,,,,,,,,,1593.7522260425612,None,,,1596.7682524165139,None,1.5534391534391534,0.849424360319972,1596.7682524165139,None,,,,,,,1594.7517533740029,None,1594.9350945800543,1594.9517932515591,,,,,,,178,001,2024_Mar_06_1658,SpeechDraft1Carolyn_lessNoise_PlusLocalization,2021.2.3,59.90056781484596,
,,,,,,,,center,0.0,6,ch1Sound_localizationTask.wav,0.0,"(952, 878)","(-8,-202)",0,-338,,,,,,,,,,,,,5,2,37,3,,,,,,,,,,,,,,,,,,,,,,,,,,,,,,,,,,,,,,,,1597.6184893595055,None,,,1600.6349749853835,None,1.4814814814814814,0.966733536683023,1600.6349749853835,None,,,,,,,1598.6185436230153,None,1598.8019215129316,1598.8185123382136,,,,,,,178,001,2024_Mar_06_1658,SpeechDraft1Carolyn_lessNoise_PlusLocalization,2021.2.3,59.90056781484596,
,,,,,,,,farLeft,-19.1,5,ch1Sound_localizationTask.wav,-19.1,"(667, 878)","(-293,-202)",-285,-338,,,,,,,,,,,,,5,3,38,0,,,,,,,,,,,,,,,,,,,,,,,,,,,,,,,,,,,,,,,,1601.6185210524127,None,,,1604.635266349651,None,1.2931216931216931,1.1282758982852101,1604.635266349651,None,,,,,,,1602.61850911472,None,1602.8018695460632,1602.8184708431363,,,,,,,178,001,2024_Mar_06_1658,SpeechDraft1Carolyn_lessNoise_PlusLocalization,2021.2.3,59.90056781484596,
,,,,,,,,farLeft,-19.1,5,ch1Sound_localizationTask.wav,-19.1,"(667, 878)","(-293,-202)",-285,-338,,,,,,,,,,,,,5,4,39,0,,,,,,,,,,,,,,,,,,,,,,,,,,,,,,,,,,,,,,,,1605.7685201177374,None,,,1608.7848202912137,None,1.3132275132275133,1.1824788376688957,1608.7848202912137,None,,,,,,,1606.7685579406098,None,1606.951821340248,1606.96856891457,,,,,,,178,001,2024_Mar_06_1658,SpeechDraft1Carolyn_lessNoise_PlusLocalization,2021.2.3,59.90056781484596,
,,,,,,,,farRight,19.1,4,ch1Sound_localizationTask.wav,19.1,"(1237, 878)","(277,-202)",285,-338,,,,,,,,,,,,,5,5,40,6,,,,,,,,,,,,,,,,,,,,,,,,,,,,,,,,,,,,,,,,1609.9685163451359,None,,,1612.9849156783894,None,1.6978835978835978,1.1998850088566542,1612.9849156783894,None,,,,,,,1610.9685815237463,None,1611.1520743425936,1611.1685394560918,,,,,,,178,001,2024_Mar_06_1658,SpeechDraft1Carolyn_lessNoise_PlusLocalization,2021.2.3,59.90056781484596,
,,,,,,,,farLeft,-19.1,5,ch1Sound_localizationTask.wav,-19.1,"(667, 878)","(-293,-202)",-285,-338,,,,,,,,,,,,,5,6,41,0,,,,,,,,,,,,,,,,,,,,,,,,,,,,,,,,,,,,,,,,1614.1855731606483,None,,,1617.201615399681,None,1.291005291005291,1.1000446323305368,1617.201615399681,None,,,,,,,1615.185252171941,None,1615.368549973704,1615.3852469185367,,,,,,,178,001,2024_Mar_06_1658,SpeechDraft1Carolyn_lessNoise_PlusLocalization,2021.2.3,59.90056781484596,
,,,,,,,,center,0.0,6,ch1Sound_localizationTask.wav,0.0,"(952, 878)","(-8,-202)",0,-338,,,,,,,,,,,,,6,0,42,3,,,,,,,,,,,,,,,,,,,,,,,,,,,,,,,,,,,,,,,,1618.3023315370083,None,,,1621.3182276496664,None,1.3825396825396825,2.015078840777278,1621.3182276496664,None,,,,,,,1619.3019084418193,None,1619.4852355485782,1619.5019482383505,,,,,,,178,001,2024_Mar_06_1658,SpeechDraft1Carolyn_lessNoise_PlusLocalization,2021.2.3,59.90056781484596,
,,,,,,,,farLeft,-19.1,5,ch1Sound_localizationTask.wav,-19.1,"(667, 878)","(-293,-202)",-285,-338,,,,,,,,,,,,,6,1,43,0,,,,,,,,,,,,,,,,,,,,,,,,,,,,,,,,,,,,,,,,1623.3351161945611,None,,,1626.3516633752733,None,1.2968253968253969,0.9843928068876266,1626.3516633752733,None,,,,,,,1624.3352637095377,None,1624.5185183165595,1624.5352065572515,,,,,,,178,001,2024_Mar_06_1658,SpeechDraft1Carolyn_lessNoise_PlusLocalization,2021.2.3,59.90056781484596,
,,,,,,,,farRight,19.1,4,ch1Sound_localizationTask.wav,19.1,"(1237, 878)","(277,-202)",285,-338,,,,,,,,,,,,,6,2,44,6,,,,,,,,,,,,,,,,,,,,,,,,,,,,,,,,,,,,,,,,1627.3520009713247,None,,,1630.3683258928359,None,1.716931216931217,0.9318605251610279,1630.3683258928359,None,,,,,,,1628.351936227642,None,1628.535239290446,1628.5519619183615,,,,,,,178,001,2024_Mar_06_1658,SpeechDraft1Carolyn_lessNoise_PlusLocalization,2021.2.3,59.90056781484596,
,,,,,,,,farRight,19.1,4,ch1Sound_localizationTask.wav,19.1,"(1237, 878)","(277,-202)",285,-338,,,,,,,,,,,,,6,3,45,6,,,,,,,,,,,,,,,,,,,,,,,,,,,,,,,,,,,,,,,,1631.3018145430833,None,,,1634.3183909412473,None,1.6761904761904762,0.9330674652010202,1634.3183909412473,None,,,,,,,1632.3018686249852,None,1632.485294229351,1632.5019023185596,,,,,,,178,001,2024_Mar_06_1658,SpeechDraft1Carolyn_lessNoise_PlusLocalization,2021.2.3,59.90056781484596,
,,,,,,,,nearLeft,-6.5,1,ch1Sound_localizationTask.wav,-6.5,"(857, 878)","(-103,-202)",-95,-338,,,,,,,,,,,,,6,4,46,2,,,,,,,,,,,,,,,,,,,,,,,,,,,,,,,,,,,,,,,,1635.252140856348,None,,,1638.268461980857,None,1.4010582010582011,1.066724630072713,1638.268461980857,None,,,,,,,1636.2519115256146,None,1636.4352663522586,1636.45192972105,,,,,,,178,001,2024_Mar_06_1658,SpeechDraft1Carolyn_lessNoise_PlusLocalization,2021.2.3,59.90056781484596,
,,,,,,,,midLeft,-13.0,2,ch1Sound_localizationTask.wav,-13.0,"(762, 878)","(-198,-202)",-190,-338,,,,,,,,,,,,,6,5,47,1,,,,,,,,,,,,,,,,,,,,,,,,,,,,,,,,,,,,,,,,1639.3519438225776,None,,,1642.3683342905715,None,1.3608465608465607,1.616353027522564,1642.3683342905715,None,,,,,,,1640.3519350616261,None,1640.5352181857452,1640.5519700292498,,,,,,,178,001,2024_Mar_06_1658,SpeechDraft1Carolyn_lessNoise_PlusLocalization,2021.2.3,59.90056781484596,
,,,,,,,,midRight,13.0,3,ch1Sound_localizationTask.wav,13.0,"(1142, 878)","(182, -202)",190,-338,,,,,,,,,,,,,6,6,48,5,,,,,,,,,,,,,,,,,,,,,,,,,,,,,,,,,,,,,,,,1643.9865550743416,None,,,1647.0182302556932,None,1.6280423280423282,0.8000914864242077,1647.0182302556932,None,,,,,,,1645.0018901824951,None,1645.185334617272,1645.2019173372537,,,,,,,178,001,2024_Mar_06_1658,SpeechDraft1Carolyn_lessNoise_PlusLocalization,2021.2.3,59.90056781484596,
,,,,,,,,center,0.0,6,ch1Sound_localizationTask.wav,0.0,"(952, 878)","(-8,-202)",0,-338,,,,,,,,,,,,,7,0,49,3,,,,,,,,,,,,,,,,,,,,,,,,,,,,,,,,,,,,,,,,1647.8187335170805,None,,,1650.8350280476734,None,1.4968253968253968,0.6653405521064997,1650.8350280476734,None,,,,,,,1648.818650212139,None,1649.001862578094,1649.0186533834785,,,,,,,178,001,2024_Mar_06_1658,SpeechDraft1Carolyn_lessNoise_PlusLocalization,2021.2.3,59.90056781484596,
,,,,,,,,nearLeft,-6.5,1,ch1Sound_localizationTask.wav,-6.5,"(857, 878)","(-103,-202)",-95,-338,,,,,,,,,,,,,7,1,50,2,,,,,,,,,,,,,,,,,,,,,,,,,,,,,,,,,,,,,,,,1651.5022116918117,None,,,1654.5181886320934,None,1.4211640211640213,0.8163936519995332,1654.5181886320934,None,,,,,,,1652.5019599711522,None,1652.685247041285,1652.7019045315683,,,,,,,178,001,2024_Mar_06_1658,SpeechDraft1Carolyn_lessNoise_PlusLocalization,2021.2.3,59.90056781484596,
,,,,,,,,midLeft,-13.0,2,ch1Sound_localizationTask.wav,-13.0,"(762, 878)","(-198,-202)",-190,-338,,,,,,,,,,,,,7,2,51,1,,,,,,,,,,,,,,,,,,,,,,,,,,,,,,,,,,,,,,,,1655.3519519614056,None,,,1658.3682037536055,None,1.3904761904761904,0.6668977281078696,1658.3682037536055,None,,,,,,,1656.3519427254796,None,1656.5353281069547,1656.5519780060276,,,,,,,178,001,2024_Mar_06_1658,SpeechDraft1Carolyn_lessNoise_PlusLocalization,2021.2.3,59.90056781484596,
,,,,,,,,nearRight,6.5,0,ch1Sound_localizationTask.wav,6.5,"(1047, 878)","(87, -202)",95,-338,,,,,,,,,,,,,7,3,52,4,,,,,,,,,,,,,,,,,,,,,,,,,,,,,,,,,,,,,,,,1659.051994680427,None,,,1662.0684114238247,None,1.5915343915343916,0.7164455773308873,1662.0684114238247,None,,,,,,,1660.0519601954147,None,1660.2352794567123,1660.251798639074,,,,,,,178,001,2024_Mar_06_1658,SpeechDraft1Carolyn_lessNoise_PlusLocalization,2021.2.3,59.90056781484596,
,,,,,,,,midRight,13.0,3,ch1Sound_localizationTask.wav,13.0,"(1142, 878)","(182, -202)",190,-338,,,,,,,,,,,,,7,4,53,5,,,,,,,,,,,,,,,,,,,,,,,,,,,,,,,,,,,,,,,,1662.7854340514168,None,,,1665.8017023894936,None,1.6195767195767194,0.7813992761075497,1665.8017023894936,None,,,,,,,1663.7852134583518,None,1663.9686052156612,1663.9852097360417,,,,,,,178,001,2024_Mar_06_1658,SpeechDraft1Carolyn_lessNoise_PlusLocalization,2021.2.3,59.90056781484596,
,,,,,,,,farRight,19.1,4,ch1Sound_localizationTask.wav,19.1,"(1237, 878)","(277,-202)",285,-338,,,,,,,,,,,,,7,5,54,6,,,,,,,,,,,,,,,,,,,,,,,,,,,,,,,,,,,,,,,,1666.5852131806314,None,,,1669.6015073135495,None,1.7121693121693122,0.8997992817312479,1669.6015073135495,None,,,,,,,1667.5852295691147,None,1667.7685513021424,1667.785327126272,,,,,,,178,001,2024_Mar_06_1658,SpeechDraft1Carolyn_lessNoise_PlusLocalization,2021.2.3,59.90056781484596,
,,,,,,,,center,0.0,6,ch1Sound_localizationTask.wav,0.0,"(952, 878)","(-8,-202)",0,-338,,,,,,,,,,,,,7,6,55,3,,,,,,,,,,,,,,,,,,,,,,,,,,,,,,,,,,,,,,,,1670.5019260216504,None,,,1673.5183492936194,None,1.5026455026455028,0.6660235291346908,1673.5183492936194,None,,,,,,,1671.5018991306424,None,1671.685252376832,1671.701941137202,,,,,,,178,001,2024_Mar_06_1658,SpeechDraft1Carolyn_lessNoise_PlusLocalization,2021.2.3,59.90056781484596,
,,,,,,,,,,,,,,,,,,,,,,,,,,,,,,,,,,,,,,,,,,,,,,,,,,,,,,,,,,,,,,,,,,,,,,,,,,,,,,,,,,,,,,,,,,,,1674.1861326023936,None,c,33.08047897554934,1675.1686784336343,None,178,001,2024_Mar_06_1658,SpeechDraft1Carolyn_lessNoise_PlusLocalization,2021.2.3,59.90056781484596,
