Audio_Only_Files,Video_Files,Original_Word_List,noiseLevelCode,conditionCodes,noiseLevelFile1,noiseLevelFile2,InstrTextVar,targetSpeakerName,targetSpeakerEccen,targetSpkrChannel,targetSpkrSound,targetVisualDegrees,visStimLoc,visStimLoc2,visStimW,visStimH,practiceTrials.thisRepN,practiceTrials.thisTrialN,practiceTrials.thisN,practiceTrials.thisIndex,trials.thisRepN,trials.thisTrialN,trials.thisN,trials.thisIndex,audLocalLoop.thisRepN,audLocalLoop.thisTrialN,audLocalLoop.thisN,audLocalLoop.thisIndex,visualLocalLoop.thisRepN,visualLocalLoop.thisTrialN,visualLocalLoop.thisN,visualLocalLoop.thisIndex,letsGoAlready.keys,letsGoAlready.rt,letsGoAlready.started,letsGoAlready.stopped,text_2.started,text_2.stopped,text_3.started,text_3.stopped,key_resp_2.keys,key_resp_2.rt,key_resp_2.started,key_resp_2.stopped,text_5.started,text_5.stopped,fixCross.started,fixCross.stopped,fixCross2.started,fixCross2.stopped,answerPrompt.started,answerPrompt.stopped,getAnswer.text,getAnswer.started,getAnswer.stopped,goToNext.keys,goToNext.rt,goToNext.started,goToNext.stopped,stretchBreakTxrt.started,stretchBreakTxrt.stopped,key_resp_3.keys,key_resp_3.rt,key_resp_3.started,key_resp_3.stopped,letsGoLocal.keys,letsGoLocal.rt,letsGoLocal.started,letsGoLocal.stopped,text_4.started,text_4.stopped,prepFixTxt.started,prepFixTxt.stopped,prepFixTxt_2.started,prepFixTxt_2.stopped,respPromptLocal.started,respPromptLocal.stopped,slider.response,slider.rt,slider.started,slider.stopped,letsGoLocal_2.keys,letsGoLocal_2.rt,letsGoLocal_2.started,letsGoLocal_2.stopped,text_7.started,text_7.stopped,prepFixTxt_3.started,prepFixTxt_3.stopped,grating.started,grating.stopped,exitTxt.started,exitTxt.stopped,key_resp.keys,key_resp.rt,key_resp.started,key_resp.stopped,participant,session,date,expName,psychopyVersion,frameRate,
,,,,,,,,,,,,,,,,,,,,,,,,,,,,,,,,,space,115.21370268892497,15.20171503443271,None,,,,,,,,,,,,,,,,,,,,,,,,,,,,,,,,,,,,,,,,,,,,,,,,,,,,,,,,,,,,,,179,001,2024_Mar_07_1539,SpeechDraft1Carolyn_lessNoise_PlusLocalization,2021.2.3,60.02260030919183,
,,,,,,,,,,,,,,,,,,,,,,,,,,,,,,,,,,,,,15.20171503443271,None,130.53574583679438,None,space,8.67289674282074,130.71844985056669,None,,,,,,,,,,,,,,,,,,,,,,,,,,,,,,,,,,,,,,,,,,,,,,,,,,,,,,179,001,2024_Mar_07_1539,SpeechDraft1Carolyn_lessNoise_PlusLocalization,2021.2.3,60.02260030919183,
ash.wav,ash.mpg,ash,1,A,Pink_Noise_1_1.wav,Pink_Noise_1_2.wav,"This is an example of an

AUDIO trial",,,,,,,,,,0,0,0,0,,,,,,,,,,,,,,,,,,,,,,,,,139.4360584653914,None,140.43511813506484,None,143.58479584101588,None,144.96849895641208,None,ash,144.96849895641208,None,return,3.1156300278380513,145.0517993485555,None,,,,,,,,,,,,,,,,,,,,,,,,,,,,,,,,,,,,,,,179,001,2024_Mar_07_1539,SpeechDraft1Carolyn_lessNoise_PlusLocalization,2021.2.3,60.02260030919183,
ash.wav,ash.mpg,ash,1,AV,Pink_Noise_1_1.wav,Pink_Noise_1_2.wav,"This is an example of an

AUDIO + VIDEO  trial",,,,,,,,,,0,1,1,1,,,,,,,,,,,,,,,,,,,,,,,,,148.20148824248463,None,149.20176397636533,None,150.6848270809278,None,152.0684650912881,None,"ash
",152.0684650912881,None,return,1.7034308509901166,152.15191666595638,None,,,,,,,,,,,,,,,,,,,,,,,,,,,,,,,,,,,,,,,179,001,2024_Mar_07_1539,SpeechDraft1Carolyn_lessNoise_PlusLocalization,2021.2.3,60.02260030919183,
,,,,,,,,,,,,,,,,,,,,,,,,,,,,,,,,,,,,,,,,,,,,,,,,,,,,,,,,,,,,153.90156264044344,None,space,13.570441379211843,154.08507664129138,None,,,,,,,,,,,,,,,,,,,,,,,,,,,,,,,,,179,001,2024_Mar_07_1539,SpeechDraft1Carolyn_lessNoise_PlusLocalization,2021.2.3,60.02260030919183,
swamp.wav,swamp.mpg,swamp,3,AV,Pink_Noise_3_1.wav,Pink_Noise_3_2.wav,,,,,,,,,,,,,,,0,0,0,71,,,,,,,,,,,,,,,,,,,,,,,167.71822773385793,None,169.20156236272305,None,170.5853026472032,None,sqamp,170.5853026472032,None,return,1.9148148447275162,170.66860157996416,None,,,,,,,,,,,,,,,,,,,,,,,,,,,,,,,,,,,,,,,179,001,2024_Mar_07_1539,SpeechDraft1Carolyn_lessNoise_PlusLocalization,2021.2.3,60.02260030919183,
strive.wav,strive.mpg,strive,4,AV,Pink_Noise_4_1.wav,Pink_Noise_4_2.wav,,,,,,,,,,,,,,,0,1,1,102,,,,,,,,,,,,,,,,,,,,,,,172.6018835771829,None,174.10153886675835,None,175.48527050204575,None,strive,175.48527050204575,None,return,3.094750284217298,175.56859069038182,None,,,,,,,,,,,,,,,,,,,,,,,,,,,,,,,,,,,,,,,179,001,2024_Mar_07_1539,SpeechDraft1Carolyn_lessNoise_PlusLocalization,2021.2.3,60.02260030919183,
bridge.wav,bridge.mpg,bridge,5,A,Pink_Noise_5_1.wav,Pink_Noise_5_2.wav,,,,,,,,,,,,,,,0,2,2,8,,,,,,,,,,,,,,,,,,,,,,,178.6852469453588,None,180.18506723176688,None,181.55210589338094,None,bridge,181.55210589338094,None,return,2.276214866898954,181.63512837141752,None,,,,,,,,,,,,,,,,,,,,,,,,,,,,,,,,,,,,,,,179,001,2024_Mar_07_1539,SpeechDraft1Carolyn_lessNoise_PlusLocalization,2021.2.3,60.02260030919183,
bust.wav,bust.mpg,bust,5,AV,Pink_Noise_5_1.wav,Pink_Noise_5_2.wav,,,,,,,,,,,,,,,0,3,3,62,,,,,,,,,,,,,,,,,,,,,,,183.9351518061012,None,185.42038612440228,None,186.81843589805067,None,must,186.81843589805067,None,return,2.3934284979477525,186.901916728355,None,,,,,,,,,,,,,,,,,,,,,,,,,,,,,,,,,,,,,,,179,001,2024_Mar_07_1539,SpeechDraft1Carolyn_lessNoise_PlusLocalization,2021.2.3,60.02260030919183,
flat.wav,flat.mpg,flat,3,AV,Pink_Noise_3_1.wav,Pink_Noise_3_2.wav,,,,,,,,,,,,,,,0,4,4,64,,,,,,,,,,,,,,,,,,,,,,,189.31854098848999,None,190.80200635269284,None,192.18515439890325,None,flat,192.18515439890325,None,return,2.8988544438034296,192.26864876691252,None,,,,,,,,,,,,,,,,,,,,,,,,,,,,,,,,,,,,,,,179,001,2024_Mar_07_1539,SpeechDraft1Carolyn_lessNoise_PlusLocalization,2021.2.3,60.02260030919183,
route.wav,route.mpg,route,5,A,Pink_Noise_5_1.wav,Pink_Noise_5_2.wav,,,,,,,,,,,,,,,0,5,5,0,,,,,,,,,,,,,,,,,,,,,,,195.18524544592947,None,196.66888147965074,None,198.0520492810756,None,bridge,198.0520492810756,None,return,3.5122312046587467,198.13514204509556,None,,,,,,,,,,,,,,,,,,,,,,,,,,,,,,,,,,,,,,,179,001,2024_Mar_07_1539,SpeechDraft1Carolyn_lessNoise_PlusLocalization,2021.2.3,60.02260030919183,
cane.wav,cane.mpg,cane,6,A,Pink_Noise_6_1.wav,Pink_Noise_6_2.wav,,,,,,,,,,,,,,,0,6,6,7,,,,,,,,,,,,,,,,,,,,,,,201.6686280388385,None,203.16827678494155,None,204.55186926294118,None,bo,204.55186926294118,None,return,3.172278090380132,204.63522611558437,None,,,,,,,,,,,,,,,,,,,,,,,,,,,,,,,,,,,,,,,179,001,2024_Mar_07_1539,SpeechDraft1Carolyn_lessNoise_PlusLocalization,2021.2.3,60.02260030919183,
fog.wav,fog.mpg,fog,6,A,Pink_Noise_6_1.wav,Pink_Noise_6_2.wav,,,,,,,,,,,,,,,0,7,7,50,,,,,,,,,,,,,,,,,,,,,,,207.83522982429713,None,209.31813044287264,None,210.70200694352388,None,line,210.70200694352388,None,return,2.166198114864528,210.78520574234426,None,,,,,,,,,,,,,,,,,,,,,,,,,,,,,,,,,,,,,,,179,001,2024_Mar_07_1539,SpeechDraft1Carolyn_lessNoise_PlusLocalization,2021.2.3,60.02260030919183,
funk.wav,funk.mpg,funk,5,AV,Pink_Noise_5_1.wav,Pink_Noise_5_2.wav,,,,,,,,,,,,,,,0,8,8,67,,,,,,,,,,,,,,,,,,,,,,,212.96852471958846,None,214.46820452995598,None,215.8519480386749,None,far,215.8519480386749,None,return,4.504036441445351,215.9353155232966,None,,,,,,,,,,,,,,,,,,,,,,,,,,,,,,,,,,,,,,,179,001,2024_Mar_07_1539,SpeechDraft1Carolyn_lessNoise_PlusLocalization,2021.2.3,60.02260030919183,
eel.wav,eel.mpg,eel,6,A,Pink_Noise_6_1.wav,Pink_Noise_6_2.wav,,,,,,,,,,,,,,,0,9,9,42,,,,,,,,,,,,,,,,,,,,,,,220.46855592262,None,221.95156742073596,None,223.33526273537427,None,ledge,223.33526273537427,None,return,6.13269685395062,223.41871265973896,None,,,,,,,,,,,,,,,,,,,,,,,,,,,,,,,,,,,,,,,179,001,2024_Mar_07_1539,SpeechDraft1Carolyn_lessNoise_PlusLocalization,2021.2.3,60.02260030919183,
snake.wav,snake.mpg,snake,2,A,Pink_Noise_2_1.wav,Pink_Noise_2_2.wav,,,,,,,,,,,,,,,0,10,10,5,,,,,,,,,,,,,,,,,,,,,,,229.56849136389792,None,231.06831698305905,None,232.4519707467407,None,snake,232.4519707467407,None,return,5.080124629661441,232.53531891666353,None,,,,,,,,,,,,,,,,,,,,,,,,,,,,,,,,,,,,,,,179,001,2024_Mar_07_1539,SpeechDraft1Carolyn_lessNoise_PlusLocalization,2021.2.3,60.02260030919183,
crime.wav,crime.mpg,crime,2,A,Pink_Noise_2_1.wav,Pink_Noise_2_2.wav,,,,,,,,,,,,,,,0,11,11,21,,,,,,,,,,,,,,,,,,,,,,,237.63524492643774,None,239.13514009024948,None,240.51871451549232,None,crime,240.51871451549232,None,return,4.149397198110819,240.60203267727047,None,,,,,,,,,,,,,,,,,,,,,,,,,,,,,,,,,,,,,,,179,001,2024_Mar_07_1539,SpeechDraft1Carolyn_lessNoise_PlusLocalization,2021.2.3,60.02260030919183,
glow.wav,glow.mpg,glow,6,AV,Pink_Noise_6_1.wav,Pink_Noise_6_2.wav,,,,,,,,,,,,,,,0,12,12,106,,,,,,,,,,,,,,,,,,,,,,,244.76865181140602,None,246.2526502814144,None,247.63522138167173,None,globe,247.63522138167173,None,return,4.976602517999709,247.7187350280583,None,,,,,,,,,,,,,,,,,,,,,,,,,,,,,,,,,,,,,,,179,001,2024_Mar_07_1539,SpeechDraft1Carolyn_lessNoise_PlusLocalization,2021.2.3,60.02260030919183,
chain.wav,chain.mpg,chain,2,AV,Pink_Noise_2_1.wav,Pink_Noise_2_2.wav,,,,,,,,,,,,,,,0,13,13,97,,,,,,,,,,,,,,,,,,,,,,,252.71868849918246,None,254.20170368626714,None,255.58535336889327,None,chain,255.58535336889327,None,return,2.690863781608641,255.66854516230524,None,,,,,,,,,,,,,,,,,,,,,,,,,,,,,,,,,,,,,,,179,001,2024_Mar_07_1539,SpeechDraft1Carolyn_lessNoise_PlusLocalization,2021.2.3,60.02260030919183,
book.wav,book.mpg,book,3,AV,Pink_Noise_3_1.wav,Pink_Noise_3_2.wav,,,,,,,,,,,,,,,0,14,14,77,,,,,,,,,,,,,,,,,,,,,,,258.3853203430772,None,259.868399576284,None,261.25192985124886,None,book,261.25192985124886,None,return,1.6320733465254307,261.33537317160517,None,,,,,,,,,,,,,,,,,,,,,,,,,,,,,,,,,,,,,,,179,001,2024_Mar_07_1539,SpeechDraft1Carolyn_lessNoise_PlusLocalization,2021.2.3,60.02260030919183,
boat.wav,boat.mpg,boat,4,AV,Pink_Noise_4_1.wav,Pink_Noise_4_2.wav,,,,,,,,,,,,,,,0,15,15,68,,,,,,,,,,,,,,,,,,,,,,,262.9853119254112,None,264.48494550865144,None,265.8686283873394,None,boat,265.8686283873394,None,return,1.7432746440172195,265.9521145261824,None,,,,,,,,,,,,,,,,,,,,,,,,,,,,,,,,,,,,,,,179,001,2024_Mar_07_1539,SpeechDraft1Carolyn_lessNoise_PlusLocalization,2021.2.3,60.02260030919183,
led.wav,led.mpg,led,4,AV,Pink_Noise_4_1.wav,Pink_Noise_4_2.wav,,,,,,,,,,,,,,,0,16,16,83,,,,,,,,,,,,,,,,,,,,,,,267.71872265450656,None,269.2187854954973,None,270.6020749770105,None,"lead
",270.6020749770105,None,return,2.4340583877637982,270.68527712579817,None,,,,,,,,,,,,,,,,,,,,,,,,,,,,,,,,,,,,,,,179,001,2024_Mar_07_1539,SpeechDraft1Carolyn_lessNoise_PlusLocalization,2021.2.3,60.02260030919183,
pledge.wav,pledge.mpg,pledge,3,A,Pink_Noise_3_1.wav,Pink_Noise_3_2.wav,,,,,,,,,,,,,,,0,17,17,25,,,,,,,,,,,,,,,,,,,,,,,273.15190654527396,None,274.63510034792125,None,276.0186985908076,None,"ledge
",276.0186985908076,None,return,1.185390556231141,276.10195955540985,None,,,,,,,,,,,,,,,,,,,,,,,,,,,,,,,,,,,,,,,179,001,2024_Mar_07_1539,SpeechDraft1Carolyn_lessNoise_PlusLocalization,2021.2.3,60.02260030919183,
clown.wav,clown.mpg,clown,6,A,Pink_Noise_6_1.wav,Pink_Noise_6_2.wav,,,,,,,,,,,,,,,0,18,18,55,,,,,,,,,,,,,,,,,,,,,,,277.3187251538038,None,278.8183280657977,None,280.2019580146298,None,leigh,280.2019580146298,None,return,6.082193956710398,280.2852687332779,None,,,,,,,,,,,,,,,,,,,,,,,,,,,,,,,,,,,,,,,179,001,2024_Mar_07_1539,SpeechDraft1Carolyn_lessNoise_PlusLocalization,2021.2.3,60.02260030919183,
ham.wav,ham.mpg,ham,3,A,Pink_Noise_3_1.wav,Pink_Noise_3_2.wav,,,,,,,,,,,,,,,0,19,19,36,,,,,,,,,,,,,,,,,,,,,,,286.3854571413249,None,287.86857618018985,None,289.25201290939003,None,"nail
",289.25201290939003,None,return,5.520084925927222,289.3352656653151,None,,,,,,,,,,,,,,,,,,,,,,,,,,,,,,,,,,,,,,,179,001,2024_Mar_07_1539,SpeechDraft1Carolyn_lessNoise_PlusLocalization,2021.2.3,60.02260030919183,
faith.wav,faith.mpg,faith,5,A,Pink_Noise_5_1.wav,Pink_Noise_5_2.wav,,,,,,,,,,,,,,,0,20,20,18,,,,,,,,,,,,,,,,,,,,,,,294.8853870006278,None,296.38487967289984,None,297.7686995770782,None,fame,297.7686995770782,None,return,4.547301843762398,297.8520653313026,None,,,,,,,,,,,,,,,,,,,,,,,,,,,,,,,,,,,,,,,179,001,2024_Mar_07_1539,SpeechDraft1Carolyn_lessNoise_PlusLocalization,2021.2.3,60.02260030919183,
dance.wav,dance.mpg,dance,6,A,Pink_Noise_6_1.wav,Pink_Noise_6_2.wav,,,,,,,,,,,,,,,0,21,21,48,,,,,,,,,,,,,,,,,,,,,,,302.418804993853,None,303.9186585135758,None,305.3020099652931,None,"yes
",305.3020099652931,None,return,5.901962275616825,305.38538989424706,None,,,,,,,,,,,,,,,,,,,,,,,,,,,,,,,,,,,,,,,179,001,2024_Mar_07_1539,SpeechDraft1Carolyn_lessNoise_PlusLocalization,2021.2.3,60.02260030919183,
castle.wav,castle.mpg,castle,6,A,Pink_Noise_6_1.wav,Pink_Noise_6_2.wav,,,,,,,,,,,,,,,0,22,22,59,,,,,,,,,,,,,,,,,,,,,,,311.31872699037194,None,312.80231046304107,None,314.1854279246181,None,money,314.1854279246181,None,return,1.6586628062650561,314.2687117680907,None,,,,,,,,,,,,,,,,,,,,,,,,,,,,,,,,,,,,,,,179,001,2024_Mar_07_1539,SpeechDraft1Carolyn_lessNoise_PlusLocalization,2021.2.3,60.02260030919183,
goat.wav,goat.mpg,goat,3,AV,Pink_Noise_3_1.wav,Pink_Noise_3_2.wav,,,,,,,,,,,,,,,0,23,23,91,,,,,,,,,,,,,,,,,,,,,,,315.95203776378185,None,317.4357171310112,None,318.81868524476886,None,goat,318.81868524476886,None,return,1.5213367454707623,318.9020053315908,None,,,,,,,,,,,,,,,,,,,,,,,,,,,,,,,,,,,,,,,179,001,2024_Mar_07_1539,SpeechDraft1Carolyn_lessNoise_PlusLocalization,2021.2.3,60.02260030919183,
drab.wav,drab.mpg,drab,4,A,Pink_Noise_4_1.wav,Pink_Noise_4_2.wav,,,,,,,,,,,,,,,0,24,24,47,,,,,,,,,,,,,,,,,,,,,,,320.45206979382783,None,321.95184697397053,None,323.33545306138694,None,grass,323.33545306138694,None,return,0.9805692220106721,323.4187687942758,None,,,,,,,,,,,,,,,,,,,,,,,,,,,,,,,,,,,,,,,179,001,2024_Mar_07_1539,SpeechDraft1Carolyn_lessNoise_PlusLocalization,2021.2.3,60.02260030919183,
batch.wav,batch.mpg,batch,5,AV,Pink_Noise_5_1.wav,Pink_Noise_5_2.wav,,,,,,,,,,,,,,,0,25,25,114,,,,,,,,,,,,,,,,,,,,,,,324.41874650120735,None,325.9184255087748,None,327.3020203001797,None,match,327.3020203001797,None,return,3.341841146349907,327.38549667131156,None,,,,,,,,,,,,,,,,,,,,,,,,,,,,,,,,,,,,,,,179,001,2024_Mar_07_1539,SpeechDraft1Carolyn_lessNoise_PlusLocalization,2021.2.3,60.02260030919183,
bland.wav,bland.mpg,bland,3,A,Pink_Noise_3_1.wav,Pink_Noise_3_2.wav,,,,,,,,,,,,,,,0,26,26,28,,,,,,,,,,,,,,,,,,,,,,,330.75208122562617,None,332.25175248179585,None,333.6354844365269,None,bland,333.6354844365269,None,return,1.4645660081878304,333.7187846954912,None,,,,,,,,,,,,,,,,,,,,,,,,,,,,,,,,,,,,,,,179,001,2024_Mar_07_1539,SpeechDraft1Carolyn_lessNoise_PlusLocalization,2021.2.3,60.02260030919183,
chant.wav,chant.mpg,chant,1,AV,Pink_Noise_1_1.wav,Pink_Noise_1_2.wav,,,,,,,,,,,,,,,0,27,27,82,,,,,,,,,,,,,,,,,,,,,,,335.202186787501,None,336.70188076701015,None,338.08532328531146,None,chant,338.08532328531146,None,return,1.6068560723215342,338.1686926856637,None,,,,,,,,,,,,,,,,,,,,,,,,,,,,,,,,,,,,,,,179,001,2024_Mar_07_1539,SpeechDraft1Carolyn_lessNoise_PlusLocalization,2021.2.3,60.02260030919183,
gate.wav,gate.mpg,gate,2,A,Pink_Noise_2_1.wav,Pink_Noise_2_2.wav,,,,,,,,,,,,,,,0,28,28,52,,,,,,,,,,,,,,,,,,,,,,,339.80199174117297,None,341.3016736796126,None,342.68549109157175,None,gate,342.68549109157175,None,return,0.7666598213836551,342.768711947836,None,,,,,,,,,,,,,,,,,,,,,,,,,,,,,,,,,,,,,,,179,001,2024_Mar_07_1539,SpeechDraft1Carolyn_lessNoise_PlusLocalization,2021.2.3,60.02260030919183,
groom.wav,groom.mpg,groom,3,A,Pink_Noise_3_1.wav,Pink_Noise_3_2.wav,,,,,,,,,,,,,,,0,29,29,2,,,,,,,,,,,,,,,,,,,,,,,343.5521355466917,None,345.0517956232652,None,346.4354822412133,None,broom,346.4354822412133,None,return,1.704480673186481,346.51887891441584,None,,,,,,,,,,,,,,,,,,,,,,,,,,,,,,,,,,,,,,,179,001,2024_Mar_07_1539,SpeechDraft1Carolyn_lessNoise_PlusLocalization,2021.2.3,60.02260030919183,
earn.wav,earn.mpg,earn,3,AV,Pink_Noise_3_1.wav,Pink_Noise_3_2.wav,,,,,,,,,,,,,,,0,30,30,72,,,,,,,,,,,,,,,,,,,,,,,348.252229928039,None,349.7517937552184,None,351.13555460236967,None,urn,351.13555460236967,None,return,1.9085282888263464,351.2188090449199,None,,,,,,,,,,,,,,,,,,,,,,,,,,,,,,,,,,,,,,,179,001,2024_Mar_07_1539,SpeechDraft1Carolyn_lessNoise_PlusLocalization,2021.2.3,60.02260030919183,
bathe.wav,bathe.mpg,bathe,2,AV,Pink_Noise_2_1.wav,Pink_Noise_2_2.wav,,,,,,,,,,,,,,,0,31,31,88,,,,,,,,,,,,,,,,,,,,,,,353.15216065756977,None,354.65174142923206,None,356.0354607934132,None,bathe,356.0354607934132,None,return,1.408565397374332,356.11876190826297,None,,,,,,,,,,,,,,,,,,,,,,,,,,,,,,,,,,,,,,,179,001,2024_Mar_07_1539,SpeechDraft1Carolyn_lessNoise_PlusLocalization,2021.2.3,60.02260030919183,
bloat.wav,bloat.mpg,bloat,5,AV,Pink_Noise_5_1.wav,Pink_Noise_5_2.wav,,,,,,,,,,,,,,,0,32,32,109,,,,,,,,,,,,,,,,,,,,,,,357.5522020449862,None,359.05176079366356,None,360.43556833453476,None,"boat
",360.43556833453476,None,return,0.7524920012801886,360.5188644649461,None,,,,,,,,,,,,,,,,,,,,,,,,,,,,,,,,,,,,,,,179,001,2024_Mar_07_1539,SpeechDraft1Carolyn_lessNoise_PlusLocalization,2021.2.3,60.02260030919183,
chart.wav,chart.mpg,chart,6,AV,Pink_Noise_6_1.wav,Pink_Noise_6_2.wav,,,,,,,,,,,,,,,0,33,33,81,,,,,,,,,,,,,,,,,,,,,,,361.30211080238223,None,362.8017267109826,None,364.1854376560077,None,"charge
",364.1854376560077,None,return,2.418530791066587,364.2688146708533,None,,,,,,,,,,,,,,,,,,,,,,,,,,,,,,,,,,,,,,,179,001,2024_Mar_07_1539,SpeechDraft1Carolyn_lessNoise_PlusLocalization,2021.2.3,60.02260030919183,
dim.wav,dim.mpg,dim,5,A,Pink_Noise_5_1.wav,Pink_Noise_5_2.wav,,,,,,,,,,,,,,,0,34,34,22,,,,,,,,,,,,,,,,,,,,,,,366.7188454614952,None,368.21848444640636,None,369.6021827002987,None,"film
",369.6021827002987,None,return,2.033875002525747,369.685488617979,None,,,,,,,,,,,,,,,,,,,,,,,,,,,,,,,,,,,,,,,179,001,2024_Mar_07_1539,SpeechDraft1Carolyn_lessNoise_PlusLocalization,2021.2.3,60.02260030919183,
boost.wav,boost.mpg,boost,6,A,Pink_Noise_6_1.wav,Pink_Noise_6_2.wav,,,,,,,,,,,,,,,0,35,35,27,,,,,,,,,,,,,,,,,,,,,,,371.7522121062502,None,373.2518418747932,None,374.63536272291094,None,earth,374.63536272291094,None,return,3.464458688162267,374.71888348273933,None,,,,,,,,,,,,,,,,,,,,,,,,,,,,,,,,,,,,,,,179,001,2024_Mar_07_1539,SpeechDraft1Carolyn_lessNoise_PlusLocalization,2021.2.3,60.02260030919183,
cop.wav,cop.mpg,cop,1,AV,Pink_Noise_1_1.wav,Pink_Noise_1_2.wav,,,,,,,,,,,,,,,0,36,36,79,,,,,,,,,,,,,,,,,,,,,,,378.2021758677438,None,379.7017646487802,None,381.08565404918045,None,cop,381.08565404918045,None,return,1.7266343208029866,381.16875240486115,None,,,,,,,,,,,,,,,,,,,,,,,,,,,,,,,,,,,,,,,179,001,2024_Mar_07_1539,SpeechDraft1Carolyn_lessNoise_PlusLocalization,2021.2.3,60.02260030919183,
bloom.wav,bloom.mpg,bloom,1,AV,Pink_Noise_1_1.wav,Pink_Noise_1_2.wav,,,,,,,,,,,,,,,0,37,37,63,,,,,,,,,,,,,,,,,,,,,,,382.91877647768706,None,384.41844763886184,None,385.8021378116682,None,blue,385.8021378116682,None,return,4.129884904250503,385.88555466383696,None,,,,,,,,,,,,,,,,,,,,,,,,,,,,,,,,,,,,,,,179,001,2024_Mar_07_1539,SpeechDraft1Carolyn_lessNoise_PlusLocalization,2021.2.3,60.02260030919183,
grass.wav,grass.mpg,grass,4,AV,Pink_Noise_4_1.wav,Pink_Noise_4_2.wav,,,,,,,,,,,,,,,0,38,38,119,,,,,,,,,,,,,,,,,,,,,,,390.03558149468154,None,391.53516463097185,None,392.918678086251,None,grass,392.918678086251,None,return,1.1091966331005096,393.0021458240226,None,,,,,,,,,,,,,,,,,,,,,,,,,,,,,,,,,,,,,,,179,001,2024_Mar_07_1539,SpeechDraft1Carolyn_lessNoise_PlusLocalization,2021.2.3,60.02260030919183,
lead.wav,lead.mpg,lead,6,A,Pink_Noise_6_1.wav,Pink_Noise_6_2.wav,,,,,,,,,,,,,,,0,39,39,9,,,,,,,,,,,,,,,,,,,,,,,394.13550394400954,None,395.6352216992527,None,397.0188474273309,None,blood,397.0188474273309,None,return,1.3052479922771454,397.1021905085072,None,,,,,,,,,,,,,,,,,,,,,,,,,,,,,,,,,,,,,,,179,001,2024_Mar_07_1539,SpeechDraft1Carolyn_lessNoise_PlusLocalization,2021.2.3,60.02260030919183,
live.wav,live.mpg,live,4,AV,Pink_Noise_4_1.wav,Pink_Noise_4_2.wav,,,,,,,,,,,,,,,0,40,40,86,,,,,,,,,,,,,,,,,,,,,,,398.4355727452785,None,399.93523131962866,None,401.3187744580209,None,"live
",401.3187744580209,None,return,0.8372243316844106,401.4021144201979,None,,,,,,,,,,,,,,,,,,,,,,,,,,,,,,,,,,,,,,,179,001,2024_Mar_07_1539,SpeechDraft1Carolyn_lessNoise_PlusLocalization,2021.2.3,60.02260030919183,
chord.wav,chord.mpg,chord,5,A,Pink_Noise_5_1.wav,Pink_Noise_5_2.wav,,,,,,,,,,,,,,,0,41,41,10,,,,,,,,,,,,,,,,,,,,,,,402.2688684416935,None,403.7686148453504,None,405.1522448230535,None,"pour
",405.1522448230535,None,return,5.019607442431152,405.23574288003147,None,,,,,,,,,,,,,,,,,,,,,,,,,,,,,,,,,,,,,,,179,001,2024_Mar_07_1539,SpeechDraft1Carolyn_lessNoise_PlusLocalization,2021.2.3,60.02260030919183,
tart.wav,tart.mpg,tart,4,AV,Pink_Noise_4_1.wav,Pink_Noise_4_2.wav,,,,,,,,,,,,,,,0,42,42,100,,,,,,,,,,,,,,,,,,,,,,,410.28553783800453,None,411.80184147972614,None,413.1854103030637,None,fart,413.1854103030637,None,return,5.642334260977805,413.2690115077421,None,,,,,,,,,,,,,,,,,,,,,,,,,,,,,,,,,,,,,,,179,001,2024_Mar_07_1539,SpeechDraft1Carolyn_lessNoise_PlusLocalization,2021.2.3,60.02260030919183,
glass.wav,glass.mpg,glass,6,AV,Pink_Noise_6_1.wav,Pink_Noise_6_2.wav,,,,,,,,,,,,,,,0,43,43,113,,,,,,,,,,,,,,,,,,,,,,,418.9355060560629,None,420.43522402178496,None,421.8187687797472,None,glass,421.8187687797472,None,return,1.7770925667136908,421.90224544052035,None,,,,,,,,,,,,,,,,,,,,,,,,,,,,,,,,,,,,,,,179,001,2024_Mar_07_1539,SpeechDraft1Carolyn_lessNoise_PlusLocalization,2021.2.3,60.02260030919183,
flex.wav,flex.mpg,flex,2,AV,Pink_Noise_2_1.wav,Pink_Noise_2_2.wav,,,,,,,,,,,,,,,0,44,44,95,,,,,,,,,,,,,,,,,,,,,,,423.70220842119306,None,425.2018821425736,None,426.5856020292267,None,flex,426.5856020292267,None,return,0.898563795723021,426.6688812104985,None,,,,,,,,,,,,,,,,,,,,,,,,,,,,,,,,,,,,,,,179,001,2024_Mar_07_1539,SpeechDraft1Carolyn_lessNoise_PlusLocalization,2021.2.3,60.02260030919183,
dope.wav,dope.mpg,dope,1,AV,Pink_Noise_1_1.wav,Pink_Noise_1_2.wav,,,,,,,,,,,,,,,0,45,45,78,,,,,,,,,,,,,,,,,,,,,,,427.5855366643518,None,429.0852674553171,None,430.4689148068428,None,dope,430.4689148068428,None,return,0.6950324941426516,430.55229158885777,None,,,,,,,,,,,,,,,,,,,,,,,,,,,,,,,,,,,,,,,179,001,2024_Mar_07_1539,SpeechDraft1Carolyn_lessNoise_PlusLocalization,2021.2.3,60.02260030919183,
bat.wav,bat.mpg,bat,4,A,Pink_Noise_4_1.wav,Pink_Noise_4_2.wav,,,,,,,,,,,,,,,0,46,46,13,,,,,,,,,,,,,,,,,,,,,,,431.2689040005207,None,432.76849558297545,None,434.15230657253414,None,bat,434.15230657253414,None,return,1.3077089134603739,434.2356471987441,None,,,,,,,,,,,,,,,,,,,,,,,,,,,,,,,,,,,,,,,179,001,2024_Mar_07_1539,SpeechDraft1Carolyn_lessNoise_PlusLocalization,2021.2.3,60.02260030919183,
grab.wav,grab.mpg,grab,1,AV,Pink_Noise_1_1.wav,Pink_Noise_1_2.wav,,,,,,,,,,,,,,,0,47,47,90,,,,,,,,,,,,,,,,,,,,,,,435.56886734161526,None,437.06858750991523,None,438.4521435527131,None,grab,438.4521435527131,None,return,2.9118219083175063,438.53551913332194,None,,,,,,,,,,,,,,,,,,,,,,,,,,,,,,,,,,,,,,,179,001,2024_Mar_07_1539,SpeechDraft1Carolyn_lessNoise_PlusLocalization,2021.2.3,60.02260030919183,
firm.wav,firm.mpg,firm,5,AV,Pink_Noise_5_1.wav,Pink_Noise_5_2.wav,,,,,,,,,,,,,,,0,48,48,92,,,,,,,,,,,,,,,,,,,,,,,441.4690855490044,None,442.96867541596293,None,444.3523664046079,None,"firm
",444.3523664046079,None,return,1.2677109614014626,444.4356306567788,None,,,,,,,,,,,,,,,,,,,,,,,,,,,,,,,,,,,,,,,179,001,2024_Mar_07_1539,SpeechDraft1Carolyn_lessNoise_PlusLocalization,2021.2.3,60.02260030919183,
bribe.wav,bribe.mpg,bribe,1,AV,Pink_Noise_1_1.wav,Pink_Noise_1_2.wav,,,,,,,,,,,,,,,0,49,49,70,,,,,,,,,,,,,,,,,,,,,,,445.7354828482494,None,447.2352123456076,None,448.61878218036145,None,bribe,448.61878218036145,None,return,0.8332120450213552,448.7022034917027,None,,,,,,,,,,,,,,,,,,,,,,,,,,,,,,,,,,,,,,,179,001,2024_Mar_07_1539,SpeechDraft1Carolyn_lessNoise_PlusLocalization,2021.2.3,60.02260030919183,
ghost.wav,ghost.mpg,ghost,5,A,Pink_Noise_5_1.wav,Pink_Noise_5_2.wav,,,,,,,,,,,,,,,0,50,50,45,,,,,,,,,,,,,,,,,,,,,,,449.55228357668966,None,451.05183910764754,None,452.43566341977566,None,coat,452.43566341977566,None,return,1.8725525932386518,452.51887005288154,None,,,,,,,,,,,,,,,,,,,,,,,,,,,,,,,,,,,,,,,179,001,2024_Mar_07_1539,SpeechDraft1Carolyn_lessNoise_PlusLocalization,2021.2.3,60.02260030919183,
dine.wav,dine.mpg,dine,4,A,Pink_Noise_4_1.wav,Pink_Noise_4_2.wav,,,,,,,,,,,,,,,0,51,51,57,,,,,,,,,,,,,,,,,,,,,,,454.4190367339179,None,455.9353023348376,None,457.31907313503325,None,"dying
",457.31907313503325,None,return,2.269106015563011,457.40222340542823,None,,,,,,,,,,,,,,,,,,,,,,,,,,,,,,,,,,,,,,,179,001,2024_Mar_07_1539,SpeechDraft1Carolyn_lessNoise_PlusLocalization,2021.2.3,60.02260030919183,
coil.wav,coil.mpg,coil,5,AV,Pink_Noise_5_1.wav,Pink_Noise_5_2.wav,,,,,,,,,,,,,,,0,52,52,84,,,,,,,,,,,,,,,,,,,,,,,459.70222652330995,None,461.2019824264571,None,462.58561818208545,None,coil,462.58561818208545,None,return,1.066426694393158,462.66900556162,None,,,,,,,,,,,,,,,,,,,,,,,,,,,,,,,,,,,,,,,179,001,2024_Mar_07_1539,SpeechDraft1Carolyn_lessNoise_PlusLocalization,2021.2.3,60.02260030919183,
chess.wav,chess.mpg,chess,3,AV,Pink_Noise_3_1.wav,Pink_Noise_3_2.wav,,,,,,,,,,,,,,,0,53,53,87,,,,,,,,,,,,,,,,,,,,,,,463.7522754650563,None,465.2521713692695,None,466.6362351095304,None,chess,466.6362351095304,None,return,1.4326182985678315,466.718978500925,None,,,,,,,,,,,,,,,,,,,,,,,,,,,,,,,,,,,,,,,179,001,2024_Mar_07_1539,SpeechDraft1Carolyn_lessNoise_PlusLocalization,2021.2.3,60.02260030919183,
bible.wav,bible.mpg,bible,4,A,Pink_Noise_4_1.wav,Pink_Noise_4_2.wav,,,,,,,,,,,,,,,0,54,54,49,,,,,,,,,,,,,,,,,,,,,,,468.16902707796544,None,469.6686406303197,None,471.05243473500013,None,bible,471.05243473500013,None,return,3.2157595278695226,471.1356265703216,None,,,,,,,,,,,,,,,,,,,,,,,,,,,,,,,,,,,,,,,179,001,2024_Mar_07_1539,SpeechDraft1Carolyn_lessNoise_PlusLocalization,2021.2.3,60.02260030919183,
guest.wav,guest.mpg,guest,3,AV,Pink_Noise_3_1.wav,Pink_Noise_3_2.wav,,,,,,,,,,,,,,,0,55,55,98,,,,,,,,,,,,,,,,,,,,,,,474.3690029680729,None,475.86862914822996,None,477.25239578820765,None,guets,477.25239578820765,None,return,1.0956516992300749,477.33568610437214,None,,,,,,,,,,,,,,,,,,,,,,,,,,,,,,,,,,,,,,,179,001,2024_Mar_07_1539,SpeechDraft1Carolyn_lessNoise_PlusLocalization,2021.2.3,60.02260030919183,
fed.wav,fed.mpg,fed,1,AV,Pink_Noise_1_1.wav,Pink_Noise_1_2.wav,,,,,,,,,,,,,,,0,56,56,65,,,,,,,,,,,,,,,,,,,,,,,478.4522863412276,None,479.95211014710367,None,481.33540871553123,None,fed,481.33540871553123,None,return,0.8043841673061252,481.4188975216821,None,,,,,,,,,,,,,,,,,,,,,,,,,,,,,,,,,,,,,,,179,001,2024_Mar_07_1539,SpeechDraft1Carolyn_lessNoise_PlusLocalization,2021.2.3,60.02260030919183,
clip.wav,clip.mpg,clip,4,A,Pink_Noise_4_1.wav,Pink_Noise_4_2.wav,,,,,,,,,,,,,,,0,57,57,35,,,,,,,,,,,,,,,,,,,,,,,482.25230144057423,None,483.75197238475084,None,485.1357469651848,None,"rest
",485.1357469651848,None,return,3.1003885623067617,485.21896849758923,None,,,,,,,,,,,,,,,,,,,,,,,,,,,,,,,,,,,,,,,179,001,2024_Mar_07_1539,SpeechDraft1Carolyn_lessNoise_PlusLocalization,2021.2.3,60.02260030919183,
two.wav,two.mpg,two,4,AV,Pink_Noise_4_1.wav,Pink_Noise_4_2.wav,,,,,,,,,,,,,,,0,58,58,107,,,,,,,,,,,,,,,,,,,,,,,488.3522945083678,None,489.85197685007006,None,491.23568061273545,None,two,491.23568061273545,None,return,0.6325206439942122,491.3189187468961,None,,,,,,,,,,,,,,,,,,,,,,,,,,,,,,,,,,,,,,,179,001,2024_Mar_07_1539,SpeechDraft1Carolyn_lessNoise_PlusLocalization,2021.2.3,60.02260030919183,
foul.wav,foul.mpg,foul,3,AV,Pink_Noise_3_1.wav,Pink_Noise_3_2.wav,,,,,,,,,,,,,,,0,59,59,118,,,,,,,,,,,,,,,,,,,,,,,491.9689443781972,None,493.4686833564192,None,494.85206604003906,None,foul,494.85206604003906,None,return,3.0238294629380107,494.93562932591885,None,,,,,,,,,,,,,,,,,,,,,,,,,,,,,,,,,,,,,,,179,001,2024_Mar_07_1539,SpeechDraft1Carolyn_lessNoise_PlusLocalization,2021.2.3,60.02260030919183,
damn.wav,damn.mpg,damn,2,A,Pink_Noise_2_1.wav,Pink_Noise_2_2.wav,,,,,,,,,,,,,,,0,60,60,4,,,,,,,,,,,,,,,,,,,,,,,497.9857460781932,None,499.4852266609669,None,500.86907269153744,None,damp,500.86907269153744,None,return,1.2231470653787255,500.9524018801749,None,,,,,,,,,,,,,,,,,,,,,,,,,,,,,,,,,,,,,,,179,001,2024_Mar_07_1539,SpeechDraft1Carolyn_lessNoise_PlusLocalization,2021.2.3,60.02260030919183,
dumb.wav,dumb.mpg,dumb,4,AV,Pink_Noise_4_1.wav,Pink_Noise_4_2.wav,,,,,,,,,,,,,,,0,61,61,117,,,,,,,,,,,,,,,,,,,,,,,502.2024286920205,None,503.70200982131064,None,505.08556238841265,None,"dumb
",505.08556238841265,None,return,7.4862807504832745,505.1690689586103,None,,,,,,,,,,,,,,,,,,,,,,,,,,,,,,,,,,,,,,,179,001,2024_Mar_07_1539,SpeechDraft1Carolyn_lessNoise_PlusLocalization,2021.2.3,60.02260030919183,
coat.wav,coat.mpg,coat,3,AV,Pink_Noise_3_1.wav,Pink_Noise_3_2.wav,,,,,,,,,,,,,,,0,62,62,85,,,,,,,,,,,,,,,,,,,,,,,512.6857132157311,None,514.1854116376489,None,515.5689482009038,None,"coat
",515.5689482009038,None,return,2.603027919307351,515.6523209400475,None,,,,,,,,,,,,,,,,,,,,,,,,,,,,,,,,,,,,,,,179,001,2024_Mar_07_1539,SpeechDraft1Carolyn_lessNoise_PlusLocalization,2021.2.3,60.02260030919183,
fierce.wav,fierce.mpg,fierce,5,A,Pink_Noise_5_1.wav,Pink_Noise_5_2.wav,,,,,,,,,,,,,,,0,63,63,38,,,,,,,,,,,,,,,,,,,,,,,518.2857519686222,None,519.7852449044585,None,521.1690432354808,None,fix,521.1690432354808,None,return,0.8430786468088627,521.2522922754288,None,,,,,,,,,,,,,,,,,,,,,,,,,,,,,,,,,,,,,,,179,001,2024_Mar_07_1539,SpeechDraft1Carolyn_lessNoise_PlusLocalization,2021.2.3,60.02260030919183,
fox.wav,fox.mpg,fox,1,A,Pink_Noise_1_1.wav,Pink_Noise_1_2.wav,,,,,,,,,,,,,,,0,64,64,44,,,,,,,,,,,,,,,,,,,,,,,522.1190601792186,None,523.6205365713686,None,525.0024635950103,None,factx,525.0024635950103,None,return,2.6736839078366756,525.0857635857537,None,,,,,,,,,,,,,,,,,,,,,,,,,,,,,,,,,,,,,,,179,001,2024_Mar_07_1539,SpeechDraft1Carolyn_lessNoise_PlusLocalization,2021.2.3,60.02260030919183,
bond.wav,bond.mpg,bond,2,A,Pink_Noise_2_1.wav,Pink_Noise_2_2.wav,,,,,,,,,,,,,,,0,65,65,46,,,,,,,,,,,,,,,,,,,,,,,527.7857200559229,None,529.3021126110107,None,530.6856757532805,None,bummed,530.6856757532805,None,return,2.742353674955666,530.7689916156232,None,,,,,,,,,,,,,,,,,,,,,,,,,,,,,,,,,,,,,,,179,001,2024_Mar_07_1539,SpeechDraft1Carolyn_lessNoise_PlusLocalization,2021.2.3,60.02260030919183,
base.wav,base.mpg,base,1,A,Pink_Noise_1_1.wav,Pink_Noise_1_2.wav,,,,,,,,,,,,,,,0,66,66,56,,,,,,,,,,,,,,,,,,,,,,,533.5357287200168,None,535.0520158084109,None,536.4357828088105,None,base,536.4357828088105,None,return,0.8962892387062311,536.5191419469193,None,,,,,,,,,,,,,,,,,,,,,,,,,,,,,,,,,,,,,,,179,001,2024_Mar_07_1539,SpeechDraft1Carolyn_lessNoise_PlusLocalization,2021.2.3,60.02260030919183,
eight.wav,eight.mpg,eight,6,AV,Pink_Noise_6_1.wav,Pink_Noise_6_2.wav,,,,,,,,,,,,,,,0,67,67,66,,,,,,,,,,,,,,,,,,,,,,,537.4357594670728,None,538.9354138663039,None,540.3190749287605,None,"ate
",540.3190749287605,None,return,0.6210491713136435,540.4023138415068,None,,,,,,,,,,,,,,,,,,,,,,,,,,,,,,,,,,,,,,,179,001,2024_Mar_07_1539,SpeechDraft1Carolyn_lessNoise_PlusLocalization,2021.2.3,60.02260030919183,
eve.wav,eve.mpg,eve,1,A,Pink_Noise_1_1.wav,Pink_Noise_1_2.wav,,,,,,,,,,,,,,,0,68,68,6,,,,,,,,,,,,,,,,,,,,,,,541.052405658178,None,542.585411674343,None,543.9690533382818,None,ear,543.9690533382818,None,return,1.5629849676042795,544.0524245509878,None,,,,,,,,,,,,,,,,,,,,,,,,,,,,,,,,,,,,,,,179,001,2024_Mar_07_1539,SpeechDraft1Carolyn_lessNoise_PlusLocalization,2021.2.3,60.02260030919183,
gash.wav,gash.mpg,gash,1,A,Pink_Noise_1_1.wav,Pink_Noise_1_2.wav,,,,,,,,,,,,,,,0,69,69,20,,,,,,,,,,,,,,,,,,,,,,,545.6358182420954,None,547.1353941215202,None,548.5189768997952,None,"gasj
",548.5189768997952,None,return,2.085024220868945,548.602317542769,None,,,,,,,,,,,,,,,,,,,,,,,,,,,,,,,,,,,,,,,179,001,2024_Mar_07_1539,SpeechDraft1Carolyn_lessNoise_PlusLocalization,2021.2.3,60.02260030919183,
blind.wav,blind.mpg,blind,1,AV,Pink_Noise_1_1.wav,Pink_Noise_1_2.wav,,,,,,,,,,,,,,,0,70,70,105,,,,,,,,,,,,,,,,,,,,,,,550.7190862223506,None,552.2187529839575,None,553.6023118365556,None,lined,553.6023118365556,None,return,1.4095836076885462,553.6857728185132,None,,,,,,,,,,,,,,,,,,,,,,,,,,,,,,,,,,,,,,,179,001,2024_Mar_07_1539,SpeechDraft1Carolyn_lessNoise_PlusLocalization,2021.2.3,60.02260030919183,
else.wav,else.mpg,else,2,AV,Pink_Noise_2_1.wav,Pink_Noise_2_2.wav,,,,,,,,,,,,,,,0,71,71,80,,,,,,,,,,,,,,,,,,,,,,,555.1191218178719,None,556.6521050017327,None,558.0356976147741,None,else,558.0356976147741,None,return,0.8484581988304853,558.1189958378673,None,,,,,,,,,,,,,,,,,,,,,,,,,,,,,,,,,,,,,,,179,001,2024_Mar_07_1539,SpeechDraft1Carolyn_lessNoise_PlusLocalization,2021.2.3,60.02260030919183,
cycle.wav,cycle.mpg,cycle,6,AV,Pink_Noise_6_1.wav,Pink_Noise_6_2.wav,,,,,,,,,,,,,,,0,72,72,101,,,,,,,,,,,,,,,,,,,,,,,558.9857232468203,None,560.485422398895,None,561.8690371513367,None,sun,561.8690371513367,None,return,4.031002227216959,561.952348312363,None,,,,,,,,,,,,,,,,,,,,,,,,,,,,,,,,,,,,,,,179,001,2024_Mar_07_1539,SpeechDraft1Carolyn_lessNoise_PlusLocalization,2021.2.3,60.02260030919183,
dual.wav,dual.mpg,dual,2,AV,Pink_Noise_2_1.wav,Pink_Noise_2_2.wav,,,,,,,,,,,,,,,0,73,73,115,,,,,,,,,,,,,,,,,,,,,,,566.002430732362,None,567.502040700987,None,568.8856809632853,None,dual,568.8856809632853,None,return,1.1743697570636868,568.9690478928387,None,,,,,,,,,,,,,,,,,,,,,,,,,,,,,,,,,,,,,,,179,001,2024_Mar_07_1539,SpeechDraft1Carolyn_lessNoise_PlusLocalization,2021.2.3,60.02260030919183,
mold.wav,mold.mpg,mold,6,AV,Pink_Noise_6_1.wav,Pink_Noise_6_2.wav,,,,,,,,,,,,,,,0,74,74,76,,,,,,,,,,,,,,,,,,,,,,,570.1690513100475,None,571.6688161799684,None,573.0524842413142,None,"mole
",573.0524842413142,None,return,2.103532215580344,573.1358499918133,None,,,,,,,,,,,,,,,,,,,,,,,,,,,,,,,,,,,,,,,179,001,2024_Mar_07_1539,SpeechDraft1Carolyn_lessNoise_PlusLocalization,2021.2.3,60.02260030919183,
wind.wav,wind.mpg,wind,1,AV,Pink_Noise_1_1.wav,Pink_Noise_1_2.wav,,,,,,,,,,,,,,,0,75,75,112,,,,,,,,,,,,,,,,,,,,,,,575.2690287977457,None,576.7687195744365,None,578.152352151461,None,wind,578.152352151461,None,return,1.0436069471761584,578.23573787231,None,,,,,,,,,,,,,,,,,,,,,,,,,,,,,,,,,,,,,,,179,001,2024_Mar_07_1539,SpeechDraft1Carolyn_lessNoise_PlusLocalization,2021.2.3,60.02260030919183,
gush.wav,gush.mpg,gush,4,A,Pink_Noise_4_1.wav,Pink_Noise_4_2.wav,,,,,,,,,,,,,,,0,76,76,12,,,,,,,,,,,,,,,,,,,,,,,579.3024655990303,None,580.8187551768497,None,582.2024213597178,None,gush,582.2024213597178,None,return,0.8575172461569309,582.2859019692987,None,,,,,,,,,,,,,,,,,,,,,,,,,,,,,,,,,,,,,,,179,001,2024_Mar_07_1539,SpeechDraft1Carolyn_lessNoise_PlusLocalization,2021.2.3,60.02260030919183,
gem.wav,gem.mpg,gem,2,AV,Pink_Noise_2_1.wav,Pink_Noise_2_2.wav,,,,,,,,,,,,,,,0,77,77,104,,,,,,,,,,,,,,,,,,,,,,,583.1690546302125,None,584.6688096737489,None,586.052405863069,None,gem,586.052405863069,None,return,0.9275247855111957,586.1358083980158,None,,,,,,,,,,,,,,,,,,,,,,,,,,,,,,,,,,,,,,,179,001,2024_Mar_07_1539,SpeechDraft1Carolyn_lessNoise_PlusLocalization,2021.2.3,60.02260030919183,
date.wav,date.mpg,date,4,A,Pink_Noise_4_1.wav,Pink_Noise_4_2.wav,,,,,,,,,,,,,,,0,78,78,40,,,,,,,,,,,,,,,,,,,,,,,587.0858434503898,None,588.6187534565106,None,590.0024162856862,None,date,590.0024162856862,None,return,0.9056169223040342,590.0858635082841,None,,,,,,,,,,,,,,,,,,,,,,,,,,,,,,,,,,,,,,,179,001,2024_Mar_07_1539,SpeechDraft1Carolyn_lessNoise_PlusLocalization,2021.2.3,60.02260030919183,
egg.wav,egg.mpg,egg,1,A,Pink_Noise_1_1.wav,Pink_Noise_1_2.wav,,,,,,,,,,,,,,,0,79,79,11,,,,,,,,,,,,,,,,,,,,,,,591.0192537792027,None,592.5354637503624,None,593.919170435518,None,egg,593.919170435518,None,return,0.5889920368790627,594.0024288725108,None,,,,,,,,,,,,,,,,,,,,,,,,,,,,,,,,,,,,,,,179,001,2024_Mar_07_1539,SpeechDraft1Carolyn_lessNoise_PlusLocalization,2021.2.3,60.02260030919183,
cough.wav,cough.mpg,cough,5,A,Pink_Noise_5_1.wav,Pink_Noise_5_2.wav,,,,,,,,,,,,,,,0,80,80,31,,,,,,,,,,,,,,,,,,,,,,,594.6191690508276,None,596.1187711115927,None,597.5025684144348,None,car,597.5025684144348,None,return,2.4134689196944237,597.5859755147249,None,,,,,,,,,,,,,,,,,,,,,,,,,,,,,,,,,,,,,,,179,001,2024_Mar_07_1539,SpeechDraft1Carolyn_lessNoise_PlusLocalization,2021.2.3,60.02260030919183,
drug.wav,drug.mpg,drug,2,AV,Pink_Noise_2_1.wav,Pink_Noise_2_2.wav,,,,,,,,,,,,,,,0,81,81,89,,,,,,,,,,,,,,,,,,,,,,,600.0191047322005,None,601.5188780864701,None,602.9023636635393,None,drug,602.9023636635393,None,return,0.8455088883638382,602.9858292303979,None,,,,,,,,,,,,,,,,,,,,,,,,,,,,,,,,,,,,,,,179,001,2024_Mar_07_1539,SpeechDraft1Carolyn_lessNoise_PlusLocalization,2021.2.3,60.02260030919183,
bet.wav,bet.mpg,bet,3,A,Pink_Noise_3_1.wav,Pink_Noise_3_2.wav,,,,,,,,,,,,,,,0,82,82,41,,,,,,,,,,,,,,,,,,,,,,,603.8525713980198,None,605.3688481943682,None,606.7526190588251,None,bat,606.7526190588251,None,return,1.7715841569006443,606.835839714855,None,,,,,,,,,,,,,,,,,,,,,,,,,,,,,,,,,,,,,,,179,001,2024_Mar_07_1539,SpeechDraft1Carolyn_lessNoise_PlusLocalization,2021.2.3,60.02260030919183,
oats.wav,oats.mpg,oats,1,A,Pink_Noise_1_1.wav,Pink_Noise_1_2.wav,,,,,,,,,,,,,,,0,83,83,17,,,,,,,,,,,,,,,,,,,,,,,608.6359918629751,None,610.1356122605503,None,611.5191279007122,None,"oat
",611.5191279007122,None,return,0.6848200829699636,611.6025332426652,None,,,,,,,,,,,,,,,,,,,,,,,,,,,,,,,,,,,,,,,179,001,2024_Mar_07_1539,SpeechDraft1Carolyn_lessNoise_PlusLocalization,2021.2.3,60.02260030919183,
pants.wav,pants.mpg,pants,3,A,Pink_Noise_3_1.wav,Pink_Noise_3_2.wav,,,,,,,,,,,,,,,0,84,84,15,,,,,,,,,,,,,,,,,,,,,,,612.319192185998,None,613.819775307551,None,615.2027385337278,None,"pant
",615.2027385337278,None,return,2.169486508704722,615.2858526213095,None,,,,,,,,,,,,,,,,,,,,,,,,,,,,,,,,,,,,,,,179,001,2024_Mar_07_1539,SpeechDraft1Carolyn_lessNoise_PlusLocalization,2021.2.3,60.02260030919183,
solve.wav,solve.mpg,solve,6,AV,Pink_Noise_6_1.wav,Pink_Noise_6_2.wav,,,,,,,,,,,,,,,0,85,85,61,,,,,,,,,,,,,,,,,,,,,,,617.4858088279143,None,619.0188523894176,None,620.4023422813043,None,"soft
",620.4023422813043,None,return,1.5533492220565677,620.4860005350783,None,,,,,,,,,,,,,,,,,,,,,,,,,,,,,,,,,,,,,,,179,001,2024_Mar_07_1539,SpeechDraft1Carolyn_lessNoise_PlusLocalization,2021.2.3,60.02260030919183,
fur.wav,fur.mpg,fur,6,AV,Pink_Noise_6_1.wav,Pink_Noise_6_2.wav,,,,,,,,,,,,,,,0,86,86,116,,,,,,,,,,,,,,,,,,,,,,,622.0690610473976,None,623.5856039728969,None,624.9692356614396,None,"firm
",624.9692356614396,None,return,1.2027980396524072,625.0525444578379,None,,,,,,,,,,,,,,,,,,,,,,,,,,,,,,,,,,,,,,,179,001,2024_Mar_07_1539,SpeechDraft1Carolyn_lessNoise_PlusLocalization,2021.2.3,60.02260030919183,
care.wav,care.mpg,care,3,AV,Pink_Noise_3_1.wav,Pink_Noise_3_2.wav,,,,,,,,,,,,,,,0,87,87,99,,,,,,,,,,,,,,,,,,,,,,,626.2859076447785,None,627.7856285246089,None,629.1691917749122,None,"carw
",629.1691917749122,None,return,2.2348439237102866,629.2525060689077,None,,,,,,,,,,,,,,,,,,,,,,,,,,,,,,,,,,,,,,,179,001,2024_Mar_07_1539,SpeechDraft1Carolyn_lessNoise_PlusLocalization,2021.2.3,60.02260030919183,
flood.wav,flood.mpg,flood,3,A,Pink_Noise_3_1.wav,Pink_Noise_3_2.wav,,,,,,,,,,,,,,,0,88,88,53,,,,,,,,,,,,,,,,,,,,,,,631.5192066533491,None,633.0202505812049,None,634.402585064061,None,fly,634.402585064061,None,return,3.88166690710932,634.4859056025743,None,,,,,,,,,,,,,,,,,,,,,,,,,,,,,,,,,,,,,,,179,001,2024_Mar_07_1539,SpeechDraft1Carolyn_lessNoise_PlusLocalization,2021.2.3,60.02260030919183,
pipe.wav,pipe.mpg,pipe,6,AV,Pink_Noise_6_1.wav,Pink_Noise_6_2.wav,,,,,,,,,,,,,,,0,89,89,93,,,,,,,,,,,,,,,,,,,,,,,638.3858394315466,None,639.9021518183872,None,641.285859930329,None,babe,641.285859930329,None,return,5.582229595631361,641.36919094529,None,,,,,,,,,,,,,,,,,,,,,,,,,,,,,,,,,,,,,,,179,001,2024_Mar_07_1539,SpeechDraft1Carolyn_lessNoise_PlusLocalization,2021.2.3,60.02260030919183,
gone.wav,gone.mpg,gone,1,AV,Pink_Noise_1_1.wav,Pink_Noise_1_2.wav,,,,,,,,,,,,,,,0,90,90,103,,,,,,,,,,,,,,,,,,,,,,,646.9692401690409,None,648.4857969479635,None,649.8691531997174,None,gone,649.8691531997174,None,return,0.9107901165261865,649.9525541532785,None,,,,,,,,,,,,,,,,,,,,,,,,,,,,,,,,,,,,,,,179,001,2024_Mar_07_1539,SpeechDraft1Carolyn_lessNoise_PlusLocalization,2021.2.3,60.02260030919183,
duke.wav,duke.mpg,duke,3,A,Pink_Noise_3_1.wav,Pink_Noise_3_2.wav,,,,,,,,,,,,,,,0,91,91,29,,,,,,,,,,,,,,,,,,,,,,,650.8858143445104,None,652.4021856244653,None,653.7859692983329,None,doomed,653.7859692983329,None,return,4.666184131987393,653.8692327197641,None,,,,,,,,,,,,,,,,,,,,,,,,,,,,,,,,,,,,,,,179,001,2024_Mar_07_1539,SpeechDraft1Carolyn_lessNoise_PlusLocalization,2021.2.3,60.02260030919183,
cute.wav,cute.mpg,cute,2,A,Pink_Noise_2_1.wav,Pink_Noise_2_2.wav,,,,,,,,,,,,,,,0,92,92,54,,,,,,,,,,,,,,,,,,,,,,,658.5525805372745,None,660.0855494458228,None,661.4693738054484,None,cute,661.4693738054484,None,return,0.7986925784498453,661.5527549954131,None,,,,,,,,,,,,,,,,,,,,,,,,,,,,,,,,,,,,,,,179,001,2024_Mar_07_1539,SpeechDraft1Carolyn_lessNoise_PlusLocalization,2021.2.3,60.02260030919183,
clothe.wav,clothe.mpg,clothe,4,A,Pink_Noise_4_1.wav,Pink_Noise_4_2.wav,,,,,,,,,,,,,,,0,93,93,14,,,,,,,,,,,,,,,,,,,,,,,662.3693033950403,None,663.8855059882626,None,665.2690371153876,None,clothes,665.2690371153876,None,return,2.1828366685658693,665.3526124609634,None,,,,,,,,,,,,,,,,,,,,,,,,,,,,,,,,,,,,,,,179,001,2024_Mar_07_1539,SpeechDraft1Carolyn_lessNoise_PlusLocalization,2021.2.3,60.02260030919183,
ask.wav,ask.mpg,ask,2,A,Pink_Noise_2_1.wav,Pink_Noise_2_2.wav,,,,,,,,,,,,,,,0,94,94,51,,,,,,,,,,,,,,,,,,,,,,,667.5525452280417,None,669.0522405039519,None,670.4360124245286,None,ask,670.4360124245286,None,return,1.4080616440623999,670.519312903285,None,,,,,,,,,,,,,,,,,,,,,,,,,,,,,,,,,,,,,,,179,001,2024_Mar_07_1539,SpeechDraft1Carolyn_lessNoise_PlusLocalization,2021.2.3,60.02260030919183,
fried.wav,fried.mpg,fried,2,A,Pink_Noise_2_1.wav,Pink_Noise_2_2.wav,,,,,,,,,,,,,,,0,95,95,30,,,,,,,,,,,,,,,,,,,,,,,671.9525221018121,None,673.45225047227,None,674.8358981925994,None,"bribe
",674.8358981925994,None,return,1.7200883058831096,674.919256741181,None,,,,,,,,,,,,,,,,,,,,,,,,,,,,,,,,,,,,,,,179,001,2024_Mar_07_1539,SpeechDraft1Carolyn_lessNoise_PlusLocalization,2021.2.3,60.02260030919183,
cab.wav,cab.mpg,cab,5,AV,Pink_Noise_5_1.wav,Pink_Noise_5_2.wav,,,,,,,,,,,,,,,0,96,96,75,,,,,,,,,,,,,,,,,,,,,,,676.6692630136386,None,678.1855587204918,None,679.5691772578284,None,cab,679.5691772578284,None,return,5.16276746802032,679.6526452424005,None,,,,,,,,,,,,,,,,,,,,,,,,,,,,,,,,,,,,,,,179,001,2024_Mar_07_1539,SpeechDraft1Carolyn_lessNoise_PlusLocalization,2021.2.3,60.02260030919183,
craft.wav,craft.mpg,craft,1,A,Pink_Noise_1_1.wav,Pink_Noise_1_2.wav,,,,,,,,,,,,,,,0,97,97,39,,,,,,,,,,,,,,,,,,,,,,,684.8359534079209,None,686.3530831718817,None,687.7358892187476,None,craft,687.7358892187476,None,return,5.444021782837808,687.8193146884441,None,,,,,,,,,,,,,,,,,,,,,,,,,,,,,,,,,,,,,,,179,001,2024_Mar_07_1539,SpeechDraft1Carolyn_lessNoise_PlusLocalization,2021.2.3,60.02260030919183,
cuff.wav,cuff.mpg,cuff,4,A,Pink_Noise_4_1.wav,Pink_Noise_4_2.wav,,,,,,,,,,,,,,,0,98,98,3,,,,,,,,,,,,,,,,,,,,,,,693.2859008647501,None,694.8189081689343,None,696.2025609398261,None,cut,696.2025609398261,None,return,2.945367398671806,696.2860161177814,None,,,,,,,,,,,,,,,,,,,,,,,,,,,,,,,,,,,,,,,179,001,2024_Mar_07_1539,SpeechDraft1Carolyn_lessNoise_PlusLocalization,2021.2.3,60.02260030919183,
bird.wav,bird.mpg,bird,1,A,Pink_Noise_1_1.wav,Pink_Noise_1_2.wav,,,,,,,,,,,,,,,0,99,99,58,,,,,,,,,,,,,,,,,,,,,,,699.2525974959135,None,700.7523102220148,None,702.135904174298,None,burned,702.135904174298,None,return,2.276042241603136,702.2193048307672,None,,,,,,,,,,,,,,,,,,,,,,,,,,,,,,,,,,,,,,,179,001,2024_Mar_07_1539,SpeechDraft1Carolyn_lessNoise_PlusLocalization,2021.2.3,60.02260030919183,
flesh.wav,flesh.mpg,flesh,4,AV,Pink_Noise_4_1.wav,Pink_Noise_4_2.wav,,,,,,,,,,,,,,,0,100,100,108,,,,,,,,,,,,,,,,,,,,,,,704.5192547421902,None,706.0191685380414,None,707.4025537306443,None,flesh,707.4025537306443,None,return,1.2573792533949018,707.4860457964242,None,,,,,,,,,,,,,,,,,,,,,,,,,,,,,,,,,,,,,,,179,001,2024_Mar_07_1539,SpeechDraft1Carolyn_lessNoise_PlusLocalization,2021.2.3,60.02260030919183,
dust.wav,dust.mpg,dust,5,A,Pink_Noise_5_1.wav,Pink_Noise_5_2.wav,,,,,,,,,,,,,,,0,101,101,26,,,,,,,,,,,,,,,,,,,,,,,708.7692660046741,None,710.285536820069,None,711.6692183399573,None,guest,711.6692183399573,None,return,1.0068783266469836,711.7526003560051,None,,,,,,,,,,,,,,,,,,,,,,,,,,,,,,,,,,,,,,,179,001,2024_Mar_07_1539,SpeechDraft1Carolyn_lessNoise_PlusLocalization,2021.2.3,60.02260030919183,
fifth.wav,fifth.mpg,fifth,6,AV,Pink_Noise_6_1.wav,Pink_Noise_6_2.wav,,,,,,,,,,,,,,,0,102,102,60,,,,,,,,,,,,,,,,,,,,,,,712.7859300347045,None,714.3189341044053,None,715.7025415999815,None,"fifth
",715.7025415999815,None,return,1.4853712730109692,715.7859751954675,None,,,,,,,,,,,,,,,,,,,,,,,,,,,,,,,,,,,,,,,179,001,2024_Mar_07_1539,SpeechDraft1Carolyn_lessNoise_PlusLocalization,2021.2.3,60.02260030919183,
drink.wav,drink.mpg,drink,1,A,Pink_Noise_1_1.wav,Pink_Noise_1_2.wav,,,,,,,,,,,,,,,0,103,103,37,,,,,,,,,,,,,,,,,,,,,,,717.302643250674,None,718.835664450191,None,720.2192661743611,None,drink,720.2192661743611,None,return,2.728692221455276,720.3026430997998,None,,,,,,,,,,,,,,,,,,,,,,,,,,,,,,,,,,,,,,,179,001,2024_Mar_07_1539,SpeechDraft1Carolyn_lessNoise_PlusLocalization,2021.2.3,60.02260030919183,
catch.wav,catch.mpg,catch,3,A,Pink_Noise_3_1.wav,Pink_Noise_3_2.wav,,,,,,,,,,,,,,,0,104,104,1,,,,,,,,,,,,,,,,,,,,,,,723.0527431359515,None,724.5856648478657,None,725.9693065984175,None,catch,725.9693065984175,None,return,2.8426633188501,726.052676317282,None,,,,,,,,,,,,,,,,,,,,,,,,,,,,,,,,,,,,,,,179,001,2024_Mar_07_1539,SpeechDraft1Carolyn_lessNoise_PlusLocalization,2021.2.3,60.02260030919183,
greed.wav,greed.mpg,greed,5,AV,Pink_Noise_5_1.wav,Pink_Noise_5_2.wav,,,,,,,,,,,,,,,0,105,105,94,,,,,,,,,,,,,,,,,,,,,,,728.9194550169632,None,730.4355574585497,None,731.8193788295612,None,new,731.8193788295612,None,return,6.088820616714656,731.9026062190533,None,,,,,,,,,,,,,,,,,,,,,,,,,,,,,,,,,,,,,,,179,001,2024_Mar_07_1539,SpeechDraft1Carolyn_lessNoise_PlusLocalization,2021.2.3,60.02260030919183,
flip.wav,flip.mpg,flip,4,AV,Pink_Noise_4_1.wav,Pink_Noise_4_2.wav,,,,,,,,,,,,,,,0,106,106,74,,,,,,,,,,,,,,,,,,,,,,,738.0192975634709,None,739.5189898926765,None,740.9025864964351,None,flip,740.9025864964351,None,return,1.4214095566421747,740.9860011348501,None,,,,,,,,,,,,,,,,,,,,,,,,,,,,,,,,,,,,,,,179,001,2024_Mar_07_1539,SpeechDraft1Carolyn_lessNoise_PlusLocalization,2021.2.3,60.02260030919183,
roar.wav,roar.mpg,roar,1,A,Pink_Noise_1_1.wav,Pink_Noise_1_2.wav,,,,,,,,,,,,,,,0,107,107,24,,,,,,,,,,,,,,,,,,,,,,,742.4358936576173,None,743.968997547403,None,745.3526527294889,None,roar,745.3526527294889,None,return,1.1873530391603708,745.4359977552667,None,,,,,,,,,,,,,,,,,,,,,,,,,,,,,,,,,,,,,,,179,001,2024_Mar_07_1539,SpeechDraft1Carolyn_lessNoise_PlusLocalization,2021.2.3,60.02260030919183,
lost.wav,lost.mpg,lost,2,A,Pink_Noise_2_1.wav,Pink_Noise_2_2.wav,,,,,,,,,,,,,,,0,108,108,33,,,,,,,,,,,,,,,,,,,,,,,746.6528692683205,None,748.1690533505753,None,749.5527332900092,None,rust,749.5527332900092,None,return,6.595297149382532,749.6360483625904,None,,,,,,,,,,,,,,,,,,,,,,,,,,,,,,,,,,,,,,,179,001,2024_Mar_07_1539,SpeechDraft1Carolyn_lessNoise_PlusLocalization,2021.2.3,60.02260030919183,
clad.wav,clad.mpg,clad,2,AV,Pink_Noise_2_1.wav,Pink_Noise_2_2.wav,,,,,,,,,,,,,,,0,109,109,110,,,,,,,,,,,,,,,,,,,,,,,756.2526432806626,None,757.7856290182099,None,759.169331336394,None,clad,759.169331336394,None,return,2.882701394148171,759.2526935776696,None,,,,,,,,,,,,,,,,,,,,,,,,,,,,,,,,,,,,,,,179,001,2024_Mar_07_1539,SpeechDraft1Carolyn_lessNoise_PlusLocalization,2021.2.3,60.02260030919183,
buzz.wav,buzz.mpg,buzz,6,A,Pink_Noise_6_1.wav,Pink_Noise_6_2.wav,,,,,,,,,,,,,,,0,110,110,23,,,,,,,,,,,,,,,,,,,,,,,762.1527939233929,None,763.6856877366081,None,765.0693608690053,None,"bunch
",765.0693608690053,None,return,4.886670426465571,765.1526796054095,None,,,,,,,,,,,,,,,,,,,,,,,,,,,,,,,,,,,,,,,179,001,2024_Mar_07_1539,SpeechDraft1Carolyn_lessNoise_PlusLocalization,2021.2.3,60.02260030919183,
curb.wav,curb.mpg,curb,5,AV,Pink_Noise_5_1.wav,Pink_Noise_5_2.wav,,,,,,,,,,,,,,,0,111,111,96,,,,,,,,,,,,,,,,,,,,,,,770.0694587612525,None,771.5692759500816,None,772.9526921054348,None,"herb
",772.9526921054348,None,return,5.019322388805449,773.036033006385,None,,,,,,,,,,,,,,,,,,,,,,,,,,,,,,,,,,,,,,,179,001,2024_Mar_07_1539,SpeechDraft1Carolyn_lessNoise_PlusLocalization,2021.2.3,60.02260030919183,
tense.wav,tense.mpg,tense,6,A,Pink_Noise_6_1.wav,Pink_Noise_6_2.wav,,,,,,,,,,,,,,,0,112,112,32,,,,,,,,,,,,,,,,,,,,,,,778.0860218983144,None,779.6022884948179,None,780.9861383335665,None,vast,780.9861383335665,None,return,5.161949224770069,781.0694125927985,None,,,,,,,,,,,,,,,,,,,,,,,,,,,,,,,,,,,,,,,179,001,2024_Mar_07_1539,SpeechDraft1Carolyn_lessNoise_PlusLocalization,2021.2.3,60.02260030919183,
bad.wav,bad.mpg,bad,2,A,Pink_Noise_2_1.wav,Pink_Noise_2_2.wav,,,,,,,,,,,,,,,0,113,113,43,,,,,,,,,,,,,,,,,,,,,,,786.2526569506153,None,787.7691103303805,None,789.1527270358056,None,bad,789.1527270358056,None,return,1.7234050780534744,789.2360592745245,None,,,,,,,,,,,,,,,,,,,,,,,,,,,,,,,,,,,,,,,179,001,2024_Mar_07_1539,SpeechDraft1Carolyn_lessNoise_PlusLocalization,2021.2.3,60.02260030919183,
crane.wav,crane.mpg,crane,4,A,Pink_Noise_4_1.wav,Pink_Noise_4_2.wav,,,,,,,,,,,,,,,0,114,114,16,,,,,,,,,,,,,,,,,,,,,,,790.9860902968794,None,792.5358107816428,None,793.9193472536281,None,crane,793.9193472536281,None,return,2.4606849029660225,794.0026576882228,None,,,,,,,,,,,,,,,,,,,,,,,,,,,,,,,,,,,,,,,179,001,2024_Mar_07_1539,SpeechDraft1Carolyn_lessNoise_PlusLocalization,2021.2.3,60.02260030919183,
beg.wav,beg.mpg,beg,5,AV,Pink_Noise_5_1.wav,Pink_Noise_5_2.wav,,,,,,,,,,,,,,,0,115,115,111,,,,,,,,,,,,,,,,,,,,,,,796.4862065287307,None,798.0025617182255,None,799.3860256336629,None,bed,799.3860256336629,None,return,2.329943932592869,799.4694725964218,None,,,,,,,,,,,,,,,,,,,,,,,,,,,,,,,,,,,,,,,179,001,2024_Mar_07_1539,SpeechDraft1Carolyn_lessNoise_PlusLocalization,2021.2.3,60.02260030919183,
blame.wav,blame.mpg,blame,3,A,Pink_Noise_3_1.wav,Pink_Noise_3_2.wav,,,,,,,,,,,,,,,0,116,116,34,,,,,,,,,,,,,,,,,,,,,,,801.8195242881775,None,803.3524967739359,None,804.7360535636544,None,flame,804.7360535636544,None,return,4.547958226874471,804.8193912860006,None,,,,,,,,,,,,,,,,,,,,,,,,,,,,,,,,,,,,,,,179,001,2024_Mar_07_1539,SpeechDraft1Carolyn_lessNoise_PlusLocalization,2021.2.3,60.02260030919183,
nine.wav,nine.mpg,nine,2,AV,Pink_Noise_2_1.wav,Pink_Noise_2_2.wav,,,,,,,,,,,,,,,0,117,117,69,,,,,,,,,,,,,,,,,,,,,,,809.386088874191,None,810.9024197049439,None,812.286087680608,None,"none
",812.286087680608,None,return,0.8539170101284981,812.369432784617,None,,,,,,,,,,,,,,,,,,,,,,,,,,,,,,,,,,,,,,,179,001,2024_Mar_07_1539,SpeechDraft1Carolyn_lessNoise_PlusLocalization,2021.2.3,60.02260030919183,
food.wav,food.mpg,food,5,A,Pink_Noise_5_1.wav,Pink_Noise_5_2.wav,,,,,,,,,,,,,,,0,118,118,19,,,,,,,,,,,,,,,,,,,,,,,813.2527445498854,None,814.76912214607,None,816.1528225345537,None,three,816.1528225345537,None,return,1.7393960589542985,816.2360726892948,None,,,,,,,,,,,,,,,,,,,,,,,,,,,,,,,,,,,,,,,179,001,2024_Mar_07_1539,SpeechDraft1Carolyn_lessNoise_PlusLocalization,2021.2.3,60.02260030919183,
dream.wav,dream.mpg,dream,2,AV,Pink_Noise_2_1.wav,Pink_Noise_2_2.wav,,,,,,,,,,,,,,,0,119,119,73,,,,,,,,,,,,,,,,,,,,,,,818.0027708830312,None,819.5042837122455,None,820.8859548093751,None,dream,820.8859548093751,None,return,2.5660616904497147,820.9693425670266,None,,,,,,,,,,,,,,,,,,,,,,,,,,,,,,,,,,,,,,,179,001,2024_Mar_07_1539,SpeechDraft1Carolyn_lessNoise_PlusLocalization,2021.2.3,60.02260030919183,
,,,,,,,,,,,,,,,,,,,,,,,,,,,,,,,,,,,,,,,,,,,,,,,,,,,,,,,,,,,,,,,,,,space,15.99509496614337,823.6362899057567,None,,,,,,,,,,,,,,,,,,,,,,,,,,,,,179,001,2024_Mar_07_1539,SpeechDraft1Carolyn_lessNoise_PlusLocalization,2021.2.3,60.02260030919183,
,,,,,,,,farLeft,-19.1,5,ch1Sound_localizationTask.wav,-19.1,"(667, 878)","(-293,-202)",-285,-338,,,,,,,,,0,0,0,0,,,,,,,,,,,,,,,,,,,,,,,,,,,,,,,,,,,,,,,,,,823.6362899057567,None,839.6692963996902,None,840.7693004691973,None,841.7027494292706,None,1.1052910052910052,2.3856240771710873,841.7027494292706,None,,,,,,,,,,,,,,,,,179,001,2024_Mar_07_1539,SpeechDraft1Carolyn_lessNoise_PlusLocalization,2021.2.3,60.02260030919183,
,,,,,,,,nearLeft,-6.5,1,ch1Sound_localizationTask.wav,-6.5,"(857, 878)","(-103,-202)",-95,-338,,,,,,,,,0,1,1,2,,,,,,,,,,,,,,,,,,,,,,,,,,,,,,,,,,,,,,,,,,,,844.0863407496363,None,845.185883580707,None,846.1190809533,None,1.3719576719576718,1.2500567063689232,846.1190809533,None,,,,,,,,,,,,,,,,,179,001,2024_Mar_07_1539,SpeechDraft1Carolyn_lessNoise_PlusLocalization,2021.2.3,60.02260030919183,
,,,,,,,,farLeft,-19.1,5,ch1Sound_localizationTask.wav,-19.1,"(667, 878)","(-293,-202)",-285,-338,,,,,,,,,0,2,2,0,,,,,,,,,,,,,,,,,,,,,,,,,,,,,,,,,,,,,,,,,,,,847.3862538915128,None,848.4859046842903,None,849.4191539045423,None,1.2497354497354498,0.8154948735609651,849.4191539045423,None,,,,,,,,,,,,,,,,,179,001,2024_Mar_07_1539,SpeechDraft1Carolyn_lessNoise_PlusLocalization,2021.2.3,60.02260030919183,
,,,,,,,,farRight,19.1,4,ch1Sound_localizationTask.wav,19.1,"(1237, 878)","(277,-202)",285,-338,,,,,,,,,0,3,3,6,,,,,,,,,,,,,,,,,,,,,,,,,,,,,,,,,,,,,,,,,,,,850.2363433679566,None,851.3357780678198,None,852.2692718859762,None,1.7111111111111112,1.6506127314642072,852.2692718859762,None,,,,,,,,,,,,,,,,,179,001,2024_Mar_07_1539,SpeechDraft1Carolyn_lessNoise_PlusLocalization,2021.2.3,60.02260030919183,
,,,,,,,,farRight,19.1,4,ch1Sound_localizationTask.wav,19.1,"(1237, 878)","(277,-202)",285,-338,,,,,,,,,0,4,4,6,,,,,,,,,,,,,,,,,,,,,,,,,,,,,,,,,,,,,,,,,,,,853.9362058136612,None,855.0359439272434,None,855.969294118695,None,1.8227513227513228,0.9151708986610174,855.969294118695,None,,,,,,,,,,,,,,,,,179,001,2024_Mar_07_1539,SpeechDraft1Carolyn_lessNoise_PlusLocalization,2021.2.3,60.02260030919183,
,,,,,,,,midLeft,-13.0,2,ch1Sound_localizationTask.wav,-13.0,"(762, 878)","(-198,-202)",-190,-338,,,,,,,,,0,5,5,1,,,,,,,,,,,,,,,,,,,,,,,,,,,,,,,,,,,,,,,,,,,,856.8860030854121,None,857.9859771225601,None,858.9195219706744,None,1.3396825396825398,0.9977327156811953,858.9195219706744,None,,,,,,,,,,,,,,,,,179,001,2024_Mar_07_1539,SpeechDraft1Carolyn_lessNoise_PlusLocalization,2021.2.3,60.02260030919183,
,,,,,,,,nearRight,6.5,0,ch1Sound_localizationTask.wav,6.5,"(1047, 878)","(87, -202)",95,-338,,,,,,,,,0,6,6,4,,,,,,,,,,,,,,,,,,,,,,,,,,,,,,,,,,,,,,,,,,,,859.9362087612972,None,861.0359443537891,None,861.969120352529,None,1.5756613756613755,0.6658836863934994,861.969120352529,None,,,,,,,,,,,,,,,,,179,001,2024_Mar_07_1539,SpeechDraft1Carolyn_lessNoise_PlusLocalization,2021.2.3,60.02260030919183,
,,,,,,,,farLeft,-19.1,5,ch1Sound_localizationTask.wav,-19.1,"(667, 878)","(-293,-202)",-285,-338,,,,,,,,,1,0,7,0,,,,,,,,,,,,,,,,,,,,,,,,,,,,,,,,,,,,,,,,,,,,862.6362571334466,None,863.7359180506319,None,864.6692658234388,None,1.2968253968253969,0.700191349722445,864.6692658234388,None,,,,,,,,,,,,,,,,,179,001,2024_Mar_07_1539,SpeechDraft1Carolyn_lessNoise_PlusLocalization,2021.2.3,60.02260030919183,
,,,,,,,,midLeft,-13.0,2,ch1Sound_localizationTask.wav,-13.0,"(762, 878)","(-198,-202)",-190,-338,,,,,,,,,1,1,8,1,,,,,,,,,,,,,,,,,,,,,,,,,,,,,,,,,,,,,,,,,,,,865.3863959172741,None,866.4858949929476,None,867.4192708833143,None,1.3047619047619048,0.4999384908005595,867.4192708833143,None,,,,,,,,,,,,,,,,,179,001,2024_Mar_07_1539,SpeechDraft1Carolyn_lessNoise_PlusLocalization,2021.2.3,60.02260030919183,
,,,,,,,,midRight,13.0,3,ch1Sound_localizationTask.wav,13.0,"(1142, 878)","(182, -202)",190,-338,,,,,,,,,1,2,9,5,,,,,,,,,,,,,,,,,,,,,,,,,,,,,,,,,,,,,,,,,,,,867.920538989827,None,869.03603712935,None,869.9525490123779,None,1.284126984126984,1.7999169984832406,869.9525490123779,None,,,,,,,,,,,,,,,,,179,001,2024_Mar_07_1539,SpeechDraft1Carolyn_lessNoise_PlusLocalization,2021.2.3,60.02260030919183,
,,,,,,,,center,0.0,6,ch1Sound_localizationTask.wav,0.0,"(952, 878)","(-8,-202)",0,-338,,,,,,,,,1,3,10,3,,,,,,,,,,,,,,,,,,,,,,,,,,,,,,,,,,,,,,,,,,,,871.7537959236652,None,872.8525634193793,None,873.786053603515,None,1.4105820105820106,1.0333339162170887,873.786053603515,None,,,,,,,,,,,,,,,,,179,001,2024_Mar_07_1539,SpeechDraft1Carolyn_lessNoise_PlusLocalization,2021.2.3,60.02260030919183,
,,,,,,,,midLeft,-13.0,2,ch1Sound_localizationTask.wav,-13.0,"(762, 878)","(-198,-202)",-190,-338,,,,,,,,,1,4,11,1,,,,,,,,,,,,,,,,,,,,,,,,,,,,,,,,,,,,,,,,,,,,874.8194877328351,None,875.919249006547,None,876.8525598542765,None,1.3238095238095238,0.7992761489003897,876.8525598542765,None,,,,,,,,,,,,,,,,,179,001,2024_Mar_07_1539,SpeechDraft1Carolyn_lessNoise_PlusLocalization,2021.2.3,60.02260030919183,
,,,,,,,,nearLeft,-6.5,1,ch1Sound_localizationTask.wav,-6.5,"(857, 878)","(-103,-202)",-95,-338,,,,,,,,,1,5,12,2,,,,,,,,,,,,,,,,,,,,,,,,,,,,,,,,,,,,,,,,,,,,877.6533937044442,None,878.7526250509545,None,879.6859300760552,None,1.3407407407407408,0.4325075810775161,879.6859300760552,None,,,,,,,,,,,,,,,,,179,001,2024_Mar_07_1539,SpeechDraft1Carolyn_lessNoise_PlusLocalization,2021.2.3,60.02260030919183,
,,,,,,,,midRight,13.0,3,ch1Sound_localizationTask.wav,13.0,"(1142, 878)","(182, -202)",190,-338,,,,,,,,,1,6,13,5,,,,,,,,,,,,,,,,,,,,,,,,,,,,,,,,,,,,,,,,,,,,880.1196455657482,None,881.2192388540134,None,882.152524122037,None,1.6121693121693121,0.7502466859295964,882.152524122037,None,,,,,,,,,,,,,,,,,179,001,2024_Mar_07_1539,SpeechDraft1Carolyn_lessNoise_PlusLocalization,2021.2.3,60.02260030919183,
,,,,,,,,midLeft,-13.0,2,ch1Sound_localizationTask.wav,-13.0,"(762, 878)","(-198,-202)",-190,-338,,,,,,,,,2,0,14,1,,,,,,,,,,,,,,,,,,,,,,,,,,,,,,,,,,,,,,,,,,,,882.9039419237524,None,884.0193044822663,None,884.9361337898299,None,1.3846560846560847,0.9812321616336703,884.9361337898299,None,,,,,,,,,,,,,,,,,179,001,2024_Mar_07_1539,SpeechDraft1Carolyn_lessNoise_PlusLocalization,2021.2.3,60.02260030919183,
,,,,,,,,center,0.0,6,ch1Sound_localizationTask.wav,0.0,"(952, 878)","(-8,-202)",0,-338,,,,,,,,,2,1,15,3,,,,,,,,,,,,,,,,,,,,,,,,,,,,,,,,,,,,,,,,,,,,885.9362789588049,None,887.0359298689291,None,887.9693642957136,None,1.502116402116402,0.7155683236196637,887.9693642957136,None,,,,,,,,,,,,,,,,,179,001,2024_Mar_07_1539,SpeechDraft1Carolyn_lessNoise_PlusLocalization,2021.2.3,60.02260030919183,
,,,,,,,,nearRight,6.5,0,ch1Sound_localizationTask.wav,6.5,"(1047, 878)","(87, -202)",95,-338,,,,,,,,,2,2,16,4,,,,,,,,,,,,,,,,,,,,,,,,,,,,,,,,,,,,,,,,,,,,888.6861904915422,None,889.7859531054273,None,890.7191083114594,None,1.502116402116402,0.41547952592372894,890.7191083114594,None,,,,,,,,,,,,,,,,,179,001,2024_Mar_07_1539,SpeechDraft1Carolyn_lessNoise_PlusLocalization,2021.2.3,60.02260030919183,
,,,,,,,,nearLeft,-6.5,1,ch1Sound_localizationTask.wav,-6.5,"(857, 878)","(-103,-202)",-95,-338,,,,,,,,,2,3,17,2,,,,,,,,,,,,,,,,,,,,,,,,,,,,,,,,,,,,,,,,,,,,891.1361804986373,None,892.2359573142603,None,893.1693641813472,None,1.461904761904762,0.5674578743055463,893.1693641813472,None,,,,,,,,,,,,,,,,,179,001,2024_Mar_07_1539,SpeechDraft1Carolyn_lessNoise_PlusLocalization,2021.2.3,60.02260030919183,
,,,,,,,,midRight,13.0,3,ch1Sound_localizationTask.wav,13.0,"(1142, 878)","(182, -202)",190,-338,,,,,,,,,2,4,18,5,,,,,,,,,,,,,,,,,,,,,,,,,,,,,,,,,,,,,,,,,,,,893.7368737142533,None,894.8359566135332,None,895.7693646745756,None,1.5492063492063493,0.4989373469725251,895.7693646745756,None,,,,,,,,,,,,,,,,,179,001,2024_Mar_07_1539,SpeechDraft1Carolyn_lessNoise_PlusLocalization,2021.2.3,60.02260030919183,
,,,,,,,,midRight,13.0,3,ch1Sound_localizationTask.wav,13.0,"(1142, 878)","(182, -202)",190,-338,,,,,,,,,2,5,19,5,,,,,,,,,,,,,,,,,,,,,,,,,,,,,,,,,,,,,,,,,,,,896.2695552874357,None,897.3692293027416,None,898.3026190884411,None,1.583068783068783,0.4339304091408849,898.3026190884411,None,,,,,,,,,,,,,,,,,179,001,2024_Mar_07_1539,SpeechDraft1Carolyn_lessNoise_PlusLocalization,2021.2.3,60.02260030919183,
,,,,,,,,nearLeft,-6.5,1,ch1Sound_localizationTask.wav,-6.5,"(857, 878)","(-103,-202)",-95,-338,,,,,,,,,2,6,20,2,,,,,,,,,,,,,,,,,,,,,,,,,,,,,,,,,,,,,,,,,,,,898.7529323343188,None,899.8525841282681,None,900.7858949713409,None,1.4846560846560846,0.39930662512779236,900.7858949713409,None,,,,,,,,,,,,,,,,,179,001,2024_Mar_07_1539,SpeechDraft1Carolyn_lessNoise_PlusLocalization,2021.2.3,60.02260030919183,
,,,,,,,,farRight,19.1,4,ch1Sound_localizationTask.wav,19.1,"(1237, 878)","(277,-202)",285,-338,,,,,,,,,3,0,21,6,,,,,,,,,,,,,,,,,,,,,,,,,,,,,,,,,,,,,,,,,,,,901.1860995544121,None,902.285856927745,None,903.2192249074578,None,1.6433862433862434,0.9156395578756928,903.2192249074578,None,,,,,,,,,,,,,,,,,179,001,2024_Mar_07_1539,SpeechDraft1Carolyn_lessNoise_PlusLocalization,2021.2.3,60.02260030919183,
,,,,,,,,farLeft,-19.1,5,ch1Sound_localizationTask.wav,-19.1,"(667, 878)","(-293,-202)",-285,-338,,,,,,,,,3,1,22,0,,,,,,,,,,,,,,,,,,,,,,,,,,,,,,,,,,,,,,,,,,,,904.136271818541,None,905.2359754228964,None,906.1692529842257,None,1.3137566137566137,0.8321187384426594,906.1692529842257,None,,,,,,,,,,,,,,,,,179,001,2024_Mar_07_1539,SpeechDraft1Carolyn_lessNoise_PlusLocalization,2021.2.3,60.02260030919183,
,,,,,,,,farRight,19.1,4,ch1Sound_localizationTask.wav,19.1,"(1237, 878)","(277,-202)",285,-338,,,,,,,,,3,2,23,6,,,,,,,,,,,,,,,,,,,,,,,,,,,,,,,,,,,,,,,,,,,,907.0033151190728,None,908.1026188610122,None,909.0359131973237,None,1.633862433862434,1.0841838857159019,909.0359131973237,None,,,,,,,,,,,,,,,,,179,001,2024_Mar_07_1539,SpeechDraft1Carolyn_lessNoise_PlusLocalization,2021.2.3,60.02260030919183,
,,,,,,,,center,0.0,6,ch1Sound_localizationTask.wav,0.0,"(952, 878)","(-8,-202)",0,-338,,,,,,,,,3,3,24,3,,,,,,,,,,,,,,,,,,,,,,,,,,,,,,,,,,,,,,,,,,,,910.1363258073106,None,911.2359195258468,None,912.1692289467901,None,1.4333333333333333,0.6658459613099694,912.1692289467901,None,,,,,,,,,,,,,,,,,179,001,2024_Mar_07_1539,SpeechDraft1Carolyn_lessNoise_PlusLocalization,2021.2.3,60.02260030919183,
,,,,,,,,midLeft,-13.0,2,ch1Sound_localizationTask.wav,-13.0,"(762, 878)","(-198,-202)",-190,-338,,,,,,,,,3,4,25,1,,,,,,,,,,,,,,,,,,,,,,,,,,,,,,,,,,,,,,,,,,,,912.8363809054717,None,913.9360383665189,None,914.8692427417263,None,1.2904761904761906,0.6669945446774364,914.8692427417263,None,,,,,,,,,,,,,,,,,179,001,2024_Mar_07_1539,SpeechDraft1Carolyn_lessNoise_PlusLocalization,2021.2.3,60.02260030919183,
,,,,,,,,midRight,13.0,3,ch1Sound_localizationTask.wav,13.0,"(1142, 878)","(182, -202)",190,-338,,,,,,,,,3,5,26,5,,,,,,,,,,,,,,,,,,,,,,,,,,,,,,,,,,,,,,,,,,,,915.5530755221844,None,916.6526216147467,None,917.5860345782712,None,1.505820105820106,0.6498151076957583,917.5860345782712,None,,,,,,,,,,,,,,,,,179,001,2024_Mar_07_1539,SpeechDraft1Carolyn_lessNoise_PlusLocalization,2021.2.3,60.02260030919183,
,,,,,,,,nearLeft,-6.5,1,ch1Sound_localizationTask.wav,-6.5,"(857, 878)","(-103,-202)",-95,-338,,,,,,,,,3,6,27,2,,,,,,,,,,,,,,,,,,,,,,,,,,,,,,,,,,,,,,,,,,,,918.2367242155597,None,919.3359653018415,None,920.269317092374,None,1.4455026455026454,0.565122595988214,920.269317092374,None,,,,,,,,,,,,,,,,,179,001,2024_Mar_07_1539,SpeechDraft1Carolyn_lessNoise_PlusLocalization,2021.2.3,60.02260030919183,
,,,,,,,,center,0.0,6,ch1Sound_localizationTask.wav,0.0,"(952, 878)","(-8,-202)",0,-338,,,,,,,,,4,0,28,3,,,,,,,,,,,,,,,,,,,,,,,,,,,,,,,,,,,,,,,,,,,,920.8362131211907,None,921.9360037492588,None,922.8691922966391,None,1.4455026455026454,0.3988887369632721,922.8691922966391,None,,,,,,,,,,,,,,,,,179,001,2024_Mar_07_1539,SpeechDraft1Carolyn_lessNoise_PlusLocalization,2021.2.3,60.02260030919183,
,,,,,,,,midLeft,-13.0,2,ch1Sound_localizationTask.wav,-13.0,"(762, 878)","(-198,-202)",-190,-338,,,,,,,,,4,1,29,1,,,,,,,,,,,,,,,,,,,,,,,,,,,,,,,,,,,,,,,,,,,,923.2694213520736,None,924.3695114860311,None,925.3025678172708,None,1.3608465608465607,0.6000006208196282,925.3025678172708,None,,,,,,,,,,,,,,,,,179,001,2024_Mar_07_1539,SpeechDraft1Carolyn_lessNoise_PlusLocalization,2021.2.3,60.02260030919183,
,,,,,,,,center,0.0,6,ch1Sound_localizationTask.wav,0.0,"(952, 878)","(-8,-202)",0,-338,,,,,,,,,4,2,30,3,,,,,,,,,,,,,,,,,,,,,,,,,,,,,,,,,,,,,,,,,,,,925.9041346935555,None,927.0192618733272,None,927.9359717825428,None,1.4116402116402116,0.433328608982265,927.9359717825428,None,,,,,,,,,,,,,,,,,179,001,2024_Mar_07_1539,SpeechDraft1Carolyn_lessNoise_PlusLocalization,2021.2.3,60.02260030919183,
,,,,,,,,center,0.0,6,ch1Sound_localizationTask.wav,0.0,"(952, 878)","(-8,-202)",0,-338,,,,,,,,,4,3,31,3,,,,,,,,,,,,,,,,,,,,,,,,,,,,,,,,,,,,,,,,,,,,928.369713592343,None,929.4692658782005,None,930.4026357587427,None,1.4444444444444444,0.3492563422769308,930.4026357587427,None,,,,,,,,,,,,,,,,,179,001,2024_Mar_07_1539,SpeechDraft1Carolyn_lessNoise_PlusLocalization,2021.2.3,60.02260030919183,
,,,,,,,,farLeft,-19.1,5,ch1Sound_localizationTask.wav,-19.1,"(667, 878)","(-293,-202)",-285,-338,,,,,,,,,4,4,32,0,,,,,,,,,,,,,,,,,,,,,,,,,,,,,,,,,,,,,,,,,,,,930.7528542764485,None,931.8526485934854,None,932.7860790640116,None,1.308994708994709,0.9160290854051709,932.7860790640116,None,,,,,,,,,,,,,,,,,179,001,2024_Mar_07_1539,SpeechDraft1Carolyn_lessNoise_PlusLocalization,2021.2.3,60.02260030919183,
,,,,,,,,midRight,13.0,3,ch1Sound_localizationTask.wav,13.0,"(1142, 878)","(182, -202)",190,-338,,,,,,,,,4,5,33,5,,,,,,,,,,,,,,,,,,,,,,,,,,,,,,,,,,,,,,,,,,,,933.7038183808327,None,934.8027485776693,None,935.7360013090074,None,1.6349206349206349,0.9489525677636266,935.7360013090074,None,,,,,,,,,,,,,,,,,179,001,2024_Mar_07_1539,SpeechDraft1Carolyn_lessNoise_PlusLocalization,2021.2.3,60.02260030919183,
,,,,,,,,farRight,19.1,4,ch1Sound_localizationTask.wav,19.1,"(1237, 878)","(277,-202)",285,-338,,,,,,,,,4,6,34,6,,,,,,,,,,,,,,,,,,,,,,,,,,,,,,,,,,,,,,,,,,,,936.686435835436,None,937.7860322110355,None,938.7194221112877,None,1.6888888888888889,0.43275537993758917,938.7194221112877,None,,,,,,,,,,,,,,,,,179,001,2024_Mar_07_1539,SpeechDraft1Carolyn_lessNoise_PlusLocalization,2021.2.3,60.02260030919183,
,,,,,,,,midLeft,-13.0,2,ch1Sound_localizationTask.wav,-13.0,"(762, 878)","(-198,-202)",-190,-338,,,,,,,,,5,0,35,1,,,,,,,,,,,,,,,,,,,,,,,,,,,,,,,,,,,,,,,,,,,,939.1529192486778,None,940.2527318205684,None,941.1859773257747,None,1.3634920634920635,0.8501754403114319,941.1859773257747,None,,,,,,,,,,,,,,,,,179,001,2024_Mar_07_1539,SpeechDraft1Carolyn_lessNoise_PlusLocalization,2021.2.3,60.02260030919183,
,,,,,,,,nearRight,6.5,0,ch1Sound_localizationTask.wav,6.5,"(1047, 878)","(87, -202)",95,-338,,,,,,,,,5,1,36,4,,,,,,,,,,,,,,,,,,,,,,,,,,,,,,,,,,,,,,,,,,,,942.0530116818845,None,943.1526724677533,None,944.0860802214593,None,1.5386243386243388,0.6841006064787507,944.0860802214593,None,,,,,,,,,,,,,,,,,179,001,2024_Mar_07_1539,SpeechDraft1Carolyn_lessNoise_PlusLocalization,2021.2.3,60.02260030919183,
,,,,,,,,nearLeft,-6.5,1,ch1Sound_localizationTask.wav,-6.5,"(857, 878)","(-103,-202)",-95,-338,,,,,,,,,5,2,37,2,,,,,,,,,,,,,,,,,,,,,,,,,,,,,,,,,,,,,,,,,,,,944.7863178541884,None,945.8859927477315,None,946.81935053505,None,1.4666666666666668,0.44956942088901997,946.81935053505,None,,,,,,,,,,,,,,,,,179,001,2024_Mar_07_1539,SpeechDraft1Carolyn_lessNoise_PlusLocalization,2021.2.3,60.02260030919183,
,,,,,,,,center,0.0,6,ch1Sound_localizationTask.wav,0.0,"(952, 878)","(-8,-202)",0,-338,,,,,,,,,5,3,38,3,,,,,,,,,,,,,,,,,,,,,,,,,,,,,,,,,,,,,,,,,,,,947.2698812698945,None,948.3692857148126,None,949.3025943962857,None,1.5687830687830688,0.4988178126513958,949.3025943962857,None,,,,,,,,,,,,,,,,,179,001,2024_Mar_07_1539,SpeechDraft1Carolyn_lessNoise_PlusLocalization,2021.2.3,60.02260030919183,
,,,,,,,,nearRight,6.5,0,ch1Sound_localizationTask.wav,6.5,"(1047, 878)","(87, -202)",95,-338,,,,,,,,,5,4,39,4,,,,,,,,,,,,,,,,,,,,,,,,,,,,,,,,,,,,,,,,,,,,949.8028833605349,None,950.902604687959,None,951.8360729366541,None,1.5497354497354499,0.3501385757699609,951.8360729366541,None,,,,,,,,,,,,,,,,,179,001,2024_Mar_07_1539,SpeechDraft1Carolyn_lessNoise_PlusLocalization,2021.2.3,60.02260030919183,
,,,,,,,,farLeft,-19.1,5,ch1Sound_localizationTask.wav,-19.1,"(667, 878)","(-293,-202)",-285,-338,,,,,,,,,5,5,40,0,,,,,,,,,,,,,,,,,,,,,,,,,,,,,,,,,,,,,,,,,,,,952.186887236312,None,953.286081106402,None,954.219327555038,None,1.3571428571428572,0.7166902311146259,954.219327555038,None,,,,,,,,,,,,,,,,,179,001,2024_Mar_07_1539,SpeechDraft1Carolyn_lessNoise_PlusLocalization,2021.2.3,60.02260030919183,
,,,,,,,,center,0.0,6,ch1Sound_localizationTask.wav,0.0,"(952, 878)","(-8,-202)",0,-338,,,,,,,,,5,6,41,3,,,,,,,,,,,,,,,,,,,,,,,,,,,,,,,,,,,,,,,,,,,,954.9529914874583,None,956.0528096649796,None,956.9861044520512,None,1.535978835978836,0.6828930424526334,956.9861044520512,None,,,,,,,,,,,,,,,,,179,001,2024_Mar_07_1539,SpeechDraft1Carolyn_lessNoise_PlusLocalization,2021.2.3,60.02260030919183,
,,,,,,,,nearLeft,-6.5,1,ch1Sound_localizationTask.wav,-6.5,"(857, 878)","(-103,-202)",-95,-338,,,,,,,,,6,0,42,2,,,,,,,,,,,,,,,,,,,,,,,,,,,,,,,,,,,,,,,,,,,,957.6696972474456,None,958.7693053260446,None,959.7026155525818,None,1.4962962962962962,0.3992657130584121,959.7026155525818,None,,,,,,,,,,,,,,,,,179,001,2024_Mar_07_1539,SpeechDraft1Carolyn_lessNoise_PlusLocalization,2021.2.3,60.02260030919183,
,,,,,,,,midRight,13.0,3,ch1Sound_localizationTask.wav,13.0,"(1142, 878)","(182, -202)",190,-338,,,,,,,,,6,1,43,5,,,,,,,,,,,,,,,,,,,,,,,,,,,,,,,,,,,,,,,,,,,,960.1029654210433,None,961.2026233756915,None,962.1360456878319,None,1.6164021164021163,0.48226348869502544,962.1360456878319,None,,,,,,,,,,,,,,,,,179,001,2024_Mar_07_1539,SpeechDraft1Carolyn_lessNoise_PlusLocalization,2021.2.3,60.02260030919183,
,,,,,,,,farRight,19.1,4,ch1Sound_localizationTask.wav,19.1,"(1237, 878)","(277,-202)",285,-338,,,,,,,,,6,2,44,6,,,,,,,,,,,,,,,,,,,,,,,,,,,,,,,,,,,,,,,,,,,,962.6197287030518,None,963.7193128094077,None,964.6527412673458,None,1.6656084656084655,0.5492612812668085,964.6527412673458,None,,,,,,,,,,,,,,,,,179,001,2024_Mar_07_1539,SpeechDraft1Carolyn_lessNoise_PlusLocalization,2021.2.3,60.02260030919183,
,,,,,,,,nearLeft,-6.5,1,ch1Sound_localizationTask.wav,-6.5,"(857, 878)","(-103,-202)",-95,-338,,,,,,,,,6,3,45,2,,,,,,,,,,,,,,,,,,,,,,,,,,,,,,,,,,,,,,,,,,,,965.2030826387927,None,966.3026809906587,None,967.2359385704622,None,1.435978835978836,0.5989552531391382,967.2359385704622,None,,,,,,,,,,,,,,,,,179,001,2024_Mar_07_1539,SpeechDraft1Carolyn_lessNoise_PlusLocalization,2021.2.3,60.02260030919183,
,,,,,,,,midRight,13.0,3,ch1Sound_localizationTask.wav,13.0,"(1142, 878)","(182, -202)",190,-338,,,,,,,,,6,4,46,5,,,,,,,,,,,,,,,,,,,,,,,,,,,,,,,,,,,,,,,,,,,,967.8362772800028,None,968.9360728356987,None,969.8692948203534,None,1.5735449735449736,0.649117786437273,969.8692948203534,None,,,,,,,,,,,,,,,,,179,001,2024_Mar_07_1539,SpeechDraft1Carolyn_lessNoise_PlusLocalization,2021.2.3,60.02260030919183,
,,,,,,,,nearRight,6.5,0,ch1Sound_localizationTask.wav,6.5,"(1047, 878)","(87, -202)",95,-338,,,,,,,,,6,5,47,4,,,,,,,,,,,,,,,,,,,,,,,,,,,,,,,,,,,,,,,,,,,,970.5196966072544,None,971.6193406982347,None,972.5527443476021,None,1.4968253968253968,0.6167776184156537,972.5527443476021,None,,,,,,,,,,,,,,,,,179,001,2024_Mar_07_1539,SpeechDraft1Carolyn_lessNoise_PlusLocalization,2021.2.3,60.02260030919183,
,,,,,,,,nearRight,6.5,0,ch1Sound_localizationTask.wav,6.5,"(1047, 878)","(87, -202)",95,-338,,,,,,,,,6,6,48,4,,,,,,,,,,,,,,,,,,,,,,,,,,,,,,,,,,,,,,,,,,,,973.1695459494367,None,974.2693484639749,None,975.2027796227485,None,1.5010582010582012,0.4338393062353134,975.2027796227485,None,,,,,,,,,,,,,,,,,179,001,2024_Mar_07_1539,SpeechDraft1Carolyn_lessNoise_PlusLocalization,2021.2.3,60.02260030919183,
,,,,,,,,farRight,19.1,4,ch1Sound_localizationTask.wav,19.1,"(1237, 878)","(277,-202)",285,-338,,,,,,,,,7,0,49,6,,,,,,,,,,,,,,,,,,,,,,,,,,,,,,,,,,,,,,,,,,,,975.6526334974915,None,976.7527343807742,None,977.669457946904,None,1.6164021164021163,0.5992498593404889,977.669457946904,None,,,,,,,,,,,,,,,,,179,001,2024_Mar_07_1539,SpeechDraft1Carolyn_lessNoise_PlusLocalization,2021.2.3,60.02260030919183,
,,,,,,,,farRight,19.1,4,ch1Sound_localizationTask.wav,19.1,"(1237, 878)","(277,-202)",285,-338,,,,,,,,,7,1,50,6,,,,,,,,,,,,,,,,,,,,,,,,,,,,,,,,,,,,,,,,,,,,978.2699354616925,None,979.3696881467476,None,980.3025935953483,None,1.6407407407407408,0.6333773154765368,980.3025935953483,None,,,,,,,,,,,,,,,,,179,001,2024_Mar_07_1539,SpeechDraft1Carolyn_lessNoise_PlusLocalization,2021.2.3,60.02260030919183,
,,,,,,,,nearRight,6.5,0,ch1Sound_localizationTask.wav,6.5,"(1047, 878)","(87, -202)",95,-338,,,,,,,,,7,2,51,4,,,,,,,,,,,,,,,,,,,,,,,,,,,,,,,,,,,,,,,,,,,,980.9531013881788,None,982.0527131166309,None,982.9862075075507,None,1.4544973544973545,0.6661993730813265,982.9862075075507,None,,,,,,,,,,,,,,,,,179,001,2024_Mar_07_1539,SpeechDraft1Carolyn_lessNoise_PlusLocalization,2021.2.3,60.02260030919183,
,,,,,,,,nearRight,6.5,0,ch1Sound_localizationTask.wav,6.5,"(1047, 878)","(87, -202)",95,-338,,,,,,,,,7,3,52,4,,,,,,,,,,,,,,,,,,,,,,,,,,,,,,,,,,,,,,,,,,,,983.6530564818531,None,984.7525558238849,None,985.6860980866477,None,1.528042328042328,0.38293246272951365,985.6860980866477,None,,,,,,,,,,,,,,,,,179,001,2024_Mar_07_1539,SpeechDraft1Carolyn_lessNoise_PlusLocalization,2021.2.3,60.02260030919183,
,,,,,,,,midLeft,-13.0,2,ch1Sound_localizationTask.wav,-13.0,"(762, 878)","(-198,-202)",-190,-338,,,,,,,,,7,4,53,1,,,,,,,,,,,,,,,,,,,,,,,,,,,,,,,,,,,,,,,,,,,,986.0699135288596,None,987.169472896494,None,988.1026920778677,None,1.411111111111111,0.3818040229380131,988.1026920778677,None,,,,,,,,,,,,,,,,,179,001,2024_Mar_07_1539,SpeechDraft1Carolyn_lessNoise_PlusLocalization,2021.2.3,60.02260030919183,
,,,,,,,,farLeft,-19.1,5,ch1Sound_localizationTask.wav,-19.1,"(667, 878)","(-293,-202)",-285,-338,,,,,,,,,7,5,54,0,,,,,,,,,,,,,,,,,,,,,,,,,,,,,,,,,,,,,,,,,,,,988.4862472806126,None,989.5861827563494,None,990.5193948112428,None,1.3465608465608465,0.6831512842327356,990.5193948112428,None,,,,,,,,,,,,,,,,,179,001,2024_Mar_07_1539,SpeechDraft1Carolyn_lessNoise_PlusLocalization,2021.2.3,60.02260030919183,
,,,,,,,,farLeft,-19.1,5,ch1Sound_localizationTask.wav,-19.1,"(667, 878)","(-293,-202)",-285,-338,,,,,,,,,7,6,55,0,,,,,,,,,,,,,,,,,,,,,,,,,,,,,,,,,,,,,,,,,,,,991.2034609224647,None,992.3027749154717,None,993.2360778590664,None,1.374074074074074,0.35000355541706085,993.2360778590664,None,,,,,,,,,,,,,,,,,179,001,2024_Mar_07_1539,SpeechDraft1Carolyn_lessNoise_PlusLocalization,2021.2.3,60.02260030919183,
,,,,,,,,,,,,,,,,,,,,,,,,,,,,,,,,,,,,,,,,,,,,,,,,,,,,,,,,,,,,,,,,,,,,,,,,,,,,,,,,,,space,10.441034907475114,993.6863051429391,None,,,,,,,,,,,,,179,001,2024_Mar_07_1539,SpeechDraft1Carolyn_lessNoise_PlusLocalization,2021.2.3,60.02260030919183,
,,,,,,,,midRight,13.0,3,ch1Sound_localizationTask.wav,13.0,"(1142, 878)","(182, -202)",190,-338,,,,,,,,,,,,,0,0,0,5,,,,,,,,,,,,,,,,,,,,,,,,,,,,,,,,,,,,,,,,1004.1694893930107,None,,,1007.1865025106817,None,1.6074074074074074,1.1216225363314152,1007.1865025106817,None,,,,,993.6863051429391,None,1005.1696703080088,None,1005.3530987733975,1005.3697474543005,,,,,,,179,001,2024_Mar_07_1539,SpeechDraft1Carolyn_lessNoise_PlusLocalization,2021.2.3,60.02260030919183,
,,,,,,,,center,0.0,6,ch1Sound_localizationTask.wav,0.0,"(952, 878)","(-8,-202)",0,-338,,,,,,,,,,,,,0,1,1,3,,,,,,,,,,,,,,,,,,,,,,,,,,,,,,,,,,,,,,,,1008.3213310800493,None,,,1011.352903068997,None,1.5031746031746032,0.6649829400703311,1011.352903068997,None,,,,,,,1009.3363245213404,None,1009.5197237217799,1009.5364278992638,,,,,,,179,001,2024_Mar_07_1539,SpeechDraft1Carolyn_lessNoise_PlusLocalization,2021.2.3,60.02260030919183,
,,,,,,,,midLeft,-13.0,2,ch1Sound_localizationTask.wav,-13.0,"(762, 878)","(-198,-202)",-190,-338,,,,,,,,,,,,,0,2,2,1,,,,,,,,,,,,,,,,,,,,,,,,,,,,,,,,,,,,,,,,1012.0197158753872,None,,,1015.0361654367298,None,1.3687830687830687,0.7499701529741287,1015.0361654367298,None,,,,,,,1013.0196906886995,None,1013.2030417975038,1013.2196540925652,,,,,,,179,001,2024_Mar_07_1539,SpeechDraft1Carolyn_lessNoise_PlusLocalization,2021.2.3,60.02260030919183,
,,,,,,,,farLeft,-19.1,5,ch1Sound_localizationTask.wav,-19.1,"(667, 878)","(-293,-202)",-285,-338,,,,,,,,,,,,,0,3,3,0,,,,,,,,,,,,,,,,,,,,,,,,,,,,,,,,,,,,,,,,1015.7874649669975,None,,,1018.819448966533,None,1.361904761904762,0.7671922817826271,1018.819448966533,None,,,,,,,1016.8029187852517,None,1016.9863792993128,1017.0030514942482,,,,,,,179,001,2024_Mar_07_1539,SpeechDraft1Carolyn_lessNoise_PlusLocalization,2021.2.3,60.02260030919183,
,,,,,,,,farLeft,-19.1,5,ch1Sound_localizationTask.wav,-19.1,"(667, 878)","(-293,-202)",-285,-338,,,,,,,,,,,,,0,4,4,0,,,,,,,,,,,,,,,,,,,,,,,,,,,,,,,,,,,,,,,,1019.6031273975968,None,,,1022.619463914074,None,1.3555555555555556,0.8819119101390243,1022.619463914074,None,,,,,,,1020.6030250955373,None,1020.7863903045654,1020.8031468298286,,,,,,,179,001,2024_Mar_07_1539,SpeechDraft1Carolyn_lessNoise_PlusLocalization,2021.2.3,60.02260030919183,
,,,,,,,,nearRight,6.5,0,ch1Sound_localizationTask.wav,6.5,"(1047, 878)","(87, -202)",95,-338,,,,,,,,,,,,,0,5,5,4,,,,,,,,,,,,,,,,,,,,,,,,,,,,,,,,,,,,,,,,1023.50300915353,None,,,1026.5194953810424,None,1.547089947089947,0.6826410656794906,1026.5194953810424,None,,,,,,,1024.503076871857,None,1024.6863312982023,1024.7029955713078,,,,,,,179,001,2024_Mar_07_1539,SpeechDraft1Carolyn_lessNoise_PlusLocalization,2021.2.3,60.02260030919183,
,,,,,,,,nearLeft,-6.5,1,ch1Sound_localizationTask.wav,-6.5,"(857, 878)","(-103,-202)",-95,-338,,,,,,,,,,,,,0,6,6,2,,,,,,,,,,,,,,,,,,,,,,,,,,,,,,,,,,,,,,,,1027.2034020088613,None,,,1030.2194325784221,None,1.4306878306878308,0.4833385245874524,1030.2194325784221,None,,,,,,,1028.203075666912,None,1028.386431844905,1028.403024774976,,,,,,,179,001,2024_Mar_07_1539,SpeechDraft1Carolyn_lessNoise_PlusLocalization,2021.2.3,60.02260030919183,
,,,,,,,,farRight,19.1,4,ch1Sound_localizationTask.wav,19.1,"(1237, 878)","(277,-202)",285,-338,,,,,,,,,,,,,1,0,7,6,,,,,,,,,,,,,,,,,,,,,,,,,,,,,,,,,,,,,,,,1030.7032302962616,None,,,1033.7194564063102,None,1.6513227513227513,0.8986408393830061,1033.7194564063102,None,,,,,,,1031.702989927493,None,1031.8863316150382,1031.9029947668314,,,,,,,179,001,2024_Mar_07_1539,SpeechDraft1Carolyn_lessNoise_PlusLocalization,2021.2.3,60.02260030919183,
,,,,,,,,farLeft,-19.1,5,ch1Sound_localizationTask.wav,-19.1,"(667, 878)","(-293,-202)",-285,-338,,,,,,,,,,,,,1,1,8,0,,,,,,,,,,,,,,,,,,,,,,,,,,,,,,,,,,,,,,,,1034.619623108767,None,,,1037.636210700497,None,1.3375661375661376,1.182982168160379,1037.636210700497,None,,,,,,,1035.6197309652343,None,1035.8031664611772,1035.819698004052,,,,,,,179,001,2024_Mar_07_1539,SpeechDraft1Carolyn_lessNoise_PlusLocalization,2021.2.3,60.02260030919183,
,,,,,,,,nearRight,6.5,0,ch1Sound_localizationTask.wav,6.5,"(1047, 878)","(87, -202)",95,-338,,,,,,,,,,,,,1,2,9,4,,,,,,,,,,,,,,,,,,,,,,,,,,,,,,,,,,,,,,,,1038.8211757969111,None,,,1041.8527721092105,None,1.5682539682539682,1.6162059232592583,1041.8527721092105,None,,,,,,,1039.8363810153678,None,1040.0196467107162,1040.036357646808,,,,,,,179,001,2024_Mar_07_1539,SpeechDraft1Carolyn_lessNoise_PlusLocalization,2021.2.3,60.02260030919183,
,,,,,,,,midLeft,-13.0,2,ch1Sound_localizationTask.wav,-13.0,"(762, 878)","(-198,-202)",-190,-338,,,,,,,,,,,,,1,3,10,1,,,,,,,,,,,,,,,,,,,,,,,,,,,,,,,,,,,,,,,,1043.4697018815205,None,,,1046.4861731706187,None,1.3915343915343916,0.7002268508076668,1046.4861731706187,None,,,,,,,1044.469756666571,None,1044.653211501427,1044.669868110679,,,,,,,179,001,2024_Mar_07_1539,SpeechDraft1Carolyn_lessNoise_PlusLocalization,2021.2.3,60.02260030919183,
,,,,,,,,nearLeft,-6.5,1,ch1Sound_localizationTask.wav,-6.5,"(857, 878)","(-103,-202)",-95,-338,,,,,,,,,,,,,1,4,11,2,,,,,,,,,,,,,,,,,,,,,,,,,,,,,,,,,,,,,,,,1047.2032198468223,None,,,1050.2195929456502,None,1.4396825396825397,1.0654405122622848,1050.2195929456502,None,,,,,,,1048.2030943082646,None,1048.3863330716267,1048.4031469067559,,,,,,,179,001,2024_Mar_07_1539,SpeechDraft1Carolyn_lessNoise_PlusLocalization,2021.2.3,60.02260030919183,
,,,,,,,,nearRight,6.5,0,ch1Sound_localizationTask.wav,6.5,"(1047, 878)","(87, -202)",95,-338,,,,,,,,,,,,,1,5,12,4,,,,,,,,,,,,,,,,,,,,,,,,,,,,,,,,,,,,,,,,1051.2866291040555,None,,,1054.3029580125585,None,1.5592592592592593,0.7480598855763674,1054.3029580125585,None,,,,,,,1052.2865581288934,None,1052.4697946682572,1052.486530655995,,,,,,,179,001,2024_Mar_07_1539,SpeechDraft1Carolyn_lessNoise_PlusLocalization,2021.2.3,60.02260030919183,
,,,,,,,,center,0.0,6,ch1Sound_localizationTask.wav,0.0,"(952, 878)","(-8,-202)",0,-338,,,,,,,,,,,,,1,6,13,3,,,,,,,,,,,,,,,,,,,,,,,,,,,,,,,,,,,,,,,,1055.0529902093112,None,,,1058.0694713890553,None,1.5132275132275133,1.7165280804038048,1058.0694713890553,None,,,,,,,1056.053144835867,None,1056.2365191150457,1056.253082527779,,,,,,,179,001,2024_Mar_07_1539,SpeechDraft1Carolyn_lessNoise_PlusLocalization,2021.2.3,60.02260030919183,
,,,,,,,,farRight,19.1,4,ch1Sound_localizationTask.wav,19.1,"(1237, 878)","(277,-202)",285,-338,,,,,,,,,,,,,2,0,14,6,,,,,,,,,,,,,,,,,,,,,,,,,,,,,,,,,,,,,,,,1059.7863497743383,None,,,1062.802856946364,None,1.6296296296296298,0.832150693051517,1062.802856946364,None,,,,,,,1060.7864283611998,None,1060.969800395891,1060.9864575285465,,,,,,,179,001,2024_Mar_07_1539,SpeechDraft1Carolyn_lessNoise_PlusLocalization,2021.2.3,60.02260030919183,
,,,,,,,,nearLeft,-6.5,1,ch1Sound_localizationTask.wav,-6.5,"(857, 878)","(-103,-202)",-95,-338,,,,,,,,,,,,,2,1,15,2,,,,,,,,,,,,,,,,,,,,,,,,,,,,,,,,,,,,,,,,1063.636454592459,None,,,1066.6529130032286,None,1.455026455026455,0.7651980454102159,1066.6529130032286,None,,,,,,,1064.6365960817784,None,1064.8197970977053,1064.8364667603746,,,,,,,179,001,2024_Mar_07_1539,SpeechDraft1Carolyn_lessNoise_PlusLocalization,2021.2.3,60.02260030919183,
,,,,,,,,nearRight,6.5,0,ch1Sound_localizationTask.wav,6.5,"(1047, 878)","(87, -202)",95,-338,,,,,,,,,,,,,2,2,16,4,,,,,,,,,,,,,,,,,,,,,,,,,,,,,,,,,,,,,,,,1067.4365723123774,None,,,1070.4528930997476,None,1.5365079365079364,0.6319714561104774,1070.4528930997476,None,,,,,,,1068.4365185275674,None,1068.619766516611,1068.6364144906402,,,,,,,179,001,2024_Mar_07_1539,SpeechDraft1Carolyn_lessNoise_PlusLocalization,2021.2.3,60.02260030919183,
,,,,,,,,midRight,13.0,3,ch1Sound_localizationTask.wav,13.0,"(1142, 878)","(182, -202)",190,-338,,,,,,,,,,,,,2,3,17,5,,,,,,,,,,,,,,,,,,,,,,,,,,,,,,,,,,,,,,,,1071.0863879676908,None,,,1074.102742110379,None,1.5825396825396827,0.6837490797042847,1074.102742110379,None,,,,,,,1072.0863985549659,None,1072.2698028516024,1072.2865005815402,,,,,,,179,001,2024_Mar_07_1539,SpeechDraft1Carolyn_lessNoise_PlusLocalization,2021.2.3,60.02260030919183,
,,,,,,,,farRight,19.1,4,ch1Sound_localizationTask.wav,19.1,"(1237, 878)","(277,-202)",285,-338,,,,,,,,,,,,,2,4,18,6,,,,,,,,,,,,,,,,,,,,,,,,,,,,,,,,,,,,,,,,1074.8030931400135,None,,,1077.819617071189,None,1.6582010582010582,0.6660765549167991,1077.819617071189,None,,,,,,,1075.8031104318798,None,1075.9864067612216,1076.0031777899712,,,,,,,179,001,2024_Mar_07_1539,SpeechDraft1Carolyn_lessNoise_PlusLocalization,2021.2.3,60.02260030919183,
,,,,,,,,nearRight,6.5,0,ch1Sound_localizationTask.wav,6.5,"(1047, 878)","(87, -202)",95,-338,,,,,,,,,,,,,2,5,19,4,,,,,,,,,,,,,,,,,,,,,,,,,,,,,,,,,,,,,,,,1078.5032288124785,None,,,1081.519536674954,None,1.561904761904762,0.8653844790533185,1081.519536674954,None,,,,,,,1079.503154359758,None,1079.6864932123572,1079.7031314112246,,,,,,,179,001,2024_Mar_07_1539,SpeechDraft1Carolyn_lessNoise_PlusLocalization,2021.2.3,60.02260030919183,
,,,,,,,,midLeft,-13.0,2,ch1Sound_localizationTask.wav,-13.0,"(762, 878)","(-198,-202)",-190,-338,,,,,,,,,,,,,2,6,20,1,,,,,,,,,,,,,,,,,,,,,,,,,,,,,,,,,,,,,,,,1082.3863833537325,None,,,1085.4029410611838,None,1.4185185185185185,0.4653852917253971,1085.4029410611838,None,,,,,,,1083.3864179234952,None,1083.569836772047,1083.5865297000855,,,,,,,179,001,2024_Mar_07_1539,SpeechDraft1Carolyn_lessNoise_PlusLocalization,2021.2.3,60.02260030919183,
,,,,,,,,center,0.0,6,ch1Sound_localizationTask.wav,0.0,"(952, 878)","(-8,-202)",0,-338,,,,,,,,,,,,,3,0,21,3,,,,,,,,,,,,,,,,,,,,,,,,,,,,,,,,,,,,,,,,1085.8696821816266,None,,,1088.886259002611,None,1.507936507936508,1.0329915583133698,1088.886259002611,None,,,,,,,1086.8697690209374,None,1087.0530558489263,1087.06987511646,,,,,,,179,001,2024_Mar_07_1539,SpeechDraft1Carolyn_lessNoise_PlusLocalization,2021.2.3,60.02260030919183,
,,,,,,,,center,0.0,6,ch1Sound_localizationTask.wav,0.0,"(952, 878)","(-8,-202)",0,-338,,,,,,,,,,,,,3,1,22,3,,,,,,,,,,,,,,,,,,,,,,,,,,,,,,,,,,,,,,,,1089.91977043543,None,,,1092.9361645523459,None,1.488888888888889,0.9995519304648042,1092.9361645523459,None,,,,,,,1090.9197612935677,None,1091.1031729653478,1091.119784001261,,,,,,,179,001,2024_Mar_07_1539,SpeechDraft1Carolyn_lessNoise_PlusLocalization,2021.2.3,60.02260030919183,
,,,,,,,,midRight,13.0,3,ch1Sound_localizationTask.wav,13.0,"(1142, 878)","(182, -202)",190,-338,,,,,,,,,,,,,3,2,23,5,,,,,,,,,,,,,,,,,,,,,,,,,,,,,,,,,,,,,,,,1093.9365312661976,None,,,1096.9528425447643,None,1.6037037037037036,0.8323172554373741,1096.9528425447643,None,,,,,,,1094.936422410421,None,1095.1197797376662,1095.136526609771,,,,,,,179,001,2024_Mar_07_1539,SpeechDraft1Carolyn_lessNoise_PlusLocalization,2021.2.3,60.02260030919183,
,,,,,,,,farRight,19.1,4,ch1Sound_localizationTask.wav,19.1,"(1237, 878)","(277,-202)",285,-338,,,,,,,,,,,,,3,3,24,6,,,,,,,,,,,,,,,,,,,,,,,,,,,,,,,,,,,,,,,,1097.7865583924577,None,,,1100.8028394663706,None,1.6603174603174602,0.3823218857869506,1100.8028394663706,None,,,,,,,1098.7865519216284,None,1098.9697413658723,1098.9864465910941,,,,,,,179,001,2024_Mar_07_1539,SpeechDraft1Carolyn_lessNoise_PlusLocalization,2021.2.3,60.02260030919183,
,,,,,,,,farLeft,-19.1,5,ch1Sound_localizationTask.wav,-19.1,"(667, 878)","(-293,-202)",-285,-338,,,,,,,,,,,,,3,4,25,0,,,,,,,,,,,,,,,,,,,,,,,,,,,,,,,,,,,,,,,,1101.186335847713,None,,,1104.2029646122828,None,1.3375661375661376,1.1163780195638537,1104.2029646122828,None,,,,,,,1102.186504919082,None,1102.3698956640437,1102.3864375939593,,,,,,,179,001,2024_Mar_07_1539,SpeechDraft1Carolyn_lessNoise_PlusLocalization,2021.2.3,60.02260030919183,
,,,,,,,,midRight,13.0,3,ch1Sound_localizationTask.wav,13.0,"(1142, 878)","(182, -202)",190,-338,,,,,,,,,,,,,3,5,26,5,,,,,,,,,,,,,,,,,,,,,,,,,,,,,,,,,,,,,,,,1105.319686966017,None,,,1108.336185572669,None,1.5936507936507938,0.9651184696704149,1108.336185572669,None,,,,,,,1106.319781173952,None,1106.5031774723902,1106.5198463695124,,,,,,,179,001,2024_Mar_07_1539,SpeechDraft1Carolyn_lessNoise_PlusLocalization,2021.2.3,60.02260030919183,
,,,,,,,,center,0.0,6,ch1Sound_localizationTask.wav,0.0,"(952, 878)","(-8,-202)",0,-338,,,,,,,,,,,,,3,6,27,3,,,,,,,,,,,,,,,,,,,,,,,,,,,,,,,,,,,,,,,,1109.3033501114696,None,,,1112.3195845680311,None,1.493121693121693,1.1485733818262815,1112.3195845680311,None,,,,,,,1110.3031856883317,None,1110.4865462025627,1110.5031423456967,,,,,,,179,001,2024_Mar_07_1539,SpeechDraft1Carolyn_lessNoise_PlusLocalization,2021.2.3,60.02260030919183,
,,,,,,,,center,0.0,6,ch1Sound_localizationTask.wav,0.0,"(952, 878)","(-8,-202)",0,-338,,,,,,,,,,,,,4,0,28,3,,,,,,,,,,,,,,,,,,,,,,,,,,,,,,,,,,,,,,,,1113.469877500087,None,,,1116.4861701102927,None,1.493121693121693,0.38186440523713827,1116.4861701102927,None,,,,,,,1114.470096689649,None,1114.6531923897564,1114.669880031608,,,,,,,179,001,2024_Mar_07_1539,SpeechDraft1Carolyn_lessNoise_PlusLocalization,2021.2.3,60.02260030919183,
,,,,,,,,farRight,19.1,4,ch1Sound_localizationTask.wav,19.1,"(1237, 878)","(277,-202)",285,-338,,,,,,,,,,,,,4,1,29,6,,,,,,,,,,,,,,,,,,,,,,,,,,,,,,,,,,,,,,,,1116.8697135383263,None,,,1119.8862228710204,None,1.6375661375661377,1.0011564642190933,1119.8862228710204,None,,,,,,,1117.8699017893523,None,1118.0532067697495,1118.069864361547,,,,,,,179,001,2024_Mar_07_1539,SpeechDraft1Carolyn_lessNoise_PlusLocalization,2021.2.3,60.02260030919183,
,,,,,,,,midRight,13.0,3,ch1Sound_localizationTask.wav,13.0,"(1142, 878)","(182, -202)",190,-338,,,,,,,,,,,,,4,2,30,5,,,,,,,,,,,,,,,,,,,,,,,,,,,,,,,,,,,,,,,,1120.9031399907544,None,,,1123.9195092627779,None,1.5915343915343916,0.7153214830905199,1123.9195092627779,None,,,,,,,1121.9032233580947,None,1122.0865624174476,1122.103148592636,,,,,,,179,001,2024_Mar_07_1539,SpeechDraft1Carolyn_lessNoise_PlusLocalization,2021.2.3,60.02260030919183,
,,,,,,,,nearRight,6.5,0,ch1Sound_localizationTask.wav,6.5,"(1047, 878)","(87, -202)",95,-338,,,,,,,,,,,,,4,3,31,4,,,,,,,,,,,,,,,,,,,,,,,,,,,,,,,,,,,,,,,,1124.63662877772,None,,,1127.6529819052666,None,1.546031746031746,1.065144912339747,1127.6529819052666,None,,,,,,,1125.6365367686376,None,1125.8198661962524,1125.8365979408845,,,,,,,179,001,2024_Mar_07_1539,SpeechDraft1Carolyn_lessNoise_PlusLocalization,2021.2.3,60.02260030919183,
,,,,,,,,nearLeft,-6.5,1,ch1Sound_localizationTask.wav,-6.5,"(857, 878)","(-103,-202)",-95,-338,,,,,,,,,,,,,4,4,32,2,,,,,,,,,,,,,,,,,,,,,,,,,,,,,,,,,,,,,,,,1128.7201476646587,None,,,1131.7362549277022,None,1.435978835978836,0.9345612982288003,1131.7362549277022,None,,,,,,,1129.7198539907113,None,1129.90314822644,1129.9198756674305,,,,,,,179,001,2024_Mar_07_1539,SpeechDraft1Carolyn_lessNoise_PlusLocalization,2021.2.3,60.02260030919183,
,,,,,,,,center,0.0,6,ch1Sound_localizationTask.wav,0.0,"(952, 878)","(-8,-202)",0,-338,,,,,,,,,,,,,4,5,33,3,,,,,,,,,,,,,,,,,,,,,,,,,,,,,,,,,,,,,,,,1132.6864218711853,None,,,1135.7028576759622,None,1.5015873015873016,0.7827759236097336,1135.7028576759622,None,,,,,,,1133.68650946673,None,1133.8698375644162,1133.886839854531,,,,,,,179,001,2024_Mar_07_1539,SpeechDraft1Carolyn_lessNoise_PlusLocalization,2021.2.3,60.02260030919183,
,,,,,,,,nearRight,6.5,0,ch1Sound_localizationTask.wav,6.5,"(1047, 878)","(87, -202)",95,-338,,,,,,,,,,,,,4,6,34,4,,,,,,,,,,,,,,,,,,,,,,,,,,,,,,,,,,,,,,,,1136.487553534098,None,,,1139.5029356824234,None,1.5544973544973546,0.6835332801565528,1139.5029356824234,None,,,,,,,1137.4866272229701,None,1137.6699460968375,1137.6866094740108,,,,,,,179,001,2024_Mar_07_1539,SpeechDraft1Carolyn_lessNoise_PlusLocalization,2021.2.3,60.02260030919183,
,,,,,,,,nearRight,6.5,0,ch1Sound_localizationTask.wav,6.5,"(1047, 878)","(87, -202)",95,-338,,,,,,,,,,,,,5,0,35,4,,,,,,,,,,,,,,,,,,,,,,,,,,,,,,,,,,,,,,,,1140.203168477863,None,,,1143.2195392185822,None,1.5386243386243388,0.38153837993741035,1143.2195392185822,None,,,,,,,1141.2031698999926,None,1141.3865573080257,1141.4031065832824,,,,,,,179,001,2024_Mar_07_1539,SpeechDraft1Carolyn_lessNoise_PlusLocalization,2021.2.3,60.02260030919183,
,,,,,,,,midRight,13.0,3,ch1Sound_localizationTask.wav,13.0,"(1142, 878)","(182, -202)",190,-338,,,,,,,,,,,,,5,1,36,5,,,,,,,,,,,,,,,,,,,,,,,,,,,,,,,,,,,,,,,,1143.6029922403395,None,,,1146.619740598835,None,1.5666666666666667,0.35045865923166275,1146.619740598835,None,,,,,,,1144.6035539135337,None,1144.7864731289446,1144.8031891612336,,,,,,,179,001,2024_Mar_07_1539,SpeechDraft1Carolyn_lessNoise_PlusLocalization,2021.2.3,60.02260030919183,
,,,,,,,,midLeft,-13.0,2,ch1Sound_localizationTask.wav,-13.0,"(762, 878)","(-198,-202)",-190,-338,,,,,,,,,,,,,5,2,37,1,,,,,,,,,,,,,,,,,,,,,,,,,,,,,,,,,,,,,,,,1146.9866271493956,None,,,1150.0031277341768,None,1.3947089947089948,0.9657797487452626,1150.0031277341768,None,,,,,,,1147.9866039399058,None,1148.1698457114398,1148.1865549059585,,,,,,,179,001,2024_Mar_07_1539,SpeechDraft1Carolyn_lessNoise_PlusLocalization,2021.2.3,60.02260030919183,
,,,,,,,,farRight,19.1,4,ch1Sound_localizationTask.wav,19.1,"(1237, 878)","(277,-202)",285,-338,,,,,,,,,,,,,5,3,38,6,,,,,,,,,,,,,,,,,,,,,,,,,,,,,,,,,,,,,,,,1150.9863924318925,None,,,1154.0029752915725,None,1.6497354497354497,0.8162218369543552,1154.0029752915725,None,,,,,,,1151.9866878893226,None,1152.1699177948758,1152.1866477336735,,,,,,,179,001,2024_Mar_07_1539,SpeechDraft1Carolyn_lessNoise_PlusLocalization,2021.2.3,60.02260030919183,
,,,,,,,,midLeft,-13.0,2,ch1Sound_localizationTask.wav,-13.0,"(762, 878)","(-198,-202)",-190,-338,,,,,,,,,,,,,5,4,39,1,,,,,,,,,,,,,,,,,,,,,,,,,,,,,,,,,,,,,,,,1154.8366922782734,None,,,1157.8528777193278,None,1.3904761904761904,0.9650634285062551,1157.8528777193278,None,,,,,,,1155.8365516774356,None,1156.0199992423877,1156.0368237262592,,,,,,,179,001,2024_Mar_07_1539,SpeechDraft1Carolyn_lessNoise_PlusLocalization,2021.2.3,60.02260030919183,
,,,,,,,,midLeft,-13.0,2,ch1Sound_localizationTask.wav,-13.0,"(762, 878)","(-198,-202)",-190,-338,,,,,,,,,,,,,5,5,40,1,,,,,,,,,,,,,,,,,,,,,,,,,,,,,,,,,,,,,,,,1158.8202456096187,None,,,1161.8364519318566,None,1.3682539682539683,0.698981243185699,1161.8364519318566,None,,,,,,,1159.8198984870687,None,1160.0033093458042,1160.0198229020461,,,,,,,179,001,2024_Mar_07_1539,SpeechDraft1Carolyn_lessNoise_PlusLocalization,2021.2.3,60.02260030919183,
,,,,,,,,farLeft,-19.1,5,ch1Sound_localizationTask.wav,-19.1,"(667, 878)","(-293,-202)",-285,-338,,,,,,,,,,,,,5,6,41,0,,,,,,,,,,,,,,,,,,,,,,,,,,,,,,,,,,,,,,,,1162.537862047553,None,,,1165.5698315156624,None,1.3391534391534392,1.1156598962843418,1165.5698315156624,None,,,,,,,1163.5535985762253,None,1163.7366257719696,1163.7532064579427,,,,,,,179,001,2024_Mar_07_1539,SpeechDraft1Carolyn_lessNoise_PlusLocalization,2021.2.3,60.02260030919183,
,,,,,,,,nearLeft,-6.5,1,ch1Sound_localizationTask.wav,-6.5,"(857, 878)","(-103,-202)",-95,-338,,,,,,,,,,,,,6,0,42,2,,,,,,,,,,,,,,,,,,,,,,,,,,,,,,,,,,,,,,,,1166.6865520766005,None,,,1169.7029437785968,None,1.425925925925926,0.7988585531711578,1169.7029437785968,None,,,,,,,1167.686613871716,None,1167.8699980154634,1167.8866020878777,,,,,,,179,001,2024_Mar_07_1539,SpeechDraft1Carolyn_lessNoise_PlusLocalization,2021.2.3,60.02260030919183,
,,,,,,,,midLeft,-13.0,2,ch1Sound_localizationTask.wav,-13.0,"(762, 878)","(-198,-202)",-190,-338,,,,,,,,,,,,,6,1,43,1,,,,,,,,,,,,,,,,,,,,,,,,,,,,,,,,,,,,,,,,1170.503192706965,None,,,1173.5198521725833,None,1.3994708994708995,0.9654778372496367,1173.5198521725833,None,,,,,,,1171.5033286195248,None,1171.686638877727,1171.7033045804128,,,,,,,179,001,2024_Mar_07_1539,SpeechDraft1Carolyn_lessNoise_PlusLocalization,2021.2.3,60.02260030919183,
,,,,,,,,farRight,19.1,4,ch1Sound_localizationTask.wav,19.1,"(1237, 878)","(277,-202)",285,-338,,,,,,,,,,,,,6,2,44,6,,,,,,,,,,,,,,,,,,,,,,,,,,,,,,,,,,,,,,,,1174.48654770758,None,,,1177.5030280286446,None,1.651851851851852,1.2020342806354165,1177.5030280286446,None,,,,,,,1175.4867001688108,None,1175.6699398234487,1175.686543630436,,,,,,,179,001,2024_Mar_07_1539,SpeechDraft1Carolyn_lessNoise_PlusLocalization,2021.2.3,60.02260030919183,
,,,,,,,,nearLeft,-6.5,1,ch1Sound_localizationTask.wav,-6.5,"(857, 878)","(-103,-202)",-95,-338,,,,,,,,,,,,,6,3,45,2,,,,,,,,,,,,,,,,,,,,,,,,,,,,,,,,,,,,,,,,1178.7198788849637,None,,,1181.736649482511,None,1.4333333333333333,0.7174669140949845,1181.736649482511,None,,,,,,,1179.719970729202,None,1179.903301554732,1179.9200397217646,,,,,,,179,001,2024_Mar_07_1539,SpeechDraft1Carolyn_lessNoise_PlusLocalization,2021.2.3,60.02260030919183,
,,,,,,,,midRight,13.0,3,ch1Sound_localizationTask.wav,13.0,"(1142, 878)","(182, -202)",190,-338,,,,,,,,,,,,,6,4,46,5,,,,,,,,,,,,,,,,,,,,,,,,,,,,,,,,,,,,,,,,1182.4697230812162,None,,,1185.4863610034809,None,1.6058201058201058,0.8327498901635408,1185.4863610034809,None,,,,,,,1183.4699036879465,None,1183.6534307133406,1183.6699138097465,,,,,,,179,001,2024_Mar_07_1539,SpeechDraft1Carolyn_lessNoise_PlusLocalization,2021.2.3,60.02260030919183,
,,,,,,,,nearLeft,-6.5,1,ch1Sound_localizationTask.wav,-6.5,"(857, 878)","(-103,-202)",-95,-338,,,,,,,,,,,,,6,5,47,2,,,,,,,,,,,,,,,,,,,,,,,,,,,,,,,,,,,,,,,,1186.3199332905933,None,,,1189.3363400408998,None,1.4566137566137567,1.0004179449751973,1189.3363400408998,None,,,,,,,1187.319946409203,None,1187.5032965652645,1187.5200021872297,,,,,,,179,001,2024_Mar_07_1539,SpeechDraft1Carolyn_lessNoise_PlusLocalization,2021.2.3,60.02260030919183,
,,,,,,,,farLeft,-19.1,5,ch1Sound_localizationTask.wav,-19.1,"(667, 878)","(-293,-202)",-285,-338,,,,,,,,,,,,,6,6,48,0,,,,,,,,,,,,,,,,,,,,,,,,,,,,,,,,,,,,,,,,1190.336661647074,None,,,1193.353006966412,None,1.331216931216931,0.6654822854325175,1193.353006966412,None,,,,,,,1191.3366478774697,None,1191.5201600585133,1191.5370093788952,,,,,,,179,001,2024_Mar_07_1539,SpeechDraft1Carolyn_lessNoise_PlusLocalization,2021.2.3,60.02260030919183,
,,,,,,,,midRight,13.0,3,ch1Sound_localizationTask.wav,13.0,"(1142, 878)","(182, -202)",190,-338,,,,,,,,,,,,,7,0,49,5,,,,,,,,,,,,,,,,,,,,,,,,,,,,,,,,,,,,,,,,1194.0207509584725,None,,,1197.0364836957306,None,1.6031746031746033,0.483249188400805,1197.0364836957306,None,,,,,,,1195.020032087341,None,1195.2032466130331,1195.2199390241876,,,,,,,179,001,2024_Mar_07_1539,SpeechDraft1Carolyn_lessNoise_PlusLocalization,2021.2.3,60.02260030919183,
,,,,,,,,farLeft,-19.1,5,ch1Sound_localizationTask.wav,-19.1,"(667, 878)","(-293,-202)",-285,-338,,,,,,,,,,,,,7,1,50,0,,,,,,,,,,,,,,,,,,,,,,,,,,,,,,,,,,,,,,,,1197.536665122956,None,,,1200.553085845895,None,1.3507936507936509,1.0158105846494436,1200.553085845895,None,,,,,,,1198.5366620495915,None,1198.7199220154434,1198.736589036882,,,,,,,179,001,2024_Mar_07_1539,SpeechDraft1Carolyn_lessNoise_PlusLocalization,2021.2.3,60.02260030919183,
,,,,,,,,farLeft,-19.1,5,ch1Sound_localizationTask.wav,-19.1,"(667, 878)","(-293,-202)",-285,-338,,,,,,,,,,,,,7,2,51,0,,,,,,,,,,,,,,,,,,,,,,,,,,,,,,,,,,,,,,,,1201.5700433850288,None,,,1204.5864342814311,None,1.3433862433862434,0.7150567201897502,1204.5864342814311,None,,,,,,,1202.5699251461774,None,1202.753310823813,1202.769906862639,,,,,,,179,001,2024_Mar_07_1539,SpeechDraft1Carolyn_lessNoise_PlusLocalization,2021.2.3,60.02260030919183,
,,,,,,,,midLeft,-13.0,2,ch1Sound_localizationTask.wav,-13.0,"(762, 878)","(-198,-202)",-190,-338,,,,,,,,,,,,,7,3,52,1,,,,,,,,,,,,,,,,,,,,,,,,,,,,,,,,,,,,,,,,1205.303594856523,None,,,1208.319717342034,None,1.3883597883597885,1.148524172604084,1208.319717342034,None,,,,,,,1206.3034132728353,None,1206.486619940959,1206.5032309396192,,,,,,,179,001,2024_Mar_07_1539,SpeechDraft1Carolyn_lessNoise_PlusLocalization,2021.2.3,60.02260030919183,
,,,,,,,,nearLeft,-6.5,1,ch1Sound_localizationTask.wav,-6.5,"(857, 878)","(-103,-202)",-95,-338,,,,,,,,,,,,,7,4,53,2,,,,,,,,,,,,,,,,,,,,,,,,,,,,,,,,,,,,,,,,1209.4699975568801,None,,,1212.4863654812798,None,1.4238095238095239,0.39957618340849876,1212.4863654812798,None,,,,,,,1210.4699976872653,None,1210.6533042993397,1210.6699571842328,,,,,,,179,001,2024_Mar_07_1539,SpeechDraft1Carolyn_lessNoise_PlusLocalization,2021.2.3,60.02260030919183,
,,,,,,,,farRight,19.1,4,ch1Sound_localizationTask.wav,19.1,"(1237, 878)","(277,-202)",285,-338,,,,,,,,,,,,,7,5,54,6,,,,,,,,,,,,,,,,,,,,,,,,,,,,,,,,,,,,,,,,1212.8871463323012,None,,,1215.9029608396813,None,1.6470899470899472,0.8995378464460373,1215.9029608396813,None,,,,,,,1213.8866262044758,None,1214.0700518544763,1214.08655303251,,,,,,,179,001,2024_Mar_07_1539,SpeechDraft1Carolyn_lessNoise_PlusLocalization,2021.2.3,60.02260030919183,
,,,,,,,,center,0.0,6,ch1Sound_localizationTask.wav,0.0,"(952, 878)","(-8,-202)",0,-338,,,,,,,,,,,,,7,6,55,3,,,,,,,,,,,,,,,,,,,,,,,,,,,,,,,,,,,,,,,,1216.8199365679175,None,,,1219.8365852795541,None,1.5015873015873016,1.882847934961319,1219.8365852795541,None,,,,,,,1217.820032195188,None,1218.0034833103418,1218.0200570765883,,,,,,,179,001,2024_Mar_07_1539,SpeechDraft1Carolyn_lessNoise_PlusLocalization,2021.2.3,60.02260030919183,
,,,,,,,,,,,,,,,,,,,,,,,,,,,,,,,,,,,,,,,,,,,,,,,,,,,,,,,,,,,,,,,,,,,,,,,,,,,,,,,,,,,,,,,,,,,,1221.7205563206226,None,c,83.44803853146732,1222.7033152645454,None,179,001,2024_Mar_07_1539,SpeechDraft1Carolyn_lessNoise_PlusLocalization,2021.2.3,60.02260030919183,
