Audio_Only_Files,Video_Files,Original_Word_List,noiseLevelCode,conditionCodes,noiseLevelFile1,noiseLevelFile2,InstrTextVar,practiceTrials.thisRepN,practiceTrials.thisTrialN,practiceTrials.thisN,practiceTrials.thisIndex,trials.thisRepN,trials.thisTrialN,trials.thisN,trials.thisIndex,letsGoAlready.keys,letsGoAlready.rt,letsGoAlready.started,letsGoAlready.stopped,text_2.started,text_2.stopped,text_3.started,text_3.stopped,key_resp_2.keys,key_resp_2.rt,key_resp_2.started,key_resp_2.stopped,text_5.started,text_5.stopped,fixCross.started,fixCross.stopped,fixCross2.started,fixCross2.stopped,answerPrompt.started,answerPrompt.stopped,getAnswer.text,getAnswer.started,getAnswer.stopped,goToNext.keys,goToNext.rt,goToNext.started,goToNext.stopped,stretchBreakTxrt.started,stretchBreakTxrt.stopped,key_resp_3.keys,key_resp_3.rt,key_resp_3.started,key_resp_3.stopped,participant,session,date,expName,psychopyVersion,frameRate,
,,,,,,,,,,,,,,,,space,137.8280754740117,10.703385434986558,None,,,,,,,,,,,,,,,,,,,,,,,,,,,,,,17,001,2023_Feb_14_1317,SpeechDraft1Carolyn_lessNoise,2021.2.3,60.07056427530298,
,,,,,,,,,,,,,,,,,,,,10.703385434986558,None,148.55355538002914,None,space,39.48338148603216,148.72005898097996,None,,,,,,,,,,,,,,,,,,,,,,17,001,2023_Feb_14_1317,SpeechDraft1Carolyn_lessNoise,2021.2.3,60.07056427530298,
ash.wav,ash.mpg,ash,1,A,Pink_Noise_1_1.wav,Pink_Noise_1_2.wav,"This is an example of an

AUDIO trial",0,0,0,0,,,,,,,,,,,,,,,,,188.27008816500893,None,189.25336194701958,None,192.33704219100764,None,193.71989344799658,None,ash,193.71989344799658,None,return,1.2801101970253512,193.80343479197472,None,,,,,,,17,001,2023_Feb_14_1317,SpeechDraft1Carolyn_lessNoise,2021.2.3,60.07056427530298,
ash.wav,ash.mpg,ash,1,AV,Pink_Noise_1_1.wav,Pink_Noise_1_2.wav,"This is an example of an

AUDIO + VIDEO  trial",0,1,1,1,,,,,,,,,,,,,,,,,195.1196786770015,None,196.11988882097648,None,197.60316790401703,None,198.98654439899838,None,ash,198.98654439899838,None,return,1.9256325659807771,199.069832771027,None,,,,,,,17,001,2023_Feb_14_1317,SpeechDraft1Carolyn_lessNoise,2021.2.3,60.07056427530298,
,,,,,,,,,,,,,,,,,,,,,,,,,,,,,,,,,,,,,,,,,,,201.03760941297514,None,space,26.72730768600013,201.22011826501694,None,17,001,2023_Feb_14_1317,SpeechDraft1Carolyn_lessNoise,2021.2.3,60.07056427530298,
gap.wav,gap.mpg,gap,2,AV,Pink_Noise_2_1.wav,Pink_Noise_2_2.wav,,,,,,0,0,0,63,,,,,,,,,,,,,,,228.00321865000296,None,229.48647450999124,None,230.87017033802113,None,gap,230.87017033802113,None,return,1.9460411590407602,230.95340091898106,None,,,,,,,17,001,2023_Feb_14_1317,SpeechDraft1Carolyn_lessNoise,2021.2.3,60.07056427530298,
frost.wav,frost.mpg,frost,5,A,Pink_Noise_5_1.wav,Pink_Noise_5_2.wav,,,,,,0,1,1,53,,,,,,,,,,,,,,,232.92014136502985,None,234.41974721098086,None,235.78680290299235,None,app,235.78680290299235,None,return,13.829328112013172,235.87014751601964,None,,,,,,,17,001,2023_Feb_14_1317,SpeechDraft1Carolyn_lessNoise,2021.2.3,60.07056427530298,
cord.wav,cord.mpg,cord,2,AV,Pink_Noise_2_1.wav,Pink_Noise_2_2.wav,,,,,,0,2,2,104,,,,,,,,,,,,,,,249.71998645400163,None,251.20413805398857,None,252.5867885510088,None,"cord
",252.5867885510088,None,return,1.1014619839843363,252.66999039897928,None,,,,,,,17,001,2023_Feb_14_1317,SpeechDraft1Carolyn_lessNoise,2021.2.3,60.07056427530298,
cook.wav,cook.mpg,cook,3,A,Pink_Noise_3_1.wav,Pink_Noise_3_2.wav,,,,,,0,3,3,1,,,,,,,,,,,,,,,253.80356024298817,None,255.28684488299768,None,256.67025374399964,None,corse,256.67025374399964,None,return,5.2101491509820335,256.7532888490241,None,,,,,,,17,001,2023_Feb_14_1317,SpeechDraft1Carolyn_lessNoise,2021.2.3,60.07056427530298,
cow.wav,cow.mpg,cow,2,AV,Pink_Noise_2_1.wav,Pink_Noise_2_2.wav,,,,,,0,4,4,110,,,,,,,,,,,,,,,261.9868701029918,None,263.46983292599907,None,264.85341726400657,None,how,264.85341726400657,None,return,3.0584572589723393,264.93698099802714,None,,,,,,,17,001,2023_Feb_14_1317,SpeechDraft1Carolyn_lessNoise,2021.2.3,60.07056427530298,
chop.wav,chop.mpg,chop,3,A,Pink_Noise_3_1.wav,Pink_Noise_3_2.wav,,,,,,0,5,5,41,,,,,,,,,,,,,,,268.0200705860043,None,269.50451138900826,None,270.8869285819819,None,chop,270.8869285819819,None,return,0.8892663769656792,270.9702574069961,None,,,,,,,17,001,2023_Feb_14_1317,SpeechDraft1Carolyn_lessNoise,2021.2.3,60.07056427530298,
drill.wav,drill.mpg,drill,2,A,Pink_Noise_2_1.wav,Pink_Noise_2_2.wav,,,,,,0,6,6,55,,,,,,,,,,,,,,,271.8868337949971,None,273.3699115010095,None,274.75355296902126,None,drill,274.75355296902126,None,return,1.0705727020394988,274.8368776810239,None,,,,,,,17,001,2023_Feb_14_1317,SpeechDraft1Carolyn_lessNoise,2021.2.3,60.07056427530298,
ban.wav,ban.mpg,ban,2,AV,Pink_Noise_2_1.wav,Pink_Noise_2_2.wav,,,,,,0,7,7,73,,,,,,,,,,,,,,,275.93694803101243,None,277.42122279299656,None,278.8033976259758,None,bail,278.8033976259758,None,return,2.7646482919808477,278.8868079140084,None,,,,,,,17,001,2023_Feb_14_1317,SpeechDraft1Carolyn_lessNoise,2021.2.3,60.07056427530298,
quit.wav,quit.mpg,quit,4,A,Pink_Noise_4_1.wav,Pink_Noise_4_2.wav,,,,,,0,8,8,2,,,,,,,,,,,,,,,281.67017600499094,None,283.1698256669915,None,284.53671148902504,None,equip,284.53671148902504,None,return,9.799408607999794,284.6201524310163,None,,,,,,,17,001,2023_Feb_14_1317,SpeechDraft1Carolyn_lessNoise,2021.2.3,60.07056427530298,
thorn.wav,thorn.mpg,thorn,3,AV,Pink_Noise_3_1.wav,Pink_Noise_3_2.wav,,,,,,0,9,9,81,,,,,,,,,,,,,,,294.4532901360071,None,295.95338585297577,None,297.3201990679954,None,thorn,297.3201990679954,None,return,0.8401303959544748,297.40341888798866,None,,,,,,,17,001,2023_Feb_14_1317,SpeechDraft1Carolyn_lessNoise,2021.2.3,60.07056427530298,
weep.wav,weep.mpg,weep,4,AV,Pink_Noise_4_1.wav,Pink_Noise_4_2.wav,,,,,,0,10,10,112,,,,,,,,,,,,,,,298.27002279798035,None,299.7539890159969,None,301.1367171499878,None,weep,301.1367171499878,None,return,0.8550859200186096,301.22041709400946,None,,,,,,,17,001,2023_Feb_14_1317,SpeechDraft1Carolyn_lessNoise,2021.2.3,60.07056427530298,
druid.wav,druid.mpg,druid,1,AV,Pink_Noise_1_1.wav,Pink_Noise_1_2.wav,,,,,,0,11,11,87,,,,,,,,,,,,,,,302.1037255420233,None,303.603300813993,None,304.9705514970119,None,dewy,304.9705514970119,None,return,14.581825727014802,305.05373902700376,None,,,,,,,17,001,2023_Feb_14_1317,SpeechDraft1Carolyn_lessNoise,2021.2.3,60.07056427530298,
fist.wav,fist.mpg,fist,1,AV,Pink_Noise_1_1.wav,Pink_Noise_1_2.wav,,,,,,0,12,12,86,,,,,,,,,,,,,,,319.6535788300098,None,321.1370003350312,None,322.52010299800895,None,fist,322.52010299800895,None,return,0.9920112649560906,322.60343502502656,None,,,,,,,17,001,2023_Feb_14_1317,SpeechDraft1Carolyn_lessNoise,2021.2.3,60.07056427530298,
blot.wav,blot.mpg,blot,2,A,Pink_Noise_2_1.wav,Pink_Noise_2_2.wav,,,,,,0,13,13,26,,,,,,,,,,,,,,,323.62023706699256,None,325.10385229997337,None,326.4868772550253,None,blot,326.4868772550253,None,return,0.7134347799583338,326.5700795809971,None,,,,,,,17,001,2023_Feb_14_1317,SpeechDraft1Carolyn_lessNoise,2021.2.3,60.07056427530298,
bad.wav,bad.mpg,bad,2,A,Pink_Noise_2_1.wav,Pink_Noise_2_2.wav,,,,,,0,14,14,54,,,,,,,,,,,,,,,327.3035182969761,None,328.8031410839758,None,330.18690427200636,None,band,330.18690427200636,None,return,0.9333627669839188,330.27018342301017,None,,,,,,,17,001,2023_Feb_14_1317,SpeechDraft1Carolyn_lessNoise,2021.2.3,60.07056427530298,
mold.wav,mold.mpg,mold,2,AV,Pink_Noise_2_1.wav,Pink_Noise_2_2.wav,,,,,,0,15,15,88,,,,,,,,,,,,,,,331.2202004559804,None,332.7043914980022,None,334.08687022700906,None,bold,334.08687022700906,None,return,4.593334557022899,334.1701056089951,None,,,,,,,17,001,2023_Feb_14_1317,SpeechDraft1Carolyn_lessNoise,2021.2.3,60.07056427530298,
spray.wav,spray.mpg,spray,5,A,Pink_Noise_5_1.wav,Pink_Noise_5_2.wav,,,,,,0,16,16,17,,,,,,,,,,,,,,,338.7869502810063,None,340.27125287998933,None,341.65361642697826,None,stuck,341.65361642697826,None,return,1.4907106989994645,341.73684210702777,None,,,,,,,17,001,2023_Feb_14_1317,SpeechDraft1Carolyn_lessNoise,2021.2.3,60.07056427530298,
crop.wav,crop.mpg,crop,6,AV,Pink_Noise_6_1.wav,Pink_Noise_6_2.wav,,,,,,0,17,17,80,,,,,,,,,,,,,,,343.25373780401424,None,344.7382314099814,None,346.12009231199045,None,crap,346.12009231199045,None,return,3.2399399490095675,346.2036087840097,None,,,,,,,17,001,2023_Feb_14_1317,SpeechDraft1Carolyn_lessNoise,2021.2.3,60.07056427530298,
lost.wav,lost.mpg,lost,1,AV,Pink_Noise_1_1.wav,Pink_Noise_1_2.wav,,,,,,0,18,18,74,,,,,,,,,,,,,,,349.47054630401544,None,350.95351145399036,None,352.3370496890275,None,"lost
",352.3370496890275,None,return,1.1513726800330915,352.420085337013,None,,,,,,,17,001,2023_Feb_14_1317,SpeechDraft1Carolyn_lessNoise,2021.2.3,60.07056427530298,
fried.wav,fried.mpg,fried,3,AV,Pink_Noise_3_1.wav,Pink_Noise_3_2.wav,,,,,,0,19,19,97,,,,,,,,,,,,,,,353.60337412700756,None,355.0884369260166,None,356.4701665819739,None,fry,356.4701665819739,None,return,14.945885593013372,356.5535832340247,None,,,,,,,17,001,2023_Feb_14_1317,SpeechDraft1Carolyn_lessNoise,2021.2.3,60.07056427530298,
brief.wav,brief.mpg,brief,6,A,Pink_Noise_6_1.wav,Pink_Noise_6_2.wav,,,,,,0,20,20,40,,,,,,,,,,,,,,,371.52030252700206,None,373.0203562360257,None,374.4040033239871,None,bland,374.4040033239871,None,return,3.1325220169965178,374.48701833502855,None,,,,,,,17,001,2023_Feb_14_1317,SpeechDraft1Carolyn_lessNoise,2021.2.3,60.07056427530298,
funk.wav,funk.mpg,funk,1,A,Pink_Noise_1_1.wav,Pink_Noise_1_2.wav,,,,,,0,21,21,21,,,,,,,,,,,,,,,377.6368165179738,None,379.1367831680109,None,380.50365257501835,None,funk,380.50365257501835,None,return,0.7923545899684541,380.587073527975,None,,,,,,,17,001,2023_Feb_14_1317,SpeechDraft1Carolyn_lessNoise,2021.2.3,60.07056427530298,
grab.wav,grab.mpg,grab,3,A,Pink_Noise_3_1.wav,Pink_Noise_3_2.wav,,,,,,0,22,22,14,,,,,,,,,,,,,,,381.40354882902466,None,382.8884030340123,None,384.2701074940269,None,grab,384.2701074940269,None,return,0.8737897039973177,384.3537216759869,None,,,,,,,17,001,2023_Feb_14_1317,SpeechDraft1Carolyn_lessNoise,2021.2.3,60.07056427530298,
blind.wav,blind.mpg,blind,1,AV,Pink_Noise_1_1.wav,Pink_Noise_1_2.wav,,,,,,0,23,23,109,,,,,,,,,,,,,,,385.25383197900373,None,386.7533854499925,None,388.13692953798454,None,blind,388.13692953798454,None,return,0.9270477069658227,388.220388227026,None,,,,,,,17,001,2023_Feb_14_1317,SpeechDraft1Carolyn_lessNoise,2021.2.3,60.07056427530298,
unit.wav,unit.mpg,unit,3,A,Pink_Noise_3_1.wav,Pink_Noise_3_2.wav,,,,,,0,24,24,50,,,,,,,,,,,,,,,389.1701318679843,None,390.65476137102814,None,392.03686999797355,None,"paint
",392.03686999797355,None,return,2.0671073620324023,392.1203517669928,None,,,,,,,17,001,2023_Feb_14_1317,SpeechDraft1Carolyn_lessNoise,2021.2.3,60.07056427530298,
flag.wav,flag.mpg,flag,6,AV,Pink_Noise_6_1.wav,Pink_Noise_6_2.wav,,,,,,0,25,25,107,,,,,,,,,,,,,,,394.2202084119781,None,395.70383398397826,None,397.08717019303003,None,fat,397.08717019303003,None,return,0.8894236570340581,397.170133290987,None,,,,,,,17,001,2023_Feb_14_1317,SpeechDraft1Carolyn_lessNoise,2021.2.3,60.07056427530298,
read.wav,read.mpg,read,4,A,Pink_Noise_4_1.wav,Pink_Noise_4_2.wav,,,,,,0,26,26,44,,,,,,,,,,,,,,,398.08688577101566,None,399.5707775679766,None,400.95353053102735,None,real,400.95353053102735,None,return,1.022666628996376,401.036957275006,None,,,,,,,17,001,2023_Feb_14_1317,SpeechDraft1Carolyn_lessNoise,2021.2.3,60.07056427530298,
bloom.wav,bloom.mpg,bloom,6,A,Pink_Noise_6_1.wav,Pink_Noise_6_2.wav,,,,,,0,27,27,6,,,,,,,,,,,,,,,402.0869989200146,None,403.57036695000716,None,404.95371599902865,None,more,404.95371599902865,None,return,1.2785862370510586,405.0368658140069,None,,,,,,,17,001,2023_Feb_14_1317,SpeechDraft1Carolyn_lessNoise,2021.2.3,60.07056427530298,
feed.wav,feed.mpg,feed,5,AV,Pink_Noise_5_1.wav,Pink_Noise_5_2.wav,,,,,,0,28,28,66,,,,,,,,,,,,,,,406.33689811697695,None,407.83672604802996,None,409.2204324339982,None,"fin
",409.2204324339982,None,return,1.0356108639971353,409.3038283800124,None,,,,,,,17,001,2023_Feb_14_1317,SpeechDraft1Carolyn_lessNoise,2021.2.3,60.07056427530298,
gram.wav,gram.mpg,gram,4,A,Pink_Noise_4_1.wav,Pink_Noise_4_2.wav,,,,,,0,29,29,15,,,,,,,,,,,,,,,410.3703578180284,None,411.87019945000065,None,413.2381821349845,None,"fail
",413.2381821349845,None,return,12.618902372021694,413.32054053700995,None,,,,,,,17,001,2023_Feb_14_1317,SpeechDraft1Carolyn_lessNoise,2021.2.3,60.07056427530298,
hug.wav,hug.mpg,hug,6,A,Pink_Noise_6_1.wav,Pink_Noise_6_2.wav,,,,,,0,30,30,34,,,,,,,,,,,,,,,425.9702640210162,None,427.47045984800206,None,428.8536868140218,None,punk,428.8536868140218,None,return,2.8663315509911627,428.9371492160135,None,,,,,,,17,001,2023_Feb_14_1317,SpeechDraft1Carolyn_lessNoise,2021.2.3,60.07056427530298,
gross.wav,gross.mpg,gross,6,AV,Pink_Noise_6_1.wav,Pink_Noise_6_2.wav,,,,,,0,31,31,71,,,,,,,,,,,,,,,431.8204035399831,None,433.30574192100903,None,434.6868754239986,None,drone,434.6868754239986,None,return,2.6411062389961444,434.770507179026,None,,,,,,,17,001,2023_Feb_14_1317,SpeechDraft1Carolyn_lessNoise,2021.2.3,60.07056427530298,
draft.wav,draft.mpg,draft,2,AV,Pink_Noise_2_1.wav,Pink_Noise_2_2.wav,,,,,,0,32,32,70,,,,,,,,,,,,,,,437.436980701983,None,438.9370214359951,None,440.3203291139798,None,draft,440.3203291139798,None,return,1.087804816022981,440.4036411619745,None,,,,,,,17,001,2023_Feb_14_1317,SpeechDraft1Carolyn_lessNoise,2021.2.3,60.07056427530298,
chant.wav,chant.mpg,chant,4,AV,Pink_Noise_4_1.wav,Pink_Noise_4_2.wav,,,,,,0,33,33,102,,,,,,,,,,,,,,,441.5203873110004,None,443.00436429702677,None,444.38691611401737,None,chant,444.38691611401737,None,return,0.9572020450141281,444.47034019598505,None,,,,,,,17,001,2023_Feb_14_1317,SpeechDraft1Carolyn_lessNoise,2021.2.3,60.07056427530298,
brisk.wav,brisk.mpg,brisk,3,A,Pink_Noise_3_1.wav,Pink_Noise_3_2.wav,,,,,,0,34,34,29,,,,,,,,,,,,,,,445.4536832169979,None,446.93719825998414,None,448.32045118900714,None,brisk,448.32045118900714,None,return,0.8317551239742897,448.403786763025,None,,,,,,,17,001,2023_Feb_14_1317,SpeechDraft1Carolyn_lessNoise,2021.2.3,60.07056427530298,
fat.wav,fat.mpg,fat,3,A,Pink_Noise_3_1.wav,Pink_Noise_3_2.wav,,,,,,0,35,35,48,,,,,,,,,,,,,,,449.25366945099086,None,450.75363854999887,None,452.13702883402584,None,fant,452.13702883402584,None,return,8.559119965997525,452.22034384601284,None,,,,,,,17,001,2023_Feb_14_1317,SpeechDraft1Carolyn_lessNoise,2021.2.3,60.07056427530298,
flight.wav,flight.mpg,flight,5,AV,Pink_Noise_5_1.wav,Pink_Noise_5_2.wav,,,,,,0,36,36,83,,,,,,,,,,,,,,,460.80392031697556,None,462.30349876498803,None,463.6871691640117,None,"flight
",463.6871691640117,None,return,1.0172145229880698,463.7702635140158,None,,,,,,,17,001,2023_Feb_14_1317,SpeechDraft1Carolyn_lessNoise,2021.2.3,60.07056427530298,
grief.wav,grief.mpg,grief,6,A,Pink_Noise_6_1.wav,Pink_Noise_6_2.wav,,,,,,0,37,37,7,,,,,,,,,,,,,,,464.8202619170188,None,466.305164489022,None,467.68705193902133,None,meter,467.68705193902133,None,return,1.4412974860169925,467.7702440239955,None,,,,,,,17,001,2023_Feb_14_1317,SpeechDraft1Carolyn_lessNoise,2021.2.3,60.07056427530298,
clam.wav,clam.mpg,clam,1,A,Pink_Noise_1_1.wav,Pink_Noise_1_2.wav,,,,,,0,38,38,45,,,,,,,,,,,,,,,469.2369639609824,None,470.7368360370165,None,472.12048870301805,None,clam,472.12048870301805,None,return,0.8558812799747102,472.20362624700647,None,,,,,,,17,001,2023_Feb_14_1317,SpeechDraft1Carolyn_lessNoise,2021.2.3,60.07056427530298,
blame.wav,blame.mpg,blame,2,A,Pink_Noise_2_1.wav,Pink_Noise_2_2.wav,,,,,,0,39,39,9,,,,,,,,,,,,,,,473.0871041879873,None,474.5869055460207,None,475.97033851000015,None,plane,475.97033851000015,None,return,0.8057968019857071,476.0537417450105,None,,,,,,,17,001,2023_Feb_14_1317,SpeechDraft1Carolyn_lessNoise,2021.2.3,60.07056427530298,
guess.wav,guess.mpg,guess,3,AV,Pink_Noise_3_1.wav,Pink_Noise_3_2.wav,,,,,,0,40,40,67,,,,,,,,,,,,,,,476.88702490302967,None,478.370889858983,None,479.7537175990292,None,"guess
",479.7537175990292,None,return,0.9343292859848589,479.8371196719818,None,,,,,,,17,001,2023_Feb_14_1317,SpeechDraft1Carolyn_lessNoise,2021.2.3,60.07056427530298,
east.wav,east.mpg,east,2,AV,Pink_Noise_2_1.wav,Pink_Noise_2_2.wav,,,,,,0,41,41,77,,,,,,,,,,,,,,,480.8038315750309,None,482.28769371501403,None,483.6704269290203,None,east,483.6704269290203,None,return,0.8819129399489611,483.7536698509939,None,,,,,,,17,001,2023_Feb_14_1317,SpeechDraft1Carolyn_lessNoise,2021.2.3,60.07056427530298,
grade.wav,grade.mpg,grade,5,A,Pink_Noise_5_1.wav,Pink_Noise_5_2.wav,,,,,,0,42,42,27,,,,,,,,,,,,,,,484.65359314798843,None,486.15342852199683,None,487.5205293809995,None,"rain
",487.5205293809995,None,return,2.3198512619710527,487.60361389798345,None,,,,,,,17,001,2023_Feb_14_1317,SpeechDraft1Carolyn_lessNoise,2021.2.3,60.07056427530298,
dull.wav,dull.mpg,dull,5,AV,Pink_Noise_5_1.wav,Pink_Noise_5_2.wav,,,,,,0,43,43,82,,,,,,,,,,,,,,,489.9537436760147,None,491.4394210620085,None,492.8204391740146,None,lull,492.8204391740146,None,return,1.0035857150214724,492.9038522680057,None,,,,,,,17,001,2023_Feb_14_1317,SpeechDraft1Carolyn_lessNoise,2021.2.3,60.07056427530298,
fate.wav,fate.mpg,fate,1,A,Pink_Noise_1_1.wav,Pink_Noise_1_2.wav,,,,,,0,44,44,3,,,,,,,,,,,,,,,493.9370099059888,None,495.420886396023,None,496.80378235602984,None,fate,496.80378235602984,None,return,0.7962705930112861,496.88721354003064,None,,,,,,,17,001,2023_Feb_14_1317,SpeechDraft1Carolyn_lessNoise,2021.2.3,60.07056427530298,
count.wav,count.mpg,count,6,A,Pink_Noise_6_1.wav,Pink_Noise_6_2.wav,,,,,,0,45,45,49,,,,,,,,,,,,,,,497.7038233790081,None,499.2037306239945,None,500.58692291600164,None,"white
",500.58692291600164,None,return,0.8531640250002965,500.670285745,None,,,,,,,17,001,2023_Feb_14_1317,SpeechDraft1Carolyn_lessNoise,2021.2.3,60.07056427530298,
curb.wav,curb.mpg,curb,4,A,Pink_Noise_4_1.wav,Pink_Noise_4_2.wav,,,,,,0,46,46,10,,,,,,,,,,,,,,,501.55366557399975,None,503.0390768289799,None,504.42053916101577,None,bold,504.42053916101577,None,return,1.8917840189533308,504.5036615629797,None,,,,,,,17,001,2023_Feb_14_1317,SpeechDraft1Carolyn_lessNoise,2021.2.3,60.07056427530298,
tank.wav,tank.mpg,tank,5,AV,Pink_Noise_5_1.wav,Pink_Noise_5_2.wav,,,,,,0,47,47,114,,,,,,,,,,,,,,,506.4205409580027,None,507.92038732703077,None,509.2871100549819,None,sight,509.2871100549819,None,return,3.4652817539754324,509.3703329670243,None,,,,,,,17,001,2023_Feb_14_1317,SpeechDraft1Carolyn_lessNoise,2021.2.3,60.07056427530298,
giant.wav,giant.mpg,giant,6,AV,Pink_Noise_6_1.wav,Pink_Noise_6_2.wav,,,,,,0,48,48,119,,,,,,,,,,,,,,,512.8536440699827,None,514.3534314989811,None,515.7372830950189,None,child,515.7372830950189,None,return,0.9830332080018707,515.8204947219929,None,,,,,,,17,001,2023_Feb_14_1317,SpeechDraft1Carolyn_lessNoise,2021.2.3,60.07056427530298,
drain.wav,drain.mpg,drain,3,A,Pink_Noise_3_1.wav,Pink_Noise_3_2.wav,,,,,,0,49,49,46,,,,,,,,,,,,,,,516.8203796590096,None,518.3055614560144,None,519.6873098770157,None,toil,519.6873098770157,None,return,1.8489503100281581,519.7705702019739,None,,,,,,,17,001,2023_Feb_14_1317,SpeechDraft1Carolyn_lessNoise,2021.2.3,60.07056427530298,
none.wav,none.mpg,none,3,AV,Pink_Noise_3_1.wav,Pink_Noise_3_2.wav,,,,,,0,50,50,96,,,,,,,,,,,,,,,521.6373636979843,None,523.1369889740017,None,524.5038332159747,None,lard,524.5038332159747,None,return,4.264445701031946,524.5870042120223,None,,,,,,,17,001,2023_Feb_14_1317,SpeechDraft1Carolyn_lessNoise,2021.2.3,60.07056427530298,
boot.wav,boot.mpg,boot,4,AV,Pink_Noise_4_1.wav,Pink_Noise_4_2.wav,,,,,,0,51,51,103,,,,,,,,,,,,,,,528.8703822970274,None,530.3700386530254,None,531.753689374018,None,boot,531.753689374018,None,return,2.926234776037745,531.8372128789779,None,,,,,,,17,001,2023_Feb_14_1317,SpeechDraft1Carolyn_lessNoise,2021.2.3,60.07056427530298,
cloak.wav,cloak.mpg,cloak,4,AV,Pink_Noise_4_1.wav,Pink_Noise_4_2.wav,,,,,,0,52,52,92,,,,,,,,,,,,,,,534.7872070620069,None,536.2868287549936,None,537.6703974090051,None,"cloak
",537.6703974090051,None,return,0.969469390984159,537.7539807159919,None,,,,,,,17,001,2023_Feb_14_1317,SpeechDraft1Carolyn_lessNoise,2021.2.3,60.07056427530298,
gulf.wav,gulf.mpg,gulf,5,AV,Pink_Noise_5_1.wav,Pink_Noise_5_2.wav,,,,,,0,53,53,61,,,,,,,,,,,,,,,538.7536859450047,None,540.2371025179746,None,541.6203879460227,None,cough,541.6203879460227,None,return,0.915667861001566,541.7038806630298,None,,,,,,,17,001,2023_Feb_14_1317,SpeechDraft1Carolyn_lessNoise,2021.2.3,60.07056427530298,
fee.wav,fee.mpg,fee,2,A,Pink_Noise_2_1.wav,Pink_Noise_2_2.wav,,,,,,0,54,54,24,,,,,,,,,,,,,,,542.637121910986,None,544.1221661770251,None,545.5039728680276,None,feel,545.5039728680276,None,return,2.5761982559924945,545.5872390560107,None,,,,,,,17,001,2023_Feb_14_1317,SpeechDraft1Carolyn_lessNoise,2021.2.3,60.07056427530298,
coach.wav,coach.mpg,coach,6,AV,Pink_Noise_6_1.wav,Pink_Noise_6_2.wav,,,,,,0,55,55,106,,,,,,,,,,,,,,,548.1870304219774,None,549.6870012099971,None,551.070316279016,None,dont ,551.070316279016,None,return,3.3297566680121236,551.1537407599972,None,,,,,,,17,001,2023_Feb_14_1317,SpeechDraft1Carolyn_lessNoise,2021.2.3,60.07056427530298,
claim.wav,claim.mpg,claim,6,AV,Pink_Noise_6_1.wav,Pink_Noise_6_2.wav,,,,,,0,56,56,64,,,,,,,,,,,,,,,554.5038202119758,None,556.0034433589899,None,557.3707055569976,None,lame,557.3707055569976,None,return,1.6214992190361954,557.4539968540194,None,,,,,,,17,001,2023_Feb_14_1317,SpeechDraft1Carolyn_lessNoise,2021.2.3,60.07056427530298,
dwell.wav,dwell.mpg,dwell,1,AV,Pink_Noise_1_1.wav,Pink_Noise_1_2.wav,,,,,,0,57,57,105,,,,,,,,,,,,,,,559.1040478359791,None,560.6038408949971,None,561.9871781829861,None,"dwell
",561.9871781829861,None,return,1.100798172003124,562.0706511259777,None,,,,,,,17,001,2023_Feb_14_1317,SpeechDraft1Carolyn_lessNoise,2021.2.3,60.07056427530298,
crypt.wav,crypt.mpg,crypt,5,AV,Pink_Noise_5_1.wav,Pink_Noise_5_2.wav,,,,,,0,58,58,72,,,,,,,,,,,,,,,563.2041871330002,None,564.7036587459734,None,566.0705333700171,None,"cramp
",566.0705333700171,None,return,1.1697759089875035,566.1536453799927,None,,,,,,,17,001,2023_Feb_14_1317,SpeechDraft1Carolyn_lessNoise,2021.2.3,60.07056427530298,
guard.wav,guard.mpg,guard,1,A,Pink_Noise_1_1.wav,Pink_Noise_1_2.wav,,,,,,0,59,59,20,,,,,,,,,,,,,,,567.3539387399796,None,568.8536853590049,None,570.2372173240292,None,guard,570.2372173240292,None,return,1.1949400310404599,570.3204995170236,None,,,,,,,17,001,2023_Feb_14_1317,SpeechDraft1Carolyn_lessNoise,2021.2.3,60.07056427530298,
flu.wav,flu.mpg,flu,5,AV,Pink_Noise_5_1.wav,Pink_Noise_5_2.wav,,,,,,0,60,60,95,,,,,,,,,,,,,,,571.5371639010264,None,573.0370971520315,None,574.4039329499938,None,fume,574.4039329499938,None,return,4.1404083159868605,574.487170397013,None,,,,,,,17,001,2023_Feb_14_1317,SpeechDraft1Carolyn_lessNoise,2021.2.3,60.07056427530298,
base.wav,base.mpg,base,6,AV,Pink_Noise_6_1.wav,Pink_Noise_6_2.wav,,,,,,0,61,61,78,,,,,,,,,,,,,,,578.6538970930269,None,580.1537330879946,None,581.5369856199832,None,mate,581.5369856199832,None,return,2.9108917550183833,581.6205749500077,None,,,,,,,17,001,2023_Feb_14_1317,SpeechDraft1Carolyn_lessNoise,2021.2.3,60.07056427530298,
clog.wav,clog.mpg,clog,2,AV,Pink_Noise_2_1.wav,Pink_Noise_2_2.wav,,,,,,0,62,62,108,,,,,,,,,,,,,,,584.5539479900035,None,586.0540489769774,None,587.4207146069966,None,"clog
",587.4207146069966,None,return,1.051701285992749,587.5037511740229,None,,,,,,,17,001,2023_Feb_14_1317,SpeechDraft1Carolyn_lessNoise,2021.2.3,60.07056427530298,
bun.wav,bun.mpg,bun,6,AV,Pink_Noise_6_1.wav,Pink_Noise_6_2.wav,,,,,,0,63,63,101,,,,,,,,,,,,,,,588.5872474819771,None,590.0870705060079,None,591.4536817009794,None,pun,591.4536817009794,None,return,2.826109554967843,591.5373360469821,None,,,,,,,17,001,2023_Feb_14_1317,SpeechDraft1Carolyn_lessNoise,2021.2.3,60.07056427530298,
grass.wav,grass.mpg,grass,3,A,Pink_Noise_3_1.wav,Pink_Noise_3_2.wav,,,,,,0,64,64,12,,,,,,,,,,,,,,,594.3873521729838,None,595.8871725660283,None,597.2706803749898,None,dress,597.2706803749898,None,return,1.1215815139585175,597.354042602994,None,,,,,,,17,001,2023_Feb_14_1317,SpeechDraft1Carolyn_lessNoise,2021.2.3,60.07056427530298,
jam.wav,jam.mpg,jam,1,AV,Pink_Noise_1_1.wav,Pink_Noise_1_2.wav,,,,,,0,65,65,76,,,,,,,,,,,,,,,598.5204505859874,None,600.0204222199973,None,601.4041770559852,None,jam,601.4041770559852,None,return,0.8282638289965689,601.4872023820062,None,,,,,,,17,001,2023_Feb_14_1317,SpeechDraft1Carolyn_lessNoise,2021.2.3,60.07056427530298,
grunt.wav,grunt.mpg,grunt,5,A,Pink_Noise_5_1.wav,Pink_Noise_5_2.wav,,,,,,0,66,66,8,,,,,,,,,,,,,,,602.3372245799983,None,603.8373360920232,None,605.2206084590289,None,fright,605.2206084590289,None,return,2.1875765179865994,605.3038884309935,None,,,,,,,17,001,2023_Feb_14_1317,SpeechDraft1Carolyn_lessNoise,2021.2.3,60.07056427530298,
cease.wav,cease.mpg,cease,5,A,Pink_Noise_5_1.wav,Pink_Noise_5_2.wav,,,,,,0,67,67,23,,,,,,,,,,,,,,,607.5205762030091,None,609.0056215240038,None,610.3873818489956,None,beast,610.3873818489956,None,return,1.676744552969467,610.470691605995,None,,,,,,,17,001,2023_Feb_14_1317,SpeechDraft1Carolyn_lessNoise,2021.2.3,60.07056427530298,
clerk.wav,clerk.mpg,clerk,6,A,Pink_Noise_6_1.wav,Pink_Noise_6_2.wav,,,,,,0,68,68,5,,,,,,,,,,,,,,,612.1705423209933,None,613.6704839849845,None,615.0538117460092,None,"wait
",615.0538117460092,None,return,3.1700634410372004,615.1373838050058,None,,,,,,,17,001,2023_Feb_14_1317,SpeechDraft1Carolyn_lessNoise,2021.2.3,60.07056427530298,
beast.wav,beast.mpg,beast,6,A,Pink_Noise_6_1.wav,Pink_Noise_6_2.wav,,,,,,0,69,69,18,,,,,,,,,,,,,,,618.3374345389893,None,619.8369536849787,None,621.2204966780264,None,"east
",621.2204966780264,None,return,1.4672776980441995,621.3041735489969,None,,,,,,,17,001,2023_Feb_14_1317,SpeechDraft1Carolyn_lessNoise,2021.2.3,60.07056427530298,
glide.wav,glide.mpg,glide,4,A,Pink_Noise_4_1.wav,Pink_Noise_4_2.wav,,,,,,0,70,70,35,,,,,,,,,,,,,,,622.8040627400042,None,624.3039240990183,None,625.6874412060133,None,dog,625.6874412060133,None,return,3.7208041499834508,625.7706533410237,None,,,,,,,17,001,2023_Feb_14_1317,SpeechDraft1Carolyn_lessNoise,2021.2.3,60.07056427530298,
leapt.wav,leapt.mpg,leapt,1,A,Pink_Noise_1_1.wav,Pink_Noise_1_2.wav,,,,,,0,71,71,33,,,,,,,,,,,,,,,629.5207194209797,None,631.0202890440123,None,632.4041303779813,None,leapt,632.4041303779813,None,return,1.1161701300297864,632.4872818450094,None,,,,,,,17,001,2023_Feb_14_1317,SpeechDraft1Carolyn_lessNoise,2021.2.3,60.07056427530298,
gun.wav,gun.mpg,gun,1,AV,Pink_Noise_1_1.wav,Pink_Noise_1_2.wav,,,,,,0,72,72,111,,,,,,,,,,,,,,,633.6206384979887,None,635.1204518330051,None,636.5040965980152,None,gun,636.5040965980152,None,return,0.8078180559678003,636.6036878729938,None,,,,,,,17,001,2023_Feb_14_1317,SpeechDraft1Carolyn_lessNoise,2021.2.3,60.07056427530298,
egg.wav,egg.mpg,egg,4,A,Pink_Noise_4_1.wav,Pink_Noise_4_2.wav,,,,,,0,73,73,39,,,,,,,,,,,,,,,637.437215397018,None,638.9372858739807,None,640.3207590319798,None,"egg
",640.3207590319798,None,return,0.7352072759531438,640.4042429330293,None,,,,,,,17,001,2023_Feb_14_1317,SpeechDraft1Carolyn_lessNoise,2021.2.3,60.07056427530298,
cap.wav,cap.mpg,cap,4,AV,Pink_Noise_4_1.wav,Pink_Noise_4_2.wav,,,,,,0,74,74,89,,,,,,,,,,,,,,,641.1708090640022,None,642.6705356499879,None,644.0373294270248,None,cap,644.0373294270248,None,return,0.7227223519585095,644.1207656849874,None,,,,,,,17,001,2023_Feb_14_1317,SpeechDraft1Carolyn_lessNoise,2021.2.3,60.07056427530298,
pact.wav,pact.mpg,pact,2,A,Pink_Noise_2_1.wav,Pink_Noise_2_2.wav,,,,,,0,75,75,4,,,,,,,,,,,,,,,644.8705432739807,None,646.3706022510305,None,647.7539270339767,None,pact,647.7539270339767,None,return,5.790291019016877,647.8372709010146,None,,,,,,,17,001,2023_Feb_14_1317,SpeechDraft1Carolyn_lessNoise,2021.2.3,60.07056427530298,
cane.wav,cane.mpg,cane,5,A,Pink_Noise_5_1.wav,Pink_Noise_5_2.wav,,,,,,0,76,76,51,,,,,,,,,,,,,,,653.6538584749796,None,655.153915820003,None,656.5205446309992,None,wait,656.5205446309992,None,return,15.879562592948787,656.6039232159965,None,,,,,,,17,001,2023_Feb_14_1317,SpeechDraft1Carolyn_lessNoise,2021.2.3,60.07056427530298,
dare.wav,dare.mpg,dare,6,AV,Pink_Noise_6_1.wav,Pink_Noise_6_2.wav,,,,,,0,77,77,75,,,,,,,,,,,,,,,672.503887748986,None,674.0038344510249,None,675.3875455509988,None,stare,675.3875455509988,None,return,1.036837091029156,675.4706223050016,None,,,,,,,17,001,2023_Feb_14_1317,SpeechDraft1Carolyn_lessNoise,2021.2.3,60.07056427530298,
shrimp.wav,shrimp.mpg,shrimp,3,A,Pink_Noise_3_1.wav,Pink_Noise_3_2.wav,,,,,,0,78,78,42,,,,,,,,,,,,,,,676.5374874830013,None,678.0371957420139,None,679.404139019025,None,shrug,679.404139019025,None,return,1.7799337379983626,679.4875696069794,None,,,,,,,17,001,2023_Feb_14_1317,SpeechDraft1Carolyn_lessNoise,2021.2.3,60.07056427530298,
chest.wav,chest.mpg,chest,1,A,Pink_Noise_1_1.wav,Pink_Noise_1_2.wav,,,,,,0,79,79,36,,,,,,,,,,,,,,,681.2874577210168,None,682.7871572860167,None,684.1707828040235,None,"chest
",684.1707828040235,None,return,0.733328310016077,684.2541232649819,None,,,,,,,17,001,2023_Feb_14_1317,SpeechDraft1Carolyn_lessNoise,2021.2.3,60.07056427530298,
eye.wav,eye.mpg,eye,4,A,Pink_Noise_4_1.wav,Pink_Noise_4_2.wav,,,,,,0,80,80,58,,,,,,,,,,,,,,,685.0207751690177,None,686.520458746003,None,687.9041991379927,None,"eye
",687.9041991379927,None,return,0.5361990639939904,687.9872461769846,None,,,,,,,17,001,2023_Feb_14_1317,SpeechDraft1Carolyn_lessNoise,2021.2.3,60.07056427530298,
pop.wav,pop.mpg,pop,4,AV,Pink_Noise_4_1.wav,Pink_Noise_4_2.wav,,,,,,0,81,81,85,,,,,,,,,,,,,,,688.5539104699856,None,690.0538927679881,None,691.4373560880194,None,pop,691.4373560880194,None,return,0.8586338519817218,691.5207809610292,None,,,,,,,17,001,2023_Feb_14_1317,SpeechDraft1Carolyn_lessNoise,2021.2.3,60.07056427530298,
cube.wav,cube.mpg,cube,6,AV,Pink_Noise_6_1.wav,Pink_Noise_6_2.wav,,,,,,0,82,82,99,,,,,,,,,,,,,,,692.4038532599807,None,693.9040422249818,None,695.2708565500216,None,goop,695.2708565500216,None,return,2.5373818739899434,695.3540305860224,None,,,,,,,17,001,2023_Feb_14_1317,SpeechDraft1Carolyn_lessNoise,2021.2.3,60.07056427530298,
dope.wav,dope.mpg,dope,1,AV,Pink_Noise_1_1.wav,Pink_Noise_1_2.wav,,,,,,0,83,83,115,,,,,,,,,,,,,,,697.9207152369781,None,699.4061201559962,None,700.787450348027,None,dope,700.787450348027,None,return,1.0767021790379658,700.8707356450032,None,,,,,,,17,001,2023_Feb_14_1317,SpeechDraft1Carolyn_lessNoise,2021.2.3,60.07056427530298,
flock.wav,flock.mpg,flock,3,AV,Pink_Noise_3_1.wav,Pink_Noise_3_2.wav,,,,,,0,84,84,90,,,,,,,,,,,,,,,701.9708022649866,None,703.470874044986,None,704.8539415600244,None,flock,704.8539415600244,None,return,1.1302135310252197,704.937305318017,None,,,,,,,17,001,2023_Feb_14_1317,SpeechDraft1Carolyn_lessNoise,2021.2.3,60.07056427530298,
bait.wav,bait.mpg,bait,4,A,Pink_Noise_4_1.wav,Pink_Noise_4_2.wav,,,,,,0,85,85,57,,,,,,,,,,,,,,,706.087576785998,None,707.5873025259934,None,708.9705967010232,None,bit,708.9705967010232,None,return,0.7733912779949605,709.0541538309772,None,,,,,,,17,001,2023_Feb_14_1317,SpeechDraft1Carolyn_lessNoise,2021.2.3,60.07056427530298,
fame.wav,fame.mpg,fame,3,A,Pink_Noise_3_1.wav,Pink_Noise_3_2.wav,,,,,,0,86,86,13,,,,,,,,,,,,,,,709.8540852030274,None,711.3538562780013,None,712.7374506199849,None,"fame
",712.7374506199849,None,return,3.5188629340264015,712.8205867810175,None,,,,,,,17,001,2023_Feb_14_1317,SpeechDraft1Carolyn_lessNoise,2021.2.3,60.07056427530298,
clot.wav,clot.mpg,clot,5,AV,Pink_Noise_5_1.wav,Pink_Noise_5_2.wav,,,,,,0,87,87,113,,,,,,,,,,,,,,,716.3709188679932,None,717.8705835170113,None,719.2540053470293,None,clout,719.2540053470293,None,return,7.154132673982531,719.337313578988,None,,,,,,,17,001,2023_Feb_14_1317,SpeechDraft1Carolyn_lessNoise,2021.2.3,60.07056427530298,
hike.wav,hike.mpg,hike,1,AV,Pink_Noise_1_1.wav,Pink_Noise_1_2.wav,,,,,,0,88,88,118,,,,,,,,,,,,,,,726.520960349997,None,728.0391735099838,None,729.4206123659969,None,hike,729.4206123659969,None,return,1.0111826570355333,729.5042399460217,None,,,,,,,17,001,2023_Feb_14_1317,SpeechDraft1Carolyn_lessNoise,2021.2.3,60.07056427530298,
peach.wav,peach.mpg,peach,3,AV,Pink_Noise_3_1.wav,Pink_Noise_3_2.wav,,,,,,0,89,89,69,,,,,,,,,,,,,,,730.5374846350169,None,732.0373328920105,None,733.4205141320126,None,beach,733.4205141320126,None,return,0.7955692829564214,733.5038837849861,None,,,,,,,17,001,2023_Feb_14_1317,SpeechDraft1Carolyn_lessNoise,2021.2.3,60.07056427530298,
flop.wav,flop.mpg,flop,2,A,Pink_Noise_2_1.wav,Pink_Noise_2_2.wav,,,,,,0,90,90,25,,,,,,,,,,,,,,,734.3206865420216,None,735.8205433309777,None,737.2041955969762,None,flock,737.2041955969762,None,return,1.5077938560280018,737.2876388030127,None,,,,,,,17,001,2023_Feb_14_1317,SpeechDraft1Carolyn_lessNoise,2021.2.3,60.07056427530298,
fad.wav,fad.mpg,fad,1,A,Pink_Noise_1_1.wav,Pink_Noise_1_2.wav,,,,,,0,91,91,52,,,,,,,,,,,,,,,738.8206650129869,None,740.3206549860188,None,741.7040758489748,None,fad,741.7040758489748,None,return,0.8720437189913355,741.7875200139824,None,,,,,,,17,001,2023_Feb_14_1317,SpeechDraft1Carolyn_lessNoise,2021.2.3,60.07056427530298,
doom.wav,doom.mpg,doom,2,AV,Pink_Noise_2_1.wav,Pink_Noise_2_2.wav,,,,,,0,92,92,116,,,,,,,,,,,,,,,742.6877319479827,None,744.187472525984,None,745.5708161210059,None,dune,745.5708161210059,None,return,6.061290806042962,745.6541891759844,None,,,,,,,17,001,2023_Feb_14_1317,SpeechDraft1Carolyn_lessNoise,2021.2.3,60.07056427530298,
cape.wav,cape.mpg,cape,5,A,Pink_Noise_5_1.wav,Pink_Noise_5_2.wav,,,,,,0,93,93,38,,,,,,,,,,,,,,,751.7375609449809,None,753.2372726189787,None,754.620843651006,None,"fate
",754.620843651006,None,return,9.219373503990937,754.7040646129753,None,,,,,,,17,001,2023_Feb_14_1317,SpeechDraft1Carolyn_lessNoise,2021.2.3,60.07056427530298,
cute.wav,cute.mpg,cute,6,A,Pink_Noise_6_1.wav,Pink_Noise_6_2.wav,,,,,,0,94,94,59,,,,,,,,,,,,,,,763.954172978003,None,765.4540392420022,None,766.8207317260094,None,groan,766.8207317260094,None,return,2.5952977440319955,766.9041835599928,None,,,,,,,17,001,2023_Feb_14_1317,SpeechDraft1Carolyn_lessNoise,2021.2.3,60.07056427530298,
dove.wav,dove.mpg,dove,1,A,Pink_Noise_1_1.wav,Pink_Noise_1_2.wav,,,,,,0,95,95,43,,,,,,,,,,,,,,,769.5209624739946,None,771.0206052659778,None,772.4044294849737,None,dove,772.4044294849737,None,return,0.9721684770192951,772.4873261339962,None,,,,,,,17,001,2023_Feb_14_1317,SpeechDraft1Carolyn_lessNoise,2021.2.3,60.07056427530298,
castle.wav,castle.mpg,castle,5,AV,Pink_Noise_5_1.wav,Pink_Noise_5_2.wav,,,,,,0,96,96,93,,,,,,,,,,,,,,,773.4875655850046,None,774.9872270579799,None,776.3707618230255,None,esh,776.3707618230255,None,return,10.029110072995536,776.4543572129915,None,,,,,,,17,001,2023_Feb_14_1317,SpeechDraft1Carolyn_lessNoise,2021.2.3,60.07056427530298,
dial.wav,dial.mpg,dial,3,AV,Pink_Noise_3_1.wav,Pink_Noise_3_2.wav,,,,,,0,97,97,68,,,,,,,,,,,,,,,786.5041695039836,None,788.0039408769808,None,789.3876012110268,None,dying,789.3876012110268,None,return,1.1805666330037639,789.4709134140285,None,,,,,,,17,001,2023_Feb_14_1317,SpeechDraft1Carolyn_lessNoise,2021.2.3,60.07056427530298,
chin.wav,chin.mpg,chin,3,AV,Pink_Noise_3_1.wav,Pink_Noise_3_2.wav,,,,,,0,98,98,91,,,,,,,,,,,,,,,790.6708610000205,None,792.1708012360032,None,793.553991438006,None,chin,793.553991438006,None,return,0.8620366820250638,793.6374089490273,None,,,,,,,17,001,2023_Feb_14_1317,SpeechDraft1Carolyn_lessNoise,2021.2.3,60.07056427530298,
deem.wav,deem.mpg,deem,5,AV,Pink_Noise_5_1.wav,Pink_Noise_5_2.wav,,,,,,0,99,99,98,,,,,,,,,,,,,,,794.5206554749748,None,796.0206819599844,None,797.4042382609914,None,deem,797.4042382609914,None,return,3.532038330042269,797.4874927679775,None,,,,,,,17,001,2023_Feb_14_1317,SpeechDraft1Carolyn_lessNoise,2021.2.3,60.07056427530298,
bill.wav,bill.mpg,bill,3,AV,Pink_Noise_3_1.wav,Pink_Noise_3_2.wav,,,,,,0,100,100,79,,,,,,,,,,,,,,,801.0374474460259,None,802.5373915489763,None,803.9210409360239,None,bill,803.9210409360239,None,return,1.0873094389680773,804.0041397269815,None,,,,,,,17,001,2023_Feb_14_1317,SpeechDraft1Carolyn_lessNoise,2021.2.3,60.07056427530298,
ditch.wav,ditch.mpg,ditch,4,A,Pink_Noise_4_1.wav,Pink_Noise_4_2.wav,,,,,,0,101,101,28,,,,,,,,,,,,,,,805.121005285997,None,806.6205955480109,None,808.0042845929856,None,"ditch
",808.0042845929856,None,return,1.0519311410025693,808.0875233649858,None,,,,,,,17,001,2023_Feb_14_1317,SpeechDraft1Carolyn_lessNoise,2021.2.3,60.07056427530298,
bear.wav,bear.mpg,bear,5,A,Pink_Noise_5_1.wav,Pink_Noise_5_2.wav,,,,,,0,102,102,56,,,,,,,,,,,,,,,809.1708619110286,None,810.6708484559786,None,812.0543203849811,None,rain,812.0543203849811,None,return,0.5777576499967836,812.1376806200133,None,,,,,,,17,001,2023_Feb_14_1317,SpeechDraft1Carolyn_lessNoise,2021.2.3,60.07056427530298,
beer.wav,beer.mpg,beer,4,A,Pink_Noise_4_1.wav,Pink_Noise_4_2.wav,,,,,,0,103,103,0,,,,,,,,,,,,,,,812.7376344780205,None,814.2373779549962,None,815.6207620460191,None,"field
",815.6207620460191,None,return,0.8193922000355087,815.7040401229751,None,,,,,,,17,001,2023_Feb_14_1317,SpeechDraft1Carolyn_lessNoise,2021.2.3,60.07056427530298,
chalk.wav,chalk.mpg,chalk,6,A,Pink_Noise_6_1.wav,Pink_Noise_6_2.wav,,,,,,0,104,104,22,,,,,,,,,,,,,,,816.5544099470135,None,818.0539525669883,None,819.437529087998,None,chop,819.437529087998,None,return,1.6825699449982494,819.5209524810198,None,,,,,,,17,001,2023_Feb_14_1317,SpeechDraft1Carolyn_lessNoise,2021.2.3,60.07056427530298,
creek.wav,creek.mpg,creek,1,A,Pink_Noise_1_1.wav,Pink_Noise_1_2.wav,,,,,,0,105,105,47,,,,,,,,,,,,,,,821.2207340530003,None,822.7207364370115,None,824.1042866520002,None,creek,824.1042866520002,None,return,1.0961229460081086,824.1873893989832,None,,,,,,,17,001,2023_Feb_14_1317,SpeechDraft1Carolyn_lessNoise,2021.2.3,60.07056427530298,
dice.wav,dice.mpg,dice,2,A,Pink_Noise_2_1.wav,Pink_Noise_2_2.wav,,,,,,0,106,106,31,,,,,,,,,,,,,,,825.3043290579808,None,826.8038710139808,None,828.1876970860176,None,dice,828.1876970860176,None,return,0.7243810140062124,828.271045882022,None,,,,,,,17,001,2023_Feb_14_1317,SpeechDraft1Carolyn_lessNoise,2021.2.3,60.07056427530298,
cell.wav,cell.mpg,cell,5,A,Pink_Noise_5_1.wav,Pink_Noise_5_2.wav,,,,,,0,107,107,32,,,,,,,,,,,,,,,829.0209116920014,None,830.5207544530276,None,831.8874908640282,None,crowd,831.8874908640282,None,return,2.232629299047403,831.9708909189794,None,,,,,,,17,001,2023_Feb_14_1317,SpeechDraft1Carolyn_lessNoise,2021.2.3,60.07056427530298,
dad.wav,dad.mpg,dad,2,A,Pink_Noise_2_1.wav,Pink_Noise_2_2.wav,,,,,,0,108,108,16,,,,,,,,,,,,,,,834.2209325809963,None,835.7208539830172,None,837.1043516860227,None,dab,837.1043516860227,None,return,0.591740194009617,837.1876973049948,None,,,,,,,17,001,2023_Feb_14_1317,SpeechDraft1Carolyn_lessNoise,2021.2.3,60.07056427530298,
coup.wav,coup.mpg,coup,5,A,Pink_Noise_5_1.wav,Pink_Noise_5_2.wav,,,,,,0,109,109,37,,,,,,,,,,,,,,,837.8043385220226,None,839.3041077040252,None,840.6874991710065,None,feet,840.6874991710065,None,return,4.424554232973605,840.7709793639951,None,,,,,,,17,001,2023_Feb_14_1317,SpeechDraft1Carolyn_lessNoise,2021.2.3,60.07056427530298,
grim.wav,grim.mpg,grim,2,AV,Pink_Noise_2_1.wav,Pink_Noise_2_2.wav,,,,,,0,110,110,65,,,,,,,,,,,,,,,845.2211143629975,None,846.7207943139947,None,848.1042457370204,None,grim,848.1042457370204,None,return,0.8478228389867581,848.1876265879837,None,,,,,,,17,001,2023_Feb_14_1317,SpeechDraft1Carolyn_lessNoise,2021.2.3,60.07056427530298,
fluent.wav,fluent.mpg,fluent,4,AV,Pink_Noise_4_1.wav,Pink_Noise_4_2.wav,,,,,,0,111,111,60,,,,,,,,,,,,,,,849.054156076978,None,850.5539343259879,None,851.9375989899854,None,fluid,851.9375989899854,None,return,3.430651256989222,852.0208189780242,None,,,,,,,17,001,2023_Feb_14_1317,SpeechDraft1Carolyn_lessNoise,2021.2.3,60.07056427530298,
paid.wav,paid.mpg,paid,4,AV,Pink_Noise_4_1.wav,Pink_Noise_4_2.wav,,,,,,0,112,112,100,,,,,,,,,,,,,,,855.4709474759875,None,856.9708421989926,None,858.3540955929784,None,pain,858.3540955929784,None,return,0.7580086060333997,858.4374323060038,None,,,,,,,17,001,2023_Feb_14_1317,SpeechDraft1Carolyn_lessNoise,2021.2.3,60.07056427530298,
bold.wav,bold.mpg,bold,6,A,Pink_Noise_6_1.wav,Pink_Noise_6_2.wav,,,,,,0,113,113,30,,,,,,,,,,,,,,,859.2209429719951,None,860.7207721230225,None,862.1043485230184,None,wet,862.1043485230184,None,return,1.7437952409964055,862.1876319820294,None,,,,,,,17,001,2023_Feb_14_1317,SpeechDraft1Carolyn_lessNoise,2021.2.3,60.07056427530298,
build.wav,build.mpg,build,1,A,Pink_Noise_1_1.wav,Pink_Noise_1_2.wav,,,,,,0,114,114,11,,,,,,,,,,,,,,,863.9543663089862,None,865.4539503940032,None,866.837773198029,None,build,866.837773198029,None,return,0.8426722459844314,866.9207893050043,None,,,,,,,17,001,2023_Feb_14_1317,SpeechDraft1Carolyn_lessNoise,2021.2.3,60.07056427530298,
poll.wav,poll.mpg,poll,2,A,Pink_Noise_2_1.wav,Pink_Noise_2_2.wav,,,,,,0,115,115,19,,,,,,,,,,,,,,,867.7876134539838,None,869.2876651390106,None,870.6707859439775,None,"hole
",870.6707859439775,None,return,0.7692807879648171,870.7541705670301,None,,,,,,,17,001,2023_Feb_14_1317,SpeechDraft1Carolyn_lessNoise,2021.2.3,60.07056427530298,
three.wav,three.mpg,three,3,AV,Pink_Noise_3_1.wav,Pink_Noise_3_2.wav,,,,,,0,116,116,84,,,,,,,,,,,,,,,871.5542807260063,None,873.0542227650294,None,874.4544490749831,None,three,874.4544490749831,None,return,1.5539224650128745,874.5375265459879,None,,,,,,,17,001,2023_Feb_14_1317,SpeechDraft1Carolyn_lessNoise,2021.2.3,60.07056427530298,
fund.wav,fund.mpg,fund,4,AV,Pink_Noise_4_1.wav,Pink_Noise_4_2.wav,,,,,,0,117,117,94,,,,,,,,,,,,,,,876.1210458389833,None,877.6207591720158,None,879.0042589500081,None,fire,879.0042589500081,None,return,0.7800304610282183,879.0875025360147,None,,,,,,,17,001,2023_Feb_14_1317,SpeechDraft1Carolyn_lessNoise,2021.2.3,60.07056427530298,
dive.wav,dive.mpg,dive,1,AV,Pink_Noise_1_1.wav,Pink_Noise_1_2.wav,,,,,,0,118,118,62,,,,,,,,,,,,,,,879.8885811389773,None,881.3876172130113,None,882.7707856090274,None,"dive
",882.7707856090274,None,return,1.2690403549931943,882.8544030319899,None,,,,,,,17,001,2023_Feb_14_1317,SpeechDraft1Carolyn_lessNoise,2021.2.3,60.07056427530298,
brash.wav,brash.mpg,brash,4,AV,Pink_Noise_4_1.wav,Pink_Noise_4_2.wav,,,,,,0,119,119,117,,,,,,,,,,,,,,,884.1543350869906,None,885.6541781930136,None,887.0377094040159,None,brush,887.0377094040159,None,return,0.8663811220321804,887.12113821198,None,,,,,,,17,001,2023_Feb_14_1317,SpeechDraft1Carolyn_lessNoise,2021.2.3,60.07056427530298,
