Audio_Only_Files,Video_Files,Original_Word_List,noiseLevelCode,conditionCodes,noiseLevelFile1,noiseLevelFile2,InstrTextVar,targetSpeakerName,targetSpeakerEccen,targetSpkrChannel,targetSpkrSound,targetVisualDegrees,visStimLoc,visStimLoc2,visStimW,visStimH,practiceTrials.thisRepN,practiceTrials.thisTrialN,practiceTrials.thisN,practiceTrials.thisIndex,trials.thisRepN,trials.thisTrialN,trials.thisN,trials.thisIndex,audLocalLoop.thisRepN,audLocalLoop.thisTrialN,audLocalLoop.thisN,audLocalLoop.thisIndex,visualLocalLoop.thisRepN,visualLocalLoop.thisTrialN,visualLocalLoop.thisN,visualLocalLoop.thisIndex,letsGoAlready.keys,letsGoAlready.rt,letsGoAlready.started,letsGoAlready.stopped,text_2.started,text_2.stopped,text_3.started,text_3.stopped,key_resp_2.keys,key_resp_2.rt,key_resp_2.started,key_resp_2.stopped,text_5.started,text_5.stopped,fixCross.started,fixCross.stopped,fixCross2.started,fixCross2.stopped,answerPrompt.started,answerPrompt.stopped,getAnswer.text,getAnswer.started,getAnswer.stopped,goToNext.keys,goToNext.rt,goToNext.started,goToNext.stopped,stretchBreakTxrt.started,stretchBreakTxrt.stopped,key_resp_3.keys,key_resp_3.rt,key_resp_3.started,key_resp_3.stopped,letsGoLocal.keys,letsGoLocal.rt,letsGoLocal.started,letsGoLocal.stopped,text_4.started,text_4.stopped,prepFixTxt.started,prepFixTxt.stopped,prepFixTxt_2.started,prepFixTxt_2.stopped,respPromptLocal.started,respPromptLocal.stopped,slider.response,slider.rt,slider.started,slider.stopped,letsGoLocal_2.keys,letsGoLocal_2.rt,letsGoLocal_2.started,letsGoLocal_2.stopped,text_7.started,text_7.stopped,prepFixTxt_3.started,prepFixTxt_3.stopped,grating.started,grating.stopped,exitTxt.started,exitTxt.stopped,key_resp.keys,key_resp.rt,key_resp.started,key_resp.stopped,participant,session,date,expName,psychopyVersion,frameRate,
,,,,,,,,,,,,,,,,,,,,,,,,,,,,,,,,,space,221.09429428447038,13.624824115075171,None,,,,,,,,,,,,,,,,,,,,,,,,,,,,,,,,,,,,,,,,,,,,,,,,,,,,,,,,,,,,,,183,001,2024_Mar_11_1659,SpeechDraft1Carolyn_lessNoise_PlusLocalization,2021.2.3,60.06200381414948,
,,,,,,,,,,,,,,,,,,,,,,,,,,,,,,,,,,,,,13.624824115075171,None,234.84196969121695,None,space,11.918112785555422,235.02497195918113,None,,,,,,,,,,,,,,,,,,,,,,,,,,,,,,,,,,,,,,,,,,,,,,,,,,,,,,183,001,2024_Mar_11_1659,SpeechDraft1Carolyn_lessNoise_PlusLocalization,2021.2.3,60.06200381414948,
ash.wav,ash.mpg,ash,1,A,Pink_Noise_1_1.wav,Pink_Noise_1_2.wav,"This is an example of an

AUDIO trial",,,,,,,,,,0,0,0,0,,,,,,,,,,,,,,,,,,,,,,,,,247.00817174091935,None,247.99159009195864,None,251.20816988218576,None,252.60792207811028,None,"ash
",252.60792207811028,None,return,5.420029346831143,252.67505315784365,None,,,,,,,,,,,,,,,,,,,,,,,,,,,,,,,,,,,,,,,183,001,2024_Mar_11_1659,SpeechDraft1Carolyn_lessNoise_PlusLocalization,2021.2.3,60.06200381414948,
ash.wav,ash.mpg,ash,1,AV,Pink_Noise_1_1.wav,Pink_Noise_1_2.wav,"This is an example of an

AUDIO + VIDEO  trial",,,,,,,,,,0,1,1,1,,,,,,,,,,,,,,,,,,,,,,,,,258.14107669051737,None,259.1416421988979,None,260.6249958788976,None,262.00817946810275,None,ash,262.00817946810275,None,return,4.3556634886190295,262.09146889299154,None,,,,,,,,,,,,,,,,,,,,,,,,,,,,,,,,,,,,,,,183,001,2024_Mar_11_1659,SpeechDraft1Carolyn_lessNoise_PlusLocalization,2021.2.3,60.06200381414948,
,,,,,,,,,,,,,,,,,,,,,,,,,,,,,,,,,,,,,,,,,,,,,,,,,,,,,,,,,,,,266.49129024427384,None,space,32.60428478568792,266.67493609152734,None,,,,,,,,,,,,,,,,,,,,,,,,,,,,,,,,,183,001,2024_Mar_11_1659,SpeechDraft1Carolyn_lessNoise_PlusLocalization,2021.2.3,60.06200381414948,
fund.wav,fund.mpg,fund,6,A,Pink_Noise_6_1.wav,Pink_Noise_6_2.wav,,,,,,,,,,,,,,,0,0,0,53,,,,,,,,,,,,,,,,,,,,,,,299.34115876071155,None,300.8246487211436,None,302.20843268278986,None,shhh,302.20843268278986,None,return,7.995598368346691,302.29146673809737,None,,,,,,,,,,,,,,,,,,,,,,,,,,,,,,,,,,,,,,,183,001,2024_Mar_11_1659,SpeechDraft1Carolyn_lessNoise_PlusLocalization,2021.2.3,60.06200381414948,
booth.wav,booth.mpg,booth,2,A,Pink_Noise_2_1.wav,Pink_Noise_2_2.wav,,,,,,,,,,,,,,,0,1,1,37,,,,,,,,,,,,,,,,,,,,,,,310.30840293318033,None,311.80794395599514,None,313.1915877889842,None,boogie,313.1915877889842,None,return,10.124113288708031,313.2751081427559,None,,,,,,,,,,,,,,,,,,,,,,,,,,,,,,,,,,,,,,,183,001,2024_Mar_11_1659,SpeechDraft1Carolyn_lessNoise_PlusLocalization,2021.2.3,60.06200381414948,
foam.wav,foam.mpg,foam,6,A,Pink_Noise_6_1.wav,Pink_Noise_6_2.wav,,,,,,,,,,,,,,,0,2,2,1,,,,,,,,,,,,,,,,,,,,,,,323.42495973967016,None,324.92471889965236,None,326.3082268545404,None,nusf,326.3082268545404,None,return,5.031660911627114,326.3915065815672,None,,,,,,,,,,,,,,,,,,,,,,,,,,,,,,,,,,,,,,,183,001,2024_Mar_11_1659,SpeechDraft1Carolyn_lessNoise_PlusLocalization,2021.2.3,60.06200381414948,
goal.wav,goal.mpg,goal,3,A,Pink_Noise_3_1.wav,Pink_Noise_3_2.wav,,,,,,,,,,,,,,,0,3,3,56,,,,,,,,,,,,,,,,,,,,,,,331.4418152719736,None,332.94146716501564,None,334.3250675480813,None,"dead
",334.3250675480813,None,return,2.486749234609306,334.40831893496215,None,,,,,,,,,,,,,,,,,,,,,,,,,,,,,,,,,,,,,,,183,001,2024_Mar_11_1659,SpeechDraft1Carolyn_lessNoise_PlusLocalization,2021.2.3,60.06200381414948,
deem.wav,deem.mpg,deem,6,A,Pink_Noise_6_1.wav,Pink_Noise_6_2.wav,,,,,,,,,,,,,,,0,4,4,54,,,,,,,,,,,,,,,,,,,,,,,336.92487818561494,None,338.40807019360363,None,339.7917931955308,None,nips,339.7917931955308,None,return,8.124163024127483,339.8749761907384,None,,,,,,,,,,,,,,,,,,,,,,,,,,,,,,,,,,,,,,,183,001,2024_Mar_11_1659,SpeechDraft1Carolyn_lessNoise_PlusLocalization,2021.2.3,60.06200381414948,
slush.wav,slush.mpg,slush,5,A,Pink_Noise_5_1.wav,Pink_Noise_5_2.wav,,,,,,,,,,,,,,,0,5,5,41,,,,,,,,,,,,,,,,,,,,,,,348.0249083302915,None,349.5246299440041,None,350.90859443414956,None,swash,350.90859443414956,None,return,7.823493521660566,350.99167916178703,None,,,,,,,,,,,,,,,,,,,,,,,,,,,,,,,,,,,,,,,183,001,2024_Mar_11_1659,SpeechDraft1Carolyn_lessNoise_PlusLocalization,2021.2.3,60.06200381414948,
pike.wav,pike.mpg,pike,2,AV,Pink_Noise_2_1.wav,Pink_Noise_2_2.wav,,,,,,,,,,,,,,,0,6,6,101,,,,,,,,,,,,,,,,,,,,,,,358.8416726561263,None,360.3415563311428,None,361.7251654807478,None,bike,361.7251654807478,None,return,8.55872676242143,361.80831870716065,None,,,,,,,,,,,,,,,,,,,,,,,,,,,,,,,,,,,,,,,183,001,2024_Mar_11_1659,SpeechDraft1Carolyn_lessNoise_PlusLocalization,2021.2.3,60.06200381414948,
fur.wav,fur.mpg,fur,2,A,Pink_Noise_2_1.wav,Pink_Noise_2_2.wav,,,,,,,,,,,,,,,0,7,7,6,,,,,,,,,,,,,,,,,,,,,,,370.3916015429422,None,371.87487800512463,None,373.25850396230817,None,"purse
",373.25850396230817,None,return,3.1692640483379364,373.34180708788335,None,,,,,,,,,,,,,,,,,,,,,,,,,,,,,,,,,,,,,,,183,001,2024_Mar_11_1659,SpeechDraft1Carolyn_lessNoise_PlusLocalization,2021.2.3,60.06200381414948,
gush.wav,gush.mpg,gush,3,A,Pink_Noise_3_1.wav,Pink_Noise_3_2.wav,,,,,,,,,,,,,,,0,8,8,14,,,,,,,,,,,,,,,,,,,,,,,376.54188505373895,None,378.0412252107635,None,379.4267409136519,None,gosh,379.4267409136519,None,return,2.130075979977846,379.5089973276481,None,,,,,,,,,,,,,,,,,,,,,,,,,,,,,,,,,,,,,,,183,001,2024_Mar_11_1659,SpeechDraft1Carolyn_lessNoise_PlusLocalization,2021.2.3,60.06200381414948,
chart.wav,chart.mpg,chart,4,AV,Pink_Noise_4_1.wav,Pink_Noise_4_2.wav,,,,,,,,,,,,,,,0,9,9,79,,,,,,,,,,,,,,,,,,,,,,,381.6584682231769,None,383.15822901483625,None,384.54167819581926,None,trash,384.54167819581926,None,return,2.4462122647091746,384.62485899124295,None,,,,,,,,,,,,,,,,,,,,,,,,,,,,,,,,,,,,,,,183,001,2024_Mar_11_1659,SpeechDraft1Carolyn_lessNoise_PlusLocalization,2021.2.3,60.06200381414948,
damp.wav,damp.mpg,damp,3,AV,Pink_Noise_3_1.wav,Pink_Noise_3_2.wav,,,,,,,,,,,,,,,0,10,10,95,,,,,,,,,,,,,,,,,,,,,,,387.0917539699003,None,388.5917280809954,None,389.97498274128884,None,depth,389.97498274128884,None,return,8.892574579454958,390.05848524253815,None,,,,,,,,,,,,,,,,,,,,,,,,,,,,,,,,,,,,,,,183,001,2024_Mar_11_1659,SpeechDraft1Carolyn_lessNoise_PlusLocalization,2021.2.3,60.06200381414948,
groan.wav,groan.mpg,groan,4,A,Pink_Noise_4_1.wav,Pink_Noise_4_2.wav,,,,,,,,,,,,,,,0,11,11,5,,,,,,,,,,,,,,,,,,,,,,,398.9751770189032,None,400.47470175102353,None,401.8584527000785,None,rose,401.8584527000785,None,return,2.46558933891356,401.9416786301881,None,,,,,,,,,,,,,,,,,,,,,,,,,,,,,,,,,,,,,,,183,001,2024_Mar_11_1659,SpeechDraft1Carolyn_lessNoise_PlusLocalization,2021.2.3,60.06200381414948,
bait.wav,bait.mpg,bait,6,A,Pink_Noise_6_1.wav,Pink_Noise_6_2.wav,,,,,,,,,,,,,,,0,12,12,24,,,,,,,,,,,,,,,,,,,,,,,404.42498114611953,None,405.92478434648365,None,407.2918612482026,None,"sick
",407.2918612482026,None,return,3.936193620786071,407.37489305995405,None,,,,,,,,,,,,,,,,,,,,,,,,,,,,,,,,,,,,,,,183,001,2024_Mar_11_1659,SpeechDraft1Carolyn_lessNoise_PlusLocalization,2021.2.3,60.06200381414948,
read.wav,read.mpg,read,6,AV,Pink_Noise_6_1.wav,Pink_Noise_6_2.wav,,,,,,,,,,,,,,,0,13,13,77,,,,,,,,,,,,,,,,,,,,,,,411.34186339657754,None,412.82512217666954,None,414.20837201178074,None,weak,414.20837201178074,None,return,7.947422788478434,414.29166882578284,None,,,,,,,,,,,,,,,,,,,,,,,,,,,,,,,,,,,,,,,183,001,2024_Mar_11_1659,SpeechDraft1Carolyn_lessNoise_PlusLocalization,2021.2.3,60.06200381414948,
boat.wav,boat.mpg,boat,5,AV,Pink_Noise_5_1.wav,Pink_Noise_5_2.wav,,,,,,,,,,,,,,,0,14,14,93,,,,,,,,,,,,,,,,,,,,,,,422.2583365505561,None,423.75820256210864,None,425.1418854119256,None,torch,425.1418854119256,None,return,2.374124431051314,425.2251124093309,None,,,,,,,,,,,,,,,,,,,,,,,,,,,,,,,,,,,,,,,183,001,2024_Mar_11_1659,SpeechDraft1Carolyn_lessNoise_PlusLocalization,2021.2.3,60.06200381414948,
crowd.wav,crowd.mpg,crowd,4,A,Pink_Noise_4_1.wav,Pink_Noise_4_2.wav,,,,,,,,,,,,,,,0,15,15,52,,,,,,,,,,,,,,,,,,,,,,,427.6251337407157,None,429.12513877172023,None,430.5086083272472,None,size,430.5086083272472,None,return,2.4073793180286884,430.5917424103245,None,,,,,,,,,,,,,,,,,,,,,,,,,,,,,,,,,,,,,,,183,001,2024_Mar_11_1659,SpeechDraft1Carolyn_lessNoise_PlusLocalization,2021.2.3,60.06200381414948,
flair.wav,flair.mpg,flair,1,AV,Pink_Noise_1_1.wav,Pink_Noise_1_2.wav,,,,,,,,,,,,,,,0,16,16,107,,,,,,,,,,,,,,,,,,,,,,,433.02518250979483,None,434.5090124690905,None,435.89168542809784,None,flare,435.89168542809784,None,return,1.6477262489497662,435.9753581788391,None,,,,,,,,,,,,,,,,,,,,,,,,,,,,,,,,,,,,,,,183,001,2024_Mar_11_1659,SpeechDraft1Carolyn_lessNoise_PlusLocalization,2021.2.3,60.06200381414948,
bell.wav,bell.mpg,bell,5,A,Pink_Noise_5_1.wav,Pink_Noise_5_2.wav,,,,,,,,,,,,,,,0,17,17,31,,,,,,,,,,,,,,,,,,,,,,,437.6417822577059,None,439.1415461366996,None,440.5251579126343,None,sound,440.5251579126343,None,return,2.2947293762117624,440.6083461390808,None,,,,,,,,,,,,,,,,,,,,,,,,,,,,,,,,,,,,,,,183,001,2024_Mar_11_1659,SpeechDraft1Carolyn_lessNoise_PlusLocalization,2021.2.3,60.06200381414948,
tart.wav,tart.mpg,tart,2,AV,Pink_Noise_2_1.wav,Pink_Noise_2_2.wav,,,,,,,,,,,,,,,0,18,18,117,,,,,,,,,,,,,,,,,,,,,,,442.92520425468683,None,444.40955286379904,None,445.79156400915235,None,tarte,445.79156400915235,None,return,2.5957940723747015,445.8752953046933,None,,,,,,,,,,,,,,,,,,,,,,,,,,,,,,,,,,,,,,,183,001,2024_Mar_11_1659,SpeechDraft1Carolyn_lessNoise_PlusLocalization,2021.2.3,60.06200381414948,
bite.wav,bite.mpg,bite,5,AV,Pink_Noise_5_1.wav,Pink_Noise_5_2.wav,,,,,,,,,,,,,,,0,19,19,116,,,,,,,,,,,,,,,,,,,,,,,448.4916207967326,None,449.99168531689793,None,451.3753005610779,None,butt,451.3753005610779,None,return,1.660722978413105,451.45832489896566,None,,,,,,,,,,,,,,,,,,,,,,,,,,,,,,,,,,,,,,,183,001,2024_Mar_11_1659,SpeechDraft1Carolyn_lessNoise_PlusLocalization,2021.2.3,60.06200381414948,
bust.wav,bust.mpg,bust,3,A,Pink_Noise_3_1.wav,Pink_Noise_3_2.wav,,,,,,,,,,,,,,,0,20,20,44,,,,,,,,,,,,,,,,,,,,,,,453.14199759904295,None,454.64135233312845,None,456.02508035767823,None,bust,456.02508035767823,None,return,1.1785414265468717,456.10851135477424,None,,,,,,,,,,,,,,,,,,,,,,,,,,,,,,,,,,,,,,,183,001,2024_Mar_11_1659,SpeechDraft1Carolyn_lessNoise_PlusLocalization,2021.2.3,60.06200381414948,
dove.wav,dove.mpg,dove,5,A,Pink_Noise_5_1.wav,Pink_Noise_5_2.wav,,,,,,,,,,,,,,,0,21,21,38,,,,,,,,,,,,,,,,,,,,,,,457.30826437752694,None,458.8082365896553,None,460.19206264056265,None,go,460.19206264056265,None,return,2.09201090130955,460.27509201783687,None,,,,,,,,,,,,,,,,,,,,,,,,,,,,,,,,,,,,,,,183,001,2024_Mar_11_1659,SpeechDraft1Carolyn_lessNoise_PlusLocalization,2021.2.3,60.06200381414948,
phase.wav,phase.mpg,phase,3,AV,Pink_Noise_3_1.wav,Pink_Noise_3_2.wav,,,,,,,,,,,,,,,0,22,22,72,,,,,,,,,,,,,,,,,,,,,,,462.39179577026516,None,463.8915612390265,None,465.2750024423003,None,face,465.2750024423003,None,return,1.8884519720450044,465.35870952159166,None,,,,,,,,,,,,,,,,,,,,,,,,,,,,,,,,,,,,,,,183,001,2024_Mar_11_1659,SpeechDraft1Carolyn_lessNoise_PlusLocalization,2021.2.3,60.06200381414948,
earn.wav,earn.mpg,earn,3,A,Pink_Noise_3_1.wav,Pink_Noise_3_2.wav,,,,,,,,,,,,,,,0,23,23,42,,,,,,,,,,,,,,,,,,,,,,,467.274939507246,None,468.75919052772224,None,470.1416684873402,None,bird,470.1416684873402,None,return,1.525844620540738,470.22521145269275,None,,,,,,,,,,,,,,,,,,,,,,,,,,,,,,,,,,,,,,,183,001,2024_Mar_11_1659,SpeechDraft1Carolyn_lessNoise_PlusLocalization,2021.2.3,60.06200381414948,
grave.wav,grave.mpg,grave,1,A,Pink_Noise_1_1.wav,Pink_Noise_1_2.wav,,,,,,,,,,,,,,,0,24,24,10,,,,,,,,,,,,,,,,,,,,,,,471.77514287177473,None,473.2748372554779,None,474.6585559193045,None,grave,474.6585559193045,None,return,2.273367960937321,474.7418214455247,None,,,,,,,,,,,,,,,,,,,,,,,,,,,,,,,,,,,,,,,183,001,2024_Mar_11_1659,SpeechDraft1Carolyn_lessNoise_PlusLocalization,2021.2.3,60.06200381414948,
blur.wav,blur.mpg,blur,1,AV,Pink_Noise_1_1.wav,Pink_Noise_1_2.wav,,,,,,,,,,,,,,,0,25,25,74,,,,,,,,,,,,,,,,,,,,,,,477.0421126661822,None,478.541347425431,None,479.92509742919356,None,blur,479.92509742919356,None,return,2.382577977143228,480.0085521535948,None,,,,,,,,,,,,,,,,,,,,,,,,,,,,,,,,,,,,,,,183,001,2024_Mar_11_1659,SpeechDraft1Carolyn_lessNoise_PlusLocalization,2021.2.3,60.06200381414948,
fee.wav,fee.mpg,fee,1,AV,Pink_Noise_1_1.wav,Pink_Noise_1_2.wav,,,,,,,,,,,,,,,0,26,26,105,,,,,,,,,,,,,,,,,,,,,,,482.40844428166747,None,483.9083572886884,None,485.29170170612633,None,"feet
",485.29170170612633,None,return,1.3520081276074052,485.3750595226884,None,,,,,,,,,,,,,,,,,,,,,,,,,,,,,,,,,,,,,,,183,001,2024_Mar_11_1659,SpeechDraft1Carolyn_lessNoise_PlusLocalization,2021.2.3,60.06200381414948,
row.wav,row.mpg,row,5,A,Pink_Noise_5_1.wav,Pink_Noise_5_2.wav,,,,,,,,,,,,,,,0,27,27,55,,,,,,,,,,,,,,,,,,,,,,,486.7585643241182,None,488.2584657454863,None,489.6420087106526,None,rose,489.6420087106526,None,return,1.4098223028704524,489.7252948367968,None,,,,,,,,,,,,,,,,,,,,,,,,,,,,,,,,,,,,,,,183,001,2024_Mar_11_1659,SpeechDraft1Carolyn_lessNoise_PlusLocalization,2021.2.3,60.06200381414948,
cheat.wav,cheat.mpg,cheat,6,A,Pink_Noise_6_1.wav,Pink_Noise_6_2.wav,,,,,,,,,,,,,,,0,28,28,49,,,,,,,,,,,,,,,,,,,,,,,491.1586407124996,None,492.65829584095627,None,494.02519447077066,None,she,494.02519447077066,None,return,2.562364990822971,494.1086908141151,None,,,,,,,,,,,,,,,,,,,,,,,,,,,,,,,,,,,,,,,183,001,2024_Mar_11_1659,SpeechDraft1Carolyn_lessNoise_PlusLocalization,2021.2.3,60.06200381414948,
duck.wav,duck.mpg,duck,4,AV,Pink_Noise_4_1.wav,Pink_Noise_4_2.wav,,,,,,,,,,,,,,,0,29,29,104,,,,,,,,,,,,,,,,,,,,,,,496.69185022078454,None,498.1919539272785,None,499.57524419389665,None,"suck
",499.57524419389665,None,return,1.5004198532551527,499.658657588996,None,,,,,,,,,,,,,,,,,,,,,,,,,,,,,,,,,,,,,,,183,001,2024_Mar_11_1659,SpeechDraft1Carolyn_lessNoise_PlusLocalization,2021.2.3,60.06200381414948,
grade.wav,grade.mpg,grade,1,A,Pink_Noise_1_1.wav,Pink_Noise_1_2.wav,,,,,,,,,,,,,,,0,30,30,21,,,,,,,,,,,,,,,,,,,,,,,501.1920002140105,None,502.69150035083294,None,504.0754475388676,None,grade,504.0754475388676,None,return,1.6407008050009608,504.1584162693471,None,,,,,,,,,,,,,,,,,,,,,,,,,,,,,,,,,,,,,,,183,001,2024_Mar_11_1659,SpeechDraft1Carolyn_lessNoise_PlusLocalization,2021.2.3,60.06200381414948,
curl.wav,curl.mpg,curl,3,A,Pink_Noise_3_1.wav,Pink_Noise_3_2.wav,,,,,,,,,,,,,,,0,31,31,22,,,,,,,,,,,,,,,,,,,,,,,505.8252026271075,None,507.32479777000844,None,508.70854021422565,None,curl,508.70854021422565,None,return,4.663095204159617,508.7920451397076,None,,,,,,,,,,,,,,,,,,,,,,,,,,,,,,,,,,,,,,,183,001,2024_Mar_11_1659,SpeechDraft1Carolyn_lessNoise_PlusLocalization,2021.2.3,60.06200381414948,
clip.wav,clip.mpg,clip,1,A,Pink_Noise_1_1.wav,Pink_Noise_1_2.wav,,,,,,,,,,,,,,,0,32,32,9,,,,,,,,,,,,,,,,,,,,,,,513.4751398190856,None,514.9750410262495,None,516.3585019195452,None,click,516.3585019195452,None,return,3.381129216402769,516.4419907238334,None,,,,,,,,,,,,,,,,,,,,,,,,,,,,,,,,,,,,,,,183,001,2024_Mar_11_1659,SpeechDraft1Carolyn_lessNoise_PlusLocalization,2021.2.3,60.06200381414948,
wet.wav,wet.mpg,wet,6,A,Pink_Noise_6_1.wav,Pink_Noise_6_2.wav,,,,,,,,,,,,,,,0,33,33,59,,,,,,,,,,,,,,,,,,,,,,,519.8420072058216,None,521.3418597076088,None,522.7250207290053,None,such,522.7250207290053,None,return,1.870640181005001,522.8084404040128,None,,,,,,,,,,,,,,,,,,,,,,,,,,,,,,,,,,,,,,,183,001,2024_Mar_11_1659,SpeechDraft1Carolyn_lessNoise_PlusLocalization,2021.2.3,60.06200381414948,
drive.wav,drive.mpg,drive,1,A,Pink_Noise_1_1.wav,Pink_Noise_1_2.wav,,,,,,,,,,,,,,,0,34,34,39,,,,,,,,,,,,,,,,,,,,,,,524.7087162351236,None,526.2082550926134,None,527.5920293014497,None,drive,527.5920293014497,None,return,1.3476373916491866,527.6754283551127,None,,,,,,,,,,,,,,,,,,,,,,,,,,,,,,,,,,,,,,,183,001,2024_Mar_11_1659,SpeechDraft1Carolyn_lessNoise_PlusLocalization,2021.2.3,60.06200381414948,
blond.wav,blond.mpg,blond,5,A,Pink_Noise_5_1.wav,Pink_Noise_5_2.wav,,,,,,,,,,,,,,,0,35,35,23,,,,,,,,,,,,,,,,,,,,,,,529.0420639039949,None,530.5415814537555,None,531.925206836313,None,flood,531.925206836313,None,return,1.7825113609433174,532.00865136832,None,,,,,,,,,,,,,,,,,,,,,,,,,,,,,,,,,,,,,,,183,001,2024_Mar_11_1659,SpeechDraft1Carolyn_lessNoise_PlusLocalization,2021.2.3,60.06200381414948,
draft.wav,draft.mpg,draft,6,A,Pink_Noise_6_1.wav,Pink_Noise_6_2.wav,,,,,,,,,,,,,,,0,36,36,51,,,,,,,,,,,,,,,,,,,,,,,533.8086756607518,None,535.3081458695233,None,536.6919998386875,None,rudh,536.6919998386875,None,return,3.8638437800109386,536.7752867285162,None,,,,,,,,,,,,,,,,,,,,,,,,,,,,,,,,,,,,,,,183,001,2024_Mar_11_1659,SpeechDraft1Carolyn_lessNoise_PlusLocalization,2021.2.3,60.06200381414948,
cheap.wav,cheap.mpg,cheap,2,AV,Pink_Noise_2_1.wav,Pink_Noise_2_2.wav,,,,,,,,,,,,,,,0,37,37,81,,,,,,,,,,,,,,,,,,,,,,,540.6584635628387,None,542.1580709069967,None,543.542113320902,None,"cheap
",543.542113320902,None,return,1.8858387656509876,543.6252011358738,None,,,,,,,,,,,,,,,,,,,,,,,,,,,,,,,,,,,,,,,183,001,2024_Mar_11_1659,SpeechDraft1Carolyn_lessNoise_PlusLocalization,2021.2.3,60.06200381414948,
fist.wav,fist.mpg,fist,6,AV,Pink_Noise_6_1.wav,Pink_Noise_6_2.wav,,,,,,,,,,,,,,,0,38,38,115,,,,,,,,,,,,,,,,,,,,,,,545.5419275034219,None,547.0415615690872,None,548.4253169801086,None,fist,548.4253169801086,None,return,1.8419530922546983,548.5090972976759,None,,,,,,,,,,,,,,,,,,,,,,,,,,,,,,,,,,,,,,,183,001,2024_Mar_11_1659,SpeechDraft1Carolyn_lessNoise_PlusLocalization,2021.2.3,60.06200381414948,
dirt.wav,dirt.mpg,dirt,5,A,Pink_Noise_5_1.wav,Pink_Noise_5_2.wav,,,,,,,,,,,,,,,0,39,39,46,,,,,,,,,,,,,,,,,,,,,,,550.3754332112148,None,551.8749838471413,None,553.2585284374654,None,trush,553.2585284374654,None,return,2.921284125186503,553.3417760450393,None,,,,,,,,,,,,,,,,,,,,,,,,,,,,,,,,,,,,,,,183,001,2024_Mar_11_1659,SpeechDraft1Carolyn_lessNoise_PlusLocalization,2021.2.3,60.06200381414948,
damn.wav,damn.mpg,damn,6,AV,Pink_Noise_6_1.wav,Pink_Noise_6_2.wav,,,,,,,,,,,,,,,0,40,40,61,,,,,,,,,,,,,,,,,,,,,,,556.2917931554839,None,557.7914882367477,None,559.1754340948537,None,say,559.1754340948537,None,return,1.6206041667610407,559.2584620593116,None,,,,,,,,,,,,,,,,,,,,,,,,,,,,,,,,,,,,,,,183,001,2024_Mar_11_1659,SpeechDraft1Carolyn_lessNoise_PlusLocalization,2021.2.3,60.06200381414948,
fast.wav,fast.mpg,fast,3,A,Pink_Noise_3_1.wav,Pink_Noise_3_2.wav,,,,,,,,,,,,,,,0,41,41,13,,,,,,,,,,,,,,,,,,,,,,,560.9086625277996,None,562.4084070194513,None,563.7919899802655,None,fast,563.7919899802655,None,return,2.795807068236172,563.8752755867317,None,,,,,,,,,,,,,,,,,,,,,,,,,,,,,,,,,,,,,,,183,001,2024_Mar_11_1659,SpeechDraft1Carolyn_lessNoise_PlusLocalization,2021.2.3,60.06200381414948,
core.wav,core.mpg,core,4,A,Pink_Noise_4_1.wav,Pink_Noise_4_2.wav,,,,,,,,,,,,,,,0,42,42,11,,,,,,,,,,,,,,,,,,,,,,,566.6920670038089,None,568.1919804653153,None,569.5753811718896,None,core,569.5753811718896,None,return,1.8605967285111547,569.6584487305954,None,,,,,,,,,,,,,,,,,,,,,,,,,,,,,,,,,,,,,,,183,001,2024_Mar_11_1659,SpeechDraft1Carolyn_lessNoise_PlusLocalization,2021.2.3,60.06200381414948,
cap.wav,cap.mpg,cap,4,AV,Pink_Noise_4_1.wav,Pink_Noise_4_2.wav,,,,,,,,,,,,,,,0,43,43,73,,,,,,,,,,,,,,,,,,,,,,,571.5420482065529,None,573.041625010781,None,574.4251988083124,None,"cap
",574.4251988083124,None,return,2.7864100113511086,574.50865310058,None,,,,,,,,,,,,,,,,,,,,,,,,,,,,,,,,,,,,,,,183,001,2024_Mar_11_1659,SpeechDraft1Carolyn_lessNoise_PlusLocalization,2021.2.3,60.06200381414948,
mold.wav,mold.mpg,mold,4,AV,Pink_Noise_4_1.wav,Pink_Noise_4_2.wav,,,,,,,,,,,,,,,0,44,44,67,,,,,,,,,,,,,,,,,,,,,,,577.3254028651863,None,578.8250641124323,None,580.2086008852348,None,bowl,580.2086008852348,None,return,3.27517123054713,580.2918626787141,None,,,,,,,,,,,,,,,,,,,,,,,,,,,,,,,,,,,,,,,183,001,2024_Mar_11_1659,SpeechDraft1Carolyn_lessNoise_PlusLocalization,2021.2.3,60.06200381414948,
truck.wav,truck.mpg,truck,3,AV,Pink_Noise_3_1.wav,Pink_Noise_3_2.wav,,,,,,,,,,,,,,,0,45,45,91,,,,,,,,,,,,,,,,,,,,,,,583.5919177653268,None,585.0918598109856,None,586.475149858743,None,truck,586.475149858743,None,return,1.8965341206640005,586.5585742648691,None,,,,,,,,,,,,,,,,,,,,,,,,,,,,,,,,,,,,,,,183,001,2024_Mar_11_1659,SpeechDraft1Carolyn_lessNoise_PlusLocalization,2021.2.3,60.06200381414948,
curve.wav,curve.mpg,curve,3,AV,Pink_Noise_3_1.wav,Pink_Noise_3_2.wav,,,,,,,,,,,,,,,0,46,46,60,,,,,,,,,,,,,,,,,,,,,,,588.475253126584,None,589.9754972551018,None,591.3588565299287,None,curve,591.3588565299287,None,return,2.4048525290563703,591.44220921956,None,,,,,,,,,,,,,,,,,,,,,,,,,,,,,,,,,,,,,,,183,001,2024_Mar_11_1659,SpeechDraft1Carolyn_lessNoise_PlusLocalization,2021.2.3,60.06200381414948,
frail.wav,frail.mpg,frail,1,A,Pink_Noise_1_1.wav,Pink_Noise_1_2.wav,,,,,,,,,,,,,,,0,47,47,29,,,,,,,,,,,,,,,,,,,,,,,593.8752687200904,None,595.3916208520532,None,596.7754201209173,None,fraid,596.7754201209173,None,return,4.124318229034543,596.8587435279042,None,,,,,,,,,,,,,,,,,,,,,,,,,,,,,,,,,,,,,,,183,001,2024_Mar_11_1659,SpeechDraft1Carolyn_lessNoise_PlusLocalization,2021.2.3,60.06200381414948,
blend.wav,blend.mpg,blend,6,AV,Pink_Noise_6_1.wav,Pink_Noise_6_2.wav,,,,,,,,,,,,,,,0,48,48,76,,,,,,,,,,,,,,,,,,,,,,,601.008685101755,None,602.5087147075683,None,603.891874271445,None,flush,603.891874271445,None,return,1.615918232128024,603.9752937853336,None,,,,,,,,,,,,,,,,,,,,,,,,,,,,,,,,,,,,,,,183,001,2024_Mar_11_1659,SpeechDraft1Carolyn_lessNoise_PlusLocalization,2021.2.3,60.06200381414948,
food.wav,food.mpg,food,1,AV,Pink_Noise_1_1.wav,Pink_Noise_1_2.wav,,,,,,,,,,,,,,,0,49,49,119,,,,,,,,,,,,,,,,,,,,,,,605.6087800571695,None,607.1085641123354,None,608.4918733723462,None,food,608.4918733723462,None,return,1.0316876471042633,608.5754745639861,None,,,,,,,,,,,,,,,,,,,,,,,,,,,,,,,,,,,,,,,183,001,2024_Mar_11_1659,SpeechDraft1Carolyn_lessNoise_PlusLocalization,2021.2.3,60.06200381414948,
blood.wav,blood.mpg,blood,4,A,Pink_Noise_4_1.wav,Pink_Noise_4_2.wav,,,,,,,,,,,,,,,0,50,50,47,,,,,,,,,,,,,,,,,,,,,,,609.6254735840484,None,611.1251346794888,None,612.5087744640186,None,"flood
",612.5087744640186,None,return,1.3189419507980347,612.5921230567619,None,,,,,,,,,,,,,,,,,,,,,,,,,,,,,,,,,,,,,,,183,001,2024_Mar_11_1659,SpeechDraft1Carolyn_lessNoise_PlusLocalization,2021.2.3,60.06200381414948,
unit.wav,unit.mpg,unit,6,A,Pink_Noise_6_1.wav,Pink_Noise_6_2.wav,,,,,,,,,,,,,,,0,51,51,19,,,,,,,,,,,,,,,,,,,,,,,613.9420367702842,None,615.4416840272024,None,616.8254703897983,None,"tush
",616.8254703897983,None,return,4.218390364199877,616.9086703537032,None,,,,,,,,,,,,,,,,,,,,,,,,,,,,,,,,,,,,,,,183,001,2024_Mar_11_1659,SpeechDraft1Carolyn_lessNoise_PlusLocalization,2021.2.3,60.06200381414948,
fear.wav,fear.mpg,fear,6,A,Pink_Noise_6_1.wav,Pink_Noise_6_2.wav,,,,,,,,,,,,,,,0,52,52,18,,,,,,,,,,,,,,,,,,,,,,,621.1585797462612,None,622.6585374502465,None,624.0421867491677,None,"lake
",624.0421867491677,None,return,1.5858040181919932,624.1252627372742,None,,,,,,,,,,,,,,,,,,,,,,,,,,,,,,,,,,,,,,,183,001,2024_Mar_11_1659,SpeechDraft1Carolyn_lessNoise_PlusLocalization,2021.2.3,60.06200381414948,
feed.wav,feed.mpg,feed,5,AV,Pink_Noise_5_1.wav,Pink_Noise_5_2.wav,,,,,,,,,,,,,,,0,53,53,75,,,,,,,,,,,,,,,,,,,,,,,625.7420634524897,None,627.241935803555,None,628.625307017006,None,win,628.625307017006,None,return,2.930226364172995,628.7089338339865,None,,,,,,,,,,,,,,,,,,,,,,,,,,,,,,,,,,,,,,,183,001,2024_Mar_11_1659,SpeechDraft1Carolyn_lessNoise_PlusLocalization,2021.2.3,60.06200381414948,
care.wav,care.mpg,care,2,AV,Pink_Noise_2_1.wav,Pink_Noise_2_2.wav,,,,,,,,,,,,,,,0,54,54,86,,,,,,,,,,,,,,,,,,,,,,,631.6587538141757,None,633.1584266638383,None,634.5583134228364,None,care,634.5583134228364,None,return,2.0935235964134336,634.6255299067125,None,,,,,,,,,,,,,,,,,,,,,,,,,,,,,,,,,,,,,,,183,001,2024_Mar_11_1659,SpeechDraft1Carolyn_lessNoise_PlusLocalization,2021.2.3,60.06200381414948,
fine.wav,fine.mpg,fine,5,A,Pink_Noise_5_1.wav,Pink_Noise_5_2.wav,,,,,,,,,,,,,,,0,55,55,3,,,,,,,,,,,,,,,,,,,,,,,636.742076030001,None,638.2416752418503,None,639.625292448327,None,thrive,639.625292448327,None,return,2.2423009797930717,639.7087588272989,None,,,,,,,,,,,,,,,,,,,,,,,,,,,,,,,,,,,,,,,183,001,2024_Mar_11_1659,SpeechDraft1Carolyn_lessNoise_PlusLocalization,2021.2.3,60.06200381414948,
wine.wav,wine.mpg,wine,1,AV,Pink_Noise_1_1.wav,Pink_Noise_1_2.wav,,,,,,,,,,,,,,,0,56,56,114,,,,,,,,,,,,,,,,,,,,,,,641.9755312474445,None,643.4752850933,None,644.8587541105226,None,wine,644.8587541105226,None,return,1.6249662302434444,644.9420888023451,None,,,,,,,,,,,,,,,,,,,,,,,,,,,,,,,,,,,,,,,183,001,2024_Mar_11_1659,SpeechDraft1Carolyn_lessNoise_PlusLocalization,2021.2.3,60.06200381414948,
crude.wav,crude.mpg,crude,4,AV,Pink_Noise_4_1.wav,Pink_Noise_4_2.wav,,,,,,,,,,,,,,,0,57,57,112,,,,,,,,,,,,,,,,,,,,,,,646.5921373497695,None,648.0919548580423,None,649.4752454049885,None,"cush
",649.4752454049885,None,return,1.7842434579506516,649.5588313899934,None,,,,,,,,,,,,,,,,,,,,,,,,,,,,,,,,,,,,,,,183,001,2024_Mar_11_1659,SpeechDraft1Carolyn_lessNoise_PlusLocalization,2021.2.3,60.06200381414948,
chew.wav,chew.mpg,chew,2,A,Pink_Noise_2_1.wav,Pink_Noise_2_2.wav,,,,,,,,,,,,,,,0,58,58,28,,,,,,,,,,,,,,,,,,,,,,,651.3754727467895,None,652.8916975185275,None,654.2586975581944,None,"chew
",654.2586975581944,None,return,1.1050368305295706,654.3420633999631,None,,,,,,,,,,,,,,,,,,,,,,,,,,,,,,,,,,,,,,,183,001,2024_Mar_11_1659,SpeechDraft1Carolyn_lessNoise_PlusLocalization,2021.2.3,60.06200381414948,
gaze.wav,gaze.mpg,gaze,5,A,Pink_Noise_5_1.wav,Pink_Noise_5_2.wav,,,,,,,,,,,,,,,0,59,59,12,,,,,,,,,,,,,,,,,,,,,,,655.4754475057125,None,656.9752075849101,None,658.3588568232954,None,face,658.3588568232954,None,return,2.676952302455902,658.4421363556758,None,,,,,,,,,,,,,,,,,,,,,,,,,,,,,,,,,,,,,,,183,001,2024_Mar_11_1659,SpeechDraft1Carolyn_lessNoise_PlusLocalization,2021.2.3,60.06200381414948,
wear.wav,wear.mpg,wear,2,A,Pink_Noise_2_1.wav,Pink_Noise_2_2.wav,,,,,,,,,,,,,,,0,60,60,8,,,,,,,,,,,,,,,,,,,,,,,661.1419869204983,None,662.6418303698301,None,664.025493898429,None,claire,664.025493898429,None,return,2.4103499753400683,664.1087108096108,None,,,,,,,,,,,,,,,,,,,,,,,,,,,,,,,,,,,,,,,183,001,2024_Mar_11_1659,SpeechDraft1Carolyn_lessNoise_PlusLocalization,2021.2.3,60.06200381414948,
east.wav,east.mpg,east,5,AV,Pink_Noise_5_1.wav,Pink_Noise_5_2.wav,,,,,,,,,,,,,,,0,61,61,78,,,,,,,,,,,,,,,,,,,,,,,666.5422162730247,None,668.0419202474877,None,669.4253987139091,None,hist,669.4253987139091,None,return,2.082317104563117,669.5088221356273,None,,,,,,,,,,,,,,,,,,,,,,,,,,,,,,,,,,,,,,,183,001,2024_Mar_11_1659,SpeechDraft1Carolyn_lessNoise_PlusLocalization,2021.2.3,60.06200381414948,
bowl.wav,bowl.mpg,bowl,6,AV,Pink_Noise_6_1.wav,Pink_Noise_6_2.wav,,,,,,,,,,,,,,,0,62,62,70,,,,,,,,,,,,,,,,,,,,,,,671.608765034005,None,673.1093350918964,None,674.492249391973,None,bow,674.492249391973,None,return,1.9916916051879525,674.575362582691,None,,,,,,,,,,,,,,,,,,,,,,,,,,,,,,,,,,,,,,,183,001,2024_Mar_11_1659,SpeechDraft1Carolyn_lessNoise_PlusLocalization,2021.2.3,60.06200381414948,
mass.wav,mass.mpg,mass,4,AV,Pink_Noise_4_1.wav,Pink_Noise_4_2.wav,,,,,,,,,,,,,,,0,63,63,110,,,,,,,,,,,,,,,,,,,,,,,676.5921150371432,None,678.091793465428,None,679.4752383306623,None,"mess
",679.4752383306623,None,return,0.9842147976160049,679.5588530795649,None,,,,,,,,,,,,,,,,,,,,,,,,,,,,,,,,,,,,,,,183,001,2024_Mar_11_1659,SpeechDraft1Carolyn_lessNoise_PlusLocalization,2021.2.3,60.06200381414948,
grill.wav,grill.mpg,grill,3,AV,Pink_Noise_3_1.wav,Pink_Noise_3_2.wav,,,,,,,,,,,,,,,0,64,64,65,,,,,,,,,,,,,,,,,,,,,,,680.5753164440393,None,682.075229940936,None,683.4589319964871,None,growth,683.4589319964871,None,return,2.5289686396718025,683.5421581510454,None,,,,,,,,,,,,,,,,,,,,,,,,,,,,,,,,,,,,,,,183,001,2024_Mar_11_1659,SpeechDraft1Carolyn_lessNoise_PlusLocalization,2021.2.3,60.06200381414948,
club.wav,club.mpg,club,2,AV,Pink_Noise_2_1.wav,Pink_Noise_2_2.wav,,,,,,,,,,,,,,,0,65,65,66,,,,,,,,,,,,,,,,,,,,,,,686.0920315552503,None,687.591990117915,None,688.9755600672215,None,"club
",688.9755600672215,None,return,1.4363362472504377,689.0587515160441,None,,,,,,,,,,,,,,,,,,,,,,,,,,,,,,,,,,,,,,,183,001,2024_Mar_11_1659,SpeechDraft1Carolyn_lessNoise_PlusLocalization,2021.2.3,60.06200381414948,
chant.wav,chant.mpg,chant,6,AV,Pink_Noise_6_1.wav,Pink_Noise_6_2.wav,,,,,,,,,,,,,,,0,66,66,71,,,,,,,,,,,,,,,,,,,,,,,690.5255811400712,None,692.0258022053167,None,693.4087418932468,None,chash,693.4087418932468,None,return,4.482903462834656,693.4922731695697,None,,,,,,,,,,,,,,,,,,,,,,,,,,,,,,,,,,,,,,,183,001,2024_Mar_11_1659,SpeechDraft1Carolyn_lessNoise_PlusLocalization,2021.2.3,60.06200381414948,
bring.wav,bring.mpg,bring,5,AV,Pink_Noise_5_1.wav,Pink_Noise_5_2.wav,,,,,,,,,,,,,,,0,67,67,111,,,,,,,,,,,,,,,,,,,,,,,697.9921915065497,None,699.4917121147737,None,700.8755829427391,None,grill,700.8755829427391,None,return,5.232513780705631,700.9586602849886,None,,,,,,,,,,,,,,,,,,,,,,,,,,,,,,,,,,,,,,,183,001,2024_Mar_11_1659,SpeechDraft1Carolyn_lessNoise_PlusLocalization,2021.2.3,60.06200381414948,
drop.wav,drop.mpg,drop,4,A,Pink_Noise_4_1.wav,Pink_Noise_4_2.wav,,,,,,,,,,,,,,,0,68,68,45,,,,,,,,,,,,,,,,,,,,,,,706.208888232708,None,707.7094882829115,None,709.0921886637807,None,trush,709.0921886637807,None,return,1.8558067716658115,709.1753642875701,None,,,,,,,,,,,,,,,,,,,,,,,,,,,,,,,,,,,,,,,183,001,2024_Mar_11_1659,SpeechDraft1Carolyn_lessNoise_PlusLocalization,2021.2.3,60.06200381414948,
fluent.wav,fluent.mpg,fluent,6,AV,Pink_Noise_6_1.wav,Pink_Noise_6_2.wav,,,,,,,,,,,,,,,0,69,69,89,,,,,,,,,,,,,,,,,,,,,,,711.0587464915588,None,712.5586471734568,None,713.9419956589118,None,roller,713.9419956589118,None,return,1.9096900215372443,714.0253637293354,None,,,,,,,,,,,,,,,,,,,,,,,,,,,,,,,,,,,,,,,183,001,2024_Mar_11_1659,SpeechDraft1Carolyn_lessNoise_PlusLocalization,2021.2.3,60.06200381414948,
cliff.wav,cliff.mpg,cliff,2,AV,Pink_Noise_2_1.wav,Pink_Noise_2_2.wav,,,,,,,,,,,,,,,0,70,70,87,,,,,,,,,,,,,,,,,,,,,,,715.9588527865708,None,717.4584854356945,None,718.8419061172754,None,click,718.8419061172754,None,return,5.809570561163127,718.9254813594744,None,,,,,,,,,,,,,,,,,,,,,,,,,,,,,,,,,,,,,,,183,001,2024_Mar_11_1659,SpeechDraft1Carolyn_lessNoise_PlusLocalization,2021.2.3,60.06200381414948,
bull.wav,bull.mpg,bull,2,AV,Pink_Noise_2_1.wav,Pink_Noise_2_2.wav,,,,,,,,,,,,,,,0,71,71,82,,,,,,,,,,,,,,,,,,,,,,,724.7588173784316,None,726.2595589635894,None,727.642165360041,None,bow,727.642165360041,None,return,2.265622926875949,727.725515557453,None,,,,,,,,,,,,,,,,,,,,,,,,,,,,,,,,,,,,,,,183,001,2024_Mar_11_1659,SpeechDraft1Carolyn_lessNoise_PlusLocalization,2021.2.3,60.06200381414948,
grain.wav,grain.mpg,grain,2,A,Pink_Noise_2_1.wav,Pink_Noise_2_2.wav,,,,,,,,,,,,,,,0,72,72,7,,,,,,,,,,,,,,,,,,,,,,,730.009255323559,None,731.5253491541371,None,732.9090762929991,None,"grant
",732.9090762929991,None,return,1.3668815307319164,732.9921822985634,None,,,,,,,,,,,,,,,,,,,,,,,,,,,,,,,,,,,,,,,183,001,2024_Mar_11_1659,SpeechDraft1Carolyn_lessNoise_PlusLocalization,2021.2.3,60.06200381414948,
bread.wav,bread.mpg,bread,1,A,Pink_Noise_1_1.wav,Pink_Noise_1_2.wav,,,,,,,,,,,,,,,0,73,73,20,,,,,,,,,,,,,,,,,,,,,,,734.3921370012686,None,735.8917776392773,None,737.2754443818703,None,bread,737.2754443818703,None,return,1.5600963812321424,737.3589744558558,None,,,,,,,,,,,,,,,,,,,,,,,,,,,,,,,,,,,,,,,183,001,2024_Mar_11_1659,SpeechDraft1Carolyn_lessNoise_PlusLocalization,2021.2.3,60.06200381414948,
flight.wav,flight.mpg,flight,2,A,Pink_Noise_2_1.wav,Pink_Noise_2_2.wav,,,,,,,,,,,,,,,0,74,74,34,,,,,,,,,,,,,,,,,,,,,,,738.9422505451366,None,740.4418777469546,None,741.8256127135828,None,light,741.8256127135828,None,return,11.442224571481347,741.9088258482516,None,,,,,,,,,,,,,,,,,,,,,,,,,,,,,,,,,,,,,,,183,001,2024_Mar_11_1659,SpeechDraft1Carolyn_lessNoise_PlusLocalization,2021.2.3,60.06200381414948,
thief.wav,thief.mpg,thief,1,A,Pink_Noise_1_1.wav,Pink_Noise_1_2.wav,,,,,,,,,,,,,,,0,75,75,15,,,,,,,,,,,,,,,,,,,,,,,753.3755655717105,None,754.8757240632549,None,756.2588387122378,None,feet,756.2588387122378,None,return,7.808942578732967,756.3421132583171,None,,,,,,,,,,,,,,,,,,,,,,,,,,,,,,,,,,,,,,,183,001,2024_Mar_11_1659,SpeechDraft1Carolyn_lessNoise_PlusLocalization,2021.2.3,60.06200381414948,
greed.wav,greed.mpg,greed,4,A,Pink_Noise_4_1.wav,Pink_Noise_4_2.wav,,,,,,,,,,,,,,,0,76,76,43,,,,,,,,,,,,,,,,,,,,,,,764.1755049526691,None,765.6751580620185,None,767.0590522680432,None,freeze,767.0590522680432,None,return,6.960827016271651,767.1422556517646,None,,,,,,,,,,,,,,,,,,,,,,,,,,,,,,,,,,,,,,,183,001,2024_Mar_11_1659,SpeechDraft1Carolyn_lessNoise_PlusLocalization,2021.2.3,60.06200381414948,
bib.wav,bib.mpg,bib,3,A,Pink_Noise_3_1.wav,Pink_Noise_3_2.wav,,,,,,,,,,,,,,,0,77,77,0,,,,,,,,,,,,,,,,,,,,,,,774.1256640525535,None,775.6419883426279,None,777.0089472662657,None,fish,777.0089472662657,None,return,6.730785107240081,777.0922840768471,None,,,,,,,,,,,,,,,,,,,,,,,,,,,,,,,,,,,,,,,183,001,2024_Mar_11_1659,SpeechDraft1Carolyn_lessNoise_PlusLocalization,2021.2.3,60.06200381414948,
budge.wav,budge.mpg,budge,3,AV,Pink_Noise_3_1.wav,Pink_Noise_3_2.wav,,,,,,,,,,,,,,,0,78,78,85,,,,,,,,,,,,,,,,,,,,,,,783.842340121977,None,785.3585160560906,None,786.7424021111801,None,buch,786.7424021111801,None,return,4.077605629339814,786.8254530010745,None,,,,,,,,,,,,,,,,,,,,,,,,,,,,,,,,,,,,,,,183,001,2024_Mar_11_1659,SpeechDraft1Carolyn_lessNoise_PlusLocalization,2021.2.3,60.06200381414948,
crime.wav,crime.mpg,crime,1,A,Pink_Noise_1_1.wav,Pink_Noise_1_2.wav,,,,,,,,,,,,,,,0,79,79,40,,,,,,,,,,,,,,,,,,,,,,,790.9255855260417,None,792.4419508790597,None,793.8090393580496,None,kind,793.8090393580496,None,return,1.946638341061771,793.8925208589062,None,,,,,,,,,,,,,,,,,,,,,,,,,,,,,,,,,,,,,,,183,001,2024_Mar_11_1659,SpeechDraft1Carolyn_lessNoise_PlusLocalization,2021.2.3,60.06200381414948,
edge.wav,edge.mpg,edge,2,A,Pink_Noise_2_1.wav,Pink_Noise_2_2.wav,,,,,,,,,,,,,,,0,80,80,57,,,,,,,,,,,,,,,,,,,,,,,795.8588873334229,None,797.3586490219459,None,798.7420884175226,None,"edge
",798.7420884175226,None,return,1.2853703387081623,798.8256973419338,None,,,,,,,,,,,,,,,,,,,,,,,,,,,,,,,,,,,,,,,183,001,2024_Mar_11_1659,SpeechDraft1Carolyn_lessNoise_PlusLocalization,2021.2.3,60.06200381414948,
bare.wav,bare.mpg,bare,4,AV,Pink_Noise_4_1.wav,Pink_Noise_4_2.wav,,,,,,,,,,,,,,,0,81,81,94,,,,,,,,,,,,,,,,,,,,,,,800.1423200974241,None,801.6420319955796,None,803.0254469998181,None,bear,803.0254469998181,None,return,1.4662009868770838,803.1089722458273,None,,,,,,,,,,,,,,,,,,,,,,,,,,,,,,,,,,,,,,,183,001,2024_Mar_11_1659,SpeechDraft1Carolyn_lessNoise_PlusLocalization,2021.2.3,60.06200381414948,
jeep.wav,jeep.mpg,jeep,1,AV,Pink_Noise_1_1.wav,Pink_Noise_1_2.wav,,,,,,,,,,,,,,,0,82,82,102,,,,,,,,,,,,,,,,,,,,,,,804.6087291911244,None,806.1252232501283,None,807.4922771677375,None,jeep,807.4922771677375,None,return,2.463520952500403,807.575571606867,None,,,,,,,,,,,,,,,,,,,,,,,,,,,,,,,,,,,,,,,183,001,2024_Mar_11_1659,SpeechDraft1Carolyn_lessNoise_PlusLocalization,2021.2.3,60.06200381414948,
else.wav,else.mpg,else,1,AV,Pink_Noise_1_1.wav,Pink_Noise_1_2.wav,,,,,,,,,,,,,,,0,83,83,92,,,,,,,,,,,,,,,,,,,,,,,810.0593420863152,None,811.5587220462039,None,812.9425019193441,None,else,812.9425019193441,None,return,1.2052728673443198,813.025780194439,None,,,,,,,,,,,,,,,,,,,,,,,,,,,,,,,,,,,,,,,183,001,2024_Mar_11_1659,SpeechDraft1Carolyn_lessNoise_PlusLocalization,2021.2.3,60.06200381414948,
grind.wav,grind.mpg,grind,1,A,Pink_Noise_1_1.wav,Pink_Noise_1_2.wav,,,,,,,,,,,,,,,0,84,84,2,,,,,,,,,,,,,,,,,,,,,,,814.259095735848,None,815.7585278507322,None,817.1423881258816,None,"grind
",817.1423881258816,None,return,1.5013806410133839,817.2256748788059,None,,,,,,,,,,,,,,,,,,,,,,,,,,,,,,,,,,,,,,,183,001,2024_Mar_11_1659,SpeechDraft1Carolyn_lessNoise_PlusLocalization,2021.2.3,60.06200381414948,
grin.wav,grin.mpg,grin,5,AV,Pink_Noise_5_1.wav,Pink_Noise_5_2.wav,,,,,,,,,,,,,,,0,85,85,88,,,,,,,,,,,,,,,,,,,,,,,818.7590180505067,None,820.2588072856888,None,821.6421411875635,None,"rick
",821.6421411875635,None,return,4.201309367083013,821.7257614899427,None,,,,,,,,,,,,,,,,,,,,,,,,,,,,,,,,,,,,,,,183,001,2024_Mar_11_1659,SpeechDraft1Carolyn_lessNoise_PlusLocalization,2021.2.3,60.06200381414948,
shrimp.wav,shrimp.mpg,shrimp,3,AV,Pink_Noise_3_1.wav,Pink_Noise_3_2.wav,,,,,,,,,,,,,,,0,86,86,106,,,,,,,,,,,,,,,,,,,,,,,825.959013373591,None,827.475368800573,None,828.8420676216483,None,shred,828.8420676216483,None,return,4.29729977902025,828.9258065028116,None,,,,,,,,,,,,,,,,,,,,,,,,,,,,,,,,,,,,,,,183,001,2024_Mar_11_1659,SpeechDraft1Carolyn_lessNoise_PlusLocalization,2021.2.3,60.06200381414948,
break.wav,break.mpg,break,5,AV,Pink_Noise_5_1.wav,Pink_Noise_5_2.wav,,,,,,,,,,,,,,,0,87,87,113,,,,,,,,,,,,,,,,,,,,,,,833.2426210492849,None,834.7591661922634,None,836.142308796756,None,break,836.142308796756,None,return,2.0053426744416356,836.2258304581046,None,,,,,,,,,,,,,,,,,,,,,,,,,,,,,,,,,,,,,,,183,001,2024_Mar_11_1659,SpeechDraft1Carolyn_lessNoise_PlusLocalization,2021.2.3,60.06200381414948,
ghost.wav,ghost.mpg,ghost,4,A,Pink_Noise_4_1.wav,Pink_Noise_4_2.wav,,,,,,,,,,,,,,,0,88,88,48,,,,,,,,,,,,,,,,,,,,,,,838.2590649034828,None,839.7587275337428,None,841.1422478929162,None,toast,841.1422478929162,None,return,1.7815311877056956,841.2255998430774,None,,,,,,,,,,,,,,,,,,,,,,,,,,,,,,,,,,,,,,,183,001,2024_Mar_11_1659,SpeechDraft1Carolyn_lessNoise_PlusLocalization,2021.2.3,60.06200381414948,
chow.wav,chow.mpg,chow,6,AV,Pink_Noise_6_1.wav,Pink_Noise_6_2.wav,,,,,,,,,,,,,,,0,89,89,83,,,,,,,,,,,,,,,,,,,,,,,843.0256304461509,None,844.5422308314592,None,845.9256916139275,None,"child
",845.9256916139275,None,return,1.950188404880464,846.008869512938,None,,,,,,,,,,,,,,,,,,,,,,,,,,,,,,,,,,,,,,,183,001,2024_Mar_11_1659,SpeechDraft1Carolyn_lessNoise_PlusLocalization,2021.2.3,60.06200381414948,
cloth.wav,cloth.mpg,cloth,3,AV,Pink_Noise_3_1.wav,Pink_Noise_3_2.wav,,,,,,,,,,,,,,,0,90,90,118,,,,,,,,,,,,,,,,,,,,,,,847.9923919215798,None,849.4921285342425,None,850.8755824128166,None,clock,850.8755824128166,None,return,2.040028284303844,850.9591647330672,None,,,,,,,,,,,,,,,,,,,,,,,,,,,,,,,,,,,,,,,183,001,2024_Mar_11_1659,SpeechDraft1Carolyn_lessNoise_PlusLocalization,2021.2.3,60.06200381414948,
bald.wav,bald.mpg,bald,3,A,Pink_Noise_3_1.wav,Pink_Noise_3_2.wav,,,,,,,,,,,,,,,0,91,91,36,,,,,,,,,,,,,,,,,,,,,,,853.0257644448429,None,854.5420431280509,None,855.9258010545745,None,false,855.9258010545745,None,return,3.293788807466626,856.0092811174691,None,,,,,,,,,,,,,,,,,,,,,,,,,,,,,,,,,,,,,,,183,001,2024_Mar_11_1659,SpeechDraft1Carolyn_lessNoise_PlusLocalization,2021.2.3,60.06200381414948,
drain.wav,drain.mpg,drain,4,A,Pink_Noise_4_1.wav,Pink_Noise_4_2.wav,,,,,,,,,,,,,,,0,92,92,16,,,,,,,,,,,,,,,,,,,,,,,859.325677392073,None,860.8253398379311,None,862.2090589078143,None,"sai
",862.2090589078143,None,return,1.2505685240030289,862.2924949619919,None,,,,,,,,,,,,,,,,,,,,,,,,,,,,,,,,,,,,,,,183,001,2024_Mar_11_1659,SpeechDraft1Carolyn_lessNoise_PlusLocalization,2021.2.3,60.06200381414948,
card.wav,card.mpg,card,1,AV,Pink_Noise_1_1.wav,Pink_Noise_1_2.wav,,,,,,,,,,,,,,,0,93,93,69,,,,,,,,,,,,,,,,,,,,,,,863.5758637739345,None,865.0919481255114,None,866.4756547184661,None,card,866.4756547184661,None,return,1.704144198447466,866.5589237790555,None,,,,,,,,,,,,,,,,,,,,,,,,,,,,,,,,,,,,,,,183,001,2024_Mar_11_1659,SpeechDraft1Carolyn_lessNoise_PlusLocalization,2021.2.3,60.06200381414948,
priest.wav,priest.mpg,priest,5,A,Pink_Noise_5_1.wav,Pink_Noise_5_2.wav,,,,,,,,,,,,,,,0,94,94,17,,,,,,,,,,,,,,,,,,,,,,,868.29257459566,None,869.808692519553,None,871.1925443010405,None,fist,871.1925443010405,None,return,5.579479775391519,871.2755786851048,None,,,,,,,,,,,,,,,,,,,,,,,,,,,,,,,,,,,,,,,183,001,2024_Mar_11_1659,SpeechDraft1Carolyn_lessNoise_PlusLocalization,2021.2.3,60.06200381414948,
pants.wav,pants.mpg,pants,4,AV,Pink_Noise_4_1.wav,Pink_Noise_4_2.wav,,,,,,,,,,,,,,,0,95,95,90,,,,,,,,,,,,,,,,,,,,,,,876.8757862159982,None,878.392145851627,None,879.7758973138407,None,pens,879.7758973138407,None,return,3.18005901761353,879.8591123782098,None,,,,,,,,,,,,,,,,,,,,,,,,,,,,,,,,,,,,,,,183,001,2024_Mar_11_1659,SpeechDraft1Carolyn_lessNoise_PlusLocalization,2021.2.3,60.06200381414948,
clad.wav,clad.mpg,clad,5,AV,Pink_Noise_5_1.wav,Pink_Noise_5_2.wav,,,,,,,,,,,,,,,0,96,96,80,,,,,,,,,,,,,,,,,,,,,,,883.0592205543071,None,884.5921217929572,None,885.9756304258481,None,thigh,885.9756304258481,None,return,2.211928523145616,886.0591522287577,None,,,,,,,,,,,,,,,,,,,,,,,,,,,,,,,,,,,,,,,183,001,2024_Mar_11_1659,SpeechDraft1Carolyn_lessNoise_PlusLocalization,2021.2.3,60.06200381414948,
eye.wav,eye.mpg,eye,4,AV,Pink_Noise_4_1.wav,Pink_Noise_4_2.wav,,,,,,,,,,,,,,,0,97,97,97,,,,,,,,,,,,,,,,,,,,,,,888.292368943803,None,889.8091329159215,None,891.1922653215006,None,eye,891.1922653215006,None,return,2.3714100550860167,891.2756551727653,None,,,,,,,,,,,,,,,,,,,,,,,,,,,,,,,,,,,,,,,183,001,2024_Mar_11_1659,SpeechDraft1Carolyn_lessNoise_PlusLocalization,2021.2.3,60.06200381414948,
ease.wav,ease.mpg,ease,4,A,Pink_Noise_4_1.wav,Pink_Noise_4_2.wav,,,,,,,,,,,,,,,0,98,98,25,,,,,,,,,,,,,,,,,,,,,,,893.6755749117583,None,895.191882754676,None,896.5756126567721,None,lease,896.5756126567721,None,return,1.723917594179511,896.6592186251655,None,,,,,,,,,,,,,,,,,,,,,,,,,,,,,,,,,,,,,,,183,001,2024_Mar_11_1659,SpeechDraft1Carolyn_lessNoise_PlusLocalization,2021.2.3,60.06200381414948,
nine.wav,nine.mpg,nine,3,AV,Pink_Noise_3_1.wav,Pink_Noise_3_2.wav,,,,,,,,,,,,,,,0,99,99,63,,,,,,,,,,,,,,,,,,,,,,,898.4093448035419,None,899.92546863202,None,901.3092216942459,None,knife,901.3092216942459,None,return,4.294577419757843,901.3924871571362,None,,,,,,,,,,,,,,,,,,,,,,,,,,,,,,,,,,,,,,,183,001,2024_Mar_11_1659,SpeechDraft1Carolyn_lessNoise_PlusLocalization,2021.2.3,60.06200381414948,
toy.wav,toy.mpg,toy,3,A,Pink_Noise_3_1.wav,Pink_Noise_3_2.wav,,,,,,,,,,,,,,,0,100,100,30,,,,,,,,,,,,,,,,,,,,,,,905.7092297738418,None,907.2086808085442,None,908.5924925571308,None,"toy
",908.5924925571308,None,return,9.06721122097224,908.6758751347661,None,,,,,,,,,,,,,,,,,,,,,,,,,,,,,,,,,,,,,,,183,001,2024_Mar_11_1659,SpeechDraft1Carolyn_lessNoise_PlusLocalization,2021.2.3,60.06200381414948,
choke.wav,choke.mpg,choke,5,AV,Pink_Noise_5_1.wav,Pink_Noise_5_2.wav,,,,,,,,,,,,,,,0,101,101,103,,,,,,,,,,,,,,,,,,,,,,,917.7759192008525,None,919.2921600518748,None,920.675831662491,None,church,920.675831662491,None,return,4.2960400599986315,920.7590157082304,None,,,,,,,,,,,,,,,,,,,,,,,,,,,,,,,,,,,,,,,183,001,2024_Mar_11_1659,SpeechDraft1Carolyn_lessNoise_PlusLocalization,2021.2.3,60.06200381414948,
clue.wav,clue.mpg,clue,2,AV,Pink_Noise_2_1.wav,Pink_Noise_2_2.wav,,,,,,,,,,,,,,,0,102,102,96,,,,,,,,,,,,,,,,,,,,,,,925.0758341727778,None,926.5755096869543,None,927.9589354479685,None,clue,927.9589354479685,None,return,3.1084502832964063,928.0425959378481,None,,,,,,,,,,,,,,,,,,,,,,,,,,,,,,,,,,,,,,,183,001,2024_Mar_11_1659,SpeechDraft1Carolyn_lessNoise_PlusLocalization,2021.2.3,60.06200381414948,
fuss.wav,fuss.mpg,fuss,2,A,Pink_Noise_2_1.wav,Pink_Noise_2_2.wav,,,,,,,,,,,,,,,0,103,103,33,,,,,,,,,,,,,,,,,,,,,,,931.1759632294998,None,932.6922498987988,None,934.0757992267609,None,bust,934.0757992267609,None,return,1.495839986950159,934.1592447562143,None,,,,,,,,,,,,,,,,,,,,,,,,,,,,,,,,,,,,,,,183,001,2024_Mar_11_1659,SpeechDraft1Carolyn_lessNoise_PlusLocalization,2021.2.3,60.06200381414948,
choir.wav,choir.mpg,choir,1,AV,Pink_Noise_1_1.wav,Pink_Noise_1_2.wav,,,,,,,,,,,,,,,0,104,104,100,,,,,,,,,,,,,,,,,,,,,,,935.6757350033149,None,937.1921484181657,None,938.5757043287158,None,choir,938.5757043287158,None,return,3.748009563423693,938.6591314850375,None,,,,,,,,,,,,,,,,,,,,,,,,,,,,,,,,,,,,,,,183,001,2024_Mar_11_1659,SpeechDraft1Carolyn_lessNoise_PlusLocalization,2021.2.3,60.06200381414948,
dumb.wav,dumb.mpg,dumb,6,AV,Pink_Noise_6_1.wav,Pink_Noise_6_2.wav,,,,,,,,,,,,,,,0,105,105,68,,,,,,,,,,,,,,,,,,,,,,,942.4259659256786,None,943.9421343309805,None,945.3091173702851,None,stuff,945.3091173702851,None,return,3.894643846899271,945.3924130639061,None,,,,,,,,,,,,,,,,,,,,,,,,,,,,,,,,,,,,,,,183,001,2024_Mar_11_1659,SpeechDraft1Carolyn_lessNoise_PlusLocalization,2021.2.3,60.06200381414948,
goose.wav,goose.mpg,goose,6,A,Pink_Noise_6_1.wav,Pink_Noise_6_2.wav,,,,,,,,,,,,,,,0,106,106,4,,,,,,,,,,,,,,,,,,,,,,,949.3092861231416,None,950.8256409643218,None,952.2092125061899,None,lich,952.2092125061899,None,return,4.066733594052494,952.292413521558,None,,,,,,,,,,,,,,,,,,,,,,,,,,,,,,,,,,,,,,,183,001,2024_Mar_11_1659,SpeechDraft1Carolyn_lessNoise_PlusLocalization,2021.2.3,60.06200381414948,
brawl.wav,brawl.mpg,brawl,5,AV,Pink_Noise_5_1.wav,Pink_Noise_5_2.wav,,,,,,,,,,,,,,,0,107,107,108,,,,,,,,,,,,,,,,,,,,,,,956.3757598204538,None,957.8922869302332,None,959.2757888371125,None,brow,959.2757888371125,None,return,3.687706899829209,959.3593433089554,None,,,,,,,,,,,,,,,,,,,,,,,,,,,,,,,,,,,,,,,183,001,2024_Mar_11_1659,SpeechDraft1Carolyn_lessNoise_PlusLocalization,2021.2.3,60.06200381414948,
cheer.wav,cheer.mpg,cheer,2,AV,Pink_Noise_2_1.wav,Pink_Noise_2_2.wav,,,,,,,,,,,,,,,0,108,108,109,,,,,,,,,,,,,,,,,,,,,,,963.0760839795694,None,964.576608791016,None,965.9592395508662,None,chair,965.9592395508662,None,return,3.2203023079782724,966.0427568051964,None,,,,,,,,,,,,,,,,,,,,,,,,,,,,,,,,,,,,,,,183,001,2024_Mar_11_1659,SpeechDraft1Carolyn_lessNoise_PlusLocalization,2021.2.3,60.06200381414948,
cough.wav,cough.mpg,cough,2,A,Pink_Noise_2_1.wav,Pink_Noise_2_2.wav,,,,,,,,,,,,,,,0,109,109,35,,,,,,,,,,,,,,,,,,,,,,,969.2926371293142,None,970.8089497238398,None,972.1926960246637,None,cough,972.1926960246637,None,return,1.6832476565614343,972.2758388277143,None,,,,,,,,,,,,,,,,,,,,,,,,,,,,,,,,,,,,,,,183,001,2024_Mar_11_1659,SpeechDraft1Carolyn_lessNoise_PlusLocalization,2021.2.3,60.06200381414948,
fierce.wav,fierce.mpg,fierce,5,A,Pink_Noise_5_1.wav,Pink_Noise_5_2.wav,,,,,,,,,,,,,,,0,110,110,32,,,,,,,,,,,,,,,,,,,,,,,973.9759151404724,None,975.4921091180295,None,976.8757568486035,None,"thirst
",976.8757568486035,None,return,2.3517394913360476,976.959327314049,None,,,,,,,,,,,,,,,,,,,,,,,,,,,,,,,,,,,,,,,183,001,2024_Mar_11_1659,SpeechDraft1Carolyn_lessNoise_PlusLocalization,2021.2.3,60.06200381414948,
faint.wav,faint.mpg,faint,3,A,Pink_Noise_3_1.wav,Pink_Noise_3_2.wav,,,,,,,,,,,,,,,0,111,111,50,,,,,,,,,,,,,,,,,,,,,,,979.3425895161927,None,980.8589398087934,None,982.2426775526255,None,fint,982.2426775526255,None,return,3.609173096716404,982.3258859720081,None,,,,,,,,,,,,,,,,,,,,,,,,,,,,,,,,,,,,,,,183,001,2024_Mar_11_1659,SpeechDraft1Carolyn_lessNoise_PlusLocalization,2021.2.3,60.06200381414948,
thrown.wav,thrown.mpg,thrown,3,AV,Pink_Noise_3_1.wav,Pink_Noise_3_2.wav,,,,,,,,,,,,,,,0,112,112,64,,,,,,,,,,,,,,,,,,,,,,,985.959075354971,None,987.4754771320149,None,988.8593676798046,None,"throw
",988.8593676798046,None,return,2.384391834028065,988.9426818247885,None,,,,,,,,,,,,,,,,,,,,,,,,,,,,,,,,,,,,,,,183,001,2024_Mar_11_1659,SpeechDraft1Carolyn_lessNoise_PlusLocalization,2021.2.3,60.06200381414948,
beige.wav,beige.mpg,beige,1,AV,Pink_Noise_1_1.wav,Pink_Noise_1_2.wav,,,,,,,,,,,,,,,0,113,113,98,,,,,,,,,,,,,,,,,,,,,,,991.3592314273119,None,992.8754723947495,None,994.2591749532148,None,bashe,994.2591749532148,None,return,3.7446374585852027,994.3424166822806,None,,,,,,,,,,,,,,,,,,,,,,,,,,,,,,,,,,,,,,,183,001,2024_Mar_11_1659,SpeechDraft1Carolyn_lessNoise_PlusLocalization,2021.2.3,60.06200381414948,
gash.wav,gash.mpg,gash,4,AV,Pink_Noise_4_1.wav,Pink_Noise_4_2.wav,,,,,,,,,,,,,,,0,114,114,99,,,,,,,,,,,,,,,,,,,,,,,998.1092597581446,None,999.626895439811,None,1001.0092383520678,None,gash,1001.0092383520678,None,return,1.3384780930355191,1001.092684305273,None,,,,,,,,,,,,,,,,,,,,,,,,,,,,,,,,,,,,,,,183,001,2024_Mar_11_1659,SpeechDraft1Carolyn_lessNoise_PlusLocalization,2021.2.3,60.06200381414948,
bar.wav,bar.mpg,bar,4,A,Pink_Noise_4_1.wav,Pink_Noise_4_2.wav,,,,,,,,,,,,,,,0,115,115,26,,,,,,,,,,,,,,,,,,,,,,,1002.4592089001089,None,1003.9758291952312,None,1005.3593787876889,None,"eye
",1005.3593787876889,None,return,2.22058891877532,1005.4424702720717,None,,,,,,,,,,,,,,,,,,,,,,,,,,,,,,,,,,,,,,,183,001,2024_Mar_11_1659,SpeechDraft1Carolyn_lessNoise_PlusLocalization,2021.2.3,60.06200381414948,
drip.wav,drip.mpg,drip,2,AV,Pink_Noise_2_1.wav,Pink_Noise_2_2.wav,,,,,,,,,,,,,,,0,116,116,84,,,,,,,,,,,,,,,,,,,,,,,1007.6926430882886,None,1009.2089812746271,None,1010.5928812846541,None,drip,1010.5928812846541,None,return,5.779366091825068,1010.67574275285,None,,,,,,,,,,,,,,,,,,,,,,,,,,,,,,,,,,,,,,,183,001,2024_Mar_11_1659,SpeechDraft1Carolyn_lessNoise_PlusLocalization,2021.2.3,60.06200381414948,
drug.wav,drug.mpg,drug,2,A,Pink_Noise_2_1.wav,Pink_Noise_2_2.wav,,,,,,,,,,,,,,,0,117,117,27,,,,,,,,,,,,,,,,,,,,,,,1016.4759669285268,None,1017.9922229433432,None,1019.3760234294459,None,drug,1019.3760234294459,None,return,1.2595484117045999,1019.4595000017434,None,,,,,,,,,,,,,,,,,,,,,,,,,,,,,,,,,,,,,,,183,001,2024_Mar_11_1659,SpeechDraft1Carolyn_lessNoise_PlusLocalization,2021.2.3,60.06200381414948,
glow.wav,glow.mpg,glow,6,AV,Pink_Noise_6_1.wav,Pink_Noise_6_2.wav,,,,,,,,,,,,,,,0,118,118,62,,,,,,,,,,,,,,,,,,,,,,,1020.7425931543112,None,1022.2756033362821,None,1023.6592086926103,None,yo,1023.6592086926103,None,return,3.376620579510927,1023.7424316210672,None,,,,,,,,,,,,,,,,,,,,,,,,,,,,,,,,,,,,,,,183,001,2024_Mar_11_1659,SpeechDraft1Carolyn_lessNoise_PlusLocalization,2021.2.3,60.06200381414948,
crank.wav,crank.mpg,crank,1,A,Pink_Noise_1_1.wav,Pink_Noise_1_2.wav,,,,,,,,,,,,,,,0,119,119,58,,,,,,,,,,,,,,,,,,,,,,,1027.142747011967,None,1028.659346304834,None,1030.04266675096,None,crack,1030.04266675096,None,return,4.3210825910791755,1030.1259837495163,None,,,,,,,,,,,,,,,,,,,,,,,,,,,,,,,,,,,,,,,183,001,2024_Mar_11_1659,SpeechDraft1Carolyn_lessNoise_PlusLocalization,2021.2.3,60.06200381414948,
,,,,,,,,,,,,,,,,,,,,,,,,,,,,,,,,,,,,,,,,,,,,,,,,,,,,,,,,,,,,,,,,,,space,27.759067399427295,1034.5759975910187,None,,,,,,,,,,,,,,,,,,,,,,,,,,,,,183,001,2024_Mar_11_1659,SpeechDraft1Carolyn_lessNoise_PlusLocalization,2021.2.3,60.06200381414948,
,,,,,,,,nearRight,6.5,0,ch1Sound_localizationTask.wav,6.5,"(1047, 878)","(87, -202)",95,-338,,,,,,,,,0,0,0,4,,,,,,,,,,,,,,,,,,,,,,,,,,,,,,,,,,,,,,,,,,1034.5759975910187,None,1062.3760828031227,None,1063.4760731616989,None,1064.4090613508597,None,1.4481481481481482,3.919672996737063,1064.4090613508597,None,,,,,,,,,,,,,,,,,183,001,2024_Mar_11_1659,SpeechDraft1Carolyn_lessNoise_PlusLocalization,2021.2.3,60.06200381414948,
,,,,,,,,midLeft,-13.0,2,ch1Sound_localizationTask.wav,-13.0,"(762, 878)","(-198,-202)",-190,-338,,,,,,,,,0,1,1,1,,,,,,,,,,,,,,,,,,,,,,,,,,,,,,,,,,,,,,,,,,,,1068.3428898220882,None,1069.4423518972471,None,1070.3756919847801,None,1.3952380952380952,0.8002841230481863,1070.3756919847801,None,,,,,,,,,,,,,,,,,183,001,2024_Mar_11_1659,SpeechDraft1Carolyn_lessNoise_PlusLocalization,2021.2.3,60.06200381414948,
,,,,,,,,midLeft,-13.0,2,ch1Sound_localizationTask.wav,-13.0,"(762, 878)","(-198,-202)",-190,-338,,,,,,,,,0,2,2,1,,,,,,,,,,,,,,,,,,,,,,,,,,,,,,,,,,,,,,,,,,,,1071.1761249722913,None,1072.2757049286738,None,1073.209158912301,None,1.433862433862434,0.6996642341837287,1073.209158912301,None,,,,,,,,,,,,,,,,,183,001,2024_Mar_11_1659,SpeechDraft1Carolyn_lessNoise_PlusLocalization,2021.2.3,60.06200381414948,
,,,,,,,,farRight,19.1,4,ch1Sound_localizationTask.wav,19.1,"(1237, 878)","(277,-202)",285,-338,,,,,,,,,0,3,3,6,,,,,,,,,,,,,,,,,,,,,,,,,,,,,,,,,,,,,,,,,,,,1073.9102124879137,None,1075.0090417992324,None,1075.9423859231174,None,1.6,0.9992540692910552,1075.9423859231174,None,,,,,,,,,,,,,,,,,183,001,2024_Mar_11_1659,SpeechDraft1Carolyn_lessNoise_PlusLocalization,2021.2.3,60.06200381414948,
,,,,,,,,midRight,13.0,3,ch1Sound_localizationTask.wav,13.0,"(1142, 878)","(182, -202)",190,-338,,,,,,,,,0,4,4,5,,,,,,,,,,,,,,,,,,,,,,,,,,,,,,,,,,,,,,,,,,,,1076.9427369339392,None,1078.042200080119,None,1078.9758837604895,None,1.588888888888889,0.7664678320288658,1078.9758837604895,None,,,,,,,,,,,,,,,,,183,001,2024_Mar_11_1659,SpeechDraft1Carolyn_lessNoise_PlusLocalization,2021.2.3,60.06200381414948,
,,,,,,,,nearLeft,-6.5,1,ch1Sound_localizationTask.wav,-6.5,"(857, 878)","(-103,-202)",-95,-338,,,,,,,,,0,5,5,2,,,,,,,,,,,,,,,,,,,,,,,,,,,,,,,,,,,,,,,,,,,,1079.7427614955232,None,1080.8424185989425,None,1081.775697861798,None,1.4724867724867725,0.9510889668017626,1081.775697861798,None,,,,,,,,,,,,,,,,,183,001,2024_Mar_11_1659,SpeechDraft1Carolyn_lessNoise_PlusLocalization,2021.2.3,60.06200381414948,
,,,,,,,,center,0.0,6,ch1Sound_localizationTask.wav,0.0,"(952, 878)","(-8,-202)",0,-338,,,,,,,,,0,6,6,3,,,,,,,,,,,,,,,,,,,,,,,,,,,,,,,,,,,,,,,,,,,,1082.7429501479492,None,1083.8425995828584,None,1084.775931804441,None,1.5153439153439154,0.999410112388432,1084.775931804441,None,,,,,,,,,,,,,,,,,183,001,2024_Mar_11_1659,SpeechDraft1Carolyn_lessNoise_PlusLocalization,2021.2.3,60.06200381414948,
,,,,,,,,nearLeft,-6.5,1,ch1Sound_localizationTask.wav,-6.5,"(857, 878)","(-103,-202)",-95,-338,,,,,,,,,1,0,7,2,,,,,,,,,,,,,,,,,,,,,,,,,,,,,,,,,,,,,,,,,,,,1085.776067584753,None,1086.8761269301176,None,1087.8091886471957,None,1.4851851851851852,1.0827060174196959,1087.8091886471957,None,,,,,,,,,,,,,,,,,183,001,2024_Mar_11_1659,SpeechDraft1Carolyn_lessNoise_PlusLocalization,2021.2.3,60.06200381414948,
,,,,,,,,midRight,13.0,3,ch1Sound_localizationTask.wav,13.0,"(1142, 878)","(182, -202)",190,-338,,,,,,,,,1,1,8,5,,,,,,,,,,,,,,,,,,,,,,,,,,,,,,,,,,,,,,,,,,,,1088.8927749665454,None,1089.9925452172756,None,1090.9258565595374,None,1.5714285714285714,1.0996267916634679,1090.9258565595374,None,,,,,,,,,,,,,,,,,183,001,2024_Mar_11_1659,SpeechDraft1Carolyn_lessNoise_PlusLocalization,2021.2.3,60.06200381414948,
,,,,,,,,nearRight,6.5,0,ch1Sound_localizationTask.wav,6.5,"(1047, 878)","(87, -202)",95,-338,,,,,,,,,1,2,9,4,,,,,,,,,,,,,,,,,,,,,,,,,,,,,,,,,,,,,,,,,,,,1092.026177579537,None,1093.125650582835,None,1094.059028734453,None,1.537037037037037,0.8320978861302137,1094.059028734453,None,,,,,,,,,,,,,,,,,183,001,2024_Mar_11_1659,SpeechDraft1Carolyn_lessNoise_PlusLocalization,2021.2.3,60.06200381414948,
,,,,,,,,nearLeft,-6.5,1,ch1Sound_localizationTask.wav,-6.5,"(857, 878)","(-103,-202)",-95,-338,,,,,,,,,1,3,10,2,,,,,,,,,,,,,,,,,,,,,,,,,,,,,,,,,,,,,,,,,,,,1094.8927676128224,None,1095.9924591360614,None,1096.9258382441476,None,1.4978835978835978,1.2501232838258147,1096.9258382441476,None,,,,,,,,,,,,,,,,,183,001,2024_Mar_11_1659,SpeechDraft1Carolyn_lessNoise_PlusLocalization,2021.2.3,60.06200381414948,
,,,,,,,,midRight,13.0,3,ch1Sound_localizationTask.wav,13.0,"(1142, 878)","(182, -202)",190,-338,,,,,,,,,1,4,11,5,,,,,,,,,,,,,,,,,,,,,,,,,,,,,,,,,,,,,,,,,,,,1098.1760006872937,None,1099.27565534506,None,1100.2092014951631,None,1.5592592592592593,0.8990698410198092,1100.2092014951631,None,,,,,,,,,,,,,,,,,183,001,2024_Mar_11_1659,SpeechDraft1Carolyn_lessNoise_PlusLocalization,2021.2.3,60.06200381414948,
,,,,,,,,midLeft,-13.0,2,ch1Sound_localizationTask.wav,-13.0,"(762, 878)","(-198,-202)",-190,-338,,,,,,,,,1,5,12,1,,,,,,,,,,,,,,,,,,,,,,,,,,,,,,,,,,,,,,,,,,,,1101.109409097582,None,1102.2093470199034,None,1103.1422803169116,None,1.4492063492063492,0.9344170121476054,1103.1422803169116,None,,,,,,,,,,,,,,,,,183,001,2024_Mar_11_1659,SpeechDraft1Carolyn_lessNoise_PlusLocalization,2021.2.3,60.06200381414948,
,,,,,,,,midRight,13.0,3,ch1Sound_localizationTask.wav,13.0,"(1142, 878)","(182, -202)",190,-338,,,,,,,,,1,6,13,5,,,,,,,,,,,,,,,,,,,,,,,,,,,,,,,,,,,,,,,,,,,,1104.092927952297,None,1105.1925061549991,None,1106.1259090369567,None,1.5582010582010581,0.8666749866679311,1106.1259090369567,None,,,,,,,,,,,,,,,,,183,001,2024_Mar_11_1659,SpeechDraft1Carolyn_lessNoise_PlusLocalization,2021.2.3,60.06200381414948,
,,,,,,,,farLeft,-19.1,5,ch1Sound_localizationTask.wav,-19.1,"(667, 878)","(-293,-202)",-285,-338,,,,,,,,,2,0,14,0,,,,,,,,,,,,,,,,,,,,,,,,,,,,,,,,,,,,,,,,,,,,1106.993047897704,None,1108.0924445101991,None,1109.0260424241424,None,1.4174603174603175,0.9663337841629982,1109.0260424241424,None,,,,,,,,,,,,,,,,,183,001,2024_Mar_11_1659,SpeechDraft1Carolyn_lessNoise_PlusLocalization,2021.2.3,60.06200381414948,
,,,,,,,,midLeft,-13.0,2,ch1Sound_localizationTask.wav,-13.0,"(762, 878)","(-198,-202)",-190,-338,,,,,,,,,2,1,15,1,,,,,,,,,,,,,,,,,,,,,,,,,,,,,,,,,,,,,,,,,,,,1109.9928659945726,None,1111.0927480915561,None,1112.026232354343,None,1.4301587301587302,0.8828871389850974,1112.026232354343,None,,,,,,,,,,,,,,,,,183,001,2024_Mar_11_1659,SpeechDraft1Carolyn_lessNoise_PlusLocalization,2021.2.3,60.06200381414948,
,,,,,,,,midLeft,-13.0,2,ch1Sound_localizationTask.wav,-13.0,"(762, 878)","(-198,-202)",-190,-338,,,,,,,,,2,2,16,1,,,,,,,,,,,,,,,,,,,,,,,,,,,,,,,,,,,,,,,,,,,,1112.9095894107595,None,1114.0091933654621,None,1114.9426084021106,None,1.4137566137566138,0.7501785531640053,1114.9426084021106,None,,,,,,,,,,,,,,,,,183,001,2024_Mar_11_1659,SpeechDraft1Carolyn_lessNoise_PlusLocalization,2021.2.3,60.06200381414948,
,,,,,,,,farLeft,-19.1,5,ch1Sound_localizationTask.wav,-19.1,"(667, 878)","(-293,-202)",-285,-338,,,,,,,,,2,3,17,0,,,,,,,,,,,,,,,,,,,,,,,,,,,,,,,,,,,,,,,,,,,,1115.6929066879675,None,1116.7925357371569,None,1117.725926745683,None,1.391005291005291,0.6337231919169426,1117.725926745683,None,,,,,,,,,,,,,,,,,183,001,2024_Mar_11_1659,SpeechDraft1Carolyn_lessNoise_PlusLocalization,2021.2.3,60.06200381414948,
,,,,,,,,nearLeft,-6.5,1,ch1Sound_localizationTask.wav,-6.5,"(857, 878)","(-103,-202)",-95,-338,,,,,,,,,2,4,18,2,,,,,,,,,,,,,,,,,,,,,,,,,,,,,,,,,,,,,,,,,,,,1118.3760720025748,None,1119.4758057659492,None,1120.4091140180826,None,1.4433862433862434,0.5323500148952007,1120.4091140180826,None,,,,,,,,,,,,,,,,,183,001,2024_Mar_11_1659,SpeechDraft1Carolyn_lessNoise_PlusLocalization,2021.2.3,60.06200381414948,
,,,,,,,,midRight,13.0,3,ch1Sound_localizationTask.wav,13.0,"(1142, 878)","(182, -202)",190,-338,,,,,,,,,2,5,19,5,,,,,,,,,,,,,,,,,,,,,,,,,,,,,,,,,,,,,,,,,,,,1120.9426585538313,None,1122.0428774971515,None,1122.976274442859,None,1.4978835978835978,0.7164624240249395,1122.976274442859,None,,,,,,,,,,,,,,,,,183,001,2024_Mar_11_1659,SpeechDraft1Carolyn_lessNoise_PlusLocalization,2021.2.3,60.06200381414948,
,,,,,,,,center,0.0,6,ch1Sound_localizationTask.wav,0.0,"(952, 878)","(-8,-202)",0,-338,,,,,,,,,2,6,20,3,,,,,,,,,,,,,,,,,,,,,,,,,,,,,,,,,,,,,,,,,,,,1123.6928267292678,None,1124.792469130829,None,1125.7258904781193,None,1.4645502645502646,0.7672164756804705,1125.7258904781193,None,,,,,,,,,,,,,,,,,183,001,2024_Mar_11_1659,SpeechDraft1Carolyn_lessNoise_PlusLocalization,2021.2.3,60.06200381414948,
,,,,,,,,farRight,19.1,4,ch1Sound_localizationTask.wav,19.1,"(1237, 878)","(277,-202)",285,-338,,,,,,,,,3,0,21,6,,,,,,,,,,,,,,,,,,,,,,,,,,,,,,,,,,,,,,,,,,,,1126.4933505142108,None,1127.592596624978,None,1128.5257678870112,None,1.555026455026455,0.6672425288707018,1128.5257678870112,None,,,,,,,,,,,,,,,,,183,001,2024_Mar_11_1659,SpeechDraft1Carolyn_lessNoise_PlusLocalization,2021.2.3,60.06200381414948,
,,,,,,,,center,0.0,6,ch1Sound_localizationTask.wav,0.0,"(952, 878)","(-8,-202)",0,-338,,,,,,,,,3,1,22,3,,,,,,,,,,,,,,,,,,,,,,,,,,,,,,,,,,,,,,,,,,,,1129.1934498799965,None,1130.2924514366314,None,1131.2260364741087,None,1.4978835978835978,0.7331128576770425,1131.2260364741087,None,,,,,,,,,,,,,,,,,183,001,2024_Mar_11_1659,SpeechDraft1Carolyn_lessNoise_PlusLocalization,2021.2.3,60.06200381414948,
,,,,,,,,farRight,19.1,4,ch1Sound_localizationTask.wav,19.1,"(1237, 878)","(277,-202)",285,-338,,,,,,,,,3,2,23,6,,,,,,,,,,,,,,,,,,,,,,,,,,,,,,,,,,,,,,,,,,,,1131.95991892647,None,1133.0593476882204,None,1133.9925244636834,None,1.573015873015873,0.8155570393428206,1133.9925244636834,None,,,,,,,,,,,,,,,,,183,001,2024_Mar_11_1659,SpeechDraft1Carolyn_lessNoise_PlusLocalization,2021.2.3,60.06200381414948,
,,,,,,,,farLeft,-19.1,5,ch1Sound_localizationTask.wav,-19.1,"(667, 878)","(-293,-202)",-285,-338,,,,,,,,,3,3,24,0,,,,,,,,,,,,,,,,,,,,,,,,,,,,,,,,,,,,,,,,,,,,1134.8098892429844,None,1135.9092462444678,None,1136.8425631616265,None,1.4502645502645501,0.9502316629514098,1136.8425631616265,None,,,,,,,,,,,,,,,,,183,001,2024_Mar_11_1659,SpeechDraft1Carolyn_lessNoise_PlusLocalization,2021.2.3,60.06200381414948,
,,,,,,,,nearRight,6.5,0,ch1Sound_localizationTask.wav,6.5,"(1047, 878)","(87, -202)",95,-338,,,,,,,,,3,4,25,4,,,,,,,,,,,,,,,,,,,,,,,,,,,,,,,,,,,,,,,,,,,,1137.7931060818955,None,1138.8925174903125,None,1139.8261253619567,None,1.505820105820106,0.8829681491479278,1139.8261253619567,None,,,,,,,,,,,,,,,,,183,001,2024_Mar_11_1659,SpeechDraft1Carolyn_lessNoise_PlusLocalization,2021.2.3,60.06200381414948,
,,,,,,,,center,0.0,6,ch1Sound_localizationTask.wav,0.0,"(952, 878)","(-8,-202)",0,-338,,,,,,,,,3,5,26,3,,,,,,,,,,,,,,,,,,,,,,,,,,,,,,,,,,,,,,,,,,,,1140.7096537286416,None,1141.8092111432925,None,1142.7424617400393,None,1.491005291005291,0.649131653830409,1142.7424617400393,None,,,,,,,,,,,,,,,,,183,001,2024_Mar_11_1659,SpeechDraft1Carolyn_lessNoise_PlusLocalization,2021.2.3,60.06200381414948,
,,,,,,,,midRight,13.0,3,ch1Sound_localizationTask.wav,13.0,"(1142, 878)","(182, -202)",190,-338,,,,,,,,,3,6,27,5,,,,,,,,,,,,,,,,,,,,,,,,,,,,,,,,,,,,,,,,,,,,1143.3931439807639,None,1144.492509201169,None,1145.4258452560753,None,1.5174603174603174,0.8819804834201932,1145.4258452560753,None,,,,,,,,,,,,,,,,,183,001,2024_Mar_11_1659,SpeechDraft1Carolyn_lessNoise_PlusLocalization,2021.2.3,60.06200381414948,
,,,,,,,,midLeft,-13.0,2,ch1Sound_localizationTask.wav,-13.0,"(762, 878)","(-198,-202)",-190,-338,,,,,,,,,4,0,28,1,,,,,,,,,,,,,,,,,,,,,,,,,,,,,,,,,,,,,,,,,,,,1146.3095106007531,None,1147.4092981722206,None,1148.3427072446793,None,1.4645502645502646,0.8167281430214643,1148.3427072446793,None,,,,,,,,,,,,,,,,,183,001,2024_Mar_11_1659,SpeechDraft1Carolyn_lessNoise_PlusLocalization,2021.2.3,60.06200381414948,
,,,,,,,,center,0.0,6,ch1Sound_localizationTask.wav,0.0,"(952, 878)","(-8,-202)",0,-338,,,,,,,,,4,1,29,3,,,,,,,,,,,,,,,,,,,,,,,,,,,,,,,,,,,,,,,,,,,,1149.1596556706354,None,1150.2591002760455,None,1151.1925000119954,None,1.4952380952380953,0.6165547370910645,1151.1925000119954,None,,,,,,,,,,,,,,,,,183,001,2024_Mar_11_1659,SpeechDraft1Carolyn_lessNoise_PlusLocalization,2021.2.3,60.06200381414948,
,,,,,,,,farRight,19.1,4,ch1Sound_localizationTask.wav,19.1,"(1237, 878)","(277,-202)",285,-338,,,,,,,,,4,2,30,6,,,,,,,,,,,,,,,,,,,,,,,,,,,,,,,,,,,,,,,,,,,,1151.809512087144,None,1152.9090292342007,None,1153.8425819491968,None,1.538095238095238,0.7999973325058818,1153.8425819491968,None,,,,,,,,,,,,,,,,,183,001,2024_Mar_11_1659,SpeechDraft1Carolyn_lessNoise_PlusLocalization,2021.2.3,60.06200381414948,
,,,,,,,,farLeft,-19.1,5,ch1Sound_localizationTask.wav,-19.1,"(667, 878)","(-293,-202)",-285,-338,,,,,,,,,4,3,31,0,,,,,,,,,,,,,,,,,,,,,,,,,,,,,,,,,,,,,,,,,,,,1154.6431871941313,None,1155.7424443177879,None,1156.6758731370792,None,1.4375661375661375,0.8331330325454473,1156.6758731370792,None,,,,,,,,,,,,,,,,,183,001,2024_Mar_11_1659,SpeechDraft1Carolyn_lessNoise_PlusLocalization,2021.2.3,60.06200381414948,
,,,,,,,,farRight,19.1,4,ch1Sound_localizationTask.wav,19.1,"(1237, 878)","(277,-202)",285,-338,,,,,,,,,4,4,32,6,,,,,,,,,,,,,,,,,,,,,,,,,,,,,,,,,,,,,,,,,,,,1157.5096800271422,None,1158.6089532701299,None,1159.5423467447981,None,1.5465608465608467,0.8995656985789537,1159.5423467447981,None,,,,,,,,,,,,,,,,,183,001,2024_Mar_11_1659,SpeechDraft1Carolyn_lessNoise_PlusLocalization,2021.2.3,60.06200381414948,
,,,,,,,,nearRight,6.5,0,ch1Sound_localizationTask.wav,6.5,"(1047, 878)","(87, -202)",95,-338,,,,,,,,,4,5,33,4,,,,,,,,,,,,,,,,,,,,,,,,,,,,,,,,,,,,,,,,,,,,1160.4431326678023,None,1161.5423563262448,None,1162.4761349987239,None,1.5396825396825395,0.7999790916219354,1162.4761349987239,None,,,,,,,,,,,,,,,,,183,001,2024_Mar_11_1659,SpeechDraft1Carolyn_lessNoise_PlusLocalization,2021.2.3,60.06200381414948,
,,,,,,,,farLeft,-19.1,5,ch1Sound_localizationTask.wav,-19.1,"(667, 878)","(-293,-202)",-285,-338,,,,,,,,,4,6,34,0,,,,,,,,,,,,,,,,,,,,,,,,,,,,,,,,,,,,,,,,,,,,1163.2765917088836,None,1164.3758280286565,None,1165.3091396652162,None,1.4592592592592593,0.8993089906871319,1165.3091396652162,None,,,,,,,,,,,,,,,,,183,001,2024_Mar_11_1659,SpeechDraft1Carolyn_lessNoise_PlusLocalization,2021.2.3,60.06200381414948,
,,,,,,,,farRight,19.1,4,ch1Sound_localizationTask.wav,19.1,"(1237, 878)","(277,-202)",285,-338,,,,,,,,,5,0,35,6,,,,,,,,,,,,,,,,,,,,,,,,,,,,,,,,,,,,,,,,,,,,1166.209586482495,None,1167.3091589631513,None,1168.2427704725415,None,1.546031746031746,0.9161852598190308,1168.2427704725415,None,,,,,,,,,,,,,,,,,183,001,2024_Mar_11_1659,SpeechDraft1Carolyn_lessNoise_PlusLocalization,2021.2.3,60.06200381414948,
,,,,,,,,nearRight,6.5,0,ch1Sound_localizationTask.wav,6.5,"(1047, 878)","(87, -202)",95,-338,,,,,,,,,5,1,36,4,,,,,,,,,,,,,,,,,,,,,,,,,,,,,,,,,,,,,,,,,,,,1169.1596268685535,None,1170.2592681925744,None,1171.192592217587,None,1.5232804232804233,0.6165815908461809,1171.192592217587,None,,,,,,,,,,,,,,,,,183,001,2024_Mar_11_1659,SpeechDraft1Carolyn_lessNoise_PlusLocalization,2021.2.3,60.06200381414948,
,,,,,,,,center,0.0,6,ch1Sound_localizationTask.wav,0.0,"(952, 878)","(-8,-202)",0,-338,,,,,,,,,5,2,37,3,,,,,,,,,,,,,,,,,,,,,,,,,,,,,,,,,,,,,,,,,,,,1171.8098855558783,None,1172.9091782979667,None,1173.8426471212879,None,1.5037037037037035,0.6659000115469098,1173.8426471212879,None,,,,,,,,,,,,,,,,,183,001,2024_Mar_11_1659,SpeechDraft1Carolyn_lessNoise_PlusLocalization,2021.2.3,60.06200381414948,
,,,,,,,,nearLeft,-6.5,1,ch1Sound_localizationTask.wav,-6.5,"(857, 878)","(-103,-202)",-95,-338,,,,,,,,,5,3,38,2,,,,,,,,,,,,,,,,,,,,,,,,,,,,,,,,,,,,,,,,,,,,1174.5095933470875,None,1175.6092465640977,None,1176.542827599682,None,1.4952380952380953,0.7335819927975535,1176.542827599682,None,,,,,,,,,,,,,,,,,183,001,2024_Mar_11_1659,SpeechDraft1Carolyn_lessNoise_PlusLocalization,2021.2.3,60.06200381414948,
,,,,,,,,nearLeft,-6.5,1,ch1Sound_localizationTask.wav,-6.5,"(857, 878)","(-103,-202)",-95,-338,,,,,,,,,5,4,39,2,,,,,,,,,,,,,,,,,,,,,,,,,,,,,,,,,,,,,,,,,,,,1177.2762317778543,None,1178.3760210145265,None,1179.30913835112,None,1.493121693121693,0.650584970600903,1179.30913835112,None,,,,,,,,,,,,,,,,,183,001,2024_Mar_11_1659,SpeechDraft1Carolyn_lessNoise_PlusLocalization,2021.2.3,60.06200381414948,
,,,,,,,,nearLeft,-6.5,1,ch1Sound_localizationTask.wav,-6.5,"(857, 878)","(-103,-202)",-95,-338,,,,,,,,,5,5,40,2,,,,,,,,,,,,,,,,,,,,,,,,,,,,,,,,,,,,,,,,,,,,1179.9596582325175,None,1181.059249957092,None,1181.9925306709483,None,1.493121693121693,0.8168129036203027,1181.9925306709483,None,,,,,,,,,,,,,,,,,183,001,2024_Mar_11_1659,SpeechDraft1Carolyn_lessNoise_PlusLocalization,2021.2.3,60.06200381414948,
,,,,,,,,farRight,19.1,4,ch1Sound_localizationTask.wav,19.1,"(1237, 878)","(277,-202)",285,-338,,,,,,,,,5,6,41,6,,,,,,,,,,,,,,,,,,,,,,,,,,,,,,,,,,,,,,,,,,,,1182.8095895536244,None,1183.9093282734975,None,1184.8425796944648,None,1.5714285714285714,0.7661418877542019,1184.8425796944648,None,,,,,,,,,,,,,,,,,183,001,2024_Mar_11_1659,SpeechDraft1Carolyn_lessNoise_PlusLocalization,2021.2.3,60.06200381414948,
,,,,,,,,midLeft,-13.0,2,ch1Sound_localizationTask.wav,-13.0,"(762, 878)","(-198,-202)",-190,-338,,,,,,,,,6,0,42,1,,,,,,,,,,,,,,,,,,,,,,,,,,,,,,,,,,,,,,,,,,,,1185.6100507806987,None,1186.7092905966565,None,1187.6427856693044,None,1.4761904761904763,0.8669388107955456,1187.6427856693044,None,,,,,,,,,,,,,,,,,183,001,2024_Mar_11_1659,SpeechDraft1Carolyn_lessNoise_PlusLocalization,2021.2.3,60.06200381414948,
,,,,,,,,center,0.0,6,ch1Sound_localizationTask.wav,0.0,"(952, 878)","(-8,-202)",0,-338,,,,,,,,,6,1,43,3,,,,,,,,,,,,,,,,,,,,,,,,,,,,,,,,,,,,,,,,,,,,1188.526208968833,None,1189.625799316913,None,1190.5593304280192,None,1.4841269841269842,0.7504295157268643,1190.5593304280192,None,,,,,,,,,,,,,,,,,183,001,2024_Mar_11_1659,SpeechDraft1Carolyn_lessNoise_PlusLocalization,2021.2.3,60.06200381414948,
,,,,,,,,center,0.0,6,ch1Sound_localizationTask.wav,0.0,"(952, 878)","(-8,-202)",0,-338,,,,,,,,,6,2,44,3,,,,,,,,,,,,,,,,,,,,,,,,,,,,,,,,,,,,,,,,,,,,1191.3101448779926,None,1192.4094920968637,None,1193.3424798995256,None,1.4915343915343915,0.6509227221831679,1193.3424798995256,None,,,,,,,,,,,,,,,,,183,001,2024_Mar_11_1659,SpeechDraft1Carolyn_lessNoise_PlusLocalization,2021.2.3,60.06200381414948,
,,,,,,,,midLeft,-13.0,2,ch1Sound_localizationTask.wav,-13.0,"(762, 878)","(-198,-202)",-190,-338,,,,,,,,,6,3,45,1,,,,,,,,,,,,,,,,,,,,,,,,,,,,,,,,,,,,,,,,,,,,1193.9934064270929,None,1195.0928093744442,None,1196.0263003464788,None,1.4761904761904763,0.5828308733180165,1196.0263003464788,None,,,,,,,,,,,,,,,,,183,001,2024_Mar_11_1659,SpeechDraft1Carolyn_lessNoise_PlusLocalization,2021.2.3,60.06200381414948,
,,,,,,,,nearRight,6.5,0,ch1Sound_localizationTask.wav,6.5,"(1047, 878)","(87, -202)",95,-338,,,,,,,,,6,4,46,4,,,,,,,,,,,,,,,,,,,,,,,,,,,,,,,,,,,,,,,,,,,,1196.6101164966822,None,1197.7092080321163,None,1198.6429400965571,None,1.4947089947089947,0.7832274325191975,1198.6429400965571,None,,,,,,,,,,,,,,,,,183,001,2024_Mar_11_1659,SpeechDraft1Carolyn_lessNoise_PlusLocalization,2021.2.3,60.06200381414948,
,,,,,,,,midRight,13.0,3,ch1Sound_localizationTask.wav,13.0,"(1142, 878)","(182, -202)",190,-338,,,,,,,,,6,5,47,5,,,,,,,,,,,,,,,,,,,,,,,,,,,,,,,,,,,,,,,,,,,,1199.4266562061384,None,1200.5262607447803,None,1201.4592992542312,None,1.525925925925926,0.8002557214349508,1201.4592992542312,None,,,,,,,,,,,,,,,,,183,001,2024_Mar_11_1659,SpeechDraft1Carolyn_lessNoise_PlusLocalization,2021.2.3,60.06200381414948,
,,,,,,,,farLeft,-19.1,5,ch1Sound_localizationTask.wav,-19.1,"(667, 878)","(-293,-202)",-285,-338,,,,,,,,,6,6,48,0,,,,,,,,,,,,,,,,,,,,,,,,,,,,,,,,,,,,,,,,,,,,1202.25958394818,None,1203.3593058241531,None,1204.2929024007171,None,1.4375661375661375,0.8658371036872268,1204.2929024007171,None,,,,,,,,,,,,,,,,,183,001,2024_Mar_11_1659,SpeechDraft1Carolyn_lessNoise_PlusLocalization,2021.2.3,60.06200381414948,
,,,,,,,,nearLeft,-6.5,1,ch1Sound_localizationTask.wav,-6.5,"(857, 878)","(-103,-202)",-95,-338,,,,,,,,,7,0,49,2,,,,,,,,,,,,,,,,,,,,,,,,,,,,,,,,,,,,,,,,,,,,1205.1596855269745,None,1206.259337451309,None,1207.192958502099,None,1.457142857142857,0.7329417886212468,1207.192958502099,None,,,,,,,,,,,,,,,,,183,001,2024_Mar_11_1659,SpeechDraft1Carolyn_lessNoise_PlusLocalization,2021.2.3,60.06200381414948,
,,,,,,,,farLeft,-19.1,5,ch1Sound_localizationTask.wav,-19.1,"(667, 878)","(-293,-202)",-285,-338,,,,,,,,,7,1,50,0,,,,,,,,,,,,,,,,,,,,,,,,,,,,,,,,,,,,,,,,,,,,1207.9264907669276,None,1209.0258861100301,None,1209.9593352684751,None,1.4121693121693122,0.8995289243757725,1209.9593352684751,None,,,,,,,,,,,,,,,,,183,001,2024_Mar_11_1659,SpeechDraft1Carolyn_lessNoise_PlusLocalization,2021.2.3,60.06200381414948,
,,,,,,,,nearRight,6.5,0,ch1Sound_localizationTask.wav,6.5,"(1047, 878)","(87, -202)",95,-338,,,,,,,,,7,2,51,4,,,,,,,,,,,,,,,,,,,,,,,,,,,,,,,,,,,,,,,,,,,,1210.860295880586,None,1211.959176211618,None,1212.8928972426802,None,1.5269841269841269,0.749859525822103,1212.8928972426802,None,,,,,,,,,,,,,,,,,183,001,2024_Mar_11_1659,SpeechDraft1Carolyn_lessNoise_PlusLocalization,2021.2.3,60.06200381414948,
,,,,,,,,farLeft,-19.1,5,ch1Sound_localizationTask.wav,-19.1,"(667, 878)","(-293,-202)",-285,-338,,,,,,,,,7,3,52,0,,,,,,,,,,,,,,,,,,,,,,,,,,,,,,,,,,,,,,,,,,,,1213.6436180491,None,1214.7425004998222,None,1215.6761220777407,None,1.4275132275132276,0.8838838124647737,1215.6761220777407,None,,,,,,,,,,,,,,,,,183,001,2024_Mar_11_1659,SpeechDraft1Carolyn_lessNoise_PlusLocalization,2021.2.3,60.06200381414948,
,,,,,,,,nearRight,6.5,0,ch1Sound_localizationTask.wav,6.5,"(1047, 878)","(87, -202)",95,-338,,,,,,,,,7,4,53,4,,,,,,,,,,,,,,,,,,,,,,,,,,,,,,,,,,,,,,,,,,,,1216.5762831624597,None,1217.6758244624361,None,1218.609368829988,None,1.480952380952381,0.6498900726437569,1218.609368829988,None,,,,,,,,,,,,,,,,,183,001,2024_Mar_11_1659,SpeechDraft1Carolyn_lessNoise_PlusLocalization,2021.2.3,60.06200381414948,
,,,,,,,,midRight,13.0,3,ch1Sound_localizationTask.wav,13.0,"(1142, 878)","(182, -202)",190,-338,,,,,,,,,7,5,54,5,,,,,,,,,,,,,,,,,,,,,,,,,,,,,,,,,,,,,,,,,,,,1219.259824577719,None,1220.359258878976,None,1221.2927177622914,None,1.5343915343915344,0.6167246224358678,1221.2927177622914,None,,,,,,,,,,,,,,,,,183,001,2024_Mar_11_1659,SpeechDraft1Carolyn_lessNoise_PlusLocalization,2021.2.3,60.06200381414948,
,,,,,,,,farRight,19.1,4,ch1Sound_localizationTask.wav,19.1,"(1237, 878)","(277,-202)",285,-338,,,,,,,,,7,6,55,6,,,,,,,,,,,,,,,,,,,,,,,,,,,,,,,,,,,,,,,,,,,,1221.9101134659722,None,1223.0092269694433,None,1223.942510901019,None,1.5693121693121692,0.7169061042368412,1223.942510901019,None,,,,,,,,,,,,,,,,,183,001,2024_Mar_11_1659,SpeechDraft1Carolyn_lessNoise_PlusLocalization,2021.2.3,60.06200381414948,
,,,,,,,,,,,,,,,,,,,,,,,,,,,,,,,,,,,,,,,,,,,,,,,,,,,,,,,,,,,,,,,,,,,,,,,,,,,,,,,,,,space,12.232290538027883,1224.7428804328665,None,,,,,,,,,,,,,183,001,2024_Mar_11_1659,SpeechDraft1Carolyn_lessNoise_PlusLocalization,2021.2.3,60.06200381414948,
,,,,,,,,midLeft,-13.0,2,ch1Sound_localizationTask.wav,-13.0,"(762, 878)","(-198,-202)",-190,-338,,,,,,,,,,,,,0,0,0,1,,,,,,,,,,,,,,,,,,,,,,,,,,,,,,,,,,,,,,,,1237.0094705540687,None,,,1240.0427809469402,None,1.3931216931216932,3.00190741289407,1240.0427809469402,None,,,,,1224.7428804328665,None,1238.0095897382125,None,1238.19299003575,1238.209530852735,,,,,,,183,001,2024_Mar_11_1659,SpeechDraft1Carolyn_lessNoise_PlusLocalization,2021.2.3,60.06200381414948,
,,,,,,,,midLeft,-13.0,2,ch1Sound_localizationTask.wav,-13.0,"(762, 878)","(-198,-202)",-190,-338,,,,,,,,,,,,,0,1,1,1,,,,,,,,,,,,,,,,,,,,,,,,,,,,,,,,,,,,,,,,1243.043468374759,None,,,1246.0593041237444,None,1.4148148148148147,0.88291229121387,1246.0593041237444,None,,,,,,,1244.0428878599778,None,1244.2262800969183,1244.2428694786504,,,,,,,183,001,2024_Mar_11_1659,SpeechDraft1Carolyn_lessNoise_PlusLocalization,2021.2.3,60.06200381414948,
,,,,,,,,midLeft,-13.0,2,ch1Sound_localizationTask.wav,-13.0,"(762, 878)","(-198,-202)",-190,-338,,,,,,,,,,,,,0,2,2,1,,,,,,,,,,,,,,,,,,,,,,,,,,,,,,,,,,,,,,,,1246.9431916214526,None,,,1249.9592898655683,None,1.4211640211640213,1.0491345534101129,1249.9592898655683,None,,,,,,,1247.9428428607062,None,1248.1264964602888,1248.142926428467,,,,,,,183,001,2024_Mar_11_1659,SpeechDraft1Carolyn_lessNoise_PlusLocalization,2021.2.3,60.06200381414948,
,,,,,,,,farRight,19.1,4,ch1Sound_localizationTask.wav,19.1,"(1237, 878)","(277,-202)",285,-338,,,,,,,,,,,,,0,3,3,6,,,,,,,,,,,,,,,,,,,,,,,,,,,,,,,,,,,,,,,,1251.0095862569287,None,,,1254.026078838855,None,1.6222222222222222,1.4517341060563922,1254.026078838855,None,,,,,,,1252.009448768571,None,1252.1927989730611,1252.2095443839207,,,,,,,183,001,2024_Mar_11_1659,SpeechDraft1Carolyn_lessNoise_PlusLocalization,2021.2.3,60.06200381414948,
,,,,,,,,center,0.0,6,ch1Sound_localizationTask.wav,0.0,"(952, 878)","(-8,-202)",0,-338,,,,,,,,,,,,,0,4,4,3,,,,,,,,,,,,,,,,,,,,,,,,,,,,,,,,,,,,,,,,1255.4928824743256,None,,,1258.5091669587418,None,1.4841269841269842,1.049410555511713,1258.5091669587418,None,,,,,,,1256.4929618611932,None,1256.6766372155398,1256.6928974576294,,,,,,,183,001,2024_Mar_11_1659,SpeechDraft1Carolyn_lessNoise_PlusLocalization,2021.2.3,60.06200381414948,
,,,,,,,,center,0.0,6,ch1Sound_localizationTask.wav,0.0,"(952, 878)","(-8,-202)",0,-338,,,,,,,,,,,,,0,5,5,3,,,,,,,,,,,,,,,,,,,,,,,,,,,,,,,,,,,,,,,,1259.5597025137395,None,,,1262.5760266315192,None,1.5296296296296297,0.9483761321753263,1262.5760266315192,None,,,,,,,1260.559589174576,None,1260.7428367156535,1260.7595989778638,,,,,,,183,001,2024_Mar_11_1659,SpeechDraft1Carolyn_lessNoise_PlusLocalization,2021.2.3,60.06200381414948,
,,,,,,,,farLeft,-19.1,5,ch1Sound_localizationTask.wav,-19.1,"(667, 878)","(-293,-202)",-285,-338,,,,,,,,,,,,,0,6,6,0,,,,,,,,,,,,,,,,,,,,,,,,,,,,,,,,,,,,,,,,1263.5262870667502,None,,,1266.5426330948249,None,1.3777777777777778,1.2167207030579448,1266.5426330948249,None,,,,,,,1264.526346786879,None,1264.7097052792087,1264.726158616133,,,,,,,183,001,2024_Mar_11_1659,SpeechDraft1Carolyn_lessNoise_PlusLocalization,2021.2.3,60.06200381414948,
,,,,,,,,farLeft,-19.1,5,ch1Sound_localizationTask.wav,-19.1,"(667, 878)","(-293,-202)",-285,-338,,,,,,,,,,,,,1,0,7,0,,,,,,,,,,,,,,,,,,,,,,,,,,,,,,,,,,,,,,,,1267.7599015850574,None,,,1270.776006524451,None,1.3592592592592592,0.9820745643228292,1270.776006524451,None,,,,,,,1268.7595374137163,None,1268.9431054862216,1268.959585800767,,,,,,,183,001,2024_Mar_11_1659,SpeechDraft1Carolyn_lessNoise_PlusLocalization,2021.2.3,60.06200381414948,
,,,,,,,,center,0.0,6,ch1Sound_localizationTask.wav,0.0,"(952, 878)","(-8,-202)",0,-338,,,,,,,,,,,,,1,1,8,3,,,,,,,,,,,,,,,,,,,,,,,,,,,,,,,,,,,,,,,,1271.7594570349902,None,,,1274.775977565907,None,1.5074074074074075,0.9156386209651828,1274.775977565907,None,,,,,,,1272.7596627539024,None,1272.9428195478395,1272.9596408754587,,,,,,,183,001,2024_Mar_11_1659,SpeechDraft1Carolyn_lessNoise_PlusLocalization,2021.2.3,60.06200381414948,
,,,,,,,,farLeft,-19.1,5,ch1Sound_localizationTask.wav,-19.1,"(667, 878)","(-293,-202)",-285,-338,,,,,,,,,,,,,1,2,9,0,,,,,,,,,,,,,,,,,,,,,,,,,,,,,,,,,,,,,,,,1275.6930019669235,None,,,1278.7093050237745,None,1.3624338624338623,0.8992621302604675,1278.7093050237745,None,,,,,,,1276.6928567774594,None,1276.8762107314542,1276.8930081622675,,,,,,,183,001,2024_Mar_11_1659,SpeechDraft1Carolyn_lessNoise_PlusLocalization,2021.2.3,60.06200381414948,
,,,,,,,,nearRight,6.5,0,ch1Sound_localizationTask.wav,6.5,"(1047, 878)","(87, -202)",95,-338,,,,,,,,,,,,,1,3,10,4,,,,,,,,,,,,,,,,,,,,,,,,,,,,,,,,,,,,,,,,1279.609773718752,None,,,1282.6259168600664,None,1.5386243386243388,1.0317674595862627,1282.6259168600664,None,,,,,,,1280.6096747014672,None,1280.7931241290644,1280.809458331205,,,,,,,183,001,2024_Mar_11_1659,SpeechDraft1Carolyn_lessNoise_PlusLocalization,2021.2.3,60.06200381414948,
,,,,,,,,center,0.0,6,ch1Sound_localizationTask.wav,0.0,"(952, 878)","(-8,-202)",0,-338,,,,,,,,,,,,,1,4,11,3,,,,,,,,,,,,,,,,,,,,,,,,,,,,,,,,,,,,,,,,1283.6597910616547,None,,,1286.6760862758383,None,1.5010582010582012,1.1506453780457377,1286.6760862758383,None,,,,,,,1284.6596958339214,None,1284.8430149974301,1284.8597805649042,,,,,,,183,001,2024_Mar_11_1659,SpeechDraft1Carolyn_lessNoise_PlusLocalization,2021.2.3,60.06200381414948,
,,,,,,,,nearLeft,-6.5,1,ch1Sound_localizationTask.wav,-6.5,"(857, 878)","(-103,-202)",-95,-338,,,,,,,,,,,,,1,5,12,2,,,,,,,,,,,,,,,,,,,,,,,,,,,,,,,,,,,,,,,,1287.8430856531486,None,,,1290.8593015000224,None,1.4555555555555555,0.9999530669301748,1290.8593015000224,None,,,,,,,1288.842839662917,None,1289.0262719672173,1289.0429699430242,,,,,,,183,001,2024_Mar_11_1659,SpeechDraft1Carolyn_lessNoise_PlusLocalization,2021.2.3,60.06200381414948,
,,,,,,,,farLeft,-19.1,5,ch1Sound_localizationTask.wav,-19.1,"(667, 878)","(-293,-202)",-285,-338,,,,,,,,,,,,,1,6,13,0,,,,,,,,,,,,,,,,,,,,,,,,,,,,,,,,,,,,,,,,1291.8599769510329,None,,,1294.876226965338,None,1.3222222222222222,1.1495149172842503,1294.876226965338,None,,,,,,,1292.8596880100667,None,1293.0428462233394,1293.0598769811913,,,,,,,183,001,2024_Mar_11_1659,SpeechDraft1Carolyn_lessNoise_PlusLocalization,2021.2.3,60.06200381414948,
,,,,,,,,farRight,19.1,4,ch1Sound_localizationTask.wav,19.1,"(1237, 878)","(277,-202)",285,-338,,,,,,,,,,,,,2,0,14,6,,,,,,,,,,,,,,,,,,,,,,,,,,,,,,,,,,,,,,,,1296.0264986092225,None,,,1299.0425730580464,None,1.621164021164021,1.682413749396801,1299.0425730580464,None,,,,,,,1297.0262584844604,None,1297.2097558807582,1297.2261984897777,,,,,,,183,001,2024_Mar_11_1659,SpeechDraft1Carolyn_lessNoise_PlusLocalization,2021.2.3,60.06200381414948,
,,,,,,,,farRight,19.1,4,ch1Sound_localizationTask.wav,19.1,"(1237, 878)","(277,-202)",285,-338,,,,,,,,,,,,,2,1,15,6,,,,,,,,,,,,,,,,,,,,,,,,,,,,,,,,,,,,,,,,1300.7266469914466,None,,,1303.7428895076737,None,1.662962962962963,0.7651253398507833,1303.7428895076737,None,,,,,,,1301.726268925704,None,1301.9096272028983,1301.9263571165502,,,,,,,183,001,2024_Mar_11_1659,SpeechDraft1Carolyn_lessNoise_PlusLocalization,2021.2.3,60.06200381414948,
,,,,,,,,center,0.0,6,ch1Sound_localizationTask.wav,0.0,"(952, 878)","(-8,-202)",0,-338,,,,,,,,,,,,,2,2,16,3,,,,,,,,,,,,,,,,,,,,,,,,,,,,,,,,,,,,,,,,1304.5095249107108,None,,,1307.5261899000034,None,1.4846560846560846,1.131435627117753,1307.5261899000034,None,,,,,,,1305.5096977148205,None,1305.6928556086496,1305.709784307517,,,,,,,183,001,2024_Mar_11_1659,SpeechDraft1Carolyn_lessNoise_PlusLocalization,2021.2.3,60.06200381414948,
,,,,,,,,midRight,13.0,3,ch1Sound_localizationTask.wav,13.0,"(1142, 878)","(182, -202)",190,-338,,,,,,,,,,,,,2,3,17,5,,,,,,,,,,,,,,,,,,,,,,,,,,,,,,,,,,,,,,,,1308.6597881419584,None,,,1311.6760718356818,None,1.5925925925925926,0.7819240400567651,1311.6760718356818,None,,,,,,,1309.6595724867657,None,1309.842841683887,1309.8596033547074,,,,,,,183,001,2024_Mar_11_1659,SpeechDraft1Carolyn_lessNoise_PlusLocalization,2021.2.3,60.06200381414948,
,,,,,,,,nearLeft,-6.5,1,ch1Sound_localizationTask.wav,-6.5,"(857, 878)","(-103,-202)",-95,-338,,,,,,,,,,,,,2,4,18,2,,,,,,,,,,,,,,,,,,,,,,,,,,,,,,,,,,,,,,,,1312.4598998660222,None,,,1315.4762443322688,None,1.3904761904761904,1.9120415560901165,1315.4762443322688,None,,,,,,,1313.4598095538095,None,1313.642884824425,1313.6597208157182,,,,,,,183,001,2024_Mar_11_1659,SpeechDraft1Carolyn_lessNoise_PlusLocalization,2021.2.3,60.06200381414948,
,,,,,,,,midLeft,-13.0,2,ch1Sound_localizationTask.wav,-13.0,"(762, 878)","(-198,-202)",-190,-338,,,,,,,,,,,,,2,5,19,1,,,,,,,,,,,,,,,,,,,,,,,,,,,,,,,,,,,,,,,,1317.4098534127697,None,,,1320.4261324964464,None,1.3952380952380952,0.9831295413896441,1320.4261324964464,None,,,,,,,1318.4097129721195,None,1318.5930043989792,1318.6096702702343,,,,,,,183,001,2024_Mar_11_1659,SpeechDraft1Carolyn_lessNoise_PlusLocalization,2021.2.3,60.06200381414948,
,,,,,,,,nearLeft,-6.5,1,ch1Sound_localizationTask.wav,-6.5,"(857, 878)","(-103,-202)",-95,-338,,,,,,,,,,,,,2,6,20,2,,,,,,,,,,,,,,,,,,,,,,,,,,,,,,,,,,,,,,,,1321.4097270760685,None,,,1324.426003171131,None,1.4608465608465608,0.8816965874284506,1324.426003171131,None,,,,,,,1322.4096046155319,None,1322.593115397729,1322.6094883624464,,,,,,,183,001,2024_Mar_11_1659,SpeechDraft1Carolyn_lessNoise_PlusLocalization,2021.2.3,60.06200381414948,
,,,,,,,,midRight,13.0,3,ch1Sound_localizationTask.wav,13.0,"(1142, 878)","(182, -202)",190,-338,,,,,,,,,,,,,3,0,21,5,,,,,,,,,,,,,,,,,,,,,,,,,,,,,,,,,,,,,,,,1325.3099592886865,None,,,1328.3262502951548,None,1.5883597883597882,0.8321853838860989,1328.3262502951548,None,,,,,,,1326.3095701150596,None,1326.4928341004997,1326.5096987085417,,,,,,,183,001,2024_Mar_11_1659,SpeechDraft1Carolyn_lessNoise_PlusLocalization,2021.2.3,60.06200381414948,
,,,,,,,,farRight,19.1,4,ch1Sound_localizationTask.wav,19.1,"(1237, 878)","(277,-202)",285,-338,,,,,,,,,,,,,3,1,22,6,,,,,,,,,,,,,,,,,,,,,,,,,,,,,,,,,,,,,,,,1329.1600148212165,None,,,1332.1760660288855,None,1.6185185185185185,0.6001446088775992,1332.1760660288855,None,,,,,,,1330.1597000164911,None,1330.3428951734677,1330.3597524370998,,,,,,,183,001,2024_Mar_11_1659,SpeechDraft1Carolyn_lessNoise_PlusLocalization,2021.2.3,60.06200381414948,
,,,,,,,,midLeft,-13.0,2,ch1Sound_localizationTask.wav,-13.0,"(762, 878)","(-198,-202)",-190,-338,,,,,,,,,,,,,3,2,23,1,,,,,,,,,,,,,,,,,,,,,,,,,,,,,,,,,,,,,,,,1332.776281338185,None,,,1335.7927975775674,None,1.4153439153439153,0.8831800865009427,1335.7927975775674,None,,,,,,,1333.776471145451,None,1333.9596598111093,1333.9764921795577,,,,,,,183,001,2024_Mar_11_1659,SpeechDraft1Carolyn_lessNoise_PlusLocalization,2021.2.3,60.06200381414948,
,,,,,,,,midLeft,-13.0,2,ch1Sound_localizationTask.wav,-13.0,"(762, 878)","(-198,-202)",-190,-338,,,,,,,,,,,,,3,3,24,1,,,,,,,,,,,,,,,,,,,,,,,,,,,,,,,,,,,,,,,,1336.677624862641,None,,,1339.7095121331513,None,1.4190476190476191,0.850439241155982,1339.7095121331513,None,,,,,,,1337.6932742046192,None,1337.8762053884566,1337.8931447388604,,,,,,,183,001,2024_Mar_11_1659,SpeechDraft1Carolyn_lessNoise_PlusLocalization,2021.2.3,60.06200381414948,
,,,,,,,,farRight,19.1,4,ch1Sound_localizationTask.wav,19.1,"(1237, 878)","(277,-202)",285,-338,,,,,,,,,,,,,3,4,25,6,,,,,,,,,,,,,,,,,,,,,,,,,,,,,,,,,,,,,,,,1340.5601440034807,None,,,1343.5761798936874,None,1.6455026455026456,1.3329651029780507,1343.5761798936874,None,,,,,,,1341.5598779786378,None,1341.7431756639853,1341.7598226545379,,,,,,,183,001,2024_Mar_11_1659,SpeechDraft1Carolyn_lessNoise_PlusLocalization,2021.2.3,60.06200381414948,
,,,,,,,,farLeft,-19.1,5,ch1Sound_localizationTask.wav,-19.1,"(667, 878)","(-293,-202)",-285,-338,,,,,,,,,,,,,3,5,26,0,,,,,,,,,,,,,,,,,,,,,,,,,,,,,,,,,,,,,,,,1344.9100488387048,None,,,1347.925917419605,None,1.3835978835978837,1.0992709398269653,1347.925917419605,None,,,,,,,1345.9096640022472,None,1346.0930852303281,1346.1097085103393,,,,,,,183,001,2024_Mar_11_1659,SpeechDraft1Carolyn_lessNoise_PlusLocalization,2021.2.3,60.06200381414948,
,,,,,,,,nearRight,6.5,0,ch1Sound_localizationTask.wav,6.5,"(1047, 878)","(87, -202)",95,-338,,,,,,,,,,,,,3,6,27,4,,,,,,,,,,,,,,,,,,,,,,,,,,,,,,,,,,,,,,,,1349.0263241352513,None,,,1352.0428230315447,None,1.5735449735449736,1.833352142944932,1352.0428230315447,None,,,,,,,1350.0265132756904,None,1350.2098327521235,1350.2262955065817,,,,,,,183,001,2024_Mar_11_1659,SpeechDraft1Carolyn_lessNoise_PlusLocalization,2021.2.3,60.06200381414948,
,,,,,,,,nearRight,6.5,0,ch1Sound_localizationTask.wav,6.5,"(1047, 878)","(87, -202)",95,-338,,,,,,,,,,,,,4,0,28,4,,,,,,,,,,,,,,,,,,,,,,,,,,,,,,,,,,,,,,,,1353.8765558684245,None,,,1356.892913615331,None,1.565079365079365,1.0837107505649328,1356.892913615331,None,,,,,,,1354.8765120580792,None,1355.0597189655527,1355.0763018475845,,,,,,,183,001,2024_Mar_11_1659,SpeechDraft1Carolyn_lessNoise_PlusLocalization,2021.2.3,60.06200381414948,
,,,,,,,,nearRight,6.5,0,ch1Sound_localizationTask.wav,6.5,"(1047, 878)","(87, -202)",95,-338,,,,,,,,,,,,,4,1,29,4,,,,,,,,,,,,,,,,,,,,,,,,,,,,,,,,,,,,,,,,1357.977162430063,None,,,1360.9929587114602,None,1.5624338624338625,2.2331788316369057,1360.9929587114602,None,,,,,,,1358.9766015242785,None,1359.1597395697609,1359.1763502340764,,,,,,,183,001,2024_Mar_11_1659,SpeechDraft1Carolyn_lessNoise_PlusLocalization,2021.2.3,60.06200381414948,
,,,,,,,,midRight,13.0,3,ch1Sound_localizationTask.wav,13.0,"(1142, 878)","(182, -202)",190,-338,,,,,,,,,,,,,4,2,30,5,,,,,,,,,,,,,,,,,,,,,,,,,,,,,,,,,,,,,,,,1363.226489535533,None,,,1366.2428115792572,None,1.6174603174603175,1.1662123100832105,1366.2428115792572,None,,,,,,,1364.226303588599,None,1364.409744954668,1364.4264708338305,,,,,,,183,001,2024_Mar_11_1659,SpeechDraft1Carolyn_lessNoise_PlusLocalization,2021.2.3,60.06200381414948,
,,,,,,,,nearLeft,-6.5,1,ch1Sound_localizationTask.wav,-6.5,"(857, 878)","(-103,-202)",-95,-338,,,,,,,,,,,,,4,3,31,2,,,,,,,,,,,,,,,,,,,,,,,,,,,,,,,,,,,,,,,,1367.4108218271285,None,,,1370.4428292410448,None,1.4095238095238094,1.0327181313186884,1370.4428292410448,None,,,,,,,1368.426467240788,None,1368.609747679904,1368.6264604646713,,,,,,,183,001,2024_Mar_11_1659,SpeechDraft1Carolyn_lessNoise_PlusLocalization,2021.2.3,60.06200381414948,
,,,,,,,,nearLeft,-6.5,1,ch1Sound_localizationTask.wav,-6.5,"(857, 878)","(-103,-202)",-95,-338,,,,,,,,,,,,,4,4,32,2,,,,,,,,,,,,,,,,,,,,,,,,,,,,,,,,,,,,,,,,1371.4766720347106,None,,,1374.4930765433237,None,1.4513227513227513,1.0830929642543197,1374.4930765433237,None,,,,,,,1372.476415310055,None,1372.659770667553,1372.6764411050826,,,,,,,183,001,2024_Mar_11_1659,SpeechDraft1Carolyn_lessNoise_PlusLocalization,2021.2.3,60.06200381414948,
,,,,,,,,midLeft,-13.0,2,ch1Sound_localizationTask.wav,-13.0,"(762, 878)","(-198,-202)",-190,-338,,,,,,,,,,,,,4,5,33,1,,,,,,,,,,,,,,,,,,,,,,,,,,,,,,,,,,,,,,,,1375.5763533627614,None,,,1378.5929196765646,None,1.3952380952380952,0.8500509224832058,1378.5929196765646,None,,,,,,,1376.5764965415,None,1376.7596864234656,1376.7763154665008,,,,,,,183,001,2024_Mar_11_1659,SpeechDraft1Carolyn_lessNoise_PlusLocalization,2021.2.3,60.06200381414948,
,,,,,,,,nearRight,6.5,0,ch1Sound_localizationTask.wav,6.5,"(1047, 878)","(87, -202)",95,-338,,,,,,,,,,,,,4,6,34,4,,,,,,,,,,,,,,,,,,,,,,,,,,,,,,,,,,,,,,,,1379.44310759753,None,,,1382.459409052506,None,1.5772486772486771,1.1665611742064357,1382.459409052506,None,,,,,,,1380.443151988089,None,1380.6263860575855,1380.643305673264,,,,,,,183,001,2024_Mar_11_1659,SpeechDraft1Carolyn_lessNoise_PlusLocalization,2021.2.3,60.06200381414948,
,,,,,,,,nearLeft,-6.5,1,ch1Sound_localizationTask.wav,-6.5,"(857, 878)","(-103,-202)",-95,-338,,,,,,,,,,,,,5,0,35,2,,,,,,,,,,,,,,,,,,,,,,,,,,,,,,,,,,,,,,,,1383.6266629239544,None,,,1386.6429648436606,None,1.439153439153439,1.4495179578661919,1386.6429648436606,None,,,,,,,1384.626518434845,None,1384.809614081867,1384.8264294648543,,,,,,,183,001,2024_Mar_11_1659,SpeechDraft1Carolyn_lessNoise_PlusLocalization,2021.2.3,60.06200381414948,
,,,,,,,,nearLeft,-6.5,1,ch1Sound_localizationTask.wav,-6.5,"(857, 878)","(-103,-202)",-95,-338,,,,,,,,,,,,,5,1,36,2,,,,,,,,,,,,,,,,,,,,,,,,,,,,,,,,,,,,,,,,1388.0935685727745,None,,,1391.1094800159335,None,1.447089947089947,1.1334708631038666,1391.1094800159335,None,,,,,,,1389.0930627379566,None,1389.276498734951,1389.2930395985022,,,,,,,183,001,2024_Mar_11_1659,SpeechDraft1Carolyn_lessNoise_PlusLocalization,2021.2.3,60.06200381414948,
,,,,,,,,midRight,13.0,3,ch1Sound_localizationTask.wav,13.0,"(1142, 878)","(182, -202)",190,-338,,,,,,,,,,,,,5,2,37,5,,,,,,,,,,,,,,,,,,,,,,,,,,,,,,,,,,,,,,,,1392.2431208631024,None,,,1395.259334524162,None,1.6126984126984127,0.9660309171304107,1395.259334524162,None,,,,,,,1393.2433515433222,None,1393.426301047206,1393.4430659627542,,,,,,,183,001,2024_Mar_11_1659,SpeechDraft1Carolyn_lessNoise_PlusLocalization,2021.2.3,60.06200381414948,
,,,,,,,,center,0.0,6,ch1Sound_localizationTask.wav,0.0,"(952, 878)","(-8,-202)",0,-338,,,,,,,,,,,,,5,3,38,3,,,,,,,,,,,,,,,,,,,,,,,,,,,,,,,,,,,,,,,,1396.2265918208286,None,,,1399.2432082295418,None,1.4952380952380953,0.8817052850499749,1399.2432082295418,None,,,,,,,1397.2264755088836,None,1397.4097128771245,1397.4264450566843,,,,,,,183,001,2024_Mar_11_1659,SpeechDraft1Carolyn_lessNoise_PlusLocalization,2021.2.3,60.06200381414948,
,,,,,,,,midRight,13.0,3,ch1Sound_localizationTask.wav,13.0,"(1142, 878)","(182, -202)",190,-338,,,,,,,,,,,,,5,4,39,5,,,,,,,,,,,,,,,,,,,,,,,,,,,,,,,,,,,,,,,,1400.1265864176676,None,,,1403.14284676034,None,1.5962962962962963,1.1986596109345555,1403.14284676034,None,,,,,,,1401.126450878568,None,1401.3095987197012,1401.3265489898622,,,,,,,183,001,2024_Mar_11_1659,SpeechDraft1Carolyn_lessNoise_PlusLocalization,2021.2.3,60.06200381414948,
,,,,,,,,farLeft,-19.1,5,ch1Sound_localizationTask.wav,-19.1,"(667, 878)","(-293,-202)",-285,-338,,,,,,,,,,,,,5,5,40,0,,,,,,,,,,,,,,,,,,,,,,,,,,,,,,,,,,,,,,,,1404.3432361595333,None,,,1407.3595159640536,None,1.374074074074074,1.1990521643310785,1407.3595159640536,None,,,,,,,1405.3434184603393,None,1405.5265861880034,1405.5432145399973,,,,,,,183,001,2024_Mar_11_1659,SpeechDraft1Carolyn_lessNoise_PlusLocalization,2021.2.3,60.06200381414948,
,,,,,,,,midRight,13.0,3,ch1Sound_localizationTask.wav,13.0,"(1142, 878)","(182, -202)",190,-338,,,,,,,,,,,,,5,6,41,5,,,,,,,,,,,,,,,,,,,,,,,,,,,,,,,,,,,,,,,,1408.5598917724565,None,,,1411.5761712929234,None,1.5846560846560847,1.099953506141901,1411.5761712929234,None,,,,,,,1409.559629513882,None,1409.7431976646185,1409.7596748052165,,,,,,,183,001,2024_Mar_11_1659,SpeechDraft1Carolyn_lessNoise_PlusLocalization,2021.2.3,60.06200381414948,
,,,,,,,,midRight,13.0,3,ch1Sound_localizationTask.wav,13.0,"(1142, 878)","(182, -202)",190,-338,,,,,,,,,,,,,6,0,42,5,,,,,,,,,,,,,,,,,,,,,,,,,,,,,,,,,,,,,,,,1412.676689511165,None,,,1415.6928982753307,None,1.6042328042328042,0.7498754020780325,1415.6928982753307,None,,,,,,,1413.6764065967873,None,1413.8598988037556,1413.8764104479924,,,,,,,183,001,2024_Mar_11_1659,SpeechDraft1Carolyn_lessNoise_PlusLocalization,2021.2.3,60.06200381414948,
,,,,,,,,nearLeft,-6.5,1,ch1Sound_localizationTask.wav,-6.5,"(857, 878)","(-103,-202)",-95,-338,,,,,,,,,,,,,6,1,43,2,,,,,,,,,,,,,,,,,,,,,,,,,,,,,,,,,,,,,,,,1416.44338759128,None,,,1419.459389408119,None,1.4253968253968254,1.0325554320588708,1419.459389408119,None,,,,,,,1417.443051676266,None,1417.6263280017301,1417.6429691342637,,,,,,,183,001,2024_Mar_11_1659,SpeechDraft1Carolyn_lessNoise_PlusLocalization,2021.2.3,60.06200381414948,
,,,,,,,,farRight,19.1,4,ch1Sound_localizationTask.wav,19.1,"(1237, 878)","(277,-202)",285,-338,,,,,,,,,,,,,6,2,44,6,,,,,,,,,,,,,,,,,,,,,,,,,,,,,,,,,,,,,,,,1420.4936267631128,None,,,1423.5097100324929,None,1.6015873015873017,1.1158368503674865,1423.5097100324929,None,,,,,,,1421.4930987916887,None,1421.6764166485518,1421.6930677844211,,,,,,,183,001,2024_Mar_11_1659,SpeechDraft1Carolyn_lessNoise_PlusLocalization,2021.2.3,60.06200381414948,
,,,,,,,,midRight,13.0,3,ch1Sound_localizationTask.wav,13.0,"(1142, 878)","(182, -202)",190,-338,,,,,,,,,,,,,6,3,45,5,,,,,,,,,,,,,,,,,,,,,,,,,,,,,,,,,,,,,,,,1424.626679618843,None,,,1427.6429563378915,None,1.5703703703703704,1.6666989009827375,1427.6429563378915,None,,,,,,,1425.6263656634837,None,1425.80975752417,1425.8264899654314,,,,,,,183,001,2024_Mar_11_1659,SpeechDraft1Carolyn_lessNoise_PlusLocalization,2021.2.3,60.06200381414948,
,,,,,,,,center,0.0,6,ch1Sound_localizationTask.wav,0.0,"(952, 878)","(-8,-202)",0,-338,,,,,,,,,,,,,6,4,46,3,,,,,,,,,,,,,,,,,,,,,,,,,,,,,,,,,,,,,,,,1429.310036293231,None,,,1432.3263628911227,None,1.4894179894179893,0.9827720038592815,1432.3263628911227,None,,,,,,,1430.3100546030328,None,1430.4930864488706,1430.5098882736638,,,,,,,183,001,2024_Mar_11_1659,SpeechDraft1Carolyn_lessNoise_PlusLocalization,2021.2.3,60.06200381414948,
,,,,,,,,nearRight,6.5,0,ch1Sound_localizationTask.wav,6.5,"(1047, 878)","(87, -202)",95,-338,,,,,,,,,,,,,6,5,47,4,,,,,,,,,,,,,,,,,,,,,,,,,,,,,,,,,,,,,,,,1433.3099300600588,None,,,1436.3262095646933,None,1.544973544973545,0.8665496502071619,1436.3262095646933,None,,,,,,,1434.3098090039566,None,1434.493235484697,1434.5098980236799,,,,,,,183,001,2024_Mar_11_1659,SpeechDraft1Carolyn_lessNoise_PlusLocalization,2021.2.3,60.06200381414948,
,,,,,,,,center,0.0,6,ch1Sound_localizationTask.wav,0.0,"(952, 878)","(-8,-202)",0,-338,,,,,,,,,,,,,6,6,48,3,,,,,,,,,,,,,,,,,,,,,,,,,,,,,,,,,,,,,,,,1437.2096937177703,None,,,1440.226477609016,None,1.5042328042328044,0.833156555891037,1440.226477609016,None,,,,,,,1438.2097786040977,None,1438.3933171778917,1438.409910925664,,,,,,,183,001,2024_Mar_11_1659,SpeechDraft1Carolyn_lessNoise_PlusLocalization,2021.2.3,60.06200381414948,
,,,,,,,,farLeft,-19.1,5,ch1Sound_localizationTask.wav,-19.1,"(667, 878)","(-293,-202)",-285,-338,,,,,,,,,,,,,7,0,49,0,,,,,,,,,,,,,,,,,,,,,,,,,,,,,,,,,,,,,,,,1441.060677787289,None,,,1444.0762597583234,None,1.3624338624338623,1.2483451226726174,1444.0762597583234,None,,,,,,,1442.0597446542233,None,1442.2431653374806,1442.2598648574203,,,,,,,183,001,2024_Mar_11_1659,SpeechDraft1Carolyn_lessNoise_PlusLocalization,2021.2.3,60.06200381414948,
,,,,,,,,nearRight,6.5,0,ch1Sound_localizationTask.wav,6.5,"(1047, 878)","(87, -202)",95,-338,,,,,,,,,,,,,7,1,50,4,,,,,,,,,,,,,,,,,,,,,,,,,,,,,,,,,,,,,,,,1445.3266818756238,None,,,1448.3431147085503,None,1.5232804232804233,1.082903379574418,1448.3431147085503,None,,,,,,,1446.3265447579324,None,1446.509948049672,1446.5265976767987,,,,,,,183,001,2024_Mar_11_1659,SpeechDraft1Carolyn_lessNoise_PlusLocalization,2021.2.3,60.06200381414948,
,,,,,,,,farRight,19.1,4,ch1Sound_localizationTask.wav,19.1,"(1237, 878)","(277,-202)",285,-338,,,,,,,,,,,,,7,2,51,6,,,,,,,,,,,,,,,,,,,,,,,,,,,,,,,,,,,,,,,,1449.4268382797018,None,,,1452.443114457652,None,1.6412698412698412,1.5657831858843565,1452.443114457652,None,,,,,,,1450.4263812229037,None,1450.6098835337907,1450.6264540357515,,,,,,,183,001,2024_Mar_11_1659,SpeechDraft1Carolyn_lessNoise_PlusLocalization,2021.2.3,60.06200381414948,
,,,,,,,,nearRight,6.5,0,ch1Sound_localizationTask.wav,6.5,"(1047, 878)","(87, -202)",95,-338,,,,,,,,,,,,,7,3,52,4,,,,,,,,,,,,,,,,,,,,,,,,,,,,,,,,,,,,,,,,1454.010202333331,None,,,1457.026431268081,None,1.5354497354497354,1.0661501297727227,1457.026431268081,None,,,,,,,1455.0098964888602,None,1455.1930279657245,1455.2098315050825,,,,,,,183,001,2024_Mar_11_1659,SpeechDraft1Carolyn_lessNoise_PlusLocalization,2021.2.3,60.06200381414948,
,,,,,,,,midLeft,-13.0,2,ch1Sound_localizationTask.wav,-13.0,"(762, 878)","(-198,-202)",-190,-338,,,,,,,,,,,,,7,4,53,1,,,,,,,,,,,,,,,,,,,,,,,,,,,,,,,,,,,,,,,,1458.0932618826628,None,,,1461.1097985664383,None,1.4195767195767197,1.015365350060165,1461.1097985664383,None,,,,,,,1459.0930151175708,None,1459.2767065968364,1459.2931027617306,,,,,,,183,001,2024_Mar_11_1659,SpeechDraft1Carolyn_lessNoise_PlusLocalization,2021.2.3,60.06200381414948,
,,,,,,,,farLeft,-19.1,5,ch1Sound_localizationTask.wav,-19.1,"(667, 878)","(-293,-202)",-285,-338,,,,,,,,,,,,,7,5,54,0,,,,,,,,,,,,,,,,,,,,,,,,,,,,,,,,,,,,,,,,1462.126728758216,None,,,1465.1429093601182,None,1.3894179894179894,1.0169741809368134,1465.1429093601182,None,,,,,,,1463.12656046357,None,1463.3097125384957,1463.3265806967393,,,,,,,183,001,2024_Mar_11_1659,SpeechDraft1Carolyn_lessNoise_PlusLocalization,2021.2.3,60.06200381414948,
,,,,,,,,farRight,19.1,4,ch1Sound_localizationTask.wav,19.1,"(1237, 878)","(277,-202)",285,-338,,,,,,,,,,,,,7,6,55,6,,,,,,,,,,,,,,,,,,,,,,,,,,,,,,,,,,,,,,,,1466.1602668836713,None,,,1469.1763489097357,None,1.646031746031746,1.8170014908537269,1469.1763489097357,None,,,,,,,1467.1597471758723,None,1467.3432822739705,1467.3599515976384,,,,,,,183,001,2024_Mar_11_1659,SpeechDraft1Carolyn_lessNoise_PlusLocalization,2021.2.3,60.06200381414948,
,,,,,,,,,,,,,,,,,,,,,,,,,,,,,,,,,,,,,,,,,,,,,,,,,,,,,,,,,,,,,,,,,,,,,,,,,,,,,,,,,,,,,,,,,,,,1471.0098003698513,None,c,97.84575471375138,1471.9933229880407,None,183,001,2024_Mar_11_1659,SpeechDraft1Carolyn_lessNoise_PlusLocalization,2021.2.3,60.06200381414948,
