Audio_Only_Files,Video_Files,Original_Word_List,noiseLevelCode,conditionCodes,noiseLevelFile1,noiseLevelFile2,InstrTextVar,practiceTrials.thisRepN,practiceTrials.thisTrialN,practiceTrials.thisN,practiceTrials.thisIndex,trials.thisRepN,trials.thisTrialN,trials.thisN,trials.thisIndex,letsGoAlready.keys,letsGoAlready.rt,letsGoAlready.started,letsGoAlready.stopped,text_2.started,text_2.stopped,text_3.started,text_3.stopped,key_resp_2.keys,key_resp_2.rt,key_resp_2.started,key_resp_2.stopped,text_5.started,text_5.stopped,fixCross.started,fixCross.stopped,fixCross2.started,fixCross2.stopped,answerPrompt.started,answerPrompt.stopped,getAnswer.text,getAnswer.started,getAnswer.stopped,goToNext.keys,goToNext.rt,goToNext.started,goToNext.stopped,stretchBreakTxrt.started,stretchBreakTxrt.stopped,key_resp_3.keys,key_resp_3.rt,key_resp_3.started,key_resp_3.stopped,exitTxt.started,exitTxt.stopped,key_resp.keys,key_resp.rt,key_resp.started,key_resp.stopped,participant,session,date,expName,psychopyVersion,frameRate,
,,,,,,,,,,,,,,,,space,2.6831746239913628,15.043117219000123,None,,,,,,,,,,,,,,,,,,,,,,,,,,,,,,,,,,,,18,001,2023_Feb_14_1721,SpeechDraft1Carolyn_lessNoise,2021.2.3,60.00175169427893,
,,,,,,,,,,,,,,,,,,,,15.043117219000123,None,17.745832569955382,None,space,20.27174625499174,17.92656547599472,None,,,,,,,,,,,,,,,,,,,,,,,,,,,,18,001,2023_Feb_14_1721,SpeechDraft1Carolyn_lessNoise,2021.2.3,60.00175169427893,
ash.wav,ash.mpg,ash,1,A,Pink_Noise_1_1.wav,Pink_Noise_1_2.wav,"This is an example of an

AUDIO trial",0,0,0,0,,,,,,,,,,,,,,,,,38.25938815297559,None,39.24292072298704,None,42.409454497974366,None,43.776290336973034,None,ash,43.776290336973034,None,return,6.378466380003374,43.85985155898379,None,,,,,,,,,,,,,18,001,2023_Feb_14_1721,SpeechDraft1Carolyn_lessNoise,2021.2.3,60.00175169427893,
ash.wav,ash.mpg,ash,1,AV,Pink_Noise_1_1.wav,Pink_Noise_1_2.wav,"This is an example of an

AUDIO + VIDEO  trial",0,1,1,1,,,,,,,,,,,,,,,,,50.27617510600248,None,51.27633202797733,None,52.759571269969456,None,54.143102778005414,None,ash,54.143102778005414,None,return,2.275943977991119,54.22632843896281,None,,,,,,,,,,,,,18,001,2023_Feb_14_1721,SpeechDraft1Carolyn_lessNoise,2021.2.3,60.00175169427893,
,,,,,,,,,,,,,,,,,,,,,,,,,,,,,,,,,,,,,,,,,,,56.54450632299995,None,space,7.5280100730014965,56.72626780497376,None,,,,,,,18,001,2023_Feb_14_1721,SpeechDraft1Carolyn_lessNoise,2021.2.3,60.00175169427893,
fold.wav,fold.mpg,fold,6,A,Pink_Noise_6_1.wav,Pink_Noise_6_2.wav,,,,,,0,0,0,40,,,,,,,,,,,,,,,64.30945860297652,None,65.7928104159655,None,67.17633498995565,None,pool,67.17633498995565,None,return,3.658627794997301,67.25965793500654,None,,,,,,,,,,,,,18,001,2023_Feb_14_1721,SpeechDraft1Carolyn_lessNoise,2021.2.3,60.00175169427893,
gag.wav,gag.mpg,gag,4,A,Pink_Noise_4_1.wav,Pink_Noise_4_2.wav,,,,,,0,1,1,30,,,,,,,,,,,,,,,70.94299316295655,None,72.44297131197527,None,73.82654630200705,None,gag,73.82654630200705,None,return,3.048603030969389,73.90975687996252,None,,,,,,,,,,,,,18,001,2023_Feb_14_1721,SpeechDraft1Carolyn_lessNoise,2021.2.3,60.00175169427893,
eight.wav,eight.mpg,eight,1,A,Pink_Noise_1_1.wav,Pink_Noise_1_2.wav,,,,,,0,2,2,33,,,,,,,,,,,,,,,76.97653960197931,None,78.45963326096535,None,79.84305476996815,None,it,79.84305476996815,None,return,1.7999519379809499,79.92635291395709,None,,,,,,,,,,,,,18,001,2023_Feb_14_1721,SpeechDraft1Carolyn_lessNoise,2021.2.3,60.00175169427893,
traps.wav,traps.mpg,traps,1,AV,Pink_Noise_1_1.wav,Pink_Noise_1_2.wav,,,,,,0,3,3,93,,,,,,,,,,,,,,,81.7430942269857,None,83.22638616996119,None,84.60967292397982,None,traps,84.60967292397982,None,return,2.537231517955661,84.6930578489555,None,,,,,,,,,,,,,18,001,2023_Feb_14_1721,SpeechDraft1Carolyn_lessNoise,2021.2.3,60.00175169427893,
clerk.wav,clerk.mpg,clerk,6,A,Pink_Noise_6_1.wav,Pink_Noise_6_2.wav,,,,,,0,4,4,0,,,,,,,,,,,,,,,87.25975420000032,None,88.74288081296254,None,90.12640475196531,None,"your
",90.12640475196531,None,return,3.2845363350352272,90.20973209099611,None,,,,,,,,,,,,,18,001,2023_Feb_14_1721,SpeechDraft1Carolyn_lessNoise,2021.2.3,60.00175169427893,
gate.wav,gate.mpg,gate,6,A,Pink_Noise_6_1.wav,Pink_Noise_6_2.wav,,,,,,0,5,5,15,,,,,,,,,,,,,,,93.52637878200039,None,95.0100154899992,None,96.39310254895827,None,hit,96.39310254895827,None,return,2.5218289739568718,96.47654291300569,None,,,,,,,,,,,,,18,001,2023_Feb_14_1721,SpeechDraft1Carolyn_lessNoise,2021.2.3,60.00175169427893,
bow.wav,bow.mpg,bow,3,AV,Pink_Noise_3_1.wav,Pink_Noise_3_2.wav,,,,,,0,6,6,72,,,,,,,,,,,,,,,99.02645574195776,None,100.52631793095497,None,101.90965085400967,None,"bow
",101.90965085400967,None,return,2.069231920002494,101.9930515649612,None,,,,,,,,,,,,,18,001,2023_Feb_14_1721,SpeechDraft1Carolyn_lessNoise,2021.2.3,60.00175169427893,
goat.wav,goat.mpg,goat,6,AV,Pink_Noise_6_1.wav,Pink_Noise_6_2.wav,,,,,,0,7,7,65,,,,,,,,,,,,,,,104.09312153997598,None,105.59282788698329,None,106.95974365196889,None,"goat
",106.95974365196889,None,return,4.235222094983328,107.04307279799832,None,,,,,,,,,,,,,18,001,2023_Feb_14_1721,SpeechDraft1Carolyn_lessNoise,2021.2.3,60.00175169427893,
wound.wav,wound.mpg,wound,3,A,Pink_Noise_3_1.wav,Pink_Noise_3_2.wav,,,,,,0,8,8,18,,,,,,,,,,,,,,,111.30974604695803,None,112.793176208972,None,114.17649120697752,None,"rude
",114.17649120697752,None,return,2.434492358996067,114.25980096700368,None,,,,,,,,,,,,,18,001,2023_Feb_14_1721,SpeechDraft1Carolyn_lessNoise,2021.2.3,60.00175169427893,
toy.wav,toy.mpg,toy,2,A,Pink_Noise_2_1.wav,Pink_Noise_2_2.wav,,,,,,0,9,9,28,,,,,,,,,,,,,,,116.72651844995562,None,118.20980237197364,None,119.59308551397407,None,"toy
",119.59308551397407,None,return,1.4178349139983766,119.67645492299926,None,,,,,,,,,,,,,18,001,2023_Feb_14_1721,SpeechDraft1Carolyn_lessNoise,2021.2.3,60.00175169427893,
boost.wav,boost.mpg,boost,1,A,Pink_Noise_1_1.wav,Pink_Noise_1_2.wav,,,,,,0,10,10,22,,,,,,,,,,,,,,,121.12647372798529,None,122.6261836939957,None,124.00974158296594,None,boost,124.00974158296594,None,return,1.9771656040102243,124.09311116999015,None,,,,,,,,,,,,,18,001,2023_Feb_14_1721,SpeechDraft1Carolyn_lessNoise,2021.2.3,60.00175169427893,
grim.wav,grim.mpg,grim,3,A,Pink_Noise_3_1.wav,Pink_Noise_3_2.wav,,,,,,0,11,11,59,,,,,,,,,,,,,,,126.0931049970095,None,127.57655180495931,None,128.95979868096765,None,"grill
",128.95979868096765,None,return,4.403185240982566,129.0430930169532,None,,,,,,,,,,,,,18,001,2023_Feb_14_1721,SpeechDraft1Carolyn_lessNoise,2021.2.3,60.00175169427893,
paid.wav,paid.mpg,paid,4,AV,Pink_Noise_4_1.wav,Pink_Noise_4_2.wav,,,,,,0,12,12,101,,,,,,,,,,,,,,,133.47632907697698,None,134.96083618100965,None,136.3432887219824,None,pay,136.3432887219824,None,return,2.8596922329743393,136.4265835279948,None,,,,,,,,,,,,,18,001,2023_Feb_14_1721,SpeechDraft1Carolyn_lessNoise,2021.2.3,60.00175169427893,
fake.wav,fake.mpg,fake,3,AV,Pink_Noise_3_1.wav,Pink_Noise_3_2.wav,,,,,,0,13,13,114,,,,,,,,,,,,,,,139.3098243639688,None,140.80965653498424,None,142.19298785499996,None,fake,142.19298785499996,None,return,1.7218726329738274,142.27649339695927,None,,,,,,,,,,,,,18,001,2023_Feb_14_1721,SpeechDraft1Carolyn_lessNoise,2021.2.3,60.00175169427893,
deal.wav,deal.mpg,deal,4,A,Pink_Noise_4_1.wav,Pink_Noise_4_2.wav,,,,,,0,14,14,7,,,,,,,,,,,,,,,144.026450558973,None,145.52627326495713,None,146.89327798498562,None,"deer
",146.89327798498562,None,return,1.7178039670106955,146.97648951096926,None,,,,,,,,,,,,,18,001,2023_Feb_14_1721,SpeechDraft1Carolyn_lessNoise,2021.2.3,60.00175169427893,
eat.wav,eat.mpg,eat,5,AV,Pink_Noise_5_1.wav,Pink_Noise_5_2.wav,,,,,,0,15,15,89,,,,,,,,,,,,,,,148.72651601198595,None,150.22642258397536,None,151.5930771639687,None,it,151.5930771639687,None,return,1.4819172169663943,151.6764472129871,None,,,,,,,,,,,,,18,001,2023_Feb_14_1721,SpeechDraft1Carolyn_lessNoise,2021.2.3,60.00175169427893,
curb.wav,curb.mpg,curb,2,A,Pink_Noise_2_1.wav,Pink_Noise_2_2.wav,,,,,,0,16,16,41,,,,,,,,,,,,,,,153.1766332879779,None,154.65984277497046,None,156.0432514359709,None,curb,156.0432514359709,None,return,1.8957337040337734,156.12655908596935,None,,,,,,,,,,,,,18,001,2023_Feb_14_1721,SpeechDraft1Carolyn_lessNoise,2021.2.3,60.00175169427893,
crisp.wav,crisp.mpg,crisp,5,A,Pink_Noise_5_1.wav,Pink_Noise_5_2.wav,,,,,,0,17,17,57,,,,,,,,,,,,,,,158.0431641479954,None,159.5270635850029,None,160.90997731499374,None,wrist,160.90997731499374,None,return,12.821070784993935,160.9932149819797,None,,,,,,,,,,,,,18,001,2023_Feb_14_1721,SpeechDraft1Carolyn_lessNoise,2021.2.3,60.00175169427893,
brand.wav,brand.mpg,brand,1,AV,Pink_Noise_1_1.wav,Pink_Noise_1_2.wav,,,,,,0,18,18,113,,,,,,,,,,,,,,,173.84341631899588,None,175.32874121697387,None,176.70980181795312,None,brand,176.70980181795312,None,return,1.9732475819764659,176.79311540100025,None,,,,,,,,,,,,,18,001,2023_Feb_14_1721,SpeechDraft1Carolyn_lessNoise,2021.2.3,60.00175169427893,
crate.wav,crate.mpg,crate,1,A,Pink_Noise_1_1.wav,Pink_Noise_1_2.wav,,,,,,0,19,19,12,,,,,,,,,,,,,,,178.79314083000645,None,180.29290124296676,None,181.6767642699997,None,"crate
",181.6767642699997,None,return,2.1503629450453445,181.75992540299194,None,,,,,,,,,,,,,18,001,2023_Feb_14_1721,SpeechDraft1Carolyn_lessNoise,2021.2.3,60.00175169427893,
fast.wav,fast.mpg,fast,1,AV,Pink_Noise_1_1.wav,Pink_Noise_1_2.wav,,,,,,0,20,20,87,,,,,,,,,,,,,,,183.9432200450101,None,185.44317841000156,None,186.82665607699892,None,fast,186.82665607699892,None,return,2.4565176169853657,186.90987489395775,None,,,,,,,,,,,,,18,001,2023_Feb_14_1721,SpeechDraft1Carolyn_lessNoise,2021.2.3,60.00175169427893,
coup.wav,coup.mpg,coup,6,A,Pink_Noise_6_1.wav,Pink_Noise_6_2.wav,,,,,,0,21,21,23,,,,,,,,,,,,,,,189.393209731963,None,190.87670150096528,None,192.25990529899718,None,breed,192.25990529899718,None,return,9.183006262988783,192.34334064699942,None,,,,,,,,,,,,,18,001,2023_Feb_14_1721,SpeechDraft1Carolyn_lessNoise,2021.2.3,60.00175169427893,
client.wav,client.mpg,client,3,A,Pink_Noise_3_1.wav,Pink_Noise_3_2.wav,,,,,,0,22,22,9,,,,,,,,,,,,,,,201.54324196098605,None,203.04321621899726,None,204.42653615097515,None,client,204.42653615097515,None,return,2.672400342009496,204.50997687497875,None,,,,,,,,,,,,,18,001,2023_Feb_14_1721,SpeechDraft1Carolyn_lessNoise,2021.2.3,60.00175169427893,
debt.wav,debt.mpg,debt,1,AV,Pink_Noise_1_1.wav,Pink_Noise_1_2.wav,,,,,,0,23,23,64,,,,,,,,,,,,,,,207.20979849697324,None,208.69360148499254,None,210.0765150009538,None,debt,210.0765150009538,None,return,1.462407457001973,210.1599179279874,None,,,,,,,,,,,,,18,001,2023_Feb_14_1721,SpeechDraft1Carolyn_lessNoise,2021.2.3,60.00175169427893,
crowd.wav,crowd.mpg,crowd,5,A,Pink_Noise_5_1.wav,Pink_Noise_5_2.wav,,,,,,0,24,24,11,,,,,,,,,,,,,,,211.6433160599554,None,213.1431251129834,None,214.5099974150071,None,guy,214.5099974150071,None,return,3.740945814992301,214.59340284997597,None,,,,,,,,,,,,,18,001,2023_Feb_14_1721,SpeechDraft1Carolyn_lessNoise,2021.2.3,60.00175169427893,
strive.wav,strive.mpg,strive,4,AV,Pink_Noise_4_1.wav,Pink_Noise_4_2.wav,,,,,,0,25,25,97,,,,,,,,,,,,,,,218.3599001779803,None,219.86002250399906,None,221.24317617400084,None,strive,221.24317617400084,None,return,4.615732610982377,221.3265861599939,None,,,,,,,,,,,,,18,001,2023_Feb_14_1721,SpeechDraft1Carolyn_lessNoise,2021.2.3,60.00175169427893,
birth.wav,birth.mpg,birth,3,A,Pink_Noise_3_1.wav,Pink_Noise_3_2.wav,,,,,,0,26,26,52,,,,,,,,,,,,,,,225.96031731099356,None,227.45973338896874,None,228.84327097295318,None,birth,228.84327097295318,None,return,1.7437056479975581,228.92657809896627,None,,,,,,,,,,,,,18,001,2023_Feb_14_1721,SpeechDraft1Carolyn_lessNoise,2021.2.3,60.00175169427893,
flake.wav,flake.mpg,flake,4,AV,Pink_Noise_4_1.wav,Pink_Noise_4_2.wav,,,,,,0,27,27,80,,,,,,,,,,,,,,,230.69322392198956,None,232.1766179309925,None,233.56004320899956,None,fake,233.56004320899956,None,return,1.5549638329539448,233.6433219279861,None,,,,,,,,,,,,,18,001,2023_Feb_14_1721,SpeechDraft1Carolyn_lessNoise,2021.2.3,60.00175169427893,
cook.wav,cook.mpg,cook,1,A,Pink_Noise_1_1.wav,Pink_Noise_1_2.wav,,,,,,0,28,28,35,,,,,,,,,,,,,,,235.22689561295556,None,236.71009924000828,None,238.09320208296413,None,pluck,238.09320208296413,None,return,4.421820701973047,238.17660503397929,None,,,,,,,,,,,,,18,001,2023_Feb_14_1721,SpeechDraft1Carolyn_lessNoise,2021.2.3,60.00175169427893,
blink.wav,blink.mpg,blink,1,AV,Pink_Noise_1_1.wav,Pink_Noise_1_2.wav,,,,,,0,29,29,62,,,,,,,,,,,,,,,242.6266962409718,None,244.1264350359561,None,245.5100607489585,None,blink,245.5100607489585,None,return,5.972963175969198,245.59344577195588,None,,,,,,,,,,,,,18,001,2023_Feb_14_1721,SpeechDraft1Carolyn_lessNoise,2021.2.3,60.00175169427893,
clutch.wav,clutch.mpg,clutch,2,AV,Pink_Noise_2_1.wav,Pink_Noise_2_2.wav,,,,,,0,30,30,91,,,,,,,,,,,,,,,251.5933414470055,None,253.07740105100675,None,254.45980586396763,None,"clutch
",254.45980586396763,None,return,2.4869841530453414,254.54328608198557,None,,,,,,,,,,,,,18,001,2023_Feb_14_1721,SpeechDraft1Carolyn_lessNoise,2021.2.3,60.00175169427893,
drop.wav,drop.mpg,drop,2,AV,Pink_Noise_2_1.wav,Pink_Noise_2_2.wav,,,,,,0,31,31,119,,,,,,,,,,,,,,,257.0599963029963,None,258.5599907359574,None,259.94333316298435,None,drop,259.94333316298435,None,return,1.9877585989888757,260.0265350029804,None,,,,,,,,,,,,,18,001,2023_Feb_14_1721,SpeechDraft1Carolyn_lessNoise,2021.2.3,60.00175169427893,
due.wav,due.mpg,due,6,A,Pink_Noise_6_1.wav,Pink_Noise_6_2.wav,,,,,,0,32,32,10,,,,,,,,,,,,,,,262.04345684096916,None,263.54307477897964,None,264.92671347700525,None,hate,264.92671347700525,None,return,5.244314926036168,265.00998428696766,None,,,,,,,,,,,,,18,001,2023_Feb_14_1721,SpeechDraft1Carolyn_lessNoise,2021.2.3,60.00175169427893,
dull.wav,dull.mpg,dull,3,A,Pink_Noise_3_1.wav,Pink_Noise_3_2.wav,,,,,,0,33,33,1,,,,,,,,,,,,,,,270.27654505497776,None,271.7614184659906,None,273.1433964789612,None,"doll
",273.1433964789612,None,return,2.2516717619728297,273.2266046369914,None,,,,,,,,,,,,,18,001,2023_Feb_14_1721,SpeechDraft1Carolyn_lessNoise,2021.2.3,60.00175169427893,
goal.wav,goal.mpg,goal,4,AV,Pink_Noise_4_1.wav,Pink_Noise_4_2.wav,,,,,,0,34,34,75,,,,,,,,,,,,,,,275.50996112200664,None,277.0097425339627,None,278.3932345829671,None,goal,278.3932345829671,None,return,1.6975558300036937,278.47674025100423,None,,,,,,,,,,,,,18,001,2023_Feb_14_1721,SpeechDraft1Carolyn_lessNoise,2021.2.3,60.00175169427893,
dot.wav,dot.mpg,dot,1,AV,Pink_Noise_1_1.wav,Pink_Noise_1_2.wav,,,,,,0,35,35,84,,,,,,,,,,,,,,,280.193687544961,None,281.69323459098814,None,283.07674535899423,None,dot,283.07674535899423,None,return,2.2061919259722345,283.16018861701014,None,,,,,,,,,,,,,18,001,2023_Feb_14_1721,SpeechDraft1Carolyn_lessNoise,2021.2.3,60.00175169427893,
blot.wav,blot.mpg,blot,3,A,Pink_Noise_3_1.wav,Pink_Noise_3_2.wav,,,,,,0,36,36,8,,,,,,,,,,,,,,,285.3932867280091,None,286.87689757498447,None,288.2599007609533,None,plot,288.2599007609533,None,return,2.1589568740455434,288.34332610398997,None,,,,,,,,,,,,,18,001,2023_Feb_14_1721,SpeechDraft1Carolyn_lessNoise,2021.2.3,60.00175169427893,
crook.wav,crook.mpg,crook,5,AV,Pink_Noise_5_1.wav,Pink_Noise_5_2.wav,,,,,,0,37,37,115,,,,,,,,,,,,,,,290.5267059899634,None,292.02652398397913,None,293.3933808589936,None,"crook
",293.3933808589936,None,return,2.217583397985436,293.47669189900625,None,,,,,,,,,,,,,18,001,2023_Feb_14_1721,SpeechDraft1Carolyn_lessNoise,2021.2.3,60.00175169427893,
cleft.wav,cleft.mpg,cleft,6,A,Pink_Noise_6_1.wav,Pink_Noise_6_2.wav,,,,,,0,38,38,16,,,,,,,,,,,,,,,295.7266545179882,None,297.2114326529554,None,298.59334881498944,None,"test
",298.59334881498944,None,return,7.185636390990112,298.67665162397316,None,,,,,,,,,,,,,18,001,2023_Feb_14_1721,SpeechDraft1Carolyn_lessNoise,2021.2.3,60.00175169427893,
belt.wav,belt.mpg,belt,1,A,Pink_Noise_1_1.wav,Pink_Noise_1_2.wav,,,,,,0,39,39,49,,,,,,,,,,,,,,,305.8932744599879,None,307.3773910679738,None,308.76133990095695,None,belt,308.76133990095695,None,return,1.6429275380214676,308.84334949596087,None,,,,,,,,,,,,,18,001,2023_Feb_14_1721,SpeechDraft1Carolyn_lessNoise,2021.2.3,60.00175169427893,
grace.wav,grace.mpg,grace,2,A,Pink_Noise_2_1.wav,Pink_Noise_2_2.wav,,,,,,0,40,40,13,,,,,,,,,,,,,,,310.5100355699542,None,312.0098606820102,None,313.3933799229562,None,"grace
",313.3933799229562,None,return,1.8336707869893871,313.4766204049811,None,,,,,,,,,,,,,18,001,2023_Feb_14_1721,SpeechDraft1Carolyn_lessNoise,2021.2.3,60.00175169427893,
feud.wav,feud.mpg,feud,2,A,Pink_Noise_2_1.wav,Pink_Noise_2_2.wav,,,,,,0,41,41,42,,,,,,,,,,,,,,,315.34334463300183,None,316.843311924953,None,318.2268095299951,None,feud,318.2268095299951,None,return,1.816295925003942,318.3100667989929,None,,,,,,,,,,,,,18,001,2023_Feb_14_1721,SpeechDraft1Carolyn_lessNoise,2021.2.3,60.00175169427893,
thorn.wav,thorn.mpg,thorn,4,A,Pink_Noise_4_1.wav,Pink_Noise_4_2.wav,,,,,,0,42,42,55,,,,,,,,,,,,,,,320.1433595189592,None,321.6431911079562,None,323.0100125769968,None,"thorn
",323.0100125769968,None,return,2.1369573970441706,323.0933403549716,None,,,,,,,,,,,,,18,001,2023_Feb_14_1721,SpeechDraft1Carolyn_lessNoise,2021.2.3,60.00175169427893,
news.wav,news.mpg,news,2,A,Pink_Noise_2_1.wav,Pink_Noise_2_2.wav,,,,,,0,43,43,43,,,,,,,,,,,,,,,325.26008244697005,None,326.7439408879727,None,328.1266640839749,None,news,328.1266640839749,None,return,1.9242970650084317,328.21007786295377,None,,,,,,,,,,,,,18,001,2023_Feb_14_1721,SpeechDraft1Carolyn_lessNoise,2021.2.3,60.00175169427893,
damn.wav,damn.mpg,damn,1,A,Pink_Noise_1_1.wav,Pink_Noise_1_2.wav,,,,,,0,44,44,51,,,,,,,,,,,,,,,330.16012164298445,None,331.6598296180018,None,333.0268456269987,None,damn,333.0268456269987,None,return,2.7040285170078278,333.1102769029676,None,,,,,,,,,,,,,18,001,2023_Feb_14_1721,SpeechDraft1Carolyn_lessNoise,2021.2.3,60.00175169427893,
dream.wav,dream.mpg,dream,2,A,Pink_Noise_2_1.wav,Pink_Noise_2_2.wav,,,,,,0,45,45,27,,,,,,,,,,,,,,,335.843509615981,None,337.32854081498226,None,338.7109712579986,None,"drink
",338.7109712579986,None,return,4.116552272054832,338.7937327079708,None,,,,,,,,,,,,,18,001,2023_Feb_14_1721,SpeechDraft1Carolyn_lessNoise,2021.2.3,60.00175169427893,
gum.wav,gum.mpg,gum,4,A,Pink_Noise_4_1.wav,Pink_Noise_4_2.wav,,,,,,0,46,46,56,,,,,,,,,,,,,,,342.94345804699697,None,344.443186265009,None,345.8101045509684,None,gun,345.8101045509684,None,return,1.1927965540089644,345.8934849629877,None,,,,,,,,,,,,,18,001,2023_Feb_14_1721,SpeechDraft1Carolyn_lessNoise,2021.2.3,60.00175169427893,
brain.wav,brain.mpg,brain,6,AV,Pink_Noise_6_1.wav,Pink_Noise_6_2.wav,,,,,,0,47,47,108,,,,,,,,,,,,,,,347.11014470399823,None,348.6097992109717,None,349.97669152595336,None,bed,349.97669152595336,None,return,4.130135973042343,350.06021788396174,None,,,,,,,,,,,,,18,001,2023_Feb_14_1721,SpeechDraft1Carolyn_lessNoise,2021.2.3,60.00175169427893,
brow.wav,brow.mpg,brow,6,AV,Pink_Noise_6_1.wav,Pink_Noise_6_2.wav,,,,,,0,48,48,104,,,,,,,,,,,,,,,354.21007225400535,None,355.7098549359944,None,357.09341142198537,None,brow,357.09341142198537,None,return,2.3094916180125438,357.17680275597377,None,,,,,,,,,,,,,18,001,2023_Feb_14_1721,SpeechDraft1Carolyn_lessNoise,2021.2.3,60.00175169427893,
dumb.wav,dumb.mpg,dumb,2,AV,Pink_Noise_2_1.wav,Pink_Noise_2_2.wav,,,,,,0,49,49,118,,,,,,,,,,,,,,,359.51005675899796,None,361.0098628239939,None,362.3767191710067,None,dumb,362.3767191710067,None,return,4.538291995006148,362.46006296697306,None,,,,,,,,,,,,,18,001,2023_Feb_14_1721,SpeechDraft1Carolyn_lessNoise,2021.2.3,60.00175169427893,
dwell.wav,dwell.mpg,dwell,1,A,Pink_Noise_1_1.wav,Pink_Noise_1_2.wav,,,,,,0,50,50,44,,,,,,,,,,,,,,,367.02676304697525,None,368.5104105609935,None,369.8934278889792,None,dwell,369.8934278889792,None,return,1.709511808003299,369.9767720719683,None,,,,,,,,,,,,,18,001,2023_Feb_14_1721,SpeechDraft1Carolyn_lessNoise,2021.2.3,60.00175169427893,
phase.wav,phase.mpg,phase,6,AV,Pink_Noise_6_1.wav,Pink_Noise_6_2.wav,,,,,,0,51,51,109,,,,,,,,,,,,,,,371.71012011897983,None,373.2101491659996,None,374.5934618479805,None,face,374.5934618479805,None,return,2.329592000984121,374.6767397740041,None,,,,,,,,,,,,,18,001,2023_Feb_14_1721,SpeechDraft1Carolyn_lessNoise,2021.2.3,60.00175169427893,
awe.wav,awe.mpg,awe,3,AV,Pink_Noise_3_1.wav,Pink_Noise_3_2.wav,,,,,,0,52,52,102,,,,,,,,,,,,,,,377.02674419397954,None,378.5270137829939,None,379.89333473396255,None,all,379.89333473396255,None,return,4.757252860988956,379.97702027199557,None,,,,,,,,,,,,,18,001,2023_Feb_14_1721,SpeechDraft1Carolyn_lessNoise,2021.2.3,60.00175169427893,
cheer.wav,cheer.mpg,cheer,6,A,Pink_Noise_6_1.wav,Pink_Noise_6_2.wav,,,,,,0,53,53,48,,,,,,,,,,,,,,,384.7601610699785,None,386.2599509949796,None,387.6269671639893,None,"cheer
",387.6269671639893,None,return,1.3521419289754704,387.71014721295796,None,,,,,,,,,,,,,18,001,2023_Feb_14_1721,SpeechDraft1Carolyn_lessNoise,2021.2.3,60.00175169427893,
friend.wav,friend.mpg,friend,5,AV,Pink_Noise_5_1.wav,Pink_Noise_5_2.wav,,,,,,0,54,54,79,,,,,,,,,,,,,,,389.09349570499035,None,390.59325991600053,None,391.97689086198807,None,"friend
",391.97689086198807,None,return,1.4500281980144791,392.06024661299307,None,,,,,,,,,,,,,18,001,2023_Feb_14_1721,SpeechDraft1Carolyn_lessNoise,2021.2.3,60.00175169427893,
fence.wav,fence.mpg,fence,2,A,Pink_Noise_2_1.wav,Pink_Noise_2_2.wav,,,,,,0,55,55,32,,,,,,,,,,,,,,,393.54349536501104,None,395.0432491530082,None,396.4101848359569,None,fence,396.4101848359569,None,return,0.9926891639479436,396.4935845899745,None,,,,,,,,,,,,,18,001,2023_Feb_14_1721,SpeechDraft1Carolyn_lessNoise,2021.2.3,60.00175169427893,
fetch.wav,fetch.mpg,fetch,2,A,Pink_Noise_2_1.wav,Pink_Noise_2_2.wav,,,,,,0,56,56,54,,,,,,,,,,,,,,,397.51007104996825,None,398.9951979449834,None,400.37680578499567,None,"fetch
",400.37680578499567,None,return,1.2020092550083064,400.4602816219558,None,,,,,,,,,,,,,18,001,2023_Feb_14_1721,SpeechDraft1Carolyn_lessNoise,2021.2.3,60.00175169427893,
flag.wav,flag.mpg,flag,2,A,Pink_Noise_2_1.wav,Pink_Noise_2_2.wav,,,,,,0,57,57,50,,,,,,,,,,,,,,,401.6934857869637,None,403.19326792500215,None,404.56017998198513,None,"flag
",404.56017998198513,None,return,1.0347917329636402,404.64349667698843,None,,,,,,,,,,,,,18,001,2023_Feb_14_1721,SpeechDraft1Carolyn_lessNoise,2021.2.3,60.00175169427893,
live.wav,live.mpg,live,4,A,Pink_Noise_4_1.wav,Pink_Noise_4_2.wav,,,,,,0,58,58,21,,,,,,,,,,,,,,,405.71010228595696,None,407.2102070279652,None,408.5770026849932,None,"live
",408.5770026849932,None,return,1.202151045028586,408.66014486399945,None,,,,,,,,,,,,,18,001,2023_Feb_14_1721,SpeechDraft1Carolyn_lessNoise,2021.2.3,60.00175169427893,
clam.wav,clam.mpg,clam,2,AV,Pink_Noise_2_1.wav,Pink_Noise_2_2.wav,,,,,,0,59,59,98,,,,,,,,,,,,,,,409.8935972820036,None,411.3786036319798,None,412.76016823697137,None,clam,412.76016823697137,None,return,0.9628787340479903,412.8434691049624,None,,,,,,,,,,,,,18,001,2023_Feb_14_1721,SpeechDraft1Carolyn_lessNoise,2021.2.3,60.00175169427893,
route.wav,route.mpg,route,1,AV,Pink_Noise_1_1.wav,Pink_Noise_1_2.wav,,,,,,0,60,60,100,,,,,,,,,,,,,,,413.82679286797065,None,415.3124929589685,None,416.69347573898267,None,root,416.69347573898267,None,return,0.8933615749701858,416.7769462169963,None,,,,,,,,,,,,,18,001,2023_Feb_14_1721,SpeechDraft1Carolyn_lessNoise,2021.2.3,60.00175169427893,
frost.wav,frost.mpg,frost,5,AV,Pink_Noise_5_1.wav,Pink_Noise_5_2.wav,,,,,,0,61,61,81,,,,,,,,,,,,,,,417.69348001200706,None,419.1934176509967,None,420.56021091196453,None,frost,420.56021091196453,None,return,1.5947287650196813,420.6435861369828,None,,,,,,,,,,,,,18,001,2023_Feb_14_1721,SpeechDraft1Carolyn_lessNoise,2021.2.3,60.00175169427893,
faint.wav,faint.mpg,faint,6,AV,Pink_Noise_6_1.wav,Pink_Noise_6_2.wav,,,,,,0,62,62,99,,,,,,,,,,,,,,,422.26033096498577,None,423.7600160779548,None,425.14349882199895,None,fence,425.14349882199895,None,return,3.0114185019629076,425.22686496400274,None,,,,,,,,,,,,,18,001,2023_Feb_14_1721,SpeechDraft1Carolyn_lessNoise,2021.2.3,60.00175169427893,
grill.wav,grill.mpg,grill,5,AV,Pink_Noise_5_1.wav,Pink_Noise_5_2.wav,,,,,,0,63,63,106,,,,,,,,,,,,,,,428.26010110095376,None,429.7601582329953,None,431.1267770169652,None,"grill
",431.1267770169652,None,return,2.8360356870107353,431.21024017001037,None,,,,,,,,,,,,,18,001,2023_Feb_14_1721,SpeechDraft1Carolyn_lessNoise,2021.2.3,60.00175169427893,
budge.wav,budge.mpg,budge,6,A,Pink_Noise_6_1.wav,Pink_Noise_6_2.wav,,,,,,0,64,64,24,,,,,,,,,,,,,,,434.07694818195887,None,435.57662265596446,None,436.9435958659742,None,badge,436.9435958659742,None,return,4.075443818001077,437.0268304729834,None,,,,,,,,,,,,,18,001,2023_Feb_14_1721,SpeechDraft1Carolyn_lessNoise,2021.2.3,60.00175169427893,
axe.wav,axe.mpg,axe,3,A,Pink_Noise_3_1.wav,Pink_Noise_3_2.wav,,,,,,0,65,65,20,,,,,,,,,,,,,,,441.12688489299035,None,442.62661640596343,None,443.99358301697066,None,pex,443.99358301697066,None,return,22.55339273804566,444.0768966129981,None,,,,,,,,,,,,,18,001,2023_Feb_14_1721,SpeechDraft1Carolyn_lessNoise,2021.2.3,60.00175169427893,
clock.wav,clock.mpg,clock,2,AV,Pink_Noise_2_1.wav,Pink_Noise_2_2.wav,,,,,,0,66,66,95,,,,,,,,,,,,,,,466.66032333800104,None,468.1600477870088,None,469.54373460798524,None,clock,469.54373460798524,None,return,2.595305387978442,469.6269802440074,None,,,,,,,,,,,,,18,001,2023_Feb_14_1721,SpeechDraft1Carolyn_lessNoise,2021.2.3,60.00175169427893,
coin.wav,coin.mpg,coin,3,AV,Pink_Noise_3_1.wav,Pink_Noise_3_2.wav,,,,,,0,67,67,66,,,,,,,,,,,,,,,472.24360212497413,None,473.7434641099535,None,475.1268946029595,None,coin,475.1268946029595,None,return,1.3161801740061492,475.2102073179558,None,,,,,,,,,,,,,18,001,2023_Feb_14_1721,SpeechDraft1Carolyn_lessNoise,2021.2.3,60.00175169427893,
dope.wav,dope.mpg,dope,3,AV,Pink_Noise_3_1.wav,Pink_Noise_3_2.wav,,,,,,0,68,68,92,,,,,,,,,,,,,,,476.5436127889552,None,478.04348635097267,None,479.426871818956,None,dope,479.426871818956,None,return,1.9439923859899864,479.51028352900175,None,,,,,,,,,,,,,18,001,2023_Feb_14_1721,SpeechDraft1Carolyn_lessNoise,2021.2.3,60.00175169427893,
else.wav,else.mpg,else,5,A,Pink_Noise_5_1.wav,Pink_Noise_5_2.wav,,,,,,0,69,69,14,,,,,,,,,,,,,,,481.47695798199857,None,482.9767099649762,None,484.3436141409911,None,house,484.3436141409911,None,return,1.4033607669989578,484.4269159719697,None,,,,,,,,,,,,,18,001,2023_Feb_14_1721,SpeechDraft1Carolyn_lessNoise,2021.2.3,60.00175169427893,
fluent.wav,fluent.mpg,fluent,6,AV,Pink_Noise_6_1.wav,Pink_Noise_6_2.wav,,,,,,0,70,70,105,,,,,,,,,,,,,,,485.86021185596474,None,487.36032078496646,None,488.7280680940021,None,viewer,488.7280680940021,None,return,3.5957829550025053,488.8104921889608,None,,,,,,,,,,,,,18,001,2023_Feb_14_1721,SpeechDraft1Carolyn_lessNoise,2021.2.3,60.00175169427893,
fine.wav,fine.mpg,fine,1,A,Pink_Noise_1_1.wav,Pink_Noise_1_2.wav,,,,,,0,71,71,19,,,,,,,,,,,,,,,492.42723135999404,None,493.94363385700854,None,495.3269386419561,None,"fine
",495.3269386419561,None,return,1.2837675280170515,495.41051542398054,None,,,,,,,,,,,,,18,001,2023_Feb_14_1721,SpeechDraft1Carolyn_lessNoise,2021.2.3,60.00175169427893,
brash.wav,brash.mpg,brash,5,AV,Pink_Noise_5_1.wav,Pink_Noise_5_2.wav,,,,,,0,72,72,96,,,,,,,,,,,,,,,496.72700958297355,None,498.24432410200825,None,499.6268949279911,None,brash,499.6268949279911,None,return,3.192042024980765,499.7102420409792,None,,,,,,,,,,,,,18,001,2023_Feb_14_1721,SpeechDraft1Carolyn_lessNoise,2021.2.3,60.00175169427893,
swayed.wav,swayed.mpg,swayed,3,A,Pink_Noise_3_1.wav,Pink_Noise_3_2.wav,,,,,,0,73,73,31,,,,,,,,,,,,,,,502.9269441239885,None,504.4268216500059,None,505.79359905596357,None,sway,505.79359905596357,None,return,2.4652861210051924,505.87708215700695,None,,,,,,,,,,,,,18,001,2023_Feb_14_1721,SpeechDraft1Carolyn_lessNoise,2021.2.3,60.00175169427893,
rod.wav,rod.mpg,rod,2,AV,Pink_Noise_2_1.wav,Pink_Noise_2_2.wav,,,,,,0,74,74,107,,,,,,,,,,,,,,,508.36037199100247,None,509.8600718299858,None,511.243629693985,None,rod,511.243629693985,None,return,3.831358542025555,511.3269478039583,None,,,,,,,,,,,,,18,001,2023_Feb_14_1721,SpeechDraft1Carolyn_lessNoise,2021.2.3,60.00175169427893,
bird.wav,bird.mpg,bird,5,A,Pink_Noise_5_1.wav,Pink_Noise_5_2.wav,,,,,,0,75,75,4,,,,,,,,,,,,,,,515.1769988909946,None,516.6767322309897,None,518.0603219610057,None,"burn
",518.0603219610057,None,return,1.9505899830255657,518.1436920289998,None,,,,,,,,,,,,,18,001,2023_Feb_14_1721,SpeechDraft1Carolyn_lessNoise,2021.2.3,60.00175169427893,
blast.wav,blast.mpg,blast,3,A,Pink_Noise_3_1.wav,Pink_Noise_3_2.wav,,,,,,0,76,76,34,,,,,,,,,,,,,,,520.1269524479867,None,521.6123520119581,None,522.993571628991,None,last,522.993571628991,None,return,1.3933123479946516,523.0769625859684,None,,,,,,,,,,,,,18,001,2023_Feb_14_1721,SpeechDraft1Carolyn_lessNoise,2021.2.3,60.00175169427893,
cuff.wav,cuff.mpg,cuff,5,A,Pink_Noise_5_1.wav,Pink_Noise_5_2.wav,,,,,,0,77,77,2,,,,,,,,,,,,,,,524.4936994499876,None,525.9934507599683,None,527.377024226007,None,truck,527.377024226007,None,return,1.4979202350368723,527.4604110539658,None,,,,,,,,,,,,,18,001,2023_Feb_14_1721,SpeechDraft1Carolyn_lessNoise,2021.2.3,60.00175169427893,
cane.wav,cane.mpg,cane,5,A,Pink_Noise_5_1.wav,Pink_Noise_5_2.wav,,,,,,0,78,78,53,,,,,,,,,,,,,,,528.977095499984,None,530.4767704049591,None,531.8436484399717,None,hang,531.8436484399717,None,return,3.4473249790025875,531.9270338869537,None,,,,,,,,,,,,,18,001,2023_Feb_14_1721,SpeechDraft1Carolyn_lessNoise,2021.2.3,60.00175169427893,
fear.wav,fear.mpg,fear,3,A,Pink_Noise_3_1.wav,Pink_Noise_3_2.wav,,,,,,0,79,79,29,,,,,,,,,,,,,,,535.3936591430102,None,536.8935459099594,None,538.2769548799843,None,fear,538.2769548799843,None,return,1.245982886001002,538.3602863239939,None,,,,,,,,,,,,,18,001,2023_Feb_14_1721,SpeechDraft1Carolyn_lessNoise,2021.2.3,60.00175169427893,
guide.wav,guide.mpg,guide,6,AV,Pink_Noise_6_1.wav,Pink_Noise_6_2.wav,,,,,,0,80,80,70,,,,,,,,,,,,,,,539.6272969800048,None,541.126767107984,None,542.5103478429955,None,night,542.5103478429955,None,return,3.524573104979936,542.5936874409672,None,,,,,,,,,,,,,18,001,2023_Feb_14_1721,SpeechDraft1Carolyn_lessNoise,2021.2.3,60.00175169427893,
cake.wav,cake.mpg,cake,4,AV,Pink_Noise_4_1.wav,Pink_Noise_4_2.wav,,,,,,0,81,81,112,,,,,,,,,,,,,,,546.1436414659838,None,547.6436585529591,None,549.0269297659979,None,"cake
",549.0269297659979,None,return,0.9198647100129165,549.1104243609589,None,,,,,,,,,,,,,18,001,2023_Feb_14_1721,SpeechDraft1Carolyn_lessNoise,2021.2.3,60.00175169427893,
foam.wav,foam.mpg,foam,3,AV,Pink_Noise_3_1.wav,Pink_Noise_3_2.wav,,,,,,0,82,82,78,,,,,,,,,,,,,,,550.0603844809812,None,551.5602805649978,None,552.9436697610072,None,"foam
",552.9436697610072,None,return,1.4352691440144554,553.0270296529634,None,,,,,,,,,,,,,18,001,2023_Feb_14_1721,SpeechDraft1Carolyn_lessNoise,2021.2.3,60.00175169427893,
pipe.wav,pipe.mpg,pipe,6,AV,Pink_Noise_6_1.wav,Pink_Noise_6_2.wav,,,,,,0,83,83,60,,,,,,,,,,,,,,,554.4937289579539,None,555.9934761979966,None,557.3770146819879,None,"bape
",557.3770146819879,None,return,6.985906980000436,557.4603709839866,None,,,,,,,,,,,,,18,001,2023_Feb_14_1721,SpeechDraft1Carolyn_lessNoise,2021.2.3,60.00175169427893,
stone.wav,stone.mpg,stone,6,AV,Pink_Noise_6_1.wav,Pink_Noise_6_2.wav,,,,,,0,84,84,111,,,,,,,,,,,,,,,564.4770582040073,None,565.9767196309986,None,567.3603699869709,None,snow,567.3603699869709,None,return,6.354557202022988,567.4437308890047,None,,,,,,,,,,,,,18,001,2023_Feb_14_1721,SpeechDraft1Carolyn_lessNoise,2021.2.3,60.00175169427893,
dog.wav,dog.mpg,dog,4,A,Pink_Noise_4_1.wav,Pink_Noise_4_2.wav,,,,,,0,85,85,46,,,,,,,,,,,,,,,573.8269950859831,None,575.3269124369835,None,576.7103763199993,None,dog,576.7103763199993,None,return,1.1404977240017615,576.7938280699891,None,,,,,,,,,,,,,18,001,2023_Feb_14_1721,SpeechDraft1Carolyn_lessNoise,2021.2.3,60.00175169427893,
die.wav,die.mpg,die,6,A,Pink_Noise_6_1.wav,Pink_Noise_6_2.wav,,,,,,0,86,86,47,,,,,,,,,,,,,,,577.960432770953,None,579.460189026955,None,580.8438609289587,None,shot,580.8438609289587,None,return,1.8712655649869703,580.9270450099721,None,,,,,,,,,,,,,18,001,2023_Feb_14_1721,SpeechDraft1Carolyn_lessNoise,2021.2.3,60.00175169427893,
thief.wav,thief.mpg,thief,1,A,Pink_Noise_1_1.wav,Pink_Noise_1_2.wav,,,,,,0,87,87,26,,,,,,,,,,,,,,,582.8270664959564,None,584.326824504009,None,585.7105020289891,None,thief,585.7105020289891,None,return,1.26037377998,585.7938869869686,None,,,,,,,,,,,,,18,001,2023_Feb_14_1721,SpeechDraft1Carolyn_lessNoise,2021.2.3,60.00175169427893,
coach.wav,coach.mpg,coach,2,AV,Pink_Noise_2_1.wav,Pink_Noise_2_2.wav,,,,,,0,88,88,67,,,,,,,,,,,,,,,587.0770187909948,None,588.5770286849583,None,589.9603812499554,None,coach,589.9603812499554,None,return,1.4825969439698383,590.0437601539888,None,,,,,,,,,,,,,18,001,2023_Feb_14_1721,SpeechDraft1Carolyn_lessNoise,2021.2.3,60.00175169427893,
clog.wav,clog.mpg,clog,2,AV,Pink_Noise_2_1.wav,Pink_Noise_2_2.wav,,,,,,0,89,89,103,,,,,,,,,,,,,,,591.543924625963,None,593.0436742400052,None,594.427000035008,None,clog,594.427000035008,None,return,1.655949444975704,594.510404148954,None,,,,,,,,,,,,,18,001,2023_Feb_14_1721,SpeechDraft1Carolyn_lessNoise,2021.2.3,60.00175169427893,
glass.wav,glass.mpg,glass,4,AV,Pink_Noise_4_1.wav,Pink_Noise_4_2.wav,,,,,,0,90,90,71,,,,,,,,,,,,,,,596.193731421954,None,597.7102552779834,None,599.0938809659565,None,glass,599.0938809659565,None,return,1.19724661501823,599.1770744489622,None,,,,,,,,,,,,,18,001,2023_Feb_14_1721,SpeechDraft1Carolyn_lessNoise,2021.2.3,60.00175169427893,
drive.wav,drive.mpg,drive,3,AV,Pink_Noise_3_1.wav,Pink_Noise_3_2.wav,,,,,,0,91,91,63,,,,,,,,,,,,,,,600.3936407259898,None,601.8936052399804,None,603.277106805006,None,drive,603.277106805006,None,return,1.413859713007696,603.3604656989919,None,,,,,,,,,,,,,18,001,2023_Feb_14_1721,SpeechDraft1Carolyn_lessNoise,2021.2.3,60.00175169427893,
blank.wav,blank.mpg,blank,5,A,Pink_Noise_5_1.wav,Pink_Noise_5_2.wav,,,,,,0,92,92,3,,,,,,,,,,,,,,,604.7937591189984,None,606.2936005409574,None,607.6607441189699,None,"right
",607.6607441189699,None,return,2.934518500987906,607.7437921259552,None,,,,,,,,,,,,,18,001,2023_Feb_14_1721,SpeechDraft1Carolyn_lessNoise,2021.2.3,60.00175169427893,
rid.wav,rid.mpg,rid,1,A,Pink_Noise_1_1.wav,Pink_Noise_1_2.wav,,,,,,0,93,93,6,,,,,,,,,,,,,,,610.7103771689581,None,612.2102896680008,None,613.5937892610091,None,"rid
",613.5937892610091,None,return,2.601164849009365,613.6771411820082,None,,,,,,,,,,,,,18,001,2023_Feb_14_1721,SpeechDraft1Carolyn_lessNoise,2021.2.3,60.00175169427893,
dirt.wav,dirt.mpg,dirt,6,AV,Pink_Noise_6_1.wav,Pink_Noise_6_2.wav,,,,,,0,94,94,68,,,,,,,,,,,,,,,616.3104219689849,None,617.810314901988,None,619.193879775994,None,truce,619.193879775994,None,return,3.5610145709943026,619.2772659379989,None,,,,,,,,,,,,,18,001,2023_Feb_14_1721,SpeechDraft1Carolyn_lessNoise,2021.2.3,60.00175169427893,
duke.wav,duke.mpg,duke,2,A,Pink_Noise_2_1.wav,Pink_Noise_2_2.wav,,,,,,0,95,95,25,,,,,,,,,,,,,,,622.8604893229785,None,624.3603961909539,None,625.743875849992,None,duke,625.743875849992,None,return,2.0270923449425027,625.8271847129799,None,,,,,,,,,,,,,18,001,2023_Feb_14_1721,SpeechDraft1Carolyn_lessNoise,2021.2.3,60.00175169427893,
dock.wav,dock.mpg,dock,1,AV,Pink_Noise_1_1.wav,Pink_Noise_1_2.wav,,,,,,0,96,96,88,,,,,,,,,,,,,,,627.877103397972,None,629.3769294800004,None,630.7603925580042,None,"dock
",630.7603925580042,None,return,2.1704577679629438,630.8438115769532,None,,,,,,,,,,,,,18,001,2023_Feb_14_1721,SpeechDraft1Carolyn_lessNoise,2021.2.3,60.00175169427893,
dash.wav,dash.mpg,dash,3,AV,Pink_Noise_3_1.wav,Pink_Noise_3_2.wav,,,,,,0,97,97,82,,,,,,,,,,,,,,,633.0437807369744,None,634.5438009699574,None,635.9276575209806,None,dash,635.9276575209806,None,return,1.2758085620007478,636.0104703229736,None,,,,,,,,,,,,,18,001,2023_Feb_14_1721,SpeechDraft1Carolyn_lessNoise,2021.2.3,60.00175169427893,
cat.wav,cat.mpg,cat,5,A,Pink_Noise_5_1.wav,Pink_Noise_5_2.wav,,,,,,0,98,98,17,,,,,,,,,,,,,,,637.3104537439649,None,638.8269743399578,None,640.2105805829633,None,cast,640.2105805829633,None,return,2.0885291669983417,640.2937632579706,None,,,,,,,,,,,,,18,001,2023_Feb_14_1721,SpeechDraft1Carolyn_lessNoise,2021.2.3,60.00175169427893,
climb.wav,climb.mpg,climb,2,AV,Pink_Noise_2_1.wav,Pink_Noise_2_2.wav,,,,,,0,99,99,77,,,,,,,,,,,,,,,642.4106891889824,None,643.9102011210052,None,645.2938156729797,None,climb,645.2938156729797,None,return,2.021146083017811,645.3771323999972,None,,,,,,,,,,,,,18,001,2023_Feb_14_1721,SpeechDraft1Carolyn_lessNoise,2021.2.3,60.00175169427893,
flow.wav,flow.mpg,flow,4,A,Pink_Noise_4_1.wav,Pink_Noise_4_2.wav,,,,,,0,100,100,38,,,,,,,,,,,,,,,647.4271443589823,None,648.9272474839818,None,650.3105296950089,None,twelve,650.3105296950089,None,return,1.9244740539579652,650.3938236609683,None,,,,,,,,,,,,,18,001,2023_Feb_14_1721,SpeechDraft1Carolyn_lessNoise,2021.2.3,60.00175169427893,
blame.wav,blame.mpg,blame,4,A,Pink_Noise_4_1.wav,Pink_Noise_4_2.wav,,,,,,0,101,101,58,,,,,,,,,,,,,,,652.3439622889855,None,653.8436973689822,None,655.2272287699743,None,flame,655.2272287699743,None,return,1.04775237001013,655.3105362479691,None,,,,,,,,,,,,,18,001,2023_Feb_14_1721,SpeechDraft1Carolyn_lessNoise,2021.2.3,60.00175169427893,
bone.wav,bone.mpg,bone,3,AV,Pink_Noise_3_1.wav,Pink_Noise_3_2.wav,,,,,,0,102,102,85,,,,,,,,,,,,,,,656.377202394011,None,657.8771249789861,None,659.260523039964,None,"bone
",659.260523039964,None,return,1.502441780990921,659.343845691008,None,,,,,,,,,,,,,18,001,2023_Feb_14_1721,SpeechDraft1Carolyn_lessNoise,2021.2.3,60.00175169427893,
faith.wav,faith.mpg,faith,5,AV,Pink_Noise_5_1.wav,Pink_Noise_5_2.wav,,,,,,0,103,103,94,,,,,,,,,,,,,,,660.8771740699885,None,662.3770061049727,None,663.7605284689926,None,faith,663.7605284689926,None,return,5.96246324601816,663.8438045489602,None,,,,,,,,,,,,,18,001,2023_Feb_14_1721,SpeechDraft1Carolyn_lessNoise,2021.2.3,60.00175169427893,
freak.wav,freak.mpg,freak,5,AV,Pink_Noise_5_1.wav,Pink_Noise_5_2.wav,,,,,,0,104,104,73,,,,,,,,,,,,,,,669.8272232129821,None,671.3271082499996,None,672.7104986679624,None,free,672.7104986679624,None,return,2.3243512050248682,672.7939670049818,None,,,,,,,,,,,,,18,001,2023_Feb_14_1721,SpeechDraft1Carolyn_lessNoise,2021.2.3,60.00175169427893,
leapt.wav,leapt.mpg,leapt,5,A,Pink_Noise_5_1.wav,Pink_Noise_5_2.wav,,,,,,0,105,105,39,,,,,,,,,,,,,,,675.1438642040011,None,676.6436607139767,None,678.0274277569843,None,"debt
",678.0274277569843,None,return,1.1517195330234244,678.1105651229736,None,,,,,,,,,,,,,18,001,2023_Feb_14_1721,SpeechDraft1Carolyn_lessNoise,2021.2.3,60.00175169427893,
beer.wav,beer.mpg,beer,1,AV,Pink_Noise_1_1.wav,Pink_Noise_1_2.wav,,,,,,0,106,106,69,,,,,,,,,,,,,,,679.2940396610065,None,680.793883492006,None,682.1772857939941,None,beer,682.1772857939941,None,return,1.9617259179940447,682.2605737159611,None,,,,,,,,,,,,,18,001,2023_Feb_14_1721,SpeechDraft1Carolyn_lessNoise,2021.2.3,60.00175169427893,
creek.wav,creek.mpg,creek,5,A,Pink_Noise_5_1.wav,Pink_Noise_5_2.wav,,,,,,0,107,107,5,,,,,,,,,,,,,,,684.2438752399758,None,685.7436187249841,None,687.127208949998,None,free,687.127208949998,None,return,2.5237523239920847,687.2106414159643,None,,,,,,,,,,,,,18,001,2023_Feb_14_1721,SpeechDraft1Carolyn_lessNoise,2021.2.3,60.00175169427893,
crust.wav,crust.mpg,crust,4,A,Pink_Noise_4_1.wav,Pink_Noise_4_2.wav,,,,,,0,108,108,37,,,,,,,,,,,,,,,689.7606126609608,None,691.2603351569851,None,692.6439756539767,None,trust,692.6439756539767,None,return,2.1589837910141796,692.7272907909937,None,,,,,,,,,,,,,18,001,2023_Feb_14_1721,SpeechDraft1Carolyn_lessNoise,2021.2.3,60.00175169427893,
chat.wav,chat.mpg,chat,2,AV,Pink_Noise_2_1.wav,Pink_Noise_2_2.wav,,,,,,0,109,109,86,,,,,,,,,,,,,,,694.9105616039596,None,696.4270628129598,None,697.7938923739712,None,chat,697.7938923739712,None,return,1.2651830310351215,697.8773226479534,None,,,,,,,,,,,,,18,001,2023_Feb_14_1721,SpeechDraft1Carolyn_lessNoise,2021.2.3,60.00175169427893,
stuck.wav,stuck.mpg,stuck,6,A,Pink_Noise_6_1.wav,Pink_Noise_6_2.wav,,,,,,0,110,110,45,,,,,,,,,,,,,,,699.1607132439967,None,700.6603584589902,None,702.0439130289597,None,true,702.0439130289597,None,return,8.583021302998532,702.1273658779683,None,,,,,,,,,,,,,18,001,2023_Feb_14_1721,SpeechDraft1Carolyn_lessNoise,2021.2.3,60.00175169427893,
grief.wav,grief.mpg,grief,4,AV,Pink_Noise_4_1.wav,Pink_Noise_4_2.wav,,,,,,0,111,111,90,,,,,,,,,,,,,,,710.7272588469787,None,712.226948371972,None,713.6105348409619,None,"grief
",713.6105348409619,None,return,2.8002675260067917,713.6940479709883,None,,,,,,,,,,,,,18,001,2023_Feb_14_1721,SpeechDraft1Carolyn_lessNoise,2021.2.3,60.00175169427893,
curse.wav,curse.mpg,curse,1,AV,Pink_Noise_1_1.wav,Pink_Noise_1_2.wav,,,,,,0,112,112,110,,,,,,,,,,,,,,,716.5272416090011,None,718.0270872690016,None,719.4105127509683,None,curse,719.4105127509683,None,return,1.31239853304578,719.4939084619982,None,,,,,,,,,,,,,18,001,2023_Feb_14_1721,SpeechDraft1Carolyn_lessNoise,2021.2.3,60.00175169427893,
badge.wav,badge.mpg,badge,4,A,Pink_Noise_4_1.wav,Pink_Noise_4_2.wav,,,,,,0,113,113,36,,,,,,,,,,,,,,,720.8272437150008,None,722.3272144009825,None,723.7106176819652,None,badge,723.7106176819652,None,return,8.340458357008174,723.7939022639766,None,,,,,,,,,,,,,18,001,2023_Feb_14_1721,SpeechDraft1Carolyn_lessNoise,2021.2.3,60.00175169427893,
ton.wav,ton.mpg,ton,4,AV,Pink_Noise_4_1.wav,Pink_Noise_4_2.wav,,,,,,0,114,114,83,,,,,,,,,,,,,,,732.1606221270049,None,733.660432928009,None,735.0439585049753,None,tounge,735.0439585049753,None,return,1.758962054969743,735.1273189329659,None,,,,,,,,,,,,,18,001,2023_Feb_14_1721,SpeechDraft1Carolyn_lessNoise,2021.2.3,60.00175169427893,
flee.wav,flee.mpg,flee,4,AV,Pink_Noise_4_1.wav,Pink_Noise_4_2.wav,,,,,,0,115,115,74,,,,,,,,,,,,,,,736.9106637379737,None,738.4104209920042,None,739.7940258609597,None,flee,739.7940258609597,None,return,1.024984244024381,739.8773311669938,None,,,,,,,,,,,,,18,001,2023_Feb_14_1721,SpeechDraft1Carolyn_lessNoise,2021.2.3,60.00175169427893,
cruel.wav,cruel.mpg,cruel,3,AV,Pink_Noise_3_1.wav,Pink_Noise_3_2.wav,,,,,,0,116,116,116,,,,,,,,,,,,,,,740.9273253369611,None,742.4271970239934,None,743.8106053469819,None,cruel,743.8106053469819,None,return,1.4162451969459653,743.8941040879581,None,,,,,,,,,,,,,18,001,2023_Feb_14_1721,SpeechDraft1Carolyn_lessNoise,2021.2.3,60.00175169427893,
gem.wav,gem.mpg,gem,5,AV,Pink_Noise_5_1.wav,Pink_Noise_5_2.wav,,,,,,0,117,117,61,,,,,,,,,,,,,,,745.3273473889567,None,746.8271431339672,None,748.2105719500105,None,gem,748.2105719500105,None,return,1.7283077340107411,748.2939617509837,None,,,,,,,,,,,,,18,001,2023_Feb_14_1721,SpeechDraft1Carolyn_lessNoise,2021.2.3,60.00175169427893,
grunt.wav,grunt.mpg,grunt,5,AV,Pink_Noise_5_1.wav,Pink_Noise_5_2.wav,,,,,,0,118,118,76,,,,,,,,,,,,,,,750.0439109869767,None,751.5437742619542,None,752.9273125649779,None,crut,752.9273125649779,None,return,12.18762337701628,753.0106705239741,None,,,,,,,,,,,,,18,001,2023_Feb_14_1721,SpeechDraft1Carolyn_lessNoise,2021.2.3,60.00175169427893,
chess.wav,chess.mpg,chess,4,AV,Pink_Noise_4_1.wav,Pink_Noise_4_2.wav,,,,,,0,119,119,117,,,,,,,,,,,,,,,765.227387433988,None,766.7272222850006,None,768.1106344609871,None,chess,768.1106344609871,None,return,1.1083023469545878,768.193981155986,None,,,,,,,,,,,,,18,001,2023_Feb_14_1721,SpeechDraft1Carolyn_lessNoise,2021.2.3,60.00175169427893,
,,,,,,,,,,,,,,,,,,,,,,,,,,,,,,,,,,,,,,,,,,,,,,,,,769.3273702010047,None,c,242.61569908901583,770.3107026589569,None,18,001,2023_Feb_14_1721,SpeechDraft1Carolyn_lessNoise,2021.2.3,60.00175169427893,
