Audio_Only_Files,Video_Files,Original_Word_List,noiseLevelCode,conditionCodes,noiseLevelFile1,noiseLevelFile2,InstrTextVar,practiceTrials.thisRepN,practiceTrials.thisTrialN,practiceTrials.thisN,practiceTrials.thisIndex,trials.thisRepN,trials.thisTrialN,trials.thisN,trials.thisIndex,letsGoAlready.keys,letsGoAlready.rt,letsGoAlready.started,letsGoAlready.stopped,text_2.started,text_2.stopped,text_3.started,text_3.stopped,key_resp_2.keys,key_resp_2.rt,key_resp_2.started,key_resp_2.stopped,text_5.started,text_5.stopped,fixCross.started,fixCross.stopped,fixCross2.started,fixCross2.stopped,answerPrompt.started,answerPrompt.stopped,getAnswer.text,getAnswer.started,getAnswer.stopped,goToNext.keys,goToNext.rt,goToNext.started,goToNext.stopped,stretchBreakTxrt.started,stretchBreakTxrt.stopped,key_resp_3.keys,key_resp_3.rt,key_resp_3.started,key_resp_3.stopped,exitTxt.started,exitTxt.stopped,key_resp.keys,key_resp.rt,key_resp.started,key_resp.stopped,participant,session,date,expName,psychopyVersion,frameRate,
,,,,,,,,,,,,,,,,space,796.8569077199991,10.450901005999185,None,,,,,,,,,,,,,,,,,,,,,,,,,,,,,,,,,,,,1,001,2022_Nov_18_1830,SpeechDraft1Carolyn_lessNoise,2021.2.3,60.07162628310818,
,,,,,,,,,,,,,,,,,,,,10.450901005999185,None,807.3354118740008,None,space,50.700960633999784,807.5188430170001,None,,,,,,,,,,,,,,,,,,,,,,,,,,,,1,001,2022_Nov_18_1830,SpeechDraft1Carolyn_lessNoise,2021.2.3,60.07162628310818,
ash.wav,ash.mpg,ash,1,A,Pink_Noise_1_1.wav,Pink_Noise_1_2.wav,"This is an example of an

AUDIO trial",0,0,0,0,,,,,,,,,,,,,,,,,858.2685049789998,None,859.2687366610007,None,862.1684517579997,None,863.5523228940001,None,ash,863.5523228940001,None,return,7.144291800999781,863.6355501830003,None,,,,,,,,,,,,,1,001,2022_Nov_18_1830,SpeechDraft1Carolyn_lessNoise,2021.2.3,60.07162628310818,
ash.wav,ash.mpg,ash,1,AV,Pink_Noise_1_1.wav,Pink_Noise_1_2.wav,"This is an example of an

AUDIO + VIDEO  trial",0,1,1,1,,,,,,,,,,,,,,,,,870.8186340480006,None,871.8187506350005,None,873.3191122909993,None,874.7021276220003,None,"ash
",874.7021276220003,None,return,3.0182168900009856,874.7856157419992,None,,,,,,,,,,,,,1,001,2022_Nov_18_1830,SpeechDraft1Carolyn_lessNoise,2021.2.3,60.07162628310818,
,,,,,,,,,,,,,,,,,,,,,,,,,,,,,,,,,,,,,,,,,,,877.8520451570002,None,space,20.136339537999447,878.0355236659998,None,,,,,,,1,001,2022_Nov_18_1830,SpeechDraft1Carolyn_lessNoise,2021.2.3,60.07162628310818,
bar.wav,bar.mpg,bar,2,AV,Pink_Noise_2_1.wav,Pink_Noise_2_2.wav,,,,,,0,0,0,78,,,,,,,,,,,,,,,898.2348054739996,None,899.7682708100001,None,901.1515031479994,None,bar,901.1515031479994,None,return,3.27265007799906,901.2352784039995,None,,,,,,,,,,,,,1,001,2022_Nov_18_1830,SpeechDraft1Carolyn_lessNoise,2021.2.3,60.07162628310818,
crate.wav,crate.mpg,crate,5,AV,Pink_Noise_5_1.wav,Pink_Noise_5_2.wav,,,,,,0,1,1,60,,,,,,,,,,,,,,,904.5359481369997,None,906.0849368580002,None,907.4687834559991,None,crate,907.4687834559991,None,return,3.7395410250010173,907.5523629559993,None,,,,,,,,,,,,,1,001,2022_Nov_18_1830,SpeechDraft1Carolyn_lessNoise,2021.2.3,60.07162628310818,
coy.wav,coy.mpg,coy,2,AV,Pink_Noise_2_1.wav,Pink_Noise_2_2.wav,,,,,,0,2,2,99,,,,,,,,,,,,,,,911.3191477340006,None,912.8684696380005,None,914.2522896490009,None,koi,914.2522896490009,None,return,2.572521195999798,914.3353383939993,None,,,,,,,,,,,,,1,001,2022_Nov_18_1830,SpeechDraft1Carolyn_lessNoise,2021.2.3,60.07162628310818,
glide.wav,glide.mpg,glide,4,A,Pink_Noise_4_1.wav,Pink_Noise_4_2.wav,,,,,,0,3,3,14,,,,,,,,,,,,,,,916.9357712380006,None,918.4853269760006,None,919.8687830800009,None,glide,919.8687830800009,None,return,5.1237569819986675,919.9521800660004,None,,,,,,,,,,,,,1,001,2022_Nov_18_1830,SpeechDraft1Carolyn_lessNoise,2021.2.3,60.07162628310818,
tomb.wav,tomb.mpg,tomb,6,AV,Pink_Noise_6_1.wav,Pink_Noise_6_2.wav,,,,,,0,4,4,115,,,,,,,,,,,,,,,925.1021693000002,None,926.652034191,None,928.0353822310008,None,"tool
",928.0353822310008,None,return,2.8690914810013055,928.1187264500004,None,,,,,,,,,,,,,1,001,2022_Nov_18_1830,SpeechDraft1Carolyn_lessNoise,2021.2.3,60.07162628310818,
bride.wav,bride.mpg,bride,6,A,Pink_Noise_6_1.wav,Pink_Noise_6_2.wav,,,,,,0,5,5,32,,,,,,,,,,,,,,,931.0191629359997,None,932.5689394359997,None,933.9519075549997,None,run,933.9519075549997,None,return,2.512316030000875,934.0354959380002,None,,,,,,,,,,,,,1,001,2022_Nov_18_1830,SpeechDraft1Carolyn_lessNoise,2021.2.3,60.07162628310818,
fed.wav,fed.mpg,fed,1,A,Pink_Noise_1_1.wav,Pink_Noise_1_2.wav,,,,,,0,6,6,26,,,,,,,,,,,,,,,936.5683379780003,None,938.1017451509997,None,939.4857995889997,None,"fed
",939.4857995889997,None,return,2.219252762999531,939.5685578119992,None,,,,,,,,,,,,,1,001,2022_Nov_18_1830,SpeechDraft1Carolyn_lessNoise,2021.2.3,60.07162628310818,
sue.wav,sue.mpg,sue,5,A,Pink_Noise_5_1.wav,Pink_Noise_5_2.wav,,,,,,0,7,7,25,,,,,,,,,,,,,,,941.8187240959996,None,943.351923106,None,944.7353896130007,None,soup,944.7353896130007,None,return,3.096983019999243,944.8188790740005,None,,,,,,,,,,,,,1,001,2022_Nov_18_1830,SpeechDraft1Carolyn_lessNoise,2021.2.3,60.07162628310818,
eel.wav,eel.mpg,eel,4,AV,Pink_Noise_4_1.wav,Pink_Noise_4_2.wav,,,,,,0,8,8,77,,,,,,,,,,,,,,,947.9355705340004,None,949.4687161990005,None,950.8523880989997,None,eel,950.8523880989997,None,return,2.5564906829986285,950.9354524829996,None,,,,,,,,,,,,,1,001,2022_Nov_18_1830,SpeechDraft1Carolyn_lessNoise,2021.2.3,60.07162628310818,
strive.wav,strive.mpg,strive,5,A,Pink_Noise_5_1.wav,Pink_Noise_5_2.wav,,,,,,0,9,9,42,,,,,,,,,,,,,,,953.5186547089997,None,955.0195664450002,None,956.4024073769997,None,star,956.4024073769997,None,return,3.630849097000464,956.4849652110006,None,,,,,,,,,,,,,1,001,2022_Nov_18_1830,SpeechDraft1Carolyn_lessNoise,2021.2.3,60.07162628310818,
bill.wav,bill.mpg,bill,6,AV,Pink_Noise_6_1.wav,Pink_Noise_6_2.wav,,,,,,0,10,10,104,,,,,,,,,,,,,,,960.1353039759997,None,961.6518042150001,None,963.035211458,None,pill,963.035211458,None,return,3.7969134399991162,963.1189751689999,None,,,,,,,,,,,,,1,001,2022_Nov_18_1830,SpeechDraft1Carolyn_lessNoise,2021.2.3,60.07162628310818,
blast.wav,blast.mpg,blast,1,AV,Pink_Noise_1_1.wav,Pink_Noise_1_2.wav,,,,,,0,11,11,70,,,,,,,,,,,,,,,966.9353286000005,None,968.4682860020002,None,969.8515718390008,None,"blast
",969.8515718390008,None,return,3.90048044499963,969.9353300160001,None,,,,,,,,,,,,,1,001,2022_Nov_18_1830,SpeechDraft1Carolyn_lessNoise,2021.2.3,60.07162628310818,
bottle.wav,bottle.mpg,bottle,6,A,Pink_Noise_6_1.wav,Pink_Noise_6_2.wav,,,,,,0,12,12,33,,,,,,,,,,,,,,,973.8687337449992,None,975.4188341959998,None,976.7855825789993,None,science,976.7855825789993,None,return,5.046628194000732,976.8691881270006,None,,,,,,,,,,,,,1,001,2022_Nov_18_1830,SpeechDraft1Carolyn_lessNoise,2021.2.3,60.07162628310818,
bold.wav,bold.mpg,bold,6,A,Pink_Noise_6_1.wav,Pink_Noise_6_2.wav,,,,,,0,13,13,37,,,,,,,,,,,,,,,981.9354961129993,None,983.4850079259995,None,984.8688234330002,None,"toy
",984.8688234330002,None,return,3.803262026000084,984.952549009,None,,,,,,,,,,,,,1,001,2022_Nov_18_1830,SpeechDraft1Carolyn_lessNoise,2021.2.3,60.07162628310818,
curve.wav,curve.mpg,curve,3,A,Pink_Noise_3_1.wav,Pink_Noise_3_2.wav,,,,,,0,14,14,27,,,,,,,,,,,,,,,988.7849860120004,None,990.3019113120008,None,991.6858480539995,None,"pearl
",991.6858480539995,None,return,5.586691804999646,991.7691361439993,None,,,,,,,,,,,,,1,001,2022_Nov_18_1830,SpeechDraft1Carolyn_lessNoise,2021.2.3,60.07162628310818,
bleed.wav,bleed.mpg,bleed,4,AV,Pink_Noise_4_1.wav,Pink_Noise_4_2.wav,,,,,,0,15,15,101,,,,,,,,,,,,,,,997.3857331220006,None,998.9356637969995,None,1000.3190622999991,None,leave,1000.3190622999991,None,return,3.722187725999902,1000.4017022530006,None,,,,,,,,,,,,,1,001,2022_Nov_18_1830,SpeechDraft1Carolyn_lessNoise,2021.2.3,60.07162628310818,
foul.wav,foul.mpg,foul,1,AV,Pink_Noise_1_1.wav,Pink_Noise_1_2.wav,,,,,,0,16,16,88,,,,,,,,,,,,,,,1004.1526051590008,None,1005.7016132030003,None,1007.0857468270005,None,foul,1007.0857468270005,None,return,2.3304671170008078,1007.1694169839993,None,,,,,,,,,,,,,1,001,2022_Nov_18_1830,SpeechDraft1Carolyn_lessNoise,2021.2.3,60.07162628310818,
tart.wav,tart.mpg,tart,3,A,Pink_Noise_3_1.wav,Pink_Noise_3_2.wav,,,,,,0,17,17,28,,,,,,,,,,,,,,,1009.5188265920006,None,1011.0345783270004,None,1012.4191425019999,None,tart,1012.4191425019999,None,return,2.17392598799961,1012.5018802960003,None,,,,,,,,,,,,,1,001,2022_Nov_18_1830,SpeechDraft1Carolyn_lessNoise,2021.2.3,60.07162628310818,
buff.wav,buff.mpg,buff,2,AV,Pink_Noise_2_1.wav,Pink_Noise_2_2.wav,,,,,,0,18,18,66,,,,,,,,,,,,,,,1014.7018607859991,None,1016.2180579550004,None,1017.6020378419998,None,buff,1017.6020378419998,None,return,2.3665023320008913,1017.685365325,None,,,,,,,,,,,,,1,001,2022_Nov_18_1830,SpeechDraft1Carolyn_lessNoise,2021.2.3,60.07162628310818,
drunk.wav,drunk.mpg,drunk,2,A,Pink_Noise_2_1.wav,Pink_Noise_2_2.wav,,,,,,0,19,19,35,,,,,,,,,,,,,,,1020.0688757650005,None,1021.58568018,None,1022.9687474250004,None,drunk,1022.9687474250004,None,return,2.880135085000802,1023.0516728439998,None,,,,,,,,,,,,,1,001,2022_Nov_18_1830,SpeechDraft1Carolyn_lessNoise,2021.2.3,60.07162628310818,
clash.wav,clash.mpg,clash,2,AV,Pink_Noise_2_1.wav,Pink_Noise_2_2.wav,,,,,,0,20,20,80,,,,,,,,,,,,,,,1025.9522112529994,None,1027.4854365310002,None,1028.8687494820006,None,clash,1028.8687494820006,None,return,3.1392024050001055,1028.9526451719994,None,,,,,,,,,,,,,1,001,2022_Nov_18_1830,SpeechDraft1Carolyn_lessNoise,2021.2.3,60.07162628310818,
fast.wav,fast.mpg,fast,2,AV,Pink_Noise_2_1.wav,Pink_Noise_2_2.wav,,,,,,0,21,21,67,,,,,,,,,,,,,,,1032.1185626499991,None,1033.6855236680003,None,1035.0687663770004,None,"fast
",1035.0687663770004,None,return,2.203926448999482,1035.151881103,None,,,,,,,,,,,,,1,001,2022_Nov_18_1830,SpeechDraft1Carolyn_lessNoise,2021.2.3,60.07162628310818,
fund.wav,fund.mpg,fund,5,AV,Pink_Noise_5_1.wav,Pink_Noise_5_2.wav,,,,,,0,22,22,106,,,,,,,,,,,,,,,1037.3852685189995,None,1038.901537242,None,1040.2855526570002,None,"start
",1040.2855526570002,None,return,3.6344808060002833,1040.3693304499993,None,,,,,,,,,,,,,1,001,2022_Nov_18_1830,SpeechDraft1Carolyn_lessNoise,2021.2.3,60.07162628310818,
boost.wav,boost.mpg,boost,2,AV,Pink_Noise_2_1.wav,Pink_Noise_2_2.wav,,,,,,0,23,23,89,,,,,,,,,,,,,,,1044.0351758649995,None,1045.5688423970005,None,1046.9520063590007,None,"boost
",1046.9520063590007,None,return,3.1846481600005063,1047.0351645760002,None,,,,,,,,,,,,,1,001,2022_Nov_18_1830,SpeechDraft1Carolyn_lessNoise,2021.2.3,60.07162628310818,
bulb.wav,bulb.mpg,bulb,2,AV,Pink_Noise_2_1.wav,Pink_Noise_2_2.wav,,,,,,0,24,24,114,,,,,,,,,,,,,,,1050.2526097560003,None,1051.7686377070004,None,1053.1526484419992,None,bulb,1053.1526484419992,None,return,3.015936858999339,1053.2359401699996,None,,,,,,,,,,,,,1,001,2022_Nov_18_1830,SpeechDraft1Carolyn_lessNoise,2021.2.3,60.07162628310818,
gap.wav,gap.mpg,gap,6,A,Pink_Noise_6_1.wav,Pink_Noise_6_2.wav,,,,,,0,25,25,11,,,,,,,,,,,,,,,1056.269033552,None,1057.7855723289995,None,1059.1684435850002,None,draft,1059.1684435850002,None,return,2.815324397999575,1059.2525796320006,None,,,,,,,,,,,,,1,001,2022_Nov_18_1830,SpeechDraft1Carolyn_lessNoise,2021.2.3,60.07162628310818,
live.wav,live.mpg,live,5,AV,Pink_Noise_5_1.wav,Pink_Noise_5_2.wav,,,,,,0,26,26,62,,,,,,,,,,,,,,,1062.0855230500001,None,1063.6351255490008,None,1065.0024365680001,None,hill,1065.0024365680001,None,return,3.5101839389990346,1065.0856585170004,None,,,,,,,,,,,,,1,001,2022_Nov_18_1830,SpeechDraft1Carolyn_lessNoise,2021.2.3,60.07162628310818,
chat.wav,chat.mpg,chat,6,AV,Pink_Noise_6_1.wav,Pink_Noise_6_2.wav,,,,,,0,27,27,110,,,,,,,,,,,,,,,1068.619335027999,None,1070.135341101999,None,1071.5192110690004,None,chat,1071.5192110690004,None,return,2.873644459999923,1071.6022119560002,None,,,,,,,,,,,,,1,001,2022_Nov_18_1830,SpeechDraft1Carolyn_lessNoise,2021.2.3,60.07162628310818,
cuff.wav,cuff.mpg,cuff,4,A,Pink_Noise_4_1.wav,Pink_Noise_4_2.wav,,,,,,0,28,28,6,,,,,,,,,,,,,,,1074.5018510289992,None,1076.0522843180006,None,1077.4190439590002,None,"tough
",1077.4190439590002,None,return,3.1011770789991715,1077.5026310079993,None,,,,,,,,,,,,,1,001,2022_Nov_18_1830,SpeechDraft1Carolyn_lessNoise,2021.2.3,60.07162628310818,
edge.wav,edge.mpg,edge,4,A,Pink_Noise_4_1.wav,Pink_Noise_4_2.wav,,,,,,0,29,29,50,,,,,,,,,,,,,,,1080.6358074830005,None,1082.1526019510002,None,1083.5357659879992,None,edge,1083.5357659879992,None,return,2.4090646489985375,1083.618741196,None,,,,,,,,,,,,,1,001,2022_Nov_18_1830,SpeechDraft1Carolyn_lessNoise,2021.2.3,60.07162628310818,
bad.wav,bad.mpg,bad,1,AV,Pink_Noise_1_1.wav,Pink_Noise_1_2.wav,,,,,,0,30,30,90,,,,,,,,,,,,,,,1086.052267563,None,1087.56938714,None,1088.9352366629992,None,band,1088.9352366629992,None,return,3.2244960379994154,1089.0193816749997,None,,,,,,,,,,,,,1,001,2022_Nov_18_1830,SpeechDraft1Carolyn_lessNoise,2021.2.3,60.07162628310818,
gram.wav,gram.mpg,gram,2,AV,Pink_Noise_2_1.wav,Pink_Noise_2_2.wav,,,,,,0,31,31,92,,,,,,,,,,,,,,,1092.2683929110008,None,1093.8015157400005,None,1095.1852206160002,None,"gram
",1095.1852206160002,None,return,2.9184921529995336,1095.2693342429993,None,,,,,,,,,,,,,1,001,2022_Nov_18_1830,SpeechDraft1Carolyn_lessNoise,2021.2.3,60.07162628310818,
curb.wav,curb.mpg,curb,1,A,Pink_Noise_1_1.wav,Pink_Noise_1_2.wav,,,,,,0,32,32,46,,,,,,,,,,,,,,,1098.2189912939994,None,1099.7189288219997,None,1101.1028236420007,None,curb,1101.1028236420007,None,return,2.457830286999524,1101.1859690319998,None,,,,,,,,,,,,,1,001,2022_Nov_18_1830,SpeechDraft1Carolyn_lessNoise,2021.2.3,60.07162628310818,
thrown.wav,thrown.mpg,thrown,2,A,Pink_Noise_2_1.wav,Pink_Noise_2_2.wav,,,,,,0,33,33,55,,,,,,,,,,,,,,,1103.6688542730008,None,1105.1856289820007,None,1106.569036494,None,throw,1106.569036494,None,return,2.9437361660002352,1106.6520694400006,None,,,,,,,,,,,,,1,001,2022_Nov_18_1830,SpeechDraft1Carolyn_lessNoise,2021.2.3,60.07162628310818,
chef.wav,chef.mpg,chef,4,A,Pink_Noise_4_1.wav,Pink_Noise_4_2.wav,,,,,,0,34,34,2,,,,,,,,,,,,,,,1109.6188344170005,None,1111.1358117319996,None,1112.5188755479994,None,"shove
",1112.5188755479994,None,return,3.6171393690001423,1112.6026692649993,None,,,,,,,,,,,,,1,001,2022_Nov_18_1830,SpeechDraft1Carolyn_lessNoise,2021.2.3,60.07162628310818,
guilt.wav,guilt.mpg,guilt,5,A,Pink_Noise_5_1.wav,Pink_Noise_5_2.wav,,,,,,0,35,35,12,,,,,,,,,,,,,,,1116.2528120219995,None,1117.785340638,None,1119.1685391049996,None,joint,1119.1685391049996,None,return,5.247826337001243,1119.2520983159993,None,,,,,,,,,,,,,1,001,2022_Nov_18_1830,SpeechDraft1Carolyn_lessNoise,2021.2.3,60.07162628310818,
born.wav,born.mpg,born,5,A,Pink_Noise_5_1.wav,Pink_Noise_5_2.wav,,,,,,0,36,36,15,,,,,,,,,,,,,,,1124.5192256680002,None,1126.06896246,None,1127.452760405,None,four,1127.452760405,None,return,2.9327653869986534,1127.5351227800002,None,,,,,,,,,,,,,1,001,2022_Nov_18_1830,SpeechDraft1Carolyn_lessNoise,2021.2.3,60.07162628310818,
cow.wav,cow.mpg,cow,4,AV,Pink_Noise_4_1.wav,Pink_Noise_4_2.wav,,,,,,0,37,37,85,,,,,,,,,,,,,,,1130.4860683129991,None,1131.9852947489999,None,1133.3688284260006,None,cow,1133.3688284260006,None,return,3.047674788000222,1133.4522361269992,None,,,,,,,,,,,,,1,001,2022_Nov_18_1830,SpeechDraft1Carolyn_lessNoise,2021.2.3,60.07162628310818,
gas.wav,gas.mpg,gas,6,AV,Pink_Noise_6_1.wav,Pink_Noise_6_2.wav,,,,,,0,38,38,112,,,,,,,,,,,,,,,1136.5191124140001,None,1138.03580039,None,1139.4186892449998,None,"yes
",1139.4186892449998,None,return,2.65333833799923,1139.5024868510009,None,,,,,,,,,,,,,1,001,2022_Nov_18_1830,SpeechDraft1Carolyn_lessNoise,2021.2.3,60.07162628310818,
dive.wav,dive.mpg,dive,5,A,Pink_Noise_5_1.wav,Pink_Noise_5_2.wav,,,,,,0,39,39,52,,,,,,,,,,,,,,,1142.1855847099996,None,1143.7023042700002,None,1145.0684346960006,None,die,1145.0684346960006,None,return,3.299245977001192,1145.1526409409998,None,,,,,,,,,,,,,1,001,2022_Nov_18_1830,SpeechDraft1Carolyn_lessNoise,2021.2.3,60.07162628310818,
germ.wav,germ.mpg,germ,4,AV,Pink_Noise_4_1.wav,Pink_Noise_4_2.wav,,,,,,0,40,40,84,,,,,,,,,,,,,,,1148.4690537530005,None,1149.9860357670004,None,1151.3689722390009,None,germ,1151.3689722390009,None,return,2.479736674000378,1151.4520722939997,None,,,,,,,,,,,,,1,001,2022_Nov_18_1830,SpeechDraft1Carolyn_lessNoise,2021.2.3,60.07162628310818,
blush.wav,blush.mpg,blush,1,AV,Pink_Noise_1_1.wav,Pink_Noise_1_2.wav,,,,,,0,41,41,81,,,,,,,,,,,,,,,1153.9521086130007,None,1155.4688426569992,None,1156.8523753570007,None,blush,1156.8523753570007,None,return,2.9074925650002115,1156.9363254380005,None,,,,,,,,,,,,,1,001,2022_Nov_18_1830,SpeechDraft1Carolyn_lessNoise,2021.2.3,60.07162628310818,
hug.wav,hug.mpg,hug,6,A,Pink_Noise_6_1.wav,Pink_Noise_6_2.wav,,,,,,0,42,42,43,,,,,,,,,,,,,,,1159.8688303840008,None,1161.385735504,None,1162.7685411340008,None,tart,1162.7685411340008,None,return,2.863466562999747,1162.852363,None,,,,,,,,,,,,,1,001,2022_Nov_18_1830,SpeechDraft1Carolyn_lessNoise,2021.2.3,60.07162628310818,
grill.wav,grill.mpg,grill,4,A,Pink_Noise_4_1.wav,Pink_Noise_4_2.wav,,,,,,0,43,43,49,,,,,,,,,,,,,,,1165.7361509580005,None,1167.2526134889995,None,1168.6361700409998,None,grill,1168.6361700409998,None,return,2.3412429790005262,1168.7185908329993,None,,,,,,,,,,,,,1,001,2022_Nov_18_1830,SpeechDraft1Carolyn_lessNoise,2021.2.3,60.07162628310818,
earn.wav,earn.mpg,earn,2,A,Pink_Noise_2_1.wav,Pink_Noise_2_2.wav,,,,,,0,44,44,31,,,,,,,,,,,,,,,1171.0856845569997,None,1172.6195651390008,None,1173.9855729339997,None,earn,1173.9855729339997,None,return,5.1826731669989385,1174.0692628729994,None,,,,,,,,,,,,,1,001,2022_Nov_18_1830,SpeechDraft1Carolyn_lessNoise,2021.2.3,60.07162628310818,
bath.wav,bath.mpg,bath,4,AV,Pink_Noise_4_1.wav,Pink_Noise_4_2.wav,,,,,,0,45,45,71,,,,,,,,,,,,,,,1179.2694014820008,None,1180.8190808750005,None,1182.1860919760002,None,bath,1182.1860919760002,None,return,2.0147675089992845,1182.2691076200008,None,,,,,,,,,,,,,1,001,2022_Nov_18_1830,SpeechDraft1Carolyn_lessNoise,2021.2.3,60.07162628310818,
drip.wav,drip.mpg,drip,3,A,Pink_Noise_3_1.wav,Pink_Noise_3_2.wav,,,,,,0,46,46,13,,,,,,,,,,,,,,,1184.302749777,None,1185.8182373159998,None,1187.202061991,None,drift,1187.202061991,None,return,2.381932536000022,1187.2859335560006,None,,,,,,,,,,,,,1,001,2022_Nov_18_1830,SpeechDraft1Carolyn_lessNoise,2021.2.3,60.07162628310818,
built.wav,built.mpg,built,2,A,Pink_Noise_2_1.wav,Pink_Noise_2_2.wav,,,,,,0,47,47,47,,,,,,,,,,,,,,,1189.6858164730002,None,1191.2025482970002,None,1192.585772331,None,built,1192.585772331,None,return,2.1270013110006403,1192.668812897,None,,,,,,,,,,,,,1,001,2022_Nov_18_1830,SpeechDraft1Carolyn_lessNoise,2021.2.3,60.07162628310818,
drug.wav,drug.mpg,drug,3,AV,Pink_Noise_3_1.wav,Pink_Noise_3_2.wav,,,,,,0,48,48,108,,,,,,,,,,,,,,,1194.8195051050006,None,1196.3358402960002,None,1197.7190952839992,None,drug,1197.7190952839992,None,return,2.161766790999536,1197.8020399830002,None,,,,,,,,,,,,,1,001,2022_Nov_18_1830,SpeechDraft1Carolyn_lessNoise,2021.2.3,60.07162628310818,
bag.wav,bag.mpg,bag,3,A,Pink_Noise_3_1.wav,Pink_Noise_3_2.wav,,,,,,0,49,49,9,,,,,,,,,,,,,,,1199.9855291679996,None,1201.502495109,None,1202.8858874369998,None,egg,1202.8858874369998,None,return,2.210616927999581,1202.969225282999,None,,,,,,,,,,,,,1,001,2022_Nov_18_1830,SpeechDraft1Carolyn_lessNoise,2021.2.3,60.07162628310818,
faint.wav,faint.mpg,faint,6,A,Pink_Noise_6_1.wav,Pink_Noise_6_2.wav,,,,,,0,50,50,19,,,,,,,,,,,,,,,1205.202270194999,None,1206.7192000729992,None,1208.1029295440003,None,"heat
",1208.1029295440003,None,return,2.849951661999512,1208.1858572330002,None,,,,,,,,,,,,,1,001,2022_Nov_18_1830,SpeechDraft1Carolyn_lessNoise,2021.2.3,60.07162628310818,
bomb.wav,bomb.mpg,bomb,3,A,Pink_Noise_3_1.wav,Pink_Noise_3_2.wav,,,,,,0,51,51,29,,,,,,,,,,,,,,,1211.0692465909997,None,1212.5861316890005,None,1213.9689890320005,None,bowel,1213.9689890320005,None,return,3.727746009999464,1214.0520607229992,None,,,,,,,,,,,,,1,001,2022_Nov_18_1830,SpeechDraft1Carolyn_lessNoise,2021.2.3,60.07162628310818,
rid.wav,rid.mpg,rid,1,AV,Pink_Noise_1_1.wav,Pink_Noise_1_2.wav,,,,,,0,52,52,102,,,,,,,,,,,,,,,1217.8029078170002,None,1219.3188669779993,None,1220.7026845540004,None,rid,1220.7026845540004,None,return,2.9298639219996403,1220.7859576339997,None,,,,,,,,,,,,,1,001,2022_Nov_18_1830,SpeechDraft1Carolyn_lessNoise,2021.2.3,60.07162628310818,
cliff.wav,cliff.mpg,cliff,6,A,Pink_Noise_6_1.wav,Pink_Noise_6_2.wav,,,,,,0,53,53,51,,,,,,,,,,,,,,,1223.7360311079992,None,1225.2520519810005,None,1226.6355669349996,None,bliss,1226.6355669349996,None,return,3.092246766998869,1226.7195938860004,None,,,,,,,,,,,,,1,001,2022_Nov_18_1830,SpeechDraft1Carolyn_lessNoise,2021.2.3,60.07162628310818,
flair.wav,flair.mpg,flair,2,A,Pink_Noise_2_1.wav,Pink_Noise_2_2.wav,,,,,,0,54,54,38,,,,,,,,,,,,,,,1229.836264427,None,1231.3521547849996,None,1232.7353910580005,None,flare,1232.7353910580005,None,return,2.3606233640002756,1232.8192434419998,None,,,,,,,,,,,,,1,001,2022_Nov_18_1830,SpeechDraft1Carolyn_lessNoise,2021.2.3,60.07162628310818,
grief.wav,grief.mpg,grief,2,A,Pink_Noise_2_1.wav,Pink_Noise_2_2.wav,,,,,,0,55,55,24,,,,,,,,,,,,,,,1235.2020850650006,None,1236.7183158820008,None,1238.1029563209995,None,great,1238.1029563209995,None,return,2.7059390829999757,1238.185912559,None,,,,,,,,,,,,,1,001,2022_Nov_18_1830,SpeechDraft1Carolyn_lessNoise,2021.2.3,60.07162628310818,
flow.wav,flow.mpg,flow,2,A,Pink_Noise_2_1.wav,Pink_Noise_2_2.wav,,,,,,0,56,56,18,,,,,,,,,,,,,,,1240.9188587520002,None,1242.4188012220002,None,1243.8021341380008,None,slow,1243.8021341380008,None,return,2.3421458339998935,1243.8856590119995,None,,,,,,,,,,,,,1,001,2022_Nov_18_1830,SpeechDraft1Carolyn_lessNoise,2021.2.3,60.07162628310818,
blank.wav,blank.mpg,blank,3,AV,Pink_Noise_3_1.wav,Pink_Noise_3_2.wav,,,,,,0,57,57,76,,,,,,,,,,,,,,,1246.2528956789993,None,1247.7689120239993,None,1249.1520615739992,None,bike,1249.1520615739992,None,return,3.224394034999932,1249.2354834189991,None,,,,,,,,,,,,,1,001,2022_Nov_18_1830,SpeechDraft1Carolyn_lessNoise,2021.2.3,60.07162628310818,
bust.wav,bust.mpg,bust,1,A,Pink_Noise_1_1.wav,Pink_Noise_1_2.wav,,,,,,0,58,58,5,,,,,,,,,,,,,,,1252.4860434500006,None,1253.9850620779998,None,1255.3695793049992,None,bust,1255.3695793049992,None,return,4.511317159998725,1255.4524903729998,None,,,,,,,,,,,,,1,001,2022_Nov_18_1830,SpeechDraft1Carolyn_lessNoise,2021.2.3,60.07162628310818,
route.wav,route.mpg,route,3,AV,Pink_Noise_3_1.wav,Pink_Noise_3_2.wav,,,,,,0,59,59,96,,,,,,,,,,,,,,,1259.9861430460005,None,1261.5025711239996,None,1262.885991953999,None,"root
",1262.885991953999,None,return,3.0024705129999347,1262.969347372,None,,,,,,,,,,,,,1,001,2022_Nov_18_1830,SpeechDraft1Carolyn_lessNoise,2021.2.3,60.07162628310818,
glow.wav,glow.mpg,glow,5,AV,Pink_Noise_5_1.wav,Pink_Noise_5_2.wav,,,,,,0,60,60,75,,,,,,,,,,,,,,,1266.0024648460003,None,1267.5191063620005,None,1268.9028558190003,None,glow,1268.9028558190003,None,return,2.3057733030000236,1268.9861188279992,None,,,,,,,,,,,,,1,001,2022_Nov_18_1830,SpeechDraft1Carolyn_lessNoise,2021.2.3,60.07162628310818,
else.wav,else.mpg,else,3,AV,Pink_Noise_3_1.wav,Pink_Noise_3_2.wav,,,,,,0,61,61,95,,,,,,,,,,,,,,,1271.3196686039992,None,1272.8361052010005,None,1274.21918851,None,else,1274.21918851,None,return,2.581407167999714,1274.3024969149992,None,,,,,,,,,,,,,1,001,2022_Nov_18_1830,SpeechDraft1Carolyn_lessNoise,2021.2.3,60.07162628310818,
dune.wav,dune.mpg,dune,1,A,Pink_Noise_1_1.wav,Pink_Noise_1_2.wav,,,,,,0,62,62,40,,,,,,,,,,,,,,,1276.9019561379992,None,1278.4194118619998,None,1279.802488378,None,"dune
",1279.802488378,None,return,3.1180741089992807,1279.8857250069996,None,,,,,,,,,,,,,1,001,2022_Nov_18_1830,SpeechDraft1Carolyn_lessNoise,2021.2.3,60.07162628310818,
dash.wav,dash.mpg,dash,4,AV,Pink_Noise_4_1.wav,Pink_Noise_4_2.wav,,,,,,0,63,63,68,,,,,,,,,,,,,,,1283.035605985,None,1284.535469852999,None,1285.9188965230005,None,dash,1285.9188965230005,None,return,2.5611425469996902,1286.0026943020002,None,,,,,,,,,,,,,1,001,2022_Nov_18_1830,SpeechDraft1Carolyn_lessNoise,2021.2.3,60.07162628310818,
clerk.wav,clerk.mpg,clerk,3,AV,Pink_Noise_3_1.wav,Pink_Noise_3_2.wav,,,,,,0,64,64,74,,,,,,,,,,,,,,,1288.586078036,None,1290.103360829,None,1291.4860089049998,None,"cook
",1291.4860089049998,None,return,2.4023115410000173,1291.5694992589997,None,,,,,,,,,,,,,1,001,2022_Nov_18_1830,SpeechDraft1Carolyn_lessNoise,2021.2.3,60.07162628310818,
bull.wav,bull.mpg,bull,3,AV,Pink_Noise_3_1.wav,Pink_Noise_3_2.wav,,,,,,0,65,65,118,,,,,,,,,,,,,,,1294.0029650800006,None,1295.5022817999998,None,1296.8857247409996,None,bull,1296.8857247409996,None,return,1.9786743459990248,1296.9691406279999,None,,,,,,,,,,,,,1,001,2022_Nov_18_1830,SpeechDraft1Carolyn_lessNoise,2021.2.3,60.07162628310818,
globe.wav,globe.mpg,globe,6,A,Pink_Noise_6_1.wav,Pink_Noise_6_2.wav,,,,,,0,66,66,36,,,,,,,,,,,,,,,1298.9693380659992,None,1300.4860699839992,None,1301.8688058930002,None,blue,1301.8688058930002,None,return,3.7951467919992865,1301.952658569,None,,,,,,,,,,,,,1,001,2022_Nov_18_1830,SpeechDraft1Carolyn_lessNoise,2021.2.3,60.07162628310818,
cloth.wav,cloth.mpg,cloth,5,A,Pink_Noise_5_1.wav,Pink_Noise_5_2.wav,,,,,,0,67,67,20,,,,,,,,,,,,,,,1305.7693629940004,None,1307.2857922940002,None,1308.669682529,None,far,1308.669682529,None,return,2.6832726990014635,1308.7525608140004,None,,,,,,,,,,,,,1,001,2022_Nov_18_1830,SpeechDraft1Carolyn_lessNoise,2021.2.3,60.07162628310818,
gem.wav,gem.mpg,gem,1,AV,Pink_Noise_1_1.wav,Pink_Noise_1_2.wav,,,,,,0,68,68,119,,,,,,,,,,,,,,,1311.4530488319997,None,1312.9852481039998,None,1314.369123639999,None,gem,1314.369123639999,None,return,2.087385965000067,1314.4524184919992,None,,,,,,,,,,,,,1,001,2022_Nov_18_1830,SpeechDraft1Carolyn_lessNoise,2021.2.3,60.07162628310818,
creep.wav,creep.mpg,creep,4,AV,Pink_Noise_4_1.wav,Pink_Noise_4_2.wav,,,,,,0,69,69,107,,,,,,,,,,,,,,,1316.5695813580005,None,1318.0859716899995,None,1319.4692939119996,None,creep,1319.4692939119996,None,return,2.507550383999842,1319.5522576450003,None,,,,,,,,,,,,,1,001,2022_Nov_18_1830,SpeechDraft1Carolyn_lessNoise,2021.2.3,60.07162628310818,
wild.wav,wild.mpg,wild,4,A,Pink_Noise_4_1.wav,Pink_Noise_4_2.wav,,,,,,0,70,70,39,,,,,,,,,,,,,,,1322.0860956399993,None,1323.6018292370009,None,1324.986437095,None,wild,1324.986437095,None,return,3.6461624420007865,1325.0696485869994,None,,,,,,,,,,,,,1,001,2022_Nov_18_1830,SpeechDraft1Carolyn_lessNoise,2021.2.3,60.07162628310818,
bird.wav,bird.mpg,bird,5,A,Pink_Noise_5_1.wav,Pink_Noise_5_2.wav,,,,,,0,71,71,17,,,,,,,,,,,,,,,1328.7361772460008,None,1330.251729316,None,1331.6355200460002,None,"rose
",1331.6355200460002,None,return,3.052059989000554,1331.7197400780005,None,,,,,,,,,,,,,1,001,2022_Nov_18_1830,SpeechDraft1Carolyn_lessNoise,2021.2.3,60.07162628310818,
fool.wav,fool.mpg,fool,1,AV,Pink_Noise_1_1.wav,Pink_Noise_1_2.wav,,,,,,0,72,72,116,,,,,,,,,,,,,,,1334.8027260149993,None,1336.3028324940005,None,1337.6863049340009,None,fool,1337.6863049340009,None,return,1.9304174190001504,1337.769395964,None,,,,,,,,,,,,,1,001,2022_Nov_18_1830,SpeechDraft1Carolyn_lessNoise,2021.2.3,60.07162628310818,
eight.wav,eight.mpg,eight,1,AV,Pink_Noise_1_1.wav,Pink_Noise_1_2.wav,,,,,,0,73,73,64,,,,,,,,,,,,,,,1339.7193929210007,None,1341.2361439329998,None,1342.6195684609993,None,ate,1342.6195684609993,None,return,2.380738993000705,1342.703143351,None,,,,,,,,,,,,,1,001,2022_Nov_18_1830,SpeechDraft1Carolyn_lessNoise,2021.2.3,60.07162628310818,
gum.wav,gum.mpg,gum,5,AV,Pink_Noise_5_1.wav,Pink_Noise_5_2.wav,,,,,,0,74,74,87,,,,,,,,,,,,,,,1345.1033245639992,None,1346.6356194380005,None,1348.0191612220005,None,gum,1348.0191612220005,None,return,1.9087647450014629,1348.1030820760006,None,,,,,,,,,,,,,1,001,2022_Nov_18_1830,SpeechDraft1Carolyn_lessNoise,2021.2.3,60.07162628310818,
fun.wav,fun.mpg,fun,1,A,Pink_Noise_1_1.wav,Pink_Noise_1_2.wav,,,,,,0,75,75,10,,,,,,,,,,,,,,,1350.036376569,None,1351.5519665200009,None,1352.9360203550004,None,"fun
",1352.9360203550004,None,return,1.968266683001275,1353.0195483419993,None,,,,,,,,,,,,,1,001,2022_Nov_18_1830,SpeechDraft1Carolyn_lessNoise,2021.2.3,60.07162628310818,
drain.wav,drain.mpg,drain,3,A,Pink_Noise_3_1.wav,Pink_Noise_3_2.wav,,,,,,0,76,76,59,,,,,,,,,,,,,,,1355.0194042309995,None,1356.5357775459997,None,1357.919535125,None,drain,1357.919535125,None,return,2.9450309029998607,1358.0027832100004,None,,,,,,,,,,,,,1,001,2022_Nov_18_1830,SpeechDraft1Carolyn_lessNoise,2021.2.3,60.07162628310818,
check.wav,check.mpg,check,5,A,Pink_Noise_5_1.wav,Pink_Noise_5_2.wav,,,,,,0,77,77,0,,,,,,,,,,,,,,,1360.9689628279993,None,1362.4861202840002,None,1363.8694323880009,None,check,1363.8694323880009,None,return,3.0107297399990784,1363.9530778949993,None,,,,,,,,,,,,,1,001,2022_Nov_18_1830,SpeechDraft1Carolyn_lessNoise,2021.2.3,60.07162628310818,
dead.wav,dead.mpg,dead,6,AV,Pink_Noise_6_1.wav,Pink_Noise_6_2.wav,,,,,,0,78,78,103,,,,,,,,,,,,,,,1366.9862198329993,None,1368.5028844410008,None,1369.8854277209994,None,"dead
",1369.8854277209994,None,return,2.218264701999942,1369.9695595529993,None,,,,,,,,,,,,,1,001,2022_Nov_18_1830,SpeechDraft1Carolyn_lessNoise,2021.2.3,60.07162628310818,
bloat.wav,bloat.mpg,bloat,1,AV,Pink_Noise_1_1.wav,Pink_Noise_1_2.wav,,,,,,0,79,79,113,,,,,,,,,,,,,,,1372.218984052999,None,1373.7193165400004,None,1375.1025847590008,None,bloat,1375.1025847590008,None,return,4.353500388999237,1375.1862914060002,None,,,,,,,,,,,,,1,001,2022_Nov_18_1830,SpeechDraft1Carolyn_lessNoise,2021.2.3,60.07162628310818,
flask.wav,flask.mpg,flask,6,AV,Pink_Noise_6_1.wav,Pink_Noise_6_2.wav,,,,,,0,80,80,105,,,,,,,,,,,,,,,1379.5697119409997,None,1381.0858986450003,None,1382.4691135859994,None,"fast
",1382.4691135859994,None,return,2.4190997170007904,1382.5527237719998,None,,,,,,,,,,,,,1,001,2022_Nov_18_1830,SpeechDraft1Carolyn_lessNoise,2021.2.3,60.07162628310818,
clock.wav,clock.mpg,clock,4,AV,Pink_Noise_4_1.wav,Pink_Noise_4_2.wav,,,,,,0,81,81,86,,,,,,,,,,,,,,,1385.0027778410004,None,1386.5193634789994,None,1387.9023123989991,None,clock,1387.9023123989991,None,return,2.2974747640000714,1387.986392707,None,,,,,,,,,,,,,1,001,2022_Nov_18_1830,SpeechDraft1Carolyn_lessNoise,2021.2.3,60.07162628310818,
weep.wav,weep.mpg,weep,4,AV,Pink_Noise_4_1.wav,Pink_Noise_4_2.wav,,,,,,0,82,82,94,,,,,,,,,,,,,,,1390.3024889490007,None,1391.8186741690006,None,1393.2022668900008,None,"weep
",1393.2022668900008,None,return,2.7335030700014613,1393.2863362339995,None,,,,,,,,,,,,,1,001,2022_Nov_18_1830,SpeechDraft1Carolyn_lessNoise,2021.2.3,60.07162628310818,
dump.wav,dump.mpg,dump,5,A,Pink_Noise_5_1.wav,Pink_Noise_5_2.wav,,,,,,0,83,83,4,,,,,,,,,,,,,,,1396.0527773180002,None,1397.5688962069999,None,1398.9530162379997,None,dumb,1398.9530162379997,None,return,3.2637753180006257,1399.0360437889995,None,,,,,,,,,,,,,1,001,2022_Nov_18_1830,SpeechDraft1Carolyn_lessNoise,2021.2.3,60.07162628310818,
doom.wav,doom.mpg,doom,4,AV,Pink_Noise_4_1.wav,Pink_Noise_4_2.wav,,,,,,0,84,84,82,,,,,,,,,,,,,,,1402.3193926099993,None,1403.8362044530004,None,1405.2193297129998,None,dune,1405.2193297129998,None,return,2.6769603909997386,1405.3028376250004,None,,,,,,,,,,,,,1,001,2022_Nov_18_1830,SpeechDraft1Carolyn_lessNoise,2021.2.3,60.07162628310818,
clay.wav,clay.mpg,clay,1,AV,Pink_Noise_1_1.wav,Pink_Noise_1_2.wav,,,,,,0,85,85,73,,,,,,,,,,,,,,,1408.002657653,None,1409.5186798100003,None,1410.9027425549993,None,clay,1410.9027425549993,None,return,1.9217250419987977,1410.9861764199995,None,,,,,,,,,,,,,1,001,2022_Nov_18_1830,SpeechDraft1Carolyn_lessNoise,2021.2.3,60.07162628310818,
build.wav,build.mpg,build,6,AV,Pink_Noise_6_1.wav,Pink_Noise_6_2.wav,,,,,,0,86,86,61,,,,,,,,,,,,,,,1412.9359093639996,None,1414.4525028740009,None,1415.835965659,None,built,1415.835965659,None,return,1.988342175998696,1415.9195570190004,None,,,,,,,,,,,,,1,001,2022_Nov_18_1830,SpeechDraft1Carolyn_lessNoise,2021.2.3,60.07162628310818,
float.wav,float.mpg,float,2,A,Pink_Noise_2_1.wav,Pink_Noise_2_2.wav,,,,,,0,87,87,7,,,,,,,,,,,,,,,1417.936608942,None,1419.452669413,None,1420.836269427,None,float,1420.836269427,None,return,2.1804449539995403,1420.919515439,None,,,,,,,,,,,,,1,001,2022_Nov_18_1830,SpeechDraft1Carolyn_lessNoise,2021.2.3,60.07162628310818,
cruel.wav,cruel.mpg,cruel,1,A,Pink_Noise_1_1.wav,Pink_Noise_1_2.wav,,,,,,0,88,88,3,,,,,,,,,,,,,,,1423.1196051419993,None,1424.6362699700003,None,1426.0197036400004,None,cruel,1426.0197036400004,None,return,2.1413502269988385,1426.1024538469992,None,,,,,,,,,,,,,1,001,2022_Nov_18_1830,SpeechDraft1Carolyn_lessNoise,2021.2.3,60.07162628310818,
cloak.wav,cloak.mpg,cloak,1,A,Pink_Noise_1_1.wav,Pink_Noise_1_2.wav,,,,,,0,89,89,1,,,,,,,,,,,,,,,1428.2693763900006,None,1429.7862172149999,None,1431.168901567,None,cloak,1431.168901567,None,return,1.9433825870000874,1431.2524048230007,None,,,,,,,,,,,,,1,001,2022_Nov_18_1830,SpeechDraft1Carolyn_lessNoise,2021.2.3,60.07162628310818,
tank.wav,tank.mpg,tank,6,AV,Pink_Noise_6_1.wav,Pink_Noise_6_2.wav,,,,,,0,90,90,100,,,,,,,,,,,,,,,1433.2191440429997,None,1434.7354698729996,None,1436.1028960549993,None,net,1436.1028960549993,None,return,2.1135450880010467,1436.1862714,None,,,,,,,,,,,,,1,001,2022_Nov_18_1830,SpeechDraft1Carolyn_lessNoise,2021.2.3,60.07162628310818,
lost.wav,lost.mpg,lost,6,A,Pink_Noise_6_1.wav,Pink_Noise_6_2.wav,,,,,,0,91,91,8,,,,,,,,,,,,,,,1438.319970905999,None,1439.8355279040006,None,1441.2025322459995,None,fast,1441.2025322459995,None,return,2.677974534999521,1441.2858230420006,None,,,,,,,,,,,,,1,001,2022_Nov_18_1830,SpeechDraft1Carolyn_lessNoise,2021.2.3,60.07162628310818,
cling.wav,cling.mpg,cling,4,A,Pink_Noise_4_1.wav,Pink_Noise_4_2.wav,,,,,,0,92,92,54,,,,,,,,,,,,,,,1443.9857352460003,None,1445.5024964130007,None,1446.8857835029994,None,"clean
",1446.8857835029994,None,return,3.170278388999577,1446.9695322669995,None,,,,,,,,,,,,,1,001,2022_Nov_18_1830,SpeechDraft1Carolyn_lessNoise,2021.2.3,60.07162628310818,
fame.wav,fame.mpg,fame,4,A,Pink_Noise_4_1.wav,Pink_Noise_4_2.wav,,,,,,0,93,93,30,,,,,,,,,,,,,,,1450.1688199109994,None,1451.6855952170008,None,1453.0695868999992,None,fame,1453.0695868999992,None,return,3.1949156730006507,1453.152909032,None,,,,,,,,,,,,,1,001,2022_Nov_18_1830,SpeechDraft1Carolyn_lessNoise,2021.2.3,60.07162628310818,
cope.wav,cope.mpg,cope,4,A,Pink_Noise_4_1.wav,Pink_Noise_4_2.wav,,,,,,0,94,94,23,,,,,,,,,,,,,,,1456.369889128,None,1457.9021175550006,None,1459.2863191720007,None,hope,1459.2863191720007,None,return,3.0104801899997256,1459.369324277999,None,,,,,,,,,,,,,1,001,2022_Nov_18_1830,SpeechDraft1Carolyn_lessNoise,2021.2.3,60.07162628310818,
curl.wav,curl.mpg,curl,6,A,Pink_Noise_6_1.wav,Pink_Noise_6_2.wav,,,,,,0,95,95,48,,,,,,,,,,,,,,,1462.4025249759998,None,1463.9194908909994,None,1465.3025214829995,None,fern,1465.3025214829995,None,return,4.322264148000613,1465.3856254969996,None,,,,,,,,,,,,,1,001,2022_Nov_18_1830,SpeechDraft1Carolyn_lessNoise,2021.2.3,60.07162628310818,
dove.wav,dove.mpg,dove,4,A,Pink_Noise_4_1.wav,Pink_Noise_4_2.wav,,,,,,0,96,96,44,,,,,,,,,,,,,,,1469.736606036,None,1471.2523817639994,None,1472.6356399350007,None,"jug
",1472.6356399350007,None,return,2.4842765759985923,1472.7195340489998,None,,,,,,,,,,,,,1,001,2022_Nov_18_1830,SpeechDraft1Carolyn_lessNoise,2021.2.3,60.07162628310818,
egg.wav,egg.mpg,egg,2,AV,Pink_Noise_2_1.wav,Pink_Noise_2_2.wav,,,,,,0,97,97,65,,,,,,,,,,,,,,,1475.2359212789997,None,1476.7520562949994,None,1478.1361953289997,None,egg,1478.1361953289997,None,return,1.5601113579996309,1478.2197271820005,None,,,,,,,,,,,,,1,001,2022_Nov_18_1830,SpeechDraft1Carolyn_lessNoise,2021.2.3,60.07162628310818,
crown.wav,crown.mpg,crown,3,AV,Pink_Noise_3_1.wav,Pink_Noise_3_2.wav,,,,,,0,98,98,63,,,,,,,,,,,,,,,1479.8029350439992,None,1481.3195796880009,None,1482.7028347760006,None,crown,1482.7028347760006,None,return,2.633825834000163,1482.7860292789992,None,,,,,,,,,,,,,1,001,2022_Nov_18_1830,SpeechDraft1Carolyn_lessNoise,2021.2.3,60.07162628310818,
round.wav,round.mpg,round,3,A,Pink_Noise_3_1.wav,Pink_Noise_3_2.wav,,,,,,0,99,99,58,,,,,,,,,,,,,,,1485.4360239870002,None,1486.9525974539993,None,1488.336277171,None,round,1488.336277171,None,return,3.264313645000584,1488.4195633029994,None,,,,,,,,,,,,,1,001,2022_Nov_18_1830,SpeechDraft1Carolyn_lessNoise,2021.2.3,60.07162628310818,
please.wav,please.mpg,please,2,A,Pink_Noise_2_1.wav,Pink_Noise_2_2.wav,,,,,,0,100,100,56,,,,,,,,,,,,,,,1491.7029406740003,None,1493.219513979,None,1494.6031307470003,None,these,1494.6031307470003,None,return,2.845949414999268,1494.685860316,None,,,,,,,,,,,,,1,001,2022_Nov_18_1830,SpeechDraft1Carolyn_lessNoise,2021.2.3,60.07162628310818,
dull.wav,dull.mpg,dull,3,AV,Pink_Noise_3_1.wav,Pink_Noise_3_2.wav,,,,,,0,101,101,72,,,,,,,,,,,,,,,1497.552661616999,None,1499.0701547419994,None,1500.4526435120006,None,dull,1500.4526435120006,None,return,3.115234243001396,1500.5366311119997,None,,,,,,,,,,,,,1,001,2022_Nov_18_1830,SpeechDraft1Carolyn_lessNoise,2021.2.3,60.07162628310818,
bread.wav,bread.mpg,bread,3,AV,Pink_Noise_3_1.wav,Pink_Noise_3_2.wav,,,,,,0,102,102,69,,,,,,,,,,,,,,,1503.6694127419996,None,1505.1856067619992,None,1506.569170486,None,"red
",1506.569170486,None,return,1.7024818009995215,1506.6533333930001,None,,,,,,,,,,,,,1,001,2022_Nov_18_1830,SpeechDraft1Carolyn_lessNoise,2021.2.3,60.07162628310818,
cheer.wav,cheer.mpg,cheer,5,AV,Pink_Noise_5_1.wav,Pink_Noise_5_2.wav,,,,,,0,103,103,111,,,,,,,,,,,,,,,1508.3863360779997,None,1509.9031089759992,None,1511.2855203119998,None,cheer,1511.2855203119998,None,return,2.322078376999343,1511.3698522209997,None,,,,,,,,,,,,,1,001,2022_Nov_18_1830,SpeechDraft1Carolyn_lessNoise,2021.2.3,60.07162628310818,
cycle.wav,cycle.mpg,cycle,1,A,Pink_Noise_1_1.wav,Pink_Noise_1_2.wav,,,,,,0,104,104,41,,,,,,,,,,,,,,,1513.7200223389991,None,1515.2364277380002,None,1516.6196030869996,None,cycle,1516.6196030869996,None,return,4.140797758998815,1516.7030023429998,None,,,,,,,,,,,,,1,001,2022_Nov_18_1830,SpeechDraft1Carolyn_lessNoise,2021.2.3,60.07162628310818,
craft.wav,craft.mpg,craft,3,A,Pink_Noise_3_1.wav,Pink_Noise_3_2.wav,,,,,,0,105,105,21,,,,,,,,,,,,,,,1520.8692500029993,None,1522.3860857399995,None,1523.7691197530003,None,"craft
",1523.7691197530003,None,return,2.9350889640008972,1523.8527093369994,None,,,,,,,,,,,,,1,001,2022_Nov_18_1830,SpeechDraft1Carolyn_lessNoise,2021.2.3,60.07162628310818,
chick.wav,chick.mpg,chick,5,AV,Pink_Noise_5_1.wav,Pink_Noise_5_2.wav,,,,,,0,106,106,79,,,,,,,,,,,,,,,1526.8195969459994,None,1528.385945209,None,1529.7695201690003,None,chick,1529.7695201690003,None,return,2.5588410070013197,1529.8529894179992,None,,,,,,,,,,,,,1,001,2022_Nov_18_1830,SpeechDraft1Carolyn_lessNoise,2021.2.3,60.07162628310818,
crawl.wav,crawl.mpg,crawl,5,AV,Pink_Noise_5_1.wav,Pink_Noise_5_2.wav,,,,,,0,107,107,98,,,,,,,,,,,,,,,1532.4364015570009,None,1533.9689658860007,None,1535.3362058170005,None,frog,1535.3362058170005,None,return,2.52796524400037,1535.4198763040004,None,,,,,,,,,,,,,1,001,2022_Nov_18_1830,SpeechDraft1Carolyn_lessNoise,2021.2.3,60.07162628310818,
grow.wav,grow.mpg,grow,6,AV,Pink_Noise_6_1.wav,Pink_Noise_6_2.wav,,,,,,0,108,108,109,,,,,,,,,,,,,,,1537.9696417670002,None,1539.4854946239993,None,1540.8690697349994,None,grow,1540.8690697349994,None,return,2.283314975000394,1540.9525932779998,None,,,,,,,,,,,,,1,001,2022_Nov_18_1830,SpeechDraft1Carolyn_lessNoise,2021.2.3,60.07162628310818,
bland.wav,bland.mpg,bland,1,A,Pink_Noise_1_1.wav,Pink_Noise_1_2.wav,,,,,,0,109,109,57,,,,,,,,,,,,,,,1543.2526847110003,None,1544.7692813739995,None,1546.153035919,None,bland,1546.153035919,None,return,2.831463700000313,1546.2363965839995,None,,,,,,,,,,,,,1,001,2022_Nov_18_1830,SpeechDraft1Carolyn_lessNoise,2021.2.3,60.07162628310818,
freeze.wav,freeze.mpg,freeze,5,AV,Pink_Noise_5_1.wav,Pink_Noise_5_2.wav,,,,,,0,110,110,117,,,,,,,,,,,,,,,1549.0861326720005,None,1550.6023628059993,None,1551.9866743069997,None,freeze,1551.9866743069997,None,return,3.077882135999971,1552.069915213,None,,,,,,,,,,,,,1,001,2022_Nov_18_1830,SpeechDraft1Carolyn_lessNoise,2021.2.3,60.07162628310818,
shrimp.wav,shrimp.mpg,shrimp,3,A,Pink_Noise_3_1.wav,Pink_Noise_3_2.wav,,,,,,0,111,111,45,,,,,,,,,,,,,,,1555.1698019390005,None,1556.68614625,None,1558.0696710720003,None,shrimp,1558.0696710720003,None,return,2.7545189560005383,1558.1534355679996,None,,,,,,,,,,,,,1,001,2022_Nov_18_1830,SpeechDraft1Carolyn_lessNoise,2021.2.3,60.07162628310818,
golf.wav,golf.mpg,golf,2,A,Pink_Noise_2_1.wav,Pink_Noise_2_2.wav,,,,,,0,112,112,53,,,,,,,,,,,,,,,1560.9357318399998,None,1562.4531608800007,None,1563.83610633,None,"golf
",1563.83610633,None,return,2.451702581000063,1563.9201052619992,None,,,,,,,,,,,,,1,001,2022_Nov_18_1830,SpeechDraft1Carolyn_lessNoise,2021.2.3,60.07162628310818,
block.wav,block.mpg,block,3,AV,Pink_Noise_3_1.wav,Pink_Noise_3_2.wav,,,,,,0,113,113,93,,,,,,,,,,,,,,,1566.4028066680003,None,1567.9196890870007,None,1569.3030509340006,None,"block
",1569.3030509340006,None,return,2.6335576490000676,1569.3862684100004,None,,,,,,,,,,,,,1,001,2022_Nov_18_1830,SpeechDraft1Carolyn_lessNoise,2021.2.3,60.07162628310818,
bunch.wav,bunch.mpg,bunch,6,AV,Pink_Noise_6_1.wav,Pink_Noise_6_2.wav,,,,,,0,114,114,83,,,,,,,,,,,,,,,1572.0532832450008,None,1573.5689893599993,None,1574.9357461199997,None,"bush
",1574.9357461199997,None,return,2.7522031839998817,1575.0195725840003,None,,,,,,,,,,,,,1,001,2022_Nov_18_1830,SpeechDraft1Carolyn_lessNoise,2021.2.3,60.07162628310818,
crank.wav,crank.mpg,crank,2,AV,Pink_Noise_2_1.wav,Pink_Noise_2_2.wav,,,,,,0,115,115,91,,,,,,,,,,,,,,,1577.8029925280007,None,1579.3194311160005,None,1580.7029849789997,None,"crank
",1580.7029849789997,None,return,2.369785282999146,1580.7860119380002,None,,,,,,,,,,,,,1,001,2022_Nov_18_1830,SpeechDraft1Carolyn_lessNoise,2021.2.3,60.07162628310818,
cried.wav,cried.mpg,cried,5,A,Pink_Noise_5_1.wav,Pink_Noise_5_2.wav,,,,,,0,116,116,22,,,,,,,,,,,,,,,1583.1857547189993,None,1584.7022644080007,None,1586.086805506,None,cry,1586.086805506,None,return,2.914500897000835,1586.1694182539995,None,,,,,,,,,,,,,1,001,2022_Nov_18_1830,SpeechDraft1Carolyn_lessNoise,2021.2.3,60.07162628310818,
guess.wav,guess.mpg,guess,5,AV,Pink_Noise_5_1.wav,Pink_Noise_5_2.wav,,,,,,0,117,117,97,,,,,,,,,,,,,,,1589.1031720669998,None,1590.6192121990007,None,1592.0029741920007,None,"guess
",1592.0029741920007,None,return,4.517425313999411,1592.0864115059994,None,,,,,,,,,,,,,1,001,2022_Nov_18_1830,SpeechDraft1Carolyn_lessNoise,2021.2.3,60.07162628310818,
wear.wav,wear.mpg,wear,3,A,Pink_Noise_3_1.wav,Pink_Noise_3_2.wav,,,,,,0,118,118,34,,,,,,,,,,,,,,,1596.6366217619998,None,1598.1366911320001,None,1599.5198206900004,None,where,1599.5198206900004,None,return,2.560543317000338,1599.6032455599998,None,,,,,,,,,,,,,1,001,2022_Nov_18_1830,SpeechDraft1Carolyn_lessNoise,2021.2.3,60.07162628310818,
cross.wav,cross.mpg,cross,1,A,Pink_Noise_1_1.wav,Pink_Noise_1_2.wav,,,,,,0,119,119,16,,,,,,,,,,,,,,,1602.1859970839996,None,1603.7027078480005,None,1605.0859524999996,None,cross,1605.0859524999996,None,return,2.858638914000039,1605.1691571249994,None,,,,,,,,,,,,,1,001,2022_Nov_18_1830,SpeechDraft1Carolyn_lessNoise,2021.2.3,60.07162628310818,
,,,,,,,,,,,,,,,,,,,,,,,,,,,,,,,,,,,,,,,,,,,,,,,,,1608.0527595349995,None,w,123.59109514900047,1609.0367343649996,None,1,001,2022_Nov_18_1830,SpeechDraft1Carolyn_lessNoise,2021.2.3,60.07162628310818,
