Audio_Only_Files,Video_Files,Original_Word_List,noiseLevelCode,conditionCodes,noiseLevelFile1,noiseLevelFile2,InstrTextVar,practiceTrials.thisRepN,practiceTrials.thisTrialN,practiceTrials.thisN,practiceTrials.thisIndex,trials.thisRepN,trials.thisTrialN,trials.thisN,trials.thisIndex,letsGoAlready.keys,letsGoAlready.rt,letsGoAlready.started,letsGoAlready.stopped,text_2.started,text_2.stopped,text_3.started,text_3.stopped,key_resp_2.keys,key_resp_2.rt,key_resp_2.started,key_resp_2.stopped,text_5.started,text_5.stopped,fixCross.started,fixCross.stopped,fixCross2.started,fixCross2.stopped,answerPrompt.started,answerPrompt.stopped,getAnswer.text,getAnswer.started,getAnswer.stopped,goToNext.keys,goToNext.rt,goToNext.started,goToNext.stopped,stretchBreakTxrt.started,stretchBreakTxrt.stopped,key_resp_3.keys,key_resp_3.rt,key_resp_3.started,key_resp_3.stopped,participant,session,date,expName,psychopyVersion,frameRate,
,,,,,,,,,,,,,,,,space,4.367904364946298,8.742981904069893,None,,,,,,,,,,,,,,,,,,,,,,,,,,,,,,20,001,2023_Feb_15_1257,SpeechDraft1Carolyn_lessNoise,2021.2.3,59.796809756458835,
,,,,,,,,,,,,,,,,,,,,8.742981904069893,None,13.14275516604539,None,space,656.8495423070854,13.309451640001498,None,,,,,,,,,,,,,,,,,,,,,,20,001,2023_Feb_15_1257,SpeechDraft1Carolyn_lessNoise,2021.2.3,59.796809756458835,
ash.wav,ash.mpg,ash,1,A,Pink_Noise_1_1.wav,Pink_Noise_1_2.wav,"This is an example of an

AUDIO trial",0,0,0,0,,,,,,,,,,,,,,,,,670.2267651810544,None,671.1937179219676,None,674.4934695160482,None,675.8772375490516,None,ashe,675.8772375490516,None,return,5.294479916105047,675.9604097210104,None,,,,,,,20,001,2023_Feb_15_1257,SpeechDraft1Carolyn_lessNoise,2021.2.3,59.796809756458835,
ash.wav,ash.mpg,ash,1,AV,Pink_Noise_1_1.wav,Pink_Noise_1_2.wav,"This is an example of an

AUDIO + VIDEO  trial",0,1,1,1,,,,,,,,,,,,,,,,,681.2933681800496,None,682.2937505269656,None,683.7768808610272,None,685.1603402550099,None,ashe,685.1603402550099,None,return,1.5951182149583474,685.2437802200438,None,,,,,,,20,001,2023_Feb_15_1257,SpeechDraft1Carolyn_lessNoise,2021.2.3,59.796809756458835,
,,,,,,,,,,,,,,,,,,,,,,,,,,,,,,,,,,,,,,,,,,,686.8778148030397,None,space,10.162608006969094,687.0602885889821,None,20,001,2023_Feb_15_1257,SpeechDraft1Carolyn_lessNoise,2021.2.3,59.796809756458835,
dare.wav,dare.mpg,dare,4,A,Pink_Noise_4_1.wav,Pink_Noise_4_2.wav,,,,,,0,0,0,10,,,,,,,,,,,,,,,697.2768007200211,None,698.7602815750288,None,700.1437680840027,None,dame,700.1437680840027,None,return,4.227860560058616,700.2270422569709,None,,,,,,,20,001,2023_Feb_15_1257,SpeechDraft1Carolyn_lessNoise,2021.2.3,59.796809756458835,
style.wav,style.mpg,style,1,A,Pink_Noise_1_1.wav,Pink_Noise_1_2.wav,,,,,,0,1,1,44,,,,,,,,,,,,,,,704.4771418150049,None,705.9603478750214,None,707.3437582940096,None,style,707.3437582940096,None,return,1.9399894149973989,707.4270794059848,None,,,,,,,20,001,2023_Feb_15_1257,SpeechDraft1Carolyn_lessNoise,2021.2.3,59.796809756458835,
earn.wav,earn.mpg,earn,3,A,Pink_Noise_3_1.wav,Pink_Noise_3_2.wav,,,,,,0,2,2,40,,,,,,,,,,,,,,,709.3938042559894,None,710.8768711580196,None,712.2604025179753,None,earn,712.2604025179753,None,return,2.32702451699879,712.3438581570517,None,,,,,,,20,001,2023_Feb_15_1257,SpeechDraft1Carolyn_lessNoise,2021.2.3,59.796809756458835,
flop.wav,flop.mpg,flop,3,A,Pink_Noise_3_1.wav,Pink_Noise_3_2.wav,,,,,,0,3,3,12,,,,,,,,,,,,,,,714.6937811679672,None,716.1934422750492,None,717.5771333259763,None,flower,717.5771333259763,None,return,3.0744156379951164,717.6604903090047,None,,,,,,,20,001,2023_Feb_15_1257,SpeechDraft1Carolyn_lessNoise,2021.2.3,59.796809756458835,
goose.wav,goose.mpg,goose,6,AV,Pink_Noise_6_1.wav,Pink_Noise_6_2.wav,,,,,,0,4,4,90,,,,,,,,,,,,,,,720.7604418779956,None,722.2603696570732,None,723.6271935669938,None,use,723.6271935669938,None,return,1.304429637035355,723.7104641770711,None,,,,,,,20,001,2023_Feb_15_1257,SpeechDraft1Carolyn_lessNoise,2021.2.3,59.796809756458835,
camp.wav,camp.mpg,camp,6,AV,Pink_Noise_6_1.wav,Pink_Noise_6_2.wav,,,,,,0,5,5,119,,,,,,,,,,,,,,,725.0438060780289,None,726.5268249270739,None,727.9104108529864,None,kept,727.9104108529864,None,return,2.525059303967282,727.9938525990583,None,,,,,,,20,001,2023_Feb_15_1257,SpeechDraft1Carolyn_lessNoise,2021.2.3,59.796809756458835,
snake.wav,snake.mpg,snake,3,A,Pink_Noise_3_1.wav,Pink_Noise_3_2.wav,,,,,,0,6,6,36,,,,,,,,,,,,,,,730.5438231079606,None,732.0270789499627,None,733.4105657150503,None,snake,733.4105657150503,None,return,2.8491472660098225,733.4938078679843,None,,,,,,,20,001,2023_Feb_15_1257,SpeechDraft1Carolyn_lessNoise,2021.2.3,59.796809756458835,
climb.wav,climb.mpg,climb,1,A,Pink_Noise_1_1.wav,Pink_Noise_1_2.wav,,,,,,0,7,7,53,,,,,,,,,,,,,,,736.3604725080077,None,737.8438220740063,None,739.2271762390155,None,climb,739.2271762390155,None,return,1.4485072640236467,739.3104619770311,None,,,,,,,20,001,2023_Feb_15_1257,SpeechDraft1Carolyn_lessNoise,2021.2.3,59.796809756458835,
mold.wav,mold.mpg,mold,5,A,Pink_Noise_5_1.wav,Pink_Noise_5_2.wav,,,,,,0,8,8,18,,,,,,,,,,,,,,,740.777169581037,None,742.2618932080222,None,743.6437985280063,None,"hold
",743.6437985280063,None,return,1.9838461050530896,743.727063318016,None,,,,,,,20,001,2023_Feb_15_1257,SpeechDraft1Carolyn_lessNoise,2021.2.3,59.796809756458835,
flight.wav,flight.mpg,flight,5,A,Pink_Noise_5_1.wav,Pink_Noise_5_2.wav,,,,,,0,9,9,2,,,,,,,,,,,,,,,745.7608006449882,None,747.2602472250583,None,748.627056095982,None,light,748.627056095982,None,return,1.2724367199698463,748.7105983480578,None,,,,,,,20,001,2023_Feb_15_1257,SpeechDraft1Carolyn_lessNoise,2021.2.3,59.796809756458835,
pact.wav,pact.mpg,pact,1,A,Pink_Noise_1_1.wav,Pink_Noise_1_2.wav,,,,,,0,10,10,57,,,,,,,,,,,,,,,750.0106206350029,None,751.5103599929716,None,752.8937640240183,None,pact,752.8937640240183,None,return,1.861674494924955,752.9772103250725,None,,,,,,,20,001,2023_Feb_15_1257,SpeechDraft1Carolyn_lessNoise,2021.2.3,59.796809756458835,
germ.wav,germ.mpg,germ,3,A,Pink_Noise_3_1.wav,Pink_Noise_3_2.wav,,,,,,0,11,11,19,,,,,,,,,,,,,,,754.8604631819762,None,756.343585154973,None,757.7272788740229,None,jury,757.7272788740229,None,return,2.6043700729496777,757.8105277940631,None,,,,,,,20,001,2023_Feb_15_1257,SpeechDraft1Carolyn_lessNoise,2021.2.3,59.796809756458835,
blood.wav,blood.mpg,blood,5,AV,Pink_Noise_5_1.wav,Pink_Noise_5_2.wav,,,,,,0,12,12,60,,,,,,,,,,,,,,,760.4438153810333,None,761.9269578560488,None,763.3104778199922,None,"blood
",763.3104778199922,None,return,2.636913542984985,763.3939815149643,None,,,,,,,20,001,2023_Feb_15_1257,SpeechDraft1Carolyn_lessNoise,2021.2.3,59.796809756458835,
chore.wav,chore.mpg,chore,2,A,Pink_Noise_2_1.wav,Pink_Noise_2_2.wav,,,,,,0,13,13,17,,,,,,,,,,,,,,,766.060589460074,None,767.5443014950724,None,768.9272505750414,None,chore,768.9272505750414,None,return,0.8123292380478233,769.0105880800402,None,,,,,,,20,001,2023_Feb_15_1257,SpeechDraft1Carolyn_lessNoise,2021.2.3,59.796809756458835,
gray.wav,gray.mpg,gray,2,A,Pink_Noise_2_1.wav,Pink_Noise_2_2.wav,,,,,,0,14,14,24,,,,,,,,,,,,,,,769.8438702559797,None,771.3270630519837,None,772.7104836250655,None,gray,772.7104836250655,None,return,0.9810518850572407,772.7938396210084,None,,,,,,,20,001,2023_Feb_15_1257,SpeechDraft1Carolyn_lessNoise,2021.2.3,59.796809756458835,
flood.wav,flood.mpg,flood,6,A,Pink_Noise_6_1.wav,Pink_Noise_6_2.wav,,,,,,0,15,15,52,,,,,,,,,,,,,,,773.7937947100727,None,775.2770739409607,None,776.6604536590166,None,play,776.6604536590166,None,return,2.023159632924944,776.7438615950523,None,,,,,,,20,001,2023_Feb_15_1257,SpeechDraft1Carolyn_lessNoise,2021.2.3,59.796809756458835,
bean.wav,bean.mpg,bean,4,A,Pink_Noise_4_1.wav,Pink_Noise_4_2.wav,,,,,,0,16,16,1,,,,,,,,,,,,,,,778.7937936179806,None,780.2785021130694,None,781.6605065859621,None,ear,781.6605065859621,None,return,1.6071889390004799,781.7438316600164,None,,,,,,,20,001,2023_Feb_15_1257,SpeechDraft1Carolyn_lessNoise,2021.2.3,59.796809756458835,
broke.wav,broke.mpg,broke,2,A,Pink_Noise_2_1.wav,Pink_Noise_2_2.wav,,,,,,0,17,17,37,,,,,,,,,,,,,,,783.3772675970104,None,784.8602336890763,None,786.2438907880569,None,broke,786.2438907880569,None,return,3.5917110689915717,786.32721584104,None,,,,,,,20,001,2023_Feb_15_1257,SpeechDraft1Carolyn_lessNoise,2021.2.3,59.796809756458835,
cork.wav,cork.mpg,cork,6,A,Pink_Noise_6_1.wav,Pink_Noise_6_2.wav,,,,,,0,18,18,7,,,,,,,,,,,,,,,789.944031356019,None,791.4269696359988,None,792.8104688450694,None,seven,792.8104688450694,None,return,2.257066522957757,792.893928576028,None,,,,,,,20,001,2023_Feb_15_1257,SpeechDraft1Carolyn_lessNoise,2021.2.3,59.796809756458835,
gulp.wav,gulp.mpg,gulp,4,AV,Pink_Noise_4_1.wav,Pink_Noise_4_2.wav,,,,,,0,19,19,102,,,,,,,,,,,,,,,795.177272615023,None,796.6771936069708,None,798.0606329650618,None,gulp,798.0606329650618,None,return,1.8710011459188536,798.1438930060249,None,,,,,,,20,001,2023_Feb_15_1257,SpeechDraft1Carolyn_lessNoise,2021.2.3,59.796809756458835,
peach.wav,peach.mpg,peach,2,AV,Pink_Noise_2_1.wav,Pink_Noise_2_2.wav,,,,,,0,20,20,84,,,,,,,,,,,,,,,800.0438672630116,None,801.5270602860255,None,802.9105275729671,None,peach,802.9105275729671,None,return,1.6929890010505915,802.9938937110128,None,,,,,,,20,001,2023_Feb_15_1257,SpeechDraft1Carolyn_lessNoise,2021.2.3,59.796809756458835,
brief.wav,brief.mpg,brief,4,AV,Pink_Noise_4_1.wav,Pink_Noise_4_2.wav,,,,,,0,21,21,116,,,,,,,,,,,,,,,804.7106391530251,None,806.2104129910003,None,807.5938503530342,None,brief,807.5938503530342,None,return,2.4417162090539932,807.677201863029,None,,,,,,,20,001,2023_Feb_15_1257,SpeechDraft1Carolyn_lessNoise,2021.2.3,59.796809756458835,
buff.wav,buff.mpg,buff,6,A,Pink_Noise_6_1.wav,Pink_Noise_6_2.wav,,,,,,0,22,22,23,,,,,,,,,,,,,,,810.1438551760511,None,811.6602988119703,None,813.0272800690727,None,luck,813.0272800690727,None,return,1.8642518550623208,813.110634214012,None,,,,,,,20,001,2023_Feb_15_1257,SpeechDraft1Carolyn_lessNoise,2021.2.3,59.796809756458835,
crisp.wav,crisp.mpg,crisp,1,AV,Pink_Noise_1_1.wav,Pink_Noise_1_2.wav,,,,,,0,23,23,95,,,,,,,,,,,,,,,814.9939969300758,None,816.477163186064,None,817.8605877730297,None,"crisp
",817.8605877730297,None,return,1.7350374800153077,817.9438752280548,None,,,,,,,20,001,2023_Feb_15_1257,SpeechDraft1Carolyn_lessNoise,2021.2.3,59.796809756458835,
cart.wav,cart.mpg,cart,6,AV,Pink_Noise_6_1.wav,Pink_Noise_6_2.wav,,,,,,0,24,24,88,,,,,,,,,,,,,,,819.710545776994,None,821.194400832057,None,822.5772519289749,None,cart,822.5772519289749,None,return,1.1944546290906146,822.660435250029,None,,,,,,,20,001,2023_Feb_15_1257,SpeechDraft1Carolyn_lessNoise,2021.2.3,59.796809756458835,
pop.wav,pop.mpg,pop,3,AV,Pink_Noise_3_1.wav,Pink_Noise_3_2.wav,,,,,,0,25,25,66,,,,,,,,,,,,,,,823.877218744019,None,825.3614822679665,None,826.7439317690441,None,"poppe
",826.7439317690441,None,return,1.6355887829558924,826.8273057240294,None,,,,,,,20,001,2023_Feb_15_1257,SpeechDraft1Carolyn_lessNoise,2021.2.3,59.796809756458835,
fuse.wav,fuse.mpg,fuse,2,AV,Pink_Noise_2_1.wav,Pink_Noise_2_2.wav,,,,,,0,26,26,83,,,,,,,,,,,,,,,828.4939382310258,None,829.9774072649889,None,831.360703037004,None,fuse,831.360703037004,None,return,1.3390053260372952,831.4439445140306,None,,,,,,,20,001,2023_Feb_15_1257,SpeechDraft1Carolyn_lessNoise,2021.2.3,59.796809756458835,
warmth.wav,warmth.mpg,warmth,5,A,Pink_Noise_5_1.wav,Pink_Noise_5_2.wav,,,,,,0,27,27,4,,,,,,,,,,,,,,,832.8106925060274,None,834.294065486989,None,835.6785584159661,None,warp,835.6785584159661,None,return,2.3660340280039236,835.7609550979687,None,,,,,,,20,001,2023_Feb_15_1257,SpeechDraft1Carolyn_lessNoise,2021.2.3,59.796809756458835,
strive.wav,strive.mpg,strive,3,AV,Pink_Noise_3_1.wav,Pink_Noise_3_2.wav,,,,,,0,28,28,114,,,,,,,,,,,,,,,838.143955326057,None,839.643754504039,None,841.0272524100728,None,strive,841.0272524100728,None,return,2.2563275350257754,841.110637263977,None,,,,,,,20,001,2023_Feb_15_1257,SpeechDraft1Carolyn_lessNoise,2021.2.3,59.796809756458835,
cheap.wav,cheap.mpg,cheap,5,AV,Pink_Noise_5_1.wav,Pink_Noise_5_2.wav,,,,,,0,29,29,70,,,,,,,,,,,,,,,843.3939371000743,None,844.8786446440499,None,846.2604764769785,None,cheap,846.2604764769785,None,return,2.2628936760593206,846.3440666759852,None,,,,,,,20,001,2023_Feb_15_1257,SpeechDraft1Carolyn_lessNoise,2021.2.3,59.796809756458835,
tomb.wav,tomb.mpg,tomb,6,A,Pink_Noise_6_1.wav,Pink_Noise_6_2.wav,,,,,,0,30,30,46,,,,,,,,,,,,,,,848.6272655819776,None,850.1271285510156,None,851.5105042670621,None,please,851.5105042670621,None,return,1.5570292859338224,851.5939781339839,None,,,,,,,20,001,2023_Feb_15_1257,SpeechDraft1Carolyn_lessNoise,2021.2.3,59.796809756458835,
feed.wav,feed.mpg,feed,3,AV,Pink_Noise_3_1.wav,Pink_Noise_3_2.wav,,,,,,0,31,31,105,,,,,,,,,,,,,,,853.1772778320592,None,854.6609903600765,None,856.043900234974,None,feed,856.043900234974,None,return,1.0636714610736817,856.1272245000582,None,,,,,,,20,001,2023_Feb_15_1257,SpeechDraft1Carolyn_lessNoise,2021.2.3,59.796809756458835,
bomb.wav,bomb.mpg,bomb,1,A,Pink_Noise_1_1.wav,Pink_Noise_1_2.wav,,,,,,0,32,32,39,,,,,,,,,,,,,,,857.2107056119712,None,858.7104728469858,None,860.0939930820605,None,"balm
",860.0939930820605,None,return,2.917764594894834,860.1771519860486,None,,,,,,,20,001,2023_Feb_15_1257,SpeechDraft1Carolyn_lessNoise,2021.2.3,59.796809756458835,
bank.wav,bank.mpg,bank,5,A,Pink_Noise_5_1.wav,Pink_Noise_5_2.wav,,,,,,0,33,33,16,,,,,,,,,,,,,,,863.1272835680284,None,864.6104283470195,None,865.9939107620157,None,play,865.9939107620157,None,return,1.0896079048980027,866.0773575929925,None,,,,,,,20,001,2023_Feb_15_1257,SpeechDraft1Carolyn_lessNoise,2021.2.3,59.796809756458835,
quest.wav,quest.mpg,quest,2,AV,Pink_Noise_2_1.wav,Pink_Noise_2_2.wav,,,,,,0,34,34,80,,,,,,,,,,,,,,,867.1938919860404,None,868.6937553440221,None,870.077245346969,None,quest,870.077245346969,None,return,1.4782026950269938,870.1607028030558,None,,,,,,,20,001,2023_Feb_15_1257,SpeechDraft1Carolyn_lessNoise,2021.2.3,59.796809756458835,
crow.wav,crow.mpg,crow,6,AV,Pink_Noise_6_1.wav,Pink_Noise_6_2.wav,,,,,,0,35,35,100,,,,,,,,,,,,,,,871.6606552640442,None,873.1457034930354,None,874.5272113659885,None,crow,874.5272113659885,None,return,1.7083135501015931,874.6106162109645,None,,,,,,,20,001,2023_Feb_15_1257,SpeechDraft1Carolyn_lessNoise,2021.2.3,59.796809756458835,
grass.wav,grass.mpg,grass,5,A,Pink_Noise_5_1.wav,Pink_Noise_5_2.wav,,,,,,0,36,36,45,,,,,,,,,,,,,,,876.3438569699647,None,877.8272227089619,None,879.2106519710505,None,grass,879.2106519710505,None,return,1.248977784998715,879.2940152710071,None,,,,,,,20,001,2023_Feb_15_1257,SpeechDraft1Carolyn_lessNoise,2021.2.3,59.796809756458835,
smack.wav,smack.mpg,smack,2,A,Pink_Noise_2_1.wav,Pink_Noise_2_2.wav,,,,,,0,37,37,58,,,,,,,,,,,,,,,880.5608631400391,None,882.0605472050374,None,883.4273808510043,None,smack,883.4273808510043,None,return,1.7600483580026776,883.5108417230658,None,,,,,,,20,001,2023_Feb_15_1257,SpeechDraft1Carolyn_lessNoise,2021.2.3,59.796809756458835,
birch.wav,birch.mpg,birch,3,A,Pink_Noise_3_1.wav,Pink_Noise_3_2.wav,,,,,,0,38,38,13,,,,,,,,,,,,,,,885.2939766380005,None,886.7776424780022,None,888.160636940971,None,birch,888.160636940971,None,return,2.9149464550428092,888.2440626510652,None,,,,,,,20,001,2023_Feb_15_1257,SpeechDraft1Carolyn_lessNoise,2021.2.3,59.796809756458835,
flick.wav,flick.mpg,flick,2,A,Pink_Noise_2_1.wav,Pink_Noise_2_2.wav,,,,,,0,39,39,49,,,,,,,,,,,,,,,891.1773637570441,None,892.660946724005,None,894.0439245880116,None,flick,894.0439245880116,None,return,2.215581049094908,894.1273848960409,None,,,,,,,20,001,2023_Feb_15_1257,SpeechDraft1Carolyn_lessNoise,2021.2.3,59.796809756458835,
strike.wav,strike.mpg,strike,6,AV,Pink_Noise_6_1.wav,Pink_Noise_6_2.wav,,,,,,0,40,40,62,,,,,,,,,,,,,,,896.3607433859725,None,897.8604250190547,None,899.2439736420056,None,"struck
",899.2439736420056,None,return,2.1035212259739637,899.3274088479811,None,,,,,,,20,001,2023_Feb_15_1257,SpeechDraft1Carolyn_lessNoise,2021.2.3,59.796809756458835,
flat.wav,flat.mpg,flat,5,AV,Pink_Noise_5_1.wav,Pink_Noise_5_2.wav,,,,,,0,41,41,106,,,,,,,,,,,,,,,901.4606621790444,None,902.9441371769644,None,904.3273574999766,None,flat,904.3273574999766,None,return,1.1964242260437459,904.4105831580237,None,,,,,,,20,001,2023_Feb_15_1257,SpeechDraft1Carolyn_lessNoise,2021.2.3,59.796809756458835,
dress.wav,dress.mpg,dress,4,A,Pink_Noise_4_1.wav,Pink_Noise_4_2.wav,,,,,,0,42,42,22,,,,,,,,,,,,,,,905.6273612630321,None,907.1110117479693,None,908.494062346057,None,dress,908.494062346057,None,return,1.1415158809395507,908.5773734999821,None,,,,,,,20,001,2023_Feb_15_1257,SpeechDraft1Carolyn_lessNoise,2021.2.3,59.796809756458835,
beach.wav,beach.mpg,beach,3,AV,Pink_Noise_3_1.wav,Pink_Noise_3_2.wav,,,,,,0,43,43,63,,,,,,,,,,,,,,,909.7440529570449,None,911.2290584000293,None,912.6107822409831,None,beach,912.6107822409831,None,return,1.920846160966903,912.694045679993,None,,,,,,,20,001,2023_Feb_15_1257,SpeechDraft1Carolyn_lessNoise,2021.2.3,59.796809756458835,
beg.wav,beg.mpg,beg,5,AV,Pink_Noise_5_1.wav,Pink_Noise_5_2.wav,,,,,,0,44,44,91,,,,,,,,,,,,,,,914.644109996967,None,916.1281038280576,None,917.5105913400184,None,beg,917.5105913400184,None,return,1.2768176769604906,917.5940648230026,None,,,,,,,20,001,2023_Feb_15_1257,SpeechDraft1Carolyn_lessNoise,2021.2.3,59.796809756458835,
dirt.wav,dirt.mpg,dirt,1,AV,Pink_Noise_1_1.wav,Pink_Noise_1_2.wav,,,,,,0,45,45,81,,,,,,,,,,,,,,,918.8940645119874,None,920.3785270489752,None,921.760644613998,None,dirt,921.760644613998,None,return,0.8748481759103015,921.8440782179823,None,,,,,,,20,001,2023_Feb_15_1257,SpeechDraft1Carolyn_lessNoise,2021.2.3,59.796809756458835,
damp.wav,damp.mpg,damp,4,AV,Pink_Noise_4_1.wav,Pink_Noise_4_2.wav,,,,,,0,46,46,75,,,,,,,,,,,,,,,922.7439717330271,None,924.2438890710473,None,925.6110126390122,None,damp,925.6110126390122,None,return,0.8566550179384649,925.6943631010363,None,,,,,,,20,001,2023_Feb_15_1257,SpeechDraft1Carolyn_lessNoise,2021.2.3,59.796809756458835,
cheek.wav,cheek.mpg,cheek,3,A,Pink_Noise_3_1.wav,Pink_Noise_3_2.wav,,,,,,0,47,47,20,,,,,,,,,,,,,,,926.5774423580151,None,928.0771547469776,None,929.4607029850595,None,cheek,929.4607029850595,None,return,1.0229150420054793,929.5441081080353,None,,,,,,,20,001,2023_Feb_15_1257,SpeechDraft1Carolyn_lessNoise,2021.2.3,59.796809756458835,
bar.wav,bar.mpg,bar,4,A,Pink_Noise_4_1.wav,Pink_Noise_4_2.wav,,,,,,0,48,48,42,,,,,,,,,,,,,,,930.5940690389834,None,932.0782573550241,None,933.4607607260114,None,arm,933.4607607260114,None,return,0.6229620049707592,933.5440864730626,None,,,,,,,20,001,2023_Feb_15_1257,SpeechDraft1Carolyn_lessNoise,2021.2.3,59.796809756458835,
dull.wav,dull.mpg,dull,6,A,Pink_Noise_6_1.wav,Pink_Noise_6_2.wav,,,,,,0,49,49,21,,,,,,,,,,,,,,,934.194091273006,None,935.6781857070746,None,937.0607532149879,None,"leg
",937.0607532149879,None,return,0.9028963349992409,937.1440006319899,None,,,,,,,20,001,2023_Feb_15_1257,SpeechDraft1Carolyn_lessNoise,2021.2.3,59.796809756458835,
earth.wav,earth.mpg,earth,3,AV,Pink_Noise_3_1.wav,Pink_Noise_3_2.wav,,,,,,0,50,50,108,,,,,,,,,,,,,,,938.0773955740733,None,939.5625301660039,None,940.9440991319716,None,earth,940.9440991319716,None,return,1.123479931964539,941.0275259640766,None,,,,,,,20,001,2023_Feb_15_1257,SpeechDraft1Carolyn_lessNoise,2021.2.3,59.796809756458835,
toy.wav,toy.mpg,toy,2,AV,Pink_Noise_2_1.wav,Pink_Noise_2_2.wav,,,,,,0,51,51,89,,,,,,,,,,,,,,,942.1774133930448,None,943.6773028930184,None,945.0440675540594,None,toy,945.0440675540594,None,return,0.823542605037801,945.1274220970226,None,,,,,,,20,001,2023_Feb_15_1257,SpeechDraft1Carolyn_lessNoise,2021.2.3,59.796809756458835,
lost.wav,lost.mpg,lost,3,AV,Pink_Noise_3_1.wav,Pink_Noise_3_2.wav,,,,,,0,52,52,113,,,,,,,,,,,,,,,945.9775816510664,None,947.4630404170603,None,948.8440790580353,None,lost,948.8440790580353,None,return,3.959390450036153,948.9275288990466,None,,,,,,,20,001,2023_Feb_15_1257,SpeechDraft1Carolyn_lessNoise,2021.2.3,59.796809756458835,
dark.wav,dark.mpg,dark,5,A,Pink_Noise_5_1.wav,Pink_Noise_5_2.wav,,,,,,0,53,53,55,,,,,,,,,,,,,,,952.9108586519724,None,954.3960043840343,None,955.7788039220031,None,left,955.7788039220031,None,return,2.5061601389897987,955.860892229015,None,,,,,,,20,001,2023_Feb_15_1257,SpeechDraft1Carolyn_lessNoise,2021.2.3,59.796809756458835,
crate.wav,crate.mpg,crate,1,AV,Pink_Noise_1_1.wav,Pink_Noise_1_2.wav,,,,,,0,54,54,78,,,,,,,,,,,,,,,958.3940863059834,None,959.8937803630251,None,961.2775150790112,None,crate,961.2775150790112,None,return,1.0541688780067489,961.3607266040053,None,,,,,,,20,001,2023_Feb_15_1257,SpeechDraft1Carolyn_lessNoise,2021.2.3,59.796809756458835,
glad.wav,glad.mpg,glad,1,A,Pink_Noise_1_1.wav,Pink_Noise_1_2.wav,,,,,,0,55,55,11,,,,,,,,,,,,,,,962.4442415230442,None,963.9439470099751,None,965.3108387680259,None,glad,965.3108387680259,None,return,0.8048552870750427,965.394029402989,None,,,,,,,20,001,2023_Feb_15_1257,SpeechDraft1Carolyn_lessNoise,2021.2.3,59.796809756458835,
bride.wav,bride.mpg,bride,3,AV,Pink_Noise_3_1.wav,Pink_Noise_3_2.wav,,,,,,0,56,56,82,,,,,,,,,,,,,,,966.2273717490025,None,967.7273656569887,None,969.0941803719616,None,"bride
",969.0941803719616,None,return,1.0694251380627975,969.1774691530736,None,,,,,,,20,001,2023_Feb_15_1257,SpeechDraft1Carolyn_lessNoise,2021.2.3,59.796809756458835,
beard.wav,beard.mpg,beard,5,A,Pink_Noise_5_1.wav,Pink_Noise_5_2.wav,,,,,,0,57,57,51,,,,,,,,,,,,,,,970.2774052990135,None,971.7617171159945,None,973.1441364990314,None,grew,973.1441364990314,None,return,1.2112755560083315,973.2276159779867,None,,,,,,,20,001,2023_Feb_15_1257,SpeechDraft1Carolyn_lessNoise,2021.2.3,59.796809756458835,
drive.wav,drive.mpg,drive,5,AV,Pink_Noise_5_1.wav,Pink_Noise_5_2.wav,,,,,,0,58,58,112,,,,,,,,,,,,,,,974.4607257769676,None,975.945265959017,None,977.3274820110528,None,"drive
",977.3274820110528,None,return,4.08414630999323,977.410747595015,None,,,,,,,20,001,2023_Feb_15_1257,SpeechDraft1Carolyn_lessNoise,2021.2.3,59.796809756458835,
tank.wav,tank.mpg,tank,1,A,Pink_Noise_1_1.wav,Pink_Noise_1_2.wav,,,,,,0,59,59,48,,,,,,,,,,,,,,,981.5275884460425,None,983.0119644489605,None,984.3942618409637,None,tanl,984.3942618409637,None,return,1.1293407148914412,984.477553304052,None,,,,,,,20,001,2023_Feb_15_1257,SpeechDraft1Carolyn_lessNoise,2021.2.3,59.796809756458835,
doom.wav,doom.mpg,doom,4,AV,Pink_Noise_4_1.wav,Pink_Noise_4_2.wav,,,,,,0,60,60,99,,,,,,,,,,,,,,,985.6282345650252,None,987.127389232046,None,988.51075008302,None,doom,988.51075008302,None,return,1.5649623969802633,988.5940903649898,None,,,,,,,20,001,2023_Feb_15_1257,SpeechDraft1Carolyn_lessNoise,2021.2.3,59.796809756458835,
round.wav,round.mpg,round,1,AV,Pink_Noise_1_1.wav,Pink_Noise_1_2.wav,,,,,,0,61,61,109,,,,,,,,,,,,,,,990.1775291659869,None,991.6773600210436,None,993.0608528860612,None,round,993.0608528860612,None,return,1.4707220980199054,993.1441626340384,None,,,,,,,20,001,2023_Feb_15_1257,SpeechDraft1Carolyn_lessNoise,2021.2.3,59.796809756458835,
chain.wav,chain.mpg,chain,6,A,Pink_Noise_6_1.wav,Pink_Noise_6_2.wav,,,,,,0,62,62,6,,,,,,,,,,,,,,,994.6441322159953,None,996.1440317080123,None,997.5107858850388,None,tree,997.5107858850388,None,return,1.5165611220290884,997.5943306180416,None,,,,,,,20,001,2023_Feb_15_1257,SpeechDraft1Carolyn_lessNoise,2021.2.3,59.796809756458835,
flake.wav,flake.mpg,flake,2,AV,Pink_Noise_2_1.wav,Pink_Noise_2_2.wav,,,,,,0,63,63,71,,,,,,,,,,,,,,,999.1274571620161,None,1000.6124816030497,None,1001.9941593069816,None,flake,1001.9941593069816,None,return,1.1613592009525746,1002.0774766340619,None,,,,,,,20,001,2023_Feb_15_1257,SpeechDraft1Carolyn_lessNoise,2021.2.3,59.796809756458835,
frost.wav,frost.mpg,frost,2,A,Pink_Noise_2_1.wav,Pink_Noise_2_2.wav,,,,,,0,64,64,35,,,,,,,,,,,,,,,1003.2608802070608,None,1004.7606322880602,None,1006.127495697001,None,"frost
",1006.127495697001,None,return,1.6679463440086693,1006.2109376949957,None,,,,,,,20,001,2023_Feb_15_1257,SpeechDraft1Carolyn_lessNoise,2021.2.3,59.796809756458835,
cop.wav,cop.mpg,cop,4,AV,Pink_Noise_4_1.wav,Pink_Noise_4_2.wav,,,,,,0,65,65,86,,,,,,,,,,,,,,,1007.9108007489704,None,1009.4106356099946,None,1010.7942597380606,None,cop,1010.7942597380606,None,return,1.0574362259358168,1010.8774443280417,None,,,,,,,20,001,2023_Feb_15_1257,SpeechDraft1Carolyn_lessNoise,2021.2.3,59.796809756458835,
fable.wav,fable.mpg,fable,6,A,Pink_Noise_6_1.wav,Pink_Noise_6_2.wav,,,,,,0,66,66,25,,,,,,,,,,,,,,,1011.9608391990187,None,1013.460666369996,None,1014.827427100041,None,dream,1014.827427100041,None,return,2.648048697039485,1014.9108614709694,None,,,,,,,20,001,2023_Feb_15_1257,SpeechDraft1Carolyn_lessNoise,2021.2.3,59.796809756458835,
tense.wav,tense.mpg,tense,6,AV,Pink_Noise_6_1.wav,Pink_Noise_6_2.wav,,,,,,0,67,67,96,,,,,,,,,,,,,,,1017.5775412630755,None,1019.0774122939911,None,1020.4609099080553,None,"test
",1020.4609099080553,None,return,1.9347473080269992,1020.5441461090231,None,,,,,,,20,001,2023_Feb_15_1257,SpeechDraft1Carolyn_lessNoise,2021.2.3,59.796809756458835,
vest.wav,vest.mpg,vest,6,AV,Pink_Noise_6_1.wav,Pink_Noise_6_2.wav,,,,,,0,68,68,65,,,,,,,,,,,,,,,1022.5109000320081,None,1024.010611952981,None,1025.37735609198,None,fact,1025.37735609198,None,return,1.930104159982875,1025.4608942019986,None,,,,,,,20,001,2023_Feb_15_1257,SpeechDraft1Carolyn_lessNoise,2021.2.3,59.796809756458835,
dive.wav,dive.mpg,dive,5,AV,Pink_Noise_5_1.wav,Pink_Noise_5_2.wav,,,,,,0,69,69,72,,,,,,,,,,,,,,,1027.4108726320555,None,1028.9106474469882,None,1030.294160890975,None,dive,1030.294160890975,None,return,1.7494000369915739,1030.3776023120154,None,,,,,,,20,001,2023_Feb_15_1257,SpeechDraft1Carolyn_lessNoise,2021.2.3,59.796809756458835,
grim.wav,grim.mpg,grim,1,A,Pink_Noise_1_1.wav,Pink_Noise_1_2.wav,,,,,,0,70,70,26,,,,,,,,,,,,,,,1032.1442752090516,None,1033.644010102027,None,1035.0275331420125,None,grim,1035.0275331420125,None,return,1.5039667979581282,1035.1109182919608,None,,,,,,,20,001,2023_Feb_15_1257,SpeechDraft1Carolyn_lessNoise,2021.2.3,59.796809756458835,
slush.wav,slush.mpg,slush,3,AV,Pink_Noise_3_1.wav,Pink_Noise_3_2.wav,,,,,,0,71,71,64,,,,,,,,,,,,,,,1036.644209458027,None,1038.1440981010674,None,1039.5275380560197,None,"slush
",1039.5275380560197,None,return,1.8519443210680038,1039.6109467640053,None,,,,,,,20,001,2023_Feb_15_1257,SpeechDraft1Carolyn_lessNoise,2021.2.3,59.796809756458835,
golf.wav,golf.mpg,golf,2,AV,Pink_Noise_2_1.wav,Pink_Noise_2_2.wav,,,,,,0,72,72,115,,,,,,,,,,,,,,,1041.4943152830238,None,1042.9940325340722,None,1044.3608393979957,None,golf,1044.3608393979957,None,return,0.7626558480551466,1044.4442342229886,None,,,,,,,20,001,2023_Feb_15_1257,SpeechDraft1Carolyn_lessNoise,2021.2.3,59.796809756458835,
glue.wav,glue.mpg,glue,4,AV,Pink_Noise_4_1.wav,Pink_Noise_4_2.wav,,,,,,0,73,73,68,,,,,,,,,,,,,,,1045.2275858799694,None,1046.7273188210092,None,1048.11081198405,None,glue,1048.11081198405,None,return,1.5486784429522231,1048.1943215240026,None,,,,,,,20,001,2023_Feb_15_1257,SpeechDraft1Carolyn_lessNoise,2021.2.3,59.796809756458835,
coast.wav,coast.mpg,coast,4,A,Pink_Noise_4_1.wav,Pink_Noise_4_2.wav,,,,,,0,74,74,3,,,,,,,,,,,,,,,1049.7609284410719,None,1051.260643401998,None,1052.6443043639883,None,post,1052.6443043639883,None,return,1.0873169660335407,1052.7275673750555,None,,,,,,,20,001,2023_Feb_15_1257,SpeechDraft1Carolyn_lessNoise,2021.2.3,59.796809756458835,
dim.wav,dim.mpg,dim,2,A,Pink_Noise_2_1.wav,Pink_Noise_2_2.wav,,,,,,0,75,75,28,,,,,,,,,,,,,,,1053.8441901800688,None,1055.3442092350451,None,1056.7108831200749,None,dim,1056.7108831200749,None,return,2.508642855915241,1056.7942338460125,None,,,,,,,20,001,2023_Feb_15_1257,SpeechDraft1Carolyn_lessNoise,2021.2.3,59.796809756458835,
brawl.wav,brawl.mpg,brawl,4,AV,Pink_Noise_4_1.wav,Pink_Noise_4_2.wav,,,,,,0,76,76,117,,,,,,,,,,,,,,,1059.3277195170522,None,1060.827264943975,None,1062.194076596992,None,broad,1062.194076596992,None,return,1.3213264319347218,1062.2775827479782,None,,,,,,,20,001,2023_Feb_15_1257,SpeechDraft1Carolyn_lessNoise,2021.2.3,59.796809756458835,
curl.wav,curl.mpg,curl,3,A,Pink_Noise_3_1.wav,Pink_Noise_3_2.wav,,,,,,0,77,77,59,,,,,,,,,,,,,,,1063.6275946620153,None,1065.1275168010034,None,1066.4942804269958,None,curl,1066.4942804269958,None,return,1.6773948790505528,1066.577502898057,None,,,,,,,20,001,2023_Feb_15_1257,SpeechDraft1Carolyn_lessNoise,2021.2.3,59.796809756458835,
blot.wav,blot.mpg,blot,3,AV,Pink_Noise_3_1.wav,Pink_Noise_3_2.wav,,,,,,0,78,78,85,,,,,,,,,,,,,,,1068.2775783520192,None,1069.762873418047,None,1071.1441881760256,None,blot,1071.1441881760256,None,return,2.6913196239620447,1071.2275861550588,None,,,,,,,20,001,2023_Feb_15_1257,SpeechDraft1Carolyn_lessNoise,2021.2.3,59.796809756458835,
cliff.wav,cliff.mpg,cliff,4,A,Pink_Noise_4_1.wav,Pink_Noise_4_2.wav,,,,,,0,79,79,14,,,,,,,,,,,,,,,1073.944236336043,None,1075.444045547978,None,1076.8275230070576,None,cliff,1076.8275230070576,None,return,1.7278901539975777,1076.9109925329685,None,,,,,,,20,001,2023_Feb_15_1257,SpeechDraft1Carolyn_lessNoise,2021.2.3,59.796809756458835,
cloth.wav,cloth.mpg,cloth,6,A,Pink_Noise_6_1.wav,Pink_Noise_6_2.wav,,,,,,0,80,80,33,,,,,,,,,,,,,,,1078.661083906074,None,1080.1606053709984,None,1081.5443855780177,None,flock,1081.5443855780177,None,return,1.64336814195849,1081.6275142360246,None,,,,,,,20,001,2023_Feb_15_1257,SpeechDraft1Carolyn_lessNoise,2021.2.3,59.796809756458835,
bill.wav,bill.mpg,bill,3,A,Pink_Noise_3_1.wav,Pink_Noise_3_2.wav,,,,,,0,81,81,54,,,,,,,,,,,,,,,1083.2943136499962,None,1084.7940796780167,None,1086.160882110009,None,bill,1086.160882110009,None,return,0.7946742370259017,1086.2442060610047,None,,,,,,,20,001,2023_Feb_15_1257,SpeechDraft1Carolyn_lessNoise,2021.2.3,59.796809756458835,
wheat.wav,wheat.mpg,wheat,4,A,Pink_Noise_4_1.wav,Pink_Noise_4_2.wav,,,,,,0,82,82,15,,,,,,,,,,,,,,,1087.060957893962,None,1088.560803464963,None,1089.9276600440498,None,"treat
",1089.9276600440498,None,return,4.219702966045588,1090.0111817519646,None,,,,,,,20,001,2023_Feb_15_1257,SpeechDraft1Carolyn_lessNoise,2021.2.3,59.796809756458835,
code.wav,code.mpg,code,6,AV,Pink_Noise_6_1.wav,Pink_Noise_6_2.wav,,,,,,0,83,83,73,,,,,,,,,,,,,,,1094.2609615119873,None,1095.7607303860132,None,1097.1276377490722,None,go,1097.1276377490722,None,return,1.9320642659440637,1097.210952798021,None,,,,,,,20,001,2023_Feb_15_1257,SpeechDraft1Carolyn_lessNoise,2021.2.3,59.796809756458835,
eat.wav,eat.mpg,eat,6,AV,Pink_Noise_6_1.wav,Pink_Noise_6_2.wav,,,,,,0,84,84,101,,,,,,,,,,,,,,,1099.1609709450277,None,1100.6465463590575,None,1102.0276164070237,None,eat,1102.0276164070237,None,return,0.8880942680407315,1102.1109177729813,None,,,,,,,20,001,2023_Feb_15_1257,SpeechDraft1Carolyn_lessNoise,2021.2.3,59.796809756458835,
bend.wav,bend.mpg,bend,3,A,Pink_Noise_3_1.wav,Pink_Noise_3_2.wav,,,,,,0,85,85,32,,,,,,,,,,,,,,,1103.0276799809653,None,1104.5275989279617,None,1105.9109712289646,None,fend,1105.9109712289646,None,return,1.7165699519682676,1105.994315264048,None,,,,,,,20,001,2023_Feb_15_1257,SpeechDraft1Carolyn_lessNoise,2021.2.3,59.796809756458835,
budge.wav,budge.mpg,budge,6,AV,Pink_Noise_6_1.wav,Pink_Noise_6_2.wav,,,,,,0,86,86,110,,,,,,,,,,,,,,,1107.7275501090335,None,1109.2273674979806,None,1110.6109226300614,None,budge,1110.6109226300614,None,return,1.9125165140721947,1110.6943708810722,None,,,,,,,20,001,2023_Feb_15_1257,SpeechDraft1Carolyn_lessNoise,2021.2.3,59.796809756458835,
die.wav,die.mpg,die,5,A,Pink_Noise_5_1.wav,Pink_Noise_5_2.wav,,,,,,0,87,87,9,,,,,,,,,,,,,,,1112.6276987500023,None,1114.1274031749927,None,1115.4943620989798,None,strive,1115.4943620989798,None,return,5.549223465030082,1115.5777286429657,None,,,,,,,20,001,2023_Feb_15_1257,SpeechDraft1Carolyn_lessNoise,2021.2.3,59.796809756458835,
fence.wav,fence.mpg,fence,5,A,Pink_Noise_5_1.wav,Pink_Noise_5_2.wav,,,,,,0,88,88,56,,,,,,,,,,,,,,,1121.14434334205,None,1122.6440835000249,None,1124.0110151820118,None,dense,1124.0110151820118,None,return,1.8165839579887688,1124.0943486200413,None,,,,,,,20,001,2023_Feb_15_1257,SpeechDraft1Carolyn_lessNoise,2021.2.3,59.796809756458835,
gun.wav,gun.mpg,gun,5,AV,Pink_Noise_5_1.wav,Pink_Noise_5_2.wav,,,,,,0,89,89,61,,,,,,,,,,,,,,,1125.9277001150185,None,1127.4275047350675,None,1128.8109207620146,None,"gun
",1128.8109207620146,None,return,1.184563857037574,1128.8943229210563,None,,,,,,,20,001,2023_Feb_15_1257,SpeechDraft1Carolyn_lessNoise,2021.2.3,59.796809756458835,
freeze.wav,freeze.mpg,freeze,4,A,Pink_Noise_4_1.wav,Pink_Noise_4_2.wav,,,,,,0,90,90,41,,,,,,,,,,,,,,,1130.1109364150325,None,1131.6108249330427,None,1132.9777018129826,None,freed,1132.9777018129826,None,return,1.5458543150452897,1133.0610569780692,None,,,,,,,20,001,2023_Feb_15_1257,SpeechDraft1Carolyn_lessNoise,2021.2.3,59.796809756458835,
broil.wav,broil.mpg,broil,2,A,Pink_Noise_2_1.wav,Pink_Noise_2_2.wav,,,,,,0,91,91,27,,,,,,,,,,,,,,,1134.6276087820297,None,1136.127578923013,None,1137.5110591250705,None,broil,1137.5110591250705,None,return,2.428486294928007,1137.594416873064,None,,,,,,,20,001,2023_Feb_15_1257,SpeechDraft1Carolyn_lessNoise,2021.2.3,59.796809756458835,
clip.wav,clip.mpg,clip,4,AV,Pink_Noise_4_1.wav,Pink_Noise_4_2.wav,,,,,,0,92,92,97,,,,,,,,,,,,,,,1140.0443597170524,None,1141.544315312989,None,1142.9276746390387,None,clip,1142.9276746390387,None,return,1.4998919439967722,1143.0110674609896,None,,,,,,,20,001,2023_Feb_15_1257,SpeechDraft1Carolyn_lessNoise,2021.2.3,59.796809756458835,
eight.wav,eight.mpg,eight,3,A,Pink_Noise_3_1.wav,Pink_Noise_3_2.wav,,,,,,0,93,93,8,,,,,,,,,,,,,,,1144.527698990074,None,1146.0274167939788,None,1147.4110002990346,None,ate,1147.4110002990346,None,return,0.6886141150025651,1147.494384850026,None,,,,,,,20,001,2023_Feb_15_1257,SpeechDraft1Carolyn_lessNoise,2021.2.3,59.796809756458835,
drunk.wav,drunk.mpg,drunk,2,A,Pink_Noise_2_1.wav,Pink_Noise_2_2.wav,,,,,,0,94,94,30,,,,,,,,,,,,,,,1148.2110015259823,None,1149.7108531720005,None,1151.094376011053,None,"drunk
",1151.094376011053,None,return,1.2531832279637456,1151.177719503059,None,,,,,,,20,001,2023_Feb_15_1257,SpeechDraft1Carolyn_lessNoise,2021.2.3,59.796809756458835,
blame.wav,blame.mpg,blame,5,AV,Pink_Noise_5_1.wav,Pink_Noise_5_2.wav,,,,,,0,95,95,104,,,,,,,,,,,,,,,1152.4610619259765,None,1153.9609495960176,None,1155.3443750709994,None,"blame
",1155.3443750709994,None,return,1.403317418997176,1155.427569441963,None,,,,,,,20,001,2023_Feb_15_1257,SpeechDraft1Carolyn_lessNoise,2021.2.3,59.796809756458835,
blow.wav,blow.mpg,blow,1,AV,Pink_Noise_1_1.wav,Pink_Noise_1_2.wav,,,,,,0,96,96,74,,,,,,,,,,,,,,,1156.861115784035,None,1158.3607524139807,None,1159.72768532997,None,blow,1159.72768532997,None,return,0.7319537909934297,1159.8110509599792,None,,,,,,,20,001,2023_Feb_15_1257,SpeechDraft1Carolyn_lessNoise,2021.2.3,59.796809756458835,
clay.wav,clay.mpg,clay,4,A,Pink_Noise_4_1.wav,Pink_Noise_4_2.wav,,,,,,0,97,97,0,,,,,,,,,,,,,,,1160.561065825983,None,1162.0609178449959,None,1163.444374129991,None,clip,1163.444374129991,None,return,10.375123547040857,1163.5277643080335,None,,,,,,,20,001,2023_Feb_15_1257,SpeechDraft1Carolyn_lessNoise,2021.2.3,59.796809756458835,
chin.wav,chin.mpg,chin,1,AV,Pink_Noise_1_1.wav,Pink_Noise_1_2.wav,,,,,,0,98,98,111,,,,,,,,,,,,,,,1173.927737102029,None,1175.4442234809976,None,1176.8276176609797,None,chin,1176.8276176609797,None,return,1.1917867150623351,1176.9111096659908,None,,,,,,,20,001,2023_Feb_15_1257,SpeechDraft1Carolyn_lessNoise,2021.2.3,59.796809756458835,
cab.wav,cab.mpg,cab,6,A,Pink_Noise_6_1.wav,Pink_Noise_6_2.wav,,,,,,0,99,99,38,,,,,,,,,,,,,,,1178.1277530849911,None,1179.6275983389933,None,1180.9944393309997,None,hair,1180.9944393309997,None,return,1.3290793219348416,1181.077768656076,None,,,,,,,20,001,2023_Feb_15_1257,SpeechDraft1Carolyn_lessNoise,2021.2.3,59.796809756458835,
curve.wav,curve.mpg,curve,2,AV,Pink_Noise_2_1.wav,Pink_Noise_2_2.wav,,,,,,0,100,100,67,,,,,,,,,,,,,,,1182.4277960580075,None,1183.9275110480376,None,1185.294354468002,None,"curve
",1185.294354468002,None,return,1.301134239998646,1185.377759075025,None,,,,,,,20,001,2023_Feb_15_1257,SpeechDraft1Carolyn_lessNoise,2021.2.3,59.796809756458835,
dwell.wav,dwell.mpg,dwell,2,AV,Pink_Noise_2_1.wav,Pink_Noise_2_2.wav,,,,,,0,101,101,76,,,,,,,,,,,,,,,1186.7110711860005,None,1188.2107545910403,None,1189.5944577740738,None,dwell,1189.5944577740738,None,return,1.345168103929609,1189.677742016036,None,,,,,,,20,001,2023_Feb_15_1257,SpeechDraft1Carolyn_lessNoise,2021.2.3,59.796809756458835,
ease.wav,ease.mpg,ease,3,AV,Pink_Noise_3_1.wav,Pink_Noise_3_2.wav,,,,,,0,102,102,103,,,,,,,,,,,,,,,1191.0444569849642,None,1192.544261442963,None,1193.9110829570564,None,"ease
",1193.9110829570564,None,return,2.100449258927256,1193.9944457340753,None,,,,,,,20,001,2023_Feb_15_1257,SpeechDraft1Carolyn_lessNoise,2021.2.3,59.796809756458835,
grant.wav,grant.mpg,grant,1,AV,Pink_Noise_1_1.wav,Pink_Noise_1_2.wav,,,,,,0,103,103,77,,,,,,,,,,,,,,,1196.1277195439907,None,1197.627532799961,None,1199.011138360016,None,grant,1199.011138360016,None,return,0.8644362819613889,1199.0944472780684,None,,,,,,,20,001,2023_Feb_15_1257,SpeechDraft1Carolyn_lessNoise,2021.2.3,59.796809756458835,
pride.wav,pride.mpg,pride,4,AV,Pink_Noise_4_1.wav,Pink_Noise_4_2.wav,,,,,,0,104,104,79,,,,,,,,,,,,,,,1199.9777883150382,None,1201.4776828740723,None,1202.860987809021,None,"pride
",1202.860987809021,None,return,1.4705112189985812,1202.9444035839988,None,,,,,,,20,001,2023_Feb_15_1257,SpeechDraft1Carolyn_lessNoise,2021.2.3,59.796809756458835,
glass.wav,glass.mpg,glass,1,AV,Pink_Noise_1_1.wav,Pink_Noise_1_2.wav,,,,,,0,105,105,93,,,,,,,,,,,,,,,1204.4444353180006,None,1205.9442539650481,None,1207.3110527399695,None,glass,1207.3110527399695,None,return,1.4043376179179177,1207.3945653859992,None,,,,,,,20,001,2023_Feb_15_1257,SpeechDraft1Carolyn_lessNoise,2021.2.3,59.796809756458835,
coup.wav,coup.mpg,coup,1,AV,Pink_Noise_1_1.wav,Pink_Noise_1_2.wav,,,,,,0,106,106,118,,,,,,,,,,,,,,,1208.8278742709663,None,1210.3275961020263,None,1211.6944184550084,None,coup,1211.6944184550084,None,return,1.3250710850115865,1211.7778190009994,None,,,,,,,20,001,2023_Feb_15_1257,SpeechDraft1Carolyn_lessNoise,2021.2.3,59.796809756458835,
flu.wav,flu.mpg,flu,2,AV,Pink_Noise_2_1.wav,Pink_Noise_2_2.wav,,,,,,0,107,107,87,,,,,,,,,,,,,,,1213.1277696640464,None,1214.6277351799654,None,1216.0112615730613,None,flew,1216.0112615730613,None,return,1.6724944419693202,1216.0945182139985,None,,,,,,,20,001,2023_Feb_15_1257,SpeechDraft1Carolyn_lessNoise,2021.2.3,59.796809756458835,
gaze.wav,gaze.mpg,gaze,2,AV,Pink_Noise_2_1.wav,Pink_Noise_2_2.wav,,,,,,0,108,108,94,,,,,,,,,,,,,,,1217.794576826971,None,1219.2943060760153,None,1220.661077531986,None,gaze,1220.661077531986,None,return,1.6143874590052292,1220.7445077520097,None,,,,,,,20,001,2023_Feb_15_1257,SpeechDraft1Carolyn_lessNoise,2021.2.3,59.796809756458835,
blank.wav,blank.mpg,blank,2,A,Pink_Noise_2_1.wav,Pink_Noise_2_2.wav,,,,,,0,109,109,29,,,,,,,,,,,,,,,1222.377825894975,None,1223.8775371749653,None,1225.2444419839885,None,blank,1225.2444419839885,None,return,1.34299692499917,1225.327887195046,None,,,,,,,20,001,2023_Feb_15_1257,SpeechDraft1Carolyn_lessNoise,2021.2.3,59.796809756458835,
fork.wav,fork.mpg,fork,1,A,Pink_Noise_1_1.wav,Pink_Noise_1_2.wav,,,,,,0,110,110,43,,,,,,,,,,,,,,,1226.6944974439684,None,1228.2110538070556,None,1229.5943926300388,None,fork,1229.5943926300388,None,return,1.0250571699580178,1229.6778249209747,None,,,,,,,20,001,2023_Feb_15_1257,SpeechDraft1Carolyn_lessNoise,2021.2.3,59.796809756458835,
fan.wav,fan.mpg,fan,1,AV,Pink_Noise_1_1.wav,Pink_Noise_1_2.wav,,,,,,0,111,111,92,,,,,,,,,,,,,,,1230.72783329105,None,1232.2276128960075,None,1233.611020285054,None,fan,1233.611020285054,None,return,0.7282792039914057,1233.6946441470645,None,,,,,,,20,001,2023_Feb_15_1257,SpeechDraft1Carolyn_lessNoise,2021.2.3,59.796809756458835,
cult.wav,cult.mpg,cult,5,A,Pink_Noise_5_1.wav,Pink_Noise_5_2.wav,,,,,,0,112,112,50,,,,,,,,,,,,,,,1234.4446162190288,None,1235.9443988919957,None,1237.3111304580234,None,cork,1237.3111304580234,None,return,1.1405341079225764,1237.394506143988,None,,,,,,,20,001,2023_Feb_15_1257,SpeechDraft1Carolyn_lessNoise,2021.2.3,59.796809756458835,
bass.wav,bass.mpg,bass,4,AV,Pink_Noise_4_1.wav,Pink_Noise_4_2.wav,,,,,,0,113,113,69,,,,,,,,,,,,,,,1238.5611771140248,None,1240.0609826080035,None,1241.4444102320122,None,base,1241.4444102320122,None,return,1.6552064949646592,1241.5277587790042,None,,,,,,,20,001,2023_Feb_15_1257,SpeechDraft1Carolyn_lessNoise,2021.2.3,59.796809756458835,
dial.wav,dial.mpg,dial,1,A,Pink_Noise_1_1.wav,Pink_Noise_1_2.wav,,,,,,0,114,114,31,,,,,,,,,,,,,,,1243.211268756073,None,1244.7110907670576,None,1246.0946540130535,None,dial,1246.0946540130535,None,return,2.5890564000001177,1246.1779652970145,None,,,,,,,20,001,2023_Feb_15_1257,SpeechDraft1Carolyn_lessNoise,2021.2.3,59.796809756458835,
rid.wav,rid.mpg,rid,1,A,Pink_Noise_1_1.wav,Pink_Noise_1_2.wav,,,,,,0,115,115,5,,,,,,,,,,,,,,,1248.7945327180205,None,1250.2942956270417,None,1251.6778467830736,None,"read
",1251.6778467830736,None,return,2.117696107015945,1251.7611982410308,None,,,,,,,20,001,2023_Feb_15_1257,SpeechDraft1Carolyn_lessNoise,2021.2.3,59.796809756458835,
crust.wav,crust.mpg,crust,5,AV,Pink_Noise_5_1.wav,Pink_Noise_5_2.wav,,,,,,0,116,116,98,,,,,,,,,,,,,,,1253.9112491579726,None,1255.410960498033,None,1256.794540130999,None,"crust
",1256.794540130999,None,return,3.1529960179468617,1256.8778962880606,None,,,,,,,20,001,2023_Feb_15_1257,SpeechDraft1Carolyn_lessNoise,2021.2.3,59.796809756458835,
crush.wav,crush.mpg,crush,6,A,Pink_Noise_6_1.wav,Pink_Noise_6_2.wav,,,,,,0,117,117,34,,,,,,,,,,,,,,,1260.0612312790472,None,1261.5611206820467,None,1262.9445620069746,None,crush,1262.9445620069746,None,return,1.3549512410536408,1263.0279486869695,None,,,,,,,20,001,2023_Feb_15_1257,SpeechDraft1Carolyn_lessNoise,2021.2.3,59.796809756458835,
bottle.wav,bottle.mpg,bottle,5,AV,Pink_Noise_5_1.wav,Pink_Noise_5_2.wav,,,,,,0,118,118,107,,,,,,,,,,,,,,,1264.411232006969,None,1265.9110372760333,None,1267.2944971370744,None,"bile
",1267.2944971370744,None,return,1.4370214879745618,1267.3778944100486,None,,,,,,,20,001,2023_Feb_15_1257,SpeechDraft1Carolyn_lessNoise,2021.2.3,59.796809756458835,
fee.wav,fee.mpg,fee,4,A,Pink_Noise_4_1.wav,Pink_Noise_4_2.wav,,,,,,0,119,119,47,,,,,,,,,,,,,,,1268.8445111770416,None,1270.3443072109949,None,1271.727731580031,None,feed,1271.727731580031,None,return,1.9637564710574225,1271.8112795540364,None,,,,,,,20,001,2023_Feb_15_1257,SpeechDraft1Carolyn_lessNoise,2021.2.3,59.796809756458835,
