Audio_Only_Files,Video_Files,Original_Word_List,noiseLevelCode,conditionCodes,noiseLevelFile1,noiseLevelFile2,InstrTextVar,practiceTrials.thisRepN,practiceTrials.thisTrialN,practiceTrials.thisN,practiceTrials.thisIndex,trials.thisRepN,trials.thisTrialN,trials.thisN,trials.thisIndex,letsGoAlready.keys,letsGoAlready.rt,letsGoAlready.started,letsGoAlready.stopped,text_2.started,text_2.stopped,text_3.started,text_3.stopped,key_resp_2.keys,key_resp_2.rt,key_resp_2.started,key_resp_2.stopped,text_5.started,text_5.stopped,fixCross.started,fixCross.stopped,fixCross2.started,fixCross2.stopped,answerPrompt.started,answerPrompt.stopped,getAnswer.text,getAnswer.started,getAnswer.stopped,goToNext.keys,goToNext.rt,goToNext.started,goToNext.stopped,stretchBreakTxrt.started,stretchBreakTxrt.stopped,key_resp_3.keys,key_resp_3.rt,key_resp_3.started,key_resp_3.stopped,participant,session,date,expName,psychopyVersion,frameRate,
,,,,,,,,,,,,,,,,space,17.40292371402029,10.439362152013928,None,,,,,,,,,,,,,,,,,,,,,,,,,,,,,,21,001,2023_Feb_15_1614,SpeechDraft1Carolyn_lessNoise,2021.2.3,59.91548346827745,
,,,,,,,,,,,,,,,,,,,,10.439362152013928,None,27.874862396041863,None,space,14.322462463984266,28.039726994000375,None,,,,,,,,,,,,,,,,,,,,,,21,001,2023_Feb_15_1614,SpeechDraft1Carolyn_lessNoise,2021.2.3,59.91548346827745,
ash.wav,ash.mpg,ash,1,A,Pink_Noise_1_1.wav,Pink_Noise_1_2.wav,"This is an example of an

AUDIO trial",0,0,0,0,,,,,,,,,,,,,,,,,42.42240173695609,None,43.40623864904046,None,46.63929578801617,None,48.022614425979555,None,"ash
",48.022614425979555,None,return,1.551846111076884,48.10635650600307,None,,,,,,,21,001,2023_Feb_15_1614,SpeechDraft1Carolyn_lessNoise,2021.2.3,59.91548346827745,
ash.wav,ash.mpg,ash,1,AV,Pink_Noise_1_1.wav,Pink_Noise_1_2.wav,"This is an example of an

AUDIO + VIDEO  trial",0,1,1,1,,,,,,,,,,,,,,,,,49.70572169695515,None,50.70629682193976,None,52.18922703503631,None,53.57272706995718,None,"ash
",53.57272706995718,None,return,1.770158912986517,53.65607700194232,None,,,,,,,21,001,2023_Feb_15_1614,SpeechDraft1Carolyn_lessNoise,2021.2.3,59.91548346827745,
,,,,,,,,,,,,,,,,,,,,,,,,,,,,,,,,,,,,,,,,,,,55.47398504894227,None,space,19.289810966001824,55.65638557705097,None,21,001,2023_Feb_15_1614,SpeechDraft1Carolyn_lessNoise,2021.2.3,59.91548346827745,
feud.wav,feud.mpg,feud,6,A,Pink_Noise_6_1.wav,Pink_Noise_6_2.wav,,,,,,0,0,0,58,,,,,,,,,,,,,,,75.0058936800342,None,76.48946535005234,None,77.85626801196486,None,"we
",77.85626801196486,None,return,5.134804017026909,77.93939834705088,None,,,,,,,21,001,2023_Feb_15_1614,SpeechDraft1Carolyn_lessNoise,2021.2.3,59.91548346827745,
chant.wav,chant.mpg,chant,6,AV,Pink_Noise_6_1.wav,Pink_Noise_6_2.wav,,,,,,0,1,1,64,,,,,,,,,,,,,,,83.10612091096118,None,84.6061461509671,None,85.9895812489558,None,chain,85.9895812489558,None,return,5.721611590008251,86.0726653849706,None,,,,,,,21,001,2023_Feb_15_1614,SpeechDraft1Carolyn_lessNoise,2021.2.3,59.91548346827745,
camp.wav,camp.mpg,camp,3,AV,Pink_Noise_3_1.wav,Pink_Noise_3_2.wav,,,,,,0,2,2,60,,,,,,,,,,,,,,,91.8228304310469,None,93.32251889503095,None,94.68958871497307,None,camp,94.68958871497307,None,return,3.197348030982539,94.77282632002607,None,,,,,,,21,001,2023_Feb_15_1614,SpeechDraft1Carolyn_lessNoise,2021.2.3,59.91548346827745,
champ.wav,champ.mpg,champ,3,A,Pink_Noise_3_1.wav,Pink_Noise_3_2.wav,,,,,,0,3,3,1,,,,,,,,,,,,,,,97.9893555160379,None,99.47472322999965,None,100.85633122699801,None,champ,100.85633122699801,None,return,3.942634496022947,100.93955360294785,None,,,,,,,21,001,2023_Feb_15_1614,SpeechDraft1Carolyn_lessNoise,2021.2.3,59.91548346827745,
bull.wav,bull.mpg,bull,4,A,Pink_Noise_4_1.wav,Pink_Noise_4_2.wav,,,,,,0,4,4,18,,,,,,,,,,,,,,,104.90613884001505,None,106.38942848495208,None,107.77269404195249,None,bowl,107.77269404195249,None,return,4.7220721130725,107.85626977996435,None,,,,,,,21,001,2023_Feb_15_1614,SpeechDraft1Carolyn_lessNoise,2021.2.3,59.91548346827745,
dot.wav,dot.mpg,dot,2,AV,Pink_Noise_2_1.wav,Pink_Noise_2_2.wav,,,,,,0,5,5,81,,,,,,,,,,,,,,,112.60620901396032,None,114.10607050103135,None,115.48967915994581,None,dot,115.48967915994581,None,return,2.733399521908723,115.57284330099355,None,,,,,,,21,001,2023_Feb_15_1614,SpeechDraft1Carolyn_lessNoise,2021.2.3,59.91548346827745,
gush.wav,gush.mpg,gush,5,A,Pink_Noise_5_1.wav,Pink_Noise_5_2.wav,,,,,,0,6,6,35,,,,,,,,,,,,,,,118.32297374599148,None,119.80593417794444,None,121.18940320098773,None,gush,121.18940320098773,None,return,5.025409710011445,121.2727801320143,None,,,,,,,21,001,2023_Feb_15_1614,SpeechDraft1Carolyn_lessNoise,2021.2.3,59.91548346827745,
dusk.wav,dusk.mpg,dusk,5,A,Pink_Noise_5_1.wav,Pink_Noise_5_2.wav,,,,,,0,7,7,27,,,,,,,,,,,,,,,126.32288778398652,None,127.80621894903015,None,129.1896451220382,None,dusk,129.1896451220382,None,return,7.193424094002694,129.27277041401248,None,,,,,,,21,001,2023_Feb_15_1614,SpeechDraft1Carolyn_lessNoise,2021.2.3,59.91548346827745,
dump.wav,dump.mpg,dump,3,AV,Pink_Noise_3_1.wav,Pink_Noise_3_2.wav,,,,,,0,8,8,104,,,,,,,,,,,,,,,136.4894819300389,None,137.9893182789674,None,139.3727826459799,None,dump,139.3727826459799,None,return,7.122211616951972,139.4561571419472,None,,,,,,,21,001,2023_Feb_15_1614,SpeechDraft1Carolyn_lessNoise,2021.2.3,59.91548346827745,
bin.wav,bin.mpg,bin,4,AV,Pink_Noise_4_1.wav,Pink_Noise_4_2.wav,,,,,,0,9,9,103,,,,,,,,,,,,,,,146.60638256801758,None,148.10606594395358,None,149.4726973370416,None,"been
",149.4726973370416,None,return,3.7340432490454987,149.5561559429625,None,,,,,,,21,001,2023_Feb_15_1614,SpeechDraft1Carolyn_lessNoise,2021.2.3,59.91548346827745,
cell.wav,cell.mpg,cell,6,AV,Pink_Noise_6_1.wav,Pink_Noise_6_2.wav,,,,,,0,10,10,98,,,,,,,,,,,,,,,153.32283263804857,None,154.82287803094368,None,156.18962579104118,None,"sell
",156.18962579104118,None,return,1.801197448046878,156.27299031801522,None,,,,,,,21,001,2023_Feb_15_1614,SpeechDraft1Carolyn_lessNoise,2021.2.3,59.91548346827745,
cube.wav,cube.mpg,cube,1,A,Pink_Noise_1_1.wav,Pink_Noise_1_2.wav,,,,,,0,11,11,16,,,,,,,,,,,,,,,158.1062357709743,None,159.58950221794657,None,160.97312028694432,None,cube,160.97312028694432,None,return,1.874005603021942,161.0561778349802,None,,,,,,,21,001,2023_Feb_15_1614,SpeechDraft1Carolyn_lessNoise,2021.2.3,59.91548346827745,
gash.wav,gash.mpg,gash,1,A,Pink_Noise_1_1.wav,Pink_Noise_1_2.wav,,,,,,0,12,12,54,,,,,,,,,,,,,,,162.95625205500983,None,164.43951941397972,None,165.82286315702368,None,gasj,165.82286315702368,None,return,1.8160142210545018,165.9062420349801,None,,,,,,,21,001,2023_Feb_15_1614,SpeechDraft1Carolyn_lessNoise,2021.2.3,59.91548346827745,
quart.wav,quart.mpg,quart,3,AV,Pink_Noise_3_1.wav,Pink_Noise_3_2.wav,,,,,,0,13,13,77,,,,,,,,,,,,,,,167.73947281995788,None,169.22451640700456,None,170.60622553504072,None,"quart
",170.60622553504072,None,return,3.6004116639960557,170.68978329305537,None,,,,,,,21,001,2023_Feb_15_1614,SpeechDraft1Carolyn_lessNoise,2021.2.3,59.91548346827745,
beast.wav,beast.mpg,beast,1,AV,Pink_Noise_1_1.wav,Pink_Noise_1_2.wav,,,,,,0,14,14,86,,,,,,,,,,,,,,,174.32296019094065,None,175.82289824902546,None,177.18949140794575,None,beast,177.18949140794575,None,return,7.9053995800204575,177.27292456896976,None,,,,,,,21,001,2023_Feb_15_1614,SpeechDraft1Carolyn_lessNoise,2021.2.3,59.91548346827745,
dense.wav,dense.mpg,dense,2,A,Pink_Noise_2_1.wav,Pink_Noise_2_2.wav,,,,,,0,15,15,14,,,,,,,,,,,,,,,185.20619626704138,None,186.68982170103118,None,188.07306641398463,None,"dense
",188.07306641398463,None,return,11.501999891013838,188.15620190801565,None,,,,,,,21,001,2023_Feb_15_1614,SpeechDraft1Carolyn_lessNoise,2021.2.3,59.91548346827745,
fate.wav,fate.mpg,fate,6,AV,Pink_Noise_6_1.wav,Pink_Noise_6_2.wav,,,,,,0,16,16,97,,,,,,,,,,,,,,,199.68954364897218,None,201.17292474396527,None,202.55611080897506,None,fate,202.55611080897506,None,return,4.274628348997794,202.6395608939929,None,,,,,,,21,001,2023_Feb_15_1614,SpeechDraft1Carolyn_lessNoise,2021.2.3,59.91548346827745,
grass.wav,grass.mpg,grass,5,AV,Pink_Noise_5_1.wav,Pink_Noise_5_2.wav,,,,,,0,17,17,95,,,,,,,,,,,,,,,206.9397093160078,None,208.42301892105024,None,209.80634437396657,None,grass,209.80634437396657,None,return,3.4246821999549866,209.88956865202636,None,,,,,,,21,001,2023_Feb_15_1614,SpeechDraft1Carolyn_lessNoise,2021.2.3,59.91548346827745,
cope.wav,cope.mpg,cope,4,A,Pink_Noise_4_1.wav,Pink_Noise_4_2.wav,,,,,,0,18,18,28,,,,,,,,,,,,,,,213.3396317709703,None,214.83952073997352,None,216.20627246494405,None,hope,216.20627246494405,None,return,6.0966803160263225,216.28957509004977,None,,,,,,,21,001,2023_Feb_15_1614,SpeechDraft1Carolyn_lessNoise,2021.2.3,59.91548346827745,
clumps.wav,clumps.mpg,clumps,2,AV,Pink_Noise_2_1.wav,Pink_Noise_2_2.wav,,,,,,0,19,19,85,,,,,,,,,,,,,,,222.40662315301597,None,223.90624735003803,None,225.289516565972,None,"clumps
",225.289516565972,None,return,3.268834037007764,225.37335039896425,None,,,,,,,21,001,2023_Feb_15_1614,SpeechDraft1Carolyn_lessNoise,2021.2.3,59.91548346827745,
goal.wav,goal.mpg,goal,6,A,Pink_Noise_6_1.wav,Pink_Noise_6_2.wav,,,,,,0,20,20,55,,,,,,,,,,,,,,,228.67304868705105,None,230.15621767903212,None,231.53991642897017,None,call,231.53991642897017,None,return,5.243176426040009,231.62302016594913,None,,,,,,,21,001,2023_Feb_15_1614,SpeechDraft1Carolyn_lessNoise,2021.2.3,59.91548346827745,
crush.wav,crush.mpg,crush,3,AV,Pink_Noise_3_1.wav,Pink_Noise_3_2.wav,,,,,,0,21,21,113,,,,,,,,,,,,,,,236.88972323795315,None,238.37284353398718,None,239.75615727400873,None,crush,239.75615727400873,None,return,1.9066500230692327,239.8396764480276,None,,,,,,,21,001,2023_Feb_15_1614,SpeechDraft1Carolyn_lessNoise,2021.2.3,59.91548346827745,
pact.wav,pact.mpg,pact,2,AV,Pink_Noise_2_1.wav,Pink_Noise_2_2.wav,,,,,,0,22,22,119,,,,,,,,,,,,,,,241.77286026999354,None,243.25627869402524,None,244.63961634901352,None,pact,244.63961634901352,None,return,2.0153736430220306,244.72292082302738,None,,,,,,,21,001,2023_Feb_15_1614,SpeechDraft1Carolyn_lessNoise,2021.2.3,59.91548346827745,
cliff.wav,cliff.mpg,cliff,2,AV,Pink_Noise_2_1.wav,Pink_Noise_2_2.wav,,,,,,0,23,23,106,,,,,,,,,,,,,,,246.7566637210548,None,248.2398754049791,None,249.62293803296052,None,"cliff
",249.62293803296052,None,return,3.5838437030324712,249.7063651450444,None,,,,,,,21,001,2023_Feb_15_1614,SpeechDraft1Carolyn_lessNoise,2021.2.3,59.91548346827745,
rid.wav,rid.mpg,rid,4,AV,Pink_Noise_4_1.wav,Pink_Noise_4_2.wav,,,,,,0,24,24,61,,,,,,,,,,,,,,,253.32319187896792,None,254.80643439805135,None,256.189657676965,None,grid,256.189657676965,None,return,2.6893599280156195,256.27293326496147,None,,,,,,,21,001,2023_Feb_15_1614,SpeechDraft1Carolyn_lessNoise,2021.2.3,59.91548346827745,
dash.wav,dash.mpg,dash,1,AV,Pink_Noise_1_1.wav,Pink_Noise_1_2.wav,,,,,,0,25,25,110,,,,,,,,,,,,,,,258.9898790559964,None,260.47402406996116,None,261.8562386620324,None,dash,261.8562386620324,None,return,2.710501648951322,261.93967778701335,None,,,,,,,21,001,2023_Feb_15_1614,SpeechDraft1Carolyn_lessNoise,2021.2.3,59.91548346827745,
crew.wav,crew.mpg,crew,3,A,Pink_Noise_3_1.wav,Pink_Noise_3_2.wav,,,,,,0,26,26,10,,,,,,,,,,,,,,,264.67294812295586,None,266.157339788042,None,267.53979306295514,None,"cruise
",267.53979306295514,None,return,13.019204554031603,267.6229924740037,None,,,,,,,21,001,2023_Feb_15_1614,SpeechDraft1Carolyn_lessNoise,2021.2.3,59.91548346827745,
chord.wav,chord.mpg,chord,2,A,Pink_Noise_2_1.wav,Pink_Noise_2_2.wav,,,,,,0,27,27,7,,,,,,,,,,,,,,,280.67296213901136,None,282.15814591001254,None,283.5396609810414,None,cord,283.5396609810414,None,return,3.731139541021548,283.6231089220382,None,,,,,,,21,001,2023_Feb_15_1614,SpeechDraft1Carolyn_lessNoise,2021.2.3,59.91548346827745,
blood.wav,blood.mpg,blood,2,A,Pink_Noise_2_1.wav,Pink_Noise_2_2.wav,,,,,,0,28,28,43,,,,,,,,,,,,,,,287.37322841002606,None,288.8560521339532,None,290.239975732984,None,blood,290.239975732984,None,return,4.511072198976763,290.32310032099485,None,,,,,,,21,001,2023_Feb_15_1614,SpeechDraft1Carolyn_lessNoise,2021.2.3,59.91548346827745,
sue.wav,sue.mpg,sue,4,AV,Pink_Noise_4_1.wav,Pink_Noise_4_2.wav,,,,,,0,29,29,63,,,,,,,,,,,,,,,294.8566076590214,None,296.3564189230092,None,297.739709750982,None,sue,297.739709750982,None,return,1.986974389059469,297.8232270410517,None,,,,,,,21,001,2023_Feb_15_1614,SpeechDraft1Carolyn_lessNoise,2021.2.3,59.91548346827745,
deal.wav,deal.mpg,deal,2,A,Pink_Noise_2_1.wav,Pink_Noise_2_2.wav,,,,,,0,30,30,47,,,,,,,,,,,,,,,299.8396348670358,None,301.3232092510443,None,302.70640957402065,None,detail,302.70640957402065,None,return,2.2284505990101025,302.7897471940378,None,,,,,,,21,001,2023_Feb_15_1614,SpeechDraft1Carolyn_lessNoise,2021.2.3,59.91548346827745,
base.wav,base.mpg,base,4,AV,Pink_Noise_4_1.wav,Pink_Noise_4_2.wav,,,,,,0,31,31,108,,,,,,,,,,,,,,,305.03970052697696,None,306.5237346099457,None,307.9065161270555,None,bass,307.9065161270555,None,return,5.6764362410176545,307.989753294969,None,,,,,,,21,001,2023_Feb_15_1614,SpeechDraft1Carolyn_lessNoise,2021.2.3,59.91548346827745,
creek.wav,creek.mpg,creek,4,A,Pink_Noise_4_1.wav,Pink_Noise_4_2.wav,,,,,,0,32,32,32,,,,,,,,,,,,,,,313.6898341800552,None,315.18967484496534,None,316.57327838405035,None,freak,316.57327838405035,None,return,6.681657521985471,316.65660504996777,None,,,,,,,21,001,2023_Feb_15_1614,SpeechDraft1Carolyn_lessNoise,2021.2.3,59.91548346827745,
pipe.wav,pipe.mpg,pipe,4,A,Pink_Noise_4_1.wav,Pink_Noise_4_2.wav,,,,,,0,33,33,4,,,,,,,,,,,,,,,323.35639158193953,None,324.85637883399613,None,326.2396849700017,None,hike,326.2396849700017,None,return,4.830909484997392,326.32328896503896,None,,,,,,,21,001,2023_Feb_15_1614,SpeechDraft1Carolyn_lessNoise,2021.2.3,59.91548346827745,
crypt.wav,crypt.mpg,crypt,1,AV,Pink_Noise_1_1.wav,Pink_Noise_1_2.wav,,,,,,0,34,34,93,,,,,,,,,,,,,,,331.1733189160004,None,332.67313451401424,None,334.0568302560132,None,crypt,334.0568302560132,None,return,2.966656101983972,334.1396299819462,None,,,,,,,21,001,2023_Feb_15_1614,SpeechDraft1Carolyn_lessNoise,2021.2.3,59.91548346827745,
teen.wav,teen.mpg,teen,3,A,Pink_Noise_3_1.wav,Pink_Noise_3_2.wav,,,,,,0,35,35,45,,,,,,,,,,,,,,,337.1233967409935,None,338.6066778530367,None,339.9899835200049,None,teen,339.9899835200049,None,return,6.6247738969977945,340.0734196129488,None,,,,,,,21,001,2023_Feb_15_1614,SpeechDraft1Carolyn_lessNoise,2021.2.3,59.91548346827745,
mars.wav,mars.mpg,mars,1,A,Pink_Noise_1_1.wav,Pink_Noise_1_2.wav,,,,,,0,36,36,5,,,,,,,,,,,,,,,346.723037583055,None,348.2230654070154,None,349.6064390579704,None,mars,349.6064390579704,None,return,4.848570762900636,349.68970545299817,None,,,,,,,21,001,2023_Feb_15_1614,SpeechDraft1Carolyn_lessNoise,2021.2.3,59.91548346827745,
aunt.wav,aunt.mpg,aunt,2,A,Pink_Noise_2_1.wav,Pink_Noise_2_2.wav,,,,,,0,37,37,11,,,,,,,,,,,,,,,354.5564595409669,None,356.05643739399966,None,357.43977618101053,None,ought,357.43977618101053,None,return,5.607168728951365,357.5231264330214,None,,,,,,,21,001,2023_Feb_15_1614,SpeechDraft1Carolyn_lessNoise,2021.2.3,59.91548346827745,
drab.wav,drab.mpg,drab,1,AV,Pink_Noise_1_1.wav,Pink_Noise_1_2.wav,,,,,,0,38,38,117,,,,,,,,,,,,,,,363.1564117290545,None,364.6565426969901,None,366.03977035102434,None,drab,366.03977035102434,None,return,7.6071105799637735,366.12318248697557,None,,,,,,,21,001,2023_Feb_15_1614,SpeechDraft1Carolyn_lessNoise,2021.2.3,59.91548346827745,
drum.wav,drum.mpg,drum,2,AV,Pink_Noise_2_1.wav,Pink_Noise_2_2.wav,,,,,,0,39,39,80,,,,,,,,,,,,,,,373.75636790296994,None,375.25662118103355,None,376.62327786395326,None,drum,376.62327786395326,None,return,4.615750966942869,376.70652349398006,None,,,,,,,21,001,2023_Feb_15_1614,SpeechDraft1Carolyn_lessNoise,2021.2.3,59.91548346827745,
dim.wav,dim.mpg,dim,5,AV,Pink_Noise_5_1.wav,Pink_Noise_5_2.wav,,,,,,0,40,40,72,,,,,,,,,,,,,,,381.33984406501986,None,382.82324736204464,None,384.20648885995615,None,"dim
",384.20648885995615,None,return,5.5364048179471865,384.2897780430503,None,,,,,,,21,001,2023_Feb_15_1614,SpeechDraft1Carolyn_lessNoise,2021.2.3,59.91548346827745,
desk.wav,desk.mpg,desk,6,A,Pink_Noise_6_1.wav,Pink_Noise_6_2.wav,,,,,,0,41,41,30,,,,,,,,,,,,,,,389.85651359905023,None,391.3563798699761,None,392.739794729976,None,set,392.739794729976,None,return,7.38711561402306,392.8231318430044,None,,,,,,,21,001,2023_Feb_15_1614,SpeechDraft1Carolyn_lessNoise,2021.2.3,59.91548346827745,
beach.wav,beach.mpg,beach,6,AV,Pink_Noise_6_1.wav,Pink_Noise_6_2.wav,,,,,,0,42,42,62,,,,,,,,,,,,,,,400.2400732570095,None,401.7232567280298,None,403.10667303798255,None,"beach
",403.10667303798255,None,return,2.9001425929600373,403.19005975697655,None,,,,,,,21,001,2023_Feb_15_1614,SpeechDraft1Carolyn_lessNoise,2021.2.3,59.91548346827745,
bound.wav,bound.mpg,bound,1,AV,Pink_Noise_1_1.wav,Pink_Noise_1_2.wav,,,,,,0,43,43,112,,,,,,,,,,,,,,,406.1230897579808,None,407.60770366503857,None,408.98969283804763,None,bound,408.98969283804763,None,return,2.329055991023779,409.0731680779718,None,,,,,,,21,001,2023_Feb_15_1614,SpeechDraft1Carolyn_lessNoise,2021.2.3,59.91548346827745,
blunt.wav,blunt.mpg,blunt,5,A,Pink_Noise_5_1.wav,Pink_Noise_5_2.wav,,,,,,0,44,44,51,,,,,,,,,,,,,,,411.42311932402663,None,412.9233315939782,None,414.30672254704405,None,blunt,414.30672254704405,None,return,9.492283629951999,414.3899019890232,None,,,,,,,21,001,2023_Feb_15_1614,SpeechDraft1Carolyn_lessNoise,2021.2.3,59.91548346827745,
fish.wav,fish.mpg,fish,2,AV,Pink_Noise_2_1.wav,Pink_Noise_2_2.wav,,,,,,0,45,45,87,,,,,,,,,,,,,,,423.9063745869789,None,425.4065398189705,None,426.7900097130332,None,fish,426.7900097130332,None,return,6.80898241896648,426.87319966300856,None,,,,,,,21,001,2023_Feb_15_1614,SpeechDraft1Carolyn_lessNoise,2021.2.3,59.91548346827745,
cab.wav,cab.mpg,cab,3,AV,Pink_Noise_3_1.wav,Pink_Noise_3_2.wav,,,,,,0,46,46,92,,,,,,,,,,,,,,,433.706628298969,None,435.19001471297815,None,436.57351743103936,None,cab,436.57351743103936,None,return,11.225711483042687,436.6564839129569,None,,,,,,,21,001,2023_Feb_15_1614,SpeechDraft1Carolyn_lessNoise,2021.2.3,59.91548346827745,
bat.wav,bat.mpg,bat,5,AV,Pink_Noise_5_1.wav,Pink_Noise_5_2.wav,,,,,,0,47,47,118,,,,,,,,,,,,,,,447.90668988996185,None,449.40645842801314,None,450.7902818879811,None,bat,450.7902818879811,None,return,5.520696311024949,450.8734936330002,None,,,,,,,21,001,2023_Feb_15_1614,SpeechDraft1Carolyn_lessNoise,2021.2.3,59.91548346827745,
cease.wav,cease.mpg,cease,6,AV,Pink_Noise_6_1.wav,Pink_Noise_6_2.wav,,,,,,0,48,48,102,,,,,,,,,,,,,,,456.42324278503656,None,457.9076916939812,None,459.2900721250335,None,seize,459.2900721250335,None,return,8.996900600963272,459.3733939640224,None,,,,,,,21,001,2023_Feb_15_1614,SpeechDraft1Carolyn_lessNoise,2021.2.3,59.91548346827745,
clam.wav,clam.mpg,clam,1,A,Pink_Noise_1_1.wav,Pink_Noise_1_2.wav,,,,,,0,49,49,52,,,,,,,,,,,,,,,468.3899727399694,None,469.8898222029675,None,471.27358860604,None,"clam
",471.27358860604,None,return,1.8696486039552838,471.35655180295,None,,,,,,,21,001,2023_Feb_15_1614,SpeechDraft1Carolyn_lessNoise,2021.2.3,59.91548346827745,
bye.wav,bye.mpg,bye,1,AV,Pink_Noise_1_1.wav,Pink_Noise_1_2.wav,,,,,,0,50,50,71,,,,,,,,,,,,,,,473.2565666770097,None,474.7567582949996,None,476.13989034004044,None,bye,476.13989034004044,None,return,4.394506620941684,476.2236685330281,None,,,,,,,21,001,2023_Feb_15_1614,SpeechDraft1Carolyn_lessNoise,2021.2.3,59.91548346827745,
news.wav,news.mpg,news,1,A,Pink_Noise_1_1.wav,Pink_Noise_1_2.wav,,,,,,0,51,51,24,,,,,,,,,,,,,,,480.6403350660112,None,482.1399913439527,None,483.5234378579771,None,"news
",483.5234378579771,None,return,1.2356335549848154,483.6065894810017,None,,,,,,,21,001,2023_Feb_15_1614,SpeechDraft1Carolyn_lessNoise,2021.2.3,59.91548346827745,
bold.wav,bold.mpg,bold,1,A,Pink_Noise_1_1.wav,Pink_Noise_1_2.wav,,,,,,0,52,52,8,,,,,,,,,,,,,,,484.8732128420379,None,486.37348773004487,None,487.7568781829905,None,,487.7568781829905,None,return,0.22626322600990534,487.8399653839879,None,,,,,,,21,001,2023_Feb_15_1614,SpeechDraft1Carolyn_lessNoise,2021.2.3,59.91548346827745,
gaze.wav,gaze.mpg,gaze,4,A,Pink_Noise_4_1.wav,Pink_Noise_4_2.wav,,,,,,0,53,53,34,,,,,,,,,,,,,,,488.0901613760507,None,489.57305182900745,None,490.9569138130173,None,gaze,490.9569138130173,None,return,3.6980550390435383,491.0401472939411,None,,,,,,,21,001,2023_Feb_15_1614,SpeechDraft1Carolyn_lessNoise,2021.2.3,59.91548346827745,
glow.wav,glow.mpg,glow,3,AV,Pink_Noise_3_1.wav,Pink_Noise_3_2.wav,,,,,,0,54,54,90,,,,,,,,,,,,,,,494.75690626795404,None,496.24017059698235,None,497.6232773619704,None,glow,497.6232773619704,None,return,6.895574065041728,497.7066391259432,None,,,,,,,21,001,2023_Feb_15_1614,SpeechDraft1Carolyn_lessNoise,2021.2.3,59.91548346827745,
bathe.wav,bathe.mpg,bathe,6,A,Pink_Noise_6_1.wav,Pink_Noise_6_2.wav,,,,,,0,55,55,44,,,,,,,,,,,,,,,504.6235301659908,None,506.12333380803466,None,507.5065538500203,None,here,507.5065538500203,None,return,2.9083185440395027,507.5899945209967,None,,,,,,,21,001,2023_Feb_15_1614,SpeechDraft1Carolyn_lessNoise,2021.2.3,59.91548346827745,
roast.wav,roast.mpg,roast,5,AV,Pink_Noise_5_1.wav,Pink_Noise_5_2.wav,,,,,,0,56,56,73,,,,,,,,,,,,,,,510.52334078704007,None,512.0084656450199,None,513.390193394036,None,roast,513.390193394036,None,return,5.496728002093732,513.4735825189855,None,,,,,,,21,001,2023_Feb_15_1614,SpeechDraft1Carolyn_lessNoise,2021.2.3,59.91548346827745,
flask.wav,flask.mpg,flask,6,A,Pink_Noise_6_1.wav,Pink_Noise_6_2.wav,,,,,,0,57,57,48,,,,,,,,,,,,,,,518.9899925269419,None,520.4900218789699,None,521.8735083700158,None,spores,521.8735083700158,None,return,13.59747990500182,521.9567244410282,None,,,,,,,21,001,2023_Feb_15_1614,SpeechDraft1Carolyn_lessNoise,2021.2.3,59.91548346827745,
deck.wav,deck.mpg,deck,5,AV,Pink_Noise_5_1.wav,Pink_Noise_5_2.wav,,,,,,0,58,58,79,,,,,,,,,,,,,,,535.5733173330082,None,537.0732628429541,None,538.456827593036,None,deck,538.456827593036,None,return,3.1261830610455945,538.5399980630027,None,,,,,,,21,001,2023_Feb_15_1614,SpeechDraft1Carolyn_lessNoise,2021.2.3,59.91548346827745,
fade.wav,fade.mpg,fade,1,AV,Pink_Noise_1_1.wav,Pink_Noise_1_2.wav,,,,,,0,59,59,78,,,,,,,,,,,,,,,541.6903857389698,None,543.1752056790283,None,544.5567791280337,None,"fade
",544.5567791280337,None,return,3.1861131199402735,544.640088294982,None,,,,,,,21,001,2023_Feb_15_1614,SpeechDraft1Carolyn_lessNoise,2021.2.3,59.91548346827745,
gym.wav,gym.mpg,gym,6,AV,Pink_Noise_6_1.wav,Pink_Noise_6_2.wav,,,,,,0,60,60,96,,,,,,,,,,,,,,,547.8568641579477,None,549.35658104904,None,550.7232907200232,None,gym,550.7232907200232,None,return,8.003402213100344,550.8068004730158,None,,,,,,,21,001,2023_Feb_15_1614,SpeechDraft1Carolyn_lessNoise,2021.2.3,59.91548346827745,
dust.wav,dust.mpg,dust,4,AV,Pink_Noise_4_1.wav,Pink_Noise_4_2.wav,,,,,,0,61,61,107,,,,,,,,,,,,,,,558.840069642989,None,560.3241312650498,None,561.7066993350163,None,dust,561.7066993350163,None,return,2.2201923000393435,561.7900102610001,None,,,,,,,21,001,2023_Feb_15_1614,SpeechDraft1Carolyn_lessNoise,2021.2.3,59.91548346827745,
grown.wav,grown.mpg,grown,4,A,Pink_Noise_4_1.wav,Pink_Noise_4_2.wav,,,,,,0,62,62,59,,,,,,,,,,,,,,,564.0402120749932,None,565.5401298450306,None,566.923339519999,None,grow,566.923339519999,None,return,1.7713155680103227,567.0069820999634,None,,,,,,,21,001,2023_Feb_15_1614,SpeechDraft1Carolyn_lessNoise,2021.2.3,59.91548346827745,
crate.wav,crate.mpg,crate,1,AV,Pink_Noise_1_1.wav,Pink_Noise_1_2.wav,,,,,,0,63,63,88,,,,,,,,,,,,,,,568.8070214629406,None,570.290004317998,None,571.673305433942,None,"crate
",571.673305433942,None,return,8.285504797007889,571.7566920300014,None,,,,,,,21,001,2023_Feb_15_1614,SpeechDraft1Carolyn_lessNoise,2021.2.3,59.91548346827745,
hug.wav,hug.mpg,hug,2,AV,Pink_Noise_2_1.wav,Pink_Noise_2_2.wav,,,,,,0,64,64,100,,,,,,,,,,,,,,,580.0734886199934,None,581.573441916029,None,582.9568781410344,None,hug,582.9568781410344,None,return,4.753882677992806,583.0403053050395,None,,,,,,,21,001,2023_Feb_15_1614,SpeechDraft1Carolyn_lessNoise,2021.2.3,59.91548346827745,
layer.wav,layer.mpg,layer,4,AV,Pink_Noise_4_1.wav,Pink_Noise_4_2.wav,,,,,,0,65,65,76,,,,,,,,,,,,,,,587.8234740919434,None,589.3235837679822,None,590.7068568159593,None,layer,590.7068568159593,None,return,3.348105564014986,590.7901010509813,None,,,,,,,21,001,2023_Feb_15_1614,SpeechDraft1Carolyn_lessNoise,2021.2.3,59.91548346827745,
deem.wav,deem.mpg,deem,6,A,Pink_Noise_6_1.wav,Pink_Noise_6_2.wav,,,,,,0,66,66,38,,,,,,,,,,,,,,,594.1567704300396,None,595.6567925469717,None,597.0401760089444,None,take,597.0401760089444,None,return,9.974774339003488,597.1234029809712,None,,,,,,,21,001,2023_Feb_15_1614,SpeechDraft1Carolyn_lessNoise,2021.2.3,59.91548346827745,
cold.wav,cold.mpg,cold,2,A,Pink_Noise_2_1.wav,Pink_Noise_2_2.wav,,,,,,0,67,67,19,,,,,,,,,,,,,,,607.1234907869948,None,608.6400242700474,None,610.007098419941,None,cold,610.007098419941,None,return,3.832266611047089,610.0900389249437,None,,,,,,,21,001,2023_Feb_15_1614,SpeechDraft1Carolyn_lessNoise,2021.2.3,59.91548346827745,
fault.wav,fault.mpg,fault,2,A,Pink_Noise_2_1.wav,Pink_Noise_2_2.wav,,,,,,0,68,68,2,,,,,,,,,,,,,,,613.940174145042,None,615.4415028300136,None,616.8236856509466,None,fault,616.8236856509466,None,return,7.087192910024896,616.9069973709993,None,,,,,,,21,001,2023_Feb_15_1614,SpeechDraft1Carolyn_lessNoise,2021.2.3,59.91548346827745,
dress.wav,dress.mpg,dress,3,AV,Pink_Noise_3_1.wav,Pink_Noise_3_2.wav,,,,,,0,69,69,70,,,,,,,,,,,,,,,624.0236565639498,None,625.5232693339931,None,626.9067865960533,None,dress,626.9067865960533,None,return,2.204079603892751,626.9901237329468,None,,,,,,,21,001,2023_Feb_15_1614,SpeechDraft1Carolyn_lessNoise,2021.2.3,59.91548346827745,
ball.wav,ball.mpg,ball,5,AV,Pink_Noise_5_1.wav,Pink_Noise_5_2.wav,,,,,,0,70,70,109,,,,,,,,,,,,,,,629.22343257803,None,630.7400833170395,None,632.1067988859722,None," ball
",632.1067988859722,None,return,7.419927190057933,632.1902605419746,None,,,,,,,21,001,2023_Feb_15_1614,SpeechDraft1Carolyn_lessNoise,2021.2.3,59.91548346827745,
thief.wav,thief.mpg,thief,5,AV,Pink_Noise_5_1.wav,Pink_Noise_5_2.wav,,,,,,0,71,71,74,,,,,,,,,,,,,,,639.6402592509985,None,641.1567225280451,None,642.5401127960067,None,"theif
",642.5401127960067,None,return,7.25054216501303,642.6236500500236,None,,,,,,,21,001,2023_Feb_15_1614,SpeechDraft1Carolyn_lessNoise,2021.2.3,59.91548346827745,
gut.wav,gut.mpg,gut,4,AV,Pink_Noise_4_1.wav,Pink_Noise_4_2.wav,,,,,,0,72,72,116,,,,,,,,,,,,,,,649.9069078529719,None,651.4068891699426,None,652.7732922380092,None,gut,652.7732922380092,None,return,3.6491187469800934,652.8571367410477,None,,,,,,,21,001,2023_Feb_15_1614,SpeechDraft1Carolyn_lessNoise,2021.2.3,59.91548346827745,
cross.wav,cross.mpg,cross,1,AV,Pink_Noise_1_1.wav,Pink_Noise_1_2.wav,,,,,,0,73,73,105,,,,,,,,,,,,,,,656.5234768269584,None,658.0235233959975,None,659.4069290229818,None,cross,659.4069290229818,None,return,5.39194545999635,659.4902418090496,None,,,,,,,21,001,2023_Feb_15_1614,SpeechDraft1Carolyn_lessNoise,2021.2.3,59.91548346827745,
grind.wav,grind.mpg,grind,2,A,Pink_Noise_2_1.wav,Pink_Noise_2_2.wav,,,,,,0,74,74,22,,,,,,,,,,,,,,,664.9070409210399,None,666.4071642160416,None,667.7903001019731,None,grind,667.7903001019731,None,return,3.728660352062434,667.8735489989631,None,,,,,,,21,001,2023_Feb_15_1614,SpeechDraft1Carolyn_lessNoise,2021.2.3,59.91548346827745,
chop.wav,chop.mpg,chop,6,A,Pink_Noise_6_1.wav,Pink_Noise_6_2.wav,,,,,,0,75,75,0,,,,,,,,,,,,,,,671.6235855070408,None,673.1402880590176,None,674.5069060960086,None,child,674.5069060960086,None,return,3.4438734609866515,674.5903050970519,None,,,,,,,21,001,2023_Feb_15_1614,SpeechDraft1Carolyn_lessNoise,2021.2.3,59.91548346827745,
file.wav,file.mpg,file,5,A,Pink_Noise_5_1.wav,Pink_Noise_5_2.wav,,,,,,0,76,76,26,,,,,,,,,,,,,,,678.057104483014,None,679.5568156640511,None,680.9234715859639,None,fire,680.9234715859639,None,return,3.379324574023485,681.0069326340454,None,,,,,,,21,001,2023_Feb_15_1614,SpeechDraft1Carolyn_lessNoise,2021.2.3,59.91548346827745,
guest.wav,guest.mpg,guest,4,AV,Pink_Noise_4_1.wav,Pink_Noise_4_2.wav,,,,,,0,77,77,111,,,,,,,,,,,,,,,684.4069965200033,None,685.9235468320549,None,687.3068598050158,None,"guest
",687.3068598050158,None,return,6.083949881023727,687.390250809025,None,,,,,,,21,001,2023_Feb_15_1614,SpeechDraft1Carolyn_lessNoise,2021.2.3,59.91548346827745,
broke.wav,broke.mpg,broke,3,AV,Pink_Noise_3_1.wav,Pink_Noise_3_2.wav,,,,,,0,78,78,99,,,,,,,,,,,,,,,693.5068420630414,None,695.0079936609836,None,696.3902883679839,None,broke,696.3902883679839,None,return,5.832592056016438,696.4736592719564,None,,,,,,,21,001,2023_Feb_15_1614,SpeechDraft1Carolyn_lessNoise,2021.2.3,59.91548346827745,
flesh.wav,flesh.mpg,flesh,5,A,Pink_Noise_5_1.wav,Pink_Noise_5_2.wav,,,,,,0,79,79,46,,,,,,,,,,,,,,,702.3235561989713,None,703.807685540989,None,705.1903187299613,None,crush,705.1903187299613,None,return,8.504759347997606,705.2736064930214,None,,,,,,,21,001,2023_Feb_15_1614,SpeechDraft1Carolyn_lessNoise,2021.2.3,59.91548346827745,
swayed.wav,swayed.mpg,swayed,3,A,Pink_Noise_3_1.wav,Pink_Noise_3_2.wav,,,,,,0,80,80,49,,,,,,,,,,,,,,,713.8070967230015,None,715.3069721079664,None,716.6902413689531,None,suede,716.6902413689531,None,return,3.564470615936443,716.7737317390274,None,,,,,,,21,001,2023_Feb_15_1614,SpeechDraft1Carolyn_lessNoise,2021.2.3,59.91548346827745,
cry.wav,cry.mpg,cry,5,A,Pink_Noise_5_1.wav,Pink_Noise_5_2.wav,,,,,,0,81,81,41,,,,,,,,,,,,,,,720.357041117968,None,721.873462129035,None,723.2406088069547,None,craft,723.2406088069547,None,return,5.406369523028843,723.3238935290137,None,,,,,,,21,001,2023_Feb_15_1614,SpeechDraft1Carolyn_lessNoise,2021.2.3,59.91548346827745,
earth.wav,earth.mpg,earth,4,A,Pink_Noise_4_1.wav,Pink_Noise_4_2.wav,,,,,,0,82,82,17,,,,,,,,,,,,,,,728.7568352690432,None,730.256852785009,None,731.6404025560478,None,eartj,731.6404025560478,None,return,1.8226983880158514,731.7236111520324,None,,,,,,,21,001,2023_Feb_15_1614,SpeechDraft1Carolyn_lessNoise,2021.2.3,59.91548346827745,
gap.wav,gap.mpg,gap,6,A,Pink_Noise_6_1.wav,Pink_Noise_6_2.wav,,,,,,0,83,83,42,,,,,,,,,,,,,,,733.573647903977,None,735.106872363016,None,736.4905281709507,None,guess,736.4905281709507,None,return,3.996602192055434,736.5737286750227,None,,,,,,,21,001,2023_Feb_15_1614,SpeechDraft1Carolyn_lessNoise,2021.2.3,59.91548346827745,
bless.wav,bless.mpg,bless,5,A,Pink_Noise_5_1.wav,Pink_Noise_5_2.wav,,,,,,0,84,84,20,,,,,,,,,,,,,,,740.5902886940166,None,742.0745387739735,None,743.4570311789867,None,dress,743.4570311789867,None,return,1.581988753983751,743.5402839200106,None,,,,,,,21,001,2023_Feb_15_1614,SpeechDraft1Carolyn_lessNoise,2021.2.3,59.91548346827745,
germ.wav,germ.mpg,germ,2,A,Pink_Noise_2_1.wav,Pink_Noise_2_2.wav,,,,,,0,85,85,21,,,,,,,,,,,,,,,745.1403528699884,None,746.6403906090418,None,748.0235648290254,None,germ,748.0235648290254,None,return,6.983167023980059,748.1070668819593,None,,,,,,,21,001,2023_Feb_15_1614,SpeechDraft1Carolyn_lessNoise,2021.2.3,59.91548346827745,
chick.wav,chick.mpg,chick,3,A,Pink_Noise_3_1.wav,Pink_Noise_3_2.wav,,,,,,0,86,86,33,,,,,,,,,,,,,,,755.1069815410301,None,756.6068321110215,None,757.9904468359891,None,chick,757.9904468359891,None,return,2.1764583740150556,758.0737299210159,None,,,,,,,21,001,2023_Feb_15_1614,SpeechDraft1Carolyn_lessNoise,2021.2.3,59.91548346827745,
drag.wav,drag.mpg,drag,1,A,Pink_Noise_1_1.wav,Pink_Noise_1_2.wav,,,,,,0,87,87,13,,,,,,,,,,,,,,,760.273591656005,None,761.7736415599938,None,763.1569898959715,None,drag,763.1569898959715,None,return,5.8577785399975255,763.2404146220069,None,,,,,,,21,001,2023_Feb_15_1614,SpeechDraft1Carolyn_lessNoise,2021.2.3,59.91548346827745,
feast.wav,feast.mpg,feast,4,AV,Pink_Noise_4_1.wav,Pink_Noise_4_2.wav,,,,,,0,88,88,69,,,,,,,,,,,,,,,769.1237096090335,None,770.6235270439647,None,772.0071050500264,None,feast,772.0071050500264,None,return,4.863731389050372,772.0905208309414,None,,,,,,,21,001,2023_Feb_15_1614,SpeechDraft1Carolyn_lessNoise,2021.2.3,59.91548346827745,
grave.wav,grave.mpg,grave,2,AV,Pink_Noise_2_1.wav,Pink_Noise_2_2.wav,,,,,,0,89,89,101,,,,,,,,,,,,,,,776.9737632370088,None,778.4903603720013,None,779.8738274129573,None,grave,779.8738274129573,None,return,3.965277135022916,779.9569873779546,None,,,,,,,21,001,2023_Feb_15_1614,SpeechDraft1Carolyn_lessNoise,2021.2.3,59.91548346827745,
beard.wav,beard.mpg,beard,3,A,Pink_Noise_3_1.wav,Pink_Noise_3_2.wav,,,,,,0,90,90,57,,,,,,,,,,,,,,,783.9404357869644,None,785.4569539220538,None,786.8404054880375,None,feared,786.8404054880375,None,return,4.390320995007642,786.923955939943,None,,,,,,,21,001,2023_Feb_15_1614,SpeechDraft1Carolyn_lessNoise,2021.2.3,59.91548346827745,
drunk.wav,drunk.mpg,drunk,1,A,Pink_Noise_1_1.wav,Pink_Noise_1_2.wav,,,,,,0,91,91,31,,,,,,,,,,,,,,,791.3403443719726,None,792.8571571250213,None,794.2405803219881,None,drunk,794.2405803219881,None,return,12.230555091053247,794.3237431260059,None,,,,,,,21,001,2023_Feb_15_1614,SpeechDraft1Carolyn_lessNoise,2021.2.3,59.91548346827745,
fun.wav,fun.mpg,fun,5,A,Pink_Noise_5_1.wav,Pink_Noise_5_2.wav,,,,,,0,92,92,56,,,,,,,,,,,,,,,806.5737602630397,None,808.073727334966,None,809.4569925830001,None,club,809.4569925830001,None,return,6.58977513096761,809.5404474339448,None,,,,,,,21,001,2023_Feb_15_1614,SpeechDraft1Carolyn_lessNoise,2021.2.3,59.91548346827745,
blow.wav,blow.mpg,blow,3,A,Pink_Noise_3_1.wav,Pink_Noise_3_2.wav,,,,,,0,93,93,23,,,,,,,,,,,,,,,816.1572028449737,None,817.6737589329714,None,819.0573751929915,None,flow,819.0573751929915,None,return,4.6378298529889435,819.1403783590067,None,,,,,,,21,001,2023_Feb_15_1614,SpeechDraft1Carolyn_lessNoise,2021.2.3,59.91548346827745,
pop.wav,pop.mpg,pop,5,A,Pink_Noise_5_1.wav,Pink_Noise_5_2.wav,,,,,,0,94,94,39,,,,,,,,,,,,,,,823.807209698949,None,825.3234607039485,None,826.7074587499956,None,hot,826.7074587499956,None,return,3.50787247705739,826.7903510209871,None,,,,,,,21,001,2023_Feb_15_1614,SpeechDraft1Carolyn_lessNoise,2021.2.3,59.91548346827745,
built.wav,built.mpg,built,6,A,Pink_Noise_6_1.wav,Pink_Noise_6_2.wav,,,,,,0,95,95,12,,,,,,,,,,,,,,,830.3237701599719,None,831.8403904560255,None,833.2239596570143,None,dance,833.2239596570143,None,return,2.7431051060557365,833.3070920190075,None,,,,,,,21,001,2023_Feb_15_1614,SpeechDraft1Carolyn_lessNoise,2021.2.3,59.91548346827745,
eight.wav,eight.mpg,eight,5,AV,Pink_Noise_5_1.wav,Pink_Noise_5_2.wav,,,,,,0,96,96,68,,,,,,,,,,,,,,,836.0742470549885,None,837.5739993200405,None,838.9573119350243,None,eight,838.9573119350243,None,return,6.577823149040341,839.0404247370316,None,,,,,,,21,001,2023_Feb_15_1614,SpeechDraft1Carolyn_lessNoise,2021.2.3,59.91548346827745,
shock.wav,shock.mpg,shock,5,A,Pink_Noise_5_1.wav,Pink_Noise_5_2.wav,,,,,,0,97,97,53,,,,,,,,,,,,,,,845.6404474000446,None,847.1409239630448,None,848.5238872279879,None,shot,848.5238872279879,None,return,4.699145506951027,848.6070990989683,None,,,,,,,21,001,2023_Feb_15_1614,SpeechDraft1Carolyn_lessNoise,2021.2.3,59.91548346827745,
coil.wav,coil.mpg,coil,4,A,Pink_Noise_4_1.wav,Pink_Noise_4_2.wav,,,,,,0,98,98,40,,,,,,,,,,,,,,,853.3239194749622,None,854.8401657480281,None,856.2240936879534,None,"queen
",856.2240936879534,None,return,5.319093264988624,856.3070985439699,None,,,,,,,21,001,2023_Feb_15_1614,SpeechDraft1Carolyn_lessNoise,2021.2.3,59.91548346827745,
flow.wav,flow.mpg,flow,3,A,Pink_Noise_3_1.wav,Pink_Noise_3_2.wav,,,,,,0,99,99,36,,,,,,,,,,,,,,,861.657273155055,None,863.1570215530228,None,864.5404789559543,None,slowed,864.5404789559543,None,return,3.314433400053531,864.6237748929998,None,,,,,,,21,001,2023_Feb_15_1614,SpeechDraft1Carolyn_lessNoise,2021.2.3,59.91548346827745,
gram.wav,gram.mpg,gram,5,AV,Pink_Noise_5_1.wav,Pink_Noise_5_2.wav,,,,,,0,100,100,84,,,,,,,,,,,,,,,867.9573397779604,None,869.4573708829703,None,870.8405806670198,None,grim,870.8405806670198,None,return,5.8383999249199405,870.9238608590094,None,,,,,,,21,001,2023_Feb_15_1614,SpeechDraft1Carolyn_lessNoise,2021.2.3,59.91548346827745,
broom.wav,broom.mpg,broom,2,A,Pink_Noise_2_1.wav,Pink_Noise_2_2.wav,,,,,,0,101,101,15,,,,,,,,,,,,,,,876.7906332199927,None,878.3069973080419,None,879.6905338269426,None,broom,879.6905338269426,None,return,2.3804996580583975,879.7737651789794,None,,,,,,,21,001,2023_Feb_15_1614,SpeechDraft1Carolyn_lessNoise,2021.2.3,59.91548346827745,
ditch.wav,ditch.mpg,ditch,3,AV,Pink_Noise_3_1.wav,Pink_Noise_3_2.wav,,,,,,0,102,102,65,,,,,,,,,,,,,,,882.1738650749903,None,883.6737870420329,None,885.0570759320399,None,ditch,885.0570759320399,None,return,1.7817406700924039,885.1405126459431,None,,,,,,,21,001,2023_Feb_15_1614,SpeechDraft1Carolyn_lessNoise,2021.2.3,59.91548346827745,
truck.wav,truck.mpg,truck,3,A,Pink_Noise_3_1.wav,Pink_Noise_3_2.wav,,,,,,0,103,103,25,,,,,,,,,,,,,,,886.9407069929875,None,888.4573332939763,None,889.8405668840278,None,truck,889.8405668840278,None,return,6.069988520932384,889.9242026649881,None,,,,,,,21,001,2023_Feb_15_1614,SpeechDraft1Carolyn_lessNoise,2021.2.3,59.91548346827745,
chalk.wav,chalk.mpg,chalk,4,A,Pink_Noise_4_1.wav,Pink_Noise_4_2.wav,,,,,,0,104,104,50,,,,,,,,,,,,,,,896.0240549349692,None,897.5407087770291,None,898.9238288709894,None,chalk,898.9238288709894,None,return,2.3549092389876023,899.0073705899995,None,,,,,,,21,001,2023_Feb_15_1614,SpeechDraft1Carolyn_lessNoise,2021.2.3,59.91548346827745,
bath.wav,bath.mpg,bath,2,AV,Pink_Noise_2_1.wav,Pink_Noise_2_2.wav,,,,,,0,105,105,115,,,,,,,,,,,,,,,901.390696009039,None,902.89046190097,None,904.2737275869586,None,bath,904.2737275869586,None,return,2.908781745005399,904.357404105016,None,,,,,,,21,001,2023_Feb_15_1614,SpeechDraft1Carolyn_lessNoise,2021.2.3,59.91548346827745,
bridge.wav,bridge.mpg,bridge,6,AV,Pink_Noise_6_1.wav,Pink_Noise_6_2.wav,,,,,,0,106,106,66,,,,,,,,,,,,,,,907.2905342340237,None,908.7908112730365,None,910.1572854960104,None,bridge,910.1572854960104,None,return,10.065781294950284,910.2404931370402,None,,,,,,,21,001,2023_Feb_15_1614,SpeechDraft1Carolyn_lessNoise,2021.2.3,59.91548346827745,
bruise.wav,bruise.mpg,bruise,2,AV,Pink_Noise_2_1.wav,Pink_Noise_2_2.wav,,,,,,0,107,107,83,,,,,,,,,,,,,,,920.3240496839862,None,921.8238313209731,None,923.2072020119522,None,bruise,923.2072020119522,None,return,3.231677097035572,923.2905836889986,None,,,,,,,21,001,2023_Feb_15_1614,SpeechDraft1Carolyn_lessNoise,2021.2.3,59.91548346827745,
bias.wav,bias.mpg,bias,6,AV,Pink_Noise_6_1.wav,Pink_Noise_6_2.wav,,,,,,0,108,108,94,,,,,,,,,,,,,,,926.5406426539412,None,928.0737859170185,None,929.4574464770267,None,bias,929.4574464770267,None,return,1.6456494049634784,929.5405508920085,None,,,,,,,21,001,2023_Feb_15_1614,SpeechDraft1Carolyn_lessNoise,2021.2.3,59.91548346827745,
smack.wav,smack.mpg,smack,3,AV,Pink_Noise_3_1.wav,Pink_Noise_3_2.wav,,,,,,0,109,109,114,,,,,,,,,,,,,,,931.207320356043,None,932.7238438880304,None,934.1076601130189,None,"smack
",934.1076601130189,None,return,6.451666975044645,934.1905242089415,None,,,,,,,21,001,2023_Feb_15_1614,SpeechDraft1Carolyn_lessNoise,2021.2.3,59.91548346827745,
fuss.wav,fuss.mpg,fuss,1,A,Pink_Noise_1_1.wav,Pink_Noise_1_2.wav,,,,,,0,110,110,6,,,,,,,,,,,,,,,940.6741194420028,None,942.1903338549891,None,943.5572448479943,None,"fussed
",943.5572448479943,None,return,8.9536202698946,943.6405777989421,None,,,,,,,21,001,2023_Feb_15_1614,SpeechDraft1Carolyn_lessNoise,2021.2.3,59.91548346827745,
gross.wav,gross.mpg,gross,1,AV,Pink_Noise_1_1.wav,Pink_Noise_1_2.wav,,,,,,0,111,111,75,,,,,,,,,,,,,,,952.6238666550489,None,954.1407577949576,None,955.5238607219653,None,gross,955.5238607219653,None,return,1.3062629910418764,955.6079813520191,None,,,,,,,21,001,2023_Feb_15_1614,SpeechDraft1Carolyn_lessNoise,2021.2.3,59.91548346827745,
cup.wav,cup.mpg,cup,6,AV,Pink_Noise_6_1.wav,Pink_Noise_6_2.wav,,,,,,0,112,112,91,,,,,,,,,,,,,,,956.940661102999,None,958.4406012609834,None,959.8242089980049,None,come,959.8242089980049,None,return,3.0068009099923074,959.9074508149642,None,,,,,,,21,001,2023_Feb_15_1614,SpeechDraft1Carolyn_lessNoise,2021.2.3,59.91548346827745,
budge.wav,budge.mpg,budge,1,A,Pink_Noise_1_1.wav,Pink_Noise_1_2.wav,,,,,,0,113,113,3,,,,,,,,,,,,,,,962.9408191120019,None,964.4575376180001,None,965.8405059890356,None,fudge,965.8405059890356,None,return,6.758099801023491,965.9241070949938,None,,,,,,,21,001,2023_Feb_15_1614,SpeechDraft1Carolyn_lessNoise,2021.2.3,59.91548346827745,
gang.wav,gang.mpg,gang,3,A,Pink_Noise_3_1.wav,Pink_Noise_3_2.wav,,,,,,0,114,114,9,,,,,,,,,,,,,,,972.7073070650222,None,974.2071598949842,None,975.5908221789869,None,gang,975.5908221789869,None,return,2.944173719966784,975.674000679981,None,,,,,,,21,001,2023_Feb_15_1614,SpeechDraft1Carolyn_lessNoise,2021.2.3,59.91548346827745,
fond.wav,fond.mpg,fond,4,A,Pink_Noise_4_1.wav,Pink_Noise_4_2.wav,,,,,,0,115,115,37,,,,,,,,,,,,,,,978.640628942987,None,980.1738128860015,None,981.5572795120534,None,quiet,981.5572795120534,None,return,29.577471208991483,981.6407236480154,None,,,,,,,21,001,2023_Feb_15_1614,SpeechDraft1Carolyn_lessNoise,2021.2.3,59.91548346827745,
frost.wav,frost.mpg,frost,5,AV,Pink_Noise_5_1.wav,Pink_Noise_5_2.wav,,,,,,0,116,116,67,,,,,,,,,,,,,,,1011.2410611369414,None,1012.7406429139664,None,1014.1243282560026,None,frost,1014.1243282560026,None,return,4.794722180929966,1014.207490731962,None,,,,,,,21,001,2023_Feb_15_1614,SpeechDraft1Carolyn_lessNoise,2021.2.3,59.91548346827745,
fuel.wav,fuel.mpg,fuel,4,AV,Pink_Noise_4_1.wav,Pink_Noise_4_2.wav,,,,,,0,117,117,89,,,,,,,,,,,,,,,1019.0243157900404,None,1020.523874290986,None,1021.9072509530233,None,fuel,1021.9072509530233,None,return,2.547527190996334,1021.9907034590142,None,,,,,,,21,001,2023_Feb_15_1614,SpeechDraft1Carolyn_lessNoise,2021.2.3,59.91548346827745,
crank.wav,crank.mpg,crank,6,AV,Pink_Noise_6_1.wav,Pink_Noise_6_2.wav,,,,,,0,118,118,82,,,,,,,,,,,,,,,1024.5572589680087,None,1026.0571348449448,None,1027.4240354290232,None,crack,1027.4240354290232,None,return,8.014916223008186,1027.5072887809947,None,,,,,,,21,001,2023_Feb_15_1614,SpeechDraft1Carolyn_lessNoise,2021.2.3,59.91548346827745,
book.wav,book.mpg,book,6,A,Pink_Noise_6_1.wav,Pink_Noise_6_2.wav,,,,,,0,119,119,29,,,,,,,,,,,,,,,1035.5407454039669,None,1037.05737181101,None,1038.440980704967,None,book,1038.440980704967,None,return,1.3579809040529653,1038.5241956410464,None,,,,,,,21,001,2023_Feb_15_1614,SpeechDraft1Carolyn_lessNoise,2021.2.3,59.91548346827745,
