Audio_Only_Files,Video_Files,Original_Word_List,noiseLevelCode,conditionCodes,noiseLevelFile1,noiseLevelFile2,InstrTextVar,practiceTrials.thisRepN,practiceTrials.thisTrialN,practiceTrials.thisN,practiceTrials.thisIndex,trials.thisRepN,trials.thisTrialN,trials.thisN,trials.thisIndex,letsGoAlready.keys,letsGoAlready.rt,letsGoAlready.started,letsGoAlready.stopped,text_2.started,text_2.stopped,text_3.started,text_3.stopped,key_resp_2.keys,key_resp_2.rt,key_resp_2.started,key_resp_2.stopped,text_5.started,text_5.stopped,fixCross.started,fixCross.stopped,fixCross2.started,fixCross2.stopped,answerPrompt.started,answerPrompt.stopped,getAnswer.text,getAnswer.started,getAnswer.stopped,goToNext.keys,goToNext.rt,goToNext.started,goToNext.stopped,stretchBreakTxrt.started,stretchBreakTxrt.stopped,key_resp_3.keys,key_resp_3.rt,key_resp_3.started,key_resp_3.stopped,participant,session,date,expName,psychopyVersion,frameRate,
,,,,,,,,,,,,,,,,space,0.42907449696213007,1052.5594546229113,None,,,,,,,,,,,,,,,,,,,,,,,,,,,,,,22,001,2023_Feb_15_2005,SpeechDraft1Carolyn_lessNoise,2021.2.3,59.87130756119518,
,,,,,,,,,,,,,,,,,,,,1052.5594546229113,None,1053.010302655981,None,space,0.6516903239535168,1053.19283399696,None,,,,,,,,,,,,,,,,,,,,,,22,001,2023_Feb_15_2005,SpeechDraft1Carolyn_lessNoise,2021.2.3,59.87130756119518,
ash.wav,ash.mpg,ash,1,A,Pink_Noise_1_1.wav,Pink_Noise_1_2.wav,"This is an example of an

AUDIO trial",0,0,0,0,,,,,,,,,,,,,,,,,1053.9092975299573,None,1054.8928175359033,None,1056.9755267549772,None,1058.3603005859768,None,ash,1058.3603005859768,None,return,11.441843273001723,1058.442649087985,None,,,,,,,22,001,2023_Feb_15_2005,SpeechDraft1Carolyn_lessNoise,2021.2.3,59.87130756119518,
ash.wav,ash.mpg,ash,1,AV,Pink_Noise_1_1.wav,Pink_Noise_1_2.wav,"This is an example of an

AUDIO + VIDEO  trial",0,1,1,1,,,,,,,,,,,,,,,,,1069.925650271005,None,1070.9258931619115,None,1072.408950805897,None,1073.7925563639728,None,ash,1073.7925563639728,None,return,20.92857362900395,1073.8759270790033,None,,,,,,,22,001,2023_Feb_15_2005,SpeechDraft1Carolyn_lessNoise,2021.2.3,59.87130756119518,
,,,,,,,,,,,,,,,,,,,,,,,,,,,,,,,,,,,,,,,,,,,1094.859034178895,None,space,6.921938644954935,1095.0425893679494,None,22,001,2023_Feb_15_2005,SpeechDraft1Carolyn_lessNoise,2021.2.3,59.87130756119518,
guilt.wav,guilt.mpg,guilt,5,AV,Pink_Noise_5_1.wav,Pink_Noise_5_2.wav,,,,,,0,0,0,67,,,,,,,,,,,,,,,1102.0257858060068,None,1103.509027650929,None,1104.8759448688943,None,guilt,1104.8759448688943,None,return,2.7332040750188753,1104.9593225319404,None,,,,,,,22,001,2023_Feb_15_2005,SpeechDraft1Carolyn_lessNoise,2021.2.3,59.87130756119518,
wild.wav,wild.mpg,wild,3,AV,Pink_Noise_3_1.wav,Pink_Noise_3_2.wav,,,,,,0,1,1,79,,,,,,,,,,,,,,,1107.709345193929,None,1109.2090258339886,None,1110.575933074928,None,wild,1110.575933074928,None,return,1.6653259600279853,1110.659272752935,None,,,,,,,22,001,2023_Feb_15_2005,SpeechDraft1Carolyn_lessNoise,2021.2.3,59.87130756119518,
fad.wav,fad.mpg,fad,4,AV,Pink_Noise_4_1.wav,Pink_Noise_4_2.wav,,,,,,0,2,2,95,,,,,,,,,,,,,,,1112.3426422699122,None,1113.842432849924,None,1115.2092514669057,None,"fly
",1115.2092514669057,None,return,4.151898671989329,1115.2925869158935,None,,,,,,,22,001,2023_Feb_15_2005,SpeechDraft1Carolyn_lessNoise,2021.2.3,59.87130756119518,
unit.wav,unit.mpg,unit,6,AV,Pink_Noise_6_1.wav,Pink_Noise_6_2.wav,,,,,,0,3,3,92,,,,,,,,,,,,,,,1119.47594355396,None,1120.9595734609757,None,1122.3426253990037,None,sweet,1122.3426253990037,None,return,3.3220336969243363,1122.4265152330045,None,,,,,,,22,001,2023_Feb_15_2005,SpeechDraft1Carolyn_lessNoise,2021.2.3,59.87130756119518,
cord.wav,cord.mpg,cord,3,AV,Pink_Noise_3_1.wav,Pink_Noise_3_2.wav,,,,,,0,4,4,68,,,,,,,,,,,,,,,1125.7760184349027,None,1127.2757510169176,None,1128.6426884259563,None,cord,1128.6426884259563,None,return,2.0065801329910755,1128.7260338909691,None,,,,,,,22,001,2023_Feb_15_2005,SpeechDraft1Carolyn_lessNoise,2021.2.3,59.87130756119518,
curb.wav,curb.mpg,curb,6,AV,Pink_Noise_6_1.wav,Pink_Noise_6_2.wav,,,,,,0,5,5,63,,,,,,,,,,,,,,,1130.7593439049087,None,1132.242965068901,None,1133.6259535669815,None,good,1133.6259535669815,None,return,3.2231954879825935,1133.7093747649342,None,,,,,,,22,001,2023_Feb_15_2005,SpeechDraft1Carolyn_lessNoise,2021.2.3,59.87130756119518,
greek.wav,greek.mpg,greek,4,A,Pink_Noise_4_1.wav,Pink_Noise_4_2.wav,,,,,,0,6,6,0,,,,,,,,,,,,,,,1136.9593642299296,None,1138.459340910893,None,1139.826191126951,None,greek,1139.826191126951,None,return,1.8311679370235652,1139.9094010919798,None,,,,,,,22,001,2023_Feb_15_2005,SpeechDraft1Carolyn_lessNoise,2021.2.3,59.87130756119518,
block.wav,block.mpg,block,3,AV,Pink_Noise_3_1.wav,Pink_Noise_3_2.wav,,,,,,0,7,7,72,,,,,,,,,,,,,,,1141.7593379509635,None,1143.2432477260008,None,1144.6261650669621,None,black,1144.6261650669621,None,return,1.9832837809808552,1144.709326047916,None,,,,,,,22,001,2023_Feb_15_2005,SpeechDraft1Carolyn_lessNoise,2021.2.3,59.87130756119518,
else.wav,else.mpg,else,2,A,Pink_Noise_2_1.wav,Pink_Noise_2_2.wav,,,,,,0,8,8,48,,,,,,,,,,,,,,,1146.7093269010074,None,1148.1931033129804,None,1149.5760122999782,None,ekse,1149.5760122999782,None,return,1.6091643089894205,1149.6593190749409,None,,,,,,,22,001,2023_Feb_15_2005,SpeechDraft1Carolyn_lessNoise,2021.2.3,59.87130756119518,
cruel.wav,cruel.mpg,cruel,6,AV,Pink_Noise_6_1.wav,Pink_Noise_6_2.wav,,,,,,0,9,9,74,,,,,,,,,,,,,,,1151.2926856079139,None,1152.7763141129399,None,1154.1594705029856,None,cool,1154.1594705029856,None,return,6.777793878922239,1154.2427006840007,None,,,,,,,22,001,2023_Feb_15_2005,SpeechDraft1Carolyn_lessNoise,2021.2.3,59.87130756119518,
glide.wav,glide.mpg,glide,2,AV,Pink_Noise_2_1.wav,Pink_Noise_2_2.wav,,,,,,0,10,10,98,,,,,,,,,,,,,,,1161.0426732609048,None,1162.5424928059801,None,1163.9093221389921,None,"glide
",1163.9093221389921,None,return,1.6037890430307016,1163.9927155189216,None,,,,,,,22,001,2023_Feb_15_2005,SpeechDraft1Carolyn_lessNoise,2021.2.3,59.87130756119518,
sake.wav,sake.mpg,sake,1,A,Pink_Noise_1_1.wav,Pink_Noise_1_2.wav,,,,,,0,11,11,50,,,,,,,,,,,,,,,1165.6260139879305,None,1167.1259264739929,None,1168.4927599949297,None,suck,1168.4927599949297,None,return,1.2284702139440924,1168.5760324778967,None,,,,,,,22,001,2023_Feb_15_2005,SpeechDraft1Carolyn_lessNoise,2021.2.3,59.87130756119518,
bib.wav,bib.mpg,bib,4,A,Pink_Noise_4_1.wav,Pink_Noise_4_2.wav,,,,,,0,12,12,39,,,,,,,,,,,,,,,1169.8259509549243,None,1171.325703053968,None,1172.7094111219049,None,fish,1172.7094111219049,None,return,2.6038436889648438,1172.7926521669142,None,,,,,,,22,001,2023_Feb_15_2005,SpeechDraft1Carolyn_lessNoise,2021.2.3,59.87130756119518,
frog.wav,frog.mpg,frog,1,AV,Pink_Noise_1_1.wav,Pink_Noise_1_2.wav,,,,,,0,13,13,115,,,,,,,,,,,,,,,1175.426070479909,None,1176.9099316250067,None,1178.292652301956,None,frog,1178.292652301956,None,return,3.0602602619910613,1178.376223194995,None,,,,,,,22,001,2023_Feb_15_2005,SpeechDraft1Carolyn_lessNoise,2021.2.3,59.87130756119518,
fate.wav,fate.mpg,fate,2,A,Pink_Noise_2_1.wav,Pink_Noise_2_2.wav,,,,,,0,14,14,36,,,,,,,,,,,,,,,1181.459309082944,None,1182.9427614149172,None,1184.3261658489937,None,fate,1184.3261658489937,None,return,3.1392836979357526,1184.409342690953,None,,,,,,,22,001,2023_Feb_15_2005,SpeechDraft1Carolyn_lessNoise,2021.2.3,59.87130756119518,
stain.wav,stain.mpg,stain,1,A,Pink_Noise_1_1.wav,Pink_Noise_1_2.wav,,,,,,0,15,15,20,,,,,,,,,,,,,,,1187.576096212957,None,1189.0757980259368,None,1190.4594139719848,None,"sting
",1190.4594139719848,None,return,1.3337101630168036,1190.5427782549523,None,,,,,,,22,001,2023_Feb_15_2005,SpeechDraft1Carolyn_lessNoise,2021.2.3,59.87130756119518,
card.wav,card.mpg,card,3,A,Pink_Noise_3_1.wav,Pink_Noise_3_2.wav,,,,,,0,16,16,56,,,,,,,,,,,,,,,1191.9094649798935,None,1193.4092183799949,None,1194.7761823259061,None,card,1194.7761823259061,None,return,1.4732082899427041,1194.8593799499795,None,,,,,,,22,001,2023_Feb_15_2005,SpeechDraft1Carolyn_lessNoise,2021.2.3,59.87130756119518,
deed.wav,deed.mpg,deed,5,A,Pink_Noise_5_1.wav,Pink_Noise_5_2.wav,,,,,,0,17,17,18,,,,,,,,,,,,,,,1196.3594629099825,None,1197.8593301340006,None,1199.242830419913,None,bee,1199.242830419913,None,return,1.782410588930361,1199.3261707889615,None,,,,,,,22,001,2023_Feb_15_2005,SpeechDraft1Carolyn_lessNoise,2021.2.3,59.87130756119518,
skull.wav,skull.mpg,skull,1,AV,Pink_Noise_1_1.wav,Pink_Noise_1_2.wav,,,,,,0,18,18,93,,,,,,,,,,,,,,,1201.1260505639948,None,1202.6259497669525,None,1204.009384955978,None,"skull
",1204.009384955978,None,return,5.735622745938599,1204.0928816659143,None,,,,,,,22,001,2023_Feb_15_2005,SpeechDraft1Carolyn_lessNoise,2021.2.3,59.87130756119518,
fork.wav,fork.mpg,fork,4,AV,Pink_Noise_4_1.wav,Pink_Noise_4_2.wav,,,,,,0,19,19,102,,,,,,,,,,,,,,,1209.8594241769752,None,1211.3428301069653,None,1212.726080434979,None,"fork
",1212.726080434979,None,return,1.787070185993798,1212.8094252949813,None,,,,,,,22,001,2023_Feb_15_2005,SpeechDraft1Carolyn_lessNoise,2021.2.3,59.87130756119518,
goat.wav,goat.mpg,goat,1,A,Pink_Noise_1_1.wav,Pink_Noise_1_2.wav,,,,,,0,20,20,10,,,,,,,,,,,,,,,1214.6260873680003,None,1216.1259049288929,None,1217.4927978419,None,goat,1217.4927978419,None,return,1.1725838729180396,1217.5760215289192,None,,,,,,,22,001,2023_Feb_15_2005,SpeechDraft1Carolyn_lessNoise,2021.2.3,59.87130756119518,
dream.wav,dream.mpg,dream,2,A,Pink_Noise_2_1.wav,Pink_Noise_2_2.wav,,,,,,0,21,21,19,,,,,,,,,,,,,,,1218.7760713140015,None,1220.2597990869544,None,1221.642803117982,None,drink,1221.642803117982,None,return,1.4304589519742876,1221.7260963669978,None,,,,,,,22,001,2023_Feb_15_2005,SpeechDraft1Carolyn_lessNoise,2021.2.3,59.87130756119518,
bad.wav,bad.mpg,bad,3,A,Pink_Noise_3_1.wav,Pink_Noise_3_2.wav,,,,,,0,22,22,14,,,,,,,,,,,,,,,1223.1761269259732,None,1224.6592838409124,None,1226.042776871007,None,"bad
",1226.042776871007,None,return,1.470408016932197,1226.1260823189514,None,,,,,,,22,001,2023_Feb_15_2005,SpeechDraft1Carolyn_lessNoise,2021.2.3,59.87130756119518,
chase.wav,chase.mpg,chase,5,A,Pink_Noise_5_1.wav,Pink_Noise_5_2.wav,,,,,,0,23,23,44,,,,,,,,,,,,,,,1227.6262733589392,None,1229.1259203288937,None,1230.5095591379795,None,chase,1230.5095591379795,None,return,1.7238111089682207,1230.5928102169419,None,,,,,,,22,001,2023_Feb_15_2005,SpeechDraft1Carolyn_lessNoise,2021.2.3,59.87130756119518,
crypt.wav,crypt.mpg,crypt,2,A,Pink_Noise_2_1.wav,Pink_Noise_2_2.wav,,,,,,0,24,24,4,,,,,,,,,,,,,,,1232.3427943389397,None,1233.8264022179646,None,1235.2093798510032,None,crypt,1235.2093798510032,None,return,2.5597113360418007,1235.292770084925,None,,,,,,,22,001,2023_Feb_15_2005,SpeechDraft1Carolyn_lessNoise,2021.2.3,59.87130756119518,
crawl.wav,crawl.mpg,crawl,5,AV,Pink_Noise_5_1.wav,Pink_Noise_5_2.wav,,,,,,0,25,25,96,,,,,,,,,,,,,,,1237.8761099819094,None,1239.3759150959086,None,1240.7594027379528,None,"gone
",1240.7594027379528,None,return,2.385691322037019,1240.842811559909,None,,,,,,,22,001,2023_Feb_15_2005,SpeechDraft1Carolyn_lessNoise,2021.2.3,59.87130756119518,
flick.wav,flick.mpg,flick,1,A,Pink_Noise_1_1.wav,Pink_Noise_1_2.wav,,,,,,0,26,26,45,,,,,,,,,,,,,,,1243.2594438329106,None,1244.7449387079105,None,1246.1262465999462,None,flick,1246.1262465999462,None,return,4.707093378994614,1246.2094587929314,None,,,,,,,22,001,2023_Feb_15_2005,SpeechDraft1Carolyn_lessNoise,2021.2.3,59.87130756119518,
cane.wav,cane.mpg,cane,2,AV,Pink_Noise_2_1.wav,Pink_Noise_2_2.wav,,,,,,0,27,27,101,,,,,,,,,,,,,,,1250.9429188169306,None,1252.4271795189707,None,1253.8094425969757,None,cane,1253.8094425969757,None,return,1.0075654300162569,1253.8929252089001,None,,,,,,,22,001,2023_Feb_15_2005,SpeechDraft1Carolyn_lessNoise,2021.2.3,59.87130756119518,
die.wav,die.mpg,die,5,A,Pink_Noise_5_1.wav,Pink_Noise_5_2.wav,,,,,,0,28,28,9,,,,,,,,,,,,,,,1254.9261945019243,None,1256.42612980993,None,1257.8094835509546,None,dine,1257.8094835509546,None,return,1.7916333359899,1257.8928499509348,None,,,,,,,22,001,2023_Feb_15_2005,SpeechDraft1Carolyn_lessNoise,2021.2.3,59.87130756119518,
bound.wav,bound.mpg,bound,3,AV,Pink_Noise_3_1.wav,Pink_Noise_3_2.wav,,,,,,0,29,29,106,,,,,,,,,,,,,,,1259.7094402569346,None,1261.2093061889755,None,1262.5761254089884,None,"boat
",1262.5761254089884,None,return,1.2011039230274037,1262.6594200019026,None,,,,,,,22,001,2023_Feb_15_2005,SpeechDraft1Carolyn_lessNoise,2021.2.3,59.87130756119518,
freeze.wav,freeze.mpg,freeze,5,A,Pink_Noise_5_1.wav,Pink_Noise_5_2.wav,,,,,,0,30,30,41,,,,,,,,,,,,,,,1263.89293262898,None,1265.3762739149388,None,1266.759548525908,None,treat,1266.759548525908,None,return,2.9137242190772668,1266.8428316679783,None,,,,,,,22,001,2023_Feb_15_2005,SpeechDraft1Carolyn_lessNoise,2021.2.3,59.87130756119518,
cab.wav,cab.mpg,cab,6,AV,Pink_Noise_6_1.wav,Pink_Noise_6_2.wav,,,,,,0,31,31,90,,,,,,,,,,,,,,,1269.7763498109998,None,1271.259638474905,None,1272.642809747951,None,cap,1272.642809747951,None,return,3.2784046049928293,1272.726099954918,None,,,,,,,22,001,2023_Feb_15_2005,SpeechDraft1Carolyn_lessNoise,2021.2.3,59.87130756119518,
dove.wav,dove.mpg,dove,2,AV,Pink_Noise_2_1.wav,Pink_Noise_2_2.wav,,,,,,0,32,32,87,,,,,,,,,,,,,,,1276.0262278550072,None,1277.5258936359314,None,1278.9094798599835,None,"dove
",1278.9094798599835,None,return,1.0674778280081227,1278.9930176889757,None,,,,,,,22,001,2023_Feb_15_2005,SpeechDraft1Carolyn_lessNoise,2021.2.3,59.87130756119518,
crate.wav,crate.mpg,crate,5,AV,Pink_Noise_5_1.wav,Pink_Noise_5_2.wav,,,,,,0,33,33,65,,,,,,,,,,,,,,,1280.0928401269484,None,1281.5763351519126,None,1282.959542128956,None,"crate
",1282.959542128956,None,return,1.3535622790222988,1283.0429317879025,None,,,,,,,22,001,2023_Feb_15_2005,SpeechDraft1Carolyn_lessNoise,2021.2.3,59.87130756119518,
curve.wav,curve.mpg,curve,6,A,Pink_Noise_6_1.wav,Pink_Noise_6_2.wav,,,,,,0,34,34,5,,,,,,,,,,,,,,,1284.426226321957,None,1285.9093745129649,None,1287.2928810109152,None,"
",1287.2928810109152,None,return,2.084157668054104,1287.376336990972,None,,,,,,,22,001,2023_Feb_15_2005,SpeechDraft1Carolyn_lessNoise,2021.2.3,59.87130756119518,
crack.wav,crack.mpg,crack,1,A,Pink_Noise_1_1.wav,Pink_Noise_1_2.wav,,,,,,0,35,35,35,,,,,,,,,,,,,,,1289.5096597479424,None,1291.0092837719712,None,1292.3928896639263,None,crack,1292.3928896639263,None,return,3.656185403931886,1292.4764426179463,None,,,,,,,22,001,2023_Feb_15_2005,SpeechDraft1Carolyn_lessNoise,2021.2.3,59.87130756119518,
quit.wav,quit.mpg,quit,2,AV,Pink_Noise_2_1.wav,Pink_Noise_2_2.wav,,,,,,0,36,36,117,,,,,,,,,,,,,,,1296.1595017029904,None,1297.6592438599328,None,1299.0428292870056,None,"quit
",1299.0428292870056,None,return,3.518315286957659,1299.1261707859812,None,,,,,,,22,001,2023_Feb_15_2005,SpeechDraft1Carolyn_lessNoise,2021.2.3,59.87130756119518,
wine.wav,wine.mpg,wine,1,AV,Pink_Noise_1_1.wav,Pink_Noise_1_2.wav,,,,,,0,37,37,64,,,,,,,,,,,,,,,1302.6762705539586,None,1304.1760740939062,None,1305.5595695140073,None,wine,1305.5595695140073,None,return,2.8576969580026343,1305.6428516289452,None,,,,,,,22,001,2023_Feb_15_2005,SpeechDraft1Carolyn_lessNoise,2021.2.3,59.87130756119518,
clog.wav,clog.mpg,clog,1,AV,Pink_Noise_1_1.wav,Pink_Noise_1_2.wav,,,,,,0,38,38,71,,,,,,,,,,,,,,,1308.5262554578949,None,1310.0260083189933,None,1311.39292462694,None,clig,1311.39292462694,None,return,4.032379187992774,1311.4762693638913,None,,,,,,,22,001,2023_Feb_15_2005,SpeechDraft1Carolyn_lessNoise,2021.2.3,59.87130756119518,
chat.wav,chat.mpg,chat,1,A,Pink_Noise_1_1.wav,Pink_Noise_1_2.wav,,,,,,0,39,39,33,,,,,,,,,,,,,,,1315.527035571984,None,1317.026061585988,None,1318.4094731248915,None,"chat
",1318.4094731248915,None,return,4.119450459023938,1318.4930340899155,None,,,,,,,22,001,2023_Feb_15_2005,SpeechDraft1Carolyn_lessNoise,2021.2.3,59.87130756119518,
dive.wav,dive.mpg,dive,5,A,Pink_Noise_5_1.wav,Pink_Noise_5_2.wav,,,,,,0,40,40,32,,,,,,,,,,,,,,,1322.6429024440004,None,1324.1281657218933,None,1325.5095761918928,None,"sky
",1325.5095761918928,None,return,3.0835275050485507,1325.592955589993,None,,,,,,,22,001,2023_Feb_15_2005,SpeechDraft1Carolyn_lessNoise,2021.2.3,59.87130756119518,
drive.wav,drive.mpg,drive,6,A,Pink_Noise_6_1.wav,Pink_Noise_6_2.wav,,,,,,0,41,41,21,,,,,,,,,,,,,,,1328.7097285789205,None,1330.2093226619763,None,1331.5762425909052,None,drive,1331.5762425909052,None,return,1.6808112319558859,1331.6596763209673,None,,,,,,,22,001,2023_Feb_15_2005,SpeechDraft1Carolyn_lessNoise,2021.2.3,59.87130756119518,
cramp.wav,cramp.mpg,cramp,1,A,Pink_Noise_1_1.wav,Pink_Noise_1_2.wav,,,,,,0,42,42,11,,,,,,,,,,,,,,,1333.3596042189747,None,1334.8593785410048,None,1336.2430252229096,None,"cramp
",1336.2430252229096,None,return,4.318189569981769,1336.3263070589164,None,,,,,,,22,001,2023_Feb_15_2005,SpeechDraft1Carolyn_lessNoise,2021.2.3,59.87130756119518,
cute.wav,cute.mpg,cute,6,A,Pink_Noise_6_1.wav,Pink_Noise_6_2.wav,,,,,,0,43,43,43,,,,,,,,,,,,,,,1340.676270723925,None,1342.1610971079208,None,1343.542950828909,None,pig,1343.542950828909,None,return,3.5382256760494784,1343.6262756459182,None,,,,,,,22,001,2023_Feb_15_2005,SpeechDraft1Carolyn_lessNoise,2021.2.3,59.87130756119518,
code.wav,code.mpg,code,6,AV,Pink_Noise_6_1.wav,Pink_Noise_6_2.wav,,,,,,0,44,44,66,,,,,,,,,,,,,,,1347.1929381859954,None,1348.6782746369718,None,1350.0598995829932,None,"
",1350.0598995829932,None,return,1.7015751710860059,1350.1429186339956,None,,,,,,,22,001,2023_Feb_15_2005,SpeechDraft1Carolyn_lessNoise,2021.2.3,59.87130756119518,
bold.wav,bold.mpg,bold,3,A,Pink_Noise_3_1.wav,Pink_Noise_3_2.wav,,,,,,0,45,45,31,,,,,,,,,,,,,,,1351.8763549029827,None,1353.3601732869865,None,1354.7429460709682,None,,1354.7429460709682,None,return,0.7942460699705407,1354.8262290299172,None,,,,,,,22,001,2023_Feb_15_2005,SpeechDraft1Carolyn_lessNoise,2021.2.3,59.87130756119518,
nice.wav,nice.mpg,nice,1,AV,Pink_Noise_1_1.wav,Pink_Noise_1_2.wav,,,,,,0,46,46,111,,,,,,,,,,,,,,,1355.6430055849487,None,1357.1427910319762,None,1358.5263335389318,None,nice,1358.5263335389318,None,return,1.1148684900254011,1358.6096495399252,None,,,,,,,22,001,2023_Feb_15_2005,SpeechDraft1Carolyn_lessNoise,2021.2.3,59.87130756119518,
fear.wav,fear.mpg,fear,6,A,Pink_Noise_6_1.wav,Pink_Noise_6_2.wav,,,,,,0,47,47,15,,,,,,,,,,,,,,,1359.74306001293,None,1361.243022241979,None,1362.609656821005,None,,1362.609656821005,None,return,0.9754923250293359,1362.6929842599202,None,,,,,,,22,001,2023_Feb_15_2005,SpeechDraft1Carolyn_lessNoise,2021.2.3,59.87130756119518,
blend.wav,blend.mpg,blend,3,A,Pink_Noise_3_1.wav,Pink_Noise_3_2.wav,,,,,,0,48,48,27,,,,,,,,,,,,,,,1363.6932731389534,None,1365.1927075489657,None,1366.559648555005,None,red,1366.559648555005,None,return,0.9295356289949268,1366.6430427120067,None,,,,,,,22,001,2023_Feb_15_2005,SpeechDraft1Carolyn_lessNoise,2021.2.3,59.87130756119518,
damn.wav,damn.mpg,damn,4,AV,Pink_Noise_4_1.wav,Pink_Noise_4_2.wav,,,,,,0,49,49,97,,,,,,,,,,,,,,,1367.6098685289035,None,1369.1093962959712,None,1370.4931599108968,None,dam,1370.4931599108968,None,return,0.7802064340794459,1370.5763705469435,None,,,,,,,22,001,2023_Feb_15_2005,SpeechDraft1Carolyn_lessNoise,2021.2.3,59.87130756119518,
mars.wav,mars.mpg,mars,2,A,Pink_Noise_2_1.wav,Pink_Noise_2_2.wav,,,,,,0,50,50,13,,,,,,,,,,,,,,,1371.3763317889534,None,1372.876075932989,None,1374.242914274917,None,"mars
",1374.242914274917,None,return,1.222006572992541,1374.3264779649908,None,,,,,,,22,001,2023_Feb_15_2005,SpeechDraft1Carolyn_lessNoise,2021.2.3,59.87130756119518,
coil.wav,coil.mpg,coil,5,AV,Pink_Noise_5_1.wav,Pink_Noise_5_2.wav,,,,,,0,51,51,76,,,,,,,,,,,,,,,1375.5767044849927,None,1377.0764806709485,None,1378.4598435019143,None,quit,1378.4598435019143,None,return,1.3255101189715788,1378.5429975449806,None,,,,,,,22,001,2023_Feb_15_2005,SpeechDraft1Carolyn_lessNoise,2021.2.3,59.87130756119518,
bed.wav,bed.mpg,bed,4,A,Pink_Noise_4_1.wav,Pink_Noise_4_2.wav,,,,,,0,52,52,17,,,,,,,,,,,,,,,1379.8929586629383,None,1381.3928971269634,None,1382.7762250109809,None,,1382.7762250109809,None,return,1.8887998840073124,1382.8598228089977,None,,,,,,,22,001,2023_Feb_15_2005,SpeechDraft1Carolyn_lessNoise,2021.2.3,59.87130756119518,
crush.wav,crush.mpg,crush,3,AV,Pink_Noise_3_1.wav,Pink_Noise_3_2.wav,,,,,,0,53,53,119,,,,,,,,,,,,,,,1384.7763342739781,None,1386.2595429850044,None,1387.6430122149177,None,crush,1387.6430122149177,None,return,1.2381508910330012,1387.7264081409667,None,,,,,,,22,001,2023_Feb_15_2005,SpeechDraft1Carolyn_lessNoise,2021.2.3,59.87130756119518,
gone.wav,gone.mpg,gone,4,AV,Pink_Noise_4_1.wav,Pink_Noise_4_2.wav,,,,,,0,54,54,78,,,,,,,,,,,,,,,1388.993076300947,None,1390.4928122179117,None,1391.876328179962,None,gone,1391.876328179962,None,return,1.2447698350297287,1391.95975115092,None,,,,,,,22,001,2023_Feb_15_2005,SpeechDraft1Carolyn_lessNoise,2021.2.3,59.87130756119518,
lost.wav,lost.mpg,lost,5,AV,Pink_Noise_5_1.wav,Pink_Noise_5_2.wav,,,,,,0,55,55,110,,,,,,,,,,,,,,,1393.226365562994,None,1394.7109896129696,None,1396.0930246539647,None,lost,1396.0930246539647,None,return,1.06012144300621,1396.1763603779254,None,,,,,,,22,001,2023_Feb_15_2005,SpeechDraft1Carolyn_lessNoise,2021.2.3,59.87130756119518,
flu.wav,flu.mpg,flu,2,A,Pink_Noise_2_1.wav,Pink_Noise_2_2.wav,,,,,,0,56,56,38,,,,,,,,,,,,,,,1397.259765371913,None,1398.7433993489249,None,1400.1263304749737,None,flew,1400.1263304749737,None,return,1.0829222740139812,1400.2096442009788,None,,,,,,,22,001,2023_Feb_15_2005,SpeechDraft1Carolyn_lessNoise,2021.2.3,59.87130756119518,
brown.wav,brown.mpg,brown,4,AV,Pink_Noise_4_1.wav,Pink_Noise_4_2.wav,,,,,,0,57,57,84,,,,,,,,,,,,,,,1401.3096869869623,None,1402.8094360819086,None,1404.193033622927,None,brown,1404.193033622927,None,return,0.8960793310543522,1404.2764111899305,None,,,,,,,22,001,2023_Feb_15_2005,SpeechDraft1Carolyn_lessNoise,2021.2.3,59.87130756119518,
gram.wav,gram.mpg,gram,3,AV,Pink_Noise_3_1.wav,Pink_Noise_3_2.wav,,,,,,0,58,58,114,,,,,,,,,,,,,,,1405.1930124378996,None,1406.6784122959943,None,1408.0596101660049,None,cram,1408.0596101660049,None,return,4.16552378598135,1408.1430585989729,None,,,,,,,22,001,2023_Feb_15_2005,SpeechDraft1Carolyn_lessNoise,2021.2.3,59.87130756119518,
bag.wav,bag.mpg,bag,4,AV,Pink_Noise_4_1.wav,Pink_Noise_4_2.wav,,,,,,0,59,59,112,,,,,,,,,,,,,,,1412.3264325018972,None,1413.826329568983,None,1415.20966584899,None,beg,1415.20966584899,None,return,1.8874267720384523,1415.2930705479812,None,,,,,,,22,001,2023_Feb_15_2005,SpeechDraft1Carolyn_lessNoise,2021.2.3,59.87130756119518,
grace.wav,grace.mpg,grace,4,A,Pink_Noise_4_1.wav,Pink_Noise_4_2.wav,,,,,,0,60,60,52,,,,,,,,,,,,,,,1417.2097390539711,None,1418.7096326189348,None,1420.0764081809903,None,grace,1420.0764081809903,None,return,1.3727212350349873,1420.1599048809148,None,,,,,,,22,001,2023_Feb_15_2005,SpeechDraft1Carolyn_lessNoise,2021.2.3,59.87130756119518,
dusk.wav,dusk.mpg,dusk,5,AV,Pink_Noise_5_1.wav,Pink_Noise_5_2.wav,,,,,,0,61,61,60,,,,,,,,,,,,,,,1421.5598417059518,None,1423.0443148548948,None,1424.426365417894,None,dust,1424.426365417894,None,return,0.9666120010660961,1424.509872371913,None,,,,,,,22,001,2023_Feb_15_2005,SpeechDraft1Carolyn_lessNoise,2021.2.3,59.87130756119518,
fuse.wav,fuse.mpg,fuse,6,AV,Pink_Noise_6_1.wav,Pink_Noise_6_2.wav,,,,,,0,62,62,62,,,,,,,,,,,,,,,1425.493073155987,None,1426.9927870109677,None,1428.3596148139331,None,fruit,1428.3596148139331,None,return,1.9054868640378118,1428.4431473499862,None,,,,,,,22,001,2023_Feb_15_2005,SpeechDraft1Carolyn_lessNoise,2021.2.3,59.87130756119518,
greed.wav,greed.mpg,greed,5,AV,Pink_Noise_5_1.wav,Pink_Noise_5_2.wav,,,,,,0,63,63,75,,,,,,,,,,,,,,,1430.3764184879838,None,1431.8763714449015,None,1433.2596781649627,None,green,1433.2596781649627,None,return,1.0934104130137712,1433.3430904638954,None,,,,,,,22,001,2023_Feb_15_2005,SpeechDraft1Carolyn_lessNoise,2021.2.3,59.87130756119518,
duke.wav,duke.mpg,duke,6,AV,Pink_Noise_6_1.wav,Pink_Noise_6_2.wav,,,,,,0,64,64,70,,,,,,,,,,,,,,,1434.4597721139435,None,1435.9595404899446,None,1437.3429483809741,None,,1437.3429483809741,None,return,1.3619876980083063,1437.4265116729075,None,,,,,,,22,001,2023_Feb_15_2005,SpeechDraft1Carolyn_lessNoise,2021.2.3,59.87130756119518,
bust.wav,bust.mpg,bust,2,AV,Pink_Noise_2_1.wav,Pink_Noise_2_2.wav,,,,,,0,65,65,81,,,,,,,,,,,,,,,1438.8099412180018,None,1440.309581483947,None,1441.693005735986,None,bust,1441.693005735986,None,return,1.0920250449562445,1441.7764517239993,None,,,,,,,22,001,2023_Feb_15_2005,SpeechDraft1Carolyn_lessNoise,2021.2.3,59.87130756119518,
grin.wav,grin.mpg,grin,4,AV,Pink_Noise_4_1.wav,Pink_Noise_4_2.wav,,,,,,0,66,66,61,,,,,,,,,,,,,,,1442.8931507159723,None,1444.3929599249968,None,1445.7764099879423,None,grin,1445.7764099879423,None,return,1.3287599990144372,1445.8597420599544,None,,,,,,,22,001,2023_Feb_15_2005,SpeechDraft1Carolyn_lessNoise,2021.2.3,59.87130756119518,
hug.wav,hug.mpg,hug,4,A,Pink_Noise_4_1.wav,Pink_Noise_4_2.wav,,,,,,0,67,67,46,,,,,,,,,,,,,,,1447.209743221989,None,1448.694584902958,None,1450.0764787578955,None,hearr,1450.0764787578955,None,return,0.8447222490794957,1450.1597801409662,None,,,,,,,22,001,2023_Feb_15_2005,SpeechDraft1Carolyn_lessNoise,2021.2.3,59.87130756119518,
dry.wav,dry.mpg,dry,6,AV,Pink_Noise_6_1.wav,Pink_Noise_6_2.wav,,,,,,0,68,68,100,,,,,,,,,,,,,,,1451.0264970599674,None,1452.5263771649916,None,1453.9097085739486,None,dry,1453.9097085739486,None,return,1.7794206910766661,1453.9930928769754,None,,,,,,,22,001,2023_Feb_15_2005,SpeechDraft1Carolyn_lessNoise,2021.2.3,59.87130756119518,
fuss.wav,fuss.mpg,fuss,3,AV,Pink_Noise_3_1.wav,Pink_Noise_3_2.wav,,,,,,0,69,69,108,,,,,,,,,,,,,,,1455.7931560169673,None,1457.2928731399588,None,1458.659923757892,None,fuss,1458.659923757892,None,return,1.765416502021253,1458.7431751888944,None,,,,,,,22,001,2023_Feb_15_2005,SpeechDraft1Carolyn_lessNoise,2021.2.3,59.87130756119518,
craft.wav,craft.mpg,craft,5,A,Pink_Noise_5_1.wav,Pink_Noise_5_2.wav,,,,,,0,70,70,58,,,,,,,,,,,,,,,1460.5266500819707,None,1462.0262597189285,None,1463.4097387879156,None,crept,1463.4097387879156,None,return,1.8793417499400675,1463.493173184921,None,,,,,,,22,001,2023_Feb_15_2005,SpeechDraft1Carolyn_lessNoise,2021.2.3,59.87130756119518,
bush.wav,bush.mpg,bush,5,AV,Pink_Noise_5_1.wav,Pink_Noise_5_2.wav,,,,,,0,71,71,77,,,,,,,,,,,,,,,1465.3932001439389,None,1466.8928988939151,None,1468.276463388931,None,brush,1468.276463388931,None,return,0.7887870980193838,1468.3597780099371,None,,,,,,,22,001,2023_Feb_15_2005,SpeechDraft1Carolyn_lessNoise,2021.2.3,59.87130756119518,
swayed.wav,swayed.mpg,swayed,6,A,Pink_Noise_6_1.wav,Pink_Noise_6_2.wav,,,,,,0,72,72,53,,,,,,,,,,,,,,,1469.1764581309399,None,1470.6761634789873,None,1472.0431385439588,None,slid,1472.0431385439588,None,return,1.382189020048827,1472.126408134005,None,,,,,,,22,001,2023_Feb_15_2005,SpeechDraft1Carolyn_lessNoise,2021.2.3,59.87130756119518,
bow.wav,bow.mpg,bow,4,AV,Pink_Noise_4_1.wav,Pink_Noise_4_2.wav,,,,,,0,73,73,109,,,,,,,,,,,,,,,1473.5264378159773,None,1475.026461286936,None,1476.4097437919118,None,bow,1476.4097437919118,None,return,0.4872270360356197,1476.4932586719515,None,,,,,,,22,001,2023_Feb_15_2005,SpeechDraft1Carolyn_lessNoise,2021.2.3,59.87130756119518,
crank.wav,crank.mpg,crank,6,A,Pink_Noise_6_1.wav,Pink_Noise_6_2.wav,,,,,,0,74,74,6,,,,,,,,,,,,,,,1477.0097959769191,None,1478.5097005219432,None,1479.8764447969152,None,,1479.8764447969152,None,return,0.6445180559530854,1479.959939489956,None,,,,,,,22,001,2023_Feb_15_2005,SpeechDraft1Carolyn_lessNoise,2021.2.3,59.87130756119518,
your.wav,your.mpg,your,3,AV,Pink_Noise_3_1.wav,Pink_Noise_3_2.wav,,,,,,0,75,75,107,,,,,,,,,,,,,,,1480.6276442519156,None,1482.142914726981,None,1483.526873864932,None,your,1483.526873864932,None,return,2.570730554056354,1483.6097543549258,None,,,,,,,22,001,2023_Feb_15_2005,SpeechDraft1Carolyn_lessNoise,2021.2.3,59.87130756119518,
dial.wav,dial.mpg,dial,2,A,Pink_Noise_2_1.wav,Pink_Noise_2_2.wav,,,,,,0,76,76,29,,,,,,,,,,,,,,,1486.2098449659534,None,1487.7095459339907,None,1489.0764570459723,None,dial,1489.0764570459723,None,return,1.060677171102725,1489.1598276189761,None,,,,,,,22,001,2023_Feb_15_2005,SpeechDraft1Carolyn_lessNoise,2021.2.3,59.87130756119518,
grasp.wav,grasp.mpg,grasp,4,A,Pink_Noise_4_1.wav,Pink_Noise_4_2.wav,,,,,,0,77,77,34,,,,,,,,,,,,,,,1490.2432691029971,None,1491.7431357639143,None,1493.1265974770067,None,grass,1493.1265974770067,None,return,0.9786325480090454,1493.209863788914,None,,,,,,,22,001,2023_Feb_15_2005,SpeechDraft1Carolyn_lessNoise,2021.2.3,59.87130756119518,
foil.wav,foil.mpg,foil,3,A,Pink_Noise_3_1.wav,Pink_Noise_3_2.wav,,,,,,0,78,78,23,,,,,,,,,,,,,,,1494.2098287929548,None,1495.7096106819808,None,1497.0933245409979,None,boil,1497.0933245409979,None,return,1.4439031600486487,1497.1765827749623,None,,,,,,,22,001,2023_Feb_15_2005,SpeechDraft1Carolyn_lessNoise,2021.2.3,59.87130756119518,
cent.wav,cent.mpg,cent,6,AV,Pink_Noise_6_1.wav,Pink_Noise_6_2.wav,,,,,,0,79,79,105,,,,,,,,,,,,,,,1498.6431356989779,None,1500.1429056649795,None,1501.5266218689503,None,sit,1501.5266218689503,None,return,1.2266133030643687,1501.609870993998,None,,,,,,,22,001,2023_Feb_15_2005,SpeechDraft1Carolyn_lessNoise,2021.2.3,59.87130756119518,
chalk.wav,chalk.mpg,chalk,2,AV,Pink_Noise_2_1.wav,Pink_Noise_2_2.wav,,,,,,0,80,80,91,,,,,,,,,,,,,,,1502.8598826919915,None,1504.3596874309005,None,1505.7266291849082,None,halk,1505.7266291849082,None,return,0.7386494020465761,1505.809911224991,None,,,,,,,22,001,2023_Feb_15_2005,SpeechDraft1Carolyn_lessNoise,2021.2.3,59.87130756119518,
dot.wav,dot.mpg,dot,5,A,Pink_Noise_5_1.wav,Pink_Noise_5_2.wav,,,,,,0,81,81,12,,,,,,,,,,,,,,,1506.5764989609597,None,1508.076324078953,None,1509.4598175699357,None,,1509.4598175699357,None,return,2.1413578849751502,1509.543162691989,None,,,,,,,22,001,2023_Feb_15_2005,SpeechDraft1Carolyn_lessNoise,2021.2.3,59.87130756119518,
flush.wav,flush.mpg,flush,2,AV,Pink_Noise_2_1.wav,Pink_Noise_2_2.wav,,,,,,0,82,82,116,,,,,,,,,,,,,,,1511.709986479953,None,1513.2096040409524,None,1514.5931945379125,None,flusk,1514.5931945379125,None,return,1.1439708699472249,1514.6765747189056,None,,,,,,,22,001,2023_Feb_15_2005,SpeechDraft1Carolyn_lessNoise,2021.2.3,59.87130756119518,
awe.wav,awe.mpg,awe,3,A,Pink_Noise_3_1.wav,Pink_Noise_3_2.wav,,,,,,0,83,83,1,,,,,,,,,,,,,,,1515.8431743949186,None,1517.342974831001,None,1518.7264862279408,None,awe,1518.7264862279408,None,return,1.0906384600093588,1518.8099320268957,None,,,,,,,22,001,2023_Feb_15_2005,SpeechDraft1Carolyn_lessNoise,2021.2.3,59.87130756119518,
fog.wav,fog.mpg,fog,2,AV,Pink_Noise_2_1.wav,Pink_Noise_2_2.wav,,,,,,0,84,84,82,,,,,,,,,,,,,,,1519.926656933967,None,1521.4263325809734,None,1522.8097638579784,None,fog,1522.8097638579784,None,return,0.6713064869400114,1522.8931823429884,None,,,,,,,22,001,2023_Feb_15_2005,SpeechDraft1Carolyn_lessNoise,2021.2.3,59.87130756119518,
cup.wav,cup.mpg,cup,2,A,Pink_Noise_2_1.wav,Pink_Noise_2_2.wav,,,,,,0,85,85,30,,,,,,,,,,,,,,,1523.593205197947,None,1525.0929693389917,None,1526.4598718399648,None,up,1526.4598718399648,None,return,0.7733255180064589,1526.5432564249495,None,,,,,,,22,001,2023_Feb_15_2005,SpeechDraft1Carolyn_lessNoise,2021.2.3,59.87130756119518,
cease.wav,cease.mpg,cease,6,AV,Pink_Noise_6_1.wav,Pink_Noise_6_2.wav,,,,,,0,86,86,99,,,,,,,,,,,,,,,1527.3433098309906,None,1528.8429712979123,None,1530.226514659007,None,cease,1530.226514659007,None,return,3.2226791710127145,1530.3099191649817,None,,,,,,,22,001,2023_Feb_15_2005,SpeechDraft1Carolyn_lessNoise,2021.2.3,59.87130756119518,
giant.wav,giant.mpg,giant,2,AV,Pink_Noise_2_1.wav,Pink_Noise_2_2.wav,,,,,,0,87,87,113,,,,,,,,,,,,,,,1533.5599890629528,None,1535.0597238559276,None,1536.4431355699198,None,giant,1536.4431355699198,None,return,1.1979338839882985,1536.52655171894,None,,,,,,,22,001,2023_Feb_15_2005,SpeechDraft1Carolyn_lessNoise,2021.2.3,59.87130756119518,
groom.wav,groom.mpg,groom,5,A,Pink_Noise_5_1.wav,Pink_Noise_5_2.wav,,,,,,0,88,88,25,,,,,,,,,,,,,,,1537.7432235128945,None,1539.2431114809588,None,1540.6265752479667,None,"
",1540.6265752479667,None,return,1.1504640199709684,1540.7100363000063,None,,,,,,,22,001,2023_Feb_15_2005,SpeechDraft1Carolyn_lessNoise,2021.2.3,59.87130756119518,
three.wav,three.mpg,three,1,AV,Pink_Noise_1_1.wav,Pink_Noise_1_2.wav,,,,,,0,89,89,89,,,,,,,,,,,,,,,1541.9098967979662,None,1543.4095494009089,None,1544.7931794339092,None,three,1544.7931794339092,None,return,0.6078693950548768,1544.8766113669844,None,,,,,,,22,001,2023_Feb_15_2005,SpeechDraft1Carolyn_lessNoise,2021.2.3,59.87130756119518,
firm.wav,firm.mpg,firm,1,AV,Pink_Noise_1_1.wav,Pink_Noise_1_2.wav,,,,,,0,90,90,88,,,,,,,,,,,,,,,1545.5099194399081,None,1547.0096916269977,None,1548.393227933906,None,firm,1548.393227933906,None,return,0.6720172319328412,1548.4765974188922,None,,,,,,,22,001,2023_Feb_15_2005,SpeechDraft1Carolyn_lessNoise,2021.2.3,59.87130756119518,
grade.wav,grade.mpg,grade,4,AV,Pink_Noise_4_1.wav,Pink_Noise_4_2.wav,,,,,,0,91,91,83,,,,,,,,,,,,,,,1549.1766576019581,None,1550.6765552129364,None,1552.0598138659261,None,gray,1552.0598138659261,None,return,1.021296561928466,1552.1431981109781,None,,,,,,,22,001,2023_Feb_15_2005,SpeechDraft1Carolyn_lessNoise,2021.2.3,59.87130756119518,
weep.wav,weep.mpg,weep,2,A,Pink_Noise_2_1.wav,Pink_Noise_2_2.wav,,,,,,0,92,92,26,,,,,,,,,,,,,,,1553.1932626419002,None,1554.6930402659345,None,1556.0766078389715,None,weep,1556.0766078389715,None,return,0.5886317249387503,1556.1599432129879,None,,,,,,,22,001,2023_Feb_15_2005,SpeechDraft1Carolyn_lessNoise,2021.2.3,59.87130756119518,
blond.wav,blond.mpg,blond,3,AV,Pink_Noise_3_1.wav,Pink_Noise_3_2.wav,,,,,,0,93,93,103,,,,,,,,,,,,,,,1556.7765777519671,None,1558.276507286937,None,1559.659870309988,None,blonde,1559.659870309988,None,return,1.1091132409637794,1559.7433728110045,None,,,,,,,22,001,2023_Feb_15_2005,SpeechDraft1Carolyn_lessNoise,2021.2.3,59.87130756119518,
sun.wav,sun.mpg,sun,6,A,Pink_Noise_6_1.wav,Pink_Noise_6_2.wav,,,,,,0,94,94,3,,,,,,,,,,,,,,,1560.8766067429679,None,1562.376352352905,None,1563.7599320919253,None,"insect
",1563.7599320919253,None,return,1.5530536939622834,1563.8434428829933,None,,,,,,,22,001,2023_Feb_15_2005,SpeechDraft1Carolyn_lessNoise,2021.2.3,59.87130756119518,
bunch.wav,bunch.mpg,bunch,4,A,Pink_Noise_4_1.wav,Pink_Noise_4_2.wav,,,,,,0,95,95,59,,,,,,,,,,,,,,,1565.4266773809213,None,1566.9264252149733,None,1568.309967494919,None,march,1568.309967494919,None,return,1.9312117759836838,1568.393286021892,None,,,,,,,22,001,2023_Feb_15_2005,SpeechDraft1Carolyn_lessNoise,2021.2.3,59.87130756119518,
fruit.wav,fruit.mpg,fruit,4,A,Pink_Noise_4_1.wav,Pink_Noise_4_2.wav,,,,,,0,96,96,47,,,,,,,,,,,,,,,1570.3433000899386,None,1571.843077878002,None,1573.2265484218951,None,fruit,1573.2265484218951,None,return,1.4945690620224923,1573.3099283979973,None,,,,,,,22,001,2023_Feb_15_2005,SpeechDraft1Carolyn_lessNoise,2021.2.3,59.87130756119518,
burn.wav,burn.mpg,burn,5,AV,Pink_Noise_5_1.wav,Pink_Noise_5_2.wav,,,,,,0,97,97,73,,,,,,,,,,,,,,,1574.8267256619874,None,1576.3277902709087,None,1577.7099396389676,None,burn,1577.7099396389676,None,return,3.8431537349242717,1577.7933102789102,None,,,,,,,22,001,2023_Feb_15_2005,SpeechDraft1Carolyn_lessNoise,2021.2.3,59.87130756119518,
chump.wav,chump.mpg,chump,2,AV,Pink_Noise_2_1.wav,Pink_Noise_2_2.wav,,,,,,0,98,98,69,,,,,,,,,,,,,,,1581.659958862001,None,1583.1763567049056,None,1584.5431779149221,None,chunk,1584.5431779149221,None,return,3.065953869954683,1584.6266148259165,None,,,,,,,22,001,2023_Feb_15_2005,SpeechDraft1Carolyn_lessNoise,2021.2.3,59.87130756119518,
roar.wav,roar.mpg,roar,5,AV,Pink_Noise_5_1.wav,Pink_Noise_5_2.wav,,,,,,0,99,99,85,,,,,,,,,,,,,,,1587.7101263379445,None,1589.2098139768932,None,1590.593215724919,None,"war
",1590.593215724919,None,return,0.48777748399879783,1590.6766956879292,None,,,,,,,22,001,2023_Feb_15_2005,SpeechDraft1Carolyn_lessNoise,2021.2.3,59.87130756119518,
bottle.wav,bottle.mpg,bottle,3,A,Pink_Noise_3_1.wav,Pink_Noise_3_2.wav,,,,,,0,100,100,51,,,,,,,,,,,,,,,1591.1933177049505,None,1592.693158965907,None,1594.0768052329076,None,file,1594.0768052329076,None,return,2.228437562007457,1594.1600524119567,None,,,,,,,22,001,2023_Feb_15_2005,SpeechDraft1Carolyn_lessNoise,2021.2.3,59.87130756119518,
chief.wav,chief.mpg,chief,1,A,Pink_Noise_1_1.wav,Pink_Noise_1_2.wav,,,,,,0,101,101,40,,,,,,,,,,,,,,,1596.41011642199,None,1597.9096755359787,None,1599.2933290179353,None,chief,1599.2933290179353,None,return,4.34770900500007,1599.3768257249612,None,,,,,,,22,001,2023_Feb_15_2005,SpeechDraft1Carolyn_lessNoise,2021.2.3,59.87130756119518,
tank.wav,tank.mpg,tank,3,AV,Pink_Noise_3_1.wav,Pink_Noise_3_2.wav,,,,,,0,102,102,80,,,,,,,,,,,,,,,1603.743375963997,None,1605.2431884359103,None,1606.626623871969,None,tank,1606.626623871969,None,return,0.7904564599739388,1606.710147399921,None,,,,,,,22,001,2023_Feb_15_2005,SpeechDraft1Carolyn_lessNoise,2021.2.3,59.87130756119518,
grass.wav,grass.mpg,grass,5,A,Pink_Noise_5_1.wav,Pink_Noise_5_2.wav,,,,,,0,103,103,37,,,,,,,,,,,,,,,1607.5265913389158,None,1609.0264166869456,None,1610.4100652339403,None,"grass
",1610.4100652339403,None,return,0.7352264239452779,1610.4932663479121,None,,,,,,,22,001,2023_Feb_15_2005,SpeechDraft1Carolyn_lessNoise,2021.2.3,59.87130756119518,
toy.wav,toy.mpg,toy,2,A,Pink_Noise_2_1.wav,Pink_Noise_2_2.wav,,,,,,0,104,104,55,,,,,,,,,,,,,,,1611.2600359210046,None,1612.759781740955,None,1614.1433416119544,None,oy,1614.1433416119544,None,return,0.28189752402249724,1614.2266797319753,None,,,,,,,22,001,2023_Feb_15_2005,SpeechDraft1Carolyn_lessNoise,2021.2.3,59.87130756119518,
bring.wav,bring.mpg,bring,1,AV,Pink_Noise_1_1.wav,Pink_Noise_1_2.wav,,,,,,0,105,105,86,,,,,,,,,,,,,,,1614.526646449929,None,1616.0264118569903,None,1617.4098830019357,None,bring,1617.4098830019357,None,return,0.9431053349981084,1617.4933770799544,None,,,,,,,22,001,2023_Feb_15_2005,SpeechDraft1Carolyn_lessNoise,2021.2.3,59.87130756119518,
cone.wav,cone.mpg,cone,6,A,Pink_Noise_6_1.wav,Pink_Noise_6_2.wav,,,,,,0,106,106,2,,,,,,,,,,,,,,,1618.459977786988,None,1619.9611601639772,None,1621.3433400728973,None,,1621.3433400728973,None,return,0.7138366380240768,1621.4267288879491,None,,,,,,,22,001,2023_Feb_15_2005,SpeechDraft1Carolyn_lessNoise,2021.2.3,59.87130756119518,
flag.wav,flag.mpg,flag,3,A,Pink_Noise_3_1.wav,Pink_Noise_3_2.wav,,,,,,0,107,107,16,,,,,,,,,,,,,,,1622.1766430749558,None,1623.693194408901,None,1625.076737447991,None,flag,1625.076737447991,None,return,0.7806000369600952,1625.1599998919992,None,,,,,,,22,001,2023_Feb_15_2005,SpeechDraft1Carolyn_lessNoise,2021.2.3,59.87130756119518,
fond.wav,fond.mpg,fond,4,A,Pink_Noise_4_1.wav,Pink_Noise_4_2.wav,,,,,,0,108,108,24,,,,,,,,,,,,,,,1625.9600523579866,None,1627.4610260908958,None,1628.8433974849759,None,bound,1628.8433974849759,None,return,7.173963192966767,1628.9266517969081,None,,,,,,,22,001,2023_Feb_15_2005,SpeechDraft1Carolyn_lessNoise,2021.2.3,59.87130756119518,
drill.wav,drill.mpg,drill,3,A,Pink_Noise_3_1.wav,Pink_Noise_3_2.wav,,,,,,0,109,109,28,,,,,,,,,,,,,,,1636.1267072309274,None,1637.6431650809245,None,1639.0100511139026,None,"drill
",1639.0100511139026,None,return,1.3029762940714136,1639.0935186529532,None,,,,,,,22,001,2023_Feb_15_2005,SpeechDraft1Carolyn_lessNoise,2021.2.3,59.87130756119518,
dark.wav,dark.mpg,dark,4,AV,Pink_Noise_4_1.wav,Pink_Noise_4_2.wav,,,,,,0,110,110,104,,,,,,,,,,,,,,,1640.426726332982,None,1641.9264277669135,None,1643.3102794319857,None,"ark
",1643.3102794319857,None,return,0.4671629269141704,1643.3933340460062,None,,,,,,,22,001,2023_Feb_15_2005,SpeechDraft1Carolyn_lessNoise,2021.2.3,59.87130756119518,
brag.wav,brag.mpg,brag,6,A,Pink_Noise_6_1.wav,Pink_Noise_6_2.wav,,,,,,0,111,111,22,,,,,,,,,,,,,,,1643.8934055370046,None,1645.4098212209065,None,1646.7776742069982,None,gray,1646.7776742069982,None,return,2.704439591965638,1646.8600496299332,None,,,,,,,22,001,2023_Feb_15_2005,SpeechDraft1Carolyn_lessNoise,2021.2.3,59.87130756119518,
fifth.wav,fifth.mpg,fifth,5,A,Pink_Noise_5_1.wav,Pink_Noise_5_2.wav,,,,,,0,112,112,57,,,,,,,,,,,,,,,1649.593354975921,None,1651.1264611328952,None,1652.5099720580038,None,,1652.5099720580038,None,return,0.33105105604045093,1652.5934469019994,None,,,,,,,22,001,2023_Feb_15_2005,SpeechDraft1Carolyn_lessNoise,2021.2.3,59.87130756119518,
live.wav,live.mpg,live,1,A,Pink_Noise_1_1.wav,Pink_Noise_1_2.wav,,,,,,0,113,113,7,,,,,,,,,,,,,,,1652.9439954049885,None,1654.4431727769552,None,1655.8266899209702,None,live,1655.8266899209702,None,return,3.622537788003683,1655.9100596759235,None,,,,,,,22,001,2023_Feb_15_2005,SpeechDraft1Carolyn_lessNoise,2021.2.3,59.87130756119518,
grave.wav,grave.mpg,grave,1,AV,Pink_Noise_1_1.wav,Pink_Noise_1_2.wav,,,,,,0,114,114,94,,,,,,,,,,,,,,,1659.5600375389913,None,1661.059837216977,None,1662.4433911289088,None,grave,1662.4433911289088,None,return,0.7577688579913229,1662.5267589970026,None,,,,,,,22,001,2023_Feb_15_2005,SpeechDraft1Carolyn_lessNoise,2021.2.3,59.87130756119518,
bland.wav,bland.mpg,bland,6,A,Pink_Noise_6_1.wav,Pink_Noise_6_2.wav,,,,,,0,115,115,42,,,,,,,,,,,,,,,1663.3100682399236,None,1664.8098866159562,None,1666.2098160539754,None,"scram
",1666.2098160539754,None,return,0.9837488910416141,1666.276748565957,None,,,,,,,22,001,2023_Feb_15_2005,SpeechDraft1Carolyn_lessNoise,2021.2.3,59.87130756119518,
cause.wav,cause.mpg,cause,1,A,Pink_Noise_1_1.wav,Pink_Noise_1_2.wav,,,,,,0,116,116,8,,,,,,,,,,,,,,,1667.2934257049346,None,1668.7932276079664,None,1670.1767751799198,None,cause,1670.1767751799198,None,return,1.0725419078953564,1670.2600685609505,None,,,,,,,22,001,2023_Feb_15_2005,SpeechDraft1Carolyn_lessNoise,2021.2.3,59.87130756119518,
none.wav,none.mpg,none,1,AV,Pink_Noise_1_1.wav,Pink_Noise_1_2.wav,,,,,,0,117,117,118,,,,,,,,,,,,,,,1671.3601392799756,None,1672.8765799759421,None,1674.2600266189547,None,nun,1674.2600266189547,None,return,0.949149296968244,1674.3434267269913,None,,,,,,,22,001,2023_Feb_15_2005,SpeechDraft1Carolyn_lessNoise,2021.2.3,59.87130756119518,
dual.wav,dual.mpg,dual,3,A,Pink_Noise_3_1.wav,Pink_Noise_3_2.wav,,,,,,0,118,118,54,,,,,,,,,,,,,,,1675.310025533894,None,1676.826737731928,None,1678.210106663988,None,dual,1678.210106663988,None,return,3.8550994290271774,1678.2934791269945,None,,,,,,,22,001,2023_Feb_15_2005,SpeechDraft1Carolyn_lessNoise,2021.2.3,59.87130756119518,
fuel.wav,fuel.mpg,fuel,4,A,Pink_Noise_4_1.wav,Pink_Noise_4_2.wav,,,,,,0,119,119,49,,,,,,,,,,,,,,,1682.177081874921,None,1683.6932222628966,None,1685.076776875998,None,,1685.076776875998,None,return,0.4444008229766041,1685.160104853916,None,,,,,,,22,001,2023_Feb_15_2005,SpeechDraft1Carolyn_lessNoise,2021.2.3,59.87130756119518,
