Audio_Only_Files,Video_Files,Original_Word_List,noiseLevelCode,conditionCodes,noiseLevelFile1,noiseLevelFile2,InstrTextVar,targetSpeakerName,targetSpeakerEccen,targetSpkrChannel,targetSpkrSound,targetVisualDegrees,visStimLoc,visStimLoc2,visStimW,visStimH,practiceTrials.thisRepN,practiceTrials.thisTrialN,practiceTrials.thisN,practiceTrials.thisIndex,trials.thisRepN,trials.thisTrialN,trials.thisN,trials.thisIndex,audLocalLoop.thisRepN,audLocalLoop.thisTrialN,audLocalLoop.thisN,audLocalLoop.thisIndex,visualLocalLoop.thisRepN,visualLocalLoop.thisTrialN,visualLocalLoop.thisN,visualLocalLoop.thisIndex,letsGoAlready.keys,letsGoAlready.rt,letsGoAlready.started,letsGoAlready.stopped,text_2.started,text_2.stopped,text_3.started,text_3.stopped,key_resp_2.keys,key_resp_2.rt,key_resp_2.started,key_resp_2.stopped,text_5.started,text_5.stopped,fixCross.started,fixCross.stopped,fixCross2.started,fixCross2.stopped,answerPrompt.started,answerPrompt.stopped,getAnswer.text,getAnswer.started,getAnswer.stopped,goToNext.keys,goToNext.rt,goToNext.started,goToNext.stopped,stretchBreakTxrt.started,stretchBreakTxrt.stopped,key_resp_3.keys,key_resp_3.rt,key_resp_3.started,key_resp_3.stopped,letsGoLocal.keys,letsGoLocal.rt,letsGoLocal.started,letsGoLocal.stopped,text_4.started,text_4.stopped,prepFixTxt.started,prepFixTxt.stopped,prepFixTxt_2.started,prepFixTxt_2.stopped,respPromptLocal.started,respPromptLocal.stopped,slider.response,slider.rt,slider.started,slider.stopped,letsGoLocal_2.keys,letsGoLocal_2.rt,letsGoLocal_2.started,letsGoLocal_2.stopped,text_7.started,text_7.stopped,prepFixTxt_3.started,prepFixTxt_3.stopped,grating.started,grating.stopped,participant,session,date,expName,psychopyVersion,frameRate,
,,,,,,,,,,,,,,,,,,,,,,,,,,,,,,,,,space,1.4661345689091831,11.174070534994826,None,,,,,,,,,,,,,,,,,,,,,,,,,,,,,,,,,,,,,,,,,,,,,,,,,,,,,,,,24,001,2023_Feb_16_1713,SpeechDraft1Carolyn_lessNoise_PlusLocalization,2021.2.3,60.02474059759696,
,,,,,,,,,,,,,,,,,,,,,,,,,,,,,,,,,,,,,11.174070534994826,None,12.657028804998845,None,space,0.7517564240843058,12.840385259012692,None,,,,,,,,,,,,,,,,,,,,,,,,,,,,,,,,,,,,,,,,,,,,,,,,24,001,2023_Feb_16_1713,SpeechDraft1Carolyn_lessNoise_PlusLocalization,2021.2.3,60.02474059759696,
ash.wav,ash.mpg,ash,1,A,Pink_Noise_1_1.wav,Pink_Noise_1_2.wav,"This is an example of an

AUDIO trial",,,,,,,,,,0,0,0,0,,,,,,,,,,,,,,,,,,,,,,,,,13.65680449793581,None,14.640364193939604,None,21.807223754003644,None,23.190456876996905,None,ash,23.190456876996905,None,return,2.4943835709709674,23.273750914027914,None,,,,,,,,,,,,,,,,,,,,,,,,,,,,,,,,,24,001,2023_Feb_16_1713,SpeechDraft1Carolyn_lessNoise_PlusLocalization,2021.2.3,60.02474059759696,
ash.wav,ash.mpg,ash,1,AV,Pink_Noise_1_1.wav,Pink_Noise_1_2.wav,"This is an example of an

AUDIO + VIDEO  trial",,,,,,,,,,0,1,1,1,,,,,,,,,,,,,,,,,,,,,,,,,25.806845037965104,None,26.80713777896017,None,28.290365803986788,None,29.67369544901885,None,ash,29.67369544901885,None,return,3.139145872904919,29.757143251947127,None,,,,,,,,,,,,,,,,,,,,,,,,,,,,,,,,,24,001,2023_Feb_16_1713,SpeechDraft1Carolyn_lessNoise_PlusLocalization,2021.2.3,60.02474059759696,
,,,,,,,,,,,,,,,,,,,,,,,,,,,,,,,,,,,,,,,,,,,,,,,,,,,,,,,,,,,,32.940179332043044,None,space,37.380567603046075,33.12364708201494,None,,,,,,,,,,,,,,,,,,,,,,,,,,,24,001,2023_Feb_16_1713,SpeechDraft1Carolyn_lessNoise_PlusLocalization,2021.2.3,60.02474059759696,
chop.wav,chop.mpg,chop,1,AV,Pink_Noise_1_1.wav,Pink_Noise_1_2.wav,,,,,,,,,,,,,,,0,0,0,82,,,,,,,,,,,,,,,,,,,,,,,70.55693152500317,None,72.04041018593125,None,73.4238166649593,None,chop,73.4238166649593,None,return,4.364860875997692,73.50743399502244,None,,,,,,,,,,,,,,,,,,,,,,,,,,,,,,,,,24,001,2023_Feb_16_1713,SpeechDraft1Carolyn_lessNoise_PlusLocalization,2021.2.3,60.02474059759696,
chick.wav,chick.mpg,chick,4,AV,Pink_Noise_4_1.wav,Pink_Noise_4_2.wav,,,,,,,,,,,,,,,0,1,1,72,,,,,,,,,,,,,,,,,,,,,,,77.89050507999491,None,79.37502769997809,None,80.75714377395343,None,chip,80.75714377395343,None,return,3.34352429502178,80.84062892501242,None,,,,,,,,,,,,,,,,,,,,,,,,,,,,,,,,,24,001,2023_Feb_16_1713,SpeechDraft1Carolyn_lessNoise_PlusLocalization,2021.2.3,60.02474059759696,
gross.wav,gross.mpg,gross,6,A,Pink_Noise_6_1.wav,Pink_Noise_6_2.wav,,,,,,,,,,,,,,,0,2,2,43,,,,,,,,,,,,,,,,,,,,,,,84.20710359700024,None,85.70708197099157,None,87.0904966359958,None,rest,87.0904966359958,None,return,3.2423155979486182,87.17386739898939,None,,,,,,,,,,,,,,,,,,,,,,,,,,,,,,,,,24,001,2023_Feb_16_1713,SpeechDraft1Carolyn_lessNoise_PlusLocalization,2021.2.3,60.02474059759696,
doll.wav,doll.mpg,doll,5,AV,Pink_Noise_5_1.wav,Pink_Noise_5_2.wav,,,,,,,,,,,,,,,0,3,3,64,,,,,,,,,,,,,,,,,,,,,,,90.44060639094096,None,91.94029571197461,None,93.30716269800905,None,doll,93.30716269800905,None,return,3.4256164459511638,93.39051811699755,None,,,,,,,,,,,,,,,,,,,,,,,,,,,,,,,,,24,001,2023_Feb_16_1713,SpeechDraft1Carolyn_lessNoise_PlusLocalization,2021.2.3,60.02474059759696,
fail.wav,fail.mpg,fail,2,A,Pink_Noise_2_1.wav,Pink_Noise_2_2.wav,,,,,,,,,,,,,,,0,4,4,49,,,,,,,,,,,,,,,,,,,,,,,96.84059070097283,None,98.3236804479966,None,99.70719029393513,None,bail,99.70719029393513,None,return,2.5296887130243704,99.79051342897583,None,,,,,,,,,,,,,,,,,,,,,,,,,,,,,,,,,24,001,2023_Feb_16_1713,SpeechDraft1Carolyn_lessNoise_PlusLocalization,2021.2.3,60.02474059759696,
duet.wav,duet.mpg,duet,1,AV,Pink_Noise_1_1.wav,Pink_Noise_1_2.wav,,,,,,,,,,,,,,,0,5,5,75,,,,,,,,,,,,,,,,,,,,,,,102.34049803693779,None,103.82358815299813,None,105.20723678998183,None,duey,105.20723678998183,None,return,2.6295652049593627,105.29060199996457,None,,,,,,,,,,,,,,,,,,,,,,,,,,,,,,,,,24,001,2023_Feb_16_1713,SpeechDraft1Carolyn_lessNoise_PlusLocalization,2021.2.3,60.02474059759696,
goose.wav,goose.mpg,goose,6,AV,Pink_Noise_6_1.wav,Pink_Noise_6_2.wav,,,,,,,,,,,,,,,0,6,6,96,,,,,,,,,,,,,,,,,,,,,,,107.94078745297156,None,109.42369705799501,None,110.80709736596327,None,"loose
",110.80709736596327,None,return,6.517606241046451,110.89053606102243,None,,,,,,,,,,,,,,,,,,,,,,,,,,,,,,,,,24,001,2023_Feb_16_1713,SpeechDraft1Carolyn_lessNoise_PlusLocalization,2021.2.3,60.02474059759696,
wine.wav,wine.mpg,wine,5,AV,Pink_Noise_5_1.wav,Pink_Noise_5_2.wav,,,,,,,,,,,,,,,0,7,7,91,,,,,,,,,,,,,,,,,,,,,,,117.44053483696189,None,118.9236558059929,None,120.30716157099232,None,"wild
",120.30716157099232,None,return,1.833536728983745,120.3906134419376,None,,,,,,,,,,,,,,,,,,,,,,,,,,,,,,,,,24,001,2023_Feb_16_1713,SpeechDraft1Carolyn_lessNoise_PlusLocalization,2021.2.3,60.02474059759696,
bare.wav,bare.mpg,bare,6,A,Pink_Noise_6_1.wav,Pink_Noise_6_2.wav,,,,,,,,,,,,,,,0,8,8,22,,,,,,,,,,,,,,,,,,,,,,,122.25726830493659,None,123.74039476097096,None,125.12381278502289,None,hair,125.12381278502289,None,return,1.5929940309142694,125.20714092603885,None,,,,,,,,,,,,,,,,,,,,,,,,,,,,,,,,,24,001,2023_Feb_16_1713,SpeechDraft1Carolyn_lessNoise_PlusLocalization,2021.2.3,60.02474059759696,
block.wav,block.mpg,block,2,AV,Pink_Noise_2_1.wav,Pink_Noise_2_2.wav,,,,,,,,,,,,,,,0,9,9,74,,,,,,,,,,,,,,,,,,,,,,,126.8241202950012,None,128.30704842996784,None,129.69046960095875,None,block,129.69046960095875,None,return,4.730360080953687,129.77389266202226,None,,,,,,,,,,,,,,,,,,,,,,,,,,,,,,,,,24,001,2023_Feb_16_1713,SpeechDraft1Carolyn_lessNoise_PlusLocalization,2021.2.3,60.02474059759696,
count.wav,count.mpg,count,2,A,Pink_Noise_2_1.wav,Pink_Noise_2_2.wav,,,,,,,,,,,,,,,0,10,10,25,,,,,,,,,,,,,,,,,,,,,,,134.52392700093333,None,136.0093279799912,None,137.3905712410342,None,"coat
",137.3905712410342,None,return,2.486220006016083,137.47392916900571,None,,,,,,,,,,,,,,,,,,,,,,,,,,,,,,,,,24,001,2023_Feb_16_1713,SpeechDraft1Carolyn_lessNoise_PlusLocalization,2021.2.3,60.02474059759696,
grab.wav,grab.mpg,grab,1,AV,Pink_Noise_1_1.wav,Pink_Noise_1_2.wav,,,,,,,,,,,,,,,0,11,11,89,,,,,,,,,,,,,,,,,,,,,,,139.99055370199494,None,141.47373674693517,None,142.85718703002203,None,grab,142.85718703002203,None,return,1.9875695130322129,142.940573889995,None,,,,,,,,,,,,,,,,,,,,,,,,,,,,,,,,,24,001,2023_Feb_16_1713,SpeechDraft1Carolyn_lessNoise_PlusLocalization,2021.2.3,60.02474059759696,
guilt.wav,guilt.mpg,guilt,3,A,Pink_Noise_3_1.wav,Pink_Noise_3_2.wav,,,,,,,,,,,,,,,0,12,12,37,,,,,,,,,,,,,,,,,,,,,,,144.95723539893515,None,146.44250432797708,None,147.82384348195046,None,guilt,147.82384348195046,None,return,3.012849489110522,147.90733589592855,None,,,,,,,,,,,,,,,,,,,,,,,,,,,,,,,,,24,001,2023_Feb_16_1713,SpeechDraft1Carolyn_lessNoise_PlusLocalization,2021.2.3,60.02474059759696,
beef.wav,beef.mpg,beef,3,A,Pink_Noise_3_1.wav,Pink_Noise_3_2.wav,,,,,,,,,,,,,,,0,13,13,28,,,,,,,,,,,,,,,,,,,,,,,150.94073341600597,None,152.42380409198813,None,153.80730254098307,None,think,153.80730254098307,None,return,13.973580388934352,153.89061834698077,None,,,,,,,,,,,,,,,,,,,,,,,,,,,,,,,,,24,001,2023_Feb_16_1713,SpeechDraft1Carolyn_lessNoise_PlusLocalization,2021.2.3,60.02474059759696,
green.wav,green.mpg,green,3,AV,Pink_Noise_3_1.wav,Pink_Noise_3_2.wav,,,,,,,,,,,,,,,0,14,14,93,,,,,,,,,,,,,,,,,,,,,,,167.89081511693075,None,169.3905232020188,None,170.7738731999416,None,green,170.7738731999416,None,return,2.8229210779536515,170.85731978004333,None,,,,,,,,,,,,,,,,,,,,,,,,,,,,,,,,,24,001,2023_Feb_16_1713,SpeechDraft1Carolyn_lessNoise_PlusLocalization,2021.2.3,60.02474059759696,
bake.wav,bake.mpg,bake,6,AV,Pink_Noise_6_1.wav,Pink_Noise_6_2.wav,,,,,,,,,,,,,,,0,15,15,90,,,,,,,,,,,,,,,,,,,,,,,173.70734889793675,None,175.20709509402514,None,176.57399308797903,None,bake,176.57399308797903,None,return,9.742830027942546,176.65729811496567,None,,,,,,,,,,,,,,,,,,,,,,,,,,,,,,,,,24,001,2023_Feb_16_1713,SpeechDraft1Carolyn_lessNoise_PlusLocalization,2021.2.3,60.02474059759696,
shrimp.wav,shrimp.mpg,shrimp,2,A,Pink_Noise_2_1.wav,Pink_Noise_2_2.wav,,,,,,,,,,,,,,,0,16,16,41,,,,,,,,,,,,,,,,,,,,,,,186.42395832494367,None,187.92364648601506,None,189.29068622400519,None,shrim[,189.29068622400519,None,return,7.057965198997408,189.37418780394364,None,,,,,,,,,,,,,,,,,,,,,,,,,,,,,,,,,24,001,2023_Feb_16_1713,SpeechDraft1Carolyn_lessNoise_PlusLocalization,2021.2.3,60.02474059759696,
fast.wav,fast.mpg,fast,6,A,Pink_Noise_6_1.wav,Pink_Noise_6_2.wav,,,,,,,,,,,,,,,0,17,17,36,,,,,,,,,,,,,,,,,,,,,,,196.45728068903554,None,197.95720535202418,None,199.3406609640224,None,test,199.3406609640224,None,return,4.0162375449435785,199.42399837903213,None,,,,,,,,,,,,,,,,,,,,,,,,,,,,,,,,,24,001,2023_Feb_16_1713,SpeechDraft1Carolyn_lessNoise_PlusLocalization,2021.2.3,60.02474059759696,
foil.wav,foil.mpg,foil,1,A,Pink_Noise_1_1.wav,Pink_Noise_1_2.wav,,,,,,,,,,,,,,,0,18,18,26,,,,,,,,,,,,,,,,,,,,,,,203.45750620099716,None,204.94069919898175,None,206.32396311103366,None,"foil
",206.32396311103366,None,return,5.216782795963809,206.40735640993807,None,,,,,,,,,,,,,,,,,,,,,,,,,,,,,,,,,24,001,2023_Feb_16_1713,SpeechDraft1Carolyn_lessNoise_PlusLocalization,2021.2.3,60.02474059759696,
skull.wav,skull.mpg,skull,6,AV,Pink_Noise_6_1.wav,Pink_Noise_6_2.wav,,,,,,,,,,,,,,,0,19,19,84,,,,,,,,,,,,,,,,,,,,,,,211.65736308402847,None,213.14056810201146,None,214.52396739600226,None,dog,214.52396739600226,None,return,6.328712504007854,214.60743912495673,None,,,,,,,,,,,,,,,,,,,,,,,,,,,,,,,,,24,001,2023_Feb_16_1713,SpeechDraft1Carolyn_lessNoise_PlusLocalization,2021.2.3,60.02474059759696,
flat.wav,flat.mpg,flat,6,A,Pink_Noise_6_1.wav,Pink_Noise_6_2.wav,,,,,,,,,,,,,,,0,20,20,2,,,,,,,,,,,,,,,,,,,,,,,220.95751219801605,None,222.44270992395468,None,223.82415752694942,None,sound,223.82415752694942,None,return,4.324721701908857,223.90743251901586,None,,,,,,,,,,,,,,,,,,,,,,,,,,,,,,,,,24,001,2023_Feb_16_1713,SpeechDraft1Carolyn_lessNoise_PlusLocalization,2021.2.3,60.02474059759696,
unit.wav,unit.mpg,unit,4,A,Pink_Noise_4_1.wav,Pink_Noise_4_2.wav,,,,,,,,,,,,,,,0,21,21,45,,,,,,,,,,,,,,,,,,,,,,,228.25765419297386,None,229.74052242701873,None,231.12415163195692,None,"duet
",231.12415163195692,None,return,3.5688238240545616,231.20733948703855,None,,,,,,,,,,,,,,,,,,,,,,,,,,,,,,,,,24,001,2023_Feb_16_1713,SpeechDraft1Carolyn_lessNoise_PlusLocalization,2021.2.3,60.02474059759696,
belch.wav,belch.mpg,belch,2,A,Pink_Noise_2_1.wav,Pink_Noise_2_2.wav,,,,,,,,,,,,,,,0,22,22,8,,,,,,,,,,,,,,,,,,,,,,,234.80740692396648,None,236.30716950597707,None,237.67416635493282,None,belch,237.67416635493282,None,return,3.5627314569428563,237.75741903099697,None,,,,,,,,,,,,,,,,,,,,,,,,,,,,,,,,,24,001,2023_Feb_16_1713,SpeechDraft1Carolyn_lessNoise_PlusLocalization,2021.2.3,60.02474059759696,
bug.wav,bug.mpg,bug,5,AV,Pink_Noise_5_1.wav,Pink_Noise_5_2.wav,,,,,,,,,,,,,,,0,23,23,108,,,,,,,,,,,,,,,,,,,,,,,241.34072465193458,None,242.8241644980153,None,244.20740211603697,None,bug,244.20740211603697,None,return,4.709326962009072,244.29077953496017,None,,,,,,,,,,,,,,,,,,,,,,,,,,,,,,,,,24,001,2023_Feb_16_1713,SpeechDraft1Carolyn_lessNoise_PlusLocalization,2021.2.3,60.02474059759696,
goal.wav,goal.mpg,goal,5,A,Pink_Noise_5_1.wav,Pink_Noise_5_2.wav,,,,,,,,,,,,,,,0,24,24,14,,,,,,,,,,,,,,,,,,,,,,,249.02413005800918,None,250.5072831939906,None,251.89072951301932,None,goal,251.89072951301932,None,return,3.730083203059621,251.97412856598385,None,,,,,,,,,,,,,,,,,,,,,,,,,,,,,,,,,24,001,2023_Feb_16_1713,SpeechDraft1Carolyn_lessNoise_PlusLocalization,2021.2.3,60.02474059759696,
debt.wav,debt.mpg,debt,6,A,Pink_Noise_6_1.wav,Pink_Noise_6_2.wav,,,,,,,,,,,,,,,0,25,25,32,,,,,,,,,,,,,,,,,,,,,,,255.7240705350414,None,257.2239225199446,None,258.60742654895876,None,get,258.60742654895876,None,return,5.981397044961341,258.6907580109546,None,,,,,,,,,,,,,,,,,,,,,,,,,,,,,,,,,24,001,2023_Feb_16_1713,SpeechDraft1Carolyn_lessNoise_PlusLocalization,2021.2.3,60.02474059759696,
fresh.wav,fresh.mpg,fresh,4,AV,Pink_Noise_4_1.wav,Pink_Noise_4_2.wav,,,,,,,,,,,,,,,0,26,26,85,,,,,,,,,,,,,,,,,,,,,,,264.69069657998625,None,266.1744920560159,None,267.5574563900009,None,fresh,267.5574563900009,None,return,3.2714145209174603,267.6407710330095,None,,,,,,,,,,,,,,,,,,,,,,,,,,,,,,,,,24,001,2023_Feb_16_1713,SpeechDraft1Carolyn_lessNoise_PlusLocalization,2021.2.3,60.02474059759696,
duck.wav,duck.mpg,duck,6,A,Pink_Noise_6_1.wav,Pink_Noise_6_2.wav,,,,,,,,,,,,,,,0,27,27,39,,,,,,,,,,,,,,,,,,,,,,,270.94086618500296,None,272.4240185730159,None,273.8073984660441,None,get,273.8073984660441,None,return,5.21343237394467,273.8907876650337,None,,,,,,,,,,,,,,,,,,,,,,,,,,,,,,,,,24,001,2023_Feb_16_1713,SpeechDraft1Carolyn_lessNoise_PlusLocalization,2021.2.3,60.02474059759696,
bruise.wav,bruise.mpg,bruise,6,AV,Pink_Noise_6_1.wav,Pink_Noise_6_2.wav,,,,,,,,,,,,,,,0,28,28,111,,,,,,,,,,,,,,,,,,,,,,,279.1242173309438,None,280.60710757703055,None,281.9906636199448,None,fish,281.9906636199448,None,return,13.582107500988059,282.0741258839844,None,,,,,,,,,,,,,,,,,,,,,,,,,,,,,,,,,24,001,2023_Feb_16_1713,SpeechDraft1Carolyn_lessNoise_PlusLocalization,2021.2.3,60.02474059759696,
coast.wav,coast.mpg,coast,4,AV,Pink_Noise_4_1.wav,Pink_Noise_4_2.wav,,,,,,,,,,,,,,,0,29,29,119,,,,,,,,,,,,,,,,,,,,,,,295.6741828719387,None,297.15733690501656,None,298.5407365600113,None,ghost,298.5407365600113,None,return,6.224066295078956,298.6241346129682,None,,,,,,,,,,,,,,,,,,,,,,,,,,,,,,,,,24,001,2023_Feb_16_1713,SpeechDraft1Carolyn_lessNoise_PlusLocalization,2021.2.3,60.02474059759696,
creek.wav,creek.mpg,creek,4,AV,Pink_Noise_4_1.wav,Pink_Noise_4_2.wav,,,,,,,,,,,,,,,0,30,30,118,,,,,,,,,,,,,,,,,,,,,,,304.87420317402575,None,306.3574470039457,None,307.7408233289607,None,treat,307.7408233289607,None,return,3.0319949579425156,307.8242291159695,None,,,,,,,,,,,,,,,,,,,,,,,,,,,,,,,,,24,001,2023_Feb_16_1713,SpeechDraft1Carolyn_lessNoise_PlusLocalization,2021.2.3,60.02474059759696,
fed.wav,fed.mpg,fed,3,AV,Pink_Noise_3_1.wav,Pink_Noise_3_2.wav,,,,,,,,,,,,,,,0,31,31,87,,,,,,,,,,,,,,,,,,,,,,,310.87412695400417,None,312.37401640194,None,313.7574832609389,None,"fend
",313.7574832609389,None,return,8.703406888060272,313.8407308870228,None,,,,,,,,,,,,,,,,,,,,,,,,,,,,,,,,,24,001,2023_Feb_16_1713,SpeechDraft1Carolyn_lessNoise_PlusLocalization,2021.2.3,60.02474059759696,
bring.wav,bring.mpg,bring,6,AV,Pink_Noise_6_1.wav,Pink_Noise_6_2.wav,,,,,,,,,,,,,,,0,32,32,101,,,,,,,,,,,,,,,,,,,,,,,322.5742619050434,None,324.0573599280324,None,325.440787110012,None,brain,325.440787110012,None,return,6.995990787982009,325.5241399599472,None,,,,,,,,,,,,,,,,,,,,,,,,,,,,,,,,,24,001,2023_Feb_16_1713,SpeechDraft1Carolyn_lessNoise_PlusLocalization,2021.2.3,60.02474059759696,
float.wav,float.mpg,float,4,AV,Pink_Noise_4_1.wav,Pink_Noise_4_2.wav,,,,,,,,,,,,,,,0,33,33,102,,,,,,,,,,,,,,,,,,,,,,,332.5409412350273,None,334.04071299300995,None,335.4075506000081,None,"goat
",335.4075506000081,None,return,4.837309982976876,335.49083101097494,None,,,,,,,,,,,,,,,,,,,,,,,,,,,,,,,,,24,001,2023_Feb_16_1713,SpeechDraft1Carolyn_lessNoise_PlusLocalization,2021.2.3,60.02474059759696,
clash.wav,clash.mpg,clash,4,A,Pink_Noise_4_1.wav,Pink_Noise_4_2.wav,,,,,,,,,,,,,,,0,34,34,27,,,,,,,,,,,,,,,,,,,,,,,340.35760991601273,None,341.8407096279552,None,343.22405649593566,None,mash,343.22405649593566,None,return,2.356722715892829,343.3075118709821,None,,,,,,,,,,,,,,,,,,,,,,,,,,,,,,,,,24,001,2023_Feb_16_1713,SpeechDraft1Carolyn_lessNoise_PlusLocalization,2021.2.3,60.02474059759696,
clot.wav,clot.mpg,clot,3,AV,Pink_Noise_3_1.wav,Pink_Noise_3_2.wav,,,,,,,,,,,,,,,0,35,35,63,,,,,,,,,,,,,,,,,,,,,,,345.6909522350179,None,347.190601950977,None,348.5741554129636,None,clat,348.5741554129636,None,return,3.390664807986468,348.6575823100284,None,,,,,,,,,,,,,,,,,,,,,,,,,,,,,,,,,24,001,2023_Feb_16_1713,SpeechDraft1Carolyn_lessNoise_PlusLocalization,2021.2.3,60.02474059759696,
frame.wav,frame.mpg,frame,4,AV,Pink_Noise_4_1.wav,Pink_Noise_4_2.wav,,,,,,,,,,,,,,,0,36,36,97,,,,,,,,,,,,,,,,,,,,,,,352.0742917309981,None,353.5740306429798,None,354.9575680879643,None,"strange
",354.9575680879643,None,return,13.95117700798437,355.04093628400005,None,,,,,,,,,,,,,,,,,,,,,,,,,,,,,,,,,24,001,2023_Feb_16_1713,SpeechDraft1Carolyn_lessNoise_PlusLocalization,2021.2.3,60.02474059759696,
hit.wav,hit.mpg,hit,3,A,Pink_Noise_3_1.wav,Pink_Noise_3_2.wav,,,,,,,,,,,,,,,0,37,37,34,,,,,,,,,,,,,,,,,,,,,,,369.0242059979355,None,370.5240271410439,None,371.90760965598747,None,hiy,371.90760965598747,None,return,6.633209682069719,371.9909839190077,None,,,,,,,,,,,,,,,,,,,,,,,,,,,,,,,,,24,001,2023_Feb_16_1713,SpeechDraft1Carolyn_lessNoise_PlusLocalization,2021.2.3,60.02474059759696,
guard.wav,guard.mpg,guard,4,AV,Pink_Noise_4_1.wav,Pink_Noise_4_2.wav,,,,,,,,,,,,,,,0,38,38,116,,,,,,,,,,,,,,,,,,,,,,,378.64078877097927,None,380.14080076897517,None,381.52426716999616,None,guard,381.52426716999616,None,return,5.10455802292563,381.60756452800706,None,,,,,,,,,,,,,,,,,,,,,,,,,,,,,,,,,24,001,2023_Feb_16_1713,SpeechDraft1Carolyn_lessNoise_PlusLocalization,2021.2.3,60.02474059759696,
cop.wav,cop.mpg,cop,5,A,Pink_Noise_5_1.wav,Pink_Noise_5_2.wav,,,,,,,,,,,,,,,0,39,39,5,,,,,,,,,,,,,,,,,,,,,,,386.7409755369881,None,388.22414125304203,None,389.60762973397505,None,sto[,389.60762973397505,None,return,5.861234958982095,389.6909283120185,None,,,,,,,,,,,,,,,,,,,,,,,,,,,,,,,,,24,001,2023_Feb_16_1713,SpeechDraft1Carolyn_lessNoise_PlusLocalization,2021.2.3,60.02474059759696,
glare.wav,glare.mpg,glare,2,AV,Pink_Noise_2_1.wav,Pink_Noise_2_2.wav,,,,,,,,,,,,,,,0,40,40,107,,,,,,,,,,,,,,,,,,,,,,,395.574310314958,None,397.0585402540164,None,398.44090926193167,None,"glare
",398.44090926193167,None,return,7.051861491985619,398.5243126739515,None,,,,,,,,,,,,,,,,,,,,,,,,,,,,,,,,,24,001,2023_Feb_16_1713,SpeechDraft1Carolyn_lessNoise_PlusLocalization,2021.2.3,60.02474059759696,
blade.wav,blade.mpg,blade,3,AV,Pink_Noise_3_1.wav,Pink_Noise_3_2.wav,,,,,,,,,,,,,,,0,41,41,100,,,,,,,,,,,,,,,,,,,,,,,405.6076088369591,None,407.09074125194456,None,408.4742144829361,None,blade,408.4742144829361,None,return,3.906649391981773,408.5576015119441,None,,,,,,,,,,,,,,,,,,,,,,,,,,,,,,,,,24,001,2023_Feb_16_1713,SpeechDraft1Carolyn_lessNoise_PlusLocalization,2021.2.3,60.02474059759696,
brown.wav,brown.mpg,brown,6,AV,Pink_Noise_6_1.wav,Pink_Noise_6_2.wav,,,,,,,,,,,,,,,0,42,42,69,,,,,,,,,,,,,,,,,,,,,,,412.4910419200314,None,413.97410790401045,None,415.3576410409296,None,smell,415.3576410409296,None,return,10.815199097036384,415.44103667896707,None,,,,,,,,,,,,,,,,,,,,,,,,,,,,,,,,,24,001,2023_Feb_16_1713,SpeechDraft1Carolyn_lessNoise_PlusLocalization,2021.2.3,60.02474059759696,
film.wav,film.mpg,film,4,A,Pink_Noise_4_1.wav,Pink_Noise_4_2.wav,,,,,,,,,,,,,,,0,43,43,56,,,,,,,,,,,,,,,,,,,,,,,426.2742889469955,None,427.75916071701795,None,429.1409391670022,None,film,429.1409391670022,None,return,6.471795351943001,429.22444655001163,None,,,,,,,,,,,,,,,,,,,,,,,,,,,,,,,,,24,001,2023_Feb_16_1713,SpeechDraft1Carolyn_lessNoise_PlusLocalization,2021.2.3,60.02474059759696,
gray.wav,gray.mpg,gray,3,AV,Pink_Noise_3_1.wav,Pink_Noise_3_2.wav,,,,,,,,,,,,,,,0,44,44,62,,,,,,,,,,,,,,,,,,,,,,,435.72428435995243,None,437.20758685597684,None,438.5909312959993,None,gray,438.5909312959993,None,return,12.765938673983328,438.67430545703974,None,,,,,,,,,,,,,,,,,,,,,,,,,,,,,,,,,24,001,2023_Feb_16_1713,SpeechDraft1Carolyn_lessNoise_PlusLocalization,2021.2.3,60.02474059759696,
fence.wav,fence.mpg,fence,6,A,Pink_Noise_6_1.wav,Pink_Noise_6_2.wav,,,,,,,,,,,,,,,0,45,45,50,,,,,,,,,,,,,,,,,,,,,,,451.4576552809449,None,452.9407961949473,None,454.3243378639454,None,scent,454.3243378639454,None,return,4.216452997061424,454.40776563598774,None,,,,,,,,,,,,,,,,,,,,,,,,,,,,,,,,,24,001,2023_Feb_16_1713,SpeechDraft1Carolyn_lessNoise_PlusLocalization,2021.2.3,60.02474059759696,
thief.wav,thief.mpg,thief,1,A,Pink_Noise_1_1.wav,Pink_Noise_1_2.wav,,,,,,,,,,,,,,,0,46,46,40,,,,,,,,,,,,,,,,,,,,,,,458.64100070192944,None,460.12442943896167,None,461.50782329100184,None,thief,461.50782329100184,None,return,5.209152427967638,461.59098217100836,None,,,,,,,,,,,,,,,,,,,,,,,,,,,,,,,,,24,001,2023_Feb_16_1713,SpeechDraft1Carolyn_lessNoise_PlusLocalization,2021.2.3,60.02474059759696,
swayed.wav,swayed.mpg,swayed,2,AV,Pink_Noise_2_1.wav,Pink_Noise_2_2.wav,,,,,,,,,,,,,,,0,47,47,77,,,,,,,,,,,,,,,,,,,,,,,466.8243594489759,None,468.3078095760429,None,469.69101669604424,None,swayed,469.69101669604424,None,return,4.55375406506937,469.7743846400408,None,,,,,,,,,,,,,,,,,,,,,,,,,,,,,,,,,24,001,2023_Feb_16_1713,SpeechDraft1Carolyn_lessNoise_PlusLocalization,2021.2.3,60.02474059759696,
dual.wav,dual.mpg,dual,2,A,Pink_Noise_2_1.wav,Pink_Noise_2_2.wav,,,,,,,,,,,,,,,0,48,48,48,,,,,,,,,,,,,,,,,,,,,,,474.3576560890069,None,475.8408817279851,None,477.22442203201354,None,duel,477.22442203201354,None,return,9.93244935106486,477.3077719550347,None,,,,,,,,,,,,,,,,,,,,,,,,,,,,,,,,,24,001,2023_Feb_16_1713,SpeechDraft1Carolyn_lessNoise_PlusLocalization,2021.2.3,60.02474059759696,
chat.wav,chat.mpg,chat,5,AV,Pink_Noise_5_1.wav,Pink_Noise_5_2.wav,,,,,,,,,,,,,,,0,49,49,81,,,,,,,,,,,,,,,,,,,,,,,487.2578589449404,None,488.7408428119961,None,490.1245375239523,None,chant,490.1245375239523,None,return,16.0484277959913,490.20780800294597,None,,,,,,,,,,,,,,,,,,,,,,,,,,,,,,,,,24,001,2023_Feb_16_1713,SpeechDraft1Carolyn_lessNoise_PlusLocalization,2021.2.3,60.02474059759696,
foam.wav,foam.mpg,foam,5,A,Pink_Noise_5_1.wav,Pink_Noise_5_2.wav,,,,,,,,,,,,,,,0,50,50,12,,,,,,,,,,,,,,,,,,,,,,,506.27433786098845,None,507.7743242980214,None,509.15782292501535,None,"stole
",509.15782292501535,None,return,9.75094261195045,509.24121940799523,None,,,,,,,,,,,,,,,,,,,,,,,,,,,,,,,,,24,001,2023_Feb_16_1713,SpeechDraft1Carolyn_lessNoise_PlusLocalization,2021.2.3,60.02474059759696,
grand.wav,grand.mpg,grand,2,AV,Pink_Noise_2_1.wav,Pink_Noise_2_2.wav,,,,,,,,,,,,,,,0,51,51,80,,,,,,,,,,,,,,,,,,,,,,,519.0244914169889,None,520.5242737570079,None,521.9077766389819,None,grand,521.9077766389819,None,return,12.657071428955533,521.9911736609647,None,,,,,,,,,,,,,,,,,,,,,,,,,,,,,,,,,24,001,2023_Feb_16_1713,SpeechDraft1Carolyn_lessNoise_PlusLocalization,2021.2.3,60.02474059759696,
cord.wav,cord.mpg,cord,3,A,Pink_Noise_3_1.wav,Pink_Noise_3_2.wav,,,,,,,,,,,,,,,0,52,52,24,,,,,,,,,,,,,,,,,,,,,,,534.6744673360372,None,536.1579169490142,None,537.5412245389307,None,"cord
",537.5412245389307,None,return,8.167590206023306,537.6245327140205,None,,,,,,,,,,,,,,,,,,,,,,,,,,,,,,,,,24,001,2023_Feb_16_1713,SpeechDraft1Carolyn_lessNoise_PlusLocalization,2021.2.3,60.02474059759696,
chart.wav,chart.mpg,chart,1,AV,Pink_Noise_1_1.wav,Pink_Noise_1_2.wav,,,,,,,,,,,,,,,0,53,53,106,,,,,,,,,,,,,,,,,,,,,,,545.8244580839528,None,547.3075893049827,None,548.6911763129756,None,chart,548.6911763129756,None,return,2.481745146913454,548.7744762329385,None,,,,,,,,,,,,,,,,,,,,,,,,,,,,,,,,,24,001,2023_Feb_16_1713,SpeechDraft1Carolyn_lessNoise_PlusLocalization,2021.2.3,60.02474059759696,
bloom.wav,bloom.mpg,bloom,6,A,Pink_Noise_6_1.wav,Pink_Noise_6_2.wav,,,,,,,,,,,,,,,0,54,54,13,,,,,,,,,,,,,,,,,,,,,,,551.2745219219942,None,552.7743942169473,None,554.1579277559649,None,"static\
",554.1579277559649,None,return,10.359089302946813,554.2411907470087,None,,,,,,,,,,,,,,,,,,,,,,,,,,,,,,,,,24,001,2023_Feb_16_1713,SpeechDraft1Carolyn_lessNoise_PlusLocalization,2021.2.3,60.02474059759696,
teen.wav,teen.mpg,teen,4,A,Pink_Noise_4_1.wav,Pink_Noise_4_2.wav,,,,,,,,,,,,,,,0,55,55,1,,,,,,,,,,,,,,,,,,,,,,,564.6413532639854,None,566.1248042880325,None,567.5078947989969,None,teem,567.5078947989969,None,return,4.305011329008266,567.5911952130264,None,,,,,,,,,,,,,,,,,,,,,,,,,,,,,,,,,24,001,2023_Feb_16_1713,SpeechDraft1Carolyn_lessNoise_PlusLocalization,2021.2.3,60.02474059759696,
gulf.wav,gulf.mpg,gulf,1,A,Pink_Noise_1_1.wav,Pink_Noise_1_2.wav,,,,,,,,,,,,,,,0,56,56,9,,,,,,,,,,,,,,,,,,,,,,,571.924593674019,None,573.4243180489866,None,574.8078556000255,None,golf,574.8078556000255,None,return,36.95700582198333,574.8912162689958,None,,,,,,,,,,,,,,,,,,,,,,,,,,,,,,,,,24,001,2023_Feb_16_1713,SpeechDraft1Carolyn_lessNoise_PlusLocalization,2021.2.3,60.02474059759696,
pop.wav,pop.mpg,pop,2,AV,Pink_Noise_2_1.wav,Pink_Noise_2_2.wav,,,,,,,,,,,,,,,0,57,57,104,,,,,,,,,,,,,,,,,,,,,,,611.8746254870202,None,613.3584115279373,None,614.7412211960182,None,popped,614.7412211960182,None,return,14.999604131095111,614.8246369300177,None,,,,,,,,,,,,,,,,,,,,,,,,,,,,,,,,,24,001,2023_Feb_16_1713,SpeechDraft1Carolyn_lessNoise_PlusLocalization,2021.2.3,60.02474059759696,
roar.wav,roar.mpg,roar,4,A,Pink_Noise_4_1.wav,Pink_Noise_4_2.wav,,,,,,,,,,,,,,,0,58,58,16,,,,,,,,,,,,,,,,,,,,,,,629.8412231479306,None,631.3411116820062,None,632.7246451459359,None,glorn,632.7246451459359,None,return,11.528227303060703,632.8079723450355,None,,,,,,,,,,,,,,,,,,,,,,,,,,,,,,,,,24,001,2023_Feb_16_1713,SpeechDraft1Carolyn_lessNoise_PlusLocalization,2021.2.3,60.02474059759696,
coal.wav,coal.mpg,coal,2,AV,Pink_Noise_2_1.wav,Pink_Noise_2_2.wav,,,,,,,,,,,,,,,0,59,59,83,,,,,,,,,,,,,,,,,,,,,,,644.3579113549786,None,645.8577939620009,None,647.2412279240089,None,coal,647.2412279240089,None,return,5.363524772925302,647.3246958309319,None,,,,,,,,,,,,,,,,,,,,,,,,,,,,,,,,,24,001,2023_Feb_16_1713,SpeechDraft1Carolyn_lessNoise_PlusLocalization,2021.2.3,60.02474059759696,
phase.wav,phase.mpg,phase,1,A,Pink_Noise_1_1.wav,Pink_Noise_1_2.wav,,,,,,,,,,,,,,,0,60,60,53,,,,,,,,,,,,,,,,,,,,,,,652.707943661022,None,654.2077671509469,None,655.5914249540074,None,"phase
",655.5914249540074,None,return,4.253520310041495,655.674621512997,None,,,,,,,,,,,,,,,,,,,,,,,,,,,,,,,,,24,001,2023_Feb_16_1713,SpeechDraft1Carolyn_lessNoise_PlusLocalization,2021.2.3,60.02474059759696,
blood.wav,blood.mpg,blood,1,A,Pink_Noise_1_1.wav,Pink_Noise_1_2.wav,,,,,,,,,,,,,,,0,61,61,6,,,,,,,,,,,,,,,,,,,,,,,659.9579260350438,None,661.4412377229892,None,662.824717388954,None,"blood
",662.824717388954,None,return,4.052227938082069,662.9079178239917,None,,,,,,,,,,,,,,,,,,,,,,,,,,,,,,,,,24,001,2023_Feb_16_1713,SpeechDraft1Carolyn_lessNoise_PlusLocalization,2021.2.3,60.02474059759696,
base.wav,base.mpg,base,1,AV,Pink_Noise_1_1.wav,Pink_Noise_1_2.wav,,,,,,,,,,,,,,,0,62,62,67,,,,,,,,,,,,,,,,,,,,,,,666.9913902690168,None,668.4751013149507,None,669.8581181829795,None,base,669.8581181829795,None,return,3.906808791914955,669.941393016954,None,,,,,,,,,,,,,,,,,,,,,,,,,,,,,,,,,24,001,2023_Feb_16_1713,SpeechDraft1Carolyn_lessNoise_PlusLocalization,2021.2.3,60.02474059759696,
wind.wav,wind.mpg,wind,5,AV,Pink_Noise_5_1.wav,Pink_Noise_5_2.wav,,,,,,,,,,,,,,,0,63,63,103,,,,,,,,,,,,,,,,,,,,,,,673.8746793270111,None,675.3744092240231,None,676.7580015209969,None,wade,676.7580015209969,None,return,3.078726690961048,676.8414143240079,None,,,,,,,,,,,,,,,,,,,,,,,,,,,,,,,,,24,001,2023_Feb_16_1713,SpeechDraft1Carolyn_lessNoise_PlusLocalization,2021.2.3,60.02474059759696,
brand.wav,brand.mpg,brand,1,AV,Pink_Noise_1_1.wav,Pink_Noise_1_2.wav,,,,,,,,,,,,,,,0,64,64,105,,,,,,,,,,,,,,,,,,,,,,,679.9413770450046,None,681.4411045809975,None,682.8246795090381,None,"brand
",682.8246795090381,None,return,5.268052087049,682.9080888880417,None,,,,,,,,,,,,,,,,,,,,,,,,,,,,,,,,,24,001,2023_Feb_16_1713,SpeechDraft1Carolyn_lessNoise_PlusLocalization,2021.2.3,60.02474059759696,
globe.wav,globe.mpg,globe,1,A,Pink_Noise_1_1.wav,Pink_Noise_1_2.wav,,,,,,,,,,,,,,,0,65,65,3,,,,,,,,,,,,,,,,,,,,,,,688.208028870984,None,689.7078087889822,None,691.0914139939705,None,globr,691.0914139939705,None,return,4.505577639094554,691.1746479480062,None,,,,,,,,,,,,,,,,,,,,,,,,,,,,,,,,,24,001,2023_Feb_16_1713,SpeechDraft1Carolyn_lessNoise_PlusLocalization,2021.2.3,60.02474059759696,
boat.wav,boat.mpg,boat,4,A,Pink_Noise_4_1.wav,Pink_Noise_4_2.wav,,,,,,,,,,,,,,,0,66,66,52,,,,,,,,,,,,,,,,,,,,,,,695.7080604929943,None,697.1912126400275,None,698.5747225090163,None,boat,698.5747225090163,None,return,2.74213286396116,698.658032234991,None,,,,,,,,,,,,,,,,,,,,,,,,,,,,,,,,,24,001,2023_Feb_16_1713,SpeechDraft1Carolyn_lessNoise_PlusLocalization,2021.2.3,60.02474059759696,
foot.wav,foot.mpg,foot,6,AV,Pink_Noise_6_1.wav,Pink_Noise_6_2.wav,,,,,,,,,,,,,,,0,67,67,110,,,,,,,,,,,,,,,,,,,,,,,701.4247641939437,None,702.9080060760025,None,704.2913380169775,None,string,704.2913380169775,None,return,19.65744923299644,704.3747823620215,None,,,,,,,,,,,,,,,,,,,,,,,,,,,,,,,,,24,001,2023_Feb_16_1713,SpeechDraft1Carolyn_lessNoise_PlusLocalization,2021.2.3,60.02474059759696,
bright.wav,bright.mpg,bright,5,AV,Pink_Noise_5_1.wav,Pink_Noise_5_2.wav,,,,,,,,,,,,,,,0,68,68,98,,,,,,,,,,,,,,,,,,,,,,,724.0580712410156,None,725.5578943559667,None,726.9414876459632,None,bright,726.9414876459632,None,return,3.7913534640101716,727.0247733879369,None,,,,,,,,,,,,,,,,,,,,,,,,,,,,,,,,,24,001,2023_Feb_16_1713,SpeechDraft1Carolyn_lessNoise_PlusLocalization,2021.2.3,60.02474059759696,
crown.wav,crown.mpg,crown,5,AV,Pink_Noise_5_1.wav,Pink_Noise_5_2.wav,,,,,,,,,,,,,,,0,69,69,113,,,,,,,,,,,,,,,,,,,,,,,730.8413894519908,None,732.3412976019317,None,733.724760810961,None,crowd,733.724760810961,None,return,2.7119882749393582,733.8081583300373,None,,,,,,,,,,,,,,,,,,,,,,,,,,,,,,,,,24,001,2023_Feb_16_1713,SpeechDraft1Carolyn_lessNoise_PlusLocalization,2021.2.3,60.02474059759696,
beg.wav,beg.mpg,beg,3,AV,Pink_Noise_3_1.wav,Pink_Noise_3_2.wav,,,,,,,,,,,,,,,0,70,70,92,,,,,,,,,,,,,,,,,,,,,,,736.5415794799337,None,738.041300814948,None,739.4246885270113,None,beg,739.4246885270113,None,return,2.3801217429572716,739.5080999400234,None,,,,,,,,,,,,,,,,,,,,,,,,,,,,,,,,,24,001,2023_Feb_16_1713,SpeechDraft1Carolyn_lessNoise_PlusLocalization,2021.2.3,60.02474059759696,
stain.wav,stain.mpg,stain,2,A,Pink_Noise_2_1.wav,Pink_Noise_2_2.wav,,,,,,,,,,,,,,,0,71,71,38,,,,,,,,,,,,,,,,,,,,,,,741.9080858719535,None,743.3915160369361,None,744.7747934999643,None,stain,744.7747934999643,None,return,4.198094152961858,744.858057889971,None,,,,,,,,,,,,,,,,,,,,,,,,,,,,,,,,,24,001,2023_Feb_16_1713,SpeechDraft1Carolyn_lessNoise_PlusLocalization,2021.2.3,60.02474059759696,
gym.wav,gym.mpg,gym,2,AV,Pink_Noise_2_1.wav,Pink_Noise_2_2.wav,,,,,,,,,,,,,,,0,72,72,115,,,,,,,,,,,,,,,,,,,,,,,749.0747630490223,None,750.5586696789833,None,751.9414847289445,None,gym,751.9414847289445,None,return,4.847343051922508,752.0247938559623,None,,,,,,,,,,,,,,,,,,,,,,,,,,,,,,,,,24,001,2023_Feb_16_1713,SpeechDraft1Carolyn_lessNoise_PlusLocalization,2021.2.3,60.02474059759696,
steam.wav,steam.mpg,steam,1,AV,Pink_Noise_1_1.wav,Pink_Noise_1_2.wav,,,,,,,,,,,,,,,0,73,73,61,,,,,,,,,,,,,,,,,,,,,,,756.8913783079479,None,758.3913366949419,None,759.7748428089544,None,steam,759.7748428089544,None,return,2.9100544780958444,759.8580788120162,None,,,,,,,,,,,,,,,,,,,,,,,,,,,,,,,,,24,001,2023_Feb_16_1713,SpeechDraft1Carolyn_lessNoise_PlusLocalization,2021.2.3,60.02474059759696,
cheat.wav,cheat.mpg,cheat,4,A,Pink_Noise_4_1.wav,Pink_Noise_4_2.wav,,,,,,,,,,,,,,,0,74,74,42,,,,,,,,,,,,,,,,,,,,,,,762.7914136949694,None,764.2912393009756,None,765.6748069289606,None,cheat,765.6748069289606,None,return,2.2740836939774454,765.7581850170391,None,,,,,,,,,,,,,,,,,,,,,,,,,,,,,,,,,24,001,2023_Feb_16_1713,SpeechDraft1Carolyn_lessNoise_PlusLocalization,2021.2.3,60.02474059759696,
bait.wav,bait.mpg,bait,3,AV,Pink_Noise_3_1.wav,Pink_Noise_3_2.wav,,,,,,,,,,,,,,,0,75,75,68,,,,,,,,,,,,,,,,,,,,,,,768.0583090699511,None,769.5431847799337,None,770.9250132220332,None,bait,770.9250132220332,None,return,1.8320993130328134,771.0081228050403,None,,,,,,,,,,,,,,,,,,,,,,,,,,,,,,,,,24,001,2023_Feb_16_1713,SpeechDraft1Carolyn_lessNoise_PlusLocalization,2021.2.3,60.02474059759696,
chill.wav,chill.mpg,chill,1,AV,Pink_Noise_1_1.wav,Pink_Noise_1_2.wav,,,,,,,,,,,,,,,0,76,76,99,,,,,,,,,,,,,,,,,,,,,,,772.8580884999828,None,774.3431894830428,None,775.7247411729768,None,chill,775.7247411729768,None,return,1.63189765997231,775.8083190020407,None,,,,,,,,,,,,,,,,,,,,,,,,,,,,,,,,,24,001,2023_Feb_16_1713,SpeechDraft1Carolyn_lessNoise_PlusLocalization,2021.2.3,60.02474059759696,
ghost.wav,ghost.mpg,ghost,5,A,Pink_Noise_5_1.wav,Pink_Noise_5_2.wav,,,,,,,,,,,,,,,0,77,77,57,,,,,,,,,,,,,,,,,,,,,,,777.4581239740364,None,778.9579172389349,None,780.3415030169999,None,base,780.3415030169999,None,return,1.7753900800598785,780.4247375809355,None,,,,,,,,,,,,,,,,,,,,,,,,,,,,,,,,,24,001,2023_Feb_16_1713,SpeechDraft1Carolyn_lessNoise_PlusLocalization,2021.2.3,60.02474059759696,
grail.wav,grail.mpg,grail,5,A,Pink_Noise_5_1.wav,Pink_Noise_5_2.wav,,,,,,,,,,,,,,,0,78,78,51,,,,,,,,,,,,,,,,,,,,,,,782.2247809949331,None,783.7245617839508,None,785.0914811299881,None,grail,785.0914811299881,None,return,3.097298976033926,785.1748440819792,None,,,,,,,,,,,,,,,,,,,,,,,,,,,,,,,,,24,001,2023_Feb_16_1713,SpeechDraft1Carolyn_lessNoise_PlusLocalization,2021.2.3,60.02474059759696,
gift.wav,gift.mpg,gift,4,AV,Pink_Noise_4_1.wav,Pink_Noise_4_2.wav,,,,,,,,,,,,,,,0,79,79,112,,,,,,,,,,,,,,,,,,,,,,,788.2913911789656,None,789.791366941994,None,791.1747420029715,None,gift,791.1747420029715,None,return,9.309946520952508,791.2582074799575,None,,,,,,,,,,,,,,,,,,,,,,,,,,,,,,,,,24,001,2023_Feb_16_1713,SpeechDraft1Carolyn_lessNoise_PlusLocalization,2021.2.3,60.02474059759696,
sake.wav,sake.mpg,sake,4,AV,Pink_Noise_4_1.wav,Pink_Noise_4_2.wav,,,,,,,,,,,,,,,0,80,80,95,,,,,,,,,,,,,,,,,,,,,,,800.5915549439378,None,802.0757388219936,None,803.4582182290033,None,sink,803.4582182290033,None,return,4.922769689001143,803.5415032180026,None,,,,,,,,,,,,,,,,,,,,,,,,,,,,,,,,,24,001,2023_Feb_16_1713,SpeechDraft1Carolyn_lessNoise_PlusLocalization,2021.2.3,60.02474059759696,
funk.wav,funk.mpg,funk,4,A,Pink_Noise_4_1.wav,Pink_Noise_4_2.wav,,,,,,,,,,,,,,,0,81,81,31,,,,,,,,,,,,,,,,,,,,,,,808.4915333730169,None,809.9913747929968,None,811.3748032069998,None,flunk,811.3748032069998,None,return,4.725941440090537,811.4581880830228,None,,,,,,,,,,,,,,,,,,,,,,,,,,,,,,,,,24,001,2023_Feb_16_1713,SpeechDraft1Carolyn_lessNoise_PlusLocalization,2021.2.3,60.02474059759696,
deem.wav,deem.mpg,deem,1,A,Pink_Noise_1_1.wav,Pink_Noise_1_2.wav,,,,,,,,,,,,,,,0,82,82,7,,,,,,,,,,,,,,,,,,,,,,,816.2081974019529,None,817.6923342800001,None,819.0749761930201,None,dean,819.0749761930201,None,return,5.697855987935327,819.1583045499865,None,,,,,,,,,,,,,,,,,,,,,,,,,,,,,,,,,24,001,2023_Feb_16_1713,SpeechDraft1Carolyn_lessNoise_PlusLocalization,2021.2.3,60.02474059759696,
gain.wav,gain.mpg,gain,3,A,Pink_Noise_3_1.wav,Pink_Noise_3_2.wav,,,,,,,,,,,,,,,0,83,83,35,,,,,,,,,,,,,,,,,,,,,,,824.8749741689535,None,826.3747142120264,None,827.7582115780097,None,gain,827.7582115780097,None,return,3.206723022973165,827.8415372340241,None,,,,,,,,,,,,,,,,,,,,,,,,,,,,,,,,,24,001,2023_Feb_16_1713,SpeechDraft1Carolyn_lessNoise_PlusLocalization,2021.2.3,60.02474059759696,
two.wav,two.mpg,two,5,A,Pink_Noise_5_1.wav,Pink_Noise_5_2.wav,,,,,,,,,,,,,,,0,84,84,55,,,,,,,,,,,,,,,,,,,,,,,831.0747428309405,None,832.5746031539747,None,833.9582617669366,None,two,833.9582617669366,None,return,3.8305830800672993,834.0415637569968,None,,,,,,,,,,,,,,,,,,,,,,,,,,,,,,,,,24,001,2023_Feb_16_1713,SpeechDraft1Carolyn_lessNoise_PlusLocalization,2021.2.3,60.02474059759696,
bin.wav,bin.mpg,bin,2,AV,Pink_Noise_2_1.wav,Pink_Noise_2_2.wav,,,,,,,,,,,,,,,0,85,85,66,,,,,,,,,,,,,,,,,,,,,,,837.891595544992,None,839.3758045629365,None,840.7581048399443,None,bin,840.7581048399443,None,return,5.678603110020049,840.841547547956,None,,,,,,,,,,,,,,,,,,,,,,,,,,,,,,,,,24,001,2023_Feb_16_1713,SpeechDraft1Carolyn_lessNoise_PlusLocalization,2021.2.3,60.02474059759696,
bye.wav,bye.mpg,bye,5,A,Pink_Noise_5_1.wav,Pink_Noise_5_2.wav,,,,,,,,,,,,,,,0,86,86,17,,,,,,,,,,,,,,,,,,,,,,,846.5417222019751,None,848.0252744939644,None,849.4099841880379,None,five,849.4099841880379,None,return,3.1323601399781182,849.491871441016,None,,,,,,,,,,,,,,,,,,,,,,,,,,,,,,,,,24,001,2023_Feb_16_1713,SpeechDraft1Carolyn_lessNoise_PlusLocalization,2021.2.3,60.02474059759696,
axe.wav,axe.mpg,axe,5,A,Pink_Noise_5_1.wav,Pink_Noise_5_2.wav,,,,,,,,,,,,,,,0,87,87,10,,,,,,,,,,,,,,,,,,,,,,,852.6415865980089,None,854.1413785089971,None,855.52549528901,None,axe,855.52549528901,None,return,9.039932977058925,855.6083478250075,None,,,,,,,,,,,,,,,,,,,,,,,,,,,,,,,,,24,001,2023_Feb_16_1713,SpeechDraft1Carolyn_lessNoise_PlusLocalization,2021.2.3,60.02474059759696,
buy.wav,buy.mpg,buy,2,A,Pink_Noise_2_1.wav,Pink_Noise_2_2.wav,,,,,,,,,,,,,,,0,88,88,18,,,,,,,,,,,,,,,,,,,,,,,864.6749475640245,None,866.174757863977,None,867.5583091109293,None,"buy
",867.5583091109293,None,return,10.334540850948542,867.6416222079424,None,,,,,,,,,,,,,,,,,,,,,,,,,,,,,,,,,24,001,2023_Feb_16_1713,SpeechDraft1Carolyn_lessNoise_PlusLocalization,2021.2.3,60.02474059759696,
solve.wav,solve.mpg,solve,6,AV,Pink_Noise_6_1.wav,Pink_Noise_6_2.wav,,,,,,,,,,,,,,,0,89,89,60,,,,,,,,,,,,,,,,,,,,,,,878.0083579799393,None,879.5098595099989,None,880.8915813389467,None,starve,880.8915813389467,None,return,9.27321644499898,880.9749965779483,None,,,,,,,,,,,,,,,,,,,,,,,,,,,,,,,,,24,001,2023_Feb_16_1713,SpeechDraft1Carolyn_lessNoise_PlusLocalization,2021.2.3,60.02474059759696,
cube.wav,cube.mpg,cube,6,A,Pink_Noise_6_1.wav,Pink_Noise_6_2.wav,,,,,,,,,,,,,,,0,90,90,46,,,,,,,,,,,,,,,,,,,,,,,890.2750049999449,None,891.7594339170028,None,893.1416151500307,None,cute,893.1416151500307,None,return,6.463265790021978,893.2249754129443,None,,,,,,,,,,,,,,,,,,,,,,,,,,,,,,,,,24,001,2023_Feb_16_1713,SpeechDraft1Carolyn_lessNoise_PlusLocalization,2021.2.3,60.02474059759696,
dine.wav,dine.mpg,dine,5,AV,Pink_Noise_5_1.wav,Pink_Noise_5_2.wav,,,,,,,,,,,,,,,0,91,91,86,,,,,,,,,,,,,,,,,,,,,,,899.7082524310099,None,901.2082266260404,None,902.5917251330102,None,stime,902.5917251330102,None,return,16.525184444035403,902.6749483370222,None,,,,,,,,,,,,,,,,,,,,,,,,,,,,,,,,,24,001,2023_Feb_16_1713,SpeechDraft1Carolyn_lessNoise_PlusLocalization,2021.2.3,60.02474059759696,
bar.wav,bar.mpg,bar,5,AV,Pink_Noise_5_1.wav,Pink_Noise_5_2.wav,,,,,,,,,,,,,,,0,92,92,88,,,,,,,,,,,,,,,,,,,,,,,919.2249358169502,None,920.7097722620238,None,922.0916315949289,None,bought,922.0916315949289,None,return,6.313166001928039,922.1750741839642,None,,,,,,,,,,,,,,,,,,,,,,,,,,,,,,,,,24,001,2023_Feb_16_1713,SpeechDraft1Carolyn_lessNoise_PlusLocalization,2021.2.3,60.02474059759696,
flask.wav,flask.mpg,flask,6,AV,Pink_Noise_6_1.wav,Pink_Noise_6_2.wav,,,,,,,,,,,,,,,0,93,93,114,,,,,,,,,,,,,,,,,,,,,,,928.5084591029445,None,930.0082281009527,None,931.374974490027,None,fast,931.374974490027,None,return,2.6217865850776434,931.458354634,None,,,,,,,,,,,,,,,,,,,,,,,,,,,,,,,,,24,001,2023_Feb_16_1713,SpeechDraft1Carolyn_lessNoise_PlusLocalization,2021.2.3,60.02474059759696,
freeze.wav,freeze.mpg,freeze,2,A,Pink_Noise_2_1.wav,Pink_Noise_2_2.wav,,,,,,,,,,,,,,,0,94,94,21,,,,,,,,,,,,,,,,,,,,,,,934.1084403609857,None,935.5923181870021,None,936.9750704859616,None,freeze,936.9750704859616,None,return,2.2937543999869376,937.0583939650096,None,,,,,,,,,,,,,,,,,,,,,,,,,,,,,,,,,24,001,2023_Feb_16_1713,SpeechDraft1Carolyn_lessNoise_PlusLocalization,2021.2.3,60.02474059759696,
ban.wav,ban.mpg,ban,3,AV,Pink_Noise_3_1.wav,Pink_Noise_3_2.wav,,,,,,,,,,,,,,,0,95,95,109,,,,,,,,,,,,,,,,,,,,,,,939.3760483099613,None,940.8747917759465,None,942.2582308469573,None,"banned
",942.2582308469573,None,return,3.434401462902315,942.341746266,None,,,,,,,,,,,,,,,,,,,,,,,,,,,,,,,,,24,001,2023_Feb_16_1713,SpeechDraft1Carolyn_lessNoise_PlusLocalization,2021.2.3,60.02474059759696,
bread.wav,bread.mpg,bread,2,A,Pink_Noise_2_1.wav,Pink_Noise_2_2.wav,,,,,,,,,,,,,,,0,96,96,47,,,,,,,,,,,,,,,,,,,,,,,945.8083657770185,None,947.3081427649595,None,948.6917454339564,None,bread,948.6917454339564,None,return,1.8410676260245964,948.7750586989569,None,,,,,,,,,,,,,,,,,,,,,,,,,,,,,,,,,24,001,2023_Feb_16_1713,SpeechDraft1Carolyn_lessNoise_PlusLocalization,2021.2.3,60.02474059759696,
your.wav,your.mpg,your,5,A,Pink_Noise_5_1.wav,Pink_Noise_5_2.wav,,,,,,,,,,,,,,,0,97,97,0,,,,,,,,,,,,,,,,,,,,,,,950.6416706299642,None,952.1415817339439,None,953.5084488189314,None,yours,953.5084488189314,None,return,6.024560270947404,953.5915648359805,None,,,,,,,,,,,,,,,,,,,,,,,,,,,,,,,,,24,001,2023_Feb_16_1713,SpeechDraft1Carolyn_lessNoise_PlusLocalization,2021.2.3,60.02474059759696,
cloud.wav,cloud.mpg,cloud,1,A,Pink_Noise_1_1.wav,Pink_Noise_1_2.wav,,,,,,,,,,,,,,,0,98,98,15,,,,,,,,,,,,,,,,,,,,,,,959.641774312011,None,961.141591424006,None,962.5083418579306,None,cloud,962.5083418579306,None,return,2.904329029028304,962.5917926189722,None,,,,,,,,,,,,,,,,,,,,,,,,,,,,,,,,,24,001,2023_Feb_16_1713,SpeechDraft1Carolyn_lessNoise_PlusLocalization,2021.2.3,60.02474059759696,
gram.wav,gram.mpg,gram,2,AV,Pink_Noise_2_1.wav,Pink_Noise_2_2.wav,,,,,,,,,,,,,,,0,99,99,94,,,,,,,,,,,,,,,,,,,,,,,965.5250313569559,None,967.0249527289998,None,968.3916370059596,None,"gram
",968.3916370059596,None,return,1.8850915550719947,968.4750573339406,None,,,,,,,,,,,,,,,,,,,,,,,,,,,,,,,,,24,001,2023_Feb_16_1713,SpeechDraft1Carolyn_lessNoise_PlusLocalization,2021.2.3,60.02474059759696,
chant.wav,chant.mpg,chant,5,A,Pink_Noise_5_1.wav,Pink_Noise_5_2.wav,,,,,,,,,,,,,,,0,100,100,19,,,,,,,,,,,,,,,,,,,,,,,970.3917788729304,None,971.8915612149285,None,973.2584349330282,None,"chant
",973.2584349330282,None,return,1.5862694469979033,973.3418705080403,None,,,,,,,,,,,,,,,,,,,,,,,,,,,,,,,,,24,001,2023_Feb_16_1713,SpeechDraft1Carolyn_lessNoise_PlusLocalization,2021.2.3,60.02474059759696,
dump.wav,dump.mpg,dump,3,A,Pink_Noise_3_1.wav,Pink_Noise_3_2.wav,,,,,,,,,,,,,,,0,101,101,20,,,,,,,,,,,,,,,,,,,,,,,974.9583584859502,None,976.4581632090267,None,977.8251017399598,None,"dumb
",977.8251017399598,None,return,2.619749977020547,977.9084008430364,None,,,,,,,,,,,,,,,,,,,,,,,,,,,,,,,,,24,001,2023_Feb_16_1713,SpeechDraft1Carolyn_lessNoise_PlusLocalization,2021.2.3,60.02474059759696,
cab.wav,cab.mpg,cab,6,A,Pink_Noise_6_1.wav,Pink_Noise_6_2.wav,,,,,,,,,,,,,,,0,102,102,59,,,,,,,,,,,,,,,,,,,,,,,980.5584753729636,None,982.0581848579459,None,983.4250576129416,None,catch,983.4250576129416,None,return,4.987691420945339,983.5084643650334,None,,,,,,,,,,,,,,,,,,,,,,,,,,,,,,,,,24,001,2023_Feb_16_1713,SpeechDraft1Carolyn_lessNoise_PlusLocalization,2021.2.3,60.02474059759696,
foul.wav,foul.mpg,foul,3,A,Pink_Noise_3_1.wav,Pink_Noise_3_2.wav,,,,,,,,,,,,,,,0,103,103,4,,,,,,,,,,,,,,,,,,,,,,,988.5416033320362,None,990.041563426028,None,991.4251424509566,None,"foul
",991.4251424509566,None,return,2.435687263030559,991.5084521389799,None,,,,,,,,,,,,,,,,,,,,,,,,,,,,,,,,,24,001,2023_Feb_16_1713,SpeechDraft1Carolyn_lessNoise_PlusLocalization,2021.2.3,60.02474059759696,
gate.wav,gate.mpg,gate,1,A,Pink_Noise_1_1.wav,Pink_Noise_1_2.wav,,,,,,,,,,,,,,,0,104,104,54,,,,,,,,,,,,,,,,,,,,,,,993.9751692450373,None,995.4749084879877,None,996.8585348009365,None,gate,996.8585348009365,None,return,2.7543777719838545,996.9417535839602,None,,,,,,,,,,,,,,,,,,,,,,,,,,,,,,,,,24,001,2023_Feb_16_1713,SpeechDraft1Carolyn_lessNoise_PlusLocalization,2021.2.3,60.02474059759696,
bribe.wav,bribe.mpg,bribe,4,A,Pink_Noise_4_1.wav,Pink_Noise_4_2.wav,,,,,,,,,,,,,,,0,105,105,30,,,,,,,,,,,,,,,,,,,,,,,999.7251495199744,None,1001.2249058160232,None,1002.6083691220265,None,drive,1002.6083691220265,None,return,1.460373442969285,1002.6917596809799,None,,,,,,,,,,,,,,,,,,,,,,,,,,,,,,,,,24,001,2023_Feb_16_1713,SpeechDraft1Carolyn_lessNoise_PlusLocalization,2021.2.3,60.02474059759696,
chain.wav,chain.mpg,chain,1,A,Pink_Noise_1_1.wav,Pink_Noise_1_2.wav,,,,,,,,,,,,,,,0,106,106,44,,,,,,,,,,,,,,,,,,,,,,,1004.175199210993,None,1005.6749741069507,None,1007.0417634609621,None,chain,1007.0417634609621,None,return,1.690825117053464,1007.1252919950057,None,,,,,,,,,,,,,,,,,,,,,,,,,,,,,,,,,24,001,2023_Feb_16_1713,SpeechDraft1Carolyn_lessNoise_PlusLocalization,2021.2.3,60.02474059759696,
fall.wav,fall.mpg,fall,3,A,Pink_Noise_3_1.wav,Pink_Noise_3_2.wav,,,,,,,,,,,,,,,0,107,107,58,,,,,,,,,,,,,,,,,,,,,,,1008.8417890089331,None,1010.35841299803,None,1011.741790417931,None,bond,1011.741790417931,None,return,6.679083330091089,1011.8250819250243,None,,,,,,,,,,,,,,,,,,,,,,,,,,,,,,,,,24,001,2023_Feb_16_1713,SpeechDraft1Carolyn_lessNoise_PlusLocalization,2021.2.3,60.02474059759696,
flake.wav,flake.mpg,flake,1,AV,Pink_Noise_1_1.wav,Pink_Noise_1_2.wav,,,,,,,,,,,,,,,0,108,108,70,,,,,,,,,,,,,,,,,,,,,,,1018.5252368049696,None,1020.0097698390018,None,1021.3917166219326,None,flake,1021.3917166219326,None,return,4.13304234505631,1021.4751829319866,None,,,,,,,,,,,,,,,,,,,,,,,,,,,,,,,,,24,001,2023_Feb_16_1713,SpeechDraft1Carolyn_lessNoise_PlusLocalization,2021.2.3,60.02474059759696,
led.wav,led.mpg,led,6,AV,Pink_Noise_6_1.wav,Pink_Noise_6_2.wav,,,,,,,,,,,,,,,0,109,109,73,,,,,,,,,,,,,,,,,,,,,,,1025.625110034016,None,1027.1250218809582,None,1028.5085245199734,None,leg,1028.5085245199734,None,return,2.3763156819622964,1028.591864887043,None,,,,,,,,,,,,,,,,,,,,,,,,,,,,,,,,,24,001,2023_Feb_16_1713,SpeechDraft1Carolyn_lessNoise_PlusLocalization,2021.2.3,60.02474059759696,
flex.wav,flex.mpg,flex,3,AV,Pink_Noise_3_1.wav,Pink_Noise_3_2.wav,,,,,,,,,,,,,,,0,110,110,76,,,,,,,,,,,,,,,,,,,,,,,1030.9918810869567,None,1032.4916480529355,None,1033.8751640740084,None,"flex
",1033.8751640740084,None,return,2.0016052200226113,1033.9585289940005,None,,,,,,,,,,,,,,,,,,,,,,,,,,,,,,,,,24,001,2023_Feb_16_1713,SpeechDraft1Carolyn_lessNoise_PlusLocalization,2021.2.3,60.02474059759696,
curse.wav,curse.mpg,curse,4,A,Pink_Noise_4_1.wav,Pink_Noise_4_2.wav,,,,,,,,,,,,,,,0,111,111,33,,,,,,,,,,,,,,,,,,,,,,,1035.9917842629366,None,1037.4916210529627,None,1038.8751661939314,None,"curse
",1038.8751661939314,None,return,3.1535364809678867,1038.9585955359507,None,,,,,,,,,,,,,,,,,,,,,,,,,,,,,,,,,24,001,2023_Feb_16_1713,SpeechDraft1Carolyn_lessNoise_PlusLocalization,2021.2.3,60.02474059759696,
fine.wav,fine.mpg,fine,2,AV,Pink_Noise_2_1.wav,Pink_Noise_2_2.wav,,,,,,,,,,,,,,,0,112,112,65,,,,,,,,,,,,,,,,,,,,,,,1042.1419378089486,None,1043.6416923030047,None,1045.0251770380419,None,"find
",1045.0251770380419,None,return,2.0516306469216943,1045.108531372971,None,,,,,,,,,,,,,,,,,,,,,,,,,,,,,,,,,24,001,2023_Feb_16_1713,SpeechDraft1Carolyn_lessNoise_PlusLocalization,2021.2.3,60.02474059759696,
cried.wav,cried.mpg,cried,3,AV,Pink_Noise_3_1.wav,Pink_Noise_3_2.wav,,,,,,,,,,,,,,,0,113,113,117,,,,,,,,,,,,,,,,,,,,,,,1047.1918250699528,None,1048.6916954229819,None,1050.0751719130203,None,cried,1050.0751719130203,None,return,3.0817291860003024,1050.1585108119762,None,,,,,,,,,,,,,,,,,,,,,,,,,,,,,,,,,24,001,2023_Feb_16_1713,SpeechDraft1Carolyn_lessNoise_PlusLocalization,2021.2.3,60.02474059759696,
ball.wav,ball.mpg,ball,4,AV,Pink_Noise_4_1.wav,Pink_Noise_4_2.wav,,,,,,,,,,,,,,,0,114,114,78,,,,,,,,,,,,,,,,,,,,,,,1053.2585042249411,None,1054.7582892100327,None,1056.1251556240022,None,ball,1056.1251556240022,None,return,1.4557299499865621,1056.208512231009,None,,,,,,,,,,,,,,,,,,,,,,,,,,,,,,,,,24,001,2023_Feb_16_1713,SpeechDraft1Carolyn_lessNoise_PlusLocalization,2021.2.3,60.02474059759696,
blur.wav,blur.mpg,blur,3,A,Pink_Noise_3_1.wav,Pink_Noise_3_2.wav,,,,,,,,,,,,,,,0,115,115,11,,,,,,,,,,,,,,,,,,,,,,,1057.6918433209648,None,1059.2083108229563,None,1060.5750945010222,None,blur,1060.5750945010222,None,return,2.157634586910717,1060.658502034028,None,,,,,,,,,,,,,,,,,,,,,,,,,,,,,,,,,24,001,2023_Feb_16_1713,SpeechDraft1Carolyn_lessNoise_PlusLocalization,2021.2.3,60.02474059759696,
booth.wav,booth.mpg,booth,2,A,Pink_Noise_2_1.wav,Pink_Noise_2_2.wav,,,,,,,,,,,,,,,0,116,116,29,,,,,,,,,,,,,,,,,,,,,,,1062.8583194930106,None,1064.358633071999,None,1065.7420055009425,None,boost,1065.7420055009425,None,return,2.678985917940736,1065.8251744629815,None,,,,,,,,,,,,,,,,,,,,,,,,,,,,,,,,,24,001,2023_Feb_16_1713,SpeechDraft1Carolyn_lessNoise_PlusLocalization,2021.2.3,60.02474059759696,
fuel.wav,fuel.mpg,fuel,3,A,Pink_Noise_3_1.wav,Pink_Noise_3_2.wav,,,,,,,,,,,,,,,0,117,117,23,,,,,,,,,,,,,,,,,,,,,,,1068.5251748589799,None,1070.0251660980284,None,1071.4086274580332,None,fue;,1071.4086274580332,None,return,4.908249797997996,1071.4918832660187,None,,,,,,,,,,,,,,,,,,,,,,,,,,,,,,,,,24,001,2023_Feb_16_1713,SpeechDraft1Carolyn_lessNoise_PlusLocalization,2021.2.3,60.02474059759696,
bill.wav,bill.mpg,bill,1,AV,Pink_Noise_1_1.wav,Pink_Noise_1_2.wav,,,,,,,,,,,,,,,0,118,118,71,,,,,,,,,,,,,,,,,,,,,,,1076.4252219339833,None,1077.9250546400435,None,1079.2919519200223,None,bill,1079.2919519200223,None,return,1.6410991899902,1079.3751543279504,None,,,,,,,,,,,,,,,,,,,,,,,,,,,,,,,,,24,001,2023_Feb_16_1713,SpeechDraft1Carolyn_lessNoise_PlusLocalization,2021.2.3,60.02474059759696,
crane.wav,crane.mpg,crane,5,AV,Pink_Noise_5_1.wav,Pink_Noise_5_2.wav,,,,,,,,,,,,,,,0,119,119,79,,,,,,,,,,,,,,,,,,,,,,,1081.0420585239772,None,1082.5416821429972,None,1083.9252036829712,None,"scream
",1083.9252036829712,None,return,7.135562243987806,1084.008586875978,None,,,,,,,,,,,,,,,,,,,,,,,,,,,,,,,,,24,001,2023_Feb_16_1713,SpeechDraft1Carolyn_lessNoise_PlusLocalization,2021.2.3,60.02474059759696,
,,,,,,,,,,,,,,,,,,,,,,,,,,,,,,,,,,,,,,,,,,,,,,,,,,,,,,,,,,,,,,,,,,space,37.60551900707651,1091.258602938964,None,,,,,,,,,,,,,,,,,,,,,,,24,001,2023_Feb_16_1713,SpeechDraft1Carolyn_lessNoise_PlusLocalization,2021.2.3,60.02474059759696,
,,,,,,,,nearRight,6.5,0,ch1Sound_localizationTask.wav,6.5,"(1047, 878)","(87, -202)",95,-338,,,,,,,,,0,0,0,4,,,,,,,,,,,,,,,,,,,,,,,,,,,,,,,,,,,,,,,,,,1091.258602938964,None,1128.9084522739286,None,1130.0083834839752,None,1130.941649229033,None,1,3.003237187047489,1130.941649229033,None,,,,,,,,,,,24,001,2023_Feb_16_1713,SpeechDraft1Carolyn_lessNoise_PlusLocalization,2021.2.3,60.02474059759696,
,,,,,,,,midLeft,-13.0,2,ch1Sound_localizationTask.wav,-13.0,"(762, 878)","(-198,-202)",-190,-338,,,,,,,,,0,1,1,1,,,,,,,,,,,,,,,,,,,,,,,,,,,,,,,,,,,,,,,,,,,,1133.958840738982,None,1135.0584604629548,None,1135.99174257298,None,1.0010582010582012,0.9654943610075861,1135.99174257298,None,,,,,,,,,,,24,001,2023_Feb_16_1713,SpeechDraft1Carolyn_lessNoise_PlusLocalization,2021.2.3,60.02474059759696,
,,,,,,,,midRight,13.0,3,ch1Sound_localizationTask.wav,13.0,"(1142, 878)","(182, -202)",190,-338,,,,,,,,,0,2,2,5,,,,,,,,,,,,,,,,,,,,,,,,,,,,,,,,,,,,,,,,,,,,1136.9586877289694,None,1138.0583472580183,None,1138.9916802400257,None,1.9973544973544972,1.4665114870294929,1138.9916802400257,None,,,,,,,,,,,24,001,2023_Feb_16_1713,SpeechDraft1Carolyn_lessNoise_PlusLocalization,2021.2.3,60.02474059759696,
,,,,,,,,center,0.0,6,ch1Sound_localizationTask.wav,0.0,"(952, 878)","(-8,-202)",0,-338,,,,,,,,,0,3,3,3,,,,,,,,,,,,,,,,,,,,,,,,,,,,,,,,,,,,,,,,,,,,1140.458986795973,None,1141.5584001400275,None,1142.4917498789728,None,1,1.551382027915679,1142.4917498789728,None,,,,,,,,,,,24,001,2023_Feb_16_1713,SpeechDraft1Carolyn_lessNoise_PlusLocalization,2021.2.3,60.02474059759696,
,,,,,,,,center,0.0,6,ch1Sound_localizationTask.wav,0.0,"(952, 878)","(-8,-202)",0,-338,,,,,,,,,0,4,4,3,,,,,,,,,,,,,,,,,,,,,,,,,,,,,,,,,,,,,,,,,,,,1144.0587336979806,None,1145.158522499958,None,1146.0918072969653,None,1,1.8158856520894915,1146.0918072969653,None,,,,,,,,,,,24,001,2023_Feb_16_1713,SpeechDraft1Carolyn_lessNoise_PlusLocalization,2021.2.3,60.02474059759696,
,,,,,,,,midLeft,-13.0,2,ch1Sound_localizationTask.wav,-13.0,"(762, 878)","(-198,-202)",-190,-338,,,,,,,,,0,5,5,1,,,,,,,,,,,,,,,,,,,,,,,,,,,,,,,,,,,,,,,,,,,,1147.909424967016,None,1149.0085079639684,None,1149.9418079039315,None,1,0.8663508640602231,1149.9418079039315,None,,,,,,,,,,,24,001,2023_Feb_16_1713,SpeechDraft1Carolyn_lessNoise_PlusLocalization,2021.2.3,60.02474059759696,
,,,,,,,,farRight,19.1,4,ch1Sound_localizationTask.wav,19.1,"(1237, 878)","(277,-202)",285,-338,,,,,,,,,0,6,6,6,,,,,,,,,,,,,,,,,,,,,,,,,,,,,,,,,,,,,,,,,,,,1150.8253072849475,None,1151.92522117903,None,1152.8584097869461,None,1.9994708994708996,1.5499320040689781,1152.8584097869461,None,,,,,,,,,,,24,001,2023_Feb_16_1713,SpeechDraft1Carolyn_lessNoise_PlusLocalization,2021.2.3,60.02474059759696,
,,,,,,,,midLeft,-13.0,2,ch1Sound_localizationTask.wav,-13.0,"(762, 878)","(-198,-202)",-190,-338,,,,,,,,,1,0,7,1,,,,,,,,,,,,,,,,,,,,,,,,,,,,,,,,,,,,,,,,,,,,1154.4089725619415,None,1155.5083592470037,None,1156.441770186997,None,1,1.9151596690062433,1156.441770186997,None,,,,,,,,,,,24,001,2023_Feb_16_1713,SpeechDraft1Carolyn_lessNoise_PlusLocalization,2021.2.3,60.02474059759696,
,,,,,,,,farLeft,-19.1,5,ch1Sound_localizationTask.wav,-19.1,"(667, 878)","(-293,-202)",-285,-338,,,,,,,,,1,1,8,0,,,,,,,,,,,,,,,,,,,,,,,,,,,,,,,,,,,,,,,,,,,,1158.3587034710217,None,1159.45852870401,None,1160.3917246169876,None,1,0.4329849339555949,1160.3917246169876,None,,,,,,,,,,,24,001,2023_Feb_16_1713,SpeechDraft1Carolyn_lessNoise_PlusLocalization,2021.2.3,60.02474059759696,
,,,,,,,,center,0.0,6,ch1Sound_localizationTask.wav,0.0,"(952, 878)","(-8,-202)",0,-338,,,,,,,,,1,2,9,3,,,,,,,,,,,,,,,,,,,,,,,,,,,,,,,,,,,,,,,,,,,,1160.8253136799904,None,1161.9250846159412,None,1162.858493761043,None,1.1206349206349207,1.2327387990662828,1162.858493761043,None,,,,,,,,,,,24,001,2023_Feb_16_1713,SpeechDraft1Carolyn_lessNoise_PlusLocalization,2021.2.3,60.02474059759696,
,,,,,,,,midLeft,-13.0,2,ch1Sound_localizationTask.wav,-13.0,"(762, 878)","(-198,-202)",-190,-338,,,,,,,,,1,3,10,1,,,,,,,,,,,,,,,,,,,,,,,,,,,,,,,,,,,,,,,,,,,,1164.092271210975,None,1165.1918014349649,None,1166.1250740749529,None,1.002116402116402,0.8825862680096179,1166.1250740749529,None,,,,,,,,,,,24,001,2023_Feb_16_1713,SpeechDraft1Carolyn_lessNoise_PlusLocalization,2021.2.3,60.02474059759696,
,,,,,,,,midRight,13.0,3,ch1Sound_localizationTask.wav,13.0,"(1142, 878)","(182, -202)",190,-338,,,,,,,,,1,4,11,5,,,,,,,,,,,,,,,,,,,,,,,,,,,,,,,,,,,,,,,,,,,,1167.0086750169285,None,1168.1084520920413,None,1169.0418213369558,None,1.9370370370370371,1.5343999079195783,1169.0418213369558,None,,,,,,,,,,,24,001,2023_Feb_16_1713,SpeechDraft1Carolyn_lessNoise_PlusLocalization,2021.2.3,60.02474059759696,
,,,,,,,,nearRight,6.5,0,ch1Sound_localizationTask.wav,6.5,"(1047, 878)","(87, -202)",95,-338,,,,,,,,,1,5,12,4,,,,,,,,,,,,,,,,,,,,,,,,,,,,,,,,,,,,,,,,,,,,1170.5919378979597,None,1171.691729558981,None,1172.6252506099408,None,1.5984126984126985,0.9175024130381644,1172.6252506099408,None,,,,,,,,,,,24,001,2023_Feb_16_1713,SpeechDraft1Carolyn_lessNoise_PlusLocalization,2021.2.3,60.02474059759696,
,,,,,,,,midRight,13.0,3,ch1Sound_localizationTask.wav,13.0,"(1142, 878)","(182, -202)",190,-338,,,,,,,,,1,6,13,5,,,,,,,,,,,,,,,,,,,,,,,,,,,,,,,,,,,,,,,,,,,,1173.5586803579936,None,1174.6584913400002,None,1175.5917793459957,None,1.6772486772486772,0.9838576930342242,1175.5917793459957,None,,,,,,,,,,,24,001,2023_Feb_16_1713,SpeechDraft1Carolyn_lessNoise_PlusLocalization,2021.2.3,60.02474059759696,
,,,,,,,,nearLeft,-6.5,1,ch1Sound_localizationTask.wav,-6.5,"(857, 878)","(-103,-202)",-95,-338,,,,,,,,,2,0,14,2,,,,,,,,,,,,,,,,,,,,,,,,,,,,,,,,,,,,,,,,,,,,1176.5919970170362,None,1177.6917752140434,None,1178.625107710017,None,1.151851851851852,1.2846695500193164,1178.625107710017,None,,,,,,,,,,,24,001,2023_Feb_16_1713,SpeechDraft1Carolyn_lessNoise_PlusLocalization,2021.2.3,60.02474059759696,
,,,,,,,,midLeft,-13.0,2,ch1Sound_localizationTask.wav,-13.0,"(762, 878)","(-198,-202)",-190,-338,,,,,,,,,2,1,15,1,,,,,,,,,,,,,,,,,,,,,,,,,,,,,,,,,,,,,,,,,,,,1179.9256065399386,None,1181.0251279530348,None,1181.9583946380299,None,1.0126984126984127,3.415519754984416,1181.9583946380299,None,,,,,,,,,,,24,001,2023_Feb_16_1713,SpeechDraft1Carolyn_lessNoise_PlusLocalization,2021.2.3,60.02474059759696,
,,,,,,,,nearLeft,-6.5,1,ch1Sound_localizationTask.wav,-6.5,"(857, 878)","(-103,-202)",-95,-338,,,,,,,,,2,2,16,2,,,,,,,,,,,,,,,,,,,,,,,,,,,,,,,,,,,,,,,,,,,,1185.37600754702,None,1186.4752355150413,None,1187.4085392770357,None,1.0386243386243386,0.5167498580412939,1187.4085392770357,None,,,,,,,,,,,24,001,2023_Feb_16_1713,SpeechDraft1Carolyn_lessNoise_PlusLocalization,2021.2.3,60.02474059759696,
,,,,,,,,farLeft,-19.1,5,ch1Sound_localizationTask.wav,-19.1,"(667, 878)","(-293,-202)",-285,-338,,,,,,,,,2,3,17,0,,,,,,,,,,,,,,,,,,,,,,,,,,,,,,,,,,,,,,,,,,,,1187.9259003199404,None,1189.0251358069945,None,1189.9586425559828,None,1,0.6498787290183827,1189.9586425559828,None,,,,,,,,,,,24,001,2023_Feb_16_1713,SpeechDraft1Carolyn_lessNoise_PlusLocalization,2021.2.3,60.02474059759696,
,,,,,,,,center,0.0,6,ch1Sound_localizationTask.wav,0.0,"(952, 878)","(-8,-202)",0,-338,,,,,,,,,2,4,18,3,,,,,,,,,,,,,,,,,,,,,,,,,,,,,,,,,,,,,,,,,,,,1190.6093587300275,None,1191.7084639129462,None,1192.6418550109956,None,1.2687830687830688,1.2164932009764016,1192.6418550109956,None,,,,,,,,,,,24,001,2023_Feb_16_1713,SpeechDraft1Carolyn_lessNoise_PlusLocalization,2021.2.3,60.02474059759696,
,,,,,,,,nearLeft,-6.5,1,ch1Sound_localizationTask.wav,-6.5,"(857, 878)","(-103,-202)",-95,-338,,,,,,,,,2,5,19,2,,,,,,,,,,,,,,,,,,,,,,,,,,,,,,,,,,,,,,,,,,,,1193.8591096160235,None,1194.9584443620406,None,1195.8918326289859,None,1.0423280423280423,0.7000106319319457,1195.8918326289859,None,,,,,,,,,,,24,001,2023_Feb_16_1713,SpeechDraft1Carolyn_lessNoise_PlusLocalization,2021.2.3,60.02474059759696,
,,,,,,,,midLeft,-13.0,2,ch1Sound_localizationTask.wav,-13.0,"(762, 878)","(-198,-202)",-190,-338,,,,,,,,,2,6,20,1,,,,,,,,,,,,,,,,,,,,,,,,,,,,,,,,,,,,,,,,,,,,1196.5926672780188,None,1197.691758867004,None,1198.6253220009385,None,1.0201058201058202,0.6343755630077794,1198.6253220009385,None,,,,,,,,,,,24,001,2023_Feb_16_1713,SpeechDraft1Carolyn_lessNoise_PlusLocalization,2021.2.3,60.02474059759696,
,,,,,,,,midRight,13.0,3,ch1Sound_localizationTask.wav,13.0,"(1142, 878)","(182, -202)",190,-338,,,,,,,,,3,0,21,5,,,,,,,,,,,,,,,,,,,,,,,,,,,,,,,,,,,,,,,,,,,,1199.2755164009286,None,1200.3752691999543,None,1201.3084786509862,None,1.9068783068783068,1.1996133259963244,1201.3084786509862,None,,,,,,,,,,,24,001,2023_Feb_16_1713,SpeechDraft1Carolyn_lessNoise_PlusLocalization,2021.2.3,60.02474059759696,
,,,,,,,,nearRight,6.5,0,ch1Sound_localizationTask.wav,6.5,"(1047, 878)","(87, -202)",95,-338,,,,,,,,,3,1,22,4,,,,,,,,,,,,,,,,,,,,,,,,,,,,,,,,,,,,,,,,,,,,1202.5254281120142,None,1203.6252426230349,None,1204.5585071849637,None,1.61005291005291,0.8177252890309319,1204.5585071849637,None,,,,,,,,,,,24,001,2023_Feb_16_1713,SpeechDraft1Carolyn_lessNoise_PlusLocalization,2021.2.3,60.02474059759696,
,,,,,,,,midRight,13.0,3,ch1Sound_localizationTask.wav,13.0,"(1142, 878)","(182, -202)",190,-338,,,,,,,,,3,2,23,5,,,,,,,,,,,,,,,,,,,,,,,,,,,,,,,,,,,,,,,,,,,,1205.3920668630162,None,1206.4917866060277,None,1207.425145160989,None,1.6587301587301586,0.6333269220776856,1207.425145160989,None,,,,,,,,,,,24,001,2023_Feb_16_1713,SpeechDraft1Carolyn_lessNoise_PlusLocalization,2021.2.3,60.02474059759696,
,,,,,,,,farRight,19.1,4,ch1Sound_localizationTask.wav,19.1,"(1237, 878)","(277,-202)",285,-338,,,,,,,,,3,3,24,6,,,,,,,,,,,,,,,,,,,,,,,,,,,,,,,,,,,,,,,,,,,,1208.0591480759904,None,1209.1584375839448,None,1210.0918563279556,None,1.8523809523809525,0.6655249779578298,1210.0918563279556,None,,,,,,,,,,,24,001,2023_Feb_16_1713,SpeechDraft1Carolyn_lessNoise_PlusLocalization,2021.2.3,60.02474059759696,
,,,,,,,,center,0.0,6,ch1Sound_localizationTask.wav,0.0,"(952, 878)","(-8,-202)",0,-338,,,,,,,,,3,4,25,3,,,,,,,,,,,,,,,,,,,,,,,,,,,,,,,,,,,,,,,,,,,,1210.7586800779682,None,1211.85849856399,None,1212.7916963900207,None,1.5306878306878307,0.6166112479986623,1212.7916963900207,None,,,,,,,,,,,24,001,2023_Feb_16_1713,SpeechDraft1Carolyn_lessNoise_PlusLocalization,2021.2.3,60.02474059759696,
,,,,,,,,farLeft,-19.1,5,ch1Sound_localizationTask.wav,-19.1,"(667, 878)","(-293,-202)",-285,-338,,,,,,,,,3,5,26,0,,,,,,,,,,,,,,,,,,,,,,,,,,,,,,,,,,,,,,,,,,,,1213.4096005830215,None,1214.5086034679553,None,1215.4417932180222,None,1,1.1834070370532572,1215.4417932180222,None,,,,,,,,,,,24,001,2023_Feb_16_1713,SpeechDraft1Carolyn_lessNoise_PlusLocalization,2021.2.3,60.02474059759696,
,,,,,,,,farRight,19.1,4,ch1Sound_localizationTask.wav,19.1,"(1237, 878)","(277,-202)",285,-338,,,,,,,,,3,6,27,6,,,,,,,,,,,,,,,,,,,,,,,,,,,,,,,,,,,,,,,,,,,,1216.6422368990025,None,1217.7419044609414,None,1218.675189238973,None,1.970899470899471,1.167377580073662,1218.675189238973,None,,,,,,,,,,,24,001,2023_Feb_16_1713,SpeechDraft1Carolyn_lessNoise_PlusLocalization,2021.2.3,60.02474059759696,
,,,,,,,,farLeft,-19.1,5,ch1Sound_localizationTask.wav,-19.1,"(667, 878)","(-293,-202)",-285,-338,,,,,,,,,4,0,28,0,,,,,,,,,,,,,,,,,,,,,,,,,,,,,,,,,,,,,,,,,,,,1219.8587358419318,None,1220.9584417969454,None,1221.8918851999333,None,1.0264550264550265,0.9332362849963829,1221.8918851999333,None,,,,,,,,,,,24,001,2023_Feb_16_1713,SpeechDraft1Carolyn_lessNoise_PlusLocalization,2021.2.3,60.02474059759696,
,,,,,,,,farLeft,-19.1,5,ch1Sound_localizationTask.wav,-19.1,"(667, 878)","(-293,-202)",-285,-338,,,,,,,,,4,1,29,0,,,,,,,,,,,,,,,,,,,,,,,,,,,,,,,,,,,,,,,,,,,,1222.8421458059456,None,1223.9419119179947,None,1224.8753398150438,None,1.0296296296296297,0.8164877840317786,1224.8753398150438,None,,,,,,,,,,,24,001,2023_Feb_16_1713,SpeechDraft1Carolyn_lessNoise_PlusLocalization,2021.2.3,60.02474059759696,
,,,,,,,,farRight,19.1,4,ch1Sound_localizationTask.wav,19.1,"(1237, 878)","(277,-202)",285,-338,,,,,,,,,4,2,30,6,,,,,,,,,,,,,,,,,,,,,,,,,,,,,,,,,,,,,,,,,,,,1225.708846856025,None,1226.808585686027,None,1227.7418343740283,None,1.961904761904762,1.0675349800148979,1227.7418343740283,None,,,,,,,,,,,24,001,2023_Feb_16_1713,SpeechDraft1Carolyn_lessNoise_PlusLocalization,2021.2.3,60.02474059759696,
,,,,,,,,nearLeft,-6.5,1,ch1Sound_localizationTask.wav,-6.5,"(857, 878)","(-103,-202)",-95,-338,,,,,,,,,4,3,31,2,,,,,,,,,,,,,,,,,,,,,,,,,,,,,,,,,,,,,,,,,,,,1228.8255230699433,None,1229.925439905026,None,1230.8586698030122,None,1.2804232804232805,0.9007658750051633,1230.8586698030122,None,,,,,,,,,,,24,001,2023_Feb_16_1713,SpeechDraft1Carolyn_lessNoise_PlusLocalization,2021.2.3,60.02474059759696,
,,,,,,,,nearRight,6.5,0,ch1Sound_localizationTask.wav,6.5,"(1047, 878)","(87, -202)",95,-338,,,,,,,,,4,4,32,4,,,,,,,,,,,,,,,,,,,,,,,,,,,,,,,,,,,,,,,,,,,,1231.775501052034,None,1232.875177375041,None,1233.8085896930424,None,1.5227513227513227,0.9005060780327767,1233.8085896930424,None,,,,,,,,,,,24,001,2023_Feb_16_1713,SpeechDraft1Carolyn_lessNoise_PlusLocalization,2021.2.3,60.02474059759696,
,,,,,,,,farLeft,-19.1,5,ch1Sound_localizationTask.wav,-19.1,"(667, 878)","(-293,-202)",-285,-338,,,,,,,,,4,5,33,0,,,,,,,,,,,,,,,,,,,,,,,,,,,,,,,,,,,,,,,,,,,,1234.725543273962,None,1235.825252020033,None,1236.7584507130086,None,1,1.5999798439443111,1236.7584507130086,None,,,,,,,,,,,24,001,2023_Feb_16_1713,SpeechDraft1Carolyn_lessNoise_PlusLocalization,2021.2.3,60.02474059759696,
,,,,,,,,nearRight,6.5,0,ch1Sound_localizationTask.wav,6.5,"(1047, 878)","(87, -202)",95,-338,,,,,,,,,4,6,34,4,,,,,,,,,,,,,,,,,,,,,,,,,,,,,,,,,,,,,,,,,,,,1238.375362384948,None,1239.4752009289805,None,1240.4085363820195,None,1.4497354497354498,0.11581653193570673,1240.4085363820195,None,,,,,,,,,,,24,001,2023_Feb_16_1713,SpeechDraft1Carolyn_lessNoise_PlusLocalization,2021.2.3,60.02474059759696,
,,,,,,,,farRight,19.1,4,ch1Sound_localizationTask.wav,19.1,"(1237, 878)","(277,-202)",285,-338,,,,,,,,,5,0,35,6,,,,,,,,,,,,,,,,,,,,,,,,,,,,,,,,,,,,,,,,,,,,1240.5265807380201,None,1241.641874455032,None,1242.5586327860365,None,1.8719576719576718,2.2333892380120233,1242.5586327860365,None,,,,,,,,,,,24,001,2023_Feb_16_1713,SpeechDraft1Carolyn_lessNoise_PlusLocalization,2021.2.3,60.02474059759696,
,,,,,,,,midLeft,-13.0,2,ch1Sound_localizationTask.wav,-13.0,"(762, 878)","(-198,-202)",-190,-338,,,,,,,,,5,1,36,1,,,,,,,,,,,,,,,,,,,,,,,,,,,,,,,,,,,,,,,,,,,,1244.7924465399701,None,1245.8919328160118,None,1246.8252004699316,None,1,1.5832631549565122,1246.8252004699316,None,,,,,,,,,,,24,001,2023_Feb_16_1713,SpeechDraft1Carolyn_lessNoise_PlusLocalization,2021.2.3,60.02474059759696,
,,,,,,,,farRight,19.1,4,ch1Sound_localizationTask.wav,19.1,"(1237, 878)","(277,-202)",285,-338,,,,,,,,,5,2,37,6,,,,,,,,,,,,,,,,,,,,,,,,,,,,,,,,,,,,,,,,,,,,1248.4096852609655,None,1249.508573753992,None,1250.4420554499375,None,1.9994708994708996,1.1321656440850347,1250.4420554499375,None,,,,,,,,,,,24,001,2023_Feb_16_1713,SpeechDraft1Carolyn_lessNoise_PlusLocalization,2021.2.3,60.02474059759696,
,,,,,,,,midRight,13.0,3,ch1Sound_localizationTask.wav,13.0,"(1142, 878)","(182, -202)",190,-338,,,,,,,,,5,3,38,5,,,,,,,,,,,,,,,,,,,,,,,,,,,,,,,,,,,,,,,,,,,,1251.5758517249487,None,1252.6752733129542,None,1253.6086125089787,None,1.588888888888889,0.8519843900576234,1253.6086125089787,None,,,,,,,,,,,24,001,2023_Feb_16_1713,SpeechDraft1Carolyn_lessNoise_PlusLocalization,2021.2.3,60.02474059759696,
,,,,,,,,farLeft,-19.1,5,ch1Sound_localizationTask.wav,-19.1,"(667, 878)","(-293,-202)",-285,-338,,,,,,,,,5,4,39,0,,,,,,,,,,,,,,,,,,,,,,,,,,,,,,,,,,,,,,,,,,,,1254.4755529949907,None,1255.5752391769784,None,1256.50861502497,None,1.0137566137566139,1.4178999239811674,1256.50861502497,None,,,,,,,,,,,24,001,2023_Feb_16_1713,SpeechDraft1Carolyn_lessNoise_PlusLocalization,2021.2.3,60.02474059759696,
,,,,,,,,center,0.0,6,ch1Sound_localizationTask.wav,0.0,"(952, 878)","(-8,-202)",0,-338,,,,,,,,,5,5,40,3,,,,,,,,,,,,,,,,,,,,,,,,,,,,,,,,,,,,,,,,,,,,1257.942252303008,None,1259.0420512469718,None,1259.9752831379883,None,1.434920634920635,0.7171430999878794,1259.9752831379883,None,,,,,,,,,,,24,001,2023_Feb_16_1713,SpeechDraft1Carolyn_lessNoise_PlusLocalization,2021.2.3,60.02474059759696,
,,,,,,,,center,0.0,6,ch1Sound_localizationTask.wav,0.0,"(952, 878)","(-8,-202)",0,-338,,,,,,,,,5,6,41,3,,,,,,,,,,,,,,,,,,,,,,,,,,,,,,,,,,,,,,,,,,,,1260.6931812110124,None,1261.791877613985,None,1262.7252504019998,None,1.3825396825396825,0.7834747129818425,1262.7252504019998,None,,,,,,,,,,,24,001,2023_Feb_16_1713,SpeechDraft1Carolyn_lessNoise_PlusLocalization,2021.2.3,60.02474059759696,
,,,,,,,,nearLeft,-6.5,1,ch1Sound_localizationTask.wav,-6.5,"(857, 878)","(-103,-202)",-95,-338,,,,,,,,,6,0,42,2,,,,,,,,,,,,,,,,,,,,,,,,,,,,,,,,,,,,,,,,,,,,1263.5096214970108,None,1264.608572444995,None,1265.542075803969,None,1.1465608465608466,0.7509307180298492,1265.542075803969,None,,,,,,,,,,,24,001,2023_Feb_16_1713,SpeechDraft1Carolyn_lessNoise_PlusLocalization,2021.2.3,60.02474059759696,
,,,,,,,,midRight,13.0,3,ch1Sound_localizationTask.wav,13.0,"(1142, 878)","(182, -202)",190,-338,,,,,,,,,6,1,43,5,,,,,,,,,,,,,,,,,,,,,,,,,,,,,,,,,,,,,,,,,,,,1266.3089873939753,None,1267.4086706519593,None,1268.3419036100386,None,1.7544973544973546,0.5662125820526853,1268.3419036100386,None,,,,,,,,,,,24,001,2023_Feb_16_1713,SpeechDraft1Carolyn_lessNoise_PlusLocalization,2021.2.3,60.02474059759696,
,,,,,,,,nearRight,6.5,0,ch1Sound_localizationTask.wav,6.5,"(1047, 878)","(87, -202)",95,-338,,,,,,,,,6,2,44,4,,,,,,,,,,,,,,,,,,,,,,,,,,,,,,,,,,,,,,,,,,,,1268.9094209700124,None,1270.0086417159764,None,1270.9419148550369,None,1.5312169312169313,0.6181618450209498,1270.9419148550369,None,,,,,,,,,,,24,001,2023_Feb_16_1713,SpeechDraft1Carolyn_lessNoise_PlusLocalization,2021.2.3,60.02474059759696,
,,,,,,,,midRight,13.0,3,ch1Sound_localizationTask.wav,13.0,"(1142, 878)","(182, -202)",190,-338,,,,,,,,,6,3,45,5,,,,,,,,,,,,,,,,,,,,,,,,,,,,,,,,,,,,,,,,,,,,1271.575480749947,None,1272.6752147430088,None,1273.608705288032,None,1.5428571428571427,1.6348251999588683,1273.608705288032,None,,,,,,,,,,,24,001,2023_Feb_16_1713,SpeechDraft1Carolyn_lessNoise_PlusLocalization,2021.2.3,60.02474059759696,
,,,,,,,,nearLeft,-6.5,1,ch1Sound_localizationTask.wav,-6.5,"(857, 878)","(-103,-202)",-95,-338,,,,,,,,,6,4,46,2,,,,,,,,,,,,,,,,,,,,,,,,,,,,,,,,,,,,,,,,,,,,1275.2589403230231,None,1276.3586228200002,None,1277.2920311299386,None,1.1444444444444444,0.8010149829788134,1277.2920311299386,None,,,,,,,,,,,24,001,2023_Feb_16_1713,SpeechDraft1Carolyn_lessNoise_PlusLocalization,2021.2.3,60.02474059759696,
,,,,,,,,farRight,19.1,4,ch1Sound_localizationTask.wav,19.1,"(1237, 878)","(277,-202)",285,-338,,,,,,,,,6,5,47,6,,,,,,,,,,,,,,,,,,,,,,,,,,,,,,,,,,,,,,,,,,,,1278.109137478983,None,1279.2086423829896,None,1280.1418851879425,None,1.8793650793650793,1.0486830290174112,1280.1418851879425,None,,,,,,,,,,,24,001,2023_Feb_16_1713,SpeechDraft1Carolyn_lessNoise_PlusLocalization,2021.2.3,60.02474059759696,
,,,,,,,,farLeft,-19.1,5,ch1Sound_localizationTask.wav,-19.1,"(667, 878)","(-293,-202)",-285,-338,,,,,,,,,6,6,48,0,,,,,,,,,,,,,,,,,,,,,,,,,,,,,,,,,,,,,,,,,,,,1281.1923523059813,None,1282.2919377980288,None,1283.225401322008,None,1,0.8499987409450114,1283.225401322008,None,,,,,,,,,,,24,001,2023_Feb_16_1713,SpeechDraft1Carolyn_lessNoise_PlusLocalization,2021.2.3,60.02474059759696,
,,,,,,,,midLeft,-13.0,2,ch1Sound_localizationTask.wav,-13.0,"(762, 878)","(-198,-202)",-190,-338,,,,,,,,,7,0,49,1,,,,,,,,,,,,,,,,,,,,,,,,,,,,,,,,,,,,,,,,,,,,1284.076208299026,None,1285.1752036319813,None,1286.108666455024,None,1.0941798941798941,0.9673937659244984,1286.108666455024,None,,,,,,,,,,,24,001,2023_Feb_16_1713,SpeechDraft1Carolyn_lessNoise_PlusLocalization,2021.2.3,60.02474059759696,
,,,,,,,,nearRight,6.5,0,ch1Sound_localizationTask.wav,6.5,"(1047, 878)","(87, -202)",95,-338,,,,,,,,,7,1,50,4,,,,,,,,,,,,,,,,,,,,,,,,,,,,,,,,,,,,,,,,,,,,1287.0922419199487,None,1288.191881116014,None,1289.1254567280412,None,1.5142857142857142,1.0834539720090106,1289.1254567280412,None,,,,,,,,,,,24,001,2023_Feb_16_1713,SpeechDraft1Carolyn_lessNoise_PlusLocalization,2021.2.3,60.02474059759696,
,,,,,,,,nearLeft,-6.5,1,ch1Sound_localizationTask.wav,-6.5,"(857, 878)","(-103,-202)",-95,-338,,,,,,,,,7,2,51,2,,,,,,,,,,,,,,,,,,,,,,,,,,,,,,,,,,,,,,,,,,,,1290.2093767629704,None,1291.308657643036,None,1292.24208060198,None,1.2058201058201057,0.9834905329626054,1292.24208060198,None,,,,,,,,,,,24,001,2023_Feb_16_1713,SpeechDraft1Carolyn_lessNoise_PlusLocalization,2021.2.3,60.02474059759696,
,,,,,,,,farRight,19.1,4,ch1Sound_localizationTask.wav,19.1,"(1237, 878)","(277,-202)",285,-338,,,,,,,,,7,3,52,6,,,,,,,,,,,,,,,,,,,,,,,,,,,,,,,,,,,,,,,,,,,,1293.242295783013,None,1294.3418579329737,None,1295.275394203025,None,1.7185185185185186,0.749428826966323,1295.275394203025,None,,,,,,,,,,,24,001,2023_Feb_16_1713,SpeechDraft1Carolyn_lessNoise_PlusLocalization,2021.2.3,60.02474059759696,
,,,,,,,,center,0.0,6,ch1Sound_localizationTask.wav,0.0,"(952, 878)","(-8,-202)",0,-338,,,,,,,,,7,4,53,3,,,,,,,,,,,,,,,,,,,,,,,,,,,,,,,,,,,,,,,,,,,,1296.0255814739503,None,1297.1253104159841,None,1298.0586873509455,None,1.493121693121693,0.8666122889844701,1298.0586873509455,None,,,,,,,,,,,24,001,2023_Feb_16_1713,SpeechDraft1Carolyn_lessNoise_PlusLocalization,2021.2.3,60.02474059759696,
,,,,,,,,nearLeft,-6.5,1,ch1Sound_localizationTask.wav,-6.5,"(857, 878)","(-103,-202)",-95,-338,,,,,,,,,7,5,54,2,,,,,,,,,,,,,,,,,,,,,,,,,,,,,,,,,,,,,,,,,,,,1298.9421943719499,None,1300.0419864939759,None,1300.9753064080141,None,1.1830687830687832,0.700569331063889,1300.9753064080141,None,,,,,,,,,,,24,001,2023_Feb_16_1713,SpeechDraft1Carolyn_lessNoise_PlusLocalization,2021.2.3,60.02474059759696,
,,,,,,,,nearRight,6.5,0,ch1Sound_localizationTask.wav,6.5,"(1047, 878)","(87, -202)",95,-338,,,,,,,,,7,6,55,4,,,,,,,,,,,,,,,,,,,,,,,,,,,,,,,,,,,,,,,,,,,,1301.6922925179824,None,1302.792118752026,None,1303.7252736210357,None,1.552910052910053,0.9344213220756501,1303.7252736210357,None,,,,,,,,,,,24,001,2023_Feb_16_1713,SpeechDraft1Carolyn_lessNoise_PlusLocalization,2021.2.3,60.02474059759696,
,,,,,,,,,,,,,,,,,,,,,,,,,,,,,,,,,,,,,,,,,,,,,,,,,,,,,,,,,,,,,,,,,,,,,,,,,,,,,,,,,,space,14.97725908504799,1304.7588610110106,None,,,,,,,24,001,2023_Feb_16_1713,SpeechDraft1Carolyn_lessNoise_PlusLocalization,2021.2.3,60.02474059759696,
,,,,,,,,midRight,13.0,3,ch1Sound_localizationTask.wav,13.0,"(1142, 878)","(182, -202)",190,-338,,,,,,,,,,,,,0,0,0,5,,,,,,,,,,,,,,,,,,,,,,,,,,,,,,,,,,,,,,,,1319.77541139198,None,,,1322.7942196489312,None,1.6296296296296298,1.7228067440446466,1322.7942196489312,None,,,,,1304.7588610110106,None,1320.775591337937,None,1320.958927995991,1320.9755515280413,24,001,2023_Feb_16_1713,SpeechDraft1Carolyn_lessNoise_PlusLocalization,2021.2.3,60.02474059759696,
,,,,,,,,nearLeft,-6.5,1,ch1Sound_localizationTask.wav,-6.5,"(857, 878)","(-103,-202)",-95,-338,,,,,,,,,,,,,0,1,1,2,,,,,,,,,,,,,,,,,,,,,,,,,,,,,,,,,,,,,,,,1324.5422032789793,None,,,1327.5586645089788,None,1.42010582010582,0.7326589189469814,1327.5586645089788,None,,,,,,,1325.5424087150022,None,1325.72553346504,1325.7422388549894,24,001,2023_Feb_16_1713,SpeechDraft1Carolyn_lessNoise_PlusLocalization,2021.2.3,60.02474059759696,
,,,,,,,,midLeft,-13.0,2,ch1Sound_localizationTask.wav,-13.0,"(762, 878)","(-198,-202)",-190,-338,,,,,,,,,,,,,0,2,2,1,,,,,,,,,,,,,,,,,,,,,,,,,,,,,,,,,,,,,,,,1328.29274936195,None,,,1331.3086575509515,None,1.3714285714285714,0.5666839770274237,1331.3086575509515,None,,,,,,,1329.2922782329842,None,1329.4758691099705,1329.4924936059397,24,001,2023_Feb_16_1713,SpeechDraft1Carolyn_lessNoise_PlusLocalization,2021.2.3,60.02474059759696,
,,,,,,,,farRight,19.1,4,ch1Sound_localizationTask.wav,19.1,"(1237, 878)","(277,-202)",285,-338,,,,,,,,,,,,,0,3,3,6,,,,,,,,,,,,,,,,,,,,,,,,,,,,,,,,,,,,,,,,1331.8923687359784,None,,,1334.9085942249512,None,1.6624338624338624,0.6671848089899868,1334.9085942249512,None,,,,,,,1332.892275359016,None,1333.0756322389934,1333.0923234910006,24,001,2023_Feb_16_1713,SpeechDraft1Carolyn_lessNoise_PlusLocalization,2021.2.3,60.02474059759696,
,,,,,,,,midRight,13.0,3,ch1Sound_localizationTask.wav,13.0,"(1142, 878)","(182, -202)",190,-338,,,,,,,,,,,,,0,4,4,5,,,,,,,,,,,,,,,,,,,,,,,,,,,,,,,,,,,,,,,,1335.5922673860332,None,,,1338.6087042889558,None,1.655026455026455,0.7677431129850447,1338.6087042889558,None,,,,,,,1336.5922624060186,None,1336.775616077939,1336.7922253300203,24,001,2023_Feb_16_1713,SpeechDraft1Carolyn_lessNoise_PlusLocalization,2021.2.3,60.02474059759696,
,,,,,,,,farRight,19.1,4,ch1Sound_localizationTask.wav,19.1,"(1237, 878)","(277,-202)",285,-338,,,,,,,,,,,,,0,5,5,6,,,,,,,,,,,,,,,,,,,,,,,,,,,,,,,,,,,,,,,,1339.3922727429308,None,,,1342.4086705730297,None,1.6661375661375661,0.5999633129686117,1342.4086705730297,None,,,,,,,1340.3923012949526,None,1340.5755434089806,1340.5921859919326,24,001,2023_Feb_16_1713,SpeechDraft1Carolyn_lessNoise_PlusLocalization,2021.2.3,60.02474059759696,
,,,,,,,,center,0.0,6,ch1Sound_localizationTask.wav,0.0,"(952, 878)","(-8,-202)",0,-338,,,,,,,,,,,,,0,6,6,3,,,,,,,,,,,,,,,,,,,,,,,,,,,,,,,,,,,,,,,,1343.0255488849944,None,,,1346.0420901669422,None,1.505820105820106,0.7991157840006053,1346.0420901669422,None,,,,,,,1344.0255867230007,None,1344.2088454089826,1344.2256608470343,24,001,2023_Feb_16_1713,SpeechDraft1Carolyn_lessNoise_PlusLocalization,2021.2.3,60.02474059759696,
,,,,,,,,nearLeft,-6.5,1,ch1Sound_localizationTask.wav,-6.5,"(857, 878)","(-103,-202)",-95,-338,,,,,,,,,,,,,1,0,7,2,,,,,,,,,,,,,,,,,,,,,,,,,,,,,,,,,,,,,,,,1346.8424119959818,None,,,1349.8586602000287,None,1.362962962962963,1.2164745109621435,1349.8586602000287,None,,,,,,,1347.8422202969668,None,1348.0257451880025,1348.0422636630246,24,001,2023_Feb_16_1713,SpeechDraft1Carolyn_lessNoise_PlusLocalization,2021.2.3,60.02474059759696,
,,,,,,,,farLeft,-19.1,5,ch1Sound_localizationTask.wav,-19.1,"(667, 878)","(-293,-202)",-285,-338,,,,,,,,,,,,,1,1,8,0,,,,,,,,,,,,,,,,,,,,,,,,,,,,,,,,,,,,,,,,1351.0923505580286,None,,,1354.1087768409634,None,1.2751322751322751,0.5997758479788899,1354.1087768409634,None,,,,,,,1352.0922720569652,None,1352.2755423330236,1352.292337858933,24,001,2023_Feb_16_1713,SpeechDraft1Carolyn_lessNoise_PlusLocalization,2021.2.3,60.02474059759696,
,,,,,,,,midLeft,-13.0,2,ch1Sound_localizationTask.wav,-13.0,"(762, 878)","(-198,-202)",-190,-338,,,,,,,,,,,,,1,2,9,1,,,,,,,,,,,,,,,,,,,,,,,,,,,,,,,,,,,,,,,,1354.7097533609485,None,,,1357.7254711380228,None,1.0253968253968253,1.1011378660332412,1357.7254711380228,None,,,,,,,1355.7089466199977,None,1355.8923986819573,1355.9089647179935,24,001,2023_Feb_16_1713,SpeechDraft1Carolyn_lessNoise_PlusLocalization,2021.2.3,60.02474059759696,
,,,,,,,,midRight,13.0,3,ch1Sound_localizationTask.wav,13.0,"(1142, 878)","(182, -202)",190,-338,,,,,,,,,,,,,1,3,10,5,,,,,,,,,,,,,,,,,,,,,,,,,,,,,,,,,,,,,,,,1358.8423016070155,None,,,1361.858727401006,None,1.9037037037037037,0.9337642820319161,1361.858727401006,None,,,,,,,1359.8423314050306,None,1360.0256402679952,1360.0423505769577,24,001,2023_Feb_16_1713,SpeechDraft1Carolyn_lessNoise_PlusLocalization,2021.2.3,60.02474059759696,
,,,,,,,,farLeft,-19.1,5,ch1Sound_localizationTask.wav,-19.1,"(667, 878)","(-293,-202)",-285,-338,,,,,,,,,,,,,1,4,11,0,,,,,,,,,,,,,,,,,,,,,,,,,,,,,,,,,,,,,,,,1362.8090959399706,None,,,1365.8254746069433,None,1.1285714285714286,0.6836541329976171,1365.8254746069433,None,,,,,,,1363.8089787840145,None,1363.9922924579587,1364.008982792031,24,001,2023_Feb_16_1713,SpeechDraft1Carolyn_lessNoise_PlusLocalization,2021.2.3,60.02474059759696,
,,,,,,,,nearRight,6.5,0,ch1Sound_localizationTask.wav,6.5,"(1047, 878)","(87, -202)",95,-338,,,,,,,,,,,,,1,5,12,4,,,,,,,,,,,,,,,,,,,,,,,,,,,,,,,,,,,,,,,,1366.5255866019288,None,,,1369.5420255269855,None,1.2661375661375662,0.6993605120806023,1369.5420255269855,None,,,,,,,1367.5255751330405,None,1367.7089443119476,1367.7256021610228,24,001,2023_Feb_16_1713,SpeechDraft1Carolyn_lessNoise_PlusLocalization,2021.2.3,60.02474059759696,
,,,,,,,,farLeft,-19.1,5,ch1Sound_localizationTask.wav,-19.1,"(667, 878)","(-293,-202)",-285,-338,,,,,,,,,,,,,1,6,13,0,,,,,,,,,,,,,,,,,,,,,,,,,,,,,,,,,,,,,,,,1370.2433820209699,None,,,1373.2587698179996,None,1.1407407407407408,0.7492116190260276,1373.2587698179996,None,,,,,,,1371.2423499180004,None,1371.4256963930093,1371.4423917209497,24,001,2023_Feb_16_1713,SpeechDraft1Carolyn_lessNoise_PlusLocalization,2021.2.3,60.02474059759696,
,,,,,,,,midLeft,-13.0,2,ch1Sound_localizationTask.wav,-13.0,"(762, 878)","(-198,-202)",-190,-338,,,,,,,,,,,,,2,0,14,1,,,,,,,,,,,,,,,,,,,,,,,,,,,,,,,,,,,,,,,,1374.0257463499438,None,,,1377.0421225220198,None,1.1952380952380952,0.7156305749667808,1377.0421225220198,None,,,,,,,1375.0256879769731,None,1375.2089845730225,1375.2257008519955,24,001,2023_Feb_16_1713,SpeechDraft1Carolyn_lessNoise_PlusLocalization,2021.2.3,60.02474059759696,
,,,,,,,,farRight,19.1,4,ch1Sound_localizationTask.wav,19.1,"(1237, 878)","(277,-202)",285,-338,,,,,,,,,,,,,2,1,15,6,,,,,,,,,,,,,,,,,,,,,,,,,,,,,,,,,,,,,,,,1377.7756715919822,None,,,1380.7920990530401,None,1.682010582010582,0.6818396160379052,1380.7920990530401,None,,,,,,,1378.7756620609434,None,1378.958897921024,1378.9756046469556,24,001,2023_Feb_16_1713,SpeechDraft1Carolyn_lessNoise_PlusLocalization,2021.2.3,60.02474059759696,
,,,,,,,,midRight,13.0,3,ch1Sound_localizationTask.wav,13.0,"(1142, 878)","(182, -202)",190,-338,,,,,,,,,,,,,2,2,16,5,,,,,,,,,,,,,,,,,,,,,,,,,,,,,,,,,,,,,,,,1381.4757933110232,None,,,1384.4921462240163,None,1.729100529100529,0.6508440170437098,1384.4921462240163,None,,,,,,,1382.4756415640004,None,1382.6589948119363,1382.6756644429406,24,001,2023_Feb_16_1713,SpeechDraft1Carolyn_lessNoise_PlusLocalization,2021.2.3,60.02474059759696,
,,,,,,,,nearLeft,-6.5,1,ch1Sound_localizationTask.wav,-6.5,"(857, 878)","(-103,-202)",-95,-338,,,,,,,,,,,,,2,3,17,2,,,,,,,,,,,,,,,,,,,,,,,,,,,,,,,,,,,,,,,,1385.158963231952,None,,,1388.1755465420429,None,1.42010582010582,0.6831266110530123,1388.1755465420429,None,,,,,,,1386.1589429120068,None,1386.3423214589711,1386.3589564979775,24,001,2023_Feb_16_1713,SpeechDraft1Carolyn_lessNoise_PlusLocalization,2021.2.3,60.02474059759696,
,,,,,,,,nearLeft,-6.5,1,ch1Sound_localizationTask.wav,-6.5,"(857, 878)","(-103,-202)",-95,-338,,,,,,,,,,,,,2,4,18,2,,,,,,,,,,,,,,,,,,,,,,,,,,,,,,,,,,,,,,,,1388.875741653028,None,,,1391.892149257008,None,1.4121693121693122,0.6676301460247487,1391.892149257008,None,,,,,,,1389.875816787011,None,1390.0590125269955,1390.0756352919852,24,001,2023_Feb_16_1713,SpeechDraft1Carolyn_lessNoise_PlusLocalization,2021.2.3,60.02474059759696,
,,,,,,,,midLeft,-13.0,2,ch1Sound_localizationTask.wav,-13.0,"(762, 878)","(-198,-202)",-190,-338,,,,,,,,,,,,,2,5,19,1,,,,,,,,,,,,,,,,,,,,,,,,,,,,,,,,,,,,,,,,1392.5756949409842,None,,,1395.5921974730445,None,1.3470899470899471,0.5987219699891284,1395.5921974730445,None,,,,,,,1393.5756118579302,None,1393.7590612309286,1393.775642152992,24,001,2023_Feb_16_1713,SpeechDraft1Carolyn_lessNoise_PlusLocalization,2021.2.3,60.02474059759696,
,,,,,,,,nearRight,6.5,0,ch1Sound_localizationTask.wav,6.5,"(1047, 878)","(87, -202)",95,-338,,,,,,,,,,,,,2,6,20,4,,,,,,,,,,,,,,,,,,,,,,,,,,,,,,,,,,,,,,,,1396.1925653449725,None,,,1399.2089128920343,None,1.6253968253968254,0.5338047789409757,1399.2089128920343,None,,,,,,,1397.1923146309564,None,1397.3756819319678,1397.3923849490238,24,001,2023_Feb_16_1713,SpeechDraft1Carolyn_lessNoise_PlusLocalization,2021.2.3,60.02474059759696,
,,,,,,,,nearLeft,-6.5,1,ch1Sound_localizationTask.wav,-6.5,"(857, 878)","(-103,-202)",-95,-338,,,,,,,,,,,,,3,0,21,2,,,,,,,,,,,,,,,,,,,,,,,,,,,,,,,,,,,,,,,,1399.7590034489986,None,,,1402.775468006963,None,1.3973544973544973,0.8005716420011595,1402.775468006963,None,,,,,,,1400.7590100170346,None,1400.9423359920038,1400.9589137319708,24,001,2023_Feb_16_1713,SpeechDraft1Carolyn_lessNoise_PlusLocalization,2021.2.3,60.02474059759696,
,,,,,,,,midRight,13.0,3,ch1Sound_localizationTask.wav,13.0,"(1142, 878)","(182, -202)",190,-338,,,,,,,,,,,,,3,1,22,5,,,,,,,,,,,,,,,,,,,,,,,,,,,,,,,,,,,,,,,,1403.592471673037,None,,,1406.6088244420243,None,1.8597883597883598,0.8669704479398206,1406.6088244420243,None,,,,,,,1404.5923200750258,None,1404.775617902982,1404.7922844809946,24,001,2023_Feb_16_1713,SpeechDraft1Carolyn_lessNoise_PlusLocalization,2021.2.3,60.02474059759696,
,,,,,,,,farLeft,-19.1,5,ch1Sound_localizationTask.wav,-19.1,"(667, 878)","(-293,-202)",-285,-338,,,,,,,,,,,,,3,2,23,0,,,,,,,,,,,,,,,,,,,,,,,,,,,,,,,,,,,,,,,,1407.4923682450317,None,,,1410.5087127590086,None,1.2015873015873015,0.7836218760348856,1410.5087127590086,None,,,,,,,1408.4923977010185,None,1408.6757137229433,1408.6923786250409,24,001,2023_Feb_16_1713,SpeechDraft1Carolyn_lessNoise_PlusLocalization,2021.2.3,60.02474059759696,
,,,,,,,,farLeft,-19.1,5,ch1Sound_localizationTask.wav,-19.1,"(667, 878)","(-293,-202)",-285,-338,,,,,,,,,,,,,3,3,24,0,,,,,,,,,,,,,,,,,,,,,,,,,,,,,,,,,,,,,,,,1411.3090845739935,None,,,1414.3254334289813,None,1.1677248677248677,0.3157108499435708,1414.3254334289813,None,,,,,,,1412.309099282953,None,1412.492407085956,1412.5090138459345,24,001,2023_Feb_16_1713,SpeechDraft1Carolyn_lessNoise_PlusLocalization,2021.2.3,60.02474059759696,
,,,,,,,,center,0.0,6,ch1Sound_localizationTask.wav,0.0,"(952, 878)","(-8,-202)",0,-338,,,,,,,,,,,,,3,4,25,3,,,,,,,,,,,,,,,,,,,,,,,,,,,,,,,,,,,,,,,,1414.6425582909724,None,,,1417.6588284500176,None,1.516931216931217,0.9008096558973193,1417.6588284500176,None,,,,,,,1415.642387646949,None,1415.825720550958,1415.8422887070337,24,001,2023_Feb_16_1713,SpeechDraft1Carolyn_lessNoise_PlusLocalization,2021.2.3,60.02474059759696,
,,,,,,,,farLeft,-19.1,5,ch1Sound_localizationTask.wav,-19.1,"(667, 878)","(-293,-202)",-285,-338,,,,,,,,,,,,,3,5,26,0,,,,,,,,,,,,,,,,,,,,,,,,,,,,,,,,,,,,,,,,1418.575675725937,None,,,1421.5921033460181,None,1.0724867724867724,0.8003289049956948,1421.5921033460181,None,,,,,,,1419.5759794879705,None,1419.7591462930432,1419.7756981089478,24,001,2023_Feb_16_1713,SpeechDraft1Carolyn_lessNoise_PlusLocalization,2021.2.3,60.02474059759696,
,,,,,,,,farRight,19.1,4,ch1Sound_localizationTask.wav,19.1,"(1237, 878)","(277,-202)",285,-338,,,,,,,,,,,,,3,6,27,6,,,,,,,,,,,,,,,,,,,,,,,,,,,,,,,,,,,,,,,,1422.4093092660187,None,,,1425.425616611028,None,1.8645502645502645,0.9326737739611417,1425.425616611028,None,,,,,,,1423.408972928999,None,1423.592413226026,1423.6090143839829,24,001,2023_Feb_16_1713,SpeechDraft1Carolyn_lessNoise_PlusLocalization,2021.2.3,60.02474059759696,
,,,,,,,,midLeft,-13.0,2,ch1Sound_localizationTask.wav,-13.0,"(762, 878)","(-198,-202)",-190,-338,,,,,,,,,,,,,4,0,28,1,,,,,,,,,,,,,,,,,,,,,,,,,,,,,,,,,,,,,,,,1426.375731318025,None,,,1429.3921550459927,None,1.1968253968253968,0.9516167000401765,1429.3921550459927,None,,,,,,,1427.3758085429436,None,1427.5592738880077,1427.5758142779814,24,001,2023_Feb_16_1713,SpeechDraft1Carolyn_lessNoise_PlusLocalization,2021.2.3,60.02474059759696,
,,,,,,,,farLeft,-19.1,5,ch1Sound_localizationTask.wav,-19.1,"(667, 878)","(-293,-202)",-285,-338,,,,,,,,,,,,,4,1,29,0,,,,,,,,,,,,,,,,,,,,,,,,,,,,,,,,,,,,,,,,1430.3590851880144,None,,,1433.3754974870244,None,1.312169312169312,0.7846486829221249,1433.3754974870244,None,,,,,,,1431.3591578080086,None,1431.5423729419708,1431.5590348630212,24,001,2023_Feb_16_1713,SpeechDraft1Carolyn_lessNoise_PlusLocalization,2021.2.3,60.02474059759696,
,,,,,,,,nearLeft,-6.5,1,ch1Sound_localizationTask.wav,-6.5,"(857, 878)","(-103,-202)",-95,-338,,,,,,,,,,,,,4,2,30,2,,,,,,,,,,,,,,,,,,,,,,,,,,,,,,,,,,,,,,,,1434.1756493489956,None,,,1437.1921603590017,None,1.391005291005291,0.5167008159914985,1437.1921603590017,None,,,,,,,1435.175704829977,None,1435.359138550004,1435.3756141359918,24,001,2023_Feb_16_1713,SpeechDraft1Carolyn_lessNoise_PlusLocalization,2021.2.3,60.02474059759696,
,,,,,,,,nearRight,6.5,0,ch1Sound_localizationTask.wav,6.5,"(1047, 878)","(87, -202)",95,-338,,,,,,,,,,,,,4,3,31,4,,,,,,,,,,,,,,,,,,,,,,,,,,,,,,,,,,,,,,,,1437.725922337966,None,,,1440.742122974014,None,1.6301587301587301,1.0176811469718814,1440.742122974014,None,,,,,,,1438.7257270269329,None,1438.9089676409494,1438.9256429499947,24,001,2023_Feb_16_1713,SpeechDraft1Carolyn_lessNoise_PlusLocalization,2021.2.3,60.02474059759696,
,,,,,,,,farRight,19.1,4,ch1Sound_localizationTask.wav,19.1,"(1237, 878)","(277,-202)",285,-338,,,,,,,,,,,,,4,4,32,6,,,,,,,,,,,,,,,,,,,,,,,,,,,,,,,,,,,,,,,,1441.775773255038,None,,,1444.792144890991,None,1.8407407407407408,0.6672760889632627,1444.792144890991,None,,,,,,,1442.7757895599352,None,1442.959023301024,1442.9757342810044,24,001,2023_Feb_16_1713,SpeechDraft1Carolyn_lessNoise_PlusLocalization,2021.2.3,60.02474059759696,
,,,,,,,,center,0.0,6,ch1Sound_localizationTask.wav,0.0,"(952, 878)","(-8,-202)",0,-338,,,,,,,,,,,,,4,5,33,3,,,,,,,,,,,,,,,,,,,,,,,,,,,,,,,,,,,,,,,,1445.4758186310064,None,,,1448.4922274140408,None,1.5132275132275133,0.733375838957727,1448.4922274140408,None,,,,,,,1446.4756839509355,None,1446.659035583958,1446.6757694040425,24,001,2023_Feb_16_1713,SpeechDraft1Carolyn_lessNoise_PlusLocalization,2021.2.3,60.02474059759696,
,,,,,,,,farRight,19.1,4,ch1Sound_localizationTask.wav,19.1,"(1237, 878)","(277,-202)",285,-338,,,,,,,,,,,,,4,6,34,6,,,,,,,,,,,,,,,,,,,,,,,,,,,,,,,,,,,,,,,,1449.2425474909833,None,,,1452.258781043929,None,1.7439153439153439,0.6326338179642335,1452.258781043929,None,,,,,,,1450.2424405970378,None,1450.4257401389768,1450.4424752549967,24,001,2023_Feb_16_1713,SpeechDraft1Carolyn_lessNoise_PlusLocalization,2021.2.3,60.02474059759696,
,,,,,,,,midLeft,-13.0,2,ch1Sound_localizationTask.wav,-13.0,"(762, 878)","(-198,-202)",-190,-338,,,,,,,,,,,,,5,0,35,1,,,,,,,,,,,,,,,,,,,,,,,,,,,,,,,,,,,,,,,,1452.9091552509926,None,,,1455.9255183170317,None,1.2735449735449735,0.7499798729550093,1455.9255183170317,None,,,,,,,1453.9090263789985,None,1454.0923902030336,1454.1090654520085,24,001,2023_Feb_16_1713,SpeechDraft1Carolyn_lessNoise_PlusLocalization,2021.2.3,60.02474059759696,
,,,,,,,,nearRight,6.5,0,ch1Sound_localizationTask.wav,6.5,"(1047, 878)","(87, -202)",95,-338,,,,,,,,,,,,,5,1,36,4,,,,,,,,,,,,,,,,,,,,,,,,,,,,,,,,,,,,,,,,1456.6924283209955,None,,,1459.7089054490207,None,1.6465608465608466,0.7498355720890686,1459.7089054490207,None,,,,,,,1457.6923777629854,None,1457.875691932044,1457.8923966329312,24,001,2023_Feb_16_1713,SpeechDraft1Carolyn_lessNoise_PlusLocalization,2021.2.3,60.02474059759696,
,,,,,,,,center,0.0,6,ch1Sound_localizationTask.wav,0.0,"(952, 878)","(-8,-202)",0,-338,,,,,,,,,,,,,5,2,37,3,,,,,,,,,,,,,,,,,,,,,,,,,,,,,,,,,,,,,,,,1460.4757917280076,None,,,1463.4922451289603,None,1.5,0.5667907090391964,1463.4922451289603,None,,,,,,,1461.4757356490009,None,1461.6591762680328,1461.6756858529989,24,001,2023_Feb_16_1713,SpeechDraft1Carolyn_lessNoise_PlusLocalization,2021.2.3,60.02474059759696,
,,,,,,,,nearRight,6.5,0,ch1Sound_localizationTask.wav,6.5,"(1047, 878)","(87, -202)",95,-338,,,,,,,,,,,,,5,3,38,4,,,,,,,,,,,,,,,,,,,,,,,,,,,,,,,,,,,,,,,,1464.0759582539322,None,,,1467.0921902570408,None,1.6867724867724867,0.4999318579211831,1467.0921902570408,None,,,,,,,1465.0757501040353,None,1465.2591715889284,1465.275725267944,24,001,2023_Feb_16_1713,SpeechDraft1Carolyn_lessNoise_PlusLocalization,2021.2.3,60.02474059759696,
,,,,,,,,farRight,19.1,4,ch1Sound_localizationTask.wav,19.1,"(1237, 878)","(277,-202)",285,-338,,,,,,,,,,,,,5,4,39,6,,,,,,,,,,,,,,,,,,,,,,,,,,,,,,,,,,,,,,,,1467.6090876179514,None,,,1470.625559367938,None,1.734920634920635,0.6332225019577891,1470.625559367938,None,,,,,,,1468.6090719070053,None,1468.7924269259674,1468.8090786909452,24,001,2023_Feb_16_1713,SpeechDraft1Carolyn_lessNoise_PlusLocalization,2021.2.3,60.02474059759696,
,,,,,,,,nearLeft,-6.5,1,ch1Sound_localizationTask.wav,-6.5,"(857, 878)","(-103,-202)",-95,-338,,,,,,,,,,,,,5,5,40,2,,,,,,,,,,,,,,,,,,,,,,,,,,,,,,,,,,,,,,,,1471.2757326479768,None,,,1474.2922327099368,None,1.37989417989418,0.6173790900502354,1474.2922327099368,None,,,,,,,1472.2757039149292,None,1472.459138354985,1472.4757767189294,24,001,2023_Feb_16_1713,SpeechDraft1Carolyn_lessNoise_PlusLocalization,2021.2.3,60.02474059759696,
,,,,,,,,midLeft,-13.0,2,ch1Sound_localizationTask.wav,-13.0,"(762, 878)","(-198,-202)",-190,-338,,,,,,,,,,,,,5,6,41,1,,,,,,,,,,,,,,,,,,,,,,,,,,,,,,,,,,,,,,,,1474.9259012090042,None,,,1477.9423754060408,None,1.3211640211640212,0.6349153090268373,1477.9423754060408,None,,,,,,,1475.9258291559527,None,1476.1091462499462,1476.125738251023,24,001,2023_Feb_16_1713,SpeechDraft1Carolyn_lessNoise_PlusLocalization,2021.2.3,60.02474059759696,
,,,,,,,,farLeft,-19.1,5,ch1Sound_localizationTask.wav,-19.1,"(667, 878)","(-293,-202)",-285,-338,,,,,,,,,,,,,6,0,42,0,,,,,,,,,,,,,,,,,,,,,,,,,,,,,,,,,,,,,,,,1478.5923882549396,None,,,1481.6089129699394,None,1.2645502645502646,0.6661429050145671,1481.6089129699394,None,,,,,,,1479.592459116946,None,1479.7757344499696,1479.7924918959616,24,001,2023_Feb_16_1713,SpeechDraft1Carolyn_lessNoise_PlusLocalization,2021.2.3,60.02474059759696,
,,,,,,,,center,0.0,6,ch1Sound_localizationTask.wav,0.0,"(952, 878)","(-8,-202)",0,-338,,,,,,,,,,,,,6,1,43,3,,,,,,,,,,,,,,,,,,,,,,,,,,,,,,,,,,,,,,,,1482.277194467024,None,,,1485.3088716650382,None,1.519047619047619,0.6170319709926844,1485.3088716650382,None,,,,,,,1483.2923869549995,None,1483.475803263951,1483.4925420399522,24,001,2023_Feb_16_1713,SpeechDraft1Carolyn_lessNoise_PlusLocalization,2021.2.3,60.02474059759696,
,,,,,,,,nearRight,6.5,0,ch1Sound_localizationTask.wav,6.5,"(1047, 878)","(87, -202)",95,-338,,,,,,,,,,,,,6,2,44,4,,,,,,,,,,,,,,,,,,,,,,,,,,,,,,,,,,,,,,,,1485.9424192860024,None,,,1488.9588613359956,None,1.6306878306878307,0.6671889619901776,1488.9588613359956,None,,,,,,,1486.9424405000173,None,1487.1258063740097,1487.1424464830197,24,001,2023_Feb_16_1713,SpeechDraft1Carolyn_lessNoise_PlusLocalization,2021.2.3,60.02474059759696,
,,,,,,,,midRight,13.0,3,ch1Sound_localizationTask.wav,13.0,"(1142, 878)","(182, -202)",190,-338,,,,,,,,,,,,,6,3,45,5,,,,,,,,,,,,,,,,,,,,,,,,,,,,,,,,,,,,,,,,1489.6425771450158,None,,,1492.6589520600392,None,1.6047619047619048,0.5167682679602876,1492.6589520600392,None,,,,,,,1490.6425440820167,None,1490.8259205130162,1490.8426216129446,24,001,2023_Feb_16_1713,SpeechDraft1Carolyn_lessNoise_PlusLocalization,2021.2.3,60.02474059759696,
,,,,,,,,midRight,13.0,3,ch1Sound_localizationTask.wav,13.0,"(1142, 878)","(182, -202)",190,-338,,,,,,,,,,,,,6,4,46,5,,,,,,,,,,,,,,,,,,,,,,,,,,,,,,,,,,,,,,,,1493.1766165859299,None,,,1496.1922757609282,None,1.6656084656084655,0.06545403704512864,1496.1922757609282,None,,,,,,,1494.1758386780275,None,1494.359194351011,1494.3758096669335,24,001,2023_Feb_16_1713,SpeechDraft1Carolyn_lessNoise_PlusLocalization,2021.2.3,60.02474059759696,
,,,,,,,,nearRight,6.5,0,ch1Sound_localizationTask.wav,6.5,"(1047, 878)","(87, -202)",95,-338,,,,,,,,,,,,,6,5,47,4,,,,,,,,,,,,,,,,,,,,,,,,,,,,,,,,,,,,,,,,1496.2594407970319,None,,,1499.2756182969315,None,1.6142857142857143,0.41730176797136664,1499.2756182969315,None,,,,,,,1497.2591639659368,None,1497.4425290119834,1497.4591961420374,24,001,2023_Feb_16_1713,SpeechDraft1Carolyn_lessNoise_PlusLocalization,2021.2.3,60.02474059759696,
,,,,,,,,midRight,13.0,3,ch1Sound_localizationTask.wav,13.0,"(1142, 878)","(182, -202)",190,-338,,,,,,,,,,,,,6,6,48,5,,,,,,,,,,,,,,,,,,,,,,,,,,,,,,,,,,,,,,,,1499.7092122649774,None,,,1502.7255428440403,None,1.6941798941798942,0.45017750293482095,1502.7255428440403,None,,,,,,,1500.709325180971,None,1500.8924691579305,1500.909140461008,24,001,2023_Feb_16_1713,SpeechDraft1Carolyn_lessNoise_PlusLocalization,2021.2.3,60.02474059759696,
,,,,,,,,nearLeft,-6.5,1,ch1Sound_localizationTask.wav,-6.5,"(857, 878)","(-103,-202)",-95,-338,,,,,,,,,,,,,7,0,49,2,,,,,,,,,,,,,,,,,,,,,,,,,,,,,,,,,,,,,,,,1503.1925959889777,None,,,1506.2089948740322,None,1.348148148148148,0.6167571620317176,1506.2089948740322,None,,,,,,,1504.1925469449488,None,1504.3757638019742,1504.3925275609363,24,001,2023_Feb_16_1713,SpeechDraft1Carolyn_lessNoise_PlusLocalization,2021.2.3,60.02474059759696,
,,,,,,,,center,0.0,6,ch1Sound_localizationTask.wav,0.0,"(952, 878)","(-8,-202)",0,-338,,,,,,,,,,,,,7,1,50,3,,,,,,,,,,,,,,,,,,,,,,,,,,,,,,,,,,,,,,,,1506.842525820015,None,,,1509.8588226609863,None,1.5063492063492063,0.8833134790183976,1509.8588226609863,None,,,,,,,1507.8424519080436,None,1508.026001124992,1508.0425177080324,24,001,2023_Feb_16_1713,SpeechDraft1Carolyn_lessNoise_PlusLocalization,2021.2.3,60.02474059759696,
,,,,,,,,farRight,19.1,4,ch1Sound_localizationTask.wav,19.1,"(1237, 878)","(277,-202)",285,-338,,,,,,,,,,,,,7,2,51,6,,,,,,,,,,,,,,,,,,,,,,,,,,,,,,,,,,,,,,,,1510.7590994429775,None,,,1513.775458557997,None,1.7343915343915344,0.5338934769388288,1513.775458557997,None,,,,,,,1511.759077433031,None,1511.9424487210345,1511.9594470949378,24,001,2023_Feb_16_1713,SpeechDraft1Carolyn_lessNoise_PlusLocalization,2021.2.3,60.02474059759696,
,,,,,,,,center,0.0,6,ch1Sound_localizationTask.wav,0.0,"(952, 878)","(-8,-202)",0,-338,,,,,,,,,,,,,7,3,52,3,,,,,,,,,,,,,,,,,,,,,,,,,,,,,,,,,,,,,,,,1514.3258546279976,None,,,1517.3421916119987,None,1.491005291005291,0.6323312040185556,1517.3421916119987,None,,,,,,,1515.3258816619636,None,1515.5093235370005,1515.5257248179987,24,001,2023_Feb_16_1713,SpeechDraft1Carolyn_lessNoise_PlusLocalization,2021.2.3,60.02474059759696,
,,,,,,,,nearRight,6.5,0,ch1Sound_localizationTask.wav,6.5,"(1047, 878)","(87, -202)",95,-338,,,,,,,,,,,,,7,4,53,4,,,,,,,,,,,,,,,,,,,,,,,,,,,,,,,,,,,,,,,,1517.9927084159572,None,,,1521.0090275709517,None,1.544973544973545,0.41593521903268993,1521.0090275709517,None,,,,,,,1518.9925810539862,None,1519.1757912429748,1519.1925358959707,24,001,2023_Feb_16_1713,SpeechDraft1Carolyn_lessNoise_PlusLocalization,2021.2.3,60.02474059759696,
,,,,,,,,midLeft,-13.0,2,ch1Sound_localizationTask.wav,-13.0,"(762, 878)","(-198,-202)",-190,-338,,,,,,,,,,,,,7,5,54,1,,,,,,,,,,,,,,,,,,,,,,,,,,,,,,,,,,,,,,,,1521.426996698021,None,,,1524.45896634995,None,1.2973544973544975,0.8513961009448394,1524.45896634995,None,,,,,,,1522.4425794979325,None,1522.6259561970364,1522.642505538999,24,001,2023_Feb_16_1713,SpeechDraft1Carolyn_lessNoise_PlusLocalization,2021.2.3,60.02474059759696,
,,,,,,,,center,0.0,6,ch1Sound_localizationTask.wav,0.0,"(952, 878)","(-8,-202)",0,-338,,,,,,,,,,,,,7,6,55,3,,,,,,,,,,,,,,,,,,,,,,,,,,,,,,,,,,,,,,,,1525.3259105799953,None,,,1528.3423358550062,None,1.491005291005291,0.7501878180773929,1528.3423358550062,None,,,,,,,1526.3258284699405,None,1526.5092119519832,1526.5258673409699,24,001,2023_Feb_16_1713,SpeechDraft1Carolyn_lessNoise_PlusLocalization,2021.2.3,60.02474059759696,
