Audio_Only_Files,Video_Files,Original_Word_List,noiseLevelCode,conditionCodes,noiseLevelFile1,noiseLevelFile2,InstrTextVar,targetSpeakerName,targetSpeakerEccen,targetSpkrChannel,targetSpkrSound,targetVisualDegrees,visStimLoc,visStimLoc2,visStimW,visStimH,practiceTrials.thisRepN,practiceTrials.thisTrialN,practiceTrials.thisN,practiceTrials.thisIndex,trials.thisRepN,trials.thisTrialN,trials.thisN,trials.thisIndex,audLocalLoop.thisRepN,audLocalLoop.thisTrialN,audLocalLoop.thisN,audLocalLoop.thisIndex,visualLocalLoop.thisRepN,visualLocalLoop.thisTrialN,visualLocalLoop.thisN,visualLocalLoop.thisIndex,letsGoAlready.keys,letsGoAlready.rt,letsGoAlready.started,letsGoAlready.stopped,text_2.started,text_2.stopped,text_3.started,text_3.stopped,key_resp_2.keys,key_resp_2.rt,key_resp_2.started,key_resp_2.stopped,text_5.started,text_5.stopped,fixCross.started,fixCross.stopped,fixCross2.started,fixCross2.stopped,answerPrompt.started,answerPrompt.stopped,getAnswer.text,getAnswer.started,getAnswer.stopped,goToNext.keys,goToNext.rt,goToNext.started,goToNext.stopped,stretchBreakTxrt.started,stretchBreakTxrt.stopped,key_resp_3.keys,key_resp_3.rt,key_resp_3.started,key_resp_3.stopped,letsGoLocal.keys,letsGoLocal.rt,letsGoLocal.started,letsGoLocal.stopped,text_4.started,text_4.stopped,prepFixTxt.started,prepFixTxt.stopped,prepFixTxt_2.started,prepFixTxt_2.stopped,respPromptLocal.started,respPromptLocal.stopped,slider.response,slider.rt,slider.started,slider.stopped,letsGoLocal_2.keys,letsGoLocal_2.rt,letsGoLocal_2.started,letsGoLocal_2.stopped,text_7.started,text_7.stopped,prepFixTxt_3.started,prepFixTxt_3.stopped,grating.started,grating.stopped,participant,session,date,expName,psychopyVersion,frameRate,
,,,,,,,,,,,,,,,,,,,,,,,,,,,,,,,,,space,1.6653250970412046,10.693288402049802,None,,,,,,,,,,,,,,,,,,,,,,,,,,,,,,,,,,,,,,,,,,,,,,,,,,,,,,,,25,001,2023_Feb_17_1504,SpeechDraft1Carolyn_lessNoise_PlusLocalization,2021.2.3,59.95271049129969,
,,,,,,,,,,,,,,,,,,,,,,,,,,,,,,,,,,,,,10.693288402049802,None,12.37970083404798,None,space,9.646517285960726,12.560055689071305,None,,,,,,,,,,,,,,,,,,,,,,,,,,,,,,,,,,,,,,,,,,,,,,,,25,001,2023_Feb_17_1504,SpeechDraft1Carolyn_lessNoise_PlusLocalization,2021.2.3,59.95271049129969,
ash.wav,ash.mpg,ash,1,A,Pink_Noise_1_1.wav,Pink_Noise_1_2.wav,"This is an example of an

AUDIO trial",,,,,,,,,,0,0,0,0,,,,,,,,,,,,,,,,,,,,,,,,,22.260006844066083,None,23.243179740034975,None,26.394437853014097,None,27.776391724008135,None,ashe,27.776391724008135,None,return,52.5549527000403,27.859585645026527,None,,,,,,,,,,,,,,,,,,,,,,,,,,,,,,,,,25,001,2023_Feb_17_1504,SpeechDraft1Carolyn_lessNoise_PlusLocalization,2021.2.3,59.95271049129969,
ash.wav,ash.mpg,ash,1,AV,Pink_Noise_1_1.wav,Pink_Noise_1_2.wav,"This is an example of an

AUDIO + VIDEO  trial",,,,,,,,,,0,1,1,1,,,,,,,,,,,,,,,,,,,,,,,,,80.45937637006864,None,81.4598102500895,None,82.94276136404369,None,84.32615125901066,None,aishe,84.32615125901066,None,return,48.62849992606789,84.41001771506853,None,,,,,,,,,,,,,,,,,,,,,,,,,,,,,,,,,25,001,2023_Feb_17_1504,SpeechDraft1Carolyn_lessNoise_PlusLocalization,2021.2.3,59.95271049129969,
,,,,,,,,,,,,,,,,,,,,,,,,,,,,,,,,,,,,,,,,,,,,,,,,,,,,,,,,,,,,133.0763839520514,None,space,6.114646999049,133.25983882707078,None,,,,,,,,,,,,,,,,,,,,,,,,,,,25,001,2023_Feb_17_1504,SpeechDraft1Carolyn_lessNoise_PlusLocalization,2021.2.3,59.95271049129969,
guilt.wav,guilt.mpg,guilt,1,A,Pink_Noise_1_1.wav,Pink_Noise_1_2.wav,,,,,,,,,,,,,,,0,0,0,47,,,,,,,,,,,,,,,,,,,,,,,139.42618730210233,None,140.89287438208703,None,142.2763298880309,None,guilt,142.2763298880309,None,return,13.198669034056365,142.35992221708875,None,,,,,,,,,,,,,,,,,,,,,,,,,,,,,,,,,25,001,2023_Feb_17_1504,SpeechDraft1Carolyn_lessNoise_PlusLocalization,2021.2.3,59.95271049129969,
layer.wav,layer.mpg,layer,1,AV,Pink_Noise_1_1.wav,Pink_Noise_1_2.wav,,,,,,,,,,,,,,,0,1,1,64,,,,,,,,,,,,,,,,,,,,,,,155.57663353905082,None,157.05961013201158,None,158.44325657503214,None,lzyer,158.44325657503214,None,return,12.208017288008705,158.5264582070522,None,,,,,,,,,,,,,,,,,,,,,,,,,,,,,,,,,25,001,2023_Feb_17_1504,SpeechDraft1Carolyn_lessNoise_PlusLocalization,2021.2.3,59.95271049129969,
unit.wav,unit.mpg,unit,1,AV,Pink_Noise_1_1.wav,Pink_Noise_1_2.wav,,,,,,,,,,,,,,,0,2,2,106,,,,,,,,,,,,,,,,,,,,,,,170.75992148707155,None,172.24319776706398,None,173.62654576206114,None,unite,173.62654576206114,None,return,3.6646967419655994,173.70979542809073,None,,,,,,,,,,,,,,,,,,,,,,,,,,,,,,,,,25,001,2023_Feb_17_1504,SpeechDraft1Carolyn_lessNoise_PlusLocalization,2021.2.3,59.95271049129969,
bring.wav,bring.mpg,bring,6,A,Pink_Noise_6_1.wav,Pink_Noise_6_2.wav,,,,,,,,,,,,,,,0,3,3,27,,,,,,,,,,,,,,,,,,,,,,,177.3933104390744,None,178.8931185550755,None,180.27649322501384,None,bring,180.27649322501384,None,return,5.038778882008046,180.35976184904575,None,,,,,,,,,,,,,,,,,,,,,,,,,,,,,,,,,25,001,2023_Feb_17_1504,SpeechDraft1Carolyn_lessNoise_PlusLocalization,2021.2.3,59.95271049129969,
fan.wav,fan.mpg,fan,5,AV,Pink_Noise_5_1.wav,Pink_Noise_5_2.wav,,,,,,,,,,,,,,,0,4,4,84,,,,,,,,,,,,,,,,,,,,,,,185.42651762405876,None,186.9097680710256,None,188.29330070805736,None,ven,188.29330070805736,None,return,11.9661471870495,188.37642962601967,None,,,,,,,,,,,,,,,,,,,,,,,,,,,,,,,,,25,001,2023_Feb_17_1504,SpeechDraft1Carolyn_lessNoise_PlusLocalization,2021.2.3,59.95271049129969,
grass.wav,grass.mpg,grass,5,A,Pink_Noise_5_1.wav,Pink_Noise_5_2.wav,,,,,,,,,,,,,,,0,5,5,19,,,,,,,,,,,,,,,,,,,,,,,200.35981991502922,None,201.84300162503496,None,203.22641255205963,None,vance,203.22641255205963,None,return,21.32055835891515,203.30992902698927,None,,,,,,,,,,,,,,,,,,,,,,,,,,,,,,,,,25,001,2023_Feb_17_1504,SpeechDraft1Carolyn_lessNoise_PlusLocalization,2021.2.3,59.95271049129969,
priest.wav,priest.mpg,priest,3,A,Pink_Noise_3_1.wav,Pink_Noise_3_2.wav,,,,,,,,,,,,,,,0,6,6,58,,,,,,,,,,,,,,,,,,,,,,,224.65988067700528,None,226.15978046599776,None,227.52666883799247,None,cryst,227.52666883799247,None,return,19.772639030008577,227.6100011949893,None,,,,,,,,,,,,,,,,,,,,,,,,,,,,,,,,,25,001,2023_Feb_17_1504,SpeechDraft1Carolyn_lessNoise_PlusLocalization,2021.2.3,59.95271049129969,
fame.wav,fame.mpg,fame,6,A,Pink_Noise_6_1.wav,Pink_Noise_6_2.wav,,,,,,,,,,,,,,,0,7,7,44,,,,,,,,,,,,,,,,,,,,,,,247.40989026601892,None,248.89323658007197,None,250.27669467800297,None,van,250.27669467800297,None,return,11.366697268094867,250.35989496007096,None,,,,,,,,,,,,,,,,,,,,,,,,,,,,,,,,,25,001,2023_Feb_17_1504,SpeechDraft1Carolyn_lessNoise_PlusLocalization,2021.2.3,59.95271049129969,
fail.wav,fail.mpg,fail,2,A,Pink_Noise_2_1.wav,Pink_Noise_2_2.wav,,,,,,,,,,,,,,,0,8,8,38,,,,,,,,,,,,,,,,,,,,,,,261.74340716702864,None,263.2265946470434,None,264.6099101920845,None,"bill
",264.6099101920845,None,return,4.137334397993982,264.69315618509427,None,,,,,,,,,,,,,,,,,,,,,,,,,,,,,,,,,25,001,2023_Feb_17_1504,SpeechDraft1Carolyn_lessNoise_PlusLocalization,2021.2.3,59.95271049129969,
truce.wav,truce.mpg,truce,4,A,Pink_Noise_4_1.wav,Pink_Noise_4_2.wav,,,,,,,,,,,,,,,0,9,9,2,,,,,,,,,,,,,,,,,,,,,,,268.86028957902454,None,270.34324192104395,None,271.72673970402684,None,truth,271.72673970402684,None,return,14.228415822028182,271.81008176505566,None,,,,,,,,,,,,,,,,,,,,,,,,,,,,,,,,,25,001,2023_Feb_17_1504,SpeechDraft1Carolyn_lessNoise_PlusLocalization,2021.2.3,59.95271049129969,
fit.wav,fit.mpg,fit,6,A,Pink_Noise_6_1.wav,Pink_Noise_6_2.wav,,,,,,,,,,,,,,,0,10,10,15,,,,,,,,,,,,,,,,,,,,,,,286.0600120710442,None,287.5451675010845,None,288.9268960549962,None,vet,288.9268960549962,None,return,3.644497963017784,289.0099866070086,None,,,,,,,,,,,,,,,,,,,,,,,,,,,,,,,,,25,001,2023_Feb_17_1504,SpeechDraft1Carolyn_lessNoise_PlusLocalization,2021.2.3,59.95271049129969,
strike.wav,strike.mpg,strike,4,AV,Pink_Noise_4_1.wav,Pink_Noise_4_2.wav,,,,,,,,,,,,,,,0,11,11,101,,,,,,,,,,,,,,,,,,,,,,,292.67666979006026,None,294.1599824250443,None,295.54338885401376,None,strike,295.54338885401376,None,return,15.515674791997299,295.6269100380596,None,,,,,,,,,,,,,,,,,,,,,,,,,,,,,,,,,25,001,2023_Feb_17_1504,SpeechDraft1Carolyn_lessNoise_PlusLocalization,2021.2.3,59.95271049129969,
flock.wav,flock.mpg,flock,2,A,Pink_Noise_2_1.wav,Pink_Noise_2_2.wav,,,,,,,,,,,,,,,0,12,12,39,,,,,,,,,,,,,,,,,,,,,,,311.1602103241021,None,312.6598921860568,None,314.04346777510364,None,flack,314.04346777510364,None,return,15.775688588037156,314.12678713409696,None,,,,,,,,,,,,,,,,,,,,,,,,,,,,,,,,,25,001,2023_Feb_17_1504,SpeechDraft1Carolyn_lessNoise_PlusLocalization,2021.2.3,59.95271049129969,
egg.wav,egg.mpg,egg,1,AV,Pink_Noise_1_1.wav,Pink_Noise_1_2.wav,,,,,,,,,,,,,,,0,13,13,66,,,,,,,,,,,,,,,,,,,,,,,329.9268016280839,None,331.4097916280152,None,332.7933647230966,None,egg,332.7933647230966,None,return,9.93780457007233,332.87671288102865,None,,,,,,,,,,,,,,,,,,,,,,,,,,,,,,,,,25,001,2023_Feb_17_1504,SpeechDraft1Carolyn_lessNoise_PlusLocalization,2021.2.3,59.95271049129969,
fish.wav,fish.mpg,fish,6,A,Pink_Noise_6_1.wav,Pink_Noise_6_2.wav,,,,,,,,,,,,,,,0,14,14,5,,,,,,,,,,,,,,,,,,,,,,,342.84340528410394,None,344.32660066499375,None,345.71019603009336,None,fish,345.71019603009336,None,return,2.8050442279782146,345.7935202730587,None,,,,,,,,,,,,,,,,,,,,,,,,,,,,,,,,,25,001,2023_Feb_17_1504,SpeechDraft1Carolyn_lessNoise_PlusLocalization,2021.2.3,59.95271049129969,
oats.wav,oats.mpg,oats,3,AV,Pink_Noise_3_1.wav,Pink_Noise_3_2.wav,,,,,,,,,,,,,,,0,15,15,102,,,,,,,,,,,,,,,,,,,,,,,348.62689472408965,None,350.12652666599024,None,351.49340623803437,None,nuts,351.49340623803437,None,return,6.821888771024533,351.57668834005017,None,,,,,,,,,,,,,,,,,,,,,,,,,,,,,,,,,25,001,2023_Feb_17_1504,SpeechDraft1Carolyn_lessNoise_PlusLocalization,2021.2.3,59.95271049129969,
fresh.wav,fresh.mpg,fresh,6,AV,Pink_Noise_6_1.wav,Pink_Noise_6_2.wav,,,,,,,,,,,,,,,0,16,16,83,,,,,,,,,,,,,,,,,,,,,,,358.42681503202766,None,359.9100887820823,None,361.29344911105,None,rush,361.29344911105,None,return,2.5973930900217965,361.3771361360559,None,,,,,,,,,,,,,,,,,,,,,,,,,,,,,,,,,25,001,2023_Feb_17_1504,SpeechDraft1Carolyn_lessNoise_PlusLocalization,2021.2.3,59.95271049129969,
wet.wav,wet.mpg,wet,3,A,Pink_Noise_3_1.wav,Pink_Noise_3_2.wav,,,,,,,,,,,,,,,0,17,17,25,,,,,,,,,,,,,,,,,,,,,,,363.99346507305745,None,365.49313017504755,None,366.8601047639968,None,wet,366.8601047639968,None,return,1.3749362420057878,366.9435403380776,None,,,,,,,,,,,,,,,,,,,,,,,,,,,,,,,,,25,001,2023_Feb_17_1504,SpeechDraft1Carolyn_lessNoise_PlusLocalization,2021.2.3,59.95271049129969,
cap.wav,cap.mpg,cap,5,A,Pink_Noise_5_1.wav,Pink_Noise_5_2.wav,,,,,,,,,,,,,,,0,18,18,12,,,,,,,,,,,,,,,,,,,,,,,368.34372867806815,None,369.8432320060674,None,371.2101585100172,None,cat,371.2101585100172,None,return,3.60910447104834,371.29336948506534,None,,,,,,,,,,,,,,,,,,,,,,,,,,,,,,,,,25,001,2023_Feb_17_1504,SpeechDraft1Carolyn_lessNoise_PlusLocalization,2021.2.3,59.95271049129969,
dread.wav,dread.mpg,dread,1,A,Pink_Noise_1_1.wav,Pink_Noise_1_2.wav,,,,,,,,,,,,,,,0,19,19,56,,,,,,,,,,,,,,,,,,,,,,,374.9268662360264,None,376.41021637199447,None,377.7937049220782,None,"dread
",377.7937049220782,None,return,10.817680826061405,377.87680788408034,None,,,,,,,,,,,,,,,,,,,,,,,,,,,,,,,,,25,001,2023_Feb_17_1504,SpeechDraft1Carolyn_lessNoise_PlusLocalization,2021.2.3,59.95271049129969,
dash.wav,dash.mpg,dash,2,A,Pink_Noise_2_1.wav,Pink_Noise_2_2.wav,,,,,,,,,,,,,,,0,20,20,14,,,,,,,,,,,,,,,,,,,,,,,388.72692387807183,None,390.21020980307367,None,391.59335147507954,None,dish,391.59335147507954,None,return,4.073774821939878,391.6768107759999,None,,,,,,,,,,,,,,,,,,,,,,,,,,,,,,,,,25,001,2023_Feb_17_1504,SpeechDraft1Carolyn_lessNoise_PlusLocalization,2021.2.3,59.95271049129969,
paid.wav,paid.mpg,paid,6,A,Pink_Noise_6_1.wav,Pink_Noise_6_2.wav,,,,,,,,,,,,,,,0,21,21,53,,,,,,,,,,,,,,,,,,,,,,,395.7768646910554,None,397.2765037980862,None,398.64337365399115,None,egg,398.64337365399115,None,return,1.9595828010933474,398.7268830430694,None,,,,,,,,,,,,,,,,,,,,,,,,,,,,,,,,,25,001,2023_Feb_17_1504,SpeechDraft1Carolyn_lessNoise_PlusLocalization,2021.2.3,59.95271049129969,
pledge.wav,pledge.mpg,pledge,4,A,Pink_Noise_4_1.wav,Pink_Noise_4_2.wav,,,,,,,,,,,,,,,0,22,22,43,,,,,,,,,,,,,,,,,,,,,,,400.71024938405026,None,402.2100510870805,None,403.57673918502405,None,flash,403.57673918502405,None,return,7.970316078979522,403.6601856270572,None,,,,,,,,,,,,,,,,,,,,,,,,,,,,,,,,,25,001,2023_Feb_17_1504,SpeechDraft1Carolyn_lessNoise_PlusLocalization,2021.2.3,59.95271049129969,
shed.wav,shed.mpg,shed,4,AV,Pink_Noise_4_1.wav,Pink_Noise_4_2.wav,,,,,,,,,,,,,,,0,23,23,117,,,,,,,,,,,,,,,,,,,,,,,411.6601452140603,None,413.1436921710847,None,414.5268941540271,None,sham,414.5268941540271,None,return,11.124380283989012,414.6101042170776,None,,,,,,,,,,,,,,,,,,,,,,,,,,,,,,,,,25,001,2023_Feb_17_1504,SpeechDraft1Carolyn_lessNoise_PlusLocalization,2021.2.3,59.95271049129969,
bridge.wav,bridge.mpg,bridge,4,AV,Pink_Noise_4_1.wav,Pink_Noise_4_2.wav,,,,,,,,,,,,,,,0,24,24,87,,,,,,,,,,,,,,,,,,,,,,,425.76030331500806,None,427.243468048051,None,428.62702023307793,None,btidge,428.62702023307793,None,return,22.616370999952778,428.7101478331024,None,,,,,,,,,,,,,,,,,,,,,,,,,,,,,,,,,25,001,2023_Feb_17_1504,SpeechDraft1Carolyn_lessNoise_PlusLocalization,2021.2.3,59.95271049129969,
barn.wav,barn.mpg,barn,3,AV,Pink_Noise_3_1.wav,Pink_Noise_3_2.wav,,,,,,,,,,,,,,,0,25,25,103,,,,,,,,,,,,,,,,,,,,,,,451.3436496669892,None,452.826882773079,None,454.21026659104973,None,art,454.21026659104973,None,return,2.657045354018919,454.2935731790494,None,,,,,,,,,,,,,,,,,,,,,,,,,,,,,,,,,25,001,2023_Feb_17_1504,SpeechDraft1Carolyn_lessNoise_PlusLocalization,2021.2.3,59.95271049129969,
bump.wav,bump.mpg,bump,1,AV,Pink_Noise_1_1.wav,Pink_Noise_1_2.wav,,,,,,,,,,,,,,,0,26,26,96,,,,,,,,,,,,,,,,,,,,,,,456.97707257210277,None,458.47689473303035,None,459.8436707110377,None,boop,459.8436707110377,None,return,11.295290656969883,459.9271936690202,None,,,,,,,,,,,,,,,,,,,,,,,,,,,,,,,,,25,001,2023_Feb_17_1504,SpeechDraft1Carolyn_lessNoise_PlusLocalization,2021.2.3,59.95271049129969,
tomb.wav,tomb.mpg,tomb,4,A,Pink_Noise_4_1.wav,Pink_Noise_4_2.wav,,,,,,,,,,,,,,,0,27,27,3,,,,,,,,,,,,,,,,,,,,,,,471.24361755209975,None,472.72662826103624,None,474.1103438270511,None,chill,474.1103438270511,None,return,7.325046858051792,474.19343368906993,None,,,,,,,,,,,,,,,,,,,,,,,,,,,,,,,,,25,001,2023_Feb_17_1504,SpeechDraft1Carolyn_lessNoise_PlusLocalization,2021.2.3,59.95271049129969,
fix.wav,fix.mpg,fix,1,AV,Pink_Noise_1_1.wav,Pink_Noise_1_2.wav,,,,,,,,,,,,,,,0,28,28,77,,,,,,,,,,,,,,,,,,,,,,,481.54359183099587,None,483.02688553207554,None,484.41012405301444,None,"fix
",484.41012405301444,None,return,2.616941292071715,484.4935481410939,None,,,,,,,,,,,,,,,,,,,,,,,,,,,,,,,,,25,001,2023_Feb_17_1504,SpeechDraft1Carolyn_lessNoise_PlusLocalization,2021.2.3,59.95271049129969,
dense.wav,dense.mpg,dense,2,AV,Pink_Noise_2_1.wav,Pink_Noise_2_2.wav,,,,,,,,,,,,,,,0,29,29,88,,,,,,,,,,,,,,,,,,,,,,,487.14360785100143,None,488.6268670100253,None,490.01018669700716,None,des,490.01018669700716,None,return,11.248803301947191,490.09374576609116,None,,,,,,,,,,,,,,,,,,,,,,,,,,,,,,,,,25,001,2023_Feb_17_1504,SpeechDraft1Carolyn_lessNoise_PlusLocalization,2021.2.3,59.95271049129969,
cheek.wav,cheek.mpg,cheek,4,AV,Pink_Noise_4_1.wav,Pink_Noise_4_2.wav,,,,,,,,,,,,,,,0,30,30,111,,,,,,,,,,,,,,,,,,,,,,,501.360457351082,None,502.84367049403954,None,504.2269144851016,None,chick,504.2269144851016,None,return,9.432319576037116,504.3102701189928,None,,,,,,,,,,,,,,,,,,,,,,,,,,,,,,,,,25,001,2023_Feb_17_1504,SpeechDraft1Carolyn_lessNoise_PlusLocalization,2021.2.3,59.95271049129969,
forth.wav,forth.mpg,forth,6,AV,Pink_Noise_6_1.wav,Pink_Noise_6_2.wav,,,,,,,,,,,,,,,0,31,31,67,,,,,,,,,,,,,,,,,,,,,,,513.7602348050568,None,515.2435245380038,None,516.6268677670741,None,forth,516.6268677670741,None,return,6.744280040031299,516.7101945510367,None,,,,,,,,,,,,,,,,,,,,,,,,,,,,,,,,,25,001,2023_Feb_17_1504,SpeechDraft1Carolyn_lessNoise_PlusLocalization,2021.2.3,59.95271049129969,
four.wav,four.mpg,four,5,AV,Pink_Noise_5_1.wav,Pink_Noise_5_2.wav,,,,,,,,,,,,,,,0,32,32,108,,,,,,,,,,,,,,,,,,,,,,,523.4768289710628,None,524.9767813460203,None,526.360402861028,None,,526.360402861028,None,return,5.7946503889979795,526.44383432006,None,,,,,,,,,,,,,,,,,,,,,,,,,,,,,,,,,25,001,2023_Feb_17_1504,SpeechDraft1Carolyn_lessNoise_PlusLocalization,2021.2.3,59.95271049129969,
dusk.wav,dusk.mpg,dusk,5,A,Pink_Noise_5_1.wav,Pink_Noise_5_2.wav,,,,,,,,,,,,,,,0,33,33,1,,,,,,,,,,,,,,,,,,,,,,,532.2613225179957,None,533.7602594800992,None,535.1435892900918,None,death,535.1435892900918,None,return,9.507556530996226,535.226949081989,None,,,,,,,,,,,,,,,,,,,,,,,,,,,,,,,,,25,001,2023_Feb_17_1504,SpeechDraft1Carolyn_lessNoise_PlusLocalization,2021.2.3,59.95271049129969,
chat.wav,chat.mpg,chat,1,A,Pink_Noise_1_1.wav,Pink_Noise_1_2.wav,,,,,,,,,,,,,,,0,34,34,20,,,,,,,,,,,,,,,,,,,,,,,544.7604333360214,None,546.2437115650391,None,547.626881021075,None,chat,547.626881021075,None,return,3.2080625490052626,547.710410534055,None,,,,,,,,,,,,,,,,,,,,,,,,,,,,,,,,,25,001,2023_Feb_17_1504,SpeechDraft1Carolyn_lessNoise_PlusLocalization,2021.2.3,59.95271049129969,
brag.wav,brag.mpg,brag,5,A,Pink_Noise_5_1.wav,Pink_Noise_5_2.wav,,,,,,,,,,,,,,,0,35,35,9,,,,,,,,,,,,,,,,,,,,,,,550.9438776310999,None,552.426803837996,None,553.8102934010094,None,bright,553.8102934010094,None,return,15.608785478048958,553.8936830540188,None,,,,,,,,,,,,,,,,,,,,,,,,,,,,,,,,,25,001,2023_Feb_17_1504,SpeechDraft1Carolyn_lessNoise_PlusLocalization,2021.2.3,59.95271049129969,
coach.wav,coach.mpg,coach,1,A,Pink_Noise_1_1.wav,Pink_Noise_1_2.wav,,,,,,,,,,,,,,,0,36,36,10,,,,,,,,,,,,,,,,,,,,,,,569.52721410105,None,571.0270964320516,None,572.4104637510609,None,coach,572.4104637510609,None,return,4.960793568985537,572.4936890370445,None,,,,,,,,,,,,,,,,,,,,,,,,,,,,,,,,,25,001,2023_Feb_17_1504,SpeechDraft1Carolyn_lessNoise_PlusLocalization,2021.2.3,59.95271049129969,
greek.wav,greek.mpg,greek,4,A,Pink_Noise_4_1.wav,Pink_Noise_4_2.wav,,,,,,,,,,,,,,,0,37,37,13,,,,,,,,,,,,,,,,,,,,,,,577.476930265082,None,578.9602879290469,None,580.3435829390073,None,"rich
",580.3435829390073,None,return,8.051526541006751,580.4269634661032,None,,,,,,,,,,,,,,,,,,,,,,,,,,,,,,,,,25,001,2023_Feb_17_1504,SpeechDraft1Carolyn_lessNoise_PlusLocalization,2021.2.3,59.95271049129969,
axe.wav,axe.mpg,axe,6,AV,Pink_Noise_6_1.wav,Pink_Noise_6_2.wav,,,,,,,,,,,,,,,0,38,38,115,,,,,,,,,,,,,,,,,,,,,,,588.510483474005,None,589.9936634750338,None,591.3771678500343,None,ass,591.3771678500343,None,return,4.36217930004932,591.460340154008,None,,,,,,,,,,,,,,,,,,,,,,,,,,,,,,,,,25,001,2023_Feb_17_1504,SpeechDraft1Carolyn_lessNoise_PlusLocalization,2021.2.3,59.95271049129969,
clam.wav,clam.mpg,clam,6,AV,Pink_Noise_6_1.wav,Pink_Noise_6_2.wav,,,,,,,,,,,,,,,0,39,39,116,,,,,,,,,,,,,,,,,,,,,,,595.8437874800293,None,597.3272468430223,None,598.7101853979984,None,"lamb
",598.7101853979984,None,return,10.10049602505751,598.7939712920925,None,,,,,,,,,,,,,,,,,,,,,,,,,,,,,,,,,25,001,2023_Feb_17_1504,SpeechDraft1Carolyn_lessNoise_PlusLocalization,2021.2.3,59.95271049129969,
quart.wav,quart.mpg,quart,6,AV,Pink_Noise_6_1.wav,Pink_Noise_6_2.wav,,,,,,,,,,,,,,,0,40,40,79,,,,,,,,,,,,,,,,,,,,,,,608.9271827210905,None,610.4104666369967,None,611.7936918360647,None,"watch
",611.7936918360647,None,return,8.36931098299101,611.8771772610489,None,,,,,,,,,,,,,,,,,,,,,,,,,,,,,,,,,25,001,2023_Feb_17_1504,SpeechDraft1Carolyn_lessNoise_PlusLocalization,2021.2.3,59.95271049129969,
dice.wav,dice.mpg,dice,6,AV,Pink_Noise_6_1.wav,Pink_Noise_6_2.wav,,,,,,,,,,,,,,,0,41,41,90,,,,,,,,,,,,,,,,,,,,,,,620.2771933460608,None,621.7769792760955,None,623.1604740209877,None,these,623.1604740209877,None,return,6.06683778797742,623.2437006250257,None,,,,,,,,,,,,,,,,,,,,,,,,,,,,,,,,,25,001,2023_Feb_17_1504,SpeechDraft1Carolyn_lessNoise_PlusLocalization,2021.2.3,59.95271049129969,
pike.wav,pike.mpg,pike,2,AV,Pink_Noise_2_1.wav,Pink_Noise_2_2.wav,,,,,,,,,,,,,,,0,42,42,80,,,,,,,,,,,,,,,,,,,,,,,629.3270827369997,None,630.8272672770545,None,632.2105158560444,None,"peak
",632.2105158560444,None,return,14.600784117006697,632.2937261570478,None,,,,,,,,,,,,,,,,,,,,,,,,,,,,,,,,,25,001,2023_Feb_17_1504,SpeechDraft1Carolyn_lessNoise_PlusLocalization,2021.2.3,59.95271049129969,
crane.wav,crane.mpg,crane,2,AV,Pink_Noise_2_1.wav,Pink_Noise_2_2.wav,,,,,,,,,,,,,,,0,43,43,78,,,,,,,,,,,,,,,,,,,,,,,646.9272929340368,None,648.4110515560023,None,649.7938758960227,None,cry,649.7938758960227,None,return,9.073121757945046,649.8773696850985,None,,,,,,,,,,,,,,,,,,,,,,,,,,,,,,,,,25,001,2023_Feb_17_1504,SpeechDraft1Carolyn_lessNoise_PlusLocalization,2021.2.3,59.95271049129969,
hike.wav,hike.mpg,hike,4,AV,Pink_Noise_4_1.wav,Pink_Noise_4_2.wav,,,,,,,,,,,,,,,0,44,44,86,,,,,,,,,,,,,,,,,,,,,,,658.9772067490267,None,660.4769550830824,None,661.8439218970016,None,hike,661.8439218970016,None,return,11.599402548046783,661.9272246430628,None,,,,,,,,,,,,,,,,,,,,,,,,,,,,,,,,,25,001,2023_Feb_17_1504,SpeechDraft1Carolyn_lessNoise_PlusLocalization,2021.2.3,59.95271049129969,
gray.wav,gray.mpg,gray,3,A,Pink_Noise_3_1.wav,Pink_Noise_3_2.wav,,,,,,,,,,,,,,,0,45,45,6,,,,,,,,,,,,,,,,,,,,,,,673.5437465440482,None,675.0270034050336,None,676.410585417063,None,great,676.410585417063,None,return,7.3604912349255756,676.4939845690969,None,,,,,,,,,,,,,,,,,,,,,,,,,,,,,,,,,25,001,2023_Feb_17_1504,SpeechDraft1Carolyn_lessNoise_PlusLocalization,2021.2.3,59.95271049129969,
flea.wav,flea.mpg,flea,6,AV,Pink_Noise_6_1.wav,Pink_Noise_6_2.wav,,,,,,,,,,,,,,,0,46,46,74,,,,,,,,,,,,,,,,,,,,,,,683.8770853800233,None,685.3770907440921,None,686.7604183860822,None,hite,686.7604183860822,None,return,3.25840429100208,686.8440623990027,None,,,,,,,,,,,,,,,,,,,,,,,,,,,,,,,,,25,001,2023_Feb_17_1504,SpeechDraft1Carolyn_lessNoise_PlusLocalization,2021.2.3,59.95271049129969,
boot.wav,boot.mpg,boot,2,AV,Pink_Noise_2_1.wav,Pink_Noise_2_2.wav,,,,,,,,,,,,,,,0,47,47,92,,,,,,,,,,,,,,,,,,,,,,,690.127089643036,None,691.6270677860593,None,693.0103912790073,None,boot,693.0103912790073,None,return,9.712672038003802,693.0938299780246,None,,,,,,,,,,,,,,,,,,,,,,,,,,,,,,,,,25,001,2023_Feb_17_1504,SpeechDraft1Carolyn_lessNoise_PlusLocalization,2021.2.3,59.95271049129969,
clad.wav,clad.mpg,clad,2,AV,Pink_Noise_2_1.wav,Pink_Noise_2_2.wav,,,,,,,,,,,,,,,0,48,48,98,,,,,,,,,,,,,,,,,,,,,,,702.8274072400527,None,704.3271985320607,None,705.7108340150444,None,clide,705.7108340150444,None,return,14.47647598804906,705.7939919620985,None,,,,,,,,,,,,,,,,,,,,,,,,,,,,,,,,,25,001,2023_Feb_17_1504,SpeechDraft1Carolyn_lessNoise_PlusLocalization,2021.2.3,59.95271049129969,
feast.wav,feast.mpg,feast,2,AV,Pink_Noise_2_1.wav,Pink_Noise_2_2.wav,,,,,,,,,,,,,,,0,49,49,99,,,,,,,,,,,,,,,,,,,,,,,720.2945971250301,None,721.778176809079,None,723.1607315000147,None,fixed,723.1607315000147,None,return,3.6105865670833737,723.2438655560836,None,,,,,,,,,,,,,,,,,,,,,,,,,,,,,,,,,25,001,2023_Feb_17_1504,SpeechDraft1Carolyn_lessNoise_PlusLocalization,2021.2.3,59.95271049129969,
fluent.wav,fluent.mpg,fluent,2,A,Pink_Noise_2_1.wav,Pink_Noise_2_2.wav,,,,,,,,,,,,,,,0,50,50,33,,,,,,,,,,,,,,,,,,,,,,,726.8774534520926,None,728.3770393700106,None,729.7605179840466,None,fluent,729.7605179840466,None,return,13.514597979024984,729.8438885370269,None,,,,,,,,,,,,,,,,,,,,,,,,,,,,,,,,,25,001,2023_Feb_17_1504,SpeechDraft1Carolyn_lessNoise_PlusLocalization,2021.2.3,59.95271049129969,
dark.wav,dark.mpg,dark,4,AV,Pink_Noise_4_1.wav,Pink_Noise_4_2.wav,,,,,,,,,,,,,,,0,51,51,61,,,,,,,,,,,,,,,,,,,,,,,743.3771697510965,None,744.8616489809938,None,746.2441217680462,None,god,746.2441217680462,None,return,8.95928211894352,746.3271910781041,None,,,,,,,,,,,,,,,,,,,,,,,,,,,,,,,,,25,001,2023_Feb_17_1504,SpeechDraft1Carolyn_lessNoise_PlusLocalization,2021.2.3,59.95271049129969,
pipe.wav,pipe.mpg,pipe,5,A,Pink_Noise_5_1.wav,Pink_Noise_5_2.wav,,,,,,,,,,,,,,,0,52,52,4,,,,,,,,,,,,,,,,,,,,,,,755.3107209120644,None,756.7940387800336,None,758.1773495890666,None,leg,758.1773495890666,None,return,6.625929317087866,758.2605448859977,None,,,,,,,,,,,,,,,,,,,,,,,,,,,,,,,,,25,001,2023_Feb_17_1504,SpeechDraft1Carolyn_lessNoise_PlusLocalization,2021.2.3,59.95271049129969,
grasp.wav,grasp.mpg,grasp,4,A,Pink_Noise_4_1.wav,Pink_Noise_4_2.wav,,,,,,,,,,,,,,,0,53,53,37,,,,,,,,,,,,,,,,,,,,,,,764.9104626630433,None,766.3940573650179,None,767.7773723440478,None,cry,767.7773723440478,None,return,12.89780965493992,767.8606777210953,None,,,,,,,,,,,,,,,,,,,,,,,,,,,,,,,,,25,001,2023_Feb_17_1504,SpeechDraft1Carolyn_lessNoise_PlusLocalization,2021.2.3,59.95271049129969,
flick.wav,flick.mpg,flick,4,AV,Pink_Noise_4_1.wav,Pink_Noise_4_2.wav,,,,,,,,,,,,,,,0,54,54,81,,,,,,,,,,,,,,,,,,,,,,,780.7772440910339,None,782.2616428540787,None,783.643781386083,None,"fleck
",783.643781386083,None,return,8.751158783910796,783.7273240020731,None,,,,,,,,,,,,,,,,,,,,,,,,,,,,,,,,,25,001,2023_Feb_17_1504,SpeechDraft1Carolyn_lessNoise_PlusLocalization,2021.2.3,59.95271049129969,
crime.wav,crime.mpg,crime,1,AV,Pink_Noise_1_1.wav,Pink_Noise_1_2.wav,,,,,,,,,,,,,,,0,55,55,85,,,,,,,,,,,,,,,,,,,,,,,792.5105428650277,None,794.0104536390863,None,795.3940479391022,None,crime,795.3940479391022,None,return,11.52886231301818,795.4776133260457,None,,,,,,,,,,,,,,,,,,,,,,,,,,,,,,,,,25,001,2023_Feb_17_1504,SpeechDraft1Carolyn_lessNoise_PlusLocalization,2021.2.3,59.95271049129969,
grind.wav,grind.mpg,grind,1,A,Pink_Noise_1_1.wav,Pink_Noise_1_2.wav,,,,,,,,,,,,,,,0,56,56,16,,,,,,,,,,,,,,,,,,,,,,,807.0272963070311,None,808.5114481140627,None,809.8941230920609,None,grid,809.8941230920609,None,return,8.813310388009995,809.9772673590342,None,,,,,,,,,,,,,,,,,,,,,,,,,,,,,,,,,25,001,2023_Feb_17_1504,SpeechDraft1Carolyn_lessNoise_PlusLocalization,2021.2.3,59.95271049129969,
clot.wav,clot.mpg,clot,5,AV,Pink_Noise_5_1.wav,Pink_Noise_5_2.wav,,,,,,,,,,,,,,,0,57,57,107,,,,,,,,,,,,,,,,,,,,,,,818.8107733050128,None,820.2941524800844,None,821.6773216200527,None,glad,821.6773216200527,None,return,5.021782123018056,821.7608293420635,None,,,,,,,,,,,,,,,,,,,,,,,,,,,,,,,,,25,001,2023_Feb_17_1504,SpeechDraft1Carolyn_lessNoise_PlusLocalization,2021.2.3,59.95271049129969,
wound.wav,wound.mpg,wound,6,AV,Pink_Noise_6_1.wav,Pink_Noise_6_2.wav,,,,,,,,,,,,,,,0,58,58,95,,,,,,,,,,,,,,,,,,,,,,,826.8108891909942,None,828.3105614650995,None,829.6940692880889,None,wood,829.6940692880889,None,return,5.3491751870606095,829.7774071260355,None,,,,,,,,,,,,,,,,,,,,,,,,,,,,,,,,,25,001,2023_Feb_17_1504,SpeechDraft1Carolyn_lessNoise_PlusLocalization,2021.2.3,59.95271049129969,
dial.wav,dial.mpg,dial,5,AV,Pink_Noise_5_1.wav,Pink_Noise_5_2.wav,,,,,,,,,,,,,,,0,59,59,118,,,,,,,,,,,,,,,,,,,,,,,835.1439580790466,None,836.6297305329936,None,838.0106417289935,None,dead,838.0106417289935,None,return,6.856402226025239,838.0942325560609,None,,,,,,,,,,,,,,,,,,,,,,,,,,,,,,,,,25,001,2023_Feb_17_1504,SpeechDraft1Carolyn_lessNoise_PlusLocalization,2021.2.3,59.95271049129969,
bill.wav,bill.mpg,bill,5,AV,Pink_Noise_5_1.wav,Pink_Noise_5_2.wav,,,,,,,,,,,,,,,0,60,60,89,,,,,,,,,,,,,,,,,,,,,,,844.9775182850426,None,846.4614581849892,None,847.8442098930245,None,bill,847.8442098930245,None,return,19.65515265194699,847.927337893052,None,,,,,,,,,,,,,,,,,,,,,,,,,,,,,,,,,25,001,2023_Feb_17_1504,SpeechDraft1Carolyn_lessNoise_PlusLocalization,2021.2.3,59.95271049129969,
roast.wav,roast.mpg,roast,2,A,Pink_Noise_2_1.wav,Pink_Noise_2_2.wav,,,,,,,,,,,,,,,0,61,61,24,,,,,,,,,,,,,,,,,,,,,,,867.6106982040219,None,869.0943108170759,None,870.4775846080156,None,growth,870.4775846080156,None,return,14.94970995199401,870.5608705210034,None,,,,,,,,,,,,,,,,,,,,,,,,,,,,,,,,,25,001,2023_Feb_17_1504,SpeechDraft1Carolyn_lessNoise_PlusLocalization,2021.2.3,59.95271049129969,
bathe.wav,bathe.mpg,bathe,3,AV,Pink_Noise_3_1.wav,Pink_Noise_3_2.wav,,,,,,,,,,,,,,,0,62,62,110,,,,,,,,,,,,,,,,,,,,,,,885.5273655120982,None,887.0125443530269,None,888.3940409660572,None,bath,888.3940409660572,None,return,14.28893517702818,888.4776959590381,None,,,,,,,,,,,,,,,,,,,,,,,,,,,,,,,,,25,001,2023_Feb_17_1504,SpeechDraft1Carolyn_lessNoise_PlusLocalization,2021.2.3,59.95271049129969,
chief.wav,chief.mpg,chief,6,A,Pink_Noise_6_1.wav,Pink_Noise_6_2.wav,,,,,,,,,,,,,,,0,63,63,59,,,,,,,,,,,,,,,,,,,,,,,902.7941702490207,None,904.2792803050252,None,905.6607665140182,None,pick,905.6607665140182,None,return,2.3100009410409257,905.744471441023,None,,,,,,,,,,,,,,,,,,,,,,,,,,,,,,,,,25,001,2023_Feb_17_1504,SpeechDraft1Carolyn_lessNoise_PlusLocalization,2021.2.3,59.95271049129969,
friend.wav,friend.mpg,friend,2,A,Pink_Noise_2_1.wav,Pink_Noise_2_2.wav,,,,,,,,,,,,,,,0,64,64,36,,,,,,,,,,,,,,,,,,,,,,,908.0776442150818,None,909.5773472550791,None,910.9610783139942,None,friend,910.9610783139942,None,return,5.314241538988426,911.0442714580568,None,,,,,,,,,,,,,,,,,,,,,,,,,,,,,,,,,25,001,2023_Feb_17_1504,SpeechDraft1Carolyn_lessNoise_PlusLocalization,2021.2.3,59.95271049129969,
client.wav,client.mpg,client,4,A,Pink_Noise_4_1.wav,Pink_Noise_4_2.wav,,,,,,,,,,,,,,,0,65,65,11,,,,,,,,,,,,,,,,,,,,,,,916.3776918239892,None,917.8619217850501,None,919.2440847620601,None,beat,919.2440847620601,None,return,23.97496946202591,919.3275062170578,None,,,,,,,,,,,,,,,,,,,,,,,,,,,,,,,,,25,001,2023_Feb_17_1504,SpeechDraft1Carolyn_lessNoise_PlusLocalization,2021.2.3,59.95271049129969,
dot.wav,dot.mpg,dot,3,A,Pink_Noise_3_1.wav,Pink_Noise_3_2.wav,,,,,,,,,,,,,,,0,66,66,50,,,,,,,,,,,,,,,,,,,,,,,943.3274869790766,None,944.8274489539908,None,946.1942620790796,None,"dute
",946.1942620790796,None,return,19.737033384968527,946.2774526310386,None,,,,,,,,,,,,,,,,,,,,,,,,,,,,,,,,,25,001,2023_Feb_17_1504,SpeechDraft1Carolyn_lessNoise_PlusLocalization,2021.2.3,59.95271049129969,
badge.wav,badge.mpg,badge,2,AV,Pink_Noise_2_1.wav,Pink_Noise_2_2.wav,,,,,,,,,,,,,,,0,67,67,114,,,,,,,,,,,,,,,,,,,,,,,966.0442357599968,None,967.544364218018,None,968.9276275479933,None,beige,968.9276275479933,None,return,13.811570352991112,969.0109331640415,None,,,,,,,,,,,,,,,,,,,,,,,,,,,,,,,,,25,001,2023_Feb_17_1504,SpeechDraft1Carolyn_lessNoise_PlusLocalization,2021.2.3,59.95271049129969,
fold.wav,fold.mpg,fold,3,A,Pink_Noise_3_1.wav,Pink_Noise_3_2.wav,,,,,,,,,,,,,,,0,68,68,29,,,,,,,,,,,,,,,,,,,,,,,982.8444204810075,None,984.3442216879921,None,985.7276537450962,None,fold,985.7276537450962,None,return,6.187580286059529,985.8109054900706,None,,,,,,,,,,,,,,,,,,,,,,,,,,,,,,,,,25,001,2023_Feb_17_1504,SpeechDraft1Carolyn_lessNoise_PlusLocalization,2021.2.3,59.95271049129969,
dig.wav,dig.mpg,dig,1,A,Pink_Noise_1_1.wav,Pink_Noise_1_2.wav,,,,,,,,,,,,,,,0,69,69,48,,,,,,,,,,,,,,,,,,,,,,,992.0276257110527,None,993.5273828300415,None,994.9111126849893,None,dige,994.9111126849893,None,return,9.01209408196155,994.9943902191008,None,,,,,,,,,,,,,,,,,,,,,,,,,,,,,,,,,25,001,2023_Feb_17_1504,SpeechDraft1Carolyn_lessNoise_PlusLocalization,2021.2.3,59.95271049129969,
gulp.wav,gulp.mpg,gulp,1,AV,Pink_Noise_1_1.wav,Pink_Noise_1_2.wav,,,,,,,,,,,,,,,0,70,70,60,,,,,,,,,,,,,,,,,,,,,,,1004.0278226010269,None,1005.5114825720666,None,1006.8944368050434,None,goal,1006.8944368050434,None,return,17.42887287796475,1006.9776427970501,None,,,,,,,,,,,,,,,,,,,,,,,,,,,,,,,,,25,001,2023_Feb_17_1504,SpeechDraft1Carolyn_lessNoise_PlusLocalization,2021.2.3,59.95271049129969,
tense.wav,tense.mpg,tense,3,A,Pink_Noise_3_1.wav,Pink_Noise_3_2.wav,,,,,,,,,,,,,,,0,71,71,26,,,,,,,,,,,,,,,,,,,,,,,1024.4278943750542,None,1025.9111080210423,None,1027.294319597073,None,tenth,1027.294319597073,None,return,10.212658190983348,1027.377868788084,None,,,,,,,,,,,,,,,,,,,,,,,,,,,,,,,,,25,001,2023_Feb_17_1504,SpeechDraft1Carolyn_lessNoise_PlusLocalization,2021.2.3,59.95271049129969,
blade.wav,blade.mpg,blade,5,A,Pink_Noise_5_1.wav,Pink_Noise_5_2.wav,,,,,,,,,,,,,,,0,72,72,7,,,,,,,,,,,,,,,,,,,,,,,1037.6111410290468,None,1039.095171560999,None,1040.4777804620098,None,male,1040.4777804620098,None,return,3.3734443000284955,1040.5612439221004,None,,,,,,,,,,,,,,,,,,,,,,,,,,,,,,,,,25,001,2023_Feb_17_1504,SpeechDraft1Carolyn_lessNoise_PlusLocalization,2021.2.3,59.95271049129969,
freak.wav,freak.mpg,freak,2,A,Pink_Noise_2_1.wav,Pink_Noise_2_2.wav,,,,,,,,,,,,,,,0,73,73,49,,,,,,,,,,,,,,,,,,,,,,,1043.961155362078,None,1045.4609887721017,None,1046.844462142093,None,fake,1046.844462142093,None,return,11.7989666829817,1046.9276039970573,None,,,,,,,,,,,,,,,,,,,,,,,,,,,,,,,,,25,001,2023_Feb_17_1504,SpeechDraft1Carolyn_lessNoise_PlusLocalization,2021.2.3,59.95271049129969,
gut.wav,gut.mpg,gut,3,AV,Pink_Noise_3_1.wav,Pink_Noise_3_2.wav,,,,,,,,,,,,,,,0,74,74,75,,,,,,,,,,,,,,,,,,,,,,,1058.7447017970262,None,1060.2440730190137,None,1061.6109164960217,None,got,1061.6109164960217,None,return,2.656021149014123,1061.6945154970745,None,,,,,,,,,,,,,,,,,,,,,,,,,,,,,,,,,25,001,2023_Feb_17_1504,SpeechDraft1Carolyn_lessNoise_PlusLocalization,2021.2.3,59.95271049129969,
grant.wav,grant.mpg,grant,6,AV,Pink_Noise_6_1.wav,Pink_Noise_6_2.wav,,,,,,,,,,,,,,,0,75,75,72,,,,,,,,,,,,,,,,,,,,,,,1064.3778127570404,None,1065.8623309540562,None,1067.2442485310603,None,red,1067.2442485310603,None,return,1.6947298099985346,1067.3277493990026,None,,,,,,,,,,,,,,,,,,,,,,,,,,,,,,,,,25,001,2023_Feb_17_1504,SpeechDraft1Carolyn_lessNoise_PlusLocalization,2021.2.3,59.95271049129969,
jeep.wav,jeep.mpg,jeep,5,AV,Pink_Noise_5_1.wav,Pink_Noise_5_2.wav,,,,,,,,,,,,,,,0,76,76,97,,,,,,,,,,,,,,,,,,,,,,,1069.044401369989,None,1070.5443974480731,None,1071.9277262550313,None,jeep,1071.9277262550313,None,return,3.539374163025059,1072.0111953470623,None,,,,,,,,,,,,,,,,,,,,,,,,,,,,,,,,,25,001,2023_Feb_17_1504,SpeechDraft1Carolyn_lessNoise_PlusLocalization,2021.2.3,59.95271049129969,
wild.wav,wild.mpg,wild,3,AV,Pink_Noise_3_1.wav,Pink_Noise_3_2.wav,,,,,,,,,,,,,,,0,77,77,65,,,,,,,,,,,,,,,,,,,,,,,1075.577733270009,None,1077.0617994470522,None,1078.4444183500018,None,wild,1078.4444183500018,None,return,2.1268270530272275,1078.527679617051,None,,,,,,,,,,,,,,,,,,,,,,,,,,,,,,,,,25,001,2023_Feb_17_1504,SpeechDraft1Carolyn_lessNoise_PlusLocalization,2021.2.3,59.95271049129969,
fur.wav,fur.mpg,fur,4,A,Pink_Noise_4_1.wav,Pink_Noise_4_2.wav,,,,,,,,,,,,,,,0,78,78,21,,,,,,,,,,,,,,,,,,,,,,,1080.6777068520896,None,1082.1774857710116,None,1083.5611966580618,None,"bird
",1083.5611966580618,None,return,18.634028080035932,1083.6444477220066,None,,,,,,,,,,,,,,,,,,,,,,,,,,,,,,,,,25,001,2023_Feb_17_1504,SpeechDraft1Carolyn_lessNoise_PlusLocalization,2021.2.3,59.95271049129969,
eight.wav,eight.mpg,eight,3,A,Pink_Noise_3_1.wav,Pink_Noise_3_2.wav,,,,,,,,,,,,,,,0,79,79,52,,,,,,,,,,,,,,,,,,,,,,,1102.31119580206,None,1103.7951390490634,None,1105.1776716070017,None,bet,1105.1776716070017,None,return,5.705441088066436,1105.2611142060487,None,,,,,,,,,,,,,,,,,,,,,,,,,,,,,,,,,25,001,2023_Feb_17_1504,SpeechDraft1Carolyn_lessNoise_PlusLocalization,2021.2.3,59.95271049129969,
lead.wav,lead.mpg,lead,3,AV,Pink_Noise_3_1.wav,Pink_Noise_3_2.wav,,,,,,,,,,,,,,,0,80,80,119,,,,,,,,,,,,,,,,,,,,,,,1110.994779300061,None,1112.494223570102,None,1113.8779332500417,None,"led
",1113.8779332500417,None,return,2.2530464910669252,1113.9614318790846,None,,,,,,,,,,,,,,,,,,,,,,,,,,,,,,,,,25,001,2023_Feb_17_1504,SpeechDraft1Carolyn_lessNoise_PlusLocalization,2021.2.3,59.95271049129969,
frog.wav,frog.mpg,frog,5,A,Pink_Noise_5_1.wav,Pink_Noise_5_2.wav,,,,,,,,,,,,,,,0,81,81,51,,,,,,,,,,,,,,,,,,,,,,,1116.244661801029,None,1117.729037704994,None,1119.1110006710514,None,fine,1119.1110006710514,None,return,9.124058170011267,1119.1945731220767,None,,,,,,,,,,,,,,,,,,,,,,,,,,,,,,,,,25,001,2023_Feb_17_1504,SpeechDraft1Carolyn_lessNoise_PlusLocalization,2021.2.3,59.95271049129969,
dirt.wav,dirt.mpg,dirt,5,AV,Pink_Noise_5_1.wav,Pink_Noise_5_2.wav,,,,,,,,,,,,,,,0,82,82,63,,,,,,,,,,,,,,,,,,,,,,,1128.3445213310188,None,1129.8445138779934,None,1131.2113218070008,None,"jet
",1131.2113218070008,None,return,6.952103439019993,1131.2943848370342,None,,,,,,,,,,,,,,,,,,,,,,,,,,,,,,,,,25,001,2023_Feb_17_1504,SpeechDraft1Carolyn_lessNoise_PlusLocalization,2021.2.3,59.95271049129969,
earth.wav,earth.mpg,earth,1,AV,Pink_Noise_1_1.wav,Pink_Noise_1_2.wav,,,,,,,,,,,,,,,0,83,83,113,,,,,,,,,,,,,,,,,,,,,,,1138.2780469320714,None,1139.7626923940843,None,1141.1443969190586,None,earth,1141.1443969190586,None,return,8.322712008957751,1141.22792372806,None,,,,,,,,,,,,,,,,,,,,,,,,,,,,,,,,,25,001,2023_Feb_17_1504,SpeechDraft1Carolyn_lessNoise_PlusLocalization,2021.2.3,59.95271049129969,
cliff.wav,cliff.mpg,cliff,4,AV,Pink_Noise_4_1.wav,Pink_Noise_4_2.wav,,,,,,,,,,,,,,,0,84,84,62,,,,,,,,,,,,,,,,,,,,,,,1149.5779644520953,None,1151.0630487540038,None,1152.4445677720942,None,"death
",1152.4445677720942,None,return,6.550550863030367,1152.527937956038,None,,,,,,,,,,,,,,,,,,,,,,,,,,,,,,,,,25,001,2023_Feb_17_1504,SpeechDraft1Carolyn_lessNoise_PlusLocalization,2021.2.3,59.95271049129969,
gulf.wav,gulf.mpg,gulf,1,A,Pink_Noise_1_1.wav,Pink_Noise_1_2.wav,,,,,,,,,,,,,,,0,85,85,35,,,,,,,,,,,,,,,,,,,,,,,1159.111308697029,None,1160.5959128370741,None,1161.9780318530975,None,golf,1161.9780318530975,None,return,7.489385964930989,1162.0611909470754,None,,,,,,,,,,,,,,,,,,,,,,,,,,,,,,,,,25,001,2023_Feb_17_1504,SpeechDraft1Carolyn_lessNoise_PlusLocalization,2021.2.3,59.95271049129969,
nine.wav,nine.mpg,nine,5,AV,Pink_Noise_5_1.wav,Pink_Noise_5_2.wav,,,,,,,,,,,,,,,0,86,86,100,,,,,,,,,,,,,,,,,,,,,,,1169.5779914930463,None,1171.077803190099,None,1172.4612050210126,None,nine,1172.4612050210126,None,return,6.749806095962413,1172.5446583630983,None,,,,,,,,,,,,,,,,,,,,,,,,,,,,,,,,,25,001,2023_Feb_17_1504,SpeechDraft1Carolyn_lessNoise_PlusLocalization,2021.2.3,59.95271049129969,
gap.wav,gap.mpg,gap,6,A,Pink_Noise_6_1.wav,Pink_Noise_6_2.wav,,,,,,,,,,,,,,,0,87,87,17,,,,,,,,,,,,,,,,,,,,,,,1179.3113402830204,None,1180.8109939470887,None,1182.1779692660784,None,dead,1182.1779692660784,None,return,1.7371130479732528,1182.261363116093,None,,,,,,,,,,,,,,,,,,,,,,,,,,,,,,,,,25,001,2023_Feb_17_1504,SpeechDraft1Carolyn_lessNoise_PlusLocalization,2021.2.3,59.95271049129969,
grief.wav,grief.mpg,grief,5,AV,Pink_Noise_5_1.wav,Pink_Noise_5_2.wav,,,,,,,,,,,,,,,0,88,88,69,,,,,,,,,,,,,,,,,,,,,,,1184.027731258073,None,1185.527475509094,None,1186.9115601810627,None,wave,1186.9115601810627,None,return,2.2437926939455792,1186.9946797600714,None,,,,,,,,,,,,,,,,,,,,,,,,,,,,,,,,,25,001,2023_Feb_17_1504,SpeechDraft1Carolyn_lessNoise_PlusLocalization,2021.2.3,59.95271049129969,
broom.wav,broom.mpg,broom,5,A,Pink_Noise_5_1.wav,Pink_Noise_5_2.wav,,,,,,,,,,,,,,,0,89,89,18,,,,,,,,,,,,,,,,,,,,,,,1189.261254349025,None,1190.7611501970096,None,1192.1281319450354,None,"brith
",1192.1281319450354,None,return,3.019104272010736,1192.2113839871017,None,,,,,,,,,,,,,,,,,,,,,,,,,,,,,,,,,25,001,2023_Feb_17_1504,SpeechDraft1Carolyn_lessNoise_PlusLocalization,2021.2.3,59.95271049129969,
built.wav,built.mpg,built,2,A,Pink_Noise_2_1.wav,Pink_Noise_2_2.wav,,,,,,,,,,,,,,,0,90,90,31,,,,,,,,,,,,,,,,,,,,,,,1195.2613629880361,None,1196.760909743025,None,1198.1281297639944,None,"built
",1198.1281297639944,None,return,21.867331802961417,1198.2111593059963,None,,,,,,,,,,,,,,,,,,,,,,,,,,,,,,,,,25,001,2023_Feb_17_1504,SpeechDraft1Carolyn_lessNoise_PlusLocalization,2021.2.3,59.95271049129969,
live.wav,live.mpg,live,3,AV,Pink_Noise_3_1.wav,Pink_Noise_3_2.wav,,,,,,,,,,,,,,,0,91,91,82,,,,,,,,,,,,,,,,,,,,,,,1220.1111901500262,None,1221.5952825910645,None,1222.9779236169998,None,leaf,1222.9779236169998,None,return,2.025155459996313,1223.0613176380284,None,,,,,,,,,,,,,,,,,,,,,,,,,,,,,,,,,25,001,2023_Feb_17_1504,SpeechDraft1Carolyn_lessNoise_PlusLocalization,2021.2.3,59.95271049129969,
flag.wav,flag.mpg,flag,1,A,Pink_Noise_1_1.wav,Pink_Noise_1_2.wav,,,,,,,,,,,,,,,0,92,92,32,,,,,,,,,,,,,,,,,,,,,,,1225.1114514060318,None,1226.6111932640197,None,1227.9778675400885,None,"flag
",1227.9778675400885,None,return,14.569138935068622,1228.0613705900032,None,,,,,,,,,,,,,,,,,,,,,,,,,,,,,,,,,25,001,2023_Feb_17_1504,SpeechDraft1Carolyn_lessNoise_PlusLocalization,2021.2.3,59.95271049129969,
damn.wav,damn.mpg,damn,5,AV,Pink_Noise_5_1.wav,Pink_Noise_5_2.wav,,,,,,,,,,,,,,,0,93,93,112,,,,,,,,,,,,,,,,,,,,,,,1242.6615087100072,None,1244.1458414460067,None,1245.5279173169984,None,nill,1245.5279173169984,None,return,4.5472971179988235,1245.611220541061,None,,,,,,,,,,,,,,,,,,,,,,,,,,,,,,,,,25,001,2023_Feb_17_1504,SpeechDraft1Carolyn_lessNoise_PlusLocalization,2021.2.3,59.95271049129969,
slush.wav,slush.mpg,slush,4,A,Pink_Noise_4_1.wav,Pink_Noise_4_2.wav,,,,,,,,,,,,,,,0,94,94,40,,,,,,,,,,,,,,,,,,,,,,,1250.178184124059,None,1251.6632896100637,None,1253.0446585080354,None,flash,1253.0446585080354,None,return,3.894310215022415,1253.1281295180088,None,,,,,,,,,,,,,,,,,,,,,,,,,,,,,,,,,25,001,2023_Feb_17_1504,SpeechDraft1Carolyn_lessNoise_PlusLocalization,2021.2.3,59.95271049129969,
eat.wav,eat.mpg,eat,6,A,Pink_Noise_6_1.wav,Pink_Noise_6_2.wav,,,,,,,,,,,,,,,0,95,95,57,,,,,,,,,,,,,,,,,,,,,,,1257.044866905082,None,1258.5445197870722,None,1259.9114302180242,None,bet,1259.9114302180242,None,return,1.9076579300453886,1259.994824414025,None,,,,,,,,,,,,,,,,,,,,,,,,,,,,,,,,,25,001,2023_Feb_17_1504,SpeechDraft1Carolyn_lessNoise_PlusLocalization,2021.2.3,59.95271049129969,
bribe.wav,bribe.mpg,bribe,6,A,Pink_Noise_6_1.wav,Pink_Noise_6_2.wav,,,,,,,,,,,,,,,0,96,96,54,,,,,,,,,,,,,,,,,,,,,,,1261.9279175690608,None,1263.4279479830293,None,1264.7945244440343,None,"red
",1264.7945244440343,None,return,5.968281079083681,1264.8782168220496,None,,,,,,,,,,,,,,,,,,,,,,,,,,,,,,,,,25,001,2023_Feb_17_1504,SpeechDraft1Carolyn_lessNoise_PlusLocalization,2021.2.3,59.95271049129969,
gate.wav,gate.mpg,gate,1,A,Pink_Noise_1_1.wav,Pink_Noise_1_2.wav,,,,,,,,,,,,,,,0,97,97,23,,,,,,,,,,,,,,,,,,,,,,,1270.8779721650062,None,1272.377976601012,None,1273.744532081997,None,gate,1273.744532081997,None,return,3.122329317033291,1273.8282182570547,None,,,,,,,,,,,,,,,,,,,,,,,,,,,,,,,,,25,001,2023_Feb_17_1504,SpeechDraft1Carolyn_lessNoise_PlusLocalization,2021.2.3,59.95271049129969,
grab.wav,grab.mpg,grab,2,AV,Pink_Noise_2_1.wav,Pink_Noise_2_2.wav,,,,,,,,,,,,,,,0,98,98,73,,,,,,,,,,,,,,,,,,,,,,,1276.978046520031,None,1278.4777655800572,None,1279.844728910015,None,reap,1279.844728910015,None,return,8.046633520978503,1279.9278870590497,None,,,,,,,,,,,,,,,,,,,,,,,,,,,,,,,,,25,001,2023_Feb_17_1504,SpeechDraft1Carolyn_lessNoise_PlusLocalization,2021.2.3,59.95271049129969,
barge.wav,barge.mpg,barge,6,A,Pink_Noise_6_1.wav,Pink_Noise_6_2.wav,,,,,,,,,,,,,,,0,99,99,45,,,,,,,,,,,,,,,,,,,,,,,1287.9948389240308,None,1289.4947650760878,None,1290.8614994100062,None,male,1290.8614994100062,None,return,6.966018087929115,1290.9446166059934,None,,,,,,,,,,,,,,,,,,,,,,,,,,,,,,,,,25,001,2023_Feb_17_1504,SpeechDraft1Carolyn_lessNoise_PlusLocalization,2021.2.3,59.95271049129969,
duet.wav,duet.mpg,duet,4,A,Pink_Noise_4_1.wav,Pink_Noise_4_2.wav,,,,,,,,,,,,,,,0,100,100,55,,,,,,,,,,,,,,,,,,,,,,,1297.9282892440679,None,1299.428037634003,None,1300.7948285760358,None,d,1300.7948285760358,None,return,13.080413124058396,1300.878161233035,None,,,,,,,,,,,,,,,,,,,,,,,,,,,,,,,,,25,001,2023_Feb_17_1504,SpeechDraft1Carolyn_lessNoise_PlusLocalization,2021.2.3,59.95271049129969,
fuse.wav,fuse.mpg,fuse,1,AV,Pink_Noise_1_1.wav,Pink_Noise_1_2.wav,,,,,,,,,,,,,,,0,101,101,70,,,,,,,,,,,,,,,,,,,,,,,1313.9781673700782,None,1315.4779311810853,None,1316.8615055120317,None,fills,1316.8615055120317,None,return,19.109752357006073,1316.9447130199987,None,,,,,,,,,,,,,,,,,,,,,,,,,,,,,,,,,25,001,2023_Feb_17_1504,SpeechDraft1Carolyn_lessNoise_PlusLocalization,2021.2.3,59.95271049129969,
doll.wav,doll.mpg,doll,6,AV,Pink_Noise_6_1.wav,Pink_Noise_6_2.wav,,,,,,,,,,,,,,,0,102,102,71,,,,,,,,,,,,,,,,,,,,,,,1336.078113160096,None,1337.5633724300424,None,1338.9448303350946,None,not,1338.9448303350946,None,return,3.9542849640129134,1339.0282102760393,None,,,,,,,,,,,,,,,,,,,,,,,,,,,,,,,,,25,001,2023_Feb_17_1504,SpeechDraft1Carolyn_lessNoise_PlusLocalization,2021.2.3,59.95271049129969,
gash.wav,gash.mpg,gash,2,A,Pink_Noise_2_1.wav,Pink_Noise_2_2.wav,,,,,,,,,,,,,,,0,103,103,30,,,,,,,,,,,,,,,,,,,,,,,1343.011487437063,None,1344.5111743910238,None,1345.8948388810968,None,gash,1345.8948388810968,None,return,8.028121136012487,1345.9783602150856,None,,,,,,,,,,,,,,,,,,,,,,,,,,,,,,,,,25,001,2023_Feb_17_1504,SpeechDraft1Carolyn_lessNoise_PlusLocalization,2021.2.3,59.95271049129969,
deed.wav,deed.mpg,deed,2,AV,Pink_Noise_2_1.wav,Pink_Noise_2_2.wav,,,,,,,,,,,,,,,0,104,104,93,,,,,,,,,,,,,,,,,,,,,,,1354.0282297740923,None,1355.5281020390103,None,1356.894672740018,None,did,1356.894672740018,None,return,2.380206828005612,1356.978312759078,None,,,,,,,,,,,,,,,,,,,,,,,,,,,,,,,,,25,001,2023_Feb_17_1504,SpeechDraft1Carolyn_lessNoise_PlusLocalization,2021.2.3,59.95271049129969,
route.wav,route.mpg,route,2,AV,Pink_Noise_2_1.wav,Pink_Noise_2_2.wav,,,,,,,,,,,,,,,0,105,105,91,,,,,,,,,,,,,,,,,,,,,,,1359.3781580521027,None,1360.8777975360863,None,1362.261367947096,None,"rat
",1362.261367947096,None,return,5.469572274014354,1362.3449228950776,None,,,,,,,,,,,,,,,,,,,,,,,,,,,,,,,,,25,001,2023_Feb_17_1504,SpeechDraft1Carolyn_lessNoise_PlusLocalization,2021.2.3,59.95271049129969,
bite.wav,bite.mpg,bite,3,AV,Pink_Noise_3_1.wav,Pink_Noise_3_2.wav,,,,,,,,,,,,,,,0,106,106,104,,,,,,,,,,,,,,,,,,,,,,,1367.8446955929976,None,1369.344885612023,None,1370.728013797081,None,bate,1370.728013797081,None,return,8.658873532083817,1370.8116071040276,None,,,,,,,,,,,,,,,,,,,,,,,,,,,,,,,,,25,001,2023_Feb_17_1504,SpeechDraft1Carolyn_lessNoise_PlusLocalization,2021.2.3,59.95271049129969,
crook.wav,crook.mpg,crook,3,AV,Pink_Noise_3_1.wav,Pink_Noise_3_2.wav,,,,,,,,,,,,,,,0,107,107,68,,,,,,,,,,,,,,,,,,,,,,,1379.4947014451027,None,1380.9955481271027,None,1382.3781576850452,None,crook,1382.3781576850452,None,return,18.665165253914893,1382.4614365460584,None,,,,,,,,,,,,,,,,,,,,,,,,,,,,,,,,,25,001,2023_Feb_17_1504,SpeechDraft1Carolyn_lessNoise_PlusLocalization,2021.2.3,59.95271049129969,
dare.wav,dare.mpg,dare,4,AV,Pink_Noise_4_1.wav,Pink_Noise_4_2.wav,,,,,,,,,,,,,,,0,108,108,105,,,,,,,,,,,,,,,,,,,,,,,1401.1450240160339,None,1402.6446963690687,None,1404.0280545110581,None,zil,1404.0280545110581,None,return,12.982922379975207,1404.1115934530972,None,,,,,,,,,,,,,,,,,,,,,,,,,,,,,,,,,25,001,2023_Feb_17_1504,SpeechDraft1Carolyn_lessNoise_PlusLocalization,2021.2.3,59.95271049129969,
care.wav,care.mpg,care,3,A,Pink_Noise_3_1.wav,Pink_Noise_3_2.wav,,,,,,,,,,,,,,,0,109,109,46,,,,,,,,,,,,,,,,,,,,,,,1417.1114605690818,None,1418.611358615104,None,1419.994980576099,None,kill,1419.994980576099,None,return,4.464161490090191,1420.0782864440698,None,,,,,,,,,,,,,,,,,,,,,,,,,,,,,,,,,25,001,2023_Feb_17_1504,SpeechDraft1Carolyn_lessNoise_PlusLocalization,2021.2.3,59.95271049129969,
goal.wav,goal.mpg,goal,5,A,Pink_Noise_5_1.wav,Pink_Noise_5_2.wav,,,,,,,,,,,,,,,0,110,110,41,,,,,,,,,,,,,,,,,,,,,,,1424.5615351690212,None,1426.0614644970046,None,1427.4281691280194,None,gold,1427.4281691280194,None,return,2.094994207029231,1427.5114936290774,None,,,,,,,,,,,,,,,,,,,,,,,,,,,,,,,,,25,001,2023_Feb_17_1504,SpeechDraft1Carolyn_lessNoise_PlusLocalization,2021.2.3,59.95271049129969,
flesh.wav,flesh.mpg,flesh,3,AV,Pink_Noise_3_1.wav,Pink_Noise_3_2.wav,,,,,,,,,,,,,,,0,111,111,76,,,,,,,,,,,,,,,,,,,,,,,1429.6282524600392,None,1431.1279855100438,None,1432.4948958180612,None,flash,1432.4948958180612,None,return,2.1724575150292367,1432.5781649710843,None,,,,,,,,,,,,,,,,,,,,,,,,,,,,,,,,,25,001,2023_Feb_17_1504,SpeechDraft1Carolyn_lessNoise_PlusLocalization,2021.2.3,59.95271049129969,
row.wav,row.mpg,row,4,A,Pink_Noise_4_1.wav,Pink_Noise_4_2.wav,,,,,,,,,,,,,,,0,112,112,34,,,,,,,,,,,,,,,,,,,,,,,1434.7782305160072,None,1436.2779947490199,None,1437.6616645870963,None,road,1437.6616645870963,None,return,3.989997150027193,1437.744755991036,None,,,,,,,,,,,,,,,,,,,,,,,,,,,,,,,,,25,001,2023_Feb_17_1504,SpeechDraft1Carolyn_lessNoise_PlusLocalization,2021.2.3,59.95271049129969,
leapt.wav,leapt.mpg,leapt,4,AV,Pink_Noise_4_1.wav,Pink_Noise_4_2.wav,,,,,,,,,,,,,,,0,113,113,109,,,,,,,,,,,,,,,,,,,,,,,1441.761493193102,None,1443.2613054059912,None,1444.6448296820745,None,"let
",1444.6448296820745,None,return,1.5341482100775465,1444.7283467520028,None,,,,,,,,,,,,,,,,,,,,,,,,,,,,,,,,,25,001,2023_Feb_17_1504,SpeechDraft1Carolyn_lessNoise_PlusLocalization,2021.2.3,59.95271049129969,
coup.wav,coup.mpg,coup,2,A,Pink_Noise_2_1.wav,Pink_Noise_2_2.wav,,,,,,,,,,,,,,,0,114,114,8,,,,,,,,,,,,,,,,,,,,,,,1446.2951633870834,None,1447.79474551999,None,1449.178593270015,None,cook,1449.178593270015,None,return,1.4729501570109278,1449.2616374130594,None,,,,,,,,,,,,,,,,,,,,,,,,,,,,,,,,,25,001,2023_Feb_17_1504,SpeechDraft1Carolyn_lessNoise_PlusLocalization,2021.2.3,59.95271049129969,
dance.wav,dance.mpg,dance,1,AV,Pink_Noise_1_1.wav,Pink_Noise_1_2.wav,,,,,,,,,,,,,,,0,115,115,94,,,,,,,,,,,,,,,,,,,,,,,1450.7615114420187,None,1452.2613339230884,None,1453.6450961140217,None,"dance
",1453.6450961140217,None,return,2.3021297639934346,1453.728356770007,None,,,,,,,,,,,,,,,,,,,,,,,,,,,,,,,,,25,001,2023_Feb_17_1504,SpeechDraft1Carolyn_lessNoise_PlusLocalization,2021.2.3,59.95271049129969,
fake.wav,fake.mpg,fake,5,A,Pink_Noise_5_1.wav,Pink_Noise_5_2.wav,,,,,,,,,,,,,,,0,116,116,28,,,,,,,,,,,,,,,,,,,,,,,1456.0616753890645,None,1457.5612717590993,None,1458.9450211800868,None,kick,1458.9450211800868,None,return,3.513994605978951,1459.0284928920446,None,,,,,,,,,,,,,,,,,,,,,,,,,,,,,,,,,25,001,2023_Feb_17_1504,SpeechDraft1Carolyn_lessNoise_PlusLocalization,2021.2.3,59.95271049129969,
rod.wav,rod.mpg,rod,3,A,Pink_Noise_3_1.wav,Pink_Noise_3_2.wav,,,,,,,,,,,,,,,0,117,117,0,,,,,,,,,,,,,,,,,,,,,,,1462.5617242601002,None,1464.0616689469898,None,1465.445016623009,None,"red
",1465.445016623009,None,return,1.7342550879111513,1465.5282404200407,None,,,,,,,,,,,,,,,,,,,,,,,,,,,,,,,,,25,001,2023_Feb_17_1504,SpeechDraft1Carolyn_lessNoise_PlusLocalization,2021.2.3,59.95271049129969,
core.wav,core.mpg,core,3,A,Pink_Noise_3_1.wav,Pink_Noise_3_2.wav,,,,,,,,,,,,,,,0,118,118,22,,,,,,,,,,,,,,,,,,,,,,,1467.295034548035,None,1468.7949709690874,None,1470.1782408250729,None,cor,1470.1782408250729,None,return,10.840938791981898,1470.2616070760414,None,,,,,,,,,,,,,,,,,,,,,,,,,,,,,,,,,25,001,2023_Feb_17_1504,SpeechDraft1Carolyn_lessNoise_PlusLocalization,2021.2.3,59.95271049129969,
globe.wav,globe.mpg,globe,1,A,Pink_Noise_1_1.wav,Pink_Noise_1_2.wav,,,,,,,,,,,,,,,0,119,119,42,,,,,,,,,,,,,,,,,,,,,,,1481.1282895210898,None,1482.6279622070724,None,1484.011965496,None,gold,1484.011965496,None,return,2.4956261080224067,1484.0948627210455,None,,,,,,,,,,,,,,,,,,,,,,,,,,,,,,,,,25,001,2023_Feb_17_1504,SpeechDraft1Carolyn_lessNoise_PlusLocalization,2021.2.3,59.95271049129969,
,,,,,,,,,,,,,,,,,,,,,,,,,,,,,,,,,,,,,,,,,,,,,,,,,,,,,,,,,,,,,,,,,,space,15.895615663030185,1486.6948595630238,None,,,,,,,,,,,,,,,,,,,,,,,25,001,2023_Feb_17_1504,SpeechDraft1Carolyn_lessNoise_PlusLocalization,2021.2.3,59.95271049129969,
,,,,,,,,midRight,13.0,3,ch1Sound_localizationTask.wav,13.0,"(1142, 878)","(182, -202)",190,-338,,,,,,,,,0,0,0,5,,,,,,,,,,,,,,,,,,,,,,,,,,,,,,,,,,,,,,,,,,1486.6948595630238,None,1502.628371060011,None,1503.7282708100975,None,1504.6613219690043,None,1.7296296296296296,3.868602483998984,1504.6613219690043,None,,,,,,,,,,,25,001,2023_Feb_17_1504,SpeechDraft1Carolyn_lessNoise_PlusLocalization,2021.2.3,59.95271049129969,
,,,,,,,,midRight,13.0,3,ch1Sound_localizationTask.wav,13.0,"(1142, 878)","(182, -202)",190,-338,,,,,,,,,0,1,1,5,,,,,,,,,,,,,,,,,,,,,,,,,,,,,,,,,,,,,,,,,,,,1508.5288520300528,None,1509.627981386031,None,1510.56157281599,None,1.7380952380952381,1.633748781052418,1510.56157281599,None,,,,,,,,,,,25,001,2023_Feb_17_1504,SpeechDraft1Carolyn_lessNoise_PlusLocalization,2021.2.3,59.95271049129969,
,,,,,,,,midLeft,-13.0,2,ch1Sound_localizationTask.wav,-13.0,"(762, 878)","(-198,-202)",-190,-338,,,,,,,,,0,2,2,1,,,,,,,,,,,,,,,,,,,,,,,,,,,,,,,,,,,,,,,,,,,,1512.1951146580977,None,1513.2951312300283,None,1514.2281149150804,None,1.2666666666666666,0.8831127249868587,1514.2281149150804,None,,,,,,,,,,,25,001,2023_Feb_17_1504,SpeechDraft1Carolyn_lessNoise_PlusLocalization,2021.2.3,59.95271049129969,
,,,,,,,,nearLeft,-6.5,1,ch1Sound_localizationTask.wav,-6.5,"(857, 878)","(-103,-202)",-95,-338,,,,,,,,,0,3,3,2,,,,,,,,,,,,,,,,,,,,,,,,,,,,,,,,,,,,,,,,,,,,1515.111981705064,None,1516.2115557150682,None,1517.1447420240147,None,1.4492063492063492,0.9322339369682595,1517.1447420240147,None,,,,,,,,,,,25,001,2023_Feb_17_1504,SpeechDraft1Carolyn_lessNoise_PlusLocalization,2021.2.3,59.95271049129969,
,,,,,,,,midRight,13.0,3,ch1Sound_localizationTask.wav,13.0,"(1142, 878)","(182, -202)",190,-338,,,,,,,,,0,4,4,5,,,,,,,,,,,,,,,,,,,,,,,,,,,,,,,,,,,,,,,,,,,,1518.0784490620717,None,1519.1780882540625,None,1520.111357296002,None,1.632804232804233,0.6824267880292609,1520.111357296002,None,,,,,,,,,,,25,001,2023_Feb_17_1504,SpeechDraft1Carolyn_lessNoise_PlusLocalization,2021.2.3,59.95271049129969,
,,,,,,,,midLeft,-13.0,2,ch1Sound_localizationTask.wav,-13.0,"(762, 878)","(-198,-202)",-190,-338,,,,,,,,,0,5,5,1,,,,,,,,,,,,,,,,,,,,,,,,,,,,,,,,,,,,,,,,,,,,1520.7951987630222,None,1521.8948276840383,None,1522.8282768720528,None,1.3603174603174604,0.8665719730779529,1522.8282768720528,None,,,,,,,,,,,25,001,2023_Feb_17_1504,SpeechDraft1Carolyn_lessNoise_PlusLocalization,2021.2.3,59.95271049129969,
,,,,,,,,farLeft,-19.1,5,ch1Sound_localizationTask.wav,-19.1,"(667, 878)","(-293,-202)",-285,-338,,,,,,,,,0,6,6,0,,,,,,,,,,,,,,,,,,,,,,,,,,,,,,,,,,,,,,,,,,,,1523.6957041010028,None,1524.7946869829902,None,1525.7282345769927,None,1.3,0.8497064859839156,1525.7282345769927,None,,,,,,,,,,,25,001,2023_Feb_17_1504,SpeechDraft1Carolyn_lessNoise_PlusLocalization,2021.2.3,59.95271049129969,
,,,,,,,,farRight,19.1,4,ch1Sound_localizationTask.wav,19.1,"(1237, 878)","(277,-202)",285,-338,,,,,,,,,1,0,7,6,,,,,,,,,,,,,,,,,,,,,,,,,,,,,,,,,,,,,,,,,,,,1526.5783558150288,None,1527.678322945023,None,1528.6115794440266,None,1.674074074074074,0.8171243460383266,1528.6115794440266,None,,,,,,,,,,,25,001,2023_Feb_17_1504,SpeechDraft1Carolyn_lessNoise_PlusLocalization,2021.2.3,59.95271049129969,
,,,,,,,,farLeft,-19.1,5,ch1Sound_localizationTask.wav,-19.1,"(667, 878)","(-293,-202)",-285,-338,,,,,,,,,1,1,8,0,,,,,,,,,,,,,,,,,,,,,,,,,,,,,,,,,,,,,,,,,,,,1529.445090765017,None,1530.544878447079,None,1531.4782086770283,None,1.3666666666666667,0.6327613790053874,1531.4782086770283,None,,,,,,,,,,,25,001,2023_Feb_17_1504,SpeechDraft1Carolyn_lessNoise_PlusLocalization,2021.2.3,59.95271049129969,
,,,,,,,,farRight,19.1,4,ch1Sound_localizationTask.wav,19.1,"(1237, 878)","(277,-202)",285,-338,,,,,,,,,1,2,9,6,,,,,,,,,,,,,,,,,,,,,,,,,,,,,,,,,,,,,,,,,,,,1532.111905819038,None,1533.2117179580964,None,1534.1448821170488,None,1.6396825396825396,0.8987752830144018,1534.1448821170488,None,,,,,,,,,,,25,001,2023_Feb_17_1504,SpeechDraft1Carolyn_lessNoise_PlusLocalization,2021.2.3,59.95271049129969,
,,,,,,,,midLeft,-13.0,2,ch1Sound_localizationTask.wav,-13.0,"(762, 878)","(-198,-202)",-190,-338,,,,,,,,,1,3,10,1,,,,,,,,,,,,,,,,,,,,,,,,,,,,,,,,,,,,,,,,,,,,1535.0453966660425,None,1536.1447344650514,None,1537.078035493032,None,1.4402116402116403,0.6492996219312772,1537.078035493032,None,,,,,,,,,,,25,001,2023_Feb_17_1504,SpeechDraft1Carolyn_lessNoise_PlusLocalization,2021.2.3,59.95271049129969,
,,,,,,,,center,0.0,6,ch1Sound_localizationTask.wav,0.0,"(952, 878)","(-8,-202)",0,-338,,,,,,,,,1,4,11,3,,,,,,,,,,,,,,,,,,,,,,,,,,,,,,,,,,,,,,,,,,,,1537.7450641311007,None,1538.8450513710268,None,1539.7781290150015,None,1.5074074074074075,0.7160297950031236,1539.7781290150015,None,,,,,,,,,,,25,001,2023_Feb_17_1504,SpeechDraft1Carolyn_lessNoise_PlusLocalization,2021.2.3,59.95271049129969,
,,,,,,,,nearLeft,-6.5,1,ch1Sound_localizationTask.wav,-6.5,"(857, 878)","(-103,-202)",-95,-338,,,,,,,,,1,5,12,2,,,,,,,,,,,,,,,,,,,,,,,,,,,,,,,,,,,,,,,,,,,,1540.4949877660256,None,1541.5951200030977,None,1542.5281866000732,None,1.482010582010582,0.8664212739095092,1542.5281866000732,None,,,,,,,,,,,25,001,2023_Feb_17_1504,SpeechDraft1Carolyn_lessNoise_PlusLocalization,2021.2.3,59.95271049129969,
,,,,,,,,farRight,19.1,4,ch1Sound_localizationTask.wav,19.1,"(1237, 878)","(277,-202)",285,-338,,,,,,,,,1,6,13,6,,,,,,,,,,,,,,,,,,,,,,,,,,,,,,,,,,,,,,,,,,,,1543.3950936601032,None,1544.4947677589953,None,1545.4282723770011,None,1.6264550264550266,0.48324244702234864,1545.4282723770011,None,,,,,,,,,,,25,001,2023_Feb_17_1504,SpeechDraft1Carolyn_lessNoise_PlusLocalization,2021.2.3,59.95271049129969,
,,,,,,,,center,0.0,6,ch1Sound_localizationTask.wav,0.0,"(952, 878)","(-8,-202)",0,-338,,,,,,,,,2,0,14,3,,,,,,,,,,,,,,,,,,,,,,,,,,,,,,,,,,,,,,,,,,,,1545.9121734070359,None,1547.0114737870172,None,1547.9448511051014,None,1.5465608465608467,0.5496308390283957,1547.9448511051014,None,,,,,,,,,,,25,001,2023_Feb_17_1504,SpeechDraft1Carolyn_lessNoise_PlusLocalization,2021.2.3,59.95271049129969,
,,,,,,,,midRight,13.0,3,ch1Sound_localizationTask.wav,13.0,"(1142, 878)","(182, -202)",190,-338,,,,,,,,,2,1,15,5,,,,,,,,,,,,,,,,,,,,,,,,,,,,,,,,,,,,,,,,,,,,1548.4959489990724,None,1549.6117701550247,None,1550.5283857720206,None,1.591005291005291,0.6842285100137815,1550.5283857720206,None,,,,,,,,,,,25,001,2023_Feb_17_1504,SpeechDraft1Carolyn_lessNoise_PlusLocalization,2021.2.3,59.95271049129969,
,,,,,,,,farLeft,-19.1,5,ch1Sound_localizationTask.wav,-19.1,"(667, 878)","(-293,-202)",-285,-338,,,,,,,,,2,2,16,0,,,,,,,,,,,,,,,,,,,,,,,,,,,,,,,,,,,,,,,,,,,,1551.2284676430281,None,1552.3283133010846,None,1553.261647647014,None,1.3153439153439153,0.6835514110280201,1553.261647647014,None,,,,,,,,,,,25,001,2023_Feb_17_1504,SpeechDraft1Carolyn_lessNoise_PlusLocalization,2021.2.3,59.95271049129969,
,,,,,,,,center,0.0,6,ch1Sound_localizationTask.wav,0.0,"(952, 878)","(-8,-202)",0,-338,,,,,,,,,2,3,17,3,,,,,,,,,,,,,,,,,,,,,,,,,,,,,,,,,,,,,,,,,,,,1553.9456342021003,None,1555.044725426007,None,1555.9780541060027,None,1.4248677248677248,0.6001092429505661,1555.9780541060027,None,,,,,,,,,,,25,001,2023_Feb_17_1504,SpeechDraft1Carolyn_lessNoise_PlusLocalization,2021.2.3,59.95271049129969,
,,,,,,,,nearLeft,-6.5,1,ch1Sound_localizationTask.wav,-6.5,"(857, 878)","(-103,-202)",-95,-338,,,,,,,,,2,4,18,2,,,,,,,,,,,,,,,,,,,,,,,,,,,,,,,,,,,,,,,,,,,,1556.5796404050197,None,1557.694752970012,None,1558.6113923640223,None,1.4465608465608466,0.3535765199922025,1558.6113923640223,None,,,,,,,,,,,25,001,2023_Feb_17_1504,SpeechDraft1Carolyn_lessNoise_PlusLocalization,2021.2.3,59.95271049129969,
,,,,,,,,nearRight,6.5,0,ch1Sound_localizationTask.wav,6.5,"(1047, 878)","(87, -202)",95,-338,,,,,,,,,2,5,19,4,,,,,,,,,,,,,,,,,,,,,,,,,,,,,,,,,,,,,,,,,,,,1558.9782156520523,None,1560.0782241210109,None,1561.011654028087,None,1.4904761904761905,0.44881130510475487,1561.011654028087,None,,,,,,,,,,,25,001,2023_Feb_17_1504,SpeechDraft1Carolyn_lessNoise_PlusLocalization,2021.2.3,59.95271049129969,
,,,,,,,,nearLeft,-6.5,1,ch1Sound_localizationTask.wav,-6.5,"(857, 878)","(-103,-202)",-95,-338,,,,,,,,,2,6,20,2,,,,,,,,,,,,,,,,,,,,,,,,,,,,,,,,,,,,,,,,,,,,1561.461728240014,None,1562.5615336910123,None,1563.4951670800801,None,1.4682539682539684,0.43440977903082967,1563.4951670800801,None,,,,,,,,,,,25,001,2023_Feb_17_1504,SpeechDraft1Carolyn_lessNoise_PlusLocalization,2021.2.3,59.95271049129969,
,,,,,,,,farRight,19.1,4,ch1Sound_localizationTask.wav,19.1,"(1237, 878)","(277,-202)",285,-338,,,,,,,,,3,0,21,6,,,,,,,,,,,,,,,,,,,,,,,,,,,,,,,,,,,,,,,,,,,,1563.9451084970497,None,1565.0449857370695,None,1565.9782413730863,None,1.6544973544973545,0.684175391914323,1565.9782413730863,None,,,,,,,,,,,25,001,2023_Feb_17_1504,SpeechDraft1Carolyn_lessNoise_PlusLocalization,2021.2.3,59.95271049129969,
,,,,,,,,nearLeft,-6.5,1,ch1Sound_localizationTask.wav,-6.5,"(857, 878)","(-103,-202)",-95,-338,,,,,,,,,3,1,22,2,,,,,,,,,,,,,,,,,,,,,,,,,,,,,,,,,,,,,,,,,,,,1566.6783394970698,None,1567.7781839790987,None,1568.7114654100733,None,1.4783068783068782,0.5483271849807352,1568.7114654100733,None,,,,,,,,,,,25,001,2023_Feb_17_1504,SpeechDraft1Carolyn_lessNoise_PlusLocalization,2021.2.3,59.95271049129969,
,,,,,,,,farRight,19.1,4,ch1Sound_localizationTask.wav,19.1,"(1237, 878)","(277,-202)",285,-338,,,,,,,,,3,2,23,6,,,,,,,,,,,,,,,,,,,,,,,,,,,,,,,,,,,,,,,,,,,,1569.2621214090614,None,1570.3616908580298,None,1571.2947267310228,None,1.6941798941798942,0.4669351000338793,1571.2947267310228,None,,,,,,,,,,,25,001,2023_Feb_17_1504,SpeechDraft1Carolyn_lessNoise_PlusLocalization,2021.2.3,59.95271049129969,
,,,,,,,,midLeft,-13.0,2,ch1Sound_localizationTask.wav,-13.0,"(762, 878)","(-198,-202)",-190,-338,,,,,,,,,3,3,24,1,,,,,,,,,,,,,,,,,,,,,,,,,,,,,,,,,,,,,,,,,,,,1571.7785511380062,None,1572.877996471012,None,1573.8117696340196,None,1.4026455026455027,0.5328127649845555,1573.8117696340196,None,,,,,,,,,,,25,001,2023_Feb_17_1504,SpeechDraft1Carolyn_lessNoise_PlusLocalization,2021.2.3,59.95271049129969,
,,,,,,,,nearLeft,-6.5,1,ch1Sound_localizationTask.wav,-6.5,"(857, 878)","(-103,-202)",-95,-338,,,,,,,,,3,4,25,2,,,,,,,,,,,,,,,,,,,,,,,,,,,,,,,,,,,,,,,,,,,,1574.3456822530134,None,1575.4448269330896,None,1576.3782621120336,None,1.4925925925925925,0.5161037991056219,1576.3782621120336,None,,,,,,,,,,,25,001,2023_Feb_17_1504,SpeechDraft1Carolyn_lessNoise_PlusLocalization,2021.2.3,59.95271049129969,
,,,,,,,,nearRight,6.5,0,ch1Sound_localizationTask.wav,6.5,"(1047, 878)","(87, -202)",95,-338,,,,,,,,,3,5,26,4,,,,,,,,,,,,,,,,,,,,,,,,,,,,,,,,,,,,,,,,,,,,1576.8953692110954,None,1577.994722697069,None,1578.928232051083,None,1.5994708994708995,0.46593730605673045,1578.928232051083,None,,,,,,,,,,,25,001,2023_Feb_17_1504,SpeechDraft1Carolyn_lessNoise_PlusLocalization,2021.2.3,59.95271049129969,
,,,,,,,,nearLeft,-6.5,1,ch1Sound_localizationTask.wav,-6.5,"(857, 878)","(-103,-202)",-95,-338,,,,,,,,,3,6,27,2,,,,,,,,,,,,,,,,,,,,,,,,,,,,,,,,,,,,,,,,,,,,1579.3950137320207,None,1580.4947040290572,None,1581.4284310280345,None,1.4894179894179893,0.48334008699748665,1581.4284310280345,None,,,,,,,,,,,25,001,2023_Feb_17_1504,SpeechDraft1Carolyn_lessNoise_PlusLocalization,2021.2.3,59.95271049129969,
,,,,,,,,midRight,13.0,3,ch1Sound_localizationTask.wav,13.0,"(1142, 878)","(182, -202)",190,-338,,,,,,,,,4,0,28,5,,,,,,,,,,,,,,,,,,,,,,,,,,,,,,,,,,,,,,,,,,,,1581.9123249819968,None,1583.0115679689916,None,1583.9447640361032,None,1.608994708994709,0.4503786599962041,1583.9447640361032,None,,,,,,,,,,,25,001,2023_Feb_17_1504,SpeechDraft1Carolyn_lessNoise_PlusLocalization,2021.2.3,59.95271049129969,
,,,,,,,,midRight,13.0,3,ch1Sound_localizationTask.wav,13.0,"(1142, 878)","(182, -202)",190,-338,,,,,,,,,4,1,29,5,,,,,,,,,,,,,,,,,,,,,,,,,,,,,,,,,,,,,,,,,,,,1584.3951210610103,None,1585.4951561520575,None,1586.4281796690775,None,1.624867724867725,0.28363977593835443,1586.4281796690775,None,,,,,,,,,,,25,001,2023_Feb_17_1504,SpeechDraft1Carolyn_lessNoise_PlusLocalization,2021.2.3,59.95271049129969,
,,,,,,,,center,0.0,6,ch1Sound_localizationTask.wav,0.0,"(952, 878)","(-8,-202)",0,-338,,,,,,,,,4,2,30,3,,,,,,,,,,,,,,,,,,,,,,,,,,,,,,,,,,,,,,,,,,,,1586.711994789075,None,1587.8115559970029,None,1588.7450067740865,None,1.5603174603174603,0.36655232298653573,1588.7450067740865,None,,,,,,,,,,,25,001,2023_Feb_17_1504,SpeechDraft1Carolyn_lessNoise_PlusLocalization,2021.2.3,59.95271049129969,
,,,,,,,,midLeft,-13.0,2,ch1Sound_localizationTask.wav,-13.0,"(762, 878)","(-198,-202)",-190,-338,,,,,,,,,4,3,31,1,,,,,,,,,,,,,,,,,,,,,,,,,,,,,,,,,,,,,,,,,,,,1589.1123485990101,None,1590.2114418300334,None,1591.1450846660882,None,1.408994708994709,0.4987737099872902,1591.1450846660882,None,,,,,,,,,,,25,001,2023_Feb_17_1504,SpeechDraft1Carolyn_lessNoise_PlusLocalization,2021.2.3,59.95271049129969,
,,,,,,,,center,0.0,6,ch1Sound_localizationTask.wav,0.0,"(952, 878)","(-8,-202)",0,-338,,,,,,,,,4,4,32,3,,,,,,,,,,,,,,,,,,,,,,,,,,,,,,,,,,,,,,,,,,,,1591.6451593950624,None,1592.744891815004,None,1593.6781305810437,None,1.5126984126984127,0.6002177209593356,1593.6781305810437,None,,,,,,,,,,,25,001,2023_Feb_17_1504,SpeechDraft1Carolyn_lessNoise_PlusLocalization,2021.2.3,59.95271049129969,
,,,,,,,,center,0.0,6,ch1Sound_localizationTask.wav,0.0,"(952, 878)","(-8,-202)",0,-338,,,,,,,,,4,5,33,3,,,,,,,,,,,,,,,,,,,,,,,,,,,,,,,,,,,,,,,,,,,,1594.2785542990314,None,1595.3782068270957,None,1596.311527295038,None,1.541798941798942,0.5333661179756746,1596.311527295038,None,,,,,,,,,,,25,001,2023_Feb_17_1504,SpeechDraft1Carolyn_lessNoise_PlusLocalization,2021.2.3,59.95271049129969,
,,,,,,,,farLeft,-19.1,5,ch1Sound_localizationTask.wav,-19.1,"(667, 878)","(-293,-202)",-285,-338,,,,,,,,,4,6,34,0,,,,,,,,,,,,,,,,,,,,,,,,,,,,,,,,,,,,,,,,,,,,1596.8457563820994,None,1597.944871047046,None,1598.8781838880386,None,1.2931216931216931,0.5832090739859268,1598.8781838880386,None,,,,,,,,,,,25,001,2023_Feb_17_1504,SpeechDraft1Carolyn_lessNoise_PlusLocalization,2021.2.3,59.95271049129969,
,,,,,,,,midRight,13.0,3,ch1Sound_localizationTask.wav,13.0,"(1142, 878)","(182, -202)",190,-338,,,,,,,,,5,0,35,5,,,,,,,,,,,,,,,,,,,,,,,,,,,,,,,,,,,,,,,,,,,,1599.4618974460755,None,1600.5618824440753,None,1601.4947670630645,None,1.6031746031746033,0.6671010040445253,1601.4947670630645,None,,,,,,,,,,,25,001,2023_Feb_17_1504,SpeechDraft1Carolyn_lessNoise_PlusLocalization,2021.2.3,59.95271049129969,
,,,,,,,,farRight,19.1,4,ch1Sound_localizationTask.wav,19.1,"(1237, 878)","(277,-202)",285,-338,,,,,,,,,5,1,36,6,,,,,,,,,,,,,,,,,,,,,,,,,,,,,,,,,,,,,,,,,,,,1602.1786415610695,None,1603.2783100580564,None,1604.2116640990134,None,1.7322751322751322,0.6488113000523299,1604.2116640990134,None,,,,,,,,,,,25,001,2023_Feb_17_1504,SpeechDraft1Carolyn_lessNoise_PlusLocalization,2021.2.3,59.95271049129969,
,,,,,,,,nearLeft,-6.5,1,ch1Sound_localizationTask.wav,-6.5,"(857, 878)","(-103,-202)",-95,-338,,,,,,,,,5,2,37,2,,,,,,,,,,,,,,,,,,,,,,,,,,,,,,,,,,,,,,,,,,,,1604.8618636260508,None,1605.9614818640985,None,1606.8947257540422,None,1.4798941798941798,0.5333697650348768,1606.8947257540422,None,,,,,,,,,,,25,001,2023_Feb_17_1504,SpeechDraft1Carolyn_lessNoise_PlusLocalization,2021.2.3,59.95271049129969,
,,,,,,,,midLeft,-13.0,2,ch1Sound_localizationTask.wav,-13.0,"(762, 878)","(-198,-202)",-190,-338,,,,,,,,,5,3,38,1,,,,,,,,,,,,,,,,,,,,,,,,,,,,,,,,,,,,,,,,,,,,1607.4288287080126,None,1608.5284009010065,None,1609.4615543769905,None,1.4216931216931217,0.6166779199847952,1609.4615543769905,None,,,,,,,,,,,25,001,2023_Feb_17_1504,SpeechDraft1Carolyn_lessNoise_PlusLocalization,2021.2.3,59.95271049129969,
,,,,,,,,center,0.0,6,ch1Sound_localizationTask.wav,0.0,"(952, 878)","(-8,-202)",0,-338,,,,,,,,,5,4,39,3,,,,,,,,,,,,,,,,,,,,,,,,,,,,,,,,,,,,,,,,,,,,1610.0785815430572,None,1611.1782229529927,None,1612.1114920830587,None,1.5031746031746032,0.3996235328959301,1612.1114920830587,None,,,,,,,,,,,25,001,2023_Feb_17_1504,SpeechDraft1Carolyn_lessNoise_PlusLocalization,2021.2.3,59.95271049129969,
,,,,,,,,farLeft,-19.1,5,ch1Sound_localizationTask.wav,-19.1,"(667, 878)","(-293,-202)",-285,-338,,,,,,,,,5,5,40,0,,,,,,,,,,,,,,,,,,,,,,,,,,,,,,,,,,,,,,,,,,,,1612.5119942870224,None,1613.6115537210135,None,1614.5450282130623,None,1.3132275132275133,0.8157787369564176,1614.5450282130623,None,,,,,,,,,,,25,001,2023_Feb_17_1504,SpeechDraft1Carolyn_lessNoise_PlusLocalization,2021.2.3,59.95271049129969,
,,,,,,,,farRight,19.1,4,ch1Sound_localizationTask.wav,19.1,"(1237, 878)","(277,-202)",285,-338,,,,,,,,,5,6,41,6,,,,,,,,,,,,,,,,,,,,,,,,,,,,,,,,,,,,,,,,,,,,1615.3620443789987,None,1616.461679509026,None,1617.3949260790832,None,1.6777777777777778,0.7829905500402674,1617.3949260790832,None,,,,,,,,,,,25,001,2023_Feb_17_1504,SpeechDraft1Carolyn_lessNoise_PlusLocalization,2021.2.3,59.95271049129969,
,,,,,,,,nearRight,6.5,0,ch1Sound_localizationTask.wav,6.5,"(1047, 878)","(87, -202)",95,-338,,,,,,,,,6,0,42,4,,,,,,,,,,,,,,,,,,,,,,,,,,,,,,,,,,,,,,,,,,,,1618.179110362078,None,1619.2781284489902,None,1620.2116961670108,None,1.566137566137566,0.6321089039556682,1620.2116961670108,None,,,,,,,,,,,25,001,2023_Feb_17_1504,SpeechDraft1Carolyn_lessNoise_PlusLocalization,2021.2.3,59.95271049129969,
,,,,,,,,farLeft,-19.1,5,ch1Sound_localizationTask.wav,-19.1,"(667, 878)","(-293,-202)",-285,-338,,,,,,,,,6,1,43,0,,,,,,,,,,,,,,,,,,,,,,,,,,,,,,,,,,,,,,,,,,,,1620.8452618879965,None,1621.945247525,None,1622.8784482590854,None,1.3052910052910054,1.2183718830347061,1622.8784482590854,None,,,,,,,,,,,25,001,2023_Feb_17_1504,SpeechDraft1Carolyn_lessNoise_PlusLocalization,2021.2.3,59.95271049129969,
,,,,,,,,nearRight,6.5,0,ch1Sound_localizationTask.wav,6.5,"(1047, 878)","(87, -202)",95,-338,,,,,,,,,6,2,44,4,,,,,,,,,,,,,,,,,,,,,,,,,,,,,,,,,,,,,,,,,,,,1624.1118922710884,None,1625.2115721850423,None,1626.1449310000753,None,1.580952380952381,0.5327549249632284,1626.1449310000753,None,,,,,,,,,,,25,001,2023_Feb_17_1504,SpeechDraft1Carolyn_lessNoise_PlusLocalization,2021.2.3,59.95271049129969,
,,,,,,,,nearRight,6.5,0,ch1Sound_localizationTask.wav,6.5,"(1047, 878)","(87, -202)",95,-338,,,,,,,,,6,3,45,4,,,,,,,,,,,,,,,,,,,,,,,,,,,,,,,,,,,,,,,,,,,,1626.6786053910619,None,1627.7783644211013,None,1628.711873618071,None,1.5328042328042328,0.16683343600016087,1628.711873618071,None,,,,,,,,,,,25,001,2023_Feb_17_1504,SpeechDraft1Carolyn_lessNoise_PlusLocalization,2021.2.3,59.95271049129969,
,,,,,,,,center,0.0,6,ch1Sound_localizationTask.wav,0.0,"(952, 878)","(-8,-202)",0,-338,,,,,,,,,6,4,46,3,,,,,,,,,,,,,,,,,,,,,,,,,,,,,,,,,,,,,,,,,,,,1628.8788227430778,None,1629.9782130010426,None,1630.9116330860415,None,1.471957671957672,0.5158267900114879,1630.9116330860415,None,,,,,,,,,,,25,001,2023_Feb_17_1504,SpeechDraft1Carolyn_lessNoise_PlusLocalization,2021.2.3,59.95271049129969,
,,,,,,,,farLeft,-19.1,5,ch1Sound_localizationTask.wav,-19.1,"(667, 878)","(-293,-202)",-285,-338,,,,,,,,,6,5,47,0,,,,,,,,,,,,,,,,,,,,,,,,,,,,,,,,,,,,,,,,,,,,1631.4285649179947,None,1632.5282708359882,None,1633.4616132910596,None,1.3232804232804232,0.5497829199302942,1633.4616132910596,None,,,,,,,,,,,25,001,2023_Feb_17_1504,SpeechDraft1Carolyn_lessNoise_PlusLocalization,2021.2.3,59.95271049129969,
,,,,,,,,farLeft,-19.1,5,ch1Sound_localizationTask.wav,-19.1,"(667, 878)","(-293,-202)",-285,-338,,,,,,,,,6,6,48,0,,,,,,,,,,,,,,,,,,,,,,,,,,,,,,,,,,,,,,,,,,,,1634.012138202088,None,1635.111628598068,None,1636.0447603130015,None,1.2301587301587302,0.449633281910792,1636.0447603130015,None,,,,,,,,,,,25,001,2023_Feb_17_1504,SpeechDraft1Carolyn_lessNoise_PlusLocalization,2021.2.3,59.95271049129969,
,,,,,,,,nearRight,6.5,0,ch1Sound_localizationTask.wav,6.5,"(1047, 878)","(87, -202)",95,-338,,,,,,,,,7,0,49,4,,,,,,,,,,,,,,,,,,,,,,,,,,,,,,,,,,,,,,,,,,,,1636.4953558210982,None,1637.5948997370433,None,1638.5283494590549,None,1.528042328042328,0.5829405970871449,1638.5283494590549,None,,,,,,,,,,,25,001,2023_Feb_17_1504,SpeechDraft1Carolyn_lessNoise_PlusLocalization,2021.2.3,59.95271049129969,
,,,,,,,,nearRight,6.5,0,ch1Sound_localizationTask.wav,6.5,"(1047, 878)","(87, -202)",95,-338,,,,,,,,,7,1,50,4,,,,,,,,,,,,,,,,,,,,,,,,,,,,,,,,,,,,,,,,,,,,1639.112391303992,None,1640.2114722121041,None,1641.1448692320846,None,1.573015873015873,0.39933653292246163,1641.1448692320846,None,,,,,,,,,,,25,001,2023_Feb_17_1504,SpeechDraft1Carolyn_lessNoise_PlusLocalization,2021.2.3,59.95271049129969,
,,,,,,,,farRight,19.1,4,ch1Sound_localizationTask.wav,19.1,"(1237, 878)","(277,-202)",285,-338,,,,,,,,,7,2,51,6,,,,,,,,,,,,,,,,,,,,,,,,,,,,,,,,,,,,,,,,,,,,1641.5454205340939,None,1642.6451168120839,None,1643.5782624520361,None,1.6883597883597883,0.5832754949806258,1643.5782624520361,None,,,,,,,,,,,25,001,2023_Feb_17_1504,SpeechDraft1Carolyn_lessNoise_PlusLocalization,2021.2.3,59.95271049129969,
,,,,,,,,midRight,13.0,3,ch1Sound_localizationTask.wav,13.0,"(1142, 878)","(182, -202)",190,-338,,,,,,,,,7,3,52,5,,,,,,,,,,,,,,,,,,,,,,,,,,,,,,,,,,,,,,,,,,,,1644.1622254831018,None,1645.261489079101,None,1646.1951880690176,None,1.6444444444444444,0.33334203297272325,1646.1951880690176,None,,,,,,,,,,,25,001,2023_Feb_17_1504,SpeechDraft1Carolyn_lessNoise_PlusLocalization,2021.2.3,59.95271049129969,
,,,,,,,,midLeft,-13.0,2,ch1Sound_localizationTask.wav,-13.0,"(762, 878)","(-198,-202)",-190,-338,,,,,,,,,7,4,53,1,,,,,,,,,,,,,,,,,,,,,,,,,,,,,,,,,,,,,,,,,,,,1646.5286434190348,None,1647.6283644600771,None,1648.5617430100683,None,1.3343915343915345,0.615656167967245,1648.5617430100683,None,,,,,,,,,,,25,001,2023_Feb_17_1504,SpeechDraft1Carolyn_lessNoise_PlusLocalization,2021.2.3,59.95271049129969,
,,,,,,,,midLeft,-13.0,2,ch1Sound_localizationTask.wav,-13.0,"(762, 878)","(-198,-202)",-190,-338,,,,,,,,,7,5,54,1,,,,,,,,,,,,,,,,,,,,,,,,,,,,,,,,,,,,,,,,,,,,1649.1785878150258,None,1650.2782723300625,None,1651.211542624049,None,1.4079365079365078,0.4494124569464475,1651.211542624049,None,,,,,,,,,,,25,001,2023_Feb_17_1504,SpeechDraft1Carolyn_lessNoise_PlusLocalization,2021.2.3,59.95271049129969,
,,,,,,,,nearRight,6.5,0,ch1Sound_localizationTask.wav,6.5,"(1047, 878)","(87, -202)",95,-338,,,,,,,,,7,6,55,4,,,,,,,,,,,,,,,,,,,,,,,,,,,,,,,,,,,,,,,,,,,,1651.662275874056,None,1652.7618545340374,None,1653.6949546070537,None,1.597883597883598,0.5655665550148115,1653.6949546070537,None,,,,,,,,,,,25,001,2023_Feb_17_1504,SpeechDraft1Carolyn_lessNoise_PlusLocalization,2021.2.3,59.95271049129969,
,,,,,,,,,,,,,,,,,,,,,,,,,,,,,,,,,,,,,,,,,,,,,,,,,,,,,,,,,,,,,,,,,,,,,,,,,,,,,,,,,,space,9.037265841965564,1654.3453676240752,None,,,,,,,25,001,2023_Feb_17_1504,SpeechDraft1Carolyn_lessNoise_PlusLocalization,2021.2.3,59.95271049129969,
,,,,,,,,center,0.0,6,ch1Sound_localizationTask.wav,0.0,"(952, 878)","(-8,-202)",0,-338,,,,,,,,,,,,,0,0,0,3,,,,,,,,,,,,,,,,,,,,,,,,,,,,,,,,,,,,,,,,1663.4285503270803,None,,,1666.4460870580515,None,1.4518518518518517,4.387604907038622,1666.4460870580515,None,,,,,1654.3453676240752,None,1664.4284962260863,None,1664.6117940620752,1664.6285870670108,25,001,2023_Feb_17_1504,SpeechDraft1Carolyn_lessNoise_PlusLocalization,2021.2.3,59.95271049129969,
,,,,,,,,nearLeft,-6.5,1,ch1Sound_localizationTask.wav,-6.5,"(857, 878)","(-103,-202)",-95,-338,,,,,,,,,,,,,0,1,1,2,,,,,,,,,,,,,,,,,,,,,,,,,,,,,,,,,,,,,,,,1670.8454033350572,None,,,1673.861702289083,None,1.4386243386243387,0.7485708179883659,1673.861702289083,None,,,,,,,1671.8451583930291,None,1672.0286723410245,1672.0453646430979,25,001,2023_Feb_17_1504,SpeechDraft1Carolyn_lessNoise_PlusLocalization,2021.2.3,59.95271049129969,
,,,,,,,,farRight,19.1,4,ch1Sound_localizationTask.wav,19.1,"(1237, 878)","(277,-202)",285,-338,,,,,,,,,,,,,0,2,2,6,,,,,,,,,,,,,,,,,,,,,,,,,,,,,,,,,,,,,,,,1674.6120331350248,None,,,1677.628324644058,None,1.6476190476190475,0.6157680900068954,1677.628324644058,None,,,,,,,1675.6118568270467,None,1675.7953771949979,1675.8119008220965,25,001,2023_Feb_17_1504,SpeechDraft1Carolyn_lessNoise_PlusLocalization,2021.2.3,59.95271049129969,
,,,,,,,,farLeft,-19.1,5,ch1Sound_localizationTask.wav,-19.1,"(667, 878)","(-293,-202)",-285,-338,,,,,,,,,,,,,0,3,3,0,,,,,,,,,,,,,,,,,,,,,,,,,,,,,,,,,,,,,,,,1678.2457640450448,None,,,1681.2616872370709,None,1.3412698412698414,0.7831679150694981,1681.2616872370709,None,,,,,,,1679.245173590025,None,1679.4287109640427,1679.4450828870758,25,001,2023_Feb_17_1504,SpeechDraft1Carolyn_lessNoise_PlusLocalization,2021.2.3,59.95271049129969,
,,,,,,,,nearLeft,-6.5,1,ch1Sound_localizationTask.wav,-6.5,"(857, 878)","(-103,-202)",-95,-338,,,,,,,,,,,,,0,4,4,2,,,,,,,,,,,,,,,,,,,,,,,,,,,,,,,,,,,,,,,,1682.0618955790997,None,,,1685.0782377790892,None,1.4724867724867725,0.732317884103395,1685.0782377790892,None,,,,,,,1683.06180992804,None,1683.2452724270988,1683.2619585280772,25,001,2023_Feb_17_1504,SpeechDraft1Carolyn_lessNoise_PlusLocalization,2021.2.3,59.95271049129969,
,,,,,,,,midLeft,-13.0,2,ch1Sound_localizationTask.wav,-13.0,"(762, 878)","(-198,-202)",-190,-338,,,,,,,,,,,,,0,5,5,1,,,,,,,,,,,,,,,,,,,,,,,,,,,,,,,,,,,,,,,,1685.8121717900503,None,,,1688.8284745450364,None,1.3925925925925926,0.8338373769074678,1688.8284745450364,None,,,,,,,1686.8120617190143,None,1686.99537281401,1687.0118388220435,25,001,2023_Feb_17_1504,SpeechDraft1Carolyn_lessNoise_PlusLocalization,2021.2.3,59.95271049129969,
,,,,,,,,farRight,19.1,4,ch1Sound_localizationTask.wav,19.1,"(1237, 878)","(277,-202)",285,-338,,,,,,,,,,,,,0,6,6,6,,,,,,,,,,,,,,,,,,,,,,,,,,,,,,,,,,,,,,,,1689.6786412480287,None,,,1692.6949905219954,None,1.6539682539682539,1.000090279034339,1692.6949905219954,None,,,,,,,1690.6786781490082,None,1690.861889779102,1690.8786195020657,25,001,2023_Feb_17_1504,SpeechDraft1Carolyn_lessNoise_PlusLocalization,2021.2.3,59.95271049129969,
,,,,,,,,nearRight,6.5,0,ch1Sound_localizationTask.wav,6.5,"(1047, 878)","(87, -202)",95,-338,,,,,,,,,,,,,1,0,7,4,,,,,,,,,,,,,,,,,,,,,,,,,,,,,,,,,,,,,,,,1693.695749858045,None,,,1696.7116464350838,None,1.547089947089947,0.5998189239762723,1696.7116464350838,None,,,,,,,1694.695524874027,None,1694.8785002080258,1694.8953788580839,25,001,2023_Feb_17_1504,SpeechDraft1Carolyn_lessNoise_PlusLocalization,2021.2.3,59.95271049129969,
,,,,,,,,midRight,13.0,3,ch1Sound_localizationTask.wav,13.0,"(1142, 878)","(182, -202)",190,-338,,,,,,,,,,,,,1,1,8,5,,,,,,,,,,,,,,,,,,,,,,,,,,,,,,,,,,,,,,,,1697.3122128940886,None,,,1700.3285100919893,None,1.573015873015873,0.4162260789889842,1700.3285100919893,None,,,,,,,1698.3119072919944,None,1698.4951868610224,1698.5120474790456,25,001,2023_Feb_17_1504,SpeechDraft1Carolyn_lessNoise_PlusLocalization,2021.2.3,59.95271049129969,
,,,,,,,,center,0.0,6,ch1Sound_localizationTask.wav,0.0,"(952, 878)","(-8,-202)",0,-338,,,,,,,,,,,,,1,2,9,3,,,,,,,,,,,,,,,,,,,,,,,,,,,,,,,,,,,,,,,,1700.7458389690146,None,,,1703.7617472200654,None,1.494179894179894,0.4489506039535627,1703.7617472200654,None,,,,,,,1701.7454664090183,None,1701.9286769410828,1701.9453503960976,25,001,2023_Feb_17_1504,SpeechDraft1Carolyn_lessNoise_PlusLocalization,2021.2.3,59.95271049129969,
,,,,,,,,farLeft,-19.1,5,ch1Sound_localizationTask.wav,-19.1,"(667, 878)","(-293,-202)",-285,-338,,,,,,,,,,,,,1,3,10,0,,,,,,,,,,,,,,,,,,,,,,,,,,,,,,,,,,,,,,,,1704.212047655019,None,,,1707.2283599940129,None,1.3264550264550263,0.7652376149781048,1707.2283599940129,None,,,,,,,1705.2121144930134,None,1705.3953938310733,1705.4120728540001,25,001,2023_Feb_17_1504,SpeechDraft1Carolyn_lessNoise_PlusLocalization,2021.2.3,59.95271049129969,
,,,,,,,,midRight,13.0,3,ch1Sound_localizationTask.wav,13.0,"(1142, 878)","(182, -202)",190,-338,,,,,,,,,,,,,1,4,11,5,,,,,,,,,,,,,,,,,,,,,,,,,,,,,,,,,,,,,,,,1707.9955654140795,None,,,1711.0118607750628,None,1.5984126984126985,0.7159584970213473,1711.0118607750628,None,,,,,,,1708.9951086820802,None,1709.1785449529998,1709.1951537380228,25,001,2023_Feb_17_1504,SpeechDraft1Carolyn_lessNoise_PlusLocalization,2021.2.3,59.95271049129969,
,,,,,,,,farRight,19.1,4,ch1Sound_localizationTask.wav,19.1,"(1237, 878)","(277,-202)",285,-338,,,,,,,,,,,,,1,5,12,6,,,,,,,,,,,,,,,,,,,,,,,,,,,,,,,,,,,,,,,,1711.7287821510108,None,,,1714.7449585350696,None,1.644973544973545,0.39963343797717243,1714.7449585350696,None,,,,,,,1712.7286681770347,None,1712.9118658310035,1712.928809443023,25,001,2023_Feb_17_1504,SpeechDraft1Carolyn_lessNoise_PlusLocalization,2021.2.3,59.95271049129969,
,,,,,,,,farRight,19.1,4,ch1Sound_localizationTask.wav,19.1,"(1237, 878)","(277,-202)",285,-338,,,,,,,,,,,,,1,6,13,6,,,,,,,,,,,,,,,,,,,,,,,,,,,,,,,,,,,,,,,,1715.1454390049912,None,,,1718.1617133490508,None,1.6280423280423282,0.13267323991749436,1718.1617133490508,None,,,,,,,1716.1453945800895,None,1716.3288376580458,1716.3455056410749,25,001,2023_Feb_17_1504,SpeechDraft1Carolyn_lessNoise_PlusLocalization,2021.2.3,59.95271049129969,
,,,,,,,,farLeft,-19.1,5,ch1Sound_localizationTask.wav,-19.1,"(667, 878)","(-293,-202)",-285,-338,,,,,,,,,,,,,2,0,14,0,,,,,,,,,,,,,,,,,,,,,,,,,,,,,,,,,,,,,,,,1718.2956777981017,None,,,1721.311606227071,None,1.331216931216931,0.7484766530105844,1721.311606227071,None,,,,,,,1719.2954730200581,None,1719.4785749260336,1719.495347380056,25,001,2023_Feb_17_1504,SpeechDraft1Carolyn_lessNoise_PlusLocalization,2021.2.3,59.95271049129969,
,,,,,,,,farRight,19.1,4,ch1Sound_localizationTask.wav,19.1,"(1237, 878)","(277,-202)",285,-338,,,,,,,,,,,,,2,1,15,6,,,,,,,,,,,,,,,,,,,,,,,,,,,,,,,,,,,,,,,,1722.0621368160937,None,,,1725.078416641103,None,1.6322751322751323,0.9174522520042956,1725.078416641103,None,,,,,,,1723.0618321460206,None,1723.2454775510123,1723.2618036050117,25,001,2023_Feb_17_1504,SpeechDraft1Carolyn_lessNoise_PlusLocalization,2021.2.3,59.95271049129969,
,,,,,,,,nearRight,6.5,0,ch1Sound_localizationTask.wav,6.5,"(1047, 878)","(87, -202)",95,-338,,,,,,,,,,,,,2,2,16,4,,,,,,,,,,,,,,,,,,,,,,,,,,,,,,,,,,,,,,,,1726.0120586100966,None,,,1729.0282405840699,None,1.5481481481481483,0.7817956430371851,1729.0282405840699,None,,,,,,,1727.0121432980523,None,1727.1955178950448,1727.2123424910242,25,001,2023_Feb_17_1504,SpeechDraft1Carolyn_lessNoise_PlusLocalization,2021.2.3,59.95271049129969,
,,,,,,,,center,0.0,6,ch1Sound_localizationTask.wav,0.0,"(952, 878)","(-8,-202)",0,-338,,,,,,,,,,,,,2,3,17,3,,,,,,,,,,,,,,,,,,,,,,,,,,,,,,,,,,,,,,,,1729.812207076,None,,,1732.8284000910353,None,1.5052910052910053,0.23202446207869798,1732.8284000910353,None,,,,,,,1730.8120551670436,None,1730.995387846022,1731.0119489440694,25,001,2023_Feb_17_1504,SpeechDraft1Carolyn_lessNoise_PlusLocalization,2021.2.3,59.95271049129969,
,,,,,,,,midRight,13.0,3,ch1Sound_localizationTask.wav,13.0,"(1142, 878)","(182, -202)",190,-338,,,,,,,,,,,,,2,4,18,5,,,,,,,,,,,,,,,,,,,,,,,,,,,,,,,,,,,,,,,,1733.062013882096,None,,,1736.0783018789953,None,1.591005291005291,0.3995984089560807,1736.0783018789953,None,,,,,,,1734.0620073040482,None,1734.2454254530603,1734.262093229103,25,001,2023_Feb_17_1504,SpeechDraft1Carolyn_lessNoise_PlusLocalization,2021.2.3,59.95271049129969,
,,,,,,,,center,0.0,6,ch1Sound_localizationTask.wav,0.0,"(952, 878)","(-8,-202)",0,-338,,,,,,,,,,,,,2,5,19,3,,,,,,,,,,,,,,,,,,,,,,,,,,,,,,,,,,,,,,,,1736.4792607510462,None,,,1739.4952180010732,None,1.4915343915343915,0.732333744992502,1739.4952180010732,None,,,,,,,1737.478751560091,None,1737.661943881074,1737.6787752270466,25,001,2023_Feb_17_1504,SpeechDraft1Carolyn_lessNoise_PlusLocalization,2021.2.3,59.95271049129969,
,,,,,,,,farLeft,-19.1,5,ch1Sound_localizationTask.wav,-19.1,"(667, 878)","(-293,-202)",-285,-338,,,,,,,,,,,,,2,6,20,0,,,,,,,,,,,,,,,,,,,,,,,,,,,,,,,,,,,,,,,,1740.2288492880762,None,,,1743.2449789710809,None,1.3544973544973544,0.7489850219571963,1743.2449789710809,None,,,,,,,1741.2286758560222,None,1741.4119096650975,1741.4287128130672,25,001,2023_Feb_17_1504,SpeechDraft1Carolyn_lessNoise_PlusLocalization,2021.2.3,59.95271049129969,
,,,,,,,,midLeft,-13.0,2,ch1Sound_localizationTask.wav,-13.0,"(762, 878)","(-198,-202)",-190,-338,,,,,,,,,,,,,3,0,21,1,,,,,,,,,,,,,,,,,,,,,,,,,,,,,,,,,,,,,,,,1743.9954061530298,None,,,1747.0117755919928,None,1.4142857142857141,0.3328029219992459,1747.0117755919928,None,,,,,,,1744.9952733929968,None,1745.1789219510974,1745.195459208102,25,001,2023_Feb_17_1504,SpeechDraft1Carolyn_lessNoise_PlusLocalization,2021.2.3,59.95271049129969,
,,,,,,,,midLeft,-13.0,2,ch1Sound_localizationTask.wav,-13.0,"(762, 878)","(-198,-202)",-190,-338,,,,,,,,,,,,,3,1,22,1,,,,,,,,,,,,,,,,,,,,,,,,,,,,,,,,,,,,,,,,1747.3453148209956,None,,,1750.3618375710212,None,1.4195767195767197,0.36650914105121046,1750.3618375710212,None,,,,,,,1748.3453764520818,None,1748.5285745830042,1748.5454156830674,25,001,2023_Feb_17_1504,SpeechDraft1Carolyn_lessNoise_PlusLocalization,2021.2.3,59.95271049129969,
,,,,,,,,midRight,13.0,3,ch1Sound_localizationTask.wav,13.0,"(1142, 878)","(182, -202)",190,-338,,,,,,,,,,,,,3,2,23,5,,,,,,,,,,,,,,,,,,,,,,,,,,,,,,,,,,,,,,,,1750.7289388950448,None,,,1753.745379738044,None,1.57989417989418,0.8170198550214991,1753.745379738044,None,,,,,,,1751.7287685400806,None,1751.9121623610845,1751.92850317806,25,001,2023_Feb_17_1504,SpeechDraft1Carolyn_lessNoise_PlusLocalization,2021.2.3,59.95271049129969,
,,,,,,,,center,0.0,6,ch1Sound_localizationTask.wav,0.0,"(952, 878)","(-8,-202)",0,-338,,,,,,,,,,,,,3,3,24,3,,,,,,,,,,,,,,,,,,,,,,,,,,,,,,,,,,,,,,,,1754.5625739390962,None,,,1757.5783933360362,None,1.4915343915343915,0.6492171760182828,1757.5783933360362,None,,,,,,,1755.5621708621038,None,1755.7455924120732,1755.761927403044,25,001,2023_Feb_17_1504,SpeechDraft1Carolyn_lessNoise_PlusLocalization,2021.2.3,59.95271049129969,
,,,,,,,,midRight,13.0,3,ch1Sound_localizationTask.wav,13.0,"(1142, 878)","(182, -202)",190,-338,,,,,,,,,,,,,3,4,25,5,,,,,,,,,,,,,,,,,,,,,,,,,,,,,,,,,,,,,,,,1758.228501665988,None,,,1761.2453332620207,None,1.6031746031746033,0.03217923699412495,1761.2453332620207,None,,,,,,,1759.228718591039,None,1759.4119739920134,1759.428739021998,25,001,2023_Feb_17_1504,SpeechDraft1Carolyn_lessNoise_PlusLocalization,2021.2.3,59.95271049129969,
,,,,,,,,nearRight,6.5,0,ch1Sound_localizationTask.wav,6.5,"(1047, 878)","(87, -202)",95,-338,,,,,,,,,,,,,3,5,26,4,,,,,,,,,,,,,,,,,,,,,,,,,,,,,,,,,,,,,,,,1761.278782788082,None,,,1764.295239431085,None,1.5455026455026455,0.3324607879621908,1764.295239431085,None,,,,,,,1762.2788491330575,None,1762.4619615200209,1762.4786325630266,25,001,2023_Feb_17_1504,SpeechDraft1Carolyn_lessNoise_PlusLocalization,2021.2.3,59.95271049129969,
,,,,,,,,center,0.0,6,ch1Sound_localizationTask.wav,0.0,"(952, 878)","(-8,-202)",0,-338,,,,,,,,,,,,,3,6,27,3,,,,,,,,,,,,,,,,,,,,,,,,,,,,,,,,,,,,,,,,1764.6286446769955,None,,,1767.6451659330633,None,1.5026455026455028,0.7999097110005096,1767.6451659330633,None,,,,,,,1765.6289530080976,None,1765.8119830579963,1765.8288777620764,25,001,2023_Feb_17_1504,SpeechDraft1Carolyn_lessNoise_PlusLocalization,2021.2.3,59.95271049129969,
,,,,,,,,midLeft,-13.0,2,ch1Sound_localizationTask.wav,-13.0,"(762, 878)","(-198,-202)",-190,-338,,,,,,,,,,,,,4,0,28,1,,,,,,,,,,,,,,,,,,,,,,,,,,,,,,,,,,,,,,,,1768.44563650107,None,,,1771.4619572770316,None,1.4179894179894181,0.7325428810436279,1771.4619572770316,None,,,,,,,1769.44529525307,None,1769.6287208430003,1769.6455535200657,25,001,2023_Feb_17_1504,SpeechDraft1Carolyn_lessNoise_PlusLocalization,2021.2.3,59.95271049129969,
,,,,,,,,nearRight,6.5,0,ch1Sound_localizationTask.wav,6.5,"(1047, 878)","(87, -202)",95,-338,,,,,,,,,,,,,4,1,29,4,,,,,,,,,,,,,,,,,,,,,,,,,,,,,,,,,,,,,,,,1772.1954768580617,None,,,1775.2118785730563,None,1.5391534391534392,0.5499045950127766,1775.2118785730563,None,,,,,,,1773.195470530074,None,1773.3786469440674,1773.3955324760173,25,001,2023_Feb_17_1504,SpeechDraft1Carolyn_lessNoise_PlusLocalization,2021.2.3,59.95271049129969,
,,,,,,,,nearLeft,-6.5,1,ch1Sound_localizationTask.wav,-6.5,"(857, 878)","(-103,-202)",-95,-338,,,,,,,,,,,,,4,2,30,2,,,,,,,,,,,,,,,,,,,,,,,,,,,,,,,,,,,,,,,,1775.7624374560546,None,,,1778.7785644480027,None,1.426984126984127,0.5502310690935701,1778.7785644480027,None,,,,,,,1776.761976745096,None,1776.9453646420734,1776.9619832960889,25,001,2023_Feb_17_1504,SpeechDraft1Carolyn_lessNoise_PlusLocalization,2021.2.3,59.95271049129969,
,,,,,,,,center,0.0,6,ch1Sound_localizationTask.wav,0.0,"(952, 878)","(-8,-202)",0,-338,,,,,,,,,,,,,4,3,31,3,,,,,,,,,,,,,,,,,,,,,,,,,,,,,,,,,,,,,,,,1779.3291443029884,None,,,1782.3452604709892,None,1.5047619047619047,0.5492423509713262,1782.3452604709892,None,,,,,,,1780.328741789097,None,1780.5121490140446,1780.5285930980463,25,001,2023_Feb_17_1504,SpeechDraft1Carolyn_lessNoise_PlusLocalization,2021.2.3,59.95271049129969,
,,,,,,,,farRight,19.1,4,ch1Sound_localizationTask.wav,19.1,"(1237, 878)","(277,-202)",285,-338,,,,,,,,,,,,,4,4,32,6,,,,,,,,,,,,,,,,,,,,,,,,,,,,,,,,,,,,,,,,1782.895607309998,None,,,1785.911879805033,None,1.651851851851852,0.4168167100287974,1785.911879805033,None,,,,,,,1783.8952693750616,None,1784.0787615330191,1784.095436501084,25,001,2023_Feb_17_1504,SpeechDraft1Carolyn_lessNoise_PlusLocalization,2021.2.3,59.95271049129969,
,,,,,,,,midLeft,-13.0,2,ch1Sound_localizationTask.wav,-13.0,"(762, 878)","(-198,-202)",-190,-338,,,,,,,,,,,,,4,5,33,1,,,,,,,,,,,,,,,,,,,,,,,,,,,,,,,,,,,,,,,,1786.3293117790017,None,,,1789.3452774400357,None,1.3772486772486774,0.6996758040040731,1789.3452774400357,None,,,,,,,1787.3287259390345,None,1787.5121383590158,1787.5286378740566,25,001,2023_Feb_17_1504,SpeechDraft1Carolyn_lessNoise_PlusLocalization,2021.2.3,59.95271049129969,
,,,,,,,,nearRight,6.5,0,ch1Sound_localizationTask.wav,6.5,"(1047, 878)","(87, -202)",95,-338,,,,,,,,,,,,,4,6,34,4,,,,,,,,,,,,,,,,,,,,,,,,,,,,,,,,,,,,,,,,1790.0456323110266,None,,,1793.0618611800019,None,1.546031746031746,0.5970217839349061,1793.0618611800019,None,,,,,,,1791.045468110009,None,1791.228677970008,1791.2453699980397,25,001,2023_Feb_17_1504,SpeechDraft1Carolyn_lessNoise_PlusLocalization,2021.2.3,59.95271049129969,
,,,,,,,,midRight,13.0,3,ch1Sound_localizationTask.wav,13.0,"(1142, 878)","(182, -202)",190,-338,,,,,,,,,,,,,5,0,35,5,,,,,,,,,,,,,,,,,,,,,,,,,,,,,,,,,,,,,,,,1793.6621727370657,None,,,1796.6787670790218,None,1.5973544973544973,0.34932690602727234,1796.6787670790218,None,,,,,,,1794.6619589050533,None,1794.8452536270488,1794.8619227060117,25,001,2023_Feb_17_1504,SpeechDraft1Carolyn_lessNoise_PlusLocalization,2021.2.3,59.95271049129969,
,,,,,,,,farLeft,-19.1,5,ch1Sound_localizationTask.wav,-19.1,"(667, 878)","(-293,-202)",-285,-338,,,,,,,,,,,,,5,1,36,0,,,,,,,,,,,,,,,,,,,,,,,,,,,,,,,,,,,,,,,,1797.0291519830935,None,,,1800.045134340995,None,1.3052910052910054,0.598542872001417,1800.045134340995,None,,,,,,,1798.028713939013,None,1798.2120311290491,1798.228768356028,25,001,2023_Feb_17_1504,SpeechDraft1Carolyn_lessNoise_PlusLocalization,2021.2.3,59.95271049129969,
,,,,,,,,midLeft,-13.0,2,ch1Sound_localizationTask.wav,-13.0,"(762, 878)","(-198,-202)",-190,-338,,,,,,,,,,,,,5,2,37,1,,,,,,,,,,,,,,,,,,,,,,,,,,,,,,,,,,,,,,,,1800.645864371094,None,,,1803.6617307270644,None,1.3835978835978837,0.6985127079533413,1803.6617307270644,None,,,,,,,1801.6454056240618,None,1801.82865602104,1801.8454839490587,25,001,2023_Feb_17_1504,SpeechDraft1Carolyn_lessNoise_PlusLocalization,2021.2.3,59.95271049129969,
,,,,,,,,farRight,19.1,4,ch1Sound_localizationTask.wav,19.1,"(1237, 878)","(277,-202)",285,-338,,,,,,,,,,,,,5,3,38,6,,,,,,,,,,,,,,,,,,,,,,,,,,,,,,,,,,,,,,,,1804.3627679490019,None,,,1807.3785678390414,None,1.6465608465608466,0.7006987790809944,1807.3785678390414,None,,,,,,,1805.3619357630378,None,1805.5454570110887,1805.562161423033,25,001,2023_Feb_17_1504,SpeechDraft1Carolyn_lessNoise_PlusLocalization,2021.2.3,59.95271049129969,
,,,,,,,,midLeft,-13.0,2,ch1Sound_localizationTask.wav,-13.0,"(762, 878)","(-198,-202)",-190,-338,,,,,,,,,,,,,5,4,39,1,,,,,,,,,,,,,,,,,,,,,,,,,,,,,,,,,,,,,,,,1808.0957914130995,None,,,1811.1118188680848,None,1.3957671957671958,0.6493453260045499,1811.1118188680848,None,,,,,,,1809.095522121992,None,1809.2786717960844,1809.2954374860274,25,001,2023_Feb_17_1504,SpeechDraft1Carolyn_lessNoise_PlusLocalization,2021.2.3,59.95271049129969,
,,,,,,,,farLeft,-19.1,5,ch1Sound_localizationTask.wav,-19.1,"(667, 878)","(-293,-202)",-285,-338,,,,,,,,,,,,,5,5,40,0,,,,,,,,,,,,,,,,,,,,,,,,,,,,,,,,,,,,,,,,1811.762353320024,None,,,1814.7786238810513,None,1.3502645502645503,0.6336798509582877,1814.7786238810513,None,,,,,,,1812.762241714052,None,1812.9454044640297,1812.9622799010249,25,001,2023_Feb_17_1504,SpeechDraft1Carolyn_lessNoise_PlusLocalization,2021.2.3,59.95271049129969,
,,,,,,,,nearLeft,-6.5,1,ch1Sound_localizationTask.wav,-6.5,"(857, 878)","(-103,-202)",-95,-338,,,,,,,,,,,,,5,6,41,2,,,,,,,,,,,,,,,,,,,,,,,,,,,,,,,,,,,,,,,,1815.4133837980917,None,,,1818.4452259110985,None,1.4444444444444444,0.5993803730234504,1818.4452259110985,None,,,,,,,1816.4288110230118,None,1816.6121941590682,1816.629021726083,25,001,2023_Feb_17_1504,SpeechDraft1Carolyn_lessNoise_PlusLocalization,2021.2.3,59.95271049129969,
,,,,,,,,midLeft,-13.0,2,ch1Sound_localizationTask.wav,-13.0,"(762, 878)","(-198,-202)",-190,-338,,,,,,,,,,,,,6,0,42,1,,,,,,,,,,,,,,,,,,,,,,,,,,,,,,,,,,,,,,,,1819.0456940400181,None,,,1822.0618761810474,None,1.4095238095238094,0.35007283510640264,1822.0618761810474,None,,,,,,,1820.0454988180427,None,1820.2288212800631,1820.245489693014,25,001,2023_Feb_17_1504,SpeechDraft1Carolyn_lessNoise_PlusLocalization,2021.2.3,59.95271049129969,
,,,,,,,,midRight,13.0,3,ch1Sound_localizationTask.wav,13.0,"(1142, 878)","(182, -202)",190,-338,,,,,,,,,,,,,6,1,43,5,,,,,,,,,,,,,,,,,,,,,,,,,,,,,,,,,,,,,,,,1822.4127449099906,None,,,1825.4285931980703,None,1.5666666666666667,0.6489740990800783,1825.4285931980703,None,,,,,,,1823.4121801250149,None,1823.595526907011,1823.6121634020237,25,001,2023_Feb_17_1504,SpeechDraft1Carolyn_lessNoise_PlusLocalization,2021.2.3,59.95271049129969,
,,,,,,,,center,0.0,6,ch1Sound_localizationTask.wav,0.0,"(952, 878)","(-8,-202)",0,-338,,,,,,,,,,,,,6,2,44,3,,,,,,,,,,,,,,,,,,,,,,,,,,,,,,,,,,,,,,,,1826.0790797220543,None,,,1829.0953826670302,None,1.5052910052910053,0.6000789200188592,1829.0953826670302,None,,,,,,,1827.0790025590686,None,1827.2620196870994,1827.2788649720605,25,001,2023_Feb_17_1504,SpeechDraft1Carolyn_lessNoise_PlusLocalization,2021.2.3,59.95271049129969,
,,,,,,,,nearLeft,-6.5,1,ch1Sound_localizationTask.wav,-6.5,"(857, 878)","(-103,-202)",-95,-338,,,,,,,,,,,,,6,3,45,2,,,,,,,,,,,,,,,,,,,,,,,,,,,,,,,,,,,,,,,,1829.6957873890642,None,,,1832.7118719400605,None,1.444973544973545,0.5336313539883122,1832.7118719400605,None,,,,,,,1830.6955475300783,None,1830.8787370889913,1830.895599328098,25,001,2023_Feb_17_1504,SpeechDraft1Carolyn_lessNoise_PlusLocalization,2021.2.3,59.95271049129969,
,,,,,,,,nearRight,6.5,0,ch1Sound_localizationTask.wav,6.5,"(1047, 878)","(87, -202)",95,-338,,,,,,,,,,,,,6,4,46,4,,,,,,,,,,,,,,,,,,,,,,,,,,,,,,,,,,,,,,,,1833.2622595330467,None,,,1836.2785701700486,None,1.5211640211640212,0.6825348359998316,1836.2785701700486,None,,,,,,,1834.2622467960464,None,1834.4454663220095,1834.4623196840985,25,001,2023_Feb_17_1504,SpeechDraft1Carolyn_lessNoise_PlusLocalization,2021.2.3,59.95271049129969,
,,,,,,,,farLeft,-19.1,5,ch1Sound_localizationTask.wav,-19.1,"(667, 878)","(-293,-202)",-285,-338,,,,,,,,,,,,,6,5,47,0,,,,,,,,,,,,,,,,,,,,,,,,,,,,,,,,,,,,,,,,1836.9624010430416,None,,,1839.978406954091,None,1.3534391534391534,0.7658670219825581,1839.978406954091,None,,,,,,,1837.9622940480476,None,1838.1455814520596,1838.1620654190192,25,001,2023_Feb_17_1504,SpeechDraft1Carolyn_lessNoise_PlusLocalization,2021.2.3,59.95271049129969,
,,,,,,,,nearLeft,-6.5,1,ch1Sound_localizationTask.wav,-6.5,"(857, 878)","(-103,-202)",-95,-338,,,,,,,,,,,,,6,6,48,2,,,,,,,,,,,,,,,,,,,,,,,,,,,,,,,,,,,,,,,,1840.7453719290206,None,,,1843.7619939030847,None,1.4518518518518517,0.648478553048335,1843.7619939030847,None,,,,,,,1841.745781354024,None,1841.9290611050092,1841.9455346850445,25,001,2023_Feb_17_1504,SpeechDraft1Carolyn_lessNoise_PlusLocalization,2021.2.3,59.95271049129969,
,,,,,,,,nearLeft,-6.5,1,ch1Sound_localizationTask.wav,-6.5,"(857, 878)","(-103,-202)",-95,-338,,,,,,,,,,,,,7,0,49,2,,,,,,,,,,,,,,,,,,,,,,,,,,,,,,,,,,,,,,,,1844.4121618220815,None,,,1847.4286135979928,None,1.4507936507936507,0.2824445440201089,1847.4286135979928,None,,,,,,,1845.4121985370293,None,1845.5956097480375,1845.612262108014,25,001,2023_Feb_17_1504,SpeechDraft1Carolyn_lessNoise_PlusLocalization,2021.2.3,59.95271049129969,
,,,,,,,,nearLeft,-6.5,1,ch1Sound_localizationTask.wav,-6.5,"(857, 878)","(-103,-202)",-95,-338,,,,,,,,,,,,,7,1,50,2,,,,,,,,,,,,,,,,,,,,,,,,,,,,,,,,,,,,,,,,1847.7124282560544,None,,,1850.7287899380317,None,1.4576719576719577,0.599262582953088,1850.7287899380317,None,,,,,,,1848.712284822017,None,1848.8955485740444,1848.9120434710057,25,001,2023_Feb_17_1504,SpeechDraft1Carolyn_lessNoise_PlusLocalization,2021.2.3,59.95271049129969,
,,,,,,,,nearRight,6.5,0,ch1Sound_localizationTask.wav,6.5,"(1047, 878)","(87, -202)",95,-338,,,,,,,,,,,,,7,2,51,4,,,,,,,,,,,,,,,,,,,,,,,,,,,,,,,,,,,,,,,,1851.3289968820754,None,,,1854.3454246210167,None,1.560846560846561,0.7655463949777186,1854.3454246210167,None,,,,,,,1852.3287994940765,None,1852.512224395061,1852.5288455780828,25,001,2023_Feb_17_1504,SpeechDraft1Carolyn_lessNoise_PlusLocalization,2021.2.3,59.95271049129969,
,,,,,,,,farLeft,-19.1,5,ch1Sound_localizationTask.wav,-19.1,"(667, 878)","(-293,-202)",-285,-338,,,,,,,,,,,,,7,3,52,0,,,,,,,,,,,,,,,,,,,,,,,,,,,,,,,,,,,,,,,,1855.112214749097,None,,,1858.128697674023,None,1.3613756613756614,0.3829004750587046,1858.128697674023,None,,,,,,,1856.1120330990525,None,1856.2956825180445,1856.3120454180753,25,001,2023_Feb_17_1504,SpeechDraft1Carolyn_lessNoise_PlusLocalization,2021.2.3,59.95271049129969,
,,,,,,,,nearRight,6.5,0,ch1Sound_localizationTask.wav,6.5,"(1047, 878)","(87, -202)",95,-338,,,,,,,,,,,,,7,4,53,4,,,,,,,,,,,,,,,,,,,,,,,,,,,,,,,,,,,,,,,,1858.5123499979964,None,,,1861.5288524860516,None,1.5269841269841269,0.7484101098962128,1861.5288524860516,None,,,,,,,1859.5121768510435,None,1859.6953978540841,1859.7122621290619,25,001,2023_Feb_17_1504,SpeechDraft1Carolyn_lessNoise_PlusLocalization,2021.2.3,59.95271049129969,
,,,,,,,,farRight,19.1,4,ch1Sound_localizationTask.wav,19.1,"(1237, 878)","(277,-202)",285,-338,,,,,,,,,,,,,7,5,54,6,,,,,,,,,,,,,,,,,,,,,,,,,,,,,,,,,,,,,,,,1862.2787728999974,None,,,1865.2954531690339,None,1.6608465608465608,0.39947648206725717,1865.2954531690339,None,,,,,,,1863.2789274640381,None,1863.4622753250878,1863.478845153004,25,001,2023_Feb_17_1504,SpeechDraft1Carolyn_lessNoise_PlusLocalization,2021.2.3,59.95271049129969,
,,,,,,,,midRight,13.0,3,ch1Sound_localizationTask.wav,13.0,"(1142, 878)","(182, -202)",190,-338,,,,,,,,,,,,,7,6,55,5,,,,,,,,,,,,,,,,,,,,,,,,,,,,,,,,,,,,,,,,1865.6962607580936,None,,,1868.7284772020066,None,1.583068783068783,0.6665297499857843,1868.7284772020066,None,,,,,,,1866.7123677131021,None,1866.8954521759879,1866.912366493023,25,001,2023_Feb_17_1504,SpeechDraft1Carolyn_lessNoise_PlusLocalization,2021.2.3,59.95271049129969,
