Audio_Only_Files,Video_Files,Original_Word_List,noiseLevelCode,conditionCodes,noiseLevelFile1,noiseLevelFile2,InstrTextVar,practiceTrials.thisRepN,practiceTrials.thisTrialN,practiceTrials.thisN,practiceTrials.thisIndex,trials.thisRepN,trials.thisTrialN,trials.thisN,trials.thisIndex,letsGoAlready.keys,letsGoAlready.rt,letsGoAlready.started,letsGoAlready.stopped,text_2.started,text_2.stopped,text_3.started,text_3.stopped,key_resp_2.keys,key_resp_2.rt,key_resp_2.started,key_resp_2.stopped,text_5.started,text_5.stopped,fixCross.started,fixCross.stopped,fixCross2.started,fixCross2.stopped,answerPrompt.started,answerPrompt.stopped,getAnswer.text,getAnswer.started,getAnswer.stopped,goToNext.keys,goToNext.rt,goToNext.started,goToNext.stopped,stretchBreakTxrt.started,stretchBreakTxrt.stopped,key_resp_3.keys,key_resp_3.rt,key_resp_3.started,key_resp_3.stopped,participant,session,date,expName,psychopyVersion,frameRate,
,,,,,,,,,,,,,,,,space,4.603455447941087,45.01238487404771,None,,,,,,,,,,,,,,,,,,,,,,,,,,,,,,26,001,2023_Feb_17_1841,SpeechDraft1Carolyn_lessNoise_PlusLocalization,2021.2.3,60.02355674914134,
,,,,,,,,,,,,,,,,,,,,45.01238487404771,None,49.64855428703595,None,space,12.155571331037208,49.812293283990584,None,,,,,,,,,,,,,,,,,,,,,,26,001,2023_Feb_17_1841,SpeechDraft1Carolyn_lessNoise_PlusLocalization,2021.2.3,60.02355674914134,
ash.wav,ash.mpg,ash,1,A,Pink_Noise_1_1.wav,Pink_Noise_1_2.wav,"This is an example of an

AUDIO trial",0,0,0,0,,,,,,,,,,,,,,,,,62.012664017034695,None,63.0120155090699,None,66.14550397999119,None,67.52902930707205,None,ash,67.52902930707205,None,return,2.059898882987909,67.61188739701174,None,,,,,,,26,001,2023_Feb_17_1841,SpeechDraft1Carolyn_lessNoise_PlusLocalization,2021.2.3,60.02355674914134,
ash.wav,ash.mpg,ash,1,AV,Pink_Noise_1_1.wav,Pink_Noise_1_2.wav,"This is an example of an

AUDIO + VIDEO  trial",0,1,1,1,,,,,,,,,,,,,,,,,69.7118038199842,None,70.7120028299978,None,72.19546425808221,None,73.57868009607773,None,ash,73.57868009607773,None,return,1.4658909749705344,73.6619746980723,None,,,,,,,26,001,2023_Feb_17_1841,SpeechDraft1Carolyn_lessNoise_PlusLocalization,2021.2.3,60.02355674914134,
,,,,,,,,,,,,,,,,,,,,,,,,,,,,,,,,,,,,,,,,,,,75.16171254008077,None,space,22.95830121601466,75.34548518201336,None,26,001,2023_Feb_17_1841,SpeechDraft1Carolyn_lessNoise_PlusLocalization,2021.2.3,60.02355674914134,
aunt.wav,aunt.mpg,aunt,3,AV,Pink_Noise_3_1.wav,Pink_Noise_3_2.wav,,,,,,0,0,0,83,,,,,,,,,,,,,,,98.36183398100547,None,99.82856042298954,None,101.212184590986,None,ant,101.212184590986,None,return,2.8404942579800263,101.29543305397965,None,,,,,,,26,001,2023_Feb_17_1841,SpeechDraft1Carolyn_lessNoise_PlusLocalization,2021.2.3,60.02355674914134,
dress.wav,dress.mpg,dress,5,A,Pink_Noise_5_1.wav,Pink_Noise_5_2.wav,,,,,,0,1,1,34,,,,,,,,,,,,,,,104.16225173603743,None,105.64514431799762,None,107.0288726920262,None,dress,107.0288726920262,None,return,3.8396185549208894,107.1122927730903,None,,,,,,,26,001,2023_Feb_17_1841,SpeechDraft1Carolyn_lessNoise_PlusLocalization,2021.2.3,60.02355674914134,
dusk.wav,dusk.mpg,dusk,2,AV,Pink_Noise_2_1.wav,Pink_Noise_2_2.wav,,,,,,0,2,2,64,,,,,,,,,,,,,,,110.97887028905097,None,112.46219325205311,None,113.84544019307941,None,dusk,113.84544019307941,None,return,1.823215966927819,113.92866811703425,None,,,,,,,26,001,2023_Feb_17_1841,SpeechDraft1Carolyn_lessNoise_PlusLocalization,2021.2.3,60.02355674914134,
mass.wav,mass.mpg,mass,3,AV,Pink_Noise_3_1.wav,Pink_Noise_3_2.wav,,,,,,0,3,3,79,,,,,,,,,,,,,,,115.77878452604637,None,117.26245884608943,None,118.64524209406227,None,"mask
",118.64524209406227,None,return,2.102916197036393,118.72888358507771,None,,,,,,,26,001,2023_Feb_17_1841,SpeechDraft1Carolyn_lessNoise_PlusLocalization,2021.2.3,60.02355674914134,
brown.wav,brown.mpg,brown,4,A,Pink_Noise_4_1.wav,Pink_Noise_4_2.wav,,,,,,0,4,4,32,,,,,,,,,,,,,,,120.86199033400044,None,122.34570970607456,None,123.72869920509402,None,"browm
",123.72869920509402,None,return,1.083781436085701,123.81202782702167,None,,,,,,,26,001,2023_Feb_17_1841,SpeechDraft1Carolyn_lessNoise_PlusLocalization,2021.2.3,60.02355674914134,
grow.wav,grow.mpg,grow,2,A,Pink_Noise_2_1.wav,Pink_Noise_2_2.wav,,,,,,0,5,5,0,,,,,,,,,,,,,,,124.92865518608596,None,126.41357670899015,None,127.79546606808435,None,grow,127.79546606808435,None,return,3.0490447100019082,127.87881034903694,None,,,,,,,26,001,2023_Feb_17_1841,SpeechDraft1Carolyn_lessNoise_PlusLocalization,2021.2.3,60.02355674914134,
fowl.wav,fowl.mpg,fowl,3,AV,Pink_Noise_3_1.wav,Pink_Noise_3_2.wav,,,,,,0,6,6,85,,,,,,,,,,,,,,,130.94537121406756,None,132.4453149479814,None,133.81209580798168,None,foul ,133.81209580798168,None,return,4.504443834070116,133.89534587902017,None,,,,,,,26,001,2023_Feb_17_1841,SpeechDraft1Carolyn_lessNoise_PlusLocalization,2021.2.3,60.02355674914134,
cramp.wav,cramp.mpg,cramp,1,AV,Pink_Noise_1_1.wav,Pink_Noise_1_2.wav,,,,,,0,7,7,101,,,,,,,,,,,,,,,138.42895316006616,None,139.91203516104724,None,141.2954627480358,None,cramp,141.2954627480358,None,return,9.508798467926681,141.37898943107575,None,,,,,,,26,001,2023_Feb_17_1841,SpeechDraft1Carolyn_lessNoise_PlusLocalization,2021.2.3,60.02355674914134,
faint.wav,faint.mpg,faint,4,AV,Pink_Noise_4_1.wav,Pink_Noise_4_2.wav,,,,,,0,8,8,82,,,,,,,,,,,,,,,150.91222829301842,None,152.39536565705203,None,153.77888873708434,None,fate,153.77888873708434,None,return,3.0896567850140855,153.86227214103565,None,,,,,,,26,001,2023_Feb_17_1841,SpeechDraft1Carolyn_lessNoise_PlusLocalization,2021.2.3,60.02355674914134,
dive.wav,dive.mpg,dive,2,A,Pink_Noise_2_1.wav,Pink_Noise_2_2.wav,,,,,,0,9,9,8,,,,,,,,,,,,,,,156.97872340399772,None,158.46212757006288,None,159.84561183606274,None,dive,159.84561183606274,None,return,2.511107867001556,159.9287020090269,None,,,,,,,26,001,2023_Feb_17_1841,SpeechDraft1Carolyn_lessNoise_PlusLocalization,2021.2.3,60.02355674914134,
cough.wav,cough.mpg,cough,2,AV,Pink_Noise_2_1.wav,Pink_Noise_2_2.wav,,,,,,0,10,10,67,,,,,,,,,,,,,,,162.46225059498101,None,163.96202954498585,None,165.32886379002593,None,cough,165.32886379002593,None,return,4.411579166888259,165.41222321707755,None,,,,,,,26,001,2023_Feb_17_1841,SpeechDraft1Carolyn_lessNoise_PlusLocalization,2021.2.3,60.02355674914134,
dark.wav,dark.mpg,dark,5,AV,Pink_Noise_5_1.wav,Pink_Noise_5_2.wav,,,,,,0,11,11,88,,,,,,,,,,,,,,,169.84551705198828,None,171.32870963402092,None,172.71214021602646,None,"dark
",172.71214021602646,None,return,1.2363979590591043,172.7954060410848,None,,,,,,,26,001,2023_Feb_17_1841,SpeechDraft1Carolyn_lessNoise_PlusLocalization,2021.2.3,60.02355674914134,
quest.wav,quest.mpg,quest,2,AV,Pink_Noise_2_1.wav,Pink_Noise_2_2.wav,,,,,,0,12,12,74,,,,,,,,,,,,,,,174.06221760099288,None,175.54552370205056,None,176.9288319310872,None,"quest
",176.9288319310872,None,return,0.8837535169441253,177.012027814053,None,,,,,,,26,001,2023_Feb_17_1841,SpeechDraft1Carolyn_lessNoise_PlusLocalization,2021.2.3,60.02355674914134,
ask.wav,ask.mpg,ask,2,AV,Pink_Noise_2_1.wav,Pink_Noise_2_2.wav,,,,,,0,13,13,102,,,,,,,,,,,,,,,177.92893731803633,None,179.4287186600268,None,180.79550852708053,None,ask,180.79550852708053,None,return,0.8649754289072007,180.87893539702054,None,,,,,,,26,001,2023_Feb_17_1841,SpeechDraft1Carolyn_lessNoise_PlusLocalization,2021.2.3,60.02355674914134,
tool.wav,tool.mpg,tool,3,A,Pink_Noise_3_1.wav,Pink_Noise_3_2.wav,,,,,,0,14,14,1,,,,,,,,,,,,,,,181.76207475399133,None,183.24560021201614,None,184.62890186009463,None,tool,184.62890186009463,None,return,2.2715266530867666,184.7123480050359,None,,,,,,,26,001,2023_Feb_17_1841,SpeechDraft1Carolyn_lessNoise_PlusLocalization,2021.2.3,60.02355674914134,
roar.wav,roar.mpg,roar,4,A,Pink_Noise_4_1.wav,Pink_Noise_4_2.wav,,,,,,0,15,15,52,,,,,,,,,,,,,,,187.01230140402913,None,188.4954322470585,None,189.87893230398186,None,drawer,189.87893230398186,None,return,2.7574659240199253,189.96237345505506,None,,,,,,,26,001,2023_Feb_17_1841,SpeechDraft1Carolyn_lessNoise_PlusLocalization,2021.2.3,60.02355674914134,
fed.wav,fed.mpg,fed,2,A,Pink_Noise_2_1.wav,Pink_Noise_2_2.wav,,,,,,0,16,16,16,,,,,,,,,,,,,,,192.7456403420074,None,194.2287576070521,None,195.61214123503305,None,bed,195.61214123503305,None,return,0.8163060039514676,195.6955626400886,None,,,,,,,26,001,2023_Feb_17_1841,SpeechDraft1Carolyn_lessNoise_PlusLocalization,2021.2.3,60.02355674914134,
cream.wav,cream.mpg,cream,5,A,Pink_Noise_5_1.wav,Pink_Noise_5_2.wav,,,,,,0,17,17,18,,,,,,,,,,,,,,,196.52902386302594,None,198.02873981103767,None,199.41228769300506,None,cleann,199.41228769300506,None,return,8.72816757694818,199.49563075508922,None,,,,,,,26,001,2023_Feb_17_1841,SpeechDraft1Carolyn_lessNoise_PlusLocalization,2021.2.3,60.02355674914134,
code.wav,code.mpg,code,6,AV,Pink_Noise_6_1.wav,Pink_Noise_6_2.wav,,,,,,0,18,18,60,,,,,,,,,,,,,,,208.24570500198752,None,209.7286785210017,None,211.1120405900292,None,"go
",211.1120405900292,None,return,0.8521268379408866,211.19570185698103,None,,,,,,,26,001,2023_Feb_17_1841,SpeechDraft1Carolyn_lessNoise_PlusLocalization,2021.2.3,60.02355674914134,
curb.wav,curb.mpg,curb,4,A,Pink_Noise_4_1.wav,Pink_Noise_4_2.wav,,,,,,0,19,19,48,,,,,,,,,,,,,,,212.07886192505248,None,213.5622501790058,None,214.94549741700757,None,curve,214.94549741700757,None,return,3.30702473805286,215.02889726008289,None,,,,,,,26,001,2023_Feb_17_1841,SpeechDraft1Carolyn_lessNoise_PlusLocalization,2021.2.3,60.02355674914134,
freeze.wav,freeze.mpg,freeze,5,AV,Pink_Noise_5_1.wav,Pink_Noise_5_2.wav,,,,,,0,20,20,65,,,,,,,,,,,,,,,218.36229186400305,None,219.8453279749956,None,221.22874010098167,None,fate,221.22874010098167,None,return,2.871430021012202,221.31236897606868,None,,,,,,,26,001,2023_Feb_17_1841,SpeechDraft1Carolyn_lessNoise_PlusLocalization,2021.2.3,60.02355674914134,
cold.wav,cold.mpg,cold,6,A,Pink_Noise_6_1.wav,Pink_Noise_6_2.wav,,,,,,0,21,21,49,,,,,,,,,,,,,,,224.21230579703115,None,225.6953596320236,None,227.07891660102177,None,,227.07891660102177,None,return,4.005595028982498,227.16232293308713,None,,,,,,,26,001,2023_Feb_17_1841,SpeechDraft1Carolyn_lessNoise_PlusLocalization,2021.2.3,60.02355674914134,
ham.wav,ham.mpg,ham,3,A,Pink_Noise_3_1.wav,Pink_Noise_3_2.wav,,,,,,0,22,22,12,,,,,,,,,,,,,,,231.1957226350205,None,232.68005862203427,None,234.06223924306687,None,ham,234.06223924306687,None,return,0.8143391400808468,234.14548233908135,None,,,,,,,26,001,2023_Feb_17_1841,SpeechDraft1Carolyn_lessNoise_PlusLocalization,2021.2.3,60.02355674914134,
choke.wav,choke.mpg,choke,5,A,Pink_Noise_5_1.wav,Pink_Noise_5_2.wav,,,,,,0,23,23,42,,,,,,,,,,,,,,,234.97905040101614,None,236.4618108900031,None,237.8456980800256,None,shark,237.8456980800256,None,return,3.863114870036952,237.92876616702415,None,,,,,,,26,001,2023_Feb_17_1841,SpeechDraft1Carolyn_lessNoise_PlusLocalization,2021.2.3,60.02355674914134,
thief.wav,thief.mpg,thief,4,AV,Pink_Noise_4_1.wav,Pink_Noise_4_2.wav,,,,,,0,24,24,110,,,,,,,,,,,,,,,241.81243388401344,None,243.29551709408406,None,244.67882497608662,None,"theif
",244.67882497608662,None,return,6.517650631023571,244.76214856805746,None,,,,,,,26,001,2023_Feb_17_1841,SpeechDraft1Carolyn_lessNoise_PlusLocalization,2021.2.3,60.02355674914134,
fall.wav,fall.mpg,fall,3,AV,Pink_Noise_3_1.wav,Pink_Noise_3_2.wav,,,,,,0,25,25,111,,,,,,,,,,,,,,,251.3121627420187,None,252.79540584806819,None,254.17908453405835,None,fall,254.17908453405835,None,return,0.929452411015518,254.26238622609526,None,,,,,,,26,001,2023_Feb_17_1841,SpeechDraft1Carolyn_lessNoise_PlusLocalization,2021.2.3,60.02355674914134,
den.wav,den.mpg,den,3,AV,Pink_Noise_3_1.wav,Pink_Noise_3_2.wav,,,,,,0,26,26,66,,,,,,,,,,,,,,,255.22859012603294,None,256.7139639930101,None,258.0971484570764,None,dead,258.0971484570764,None,return,2.8928278669482097,258.1789519750746,None,,,,,,,26,001,2023_Feb_17_1841,SpeechDraft1Carolyn_lessNoise_PlusLocalization,2021.2.3,60.02355674914134,
fist.wav,fist.mpg,fist,1,A,Pink_Noise_1_1.wav,Pink_Noise_1_2.wav,,,,,,0,27,27,54,,,,,,,,,,,,,,,261.0956084460486,None,262.5788912490243,None,263.9623519030865,None,fist,263.9623519030865,None,return,1.498360384022817,264.04557177901734,None,,,,,,,26,001,2023_Feb_17_1841,SpeechDraft1Carolyn_lessNoise_PlusLocalization,2021.2.3,60.02355674914134,
brag.wav,brag.mpg,brag,2,AV,Pink_Noise_2_1.wav,Pink_Noise_2_2.wav,,,,,,0,28,28,98,,,,,,,,,,,,,,,265.5624490020564,None,267.04557410907,None,268.42897423007526,None,brag,268.42897423007526,None,return,0.9593397340504453,268.51246514508966,None,,,,,,,26,001,2023_Feb_17_1841,SpeechDraft1Carolyn_lessNoise_PlusLocalization,2021.2.3,60.02355674914134,
bye.wav,bye.mpg,bye,5,AV,Pink_Noise_5_1.wav,Pink_Noise_5_2.wav,,,,,,0,29,29,62,,,,,,,,,,,,,,,269.4955412070267,None,270.97875893407036,None,272.3621577840531,None,bye,272.3621577840531,None,return,1.9622061270056292,272.44558821304236,None,,,,,,,26,001,2023_Feb_17_1841,SpeechDraft1Carolyn_lessNoise_PlusLocalization,2021.2.3,60.02355674914134,
fish.wav,fish.mpg,fish,4,A,Pink_Noise_4_1.wav,Pink_Noise_4_2.wav,,,,,,0,30,30,14,,,,,,,,,,,,,,,274.4290821440518,None,275.912385593052,None,277.29556938109454,None,fish,277.29556938109454,None,return,1.89268876996357,277.3790988510009,None,,,,,,,26,001,2023_Feb_17_1841,SpeechDraft1Carolyn_lessNoise_PlusLocalization,2021.2.3,60.02355674914134,
sock.wav,sock.mpg,sock,6,AV,Pink_Noise_6_1.wav,Pink_Noise_6_2.wav,,,,,,0,31,31,77,,,,,,,,,,,,,,,279.29549956403207,None,280.7954084890662,None,282.16243133007083,None,suck,282.16243133007083,None,return,3.4420813939068466,282.2457033500541,None,,,,,,,26,001,2023_Feb_17_1841,SpeechDraft1Carolyn_lessNoise_PlusLocalization,2021.2.3,60.02355674914134,
drain.wav,drain.mpg,drain,3,A,Pink_Noise_3_1.wav,Pink_Noise_3_2.wav,,,,,,0,32,32,36,,,,,,,,,,,,,,,285.7124826180516,None,287.1955040220637,None,288.57925154303666,None,drain,288.57925154303666,None,return,7.673490515095182,288.66246329201385,None,,,,,,,26,001,2023_Feb_17_1841,SpeechDraft1Carolyn_lessNoise_PlusLocalization,2021.2.3,60.02355674914134,
grain.wav,grain.mpg,grain,3,AV,Pink_Noise_3_1.wav,Pink_Noise_3_2.wav,,,,,,0,33,33,76,,,,,,,,,,,,,,,296.36233975808136,None,297.86214789608493,None,299.2460150209954,None,grain,299.2460150209954,None,return,1.4069353910163045,299.32902933307923,None,,,,,,,26,001,2023_Feb_17_1841,SpeechDraft1Carolyn_lessNoise_PlusLocalization,2021.2.3,60.02355674914134,
blob.wav,blob.mpg,blob,6,A,Pink_Noise_6_1.wav,Pink_Noise_6_2.wav,,,,,,0,34,34,21,,,,,,,,,,,,,,,300.76255636208225,None,302.2458548240829,None,303.62897048308514,None,dry,303.62897048308514,None,return,0.8472442929632962,303.712551523,None,,,,,,,26,001,2023_Feb_17_1841,SpeechDraft1Carolyn_lessNoise_PlusLocalization,2021.2.3,60.02355674914134,
truck.wav,truck.mpg,truck,2,A,Pink_Noise_2_1.wav,Pink_Noise_2_2.wav,,,,,,0,35,35,46,,,,,,,,,,,,,,,304.579196991981,None,306.0626121490495,None,307.44574345706496,None,"truck
",307.44574345706496,None,return,1.102770188008435,307.5290371590527,None,,,,,,,26,001,2023_Feb_17_1841,SpeechDraft1Carolyn_lessNoise_PlusLocalization,2021.2.3,60.02355674914134,
gown.wav,gown.mpg,gown,4,AV,Pink_Noise_4_1.wav,Pink_Noise_4_2.wav,,,,,,0,36,36,75,,,,,,,,,,,,,,,308.6622817820171,None,310.1622157720849,None,311.54590134799946,None,gowl,311.54590134799946,None,return,1.6747241369448602,311.62906979501713,None,,,,,,,26,001,2023_Feb_17_1841,SpeechDraft1Carolyn_lessNoise_PlusLocalization,2021.2.3,60.02355674914134,
gram.wav,gram.mpg,gram,4,A,Pink_Noise_4_1.wav,Pink_Noise_4_2.wav,,,,,,0,37,37,55,,,,,,,,,,,,,,,313.3291205690475,None,314.81216222408693,None,316.1956507900031,None,gramd,316.1956507900031,None,return,5.072955247014761,316.27896817808505,None,,,,,,,26,001,2023_Feb_17_1841,SpeechDraft1Carolyn_lessNoise_PlusLocalization,2021.2.3,60.02355674914134,
claim.wav,claim.mpg,claim,2,A,Pink_Noise_2_1.wav,Pink_Noise_2_2.wav,,,,,,0,38,38,20,,,,,,,,,,,,,,,321.37909210601356,None,322.87899194599595,None,324.262487650034,None,claim,324.262487650034,None,return,1.4141745710512623,324.3456821400905,None,,,,,,,26,001,2023_Feb_17_1841,SpeechDraft1Carolyn_lessNoise_PlusLocalization,2021.2.3,60.02355674914134,
ball.wav,ball.mpg,ball,1,A,Pink_Noise_1_1.wav,Pink_Noise_1_2.wav,,,,,,0,39,39,41,,,,,,,,,,,,,,,325.7789599550888,None,327.2624429190764,None,328.6456010930706,None,ball,328.6456010930706,None,return,2.398759225034155,328.7291602269979,None,,,,,,,26,001,2023_Feb_17_1841,SpeechDraft1Carolyn_lessNoise_PlusLocalization,2021.2.3,60.02355674914134,
cloud.wav,cloud.mpg,cloud,5,A,Pink_Noise_5_1.wav,Pink_Noise_5_2.wav,,,,,,0,40,40,31,,,,,,,,,,,,,,,331.1457895759959,None,332.6291230650386,None,334.01247639697976,None,growl,334.01247639697976,None,return,1.7038963300874457,334.0959011539817,None,,,,,,,26,001,2023_Feb_17_1841,SpeechDraft1Carolyn_lessNoise_PlusLocalization,2021.2.3,60.02355674914134,
east.wav,east.mpg,east,4,A,Pink_Noise_4_1.wav,Pink_Noise_4_2.wav,,,,,,0,41,41,7,,,,,,,,,,,,,,,335.82887502608355,None,337.3288420570316,None,338.6959031090373,None,beast,338.6959031090373,None,return,2.164627159014344,338.7791722799884,None,,,,,,,26,001,2023_Feb_17_1841,SpeechDraft1Carolyn_lessNoise_PlusLocalization,2021.2.3,60.02355674914134,
craft.wav,craft.mpg,craft,1,AV,Pink_Noise_1_1.wav,Pink_Noise_1_2.wav,,,,,,0,42,42,116,,,,,,,,,,,,,,,340.96231444203295,None,342.44556434301194,None,343.828924868023,None,craft,343.828924868023,None,return,1.775324958958663,343.9124493050622,None,,,,,,,26,001,2023_Feb_17_1841,SpeechDraft1Carolyn_lessNoise_PlusLocalization,2021.2.3,60.02355674914134,
vest.wav,vest.mpg,vest,5,AV,Pink_Noise_5_1.wav,Pink_Noise_5_2.wav,,,,,,0,43,43,87,,,,,,,,,,,,,,,345.7123328350717,None,347.1957195230061,None,348.57893309008796,None,fest,348.57893309008796,None,return,2.009307214990258,348.66248058108613,None,,,,,,,26,001,2023_Feb_17_1841,SpeechDraft1Carolyn_lessNoise_PlusLocalization,2021.2.3,60.02355674914134,
drop.wav,drop.mpg,drop,1,A,Pink_Noise_1_1.wav,Pink_Noise_1_2.wav,,,,,,0,44,44,56,,,,,,,,,,,,,,,350.6958038810408,None,352.17882724897936,None,353.5625311100157,None,"drop
",353.5625311100157,None,return,4.018123358022422,353.6456630890025,None,,,,,,,26,001,2023_Feb_17_1841,SpeechDraft1Carolyn_lessNoise_PlusLocalization,2021.2.3,60.02355674914134,
dry.wav,dry.mpg,dry,1,AV,Pink_Noise_1_1.wav,Pink_Noise_1_2.wav,,,,,,0,45,45,118,,,,,,,,,,,,,,,357.6958078760654,None,359.1790280020796,None,360.56241532205604,None,"dry
",360.56241532205604,None,return,3.0017966609448195,360.6460036500357,None,,,,,,,26,001,2023_Feb_17_1841,SpeechDraft1Carolyn_lessNoise_PlusLocalization,2021.2.3,60.02355674914134,
coil.wav,coil.mpg,coil,2,A,Pink_Noise_2_1.wav,Pink_Noise_2_2.wav,,,,,,0,46,46,4,,,,,,,,,,,,,,,363.6790103180101,None,365.16229464509524,None,366.54566540406086,None,oil,366.54566540406086,None,return,1.842523156083189,366.62926446809433,None,,,,,,,26,001,2023_Feb_17_1841,SpeechDraft1Carolyn_lessNoise_PlusLocalization,2021.2.3,60.02355674914134,
clay.wav,clay.mpg,clay,5,A,Pink_Noise_5_1.wav,Pink_Noise_5_2.wav,,,,,,0,47,47,23,,,,,,,,,,,,,,,368.49585424608085,None,369.9791313150199,None,371.36249719408806,None,stay,371.36249719408806,None,return,1.5938594989711419,371.4459271800006,None,,,,,,,26,001,2023_Feb_17_1841,SpeechDraft1Carolyn_lessNoise_PlusLocalization,2021.2.3,60.02355674914134,
funk.wav,funk.mpg,funk,2,AV,Pink_Noise_2_1.wav,Pink_Noise_2_2.wav,,,,,,0,48,48,91,,,,,,,,,,,,,,,373.0624868540326,None,374.5464345550863,None,375.92896020400804,None,funk,375.92896020400804,None,return,1.5873896980192512,376.0124090600293,None,,,,,,,26,001,2023_Feb_17_1841,SpeechDraft1Carolyn_lessNoise_PlusLocalization,2021.2.3,60.02355674914134,
break.wav,break.mpg,break,5,AV,Pink_Noise_5_1.wav,Pink_Noise_5_2.wav,,,,,,0,49,49,115,,,,,,,,,,,,,,,377.62908907199744,None,379.1289850840112,None,380.49568697297946,None,break,380.49568697297946,None,return,3.028608454973437,380.5792142919963,None,,,,,,,26,001,2023_Feb_17_1841,SpeechDraft1Carolyn_lessNoise_PlusLocalization,2021.2.3,60.02355674914134,
fun.wav,fun.mpg,fun,6,AV,Pink_Noise_6_1.wav,Pink_Noise_6_2.wav,,,,,,0,50,50,95,,,,,,,,,,,,,,,383.6293710640166,None,385.1123705729842,None,386.49592428701,None,flood,386.49592428701,None,return,3.9165721480967477,386.57922210206743,None,,,,,,,26,001,2023_Feb_17_1841,SpeechDraft1Carolyn_lessNoise_PlusLocalization,2021.2.3,60.02355674914134,
fruit.wav,fruit.mpg,fruit,5,AV,Pink_Noise_5_1.wav,Pink_Noise_5_2.wav,,,,,,0,51,51,106,,,,,,,,,,,,,,,390.5124393570004,None,391.9959686890943,None,393.3792890700279,None,fruit,393.3792890700279,None,return,4.233410049928352,393.46243830409367,None,,,,,,,26,001,2023_Feb_17_1841,SpeechDraft1Carolyn_lessNoise_PlusLocalization,2021.2.3,60.02355674914134,
beef.wav,beef.mpg,beef,2,A,Pink_Noise_2_1.wav,Pink_Noise_2_2.wav,,,,,,0,52,52,10,,,,,,,,,,,,,,,397.7125549290795,None,399.19570083601866,None,400.57906844699755,None,beef,400.57906844699755,None,return,2.3452378771035,400.66256524808705,None,,,,,,,26,001,2023_Feb_17_1841,SpeechDraft1Carolyn_lessNoise_PlusLocalization,2021.2.3,60.02355674914134,
feud.wav,feud.mpg,feud,6,AV,Pink_Noise_6_1.wav,Pink_Noise_6_2.wav,,,,,,0,53,53,69,,,,,,,,,,,,,,,403.029251167085,None,404.5125593490666,None,405.8958584530046,None,few ,405.8958584530046,None,return,1.7166158800246194,405.979185088072,None,,,,,,,26,001,2023_Feb_17_1841,SpeechDraft1Carolyn_lessNoise_PlusLocalization,2021.2.3,60.02355674914134,
shock.wav,shock.mpg,shock,1,A,Pink_Noise_1_1.wav,Pink_Noise_1_2.wav,,,,,,0,54,54,26,,,,,,,,,,,,,,,407.7126260140212,None,409.19576760509517,None,410.57939867198,None,shook,410.57939867198,None,return,9.577199836960062,410.66258657106664,None,,,,,,,26,001,2023_Feb_17_1841,SpeechDraft1Carolyn_lessNoise_PlusLocalization,2021.2.3,60.02355674914134,
cure.wav,cure.mpg,cure,4,AV,Pink_Noise_4_1.wav,Pink_Noise_4_2.wav,,,,,,0,55,55,72,,,,,,,,,,,,,,,420.2624405589886,None,421.7623418830335,None,423.1459366630297,None,"you 
",423.1459366630297,None,return,7.85065250005573,423.2291464700829,None,,,,,,,26,001,2023_Feb_17_1841,SpeechDraft1Carolyn_lessNoise_PlusLocalization,2021.2.3,60.02355674914134,
crop.wav,crop.mpg,crop,2,AV,Pink_Noise_2_1.wav,Pink_Noise_2_2.wav,,,,,,0,56,56,96,,,,,,,,,,,,,,,431.1126736070728,None,432.5959552790737,None,433.979153988068,None,"crop
",433.979153988068,None,return,1.6170748620061204,434.0627155350521,None,,,,,,,26,001,2023_Feb_17_1841,SpeechDraft1Carolyn_lessNoise_PlusLocalization,2021.2.3,60.02355674914134,
tomb.wav,tomb.mpg,tomb,5,A,Pink_Noise_5_1.wav,Pink_Noise_5_2.wav,,,,,,0,57,57,11,,,,,,,,,,,,,,,435.71262734604534,None,437.19580377906095,None,438.5793241150677,None,tooth,438.5793241150677,None,return,1.7612155569950119,438.662617566064,None,,,,,,,26,001,2023_Feb_17_1841,SpeechDraft1Carolyn_lessNoise_PlusLocalization,2021.2.3,60.02355674914134,
glass.wav,glass.mpg,glass,2,AV,Pink_Noise_2_1.wav,Pink_Noise_2_2.wav,,,,,,0,58,58,84,,,,,,,,,,,,,,,440.44585145206656,None,441.9294112450443,None,443.3125568750547,None,glass,443.3125568750547,None,return,2.676051865913905,443.3957273539854,None,,,,,,,26,001,2023_Feb_17_1841,SpeechDraft1Carolyn_lessNoise_PlusLocalization,2021.2.3,60.02355674914134,
dirt.wav,dirt.mpg,dirt,4,AV,Pink_Noise_4_1.wav,Pink_Noise_4_2.wav,,,,,,0,59,59,92,,,,,,,,,,,,,,,446.0959474630654,None,447.57913772400934,None,448.9624279580312,None,start,448.9624279580312,None,return,1.649880276992917,449.0459100410808,None,,,,,,,26,001,2023_Feb_17_1841,SpeechDraft1Carolyn_lessNoise_PlusLocalization,2021.2.3,60.02355674914134,
calm.wav,calm.mpg,calm,4,A,Pink_Noise_4_1.wav,Pink_Noise_4_2.wav,,,,,,0,60,60,45,,,,,,,,,,,,,,,450.7124607380247,None,452.1958993379958,None,453.5793001600541,None,call,453.5793001600541,None,return,1.7132946739438921,453.66260588308796,None,,,,,,,26,001,2023_Feb_17_1841,SpeechDraft1Carolyn_lessNoise_PlusLocalization,2021.2.3,60.02355674914134,
glide.wav,glide.mpg,glide,6,AV,Pink_Noise_6_1.wav,Pink_Noise_6_2.wav,,,,,,0,61,61,89,,,,,,,,,,,,,,,455.39608786208555,None,456.87997008208185,None,458.2625174620189,None,"glide
",458.2625174620189,None,return,1.7338020959869027,458.3459982870845,None,,,,,,,26,001,2023_Feb_17_1841,SpeechDraft1Carolyn_lessNoise_PlusLocalization,2021.2.3,60.02355674914134,
gash.wav,gash.mpg,gash,3,AV,Pink_Noise_3_1.wav,Pink_Noise_3_2.wav,,,,,,0,62,62,97,,,,,,,,,,,,,,,460.11270808102563,None,461.5961575660622,None,462.97928816999774,None,gash,462.97928816999774,None,return,2.3770057500805706,463.0627815030748,None,,,,,,,26,001,2023_Feb_17_1841,SpeechDraft1Carolyn_lessNoise_PlusLocalization,2021.2.3,60.02355674914134,
flesh.wav,flesh.mpg,flesh,1,AV,Pink_Noise_1_1.wav,Pink_Noise_1_2.wav,,,,,,0,63,63,68,,,,,,,,,,,,,,,465.46258100902196,None,466.94585983408615,None,468.3293848100584,None,"flesh
",468.3293848100584,None,return,4.435129572055303,468.4126666469965,None,,,,,,,26,001,2023_Feb_17_1841,SpeechDraft1Carolyn_lessNoise_PlusLocalization,2021.2.3,60.02355674914134,
beer.wav,beer.mpg,beer,2,A,Pink_Noise_2_1.wav,Pink_Noise_2_2.wav,,,,,,0,64,64,27,,,,,,,,,,,,,,,472.8794810920954,None,474.3627144130878,None,475.7458638610551,None,fear,475.7458638610551,None,return,1.3546418970217928,475.8291607570136,None,,,,,,,26,001,2023_Feb_17_1841,SpeechDraft1Carolyn_lessNoise_PlusLocalization,2021.2.3,60.02355674914134,
nice.wav,nice.mpg,nice,1,A,Pink_Noise_1_1.wav,Pink_Noise_1_2.wav,,,,,,0,65,65,37,,,,,,,,,,,,,,,477.21261080598924,None,478.69567841500975,None,480.0793886050815,None,nice,480.0793886050815,None,return,0.9893168999115005,480.1626347650308,None,,,,,,,26,001,2023_Feb_17_1841,SpeechDraft1Carolyn_lessNoise_PlusLocalization,2021.2.3,60.02355674914134,
cheer.wav,cheer.mpg,cheer,5,AV,Pink_Noise_5_1.wav,Pink_Noise_5_2.wav,,,,,,0,66,66,80,,,,,,,,,,,,,,,481.17934939207043,None,482.6793802630855,None,484.06251193303615,None,cheer,484.06251193303615,None,return,0.9497838179813698,484.14608589001,None,,,,,,,26,001,2023_Feb_17_1841,SpeechDraft1Carolyn_lessNoise_PlusLocalization,2021.2.3,60.02355674914134,
fleet.wav,fleet.mpg,fleet,5,AV,Pink_Noise_5_1.wav,Pink_Noise_5_2.wav,,,,,,0,67,67,114,,,,,,,,,,,,,,,485.11264278308954,None,486.6122070540441,None,487.9960566130467,None,"feet
",487.9960566130467,None,return,1.3525060439715162,488.0792919690721,None,,,,,,,26,001,2023_Feb_17_1841,SpeechDraft1Carolyn_lessNoise_PlusLocalization,2021.2.3,60.02355674914134,
clown.wav,clown.mpg,clown,1,AV,Pink_Noise_1_1.wav,Pink_Noise_1_2.wav,,,,,,0,68,68,93,,,,,,,,,,,,,,,489.46262822207063,None,490.9474090030417,None,492.329325319035,None,"clown
",492.329325319035,None,return,3.2350020840531215,492.41279730107635,None,,,,,,,26,001,2023_Feb_17_1841,SpeechDraft1Carolyn_lessNoise_PlusLocalization,2021.2.3,60.02355674914134,
blade.wav,blade.mpg,blade,3,A,Pink_Noise_3_1.wav,Pink_Noise_3_2.wav,,,,,,0,69,69,40,,,,,,,,,,,,,,,495.67929596302565,None,497.16264448908623,None,498.54603671701625,None,displayed,498.54603671701625,None,return,5.674563726061024,498.6292551570805,None,,,,,,,26,001,2023_Feb_17_1841,SpeechDraft1Carolyn_lessNoise_PlusLocalization,2021.2.3,60.02355674914134,
swamp.wav,swamp.mpg,swamp,5,A,Pink_Noise_5_1.wav,Pink_Noise_5_2.wav,,,,,,0,70,70,39,,,,,,,,,,,,,,,504.3293947010534,None,505.8134340250399,None,507.19594030000735,None,trunk,507.19594030000735,None,return,9.520410438999534,507.27936275908723,None,,,,,,,26,001,2023_Feb_17_1841,SpeechDraft1Carolyn_lessNoise_PlusLocalization,2021.2.3,60.02355674914134,
cord.wav,cord.mpg,cord,6,A,Pink_Noise_6_1.wav,Pink_Noise_6_2.wav,,,,,,0,71,71,5,,,,,,,,,,,,,,,516.8293055230752,None,518.3123849009862,None,519.6960746300174,None,,519.6960746300174,None,return,2.076287767966278,519.7794992160052,None,,,,,,,26,001,2023_Feb_17_1841,SpeechDraft1Carolyn_lessNoise_PlusLocalization,2021.2.3,60.02355674914134,
chess.wav,chess.mpg,chess,4,A,Pink_Noise_4_1.wav,Pink_Noise_4_2.wav,,,,,,0,72,72,47,,,,,,,,,,,,,,,521.879671605071,None,523.3790281050606,None,524.762856018031,None,chest,524.762856018031,None,return,2.4658819478936493,524.8460088850698,None,,,,,,,26,001,2023_Feb_17_1841,SpeechDraft1Carolyn_lessNoise_PlusLocalization,2021.2.3,60.02355674914134,
swan.wav,swan.mpg,swan,2,A,Pink_Noise_2_1.wav,Pink_Noise_2_2.wav,,,,,,0,73,73,51,,,,,,,,,,,,,,,527.3294030330144,None,528.8292717930162,None,530.1960525240283,None,swan,530.1960525240283,None,return,1.8804870080202818,530.2793988490012,None,,,,,,,26,001,2023_Feb_17_1841,SpeechDraft1Carolyn_lessNoise_PlusLocalization,2021.2.3,60.02355674914134,
fold.wav,fold.mpg,fold,6,A,Pink_Noise_6_1.wav,Pink_Noise_6_2.wav,,,,,,0,74,74,59,,,,,,,,,,,,,,,532.1795511160744,None,533.6793739910936,None,535.0627540710848,None,,535.0627540710848,None,return,0.8056386039825156,535.146247951081,None,,,,,,,26,001,2023_Feb_17_1841,SpeechDraft1Carolyn_lessNoise_PlusLocalization,2021.2.3,60.02355674914134,
fool.wav,fool.mpg,fool,3,AV,Pink_Noise_3_1.wav,Pink_Noise_3_2.wav,,,,,,0,75,75,105,,,,,,,,,,,,,,,535.979529340053,None,537.4791259550257,None,538.8628019270254,None,fool,538.8628019270254,None,return,0.8777187539963052,538.9460683410289,None,,,,,,,26,001,2023_Feb_17_1841,SpeechDraft1Carolyn_lessNoise_PlusLocalization,2021.2.3,60.02355674914134,
guide.wav,guide.mpg,guide,6,A,Pink_Noise_6_1.wav,Pink_Noise_6_2.wav,,,,,,0,76,76,15,,,,,,,,,,,,,,,539.8461606570054,None,541.3457640400156,None,542.7126880120486,None,loud,542.7126880120486,None,return,1.787689934950322,542.7961050079903,None,,,,,,,26,001,2023_Feb_17_1841,SpeechDraft1Carolyn_lessNoise_PlusLocalization,2021.2.3,60.02355674914134,
coach.wav,coach.mpg,coach,6,A,Pink_Noise_6_1.wav,Pink_Noise_6_2.wav,,,,,,0,77,77,28,,,,,,,,,,,,,,,544.6128895260626,None,546.096513183089,None,547.4794705610257,None,scratch,547.4794705610257,None,return,5.525214583030902,547.5626416560262,None,,,,,,,26,001,2023_Feb_17_1841,SpeechDraft1Carolyn_lessNoise_PlusLocalization,2021.2.3,60.02355674914134,
dent.wav,dent.mpg,dent,6,AV,Pink_Noise_6_1.wav,Pink_Noise_6_2.wav,,,,,,0,78,78,90,,,,,,,,,,,,,,,553.1128678920213,None,554.6126292489935,None,555.9958959500073,None,,555.9958959500073,None,return,2.472333347075619,556.0795452640159,None,,,,,,,26,001,2023_Feb_17_1841,SpeechDraft1Carolyn_lessNoise_PlusLocalization,2021.2.3,60.02355674914134,
lead.wav,lead.mpg,lead,4,AV,Pink_Noise_4_1.wav,Pink_Noise_4_2.wav,,,,,,0,79,79,99,,,,,,,,,,,,,,,558.5794125810498,None,560.0627894040663,None,561.4461719860556,None,"legs
",561.4461719860556,None,return,0.7504780900198966,561.5293175920378,None,,,,,,,26,001,2023_Feb_17_1841,SpeechDraft1Carolyn_lessNoise_PlusLocalization,2021.2.3,60.02355674914134,
bake.wav,bake.mpg,bake,1,AV,Pink_Noise_1_1.wav,Pink_Noise_1_2.wav,,,,,,0,80,80,71,,,,,,,,,,,,,,,562.312648652005,None,563.7960071250563,None,565.1792265370023,None,bake,565.1792265370023,None,return,3.2971249029506,565.2627615419915,None,,,,,,,26,001,2023_Feb_17_1841,SpeechDraft1Carolyn_lessNoise_PlusLocalization,2021.2.3,60.02355674914134,
earn.wav,earn.mpg,earn,4,AV,Pink_Noise_4_1.wav,Pink_Noise_4_2.wav,,,,,,0,81,81,61,,,,,,,,,,,,,,,568.5793253920274,None,570.0640039070277,None,571.4461699330714,None,earn,571.4461699330714,None,return,2.8223954550921917,571.5294732290786,None,,,,,,,26,001,2023_Feb_17_1841,SpeechDraft1Carolyn_lessNoise_PlusLocalization,2021.2.3,60.02355674914134,
cent.wav,cent.mpg,cent,4,AV,Pink_Noise_4_1.wav,Pink_Noise_4_2.wav,,,,,,0,82,82,108,,,,,,,,,,,,,,,574.3795107949991,None,575.8630640500924,None,577.2464612820186,None,scent,577.2464612820186,None,return,3.4703016470884904,577.329508297029,None,,,,,,,26,001,2023_Feb_17_1841,SpeechDraft1Carolyn_lessNoise_PlusLocalization,2021.2.3,60.02355674914134,
weep.wav,weep.mpg,weep,4,A,Pink_Noise_4_1.wav,Pink_Noise_4_2.wav,,,,,,0,83,83,17,,,,,,,,,,,,,,,580.8294665589929,None,582.3147082910873,None,583.6960363989929,None,,583.6960363989929,None,return,1.188552581006661,583.7793215740239,None,,,,,,,26,001,2023_Feb_17_1841,SpeechDraft1Carolyn_lessNoise_PlusLocalization,2021.2.3,60.02355674914134,
shut.wav,shut.mpg,shut,3,A,Pink_Noise_3_1.wav,Pink_Noise_3_2.wav,,,,,,0,84,84,44,,,,,,,,,,,,,,,584.9965322060743,None,586.4956934090005,None,587.8795593300601,None,"shut
",587.8795593300601,None,return,1.46911018807441,587.9626760650426,None,,,,,,,26,001,2023_Feb_17_1841,SpeechDraft1Carolyn_lessNoise_PlusLocalization,2021.2.3,60.02355674914134,
eye.wav,eye.mpg,eye,4,AV,Pink_Noise_4_1.wav,Pink_Noise_4_2.wav,,,,,,0,85,85,78,,,,,,,,,,,,,,,589.4628745780792,None,590.9477186120348,None,592.3294383230386,None,eye,592.3294383230386,None,return,1.1630269240122288,592.4128202979919,None,,,,,,,26,001,2023_Feb_17_1841,SpeechDraft1Carolyn_lessNoise_PlusLocalization,2021.2.3,60.02355674914134,
drill.wav,drill.mpg,drill,5,A,Pink_Noise_5_1.wav,Pink_Noise_5_2.wav,,,,,,0,86,86,35,,,,,,,,,,,,,,,593.5960371029796,None,595.0804390350822,None,596.4629484540783,None,drew,596.4629484540783,None,return,1.373603303101845,596.5462997270515,None,,,,,,,26,001,2023_Feb_17_1841,SpeechDraft1Carolyn_lessNoise_PlusLocalization,2021.2.3,60.02355674914134,
deck.wav,deck.mpg,deck,6,AV,Pink_Noise_6_1.wav,Pink_Noise_6_2.wav,,,,,,0,87,87,103,,,,,,,,,,,,,,,597.9463129370706,None,599.4303099400131,None,600.8127671650145,None,set,600.8127671650145,None,return,0.9757035749498755,600.8960644460749,None,,,,,,,26,001,2023_Feb_17_1841,SpeechDraft1Carolyn_lessNoise_PlusLocalization,2021.2.3,60.02355674914134,
buzz.wav,buzz.mpg,buzz,5,A,Pink_Noise_5_1.wav,Pink_Noise_5_2.wav,,,,,,0,88,88,25,,,,,,,,,,,,,,,601.8961951939855,None,603.3796221620869,None,604.7631163720507,None,mic,604.7631163720507,None,return,0.8097467080224305,604.8460317900172,None,,,,,,,26,001,2023_Feb_17_1841,SpeechDraft1Carolyn_lessNoise_PlusLocalization,2021.2.3,60.02355674914134,
rid.wav,rid.mpg,rid,1,AV,Pink_Noise_1_1.wav,Pink_Noise_1_2.wav,,,,,,0,89,89,100,,,,,,,,,,,,,,,605.6796440290054,None,607.1636410380015,None,608.5459421190899,None,rid,608.5459421190899,None,return,0.6582785069476813,608.6295572860399,None,,,,,,,26,001,2023_Feb_17_1841,SpeechDraft1Carolyn_lessNoise_PlusLocalization,2021.2.3,60.02355674914134,
shrimp.wav,shrimp.mpg,shrimp,3,A,Pink_Noise_3_1.wav,Pink_Noise_3_2.wav,,,,,,0,90,90,53,,,,,,,,,,,,,,,609.3129295920953,None,610.8125874880934,None,612.1962087400025,None,shrimp,612.1962087400025,None,return,6.472505835001357,612.2794404909946,None,,,,,,,26,001,2023_Feb_17_1841,SpeechDraft1Carolyn_lessNoise_PlusLocalization,2021.2.3,60.02355674914134,
flat.wav,flat.mpg,flat,3,A,Pink_Noise_3_1.wav,Pink_Noise_3_2.wav,,,,,,0,91,91,13,,,,,,,,,,,,,,,618.7793408550788,None,620.2634330550209,None,621.6461440270068,None,"plant
",621.6461440270068,None,return,2.0863333309534937,621.7294752460439,None,,,,,,,26,001,2023_Feb_17_1841,SpeechDraft1Carolyn_lessNoise_PlusLocalization,2021.2.3,60.02355674914134,
duct.wav,duct.mpg,duct,4,A,Pink_Noise_4_1.wav,Pink_Noise_4_2.wav,,,,,,0,92,92,9,,,,,,,,,,,,,,,623.8462075480493,None,625.3459211779991,None,626.7305470680585,None,"start
",626.7305470680585,None,return,3.1868371969321743,626.8129594250349,None,,,,,,,26,001,2023_Feb_17_1841,SpeechDraft1Carolyn_lessNoise_PlusLocalization,2021.2.3,60.02355674914134,
fuse.wav,fuse.mpg,fuse,5,AV,Pink_Noise_5_1.wav,Pink_Noise_5_2.wav,,,,,,0,93,93,70,,,,,,,,,,,,,,,630.0294210410211,None,631.5148014019942,None,632.8961393040372,None,fuse,632.8961393040372,None,return,1.5802354810293764,632.9796550730243,None,,,,,,,26,001,2023_Feb_17_1841,SpeechDraft1Carolyn_lessNoise_PlusLocalization,2021.2.3,60.02355674914134,
chop.wav,chop.mpg,chop,6,A,Pink_Noise_6_1.wav,Pink_Noise_6_2.wav,,,,,,0,94,94,43,,,,,,,,,,,,,,,634.5796620700276,None,636.0630768780829,None,637.4462570570176,None,chai,637.4462570570176,None,return,2.598416185937822,637.529459389043,None,,,,,,,26,001,2023_Feb_17_1841,SpeechDraft1Carolyn_lessNoise_PlusLocalization,2021.2.3,60.02355674914134,
cork.wav,cork.mpg,cork,6,AV,Pink_Noise_6_1.wav,Pink_Noise_6_2.wav,,,,,,0,95,95,117,,,,,,,,,,,,,,,640.1460264300695,None,641.6312847980298,None,643.0128513519885,None,work,643.0128513519885,None,return,2.495732953073457,643.096072299988,None,,,,,,,26,001,2023_Feb_17_1841,SpeechDraft1Carolyn_lessNoise_PlusLocalization,2021.2.3,60.02355674914134,
bear.wav,bear.mpg,bear,6,A,Pink_Noise_6_1.wav,Pink_Noise_6_2.wav,,,,,,0,96,96,30,,,,,,,,,,,,,,,645.6129305859795,None,647.1126615999965,None,648.4962875160854,None,store,648.4962875160854,None,return,1.7722576409578323,648.5796123800101,None,,,,,,,26,001,2023_Feb_17_1841,SpeechDraft1Carolyn_lessNoise_PlusLocalization,2021.2.3,60.02355674914134,
stuck.wav,stuck.mpg,stuck,2,AV,Pink_Noise_2_1.wav,Pink_Noise_2_2.wav,,,,,,0,97,97,109,,,,,,,,,,,,,,,650.3794971629977,None,651.8793569660047,None,653.2461427410599,None,stuck,653.2461427410599,None,return,1.2462731660343707,653.3295757659944,None,,,,,,,26,001,2023_Feb_17_1841,SpeechDraft1Carolyn_lessNoise_PlusLocalization,2021.2.3,60.02355674914134,
toast.wav,toast.mpg,toast,1,AV,Pink_Noise_1_1.wav,Pink_Noise_1_2.wav,,,,,,0,98,98,94,,,,,,,,,,,,,,,654.5961963160662,None,656.0962003420573,None,657.4795733439969,None,toast,657.4795733439969,None,return,5.89268582907971,657.5790793930646,None,,,,,,,26,001,2023_Feb_17_1841,SpeechDraft1Carolyn_lessNoise_PlusLocalization,2021.2.3,60.02355674914134,
germ.wav,germ.mpg,germ,3,A,Pink_Noise_3_1.wav,Pink_Noise_3_2.wav,,,,,,0,99,99,24,,,,,,,,,,,,,,,663.4962202240713,None,664.9959555200767,None,666.3795406190911,None,"
",666.3795406190911,None,return,1.9528582079801708,666.4629602750065,None,,,,,,,26,001,2023_Feb_17_1841,SpeechDraft1Carolyn_lessNoise_PlusLocalization,2021.2.3,60.02355674914134,
two.wav,two.mpg,two,4,AV,Pink_Noise_4_1.wav,Pink_Noise_4_2.wav,,,,,,0,100,100,63,,,,,,,,,,,,,,,668.4464322080603,None,669.9462847630493,None,671.3128162130015,None,two ,671.3128162130015,None,return,0.9476411810610443,671.3961504430044,None,,,,,,,26,001,2023_Feb_17_1841,SpeechDraft1Carolyn_lessNoise_PlusLocalization,2021.2.3,60.02355674914134,
chalk.wav,chalk.mpg,chalk,6,A,Pink_Noise_6_1.wav,Pink_Noise_6_2.wav,,,,,,0,101,101,22,,,,,,,,,,,,,,,672.362692315015,None,673.8466684690211,None,675.2294419730315,None,"chop
",675.2294419730315,None,return,1.886387089965865,675.3134062400786,None,,,,,,,26,001,2023_Feb_17_1841,SpeechDraft1Carolyn_lessNoise_PlusLocalization,2021.2.3,60.02355674914134,
else.wav,else.mpg,else,3,AV,Pink_Noise_3_1.wav,Pink_Noise_3_2.wav,,,,,,0,102,102,81,,,,,,,,,,,,,,,677.2295327479951,None,678.7142425720813,None,680.0961347849807,None,else,680.0961347849807,None,return,0.9881955509772524,680.1796031889971,None,,,,,,,26,001,2023_Feb_17_1841,SpeechDraft1Carolyn_lessNoise_PlusLocalization,2021.2.3,60.02355674914134,
choir.wav,choir.mpg,choir,5,AV,Pink_Noise_5_1.wav,Pink_Noise_5_2.wav,,,,,,0,103,103,107,,,,,,,,,,,,,,,681.1961516099982,None,682.6962322520558,None,684.0796706250403,None,quieter,684.0796706250403,None,return,2.773172324988991,684.1627765840385,None,,,,,,,26,001,2023_Feb_17_1841,SpeechDraft1Carolyn_lessNoise_PlusLocalization,2021.2.3,60.02355674914134,
script.wav,script.mpg,script,1,AV,Pink_Noise_1_1.wav,Pink_Noise_1_2.wav,,,,,,0,104,104,112,,,,,,,,,,,,,,,686.9630029250402,None,688.447377044009,None,689.8310647649923,None,script,689.8310647649923,None,return,2.7989726320374757,689.9129183450714,None,,,,,,,26,001,2023_Feb_17_1841,SpeechDraft1Carolyn_lessNoise_PlusLocalization,2021.2.3,60.02355674914134,
food.wav,food.mpg,food,6,A,Pink_Noise_6_1.wav,Pink_Noise_6_2.wav,,,,,,0,105,105,50,,,,,,,,,,,,,,,692.7295018769801,None,694.2294340600492,None,695.6130744160619,None,clean,695.6130744160619,None,return,1.7115425890078768,695.6962573610945,None,,,,,,,26,001,2023_Feb_17_1841,SpeechDraft1Carolyn_lessNoise_PlusLocalization,2021.2.3,60.02355674914134,
bench.wav,bench.mpg,bench,5,A,Pink_Noise_5_1.wav,Pink_Noise_5_2.wav,,,,,,0,106,106,57,,,,,,,,,,,,,,,697.4298730860464,None,698.9292088840157,None,700.3127325890819,None,flesh,700.3127325890819,None,return,1.7955111839110032,700.3962920249905,None,,,,,,,26,001,2023_Feb_17_1841,SpeechDraft1Carolyn_lessNoise_PlusLocalization,2021.2.3,60.02355674914134,
droop.wav,droop.mpg,droop,1,A,Pink_Noise_1_1.wav,Pink_Noise_1_2.wav,,,,,,0,107,107,3,,,,,,,,,,,,,,,702.2129633129807,None,703.7127928320551,None,705.0964629619848,None,"drew 
",705.0964629619848,None,return,2.468244062969461,705.179562324076,None,,,,,,,26,001,2023_Feb_17_1841,SpeechDraft1Carolyn_lessNoise_PlusLocalization,2021.2.3,60.02355674914134,
birth.wav,birth.mpg,birth,6,AV,Pink_Noise_6_1.wav,Pink_Noise_6_2.wav,,,,,,0,108,108,86,,,,,,,,,,,,,,,707.6796174210031,None,709.1794103330467,None,710.5630710850237,None,"birth
",710.5630710850237,None,return,3.5854075339157134,710.6463925050339,None,,,,,,,26,001,2023_Feb_17_1841,SpeechDraft1Carolyn_lessNoise_PlusLocalization,2021.2.3,60.02355674914134,
squat.wav,squat.mpg,squat,2,AV,Pink_Noise_2_1.wav,Pink_Noise_2_2.wav,,,,,,0,109,109,73,,,,,,,,,,,,,,,714.2631826490397,None,715.7628456030507,None,717.1463111470221,None,squat,717.1463111470221,None,return,1.6100359680131078,717.2297583600739,None,,,,,,,26,001,2023_Feb_17_1841,SpeechDraft1Carolyn_lessNoise_PlusLocalization,2021.2.3,60.02355674914134,
goose.wav,goose.mpg,goose,1,A,Pink_Noise_1_1.wav,Pink_Noise_1_2.wav,,,,,,0,110,110,58,,,,,,,,,,,,,,,718.8640184620162,None,720.379522058065,None,721.7628040179843,None,goose,721.7628040179843,None,return,1.7924538080114871,721.8473382460652,None,,,,,,,26,001,2023_Feb_17_1841,SpeechDraft1Carolyn_lessNoise_PlusLocalization,2021.2.3,60.02355674914134,
cliff.wav,cliff.mpg,cliff,3,A,Pink_Noise_3_1.wav,Pink_Noise_3_2.wav,,,,,,0,111,111,2,,,,,,,,,,,,,,,723.6628864690429,None,725.1481435589958,None,726.5296938410029,None,cliff,726.5296938410029,None,return,0.9547420060262084,726.6130466370378,None,,,,,,,26,001,2023_Feb_17_1841,SpeechDraft1Carolyn_lessNoise_PlusLocalization,2021.2.3,60.02355674914134,
glove.wav,glove.mpg,glove,1,AV,Pink_Noise_1_1.wav,Pink_Noise_1_2.wav,,,,,,0,112,112,113,,,,,,,,,,,,,,,727.5964617510326,None,729.096180979046,None,730.4794412110932,None,glove,730.4794412110932,None,return,1.9728859170572832,730.5630139650311,None,,,,,,,26,001,2023_Feb_17_1841,SpeechDraft1Carolyn_lessNoise_PlusLocalization,2021.2.3,60.02355674914134,
bless.wav,bless.mpg,bless,6,AV,Pink_Noise_6_1.wav,Pink_Noise_6_2.wav,,,,,,0,113,113,104,,,,,,,,,,,,,,,732.5630323230289,None,734.0629246709868,None,735.4294341120403,None,"breast
",735.4294341120403,None,return,1.6867802940541878,735.5130299290176,None,,,,,,,26,001,2023_Feb_17_1841,SpeechDraft1Carolyn_lessNoise_PlusLocalization,2021.2.3,60.02355674914134,
grasp.wav,grasp.mpg,grasp,1,A,Pink_Noise_1_1.wav,Pink_Noise_1_2.wav,,,,,,0,114,114,6,,,,,,,,,,,,,,,737.2296927510761,None,738.714783338015,None,740.0962414580863,None,grasp,740.0962414580863,None,return,1.4921289389021695,740.1796513950685,None,,,,,,,26,001,2023_Feb_17_1841,SpeechDraft1Carolyn_lessNoise_PlusLocalization,2021.2.3,60.02355674914134,
dish.wav,dish.mpg,dish,1,A,Pink_Noise_1_1.wav,Pink_Noise_1_2.wav,,,,,,0,115,115,29,,,,,,,,,,,,,,,741.6963112230878,None,743.1959536810173,None,744.5797529610572,None,"dish
",744.5797529610572,None,return,1.5687044280348346,744.6630742140114,None,,,,,,,26,001,2023_Feb_17_1841,SpeechDraft1Carolyn_lessNoise_PlusLocalization,2021.2.3,60.02355674914134,
clip.wav,clip.mpg,clip,3,A,Pink_Noise_3_1.wav,Pink_Noise_3_2.wav,,,,,,0,116,116,19,,,,,,,,,,,,,,,746.2628846589942,None,747.7627496100031,None,749.1299985520309,None,clif,749.1299985520309,None,return,1.1469481330132112,749.2129139470635,None,,,,,,,26,001,2023_Feb_17_1841,SpeechDraft1Carolyn_lessNoise_PlusLocalization,2021.2.3,60.02355674914134,
gab.wav,gab.mpg,gab,3,AV,Pink_Noise_3_1.wav,Pink_Noise_3_2.wav,,,,,,0,117,117,119,,,,,,,,,,,,,,,750.3797569100279,None,751.8796114100842,None,753.2645616870141,None,gab,753.2645616870141,None,return,0.6290313310455531,753.3467786550755,None,,,,,,,26,001,2023_Feb_17_1841,SpeechDraft1Carolyn_lessNoise_PlusLocalization,2021.2.3,60.02355674914134,
gain.wav,gain.mpg,gain,1,A,Pink_Noise_1_1.wav,Pink_Noise_1_2.wav,,,,,,0,118,118,33,,,,,,,,,,,,,,,753.9962407069979,None,755.4808688560734,None,756.8630161670735,None,gain,756.8630161670735,None,return,2.27729319606442,756.946493224008,None,,,,,,,26,001,2023_Feb_17_1841,SpeechDraft1Carolyn_lessNoise_PlusLocalization,2021.2.3,60.02355674914134,
check.wav,check.mpg,check,2,A,Pink_Noise_2_1.wav,Pink_Noise_2_2.wav,,,,,,0,119,119,38,,,,,,,,,,,,,,,759.2466082239989,None,760.7465077160159,None,762.1295352240559,None,check,762.1295352240559,None,return,3.6668507809517905,762.2129783730488,None,,,,,,,26,001,2023_Feb_17_1841,SpeechDraft1Carolyn_lessNoise_PlusLocalization,2021.2.3,60.02355674914134,
