Audio_Only_Files,Video_Files,Original_Word_List,noiseLevelCode,conditionCodes,noiseLevelFile1,noiseLevelFile2,InstrTextVar,targetSpeakerName,targetSpeakerEccen,targetSpkrChannel,targetSpkrSound,targetVisualDegrees,visStimLoc,visStimLoc2,visStimW,visStimH,practiceTrials.thisRepN,practiceTrials.thisTrialN,practiceTrials.thisN,practiceTrials.thisIndex,trials.thisRepN,trials.thisTrialN,trials.thisN,trials.thisIndex,audLocalLoop.thisRepN,audLocalLoop.thisTrialN,audLocalLoop.thisN,audLocalLoop.thisIndex,visualLocalLoop.thisRepN,visualLocalLoop.thisTrialN,visualLocalLoop.thisN,visualLocalLoop.thisIndex,letsGoAlready.keys,letsGoAlready.rt,letsGoAlready.started,letsGoAlready.stopped,text_2.started,text_2.stopped,text_3.started,text_3.stopped,key_resp_2.keys,key_resp_2.rt,key_resp_2.started,key_resp_2.stopped,text_5.started,text_5.stopped,fixCross.started,fixCross.stopped,fixCross2.started,fixCross2.stopped,answerPrompt.started,answerPrompt.stopped,getAnswer.text,getAnswer.started,getAnswer.stopped,goToNext.keys,goToNext.rt,goToNext.started,goToNext.stopped,stretchBreakTxrt.started,stretchBreakTxrt.stopped,key_resp_3.keys,key_resp_3.rt,key_resp_3.started,key_resp_3.stopped,letsGoLocal.keys,letsGoLocal.rt,letsGoLocal.started,letsGoLocal.stopped,text_4.started,text_4.stopped,prepFixTxt.started,prepFixTxt.stopped,prepFixTxt_2.started,prepFixTxt_2.stopped,respPromptLocal.started,respPromptLocal.stopped,slider.response,slider.rt,slider.started,slider.stopped,letsGoLocal_2.keys,letsGoLocal_2.rt,letsGoLocal_2.started,letsGoLocal_2.stopped,text_7.started,text_7.stopped,prepFixTxt_3.started,prepFixTxt_3.stopped,grating.started,grating.stopped,participant,session,date,expName,psychopyVersion,frameRate,
,,,,,,,,,,,,,,,,,,,,,,,,,,,,,,,,,space,1.6222782119875774,1909.4354773510713,None,,,,,,,,,,,,,,,,,,,,,,,,,,,,,,,,,,,,,,,,,,,,,,,,,,,,,,,,29,001,2023_Feb_22_1134,SpeechDraft1Carolyn_lessNoise_PlusLocalization,2021.2.3,60.070455306357005,
,,,,,,,,,,,,,,,,,,,,,,,,,,,,,,,,,,,,,1909.4354773510713,None,1911.0875543809962,None,space,45.16555230494123,1911.252252759994,None,,,,,,,,,,,,,,,,,,,,,,,,,,,,,,,,,,,,,,,,,,,,,,,,29,001,2023_Feb_22_1134,SpeechDraft1Carolyn_lessNoise_PlusLocalization,2021.2.3,60.070455306357005,
ash.wav,ash.mpg,ash,1,A,Pink_Noise_1_1.wav,Pink_Noise_1_2.wav,"This is an example of an

AUDIO trial",,,,,,,,,,0,0,0,0,,,,,,,,,,,,,,,,,,,,,,,,,1956.4682612289907,None,1957.4519891950767,None,1960.6683549110312,None,1962.053118219017,None,ash,1962.053118219017,None,return,11.738428579061292,1962.1353604650358,None,,,,,,,,,,,,,,,,,,,,,,,,,,,,,,,,,29,001,2023_Feb_22_1134,SpeechDraft1Carolyn_lessNoise_PlusLocalization,2021.2.3,60.070455306357005,
ash.wav,ash.mpg,ash,1,AV,Pink_Noise_1_1.wav,Pink_Noise_1_2.wav,"This is an example of an

AUDIO + VIDEO  trial",,,,,,,,,,0,1,1,1,,,,,,,,,,,,,,,,,,,,,,,,,1973.918458190048,None,1974.918661843054,None,1976.4016156219877,None,1977.7852600619663,None,"ash
",1977.7852600619663,None,return,7.637123467051424,1977.868617522996,None,,,,,,,,,,,,,,,,,,,,,,,,,,,,,,,,,29,001,2023_Feb_22_1134,SpeechDraft1Carolyn_lessNoise_PlusLocalization,2021.2.3,60.070455306357005,
,,,,,,,,,,,,,,,,,,,,,,,,,,,,,,,,,,,,,,,,,,,,,,,,,,,,,,,,,,,,1985.5517191040562,None,space,3.9944263549987227,1985.7353397830157,None,,,,,,,,,,,,,,,,,,,,,,,,,,,29,001,2023_Feb_22_1134,SpeechDraft1Carolyn_lessNoise_PlusLocalization,2021.2.3,60.070455306357005,
bin.wav,bin.mpg,bin,1,AV,Pink_Noise_1_1.wav,Pink_Noise_1_2.wav,,,,,,,,,,,,,,,0,0,0,84,,,,,,,,,,,,,,,,,,,,,,,1989.7701412560418,None,1991.2684122900246,None,1992.651911684079,None,bom,1992.651911684079,None,return,4.130487413029186,1992.7354122240795,None,,,,,,,,,,,,,,,,,,,,,,,,,,,,,,,,,29,001,2023_Feb_22_1134,SpeechDraft1Carolyn_lessNoise_PlusLocalization,2021.2.3,60.070455306357005,
wind.wav,wind.mpg,wind,3,AV,Pink_Noise_3_1.wav,Pink_Noise_3_2.wav,,,,,,,,,,,,,,,0,1,1,119,,,,,,,,,,,,,,,,,,,,,,,1996.8854061349994,None,1998.3851549840765,None,1999.768553941045,None,omd,1999.768553941045,None,return,0.5257357279770076,1999.8520102769835,None,,,,,,,,,,,,,,,,,,,,,,,,,,,,,,,,,29,001,2023_Feb_22_1134,SpeechDraft1Carolyn_lessNoise_PlusLocalization,2021.2.3,60.070455306357005,
coin.wav,coin.mpg,coin,1,AV,Pink_Noise_1_1.wav,Pink_Noise_1_2.wav,,,,,,,,,,,,,,,0,2,2,94,,,,,,,,,,,,,,,,,,,,,,,2000.4020326200407,None,2001.9017915710574,None,2003.2852643739898,None,coin,2003.2852643739898,None,return,1.425066935014911,2003.368711941992,None,,,,,,,,,,,,,,,,,,,,,,,,,,,,,,,,,29,001,2023_Feb_22_1134,SpeechDraft1Carolyn_lessNoise_PlusLocalization,2021.2.3,60.070455306357005,
fluent.wav,fluent.mpg,fluent,1,A,Pink_Noise_1_1.wav,Pink_Noise_1_2.wav,,,,,,,,,,,,,,,0,3,3,15,,,,,,,,,,,,,,,,,,,,,,,2004.818700314965,None,2006.3034189640312,None,2007.6853771120077,None,fluid,2007.6853771120077,None,return,1.3289734879508615,2007.7687628520653,None,,,,,,,,,,,,,,,,,,,,,,,,,,,,,,,,,29,001,2023_Feb_22_1134,SpeechDraft1Carolyn_lessNoise_PlusLocalization,2021.2.3,60.070455306357005,
firm.wav,firm.mpg,firm,4,A,Pink_Noise_4_1.wav,Pink_Noise_4_2.wav,,,,,,,,,,,,,,,0,4,4,30,,,,,,,,,,,,,,,,,,,,,,,2009.1187516379869,None,2010.6017296880018,None,2011.98553553503,None,"throw
",2011.98553553503,None,return,1.4370486719999462,2012.068699853029,None,,,,,,,,,,,,,,,,,,,,,,,,,,,,,,,,,29,001,2023_Feb_22_1134,SpeechDraft1Carolyn_lessNoise_PlusLocalization,2021.2.3,60.070455306357005,
cope.wav,cope.mpg,cope,6,AV,Pink_Noise_6_1.wav,Pink_Noise_6_2.wav,,,,,,,,,,,,,,,0,5,5,69,,,,,,,,,,,,,,,,,,,,,,,2013.5354573020013,None,2015.0352433410008,None,2016.4187023650156,None,cope,2016.4187023650156,None,return,0.8997260659234598,2016.5020694950363,None,,,,,,,,,,,,,,,,,,,,,,,,,,,,,,,,,29,001,2023_Feb_22_1134,SpeechDraft1Carolyn_lessNoise_PlusLocalization,2021.2.3,60.070455306357005,
brand.wav,brand.mpg,brand,5,A,Pink_Noise_5_1.wav,Pink_Noise_5_2.wav,,,,,,,,,,,,,,,0,6,6,32,,,,,,,,,,,,,,,,,,,,,,,2017.4187761660432,None,2018.9185285359854,None,2020.302151023061,None,brand,2020.302151023061,None,return,1.4884772379882634,2020.3853511590278,None,,,,,,,,,,,,,,,,,,,,,,,,,,,,,,,,,29,001,2023_Feb_22_1134,SpeechDraft1Carolyn_lessNoise_PlusLocalization,2021.2.3,60.070455306357005,
gang.wav,gang.mpg,gang,6,A,Pink_Noise_6_1.wav,Pink_Noise_6_2.wav,,,,,,,,,,,,,,,0,7,7,49,,,,,,,,,,,,,,,,,,,,,,,2021.9020230880706,None,2023.4017552350415,None,2024.7687124200165,None,wind,2024.7687124200165,None,return,0.42948806297499686,2024.8522939180257,None,,,,,,,,,,,,,,,,,,,,,,,,,,,,,,,,,29,001,2023_Feb_22_1134,SpeechDraft1Carolyn_lessNoise_PlusLocalization,2021.2.3,60.070455306357005,
brief.wav,brief.mpg,brief,4,A,Pink_Noise_4_1.wav,Pink_Noise_4_2.wav,,,,,,,,,,,,,,,0,8,8,1,,,,,,,,,,,,,,,,,,,,,,,2025.3021283179987,None,2026.7851664359914,None,2028.16872284899,None,breathe,2028.16872284899,None,return,4.653664328972809,2028.2520763979992,None,,,,,,,,,,,,,,,,,,,,,,,,,,,,,,,,,29,001,2023_Feb_22_1134,SpeechDraft1Carolyn_lessNoise_PlusLocalization,2021.2.3,60.070455306357005,
chore.wav,chore.mpg,chore,2,AV,Pink_Noise_2_1.wav,Pink_Noise_2_2.wav,,,,,,,,,,,,,,,0,9,9,85,,,,,,,,,,,,,,,,,,,,,,,2032.9354210010497,None,2034.43515764107,None,2035.8186326320283,None,"chore
",2035.8186326320283,None,return,2.835609792964533,2035.902138127014,None,,,,,,,,,,,,,,,,,,,,,,,,,,,,,,,,,29,001,2023_Feb_22_1134,SpeechDraft1Carolyn_lessNoise_PlusLocalization,2021.2.3,60.070455306357005,
dock.wav,dock.mpg,dock,4,AV,Pink_Noise_4_1.wav,Pink_Noise_4_2.wav,,,,,,,,,,,,,,,0,10,10,60,,,,,,,,,,,,,,,,,,,,,,,2038.7687302799895,None,2040.2524192490382,None,2041.6353845440317,None,socl,2041.6353845440317,None,return,1.2429723200621083,2041.7187537869904,None,,,,,,,,,,,,,,,,,,,,,,,,,,,,,,,,,29,001,2023_Feb_22_1134,SpeechDraft1Carolyn_lessNoise_PlusLocalization,2021.2.3,60.070455306357005,
fool.wav,fool.mpg,fool,4,AV,Pink_Noise_4_1.wav,Pink_Noise_4_2.wav,,,,,,,,,,,,,,,0,11,11,78,,,,,,,,,,,,,,,,,,,,,,,2042.9854399220785,None,2044.485278510023,None,2045.868777743075,None,"fool
",2045.868777743075,None,return,3.1536227670731023,2045.9521148849744,None,,,,,,,,,,,,,,,,,,,,,,,,,,,,,,,,,29,001,2023_Feb_22_1134,SpeechDraft1Carolyn_lessNoise_PlusLocalization,2021.2.3,60.070455306357005,
claim.wav,claim.mpg,claim,4,A,Pink_Noise_4_1.wav,Pink_Noise_4_2.wav,,,,,,,,,,,,,,,0,12,12,14,,,,,,,,,,,,,,,,,,,,,,,2049.135449238005,None,2050.6354632590665,None,2052.018841708079,None,claim,2052.018841708079,None,return,1.6596548369852826,2052.102062523016,None,,,,,,,,,,,,,,,,,,,,,,,,,,,,,,,,,29,001,2023_Feb_22_1134,SpeechDraft1Carolyn_lessNoise_PlusLocalization,2021.2.3,60.070455306357005,
bowl.wav,bowl.mpg,bowl,1,AV,Pink_Noise_1_1.wav,Pink_Noise_1_2.wav,,,,,,,,,,,,,,,0,13,13,100,,,,,,,,,,,,,,,,,,,,,,,2053.7854664389743,None,2055.285166403046,None,2056.66881225002,None,"bow;
",2056.66881225002,None,return,1.8176380429649726,2056.7521239820635,None,,,,,,,,,,,,,,,,,,,,,,,,,,,,,,,,,29,001,2023_Feb_22_1134,SpeechDraft1Carolyn_lessNoise_PlusLocalization,2021.2.3,60.070455306357005,
die.wav,die.mpg,die,6,AV,Pink_Noise_6_1.wav,Pink_Noise_6_2.wav,,,,,,,,,,,,,,,0,14,14,108,,,,,,,,,,,,,,,,,,,,,,,2058.602130033076,None,2060.0858011799864,None,2061.4686832430307,None,sigh,2061.4686832430307,None,return,3.2737482839729637,2061.552101867972,None,,,,,,,,,,,,,,,,,,,,,,,,,,,,,,,,,29,001,2023_Feb_22_1134,SpeechDraft1Carolyn_lessNoise_PlusLocalization,2021.2.3,60.070455306357005,
cone.wav,cone.mpg,cone,6,A,Pink_Noise_6_1.wav,Pink_Noise_6_2.wav,,,,,,,,,,,,,,,0,15,15,22,,,,,,,,,,,,,,,,,,,,,,,2064.852143896045,None,2066.351948139025,None,2067.735628999071,None,wind,2067.735628999071,None,return,0.9269692179514095,2067.8187579910737,None,,,,,,,,,,,,,,,,,,,,,,,,,,,,,,,,,29,001,2023_Feb_22_1134,SpeechDraft1Carolyn_lessNoise_PlusLocalization,2021.2.3,60.070455306357005,
grief.wav,grief.mpg,grief,2,AV,Pink_Noise_2_1.wav,Pink_Noise_2_2.wav,,,,,,,,,,,,,,,0,16,16,77,,,,,,,,,,,,,,,,,,,,,,,2068.768815685995,None,2070.2534868350485,None,2071.635344934999,None,grief,2071.635344934999,None,return,4.4589151398977265,2071.718812323059,None,,,,,,,,,,,,,,,,,,,,,,,,,,,,,,,,,29,001,2023_Feb_22_1134,SpeechDraft1Carolyn_lessNoise_PlusLocalization,2021.2.3,60.070455306357005,
draft.wav,draft.mpg,draft,2,AV,Pink_Noise_2_1.wav,Pink_Noise_2_2.wav,,,,,,,,,,,,,,,0,17,17,104,,,,,,,,,,,,,,,,,,,,,,,2076.2021837569773,None,2077.70195389702,None,2079.0854389349697,None,draft,2079.0854389349697,None,return,3.8570248030591756,2079.168840095983,None,,,,,,,,,,,,,,,,,,,,,,,,,,,,,,,,,29,001,2023_Feb_22_1134,SpeechDraft1Carolyn_lessNoise_PlusLocalization,2021.2.3,60.070455306357005,
doll.wav,doll.mpg,doll,1,A,Pink_Noise_1_1.wav,Pink_Noise_1_2.wav,,,,,,,,,,,,,,,0,18,18,8,,,,,,,,,,,,,,,,,,,,,,,2083.052155992016,None,2084.5518466640497,None,2085.935686073033,None,doll,2085.935686073033,None,return,1.3990552889881656,2086.01878859906,None,,,,,,,,,,,,,,,,,,,,,,,,,,,,,,,,,29,001,2023_Feb_22_1134,SpeechDraft1Carolyn_lessNoise_PlusLocalization,2021.2.3,60.070455306357005,
fist.wav,fist.mpg,fist,3,AV,Pink_Noise_3_1.wav,Pink_Noise_3_2.wav,,,,,,,,,,,,,,,0,19,19,83,,,,,,,,,,,,,,,,,,,,,,,2087.435515230987,None,2088.9352960420074,None,2090.3020928710466,None,fist,2090.3020928710466,None,return,1.5119719280628487,2090.3858164680423,None,,,,,,,,,,,,,,,,,,,,,,,,,,,,,,,,,29,001,2023_Feb_22_1134,SpeechDraft1Carolyn_lessNoise_PlusLocalization,2021.2.3,60.070455306357005,
broil.wav,broil.mpg,broil,2,AV,Pink_Noise_2_1.wav,Pink_Noise_2_2.wav,,,,,,,,,,,,,,,0,20,20,117,,,,,,,,,,,,,,,,,,,,,,,2091.918994222069,None,2093.418778581079,None,2094.802065773052,None,broil,2094.802065773052,None,return,7.948256745003164,2094.885514485999,None,,,,,,,,,,,,,,,,,,,,,,,,,,,,,,,,,29,001,2023_Feb_22_1134,SpeechDraft1Carolyn_lessNoise_PlusLocalization,2021.2.3,60.070455306357005,
grown.wav,grown.mpg,grown,4,A,Pink_Noise_4_1.wav,Pink_Noise_4_2.wav,,,,,,,,,,,,,,,0,21,21,5,,,,,,,,,,,,,,,,,,,,,,,2102.8524645529687,None,2104.351953517995,None,2105.7188861310715,None,row,2105.7188861310715,None,return,1.3594482219778001,2105.8022850770503,None,,,,,,,,,,,,,,,,,,,,,,,,,,,,,,,,,29,001,2023_Feb_22_1134,SpeechDraft1Carolyn_lessNoise_PlusLocalization,2021.2.3,60.070455306357005,
flake.wav,flake.mpg,flake,3,A,Pink_Noise_3_1.wav,Pink_Noise_3_2.wav,,,,,,,,,,,,,,,0,22,22,44,,,,,,,,,,,,,,,,,,,,,,,2107.185518783983,None,2108.6850938510615,None,2110.0689068880165,None,flake,2110.0689068880165,None,return,1.937504236935638,2110.152229059022,None,,,,,,,,,,,,,,,,,,,,,,,,,,,,,,,,,29,001,2023_Feb_22_1134,SpeechDraft1Carolyn_lessNoise_PlusLocalization,2021.2.3,60.070455306357005,
broke.wav,broke.mpg,broke,5,A,Pink_Noise_5_1.wav,Pink_Noise_5_2.wav,,,,,,,,,,,,,,,0,23,23,41,,,,,,,,,,,,,,,,,,,,,,,2112.118886913988,None,2113.6026891419897,None,2114.985582788009,None,birth,2114.985582788009,None,return,27.13294225197751,2115.068875345052,None,,,,,,,,,,,,,,,,,,,,,,,,,,,,,,,,,29,001,2023_Feb_22_1134,SpeechDraft1Carolyn_lessNoise_PlusLocalization,2021.2.3,60.070455306357005,
layer.wav,layer.mpg,layer,2,AV,Pink_Noise_2_1.wav,Pink_Noise_2_2.wav,,,,,,,,,,,,,,,0,24,24,74,,,,,,,,,,,,,,,,,,,,,,,2142.2189119440736,None,2143.7189070939785,None,2145.1021284030285,None,layer,2145.1021284030285,None,return,3.5121534359641373,2145.1856151380343,None,,,,,,,,,,,,,,,,,,,,,,,,,,,,,,,,,29,001,2023_Feb_22_1134,SpeechDraft1Carolyn_lessNoise_PlusLocalization,2021.2.3,60.070455306357005,
clerk.wav,clerk.mpg,clerk,6,A,Pink_Noise_6_1.wav,Pink_Noise_6_2.wav,,,,,,,,,,,,,,,0,25,25,48,,,,,,,,,,,,,,,,,,,,,,,2148.718956511002,None,2150.203094793018,None,2151.5857820319943,None,wit,2151.5857820319943,None,return,1.7969299509422854,2151.668878891971,None,,,,,,,,,,,,,,,,,,,,,,,,,,,,,,,,,29,001,2023_Feb_22_1134,SpeechDraft1Carolyn_lessNoise_PlusLocalization,2021.2.3,60.070455306357005,
grim.wav,grim.mpg,grim,4,AV,Pink_Noise_4_1.wav,Pink_Noise_4_2.wav,,,,,,,,,,,,,,,0,26,26,109,,,,,,,,,,,,,,,,,,,,,,,2153.4855242919875,None,2154.985249810037,None,2156.3690427680267,None,grape,2156.3690427680267,None,return,3.3414341320749372,2156.452281572041,None,,,,,,,,,,,,,,,,,,,,,,,,,,,,,,,,,29,001,2023_Feb_22_1134,SpeechDraft1Carolyn_lessNoise_PlusLocalization,2021.2.3,60.070455306357005,
cheek.wav,cheek.mpg,cheek,1,A,Pink_Noise_1_1.wav,Pink_Noise_1_2.wav,,,,,,,,,,,,,,,0,27,27,46,,,,,,,,,,,,,,,,,,,,,,,2159.819035434979,None,2161.302993979072,None,2162.685639825999,None,cheek,2162.685639825999,None,return,1.6327452369732782,2162.7690698080696,None,,,,,,,,,,,,,,,,,,,,,,,,,,,,,,,,,29,001,2023_Feb_22_1134,SpeechDraft1Carolyn_lessNoise_PlusLocalization,2021.2.3,60.070455306357005,
chick.wav,chick.mpg,chick,5,A,Pink_Noise_5_1.wav,Pink_Noise_5_2.wav,,,,,,,,,,,,,,,0,28,28,38,,,,,,,,,,,,,,,,,,,,,,,2164.4189433109714,None,2165.903674068046,None,2167.2856549350545,None,chin,2167.2856549350545,None,return,1.096895945025608,2167.3689498000313,None,,,,,,,,,,,,,,,,,,,,,,,,,,,,,,,,,29,001,2023_Feb_22_1134,SpeechDraft1Carolyn_lessNoise_PlusLocalization,2021.2.3,60.070455306357005,
film.wav,film.mpg,film,3,AV,Pink_Noise_3_1.wav,Pink_Noise_3_2.wav,,,,,,,,,,,,,,,0,29,29,71,,,,,,,,,,,,,,,,,,,,,,,2168.4856244910043,None,2169.985448952066,None,2171.3522192770615,None,film,2171.3522192770615,None,return,8.542073848075233,2171.4356541910674,None,,,,,,,,,,,,,,,,,,,,,,,,,,,,,,,,,29,001,2023_Feb_22_1134,SpeechDraft1Carolyn_lessNoise_PlusLocalization,2021.2.3,60.070455306357005,
crypt.wav,crypt.mpg,crypt,4,AV,Pink_Noise_4_1.wav,Pink_Noise_4_2.wav,,,,,,,,,,,,,,,0,30,30,80,,,,,,,,,,,,,,,,,,,,,,,2180.002323645982,None,2181.5020418340573,None,2182.90213185607,None,cript,2182.90213185607,None,return,10.624757115030661,2182.968970186077,None,,,,,,,,,,,,,,,,,,,,,,,,,,,,,,,,,29,001,2023_Feb_22_1134,SpeechDraft1Carolyn_lessNoise_PlusLocalization,2021.2.3,60.070455306357005,
eat.wav,eat.mpg,eat,4,A,Pink_Noise_4_1.wav,Pink_Noise_4_2.wav,,,,,,,,,,,,,,,0,31,31,23,,,,,,,,,,,,,,,,,,,,,,,2193.618930479046,None,2195.1031666579656,None,2196.4856979650212,None,eat,2196.4856979650212,None,return,1.0647902339696884,2196.5689932480454,None,,,,,,,,,,,,,,,,,,,,,,,,,,,,,,,,,29,001,2023_Feb_22_1134,SpeechDraft1Carolyn_lessNoise_PlusLocalization,2021.2.3,60.070455306357005,
flirt.wav,flirt.mpg,flirt,6,A,Pink_Noise_6_1.wav,Pink_Noise_6_2.wav,,,,,,,,,,,,,,,0,32,32,40,,,,,,,,,,,,,,,,,,,,,,,2197.652272270061,None,2199.1522865790175,None,2200.535648606019,None,wit,2200.535648606019,None,return,0.7826788409147412,2200.6191513810772,None,,,,,,,,,,,,,,,,,,,,,,,,,,,,,,,,,29,001,2023_Feb_22_1134,SpeechDraft1Carolyn_lessNoise_PlusLocalization,2021.2.3,60.070455306357005,
fetch.wav,fetch.mpg,fetch,2,A,Pink_Noise_2_1.wav,Pink_Noise_2_2.wav,,,,,,,,,,,,,,,0,33,33,42,,,,,,,,,,,,,,,,,,,,,,,2201.4190202050377,None,2202.9187345270766,None,2204.2856875560246,None,fetch,2204.2856875560246,None,return,1.592682656017132,2204.369099230971,None,,,,,,,,,,,,,,,,,,,,,,,,,,,,,,,,,29,001,2023_Feb_22_1134,SpeechDraft1Carolyn_lessNoise_PlusLocalization,2021.2.3,60.070455306357005,
grass.wav,grass.mpg,grass,1,AV,Pink_Noise_1_1.wav,Pink_Noise_1_2.wav,,,,,,,,,,,,,,,0,34,34,64,,,,,,,,,,,,,,,,,,,,,,,2205.985809036996,None,2207.4854793599807,None,2208.868924723007,None,grass,2208.868924723007,None,return,1.449466613936238,2208.9523669220507,None,,,,,,,,,,,,,,,,,,,,,,,,,,,,,,,,,29,001,2023_Feb_22_1134,SpeechDraft1Carolyn_lessNoise_PlusLocalization,2021.2.3,60.070455306357005,
pop.wav,pop.mpg,pop,1,A,Pink_Noise_1_1.wav,Pink_Noise_1_2.wav,,,,,,,,,,,,,,,0,35,35,37,,,,,,,,,,,,,,,,,,,,,,,2210.419074053061,None,2211.918695057975,None,2213.3024365489837,None,pot,2213.3024365489837,None,return,0.9592908540507779,2213.4024270840455,None,,,,,,,,,,,,,,,,,,,,,,,,,,,,,,,,,29,001,2023_Feb_22_1134,SpeechDraft1Carolyn_lessNoise_PlusLocalization,2021.2.3,60.070455306357005,
unit.wav,unit.mpg,unit,3,AV,Pink_Noise_3_1.wav,Pink_Noise_3_2.wav,,,,,,,,,,,,,,,0,36,36,87,,,,,,,,,,,,,,,,,,,,,,,2214.3858292520745,None,2215.8853437450016,None,2217.2689934039954,None,unit,2217.2689934039954,None,return,3.9293936169706285,2217.352361925994,None,,,,,,,,,,,,,,,,,,,,,,,,,,,,,,,,,29,001,2023_Feb_22_1134,SpeechDraft1Carolyn_lessNoise_PlusLocalization,2021.2.3,60.070455306357005,
blink.wav,blink.mpg,blink,1,AV,Pink_Noise_1_1.wav,Pink_Noise_1_2.wav,,,,,,,,,,,,,,,0,37,37,113,,,,,,,,,,,,,,,,,,,,,,,2221.3023277759785,None,2222.802027616068,None,2224.168909183005,None,blink,2224.168909183005,None,return,3.2135179059114307,2224.2523466739804,None,,,,,,,,,,,,,,,,,,,,,,,,,,,,,,,,,29,001,2023_Feb_22_1134,SpeechDraft1Carolyn_lessNoise_PlusLocalization,2021.2.3,60.070455306357005,
route.wav,route.mpg,route,4,AV,Pink_Noise_4_1.wav,Pink_Noise_4_2.wav,,,,,,,,,,,,,,,0,38,38,72,,,,,,,,,,,,,,,,,,,,,,,2227.48571315303,None,2228.9855049930047,None,2230.36882358999,None,"woot
",2230.36882358999,None,return,1.8533978499472141,2230.452342070057,None,,,,,,,,,,,,,,,,,,,,,,,,,,,,,,,,,29,001,2023_Feb_22_1134,SpeechDraft1Carolyn_lessNoise_PlusLocalization,2021.2.3,60.070455306357005,
gush.wav,gush.mpg,gush,2,AV,Pink_Noise_2_1.wav,Pink_Noise_2_2.wav,,,,,,,,,,,,,,,0,39,39,68,,,,,,,,,,,,,,,,,,,,,,,2232.335699894,None,2233.835536199971,None,2235.2192799120676,None,gush,2235.2192799120676,None,return,10.499359642039053,2235.302433746052,None,,,,,,,,,,,,,,,,,,,,,,,,,,,,,,,,,29,001,2023_Feb_22_1134,SpeechDraft1Carolyn_lessNoise_PlusLocalization,2021.2.3,60.070455306357005,
pride.wav,pride.mpg,pride,6,AV,Pink_Noise_6_1.wav,Pink_Noise_6_2.wav,,,,,,,,,,,,,,,0,40,40,91,,,,,,,,,,,,,,,,,,,,,,,2245.8191919910023,None,2247.318903616979,None,2248.702339658048,None,rju,2248.702339658048,None,return,5.296074867947027,2248.7856840280583,None,,,,,,,,,,,,,,,,,,,,,,,,,,,,,,,,,29,001,2023_Feb_22_1134,SpeechDraft1Carolyn_lessNoise_PlusLocalization,2021.2.3,60.070455306357005,
spray.wav,spray.mpg,spray,5,A,Pink_Noise_5_1.wav,Pink_Noise_5_2.wav,,,,,,,,,,,,,,,0,41,41,57,,,,,,,,,,,,,,,,,,,,,,,2254.102343886043,None,2255.5872148940107,None,2256.969183720066,None,respond,2256.969183720066,None,return,2.549382350058295,2257.0524079030147,None,,,,,,,,,,,,,,,,,,,,,,,,,,,,,,,,,29,001,2023_Feb_22_1134,SpeechDraft1Carolyn_lessNoise_PlusLocalization,2021.2.3,60.070455306357005,
druid.wav,druid.mpg,druid,5,AV,Pink_Noise_5_1.wav,Pink_Noise_5_2.wav,,,,,,,,,,,,,,,0,42,42,98,,,,,,,,,,,,,,,,,,,,,,,2259.6191699180054,None,2261.118707193993,None,2262.502368204994,None,jewel,2262.502368204994,None,return,1.392077210941352,2262.5856756609865,None,,,,,,,,,,,,,,,,,,,,,,,,,,,,,,,,,29,001,2023_Feb_22_1134,SpeechDraft1Carolyn_lessNoise_PlusLocalization,2021.2.3,60.070455306357005,
den.wav,den.mpg,den,6,A,Pink_Noise_6_1.wav,Pink_Noise_6_2.wav,,,,,,,,,,,,,,,0,43,43,36,,,,,,,,,,,,,,,,,,,,,,,2264.002482366981,None,2265.5021805010037,None,2266.8693273420213,None,flame,2266.8693273420213,None,return,1.8412494560470805,2266.952478560037,None,,,,,,,,,,,,,,,,,,,,,,,,,,,,,,,,,29,001,2023_Feb_22_1134,SpeechDraft1Carolyn_lessNoise_PlusLocalization,2021.2.3,60.070455306357005,
bottle.wav,bottle.mpg,bottle,4,A,Pink_Noise_4_1.wav,Pink_Noise_4_2.wav,,,,,,,,,,,,,,,0,44,44,12,,,,,,,,,,,,,,,,,,,,,,,2268.819091629004,None,2270.3188104639994,None,2271.702408090001,None,fire,2271.702408090001,None,return,0.7120201020734385,2271.785726597067,None,,,,,,,,,,,,,,,,,,,,,,,,,,,,,,,,,29,001,2023_Feb_22_1134,SpeechDraft1Carolyn_lessNoise_PlusLocalization,2021.2.3,60.070455306357005,
clue.wav,clue.mpg,clue,6,AV,Pink_Noise_6_1.wav,Pink_Noise_6_2.wav,,,,,,,,,,,,,,,0,45,45,118,,,,,,,,,,,,,,,,,,,,,,,2272.5194198089885,None,2274.0188271510415,None,2275.402352018049,None,cliue,2275.402352018049,None,return,0.9560635699890554,2275.4857481709914,None,,,,,,,,,,,,,,,,,,,,,,,,,,,,,,,,,29,001,2023_Feb_22_1134,SpeechDraft1Carolyn_lessNoise_PlusLocalization,2021.2.3,60.070455306357005,
bear.wav,bear.mpg,bear,2,AV,Pink_Noise_2_1.wav,Pink_Noise_2_2.wav,,,,,,,,,,,,,,,0,46,46,90,,,,,,,,,,,,,,,,,,,,,,,2276.4691358089913,None,2277.9689471069723,None,2279.35233574803,None,"bare
",2279.35233574803,None,return,0.5339701150078326,2279.4357696949737,None,,,,,,,,,,,,,,,,,,,,,,,,,,,,,,,,,29,001,2023_Feb_22_1134,SpeechDraft1Carolyn_lessNoise_PlusLocalization,2021.2.3,60.070455306357005,
dive.wav,dive.mpg,dive,1,A,Pink_Noise_1_1.wav,Pink_Noise_1_2.wav,,,,,,,,,,,,,,,0,47,47,10,,,,,,,,,,,,,,,,,,,,,,,2280.002418901073,None,2281.502043895074,None,2282.886962395045,None,dive,2282.886962395045,None,return,0.632593231042847,2282.969270772999,None,,,,,,,,,,,,,,,,,,,,,,,,,,,,,,,,,29,001,2023_Feb_22_1134,SpeechDraft1Carolyn_lessNoise_PlusLocalization,2021.2.3,60.070455306357005,
dirt.wav,dirt.mpg,dirt,2,A,Pink_Noise_2_1.wav,Pink_Noise_2_2.wav,,,,,,,,,,,,,,,0,48,48,39,,,,,,,,,,,,,,,,,,,,,,,2283.6191240859916,None,2285.1188567130594,None,2286.4870317389723,None,djirt,2286.4870317389723,None,return,7.832748429966159,2286.5690747840563,None,,,,,,,,,,,,,,,,,,,,,,,,,,,,,,,,,29,001,2023_Feb_22_1134,SpeechDraft1Carolyn_lessNoise_PlusLocalization,2021.2.3,60.070455306357005,
bye.wav,bye.mpg,bye,2,AV,Pink_Noise_2_1.wav,Pink_Noise_2_2.wav,,,,,,,,,,,,,,,0,49,49,89,,,,,,,,,,,,,,,,,,,,,,,2294.4191241150256,None,2295.9188801940763,None,2297.302447631024,None,buiyt,2297.302447631024,None,return,8.832103304914199,2297.385743726045,None,,,,,,,,,,,,,,,,,,,,,,,,,,,,,,,,,29,001,2023_Feb_22_1134,SpeechDraft1Carolyn_lessNoise_PlusLocalization,2021.2.3,60.070455306357005,
glass.wav,glass.mpg,glass,3,AV,Pink_Noise_3_1.wav,Pink_Noise_3_2.wav,,,,,,,,,,,,,,,0,50,50,111,,,,,,,,,,,,,,,,,,,,,,,2306.235786081059,None,2307.735770544037,None,2309.1190333859995,None,glass,2309.1190333859995,None,return,4.527261397917755,2309.2024682720657,None,,,,,,,,,,,,,,,,,,,,,,,,,,,,,,,,,29,001,2023_Feb_22_1134,SpeechDraft1Carolyn_lessNoise_PlusLocalization,2021.2.3,60.070455306357005,
sue.wav,sue.mpg,sue,1,AV,Pink_Noise_1_1.wav,Pink_Noise_1_2.wav,,,,,,,,,,,,,,,0,51,51,114,,,,,,,,,,,,,,,,,,,,,,,2313.7525132209994,None,2315.252412077971,None,2316.6357864320744,None,"sue
",2316.6357864320744,None,return,2.218590265023522,2316.719169707969,None,,,,,,,,,,,,,,,,,,,,,,,,,,,,,,,,,29,001,2023_Feb_22_1134,SpeechDraft1Carolyn_lessNoise_PlusLocalization,2021.2.3,60.070455306357005,
hug.wav,hug.mpg,hug,6,A,Pink_Noise_6_1.wav,Pink_Noise_6_2.wav,,,,,,,,,,,,,,,0,52,52,11,,,,,,,,,,,,,,,,,,,,,,,2318.9692033709725,None,2320.4689673190005,None,2321.852723672986,None,plane,2321.852723672986,None,return,1.2899339840514585,2321.935889462009,None,,,,,,,,,,,,,,,,,,,,,,,,,,,,,,,,,29,001,2023_Feb_22_1134,SpeechDraft1Carolyn_lessNoise_PlusLocalization,2021.2.3,60.070455306357005,
coup.wav,coup.mpg,coup,2,A,Pink_Noise_2_1.wav,Pink_Noise_2_2.wav,,,,,,,,,,,,,,,0,53,53,0,,,,,,,,,,,,,,,,,,,,,,,2323.252534424071,None,2324.7523446619743,None,2326.1191834440688,None,cue,2326.1191834440688,None,return,1.0633771179709584,2326.20246350707,None,,,,,,,,,,,,,,,,,,,,,,,,,,,,,,,,,29,001,2023_Feb_22_1134,SpeechDraft1Carolyn_lessNoise_PlusLocalization,2021.2.3,60.070455306357005,
blood.wav,blood.mpg,blood,3,A,Pink_Noise_3_1.wav,Pink_Noise_3_2.wav,,,,,,,,,,,,,,,0,54,54,47,,,,,,,,,,,,,,,,,,,,,,,2327.285804301966,None,2328.7855580620235,None,2330.169213404064,None,flood,2330.169213404064,None,return,1.3412454860517755,2330.2524958020076,None,,,,,,,,,,,,,,,,,,,,,,,,,,,,,,,,,29,001,2023_Feb_22_1134,SpeechDraft1Carolyn_lessNoise_PlusLocalization,2021.2.3,60.070455306357005,
crowd.wav,crowd.mpg,crowd,5,A,Pink_Noise_5_1.wav,Pink_Noise_5_2.wav,,,,,,,,,,,,,,,0,55,55,59,,,,,,,,,,,,,,,,,,,,,,,2331.6191775200423,None,2333.1189201100497,None,2334.485849671066,None,far,2334.485849671066,None,return,0.8246393960434943,2334.569141163025,None,,,,,,,,,,,,,,,,,,,,,,,,,,,,,,,,,29,001,2023_Feb_22_1134,SpeechDraft1Carolyn_lessNoise_PlusLocalization,2021.2.3,60.070455306357005,
coal.wav,coal.mpg,coal,3,A,Pink_Noise_3_1.wav,Pink_Noise_3_2.wav,,,,,,,,,,,,,,,0,56,56,50,,,,,,,,,,,,,,,,,,,,,,,2335.4191554599674,None,2336.918988022022,None,2338.302407308016,None,"coal
",2338.302407308016,None,return,4.751899057999253,2338.3858541470254,None,,,,,,,,,,,,,,,,,,,,,,,,,,,,,,,,,29,001,2023_Feb_22_1134,SpeechDraft1Carolyn_lessNoise_PlusLocalization,2021.2.3,60.070455306357005,
batch.wav,batch.mpg,batch,6,AV,Pink_Noise_6_1.wav,Pink_Noise_6_2.wav,,,,,,,,,,,,,,,0,57,57,103,,,,,,,,,,,,,,,,,,,,,,,2343.169143824023,None,2344.6855753459968,None,2346.0525573950727,None,match,2346.0525573950727,None,return,1.8099211929365993,2346.135871071019,None,,,,,,,,,,,,,,,,,,,,,,,,,,,,,,,,,29,001,2023_Feb_22_1134,SpeechDraft1Carolyn_lessNoise_PlusLocalization,2021.2.3,60.070455306357005,
float.wav,float.mpg,float,6,AV,Pink_Noise_6_1.wav,Pink_Noise_6_2.wav,,,,,,,,,,,,,,,0,58,58,65,,,,,,,,,,,,,,,,,,,,,,,2347.969161082059,None,2349.4690035100793,None,2350.852499254048,None,float,2350.852499254048,None,return,1.689943811041303,2350.9359030550113,None,,,,,,,,,,,,,,,,,,,,,,,,,,,,,,,,,29,001,2023_Feb_22_1134,SpeechDraft1Carolyn_lessNoise_PlusLocalization,2021.2.3,60.070455306357005,
fear.wav,fear.mpg,fear,4,AV,Pink_Noise_4_1.wav,Pink_Noise_4_2.wav,,,,,,,,,,,,,,,0,59,59,70,,,,,,,,,,,,,,,,,,,,,,,2352.652630074066,None,2354.152426225017,None,2355.5358071200317,None,feer,2355.5358071200317,None,return,1.1265114130219445,2355.6192074420396,None,,,,,,,,,,,,,,,,,,,,,,,,,,,,,,,,,29,001,2023_Feb_22_1134,SpeechDraft1Carolyn_lessNoise_PlusLocalization,2021.2.3,60.070455306357005,
awe.wav,awe.mpg,awe,1,AV,Pink_Noise_1_1.wav,Pink_Noise_1_2.wav,,,,,,,,,,,,,,,0,60,60,97,,,,,,,,,,,,,,,,,,,,,,,2356.769215864013,None,2358.2691316240234,None,2359.652627057978,None,awe,2359.652627057978,None,return,5.337833616998978,2359.7358931889758,None,,,,,,,,,,,,,,,,,,,,,,,,,,,,,,,,,29,001,2023_Feb_22_1134,SpeechDraft1Carolyn_lessNoise_PlusLocalization,2021.2.3,60.070455306357005,
roar.wav,roar.mpg,roar,3,AV,Pink_Noise_3_1.wav,Pink_Noise_3_2.wav,,,,,,,,,,,,,,,0,61,61,66,,,,,,,,,,,,,,,,,,,,,,,2365.1025407480774,None,2366.6022868129658,None,2367.985856909072,None,raur,2367.985856909072,None,return,3.228578913025558,2368.0691804969683,None,,,,,,,,,,,,,,,,,,,,,,,,,,,,,,,,,29,001,2023_Feb_22_1134,SpeechDraft1Carolyn_lessNoise_PlusLocalization,2021.2.3,60.070455306357005,
blond.wav,blond.mpg,blond,6,AV,Pink_Noise_6_1.wav,Pink_Noise_6_2.wav,,,,,,,,,,,,,,,0,62,62,105,,,,,,,,,,,,,,,,,,,,,,,2371.3194118170068,None,2372.819282436976,None,2374.2026754660765,None,flood,2374.2026754660765,None,return,3.747902055969462,2374.2858508949867,None,,,,,,,,,,,,,,,,,,,,,,,,,,,,,,,,,29,001,2023_Feb_22_1134,SpeechDraft1Carolyn_lessNoise_PlusLocalization,2021.2.3,60.070455306357005,
grin.wav,grin.mpg,grin,1,A,Pink_Noise_1_1.wav,Pink_Noise_1_2.wav,,,,,,,,,,,,,,,0,63,63,20,,,,,,,,,,,,,,,,,,,,,,,2378.052565456019,None,2379.5523031110642,None,2380.937055509072,None,grim,2380.937055509072,None,return,4.062263806001283,2381.019497493049,None,,,,,,,,,,,,,,,,,,,,,,,,,,,,,,,,,29,001,2023_Feb_22_1134,SpeechDraft1Carolyn_lessNoise_PlusLocalization,2021.2.3,60.070455306357005,
dumb.wav,dumb.mpg,dumb,3,AV,Pink_Noise_3_1.wav,Pink_Noise_3_2.wav,,,,,,,,,,,,,,,0,64,64,82,,,,,,,,,,,,,,,,,,,,,,,2385.102564076078,None,2386.602320390055,None,2387.9858537659748,None,"dum
",2387.9858537659748,None,return,8.884495748905465,2388.0692403910216,None,,,,,,,,,,,,,,,,,,,,,,,,,,,,,,,,,29,001,2023_Feb_22_1134,SpeechDraft1Carolyn_lessNoise_PlusLocalization,2021.2.3,60.070455306357005,
chat.wav,chat.mpg,chat,3,A,Pink_Noise_3_1.wav,Pink_Noise_3_2.wav,,,,,,,,,,,,,,,0,65,65,58,,,,,,,,,,,,,,,,,,,,,,,2396.9859254480107,None,2398.485816253,None,2399.8693242609734,None,"chat
",2399.8693242609734,None,return,1.1371893930481747,2399.952538780053,None,,,,,,,,,,,,,,,,,,,,,,,,,,,,,,,,,29,001,2023_Feb_22_1134,SpeechDraft1Carolyn_lessNoise_PlusLocalization,2021.2.3,60.070455306357005,
edge.wav,edge.mpg,edge,2,A,Pink_Noise_2_1.wav,Pink_Noise_2_2.wav,,,,,,,,,,,,,,,0,66,66,27,,,,,,,,,,,,,,,,,,,,,,,2401.1193985330174,None,2402.6191343710525,None,2404.002779759001,None,esge,2404.002779759001,None,return,1.4998829769901931,2404.085929083987,None,,,,,,,,,,,,,,,,,,,,,,,,,,,,,,,,,29,001,2023_Feb_22_1134,SpeechDraft1Carolyn_lessNoise_PlusLocalization,2021.2.3,60.070455306357005,
born.wav,born.mpg,born,4,A,Pink_Noise_4_1.wav,Pink_Noise_4_2.wav,,,,,,,,,,,,,,,0,67,67,45,,,,,,,,,,,,,,,,,,,,,,,2405.602579446044,None,2407.1025435710326,None,2408.4858600710286,None,for,2408.4858600710286,None,return,1.0884469989687204,2408.5693405469647,None,,,,,,,,,,,,,,,,,,,,,,,,,,,,,,,,,29,001,2023_Feb_22_1134,SpeechDraft1Carolyn_lessNoise_PlusLocalization,2021.2.3,60.070455306357005,
bend.wav,bend.mpg,bend,1,AV,Pink_Noise_1_1.wav,Pink_Noise_1_2.wav,,,,,,,,,,,,,,,0,68,68,81,,,,,,,,,,,,,,,,,,,,,,,2409.6859724400565,None,2411.202343021985,None,2412.585948209977,None,bend,2412.585948209977,None,return,0.6762269149767235,2412.6695033729775,None,,,,,,,,,,,,,,,,,,,,,,,,,,,,,,,,,29,001,2023_Feb_22_1134,SpeechDraft1Carolyn_lessNoise_PlusLocalization,2021.2.3,60.070455306357005,
giant.wav,giant.mpg,giant,5,A,Pink_Noise_5_1.wav,Pink_Noise_5_2.wav,,,,,,,,,,,,,,,0,69,69,7,,,,,,,,,,,,,,,,,,,,,,,2413.369291500072,None,2414.86910885002,None,2416.252741944976,None,fiat,2416.252741944976,None,return,1.1295401429524645,2416.3362891590223,None,,,,,,,,,,,,,,,,,,,,,,,,,,,,,,,,,29,001,2023_Feb_22_1134,SpeechDraft1Carolyn_lessNoise_PlusLocalization,2021.2.3,60.070455306357005,
guilt.wav,guilt.mpg,guilt,4,A,Pink_Noise_4_1.wav,Pink_Noise_4_2.wav,,,,,,,,,,,,,,,0,70,70,2,,,,,,,,,,,,,,,,,,,,,,,2417.4859791010385,None,2418.9857475829776,None,2420.369331335998,None,hiuo;t,2420.369331335998,None,return,1.3091196930035949,2420.4526168870507,None,,,,,,,,,,,,,,,,,,,,,,,,,,,,,,,,,29,001,2023_Feb_22_1134,SpeechDraft1Carolyn_lessNoise_PlusLocalization,2021.2.3,60.070455306357005,
gram.wav,gram.mpg,gram,6,A,Pink_Noise_6_1.wav,Pink_Noise_6_2.wav,,,,,,,,,,,,,,,0,71,71,51,,,,,,,,,,,,,,,,,,,,,,,2421.7860953870695,None,2423.2860166840255,None,2424.6692825200735,None,[;ame,2424.6692825200735,None,return,0.9930410410743207,2424.752676067059,None,,,,,,,,,,,,,,,,,,,,,,,,,,,,,,,,,29,001,2023_Feb_22_1134,SpeechDraft1Carolyn_lessNoise_PlusLocalization,2021.2.3,60.070455306357005,
nine.wav,nine.mpg,nine,3,AV,Pink_Noise_3_1.wav,Pink_Noise_3_2.wav,,,,,,,,,,,,,,,0,72,72,79,,,,,,,,,,,,,,,,,,,,,,,2425.769306779024,None,2427.28628980706,None,2428.6693477709778,None,mome,2428.6693477709778,None,return,1.0332595669897273,2428.7525836119894,None,,,,,,,,,,,,,,,,,,,,,,,,,,,,,,,,,29,001,2023_Feb_22_1134,SpeechDraft1Carolyn_lessNoise_PlusLocalization,2021.2.3,60.070455306357005,
cent.wav,cent.mpg,cent,2,A,Pink_Noise_2_1.wav,Pink_Noise_2_2.wav,,,,,,,,,,,,,,,0,73,73,24,,,,,,,,,,,,,,,,,,,,,,,2429.802636547014,None,2431.30245481804,None,2432.685988090001,None,sent,2432.685988090001,None,return,2.8405433299485594,2432.7693094139686,None,,,,,,,,,,,,,,,,,,,,,,,,,,,,,,,,,29,001,2023_Feb_22_1134,SpeechDraft1Carolyn_lessNoise_PlusLocalization,2021.2.3,60.070455306357005,
flee.wav,flee.mpg,flee,1,A,Pink_Noise_1_1.wav,Pink_Noise_1_2.wav,,,,,,,,,,,,,,,0,74,74,31,,,,,,,,,,,,,,,,,,,,,,,2435.635982205975,None,2437.1357018520357,None,2438.5193308410235,None,lflee,2438.5193308410235,None,return,1.3109059839043766,2438.602844353998,None,,,,,,,,,,,,,,,,,,,,,,,,,,,,,,,,,29,001,2023_Feb_22_1134,SpeechDraft1Carolyn_lessNoise_PlusLocalization,2021.2.3,60.070455306357005,
cruel.wav,cruel.mpg,cruel,2,AV,Pink_Noise_2_1.wav,Pink_Noise_2_2.wav,,,,,,,,,,,,,,,0,75,75,93,,,,,,,,,,,,,,,,,,,,,,,2439.935990915983,None,2441.435780473985,None,2442.8026357339695,None,coo;,2442.8026357339695,None,return,1.8756135529838502,2442.8861563630635,None,,,,,,,,,,,,,,,,,,,,,,,,,,,,,,,,,29,001,2023_Feb_22_1134,SpeechDraft1Carolyn_lessNoise_PlusLocalization,2021.2.3,60.070455306357005,
crown.wav,crown.mpg,crown,3,A,Pink_Noise_3_1.wav,Pink_Noise_3_2.wav,,,,,,,,,,,,,,,0,76,76,43,,,,,,,,,,,,,,,,,,,,,,,2444.786011605989,None,2446.287549545057,None,2447.669263279997,None,corw,2447.669263279997,None,return,1.1049723259638995,2447.752835944062,None,,,,,,,,,,,,,,,,,,,,,,,,,,,,,,,,,29,001,2023_Feb_22_1134,SpeechDraft1Carolyn_lessNoise_PlusLocalization,2021.2.3,60.070455306357005,
bank.wav,bank.mpg,bank,5,AV,Pink_Noise_5_1.wav,Pink_Noise_5_2.wav,,,,,,,,,,,,,,,0,77,77,67,,,,,,,,,,,,,,,,,,,,,,,2448.8861168309813,None,2450.3857181610074,None,2451.769517543027,None,pak,2451.769517543027,None,return,1.1250292849726975,2451.8527047670214,None,,,,,,,,,,,,,,,,,,,,,,,,,,,,,,,,,29,001,2023_Feb_22_1134,SpeechDraft1Carolyn_lessNoise_PlusLocalization,2021.2.3,60.070455306357005,
solve.wav,solve.mpg,solve,6,A,Pink_Noise_6_1.wav,Pink_Noise_6_2.wav,,,,,,,,,,,,,,,0,78,78,21,,,,,,,,,,,,,,,,,,,,,,,2453.0029299149755,None,2454.5190413310193,None,2455.9042551750317,None,floa,2455.9042551750317,None,return,0.5597205340163782,2455.9860463240184,None,,,,,,,,,,,,,,,,,,,,,,,,,,,,,,,,,29,001,2023_Feb_22_1134,SpeechDraft1Carolyn_lessNoise_PlusLocalization,2021.2.3,60.070455306357005,
bug.wav,bug.mpg,bug,3,A,Pink_Noise_3_1.wav,Pink_Noise_3_2.wav,,,,,,,,,,,,,,,0,79,79,9,,,,,,,,,,,,,,,,,,,,,,,2456.569346550037,None,2458.0691095880466,None,2459.452731297002,None,"jkdfsl
",2459.452731297002,None,return,0.6017083189217374,2459.5360439519864,None,,,,,,,,,,,,,,,,,,,,,,,,,,,,,,,,,29,001,2023_Feb_22_1134,SpeechDraft1Carolyn_lessNoise_PlusLocalization,2021.2.3,60.070455306357005,
earn.wav,earn.mpg,earn,5,AV,Pink_Noise_5_1.wav,Pink_Noise_5_2.wav,,,,,,,,,,,,,,,0,80,80,115,,,,,,,,,,,,,,,,,,,,,,,2460.169380991021,None,2461.669126864057,None,2463.0528060310753,None,"earn
",2463.0528060310753,None,return,1.2176794699626043,2463.136059573968,None,,,,,,,,,,,,,,,,,,,,,,,,,,,,,,,,,29,001,2023_Feb_22_1134,SpeechDraft1Carolyn_lessNoise_PlusLocalization,2021.2.3,60.070455306357005,
blend.wav,blend.mpg,blend,5,AV,Pink_Noise_5_1.wav,Pink_Noise_5_2.wav,,,,,,,,,,,,,,,0,81,81,75,,,,,,,,,,,,,,,,,,,,,,,2464.3860363890417,None,2465.885833667009,None,2467.269402596052,None,blate,2467.269402596052,None,return,0.9930711479391903,2467.352655993076,None,,,,,,,,,,,,,,,,,,,,,,,,,,,,,,,,,29,001,2023_Feb_22_1134,SpeechDraft1Carolyn_lessNoise_PlusLocalization,2021.2.3,60.070455306357005,
beg.wav,beg.mpg,beg,4,A,Pink_Noise_4_1.wav,Pink_Noise_4_2.wav,,,,,,,,,,,,,,,0,82,82,6,,,,,,,,,,,,,,,,,,,,,,,2468.369574528071,None,2469.8691418030066,None,2471.2526716740103,None,"def
",2471.2526716740103,None,return,0.6337635020026937,2471.335988344974,None,,,,,,,,,,,,,,,,,,,,,,,,,,,,,,,,,29,001,2023_Feb_22_1134,SpeechDraft1Carolyn_lessNoise_PlusLocalization,2021.2.3,60.070455306357005,
badge.wav,badge.mpg,badge,4,AV,Pink_Noise_4_1.wav,Pink_Noise_4_2.wav,,,,,,,,,,,,,,,0,83,83,99,,,,,,,,,,,,,,,,,,,,,,,2472.002745063044,None,2473.502473802073,None,2474.886119651026,None,hnadne,2474.886119651026,None,return,1.8803693189984187,2474.969426008058,None,,,,,,,,,,,,,,,,,,,,,,,,,,,,,,,,,29,001,2023_Feb_22_1134,SpeechDraft1Carolyn_lessNoise_PlusLocalization,2021.2.3,60.070455306357005,
bag.wav,bag.mpg,bag,4,AV,Pink_Noise_4_1.wav,Pink_Noise_4_2.wav,,,,,,,,,,,,,,,0,84,84,61,,,,,,,,,,,,,,,,,,,,,,,2476.8694695810555,None,2478.369189996971,None,2479.752708423068,None,bike,2479.752708423068,None,return,0.9257198650157079,2479.8360072320793,None,,,,,,,,,,,,,,,,,,,,,,,,,,,,,,,,,29,001,2023_Feb_22_1134,SpeechDraft1Carolyn_lessNoise_PlusLocalization,2021.2.3,60.070455306357005,
pike.wav,pike.mpg,pike,3,A,Pink_Noise_3_1.wav,Pink_Noise_3_2.wav,,,,,,,,,,,,,,,0,85,85,4,,,,,,,,,,,,,,,,,,,,,,,2480.7861279600766,None,2482.319064866053,None,2483.6860287500313,None,pinpe,2483.6860287500313,None,return,2.544300602050498,2483.769438404008,None,,,,,,,,,,,,,,,,,,,,,,,,,,,,,,,,,29,001,2023_Feb_22_1134,SpeechDraft1Carolyn_lessNoise_PlusLocalization,2021.2.3,60.070455306357005,
lost.wav,lost.mpg,lost,6,AV,Pink_Noise_6_1.wav,Pink_Noise_6_2.wav,,,,,,,,,,,,,,,0,86,86,92,,,,,,,,,,,,,,,,,,,,,,,2486.3361480960157,None,2487.8357083559968,None,2489.219422603026,None,lot,2489.219422603026,None,return,0.9550866610370576,2489.3026533169905,None,,,,,,,,,,,,,,,,,,,,,,,,,,,,,,,,,29,001,2023_Feb_22_1134,SpeechDraft1Carolyn_lessNoise_PlusLocalization,2021.2.3,60.070455306357005,
snake.wav,snake.mpg,snake,5,AV,Pink_Noise_5_1.wav,Pink_Noise_5_2.wav,,,,,,,,,,,,,,,0,87,87,73,,,,,,,,,,,,,,,,,,,,,,,2490.286199638038,None,2491.78591248102,None,2493.1857555640163,None,snake,2493.1857555640163,None,return,0.9089732150314376,2493.252749367035,None,,,,,,,,,,,,,,,,,,,,,,,,,,,,,,,,,29,001,2023_Feb_22_1134,SpeechDraft1Carolyn_lessNoise_PlusLocalization,2021.2.3,60.070455306357005,
friend.wav,friend.mpg,friend,6,A,Pink_Noise_6_1.wav,Pink_Noise_6_2.wav,,,,,,,,,,,,,,,0,88,88,18,,,,,,,,,,,,,,,,,,,,,,,2494.186042236979,None,2495.685818488011,None,2497.069348133984,None,rain,2497.069348133984,None,return,1.0248563840286806,2497.1528789920267,None,,,,,,,,,,,,,,,,,,,,,,,,,,,,,,,,,29,001,2023_Feb_22_1134,SpeechDraft1Carolyn_lessNoise_PlusLocalization,2021.2.3,60.070455306357005,
beard.wav,beard.mpg,beard,3,AV,Pink_Noise_3_1.wav,Pink_Noise_3_2.wav,,,,,,,,,,,,,,,0,89,89,62,,,,,,,,,,,,,,,,,,,,,,,2498.2028412279906,None,2499.72089687502,None,2501.102818491985,None,beard,2501.102818491985,None,return,1.887673921068199,2501.1860685669817,None,,,,,,,,,,,,,,,,,,,,,,,,,,,,,,,,,29,001,2023_Feb_22_1134,SpeechDraft1Carolyn_lessNoise_PlusLocalization,2021.2.3,60.070455306357005,
sun.wav,sun.mpg,sun,5,A,Pink_Noise_5_1.wav,Pink_Noise_5_2.wav,,,,,,,,,,,,,,,0,90,90,54,,,,,,,,,,,,,,,,,,,,,,,2503.1027839609887,None,2504.6026375599904,None,2505.9860383010237,None,sane,2505.9860383010237,None,return,0.956490223063156,2506.0693922289647,None,,,,,,,,,,,,,,,,,,,,,,,,,,,,,,,,,29,001,2023_Feb_22_1134,SpeechDraft1Carolyn_lessNoise_PlusLocalization,2021.2.3,60.070455306357005,
boot.wav,boot.mpg,boot,5,AV,Pink_Noise_5_1.wav,Pink_Noise_5_2.wav,,,,,,,,,,,,,,,0,91,91,106,,,,,,,,,,,,,,,,,,,,,,,2507.0527795989765,None,2508.5525203209836,None,2509.9360603810055,None,boot,2509.9360603810055,None,return,0.8623504339484498,2510.0194290690124,None,,,,,,,,,,,,,,,,,,,,,,,,,,,,,,,,,29,001,2023_Feb_22_1134,SpeechDraft1Carolyn_lessNoise_PlusLocalization,2021.2.3,60.070455306357005,
mars.wav,mars.mpg,mars,2,A,Pink_Noise_2_1.wav,Pink_Noise_2_2.wav,,,,,,,,,,,,,,,0,92,92,52,,,,,,,,,,,,,,,,,,,,,,,2510.902768181986,None,2512.4024760479806,None,2513.786024453002,None,mars,2513.786024453002,None,return,0.9642606299603358,2513.8694875519723,None,,,,,,,,,,,,,,,,,,,,,,,,,,,,,,,,,29,001,2023_Feb_22_1134,SpeechDraft1Carolyn_lessNoise_PlusLocalization,2021.2.3,60.070455306357005,
bite.wav,bite.mpg,bite,4,AV,Pink_Noise_4_1.wav,Pink_Noise_4_2.wav,,,,,,,,,,,,,,,0,93,93,116,,,,,,,,,,,,,,,,,,,,,,,2514.8527659049723,None,2516.352411890053,None,2517.7360637140227,None,"ight
",2517.7360637140227,None,return,0.9021945169661194,2517.819548833999,None,,,,,,,,,,,,,,,,,,,,,,,,,,,,,,,,,29,001,2023_Feb_22_1134,SpeechDraft1Carolyn_lessNoise_PlusLocalization,2021.2.3,60.070455306357005,
gray.wav,gray.mpg,gray,1,A,Pink_Noise_1_1.wav,Pink_Noise_1_2.wav,,,,,,,,,,,,,,,0,94,94,56,,,,,,,,,,,,,,,,,,,,,,,2518.7528940130724,None,2520.25258894905,None,2521.6360896490514,None,grray,2521.6360896490514,None,return,1.066294151940383,2521.719496543985,None,,,,,,,,,,,,,,,,,,,,,,,,,,,,,,,,,29,001,2023_Feb_22_1134,SpeechDraft1Carolyn_lessNoise_PlusLocalization,2021.2.3,60.070455306357005,
cane.wav,cane.mpg,cane,2,AV,Pink_Noise_2_1.wav,Pink_Noise_2_2.wav,,,,,,,,,,,,,,,0,95,95,95,,,,,,,,,,,,,,,,,,,,,,,2522.802786148968,None,2524.302436480066,None,2525.68603301805,None,cane,2525.68603301805,None,return,3.2164750759257004,2525.769356040051,None,,,,,,,,,,,,,,,,,,,,,,,,,,,,,,,,,29,001,2023_Feb_22_1134,SpeechDraft1Carolyn_lessNoise_PlusLocalization,2021.2.3,60.070455306357005,
card.wav,card.mpg,card,1,A,Pink_Noise_1_1.wav,Pink_Noise_1_2.wav,,,,,,,,,,,,,,,0,96,96,25,,,,,,,,,,,,,,,,,,,,,,,2529.002828784054,None,2530.51945920405,None,2531.9027958560036,None,card,2531.9027958560036,None,return,3.031740110949613,2531.9860690589994,None,,,,,,,,,,,,,,,,,,,,,,,,,,,,,,,,,29,001,2023_Feb_22_1134,SpeechDraft1Carolyn_lessNoise_PlusLocalization,2021.2.3,60.070455306357005,
nice.wav,nice.mpg,nice,2,A,Pink_Noise_2_1.wav,Pink_Noise_2_2.wav,,,,,,,,,,,,,,,0,97,97,53,,,,,,,,,,,,,,,,,,,,,,,2535.0360830900026,None,2536.5526077679824,None,2537.91958418407,None,"ncie
",2537.91958418407,None,return,0.7669229470193386,2538.002804771997,None,,,,,,,,,,,,,,,,,,,,,,,,,,,,,,,,,29,001,2023_Feb_22_1134,SpeechDraft1Carolyn_lessNoise_PlusLocalization,2021.2.3,60.070455306357005,
fun.wav,fun.mpg,fun,5,AV,Pink_Noise_5_1.wav,Pink_Noise_5_2.wav,,,,,,,,,,,,,,,0,98,98,101,,,,,,,,,,,,,,,,,,,,,,,2538.8028368320083,None,2540.302641228074,None,2541.6860329400515,None,"floot
",2541.6860329400515,None,return,1.1842315669637173,2541.7695122599835,None,,,,,,,,,,,,,,,,,,,,,,,,,,,,,,,,,29,001,2023_Feb_22_1134,SpeechDraft1Carolyn_lessNoise_PlusLocalization,2021.2.3,60.070455306357005,
bean.wav,bean.mpg,bean,5,AV,Pink_Noise_5_1.wav,Pink_Noise_5_2.wav,,,,,,,,,,,,,,,0,99,99,102,,,,,,,,,,,,,,,,,,,,,,,2542.9861580020515,None,2544.487731849076,None,2545.869283449021,None,"bean
",2545.869283449021,None,return,0.5850033769384027,2545.9527150740614,None,,,,,,,,,,,,,,,,,,,,,,,,,,,,,,,,,29,001,2023_Feb_22_1134,SpeechDraft1Carolyn_lessNoise_PlusLocalization,2021.2.3,60.070455306357005,
brawl.wav,brawl.mpg,brawl,3,A,Pink_Noise_3_1.wav,Pink_Noise_3_2.wav,,,,,,,,,,,,,,,0,100,100,17,,,,,,,,,,,,,,,,,,,,,,,2546.5694632970262,None,2548.069272279972,None,2549.452784952009,None,raw,2549.452784952009,None,return,0.8656698169652373,2549.536133543006,None,,,,,,,,,,,,,,,,,,,,,,,,,,,,,,,,,29,001,2023_Feb_22_1134,SpeechDraft1Carolyn_lessNoise_PlusLocalization,2021.2.3,60.070455306357005,
grab.wav,grab.mpg,grab,2,A,Pink_Noise_2_1.wav,Pink_Noise_2_2.wav,,,,,,,,,,,,,,,0,101,101,29,,,,,,,,,,,,,,,,,,,,,,,2550.419481985038,None,2551.9360248469748,None,2553.3358509839745,None,gran,2553.3358509839745,None,return,1.9668765210080892,2553.4028563490137,None,,,,,,,,,,,,,,,,,,,,,,,,,,,,,,,,,29,001,2023_Feb_22_1134,SpeechDraft1Carolyn_lessNoise_PlusLocalization,2021.2.3,60.070455306357005,
wheat.wav,wheat.mpg,wheat,5,AV,Pink_Noise_5_1.wav,Pink_Noise_5_2.wav,,,,,,,,,,,,,,,0,102,102,86,,,,,,,,,,,,,,,,,,,,,,,2555.386124163051,None,2556.9193508870667,None,2558.303534562001,None,wjeat,2558.303534562001,None,return,2.1755955379921943,2558.3861158690415,None,,,,,,,,,,,,,,,,,,,,,,,,,,,,,,,,,29,001,2023_Feb_22_1134,SpeechDraft1Carolyn_lessNoise_PlusLocalization,2021.2.3,60.070455306357005,
bat.wav,bat.mpg,bat,3,A,Pink_Noise_3_1.wav,Pink_Noise_3_2.wav,,,,,,,,,,,,,,,0,103,103,26,,,,,,,,,,,,,,,,,,,,,,,2560.5861136290478,None,2562.085808634991,None,2563.469496809994,None,nat,2563.469496809994,None,return,1.2249124000081792,2563.5528060880024,None,,,,,,,,,,,,,,,,,,,,,,,,,,,,,,,,,29,001,2023_Feb_22_1134,SpeechDraft1Carolyn_lessNoise_PlusLocalization,2021.2.3,60.070455306357005,
bail.wav,bail.mpg,bail,2,A,Pink_Noise_2_1.wav,Pink_Noise_2_2.wav,,,,,,,,,,,,,,,0,104,104,33,,,,,,,,,,,,,,,,,,,,,,,2564.802818819997,None,2566.319520766032,None,2567.686129148002,None,bail,2567.686129148002,None,return,0.920243025990203,2567.769498095964,None,,,,,,,,,,,,,,,,,,,,,,,,,,,,,,,,,29,001,2023_Feb_22_1134,SpeechDraft1Carolyn_lessNoise_PlusLocalization,2021.2.3,60.070455306357005,
live.wav,live.mpg,live,3,A,Pink_Noise_3_1.wav,Pink_Noise_3_2.wav,,,,,,,,,,,,,,,0,105,105,28,,,,,,,,,,,,,,,,,,,,,,,2568.7194744760636,None,2570.219228588976,None,2571.602739150985,None,"live
",2571.602739150985,None,return,0.5874592249747366,2571.686298281071,None,,,,,,,,,,,,,,,,,,,,,,,,,,,,,,,,,29,001,2023_Feb_22_1134,SpeechDraft1Carolyn_lessNoise_PlusLocalization,2021.2.3,60.070455306357005,
flush.wav,flush.mpg,flush,5,A,Pink_Noise_5_1.wav,Pink_Noise_5_2.wav,,,,,,,,,,,,,,,0,106,106,55,,,,,,,,,,,,,,,,,,,,,,,2572.302884956007,None,2573.802672196063,None,2575.1861407420365,None,ruish,2575.1861407420365,None,return,0.5960295830154791,2575.2697618500097,None,,,,,,,,,,,,,,,,,,,,,,,,,,,,,,,,,29,001,2023_Feb_22_1134,SpeechDraft1Carolyn_lessNoise_PlusLocalization,2021.2.3,60.070455306357005,
clot.wav,clot.mpg,clot,6,AV,Pink_Noise_6_1.wav,Pink_Noise_6_2.wav,,,,,,,,,,,,,,,0,107,107,107,,,,,,,,,,,,,,,,,,,,,,,2575.8861535569886,None,2577.402523447061,None,2578.7861697810004,None,nat,2578.7861697810004,None,return,0.716227620956488,2578.8695803310256,None,,,,,,,,,,,,,,,,,,,,,,,,,,,,,,,,,29,001,2023_Feb_22_1134,SpeechDraft1Carolyn_lessNoise_PlusLocalization,2021.2.3,60.070455306357005,
cat.wav,cat.mpg,cat,5,AV,Pink_Noise_5_1.wav,Pink_Noise_5_2.wav,,,,,,,,,,,,,,,0,108,108,110,,,,,,,,,,,,,,,,,,,,,,,2579.6029244990787,None,2581.102611853974,None,2582.486194681027,None,na,2582.486194681027,None,return,0.4881928850663826,2582.5695497089764,None,,,,,,,,,,,,,,,,,,,,,,,,,,,,,,,,,29,001,2023_Feb_22_1134,SpeechDraft1Carolyn_lessNoise_PlusLocalization,2021.2.3,60.070455306357005,
vest.wav,vest.mpg,vest,5,A,Pink_Noise_5_1.wav,Pink_Noise_5_2.wav,,,,,,,,,,,,,,,0,109,109,3,,,,,,,,,,,,,,,,,,,,,,,2583.08612616302,None,2584.60409551498,None,2585.986187149072,None,cvest,2585.986187149072,None,return,1.8436651300871745,2586.070067235967,None,,,,,,,,,,,,,,,,,,,,,,,,,,,,,,,,,29,001,2023_Feb_22_1134,SpeechDraft1Carolyn_lessNoise_PlusLocalization,2021.2.3,60.070455306357005,
groom.wav,groom.mpg,groom,6,AV,Pink_Noise_6_1.wav,Pink_Noise_6_2.wav,,,,,,,,,,,,,,,0,110,110,63,,,,,,,,,,,,,,,,,,,,,,,2587.9362950710347,None,2589.452742399997,None,2590.836172561045,None,foon,2590.836172561045,None,return,1.3941773970145732,2590.919551093015,None,,,,,,,,,,,,,,,,,,,,,,,,,,,,,,,,,29,001,2023_Feb_22_1134,SpeechDraft1Carolyn_lessNoise_PlusLocalization,2021.2.3,60.070455306357005,
weep.wav,weep.mpg,weep,1,AV,Pink_Noise_1_1.wav,Pink_Noise_1_2.wav,,,,,,,,,,,,,,,0,111,111,112,,,,,,,,,,,,,,,,,,,,,,,2592.33627419197,None,2593.852708111983,None,2595.236084633041,None,wea],2595.236084633041,None,return,1.5621679790783674,2595.319588283077,None,,,,,,,,,,,,,,,,,,,,,,,,,,,,,,,,,29,001,2023_Feb_22_1134,SpeechDraft1Carolyn_lessNoise_PlusLocalization,2021.2.3,60.070455306357005,
drink.wav,drink.mpg,drink,1,AV,Pink_Noise_1_1.wav,Pink_Noise_1_2.wav,,,,,,,,,,,,,,,0,112,112,88,,,,,,,,,,,,,,,,,,,,,,,2596.9028809369775,None,2598.4026171399746,None,2599.7860181530705,None,drink,2599.7860181530705,None,return,1.3562542209401727,2599.8696049880236,None,,,,,,,,,,,,,,,,,,,,,,,,,,,,,,,,,29,001,2023_Feb_22_1134,SpeechDraft1Carolyn_lessNoise_PlusLocalization,2021.2.3,60.070455306357005,
client.wav,client.mpg,client,1,A,Pink_Noise_1_1.wav,Pink_Noise_1_2.wav,,,,,,,,,,,,,,,0,113,113,13,,,,,,,,,,,,,,,,,,,,,,,2601.2528822689783,None,2602.7530529369833,None,2604.136166520999,None,client,2604.136166520999,None,return,0.9261461280984804,2604.2195800109766,None,,,,,,,,,,,,,,,,,,,,,,,,,,,,,,,,,29,001,2023_Feb_22_1134,SpeechDraft1Carolyn_lessNoise_PlusLocalization,2021.2.3,60.070455306357005,
shock.wav,shock.mpg,shock,6,A,Pink_Noise_6_1.wav,Pink_Noise_6_2.wav,,,,,,,,,,,,,,,0,114,114,35,,,,,,,,,,,,,,,,,,,,,,,2605.1695425590733,None,2606.6694317470537,None,2608.052924629068,None,"pass
",2608.052924629068,None,return,0.7534556690370664,2608.1362865370465,None,,,,,,,,,,,,,,,,,,,,,,,,,,,,,,,,,29,001,2023_Feb_22_1134,SpeechDraft1Carolyn_lessNoise_PlusLocalization,2021.2.3,60.070455306357005,
game.wav,game.mpg,game,2,A,Pink_Noise_2_1.wav,Pink_Noise_2_2.wav,,,,,,,,,,,,,,,0,115,115,16,,,,,,,,,,,,,,,,,,,,,,,2608.919686221052,None,2610.469251859002,None,2611.8526206660317,None,game,2611.8526206660317,None,return,0.4499396029859781,2611.919795316062,None,,,,,,,,,,,,,,,,,,,,,,,,,,,,,,,,,29,001,2023_Feb_22_1134,SpeechDraft1Carolyn_lessNoise_PlusLocalization,2021.2.3,60.070455306357005,
dune.wav,dune.mpg,dune,4,AV,Pink_Noise_4_1.wav,Pink_Noise_4_2.wav,,,,,,,,,,,,,,,0,116,116,76,,,,,,,,,,,,,,,,,,,,,,,2612.3862568640616,None,2613.886207642965,None,2615.2694845600054,None,"oo
",2615.2694845600054,None,return,1.0167853019665927,2615.3529568800004,None,,,,,,,,,,,,,,,,,,,,,,,,,,,,,,,,,29,001,2023_Feb_22_1134,SpeechDraft1Carolyn_lessNoise_PlusLocalization,2021.2.3,60.070455306357005,
dot.wav,dot.mpg,dot,3,AV,Pink_Noise_3_1.wav,Pink_Noise_3_2.wav,,,,,,,,,,,,,,,0,117,117,96,,,,,,,,,,,,,,,,,,,,,,,2616.402920669061,None,2617.9027193740476,None,2619.286077831988,None,dot,2619.286077831988,None,return,0.4080930049531162,2619.369625734049,None,,,,,,,,,,,,,,,,,,,,,,,,,,,,,,,,,29,001,2023_Feb_22_1134,SpeechDraft1Carolyn_lessNoise_PlusLocalization,2021.2.3,60.070455306357005,
brown.wav,brown.mpg,brown,4,A,Pink_Noise_4_1.wav,Pink_Noise_4_2.wav,,,,,,,,,,,,,,,0,118,118,34,,,,,,,,,,,,,,,,,,,,,,,2619.8028494330356,None,2621.335976568982,None,2622.70292188006,None,row,2622.70292188006,None,return,0.7114847839111462,2622.7862457020674,None,,,,,,,,,,,,,,,,,,,,,,,,,,,,,,,,,29,001,2023_Feb_22_1134,SpeechDraft1Carolyn_lessNoise_PlusLocalization,2021.2.3,60.070455306357005,
grade.wav,grade.mpg,grade,5,A,Pink_Noise_5_1.wav,Pink_Noise_5_2.wav,,,,,,,,,,,,,,,0,119,119,19,,,,,,,,,,,,,,,,,,,,,,,2623.5196370970225,None,2625.0358235910535,None,2626.436259526992,None,rain,2626.436259526992,None,return,0.8828706060303375,2626.5029799140757,None,,,,,,,,,,,,,,,,,,,,,,,,,,,,,,,,,29,001,2023_Feb_22_1134,SpeechDraft1Carolyn_lessNoise_PlusLocalization,2021.2.3,60.070455306357005,
,,,,,,,,,,,,,,,,,,,,,,,,,,,,,,,,,,,,,,,,,,,,,,,,,,,,,,,,,,,,,,,,,,space,3.386940853088163,2627.5029430700233,None,,,,,,,,,,,,,,,,,,,,,,,29,001,2023_Feb_22_1134,SpeechDraft1Carolyn_lessNoise_PlusLocalization,2021.2.3,60.070455306357005,
,,,,,,,,midRight,13.0,3,ch1Sound_localizationTask.wav,13.0,"(1142, 878)","(182, -202)",190,-338,,,,,,,,,0,0,0,5,,,,,,,,,,,,,,,,,,,,,,,,,,,,,,,,,,,,,,,,,,2627.5029430700233,None,2630.9360008609947,None,2632.0360392780276,None,2632.9692473070463,None,1.5116402116402117,9.373109651030973,2632.9692473070463,None,,,,,,,,,,,29,001,2023_Feb_22_1134,SpeechDraft1Carolyn_lessNoise_PlusLocalization,2021.2.3,60.070455306357005,
,,,,,,,,center,0.0,6,ch1Sound_localizationTask.wav,0.0,"(952, 878)","(-8,-202)",0,-338,,,,,,,,,0,1,1,3,,,,,,,,,,,,,,,,,,,,,,,,,,,,,,,,,,,,,,,,,,,,2642.3529482280137,None,2643.4527541949647,None,2644.3861539589707,None,1.4222222222222223,0.6500367779517546,2644.3861539589707,None,,,,,,,,,,,29,001,2023_Feb_22_1134,SpeechDraft1Carolyn_lessNoise_PlusLocalization,2021.2.3,60.070455306357005,
,,,,,,,,midRight,13.0,3,ch1Sound_localizationTask.wav,13.0,"(1142, 878)","(182, -202)",190,-338,,,,,,,,,0,2,2,5,,,,,,,,,,,,,,,,,,,,,,,,,,,,,,,,,,,,,,,,,,,,2645.0531055630418,None,2646.152660596068,None,2647.0861248109723,None,1.7724867724867726,1.083126414916478,2647.0861248109723,None,,,,,,,,,,,29,001,2023_Feb_22_1134,SpeechDraft1Carolyn_lessNoise_PlusLocalization,2021.2.3,60.070455306357005,
,,,,,,,,farRight,19.1,4,ch1Sound_localizationTask.wav,19.1,"(1237, 878)","(277,-202)",285,-338,,,,,,,,,0,3,3,6,,,,,,,,,,,,,,,,,,,,,,,,,,,,,,,,,,,,,,,,,,,,2648.1863036700524,None,2649.2863434850005,None,2650.219365653,None,2,2.8654950810596347,2650.219365653,None,,,,,,,,,,,29,001,2023_Feb_22_1134,SpeechDraft1Carolyn_lessNoise_PlusLocalization,2021.2.3,60.070455306357005,
,,,,,,,,farLeft,-19.1,5,ch1Sound_localizationTask.wav,-19.1,"(667, 878)","(-293,-202)",-285,-338,,,,,,,,,0,4,4,0,,,,,,,,,,,,,,,,,,,,,,,,,,,,,,,,,,,,,,,,,,,,2653.0864530920517,None,2654.1860140630743,None,2655.1193027980626,None,1.2582010582010583,1.2695092149078846,2655.1193027980626,None,,,,,,,,,,,29,001,2023_Feb_22_1134,SpeechDraft1Carolyn_lessNoise_PlusLocalization,2021.2.3,60.070455306357005,
,,,,,,,,midLeft,-13.0,2,ch1Sound_localizationTask.wav,-13.0,"(762, 878)","(-198,-202)",-190,-338,,,,,,,,,0,5,5,1,,,,,,,,,,,,,,,,,,,,,,,,,,,,,,,,,,,,,,,,,,,,2656.4039033519803,None,2657.502664961037,None,2658.4362869380275,None,1.3693121693121693,0.9169311670120806,2658.4362869380275,None,,,,,,,,,,,29,001,2023_Feb_22_1134,SpeechDraft1Carolyn_lessNoise_PlusLocalization,2021.2.3,60.070455306357005,
,,,,,,,,midRight,13.0,3,ch1Sound_localizationTask.wav,13.0,"(1142, 878)","(182, -202)",190,-338,,,,,,,,,0,6,6,5,,,,,,,,,,,,,,,,,,,,,,,,,,,,,,,,,,,,,,,,,,,,2659.3696054950124,None,2660.46936734498,None,2661.4026844319887,None,1.6063492063492064,0.566279000020586,2661.4026844319887,None,,,,,,,,,,,29,001,2023_Feb_22_1134,SpeechDraft1Carolyn_lessNoise_PlusLocalization,2021.2.3,60.070455306357005,
,,,,,,,,farRight,19.1,4,ch1Sound_localizationTask.wav,19.1,"(1237, 878)","(277,-202)",285,-338,,,,,,,,,1,0,7,6,,,,,,,,,,,,,,,,,,,,,,,,,,,,,,,,,,,,,,,,,,,,2661.9703788950574,None,2663.0692949939985,None,2664.002824904979,None,1.7894179894179896,0.7500823029549792,2664.002824904979,None,,,,,,,,,,,29,001,2023_Feb_22_1134,SpeechDraft1Carolyn_lessNoise_PlusLocalization,2021.2.3,60.070455306357005,
,,,,,,,,midRight,13.0,3,ch1Sound_localizationTask.wav,13.0,"(1142, 878)","(182, -202)",190,-338,,,,,,,,,1,1,8,5,,,,,,,,,,,,,,,,,,,,,,,,,,,,,,,,,,,,,,,,,,,,2664.7533481200226,None,2665.8526665740646,None,2666.785958145978,None,1.680952380952381,1.2332946590613574,2666.785958145978,None,,,,,,,,,,,29,001,2023_Feb_22_1134,SpeechDraft1Carolyn_lessNoise_PlusLocalization,2021.2.3,60.070455306357005,
,,,,,,,,nearRight,6.5,0,ch1Sound_localizationTask.wav,6.5,"(1047, 878)","(87, -202)",95,-338,,,,,,,,,1,2,9,4,,,,,,,,,,,,,,,,,,,,,,,,,,,,,,,,,,,,,,,,,,,,2668.020707690972,None,2669.1360626859823,None,2670.052822472062,None,1.5391534391534392,0.5338951860321686,2670.052822472062,None,,,,,,,,,,,29,001,2023_Feb_22_1134,SpeechDraft1Carolyn_lessNoise_PlusLocalization,2021.2.3,60.070455306357005,
,,,,,,,,midLeft,-13.0,2,ch1Sound_localizationTask.wav,-13.0,"(762, 878)","(-198,-202)",-190,-338,,,,,,,,,1,3,10,1,,,,,,,,,,,,,,,,,,,,,,,,,,,,,,,,,,,,,,,,,,,,2670.603069575969,None,2671.702972877072,None,2672.6361853790004,None,1.3354497354497354,0.6155769920442253,2672.6361853790004,None,,,,,,,,,,,29,001,2023_Feb_22_1134,SpeechDraft1Carolyn_lessNoise_PlusLocalization,2021.2.3,60.070455306357005,
,,,,,,,,center,0.0,6,ch1Sound_localizationTask.wav,0.0,"(952, 878)","(-8,-202)",0,-338,,,,,,,,,1,4,11,3,,,,,,,,,,,,,,,,,,,,,,,,,,,,,,,,,,,,,,,,,,,,2673.253499659011,None,2674.3526342919795,None,2675.2860585150775,None,1.5465608465608467,0.6348443549359217,2675.2860585150775,None,,,,,,,,,,,29,001,2023_Feb_22_1134,SpeechDraft1Carolyn_lessNoise_PlusLocalization,2021.2.3,60.070455306357005,
,,,,,,,,midLeft,-13.0,2,ch1Sound_localizationTask.wav,-13.0,"(762, 878)","(-198,-202)",-190,-338,,,,,,,,,1,5,12,1,,,,,,,,,,,,,,,,,,,,,,,,,,,,,,,,,,,,,,,,,,,,2675.9364886690164,None,2677.036152917077,None,2677.9693554040277,None,1.403174603174603,0.666321509052068,2677.9693554040277,None,,,,,,,,,,,29,001,2023_Feb_22_1134,SpeechDraft1Carolyn_lessNoise_PlusLocalization,2021.2.3,60.070455306357005,
,,,,,,,,nearRight,6.5,0,ch1Sound_localizationTask.wav,6.5,"(1047, 878)","(87, -202)",95,-338,,,,,,,,,1,6,13,4,,,,,,,,,,,,,,,,,,,,,,,,,,,,,,,,,,,,,,,,,,,,2678.6367373469984,None,2679.735969005036,None,2680.6694669780554,None,1.373015873015873,0.4000100459670648,2680.6694669780554,None,,,,,,,,,,,29,001,2023_Feb_22_1134,SpeechDraft1Carolyn_lessNoise_PlusLocalization,2021.2.3,60.070455306357005,
,,,,,,,,nearLeft,-6.5,1,ch1Sound_localizationTask.wav,-6.5,"(857, 878)","(-103,-202)",-95,-338,,,,,,,,,2,0,14,2,,,,,,,,,,,,,,,,,,,,,,,,,,,,,,,,,,,,,,,,,,,,2681.070541231078,None,2682.1694217500044,None,2683.102780497982,None,1.5164021164021164,0.4160285539692268,2683.102780497982,None,,,,,,,,,,,29,001,2023_Feb_22_1134,SpeechDraft1Carolyn_lessNoise_PlusLocalization,2021.2.3,60.070455306357005,
,,,,,,,,farRight,19.1,4,ch1Sound_localizationTask.wav,19.1,"(1237, 878)","(277,-202)",285,-338,,,,,,,,,2,1,15,6,,,,,,,,,,,,,,,,,,,,,,,,,,,,,,,,,,,,,,,,,,,,2683.53639630205,None,2684.6360533729894,None,2685.569408223033,None,1.6962962962962962,0.41773285309318453,2685.569408223033,None,,,,,,,,,,,29,001,2023_Feb_22_1134,SpeechDraft1Carolyn_lessNoise_PlusLocalization,2021.2.3,60.070455306357005,
,,,,,,,,nearRight,6.5,0,ch1Sound_localizationTask.wav,6.5,"(1047, 878)","(87, -202)",95,-338,,,,,,,,,2,2,16,4,,,,,,,,,,,,,,,,,,,,,,,,,,,,,,,,,,,,,,,,,,,,2686.003159643966,None,2687.1026603779756,None,2688.036112161004,None,1.3380952380952382,0.48292117402888834,2688.036112161004,None,,,,,,,,,,,29,001,2023_Feb_22_1134,SpeechDraft1Carolyn_lessNoise_PlusLocalization,2021.2.3,60.070455306357005,
,,,,,,,,farRight,19.1,4,ch1Sound_localizationTask.wav,19.1,"(1237, 878)","(277,-202)",285,-338,,,,,,,,,2,3,17,6,,,,,,,,,,,,,,,,,,,,,,,,,,,,,,,,,,,,,,,,,,,,2688.520788651076,None,2689.6364749290515,None,2690.5527395890094,None,1.3396825396825398,0.18337009893730283,2690.5527395890094,None,,,,,,,,,,,29,001,2023_Feb_22_1134,SpeechDraft1Carolyn_lessNoise_PlusLocalization,2021.2.3,60.070455306357005,
,,,,,,,,farLeft,-19.1,5,ch1Sound_localizationTask.wav,-19.1,"(667, 878)","(-293,-202)",-285,-338,,,,,,,,,2,4,18,0,,,,,,,,,,,,,,,,,,,,,,,,,,,,,,,,,,,,,,,,,,,,2690.7369711530628,None,2691.83645184699,None,2692.76930182497,None,1.216931216931217,0.9171074880287051,2692.76930182497,None,,,,,,,,,,,29,001,2023_Feb_22_1134,SpeechDraft1Carolyn_lessNoise_PlusLocalization,2021.2.3,60.070455306357005,
,,,,,,,,farLeft,-19.1,5,ch1Sound_localizationTask.wav,-19.1,"(667, 878)","(-293,-202)",-285,-338,,,,,,,,,2,5,19,0,,,,,,,,,,,,,,,,,,,,,,,,,,,,,,,,,,,,,,,,,,,,2693.7030476930086,None,2694.8028535590274,None,2695.7360511589795,None,1.3026455026455026,0.41749272809829563,2695.7360511589795,None,,,,,,,,,,,29,001,2023_Feb_22_1134,SpeechDraft1Carolyn_lessNoise_PlusLocalization,2021.2.3,60.070455306357005,
,,,,,,,,farRight,19.1,4,ch1Sound_localizationTask.wav,19.1,"(1237, 878)","(277,-202)",285,-338,,,,,,,,,2,6,20,6,,,,,,,,,,,,,,,,,,,,,,,,,,,,,,,,,,,,,,,,,,,,2696.169643628993,None,2697.2692867140286,None,2698.2028485219926,None,1.4116402116402116,0.7006014819489792,2698.2028485219926,None,,,,,,,,,,,29,001,2023_Feb_22_1134,SpeechDraft1Carolyn_lessNoise_PlusLocalization,2021.2.3,60.070455306357005,
,,,,,,,,nearRight,6.5,0,ch1Sound_localizationTask.wav,6.5,"(1047, 878)","(87, -202)",95,-338,,,,,,,,,3,0,21,4,,,,,,,,,,,,,,,,,,,,,,,,,,,,,,,,,,,,,,,,,,,,2698.919678303995,None,2700.019402510021,None,2700.952743737027,None,1.4126984126984126,0.4328725889790803,2700.952743737027,None,,,,,,,,,,,29,001,2023_Feb_22_1134,SpeechDraft1Carolyn_lessNoise_PlusLocalization,2021.2.3,60.070455306357005,
,,,,,,,,farLeft,-19.1,5,ch1Sound_localizationTask.wav,-19.1,"(667, 878)","(-293,-202)",-285,-338,,,,,,,,,3,1,22,0,,,,,,,,,,,,,,,,,,,,,,,,,,,,,,,,,,,,,,,,,,,,2701.3875227840617,None,2702.502861232031,None,2703.4194903790485,None,1.2449735449735448,0.4170775959501043,2703.4194903790485,None,,,,,,,,,,,29,001,2023_Feb_22_1134,SpeechDraft1Carolyn_lessNoise_PlusLocalization,2021.2.3,60.070455306357005,
,,,,,,,,nearLeft,-6.5,1,ch1Sound_localizationTask.wav,-6.5,"(857, 878)","(-103,-202)",-95,-338,,,,,,,,,3,2,23,2,,,,,,,,,,,,,,,,,,,,,,,,,,,,,,,,,,,,,,,,,,,,2703.8530571920564,None,2704.9527555240784,None,2705.886111475993,None,1.482010582010582,0.38250268006231636,2705.886111475993,None,,,,,,,,,,,29,001,2023_Feb_22_1134,SpeechDraft1Carolyn_lessNoise_PlusLocalization,2021.2.3,60.070455306357005,
,,,,,,,,nearLeft,-6.5,1,ch1Sound_localizationTask.wav,-6.5,"(857, 878)","(-103,-202)",-95,-338,,,,,,,,,3,3,24,2,,,,,,,,,,,,,,,,,,,,,,,,,,,,,,,,,,,,,,,,,,,,2706.2697295780526,None,2707.369418905,None,2708.302768339985,None,1.480952380952381,0.3989577949978411,2708.302768339985,None,,,,,,,,,,,29,001,2023_Feb_22_1134,SpeechDraft1Carolyn_lessNoise_PlusLocalization,2021.2.3,60.070455306357005,
,,,,,,,,farRight,19.1,4,ch1Sound_localizationTask.wav,19.1,"(1237, 878)","(277,-202)",285,-338,,,,,,,,,3,4,25,6,,,,,,,,,,,,,,,,,,,,,,,,,,,,,,,,,,,,,,,,,,,,2708.7031588980462,None,2709.8028004890075,None,2710.736965963966,None,1.480952380952381,0.4327307129278779,2710.736965963966,None,,,,,,,,,,,29,001,2023_Feb_22_1134,SpeechDraft1Carolyn_lessNoise_PlusLocalization,2021.2.3,60.070455306357005,
,,,,,,,,midLeft,-13.0,2,ch1Sound_localizationTask.wav,-13.0,"(762, 878)","(-198,-202)",-190,-338,,,,,,,,,3,5,26,1,,,,,,,,,,,,,,,,,,,,,,,,,,,,,,,,,,,,,,,,,,,,2711.169787532999,None,2712.269446327002,None,2713.202841783059,None,1.480952380952381,0.3498589280061424,2713.202841783059,None,,,,,,,,,,,29,001,2023_Feb_22_1134,SpeechDraft1Carolyn_lessNoise_PlusLocalization,2021.2.3,60.070455306357005,
,,,,,,,,farLeft,-19.1,5,ch1Sound_localizationTask.wav,-19.1,"(667, 878)","(-293,-202)",-285,-338,,,,,,,,,3,6,27,0,,,,,,,,,,,,,,,,,,,,,,,,,,,,,,,,,,,,,,,,,,,,2713.5534661590355,None,2714.6526543460786,None,2715.5860872500343,None,1.3613756613756614,0.4501565769314766,2715.5860872500343,None,,,,,,,,,,,29,001,2023_Feb_22_1134,SpeechDraft1Carolyn_lessNoise_PlusLocalization,2021.2.3,60.070455306357005,
,,,,,,,,center,0.0,6,ch1Sound_localizationTask.wav,0.0,"(952, 878)","(-8,-202)",0,-338,,,,,,,,,4,0,28,3,,,,,,,,,,,,,,,,,,,,,,,,,,,,,,,,,,,,,,,,,,,,2716.0378107019933,None,2717.1528261610074,None,2718.0694942079717,None,1.6037037037037036,0.46492867497727275,2718.0694942079717,None,,,,,,,,,,,29,001,2023_Feb_22_1134,SpeechDraft1Carolyn_lessNoise_PlusLocalization,2021.2.3,60.070455306357005,
,,,,,,,,midLeft,-13.0,2,ch1Sound_localizationTask.wav,-13.0,"(762, 878)","(-198,-202)",-190,-338,,,,,,,,,4,1,29,1,,,,,,,,,,,,,,,,,,,,,,,,,,,,,,,,,,,,,,,,,,,,2718.5365655160276,None,2719.63618825702,None,2720.5693078329787,None,1.4142857142857141,0.7346142809838057,2720.5693078329787,None,,,,,,,,,,,29,001,2023_Feb_22_1134,SpeechDraft1Carolyn_lessNoise_PlusLocalization,2021.2.3,60.070455306357005,
,,,,,,,,farLeft,-19.1,5,ch1Sound_localizationTask.wav,-19.1,"(667, 878)","(-293,-202)",-285,-338,,,,,,,,,4,2,30,0,,,,,,,,,,,,,,,,,,,,,,,,,,,,,,,,,,,,,,,,,,,,2721.319795976975,None,2722.4194808190223,None,2723.3529233579757,None,1.4661375661375662,0.5335562489926815,2723.3529233579757,None,,,,,,,,,,,29,001,2023_Feb_22_1134,SpeechDraft1Carolyn_lessNoise_PlusLocalization,2021.2.3,60.070455306357005,
,,,,,,,,nearLeft,-6.5,1,ch1Sound_localizationTask.wav,-6.5,"(857, 878)","(-103,-202)",-95,-338,,,,,,,,,4,3,31,2,,,,,,,,,,,,,,,,,,,,,,,,,,,,,,,,,,,,,,,,,,,,2723.903211646015,None,2725.0029532640474,None,2725.9361347430386,None,1.5793650793650795,0.5330222880002111,2725.9361347430386,None,,,,,,,,,,,29,001,2023_Feb_22_1134,SpeechDraft1Carolyn_lessNoise_PlusLocalization,2021.2.3,60.070455306357005,
,,,,,,,,farRight,19.1,4,ch1Sound_localizationTask.wav,19.1,"(1237, 878)","(277,-202)",285,-338,,,,,,,,,4,4,32,6,,,,,,,,,,,,,,,,,,,,,,,,,,,,,,,,,,,,,,,,,,,,2726.470306284027,None,2727.569729455048,None,2728.502767493017,None,1.5814814814814815,0.5167121450649574,2728.502767493017,None,,,,,,,,,,,29,001,2023_Feb_22_1134,SpeechDraft1Carolyn_lessNoise_PlusLocalization,2021.2.3,60.070455306357005,
,,,,,,,,nearLeft,-6.5,1,ch1Sound_localizationTask.wav,-6.5,"(857, 878)","(-103,-202)",-95,-338,,,,,,,,,4,5,33,2,,,,,,,,,,,,,,,,,,,,,,,,,,,,,,,,,,,,,,,,,,,,2729.0200478250626,None,2730.119440103066,None,2731.0528399930336,None,1.4978835978835978,0.5161555650411174,2731.0528399930336,None,,,,,,,,,,,29,001,2023_Feb_22_1134,SpeechDraft1Carolyn_lessNoise_PlusLocalization,2021.2.3,60.070455306357005,
,,,,,,,,farRight,19.1,4,ch1Sound_localizationTask.wav,19.1,"(1237, 878)","(277,-202)",285,-338,,,,,,,,,4,6,34,6,,,,,,,,,,,,,,,,,,,,,,,,,,,,,,,,,,,,,,,,,,,,2731.5707864820724,None,2732.6859957510605,None,2733.6028485880233,None,1.5243386243386243,0.5658554029650986,2733.6028485880233,None,,,,,,,,,,,29,001,2023_Feb_22_1134,SpeechDraft1Carolyn_lessNoise_PlusLocalization,2021.2.3,60.070455306357005,
,,,,,,,,midRight,13.0,3,ch1Sound_localizationTask.wav,13.0,"(1142, 878)","(182, -202)",190,-338,,,,,,,,,5,0,35,5,,,,,,,,,,,,,,,,,,,,,,,,,,,,,,,,,,,,,,,,,,,,2734.169663688983,None,2735.269434115966,None,2736.2027760939673,None,1.524867724867725,0.4665488270111382,2736.2027760939673,None,,,,,,,,,,,29,001,2023_Feb_22_1134,SpeechDraft1Carolyn_lessNoise_PlusLocalization,2021.2.3,60.070455306357005,
,,,,,,,,midLeft,-13.0,2,ch1Sound_localizationTask.wav,-13.0,"(762, 878)","(-198,-202)",-190,-338,,,,,,,,,5,1,36,1,,,,,,,,,,,,,,,,,,,,,,,,,,,,,,,,,,,,,,,,,,,,2736.670545620029,None,2737.7694826690713,None,2738.7028218100313,None,1.5243386243386243,0.6669642520137131,2738.7028218100313,None,,,,,,,,,,,29,001,2023_Feb_22_1134,SpeechDraft1Carolyn_lessNoise_PlusLocalization,2021.2.3,60.070455306357005,
,,,,,,,,nearLeft,-6.5,1,ch1Sound_localizationTask.wav,-6.5,"(857, 878)","(-103,-202)",-95,-338,,,,,,,,,5,2,37,2,,,,,,,,,,,,,,,,,,,,,,,,,,,,,,,,,,,,,,,,,,,,2739.3705667259637,None,2740.469584178063,None,2741.402731893002,None,1.524867724867725,0.5004007710376754,2741.402731893002,None,,,,,,,,,,,29,001,2023_Feb_22_1134,SpeechDraft1Carolyn_lessNoise_PlusLocalization,2021.2.3,60.070455306357005,
,,,,,,,,center,0.0,6,ch1Sound_localizationTask.wav,0.0,"(952, 878)","(-8,-202)",0,-338,,,,,,,,,5,3,38,3,,,,,,,,,,,,,,,,,,,,,,,,,,,,,,,,,,,,,,,,,,,,2741.903723148047,None,2743.002738718991,None,2743.936168606975,None,1.5232804232804233,0.5992314299801365,2743.936168606975,None,,,,,,,,,,,29,001,2023_Feb_22_1134,SpeechDraft1Carolyn_lessNoise_PlusLocalization,2021.2.3,60.070455306357005,
,,,,,,,,nearRight,6.5,0,ch1Sound_localizationTask.wav,6.5,"(1047, 878)","(87, -202)",95,-338,,,,,,,,,5,4,39,4,,,,,,,,,,,,,,,,,,,,,,,,,,,,,,,,,,,,,,,,,,,,2744.5364552179817,None,2745.636095829075,None,2746.5693313200027,None,1.5227513227513227,0.5004394869320095,2746.5693313200027,None,,,,,,,,,,,29,001,2023_Feb_22_1134,SpeechDraft1Carolyn_lessNoise_PlusLocalization,2021.2.3,60.070455306357005,
,,,,,,,,midRight,13.0,3,ch1Sound_localizationTask.wav,13.0,"(1142, 878)","(182, -202)",190,-338,,,,,,,,,5,5,40,5,,,,,,,,,,,,,,,,,,,,,,,,,,,,,,,,,,,,,,,,,,,,2747.070287383045,None,2748.169480920071,None,2749.102855843026,None,1.5216931216931218,0.6326104869367555,2749.102855843026,None,,,,,,,,,,,29,001,2023_Feb_22_1134,SpeechDraft1Carolyn_lessNoise_PlusLocalization,2021.2.3,60.070455306357005,
,,,,,,,,midRight,13.0,3,ch1Sound_localizationTask.wav,13.0,"(1142, 878)","(182, -202)",190,-338,,,,,,,,,5,6,41,5,,,,,,,,,,,,,,,,,,,,,,,,,,,,,,,,,,,,,,,,,,,,2749.7365506009664,None,2750.836343217059,None,2751.7694230630295,None,1.5216931216931218,0.6834292049752548,2751.7694230630295,None,,,,,,,,,,,29,001,2023_Feb_22_1134,SpeechDraft1Carolyn_lessNoise_PlusLocalization,2021.2.3,60.070455306357005,
,,,,,,,,nearLeft,-6.5,1,ch1Sound_localizationTask.wav,-6.5,"(857, 878)","(-103,-202)",-95,-338,,,,,,,,,6,0,42,2,,,,,,,,,,,,,,,,,,,,,,,,,,,,,,,,,,,,,,,,,,,,2752.4535862690536,None,2753.552854925045,None,2754.486141129979,None,1.4714285714285715,0.4843566750641912,2754.486141129979,None,,,,,,,,,,,29,001,2023_Feb_22_1134,SpeechDraft1Carolyn_lessNoise_PlusLocalization,2021.2.3,60.070455306357005,
,,,,,,,,center,0.0,6,ch1Sound_localizationTask.wav,0.0,"(952, 878)","(-8,-202)",0,-338,,,,,,,,,6,1,43,3,,,,,,,,,,,,,,,,,,,,,,,,,,,,,,,,,,,,,,,,,,,,2754.9865492120152,None,2756.086133397068,None,2757.0196706460556,None,1.4730158730158731,0.4836373250000179,2757.0196706460556,None,,,,,,,,,,,29,001,2023_Feb_22_1134,SpeechDraft1Carolyn_lessNoise_PlusLocalization,2021.2.3,60.070455306357005,
,,,,,,,,nearRight,6.5,0,ch1Sound_localizationTask.wav,6.5,"(1047, 878)","(87, -202)",95,-338,,,,,,,,,6,2,44,4,,,,,,,,,,,,,,,,,,,,,,,,,,,,,,,,,,,,,,,,,,,,2757.503819430014,None,2758.602840766078,None,2759.536096989992,None,1.5158730158730158,0.5998636009171605,2759.536096989992,None,,,,,,,,,,,29,001,2023_Feb_22_1134,SpeechDraft1Carolyn_lessNoise_PlusLocalization,2021.2.3,60.070455306357005,
,,,,,,,,center,0.0,6,ch1Sound_localizationTask.wav,0.0,"(952, 878)","(-8,-202)",0,-338,,,,,,,,,6,3,45,3,,,,,,,,,,,,,,,,,,,,,,,,,,,,,,,,,,,,,,,,,,,,2760.137697533006,None,2761.252865890041,None,2762.169505706057,None,1.271957671957672,0.6001564700854942,2762.169505706057,None,,,,,,,,,,,29,001,2023_Feb_22_1134,SpeechDraft1Carolyn_lessNoise_PlusLocalization,2021.2.3,60.070455306357005,
,,,,,,,,nearLeft,-6.5,1,ch1Sound_localizationTask.wav,-6.5,"(857, 878)","(-103,-202)",-95,-338,,,,,,,,,6,4,46,2,,,,,,,,,,,,,,,,,,,,,,,,,,,,,,,,,,,,,,,,,,,,2762.770271987072,None,2763.869662453071,None,2764.802876450005,None,1.2317460317460318,0.48412583605386317,2764.802876450005,None,,,,,,,,,,,29,001,2023_Feb_22_1134,SpeechDraft1Carolyn_lessNoise_PlusLocalization,2021.2.3,60.070455306357005,
,,,,,,,,center,0.0,6,ch1Sound_localizationTask.wav,0.0,"(952, 878)","(-8,-202)",0,-338,,,,,,,,,6,5,47,3,,,,,,,,,,,,,,,,,,,,,,,,,,,,,,,,,,,,,,,,,,,,2765.3031215990195,None,2766.402927838033,None,2767.336270680069,None,1.2455026455026454,0.4331809690920636,2767.336270680069,None,,,,,,,,,,,29,001,2023_Feb_22_1134,SpeechDraft1Carolyn_lessNoise_PlusLocalization,2021.2.3,60.070455306357005,
,,,,,,,,farLeft,-19.1,5,ch1Sound_localizationTask.wav,-19.1,"(667, 878)","(-293,-202)",-285,-338,,,,,,,,,6,6,48,0,,,,,,,,,,,,,,,,,,,,,,,,,,,,,,,,,,,,,,,,,,,,2767.770083568059,None,2768.869490326033,None,2769.8028555660276,None,1.2492063492063492,0.4671614340040833,2769.8028555660276,None,,,,,,,,,,,29,001,2023_Feb_22_1134,SpeechDraft1Carolyn_lessNoise_PlusLocalization,2021.2.3,60.070455306357005,
,,,,,,,,midLeft,-13.0,2,ch1Sound_localizationTask.wav,-13.0,"(762, 878)","(-198,-202)",-190,-338,,,,,,,,,7,0,49,1,,,,,,,,,,,,,,,,,,,,,,,,,,,,,,,,,,,,,,,,,,,,2770.2702677439665,None,2771.3694750900613,None,2772.3030167950783,None,1.2502645502645502,0.432506715063937,2772.3030167950783,None,,,,,,,,,,,29,001,2023_Feb_22_1134,SpeechDraft1Carolyn_lessNoise_PlusLocalization,2021.2.3,60.070455306357005,
,,,,,,,,midLeft,-13.0,2,ch1Sound_localizationTask.wav,-13.0,"(762, 878)","(-198,-202)",-190,-338,,,,,,,,,7,1,50,1,,,,,,,,,,,,,,,,,,,,,,,,,,,,,,,,,,,,,,,,,,,,2772.7369240870466,None,2773.8362263130257,None,2774.769508591038,None,1.6285714285714286,0.4168660290306434,2774.769508591038,None,,,,,,,,,,,29,001,2023_Feb_22_1134,SpeechDraft1Carolyn_lessNoise_PlusLocalization,2021.2.3,60.070455306357005,
,,,,,,,,nearRight,6.5,0,ch1Sound_localizationTask.wav,6.5,"(1047, 878)","(87, -202)",95,-338,,,,,,,,,7,2,51,4,,,,,,,,,,,,,,,,,,,,,,,,,,,,,,,,,,,,,,,,,,,,2775.1872717380757,None,2776.286533051054,None,2777.2194225400453,None,1.626984126984127,0.2835145929129794,2777.2194225400453,None,,,,,,,,,,,29,001,2023_Feb_22_1134,SpeechDraft1Carolyn_lessNoise_PlusLocalization,2021.2.3,60.070455306357005,
,,,,,,,,farLeft,-19.1,5,ch1Sound_localizationTask.wav,-19.1,"(667, 878)","(-293,-202)",-285,-338,,,,,,,,,7,3,52,0,,,,,,,,,,,,,,,,,,,,,,,,,,,,,,,,,,,,,,,,,,,,2777.503371770028,None,2778.602971454966,None,2779.536282737972,None,1.374074074074074,0.716126910992898,2779.536282737972,None,,,,,,,,,,,29,001,2023_Feb_22_1134,SpeechDraft1Carolyn_lessNoise_PlusLocalization,2021.2.3,60.070455306357005,
,,,,,,,,nearRight,6.5,0,ch1Sound_localizationTask.wav,6.5,"(1047, 878)","(87, -202)",95,-338,,,,,,,,,7,4,53,4,,,,,,,,,,,,,,,,,,,,,,,,,,,,,,,,,,,,,,,,,,,,2780.254683227977,None,2781.369528947049,None,2782.2862228410086,None,1.547089947089947,0.5333976530237123,2782.2862228410086,None,,,,,,,,,,,29,001,2023_Feb_22_1134,SpeechDraft1Carolyn_lessNoise_PlusLocalization,2021.2.3,60.070455306357005,
,,,,,,,,midRight,13.0,3,ch1Sound_localizationTask.wav,13.0,"(1142, 878)","(182, -202)",190,-338,,,,,,,,,7,5,54,5,,,,,,,,,,,,,,,,,,,,,,,,,,,,,,,,,,,,,,,,,,,,2782.8203889260767,None,2783.9195538989734,None,2784.852945919032,None,1.547089947089947,0.4161571440054104,2784.852945919032,None,,,,,,,,,,,29,001,2023_Feb_22_1134,SpeechDraft1Carolyn_lessNoise_PlusLocalization,2021.2.3,60.070455306357005,
,,,,,,,,center,0.0,6,ch1Sound_localizationTask.wav,0.0,"(952, 878)","(-8,-202)",0,-338,,,,,,,,,7,6,55,3,,,,,,,,,,,,,,,,,,,,,,,,,,,,,,,,,,,,,,,,,,,,2785.2705303709954,None,2786.3695764790755,None,2787.3030532780103,None,1.4010582010582011,0.6658433709526435,2787.3030532780103,None,,,,,,,,,,,29,001,2023_Feb_22_1134,SpeechDraft1Carolyn_lessNoise_PlusLocalization,2021.2.3,60.070455306357005,
,,,,,,,,,,,,,,,,,,,,,,,,,,,,,,,,,,,,,,,,,,,,,,,,,,,,,,,,,,,,,,,,,,,,,,,,,,,,,,,,,,space,4.500543595990166,2788.0531967859715,None,,,,,,,29,001,2023_Feb_22_1134,SpeechDraft1Carolyn_lessNoise_PlusLocalization,2021.2.3,60.070455306357005,
,,,,,,,,midRight,13.0,3,ch1Sound_localizationTask.wav,13.0,"(1142, 878)","(182, -202)",190,-338,,,,,,,,,,,,,0,0,0,5,,,,,,,,,,,,,,,,,,,,,,,,,,,,,,,,,,,,,,,,2792.6029141590698,None,,,2795.636424975004,None,1.6116402116402115,0.9055317379534245,2795.636424975004,None,,,,,2788.0531967859715,None,2793.6032907820772,None,2793.786478062044,2793.8031556920614,29,001,2023_Feb_22_1134,SpeechDraft1Carolyn_lessNoise_PlusLocalization,2021.2.3,60.070455306357005,
,,,,,,,,center,0.0,6,ch1Sound_localizationTask.wav,0.0,"(952, 878)","(-8,-202)",0,-338,,,,,,,,,,,,,0,1,1,3,,,,,,,,,,,,,,,,,,,,,,,,,,,,,,,,,,,,,,,,2796.553261990077,None,,,2799.569506893051,None,1.456084656084656,0.6826717890799046,2799.569506893051,None,,,,,,,2797.5531129339943,None,2797.7364904950373,2797.7531255159993,29,001,2023_Feb_22_1134,SpeechDraft1Carolyn_lessNoise_PlusLocalization,2021.2.3,60.070455306357005,
,,,,,,,,nearRight,6.5,0,ch1Sound_localizationTask.wav,6.5,"(1047, 878)","(87, -202)",95,-338,,,,,,,,,,,,,0,2,2,4,,,,,,,,,,,,,,,,,,,,,,,,,,,,,,,,,,,,,,,,2800.2536961860023,None,,,2803.2695388729917,None,1.5428571428571427,0.5833117169095203,2803.2695388729917,None,,,,,,,2801.253274142975,None,2801.4364634889644,2801.4531908270437,29,001,2023_Feb_22_1134,SpeechDraft1Carolyn_lessNoise_PlusLocalization,2021.2.3,60.070455306357005,
,,,,,,,,nearRight,6.5,0,ch1Sound_localizationTask.wav,6.5,"(1047, 878)","(87, -202)",95,-338,,,,,,,,,,,,,0,3,3,4,,,,,,,,,,,,,,,,,,,,,,,,,,,,,,,,,,,,,,,,2803.8541195309954,None,,,2806.886112126056,None,1.5560846560846562,0.8007765179499984,2806.886112126056,None,,,,,,,2804.869801938068,None,2805.053300042986,2805.0699163749814,29,001,2023_Feb_22_1134,SpeechDraft1Carolyn_lessNoise_PlusLocalization,2021.2.3,60.070455306357005,
,,,,,,,,midLeft,-13.0,2,ch1Sound_localizationTask.wav,-13.0,"(762, 878)","(-198,-202)",-190,-338,,,,,,,,,,,,,0,4,4,1,,,,,,,,,,,,,,,,,,,,,,,,,,,,,,,,,,,,,,,,2807.7031962639885,None,,,2810.719573454,None,1.4095238095238094,0.900276344968006,2810.719573454,None,,,,,,,2808.7031209169654,None,2808.8864563769894,2808.9031531590736,29,001,2023_Feb_22_1134,SpeechDraft1Carolyn_lessNoise_PlusLocalization,2021.2.3,60.070455306357005,
,,,,,,,,farLeft,-19.1,5,ch1Sound_localizationTask.wav,-19.1,"(667, 878)","(-293,-202)",-285,-338,,,,,,,,,,,,,0,5,5,0,,,,,,,,,,,,,,,,,,,,,,,,,,,,,,,,,,,,,,,,2811.6215788070112,None,,,2814.652861978044,None,1.3412698412698414,0.98348585201893,2814.652861978044,None,,,,,,,2812.636488971999,None,2812.819895955967,2812.83650249301,29,001,2023_Feb_22_1134,SpeechDraft1Carolyn_lessNoise_PlusLocalization,2021.2.3,60.070455306357005,
,,,,,,,,nearRight,6.5,0,ch1Sound_localizationTask.wav,6.5,"(1047, 878)","(87, -202)",95,-338,,,,,,,,,,,,,0,6,6,4,,,,,,,,,,,,,,,,,,,,,,,,,,,,,,,,,,,,,,,,2815.6531231390545,None,,,2818.6696773669682,None,1.5867724867724866,1.066331285983324,2818.6696773669682,None,,,,,,,2816.653236038983,None,2816.8365478010383,2816.853166986024,29,001,2023_Feb_22_1134,SpeechDraft1Carolyn_lessNoise_PlusLocalization,2021.2.3,60.070455306357005,
,,,,,,,,nearLeft,-6.5,1,ch1Sound_localizationTask.wav,-6.5,"(857, 878)","(-103,-202)",-95,-338,,,,,,,,,,,,,1,0,7,2,,,,,,,,,,,,,,,,,,,,,,,,,,,,,,,,,,,,,,,,2819.7371714940527,None,,,2822.7528391689993,None,1.4312169312169312,0.7982864300720394,2822.7528391689993,None,,,,,,,2820.736500852043,None,2820.9198993430473,2820.9365122320596,29,001,2023_Feb_22_1134,SpeechDraft1Carolyn_lessNoise_PlusLocalization,2021.2.3,60.070455306357005,
,,,,,,,,farLeft,-19.1,5,ch1Sound_localizationTask.wav,-19.1,"(667, 878)","(-293,-202)",-285,-338,,,,,,,,,,,,,1,1,8,0,,,,,,,,,,,,,,,,,,,,,,,,,,,,,,,,,,,,,,,,2823.553333842079,None,,,2826.569588704966,None,1.317989417989418,1.0994251330848783,2826.569588704966,None,,,,,,,2824.5531742060557,None,2824.7365480880253,2824.7532224230235,29,001,2023_Feb_22_1134,SpeechDraft1Carolyn_lessNoise_PlusLocalization,2021.2.3,60.070455306357005,
,,,,,,,,midLeft,-13.0,2,ch1Sound_localizationTask.wav,-13.0,"(762, 878)","(-198,-202)",-190,-338,,,,,,,,,,,,,1,2,9,1,,,,,,,,,,,,,,,,,,,,,,,,,,,,,,,,,,,,,,,,2827.67028155108,None,,,2830.686367567978,None,1.4068783068783068,0.7324860539520159,2830.686367567978,None,,,,,,,2828.6700288549764,None,2828.853181926068,2828.8699139130767,29,001,2023_Feb_22_1134,SpeechDraft1Carolyn_lessNoise_PlusLocalization,2021.2.3,60.070455306357005,
,,,,,,,,midLeft,-13.0,2,ch1Sound_localizationTask.wav,-13.0,"(762, 878)","(-198,-202)",-190,-338,,,,,,,,,,,,,1,3,10,1,,,,,,,,,,,,,,,,,,,,,,,,,,,,,,,,,,,,,,,,2831.4201877290616,None,,,2834.436229094048,None,1.4084656084656084,0.5157191579928622,2834.436229094048,None,,,,,,,2832.4198604840785,None,2832.6032151699765,2832.6198665030533,29,001,2023_Feb_22_1134,SpeechDraft1Carolyn_lessNoise_PlusLocalization,2021.2.3,60.070455306357005,
,,,,,,,,center,0.0,6,ch1Sound_localizationTask.wav,0.0,"(952, 878)","(-8,-202)",0,-338,,,,,,,,,,,,,1,4,11,3,,,,,,,,,,,,,,,,,,,,,,,,,,,,,,,,,,,,,,,,2834.953240571078,None,,,2837.969633192988,None,1.5047619047619047,0.7819472949486226,2837.969633192988,None,,,,,,,2835.9534099730663,None,2836.136565051973,2836.1533541700337,29,001,2023_Feb_22_1134,SpeechDraft1Carolyn_lessNoise_PlusLocalization,2021.2.3,60.070455306357005,
,,,,,,,,farLeft,-19.1,5,ch1Sound_localizationTask.wav,-19.1,"(667, 878)","(-293,-202)",-285,-338,,,,,,,,,,,,,1,5,12,0,,,,,,,,,,,,,,,,,,,,,,,,,,,,,,,,,,,,,,,,2838.753224021988,None,,,2841.7696450239746,None,1.337037037037037,0.9332067739451304,2841.7696450239746,None,,,,,,,2839.753173807054,None,2839.9365194110433,2839.9532246660674,29,001,2023_Feb_22_1134,SpeechDraft1Carolyn_lessNoise_PlusLocalization,2021.2.3,60.070455306357005,
,,,,,,,,midRight,13.0,3,ch1Sound_localizationTask.wav,13.0,"(1142, 878)","(182, -202)",190,-338,,,,,,,,,,,,,1,6,13,5,,,,,,,,,,,,,,,,,,,,,,,,,,,,,,,,,,,,,,,,2842.7198288880754,None,,,2845.7363224120345,None,1.625925925925926,0.8323446550639346,2845.7363224120345,None,,,,,,,2843.7198509430746,None,2843.903100976022,2843.919944631052,29,001,2023_Feb_22_1134,SpeechDraft1Carolyn_lessNoise_PlusLocalization,2021.2.3,60.070455306357005,
,,,,,,,,center,0.0,6,ch1Sound_localizationTask.wav,0.0,"(952, 878)","(-8,-202)",0,-338,,,,,,,,,,,,,2,0,14,3,,,,,,,,,,,,,,,,,,,,,,,,,,,,,,,,,,,,,,,,2846.570231000078,None,,,2849.5863369089784,None,1.483068783068783,0.6337957140058279,2849.5863369089784,None,,,,,,,2847.5698257860495,None,2847.7531930879923,2847.7699242850067,29,001,2023_Feb_22_1134,SpeechDraft1Carolyn_lessNoise_PlusLocalization,2021.2.3,60.070455306357005,
,,,,,,,,nearRight,6.5,0,ch1Sound_localizationTask.wav,6.5,"(1047, 878)","(87, -202)",95,-338,,,,,,,,,,,,,2,1,15,4,,,,,,,,,,,,,,,,,,,,,,,,,,,,,,,,,,,,,,,,2850.2366263549775,None,,,2853.252942675026,None,1.553968253968254,0.5154868760146201,2853.252942675026,None,,,,,,,2851.2365828050533,None,2851.4198487360263,2851.4365967790363,29,001,2023_Feb_22_1134,SpeechDraft1Carolyn_lessNoise_PlusLocalization,2021.2.3,60.070455306357005,
,,,,,,,,midRight,13.0,3,ch1Sound_localizationTask.wav,13.0,"(1142, 878)","(182, -202)",190,-338,,,,,,,,,,,,,2,2,16,5,,,,,,,,,,,,,,,,,,,,,,,,,,,,,,,,,,,,,,,,2853.7702948370716,None,,,2856.786386781023,None,1.5973544973544973,0.5349980680039153,2856.786386781023,None,,,,,,,2854.7700722779846,None,2854.9532942060614,2854.970075891004,29,001,2023_Feb_22_1134,SpeechDraft1Carolyn_lessNoise_PlusLocalization,2021.2.3,60.070455306357005,
,,,,,,,,center,0.0,6,ch1Sound_localizationTask.wav,0.0,"(952, 878)","(-8,-202)",0,-338,,,,,,,,,,,,,2,3,17,3,,,,,,,,,,,,,,,,,,,,,,,,,,,,,,,,,,,,,,,,2857.3366260170005,None,,,2860.3530214420753,None,1.4984126984126984,0.6666016649687663,2860.3530214420753,None,,,,,,,2858.3365846200613,None,2858.519897317048,2858.5365606360137,29,001,2023_Feb_22_1134,SpeechDraft1Carolyn_lessNoise_PlusLocalization,2021.2.3,60.070455306357005,
,,,,,,,,farRight,19.1,4,ch1Sound_localizationTask.wav,19.1,"(1237, 878)","(277,-202)",285,-338,,,,,,,,,,,,,2,4,18,6,,,,,,,,,,,,,,,,,,,,,,,,,,,,,,,,,,,,,,,,2861.03662103205,None,,,2864.0529865800636,None,1.6957671957671958,0.832967780996114,2864.0529865800636,None,,,,,,,2862.036558298045,None,2862.2199344170513,2862.2366572010797,29,001,2023_Feb_22_1134,SpeechDraft1Carolyn_lessNoise_PlusLocalization,2021.2.3,60.070455306357005,
,,,,,,,,center,0.0,6,ch1Sound_localizationTask.wav,0.0,"(952, 878)","(-8,-202)",0,-338,,,,,,,,,,,,,2,5,19,3,,,,,,,,,,,,,,,,,,,,,,,,,,,,,,,,,,,,,,,,2864.887662897003,None,,,2867.9196788150584,None,1.51005291005291,0.6660999780287966,2867.9196788150584,None,,,,,,,2865.903273037984,None,2866.086597676971,2866.103179418016,29,001,2023_Feb_22_1134,SpeechDraft1Carolyn_lessNoise_PlusLocalization,2021.2.3,60.070455306357005,
,,,,,,,,farLeft,-19.1,5,ch1Sound_localizationTask.wav,-19.1,"(667, 878)","(-293,-202)",-285,-338,,,,,,,,,,,,,2,6,20,0,,,,,,,,,,,,,,,,,,,,,,,,,,,,,,,,,,,,,,,,2868.6032239350025,None,,,2871.6197079659905,None,1.3111111111111111,0.8495686938986182,2871.6197079659905,None,,,,,,,2869.6031727399677,None,2869.786606532987,2869.803258968983,29,001,2023_Feb_22_1134,SpeechDraft1Carolyn_lessNoise_PlusLocalization,2021.2.3,60.070455306357005,
,,,,,,,,center,0.0,6,ch1Sound_localizationTask.wav,0.0,"(952, 878)","(-8,-202)",0,-338,,,,,,,,,,,,,3,0,21,3,,,,,,,,,,,,,,,,,,,,,,,,,,,,,,,,,,,,,,,,2872.486244347994,None,,,2875.502942532068,None,1.51005291005291,0.7169273149920627,2875.502942532068,None,,,,,,,2873.4865451480728,None,2873.669939215062,2873.6866465830244,29,001,2023_Feb_22_1134,SpeechDraft1Carolyn_lessNoise_PlusLocalization,2021.2.3,60.070455306357005,
,,,,,,,,midRight,13.0,3,ch1Sound_localizationTask.wav,13.0,"(1142, 878)","(182, -202)",190,-338,,,,,,,,,,,,,3,1,22,5,,,,,,,,,,,,,,,,,,,,,,,,,,,,,,,,,,,,,,,,2876.236724009039,None,,,2879.253325712052,None,1.6227513227513226,0.9005671219201759,2879.253325712052,None,,,,,,,2877.236628970015,None,2877.4198992520105,2877.4365542960586,29,001,2023_Feb_22_1134,SpeechDraft1Carolyn_lessNoise_PlusLocalization,2021.2.3,60.070455306357005,
,,,,,,,,nearLeft,-6.5,1,ch1Sound_localizationTask.wav,-6.5,"(857, 878)","(-103,-202)",-95,-338,,,,,,,,,,,,,3,2,23,2,,,,,,,,,,,,,,,,,,,,,,,,,,,,,,,,,,,,,,,,2880.1700251270086,None,,,2883.1863450750243,None,1.403174603174603,0.7837236450286582,2883.1863450750243,None,,,,,,,2881.169985917979,None,2881.3532610160764,2881.369876871002,29,001,2023_Feb_22_1134,SpeechDraft1Carolyn_lessNoise_PlusLocalization,2021.2.3,60.070455306357005,
,,,,,,,,midRight,13.0,3,ch1Sound_localizationTask.wav,13.0,"(1142, 878)","(182, -202)",190,-338,,,,,,,,,,,,,3,3,24,5,,,,,,,,,,,,,,,,,,,,,,,,,,,,,,,,,,,,,,,,2883.986739756074,None,,,2887.0031332450453,None,1.602116402116402,0.5336937309475616,2887.0031332450453,None,,,,,,,2884.9866367300274,None,2885.1698882919736,2885.186620195047,29,001,2023_Feb_22_1134,SpeechDraft1Carolyn_lessNoise_PlusLocalization,2021.2.3,60.070455306357005,
,,,,,,,,nearRight,6.5,0,ch1Sound_localizationTask.wav,6.5,"(1047, 878)","(87, -202)",95,-338,,,,,,,,,,,,,3,4,25,4,,,,,,,,,,,,,,,,,,,,,,,,,,,,,,,,,,,,,,,,2887.5376400500536,None,,,2890.569797531003,None,1.5523809523809524,0.667125576059334,2890.569797531003,None,,,,,,,2888.5532629140653,None,2888.7366063470254,2888.753322151024,29,001,2023_Feb_22_1134,SpeechDraft1Carolyn_lessNoise_PlusLocalization,2021.2.3,60.070455306357005,
,,,,,,,,center,0.0,6,ch1Sound_localizationTask.wav,0.0,"(952, 878)","(-8,-202)",0,-338,,,,,,,,,,,,,3,5,26,3,,,,,,,,,,,,,,,,,,,,,,,,,,,,,,,,,,,,,,,,2891.253314794041,None,,,2894.269655646989,None,1.5153439153439154,0.500131510081701,2894.269655646989,None,,,,,,,2892.2532448139973,None,2892.4365877760574,2892.4532443410717,29,001,2023_Feb_22_1134,SpeechDraft1Carolyn_lessNoise_PlusLocalization,2021.2.3,60.070455306357005,
,,,,,,,,farRight,19.1,4,ch1Sound_localizationTask.wav,19.1,"(1237, 878)","(277,-202)",285,-338,,,,,,,,,,,,,3,6,27,6,,,,,,,,,,,,,,,,,,,,,,,,,,,,,,,,,,,,,,,,2894.7709776629927,None,,,2897.803057403071,None,1.6661375661375661,0.7165237340377644,2897.803057403071,None,,,,,,,2895.7865554540185,None,2895.9699096289696,2895.986651215004,29,001,2023_Feb_22_1134,SpeechDraft1Carolyn_lessNoise_PlusLocalization,2021.2.3,60.070455306357005,
,,,,,,,,farLeft,-19.1,5,ch1Sound_localizationTask.wav,-19.1,"(667, 878)","(-293,-202)",-285,-338,,,,,,,,,,,,,4,0,28,0,,,,,,,,,,,,,,,,,,,,,,,,,,,,,,,,,,,,,,,,2898.5203439170728,None,,,2901.53640702297,None,1.3402116402116402,0.9520489110145718,2901.53640702297,None,,,,,,,2899.5199687640416,None,2899.7032337490236,2899.71991876408,29,001,2023_Feb_22_1134,SpeechDraft1Carolyn_lessNoise_PlusLocalization,2021.2.3,60.070455306357005,
,,,,,,,,nearRight,6.5,0,ch1Sound_localizationTask.wav,6.5,"(1047, 878)","(87, -202)",95,-338,,,,,,,,,,,,,4,1,29,4,,,,,,,,,,,,,,,,,,,,,,,,,,,,,,,,,,,,,,,,2902.503356544068,None,,,2905.519669107045,None,1.5666666666666667,1.0326831900747493,2905.519669107045,None,,,,,,,2903.503354404005,None,2903.6867860520724,2903.7032576609636,29,001,2023_Feb_22_1134,SpeechDraft1Carolyn_lessNoise_PlusLocalization,2021.2.3,60.070455306357005,
,,,,,,,,nearLeft,-6.5,1,ch1Sound_localizationTask.wav,-6.5,"(857, 878)","(-103,-202)",-95,-338,,,,,,,,,,,,,4,2,30,2,,,,,,,,,,,,,,,,,,,,,,,,,,,,,,,,,,,,,,,,2906.5550708730007,None,,,2909.586444562068,None,1.438095238095238,1.0175406329799443,2909.586444562068,None,,,,,,,2907.5700272229733,None,2907.7533277720213,2907.7700052110013,29,001,2023_Feb_22_1134,SpeechDraft1Carolyn_lessNoise_PlusLocalization,2021.2.3,60.070455306357005,
,,,,,,,,midLeft,-13.0,2,ch1Sound_localizationTask.wav,-13.0,"(762, 878)","(-198,-202)",-190,-338,,,,,,,,,,,,,4,3,31,1,,,,,,,,,,,,,,,,,,,,,,,,,,,,,,,,,,,,,,,,2910.62006455299,None,,,2913.6363914710237,None,1.3624338624338623,0.6833981500240043,2913.6363914710237,None,,,,,,,2911.6200309969718,None,2911.8033521480393,2911.819926348049,29,001,2023_Feb_22_1134,SpeechDraft1Carolyn_lessNoise_PlusLocalization,2021.2.3,60.070455306357005,
,,,,,,,,nearLeft,-6.5,1,ch1Sound_localizationTask.wav,-6.5,"(857, 878)","(-103,-202)",-95,-338,,,,,,,,,,,,,4,4,32,2,,,,,,,,,,,,,,,,,,,,,,,,,,,,,,,,,,,,,,,,2914.3211206280394,None,,,2917.353074477054,None,1.4317460317460318,0.633009482990019,2917.353074477054,None,,,,,,,2915.3366924610455,None,2915.519948923029,2915.53688647307,29,001,2023_Feb_22_1134,SpeechDraft1Carolyn_lessNoise_PlusLocalization,2021.2.3,60.070455306357005,
,,,,,,,,farRight,19.1,4,ch1Sound_localizationTask.wav,19.1,"(1237, 878)","(277,-202)",285,-338,,,,,,,,,,,,,4,5,33,6,,,,,,,,,,,,,,,,,,,,,,,,,,,,,,,,,,,,,,,,2917.9873940499965,None,,,2921.003176360042,None,1.7037037037037037,1.166943710995838,2921.003176360042,None,,,,,,,2918.98663454107,None,2919.1700110570528,2919.186631108052,29,001,2023_Feb_22_1134,SpeechDraft1Carolyn_lessNoise_PlusLocalization,2021.2.3,60.070455306357005,
,,,,,,,,midLeft,-13.0,2,ch1Sound_localizationTask.wav,-13.0,"(762, 878)","(-198,-202)",-190,-338,,,,,,,,,,,,,4,6,34,1,,,,,,,,,,,,,,,,,,,,,,,,,,,,,,,,,,,,,,,,2922.1868522029836,None,,,2925.2029702879954,None,1.3666666666666667,1.032517342013307,2925.2029702879954,None,,,,,,,2923.1867231159704,None,2923.3700257170713,2923.386735973996,29,001,2023_Feb_22_1134,SpeechDraft1Carolyn_lessNoise_PlusLocalization,2021.2.3,60.070455306357005,
,,,,,,,,farRight,19.1,4,ch1Sound_localizationTask.wav,19.1,"(1237, 878)","(277,-202)",285,-338,,,,,,,,,,,,,5,0,35,6,,,,,,,,,,,,,,,,,,,,,,,,,,,,,,,,,,,,,,,,2926.2381284589646,None,,,2929.269676545053,None,1.6682539682539683,0.7005042609525844,2929.269676545053,None,,,,,,,2927.253540144069,None,2927.4367344550556,2927.4532543959795,29,001,2023_Feb_22_1134,SpeechDraft1Carolyn_lessNoise_PlusLocalization,2021.2.3,60.070455306357005,
,,,,,,,,nearRight,6.5,0,ch1Sound_localizationTask.wav,6.5,"(1047, 878)","(87, -202)",95,-338,,,,,,,,,,,,,5,1,36,4,,,,,,,,,,,,,,,,,,,,,,,,,,,,,,,,,,,,,,,,2929.986653272994,None,,,2933.0030754760373,None,1.5835978835978834,0.750553322955966,2933.0030754760373,None,,,,,,,2930.98668059404,None,2931.1700184530346,2931.186681956053,29,001,2023_Feb_22_1134,SpeechDraft1Carolyn_lessNoise_PlusLocalization,2021.2.3,60.070455306357005,
,,,,,,,,farLeft,-19.1,5,ch1Sound_localizationTask.wav,-19.1,"(667, 878)","(-293,-202)",-285,-338,,,,,,,,,,,,,5,2,37,0,,,,,,,,,,,,,,,,,,,,,,,,,,,,,,,,,,,,,,,,2933.7700314610265,None,,,2936.786501916009,None,1.298941798941799,0.8161191310500726,2936.786501916009,None,,,,,,,2934.7702284579864,None,2934.953330712975,2934.9701737830183,29,001,2023_Feb_22_1134,SpeechDraft1Carolyn_lessNoise_PlusLocalization,2021.2.3,60.070455306357005,
,,,,,,,,farLeft,-19.1,5,ch1Sound_localizationTask.wav,-19.1,"(667, 878)","(-293,-202)",-285,-338,,,,,,,,,,,,,5,3,38,0,,,,,,,,,,,,,,,,,,,,,,,,,,,,,,,,,,,,,,,,2937.6037565600127,None,,,2940.6196840220364,None,1.2645502645502646,0.683341870084405,2940.6196840220364,None,,,,,,,2938.603439677041,None,2938.7867293599993,2938.803286115988,29,001,2023_Feb_22_1134,SpeechDraft1Carolyn_lessNoise_PlusLocalization,2021.2.3,60.070455306357005,
,,,,,,,,midLeft,-13.0,2,ch1Sound_localizationTask.wav,-13.0,"(762, 878)","(-198,-202)",-190,-338,,,,,,,,,,,,,5,4,39,1,,,,,,,,,,,,,,,,,,,,,,,,,,,,,,,,,,,,,,,,2941.3036527030636,None,,,2944.3197664080653,None,1.4264550264550264,0.7834021770395339,2944.3197664080653,None,,,,,,,2942.3033576470334,None,2942.4866177500226,2942.503316770075,29,001,2023_Feb_22_1134,SpeechDraft1Carolyn_lessNoise_PlusLocalization,2021.2.3,60.070455306357005,
,,,,,,,,midRight,13.0,3,ch1Sound_localizationTask.wav,13.0,"(1142, 878)","(182, -202)",190,-338,,,,,,,,,,,,,5,5,40,5,,,,,,,,,,,,,,,,,,,,,,,,,,,,,,,,,,,,,,,,2945.120141054038,None,,,2948.1364076230675,None,1.6407407407407408,0.6001946529140696,2948.1364076230675,None,,,,,,,2946.12003996002,None,2946.3033922300674,2946.3200204509776,29,001,2023_Feb_22_1134,SpeechDraft1Carolyn_lessNoise_PlusLocalization,2021.2.3,60.070455306357005,
,,,,,,,,midRight,13.0,3,ch1Sound_localizationTask.wav,13.0,"(1142, 878)","(182, -202)",190,-338,,,,,,,,,,,,,5,6,41,5,,,,,,,,,,,,,,,,,,,,,,,,,,,,,,,,,,,,,,,,2948.7534329510527,None,,,2951.7697418010794,None,1.6407407407407408,0.03225226595532149,2951.7697418010794,None,,,,,,,2949.753554229974,None,2949.9366969739785,2949.9534748099977,29,001,2023_Feb_22_1134,SpeechDraft1Carolyn_lessNoise_PlusLocalization,2021.2.3,60.070455306357005,
,,,,,,,,nearLeft,-6.5,1,ch1Sound_localizationTask.wav,-6.5,"(857, 878)","(-103,-202)",-95,-338,,,,,,,,,,,,,6,0,42,2,,,,,,,,,,,,,,,,,,,,,,,,,,,,,,,,,,,,,,,,2951.803265384049,None,,,2954.819822852034,None,1.4402116402116403,0.8169503649696708,2954.819822852034,None,,,,,,,2952.803360179998,None,2952.986679940019,2953.0033519939752,29,001,2023_Feb_22_1134,SpeechDraft1Carolyn_lessNoise_PlusLocalization,2021.2.3,60.070455306357005,
,,,,,,,,midRight,13.0,3,ch1Sound_localizationTask.wav,13.0,"(1142, 878)","(182, -202)",190,-338,,,,,,,,,,,,,6,1,43,5,,,,,,,,,,,,,,,,,,,,,,,,,,,,,,,,,,,,,,,,2955.653459948022,None,,,2958.66978118103,None,1.632804232804233,0.5173263599863276,2958.66978118103,None,,,,,,,2956.653398320079,None,2956.836725290981,2956.853367082076,29,001,2023_Feb_22_1134,SpeechDraft1Carolyn_lessNoise_PlusLocalization,2021.2.3,60.070455306357005,
,,,,,,,,midLeft,-13.0,2,ch1Sound_localizationTask.wav,-13.0,"(762, 878)","(-198,-202)",-190,-338,,,,,,,,,,,,,6,2,44,1,,,,,,,,,,,,,,,,,,,,,,,,,,,,,,,,,,,,,,,,2959.2033540720586,None,,,2962.2197254099883,None,1.3857142857142857,0.7823718959698454,2962.2197254099883,None,,,,,,,2960.203313966049,None,2960.3867777059786,2960.4033425219823,29,001,2023_Feb_22_1134,SpeechDraft1Carolyn_lessNoise_PlusLocalization,2021.2.3,60.070455306357005,
,,,,,,,,farRight,19.1,4,ch1Sound_localizationTask.wav,19.1,"(1237, 878)","(277,-202)",285,-338,,,,,,,,,,,,,6,3,45,6,,,,,,,,,,,,,,,,,,,,,,,,,,,,,,,,,,,,,,,,2963.0046749800676,None,,,2966.0365734109655,None,1.6735449735449737,1.1155250869924203,2966.0365734109655,None,,,,,,,2964.0199591249693,None,2964.203391700983,2964.2200408279896,29,001,2023_Feb_22_1134,SpeechDraft1Carolyn_lessNoise_PlusLocalization,2021.2.3,60.070455306357005,
,,,,,,,,nearLeft,-6.5,1,ch1Sound_localizationTask.wav,-6.5,"(857, 878)","(-103,-202)",-95,-338,,,,,,,,,,,,,6,4,46,2,,,,,,,,,,,,,,,,,,,,,,,,,,,,,,,,,,,,,,,,2967.1534576250706,None,,,2970.1696827160195,None,1.4486772486772486,0.5994954840280116,2970.1696827160195,None,,,,,,,2968.153351212037,None,2968.3366352099692,2968.353426001966,29,001,2023_Feb_22_1134,SpeechDraft1Carolyn_lessNoise_PlusLocalization,2021.2.3,60.070455306357005,
,,,,,,,,farRight,19.1,4,ch1Sound_localizationTask.wav,19.1,"(1237, 878)","(277,-202)",285,-338,,,,,,,,,,,,,6,5,47,6,,,,,,,,,,,,,,,,,,,,,,,,,,,,,,,,,,,,,,,,2970.771088127047,None,,,2973.8032312489813,None,1.6883597883597883,0.7488648659782484,2973.8032312489813,None,,,,,,,2971.78666179406,None,2971.970076564001,2971.9867986650206,29,001,2023_Feb_22_1134,SpeechDraft1Carolyn_lessNoise_PlusLocalization,2021.2.3,60.070455306357005,
,,,,,,,,farRight,19.1,4,ch1Sound_localizationTask.wav,19.1,"(1237, 878)","(277,-202)",285,-338,,,,,,,,,,,,,6,6,48,6,,,,,,,,,,,,,,,,,,,,,,,,,,,,,,,,,,,,,,,,2974.5535287630046,None,,,2977.5698559930315,None,1.6851851851851851,0.4662619649898261,2977.5698559930315,None,,,,,,,2975.5534266320756,None,2975.736995237996,2975.753431607969,29,001,2023_Feb_22_1134,SpeechDraft1Carolyn_lessNoise_PlusLocalization,2021.2.3,60.070455306357005,
,,,,,,,,farRight,19.1,4,ch1Sound_localizationTask.wav,19.1,"(1237, 878)","(277,-202)",285,-338,,,,,,,,,,,,,7,0,49,6,,,,,,,,,,,,,,,,,,,,,,,,,,,,,,,,,,,,,,,,2978.0369532500627,None,,,2981.0531088380376,None,1.6851851851851851,0.04856925900094211,2981.0531088380376,None,,,,,,,2979.0367512509692,None,2979.2201539119706,2979.236738063977,29,001,2023_Feb_22_1134,SpeechDraft1Carolyn_lessNoise_PlusLocalization,2021.2.3,60.070455306357005,
,,,,,,,,center,0.0,6,ch1Sound_localizationTask.wav,0.0,"(952, 878)","(-8,-202)",0,-338,,,,,,,,,,,,,7,1,50,3,,,,,,,,,,,,,,,,,,,,,,,,,,,,,,,,,,,,,,,,2981.103520108969,None,,,2984.119876959012,None,1.5793650793650795,0.39885356393642724,2984.119876959012,None,,,,,,,2982.1035693400772,None,2982.2867506860057,2982.3034433870343,29,001,2023_Feb_22_1134,SpeechDraft1Carolyn_lessNoise_PlusLocalization,2021.2.3,60.070455306357005,
,,,,,,,,nearLeft,-6.5,1,ch1Sound_localizationTask.wav,-6.5,"(857, 878)","(-103,-202)",-95,-338,,,,,,,,,,,,,7,2,51,2,,,,,,,,,,,,,,,,,,,,,,,,,,,,,,,,,,,,,,,,2984.520580503973,None,,,2987.5364971740637,None,1.452910052910053,0.4334167620399967,2987.5364971740637,None,,,,,,,2985.5200748699717,None,2985.7033937419765,2985.7200812409865,29,001,2023_Feb_22_1134,SpeechDraft1Carolyn_lessNoise_PlusLocalization,2021.2.3,60.070455306357005,
,,,,,,,,farLeft,-19.1,5,ch1Sound_localizationTask.wav,-19.1,"(667, 878)","(-293,-202)",-285,-338,,,,,,,,,,,,,7,3,52,0,,,,,,,,,,,,,,,,,,,,,,,,,,,,,,,,,,,,,,,,2987.986770050018,None,,,2991.0032131170155,None,1.3677248677248677,0.5322193290339783,2991.0032131170155,None,,,,,,,2988.986759766005,None,2989.1701767949853,2989.1868171100505,29,001,2023_Feb_22_1134,SpeechDraft1Carolyn_lessNoise_PlusLocalization,2021.2.3,60.070455306357005,
,,,,,,,,nearLeft,-6.5,1,ch1Sound_localizationTask.wav,-6.5,"(857, 878)","(-103,-202)",-95,-338,,,,,,,,,,,,,7,4,53,2,,,,,,,,,,,,,,,,,,,,,,,,,,,,,,,,,,,,,,,,2991.5366890400182,None,,,2994.553181407973,None,1.4328042328042327,0.8154388340190053,2994.553181407973,None,,,,,,,2992.536781418021,None,2992.720051812008,2992.7368166580563,29,001,2023_Feb_22_1134,SpeechDraft1Carolyn_lessNoise_PlusLocalization,2021.2.3,60.070455306357005,
,,,,,,,,midLeft,-13.0,2,ch1Sound_localizationTask.wav,-13.0,"(762, 878)","(-198,-202)",-190,-338,,,,,,,,,,,,,7,5,54,1,,,,,,,,,,,,,,,,,,,,,,,,,,,,,,,,,,,,,,,,2995.386761207017,None,,,2998.403235125006,None,1.4216931216931217,0.39969272003509104,2998.403235125006,None,,,,,,,2996.3867926020175,None,2996.570162364049,2996.586667821044,29,001,2023_Feb_22_1134,SpeechDraft1Carolyn_lessNoise_PlusLocalization,2021.2.3,60.070455306357005,
,,,,,,,,nearRight,6.5,0,ch1Sound_localizationTask.wav,6.5,"(1047, 878)","(87, -202)",95,-338,,,,,,,,,,,,,7,6,55,4,,,,,,,,,,,,,,,,,,,,,,,,,,,,,,,,,,,,,,,,2998.804058559006,None,,,3001.8199090440758,None,1.516931216931217,0.5491701579885557,3001.8199090440758,None,,,,,,,2999.80342675501,None,2999.9867494470673,3000.003398252069,29,001,2023_Feb_22_1134,SpeechDraft1Carolyn_lessNoise_PlusLocalization,2021.2.3,60.070455306357005,
