Audio_Only_Files,Video_Files,Original_Word_List,noiseLevelCode,conditionCodes,noiseLevelFile1,noiseLevelFile2,InstrTextVar,targetSpeakerName,targetSpeakerEccen,targetSpkrChannel,targetSpkrSound,targetVisualDegrees,visStimLoc,visStimLoc2,visStimW,visStimH,practiceTrials.thisRepN,practiceTrials.thisTrialN,practiceTrials.thisN,practiceTrials.thisIndex,trials.thisRepN,trials.thisTrialN,trials.thisN,trials.thisIndex,audLocalLoop.thisRepN,audLocalLoop.thisTrialN,audLocalLoop.thisN,audLocalLoop.thisIndex,visualLocalLoop.thisRepN,visualLocalLoop.thisTrialN,visualLocalLoop.thisN,visualLocalLoop.thisIndex,letsGoAlready.keys,letsGoAlready.rt,letsGoAlready.started,letsGoAlready.stopped,text_2.started,text_2.stopped,text_3.started,text_3.stopped,key_resp_2.keys,key_resp_2.rt,key_resp_2.started,key_resp_2.stopped,text_5.started,text_5.stopped,fixCross.started,fixCross.stopped,fixCross2.started,fixCross2.stopped,answerPrompt.started,answerPrompt.stopped,getAnswer.text,getAnswer.started,getAnswer.stopped,goToNext.keys,goToNext.rt,goToNext.started,goToNext.stopped,stretchBreakTxrt.started,stretchBreakTxrt.stopped,key_resp_3.keys,key_resp_3.rt,key_resp_3.started,key_resp_3.stopped,letsGoLocal.keys,letsGoLocal.rt,letsGoLocal.started,letsGoLocal.stopped,text_4.started,text_4.stopped,prepFixTxt.started,prepFixTxt.stopped,prepFixTxt_2.started,prepFixTxt_2.stopped,respPromptLocal.started,respPromptLocal.stopped,slider.response,slider.rt,slider.started,slider.stopped,letsGoLocal_2.keys,letsGoLocal_2.rt,letsGoLocal_2.started,letsGoLocal_2.stopped,text_7.started,text_7.stopped,prepFixTxt_3.started,prepFixTxt_3.stopped,grating.started,grating.stopped,participant,session,date,expName,psychopyVersion,frameRate,
,,,,,,,,,,,,,,,,,,,,,,,,,,,,,,,,,space,2.787939995061606,16.328502526972443,None,,,,,,,,,,,,,,,,,,,,,,,,,,,,,,,,,,,,,,,,,,,,,,,,,,,,,,,,30,001,2023_Feb_22_1627,SpeechDraft1Carolyn_lessNoise_PlusLocalization,2021.2.3,59.96310855787569,
,,,,,,,,,,,,,,,,,,,,,,,,,,,,,,,,,,,,,16.328502526972443,None,19.14489782496821,None,space,15.996899015037343,19.311574966064654,None,,,,,,,,,,,,,,,,,,,,,,,,,,,,,,,,,,,,,,,,,,,,,,,,30,001,2023_Feb_22_1627,SpeechDraft1Carolyn_lessNoise_PlusLocalization,2021.2.3,59.96310855787569,
ash.wav,ash.mpg,ash,1,A,Pink_Noise_1_1.wav,Pink_Noise_1_2.wav,"This is an example of an

AUDIO trial",,,,,,,,,,0,0,0,0,,,,,,,,,,,,,,,,,,,,,,,,,35.3456998670008,None,36.34493448701687,None,39.54654856596608,None,40.94463054800872,None,"ash
",40.94463054800872,None,return,4.984756989986636,41.011607327032834,None,,,,,,,,,,,,,,,,,,,,,,,,,,,,,,,,,30,001,2023_Feb_22_1627,SpeechDraft1Carolyn_lessNoise_PlusLocalization,2021.2.3,59.96310855787569,
ash.wav,ash.mpg,ash,1,AV,Pink_Noise_1_1.wav,Pink_Noise_1_2.wav,"This is an example of an

AUDIO + VIDEO  trial",,,,,,,,,,0,1,1,1,,,,,,,,,,,,,,,,,,,,,,,,,46.044696199009195,None,47.04486516898032,None,48.52928898099344,None,49.91151262400672,None,ash,49.91151262400672,None,return,0.8333212579600513,49.995034110033885,None,,,,,,,,,,,,,,,,,,,,,,,,,,,,,,,,,30,001,2023_Feb_22_1627,SpeechDraft1Carolyn_lessNoise_PlusLocalization,2021.2.3,59.96310855787569,
,,,,,,,,,,,,,,,,,,,,,,,,,,,,,,,,,,,,,,,,,,,,,,,,,,,,,,,,,,,,50.86151030403562,None,space,9.343364951084368,51.04501249501482,None,,,,,,,,,,,,,,,,,,,,,,,,,,,30,001,2023_Feb_22_1627,SpeechDraft1Carolyn_lessNoise_PlusLocalization,2021.2.3,59.96310855787569,
fine.wav,fine.mpg,fine,2,A,Pink_Noise_2_1.wav,Pink_Noise_2_2.wav,,,,,,,,,,,,,,,0,0,0,14,,,,,,,,,,,,,,,,,,,,,,,60.444608491961844,None,61.928074734983966,None,63.311736522009596,None,find,63.311736522009596,None,return,2.8494274290278554,63.39500371995382,None,,,,,,,,,,,,,,,,,,,,,,,,,,,,,,,,,30,001,2023_Feb_22_1627,SpeechDraft1Carolyn_lessNoise_PlusLocalization,2021.2.3,59.96310855787569,
crypt.wav,crypt.mpg,crypt,6,A,Pink_Noise_6_1.wav,Pink_Noise_6_2.wav,,,,,,,,,,,,,,,0,1,1,33,,,,,,,,,,,,,,,,,,,,,,,66.26164276700001,None,67.76141995296348,None,69.14495006098878,None,find,69.14495006098878,None,return,4.880093898973428,69.22834540205076,None,,,,,,,,,,,,,,,,,,,,,,,,,,,,,,,,,30,001,2023_Feb_22_1627,SpeechDraft1Carolyn_lessNoise_PlusLocalization,2021.2.3,59.96310855787569,
frog.wav,frog.mpg,frog,6,A,Pink_Noise_6_1.wav,Pink_Noise_6_2.wav,,,,,,,,,,,,,,,0,2,2,42,,,,,,,,,,,,,,,,,,,,,,,74.12846440798603,None,75.62788961501792,None,77.01170681300573,None,blow,77.01170681300573,None,return,4.013551302952692,77.09493829798885,None,,,,,,,,,,,,,,,,,,,,,,,,,,,,,,,,,30,001,2023_Feb_22_1627,SpeechDraft1Carolyn_lessNoise_PlusLocalization,2021.2.3,59.96310855787569,
dread.wav,dread.mpg,dread,6,A,Pink_Noise_6_1.wav,Pink_Noise_6_2.wav,,,,,,,,,,,,,,,0,3,3,4,,,,,,,,,,,,,,,,,,,,,,,81.12830400606617,None,82.62796237005387,None,84.01178639102727,None,blow,84.01178639102727,None,return,1.5735287360148504,84.094986313954,None,,,,,,,,,,,,,,,,,,,,,,,,,,,,,,,,,30,001,2023_Feb_22_1627,SpeechDraft1Carolyn_lessNoise_PlusLocalization,2021.2.3,59.96310855787569,
creep.wav,creep.mpg,creep,4,AV,Pink_Noise_4_1.wav,Pink_Noise_4_2.wav,,,,,,,,,,,,,,,0,4,4,62,,,,,,,,,,,,,,,,,,,,,,,85.69499047496356,None,87.19471077399794,None,88.57831806200556,None,"grip
",88.57831806200556,None,return,1.7185663669370115,88.66178141196724,None,,,,,,,,,,,,,,,,,,,,,,,,,,,,,,,,,30,001,2023_Feb_22_1627,SpeechDraft1Carolyn_lessNoise_PlusLocalization,2021.2.3,59.96310855787569,
depth.wav,depth.mpg,depth,1,A,Pink_Noise_1_1.wav,Pink_Noise_1_2.wav,,,,,,,,,,,,,,,0,5,5,18,,,,,,,,,,,,,,,,,,,,,,,90.4116603420116,None,91.91139041201677,None,93.29503650998231,None,debt,93.29503650998231,None,return,0.8100788500159979,93.3782743680058,None,,,,,,,,,,,,,,,,,,,,,,,,,,,,,,,,,30,001,2023_Feb_22_1627,SpeechDraft1Carolyn_lessNoise_PlusLocalization,2021.2.3,59.96310855787569,
blot.wav,blot.mpg,blot,6,A,Pink_Noise_6_1.wav,Pink_Noise_6_2.wav,,,,,,,,,,,,,,,0,6,6,36,,,,,,,,,,,,,,,,,,,,,,,94.21168956602924,None,95.6957483269507,None,97.07829045399558,None,water,97.07829045399558,None,return,0.47470884898211807,97.16165509901475,None,,,,,,,,,,,,,,,,,,,,,,,,,,,,,,,,,30,001,2023_Feb_22_1627,SpeechDraft1Carolyn_lessNoise_PlusLocalization,2021.2.3,59.96310855787569,
freak.wav,freak.mpg,freak,2,A,Pink_Noise_2_1.wav,Pink_Noise_2_2.wav,,,,,,,,,,,,,,,0,7,7,48,,,,,,,,,,,,,,,,,,,,,,,97.66173489496578,None,99.16140593006276,None,100.54681388405152,None,freak,100.54681388405152,None,return,0.4798562660580501,100.62857392104343,None,,,,,,,,,,,,,,,,,,,,,,,,,,,,,,,,,30,001,2023_Feb_22_1627,SpeechDraft1Carolyn_lessNoise_PlusLocalization,2021.2.3,59.96310855787569,
beard.wav,beard.mpg,beard,6,A,Pink_Noise_6_1.wav,Pink_Noise_6_2.wav,,,,,,,,,,,,,,,0,8,8,32,,,,,,,,,,,,,,,,,,,,,,,101.12838058406487,None,102.61273583699949,None,103.99509732297156,None,billion,103.99509732297156,None,return,2.2620283379219472,104.07835454004817,None,,,,,,,,,,,,,,,,,,,,,,,,,,,,,,,,,30,001,2023_Feb_22_1627,SpeechDraft1Carolyn_lessNoise_PlusLocalization,2021.2.3,59.96310855787569,
choke.wav,choke.mpg,choke,3,A,Pink_Noise_3_1.wav,Pink_Noise_3_2.wav,,,,,,,,,,,,,,,0,9,9,24,,,,,,,,,,,,,,,,,,,,,,,106.361673041014,None,107.86139963800088,None,109.24502585700247,None,choke,109.24502585700247,None,return,2.5479883089428768,109.32838261395227,None,,,,,,,,,,,,,,,,,,,,,,,,,,,,,,,,,30,001,2023_Feb_22_1627,SpeechDraft1Carolyn_lessNoise_PlusLocalization,2021.2.3,59.96310855787569,
brain.wav,brain.mpg,brain,1,A,Pink_Noise_1_1.wav,Pink_Noise_1_2.wav,,,,,,,,,,,,,,,0,10,10,54,,,,,,,,,,,,,,,,,,,,,,,111.89537969895173,None,113.37866496597417,None,114.76174360502046,None,brain,114.76174360502046,None,return,2.2633865700336173,114.84506717405748,None,,,,,,,,,,,,,,,,,,,,,,,,,,,,,,,,,30,001,2023_Feb_22_1627,SpeechDraft1Carolyn_lessNoise_PlusLocalization,2021.2.3,59.96310855787569,
count.wav,count.mpg,count,2,AV,Pink_Noise_2_1.wav,Pink_Noise_2_2.wav,,,,,,,,,,,,,,,0,11,11,110,,,,,,,,,,,,,,,,,,,,,,,117.1284415590344,None,118.62820402800571,None,119.99501290498301,None,count,119.99501290498301,None,return,2.38994513603393,120.07851382496301,None,,,,,,,,,,,,,,,,,,,,,,,,,,,,,,,,,30,001,2023_Feb_22_1627,SpeechDraft1Carolyn_lessNoise_PlusLocalization,2021.2.3,59.96310855787569,
chalk.wav,chalk.mpg,chalk,4,A,Pink_Noise_4_1.wav,Pink_Noise_4_2.wav,,,,,,,,,,,,,,,0,12,12,21,,,,,,,,,,,,,,,,,,,,,,,122.49526174599305,None,123.97954789397772,None,125.361714396975,None,chalk,125.361714396975,None,return,1.4873343029757962,125.44503757404163,None,,,,,,,,,,,,,,,,,,,,,,,,,,,,,,,,,30,001,2023_Feb_22_1627,SpeechDraft1Carolyn_lessNoise_PlusLocalization,2021.2.3,59.96310855787569,
bench.wav,bench.mpg,bench,6,AV,Pink_Noise_6_1.wav,Pink_Noise_6_2.wav,,,,,,,,,,,,,,,0,13,13,95,,,,,,,,,,,,,,,,,,,,,,,126.96175365196541,None,128.46151879406534,None,129.8450806470355,None,catch,129.8450806470355,None,return,1.3720539980567992,129.92838024406228,None,,,,,,,,,,,,,,,,,,,,,,,,,,,,,,,,,30,001,2023_Feb_22_1627,SpeechDraft1Carolyn_lessNoise_PlusLocalization,2021.2.3,59.96310855787569,
chore.wav,chore.mpg,chore,3,A,Pink_Noise_3_1.wav,Pink_Noise_3_2.wav,,,,,,,,,,,,,,,0,14,14,57,,,,,,,,,,,,,,,,,,,,,,,131.3283732610289,None,132.81224727095105,None,134.19551472598687,None,chore,134.19551472598687,None,return,1.9660132619319484,134.27840823004954,None,,,,,,,,,,,,,,,,,,,,,,,,,,,,,,,,,30,001,2023_Feb_22_1627,SpeechDraft1Carolyn_lessNoise_PlusLocalization,2021.2.3,59.96310855787569,
foil.wav,foil.mpg,foil,3,A,Pink_Noise_3_1.wav,Pink_Noise_3_2.wav,,,,,,,,,,,,,,,0,15,15,28,,,,,,,,,,,,,,,,,,,,,,,136.261689750012,None,137.76139623997733,None,139.145065721008,None,"oil
",139.145065721008,None,return,1.1359000169904903,139.2284663390601,None,,,,,,,,,,,,,,,,,,,,,,,,,,,,,,,,,30,001,2023_Feb_22_1627,SpeechDraft1Carolyn_lessNoise_PlusLocalization,2021.2.3,59.96310855787569,
beige.wav,beige.mpg,beige,1,A,Pink_Noise_1_1.wav,Pink_Noise_1_2.wav,,,,,,,,,,,,,,,0,16,16,9,,,,,,,,,,,,,,,,,,,,,,,140.39513861003798,None,141.9119215250248,None,143.27857177401893,None,beige,143.27857177401893,None,return,1.4586311029270291,143.36171909200493,None,,,,,,,,,,,,,,,,,,,,,,,,,,,,,,,,,30,001,2023_Feb_22_1627,SpeechDraft1Carolyn_lessNoise_PlusLocalization,2021.2.3,59.96310855787569,
fright.wav,fright.mpg,fright,1,AV,Pink_Noise_1_1.wav,Pink_Noise_1_2.wav,,,,,,,,,,,,,,,0,17,17,77,,,,,,,,,,,,,,,,,,,,,,,144.84510295500513,None,146.34484080201946,None,147.72826714999974,None,fright,147.72826714999974,None,return,1.432698405929841,147.81173551897518,None,,,,,,,,,,,,,,,,,,,,,,,,,,,,,,,,,30,001,2023_Feb_22_1627,SpeechDraft1Carolyn_lessNoise_PlusLocalization,2021.2.3,59.96310855787569,
bring.wav,bring.mpg,bring,6,AV,Pink_Noise_6_1.wav,Pink_Noise_6_2.wav,,,,,,,,,,,,,,,0,18,18,104,,,,,,,,,,,,,,,,,,,,,,,149.2618390939897,None,150.74626496899873,None,152.12827048101462,None,bring,152.12827048101462,None,return,1.2566454058978707,152.2117632010486,None,,,,,,,,,,,,,,,,,,,,,,,,,,,,,,,,,30,001,2023_Feb_22_1627,SpeechDraft1Carolyn_lessNoise_PlusLocalization,2021.2.3,59.96310855787569,
clip.wav,clip.mpg,clip,6,AV,Pink_Noise_6_1.wav,Pink_Noise_6_2.wav,,,,,,,,,,,,,,,0,19,19,85,,,,,,,,,,,,,,,,,,,,,,,153.4950767160626,None,154.99482910404913,None,156.36173338000663,None,clip,156.36173338000663,None,return,1.5993619849905372,156.44506843795534,None,,,,,,,,,,,,,,,,,,,,,,,,,,,,,,,,,30,001,2023_Feb_22_1627,SpeechDraft1Carolyn_lessNoise_PlusLocalization,2021.2.3,59.96310855787569,
draw.wav,draw.mpg,draw,1,A,Pink_Noise_1_1.wav,Pink_Noise_1_2.wav,,,,,,,,,,,,,,,0,20,20,7,,,,,,,,,,,,,,,,,,,,,,,158.06180088198744,None,159.5615426680306,None,160.92841599602252,None,draw,160.92841599602252,None,return,1.3045378460083157,161.01183677499648,None,,,,,,,,,,,,,,,,,,,,,,,,,,,,,,,,,30,001,2023_Feb_22_1627,SpeechDraft1Carolyn_lessNoise_PlusLocalization,2021.2.3,59.96310855787569,
farm.wav,farm.mpg,farm,4,A,Pink_Noise_4_1.wav,Pink_Noise_4_2.wav,,,,,,,,,,,,,,,0,21,21,11,,,,,,,,,,,,,,,,,,,,,,,162.3453322109999,None,163.82894895703066,None,165.21173963497858,None,find,165.21173963497858,None,return,4.03718000696972,165.29517569299787,None,,,,,,,,,,,,,,,,,,,,,,,,,,,,,,,,,30,001,2023_Feb_22_1627,SpeechDraft1Carolyn_lessNoise_PlusLocalization,2021.2.3,59.96310855787569,
calm.wav,calm.mpg,calm,5,AV,Pink_Noise_5_1.wav,Pink_Noise_5_2.wav,,,,,,,,,,,,,,,0,22,22,70,,,,,,,,,,,,,,,,,,,,,,,169.36171109497081,None,170.8615743010305,None,172.2284322299529,None,harm,172.2284322299529,None,return,0.9566923129605129,172.31177292997018,None,,,,,,,,,,,,,,,,,,,,,,,,,,,,,,,,,30,001,2023_Feb_22_1627,SpeechDraft1Carolyn_lessNoise_PlusLocalization,2021.2.3,59.96310855787569,
faith.wav,faith.mpg,faith,5,A,Pink_Noise_5_1.wav,Pink_Noise_5_2.wav,,,,,,,,,,,,,,,0,23,23,47,,,,,,,,,,,,,,,,,,,,,,,173.29506373300683,None,174.77968074195087,None,176.16181543795392,None,bait,176.16181543795392,None,return,2.0072855410398915,176.24515103106387,None,,,,,,,,,,,,,,,,,,,,,,,,,,,,,,,,,30,001,2023_Feb_22_1627,SpeechDraft1Carolyn_lessNoise_PlusLocalization,2021.2.3,59.96310855787569,
boost.wav,boost.mpg,boost,3,AV,Pink_Noise_3_1.wav,Pink_Noise_3_2.wav,,,,,,,,,,,,,,,0,24,24,101,,,,,,,,,,,,,,,,,,,,,,,178.27852320496459,None,179.77822941995692,None,181.16177631297614,None,boost,181.16177631297614,None,return,1.19129178696312,181.24528267700225,None,,,,,,,,,,,,,,,,,,,,,,,,,,,,,,,,,30,001,2023_Feb_22_1627,SpeechDraft1Carolyn_lessNoise_PlusLocalization,2021.2.3,59.96310855787569,
chick.wav,chick.mpg,chick,6,AV,Pink_Noise_6_1.wav,Pink_Noise_6_2.wav,,,,,,,,,,,,,,,0,25,25,100,,,,,,,,,,,,,,,,,,,,,,,182.46176708803978,None,183.96148615598213,None,185.3284278480569,None,"chain
",185.3284278480569,None,return,0.9845585059374571,185.4118024399504,None,,,,,,,,,,,,,,,,,,,,,,,,,,,,,,,,,30,001,2023_Feb_22_1627,SpeechDraft1Carolyn_lessNoise_PlusLocalization,2021.2.3,59.96310855787569,
dress.wav,dress.mpg,dress,3,AV,Pink_Noise_3_1.wav,Pink_Noise_3_2.wav,,,,,,,,,,,,,,,0,26,26,71,,,,,,,,,,,,,,,,,,,,,,,186.4284539159853,None,187.91308172699064,None,189.294984793989,None,dress,189.294984793989,None,return,1.473906860104762,189.37847648200113,None,,,,,,,,,,,,,,,,,,,,,,,,,,,,,,,,,30,001,2023_Feb_22_1627,SpeechDraft1Carolyn_lessNoise_PlusLocalization,2021.2.3,59.96310855787569,
fat.wav,fat.mpg,fat,1,AV,Pink_Noise_1_1.wav,Pink_Noise_1_2.wav,,,,,,,,,,,,,,,0,27,27,107,,,,,,,,,,,,,,,,,,,,,,,190.878262939048,None,192.3783542989986,None,193.76180174795445,None,fat,193.76180174795445,None,return,1.0071060669142753,193.84524121601135,None,,,,,,,,,,,,,,,,,,,,,,,,,,,,,,,,,30,001,2023_Feb_22_1627,SpeechDraft1Carolyn_lessNoise_PlusLocalization,2021.2.3,59.96310855787569,
read.wav,read.mpg,read,4,AV,Pink_Noise_4_1.wav,Pink_Noise_4_2.wav,,,,,,,,,,,,,,,0,28,28,90,,,,,,,,,,,,,,,,,,,,,,,194.87846670905128,None,196.3783554820111,None,197.74513207795098,None,read,197.74513207795098,None,return,0.9918626439757645,197.82849192200229,None,,,,,,,,,,,,,,,,,,,,,,,,,,,,,,,,,30,001,2023_Feb_22_1627,SpeechDraft1Carolyn_lessNoise_PlusLocalization,2021.2.3,59.96310855787569,
bless.wav,bless.mpg,bless,6,AV,Pink_Noise_6_1.wav,Pink_Noise_6_2.wav,,,,,,,,,,,,,,,0,29,29,114,,,,,,,,,,,,,,,,,,,,,,,198.84513630799484,None,200.32910283503588,None,201.71177330997307,None,mice,201.71177330997307,None,return,0.865065967082046,201.79538233496714,None,,,,,,,,,,,,,,,,,,,,,,,,,,,,,,,,,30,001,2023_Feb_22_1627,SpeechDraft1Carolyn_lessNoise_PlusLocalization,2021.2.3,59.96310855787569,
folk.wav,folk.mpg,folk,5,A,Pink_Noise_5_1.wav,Pink_Noise_5_2.wav,,,,,,,,,,,,,,,0,30,30,41,,,,,,,,,,,,,,,,,,,,,,,202.67853763396852,None,204.17816055600997,None,205.5618806539569,None,bone,205.5618806539569,None,return,1.3270527620334178,205.6453237190144,None,,,,,,,,,,,,,,,,,,,,,,,,,,,,,,,,,30,001,2023_Feb_22_1627,SpeechDraft1Carolyn_lessNoise_PlusLocalization,2021.2.3,59.96310855787569,
flock.wav,flock.mpg,flock,2,AV,Pink_Noise_2_1.wav,Pink_Noise_2_2.wav,,,,,,,,,,,,,,,0,31,31,102,,,,,,,,,,,,,,,,,,,,,,,206.99520734103862,None,208.49496621498838,None,209.86176676105242,None,"flock
",209.86176676105242,None,return,1.2672515489393845,209.94509905204177,None,,,,,,,,,,,,,,,,,,,,,,,,,,,,,,,,,30,001,2023_Feb_22_1627,SpeechDraft1Carolyn_lessNoise_PlusLocalization,2021.2.3,59.96310855787569,
cause.wav,cause.mpg,cause,5,AV,Pink_Noise_5_1.wav,Pink_Noise_5_2.wav,,,,,,,,,,,,,,,0,32,32,109,,,,,,,,,,,,,,,,,,,,,,,211.24513086595107,None,212.74505038699135,None,214.11181903106626,None,cause,214.11181903106626,None,return,1.6087920060381293,214.2115664370358,None,,,,,,,,,,,,,,,,,,,,,,,,,,,,,,,,,30,001,2023_Feb_22_1627,SpeechDraft1Carolyn_lessNoise_PlusLocalization,2021.2.3,59.96310855787569,
grill.wav,grill.mpg,grill,3,AV,Pink_Noise_3_1.wav,Pink_Noise_3_2.wav,,,,,,,,,,,,,,,0,33,33,68,,,,,,,,,,,,,,,,,,,,,,,215.84513564803638,None,217.3449231480481,None,218.71175832895096,None,grill,218.71175832895096,None,return,1.2732347199926153,218.79527818597853,None,,,,,,,,,,,,,,,,,,,,,,,,,,,,,,,,,30,001,2023_Feb_22_1627,SpeechDraft1Carolyn_lessNoise_PlusLocalization,2021.2.3,59.96310855787569,
lead.wav,lead.mpg,lead,3,A,Pink_Noise_3_1.wav,Pink_Noise_3_2.wav,,,,,,,,,,,,,,,0,34,34,35,,,,,,,,,,,,,,,,,,,,,,,220.09518839605153,None,221.59486346400809,None,222.96184904605616,None,"lead
",222.96184904605616,None,return,0.9191617839969695,223.04520617204253,None,,,,,,,,,,,,,,,,,,,,,,,,,,,,,,,,,30,001,2023_Feb_22_1627,SpeechDraft1Carolyn_lessNoise_PlusLocalization,2021.2.3,59.96310855787569,
chart.wav,chart.mpg,chart,5,A,Pink_Noise_5_1.wav,Pink_Noise_5_2.wav,,,,,,,,,,,,,,,0,35,35,5,,,,,,,,,,,,,,,,,,,,,,,223.99521806102712,None,225.49489306902979,None,226.8785290720407,None,chart,226.8785290720407,None,return,0.8986245420528576,226.9617856569821,None,,,,,,,,,,,,,,,,,,,,,,,,,,,,,,,,,30,001,2023_Feb_22_1627,SpeechDraft1Carolyn_lessNoise_PlusLocalization,2021.2.3,59.96310855787569,
globe.wav,globe.mpg,globe,6,AV,Pink_Noise_6_1.wav,Pink_Noise_6_2.wav,,,,,,,,,,,,,,,0,36,36,82,,,,,,,,,,,,,,,,,,,,,,,227.87858060596045,None,229.37828933203127,None,230.7617028360255,None,glow,230.7617028360255,None,return,5.023237590910867,230.84516903106123,None,,,,,,,,,,,,,,,,,,,,,,,,,,,,,,,,,30,001,2023_Feb_22_1627,SpeechDraft1Carolyn_lessNoise_PlusLocalization,2021.2.3,59.96310855787569,
eye.wav,eye.mpg,eye,1,AV,Pink_Noise_1_1.wav,Pink_Noise_1_2.wav,,,,,,,,,,,,,,,0,37,37,94,,,,,,,,,,,,,,,,,,,,,,,235.89518691098783,None,237.3950615549693,None,238.7784013519995,None,eye,238.7784013519995,None,return,0.806616919930093,238.86189615097828,None,,,,,,,,,,,,,,,,,,,,,,,,,,,,,,,,,30,001,2023_Feb_22_1627,SpeechDraft1Carolyn_lessNoise_PlusLocalization,2021.2.3,59.96310855787569,
truce.wav,truce.mpg,truce,5,AV,Pink_Noise_5_1.wav,Pink_Noise_5_2.wav,,,,,,,,,,,,,,,0,38,38,111,,,,,,,,,,,,,,,,,,,,,,,239.6952092749998,None,241.179667540011,None,242.5618239439791,None,truce,242.5618239439791,None,return,2.6870755730196834,242.64529466000386,None,,,,,,,,,,,,,,,,,,,,,,,,,,,,,,,,,30,001,2023_Feb_22_1627,SpeechDraft1Carolyn_lessNoise_PlusLocalization,2021.2.3,59.96310855787569,
gap.wav,gap.mpg,gap,2,AV,Pink_Noise_2_1.wav,Pink_Noise_2_2.wav,,,,,,,,,,,,,,,0,39,39,89,,,,,,,,,,,,,,,,,,,,,,,245.36192435503472,None,246.86170916096307,None,248.24526297301054,None,gap,248.24526297301054,None,return,0.691789445001632,248.3285660770489,None,,,,,,,,,,,,,,,,,,,,,,,,,,,,,,,,,30,001,2023_Feb_22_1627,SpeechDraft1Carolyn_lessNoise_PlusLocalization,2021.2.3,59.96310855787569,
awe.wav,awe.mpg,awe,1,AV,Pink_Noise_1_1.wav,Pink_Noise_1_2.wav,,,,,,,,,,,,,,,0,40,40,60,,,,,,,,,,,,,,,,,,,,,,,249.04522825905588,None,250.54515283601359,None,251.92859618598595,None,awe,251.92859618598595,None,return,0.7204438348999247,252.01192121999338,None,,,,,,,,,,,,,,,,,,,,,,,,,,,,,,,,,30,001,2023_Feb_22_1627,SpeechDraft1Carolyn_lessNoise_PlusLocalization,2021.2.3,59.96310855787569,
flu.wav,flu.mpg,flu,1,AV,Pink_Noise_1_1.wav,Pink_Noise_1_2.wav,,,,,,,,,,,,,,,0,41,41,75,,,,,,,,,,,,,,,,,,,,,,,252.76190496899653,None,254.26173960906453,None,255.64516839804128,None,"flew
",255.64516839804128,None,return,1.8357938789995387,255.72857732803095,None,,,,,,,,,,,,,,,,,,,,,,,,,,,,,,,,,30,001,2023_Feb_22_1627,SpeechDraft1Carolyn_lessNoise_PlusLocalization,2021.2.3,59.96310855787569,
dead.wav,dead.mpg,dead,3,A,Pink_Noise_3_1.wav,Pink_Noise_3_2.wav,,,,,,,,,,,,,,,0,42,42,23,,,,,,,,,,,,,,,,,,,,,,,257.59524730802514,None,259.0949563779868,None,260.4619230920216,None,dead,260.4619230920216,None,return,1.3391531159868464,260.54523505002726,None,,,,,,,,,,,,,,,,,,,,,,,,,,,,,,,,,30,001,2023_Feb_22_1627,SpeechDraft1Carolyn_lessNoise_PlusLocalization,2021.2.3,59.96310855787569,
steam.wav,steam.mpg,steam,1,A,Pink_Noise_1_1.wav,Pink_Noise_1_2.wav,,,,,,,,,,,,,,,0,43,43,30,,,,,,,,,,,,,,,,,,,,,,,261.912405384006,None,263.4115493140416,None,264.7785535570001,None,steam,264.7785535570001,None,return,0.8064074829453602,264.86205833102576,None,,,,,,,,,,,,,,,,,,,,,,,,,,,,,,,,,30,001,2023_Feb_22_1627,SpeechDraft1Carolyn_lessNoise_PlusLocalization,2021.2.3,59.96310855787569,
gulf.wav,gulf.mpg,gulf,2,A,Pink_Noise_2_1.wav,Pink_Noise_2_2.wav,,,,,,,,,,,,,,,0,44,44,8,,,,,,,,,,,,,,,,,,,,,,,265.6951735030161,None,267.19505902798846,None,268.5785752569791,None,"golf
",268.5785752569791,None,return,0.9184480339754373,268.6619445310207,None,,,,,,,,,,,,,,,,,,,,,,,,,,,,,,,,,30,001,2023_Feb_22_1627,SpeechDraft1Carolyn_lessNoise_PlusLocalization,2021.2.3,59.96310855787569,
blood.wav,blood.mpg,blood,4,AV,Pink_Noise_4_1.wav,Pink_Noise_4_2.wav,,,,,,,,,,,,,,,0,45,45,97,,,,,,,,,,,,,,,,,,,,,,,269.6118885150645,None,271.11179572099354,None,272.49517664604355,None,blood,272.49517664604355,None,return,1.5218698589596897,272.57855182304047,None,,,,,,,,,,,,,,,,,,,,,,,,,,,,,,,,,30,001,2023_Feb_22_1627,SpeechDraft1Carolyn_lessNoise_PlusLocalization,2021.2.3,59.96310855787569,
cuff.wav,cuff.mpg,cuff,3,A,Pink_Noise_3_1.wav,Pink_Noise_3_2.wav,,,,,,,,,,,,,,,0,46,46,50,,,,,,,,,,,,,,,,,,,,,,,274.12855682196096,None,275.6123323730426,None,276.9952845789958,None,puff,276.9952845789958,None,return,0.7337846560403705,277.07867495098617,None,,,,,,,,,,,,,,,,,,,,,,,,,,,,,,,,,30,001,2023_Feb_22_1627,SpeechDraft1Carolyn_lessNoise_PlusLocalization,2021.2.3,59.96310855787569,
blush.wav,blush.mpg,blush,6,A,Pink_Noise_6_1.wav,Pink_Noise_6_2.wav,,,,,,,,,,,,,,,0,47,47,29,,,,,,,,,,,,,,,,,,,,,,,277.82861163199414,None,279.328446650994,None,280.7120171369752,None,wash,280.7120171369752,None,return,0.40907310298644006,280.79528704297263,None,,,,,,,,,,,,,,,,,,,,,,,,,,,,,,,,,30,001,2023_Feb_22_1627,SpeechDraft1Carolyn_lessNoise_PlusLocalization,2021.2.3,59.96310855787569,
vest.wav,vest.mpg,vest,4,A,Pink_Noise_4_1.wav,Pink_Noise_4_2.wav,,,,,,,,,,,,,,,0,48,48,19,,,,,,,,,,,,,,,,,,,,,,,281.2286073670257,None,282.72834516095463,None,284.1119461619528,None,best,284.1119461619528,None,return,0.6810925159370527,284.19527645001654,None,,,,,,,,,,,,,,,,,,,,,,,,,,,,,,,,,30,001,2023_Feb_22_1627,SpeechDraft1Carolyn_lessNoise_PlusLocalization,2021.2.3,59.96310855787569,
frail.wav,frail.mpg,frail,3,AV,Pink_Noise_3_1.wav,Pink_Noise_3_2.wav,,,,,,,,,,,,,,,0,49,49,72,,,,,,,,,,,,,,,,,,,,,,,284.89525752305053,None,286.39514646097086,None,287.77855007804465,None,frail,287.77855007804465,None,return,1.0464857160113752,287.8619645370636,None,,,,,,,,,,,,,,,,,,,,,,,,,,,,,,,,,30,001,2023_Feb_22_1627,SpeechDraft1Carolyn_lessNoise_PlusLocalization,2021.2.3,59.96310855787569,
cube.wav,cube.mpg,cube,2,A,Pink_Noise_2_1.wav,Pink_Noise_2_2.wav,,,,,,,,,,,,,,,0,50,50,13,,,,,,,,,,,,,,,,,,,,,,,288.92870336805936,None,290.428467486985,None,291.81255264999345,None,cute,291.81255264999345,None,return,0.740879676071927,291.89547682297416,None,,,,,,,,,,,,,,,,,,,,,,,,,,,,,,,,,30,001,2023_Feb_22_1627,SpeechDraft1Carolyn_lessNoise_PlusLocalization,2021.2.3,59.96310855787569,
beat.wav,beat.mpg,beat,3,AV,Pink_Noise_3_1.wav,Pink_Noise_3_2.wav,,,,,,,,,,,,,,,0,51,51,91,,,,,,,,,,,,,,,,,,,,,,,292.6620346279815,None,294.1616965000285,None,295.5285636810586,None,beat,295.5285636810586,None,return,0.7603992481017485,295.611978764995,None,,,,,,,,,,,,,,,,,,,,,,,,,,,,,,,,,30,001,2023_Feb_22_1627,SpeechDraft1Carolyn_lessNoise_PlusLocalization,2021.2.3,59.96310855787569,
flow.wav,flow.mpg,flow,2,A,Pink_Noise_2_1.wav,Pink_Noise_2_2.wav,,,,,,,,,,,,,,,0,52,52,20,,,,,,,,,,,,,,,,,,,,,,,296.3953411789844,None,297.8950525029795,None,299.2785904069897,None,"flow
",299.2785904069897,None,return,0.6504135240102187,299.3619419790339,None,,,,,,,,,,,,,,,,,,,,,,,,,,,,,,,,,30,001,2023_Feb_22_1627,SpeechDraft1Carolyn_lessNoise_PlusLocalization,2021.2.3,59.96310855787569,
fool.wav,fool.mpg,fool,2,AV,Pink_Noise_2_1.wav,Pink_Noise_2_2.wav,,,,,,,,,,,,,,,0,53,53,67,,,,,,,,,,,,,,,,,,,,,,,300.04528423701413,None,301.5449511889601,None,302.9285944349831,None,fool,302.9285944349831,None,return,1.5123007909860462,303.0120864290511,None,,,,,,,,,,,,,,,,,,,,,,,,,,,,,,,,,30,001,2023_Feb_22_1627,SpeechDraft1Carolyn_lessNoise_PlusLocalization,2021.2.3,59.96310855787569,
blink.wav,blink.mpg,blink,1,AV,Pink_Noise_1_1.wav,Pink_Noise_1_2.wav,,,,,,,,,,,,,,,0,54,54,108,,,,,,,,,,,,,,,,,,,,,,,304.54532032401767,None,306.04510249197483,None,307.4287206849549,None,blink,307.4287206849549,None,return,1.2045046020066366,307.51193029398564,None,,,,,,,,,,,,,,,,,,,,,,,,,,,,,,,,,30,001,2023_Feb_22_1627,SpeechDraft1Carolyn_lessNoise_PlusLocalization,2021.2.3,59.96310855787569,
thrown.wav,thrown.mpg,thrown,1,AV,Pink_Noise_1_1.wav,Pink_Noise_1_2.wav,,,,,,,,,,,,,,,0,55,55,79,,,,,,,,,,,,,,,,,,,,,,,308.7453090080526,None,310.2451329040341,None,311.62864964001346,None,throw,311.62864964001346,None,return,2.1964174369350076,311.7120360840345,None,,,,,,,,,,,,,,,,,,,,,,,,,,,,,,,,,30,001,2023_Feb_22_1627,SpeechDraft1Carolyn_lessNoise_PlusLocalization,2021.2.3,59.96310855787569,
dirt.wav,dirt.mpg,dirt,3,AV,Pink_Noise_3_1.wav,Pink_Noise_3_2.wav,,,,,,,,,,,,,,,0,56,56,84,,,,,,,,,,,,,,,,,,,,,,,313.92867433605716,None,315.4285309839761,None,316.81197526305914,None,dirt,316.81197526305914,None,return,1.5490558129968122,316.8953711059876,None,,,,,,,,,,,,,,,,,,,,,,,,,,,,,,,,,30,001,2023_Feb_22_1627,SpeechDraft1Carolyn_lessNoise_PlusLocalization,2021.2.3,59.96310855787569,
bruise.wav,bruise.mpg,bruise,6,AV,Pink_Noise_6_1.wav,Pink_Noise_6_2.wav,,,,,,,,,,,,,,,0,57,57,105,,,,,,,,,,,,,,,,,,,,,,,318.4619809939759,None,319.9618158079684,None,321.3453696980141,None,bruise,321.3453696980141,None,return,1.8874969360185787,321.42888500902336,None,,,,,,,,,,,,,,,,,,,,,,,,,,,,,,,,,30,001,2023_Feb_22_1627,SpeechDraft1Carolyn_lessNoise_PlusLocalization,2021.2.3,59.96310855787569,
toast.wav,toast.mpg,toast,6,A,Pink_Noise_6_1.wav,Pink_Noise_6_2.wav,,,,,,,,,,,,,,,0,58,58,59,,,,,,,,,,,,,,,,,,,,,,,323.34530975995585,None,324.84511138300877,None,326.2286479260074,None,"pest
",326.2286479260074,None,return,1.684162994963117,326.3122132769786,None,,,,,,,,,,,,,,,,,,,,,,,,,,,,,,,,,30,001,2023_Feb_22_1627,SpeechDraft1Carolyn_lessNoise_PlusLocalization,2021.2.3,59.96310855787569,
bowl.wav,bowl.mpg,bowl,4,AV,Pink_Noise_4_1.wav,Pink_Noise_4_2.wav,,,,,,,,,,,,,,,0,59,59,117,,,,,,,,,,,,,,,,,,,,,,,328.0285696260398,None,329.5454748120392,None,330.92865436698776,None,swole,330.92865436698776,None,return,2.0323743919143453,331.01205738901626,None,,,,,,,,,,,,,,,,,,,,,,,,,,,,,,,,,30,001,2023_Feb_22_1627,SpeechDraft1Carolyn_lessNoise_PlusLocalization,2021.2.3,59.96310855787569,
crowd.wav,crowd.mpg,crowd,5,AV,Pink_Noise_5_1.wav,Pink_Noise_5_2.wav,,,,,,,,,,,,,,,0,60,60,93,,,,,,,,,,,,,,,,,,,,,,,333.0619372050278,None,334.56173855706584,None,335.9453400269849,None,crown,335.9453400269849,None,return,1.6878116970183328,336.0286462609656,None,,,,,,,,,,,,,,,,,,,,,,,,,,,,,,,,,30,001,2023_Feb_22_1627,SpeechDraft1Carolyn_lessNoise_PlusLocalization,2021.2.3,59.96310855787569,
clash.wav,clash.mpg,clash,3,A,Pink_Noise_3_1.wav,Pink_Noise_3_2.wav,,,,,,,,,,,,,,,0,61,61,51,,,,,,,,,,,,,,,,,,,,,,,337.7453503529541,None,339.2456487820018,None,340.6450367589714,None,"clash
",340.6450367589714,None,return,1.0676719580078498,340.728704727022,None,,,,,,,,,,,,,,,,,,,,,,,,,,,,,,,,,30,001,2023_Feb_22_1627,SpeechDraft1Carolyn_lessNoise_PlusLocalization,2021.2.3,59.96310855787569,
squat.wav,squat.mpg,squat,6,AV,Pink_Noise_6_1.wav,Pink_Noise_6_2.wav,,,,,,,,,,,,,,,0,62,62,66,,,,,,,,,,,,,,,,,,,,,,,341.8286548650358,None,343.32913609198295,None,344.7118831060361,None,cried,344.7118831060361,None,return,2.9449625130509958,344.79540354397614,None,,,,,,,,,,,,,,,,,,,,,,,,,,,,,,,,,30,001,2023_Feb_22_1627,SpeechDraft1Carolyn_lessNoise_PlusLocalization,2021.2.3,59.96310855787569,
bell.wav,bell.mpg,bell,4,AV,Pink_Noise_4_1.wav,Pink_Noise_4_2.wav,,,,,,,,,,,,,,,0,63,63,99,,,,,,,,,,,,,,,,,,,,,,,347.7622024329612,None,349.2617413500557,None,350.62866741302423,None,bell,350.62866741302423,None,return,0.8042234069434926,350.7121404999634,None,,,,,,,,,,,,,,,,,,,,,,,,,,,,,,,,,30,001,2023_Feb_22_1627,SpeechDraft1Carolyn_lessNoise_PlusLocalization,2021.2.3,59.96310855787569,
code.wav,code.mpg,code,4,AV,Pink_Noise_4_1.wav,Pink_Noise_4_2.wav,,,,,,,,,,,,,,,0,64,64,74,,,,,,,,,,,,,,,,,,,,,,,351.54541206301656,None,353.04511371802073,None,354.42863067705184,None,code,354.42863067705184,None,return,0.9484818080672994,354.5120577319758,None,,,,,,,,,,,,,,,,,,,,,,,,,,,,,,,,,30,001,2023_Feb_22_1627,SpeechDraft1Carolyn_lessNoise_PlusLocalization,2021.2.3,59.96310855787569,
chord.wav,chord.mpg,chord,3,A,Pink_Noise_3_1.wav,Pink_Noise_3_2.wav,,,,,,,,,,,,,,,0,65,65,34,,,,,,,,,,,,,,,,,,,,,,,355.4787137020612,None,356.9784798769979,None,358.362066464033,None,cord,358.362066464033,None,return,0.6550061609596014,358.44535503105726,None,,,,,,,,,,,,,,,,,,,,,,,,,,,,,,,,,30,001,2023_Feb_22_1627,SpeechDraft1Carolyn_lessNoise_PlusLocalization,2021.2.3,59.96310855787569,
brown.wav,brown.mpg,brown,1,A,Pink_Noise_1_1.wav,Pink_Noise_1_2.wav,,,,,,,,,,,,,,,0,66,66,52,,,,,,,,,,,,,,,,,,,,,,,359.1287627010606,None,360.62845346995164,None,362.01217571506277,None,brown,362.01217571506277,None,return,1.0129358230624348,362.095526952995,None,,,,,,,,,,,,,,,,,,,,,,,,,,,,,,,,,30,001,2023_Feb_22_1627,SpeechDraft1Carolyn_lessNoise_PlusLocalization,2021.2.3,59.96310855787569,
bag.wav,bag.mpg,bag,4,AV,Pink_Noise_4_1.wav,Pink_Noise_4_2.wav,,,,,,,,,,,,,,,0,67,67,113,,,,,,,,,,,,,,,,,,,,,,,363.1287863299949,None,364.64503394195344,None,366.02864650601987,None,bike,366.02864650601987,None,return,1.5564033489208668,366.11206583003514,None,,,,,,,,,,,,,,,,,,,,,,,,,,,,,,,,,30,001,2023_Feb_22_1627,SpeechDraft1Carolyn_lessNoise_PlusLocalization,2021.2.3,59.96310855787569,
frost.wav,frost.mpg,frost,3,AV,Pink_Noise_3_1.wav,Pink_Noise_3_2.wav,,,,,,,,,,,,,,,0,68,68,118,,,,,,,,,,,,,,,,,,,,,,,367.6955336680403,None,369.1951662079664,None,370.5786527659511,None,"frost
",370.5786527659511,None,return,1.7342398239998147,370.66210629302077,None,,,,,,,,,,,,,,,,,,,,,,,,,,,,,,,,,30,001,2023_Feb_22_1627,SpeechDraft1Carolyn_lessNoise_PlusLocalization,2021.2.3,59.96310855787569,
swayed.wav,swayed.mpg,swayed,6,A,Pink_Noise_6_1.wav,Pink_Noise_6_2.wav,,,,,,,,,,,,,,,0,69,69,44,,,,,,,,,,,,,,,,,,,,,,,372.42874930996913,None,373.9285637900466,None,375.31210159300826,None,rain,375.31210159300826,None,return,1.408926049945876,375.39543734502513,None,,,,,,,,,,,,,,,,,,,,,,,,,,,,,,,,,30,001,2023_Feb_22_1627,SpeechDraft1Carolyn_lessNoise_PlusLocalization,2021.2.3,59.96310855787569,
brawl.wav,brawl.mpg,brawl,2,A,Pink_Noise_2_1.wav,Pink_Noise_2_2.wav,,,,,,,,,,,,,,,0,70,70,2,,,,,,,,,,,,,,,,,,,,,,,376.82878096203785,None,378.328518911032,None,379.71228709595744,None,rob,379.71228709595744,None,return,2.1927725160494447,379.79561176896095,None,,,,,,,,,,,,,,,,,,,,,,,,,,,,,,,,,30,001,2023_Feb_22_1627,SpeechDraft1Carolyn_lessNoise_PlusLocalization,2021.2.3,59.96310855787569,
pipe.wav,pipe.mpg,pipe,1,A,Pink_Noise_1_1.wav,Pink_Noise_1_2.wav,,,,,,,,,,,,,,,0,71,71,43,,,,,,,,,,,,,,,,,,,,,,,382.0120845939964,None,383.5119720540242,None,384.89537845004816,None,"pipe
",384.89537845004816,None,return,0.7856045940425247,384.97875085205305,None,,,,,,,,,,,,,,,,,,,,,,,,,,,,,,,,,30,001,2023_Feb_22_1627,SpeechDraft1Carolyn_lessNoise_PlusLocalization,2021.2.3,59.96310855787569,
curse.wav,curse.mpg,curse,5,AV,Pink_Noise_5_1.wav,Pink_Noise_5_2.wav,,,,,,,,,,,,,,,0,72,72,119,,,,,,,,,,,,,,,,,,,,,,,385.79548068204895,None,387.29529545397963,None,388.67884487402625,None,"nurse
",388.67884487402625,None,return,1.0183721180073917,388.76199360901956,None,,,,,,,,,,,,,,,,,,,,,,,,,,,,,,,,,30,001,2023_Feb_22_1627,SpeechDraft1Carolyn_lessNoise_PlusLocalization,2021.2.3,59.96310855787569,
coin.wav,coin.mpg,coin,2,A,Pink_Noise_2_1.wav,Pink_Noise_2_2.wav,,,,,,,,,,,,,,,0,73,73,46,,,,,,,,,,,,,,,,,,,,,,,389.8120437769685,None,391.31196233897936,None,392.6788273709826,None,coin,392.6788273709826,None,return,0.8581765200942755,392.7621706420323,None,,,,,,,,,,,,,,,,,,,,,,,,,,,,,,,,,30,001,2023_Feb_22_1627,SpeechDraft1Carolyn_lessNoise_PlusLocalization,2021.2.3,59.96310855787569,
debt.wav,debt.mpg,debt,4,AV,Pink_Noise_4_1.wav,Pink_Noise_4_2.wav,,,,,,,,,,,,,,,0,74,74,115,,,,,,,,,,,,,,,,,,,,,,,393.64540685503744,None,395.1451438809745,None,396.5289753479883,None,debt,396.5289753479883,None,return,0.960245713009499,396.6121040029684,None,,,,,,,,,,,,,,,,,,,,,,,,,,,,,,,,,30,001,2023_Feb_22_1627,SpeechDraft1Carolyn_lessNoise_PlusLocalization,2021.2.3,59.96310855787569,
none.wav,none.mpg,none,6,AV,Pink_Noise_6_1.wav,Pink_Noise_6_2.wav,,,,,,,,,,,,,,,0,75,75,96,,,,,,,,,,,,,,,,,,,,,,,397.5955000889953,None,399.09524120995775,None,400.4786878270097,None,"young
",400.4786878270097,None,return,1.8182573260273784,400.5621055070078,None,,,,,,,,,,,,,,,,,,,,,,,,,,,,,,,,,30,001,2023_Feb_22_1627,SpeechDraft1Carolyn_lessNoise_PlusLocalization,2021.2.3,59.96310855787569,
clumps.wav,clumps.mpg,clumps,2,A,Pink_Noise_2_1.wav,Pink_Noise_2_2.wav,,,,,,,,,,,,,,,0,76,76,49,,,,,,,,,,,,,,,,,,,,,,,402.41214828705415,None,403.91182948602363,None,405.2954319730634,None,"clubs
",405.2954319730634,None,return,1.0334572959691286,405.3789053739747,None,,,,,,,,,,,,,,,,,,,,,,,,,,,,,,,,,30,001,2023_Feb_22_1627,SpeechDraft1Carolyn_lessNoise_PlusLocalization,2021.2.3,59.96310855787569,
chef.wav,chef.mpg,chef,5,AV,Pink_Noise_5_1.wav,Pink_Noise_5_2.wav,,,,,,,,,,,,,,,0,77,77,61,,,,,,,,,,,,,,,,,,,,,,,406.44540670199785,None,407.9452114540618,None,409.328618834028,None,chef,409.328618834028,None,return,1.2482511489652097,409.4121961409692,None,,,,,,,,,,,,,,,,,,,,,,,,,,,,,,,,,30,001,2023_Feb_22_1627,SpeechDraft1Carolyn_lessNoise_PlusLocalization,2021.2.3,59.96310855787569,
cruel.wav,cruel.mpg,cruel,2,A,Pink_Noise_2_1.wav,Pink_Noise_2_2.wav,,,,,,,,,,,,,,,0,78,78,45,,,,,,,,,,,,,,,,,,,,,,,410.6787376990542,None,412.17872835404705,None,413.5621256380109,None,cruel,413.5621256380109,None,return,0.9268280899850652,413.64553908095695,None,,,,,,,,,,,,,,,,,,,,,,,,,,,,,,,,,30,001,2023_Feb_22_1627,SpeechDraft1Carolyn_lessNoise_PlusLocalization,2021.2.3,59.96310855787569,
route.wav,route.mpg,route,6,AV,Pink_Noise_6_1.wav,Pink_Noise_6_2.wav,,,,,,,,,,,,,,,0,79,79,112,,,,,,,,,,,,,,,,,,,,,,,414.59545905003324,None,416.09530256304424,None,417.4787356039742,None,ruin,417.4787356039742,None,return,0.8983282779809088,417.5620910009602,None,,,,,,,,,,,,,,,,,,,,,,,,,,,,,,,,,30,001,2023_Feb_22_1627,SpeechDraft1Carolyn_lessNoise_PlusLocalization,2021.2.3,59.96310855787569,
crate.wav,crate.mpg,crate,2,AV,Pink_Noise_2_1.wav,Pink_Noise_2_2.wav,,,,,,,,,,,,,,,0,80,80,87,,,,,,,,,,,,,,,,,,,,,,,418.4789018910378,None,419.9785858830437,None,421.3621463140007,None,crate,421.3621463140007,None,return,1.0469940539915115,421.4454456859967,None,,,,,,,,,,,,,,,,,,,,,,,,,,,,,,,,,30,001,2023_Feb_22_1627,SpeechDraft1Carolyn_lessNoise_PlusLocalization,2021.2.3,59.96310855787569,
bull.wav,bull.mpg,bull,1,AV,Pink_Noise_1_1.wav,Pink_Noise_1_2.wav,,,,,,,,,,,,,,,0,81,81,64,,,,,,,,,,,,,,,,,,,,,,,422.5121385609964,None,424.0119057199918,None,425.39538658305537,None,"bowl
",425.39538658305537,None,return,1.26960365800187,425.4787561680423,None,,,,,,,,,,,,,,,,,,,,,,,,,,,,,,,,,30,001,2023_Feb_22_1627,SpeechDraft1Carolyn_lessNoise_PlusLocalization,2021.2.3,59.96310855787569,
axe.wav,axe.mpg,axe,5,A,Pink_Noise_5_1.wav,Pink_Noise_5_2.wav,,,,,,,,,,,,,,,0,82,82,0,,,,,,,,,,,,,,,,,,,,,,,426.77874142699875,None,428.2785445790505,None,429.6621108739637,None,gasp,429.6621108739637,None,return,0.7708905750187114,429.74545325606596,None,,,,,,,,,,,,,,,,,,,,,,,,,,,,,,,,,30,001,2023_Feb_22_1627,SpeechDraft1Carolyn_lessNoise_PlusLocalization,2021.2.3,59.96310855787569,
coast.wav,coast.mpg,coast,2,AV,Pink_Noise_2_1.wav,Pink_Noise_2_2.wav,,,,,,,,,,,,,,,0,83,83,103,,,,,,,,,,,,,,,,,,,,,,,430.54547715804074,None,432.0456153850537,None,433.4287944319658,None,coast,433.4287944319658,None,return,0.7242001569829881,433.5121730499668,None,,,,,,,,,,,,,,,,,,,,,,,,,,,,,,,,,30,001,2023_Feb_22_1627,SpeechDraft1Carolyn_lessNoise_PlusLocalization,2021.2.3,59.96310855787569,
quest.wav,quest.mpg,quest,3,AV,Pink_Noise_3_1.wav,Pink_Noise_3_2.wav,,,,,,,,,,,,,,,0,84,84,98,,,,,,,,,,,,,,,,,,,,,,,434.2622512719827,None,435.76194998796564,None,437.145361057017,None,quest,437.145361057017,None,return,0.8875590229872614,437.2288038249826,None,,,,,,,,,,,,,,,,,,,,,,,,,,,,,,,,,30,001,2023_Feb_22_1627,SpeechDraft1Carolyn_lessNoise_PlusLocalization,2021.2.3,59.96310855787569,
cone.wav,cone.mpg,cone,5,A,Pink_Noise_5_1.wav,Pink_Noise_5_2.wav,,,,,,,,,,,,,,,0,85,85,25,,,,,,,,,,,,,,,,,,,,,,,438.14571131102275,None,439.64516728103627,None,441.0288287260337,None,gow,441.0288287260337,None,return,1.5162946289638057,441.1120967390016,None,,,,,,,,,,,,,,,,,,,,,,,,,,,,,,,,,30,001,2023_Feb_22_1627,SpeechDraft1Carolyn_lessNoise_PlusLocalization,2021.2.3,59.96310855787569,
deal.wav,deal.mpg,deal,4,A,Pink_Noise_4_1.wav,Pink_Noise_4_2.wav,,,,,,,,,,,,,,,0,86,86,38,,,,,,,,,,,,,,,,,,,,,,,442.6454858490033,None,444.1450669950573,None,445.5288330790354,None,"gay
",445.5288330790354,None,return,1.0001211289782077,445.61221629206557,None,,,,,,,,,,,,,,,,,,,,,,,,,,,,,,,,,30,001,2023_Feb_22_1627,SpeechDraft1Carolyn_lessNoise_PlusLocalization,2021.2.3,59.96310855787569,
greed.wav,greed.mpg,greed,5,AV,Pink_Noise_5_1.wav,Pink_Noise_5_2.wav,,,,,,,,,,,,,,,0,87,87,80,,,,,,,,,,,,,,,,,,,,,,,446.64553939306643,None,448.1452400289709,None,449.52882454998326,None,reading,449.52882454998326,None,return,1.0482475339667872,449.61219665396493,None,,,,,,,,,,,,,,,,,,,,,,,,,,,,,,,,,30,001,2023_Feb_22_1627,SpeechDraft1Carolyn_lessNoise_PlusLocalization,2021.2.3,59.96310855787569,
jeep.wav,jeep.mpg,jeep,2,AV,Pink_Noise_2_1.wav,Pink_Noise_2_2.wav,,,,,,,,,,,,,,,0,88,88,88,,,,,,,,,,,,,,,,,,,,,,,450.67878326703794,None,452.1955227080034,None,453.5793052619556,None,cheap,453.5793052619556,None,return,1.7419932169141248,453.6623537429841,None,,,,,,,,,,,,,,,,,,,,,,,,,,,,,,,,,30,001,2023_Feb_22_1627,SpeechDraft1Carolyn_lessNoise_PlusLocalization,2021.2.3,59.96310855787569,
roast.wav,roast.mpg,roast,4,AV,Pink_Noise_4_1.wav,Pink_Noise_4_2.wav,,,,,,,,,,,,,,,0,89,89,116,,,,,,,,,,,,,,,,,,,,,,,455.42879533499945,None,456.9453824850498,None,458.3288032490527,None,"roast
",458.3288032490527,None,return,0.7682412610156462,458.41211694304366,None,,,,,,,,,,,,,,,,,,,,,,,,,,,,,,,,,30,001,2023_Feb_22_1627,SpeechDraft1Carolyn_lessNoise_PlusLocalization,2021.2.3,59.96310855787569,
gown.wav,gown.mpg,gown,1,A,Pink_Noise_1_1.wav,Pink_Noise_1_2.wav,,,,,,,,,,,,,,,0,90,90,1,,,,,,,,,,,,,,,,,,,,,,,459.21216055296827,None,460.7287340500625,None,462.11216141900513,None,gown,462.11216141900513,None,return,0.6971116058994085,462.1955087929964,None,,,,,,,,,,,,,,,,,,,,,,,,,,,,,,,,,30,001,2023_Feb_22_1627,SpeechDraft1Carolyn_lessNoise_PlusLocalization,2021.2.3,59.96310855787569,
warmth.wav,warmth.mpg,warmth,4,A,Pink_Noise_4_1.wav,Pink_Noise_4_2.wav,,,,,,,,,,,,,,,0,91,91,17,,,,,,,,,,,,,,,,,,,,,,,462.9122215890093,None,464.4285377570195,None,465.8120080860099,None,warmth,465.8120080860099,None,return,0.6614919540006667,465.87886465899646,None,,,,,,,,,,,,,,,,,,,,,,,,,,,,,,,,,30,001,2023_Feb_22_1627,SpeechDraft1Carolyn_lessNoise_PlusLocalization,2021.2.3,59.96310855787569,
paid.wav,paid.mpg,paid,5,AV,Pink_Noise_5_1.wav,Pink_Noise_5_2.wav,,,,,,,,,,,,,,,0,92,92,78,,,,,,,,,,,,,,,,,,,,,,,466.56220936996397,None,468.0632753140526,None,469.4453965850407,None,"pain
",469.4453965850407,None,return,0.6514353409875184,469.52893693896476,None,,,,,,,,,,,,,,,,,,,,,,,,,,,,,,,,,30,001,2023_Feb_22_1627,SpeechDraft1Carolyn_lessNoise_PlusLocalization,2021.2.3,59.96310855787569,
pike.wav,pike.mpg,pike,5,A,Pink_Noise_5_1.wav,Pink_Noise_5_2.wav,,,,,,,,,,,,,,,0,93,93,55,,,,,,,,,,,,,,,,,,,,,,,470.2122075719526,None,471.71191307296976,None,473.0955599399749,None,pipe,473.0955599399749,None,return,0.673429930000566,473.17896222602576,None,,,,,,,,,,,,,,,,,,,,,,,,,,,,,,,,,30,001,2023_Feb_22_1627,SpeechDraft1Carolyn_lessNoise_PlusLocalization,2021.2.3,59.96310855787569,
wine.wav,wine.mpg,wine,1,AV,Pink_Noise_1_1.wav,Pink_Noise_1_2.wav,,,,,,,,,,,,,,,0,94,94,92,,,,,,,,,,,,,,,,,,,,,,,473.87889067002106,None,475.3787490379764,None,476.7622118459549,None,ine,476.7622118459549,None,return,0.2548592360690236,476.8455054369988,None,,,,,,,,,,,,,,,,,,,,,,,,,,,,,,,,,30,001,2023_Feb_22_1627,SpeechDraft1Carolyn_lessNoise_PlusLocalization,2021.2.3,59.96310855787569,
bill.wav,bill.mpg,bill,1,A,Pink_Noise_1_1.wav,Pink_Noise_1_2.wav,,,,,,,,,,,,,,,0,95,95,56,,,,,,,,,,,,,,,,,,,,,,,477.12885342002846,None,478.6285809170222,None,480.012278773007,None,bill,480.012278773007,None,return,3.2927706718910486,480.0955773280002,None,,,,,,,,,,,,,,,,,,,,,,,,,,,,,,,,,30,001,2023_Feb_22_1627,SpeechDraft1Carolyn_lessNoise_PlusLocalization,2021.2.3,59.96310855787569,
batch.wav,batch.mpg,batch,4,A,Pink_Noise_4_1.wav,Pink_Noise_4_2.wav,,,,,,,,,,,,,,,0,96,96,3,,,,,,,,,,,,,,,,,,,,,,,483.4123111759545,None,484.9120324259857,None,486.29557275306433,None,"batch
",486.29557275306433,None,return,1.1854028620291501,486.37896977795754,None,,,,,,,,,,,,,,,,,,,,,,,,,,,,,,,,,30,001,2023_Feb_22_1627,SpeechDraft1Carolyn_lessNoise_PlusLocalization,2021.2.3,59.96310855787569,
cat.wav,cat.mpg,cat,3,A,Pink_Noise_3_1.wav,Pink_Noise_3_2.wav,,,,,,,,,,,,,,,0,97,97,40,,,,,,,,,,,,,,,,,,,,,,,487.5955261690542,None,489.09533977799583,None,490.4788996409625,None,"cat
",490.4788996409625,None,return,0.41812449297867715,490.5622457760619,None,,,,,,,,,,,,,,,,,,,,,,,,,,,,,,,,,30,001,2023_Feb_22_1627,SpeechDraft1Carolyn_lessNoise_PlusLocalization,2021.2.3,59.96310855787569,
fee.wav,fee.mpg,fee,6,A,Pink_Noise_6_1.wav,Pink_Noise_6_2.wav,,,,,,,,,,,,,,,0,98,98,16,,,,,,,,,,,,,,,,,,,,,,,491.01227178098634,None,492.5119878370315,None,493.89562349405605,None,beast,493.89562349405605,None,return,3.489669931004755,493.97891703399364,None,,,,,,,,,,,,,,,,,,,,,,,,,,,,,,,,,30,001,2023_Feb_22_1627,SpeechDraft1Carolyn_lessNoise_PlusLocalization,2021.2.3,59.96310855787569,
flair.wav,flair.mpg,flair,2,AV,Pink_Noise_2_1.wav,Pink_Noise_2_2.wav,,,,,,,,,,,,,,,0,99,99,83,,,,,,,,,,,,,,,,,,,,,,,497.49561155203264,None,499.01203527802136,None,500.4119979990646,None,flare,500.4119979990646,None,return,2.397369127953425,500.4789866739884,None,,,,,,,,,,,,,,,,,,,,,,,,,,,,,,,,,30,001,2023_Feb_22_1627,SpeechDraft1Carolyn_lessNoise_PlusLocalization,2021.2.3,59.96310855787569,
coal.wav,coal.mpg,coal,5,A,Pink_Noise_5_1.wav,Pink_Noise_5_2.wav,,,,,,,,,,,,,,,0,100,100,6,,,,,,,,,,,,,,,,,,,,,,,502.89561936899554,None,504.3953572070459,None,505.77893535001203,None,"four
",505.77893535001203,None,return,1.4700218649813905,505.8623327530222,None,,,,,,,,,,,,,,,,,,,,,,,,,,,,,,,,,30,001,2023_Feb_22_1627,SpeechDraft1Carolyn_lessNoise_PlusLocalization,2021.2.3,59.96310855787569,
broad.wav,broad.mpg,broad,6,A,Pink_Noise_6_1.wav,Pink_Noise_6_2.wav,,,,,,,,,,,,,,,0,101,101,58,,,,,,,,,,,,,,,,,,,,,,,507.36231272795703,None,508.86207989405375,None,510.24569053703453,None,love,510.24569053703453,None,return,1.5314533959608525,510.32892254705075,None,,,,,,,,,,,,,,,,,,,,,,,,,,,,,,,,,30,001,2023_Feb_22_1627,SpeechDraft1Carolyn_lessNoise_PlusLocalization,2021.2.3,59.96310855787569,
sock.wav,sock.mpg,sock,3,AV,Pink_Noise_3_1.wav,Pink_Noise_3_2.wav,,,,,,,,,,,,,,,0,102,102,65,,,,,,,,,,,,,,,,,,,,,,,511.87892622395884,None,513.3786530280486,None,514.762294335058,None,sock,514.762294335058,None,return,1.0146930060582235,514.8456722849514,None,,,,,,,,,,,,,,,,,,,,,,,,,,,,,,,,,30,001,2023_Feb_22_1627,SpeechDraft1Carolyn_lessNoise_PlusLocalization,2021.2.3,59.96310855787569,
club.wav,club.mpg,club,4,A,Pink_Noise_4_1.wav,Pink_Noise_4_2.wav,,,,,,,,,,,,,,,0,103,103,31,,,,,,,,,,,,,,,,,,,,,,,515.8789116180269,None,517.3953365790658,None,518.7790271240519,None,love,518.7790271240519,None,return,1.7420455280225724,518.8623311050469,None,,,,,,,,,,,,,,,,,,,,,,,,,,,,,,,,,30,001,2023_Feb_22_1627,SpeechDraft1Carolyn_lessNoise_PlusLocalization,2021.2.3,59.96310855787569,
glove.wav,glove.mpg,glove,5,AV,Pink_Noise_5_1.wav,Pink_Noise_5_2.wav,,,,,,,,,,,,,,,0,104,104,63,,,,,,,,,,,,,,,,,,,,,,,520.6289544970496,None,522.1453441879712,None,523.5289484360255,None,lent,523.5289484360255,None,return,1.5280841960338876,523.6122669209726,None,,,,,,,,,,,,,,,,,,,,,,,,,,,,,,,,,30,001,2023_Feb_22_1627,SpeechDraft1Carolyn_lessNoise_PlusLocalization,2021.2.3,59.96310855787569,
clock.wav,clock.mpg,clock,5,A,Pink_Noise_5_1.wav,Pink_Noise_5_2.wav,,,,,,,,,,,,,,,0,105,105,27,,,,,,,,,,,,,,,,,,,,,,,525.1623414750211,None,526.6788097770186,None,528.0622347269673,None,climb,528.0622347269673,None,return,2.31477331998758,528.145578991971,None,,,,,,,,,,,,,,,,,,,,,,,,,,,,,,,,,30,001,2023_Feb_22_1627,SpeechDraft1Carolyn_lessNoise_PlusLocalization,2021.2.3,59.96310855787569,
climb.wav,climb.mpg,climb,2,A,Pink_Noise_2_1.wav,Pink_Noise_2_2.wav,,,,,,,,,,,,,,,0,106,106,39,,,,,,,,,,,,,,,,,,,,,,,530.4789604790276,None,532.0122159039602,None,533.3956023519859,None,"climb
",533.3956023519859,None,return,1.7173755349358544,533.478969558957,None,,,,,,,,,,,,,,,,,,,,,,,,,,,,,,,,,30,001,2023_Feb_22_1627,SpeechDraft1Carolyn_lessNoise_PlusLocalization,2021.2.3,59.96310855787569,
snake.wav,snake.mpg,snake,1,AV,Pink_Noise_1_1.wav,Pink_Noise_1_2.wav,,,,,,,,,,,,,,,0,107,107,76,,,,,,,,,,,,,,,,,,,,,,,535.2289019200252,None,536.7620254160138,None,538.1455642560031,None,snake,538.1455642560031,None,return,0.831225492991507,538.2291358479997,None,,,,,,,,,,,,,,,,,,,,,,,,,,,,,,,,,30,001,2023_Feb_22_1627,SpeechDraft1Carolyn_lessNoise_PlusLocalization,2021.2.3,59.96310855787569,
bear.wav,bear.mpg,bear,5,A,Pink_Noise_5_1.wav,Pink_Noise_5_2.wav,,,,,,,,,,,,,,,0,108,108,12,,,,,,,,,,,,,,,,,,,,,,,539.079008279019,None,540.5786456010537,None,541.9622613970423,None,stain,541.9622613970423,None,return,1.5747682439396158,542.0456010960042,None,,,,,,,,,,,,,,,,,,,,,,,,,,,,,,,,,30,001,2023_Feb_22_1627,SpeechDraft1Carolyn_lessNoise_PlusLocalization,2021.2.3,59.96310855787569,
duke.wav,duke.mpg,duke,3,A,Pink_Noise_3_1.wav,Pink_Noise_3_2.wav,,,,,,,,,,,,,,,0,109,109,15,,,,,,,,,,,,,,,,,,,,,,,543.6456386649515,None,545.1459516079631,None,546.5289510419825,None,duke,546.5289510419825,None,return,1.4480720419669524,546.6123139989795,None,,,,,,,,,,,,,,,,,,,,,,,,,,,,,,,,,30,001,2023_Feb_22_1627,SpeechDraft1Carolyn_lessNoise_PlusLocalization,2021.2.3,59.96310855787569,
flake.wav,flake.mpg,flake,4,A,Pink_Noise_4_1.wav,Pink_Noise_4_2.wav,,,,,,,,,,,,,,,0,110,110,26,,,,,,,,,,,,,,,,,,,,,,,548.0789732550038,None,549.5788404589985,None,550.9622913619969,None,plate,550.9622913619969,None,return,1.4387049219803885,551.0456534239929,None,,,,,,,,,,,,,,,,,,,,,,,,,,,,,,,,,30,001,2023_Feb_22_1627,SpeechDraft1Carolyn_lessNoise_PlusLocalization,2021.2.3,59.96310855787569,
ton.wav,ton.mpg,ton,2,AV,Pink_Noise_2_1.wav,Pink_Noise_2_2.wav,,,,,,,,,,,,,,,0,111,111,86,,,,,,,,,,,,,,,,,,,,,,,552.5123202579562,None,554.0288139720215,None,555.3955883070594,None,ton,555.3955883070594,None,return,1.0613257830264047,555.4790023369715,None,,,,,,,,,,,,,,,,,,,,,,,,,,,,,,,,,30,001,2023_Feb_22_1627,SpeechDraft1Carolyn_lessNoise_PlusLocalization,2021.2.3,59.96310855787569,
eve.wav,eve.mpg,eve,4,A,Pink_Noise_4_1.wav,Pink_Noise_4_2.wav,,,,,,,,,,,,,,,0,112,112,37,,,,,,,,,,,,,,,,,,,,,,,556.5625458039576,None,558.0621403120458,None,559.4456205139868,None,"meeting
",559.4456205139868,None,return,1.2193729049758986,559.5290016450454,None,,,,,,,,,,,,,,,,,,,,,,,,,,,,,,,,,30,001,2023_Feb_22_1627,SpeechDraft1Carolyn_lessNoise_PlusLocalization,2021.2.3,59.96310855787569,
carve.wav,carve.mpg,carve,5,A,Pink_Noise_5_1.wav,Pink_Noise_5_2.wav,,,,,,,,,,,,,,,0,113,113,53,,,,,,,,,,,,,,,,,,,,,,,560.7789451989811,None,562.3119426430203,None,563.6956298999721,None,carve,563.6956298999721,None,return,1.6093337569618598,563.7790116219549,None,,,,,,,,,,,,,,,,,,,,,,,,,,,,,,,,,30,001,2023_Feb_22_1627,SpeechDraft1Carolyn_lessNoise_PlusLocalization,2021.2.3,59.96310855787569,
slush.wav,slush.mpg,slush,4,A,Pink_Noise_4_1.wav,Pink_Noise_4_2.wav,,,,,,,,,,,,,,,0,114,114,10,,,,,,,,,,,,,,,,,,,,,,,565.4124012610409,None,566.9287584420526,None,568.3287455909885,None,"slush
",568.3287455909885,None,return,3.7527327180141583,568.3956224219874,None,,,,,,,,,,,,,,,,,,,,,,,,,,,,,,,,,30,001,2023_Feb_22_1627,SpeechDraft1Carolyn_lessNoise_PlusLocalization,2021.2.3,59.96310855787569,
crawl.wav,crawl.mpg,crawl,1,A,Pink_Noise_1_1.wav,Pink_Noise_1_2.wav,,,,,,,,,,,,,,,0,115,115,22,,,,,,,,,,,,,,,,,,,,,,,572.1790034320438,None,573.7120951069519,None,575.079040148994,None,"crawl
",575.079040148994,None,return,2.0020299339666963,575.162316904054,None,,,,,,,,,,,,,,,,,,,,,,,,,,,,,,,,,30,001,2023_Feb_22_1627,SpeechDraft1Carolyn_lessNoise_PlusLocalization,2021.2.3,59.96310855787569,
bleed.wav,bleed.mpg,bleed,4,AV,Pink_Noise_4_1.wav,Pink_Noise_4_2.wav,,,,,,,,,,,,,,,0,116,116,73,,,,,,,,,,,,,,,,,,,,,,,577.1956642599544,None,578.7122466680594,None,580.0956206260016,None,"leave
",580.0956206260016,None,return,1.2173506069229916,580.1790133210598,None,,,,,,,,,,,,,,,,,,,,,,,,,,,,,,,,,30,001,2023_Feb_22_1627,SpeechDraft1Carolyn_lessNoise_PlusLocalization,2021.2.3,59.96310855787569,
ease.wav,ease.mpg,ease,2,AV,Pink_Noise_2_1.wav,Pink_Noise_2_2.wav,,,,,,,,,,,,,,,0,117,117,69,,,,,,,,,,,,,,,,,,,,,,,581.4289644140517,None,582.9454418920213,None,584.3123031669529,None,ease,584.3123031669529,None,return,0.720662610954605,584.3956827500369,None,,,,,,,,,,,,,,,,,,,,,,,,,,,,,,,,,30,001,2023_Feb_22_1627,SpeechDraft1Carolyn_lessNoise_PlusLocalization,2021.2.3,59.96310855787569,
fierce.wav,fierce.mpg,fierce,5,AV,Pink_Noise_5_1.wav,Pink_Noise_5_2.wav,,,,,,,,,,,,,,,0,118,118,106,,,,,,,,,,,,,,,,,,,,,,,585.1456778530264,None,586.6789779460523,None,588.0623947039712,None,fierce,588.0623947039712,None,return,0.9467527810484171,588.1457057769876,None,,,,,,,,,,,,,,,,,,,,,,,,,,,,,,,,,30,001,2023_Feb_22_1627,SpeechDraft1Carolyn_lessNoise_PlusLocalization,2021.2.3,59.96310855787569,
draft.wav,draft.mpg,draft,3,AV,Pink_Noise_3_1.wav,Pink_Noise_3_2.wav,,,,,,,,,,,,,,,0,119,119,81,,,,,,,,,,,,,,,,,,,,,,,589.1123035580385,None,590.6130010150373,None,591.9956722829957,None,draft,591.9956722829957,None,return,0.8453188890125602,592.0790599690517,None,,,,,,,,,,,,,,,,,,,,,,,,,,,,,,,,,30,001,2023_Feb_22_1627,SpeechDraft1Carolyn_lessNoise_PlusLocalization,2021.2.3,59.96310855787569,
,,,,,,,,,,,,,,,,,,,,,,,,,,,,,,,,,,,,,,,,,,,,,,,,,,,,,,,,,,,,,,,,,,space,21.14329366304446,593.029054105049,None,,,,,,,,,,,,,,,,,,,,,,,30,001,2023_Feb_22_1627,SpeechDraft1Carolyn_lessNoise_PlusLocalization,2021.2.3,59.96310855787569,
,,,,,,,,nearLeft,-6.5,1,ch1Sound_localizationTask.wav,-6.5,"(857, 878)","(-103,-202)",-95,-338,,,,,,,,,0,0,0,2,,,,,,,,,,,,,,,,,,,,,,,,,,,,,,,,,,,,,,,,,,593.029054105049,None,614.2122177500278,None,615.3120533289621,None,616.2454060550081,None,1.7962962962962963,3.1520165629917756,616.2454060550081,None,,,,,,,,,,,30,001,2023_Feb_22_1627,SpeechDraft1Carolyn_lessNoise_PlusLocalization,2021.2.3,59.96310855787569,
,,,,,,,,nearRight,6.5,0,ch1Sound_localizationTask.wav,6.5,"(1047, 878)","(87, -202)",95,-338,,,,,,,,,0,1,1,4,,,,,,,,,,,,,,,,,,,,,,,,,,,,,,,,,,,,,,,,,,,,619.3958380720578,None,620.4955668200273,None,621.4291375500616,None,1.7952380952380953,0.6329950119834393,621.4291375500616,None,,,,,,,,,,,30,001,2023_Feb_22_1627,SpeechDraft1Carolyn_lessNoise_PlusLocalization,2021.2.3,59.96310855787569,
,,,,,,,,nearRight,6.5,0,ch1Sound_localizationTask.wav,6.5,"(1047, 878)","(87, -202)",95,-338,,,,,,,,,0,2,2,4,,,,,,,,,,,,,,,,,,,,,,,,,,,,,,,,,,,,,,,,,,,,622.0624453859637,None,623.1622245180188,None,624.0955195910065,None,1.7253968253968255,0.6652565959375352,624.0955195910065,None,,,,,,,,,,,30,001,2023_Feb_22_1627,SpeechDraft1Carolyn_lessNoise_PlusLocalization,2021.2.3,59.96310855787569,
,,,,,,,,nearLeft,-6.5,1,ch1Sound_localizationTask.wav,-6.5,"(857, 878)","(-103,-202)",-95,-338,,,,,,,,,0,3,3,2,,,,,,,,,,,,,,,,,,,,,,,,,,,,,,,,,,,,,,,,,,,,624.7624030279694,None,625.8622808819637,None,626.7954021779587,None,1.4275132275132276,0.9161993550369516,626.7954021779587,None,,,,,,,,,,,30,001,2023_Feb_22_1627,SpeechDraft1Carolyn_lessNoise_PlusLocalization,2021.2.3,59.96310855787569,
,,,,,,,,nearRight,6.5,0,ch1Sound_localizationTask.wav,6.5,"(1047, 878)","(87, -202)",95,-338,,,,,,,,,0,4,4,4,,,,,,,,,,,,,,,,,,,,,,,,,,,,,,,,,,,,,,,,,,,,627.7124336829875,None,628.8121461069677,None,629.7455494339811,None,1.5820105820105819,0.1333974190056324,629.7455494339811,None,,,,,,,,,,,30,001,2023_Feb_22_1627,SpeechDraft1Carolyn_lessNoise_PlusLocalization,2021.2.3,59.96310855787569,
,,,,,,,,midRight,13.0,3,ch1Sound_localizationTask.wav,13.0,"(1142, 878)","(182, -202)",190,-338,,,,,,,,,0,5,5,5,,,,,,,,,,,,,,,,,,,,,,,,,,,,,,,,,,,,,,,,,,,,629.8791110439925,None,630.978800317971,None,631.9122173070209,None,1.624867724867725,0.13308270904235542,631.9122173070209,None,,,,,,,,,,,30,001,2023_Feb_22_1627,SpeechDraft1Carolyn_lessNoise_PlusLocalization,2021.2.3,59.96310855787569,
,,,,,,,,nearRight,6.5,0,ch1Sound_localizationTask.wav,6.5,"(1047, 878)","(87, -202)",95,-338,,,,,,,,,0,6,6,4,,,,,,,,,,,,,,,,,,,,,,,,,,,,,,,,,,,,,,,,,,,,632.0457578409696,None,633.1454042940168,None,634.0789531180635,None,1.632804232804233,0.48255062103271484,634.0789531180635,None,,,,,,,,,,,30,001,2023_Feb_22_1627,SpeechDraft1Carolyn_lessNoise_PlusLocalization,2021.2.3,59.96310855787569,
,,,,,,,,midLeft,-13.0,2,ch1Sound_localizationTask.wav,-13.0,"(762, 878)","(-198,-202)",-190,-338,,,,,,,,,1,0,7,1,,,,,,,,,,,,,,,,,,,,,,,,,,,,,,,,,,,,,,,,,,,,634.5626606970327,None,635.6621384599712,None,636.5955006009899,None,1.4386243386243387,0.5995245849480852,636.5955006009899,None,,,,,,,,,,,30,001,2023_Feb_22_1627,SpeechDraft1Carolyn_lessNoise_PlusLocalization,2021.2.3,59.96310855787569,
,,,,,,,,nearRight,6.5,0,ch1Sound_localizationTask.wav,6.5,"(1047, 878)","(87, -202)",95,-338,,,,,,,,,1,1,8,4,,,,,,,,,,,,,,,,,,,,,,,,,,,,,,,,,,,,,,,,,,,,637.1956850610441,None,638.2954626670107,None,639.2288342709653,None,1.5603174603174603,0.03316612204071134,639.2288342709653,None,,,,,,,,,,,30,001,2023_Feb_22_1627,SpeechDraft1Carolyn_lessNoise_PlusLocalization,2021.2.3,59.96310855787569,
,,,,,,,,farRight,19.1,4,ch1Sound_localizationTask.wav,19.1,"(1237, 878)","(277,-202)",285,-338,,,,,,,,,1,2,9,6,,,,,,,,,,,,,,,,,,,,,,,,,,,,,,,,,,,,,,,,,,,,639.2624316680012,None,640.3621456780238,None,641.2954710740596,None,1.7973544973544975,0.7833635030547157,641.2954710740596,None,,,,,,,,,,,30,001,2023_Feb_22_1627,SpeechDraft1Carolyn_lessNoise_PlusLocalization,2021.2.3,59.96310855787569,
,,,,,,,,nearLeft,-6.5,1,ch1Sound_localizationTask.wav,-6.5,"(857, 878)","(-103,-202)",-95,-338,,,,,,,,,1,3,10,2,,,,,,,,,,,,,,,,,,,,,,,,,,,,,,,,,,,,,,,,,,,,642.0791065760422,None,643.1788552909857,None,644.1125007349765,None,1.4693121693121693,0.5829786990070716,644.1125007349765,None,,,,,,,,,,,30,001,2023_Feb_22_1627,SpeechDraft1Carolyn_lessNoise_PlusLocalization,2021.2.3,59.96310855787569,
,,,,,,,,midRight,13.0,3,ch1Sound_localizationTask.wav,13.0,"(1142, 878)","(182, -202)",190,-338,,,,,,,,,1,4,11,5,,,,,,,,,,,,,,,,,,,,,,,,,,,,,,,,,,,,,,,,,,,,644.6957823700504,None,645.7954943589866,None,646.7287996980594,None,1.7063492063492063,0.5664007830200717,646.7287996980594,None,,,,,,,,,,,30,001,2023_Feb_22_1627,SpeechDraft1Carolyn_lessNoise_PlusLocalization,2021.2.3,59.96310855787569,
,,,,,,,,nearRight,6.5,0,ch1Sound_localizationTask.wav,6.5,"(1047, 878)","(87, -202)",95,-338,,,,,,,,,1,5,12,4,,,,,,,,,,,,,,,,,,,,,,,,,,,,,,,,,,,,,,,,,,,,647.2958561970154,None,648.3954749669647,None,649.3288407420041,None,1.6349206349206349,0.3163194010267034,649.3288407420041,None,,,,,,,,,,,30,001,2023_Feb_22_1627,SpeechDraft1Carolyn_lessNoise_PlusLocalization,2021.2.3,59.96310855787569,
,,,,,,,,center,0.0,6,ch1Sound_localizationTask.wav,0.0,"(952, 878)","(-8,-202)",0,-338,,,,,,,,,1,6,13,3,,,,,,,,,,,,,,,,,,,,,,,,,,,,,,,,,,,,,,,,,,,,649.6458915079711,None,650.7455069180578,None,651.6787357740104,None,1.5613756613756613,0.6998162380186841,651.6787357740104,None,,,,,,,,,,,30,001,2023_Feb_22_1627,SpeechDraft1Carolyn_lessNoise_PlusLocalization,2021.2.3,59.96310855787569,
,,,,,,,,farLeft,-19.1,5,ch1Sound_localizationTask.wav,-19.1,"(667, 878)","(-293,-202)",-285,-338,,,,,,,,,2,0,14,0,,,,,,,,,,,,,,,,,,,,,,,,,,,,,,,,,,,,,,,,,,,,652.3791539079975,None,653.4787824159721,None,654.4121642879909,None,1.3222222222222222,0.21659742400515825,654.4121642879909,None,,,,,,,,,,,30,001,2023_Feb_22_1627,SpeechDraft1Carolyn_lessNoise_PlusLocalization,2021.2.3,59.96310855787569,
,,,,,,,,farRight,19.1,4,ch1Sound_localizationTask.wav,19.1,"(1237, 878)","(277,-202)",285,-338,,,,,,,,,2,1,15,6,,,,,,,,,,,,,,,,,,,,,,,,,,,,,,,,,,,,,,,,,,,,654.6291801920161,None,655.7287900520023,None,656.6621871959651,None,1.7423280423280423,1.1664379150606692,656.6621871959651,None,,,,,,,,,,,30,001,2023_Feb_22_1627,SpeechDraft1Carolyn_lessNoise_PlusLocalization,2021.2.3,59.96310855787569,
,,,,,,,,midRight,13.0,3,ch1Sound_localizationTask.wav,13.0,"(1142, 878)","(182, -202)",190,-338,,,,,,,,,2,2,16,5,,,,,,,,,,,,,,,,,,,,,,,,,,,,,,,,,,,,,,,,,,,,657.8291526649846,None,658.9288595310645,None,659.8620959309628,None,1.7423280423280423,0.4333241139538586,659.8620959309628,None,,,,,,,,,,,30,001,2023_Feb_22_1627,SpeechDraft1Carolyn_lessNoise_PlusLocalization,2021.2.3,59.96310855787569,
,,,,,,,,midRight,13.0,3,ch1Sound_localizationTask.wav,13.0,"(1142, 878)","(182, -202)",190,-338,,,,,,,,,2,3,17,5,,,,,,,,,,,,,,,,,,,,,,,,,,,,,,,,,,,,,,,,,,,,660.2958378259791,None,661.3954022460384,None,662.3288799630245,None,1.7423280423280423,0.48349339701235294,662.3288799630245,None,,,,,,,,,,,30,001,2023_Feb_22_1627,SpeechDraft1Carolyn_lessNoise_PlusLocalization,2021.2.3,59.96310855787569,
,,,,,,,,midRight,13.0,3,ch1Sound_localizationTask.wav,13.0,"(1142, 878)","(182, -202)",190,-338,,,,,,,,,2,4,18,5,,,,,,,,,,,,,,,,,,,,,,,,,,,,,,,,,,,,,,,,,,,,662.8124538139673,None,663.9121436759597,None,664.845743443002,None,1.6402116402116402,0.03266829904168844,664.845743443002,None,,,,,,,,,,,30,001,2023_Feb_22_1627,SpeechDraft1Carolyn_lessNoise_PlusLocalization,2021.2.3,59.96310855787569,
,,,,,,,,farRight,19.1,4,ch1Sound_localizationTask.wav,19.1,"(1237, 878)","(277,-202)",285,-338,,,,,,,,,2,5,19,6,,,,,,,,,,,,,,,,,,,,,,,,,,,,,,,,,,,,,,,,,,,,664.8791712729726,None,665.9789625220001,None,666.9122551450273,None,1.717989417989418,0.6157951890490949,666.9122551450273,None,,,,,,,,,,,30,001,2023_Feb_22_1627,SpeechDraft1Carolyn_lessNoise_PlusLocalization,2021.2.3,59.96310855787569,
,,,,,,,,center,0.0,6,ch1Sound_localizationTask.wav,0.0,"(952, 878)","(-8,-202)",0,-338,,,,,,,,,2,6,20,3,,,,,,,,,,,,,,,,,,,,,,,,,,,,,,,,,,,,,,,,,,,,667.5290988599882,None,668.6288404159714,None,669.5621208290104,None,1.5703703703703704,0.28311070590279996,669.5621208290104,None,,,,,,,,,,,30,001,2023_Feb_22_1627,SpeechDraft1Carolyn_lessNoise_PlusLocalization,2021.2.3,59.96310855787569,
,,,,,,,,midRight,13.0,3,ch1Sound_localizationTask.wav,13.0,"(1142, 878)","(182, -202)",190,-338,,,,,,,,,3,0,21,5,,,,,,,,,,,,,,,,,,,,,,,,,,,,,,,,,,,,,,,,,,,,669.8458237040322,None,670.9455718089594,None,671.8788961620303,None,1.6592592592592592,0.4491925369948149,671.8788961620303,None,,,,,,,,,,,30,001,2023_Feb_22_1627,SpeechDraft1Carolyn_lessNoise_PlusLocalization,2021.2.3,59.96310855787569,
,,,,,,,,center,0.0,6,ch1Sound_localizationTask.wav,0.0,"(952, 878)","(-8,-202)",0,-338,,,,,,,,,3,1,22,3,,,,,,,,,,,,,,,,,,,,,,,,,,,,,,,,,,,,,,,,,,,,672.3291171829915,None,673.4288381320657,None,674.3620875580236,None,1.5492063492063493,2.399903306970373,674.3620875580236,None,,,,,,,,,,,30,001,2023_Feb_22_1627,SpeechDraft1Carolyn_lessNoise_PlusLocalization,2021.2.3,59.96310855787569,
,,,,,,,,nearLeft,-6.5,1,ch1Sound_localizationTask.wav,-6.5,"(857, 878)","(-103,-202)",-95,-338,,,,,,,,,3,2,23,2,,,,,,,,,,,,,,,,,,,,,,,,,,,,,,,,,,,,,,,,,,,,676.7629374869866,None,677.8622244610451,None,678.795546432957,None,1.3031746031746032,0.7159920720150694,678.795546432957,None,,,,,,,,,,,30,001,2023_Feb_22_1627,SpeechDraft1Carolyn_lessNoise_PlusLocalization,2021.2.3,59.96310855787569,
,,,,,,,,farRight,19.1,4,ch1Sound_localizationTask.wav,19.1,"(1237, 878)","(277,-202)",285,-338,,,,,,,,,3,3,24,6,,,,,,,,,,,,,,,,,,,,,,,,,,,,,,,,,,,,,,,,,,,,679.5124983449932,None,680.612199650961,None,681.5455836940091,None,1.6391534391534393,0.5332154290517792,681.5455836940091,None,,,,,,,,,,,30,001,2023_Feb_22_1627,SpeechDraft1Carolyn_lessNoise_PlusLocalization,2021.2.3,59.96310855787569,
,,,,,,,,nearLeft,-6.5,1,ch1Sound_localizationTask.wav,-6.5,"(857, 878)","(-103,-202)",-95,-338,,,,,,,,,3,4,25,2,,,,,,,,,,,,,,,,,,,,,,,,,,,,,,,,,,,,,,,,,,,,682.0791420619935,None,683.1789826910244,None,684.1122249240289,None,1.3375661375661376,0.5660729149822146,684.1122249240289,None,,,,,,,,,,,30,001,2023_Feb_22_1627,SpeechDraft1Carolyn_lessNoise_PlusLocalization,2021.2.3,59.96310855787569,
,,,,,,,,center,0.0,6,ch1Sound_localizationTask.wav,0.0,"(952, 878)","(-8,-202)",0,-338,,,,,,,,,3,5,26,3,,,,,,,,,,,,,,,,,,,,,,,,,,,,,,,,,,,,,,,,,,,,684.6791150099598,None,685.778853198979,None,686.7122581050498,None,1.4925925925925925,0.6999500440433621,686.7122581050498,None,,,,,,,,,,,30,001,2023_Feb_22_1627,SpeechDraft1Carolyn_lessNoise_PlusLocalization,2021.2.3,59.96310855787569,
,,,,,,,,farLeft,-19.1,5,ch1Sound_localizationTask.wav,-19.1,"(667, 878)","(-293,-202)",-285,-338,,,,,,,,,3,6,27,0,,,,,,,,,,,,,,,,,,,,,,,,,,,,,,,,,,,,,,,,,,,,687.412512141047,None,688.512223768048,None,689.4455538820475,None,1.2682539682539682,0.6669933469966054,689.4455538820475,None,,,,,,,,,,,30,001,2023_Feb_22_1627,SpeechDraft1Carolyn_lessNoise_PlusLocalization,2021.2.3,59.96310855787569,
,,,,,,,,center,0.0,6,ch1Sound_localizationTask.wav,0.0,"(952, 878)","(-8,-202)",0,-338,,,,,,,,,4,0,28,3,,,,,,,,,,,,,,,,,,,,,,,,,,,,,,,,,,,,,,,,,,,,690.1125106250402,None,691.2122540950077,None,692.1454842650564,None,1.4936507936507937,0.8661151550477371,692.1454842650564,None,,,,,,,,,,,30,001,2023_Feb_22_1627,SpeechDraft1Carolyn_lessNoise_PlusLocalization,2021.2.3,59.96310855787569,
,,,,,,,,center,0.0,6,ch1Sound_localizationTask.wav,0.0,"(952, 878)","(-8,-202)",0,-338,,,,,,,,,4,1,29,3,,,,,,,,,,,,,,,,,,,,,,,,,,,,,,,,,,,,,,,,,,,,693.0124267920619,None,694.1122103739763,None,695.0456022180151,None,1.51005291005291,0.5496564919594675,695.0456022180151,None,,,,,,,,,,,30,001,2023_Feb_22_1627,SpeechDraft1Carolyn_lessNoise_PlusLocalization,2021.2.3,59.96310855787569,
,,,,,,,,farLeft,-19.1,5,ch1Sound_localizationTask.wav,-19.1,"(667, 878)","(-293,-202)",-285,-338,,,,,,,,,4,2,30,0,,,,,,,,,,,,,,,,,,,,,,,,,,,,,,,,,,,,,,,,,,,,695.5958095509559,None,696.6956245310139,None,697.6289134770632,None,1.2809523809523808,0.6495220030192286,697.6289134770632,None,,,,,,,,,,,30,001,2023_Feb_22_1627,SpeechDraft1Carolyn_lessNoise_PlusLocalization,2021.2.3,59.96310855787569,
,,,,,,,,farRight,19.1,4,ch1Sound_localizationTask.wav,19.1,"(1237, 878)","(277,-202)",285,-338,,,,,,,,,4,3,31,6,,,,,,,,,,,,,,,,,,,,,,,,,,,,,,,,,,,,,,,,,,,,698.2792017379543,None,699.3788624260342,None,700.3122528670356,None,1.7428571428571429,0.5996763029834256,700.3122528670356,None,,,,,,,,,,,30,001,2023_Feb_22_1627,SpeechDraft1Carolyn_lessNoise_PlusLocalization,2021.2.3,59.96310855787569,
,,,,,,,,farLeft,-19.1,5,ch1Sound_localizationTask.wav,-19.1,"(667, 878)","(-293,-202)",-285,-338,,,,,,,,,4,4,32,0,,,,,,,,,,,,,,,,,,,,,,,,,,,,,,,,,,,,,,,,,,,,700.9125168600585,None,702.0123212450417,None,702.9455844820477,None,1.2825396825396824,0.9833707319339737,702.9455844820477,None,,,,,,,,,,,30,001,2023_Feb_22_1627,SpeechDraft1Carolyn_lessNoise_PlusLocalization,2021.2.3,59.96310855787569,
,,,,,,,,nearLeft,-6.5,1,ch1Sound_localizationTask.wav,-6.5,"(857, 878)","(-103,-202)",-95,-338,,,,,,,,,4,5,33,2,,,,,,,,,,,,,,,,,,,,,,,,,,,,,,,,,,,,,,,,,,,,703.9292122990591,None,705.028846718953,None,705.962418806972,None,1.4798941798941798,0.6320487449411303,705.962418806972,None,,,,,,,,,,,30,001,2023_Feb_22_1627,SpeechDraft1Carolyn_lessNoise_PlusLocalization,2021.2.3,59.96310855787569,
,,,,,,,,midLeft,-13.0,2,ch1Sound_localizationTask.wav,-13.0,"(762, 878)","(-198,-202)",-190,-338,,,,,,,,,4,6,34,1,,,,,,,,,,,,,,,,,,,,,,,,,,,,,,,,,,,,,,,,,,,,706.6126068310114,None,707.7122824620456,None,708.6456270329654,None,1.0883597883597884,0.23330494400579482,708.6456270329654,None,,,,,,,,,,,30,001,2023_Feb_22_1627,SpeechDraft1Carolyn_lessNoise_PlusLocalization,2021.2.3,59.96310855787569,
,,,,,,,,nearRight,6.5,0,ch1Sound_localizationTask.wav,6.5,"(1047, 878)","(87, -202)",95,-338,,,,,,,,,5,0,35,4,,,,,,,,,,,,,,,,,,,,,,,,,,,,,,,,,,,,,,,,,,,,708.8791900699725,None,709.9788124619517,None,710.912316114991,None,1.5232804232804233,3.4158055529696867,710.912316114991,None,,,,,,,,,,,30,001,2023_Feb_22_1627,SpeechDraft1Carolyn_lessNoise_PlusLocalization,2021.2.3,59.96310855787569,
,,,,,,,,farLeft,-19.1,5,ch1Sound_localizationTask.wav,-19.1,"(667, 878)","(-293,-202)",-285,-338,,,,,,,,,5,1,36,0,,,,,,,,,,,,,,,,,,,,,,,,,,,,,,,,,,,,,,,,,,,,714.3292232600506,None,715.4289705150295,None,716.3622314450331,None,1.2756613756613757,0.6497227019863203,716.3622314450331,None,,,,,,,,,,,30,001,2023_Feb_22_1627,SpeechDraft1Carolyn_lessNoise_PlusLocalization,2021.2.3,59.96310855787569,
,,,,,,,,farRight,19.1,4,ch1Sound_localizationTask.wav,19.1,"(1237, 878)","(277,-202)",285,-338,,,,,,,,,5,2,37,6,,,,,,,,,,,,,,,,,,,,,,,,,,,,,,,,,,,,,,,,,,,,717.0125682749785,None,718.1122848000377,None,719.0456278380007,None,1.6634920634920634,0.5999786859611049,719.0456278380007,None,,,,,,,,,,,30,001,2023_Feb_22_1627,SpeechDraft1Carolyn_lessNoise_PlusLocalization,2021.2.3,59.96310855787569,
,,,,,,,,midLeft,-13.0,2,ch1Sound_localizationTask.wav,-13.0,"(762, 878)","(-198,-202)",-190,-338,,,,,,,,,5,3,38,1,,,,,,,,,,,,,,,,,,,,,,,,,,,,,,,,,,,,,,,,,,,,719.6459917559987,None,720.745557390037,None,721.678914787015,None,1.2566137566137567,2.0997972500044852,721.678914787015,None,,,,,,,,,,,30,001,2023_Feb_22_1627,SpeechDraft1Carolyn_lessNoise_PlusLocalization,2021.2.3,59.96310855787569,
,,,,,,,,midLeft,-13.0,2,ch1Sound_localizationTask.wav,-13.0,"(762, 878)","(-198,-202)",-190,-338,,,,,,,,,5,4,39,1,,,,,,,,,,,,,,,,,,,,,,,,,,,,,,,,,,,,,,,,,,,,723.779186759959,None,724.8788826770615,None,725.812226235983,None,1.3925925925925926,0.3822880709776655,725.812226235983,None,,,,,,,,,,,30,001,2023_Feb_22_1627,SpeechDraft1Carolyn_lessNoise_PlusLocalization,2021.2.3,59.96310855787569,
,,,,,,,,center,0.0,6,ch1Sound_localizationTask.wav,0.0,"(952, 878)","(-8,-202)",0,-338,,,,,,,,,5,5,40,3,,,,,,,,,,,,,,,,,,,,,,,,,,,,,,,,,,,,,,,,,,,,726.1959076160565,None,727.2956247540424,None,728.2289615729824,None,1.5835978835978834,0.03262990992516279,728.2289615729824,None,,,,,,,,,,,30,001,2023_Feb_22_1627,SpeechDraft1Carolyn_lessNoise_PlusLocalization,2021.2.3,59.96310855787569,
,,,,,,,,midRight,13.0,3,ch1Sound_localizationTask.wav,13.0,"(1142, 878)","(182, -202)",190,-338,,,,,,,,,5,6,41,5,,,,,,,,,,,,,,,,,,,,,,,,,,,,,,,,,,,,,,,,,,,,728.262532185996,None,729.3623924429994,None,730.295668447041,None,1.6306878306878307,0.15009334590286016,730.295668447041,None,,,,,,,,,,,30,001,2023_Feb_22_1627,SpeechDraft1Carolyn_lessNoise_PlusLocalization,2021.2.3,59.96310855787569,
,,,,,,,,midRight,13.0,3,ch1Sound_localizationTask.wav,13.0,"(1142, 878)","(182, -202)",190,-338,,,,,,,,,6,0,42,5,,,,,,,,,,,,,,,,,,,,,,,,,,,,,,,,,,,,,,,,,,,,730.445853104,None,731.5457251350163,None,732.4791326799896,None,1.6296296296296298,2.0999478300800547,732.4791326799896,None,,,,,,,,,,,30,001,2023_Feb_22_1627,SpeechDraft1Carolyn_lessNoise_PlusLocalization,2021.2.3,59.96310855787569,
,,,,,,,,midLeft,-13.0,2,ch1Sound_localizationTask.wav,-13.0,"(762, 878)","(-198,-202)",-190,-338,,,,,,,,,6,1,43,1,,,,,,,,,,,,,,,,,,,,,,,,,,,,,,,,,,,,,,,,,,,,734.5795075689675,None,735.6789456839906,None,736.6123638360295,None,1.4444444444444444,0.11582091904710978,736.6123638360295,None,,,,,,,,,,,30,001,2023_Feb_22_1627,SpeechDraft1Carolyn_lessNoise_PlusLocalization,2021.2.3,59.96310855787569,
,,,,,,,,farLeft,-19.1,5,ch1Sound_localizationTask.wav,-19.1,"(667, 878)","(-293,-202)",-285,-338,,,,,,,,,6,2,44,0,,,,,,,,,,,,,,,,,,,,,,,,,,,,,,,,,,,,,,,,,,,,736.7292094849981,None,737.8289085730212,None,738.7623035400175,None,1.3656084656084655,0.19868850498460233,738.7623035400175,None,,,,,,,,,,,30,001,2023_Feb_22_1627,SpeechDraft1Carolyn_lessNoise_PlusLocalization,2021.2.3,59.96310855787569,
,,,,,,,,midLeft,-13.0,2,ch1Sound_localizationTask.wav,-13.0,"(762, 878)","(-198,-202)",-190,-338,,,,,,,,,6,3,45,1,,,,,,,,,,,,,,,,,,,,,,,,,,,,,,,,,,,,,,,,,,,,738.9625548210461,None,740.0622441449668,None,740.9956387060229,None,1.3571428571428572,0.0997065220726654,740.9956387060229,None,,,,,,,,,,,30,001,2023_Feb_22_1627,SpeechDraft1Carolyn_lessNoise_PlusLocalization,2021.2.3,59.96310855787569,
,,,,,,,,center,0.0,6,ch1Sound_localizationTask.wav,0.0,"(952, 878)","(-8,-202)",0,-338,,,,,,,,,6,4,46,3,,,,,,,,,,,,,,,,,,,,,,,,,,,,,,,,,,,,,,,,,,,,741.0958886080189,None,742.1958777069813,None,743.12905834103,None,1.4465608465608466,2.550084812915884,743.12905834103,None,,,,,,,,,,,30,001,2023_Feb_22_1627,SpeechDraft1Carolyn_lessNoise_PlusLocalization,2021.2.3,59.96310855787569,
,,,,,,,,nearLeft,-6.5,1,ch1Sound_localizationTask.wav,-6.5,"(857, 878)","(-103,-202)",-95,-338,,,,,,,,,6,5,47,2,,,,,,,,,,,,,,,,,,,,,,,,,,,,,,,,,,,,,,,,,,,,745.6792665399844,None,746.7790099120466,None,747.7123477410059,None,1.4296296296296296,0.7995135699165985,747.7123477410059,None,,,,,,,,,,,30,001,2023_Feb_22_1627,SpeechDraft1Carolyn_lessNoise_PlusLocalization,2021.2.3,59.96310855787569,
,,,,,,,,farLeft,-19.1,5,ch1Sound_localizationTask.wav,-19.1,"(667, 878)","(-293,-202)",-285,-338,,,,,,,,,6,6,48,0,,,,,,,,,,,,,,,,,,,,,,,,,,,,,,,,,,,,,,,,,,,,748.5126301019918,None,749.6122760849539,None,750.5456831529737,None,1.41005291005291,0.7998840749496594,750.5456831529737,None,,,,,,,,,,,30,001,2023_Feb_22_1627,SpeechDraft1Carolyn_lessNoise_PlusLocalization,2021.2.3,59.96310855787569,
,,,,,,,,nearRight,6.5,0,ch1Sound_localizationTask.wav,6.5,"(1047, 878)","(87, -202)",95,-338,,,,,,,,,7,0,49,4,,,,,,,,,,,,,,,,,,,,,,,,,,,,,,,,,,,,,,,,,,,,751.3461332339793,None,752.4456556859659,None,753.3791462429799,None,1.4211640211640213,1.4997921050526202,753.3791462429799,None,,,,,,,,,,,30,001,2023_Feb_22_1627,SpeechDraft1Carolyn_lessNoise_PlusLocalization,2021.2.3,59.96310855787569,
,,,,,,,,farRight,19.1,4,ch1Sound_localizationTask.wav,19.1,"(1237, 878)","(277,-202)",285,-338,,,,,,,,,7,1,50,6,,,,,,,,,,,,,,,,,,,,,,,,,,,,,,,,,,,,,,,,,,,,754.8792428140296,None,755.9789795170072,None,756.912364844,None,1.46984126984127,5.832550384919159,756.912364844,None,,,,,,,,,,,30,001,2023_Feb_22_1627,SpeechDraft1Carolyn_lessNoise_PlusLocalization,2021.2.3,59.96310855787569,
,,,,,,,,farLeft,-19.1,5,ch1Sound_localizationTask.wav,-19.1,"(667, 878)","(-293,-202)",-285,-338,,,,,,,,,7,2,51,0,,,,,,,,,,,,,,,,,,,,,,,,,,,,,,,,,,,,,,,,,,,,762.7459088859614,None,763.8458472080529,None,764.779017367051,None,1.28994708994709,0.2667467499850318,764.779017367051,None,,,,,,,,,,,30,001,2023_Feb_22_1627,SpeechDraft1Carolyn_lessNoise_PlusLocalization,2021.2.3,59.96310855787569,
,,,,,,,,farRight,19.1,4,ch1Sound_localizationTask.wav,19.1,"(1237, 878)","(277,-202)",285,-338,,,,,,,,,7,3,52,6,,,,,,,,,,,,,,,,,,,,,,,,,,,,,,,,,,,,,,,,,,,,765.0459046850447,None,766.1456480600173,None,767.0790281610098,None,1.464021164021164,0.14925104402936995,767.0790281610098,None,,,,,,,,,,,30,001,2023_Feb_22_1627,SpeechDraft1Carolyn_lessNoise_PlusLocalization,2021.2.3,59.96310855787569,
,,,,,,,,midLeft,-13.0,2,ch1Sound_localizationTask.wav,-13.0,"(762, 878)","(-198,-202)",-190,-338,,,,,,,,,7,4,53,1,,,,,,,,,,,,,,,,,,,,,,,,,,,,,,,,,,,,,,,,,,,,767.2293579679681,None,768.3290664299857,None,769.2624194390373,None,1.1751322751322753,0.14870306092780083,769.2624194390373,None,,,,,,,,,,,30,001,2023_Feb_22_1627,SpeechDraft1Carolyn_lessNoise_PlusLocalization,2021.2.3,59.96310855787569,
,,,,,,,,nearLeft,-6.5,1,ch1Sound_localizationTask.wav,-6.5,"(857, 878)","(-103,-202)",-95,-338,,,,,,,,,7,5,54,2,,,,,,,,,,,,,,,,,,,,,,,,,,,,,,,,,,,,,,,,,,,,769.4125763380434,None,770.5124152100179,None,771.4456585260341,None,1.1423280423280424,0.1324457599548623,771.4456585260341,None,,,,,,,,,,,30,001,2023_Feb_22_1627,SpeechDraft1Carolyn_lessNoise_PlusLocalization,2021.2.3,59.96310855787569,
,,,,,,,,midLeft,-13.0,2,ch1Sound_localizationTask.wav,-13.0,"(762, 878)","(-198,-202)",-190,-338,,,,,,,,,7,6,55,1,,,,,,,,,,,,,,,,,,,,,,,,,,,,,,,,,,,,,,,,,,,,771.5792855479522,None,772.6789889250649,None,773.612358495011,None,1.1470899470899472,0.3985543929738924,773.612358495011,None,,,,,,,,,,,30,001,2023_Feb_22_1627,SpeechDraft1Carolyn_lessNoise_PlusLocalization,2021.2.3,59.96310855787569,
,,,,,,,,,,,,,,,,,,,,,,,,,,,,,,,,,,,,,,,,,,,,,,,,,,,,,,,,,,,,,,,,,,,,,,,,,,,,,,,,,,space,16.220545742078684,774.0959151340649,None,,,,,,,30,001,2023_Feb_22_1627,SpeechDraft1Carolyn_lessNoise_PlusLocalization,2021.2.3,59.96310855787569,
,,,,,,,,midRight,13.0,3,ch1Sound_localizationTask.wav,13.0,"(1142, 878)","(182, -202)",190,-338,,,,,,,,,,,,,0,0,0,5,,,,,,,,,,,,,,,,,,,,,,,,,,,,,,,,,,,,,,,,790.3624624679796,None,,,793.3800505039981,None,1.656084656084656,2.3378021960379556,793.3800505039981,None,,,,,774.0959151340649,None,791.3628930710256,None,791.5462322420208,791.5626643809956,30,001,2023_Feb_22_1627,SpeechDraft1Carolyn_lessNoise_PlusLocalization,2021.2.3,59.96310855787569,
,,,,,,,,farLeft,-19.1,5,ch1Sound_localizationTask.wav,-19.1,"(667, 878)","(-293,-202)",-285,-338,,,,,,,,,,,,,0,1,1,0,,,,,,,,,,,,,,,,,,,,,,,,,,,,,,,,,,,,,,,,795.7293114389759,None,,,798.7457620609784,None,1.337037037037037,0.6994990159291774,798.7457620609784,None,,,,,,,796.7294002099661,None,796.9126527199987,796.9294579890557,30,001,2023_Feb_22_1627,SpeechDraft1Carolyn_lessNoise_PlusLocalization,2021.2.3,59.96310855787569,
,,,,,,,,nearLeft,-6.5,1,ch1Sound_localizationTask.wav,-6.5,"(857, 878)","(-103,-202)",-95,-338,,,,,,,,,,,,,0,2,2,2,,,,,,,,,,,,,,,,,,,,,,,,,,,,,,,,,,,,,,,,799.445953559014,None,,,802.4623817809625,None,1.506878306878307,1.7319137450540438,802.4623817809625,None,,,,,,,800.4459750850219,None,800.629446489038,800.6459950520657,30,001,2023_Feb_22_1627,SpeechDraft1Carolyn_lessNoise_PlusLocalization,2021.2.3,59.96310855787569,
,,,,,,,,nearLeft,-6.5,1,ch1Sound_localizationTask.wav,-6.5,"(857, 878)","(-103,-202)",-95,-338,,,,,,,,,,,,,0,3,3,2,,,,,,,,,,,,,,,,,,,,,,,,,,,,,,,,,,,,,,,,804.1960293400334,None,,,807.2124572660541,None,1.447089947089947,0.6504019800340757,807.2124572660541,None,,,,,,,805.1960180629976,None,805.3792796509806,805.3960150049534,30,001,2023_Feb_22_1627,SpeechDraft1Carolyn_lessNoise_PlusLocalization,2021.2.3,59.96310855787569,
,,,,,,,,nearLeft,-6.5,1,ch1Sound_localizationTask.wav,-6.5,"(857, 878)","(-103,-202)",-95,-338,,,,,,,,,,,,,0,4,4,2,,,,,,,,,,,,,,,,,,,,,,,,,,,,,,,,,,,,,,,,807.8629249329679,None,,,810.8791146139847,None,1.4248677248677248,0.7152024779934436,810.8791146139847,None,,,,,,,808.8627064840402,None,809.0462093160022,809.0626217679819,30,001,2023_Feb_22_1627,SpeechDraft1Carolyn_lessNoise_PlusLocalization,2021.2.3,59.96310855787569,
,,,,,,,,farRight,19.1,4,ch1Sound_localizationTask.wav,19.1,"(1237, 878)","(277,-202)",285,-338,,,,,,,,,,,,,0,5,5,6,,,,,,,,,,,,,,,,,,,,,,,,,,,,,,,,,,,,,,,,811.5960970669985,None,,,814.612515336019,None,1.651851851851852,1.0329306320054457,814.612515336019,None,,,,,,,812.5960674519883,None,812.7793551540235,812.7959779850207,30,001,2023_Feb_22_1627,SpeechDraft1Carolyn_lessNoise_PlusLocalization,2021.2.3,59.96310855787569,
,,,,,,,,center,0.0,6,ch1Sound_localizationTask.wav,0.0,"(952, 878)","(-8,-202)",0,-338,,,,,,,,,,,,,0,6,6,3,,,,,,,,,,,,,,,,,,,,,,,,,,,,,,,,,,,,,,,,815.6460296040168,None,,,818.6625215850072,None,1.5005291005291004,1.6008340800181031,818.6625215850072,None,,,,,,,816.6459056909662,None,816.8293894119561,816.8462195929606,30,001,2023_Feb_22_1627,SpeechDraft1Carolyn_lessNoise_PlusLocalization,2021.2.3,59.96310855787569,
,,,,,,,,nearRight,6.5,0,ch1Sound_localizationTask.wav,6.5,"(1047, 878)","(87, -202)",95,-338,,,,,,,,,,,,,1,0,7,4,,,,,,,,,,,,,,,,,,,,,,,,,,,,,,,,,,,,,,,,820.2793428499717,None,,,823.2957671929616,None,1.5084656084656085,0.5995715430472046,823.2957671929616,None,,,,,,,821.2794036889682,None,821.4627303810557,821.479314411059,30,001,2023_Feb_22_1627,SpeechDraft1Carolyn_lessNoise_PlusLocalization,2021.2.3,59.96310855787569,
,,,,,,,,midRight,13.0,3,ch1Sound_localizationTask.wav,13.0,"(1142, 878)","(182, -202)",190,-338,,,,,,,,,,,,,1,1,8,5,,,,,,,,,,,,,,,,,,,,,,,,,,,,,,,,,,,,,,,,823.8960207089549,None,,,826.9124095250154,None,1.591005291005291,0.5491800169693306,826.9124095250154,None,,,,,,,824.8960084409919,None,825.0795235490659,825.096009867033,30,001,2023_Feb_22_1627,SpeechDraft1Carolyn_lessNoise_PlusLocalization,2021.2.3,59.96310855787569,
,,,,,,,,midLeft,-13.0,2,ch1Sound_localizationTask.wav,-13.0,"(762, 878)","(-198,-202)",-190,-338,,,,,,,,,,,,,1,2,9,1,,,,,,,,,,,,,,,,,,,,,,,,,,,,,,,,,,,,,,,,827.462821359979,None,,,830.4791046549799,None,1.3984126984126983,0.7661207449855283,830.4791046549799,None,,,,,,,828.4627508160193,None,828.645991783007,828.662703486043,30,001,2023_Feb_22_1627,SpeechDraft1Carolyn_lessNoise_PlusLocalization,2021.2.3,59.96310855787569,
,,,,,,,,nearLeft,-6.5,1,ch1Sound_localizationTask.wav,-6.5,"(857, 878)","(-103,-202)",-95,-338,,,,,,,,,,,,,1,3,10,2,,,,,,,,,,,,,,,,,,,,,,,,,,,,,,,,,,,,,,,,831.2460432549706,None,,,834.2624282840407,None,1.4423280423280422,0.5495466169668362,834.2624282840407,None,,,,,,,832.2460154750152,None,832.429352342966,832.446058097994,30,001,2023_Feb_22_1627,SpeechDraft1Carolyn_lessNoise_PlusLocalization,2021.2.3,59.96310855787569,
,,,,,,,,center,0.0,6,ch1Sound_localizationTask.wav,0.0,"(952, 878)","(-8,-202)",0,-338,,,,,,,,,,,,,1,4,11,3,,,,,,,,,,,,,,,,,,,,,,,,,,,,,,,,,,,,,,,,834.8128058790462,None,,,837.8290374230128,None,1.493121693121693,0.6328434799797833,837.8290374230128,None,,,,,,,835.8126978270011,None,835.9961774899857,836.0126735289814,30,001,2023_Feb_22_1627,SpeechDraft1Carolyn_lessNoise_PlusLocalization,2021.2.3,59.96310855787569,
,,,,,,,,nearLeft,-6.5,1,ch1Sound_localizationTask.wav,-6.5,"(857, 878)","(-103,-202)",-95,-338,,,,,,,,,,,,,1,5,12,2,,,,,,,,,,,,,,,,,,,,,,,,,,,,,,,,,,,,,,,,838.4626406870084,None,,,841.4791553410469,None,1.4566137566137567,0.13275282795075327,841.4791553410469,None,,,,,,,839.4627185410354,None,839.6460772160208,839.6626846110448,30,001,2023_Feb_22_1627,SpeechDraft1Carolyn_lessNoise_PlusLocalization,2021.2.3,59.96310855787569,
,,,,,,,,farRight,19.1,4,ch1Sound_localizationTask.wav,19.1,"(1237, 878)","(277,-202)",285,-338,,,,,,,,,,,,,1,6,13,6,,,,,,,,,,,,,,,,,,,,,,,,,,,,,,,,,,,,,,,,841.612941466039,None,,,844.6291280550649,None,1.5931216931216932,0.9161821570014581,844.6291280550649,None,,,,,,,842.6127027589828,None,842.7962125070626,842.8127510449849,30,001,2023_Feb_22_1627,SpeechDraft1Carolyn_lessNoise_PlusLocalization,2021.2.3,59.96310855787569,
,,,,,,,,farLeft,-19.1,5,ch1Sound_localizationTask.wav,-19.1,"(667, 878)","(-293,-202)",-285,-338,,,,,,,,,,,,,2,0,14,0,,,,,,,,,,,,,,,,,,,,,,,,,,,,,,,,,,,,,,,,845.5460046930239,None,,,848.5624392790487,None,1.3597883597883598,0.5507810220587999,848.5624392790487,None,,,,,,,846.5460917740129,None,846.7294221200282,846.7460820709821,30,001,2023_Feb_22_1627,SpeechDraft1Carolyn_lessNoise_PlusLocalization,2021.2.3,59.96310855787569,
,,,,,,,,farLeft,-19.1,5,ch1Sound_localizationTask.wav,-19.1,"(667, 878)","(-293,-202)",-285,-338,,,,,,,,,,,,,2,1,15,0,,,,,,,,,,,,,,,,,,,,,,,,,,,,,,,,,,,,,,,,849.1295110930223,None,,,852.1457283740165,None,1.291005291005291,2.648790439008735,852.1457283740165,None,,,,,,,850.1293794820085,None,850.3127966719912,850.3296047030017,30,001,2023_Feb_22_1627,SpeechDraft1Carolyn_lessNoise_PlusLocalization,2021.2.3,59.96310855787569,
,,,,,,,,midRight,13.0,3,ch1Sound_localizationTask.wav,13.0,"(1142, 878)","(182, -202)",190,-338,,,,,,,,,,,,,2,2,16,5,,,,,,,,,,,,,,,,,,,,,,,,,,,,,,,,,,,,,,,,854.7960903219646,None,,,857.812417211011,None,1.5793650793650795,0.5338908430421725,857.812417211011,None,,,,,,,855.7960499180481,None,855.9794227620587,855.9961578099756,30,001,2023_Feb_22_1627,SpeechDraft1Carolyn_lessNoise_PlusLocalization,2021.2.3,59.96310855787569,
,,,,,,,,farRight,19.1,4,ch1Sound_localizationTask.wav,19.1,"(1237, 878)","(277,-202)",285,-338,,,,,,,,,,,,,2,3,17,6,,,,,,,,,,,,,,,,,,,,,,,,,,,,,,,,,,,,,,,,858.3467813599855,None,,,861.3624377889792,None,1.6423280423280424,0.7484203140484169,861.3624377889792,None,,,,,,,859.3461102290312,None,859.5293923170539,859.5461172440555,30,001,2023_Feb_22_1627,SpeechDraft1Carolyn_lessNoise_PlusLocalization,2021.2.3,59.96310855787569,
,,,,,,,,center,0.0,6,ch1Sound_localizationTask.wav,0.0,"(952, 878)","(-8,-202)",0,-338,,,,,,,,,,,,,2,4,18,3,,,,,,,,,,,,,,,,,,,,,,,,,,,,,,,,,,,,,,,,862.1127684330568,None,,,865.129090843955,None,1.5142857142857142,1.3332665279740468,865.129090843955,None,,,,,,,863.112784135039,None,863.2961016090121,863.312829175964,30,001,2023_Feb_22_1627,SpeechDraft1Carolyn_lessNoise_PlusLocalization,2021.2.3,59.96310855787569,
,,,,,,,,midLeft,-13.0,2,ch1Sound_localizationTask.wav,-13.0,"(762, 878)","(-198,-202)",-190,-338,,,,,,,,,,,,,2,5,19,1,,,,,,,,,,,,,,,,,,,,,,,,,,,,,,,,,,,,,,,,866.4627031190321,None,,,869.4791965939803,None,1.3566137566137566,0.9494991209357977,869.4791965939803,None,,,,,,,867.4628399789799,None,867.6462156850612,867.6627923620399,30,001,2023_Feb_22_1627,SpeechDraft1Carolyn_lessNoise_PlusLocalization,2021.2.3,59.96310855787569,
,,,,,,,,center,0.0,6,ch1Sound_localizationTask.wav,0.0,"(952, 878)","(-8,-202)",0,-338,,,,,,,,,,,,,2,6,20,3,,,,,,,,,,,,,,,,,,,,,,,,,,,,,,,,,,,,,,,,870.4298618340399,None,,,873.4459877150366,None,1.5105820105820107,0.5662062090123072,873.4459877150366,None,,,,,,,871.4293772700476,None,871.6127933489624,871.6294267659541,30,001,2023_Feb_22_1627,SpeechDraft1Carolyn_lessNoise_PlusLocalization,2021.2.3,59.96310855787569,
,,,,,,,,nearRight,6.5,0,ch1Sound_localizationTask.wav,6.5,"(1047, 878)","(87, -202)",95,-338,,,,,,,,,,,,,3,0,21,4,,,,,,,,,,,,,,,,,,,,,,,,,,,,,,,,,,,,,,,,874.0128613819834,None,,,877.0291983729694,None,1.5481481481481483,0.650326905073598,877.0291983729694,None,,,,,,,875.0128173480043,None,875.1963009600295,875.2128151979996,30,001,2023_Feb_22_1627,SpeechDraft1Carolyn_lessNoise_PlusLocalization,2021.2.3,59.96310855787569,
,,,,,,,,farLeft,-19.1,5,ch1Sound_localizationTask.wav,-19.1,"(667, 878)","(-293,-202)",-285,-338,,,,,,,,,,,,,3,1,22,0,,,,,,,,,,,,,,,,,,,,,,,,,,,,,,,,,,,,,,,,877.6801844900474,None,,,880.695803835988,None,1.3185185185185184,0.7003034590743482,880.695803835988,None,,,,,,,878.679450341966,None,878.8628174560145,878.8794794259593,30,001,2023_Feb_22_1627,SpeechDraft1Carolyn_lessNoise_PlusLocalization,2021.2.3,59.96310855787569,
,,,,,,,,farRight,19.1,4,ch1Sound_localizationTask.wav,19.1,"(1237, 878)","(277,-202)",285,-338,,,,,,,,,,,,,3,2,23,6,,,,,,,,,,,,,,,,,,,,,,,,,,,,,,,,,,,,,,,,881.4127673220355,None,,,884.429166493006,None,1.6846560846560847,0.982913660001941,884.429166493006,None,,,,,,,882.4127071200637,None,882.5961354610045,882.612699885969,30,001,2023_Feb_22_1627,SpeechDraft1Carolyn_lessNoise_PlusLocalization,2021.2.3,59.96310855787569,
,,,,,,,,midRight,13.0,3,ch1Sound_localizationTask.wav,13.0,"(1142, 878)","(182, -202)",190,-338,,,,,,,,,,,,,3,3,24,5,,,,,,,,,,,,,,,,,,,,,,,,,,,,,,,,,,,,,,,,885.4128926750273,None,,,888.4292154660216,None,1.591005291005291,0.9160169960232452,888.4292154660216,None,,,,,,,886.4127671980532,None,886.5961140349973,886.6129197180271,30,001,2023_Feb_22_1627,SpeechDraft1Carolyn_lessNoise_PlusLocalization,2021.2.3,59.96310855787569,
,,,,,,,,midRight,13.0,3,ch1Sound_localizationTask.wav,13.0,"(1142, 878)","(182, -202)",190,-338,,,,,,,,,,,,,3,4,25,5,,,,,,,,,,,,,,,,,,,,,,,,,,,,,,,,,,,,,,,,889.3465941660106,None,,,892.3625662679551,None,1.5957671957671957,0.9482737499056384,892.3625662679551,None,,,,,,,890.3463281380245,None,890.5295091309818,890.5461346199736,30,001,2023_Feb_22_1627,SpeechDraft1Carolyn_lessNoise_PlusLocalization,2021.2.3,59.96310855787569,
,,,,,,,,farLeft,-19.1,5,ch1Sound_localizationTask.wav,-19.1,"(667, 878)","(-293,-202)",-285,-338,,,,,,,,,,,,,3,5,26,0,,,,,,,,,,,,,,,,,,,,,,,,,,,,,,,,,,,,,,,,893.3127329540439,None,,,896.3292111780029,None,1.3486772486772487,1.2824821639806032,896.3292111780029,None,,,,,,,894.3128070670646,None,894.4961309820646,894.5128031460335,30,001,2023_Feb_22_1627,SpeechDraft1Carolyn_lessNoise_PlusLocalization,2021.2.3,59.96310855787569,
,,,,,,,,farRight,19.1,4,ch1Sound_localizationTask.wav,19.1,"(1237, 878)","(277,-202)",285,-338,,,,,,,,,,,,,3,6,27,6,,,,,,,,,,,,,,,,,,,,,,,,,,,,,,,,,,,,,,,,897.6128197859507,None,,,900.6292160230223,None,1.6767195767195768,1.1995410309173167,900.6292160230223,None,,,,,,,898.6129186600447,None,898.7960810420336,898.8129883289803,30,001,2023_Feb_22_1627,SpeechDraft1Carolyn_lessNoise_PlusLocalization,2021.2.3,59.96310855787569,
,,,,,,,,nearLeft,-6.5,1,ch1Sound_localizationTask.wav,-6.5,"(857, 878)","(-103,-202)",-95,-338,,,,,,,,,,,,,4,0,28,2,,,,,,,,,,,,,,,,,,,,,,,,,,,,,,,,,,,,,,,,901.8302628010279,None,,,904.8459448419744,None,1.4370370370370371,0.8989826350007206,904.8459448419744,None,,,,,,,902.8295084480196,None,903.0128565210616,903.029497624957,30,001,2023_Feb_22_1627,SpeechDraft1Carolyn_lessNoise_PlusLocalization,2021.2.3,59.96310855787569,
,,,,,,,,midRight,13.0,3,ch1Sound_localizationTask.wav,13.0,"(1142, 878)","(182, -202)",190,-338,,,,,,,,,,,,,4,1,29,5,,,,,,,,,,,,,,,,,,,,,,,,,,,,,,,,,,,,,,,,905.7460955999559,None,,,908.7625981180463,None,1.6074074074074074,1.1483937409939244,908.7625981180463,None,,,,,,,906.7461241000565,None,906.9294931479963,906.9462403779617,30,001,2023_Feb_22_1627,SpeechDraft1Carolyn_lessNoise_PlusLocalization,2021.2.3,59.96310855787569,
,,,,,,,,nearRight,6.5,0,ch1Sound_localizationTask.wav,6.5,"(1047, 878)","(87, -202)",95,-338,,,,,,,,,,,,,4,2,30,4,,,,,,,,,,,,,,,,,,,,,,,,,,,,,,,,,,,,,,,,909.9128401370253,None,,,912.9295203130459,None,1.5603174603174603,0.965741390013136,912.9295203130459,None,,,,,,,910.9129091770155,None,911.0962117679883,911.1129669620423,30,001,2023_Feb_22_1627,SpeechDraft1Carolyn_lessNoise_PlusLocalization,2021.2.3,59.96310855787569,
,,,,,,,,nearRight,6.5,0,ch1Sound_localizationTask.wav,6.5,"(1047, 878)","(87, -202)",95,-338,,,,,,,,,,,,,4,3,31,4,,,,,,,,,,,,,,,,,,,,,,,,,,,,,,,,,,,,,,,,913.8963312610285,None,,,916.9124750449555,None,1.4857142857142858,1.4171179969562218,916.9124750449555,None,,,,,,,914.8962042300263,None,915.0794209600426,915.0962762420531,30,001,2023_Feb_22_1627,SpeechDraft1Carolyn_lessNoise_PlusLocalization,2021.2.3,59.96310855787569,
,,,,,,,,farLeft,-19.1,5,ch1Sound_localizationTask.wav,-19.1,"(667, 878)","(-293,-202)",-285,-338,,,,,,,,,,,,,4,4,32,0,,,,,,,,,,,,,,,,,,,,,,,,,,,,,,,,,,,,,,,,918.3304709440563,None,,,921.3626246149652,None,1.3761904761904762,0.6664904919452965,921.3626246149652,None,,,,,,,919.3460561350221,None,919.5297395059606,919.5461723330664,30,001,2023_Feb_22_1627,SpeechDraft1Carolyn_lessNoise_PlusLocalization,2021.2.3,59.96310855787569,
,,,,,,,,midLeft,-13.0,2,ch1Sound_localizationTask.wav,-13.0,"(762, 878)","(-198,-202)",-190,-338,,,,,,,,,,,,,4,5,33,1,,,,,,,,,,,,,,,,,,,,,,,,,,,,,,,,,,,,,,,,922.0295095839538,None,,,925.045835279976,None,1.428042328042328,0.366755363997072,925.045835279976,None,,,,,,,923.0297208420234,None,923.2128287010128,923.2295057050651,30,001,2023_Feb_22_1627,SpeechDraft1Carolyn_lessNoise_PlusLocalization,2021.2.3,59.96310855787569,
,,,,,,,,nearRight,6.5,0,ch1Sound_localizationTask.wav,6.5,"(1047, 878)","(87, -202)",95,-338,,,,,,,,,,,,,4,6,34,4,,,,,,,,,,,,,,,,,,,,,,,,,,,,,,,,,,,,,,,,925.41293163097,None,,,928.4292239899514,None,1.5391534391534392,0.5998006800655276,928.4292239899514,None,,,,,,,926.412838816992,None,926.5961031740298,926.6128716210369,30,001,2023_Feb_22_1627,SpeechDraft1Carolyn_lessNoise_PlusLocalization,2021.2.3,59.96310855787569,
,,,,,,,,midLeft,-13.0,2,ch1Sound_localizationTask.wav,-13.0,"(762, 878)","(-198,-202)",-190,-338,,,,,,,,,,,,,5,0,35,1,,,,,,,,,,,,,,,,,,,,,,,,,,,,,,,,,,,,,,,,929.0295140939998,None,,,932.045942452969,None,1.4126984126984126,0.532940324046649,932.045942452969,None,,,,,,,930.0295214459766,None,930.2128707120428,930.2295369439526,30,001,2023_Feb_22_1627,SpeechDraft1Carolyn_lessNoise_PlusLocalization,2021.2.3,59.96310855787569,
,,,,,,,,nearLeft,-6.5,1,ch1Sound_localizationTask.wav,-6.5,"(857, 878)","(-103,-202)",-95,-338,,,,,,,,,,,,,5,1,36,2,,,,,,,,,,,,,,,,,,,,,,,,,,,,,,,,,,,,,,,,932.5795579360565,None,,,935.595881300047,None,1.4497354497354498,0.5986999999731779,935.595881300047,None,,,,,,,933.5795217360137,None,933.7628703810042,933.7795142539544,30,001,2023_Feb_22_1627,SpeechDraft1Carolyn_lessNoise_PlusLocalization,2021.2.3,59.96310855787569,
,,,,,,,,center,0.0,6,ch1Sound_localizationTask.wav,0.0,"(952, 878)","(-8,-202)",0,-338,,,,,,,,,,,,,5,2,37,3,,,,,,,,,,,,,,,,,,,,,,,,,,,,,,,,,,,,,,,,936.1961884190096,None,,,939.2126311640022,None,1.4746031746031747,0.7820258450228721,939.2126311640022,None,,,,,,,937.1961412399542,None,937.3795712529682,937.3962544350652,30,001,2023_Feb_22_1627,SpeechDraft1Carolyn_lessNoise_PlusLocalization,2021.2.3,59.96310855787569,
,,,,,,,,farRight,19.1,4,ch1Sound_localizationTask.wav,19.1,"(1237, 878)","(277,-202)",285,-338,,,,,,,,,,,,,5,3,38,6,,,,,,,,,,,,,,,,,,,,,,,,,,,,,,,,,,,,,,,,939.9961787919747,None,,,943.0125403569546,None,1.6264550264550266,0.7992575028911233,943.0125403569546,None,,,,,,,940.9963148300303,None,941.1795093649998,941.1962760769529,30,001,2023_Feb_22_1627,SpeechDraft1Carolyn_lessNoise_PlusLocalization,2021.2.3,59.96310855787569,
,,,,,,,,nearRight,6.5,0,ch1Sound_localizationTask.wav,6.5,"(1047, 878)","(87, -202)",95,-338,,,,,,,,,,,,,5,4,39,4,,,,,,,,,,,,,,,,,,,,,,,,,,,,,,,,,,,,,,,,943.8128800200066,None,,,946.8293333280599,None,1.5386243386243388,0.5160737030673772,946.8293333280599,None,,,,,,,944.8128187659895,None,944.9962006519781,945.0129277340602,30,001,2023_Feb_22_1627,SpeechDraft1Carolyn_lessNoise_PlusLocalization,2021.2.3,59.96310855787569,
,,,,,,,,nearLeft,-6.5,1,ch1Sound_localizationTask.wav,-6.5,"(857, 878)","(-103,-202)",-95,-338,,,,,,,,,,,,,5,5,40,2,,,,,,,,,,,,,,,,,,,,,,,,,,,,,,,,,,,,,,,,947.3461136519909,None,,,950.3626211360097,None,1.4412698412698413,0.7493318470660597,950.3626211360097,None,,,,,,,948.3461910040351,None,948.5295219429536,948.5461957780644,30,001,2023_Feb_22_1627,SpeechDraft1Carolyn_lessNoise_PlusLocalization,2021.2.3,59.96310855787569,
,,,,,,,,farRight,19.1,4,ch1Sound_localizationTask.wav,19.1,"(1237, 878)","(277,-202)",285,-338,,,,,,,,,,,,,5,6,41,6,,,,,,,,,,,,,,,,,,,,,,,,,,,,,,,,,,,,,,,,951.1135892990278,None,,,954.1293471259996,None,1.6423280423280424,0.63162372703664,954.1293471259996,None,,,,,,,952.1128559600329,None,952.2962402560515,952.3128824529704,30,001,2023_Feb_22_1627,SpeechDraft1Carolyn_lessNoise_PlusLocalization,2021.2.3,59.96310855787569,
,,,,,,,,center,0.0,6,ch1Sound_localizationTask.wav,0.0,"(952, 878)","(-8,-202)",0,-338,,,,,,,,,,,,,6,0,42,3,,,,,,,,,,,,,,,,,,,,,,,,,,,,,,,,,,,,,,,,954.7628933700034,None,,,957.7793870969908,None,1.6539682539682539,0.7490013749338686,957.7793870969908,None,,,,,,,955.7628827800509,None,955.946262108977,955.9628448639996,30,001,2023_Feb_22_1627,SpeechDraft1Carolyn_lessNoise_PlusLocalization,2021.2.3,59.96310855787569,
,,,,,,,,nearRight,6.5,0,ch1Sound_localizationTask.wav,6.5,"(1047, 878)","(87, -202)",95,-338,,,,,,,,,,,,,6,1,43,4,,,,,,,,,,,,,,,,,,,,,,,,,,,,,,,,,,,,,,,,958.5297191840364,None,,,961.5458831440192,None,1.5698412698412698,0.4821397910127416,961.5458831440192,None,,,,,,,959.529531346052,None,959.7128368440317,959.7295792640653,30,001,2023_Feb_22_1627,SpeechDraft1Carolyn_lessNoise_PlusLocalization,2021.2.3,59.96310855787569,
,,,,,,,,farRight,19.1,4,ch1Sound_localizationTask.wav,19.1,"(1237, 878)","(277,-202)",285,-338,,,,,,,,,,,,,6,2,44,6,,,,,,,,,,,,,,,,,,,,,,,,,,,,,,,,,,,,,,,,962.0296091720229,None,,,965.0459611669648,None,1.6539682539682539,0.75028844201006,965.0459611669648,None,,,,,,,963.0295677710092,None,963.2128383889794,963.2295884320047,30,001,2023_Feb_22_1627,SpeechDraft1Carolyn_lessNoise_PlusLocalization,2021.2.3,59.96310855787569,
,,,,,,,,midLeft,-13.0,2,ch1Sound_localizationTask.wav,-13.0,"(762, 878)","(-198,-202)",-190,-338,,,,,,,,,,,,,6,3,45,1,,,,,,,,,,,,,,,,,,,,,,,,,,,,,,,,,,,,,,,,965.7967946670251,None,,,968.8126012040302,None,1.428042328042328,0.5823230789974332,968.8126012040302,None,,,,,,,966.7961680670269,None,966.9795270409668,966.9962036090437,30,001,2023_Feb_22_1627,SpeechDraft1Carolyn_lessNoise_PlusLocalization,2021.2.3,59.96310855787569,
,,,,,,,,farLeft,-19.1,5,ch1Sound_localizationTask.wav,-19.1,"(667, 878)","(-293,-202)",-285,-338,,,,,,,,,,,,,6,4,46,0,,,,,,,,,,,,,,,,,,,,,,,,,,,,,,,,,,,,,,,,969.3962222289992,None,,,972.4126280200435,None,1.3613756613756614,0.5667263090144843,972.4126280200435,None,,,,,,,970.3963796379976,None,970.5795492220204,970.5962624100503,30,001,2023_Feb_22_1627,SpeechDraft1Carolyn_lessNoise_PlusLocalization,2021.2.3,59.96310855787569,
,,,,,,,,midRight,13.0,3,ch1Sound_localizationTask.wav,13.0,"(1142, 878)","(182, -202)",190,-338,,,,,,,,,,,,,6,5,47,5,,,,,,,,,,,,,,,,,,,,,,,,,,,,,,,,,,,,,,,,972.9959270879626,None,,,976.0126266799634,None,1.6,0.41629945405293256,976.0126266799634,None,,,,,,,973.9962037979858,None,974.1797369599808,974.1962059140205,30,001,2023_Feb_22_1627,SpeechDraft1Carolyn_lessNoise_PlusLocalization,2021.2.3,59.96310855787569,
,,,,,,,,midLeft,-13.0,2,ch1Sound_localizationTask.wav,-13.0,"(762, 878)","(-198,-202)",-190,-338,,,,,,,,,,,,,6,6,48,1,,,,,,,,,,,,,,,,,,,,,,,,,,,,,,,,,,,,,,,,976.4295585990185,None,,,979.4459372239653,None,1.4010582010582011,0.7154141609789804,979.4459372239653,None,,,,,,,977.4295585190412,None,977.6129419599893,977.6295659689931,30,001,2023_Feb_22_1627,SpeechDraft1Carolyn_lessNoise_PlusLocalization,2021.2.3,59.96310855787569,
,,,,,,,,midLeft,-13.0,2,ch1Sound_localizationTask.wav,-13.0,"(762, 878)","(-198,-202)",-190,-338,,,,,,,,,,,,,7,0,49,1,,,,,,,,,,,,,,,,,,,,,,,,,,,,,,,,,,,,,,,,980.1630220640218,None,,,983.179338603979,None,1.3746031746031746,0.41670192405581474,983.179338603979,None,,,,,,,981.1629230979597,None,981.3461661749752,981.363060817006,30,001,2023_Feb_22_1627,SpeechDraft1Carolyn_lessNoise_PlusLocalization,2021.2.3,59.96310855787569,
,,,,,,,,center,0.0,6,ch1Sound_localizationTask.wav,0.0,"(952, 878)","(-8,-202)",0,-338,,,,,,,,,,,,,7,1,50,3,,,,,,,,,,,,,,,,,,,,,,,,,,,,,,,,,,,,,,,,983.5968048019568,None,,,986.6126611980144,None,1.3804232804232806,1.116322026005946,986.6126611980144,None,,,,,,,984.5962680520024,None,984.7796402929816,984.7962678250624,30,001,2023_Feb_22_1627,SpeechDraft1Carolyn_lessNoise_PlusLocalization,2021.2.3,59.96310855787569,
,,,,,,,,farLeft,-19.1,5,ch1Sound_localizationTask.wav,-19.1,"(667, 878)","(-293,-202)",-285,-338,,,,,,,,,,,,,7,2,51,0,,,,,,,,,,,,,,,,,,,,,,,,,,,,,,,,,,,,,,,,987.7296382309869,None,,,990.7458444869844,None,1.2968253968253969,0.7986999760614708,990.7458444869844,None,,,,,,,988.7297626059735,None,988.9130834860262,988.9296559799695,30,001,2023_Feb_22_1627,SpeechDraft1Carolyn_lessNoise_PlusLocalization,2021.2.3,59.96310855787569,
,,,,,,,,center,0.0,6,ch1Sound_localizationTask.wav,0.0,"(952, 878)","(-8,-202)",0,-338,,,,,,,,,,,,,7,3,52,3,,,,,,,,,,,,,,,,,,,,,,,,,,,,,,,,,,,,,,,,991.5462166490033,None,,,994.5626201810082,None,1.4994708994708994,0.6661589220166206,994.5626201810082,None,,,,,,,992.5462412920315,None,992.7296364790527,992.7462684250204,30,001,2023_Feb_22_1627,SpeechDraft1Carolyn_lessNoise_PlusLocalization,2021.2.3,59.96310855787569,
,,,,,,,,midRight,13.0,3,ch1Sound_localizationTask.wav,13.0,"(1142, 878)","(182, -202)",190,-338,,,,,,,,,,,,,7,4,53,5,,,,,,,,,,,,,,,,,,,,,,,,,,,,,,,,,,,,,,,,995.2296104950365,None,,,998.2460448530037,None,1.5857142857142859,0.765264317044057,998.2460448530037,None,,,,,,,996.2295510000549,None,996.4129448770545,996.4295390850166,30,001,2023_Feb_22_1627,SpeechDraft1Carolyn_lessNoise_PlusLocalization,2021.2.3,59.96310855787569,
,,,,,,,,nearRight,6.5,0,ch1Sound_localizationTask.wav,6.5,"(1047, 878)","(87, -202)",95,-338,,,,,,,,,,,,,7,5,54,4,,,,,,,,,,,,,,,,,,,,,,,,,,,,,,,,,,,,,,,,999.0128994920524,None,,,1002.0294091709657,None,1.5671957671957673,0.6819974860409275,1002.0294091709657,None,,,,,,,1000.0128922710428,None,1000.1962538199732,1000.2129112000111,30,001,2023_Feb_22_1627,SpeechDraft1Carolyn_lessNoise_PlusLocalization,2021.2.3,59.96310855787569,
,,,,,,,,midLeft,-13.0,2,ch1Sound_localizationTask.wav,-13.0,"(762, 878)","(-198,-202)",-190,-338,,,,,,,,,,,,,7,6,55,1,,,,,,,,,,,,,,,,,,,,,,,,,,,,,,,,,,,,,,,,1002.7129494900582,None,,,1005.7294215330621,None,1.3883597883597885,0.4992904170649126,1005.7294215330621,None,,,,,,,1003.7129023299785,None,1003.8962746519828,1003.9129398330115,30,001,2023_Feb_22_1627,SpeechDraft1Carolyn_lessNoise_PlusLocalization,2021.2.3,59.96310855787569,
