Audio_Only_Files,Video_Files,Original_Word_List,noiseLevelCode,conditionCodes,noiseLevelFile1,noiseLevelFile2,InstrTextVar,practiceTrials.thisRepN,practiceTrials.thisTrialN,practiceTrials.thisN,practiceTrials.thisIndex,trials.thisRepN,trials.thisTrialN,trials.thisN,trials.thisIndex,letsGoAlready.keys,letsGoAlready.rt,letsGoAlready.started,letsGoAlready.stopped,text_2.started,text_2.stopped,text_3.started,text_3.stopped,key_resp_2.keys,key_resp_2.rt,key_resp_2.started,key_resp_2.stopped,text_5.started,text_5.stopped,fixCross.started,fixCross.stopped,fixCross2.started,fixCross2.stopped,answerPrompt.started,answerPrompt.stopped,getAnswer.text,getAnswer.started,getAnswer.stopped,goToNext.keys,goToNext.rt,goToNext.started,goToNext.stopped,stretchBreakTxrt.started,stretchBreakTxrt.stopped,key_resp_3.keys,key_resp_3.rt,key_resp_3.started,key_resp_3.stopped,participant,session,date,expName,psychopyVersion,frameRate,
,,,,,,,,,,,,,,,,space,25.24616424308624,16.267308941925876,None,,,,,,,,,,,,,,,,,,,,,,,,,,,,,,33,001,2023_Feb_24_1140,SpeechDraft1Carolyn_lessNoise_PlusLocalization,2021.2.3,60.00965232218245,
,,,,,,,,,,,,,,,,,,,,16.267308941925876,None,41.53243224497419,None,space,5.989774015033618,41.71571997995488,None,,,,,,,,,,,,,,,,,,,,,,33,001,2023_Feb_24_1140,SpeechDraft1Carolyn_lessNoise_PlusLocalization,2021.2.3,60.00965232218245,
ash.wav,ash.mpg,ash,1,A,Pink_Noise_1_1.wav,Pink_Noise_1_2.wav,"This is an example of an

AUDIO trial",0,0,0,0,,,,,,,,,,,,,,,,,47.76550675998442,None,48.74909026699606,None,52.08301771595143,None,53.48255640594289,None,asche,53.48255640594289,None,return,3.492319696000777,53.54912116797641,None,,,,,,,33,001,2023_Feb_24_1140,SpeechDraft1Carolyn_lessNoise_PlusLocalization,2021.2.3,60.00965232218245,
ash.wav,ash.mpg,ash,1,AV,Pink_Noise_1_1.wav,Pink_Noise_1_2.wav,"This is an example of an

AUDIO + VIDEO  trial",0,1,1,1,,,,,,,,,,,,,,,,,57.08213250397239,None,58.082565456978045,None,59.56559853395447,None,60.94898840598762,None,"ash
",60.94898840598762,None,return,4.353009017999284,61.03246325394139,None,,,,,,,33,001,2023_Feb_24_1140,SpeechDraft1Carolyn_lessNoise_PlusLocalization,2021.2.3,60.00965232218245,
,,,,,,,,,,,,,,,,,,,,,,,,,,,,,,,,,,,,,,,,,,,65.43219546298496,None,space,7.777748472057283,65.61572616698686,None,33,001,2023_Feb_24_1140,SpeechDraft1Carolyn_lessNoise_PlusLocalization,2021.2.3,60.00965232218245,
cone.wav,cone.mpg,cone,4,A,Pink_Noise_4_1.wav,Pink_Noise_4_2.wav,,,,,,0,0,0,56,,,,,,,,,,,,,,,73.44898351898883,None,74.93222608999349,None,76.31579012994189,None,four,76.31579012994189,None,return,5.474354191916063,76.39915860700421,None,,,,,,,33,001,2023_Feb_24_1140,SpeechDraft1Carolyn_lessNoise_PlusLocalization,2021.2.3,60.00965232218245,
goose.wav,goose.mpg,goose,3,AV,Pink_Noise_3_1.wav,Pink_Noise_3_2.wav,,,,,,0,1,1,79,,,,,,,,,,,,,,,81.89927272195928,None,83.39998463797383,None,84.78250438696705,None,goose,84.78250438696705,None,return,2.0796950709773228,84.86581671494059,None,,,,,,,33,001,2023_Feb_24_1140,SpeechDraft1Carolyn_lessNoise_PlusLocalization,2021.2.3,60.00965232218245,
bland.wav,bland.mpg,bland,2,A,Pink_Noise_2_1.wav,Pink_Noise_2_2.wav,,,,,,0,2,2,36,,,,,,,,,,,,,,,86.96588228596374,None,88.46560547396075,None,89.84914311091416,None,bland,89.84914311091416,None,return,1.205031737103127,89.93251017399598,None,,,,,,,33,001,2023_Feb_24_1140,SpeechDraft1Carolyn_lessNoise_PlusLocalization,2021.2.3,60.00965232218245,
blood.wav,blood.mpg,blood,6,AV,Pink_Noise_6_1.wav,Pink_Noise_6_2.wav,,,,,,0,3,3,78,,,,,,,,,,,,,,,91.16582368395757,None,92.665740913013,None,94.049092413974,None,plus,94.049092413974,None,return,5.197110187960789,94.13246628595516,None,,,,,,,33,001,2023_Feb_24_1140,SpeechDraft1Carolyn_lessNoise_PlusLocalization,2021.2.3,60.00965232218245,
peach.wav,peach.mpg,peach,4,AV,Pink_Noise_4_1.wav,Pink_Noise_4_2.wav,,,,,,0,4,4,63,,,,,,,,,,,,,,,99.34921268397011,None,100.84895373298787,None,102.23242975294124,None,beach,102.23242975294124,None,return,2.6776407649740577,102.31585322401952,None,,,,,,,33,001,2023_Feb_24_1140,SpeechDraft1Carolyn_lessNoise_PlusLocalization,2021.2.3,60.00965232218245,
boost.wav,boost.mpg,boost,6,A,Pink_Noise_6_1.wav,Pink_Noise_6_2.wav,,,,,,0,5,5,33,,,,,,,,,,,,,,,105.01586718193721,None,106.5005255069118,None,107.88263184193056,None,eat,107.88263184193056,None,return,2.3716957970755175,107.96585978893563,None,,,,,,,33,001,2023_Feb_24_1140,SpeechDraft1Carolyn_lessNoise_PlusLocalization,2021.2.3,60.00965232218245,
chess.wav,chess.mpg,chess,4,A,Pink_Noise_4_1.wav,Pink_Noise_4_2.wav,,,,,,0,6,6,6,,,,,,,,,,,,,,,110.36581682693213,None,111.86560159898363,None,113.24916541890707,None,chest,113.24916541890707,None,return,1.7246481400215998,113.332815386937,None,,,,,,,33,001,2023_Feb_24_1140,SpeechDraft1Carolyn_lessNoise_PlusLocalization,2021.2.3,60.00965232218245,
dent.wav,dent.mpg,dent,2,AV,Pink_Noise_2_1.wav,Pink_Noise_2_2.wav,,,,,,0,7,7,94,,,,,,,,,,,,,,,115.08247812697664,None,116.58236417092849,None,117.96580799494404,None,debt,117.96580799494404,None,return,1.6403313890332356,118.0492108319886,None,,,,,,,33,001,2023_Feb_24_1140,SpeechDraft1Carolyn_lessNoise_PlusLocalization,2021.2.3,60.00965232218245,
glass.wav,glass.mpg,glass,6,A,Pink_Noise_6_1.wav,Pink_Noise_6_2.wav,,,,,,0,8,8,15,,,,,,,,,,,,,,,119.71593455597758,None,121.1997692239238,None,122.58252064697444,None,"cats
",122.58252064697444,None,return,1.519594440003857,122.66588108998258,None,,,,,,,33,001,2023_Feb_24_1140,SpeechDraft1Carolyn_lessNoise_PlusLocalization,2021.2.3,60.00965232218245,
fate.wav,fate.mpg,fate,5,AV,Pink_Noise_5_1.wav,Pink_Noise_5_2.wav,,,,,,0,9,9,70,,,,,,,,,,,,,,,124.21583571401425,None,125.7008288379293,None,127.08255909499712,None,fish,127.08255909499712,None,return,1.5316578920464963,127.16587410192005,None,,,,,,,33,001,2023_Feb_24_1140,SpeechDraft1Carolyn_lessNoise_PlusLocalization,2021.2.3,60.00965232218245,
cat.wav,cat.mpg,cat,6,AV,Pink_Noise_6_1.wav,Pink_Noise_6_2.wav,,,,,,0,10,10,86,,,,,,,,,,,,,,,128.71593404293526,None,130.21561087295413,None,131.59924852394033,None,cat,131.59924852394033,None,return,1.2709183701081201,131.6825547569897,None,,,,,,,33,001,2023_Feb_24_1140,SpeechDraft1Carolyn_lessNoise_PlusLocalization,2021.2.3,60.00965232218245,
cash.wav,cash.mpg,cash,5,AV,Pink_Noise_5_1.wav,Pink_Noise_5_2.wav,,,,,,0,11,11,110,,,,,,,,,,,,,,,132.98265424999408,None,134.46782346291002,None,135.8492034910014,None,cash,135.8492034910014,None,return,3.5089519059984013,135.93256140698213,None,,,,,,,33,001,2023_Feb_24_1140,SpeechDraft1Carolyn_lessNoise_PlusLocalization,2021.2.3,60.00965232218245,
tomb.wav,tomb.mpg,tomb,6,AV,Pink_Noise_6_1.wav,Pink_Noise_6_2.wav,,,,,,0,12,12,65,,,,,,,,,,,,,,,139.46585857099853,None,140.9657662520185,None,142.34921394498087,None,soyp,142.34921394498087,None,return,1.5768921989947557,142.4325746439863,None,,,,,,,33,001,2023_Feb_24_1140,SpeechDraft1Carolyn_lessNoise_PlusLocalization,2021.2.3,60.00965232218245,
broke.wav,broke.mpg,broke,5,A,Pink_Noise_5_1.wav,Pink_Noise_5_2.wav,,,,,,0,13,13,13,,,,,,,,,,,,,,,144.0325567870168,None,145.5322871520184,None,146.91596882301383,None,"debt
",146.91596882301383,None,return,5.370257221045904,146.99920714192558,None,,,,,,,33,001,2023_Feb_24_1140,SpeechDraft1Carolyn_lessNoise_PlusLocalization,2021.2.3,60.00965232218245,
pledge.wav,pledge.mpg,pledge,1,A,Pink_Noise_1_1.wav,Pink_Noise_1_2.wav,,,,,,0,14,14,39,,,,,,,,,,,,,,,152.3992251380114,None,153.89884668693412,None,155.2659626629902,None,budge,155.2659626629902,None,return,4.132360973046161,155.34924699401017,None,,,,,,,33,001,2023_Feb_24_1140,SpeechDraft1Carolyn_lessNoise_PlusLocalization,2021.2.3,60.00965232218245,
born.wav,born.mpg,born,4,A,Pink_Noise_4_1.wav,Pink_Noise_4_2.wav,,,,,,0,15,15,40,,,,,,,,,,,,,,,159.4992675499525,None,160.98444815794937,None,162.36604918097146,None,four,162.36604918097146,None,return,2.272303131991066,162.44928059901576,None,,,,,,,33,001,2023_Feb_24_1140,SpeechDraft1Carolyn_lessNoise_PlusLocalization,2021.2.3,60.00965232218245,
cramp.wav,cramp.mpg,cramp,3,A,Pink_Noise_3_1.wav,Pink_Noise_3_2.wav,,,,,,0,16,16,32,,,,,,,,,,,,,,,164.7493070999626,None,166.2324667489156,None,167.61591685994063,None,"cramp
",167.61591685994063,None,return,4.118168109911494,167.6993119949475,None,,,,,,,33,001,2023_Feb_24_1140,SpeechDraft1Carolyn_lessNoise_PlusLocalization,2021.2.3,60.00965232218245,
cake.wav,cake.mpg,cake,5,A,Pink_Noise_5_1.wav,Pink_Noise_5_2.wav,,,,,,0,17,17,37,,,,,,,,,,,,,,,171.84926641196944,None,173.34948195097968,None,174.73267168400344,None,key,174.73267168400344,None,return,3.321506336913444,174.8160324159544,None,,,,,,,33,001,2023_Feb_24_1140,SpeechDraft1Carolyn_lessNoise_PlusLocalization,2021.2.3,60.00965232218245,
bass.wav,bass.mpg,bass,6,A,Pink_Noise_6_1.wav,Pink_Noise_6_2.wav,,,,,,0,18,18,25,,,,,,,,,,,,,,,178.1659223389579,None,179.66577259101905,None,181.04934150900226,None,okace,181.04934150900226,None,return,2.3247556219575927,181.1327095659217,None,,,,,,,33,001,2023_Feb_24_1140,SpeechDraft1Carolyn_lessNoise_PlusLocalization,2021.2.3,60.00965232218245,
beat.wav,beat.mpg,beat,4,AV,Pink_Noise_4_1.wav,Pink_Noise_4_2.wav,,,,,,0,19,19,103,,,,,,,,,,,,,,,183.48265915201046,None,184.9656645009527,None,186.34930889401585,None,beat,186.34930889401585,None,return,2.4647494659293443,186.43279989191797,None,,,,,,,33,001,2023_Feb_24_1140,SpeechDraft1Carolyn_lessNoise_PlusLocalization,2021.2.3,60.00965232218245,
cap.wav,cap.mpg,cap,1,A,Pink_Noise_1_1.wav,Pink_Noise_1_2.wav,,,,,,0,20,20,52,,,,,,,,,,,,,,,188.91603485192172,None,190.4004836709937,None,191.78276330896188,None,"cap
",191.78276330896188,None,return,1.9835119429044425,191.86596105794888,None,,,,,,,33,001,2023_Feb_24_1140,SpeechDraft1Carolyn_lessNoise_PlusLocalization,2021.2.3,60.00965232218245,
blank.wav,blank.mpg,blank,6,A,Pink_Noise_6_1.wav,Pink_Noise_6_2.wav,,,,,,0,21,21,16,,,,,,,,,,,,,,,193.88257706991863,None,195.38228757691104,None,196.74933317594696,None,rain,196.74933317594696,None,return,2.4808971979655325,196.83262711099815,None,,,,,,,33,001,2023_Feb_24_1140,SpeechDraft1Carolyn_lessNoise_PlusLocalization,2021.2.3,60.00965232218245,
gross.wav,gross.mpg,gross,3,A,Pink_Noise_3_1.wav,Pink_Noise_3_2.wav,,,,,,0,22,22,48,,,,,,,,,,,,,,,199.33264304092154,None,200.83232062798925,None,202.2159784520045,None,gross,202.2159784520045,None,return,4.158103709924035,202.29935664590448,None,,,,,,,33,001,2023_Feb_24_1140,SpeechDraft1Carolyn_lessNoise_PlusLocalization,2021.2.3,60.00965232218245,
drab.wav,drab.mpg,drab,3,AV,Pink_Noise_3_1.wav,Pink_Noise_3_2.wav,,,,,,0,23,23,93,,,,,,,,,,,,,,,206.48261781793553,None,207.9825963259209,None,209.36620842292905,None,drab,209.36620842292905,None,return,2.2801876890007406,209.44937894993927,None,,,,,,,33,001,2023_Feb_24_1140,SpeechDraft1Carolyn_lessNoise_PlusLocalization,2021.2.3,60.00965232218245,
fed.wav,fed.mpg,fed,2,A,Pink_Noise_2_1.wav,Pink_Noise_2_2.wav,,,,,,0,24,24,46,,,,,,,,,,,,,,,211.7492904429091,None,213.2489971279865,None,214.61607514799107,None,fed,214.61607514799107,None,return,2.7741843670373783,214.69931823795196,None,,,,,,,33,001,2023_Feb_24_1140,SpeechDraft1Carolyn_lessNoise_PlusLocalization,2021.2.3,60.00965232218245,
cling.wav,cling.mpg,cling,4,A,Pink_Noise_4_1.wav,Pink_Noise_4_2.wav,,,,,,0,25,25,21,,,,,,,,,,,,,,,217.49932970292866,None,218.99920457392,None,220.36596105899662,None,cling,220.36596105899662,None,return,3.048186365980655,220.44934338796884,None,,,,,,,33,001,2023_Feb_24_1140,SpeechDraft1Carolyn_lessNoise_PlusLocalization,2021.2.3,60.00965232218245,
green.wav,green.mpg,green,1,A,Pink_Noise_1_1.wav,Pink_Noise_1_2.wav,,,,,,0,26,26,31,,,,,,,,,,,,,,,223.51601407397538,None,225.01577110495418,None,226.38269759994,None,"green
",226.38269759994,None,return,2.5513905549887568,226.46609554695897,None,,,,,,,33,001,2023_Feb_24_1140,SpeechDraft1Carolyn_lessNoise_PlusLocalization,2021.2.3,60.00965232218245,
beef.wav,beef.mpg,beef,1,AV,Pink_Noise_1_1.wav,Pink_Noise_1_2.wav,,,,,,0,27,27,116,,,,,,,,,,,,,,,229.04934651893564,None,230.55127063998953,None,231.93274114397354,None,beef,231.93274114397354,None,return,1.8973599409218878,232.01610940892715,None,,,,,,,33,001,2023_Feb_24_1140,SpeechDraft1Carolyn_lessNoise_PlusLocalization,2021.2.3,60.00965232218245,
dress.wav,dress.mpg,dress,1,AV,Pink_Noise_1_1.wav,Pink_Noise_1_2.wav,,,,,,0,28,28,107,,,,,,,,,,,,,,,233.93274849897716,None,235.43267197092064,None,236.8163337300066,None,dress,236.8163337300066,None,return,4.00621244602371,236.89938704995438,None,,,,,,,33,001,2023_Feb_24_1140,SpeechDraft1Carolyn_lessNoise_PlusLocalization,2021.2.3,60.00965232218245,
foil.wav,foil.mpg,foil,2,A,Pink_Noise_2_1.wav,Pink_Noise_2_2.wav,,,,,,0,29,29,26,,,,,,,,,,,,,,,240.9326332429191,None,242.43256661097985,None,243.81614405999426,None,foil,243.81614405999426,None,return,2.3900981759652495,243.89951979194302,None,,,,,,,33,001,2023_Feb_24_1140,SpeechDraft1Carolyn_lessNoise_PlusLocalization,2021.2.3,60.00965232218245,
layer.wav,layer.mpg,layer,3,A,Pink_Noise_3_1.wav,Pink_Noise_3_2.wav,,,,,,0,30,30,22,,,,,,,,,,,,,,,246.31619260192383,None,247.8159534150036,None,249.18276688701008,None,player,249.18276688701008,None,return,5.871544290916063,249.26605021301657,None,,,,,,,33,001,2023_Feb_24_1140,SpeechDraft1Carolyn_lessNoise_PlusLocalization,2021.2.3,60.00965232218245,
guide.wav,guide.mpg,guide,3,AV,Pink_Noise_3_1.wav,Pink_Noise_3_2.wav,,,,,,0,31,31,105,,,,,,,,,,,,,,,255.16605174692813,None,256.6517793609528,None,258.0327030279441,None,dried,258.0327030279441,None,return,6.693360910983756,258.1160948779434,None,,,,,,,33,001,2023_Feb_24_1140,SpeechDraft1Carolyn_lessNoise_PlusLocalization,2021.2.3,60.00965232218245,
fail.wav,fail.mpg,fail,6,AV,Pink_Noise_6_1.wav,Pink_Noise_6_2.wav,,,,,,0,32,32,72,,,,,,,,,,,,,,,264.83279605500866,None,266.3326099679107,None,267.71618003898766,None,fan,267.71618003898766,None,return,2.026072541018948,267.7993723619729,None,,,,,,,33,001,2023_Feb_24_1140,SpeechDraft1Carolyn_lessNoise_PlusLocalization,2021.2.3,60.00965232218245,
bare.wav,bare.mpg,bare,3,A,Pink_Noise_3_1.wav,Pink_Noise_3_2.wav,,,,,,0,33,33,50,,,,,,,,,,,,,,,269.84939178591594,None,271.3492811989272,None,272.7160655579064,None,bear,272.7160655579064,None,return,1.4901217229198664,272.79944546800107,None,,,,,,,33,001,2023_Feb_24_1140,SpeechDraft1Carolyn_lessNoise_PlusLocalization,2021.2.3,60.00965232218245,
bow.wav,bow.mpg,bow,4,AV,Pink_Noise_4_1.wav,Pink_Noise_4_2.wav,,,,,,0,34,34,69,,,,,,,,,,,,,,,274.3161033989163,None,275.8158719399944,None,277.1826842329465,None,npw,277.1826842329465,None,return,1.3274515699595213,277.26603388693184,None,,,,,,,33,001,2023_Feb_24_1140,SpeechDraft1Carolyn_lessNoise_PlusLocalization,2021.2.3,60.00965232218245,
bush.wav,bush.mpg,bush,5,A,Pink_Noise_5_1.wav,Pink_Noise_5_2.wav,,,,,,0,35,35,11,,,,,,,,,,,,,,,278.6160962249851,None,280.1159109469736,None,281.49950770591386,None,rush,281.49950770591386,None,return,3.52271202695556,281.58279184193816,None,,,,,,,33,001,2023_Feb_24_1140,SpeechDraft1Carolyn_lessNoise_PlusLocalization,2021.2.3,60.00965232218245,
chump.wav,chump.mpg,chump,1,A,Pink_Noise_1_1.wav,Pink_Noise_1_2.wav,,,,,,0,36,36,53,,,,,,,,,,,,,,,285.13274148793425,None,286.63254634896293,None,288.01611988490913,None,chunk,288.01611988490913,None,return,2.622121879016049,288.09945663495455,None,,,,,,,33,001,2023_Feb_24_1140,SpeechDraft1Carolyn_lessNoise_PlusLocalization,2021.2.3,60.00965232218245,
paid.wav,paid.mpg,paid,6,AV,Pink_Noise_6_1.wav,Pink_Noise_6_2.wav,,,,,,0,37,37,91,,,,,,,,,,,,,,,290.74946522701066,None,292.24936332693323,None,293.6327525349334,None,"pan
",293.6327525349334,None,return,2.0692364149726927,293.7162380289519,None,,,,,,,33,001,2023_Feb_24_1140,SpeechDraft1Carolyn_lessNoise_PlusLocalization,2021.2.3,60.00965232218245,
swamp.wav,swamp.mpg,swamp,1,AV,Pink_Noise_1_1.wav,Pink_Noise_1_2.wav,,,,,,0,38,38,96,,,,,,,,,,,,,,,295.8162598659983,None,297.3158278709743,None,298.699426837964,None,"swamp
",298.699426837964,None,return,3.202739850967191,298.78273487999104,None,,,,,,,33,001,2023_Feb_24_1140,SpeechDraft1Carolyn_lessNoise_PlusLocalization,2021.2.3,60.00965232218245,
crown.wav,crown.mpg,crown,2,A,Pink_Noise_2_1.wav,Pink_Noise_2_2.wav,,,,,,0,39,39,29,,,,,,,,,,,,,,,302.0161066869041,None,303.49992717197165,None,304.8828251939267,None,crowd,304.8828251939267,None,return,3.299405240919441,304.96615292399656,None,,,,,,,33,001,2023_Feb_24_1140,SpeechDraft1Carolyn_lessNoise_PlusLocalization,2021.2.3,60.00965232218245,
quest.wav,quest.mpg,quest,4,A,Pink_Noise_4_1.wav,Pink_Noise_4_2.wav,,,,,,0,40,40,24,,,,,,,,,,,,,,,308.2828095019795,None,309.7825662539108,None,311.1495292839827,None,"chest
",311.1495292839827,None,return,2.600694576976821,311.23277943895664,None,,,,,,,33,001,2023_Feb_24_1140,SpeechDraft1Carolyn_lessNoise_PlusLocalization,2021.2.3,60.00965232218245,
coup.wav,coup.mpg,coup,4,A,Pink_Noise_4_1.wav,Pink_Noise_4_2.wav,,,,,,0,41,41,9,,,,,,,,,,,,,,,313.8661915749544,None,315.36598478700034,None,316.74945811601356,None,teeth,316.74945811601356,None,return,2.504754875903018,316.8328053879086,None,,,,,,,33,001,2023_Feb_24_1140,SpeechDraft1Carolyn_lessNoise_PlusLocalization,2021.2.3,60.00965232218245,
thief.wav,thief.mpg,thief,1,A,Pink_Noise_1_1.wav,Pink_Noise_1_2.wav,,,,,,0,42,42,3,,,,,,,,,,,,,,,319.3660893179476,None,320.8659866149537,None,322.249530902016,None,theif,322.249530902016,None,return,2.2766562070464715,322.33278852596413,None,,,,,,,33,001,2023_Feb_24_1140,SpeechDraft1Carolyn_lessNoise_PlusLocalization,2021.2.3,60.00965232218245,
cry.wav,cry.mpg,cry,1,AV,Pink_Noise_1_1.wav,Pink_Noise_1_2.wav,,,,,,0,43,43,118,,,,,,,,,,,,,,,324.63281505799387,None,326.1326530749211,None,327.5161353049334,None,"cry
",327.5161353049334,None,return,1.4179997179890051,327.5994749600068,None,,,,,,,33,001,2023_Feb_24_1140,SpeechDraft1Carolyn_lessNoise_PlusLocalization,2021.2.3,60.00965232218245,
drive.wav,drive.mpg,drive,4,A,Pink_Noise_4_1.wav,Pink_Noise_4_2.wav,,,,,,0,44,44,17,,,,,,,,,,,,,,,329.04959313501604,None,330.5492705339566,None,331.91613491799217,None,dry,331.91613491799217,None,return,2.8100030559580773,331.99947535898536,None,,,,,,,33,001,2023_Feb_24_1140,SpeechDraft1Carolyn_lessNoise_PlusLocalization,2021.2.3,60.00965232218245,
dive.wav,dive.mpg,dive,3,A,Pink_Noise_3_1.wav,Pink_Noise_3_2.wav,,,,,,0,45,45,34,,,,,,,,,,,,,,,334.83286871691234,None,336.33279569400474,None,337.69950825197157,None,dive,337.69950825197157,None,return,1.9467120500048622,337.7828652119497,None,,,,,,,33,001,2023_Feb_24_1140,SpeechDraft1Carolyn_lessNoise_PlusLocalization,2021.2.3,60.00965232218245,
dense.wav,dense.mpg,dense,6,A,Pink_Noise_6_1.wav,Pink_Noise_6_2.wav,,,,,,0,46,46,54,,,,,,,,,,,,,,,339.7495391869452,None,341.24929880094714,None,342.61614828999154,None,?,342.61614828999154,None,return,3.6459299760172144,342.69953371793963,None,,,,,,,33,001,2023_Feb_24_1140,SpeechDraft1Carolyn_lessNoise_PlusLocalization,2021.2.3,60.00965232218245,
glue.wav,glue.mpg,glue,5,A,Pink_Noise_5_1.wav,Pink_Noise_5_2.wav,,,,,,0,47,47,10,,,,,,,,,,,,,,,346.36615484696813,None,347.865867882967,None,349.23290297796484,None,beam,349.23290297796484,None,return,4.373254320002161,349.3163035779726,None,,,,,,,33,001,2023_Feb_24_1140,SpeechDraft1Carolyn_lessNoise_PlusLocalization,2021.2.3,60.00965232218245,
glide.wav,glide.mpg,glide,3,AV,Pink_Noise_3_1.wav,Pink_Noise_3_2.wav,,,,,,0,48,48,97,,,,,,,,,,,,,,,353.71630505891517,None,355.21607588394545,None,356.599515107926,None,glide,356.599515107926,None,return,2.422792561003007,356.6828055049991,None,,,,,,,33,001,2023_Feb_24_1140,SpeechDraft1Carolyn_lessNoise_PlusLocalization,2021.2.3,60.00965232218245,
bell.wav,bell.mpg,bell,5,AV,Pink_Noise_5_1.wav,Pink_Noise_5_2.wav,,,,,,0,49,49,89,,,,,,,,,,,,,,,359.1329044610029,None,360.63296558498405,None,362.01627040596213,None,belt,362.01627040596213,None,return,1.7660121719818562,362.09953676199075,None,,,,,,,33,001,2023_Feb_24_1140,SpeechDraft1Carolyn_lessNoise_PlusLocalization,2021.2.3,60.00965232218245,
strike.wav,strike.mpg,strike,3,AV,Pink_Noise_3_1.wav,Pink_Noise_3_2.wav,,,,,,0,50,50,115,,,,,,,,,,,,,,,363.8829034549417,None,365.38259344396647,None,366.7662228239933,None,"strol
",366.7662228239933,None,return,1.9840123848989606,366.84948432201054,None,,,,,,,33,001,2023_Feb_24_1140,SpeechDraft1Carolyn_lessNoise_PlusLocalization,2021.2.3,60.00965232218245,
spire.wav,spire.mpg,spire,1,AV,Pink_Noise_1_1.wav,Pink_Noise_1_2.wav,,,,,,0,51,51,76,,,,,,,,,,,,,,,368.86620440799743,None,370.36612654000055,None,371.7328872169601,None,spire,371.7328872169601,None,return,2.3772433880949393,371.81621413491666,None,,,,,,,33,001,2023_Feb_24_1140,SpeechDraft1Carolyn_lessNoise_PlusLocalization,2021.2.3,60.00965232218245,
clot.wav,clot.mpg,clot,5,AV,Pink_Noise_5_1.wav,Pink_Noise_5_2.wav,,,,,,0,52,52,80,,,,,,,,,,,,,,,374.2162032329943,None,375.71613363397773,None,377.0995009120088,None,"light
",377.0995009120088,None,return,4.450550520909019,377.1829171219142,None,,,,,,,33,001,2023_Feb_24_1140,SpeechDraft1Carolyn_lessNoise_PlusLocalization,2021.2.3,60.00965232218245,
fool.wav,fool.mpg,fool,2,AV,Pink_Noise_2_1.wav,Pink_Noise_2_2.wav,,,,,,0,53,53,112,,,,,,,,,,,,,,,381.66624536993913,None,383.1659320809413,None,384.5495513009373,None,"fool
",384.5495513009373,None,return,2.1526454660343006,384.6328202309087,None,,,,,,,33,001,2023_Feb_24_1140,SpeechDraft1Carolyn_lessNoise_PlusLocalization,2021.2.3,60.00965232218245,
deck.wav,deck.mpg,deck,6,AV,Pink_Noise_6_1.wav,Pink_Noise_6_2.wav,,,,,,0,54,54,100,,,,,,,,,,,,,,,386.8162753669312,None,388.31605341797695,None,389.69953070092015,None,dent,389.69953070092015,None,return,1.8425357459345832,389.78294231393375,None,,,,,,,33,001,2023_Feb_24_1140,SpeechDraft1Carolyn_lessNoise_PlusLocalization,2021.2.3,60.00965232218245,
bless.wav,bless.mpg,bless,2,AV,Pink_Noise_2_1.wav,Pink_Noise_2_2.wav,,,,,,0,55,55,92,,,,,,,,,,,,,,,391.649576709955,None,393.14945053099655,None,394.53293304599356,None,bless,394.53293304599356,None,return,1.4492260379483923,394.61633371096104,None,,,,,,,33,001,2023_Feb_24_1140,SpeechDraft1Carolyn_lessNoise_PlusLocalization,2021.2.3,60.00965232218245,
ball.wav,ball.mpg,ball,3,AV,Pink_Noise_3_1.wav,Pink_Noise_3_2.wav,,,,,,0,56,56,99,,,,,,,,,,,,,,,396.082960546948,None,397.58286333596334,None,398.96617834595963,None,ball,398.96617834595963,None,return,1.5598294540541247,399.0496355659561,None,,,,,,,33,001,2023_Feb_24_1140,SpeechDraft1Carolyn_lessNoise_PlusLocalization,2021.2.3,60.00965232218245,
chord.wav,chord.mpg,chord,5,AV,Pink_Noise_5_1.wav,Pink_Noise_5_2.wav,,,,,,0,57,57,77,,,,,,,,,,,,,,,400.6329786159331,None,402.1328706149943,None,403.5163806809578,None,cord,403.5163806809578,None,return,1.3938143400009722,403.5996451509418,None,,,,,,,33,001,2023_Feb_24_1140,SpeechDraft1Carolyn_lessNoise_PlusLocalization,2021.2.3,60.00965232218245,
fence.wav,fence.mpg,fence,2,AV,Pink_Noise_2_1.wav,Pink_Noise_2_2.wav,,,,,,0,58,58,106,,,,,,,,,,,,,,,405.0162584889913,None,406.5011816850165,None,407.8829321289668,None,fence,407.8829321289668,None,return,3.9871793950442225,407.9662905279547,None,,,,,,,33,001,2023_Feb_24_1140,SpeechDraft1Carolyn_lessNoise_PlusLocalization,2021.2.3,60.00965232218245,
dig.wav,dig.mpg,dig,4,AV,Pink_Noise_4_1.wav,Pink_Noise_4_2.wav,,,,,,0,59,59,102,,,,,,,,,,,,,,,411.98291596001945,None,413.4993452099152,None,414.88295246101916,None,day,414.88295246101916,None,return,2.131162905949168,414.9663555499865,None,,,,,,,33,001,2023_Feb_24_1140,SpeechDraft1Carolyn_lessNoise_PlusLocalization,2021.2.3,60.00965232218245,
coat.wav,coat.mpg,coat,4,AV,Pink_Noise_4_1.wav,Pink_Noise_4_2.wav,,,,,,0,60,60,109,,,,,,,,,,,,,,,417.11626608890947,None,418.61613079195376,None,419.9995816289447,None,coat,419.9995816289447,None,return,1.7425292789703235,420.08295941899996,None,,,,,,,33,001,2023_Feb_24_1140,SpeechDraft1Carolyn_lessNoise_PlusLocalization,2021.2.3,60.00965232218245,
due.wav,due.mpg,due,1,AV,Pink_Noise_1_1.wav,Pink_Noise_1_2.wav,,,,,,0,61,61,82,,,,,,,,,,,,,,,421.8497004569508,None,423.3493340589339,None,424.7330028460128,None,do,424.7330028460128,None,return,1.13717273902148,424.8163079919759,None,,,,,,,33,001,2023_Feb_24_1140,SpeechDraft1Carolyn_lessNoise_PlusLocalization,2021.2.3,60.00965232218245,
crawl.wav,crawl.mpg,crawl,3,AV,Pink_Noise_3_1.wav,Pink_Noise_3_2.wav,,,,,,0,62,62,95,,,,,,,,,,,,,,,425.9829352919478,None,427.4828268439742,None,428.86627128894906,None,call,428.86627128894906,None,return,3.90783008094877,428.9496302329935,None,,,,,,,33,001,2023_Feb_24_1140,SpeechDraft1Carolyn_lessNoise_PlusLocalization,2021.2.3,60.00965232218245,
bias.wav,bias.mpg,bias,6,A,Pink_Noise_6_1.wav,Pink_Noise_6_2.wav,,,,,,0,63,63,42,,,,,,,,,,,,,,,432.8830008190125,None,434.38271567597985,None,435.7496384429978,None,mouse,435.7496384429978,None,return,1.8564664189470932,435.83308387198485,None,,,,,,,33,001,2023_Feb_24_1140,SpeechDraft1Carolyn_lessNoise_PlusLocalization,2021.2.3,60.00965232218245,
chick.wav,chick.mpg,chick,6,AV,Pink_Noise_6_1.wav,Pink_Noise_6_2.wav,,,,,,0,64,64,83,,,,,,,,,,,,,,,437.7163075779099,None,439.2163144230144,None,440.5995097499108,None,chase,440.5995097499108,None,return,1.8385833960492164,440.68299478292465,None,,,,,,,33,001,2023_Feb_24_1140,SpeechDraft1Carolyn_lessNoise_PlusLocalization,2021.2.3,60.00965232218245,
bed.wav,bed.mpg,bed,6,A,Pink_Noise_6_1.wav,Pink_Noise_6_2.wav,,,,,,0,65,65,35,,,,,,,,,,,,,,,442.54975130490493,None,444.049465656979,None,445.43305855896324,None,day,445.43305855896324,None,return,1.7410686530638486,445.5163942379877,None,,,,,,,33,001,2023_Feb_24_1140,SpeechDraft1Carolyn_lessNoise_PlusLocalization,2021.2.3,60.00965232218245,
bride.wav,bride.mpg,bride,6,A,Pink_Noise_6_1.wav,Pink_Noise_6_2.wav,,,,,,0,66,66,5,,,,,,,,,,,,,,,447.28294156491756,None,448.7827820099192,None,450.1662755010184,None,drive,450.1662755010184,None,return,1.6075972660910338,450.24986259895377,None,,,,,,,33,001,2023_Feb_24_1140,SpeechDraft1Carolyn_lessNoise_PlusLocalization,2021.2.3,60.00965232218245,
grace.wav,grace.mpg,grace,4,AV,Pink_Noise_4_1.wav,Pink_Noise_4_2.wav,,,,,,0,67,67,68,,,,,,,,,,,,,,,451.8830139149213,None,453.38274411298335,None,454.76630518899765,None,grace,454.76630518899765,None,return,1.399768918985501,454.84976442798506,None,,,,,,,33,001,2023_Feb_24_1140,SpeechDraft1Carolyn_lessNoise_PlusLocalization,2021.2.3,60.00965232218245,
drink.wav,drink.mpg,drink,1,AV,Pink_Noise_1_1.wav,Pink_Noise_1_2.wav,,,,,,0,68,68,113,,,,,,,,,,,,,,,456.26627241796814,None,457.766245498904,None,459.13294705795124,None,"drink
",459.13294705795124,None,return,1.3531523200217634,459.2163389639463,None,,,,,,,33,001,2023_Feb_24_1140,SpeechDraft1Carolyn_lessNoise_PlusLocalization,2021.2.3,60.00965232218245,
eye.wav,eye.mpg,eye,3,A,Pink_Noise_3_1.wav,Pink_Noise_3_2.wav,,,,,,0,69,69,51,,,,,,,,,,,,,,,460.59965206694324,None,462.0994588480098,None,463.48307722597383,None,eye,463.48307722597383,None,return,1.0991866729455069,463.56632769294083,None,,,,,,,33,001,2023_Feb_24_1140,SpeechDraft1Carolyn_lessNoise_PlusLocalization,2021.2.3,60.00965232218245,
club.wav,club.mpg,club,2,A,Pink_Noise_2_1.wav,Pink_Noise_2_2.wav,,,,,,0,70,70,45,,,,,,,,,,,,,,,464.68300167191774,None,466.18273972091265,None,467.5663521819515,None,club,467.5663521819515,None,return,1.7998725600773469,467.6496397139272,None,,,,,,,33,001,2023_Feb_24_1140,SpeechDraft1Carolyn_lessNoise_PlusLocalization,2021.2.3,60.00965232218245,
choir.wav,choir.mpg,choir,2,A,Pink_Noise_2_1.wav,Pink_Noise_2_2.wav,,,,,,0,71,71,38,,,,,,,,,,,,,,,469.46631138096564,None,470.9661862339126,None,472.3497122559929,None,quail,472.3497122559929,None,return,2.8565074959769845,472.4330336470157,None,,,,,,,33,001,2023_Feb_24_1140,SpeechDraft1Carolyn_lessNoise_PlusLocalization,2021.2.3,60.00965232218245,
brown.wav,brown.mpg,brown,2,A,Pink_Noise_2_1.wav,Pink_Noise_2_2.wav,,,,,,0,72,72,41,,,,,,,,,,,,,,,475.3164076579269,None,476.81638200499583,None,478.1997358369408,None,brpwn,478.1997358369408,None,return,1.766496949014254,478.28304008801933,None,,,,,,,33,001,2023_Feb_24_1140,SpeechDraft1Carolyn_lessNoise_PlusLocalization,2021.2.3,60.00965232218245,
earth.wav,earth.mpg,earth,5,AV,Pink_Noise_5_1.wav,Pink_Noise_5_2.wav,,,,,,0,73,73,104,,,,,,,,,,,,,,,480.0665728999302,None,481.5662306449376,None,482.9496521259425,None,girl,482.9496521259425,None,return,5.360373650910333,483.0330937509425,None,,,,,,,33,001,2023_Feb_24_1140,SpeechDraft1Carolyn_lessNoise_PlusLocalization,2021.2.3,60.00965232218245,
grip.wav,grip.mpg,grip,6,A,Pink_Noise_6_1.wav,Pink_Noise_6_2.wav,,,,,,0,74,74,28,,,,,,,,,,,,,,,488.4163248639088,None,489.91618168191053,None,491.29975390294567,None,rain,491.29975390294567,None,return,2.1624747910536826,491.3830078999745,None,,,,,,,33,001,2023_Feb_24_1140,SpeechDraft1Carolyn_lessNoise_PlusLocalization,2021.2.3,60.00965232218245,
gulf.wav,gulf.mpg,gulf,1,AV,Pink_Noise_1_1.wav,Pink_Noise_1_2.wav,,,,,,0,75,75,74,,,,,,,,,,,,,,,493.56634554697666,None,495.0661770720035,None,496.43294644891284,None,go;f,496.43294644891284,None,return,4.861100321053527,496.5164002669044,None,,,,,,,33,001,2023_Feb_24_1140,SpeechDraft1Carolyn_lessNoise_PlusLocalization,2021.2.3,60.00965232218245,
coal.wav,coal.mpg,coal,5,A,Pink_Noise_5_1.wav,Pink_Noise_5_2.wav,,,,,,0,76,76,18,,,,,,,,,,,,,,,501.39965603500605,None,502.89955820690375,None,504.28302828699816,None,hammer,504.28302828699816,None,return,2.0430403139907867,504.3664520389866,None,,,,,,,33,001,2023_Feb_24_1140,SpeechDraft1Carolyn_lessNoise_PlusLocalization,2021.2.3,60.00965232218245,
wound.wav,wound.mpg,wound,1,A,Pink_Noise_1_1.wav,Pink_Noise_1_2.wav,,,,,,0,77,77,44,,,,,,,,,,,,,,,506.4330413879361,None,507.9328611450037,None,509.3163575559156,None,wound,509.3163575559156,None,return,1.4097777310525998,509.39970164897386,None,,,,,,,33,001,2023_Feb_24_1140,SpeechDraft1Carolyn_lessNoise_PlusLocalization,2021.2.3,60.00965232218245,
goat.wav,goat.mpg,goat,4,AV,Pink_Noise_4_1.wav,Pink_Noise_4_2.wav,,,,,,0,78,78,67,,,,,,,,,,,,,,,510.8330885840114,None,512.3330595259322,None,513.7163055189885,None,goat,513.7163055189885,None,return,1.953579637920484,513.7999067079509,None,,,,,,,33,001,2023_Feb_24_1140,SpeechDraft1Carolyn_lessNoise_PlusLocalization,2021.2.3,60.00965232218245,
clown.wav,clown.mpg,clown,2,AV,Pink_Noise_2_1.wav,Pink_Noise_2_2.wav,,,,,,0,79,79,62,,,,,,,,,,,,,,,515.7831202499801,None,517.2828456219286,None,518.6663809139282,None,cloud,518.6663809139282,None,return,1.7157465670024976,518.7497934509302,None,,,,,,,33,001,2023_Feb_24_1140,SpeechDraft1Carolyn_lessNoise_PlusLocalization,2021.2.3,60.00965232218245,
date.wav,date.mpg,date,4,AV,Pink_Noise_4_1.wav,Pink_Noise_4_2.wav,,,,,,0,80,80,61,,,,,,,,,,,,,,,520.4831311960006,None,521.9828452599468,None,523.3663839009823,None,day,523.3663839009823,None,return,3.703581412904896,523.4498818159336,None,,,,,,,33,001,2023_Feb_24_1140,SpeechDraft1Carolyn_lessNoise_PlusLocalization,2021.2.3,60.00965232218245,
four.wav,four.mpg,four,3,A,Pink_Noise_3_1.wav,Pink_Noise_3_2.wav,,,,,,0,81,81,8,,,,,,,,,,,,,,,527.1831176559208,None,528.6828778849449,None,530.0665675139753,None,oar,530.0665675139753,None,return,1.6035938890418038,530.149870519992,None,,,,,,,33,001,2023_Feb_24_1140,SpeechDraft1Carolyn_lessNoise_PlusLocalization,2021.2.3,60.00965232218245,
brand.wav,brand.mpg,brand,5,AV,Pink_Noise_5_1.wav,Pink_Noise_5_2.wav,,,,,,0,82,82,81,,,,,,,,,,,,,,,531.783112747944,None,533.2995345779927,None,534.6664317409741,None,branch,534.6664317409741,None,return,1.4277059260057285,534.7497817130061,None,,,,,,,33,001,2023_Feb_24_1140,SpeechDraft1Carolyn_lessNoise_PlusLocalization,2021.2.3,60.00965232218245,
grand.wav,grand.mpg,grand,3,A,Pink_Noise_3_1.wav,Pink_Noise_3_2.wav,,,,,,0,83,83,27,,,,,,,,,,,,,,,536.1999196369434,None,537.6996179599082,None,539.0831078540068,None,grand,539.0831078540068,None,return,4.690905362018384,539.166556008975,None,,,,,,,33,001,2023_Feb_24_1140,SpeechDraft1Carolyn_lessNoise_PlusLocalization,2021.2.3,60.00965232218245,
fish.wav,fish.mpg,fish,2,AV,Pink_Noise_2_1.wav,Pink_Noise_2_2.wav,,,,,,0,84,84,75,,,,,,,,,,,,,,,543.8830984039232,None,545.3829527689377,None,546.7664106249576,None,fish,546.7664106249576,None,return,3.2956255009630695,546.8498281720094,None,,,,,,,33,001,2023_Feb_24_1140,SpeechDraft1Carolyn_lessNoise_PlusLocalization,2021.2.3,60.00965232218245,
fast.wav,fast.mpg,fast,1,A,Pink_Noise_1_1.wav,Pink_Noise_1_2.wav,,,,,,0,85,85,55,,,,,,,,,,,,,,,550.1664555319585,None,551.6662868229905,None,553.0497567669954,None,fast,553.0497567669954,None,return,1.4123800760135055,553.1331285049673,None,,,,,,,33,001,2023_Feb_24_1140,SpeechDraft1Carolyn_lessNoise_PlusLocalization,2021.2.3,60.00965232218245,
chill.wav,chill.mpg,chill,5,AV,Pink_Noise_5_1.wav,Pink_Noise_5_2.wav,,,,,,0,86,86,119,,,,,,,,,,,,,,,554.5663954910124,None,556.0664115559775,None,557.4499093949562,None,"chill
",557.4499093949562,None,return,1.836327599012293,557.5331474009436,None,,,,,,,33,001,2023_Feb_24_1140,SpeechDraft1Carolyn_lessNoise_PlusLocalization,2021.2.3,60.00965232218245,
sun.wav,sun.mpg,sun,2,A,Pink_Noise_2_1.wav,Pink_Noise_2_2.wav,,,,,,0,87,87,20,,,,,,,,,,,,,,,559.3998319199309,None,560.8995313479099,None,562.283137670951,None,silence,562.283137670951,None,return,3.314892180962488,562.3666697439039,None,,,,,,,33,001,2023_Feb_24_1140,SpeechDraft1Carolyn_lessNoise_PlusLocalization,2021.2.3,60.00965232218245,
ear.wav,ear.mpg,ear,3,A,Pink_Noise_3_1.wav,Pink_Noise_3_2.wav,,,,,,0,88,88,12,,,,,,,,,,,,,,,565.6997858899413,None,567.1996000629151,None,568.5831967189442,None,ear,568.5831967189442,None,return,3.590949604054913,568.6665107830195,None,,,,,,,33,001,2023_Feb_24_1140,SpeechDraft1Carolyn_lessNoise_PlusLocalization,2021.2.3,60.00965232218245,
build.wav,build.mpg,build,5,A,Pink_Noise_5_1.wav,Pink_Noise_5_2.wav,,,,,,0,89,89,7,,,,,,,,,,,,,,,572.2831691079773,None,573.7830163049512,None,575.1665184069425,None,door,575.1665184069425,None,return,10.655721851973794,575.2498699919088,None,,,,,,,33,001,2023_Feb_24_1140,SpeechDraft1Carolyn_lessNoise_PlusLocalization,2021.2.3,60.00965232218245,
fruit.wav,fruit.mpg,fruit,5,A,Pink_Noise_5_1.wav,Pink_Noise_5_2.wav,,,,,,0,90,90,49,,,,,,,,,,,,,,,585.9332158229081,None,587.4342599349329,None,588.8165660309605,None,feet,588.8165660309605,None,return,1.3095756949624047,588.899913001922,None,,,,,,,33,001,2023_Feb_24_1140,SpeechDraft1Carolyn_lessNoise_PlusLocalization,2021.2.3,60.00965232218245,
cheat.wav,cheat.mpg,cheat,4,A,Pink_Noise_4_1.wav,Pink_Noise_4_2.wav,,,,,,0,91,91,2,,,,,,,,,,,,,,,590.2332658339292,None,591.7329495209269,None,593.1166277369484,None,cheat,593.1166277369484,None,return,1.8575275340117514,593.1999584509758,None,,,,,,,33,001,2023_Feb_24_1140,SpeechDraft1Carolyn_lessNoise_PlusLocalization,2021.2.3,60.00965232218245,
fake.wav,fake.mpg,fake,2,A,Pink_Noise_2_1.wav,Pink_Noise_2_2.wav,,,,,,0,92,92,30,,,,,,,,,,,,,,,595.0832291509723,None,596.59965619992,None,597.9832445279462,None,"fake
",597.9832445279462,None,return,0.7188221819233149,598.0666488119168,None,,,,,,,33,001,2023_Feb_24_1140,SpeechDraft1Carolyn_lessNoise_PlusLocalization,2021.2.3,60.00965232218245,
boss.wav,boss.mpg,boss,4,AV,Pink_Noise_4_1.wav,Pink_Noise_4_2.wav,,,,,,0,93,93,73,,,,,,,,,,,,,,,598.8165329860058,None,600.3161850109464,None,601.6998267769814,None,boss,601.6998267769814,None,return,1.194117728038691,601.7833429799648,None,,,,,,,33,001,2023_Feb_24_1140,SpeechDraft1Carolyn_lessNoise_PlusLocalization,2021.2.3,60.00965232218245,
care.wav,care.mpg,care,2,AV,Pink_Noise_2_1.wav,Pink_Noise_2_2.wav,,,,,,0,94,94,90,,,,,,,,,,,,,,,602.9998485560063,None,604.4999551729998,None,605.8833448080113,None,care,605.8833448080113,None,return,0.7789656369714066,605.9665235609282,None,,,,,,,33,001,2023_Feb_24_1140,SpeechDraft1Carolyn_lessNoise_PlusLocalization,2021.2.3,60.00965232218245,
roar.wav,roar.mpg,roar,4,A,Pink_Noise_4_1.wav,Pink_Noise_4_2.wav,,,,,,0,95,95,19,,,,,,,,,,,,,,,606.7665173489368,None,608.2663473630091,None,609.6332222740166,None,drawer,609.6332222740166,None,return,2.1730265230871737,609.716639112914,None,,,,,,,33,001,2023_Feb_24_1140,SpeechDraft1Carolyn_lessNoise_PlusLocalization,2021.2.3,60.00965232218245,
gag.wav,gag.mpg,gag,1,A,Pink_Noise_1_1.wav,Pink_Noise_1_2.wav,,,,,,0,96,96,1,,,,,,,,,,,,,,,611.9165256669512,None,613.4164082299685,None,614.7832835379522,None,gag,614.7832835379522,None,return,2.110912356991321,614.8665718549164,None,,,,,,,33,001,2023_Feb_24_1140,SpeechDraft1Carolyn_lessNoise_PlusLocalization,2021.2.3,60.00965232218245,
drill.wav,drill.mpg,drill,6,AV,Pink_Noise_6_1.wav,Pink_Noise_6_2.wav,,,,,,0,97,97,117,,,,,,,,,,,,,,,616.9998998849187,None,618.5163664689753,None,619.8831874569878,None,drink,619.8831874569878,None,return,2.123029028996825,619.9665304959053,None,,,,,,,33,001,2023_Feb_24_1140,SpeechDraft1Carolyn_lessNoise_PlusLocalization,2021.2.3,60.00965232218245,
bib.wav,bib.mpg,bib,1,AV,Pink_Noise_1_1.wav,Pink_Noise_1_2.wav,,,,,,0,98,98,87,,,,,,,,,,,,,,,622.1166140849236,None,623.6163385659456,None,624.9999013959896,None,bib,624.9999013959896,None,return,0.6782170950900763,625.08325844293,None,,,,,,,33,001,2023_Feb_24_1140,SpeechDraft1Carolyn_lessNoise_PlusLocalization,2021.2.3,60.00965232218245,
clip.wav,clip.mpg,clip,1,AV,Pink_Noise_1_1.wav,Pink_Noise_1_2.wav,,,,,,0,99,99,98,,,,,,,,,,,,,,,625.7833109470084,None,627.299833972007,None,628.683298921911,None,clip,628.683298921911,None,return,1.226791344000958,628.7666556899203,None,,,,,,,33,001,2023_Feb_24_1140,SpeechDraft1Carolyn_lessNoise_PlusLocalization,2021.2.3,60.00965232218245,
curl.wav,curl.mpg,curl,5,A,Pink_Noise_5_1.wav,Pink_Noise_5_2.wav,,,,,,0,100,100,14,,,,,,,,,,,,,,,630.0165824589785,None,631.5163523249794,None,632.8999646129087,None,gurl,632.8999646129087,None,return,9.31364344805479,632.9999368219869,None,,,,,,,33,001,2023_Feb_24_1140,SpeechDraft1Carolyn_lessNoise_PlusLocalization,2021.2.3,60.00965232218245,
quit.wav,quit.mpg,quit,2,AV,Pink_Noise_2_1.wav,Pink_Noise_2_2.wav,,,,,,0,101,101,85,,,,,,,,,,,,,,,642.3333274979377,None,643.8497789049288,None,645.2165016639046,None,quit,645.2165016639046,None,return,7.989775569061749,645.2998831029981,None,,,,,,,33,001,2023_Feb_24_1140,SpeechDraft1Carolyn_lessNoise_PlusLocalization,2021.2.3,60.00965232218245,
bug.wav,bug.mpg,bug,6,AV,Pink_Noise_6_1.wav,Pink_Noise_6_2.wav,,,,,,0,102,102,60,,,,,,,,,,,,,,,653.3165771949571,None,654.8162611419102,None,656.2000125979539,None,"bug
",656.2000125979539,None,return,1.7341743039432913,656.2832971059252,None,,,,,,,33,001,2023_Feb_24_1140,SpeechDraft1Carolyn_lessNoise_PlusLocalization,2021.2.3,60.00965232218245,
bold.wav,bold.mpg,bold,5,AV,Pink_Noise_5_1.wav,Pink_Noise_5_2.wav,,,,,,0,103,103,108,,,,,,,,,,,,,,,658.0499147019582,None,659.5664845869178,None,660.9498395730043,None,ball,660.9498395730043,None,return,0.8563411890063435,661.0332493779715,None,,,,,,,33,001,2023_Feb_24_1140,SpeechDraft1Carolyn_lessNoise_PlusLocalization,2021.2.3,60.00965232218245,
duct.wav,duct.mpg,duct,6,AV,Pink_Noise_6_1.wav,Pink_Noise_6_2.wav,,,,,,0,104,104,64,,,,,,,,,,,,,,,661.9166465559974,None,663.4177411809796,None,664.7998677389696,None,duch,664.7998677389696,None,return,1.5821944029303268,664.8833437249996,None,,,,,,,33,001,2023_Feb_24_1140,SpeechDraft1Carolyn_lessNoise_PlusLocalization,2021.2.3,60.00965232218245,
clock.wav,clock.mpg,clock,6,A,Pink_Noise_6_1.wav,Pink_Noise_6_2.wav,,,,,,0,105,105,59,,,,,,,,,,,,,,,666.483310222975,None,667.9832893320126,None,669.3668417799054,None,duck,669.3668417799054,None,return,1.1753189370501786,669.450149163953,None,,,,,,,33,001,2023_Feb_24_1140,SpeechDraft1Carolyn_lessNoise_PlusLocalization,2021.2.3,60.00965232218245,
ton.wav,ton.mpg,ton,3,AV,Pink_Noise_3_1.wav,Pink_Noise_3_2.wav,,,,,,0,106,106,71,,,,,,,,,,,,,,,670.6500205619959,None,672.1664754130179,None,673.5499268769054,None,tug,673.5499268769054,None,return,1.9440788060892373,673.633407301968,None,,,,,,,33,001,2023_Feb_24_1140,SpeechDraft1Carolyn_lessNoise_PlusLocalization,2021.2.3,60.00965232218245,
boot.wav,boot.mpg,boot,3,AV,Pink_Noise_3_1.wav,Pink_Noise_3_2.wav,,,,,,0,107,107,101,,,,,,,,,,,,,,,675.5999636569759,None,677.0997729569208,None,678.4832573279273,None,boot,678.4832573279273,None,return,2.1788259010063484,678.5666454419261,None,,,,,,,33,001,2023_Feb_24_1140,SpeechDraft1Carolyn_lessNoise_PlusLocalization,2021.2.3,60.00965232218245,
cloak.wav,cloak.mpg,cloak,5,AV,Pink_Noise_5_1.wav,Pink_Noise_5_2.wav,,,,,,0,108,108,114,,,,,,,,,,,,,,,680.7667385229142,None,682.2997940729838,None,683.6835153939901,None,"cloack
",683.6835153939901,None,return,1.3868175219977275,683.7666553949239,None,,,,,,,33,001,2023_Feb_24_1140,SpeechDraft1Carolyn_lessNoise_PlusLocalization,2021.2.3,60.00965232218245,
crane.wav,crane.mpg,crane,4,A,Pink_Noise_4_1.wav,Pink_Noise_4_2.wav,,,,,,0,109,109,0,,,,,,,,,,,,,,,685.1833712459775,None,686.6836839210009,None,688.066684135003,None,"crane
",688.066684135003,None,return,2.035474331001751,688.1500009039883,None,,,,,,,33,001,2023_Feb_24_1140,SpeechDraft1Carolyn_lessNoise_PlusLocalization,2021.2.3,60.00965232218245,
gloom.wav,gloom.mpg,gloom,2,AV,Pink_Noise_2_1.wav,Pink_Noise_2_2.wav,,,,,,0,110,110,88,,,,,,,,,,,,,,,690.2166990009136,None,691.749893235974,None,693.1166985660093,None,"glue
",693.1166985660093,None,return,0.617465625051409,693.2000069139758,None,,,,,,,33,001,2023_Feb_24_1140,SpeechDraft1Carolyn_lessNoise_PlusLocalization,2021.2.3,60.00965232218245,
tank.wav,tank.mpg,tank,4,AV,Pink_Noise_4_1.wav,Pink_Noise_4_2.wav,,,,,,0,111,111,84,,,,,,,,,,,,,,,693.850005770917,None,695.3496943369973,None,696.7334139309824,None,yank,696.7334139309824,None,return,1.3208493280690163,696.8166256569093,None,,,,,,,33,001,2023_Feb_24_1140,SpeechDraft1Carolyn_lessNoise_PlusLocalization,2021.2.3,60.00965232218245,
fit.wav,fit.mpg,fit,5,A,Pink_Noise_5_1.wav,Pink_Noise_5_2.wav,,,,,,0,112,112,4,,,,,,,,,,,,,,,698.1667290990008,None,699.666490233969,None,701.0499934419058,None,fish,701.0499934419058,None,return,1.4041070819366723,701.1333534319419,None,,,,,,,33,001,2023_Feb_24_1140,SpeechDraft1Carolyn_lessNoise_PlusLocalization,2021.2.3,60.00965232218245,
beg.wav,beg.mpg,beg,2,AV,Pink_Noise_2_1.wav,Pink_Noise_2_2.wav,,,,,,0,113,113,66,,,,,,,,,,,,,,,702.5667925509624,None,704.0663937289501,None,705.450132924947,None,"beg
",705.450132924947,None,return,1.0199718729127198,705.5335052489536,None,,,,,,,33,001,2023_Feb_24_1140,SpeechDraft1Carolyn_lessNoise_PlusLocalization,2021.2.3,60.00965232218245,
bowl.wav,bowl.mpg,bowl,2,A,Pink_Noise_2_1.wav,Pink_Noise_2_2.wav,,,,,,0,114,114,43,,,,,,,,,,,,,,,706.5834730709903,None,708.0832739589969,None,709.466705470928,None,"ball
",709.466705470928,None,return,4.4353645499795675,709.550117812003,None,,,,,,,33,001,2023_Feb_24_1140,SpeechDraft1Carolyn_lessNoise_PlusLocalization,2021.2.3,60.00965232218245,
boat.wav,boat.mpg,boat,5,A,Pink_Noise_5_1.wav,Pink_Noise_5_2.wav,,,,,,0,115,115,47,,,,,,,,,,,,,,,714.0166701920098,None,715.5164659069851,None,716.8999569589505,None,"boat
",716.8999569589505,None,return,1.6179739159997553,716.9835019379389,None,,,,,,,33,001,2023_Feb_24_1140,SpeechDraft1Carolyn_lessNoise_PlusLocalization,2021.2.3,60.00965232218245,
clean.wav,clean.mpg,clean,1,A,Pink_Noise_1_1.wav,Pink_Noise_1_2.wav,,,,,,0,116,116,57,,,,,,,,,,,,,,,718.6333567579277,None,720.1665822699433,None,721.533406436909,None,clean,721.533406436909,None,return,3.42475796607323,721.6167030859506,None,,,,,,,33,001,2023_Feb_24_1140,SpeechDraft1Carolyn_lessNoise_PlusLocalization,2021.2.3,60.00965232218245,
broom.wav,broom.mpg,broom,3,A,Pink_Noise_3_1.wav,Pink_Noise_3_2.wav,,,,,,0,117,117,58,,,,,,,,,,,,,,,725.0668075839058,None,726.5832982689608,None,727.9666992789134,None,broom,727.9666992789134,None,return,1.6235026100184768,728.050050081918,None,,,,,,,33,001,2023_Feb_24_1140,SpeechDraft1Carolyn_lessNoise_PlusLocalization,2021.2.3,60.00965232218245,
shed.wav,shed.mpg,shed,3,AV,Pink_Noise_3_1.wav,Pink_Noise_3_2.wav,,,,,,0,118,118,111,,,,,,,,,,,,,,,729.7000602259068,None,731.1999100589892,None,732.5833690869622,None,bhed,732.5833690869622,None,return,2.7908854589331895,732.6667357559782,None,,,,,,,33,001,2023_Feb_24_1140,SpeechDraft1Carolyn_lessNoise_PlusLocalization,2021.2.3,60.00965232218245,
fly.wav,fly.mpg,fly,1,A,Pink_Noise_1_1.wav,Pink_Noise_1_2.wav,,,,,,0,119,119,23,,,,,,,,,,,,,,,735.4834083289606,None,736.9832905739313,None,738.3667437349213,None,"fly
",738.3667437349213,None,return,1.7513383439509198,738.4501241849503,None,,,,,,,33,001,2023_Feb_24_1140,SpeechDraft1Carolyn_lessNoise_PlusLocalization,2021.2.3,60.00965232218245,
