Audio_Only_Files,Video_Files,Original_Word_List,noiseLevelCode,conditionCodes,noiseLevelFile1,noiseLevelFile2,InstrTextVar,targetSpeakerName,targetSpeakerEccen,targetSpkrChannel,targetSpkrSound,targetVisualDegrees,visStimLoc,visStimLoc2,visStimW,visStimH,practiceTrials.thisRepN,practiceTrials.thisTrialN,practiceTrials.thisN,practiceTrials.thisIndex,trials.thisRepN,trials.thisTrialN,trials.thisN,trials.thisIndex,audLocalLoop.thisRepN,audLocalLoop.thisTrialN,audLocalLoop.thisN,audLocalLoop.thisIndex,visualLocalLoop.thisRepN,visualLocalLoop.thisTrialN,visualLocalLoop.thisN,visualLocalLoop.thisIndex,letsGoAlready.keys,letsGoAlready.rt,letsGoAlready.started,letsGoAlready.stopped,text_2.started,text_2.stopped,text_3.started,text_3.stopped,key_resp_2.keys,key_resp_2.rt,key_resp_2.started,key_resp_2.stopped,text_5.started,text_5.stopped,fixCross.started,fixCross.stopped,fixCross2.started,fixCross2.stopped,answerPrompt.started,answerPrompt.stopped,getAnswer.text,getAnswer.started,getAnswer.stopped,goToNext.keys,goToNext.rt,goToNext.started,goToNext.stopped,stretchBreakTxrt.started,stretchBreakTxrt.stopped,key_resp_3.keys,key_resp_3.rt,key_resp_3.started,key_resp_3.stopped,letsGoLocal.keys,letsGoLocal.rt,letsGoLocal.started,letsGoLocal.stopped,text_4.started,text_4.stopped,prepFixTxt.started,prepFixTxt.stopped,prepFixTxt_2.started,prepFixTxt_2.stopped,respPromptLocal.started,respPromptLocal.stopped,slider.response,slider.rt,slider.started,slider.stopped,letsGoLocal_2.keys,letsGoLocal_2.rt,letsGoLocal_2.started,letsGoLocal_2.stopped,text_7.started,text_7.stopped,prepFixTxt_3.started,prepFixTxt_3.stopped,grating.started,grating.stopped,exitTxt.started,exitTxt.stopped,key_resp.keys,key_resp.rt,key_resp.started,key_resp.stopped,participant,session,date,expName,psychopyVersion,frameRate,
,,,,,,,,,,,,,,,,,,,,,,,,,,,,,,,,,space,3.7268966319970787,11.990333189023659,None,,,,,,,,,,,,,,,,,,,,,,,,,,,,,,,,,,,,,,,,,,,,,,,,,,,,,,,,,,,,,,37,001,2023_Feb_28_1140,SpeechDraft1Carolyn_lessNoise_PlusLocalization,2021.2.3,59.99760414262095,
,,,,,,,,,,,,,,,,,,,,,,,,,,,,,,,,,,,,,11.990333189023659,None,15.739773561013862,None,space,1.066134450957179,15.923026895034127,None,,,,,,,,,,,,,,,,,,,,,,,,,,,,,,,,,,,,,,,,,,,,,,,,,,,,,,37,001,2023_Feb_28_1140,SpeechDraft1Carolyn_lessNoise_PlusLocalization,2021.2.3,59.99760414262095,
ash.wav,ash.mpg,ash,1,A,Pink_Noise_1_1.wav,Pink_Noise_1_2.wav,"This is an example of an

AUDIO trial",,,,,,,,,,0,0,0,0,,,,,,,,,,,,,,,,,,,,,,,,,17.03916286805179,None,18.02303825400304,None,23.156214916030876,None,24.524879632983357,None,ash,24.524879632983357,None,return,5.814952298998833,24.606288837036118,None,,,,,,,,,,,,,,,,,,,,,,,,,,,,,,,,,,,,,,,37,001,2023_Feb_28_1140,SpeechDraft1Carolyn_lessNoise_PlusLocalization,2021.2.3,59.99760414262095,
ash.wav,ash.mpg,ash,1,AV,Pink_Noise_1_1.wav,Pink_Noise_1_2.wav,"This is an example of an

AUDIO + VIDEO  trial",,,,,,,,,,0,1,1,1,,,,,,,,,,,,,,,,,,,,,,,,,30.455685563967563,None,31.456102914060466,None,32.939462847076356,None,34.32294004398864,None,"ash
",34.32294004398864,None,return,3.1670945739606395,34.4060869050445,None,,,,,,,,,,,,,,,,,,,,,,,,,,,,,,,,,,,,,,,37,001,2023_Feb_28_1140,SpeechDraft1Carolyn_lessNoise_PlusLocalization,2021.2.3,59.99760414262095,
,,,,,,,,,,,,,,,,,,,,,,,,,,,,,,,,,,,,,,,,,,,,,,,,,,,,,,,,,,,,37.62247907102574,None,space,15.103022143943235,37.806218886049464,None,,,,,,,,,,,,,,,,,,,,,,,,,,,,,,,,,37,001,2023_Feb_28_1140,SpeechDraft1Carolyn_lessNoise_PlusLocalization,2021.2.3,59.99760414262095,
broom.wav,broom.mpg,broom,3,A,Pink_Noise_3_1.wav,Pink_Noise_3_2.wav,,,,,,,,,,,,,,,0,0,0,31,,,,,,,,,,,,,,,,,,,,,,,52.97267023904715,None,54.45591888204217,None,55.82301298005041,None,"broom
",55.82301298005041,None,return,11.586909567005932,55.90626759198494,None,,,,,,,,,,,,,,,,,,,,,,,,,,,,,,,,,,,,,,,37,001,2023_Feb_28_1140,SpeechDraft1Carolyn_lessNoise_PlusLocalization,2021.2.3,59.99760414262095,
brag.wav,brag.mpg,brag,5,A,Pink_Noise_5_1.wav,Pink_Noise_5_2.wav,,,,,,,,,,,,,,,0,1,1,2,,,,,,,,,,,,,,,,,,,,,,,67.52304215705954,None,69.02260074298829,None,70.40645939297974,None,"red
",70.40645939297974,None,return,6.851621774956584,70.48956297303084,None,,,,,,,,,,,,,,,,,,,,,,,,,,,,,,,,,,,,,,,37,001,2023_Feb_28_1140,SpeechDraft1Carolyn_lessNoise_PlusLocalization,2021.2.3,59.99760414262095,
greed.wav,greed.mpg,greed,5,A,Pink_Noise_5_1.wav,Pink_Noise_5_2.wav,,,,,,,,,,,,,,,0,2,2,46,,,,,,,,,,,,,,,,,,,,,,,77.37316876696423,None,78.85589929798152,None,80.23983051697724,None,green,80.23983051697724,None,return,8.506044278037734,80.32322239305358,None,,,,,,,,,,,,,,,,,,,,,,,,,,,,,,,,,,,,,,,37,001,2023_Feb_28_1140,SpeechDraft1Carolyn_lessNoise_PlusLocalization,2021.2.3,59.99760414262095,
dry.wav,dry.mpg,dry,4,AV,Pink_Noise_4_1.wav,Pink_Noise_4_2.wav,,,,,,,,,,,,,,,0,3,3,106,,,,,,,,,,,,,,,,,,,,,,,88.85630343598314,None,90.3562726060627,None,91.73972349206451,None,dry,91.73972349206451,None,return,10.230400003027171,91.82284223905299,None,,,,,,,,,,,,,,,,,,,,,,,,,,,,,,,,,,,,,,,37,001,2023_Feb_28_1140,SpeechDraft1Carolyn_lessNoise_PlusLocalization,2021.2.3,59.99760414262095,
foul.wav,foul.mpg,foul,1,A,Pink_Noise_1_1.wav,Pink_Noise_1_2.wav,,,,,,,,,,,,,,,0,4,4,22,,,,,,,,,,,,,,,,,,,,,,,102.0729308660375,None,103.57280323305167,None,104.95617351203691,None,vowel,104.95617351203691,None,return,5.261586418026127,105.03960856597405,None,,,,,,,,,,,,,,,,,,,,,,,,,,,,,,,,,,,,,,,37,001,2023_Feb_28_1140,SpeechDraft1Carolyn_lessNoise_PlusLocalization,2021.2.3,59.99760414262095,
fox.wav,fox.mpg,fox,3,A,Pink_Noise_3_1.wav,Pink_Noise_3_2.wav,,,,,,,,,,,,,,,0,5,5,25,,,,,,,,,,,,,,,,,,,,,,,110.32309024699498,None,111.80591396801174,None,113.18970891099889,None,fox,113.18970891099889,None,return,5.612206359975971,113.27298515697476,None,,,,,,,,,,,,,,,,,,,,,,,,,,,,,,,,,,,,,,,37,001,2023_Feb_28_1140,SpeechDraft1Carolyn_lessNoise_PlusLocalization,2021.2.3,59.99760414262095,
druid.wav,druid.mpg,druid,6,AV,Pink_Noise_6_1.wav,Pink_Noise_6_2.wav,,,,,,,,,,,,,,,0,6,6,119,,,,,,,,,,,,,,,,,,,,,,,118.90649569698144,None,120.40596408105921,None,121.77276810002513,None,dream,121.77276810002513,None,return,4.20499241608195,121.8562313610455,None,,,,,,,,,,,,,,,,,,,,,,,,,,,,,,,,,,,,,,,37,001,2023_Feb_28_1140,SpeechDraft1Carolyn_lessNoise_PlusLocalization,2021.2.3,59.99760414262095,
cause.wav,cause.mpg,cause,2,AV,Pink_Noise_2_1.wav,Pink_Noise_2_2.wav,,,,,,,,,,,,,,,0,7,7,97,,,,,,,,,,,,,,,,,,,,,,,126.0896969040623,None,127.5745180080412,None,128.9562821610598,None,"cause
",128.9562821610598,None,return,4.669429945992306,129.03977178398054,None,,,,,,,,,,,,,,,,,,,,,,,,,,,,,,,,,,,,,,,37,001,2023_Feb_28_1140,SpeechDraft1Carolyn_lessNoise_PlusLocalization,2021.2.3,59.99760414262095,
gray.wav,gray.mpg,gray,2,A,Pink_Noise_2_1.wav,Pink_Noise_2_2.wav,,,,,,,,,,,,,,,0,8,8,34,,,,,,,,,,,,,,,,,,,,,,,133.73979345604312,None,135.2227768820012,None,136.60647919401526,None,"gray
",136.60647919401526,None,return,8.667380915023386,136.68983714596834,None,,,,,,,,,,,,,,,,,,,,,,,,,,,,,,,,,,,,,,,37,001,2023_Feb_28_1140,SpeechDraft1Carolyn_lessNoise_PlusLocalization,2021.2.3,59.99760414262095,
golf.wav,golf.mpg,golf,4,AV,Pink_Noise_4_1.wav,Pink_Noise_4_2.wav,,,,,,,,,,,,,,,0,9,9,85,,,,,,,,,,,,,,,,,,,,,,,145.38995691400487,None,146.88967032905202,None,148.2562118669739,None,golf,148.2562118669739,None,return,7.057443556026556,148.33980282302946,None,,,,,,,,,,,,,,,,,,,,,,,,,,,,,,,,,,,,,,,37,001,2023_Feb_28_1140,SpeechDraft1Carolyn_lessNoise_PlusLocalization,2021.2.3,59.99760414262095,
rent.wav,rent.mpg,rent,1,AV,Pink_Noise_1_1.wav,Pink_Noise_1_2.wav,,,,,,,,,,,,,,,0,10,10,111,,,,,,,,,,,,,,,,,,,,,,,155.42316564102657,None,156.92268035397865,None,158.28973571199458,None,rent,158.28973571199458,None,return,4.960223329020664,158.37295919796452,None,,,,,,,,,,,,,,,,,,,,,,,,,,,,,,,,,,,,,,,37,001,2023_Feb_28_1140,SpeechDraft1Carolyn_lessNoise_PlusLocalization,2021.2.3,59.99760414262095,
farm.wav,farm.mpg,farm,2,AV,Pink_Noise_2_1.wav,Pink_Noise_2_2.wav,,,,,,,,,,,,,,,0,11,11,100,,,,,,,,,,,,,,,,,,,,,,,163.35646445199382,None,164.83947540901136,None,166.22288100898731,None,farm,166.22288100898731,None,return,7.5708206810522825,166.3063514289679,None,,,,,,,,,,,,,,,,,,,,,,,,,,,,,,,,,,,,,,,37,001,2023_Feb_28_1140,SpeechDraft1Carolyn_lessNoise_PlusLocalization,2021.2.3,59.99760414262095,
floor.wav,floor.mpg,floor,4,AV,Pink_Noise_4_1.wav,Pink_Noise_4_2.wav,,,,,,,,,,,,,,,0,12,12,63,,,,,,,,,,,,,,,,,,,,,,,173.90653752803337,None,175.4072840390727,None,176.7895995810395,None,floor,176.7895995810395,None,return,5.188014818006195,176.87316934601404,None,,,,,,,,,,,,,,,,,,,,,,,,,,,,,,,,,,,,,,,37,001,2023_Feb_28_1140,SpeechDraft1Carolyn_lessNoise_PlusLocalization,2021.2.3,59.99760414262095,
chord.wav,chord.mpg,chord,2,A,Pink_Noise_2_1.wav,Pink_Noise_2_2.wav,,,,,,,,,,,,,,,0,13,13,47,,,,,,,,,,,,,,,,,,,,,,,182.08979851205368,None,183.58956161199603,None,184.9567551680375,None,cord,184.9567551680375,None,return,4.293548175017349,185.03961436799727,None,,,,,,,,,,,,,,,,,,,,,,,,,,,,,,,,,,,,,,,37,001,2023_Feb_28_1140,SpeechDraft1Carolyn_lessNoise_PlusLocalization,2021.2.3,59.99760414262095,
bet.wav,bet.mpg,bet,6,AV,Pink_Noise_6_1.wav,Pink_Noise_6_2.wav,,,,,,,,,,,,,,,0,14,14,88,,,,,,,,,,,,,,,,,,,,,,,189.35657354805153,None,190.83949062705506,None,192.22305165801663,None,"bat
",192.22305165801663,None,return,4.1868475819937885,192.3063284009695,None,,,,,,,,,,,,,,,,,,,,,,,,,,,,,,,,,,,,,,,37,001,2023_Feb_28_1140,SpeechDraft1Carolyn_lessNoise_PlusLocalization,2021.2.3,59.99760414262095,
cuff.wav,cuff.mpg,cuff,4,A,Pink_Noise_4_1.wav,Pink_Noise_4_2.wav,,,,,,,,,,,,,,,0,15,15,21,,,,,,,,,,,,,,,,,,,,,,,196.52313162805513,None,198.00647267699242,None,199.38987796299625,None,truck,199.38987796299625,None,return,14.420024127000943,199.47315349802375,None,,,,,,,,,,,,,,,,,,,,,,,,,,,,,,,,,,,,,,,37,001,2023_Feb_28_1140,SpeechDraft1Carolyn_lessNoise_PlusLocalization,2021.2.3,59.99760414262095,
grip.wav,grip.mpg,grip,4,A,Pink_Noise_4_1.wav,Pink_Noise_4_2.wav,,,,,,,,,,,,,,,0,16,16,51,,,,,,,,,,,,,,,,,,,,,,,213.92326759302523,None,215.42281500506215,None,216.78972943499684,None,grip,216.78972943499684,None,return,6.195801506983116,216.87337255699094,None,,,,,,,,,,,,,,,,,,,,,,,,,,,,,,,,,,,,,,,37,001,2023_Feb_28_1140,SpeechDraft1Carolyn_lessNoise_PlusLocalization,2021.2.3,59.99760414262095,
stuck.wav,stuck.mpg,stuck,1,A,Pink_Noise_1_1.wav,Pink_Noise_1_2.wav,,,,,,,,,,,,,,,0,17,17,32,,,,,,,,,,,,,,,,,,,,,,,223.0898947439855,None,224.57291669002734,None,225.95653665601276,None,stuck,225.95653665601276,None,return,7.061146409017965,226.04004788107704,None,,,,,,,,,,,,,,,,,,,,,,,,,,,,,,,,,,,,,,,37,001,2023_Feb_28_1140,SpeechDraft1Carolyn_lessNoise_PlusLocalization,2021.2.3,59.99760414262095,
count.wav,count.mpg,count,6,AV,Pink_Noise_6_1.wav,Pink_Noise_6_2.wav,,,,,,,,,,,,,,,0,18,18,110,,,,,,,,,,,,,,,,,,,,,,,233.12301899807062,None,234.60658718599007,None,235.98969809804112,None,cow,235.98969809804112,None,return,7.2278952619526535,236.07327091007028,None,,,,,,,,,,,,,,,,,,,,,,,,,,,,,,,,,,,,,,,37,001,2023_Feb_28_1140,SpeechDraft1Carolyn_lessNoise_PlusLocalization,2021.2.3,59.99760414262095,
cross.wav,cross.mpg,cross,4,A,Pink_Noise_4_1.wav,Pink_Noise_4_2.wav,,,,,,,,,,,,,,,0,19,19,59,,,,,,,,,,,,,,,,,,,,,,,243.32338784798048,None,244.80622305697761,None,246.18978618900292,None,gloss,246.18978618900292,None,return,6.2760113349650055,246.27315369900316,None,,,,,,,,,,,,,,,,,,,,,,,,,,,,,,,,,,,,,,,37,001,2023_Feb_28_1140,SpeechDraft1Carolyn_lessNoise_PlusLocalization,2021.2.3,59.99760414262095,
bay.wav,bay.mpg,bay,2,AV,Pink_Noise_2_1.wav,Pink_Noise_2_2.wav,,,,,,,,,,,,,,,0,20,20,67,,,,,,,,,,,,,,,,,,,,,,,252.57322631403804,None,254.07295677100774,None,255.45637804397848,None,bay,255.45637804397848,None,return,5.233444130979478,255.53982042800635,None,,,,,,,,,,,,,,,,,,,,,,,,,,,,,,,,,,,,,,,37,001,2023_Feb_28_1140,SpeechDraft1Carolyn_lessNoise_PlusLocalization,2021.2.3,59.99760414262095,
code.wav,code.mpg,code,3,AV,Pink_Noise_3_1.wav,Pink_Noise_3_2.wav,,,,,,,,,,,,,,,0,21,21,77,,,,,,,,,,,,,,,,,,,,,,,260.7898879930144,None,262.2897174570244,None,263.6730591490632,None,code,263.6730591490632,None,return,2.440589541103691,263.7566227130592,None,,,,,,,,,,,,,,,,,,,,,,,,,,,,,,,,,,,,,,,37,001,2023_Feb_28_1140,SpeechDraft1Carolyn_lessNoise_PlusLocalization,2021.2.3,59.99760414262095,
cry.wav,cry.mpg,cry,5,A,Pink_Noise_5_1.wav,Pink_Noise_5_2.wav,,,,,,,,,,,,,,,0,22,22,41,,,,,,,,,,,,,,,,,,,,,,,266.223093625973,None,267.70763293805066,None,269.0899184390437,None,try,269.0899184390437,None,return,3.4319688379764557,269.17335928301327,None,,,,,,,,,,,,,,,,,,,,,,,,,,,,,,,,,,,,,,,37,001,2023_Feb_28_1140,SpeechDraft1Carolyn_lessNoise_PlusLocalization,2021.2.3,59.99760414262095,
tank.wav,tank.mpg,tank,5,AV,Pink_Noise_5_1.wav,Pink_Noise_5_2.wav,,,,,,,,,,,,,,,0,23,23,102,,,,,,,,,,,,,,,,,,,,,,,272.6232042090269,None,274.12307045806665,None,275.5065309180645,None,take,275.5065309180645,None,return,2.311237070010975,275.5899339070311,None,,,,,,,,,,,,,,,,,,,,,,,,,,,,,,,,,,,,,,,37,001,2023_Feb_28_1140,SpeechDraft1Carolyn_lessNoise_PlusLocalization,2021.2.3,59.99760414262095,
gab.wav,gab.mpg,gab,6,A,Pink_Noise_6_1.wav,Pink_Noise_6_2.wav,,,,,,,,,,,,,,,0,24,24,24,,,,,,,,,,,,,,,,,,,,,,,277.9232574150665,None,279.4063429570524,None,280.79000160098076,None,,280.79000160098076,None,return,5.116066518006846,280.8732132379664,None,,,,,,,,,,,,,,,,,,,,,,,,,,,,,,,,,,,,,,,37,001,2023_Feb_28_1140,SpeechDraft1Carolyn_lessNoise_PlusLocalization,2021.2.3,59.99760414262095,
news.wav,news.mpg,news,3,A,Pink_Noise_3_1.wav,Pink_Noise_3_2.wav,,,,,,,,,,,,,,,0,25,25,18,,,,,,,,,,,,,,,,,,,,,,,286.0079763350077,None,287.52292154706083,None,288.90666986396536,None,use,288.90666986396536,None,return,1.575027059065178,288.99014116998296,None,,,,,,,,,,,,,,,,,,,,,,,,,,,,,,,,,,,,,,,37,001,2023_Feb_28_1140,SpeechDraft1Carolyn_lessNoise_PlusLocalization,2021.2.3,59.99760414262095,
swan.wav,swan.mpg,swan,3,A,Pink_Noise_3_1.wav,Pink_Noise_3_2.wav,,,,,,,,,,,,,,,0,26,26,19,,,,,,,,,,,,,,,,,,,,,,,290.5899943569675,None,292.0897296969779,None,293.47322634304874,None,"were
",293.47322634304874,None,return,2.9526828980306163,293.556481576059,None,,,,,,,,,,,,,,,,,,,,,,,,,,,,,,,,,,,,,,,37,001,2023_Feb_28_1140,SpeechDraft1Carolyn_lessNoise_PlusLocalization,2021.2.3,59.99760414262095,
chest.wav,chest.mpg,chest,4,AV,Pink_Noise_4_1.wav,Pink_Noise_4_2.wav,,,,,,,,,,,,,,,0,27,27,83,,,,,,,,,,,,,,,,,,,,,,,296.53986642404925,None,298.03947306703776,None,299.4230607469799,None,chest,299.4230607469799,None,return,5.258743182988837,299.50647671404295,None,,,,,,,,,,,,,,,,,,,,,,,,,,,,,,,,,,,,,,,37,001,2023_Feb_28_1140,SpeechDraft1Carolyn_lessNoise_PlusLocalization,2021.2.3,59.99760414262095,
float.wav,float.mpg,float,5,AV,Pink_Noise_5_1.wav,Pink_Noise_5_2.wav,,,,,,,,,,,,,,,0,28,28,71,,,,,,,,,,,,,,,,,,,,,,,304.7900444790721,None,306.27281488699373,None,307.65673308901023,None,float,307.65673308901023,None,return,3.4813784359721467,307.7398177840514,None,,,,,,,,,,,,,,,,,,,,,,,,,,,,,,,,,,,,,,,37,001,2023_Feb_28_1140,SpeechDraft1Carolyn_lessNoise_PlusLocalization,2021.2.3,59.99760414262095,
dope.wav,dope.mpg,dope,1,AV,Pink_Noise_1_1.wav,Pink_Noise_1_2.wav,,,,,,,,,,,,,,,0,29,29,73,,,,,,,,,,,,,,,,,,,,,,,311.24006532796193,None,312.7399630480213,None,314.1230405160459,None,"dope
",314.1230405160459,None,return,6.518320285947993,314.2068192480365,None,,,,,,,,,,,,,,,,,,,,,,,,,,,,,,,,,,,,,,,37,001,2023_Feb_28_1140,SpeechDraft1Carolyn_lessNoise_PlusLocalization,2021.2.3,59.99760414262095,
dine.wav,dine.mpg,dine,2,AV,Pink_Noise_2_1.wav,Pink_Noise_2_2.wav,,,,,,,,,,,,,,,0,30,30,76,,,,,,,,,,,,,,,,,,,,,,,320.7565445420332,None,322.25667535502,None,323.6397574360017,None,dine,323.6397574360017,None,return,4.674185325042345,323.7231809999794,None,,,,,,,,,,,,,,,,,,,,,,,,,,,,,,,,,,,,,,,37,001,2023_Feb_28_1140,SpeechDraft1Carolyn_lessNoise_PlusLocalization,2021.2.3,59.99760414262095,
clip.wav,clip.mpg,clip,5,AV,Pink_Noise_5_1.wav,Pink_Noise_5_2.wav,,,,,,,,,,,,,,,0,31,31,78,,,,,,,,,,,,,,,,,,,,,,,328.4235870420234,None,329.9080329249846,None,331.28989520599134,None,clip,331.28989520599134,None,return,3.055914424941875,331.37336294399574,None,,,,,,,,,,,,,,,,,,,,,,,,,,,,,,,,,,,,,,,37,001,2023_Feb_28_1140,SpeechDraft1Carolyn_lessNoise_PlusLocalization,2021.2.3,59.99760414262095,
slush.wav,slush.mpg,slush,5,AV,Pink_Noise_5_1.wav,Pink_Noise_5_2.wav,,,,,,,,,,,,,,,0,32,32,118,,,,,,,,,,,,,,,,,,,,,,,334.4565279870294,None,335.9563199770637,None,337.33981291006785,None,slush,337.33981291006785,None,return,2.3260550760896876,337.42314465600066,None,,,,,,,,,,,,,,,,,,,,,,,,,,,,,,,,,,,,,,,37,001,2023_Feb_28_1140,SpeechDraft1Carolyn_lessNoise_PlusLocalization,2021.2.3,59.99760414262095,
bear.wav,bear.mpg,bear,5,A,Pink_Noise_5_1.wav,Pink_Noise_5_2.wav,,,,,,,,,,,,,,,0,33,33,11,,,,,,,,,,,,,,,,,,,,,,,339.7734041949734,None,341.25713738705963,None,342.6401100100484,None,,342.6401100100484,None,return,2.873870821087621,342.72339858300984,None,,,,,,,,,,,,,,,,,,,,,,,,,,,,,,,,,,,,,,,37,001,2023_Feb_28_1140,SpeechDraft1Carolyn_lessNoise_PlusLocalization,2021.2.3,59.99760414262095,
fat.wav,fat.mpg,fat,6,A,Pink_Noise_6_1.wav,Pink_Noise_6_2.wav,,,,,,,,,,,,,,,0,34,34,56,,,,,,,,,,,,,,,,,,,,,,,345.62333057797514,None,347.1231839050306,None,348.5067178030731,None,,348.5067178030731,None,return,6.511073754052632,348.59011046006344,None,,,,,,,,,,,,,,,,,,,,,,,,,,,,,,,,,,,,,,,37,001,2023_Feb_28_1140,SpeechDraft1Carolyn_lessNoise_PlusLocalization,2021.2.3,59.99760414262095,
freeze.wav,freeze.mpg,freeze,5,AV,Pink_Noise_5_1.wav,Pink_Noise_5_2.wav,,,,,,,,,,,,,,,0,35,35,104,,,,,,,,,,,,,,,,,,,,,,,355.1234271910507,None,356.6065897779772,None,357.9901380870724,None,freeze,357.9901380870724,None,return,3.979844043031335,358.07338650198653,None,,,,,,,,,,,,,,,,,,,,,,,,,,,,,,,,,,,,,,,37,001,2023_Feb_28_1140,SpeechDraft1Carolyn_lessNoise_PlusLocalization,2021.2.3,59.99760414262095,
cloud.wav,cloud.mpg,cloud,2,A,Pink_Noise_2_1.wav,Pink_Noise_2_2.wav,,,,,,,,,,,,,,,0,36,36,30,,,,,,,,,,,,,,,,,,,,,,,362.0733609329909,None,363.5730292380322,None,364.95668991003186,None,"cloud
",364.95668991003186,None,return,2.8851817270042375,365.03997695597354,None,,,,,,,,,,,,,,,,,,,,,,,,,,,,,,,,,,,,,,,37,001,2023_Feb_28_1140,SpeechDraft1Carolyn_lessNoise_PlusLocalization,2021.2.3,59.99760414262095,
champ.wav,champ.mpg,champ,5,AV,Pink_Noise_5_1.wav,Pink_Noise_5_2.wav,,,,,,,,,,,,,,,0,37,37,92,,,,,,,,,,,,,,,,,,,,,,,367.9568362310529,None,369.44070347805973,None,370.82317277404945,None,"trip
",370.82317277404945,None,return,12.78644143708516,370.9067264510086,None,,,,,,,,,,,,,,,,,,,,,,,,,,,,,,,,,,,,,,,37,001,2023_Feb_28_1140,SpeechDraft1Carolyn_lessNoise_PlusLocalization,2021.2.3,59.99760414262095,
forth.wav,forth.mpg,forth,4,A,Pink_Noise_4_1.wav,Pink_Noise_4_2.wav,,,,,,,,,,,,,,,0,38,38,0,,,,,,,,,,,,,,,,,,,,,,,383.72340471402276,None,385.22343571006786,None,386.60658305697143,None,fort,386.60658305697143,None,return,9.531105367932469,386.6900699370308,None,,,,,,,,,,,,,,,,,,,,,,,,,,,,,,,,,,,,,,,37,001,2023_Feb_28_1140,SpeechDraft1Carolyn_lessNoise_PlusLocalization,2021.2.3,59.99760414262095,
spray.wav,spray.mpg,spray,2,A,Pink_Noise_2_1.wav,Pink_Noise_2_2.wav,,,,,,,,,,,,,,,0,39,39,28,,,,,,,,,,,,,,,,,,,,,,,396.2401286700042,None,397.7398075910751,None,399.12328459706623,None,spray,399.12328459706623,None,return,8.358384096994996,399.20677428902127,None,,,,,,,,,,,,,,,,,,,,,,,,,,,,,,,,,,,,,,,37,001,2023_Feb_28_1140,SpeechDraft1Carolyn_lessNoise_PlusLocalization,2021.2.3,59.99760414262095,
grab.wav,grab.mpg,grab,6,A,Pink_Noise_6_1.wav,Pink_Noise_6_2.wav,,,,,,,,,,,,,,,0,40,40,36,,,,,,,,,,,,,,,,,,,,,,,407.5899848510744,None,409.0900513610104,None,410.4569676220417,None,"ran
",410.4569676220417,None,return,2.2170455689774826,410.5401182509959,None,,,,,,,,,,,,,,,,,,,,,,,,,,,,,,,,,,,,,,,37,001,2023_Feb_28_1140,SpeechDraft1Carolyn_lessNoise_PlusLocalization,2021.2.3,59.99760414262095,
boat.wav,boat.mpg,boat,6,AV,Pink_Noise_6_1.wav,Pink_Noise_6_2.wav,,,,,,,,,,,,,,,0,41,41,82,,,,,,,,,,,,,,,,,,,,,,,412.7901207570685,None,414.2744601200102,None,415.65691803302616,None,boat,415.65691803302616,None,return,4.465014684014022,415.7402090720134,None,,,,,,,,,,,,,,,,,,,,,,,,,,,,,,,,,,,,,,,37,001,2023_Feb_28_1140,SpeechDraft1Carolyn_lessNoise_PlusLocalization,2021.2.3,59.99760414262095,
blur.wav,blur.mpg,blur,1,AV,Pink_Noise_1_1.wav,Pink_Noise_1_2.wav,,,,,,,,,,,,,,,0,42,42,105,,,,,,,,,,,,,,,,,,,,,,,420.2233015790116,None,421.7067675970029,None,423.09010684804525,None,blur,423.09010684804525,None,return,5.647914906963706,423.1732780210441,None,,,,,,,,,,,,,,,,,,,,,,,,,,,,,,,,,,,,,,,37,001,2023_Feb_28_1140,SpeechDraft1Carolyn_lessNoise_PlusLocalization,2021.2.3,59.99760414262095,
steam.wav,steam.mpg,steam,6,AV,Pink_Noise_6_1.wav,Pink_Noise_6_2.wav,,,,,,,,,,,,,,,0,43,43,61,,,,,,,,,,,,,,,,,,,,,,,428.84016295406036,None,430.3398549120175,None,431.7235688450746,None,steam,431.7235688450746,None,return,4.246416382025927,431.80683616397437,None,,,,,,,,,,,,,,,,,,,,,,,,,,,,,,,,,,,,,,,37,001,2023_Feb_28_1140,SpeechDraft1Carolyn_lessNoise_PlusLocalization,2021.2.3,59.99760414262095,
booth.wav,booth.mpg,booth,1,AV,Pink_Noise_1_1.wav,Pink_Noise_1_2.wav,,,,,,,,,,,,,,,0,44,44,70,,,,,,,,,,,,,,,,,,,,,,,436.0734302729834,None,437.5734121800633,None,438.95680116303265,None,booth,438.95680116303265,None,return,3.7332173379836604,439.0401426900644,None,,,,,,,,,,,,,,,,,,,,,,,,,,,,,,,,,,,,,,,37,001,2023_Feb_28_1140,SpeechDraft1Carolyn_lessNoise_PlusLocalization,2021.2.3,59.99760414262095,
fright.wav,fright.mpg,fright,6,AV,Pink_Noise_6_1.wav,Pink_Noise_6_2.wav,,,,,,,,,,,,,,,0,45,45,99,,,,,,,,,,,,,,,,,,,,,,,442.7900987419998,None,444.2741213530535,None,445.65688672906253,None,rent,445.65688672906253,None,return,2.2809313510078937,445.74025687004905,None,,,,,,,,,,,,,,,,,,,,,,,,,,,,,,,,,,,,,,,37,001,2023_Feb_28_1140,SpeechDraft1Carolyn_lessNoise_PlusLocalization,2021.2.3,59.99760414262095,
fluff.wav,fluff.mpg,fluff,2,A,Pink_Noise_2_1.wav,Pink_Noise_2_2.wav,,,,,,,,,,,,,,,0,46,46,9,,,,,,,,,,,,,,,,,,,,,,,448.04021402506623,None,449.5397992139915,None,450.9235792499967,None,"fluff
",450.9235792499967,None,return,3.686508901999332,451.0066670209635,None,,,,,,,,,,,,,,,,,,,,,,,,,,,,,,,,,,,,,,,37,001,2023_Feb_28_1140,SpeechDraft1Carolyn_lessNoise_PlusLocalization,2021.2.3,59.99760414262095,
goose.wav,goose.mpg,goose,6,A,Pink_Noise_6_1.wav,Pink_Noise_6_2.wav,,,,,,,,,,,,,,,0,47,47,45,,,,,,,,,,,,,,,,,,,,,,,454.72366326500196,None,456.2230896879919,None,457.60694970807526,None,keys,457.60694970807526,None,return,4.843140697106719,457.6900322709698,None,,,,,,,,,,,,,,,,,,,,,,,,,,,,,,,,,,,,,,,37,001,2023_Feb_28_1140,SpeechDraft1Carolyn_lessNoise_PlusLocalization,2021.2.3,59.99760414262095,
wheat.wav,wheat.mpg,wheat,1,AV,Pink_Noise_1_1.wav,Pink_Noise_1_2.wav,,,,,,,,,,,,,,,0,48,48,95,,,,,,,,,,,,,,,,,,,,,,,462.55681426101364,None,464.0566044590669,None,465.4400295310188,None,"wheat
",465.4400295310188,None,return,1.7537752840435132,465.5233922500629,None,,,,,,,,,,,,,,,,,,,,,,,,,,,,,,,,,,,,,,,37,001,2023_Feb_28_1140,SpeechDraft1Carolyn_lessNoise_PlusLocalization,2021.2.3,59.99760414262095,
cease.wav,cease.mpg,cease,6,A,Pink_Noise_6_1.wav,Pink_Noise_6_2.wav,,,,,,,,,,,,,,,0,49,49,6,,,,,,,,,,,,,,,,,,,,,,,467.3069265820086,None,468.8065768040251,None,470.1735916440375,None,keys,470.1735916440375,None,return,5.716506458004005,470.2567376269726,None,,,,,,,,,,,,,,,,,,,,,,,,,,,,,,,,,,,,,,,37,001,2023_Feb_28_1140,SpeechDraft1Carolyn_lessNoise_PlusLocalization,2021.2.3,59.99760414262095,
deal.wav,deal.mpg,deal,5,A,Pink_Noise_5_1.wav,Pink_Noise_5_2.wav,,,,,,,,,,,,,,,0,50,50,16,,,,,,,,,,,,,,,,,,,,,,,475.99032481503673,None,477.48990665900055,None,478.8734333970351,None,wait,478.8734333970351,None,return,2.0564376229885966,478.9568657350028,None,,,,,,,,,,,,,,,,,,,,,,,,,,,,,,,,,,,,,,,37,001,2023_Feb_28_1140,SpeechDraft1Carolyn_lessNoise_PlusLocalization,2021.2.3,59.99760414262095,
clot.wav,clot.mpg,clot,1,AV,Pink_Noise_1_1.wav,Pink_Noise_1_2.wav,,,,,,,,,,,,,,,0,51,51,74,,,,,,,,,,,,,,,,,,,,,,,481.0402962460648,None,482.5400136279641,None,483.9234728680458,None,clot,483.9234728680458,None,return,8.758340478991158,484.00684019201435,None,,,,,,,,,,,,,,,,,,,,,,,,,,,,,,,,,,,,,,,37,001,2023_Feb_28_1140,SpeechDraft1Carolyn_lessNoise_PlusLocalization,2021.2.3,59.99760414262095,
fault.wav,fault.mpg,fault,6,AV,Pink_Noise_6_1.wav,Pink_Noise_6_2.wav,,,,,,,,,,,,,,,0,52,52,60,,,,,,,,,,,,,,,,,,,,,,,492.79016865300946,None,494.27379369398113,None,495.656927583972,None,false,495.656927583972,None,return,5.392917737015523,495.74026147299446,None,,,,,,,,,,,,,,,,,,,,,,,,,,,,,,,,,,,,,,,37,001,2023_Feb_28_1140,SpeechDraft1Carolyn_lessNoise_PlusLocalization,2021.2.3,59.99760414262095,
route.wav,route.mpg,route,4,AV,Pink_Noise_4_1.wav,Pink_Noise_4_2.wav,,,,,,,,,,,,,,,0,53,53,96,,,,,,,,,,,,,,,,,,,,,,,501.1568632540293,None,502.6566181849921,None,504.0235048379982,None,root,504.0235048379982,None,return,5.754465410020202,504.1067965810653,None,,,,,,,,,,,,,,,,,,,,,,,,,,,,,,,,,,,,,,,37,001,2023_Feb_28_1140,SpeechDraft1Carolyn_lessNoise_PlusLocalization,2021.2.3,59.99760414262095,
drum.wav,drum.mpg,drum,6,A,Pink_Noise_6_1.wav,Pink_Noise_6_2.wav,,,,,,,,,,,,,,,0,54,54,58,,,,,,,,,,,,,,,,,,,,,,,509.8902697940357,None,511.3899861529935,None,512.77356215904,None,road,512.77356215904,None,return,7.492327342974022,512.8568560340209,None,,,,,,,,,,,,,,,,,,,,,,,,,,,,,,,,,,,,,,,37,001,2023_Feb_28_1140,SpeechDraft1Carolyn_lessNoise_PlusLocalization,2021.2.3,59.99760414262095,
dive.wav,dive.mpg,dive,1,A,Pink_Noise_1_1.wav,Pink_Noise_1_2.wav,,,,,,,,,,,,,,,0,55,55,29,,,,,,,,,,,,,,,,,,,,,,,520.3735737550305,None,521.8732869500527,None,523.2568047030363,None,dive,523.2568047030363,None,return,8.033049804042093,523.3403473700164,None,,,,,,,,,,,,,,,,,,,,,,,,,,,,,,,,,,,,,,,37,001,2023_Feb_28_1140,SpeechDraft1Carolyn_lessNoise_PlusLocalization,2021.2.3,59.99760414262095,
dull.wav,dull.mpg,dull,5,A,Pink_Noise_5_1.wav,Pink_Noise_5_2.wav,,,,,,,,,,,,,,,0,56,56,35,,,,,,,,,,,,,,,,,,,,,,,531.3901915129973,None,532.8899986420292,None,534.2569266010541,None,job,534.2569266010541,None,return,5.281046348973177,534.3401626250707,None,,,,,,,,,,,,,,,,,,,,,,,,,,,,,,,,,,,,,,,37,001,2023_Feb_28_1140,SpeechDraft1Carolyn_lessNoise_PlusLocalization,2021.2.3,59.99760414262095,
chant.wav,chant.mpg,chant,2,A,Pink_Noise_2_1.wav,Pink_Noise_2_2.wav,,,,,,,,,,,,,,,0,57,57,7,,,,,,,,,,,,,,,,,,,,,,,539.640429452993,None,541.1398735020775,None,542.5237114200136,None,chant,542.5237114200136,None,return,4.462183210998774,542.6070185899734,None,,,,,,,,,,,,,,,,,,,,,,,,,,,,,,,,,,,,,,,37,001,2023_Feb_28_1140,SpeechDraft1Carolyn_lessNoise_PlusLocalization,2021.2.3,59.99760414262095,
crook.wav,crook.mpg,crook,5,AV,Pink_Noise_5_1.wav,Pink_Noise_5_2.wav,,,,,,,,,,,,,,,0,58,58,68,,,,,,,,,,,,,,,,,,,,,,,547.090323979035,None,548.5902171040652,None,549.9567921870621,None,crook,549.9567921870621,None,return,3.9651821759762242,550.0401484130416,None,,,,,,,,,,,,,,,,,,,,,,,,,,,,,,,,,,,,,,,37,001,2023_Feb_28_1140,SpeechDraft1Carolyn_lessNoise_PlusLocalization,2021.2.3,59.99760414262095,
chill.wav,chill.mpg,chill,6,AV,Pink_Noise_6_1.wav,Pink_Noise_6_2.wav,,,,,,,,,,,,,,,0,59,59,116,,,,,,,,,,,,,,,,,,,,,,,554.0236962100025,None,555.5085478869732,None,556.8903269859729,None,jail,556.8903269859729,None,return,2.559481219970621,556.9737049620599,None,,,,,,,,,,,,,,,,,,,,,,,,,,,,,,,,,,,,,,,37,001,2023_Feb_28_1140,SpeechDraft1Carolyn_lessNoise_PlusLocalization,2021.2.3,59.99760414262095,
die.wav,die.mpg,die,3,AV,Pink_Noise_3_1.wav,Pink_Noise_3_2.wav,,,,,,,,,,,,,,,0,60,60,75,,,,,,,,,,,,,,,,,,,,,,,559.5571641940624,None,561.0569922659779,None,562.423667073017,None,die,562.423667073017,None,return,3.6421136800199747,562.5070864330046,None,,,,,,,,,,,,,,,,,,,,,,,,,,,,,,,,,,,,,,,37,001,2023_Feb_28_1140,SpeechDraft1Carolyn_lessNoise_PlusLocalization,2021.2.3,59.99760414262095,
weep.wav,weep.mpg,weep,2,A,Pink_Noise_2_1.wav,Pink_Noise_2_2.wav,,,,,,,,,,,,,,,0,61,61,37,,,,,,,,,,,,,,,,,,,,,,,566.1735722210724,None,567.6734011430526,None,569.0570299030514,None,weak,569.0570299030514,None,return,3.2809080299921334,569.1402578540146,None,,,,,,,,,,,,,,,,,,,,,,,,,,,,,,,,,,,,,,,37,001,2023_Feb_28_1140,SpeechDraft1Carolyn_lessNoise_PlusLocalization,2021.2.3,59.99760414262095,
fall.wav,fall.mpg,fall,6,A,Pink_Noise_6_1.wav,Pink_Noise_6_2.wav,,,,,,,,,,,,,,,0,62,62,20,,,,,,,,,,,,,,,,,,,,,,,572.4403973330045,None,573.9403256500373,None,575.3236851720139,None,fall,575.3236851720139,None,return,1.6064490800490603,575.4068637309829,None,,,,,,,,,,,,,,,,,,,,,,,,,,,,,,,,,,,,,,,37,001,2023_Feb_28_1140,SpeechDraft1Carolyn_lessNoise_PlusLocalization,2021.2.3,59.99760414262095,
flock.wav,flock.mpg,flock,5,A,Pink_Noise_5_1.wav,Pink_Noise_5_2.wav,,,,,,,,,,,,,,,0,63,63,17,,,,,,,,,,,,,,,,,,,,,,,577.0403229249641,None,578.5402443080675,None,579.907133906032,None,"run
",579.907133906032,None,return,1.966731303022243,579.9904311379651,None,,,,,,,,,,,,,,,,,,,,,,,,,,,,,,,,,,,,,,,37,001,2023_Feb_28_1140,SpeechDraft1Carolyn_lessNoise_PlusLocalization,2021.2.3,59.99760414262095,
fresh.wav,fresh.mpg,fresh,2,AV,Pink_Noise_2_1.wav,Pink_Noise_2_2.wav,,,,,,,,,,,,,,,0,64,64,107,,,,,,,,,,,,,,,,,,,,,,,581.9903864010703,None,583.4751318590716,None,584.857097442029,None,fresh,584.857097442029,None,return,3.9450238220160827,584.9401427609846,None,,,,,,,,,,,,,,,,,,,,,,,,,,,,,,,,,,,,,,,37,001,2023_Feb_28_1140,SpeechDraft1Carolyn_lessNoise_PlusLocalization,2021.2.3,59.99760414262095,
crane.wav,crane.mpg,crane,5,AV,Pink_Noise_5_1.wav,Pink_Noise_5_2.wav,,,,,,,,,,,,,,,0,65,65,64,,,,,,,,,,,,,,,,,,,,,,,588.9071681869682,None,590.3919870960526,None,591.7735683100764,None,crane,591.7735683100764,None,return,1.988327731960453,591.8569004810415,None,,,,,,,,,,,,,,,,,,,,,,,,,,,,,,,,,,,,,,,37,001,2023_Feb_28_1140,SpeechDraft1Carolyn_lessNoise_PlusLocalization,2021.2.3,59.99760414262095,
chip.wav,chip.mpg,chip,2,AV,Pink_Noise_2_1.wav,Pink_Noise_2_2.wav,,,,,,,,,,,,,,,0,66,66,98,,,,,,,,,,,,,,,,,,,,,,,593.8739107389702,None,595.3739534390625,None,596.7570513230748,None,chip,596.7570513230748,None,return,1.4926977909635752,596.840468198061,None,,,,,,,,,,,,,,,,,,,,,,,,,,,,,,,,,,,,,,,37,001,2023_Feb_28_1140,SpeechDraft1Carolyn_lessNoise_PlusLocalization,2021.2.3,59.99760414262095,
dual.wav,dual.mpg,dual,6,A,Pink_Noise_6_1.wav,Pink_Noise_6_2.wav,,,,,,,,,,,,,,,0,67,67,43,,,,,,,,,,,,,,,,,,,,,,,598.3572072840761,None,599.8567185070133,None,601.2404661970213,None,,601.2404661970213,None,return,1.3614664169726893,601.3237106690649,None,,,,,,,,,,,,,,,,,,,,,,,,,,,,,,,,,,,,,,,37,001,2023_Feb_28_1140,SpeechDraft1Carolyn_lessNoise_PlusLocalization,2021.2.3,59.99760414262095,
grade.wav,grade.mpg,grade,2,A,Pink_Noise_2_1.wav,Pink_Noise_2_2.wav,,,,,,,,,,,,,,,0,68,68,26,,,,,,,,,,,,,,,,,,,,,,,602.7068305120338,None,604.2068120939657,None,605.5903868400492,None,grade,605.5903868400492,None,return,2.227427238947712,605.6737384890439,None,,,,,,,,,,,,,,,,,,,,,,,,,,,,,,,,,,,,,,,37,001,2023_Feb_28_1140,SpeechDraft1Carolyn_lessNoise_PlusLocalization,2021.2.3,59.99760414262095,
clean.wav,clean.mpg,clean,3,AV,Pink_Noise_3_1.wav,Pink_Noise_3_2.wav,,,,,,,,,,,,,,,0,69,69,103,,,,,,,,,,,,,,,,,,,,,,,607.9236820810474,None,609.4082845080411,None,610.7903527320595,None,clean,610.7903527320595,None,return,1.6833483380032703,610.8738390869694,None,,,,,,,,,,,,,,,,,,,,,,,,,,,,,,,,,,,,,,,37,001,2023_Feb_28_1140,SpeechDraft1Carolyn_lessNoise_PlusLocalization,2021.2.3,59.99760414262095,
cried.wav,cried.mpg,cried,2,AV,Pink_Noise_2_1.wav,Pink_Noise_2_2.wav,,,,,,,,,,,,,,,0,70,70,114,,,,,,,,,,,,,,,,,,,,,,,612.5738063780591,None,614.0586561780656,None,615.4402739859652,None,"cried
",615.4402739859652,None,return,1.769289459916763,615.5238857560325,None,,,,,,,,,,,,,,,,,,,,,,,,,,,,,,,,,,,,,,,37,001,2023_Feb_28_1140,SpeechDraft1Carolyn_lessNoise_PlusLocalization,2021.2.3,59.99760414262095,
beard.wav,beard.mpg,beard,3,AV,Pink_Noise_3_1.wav,Pink_Noise_3_2.wav,,,,,,,,,,,,,,,0,71,71,65,,,,,,,,,,,,,,,,,,,,,,,617.3238834979711,None,618.8073967390228,None,620.1901786989765,None,beard,620.1901786989765,None,return,2.5874767849454656,620.2736995939631,None,,,,,,,,,,,,,,,,,,,,,,,,,,,,,,,,,,,,,,,37,001,2023_Feb_28_1140,SpeechDraft1Carolyn_lessNoise_PlusLocalization,2021.2.3,59.99760414262095,
blade.wav,blade.mpg,blade,4,AV,Pink_Noise_4_1.wav,Pink_Noise_4_2.wav,,,,,,,,,,,,,,,0,72,72,94,,,,,,,,,,,,,,,,,,,,,,,622.8905328810215,None,624.3902260450413,None,625.7737029440468,None,big,625.7737029440468,None,return,7.0282240259693936,625.8569687269628,None,,,,,,,,,,,,,,,,,,,,,,,,,,,,,,,,,,,,,,,37,001,2023_Feb_28_1140,SpeechDraft1Carolyn_lessNoise_PlusLocalization,2021.2.3,59.99760414262095,
feed.wav,feed.mpg,feed,1,AV,Pink_Noise_1_1.wav,Pink_Noise_1_2.wav,,,,,,,,,,,,,,,0,73,73,89,,,,,,,,,,,,,,,,,,,,,,,632.907081047073,None,634.4067323700292,None,635.7903287489899,None,feed,635.7903287489899,None,return,1.931602174998261,635.873616117984,None,,,,,,,,,,,,,,,,,,,,,,,,,,,,,,,,,,,,,,,37,001,2023_Feb_28_1140,SpeechDraft1Carolyn_lessNoise_PlusLocalization,2021.2.3,59.99760414262095,
bite.wav,bite.mpg,bite,3,A,Pink_Noise_3_1.wav,Pink_Noise_3_2.wav,,,,,,,,,,,,,,,0,74,74,54,,,,,,,,,,,,,,,,,,,,,,,637.8237992960494,None,639.3234690870158,None,640.6904720549937,None,bite,640.6904720549937,None,return,5.215600140974857,640.7736694060732,None,,,,,,,,,,,,,,,,,,,,,,,,,,,,,,,,,,,,,,,37,001,2023_Feb_28_1140,SpeechDraft1Carolyn_lessNoise_PlusLocalization,2021.2.3,59.99760414262095,
hike.wav,hike.mpg,hike,6,AV,Pink_Noise_6_1.wav,Pink_Noise_6_2.wav,,,,,,,,,,,,,,,0,75,75,79,,,,,,,,,,,,,,,,,,,,,,,646.0071534710005,None,647.5067368639866,None,648.8737587840296,None,hug,648.8737587840296,None,return,2.3760856949957088,648.9570793709718,None,,,,,,,,,,,,,,,,,,,,,,,,,,,,,,,,,,,,,,,37,001,2023_Feb_28_1140,SpeechDraft1Carolyn_lessNoise_PlusLocalization,2021.2.3,59.99760414262095,
beer.wav,beer.mpg,beer,1,A,Pink_Noise_1_1.wav,Pink_Noise_1_2.wav,,,,,,,,,,,,,,,0,76,76,57,,,,,,,,,,,,,,,,,,,,,,,651.35715248005,None,652.8567554829642,None,654.2237016990548,None,"beer
",654.2237016990548,None,return,2.386078958050348,654.3070996640017,None,,,,,,,,,,,,,,,,,,,,,,,,,,,,,,,,,,,,,,,37,001,2023_Feb_28_1140,SpeechDraft1Carolyn_lessNoise_PlusLocalization,2021.2.3,59.99760414262095,
wear.wav,wear.mpg,wear,1,A,Pink_Noise_1_1.wav,Pink_Noise_1_2.wav,,,,,,,,,,,,,,,0,77,77,10,,,,,,,,,,,,,,,,,,,,,,,656.723787660012,None,658.2082398410421,None,659.5905141569674,None,where,659.5905141569674,None,return,1.8113317339448258,659.6738341810415,None,,,,,,,,,,,,,,,,,,,,,,,,,,,,,,,,,,,,,,,37,001,2023_Feb_28_1140,SpeechDraft1Carolyn_lessNoise_PlusLocalization,2021.2.3,59.99760414262095,
flesh.wav,flesh.mpg,flesh,2,AV,Pink_Noise_2_1.wav,Pink_Noise_2_2.wav,,,,,,,,,,,,,,,0,78,78,86,,,,,,,,,,,,,,,,,,,,,,,661.5070446389727,None,663.0068842089968,None,664.3905573880766,None,flesh,664.3905573880766,None,return,10.939381891977973,664.473868755973,None,,,,,,,,,,,,,,,,,,,,,,,,,,,,,,,,,,,,,,,37,001,2023_Feb_28_1140,SpeechDraft1Carolyn_lessNoise_PlusLocalization,2021.2.3,59.99760414262095,
fate.wav,fate.mpg,fate,3,A,Pink_Noise_3_1.wav,Pink_Noise_3_2.wav,,,,,,,,,,,,,,,0,79,79,5,,,,,,,,,,,,,,,,,,,,,,,675.440479862038,None,676.9250460210023,None,678.3070118300384,None,fate,678.3070118300384,None,return,1.6145650869002566,678.3906359650427,None,,,,,,,,,,,,,,,,,,,,,,,,,,,,,,,,,,,,,,,37,001,2023_Feb_28_1140,SpeechDraft1Carolyn_lessNoise_PlusLocalization,2021.2.3,59.99760414262095,
blend.wav,blend.mpg,blend,2,AV,Pink_Noise_2_1.wav,Pink_Noise_2_2.wav,,,,,,,,,,,,,,,0,80,80,72,,,,,,,,,,,,,,,,,,,,,,,680.0238973919768,None,681.5238372100284,None,682.8902929300675,None,"bled
",682.8902929300675,None,return,2.103369718999602,682.9738089729799,None,,,,,,,,,,,,,,,,,,,,,,,,,,,,,,,,,,,,,,,37,001,2023_Feb_28_1140,SpeechDraft1Carolyn_lessNoise_PlusLocalization,2021.2.3,59.99760414262095,
shut.wav,shut.mpg,shut,4,A,Pink_Noise_4_1.wav,Pink_Noise_4_2.wav,,,,,,,,,,,,,,,0,81,81,50,,,,,,,,,,,,,,,,,,,,,,,685.1072472679662,None,686.5917977020144,None,687.9737760049757,None,shut,687.9737760049757,None,return,1.6917968079214916,688.0573995730374,None,,,,,,,,,,,,,,,,,,,,,,,,,,,,,,,,,,,,,,,37,001,2023_Feb_28_1140,SpeechDraft1Carolyn_lessNoise_PlusLocalization,2021.2.3,59.99760414262095,
beach.wav,beach.mpg,beach,5,A,Pink_Noise_5_1.wav,Pink_Noise_5_2.wav,,,,,,,,,,,,,,,0,82,82,14,,,,,,,,,,,,,,,,,,,,,,,689.77393889206,None,691.2736087320372,None,692.6570638320409,None,"ditch
",692.6570638320409,None,return,3.9686545509612188,692.7405421480071,None,,,,,,,,,,,,,,,,,,,,,,,,,,,,,,,,,,,,,,,37,001,2023_Feb_28_1140,SpeechDraft1Carolyn_lessNoise_PlusLocalization,2021.2.3,59.99760414262095,
beast.wav,beast.mpg,beast,3,A,Pink_Noise_3_1.wav,Pink_Noise_3_2.wav,,,,,,,,,,,,,,,0,83,83,1,,,,,,,,,,,,,,,,,,,,,,,696.740340101067,None,698.2401236960432,None,699.6240291880677,None,feast,699.6240291880677,None,return,2.9222778759431094,699.7070149780484,None,,,,,,,,,,,,,,,,,,,,,,,,,,,,,,,,,,,,,,,37,001,2023_Feb_28_1140,SpeechDraft1Carolyn_lessNoise_PlusLocalization,2021.2.3,59.99760414262095,
calm.wav,calm.mpg,calm,4,A,Pink_Noise_4_1.wav,Pink_Noise_4_2.wav,,,,,,,,,,,,,,,0,84,84,53,,,,,,,,,,,,,,,,,,,,,,,702.6572468329687,None,704.1568853589706,None,705.540476980037,None,call,705.540476980037,None,return,2.229313047020696,705.6238519409671,None,,,,,,,,,,,,,,,,,,,,,,,,,,,,,,,,,,,,,,,37,001,2023_Feb_28_1140,SpeechDraft1Carolyn_lessNoise_PlusLocalization,2021.2.3,59.99760414262095,
beige.wav,beige.mpg,beige,4,A,Pink_Noise_4_1.wav,Pink_Noise_4_2.wav,,,,,,,,,,,,,,,0,85,85,38,,,,,,,,,,,,,,,,,,,,,,,707.8737810730236,None,709.3737021160778,None,710.740396082052,None,beige,710.740396082052,None,return,3.35747624700889,710.8237938670209,None,,,,,,,,,,,,,,,,,,,,,,,,,,,,,,,,,,,,,,,37,001,2023_Feb_28_1140,SpeechDraft1Carolyn_lessNoise_PlusLocalization,2021.2.3,59.99760414262095,
fist.wav,fist.mpg,fist,1,A,Pink_Noise_1_1.wav,Pink_Noise_1_2.wav,,,,,,,,,,,,,,,0,86,86,4,,,,,,,,,,,,,,,,,,,,,,,714.207067801035,None,715.7069530599983,None,717.0905394239817,None,fist,717.0905394239817,None,return,1.2711659419583157,717.174051961978,None,,,,,,,,,,,,,,,,,,,,,,,,,,,,,,,,,,,,,,,37,001,2023_Feb_28_1140,SpeechDraft1Carolyn_lessNoise_PlusLocalization,2021.2.3,59.99760414262095,
brake.wav,brake.mpg,brake,3,AV,Pink_Noise_3_1.wav,Pink_Noise_3_2.wav,,,,,,,,,,,,,,,0,87,87,101,,,,,,,,,,,,,,,,,,,,,,,718.4740162419621,None,719.9738023419632,None,721.3735835460247,None,"break
",721.3735835460247,None,return,4.484687593067065,721.4404973529745,None,,,,,,,,,,,,,,,,,,,,,,,,,,,,,,,,,,,,,,,37,001,2023_Feb_28_1140,SpeechDraft1Carolyn_lessNoise_PlusLocalization,2021.2.3,59.99760414262095,
bread.wav,bread.mpg,bread,1,A,Pink_Noise_1_1.wav,Pink_Noise_1_2.wav,,,,,,,,,,,,,,,0,88,88,55,,,,,,,,,,,,,,,,,,,,,,,725.9573308690451,None,727.4902155690361,None,728.8570200130343,None,bread,728.8570200130343,None,return,3.0804540449753404,728.9407255430706,None,,,,,,,,,,,,,,,,,,,,,,,,,,,,,,,,,,,,,,,37,001,2023_Feb_28_1140,SpeechDraft1Carolyn_lessNoise_PlusLocalization,2021.2.3,59.99760414262095,
fee.wav,fee.mpg,fee,6,A,Pink_Noise_6_1.wav,Pink_Noise_6_2.wav,,,,,,,,,,,,,,,0,89,89,3,,,,,,,,,,,,,,,,,,,,,,,732.0406088769669,None,733.5404159430182,None,734.9239532270003,None,"feet
",734.9239532270003,None,return,1.9338938429718837,735.0072902030079,None,,,,,,,,,,,,,,,,,,,,,,,,,,,,,,,,,,,,,,,37,001,2023_Feb_28_1140,SpeechDraft1Carolyn_lessNoise_PlusLocalization,2021.2.3,59.99760414262095,
gloom.wav,gloom.mpg,gloom,2,A,Pink_Noise_2_1.wav,Pink_Noise_2_2.wav,,,,,,,,,,,,,,,0,90,90,12,,,,,,,,,,,,,,,,,,,,,,,736.9739443169674,None,738.4736522879684,None,739.8570172339678,None,glue,739.8570172339678,None,return,3.048706862027757,739.9405628889799,None,,,,,,,,,,,,,,,,,,,,,,,,,,,,,,,,,,,,,,,37,001,2023_Feb_28_1140,SpeechDraft1Carolyn_lessNoise_PlusLocalization,2021.2.3,59.99760414262095,
blond.wav,blond.mpg,blond,5,A,Pink_Noise_5_1.wav,Pink_Noise_5_2.wav,,,,,,,,,,,,,,,0,91,91,42,,,,,,,,,,,,,,,,,,,,,,,743.0071286970051,None,744.5233993900474,None,745.8906322170515,None,run,745.8906322170515,None,return,2.1431299949763343,745.9740244910354,None,,,,,,,,,,,,,,,,,,,,,,,,,,,,,,,,,,,,,,,37,001,2023_Feb_28_1140,SpeechDraft1Carolyn_lessNoise_PlusLocalization,2021.2.3,59.99760414262095,
chew.wav,chew.mpg,chew,1,AV,Pink_Noise_1_1.wav,Pink_Noise_1_2.wav,,,,,,,,,,,,,,,0,92,92,115,,,,,,,,,,,,,,,,,,,,,,,748.1406221060315,None,749.6571546460036,None,751.0237406250089,None,"chew
",751.0237406250089,None,return,1.2018826729618013,751.1072520570597,None,,,,,,,,,,,,,,,,,,,,,,,,,,,,,,,,,,,,,,,37,001,2023_Feb_28_1140,SpeechDraft1Carolyn_lessNoise_PlusLocalization,2021.2.3,59.99760414262095,
clothe.wav,clothe.mpg,clothe,1,A,Pink_Noise_1_1.wav,Pink_Noise_1_2.wav,,,,,,,,,,,,,,,0,93,93,27,,,,,,,,,,,,,,,,,,,,,,,752.3406912940554,None,753.8403662140481,None,755.2238202530425,None,"close
",755.2238202530425,None,return,3.017833315068856,755.3073459790321,None,,,,,,,,,,,,,,,,,,,,,,,,,,,,,,,,,,,,,,,37,001,2023_Feb_28_1140,SpeechDraft1Carolyn_lessNoise_PlusLocalization,2021.2.3,59.99760414262095,
chalk.wav,chalk.mpg,chalk,4,A,Pink_Noise_4_1.wav,Pink_Noise_4_2.wav,,,,,,,,,,,,,,,0,94,94,48,,,,,,,,,,,,,,,,,,,,,,,758.3573239899706,None,759.873789372039,None,761.2572339560138,None,chalk,761.2572339560138,None,return,3.1765739349648356,761.3405862720683,None,,,,,,,,,,,,,,,,,,,,,,,,,,,,,,,,,,,,,,,37,001,2023_Feb_28_1140,SpeechDraft1Carolyn_lessNoise_PlusLocalization,2021.2.3,59.99760414262095,
gown.wav,gown.mpg,gown,5,AV,Pink_Noise_5_1.wav,Pink_Noise_5_2.wav,,,,,,,,,,,,,,,0,95,95,112,,,,,,,,,,,,,,,,,,,,,,,764.5405945240054,None,766.0737706510117,None,767.4405928980559,None,gown,767.4405928980559,None,return,2.6894096720498055,767.5238665729994,None,,,,,,,,,,,,,,,,,,,,,,,,,,,,,,,,,,,,,,,37,001,2023_Feb_28_1140,SpeechDraft1Carolyn_lessNoise_PlusLocalization,2021.2.3,59.99760414262095,
sue.wav,sue.mpg,sue,5,AV,Pink_Noise_5_1.wav,Pink_Noise_5_2.wav,,,,,,,,,,,,,,,0,96,96,109,,,,,,,,,,,,,,,,,,,,,,,770.2405998610193,None,771.7403723220341,None,773.1239686140325,None,soup,773.1239686140325,None,return,2.5417417999124154,773.207491892972,None,,,,,,,,,,,,,,,,,,,,,,,,,,,,,,,,,,,,,,,37,001,2023_Feb_28_1140,SpeechDraft1Carolyn_lessNoise_PlusLocalization,2021.2.3,59.99760414262095,
bye.wav,bye.mpg,bye,4,AV,Pink_Noise_4_1.wav,Pink_Noise_4_2.wav,,,,,,,,,,,,,,,0,97,97,108,,,,,,,,,,,,,,,,,,,,,,,775.7740914280294,None,777.2737234350061,None,778.6574082630686,None,buy,778.6574082630686,None,return,3.4244990029837936,778.7407274540747,None,,,,,,,,,,,,,,,,,,,,,,,,,,,,,,,,,,,,,,,37,001,2023_Feb_28_1140,SpeechDraft1Carolyn_lessNoise_PlusLocalization,2021.2.3,59.99760414262095,
dim.wav,dim.mpg,dim,3,A,Pink_Noise_3_1.wav,Pink_Noise_3_2.wav,,,,,,,,,,,,,,,0,98,98,8,,,,,,,,,,,,,,,,,,,,,,,782.1906768420013,None,783.6903173279716,None,785.074110415997,None,dim,785.074110415997,None,return,1.4400385080371052,785.1572654109914,None,,,,,,,,,,,,,,,,,,,,,,,,,,,,,,,,,,,,,,,37,001,2023_Feb_28_1140,SpeechDraft1Carolyn_lessNoise_PlusLocalization,2021.2.3,59.99760414262095,
dog.wav,dog.mpg,dog,2,AV,Pink_Noise_2_1.wav,Pink_Noise_2_2.wav,,,,,,,,,,,,,,,0,99,99,113,,,,,,,,,,,,,,,,,,,,,,,786.6240873429924,None,788.123870237032,None,789.5070209570695,None,dog,789.5070209570695,None,return,0.9665351390140131,789.5907174120657,None,,,,,,,,,,,,,,,,,,,,,,,,,,,,,,,,,,,,,,,37,001,2023_Feb_28_1140,SpeechDraft1Carolyn_lessNoise_PlusLocalization,2021.2.3,59.99760414262095,
eat.wav,eat.mpg,eat,3,AV,Pink_Noise_3_1.wav,Pink_Noise_3_2.wav,,,,,,,,,,,,,,,0,100,100,66,,,,,,,,,,,,,,,,,,,,,,,790.5740864239633,None,792.0737219130388,None,793.4406196629861,None,eat,793.4406196629861,None,return,2.705178676987998,793.5240977969952,None,,,,,,,,,,,,,,,,,,,,,,,,,,,,,,,,,,,,,,,37,001,2023_Feb_28_1140,SpeechDraft1Carolyn_lessNoise_PlusLocalization,2021.2.3,59.99760414262095,
globe.wav,globe.mpg,globe,1,A,Pink_Noise_1_1.wav,Pink_Noise_1_2.wav,,,,,,,,,,,,,,,0,101,101,13,,,,,,,,,,,,,,,,,,,,,,,796.2574395349948,None,797.7572389780544,None,799.1405375769828,None,globe,799.1405375769828,None,return,7.877170509076677,799.2240287780296,None,,,,,,,,,,,,,,,,,,,,,,,,,,,,,,,,,,,,,,,37,001,2023_Feb_28_1140,SpeechDraft1Carolyn_lessNoise_PlusLocalization,2021.2.3,59.99760414262095,
glue.wav,glue.mpg,glue,4,AV,Pink_Noise_4_1.wav,Pink_Noise_4_2.wav,,,,,,,,,,,,,,,0,102,102,69,,,,,,,,,,,,,,,,,,,,,,,807.1240902909776,None,808.623853196972,None,810.0072749040555,None,"glue
",810.0072749040555,None,return,5.6185712040169165,810.0905960859964,None,,,,,,,,,,,,,,,,,,,,,,,,,,,,,,,,,,,,,,,37,001,2023_Feb_28_1140,SpeechDraft1Carolyn_lessNoise_PlusLocalization,2021.2.3,59.99760414262095,
game.wav,game.mpg,game,1,AV,Pink_Noise_1_1.wav,Pink_Noise_1_2.wav,,,,,,,,,,,,,,,0,103,103,91,,,,,,,,,,,,,,,,,,,,,,,815.7407855460187,None,817.2404029910685,None,818.6243342390517,None,game,818.6243342390517,None,return,1.7138767270371318,818.7073696830776,None,,,,,,,,,,,,,,,,,,,,,,,,,,,,,,,,,,,,,,,37,001,2023_Feb_28_1140,SpeechDraft1Carolyn_lessNoise_PlusLocalization,2021.2.3,59.99760414262095,
bat.wav,bat.mpg,bat,3,AV,Pink_Noise_3_1.wav,Pink_Noise_3_2.wav,,,,,,,,,,,,,,,0,104,104,84,,,,,,,,,,,,,,,,,,,,,,,820.440633752034,None,821.9403520419728,None,823.3072682829807,None,bat,823.3072682829807,None,return,1.326629915041849,823.3905257510487,None,,,,,,,,,,,,,,,,,,,,,,,,,,,,,,,,,,,,,,,37,001,2023_Feb_28_1140,SpeechDraft1Carolyn_lessNoise_PlusLocalization,2021.2.3,59.99760414262095,
grand.wav,grand.mpg,grand,3,AV,Pink_Noise_3_1.wav,Pink_Noise_3_2.wav,,,,,,,,,,,,,,,0,105,105,87,,,,,,,,,,,,,,,,,,,,,,,824.7406099910149,None,826.2406833720161,None,827.6240212670527,None,grand,827.6240212670527,None,return,1.5457637959625572,827.707429016009,None,,,,,,,,,,,,,,,,,,,,,,,,,,,,,,,,,,,,,,,37,001,2023_Feb_28_1140,SpeechDraft1Carolyn_lessNoise_PlusLocalization,2021.2.3,59.99760414262095,
rod.wav,rod.mpg,rod,6,AV,Pink_Noise_6_1.wav,Pink_Noise_6_2.wav,,,,,,,,,,,,,,,0,106,106,90,,,,,,,,,,,,,,,,,,,,,,,829.2741281570634,None,830.7904673609883,None,832.1742627830245,None,"ground
",832.1742627830245,None,return,3.05199198203627,832.2571944850497,None,,,,,,,,,,,,,,,,,,,,,,,,,,,,,,,,,,,,,,,37,001,2023_Feb_28_1140,SpeechDraft1Carolyn_lessNoise_PlusLocalization,2021.2.3,59.99760414262095,
germ.wav,germ.mpg,germ,3,A,Pink_Noise_3_1.wav,Pink_Noise_3_2.wav,,,,,,,,,,,,,,,0,107,107,40,,,,,,,,,,,,,,,,,,,,,,,835.3408786280779,None,836.8403266250389,None,838.2241736690048,None,germ,838.2241736690048,None,return,1.945758078014478,838.3073985569645,None,,,,,,,,,,,,,,,,,,,,,,,,,,,,,,,,,,,,,,,37,001,2023_Feb_28_1140,SpeechDraft1Carolyn_lessNoise_PlusLocalization,2021.2.3,59.99760414262095,
drab.wav,drab.mpg,drab,1,A,Pink_Noise_1_1.wav,Pink_Noise_1_2.wav,,,,,,,,,,,,,,,0,108,108,39,,,,,,,,,,,,,,,,,,,,,,,840.2739353260258,None,841.7740440390771,None,843.1574978680583,None,drab,843.1574978680583,None,return,3.0284730050479993,843.2407060100231,None,,,,,,,,,,,,,,,,,,,,,,,,,,,,,,,,,,,,,,,37,001,2023_Feb_28_1140,SpeechDraft1Carolyn_lessNoise_PlusLocalization,2021.2.3,59.99760414262095,
crisp.wav,crisp.mpg,crisp,6,A,Pink_Noise_6_1.wav,Pink_Noise_6_2.wav,,,,,,,,,,,,,,,0,109,109,49,,,,,,,,,,,,,,,,,,,,,,,846.2907058889978,None,847.7905911559938,None,849.1741479340708,None,crisp,849.1741479340708,None,return,6.315779341966845,849.2575096570654,None,,,,,,,,,,,,,,,,,,,,,,,,,,,,,,,,,,,,,,,37,001,2023_Feb_28_1140,SpeechDraft1Carolyn_lessNoise_PlusLocalization,2021.2.3,59.99760414262095,
teen.wav,teen.mpg,teen,3,AV,Pink_Noise_3_1.wav,Pink_Noise_3_2.wav,,,,,,,,,,,,,,,0,110,110,93,,,,,,,,,,,,,,,,,,,,,,,855.5906455910299,None,857.1071133479709,None,858.4905794410734,None,team,858.4905794410734,None,return,2.671188844018616,858.573990390054,None,,,,,,,,,,,,,,,,,,,,,,,,,,,,,,,,,,,,,,,37,001,2023_Feb_28_1140,SpeechDraft1Carolyn_lessNoise_PlusLocalization,2021.2.3,59.99760414262095,
leapt.wav,leapt.mpg,leapt,4,A,Pink_Noise_4_1.wav,Pink_Noise_4_2.wav,,,,,,,,,,,,,,,0,111,111,52,,,,,,,,,,,,,,,,,,,,,,,861.2742113269633,None,862.7739240339724,None,864.1571943800664,None,let,864.1571943800664,None,return,1.4204283109866083,864.2407714170404,None,,,,,,,,,,,,,,,,,,,,,,,,,,,,,,,,,,,,,,,37,001,2023_Feb_28_1140,SpeechDraft1Carolyn_lessNoise_PlusLocalization,2021.2.3,59.99760414262095,
brown.wav,brown.mpg,brown,3,AV,Pink_Noise_3_1.wav,Pink_Noise_3_2.wav,,,,,,,,,,,,,,,0,112,112,117,,,,,,,,,,,,,,,,,,,,,,,865.6908173910342,None,867.2074449090287,None,868.6070491130231,None,brown,868.6070491130231,None,return,1.5473736729472876,868.6739097560057,None,,,,,,,,,,,,,,,,,,,,,,,,,,,,,,,,,,,,,,,37,001,2023_Feb_28_1140,SpeechDraft1Carolyn_lessNoise_PlusLocalization,2021.2.3,59.99760414262095,
aunt.wav,aunt.mpg,aunt,3,A,Pink_Noise_3_1.wav,Pink_Noise_3_2.wav,,,,,,,,,,,,,,,0,113,113,23,,,,,,,,,,,,,,,,,,,,,,,870.2406966129784,None,871.7571218360681,None,873.141001990065,None,aunt,873.141001990065,None,return,2.157269836985506,873.2240029560635,None,,,,,,,,,,,,,,,,,,,,,,,,,,,,,,,,,,,,,,,37,001,2023_Feb_28_1140,SpeechDraft1Carolyn_lessNoise_PlusLocalization,2021.2.3,59.99760414262095,
glass.wav,glass.mpg,glass,4,A,Pink_Noise_4_1.wav,Pink_Noise_4_2.wav,,,,,,,,,,,,,,,0,114,114,44,,,,,,,,,,,,,,,,,,,,,,,875.407591268071,None,876.9072493379936,None,878.2906247560168,None,grass,878.2906247560168,None,return,3.0390970919979736,878.3741766479798,None,,,,,,,,,,,,,,,,,,,,,,,,,,,,,,,,,,,,,,,37,001,2023_Feb_28_1140,SpeechDraft1Carolyn_lessNoise_PlusLocalization,2021.2.3,59.99760414262095,
coast.wav,coast.mpg,coast,4,AV,Pink_Noise_4_1.wav,Pink_Noise_4_2.wav,,,,,,,,,,,,,,,0,115,115,81,,,,,,,,,,,,,,,,,,,,,,,881.4406300500268,None,882.9413880000357,None,884.3239715520758,None,coast,884.3239715520758,None,return,2.925900040077977,884.4072651839815,None,,,,,,,,,,,,,,,,,,,,,,,,,,,,,,,,,,,,,,,37,001,2023_Feb_28_1140,SpeechDraft1Carolyn_lessNoise_PlusLocalization,2021.2.3,59.99760414262095,
dare.wav,dare.mpg,dare,2,A,Pink_Noise_2_1.wav,Pink_Noise_2_2.wav,,,,,,,,,,,,,,,0,116,116,15,,,,,,,,,,,,,,,,,,,,,,,887.3575800950639,None,888.8573481220519,None,890.2406136210775,None,dare,890.2406136210775,None,return,2.4248407499399036,890.3243429340655,None,,,,,,,,,,,,,,,,,,,,,,,,,,,,,,,,,,,,,,,37,001,2023_Feb_28_1140,SpeechDraft1Carolyn_lessNoise_PlusLocalization,2021.2.3,59.99760414262095,
edge.wav,edge.mpg,edge,5,A,Pink_Noise_5_1.wav,Pink_Noise_5_2.wav,,,,,,,,,,,,,,,0,117,117,33,,,,,,,,,,,,,,,,,,,,,,,892.7740380530013,None,894.2740265900502,None,895.87400247599,None,hedge,895.87400247599,None,return,2.5062940770294517,895.8909312440082,None,,,,,,,,,,,,,,,,,,,,,,,,,,,,,,,,,,,,,,,37,001,2023_Feb_28_1140,SpeechDraft1Carolyn_lessNoise_PlusLocalization,2021.2.3,59.99760414262095,
chart.wav,chart.mpg,chart,4,AV,Pink_Noise_4_1.wav,Pink_Noise_4_2.wav,,,,,,,,,,,,,,,0,118,118,80,,,,,,,,,,,,,,,,,,,,,,,898.4241068899864,None,899.9238554730546,None,901.3074771380052,None,chart,901.3074771380052,None,return,5.182347505004145,901.3909088260261,None,,,,,,,,,,,,,,,,,,,,,,,,,,,,,,,,,,,,,,,37,001,2023_Feb_28_1140,SpeechDraft1Carolyn_lessNoise_PlusLocalization,2021.2.3,59.99760414262095,
built.wav,built.mpg,built,1,AV,Pink_Noise_1_1.wav,Pink_Noise_1_2.wav,,,,,,,,,,,,,,,0,119,119,62,,,,,,,,,,,,,,,,,,,,,,,906.5908425520174,None,908.0905233910307,None,909.4572269259952,None,"built
",909.4572269259952,None,return,2.1844970679376274,909.5406796979951,None,,,,,,,,,,,,,,,,,,,,,,,,,,,,,,,,,,,,,,,37,001,2023_Feb_28_1140,SpeechDraft1Carolyn_lessNoise_PlusLocalization,2021.2.3,59.99760414262095,
,,,,,,,,,,,,,,,,,,,,,,,,,,,,,,,,,,,,,,,,,,,,,,,,,,,,,,,,,,,,,,,,,,space,40.8357357570203,911.8575008650078,None,,,,,,,,,,,,,,,,,,,,,,,,,,,,,37,001,2023_Feb_28_1140,SpeechDraft1Carolyn_lessNoise_PlusLocalization,2021.2.3,59.99760414262095,
,,,,,,,,midRight,13.0,3,ch1Sound_localizationTask.wav,13.0,"(1142, 878)","(182, -202)",190,-338,,,,,,,,,0,0,0,5,,,,,,,,,,,,,,,,,,,,,,,,,,,,,,,,,,,,,,,,,,911.8575008650078,None,952.7407190520316,None,953.8576043540379,None,954.7739069010131,None,1.498941798941799,5.286827555974014,954.7739069010131,None,,,,,,,,,,,,,,,,,37,001,2023_Feb_28_1140,SpeechDraft1Carolyn_lessNoise_PlusLocalization,2021.2.3,59.99760414262095,
,,,,,,,,nearLeft,-6.5,1,ch1Sound_localizationTask.wav,-6.5,"(857, 878)","(-103,-202)",-95,-338,,,,,,,,,0,1,1,2,,,,,,,,,,,,,,,,,,,,,,,,,,,,,,,,,,,,,,,,,,,,960.058299874072,None,961.1573477530619,None,962.0906508920016,None,1.48994708994709,0.9315861839568242,962.0906508920016,None,,,,,,,,,,,,,,,,,37,001,2023_Feb_28_1140,SpeechDraft1Carolyn_lessNoise_PlusLocalization,2021.2.3,59.99760414262095,
,,,,,,,,midLeft,-13.0,2,ch1Sound_localizationTask.wav,-13.0,"(762, 878)","(-198,-202)",-190,-338,,,,,,,,,0,2,2,1,,,,,,,,,,,,,,,,,,,,,,,,,,,,,,,,,,,,,,,,,,,,963.0243996920763,None,964.1238323820289,None,965.0571839619661,None,1.362962962962963,1.79906096693594,965.0571839619661,None,,,,,,,,,,,,,,,,,37,001,2023_Feb_28_1140,SpeechDraft1Carolyn_lessNoise_PlusLocalization,2021.2.3,59.99760414262095,
,,,,,,,,midRight,13.0,3,ch1Sound_localizationTask.wav,13.0,"(1142, 878)","(182, -202)",190,-338,,,,,,,,,0,3,3,5,,,,,,,,,,,,,,,,,,,,,,,,,,,,,,,,,,,,,,,,,,,,966.8576479089679,None,967.9574133100687,None,968.8905219010776,None,1.715873015873016,1.598971039056778,968.8905219010776,None,,,,,,,,,,,,,,,,,37,001,2023_Feb_28_1140,SpeechDraft1Carolyn_lessNoise_PlusLocalization,2021.2.3,59.99760414262095,
,,,,,,,,nearLeft,-6.5,1,ch1Sound_localizationTask.wav,-6.5,"(857, 878)","(-103,-202)",-95,-338,,,,,,,,,0,4,4,2,,,,,,,,,,,,,,,,,,,,,,,,,,,,,,,,,,,,,,,,,,,,970.4909801250324,None,971.5905299080769,None,972.5238088950282,None,1.447089947089947,1.3323258080054075,972.5238088950282,None,,,,,,,,,,,,,,,,,37,001,2023_Feb_28_1140,SpeechDraft1Carolyn_lessNoise_PlusLocalization,2021.2.3,59.99760414262095,
,,,,,,,,midLeft,-13.0,2,ch1Sound_localizationTask.wav,-13.0,"(762, 878)","(-198,-202)",-190,-338,,,,,,,,,0,5,5,1,,,,,,,,,,,,,,,,,,,,,,,,,,,,,,,,,,,,,,,,,,,,973.8576228650054,None,974.9572783829644,None,975.8905261290492,None,1.3460317460317461,1.283318049972877,975.8905261290492,None,,,,,,,,,,,,,,,,,37,001,2023_Feb_28_1140,SpeechDraft1Carolyn_lessNoise_PlusLocalization,2021.2.3,59.99760414262095,
,,,,,,,,center,0.0,6,ch1Sound_localizationTask.wav,0.0,"(952, 878)","(-8,-202)",0,-338,,,,,,,,,0,6,6,3,,,,,,,,,,,,,,,,,,,,,,,,,,,,,,,,,,,,,,,,,,,,977.1744091659784,None,978.2741189490771,None,979.2072537579807,None,1.4947089947089947,0.9493188350461423,979.2072537579807,None,,,,,,,,,,,,,,,,,37,001,2023_Feb_28_1140,SpeechDraft1Carolyn_lessNoise_PlusLocalization,2021.2.3,59.99760414262095,
,,,,,,,,center,0.0,6,ch1Sound_localizationTask.wav,0.0,"(952, 878)","(-8,-202)",0,-338,,,,,,,,,1,0,7,3,,,,,,,,,,,,,,,,,,,,,,,,,,,,,,,,,,,,,,,,,,,,980.1581202590605,None,981.2575289889937,None,982.1906463110354,None,1.4428571428571428,0.7833101560827345,982.1906463110354,None,,,,,,,,,,,,,,,,,37,001,2023_Feb_28_1140,SpeechDraft1Carolyn_lessNoise_PlusLocalization,2021.2.3,59.99760414262095,
,,,,,,,,nearRight,6.5,0,ch1Sound_localizationTask.wav,6.5,"(1047, 878)","(87, -202)",95,-338,,,,,,,,,1,1,8,4,,,,,,,,,,,,,,,,,,,,,,,,,,,,,,,,,,,,,,,,,,,,982.9744872839656,None,984.0742571990704,None,985.0073041890282,None,1.6052910052910052,1.032816244987771,985.0073041890282,None,,,,,,,,,,,,,,,,,37,001,2023_Feb_28_1140,SpeechDraft1Carolyn_lessNoise_PlusLocalization,2021.2.3,59.99760414262095,
,,,,,,,,farRight,19.1,4,ch1Sound_localizationTask.wav,19.1,"(1237, 878)","(277,-202)",285,-338,,,,,,,,,1,2,9,6,,,,,,,,,,,,,,,,,,,,,,,,,,,,,,,,,,,,,,,,,,,,986.0410543109756,None,987.1406685650581,None,988.0737754750298,None,1.7798941798941799,1.3162759699625894,988.0737754750298,None,,,,,,,,,,,,,,,,,37,001,2023_Feb_28_1140,SpeechDraft1Carolyn_lessNoise_PlusLocalization,2021.2.3,59.99760414262095,
,,,,,,,,center,0.0,6,ch1Sound_localizationTask.wav,0.0,"(952, 878)","(-8,-202)",0,-338,,,,,,,,,1,3,10,3,,,,,,,,,,,,,,,,,,,,,,,,,,,,,,,,,,,,,,,,,,,,989.391097357031,None,990.4909621779807,None,991.4241302959854,None,1.5010582010582012,1.2165000849636272,991.4241302959854,None,,,,,,,,,,,,,,,,,37,001,2023_Feb_28_1140,SpeechDraft1Carolyn_lessNoise_PlusLocalization,2021.2.3,59.99760414262095,
,,,,,,,,nearRight,6.5,0,ch1Sound_localizationTask.wav,6.5,"(1047, 878)","(87, -202)",95,-338,,,,,,,,,1,4,11,4,,,,,,,,,,,,,,,,,,,,,,,,,,,,,,,,,,,,,,,,,,,,992.641861667973,None,993.7573316280032,None,994.673894039006,None,1.5941798941798941,0.7825191800948232,994.673894039006,None,,,,,,,,,,,,,,,,,37,001,2023_Feb_28_1140,SpeechDraft1Carolyn_lessNoise_PlusLocalization,2021.2.3,59.99760414262095,
,,,,,,,,farRight,19.1,4,ch1Sound_localizationTask.wav,19.1,"(1237, 878)","(277,-202)",285,-338,,,,,,,,,1,5,12,6,,,,,,,,,,,,,,,,,,,,,,,,,,,,,,,,,,,,,,,,,,,,995.4577267840505,None,996.5573711780598,None,997.4905937840231,None,1.6343915343915345,0.8331198910018429,997.4905937840231,None,,,,,,,,,,,,,,,,,37,001,2023_Feb_28_1140,SpeechDraft1Carolyn_lessNoise_PlusLocalization,2021.2.3,59.99760414262095,
,,,,,,,,farLeft,-19.1,5,ch1Sound_localizationTask.wav,-19.1,"(667, 878)","(-293,-202)",-285,-338,,,,,,,,,1,6,13,0,,,,,,,,,,,,,,,,,,,,,,,,,,,,,,,,,,,,,,,,,,,,998.3245478210738,None,999.4241378230508,None,1000.357183846063,None,1.32010582010582,0.8332851139130071,1000.357183846063,None,,,,,,,,,,,,,,,,,37,001,2023_Feb_28_1140,SpeechDraft1Carolyn_lessNoise_PlusLocalization,2021.2.3,59.99760414262095,
,,,,,,,,midLeft,-13.0,2,ch1Sound_localizationTask.wav,-13.0,"(762, 878)","(-198,-202)",-190,-338,,,,,,,,,2,0,14,1,,,,,,,,,,,,,,,,,,,,,,,,,,,,,,,,,,,,,,,,,,,,1001.1913047310663,None,1002.290622556,None,1003.224229466985,None,1.3497354497354497,0.8322951099835336,1003.224229466985,None,,,,,,,,,,,,,,,,,37,001,2023_Feb_28_1140,SpeechDraft1Carolyn_lessNoise_PlusLocalization,2021.2.3,59.99760414262095,
,,,,,,,,farLeft,-19.1,5,ch1Sound_localizationTask.wav,-19.1,"(667, 878)","(-293,-202)",-285,-338,,,,,,,,,2,1,15,0,,,,,,,,,,,,,,,,,,,,,,,,,,,,,,,,,,,,,,,,,,,,1004.0575661520706,None,1005.1571076500695,None,1006.0905280390289,None,1.264021164021164,1.0356431920081377,1006.0905280390289,None,,,,,,,,,,,,,,,,,37,001,2023_Feb_28_1140,SpeechDraft1Carolyn_lessNoise_PlusLocalization,2021.2.3,59.99760414262095,
,,,,,,,,nearLeft,-6.5,1,ch1Sound_localizationTask.wav,-6.5,"(857, 878)","(-103,-202)",-95,-338,,,,,,,,,2,2,16,2,,,,,,,,,,,,,,,,,,,,,,,,,,,,,,,,,,,,,,,,,,,,1007.1409676349722,None,1008.2406990199815,None,1009.1741539610084,None,1.453968253968254,0.9817530900472775,1009.1741539610084,None,,,,,,,,,,,,,,,,,37,001,2023_Feb_28_1140,SpeechDraft1Carolyn_lessNoise_PlusLocalization,2021.2.3,59.99760414262095,
,,,,,,,,farRight,19.1,4,ch1Sound_localizationTask.wav,19.1,"(1237, 878)","(277,-202)",285,-338,,,,,,,,,2,3,17,6,,,,,,,,,,,,,,,,,,,,,,,,,,,,,,,,,,,,,,,,,,,,1010.1576514740009,None,1011.2573027140461,None,1012.1910069310106,None,1.7079365079365079,1.3000956219621003,1012.1910069310106,None,,,,,,,,,,,,,,,,,37,001,2023_Feb_28_1140,SpeechDraft1Carolyn_lessNoise_PlusLocalization,2021.2.3,59.99760414262095,
,,,,,,,,midLeft,-13.0,2,ch1Sound_localizationTask.wav,-13.0,"(762, 878)","(-198,-202)",-190,-338,,,,,,,,,2,4,18,1,,,,,,,,,,,,,,,,,,,,,,,,,,,,,,,,,,,,,,,,,,,,1013.4920118199661,None,1014.5907629879657,None,1015.523954909062,None,1.3566137566137566,1.416404313989915,1015.523954909062,None,,,,,,,,,,,,,,,,,37,001,2023_Feb_28_1140,SpeechDraft1Carolyn_lessNoise_PlusLocalization,2021.2.3,59.99760414262095,
,,,,,,,,center,0.0,6,ch1Sound_localizationTask.wav,0.0,"(952, 878)","(-8,-202)",0,-338,,,,,,,,,2,5,19,3,,,,,,,,,,,,,,,,,,,,,,,,,,,,,,,,,,,,,,,,,,,,1016.9410533820046,None,1018.0406576719834,None,1018.9738954399945,None,1.4968253968253968,0.8163932119496167,1018.9738954399945,None,,,,,,,,,,,,,,,,,37,001,2023_Feb_28_1140,SpeechDraft1Carolyn_lessNoise_PlusLocalization,2021.2.3,59.99760414262095,
,,,,,,,,farRight,19.1,4,ch1Sound_localizationTask.wav,19.1,"(1237, 878)","(277,-202)",285,-338,,,,,,,,,2,6,20,6,,,,,,,,,,,,,,,,,,,,,,,,,,,,,,,,,,,,,,,,,,,,1019.7912698329892,None,1020.89064576698,None,1021.8241408700123,None,1.6947089947089946,1.2167589890304953,1021.8241408700123,None,,,,,,,,,,,,,,,,,37,001,2023_Feb_28_1140,SpeechDraft1Carolyn_lessNoise_PlusLocalization,2021.2.3,59.99760414262095,
,,,,,,,,farLeft,-19.1,5,ch1Sound_localizationTask.wav,-19.1,"(667, 878)","(-293,-202)",-285,-338,,,,,,,,,3,0,21,0,,,,,,,,,,,,,,,,,,,,,,,,,,,,,,,,,,,,,,,,,,,,1023.0409776120214,None,1024.1406455839751,None,1025.0739646720467,None,1.308994708994709,1.201237229979597,1025.0739646720467,None,,,,,,,,,,,,,,,,,37,001,2023_Feb_28_1140,SpeechDraft1Carolyn_lessNoise_PlusLocalization,2021.2.3,59.99760414262095,
,,,,,,,,midRight,13.0,3,ch1Sound_localizationTask.wav,13.0,"(1142, 878)","(182, -202)",190,-338,,,,,,,,,3,1,22,5,,,,,,,,,,,,,,,,,,,,,,,,,,,,,,,,,,,,,,,,,,,,1026.291070344043,None,1027.3906566520454,None,1028.3238277710043,None,1.6513227513227513,0.8664468229981139,1028.3238277710043,None,,,,,,,,,,,,,,,,,37,001,2023_Feb_28_1140,SpeechDraft1Carolyn_lessNoise_PlusLocalization,2021.2.3,59.99760414262095,
,,,,,,,,nearRight,6.5,0,ch1Sound_localizationTask.wav,6.5,"(1047, 878)","(87, -202)",95,-338,,,,,,,,,3,2,23,4,,,,,,,,,,,,,,,,,,,,,,,,,,,,,,,,,,,,,,,,,,,,1029.1915312090423,None,1030.2908092910657,None,1031.2239672810538,None,1.5724867724867724,1.1830800789175555,1031.2239672810538,None,,,,,,,,,,,,,,,,,37,001,2023_Feb_28_1140,SpeechDraft1Carolyn_lessNoise_PlusLocalization,2021.2.3,59.99760414262095,
,,,,,,,,farRight,19.1,4,ch1Sound_localizationTask.wav,19.1,"(1237, 878)","(277,-202)",285,-338,,,,,,,,,3,3,24,6,,,,,,,,,,,,,,,,,,,,,,,,,,,,,,,,,,,,,,,,,,,,1032.4079486570554,None,1033.507409141981,None,1034.440996226971,None,1.6534391534391535,0.9327861920464784,1034.440996226971,None,,,,,,,,,,,,,,,,,37,001,2023_Feb_28_1140,SpeechDraft1Carolyn_lessNoise_PlusLocalization,2021.2.3,59.99760414262095,
,,,,,,,,midLeft,-13.0,2,ch1Sound_localizationTask.wav,-13.0,"(762, 878)","(-198,-202)",-190,-338,,,,,,,,,3,4,25,1,,,,,,,,,,,,,,,,,,,,,,,,,,,,,,,,,,,,,,,,,,,,1035.3744284759741,None,1036.4740222520195,None,1037.4073427419644,None,1.373015873015873,1.1661012700060382,1037.4073427419644,None,,,,,,,,,,,,,,,,,37,001,2023_Feb_28_1140,SpeechDraft1Carolyn_lessNoise_PlusLocalization,2021.2.3,59.99760414262095,
,,,,,,,,center,0.0,6,ch1Sound_localizationTask.wav,0.0,"(952, 878)","(-8,-202)",0,-338,,,,,,,,,3,5,26,3,,,,,,,,,,,,,,,,,,,,,,,,,,,,,,,,,,,,,,,,,,,,1038.5758831410203,None,1039.6906867689686,None,1040.6073846140644,None,1.4978835978835978,0.8664186230162159,1040.6073846140644,None,,,,,,,,,,,,,,,,,37,001,2023_Feb_28_1140,SpeechDraft1Carolyn_lessNoise_PlusLocalization,2021.2.3,59.99760414262095,
,,,,,,,,midLeft,-13.0,2,ch1Sound_localizationTask.wav,-13.0,"(762, 878)","(-198,-202)",-190,-338,,,,,,,,,3,6,27,1,,,,,,,,,,,,,,,,,,,,,,,,,,,,,,,,,,,,,,,,,,,,1041.4742284569656,None,1042.5740270870738,None,1043.5074573850725,None,1.3915343915343916,0.899483917048201,1043.5074573850725,None,,,,,,,,,,,,,,,,,37,001,2023_Feb_28_1140,SpeechDraft1Carolyn_lessNoise_PlusLocalization,2021.2.3,59.99760414262095,
,,,,,,,,farLeft,-19.1,5,ch1Sound_localizationTask.wav,-19.1,"(667, 878)","(-293,-202)",-285,-338,,,,,,,,,4,0,28,0,,,,,,,,,,,,,,,,,,,,,,,,,,,,,,,,,,,,,,,,,,,,1044.408456802019,None,1045.5072943799896,None,1046.4407820330234,None,1.3460317460317461,0.8009981849463657,1046.4407820330234,None,,,,,,,,,,,,,,,,,37,001,2023_Feb_28_1140,SpeechDraft1Carolyn_lessNoise_PlusLocalization,2021.2.3,59.99760414262095,
,,,,,,,,farLeft,-19.1,5,ch1Sound_localizationTask.wav,-19.1,"(667, 878)","(-293,-202)",-285,-338,,,,,,,,,4,1,29,0,,,,,,,,,,,,,,,,,,,,,,,,,,,,,,,,,,,,,,,,,,,,1047.257807790069,None,1048.3575475050602,None,1049.2904501119629,None,1.3037037037037038,1.0511768619762734,1049.2904501119629,None,,,,,,,,,,,,,,,,,37,001,2023_Feb_28_1140,SpeechDraft1Carolyn_lessNoise_PlusLocalization,2021.2.3,59.99760414262095,
,,,,,,,,farRight,19.1,4,ch1Sound_localizationTask.wav,19.1,"(1237, 878)","(277,-202)",285,-338,,,,,,,,,4,2,30,6,,,,,,,,,,,,,,,,,,,,,,,,,,,,,,,,,,,,,,,,,,,,1050.3577778689796,None,1051.4573901100084,None,1052.3906444479944,None,1.7492063492063492,0.7157486610813066,1052.3906444479944,None,,,,,,,,,,,,,,,,,37,001,2023_Feb_28_1140,SpeechDraft1Carolyn_lessNoise_PlusLocalization,2021.2.3,59.99760414262095,
,,,,,,,,midLeft,-13.0,2,ch1Sound_localizationTask.wav,-13.0,"(762, 878)","(-198,-202)",-190,-338,,,,,,,,,4,3,31,1,,,,,,,,,,,,,,,,,,,,,,,,,,,,,,,,,,,,,,,,,,,,1053.1077255599666,None,1054.2074061289895,None,1055.140592464013,None,1.403174603174603,1.0005153969395906,1055.140592464013,None,,,,,,,,,,,,,,,,,37,001,2023_Feb_28_1140,SpeechDraft1Carolyn_lessNoise_PlusLocalization,2021.2.3,59.99760414262095,
,,,,,,,,midRight,13.0,3,ch1Sound_localizationTask.wav,13.0,"(1142, 878)","(182, -202)",190,-338,,,,,,,,,4,4,32,5,,,,,,,,,,,,,,,,,,,,,,,,,,,,,,,,,,,,,,,,,,,,1056.1579592480557,None,1057.2572158069815,None,1058.1908467620378,None,1.6677248677248677,1.166840817895718,1058.1908467620378,None,,,,,,,,,,,,,,,,,37,001,2023_Feb_28_1140,SpeechDraft1Carolyn_lessNoise_PlusLocalization,2021.2.3,59.99760414262095,
,,,,,,,,nearLeft,-6.5,1,ch1Sound_localizationTask.wav,-6.5,"(857, 878)","(-103,-202)",-95,-338,,,,,,,,,4,5,33,2,,,,,,,,,,,,,,,,,,,,,,,,,,,,,,,,,,,,,,,,,,,,1059.3577648589853,None,1060.4576137940167,None,1061.390677168034,None,1.4386243386243387,0.7338175670010969,1061.390677168034,None,,,,,,,,,,,,,,,,,37,001,2023_Feb_28_1140,SpeechDraft1Carolyn_lessNoise_PlusLocalization,2021.2.3,59.99760414262095,
,,,,,,,,nearLeft,-6.5,1,ch1Sound_localizationTask.wav,-6.5,"(857, 878)","(-103,-202)",-95,-338,,,,,,,,,4,6,34,2,,,,,,,,,,,,,,,,,,,,,,,,,,,,,,,,,,,,,,,,,,,,1062.1412235570606,None,1063.2410939000547,None,1064.1742335610325,None,1.4835978835978836,1.2334525040350854,1064.1742335610325,None,,,,,,,,,,,,,,,,,37,001,2023_Feb_28_1140,SpeechDraft1Carolyn_lessNoise_PlusLocalization,2021.2.3,59.99760414262095,
,,,,,,,,farLeft,-19.1,5,ch1Sound_localizationTask.wav,-19.1,"(667, 878)","(-293,-202)",-285,-338,,,,,,,,,5,0,35,0,,,,,,,,,,,,,,,,,,,,,,,,,,,,,,,,,,,,,,,,,,,,1065.4244076840114,None,1066.5240354270209,None,1067.4572158809751,None,1.3703703703703702,1.4676332420203835,1067.4572158809751,None,,,,,,,,,,,,,,,,,37,001,2023_Feb_28_1140,SpeechDraft1Carolyn_lessNoise_PlusLocalization,2021.2.3,59.99760414262095,
,,,,,,,,nearLeft,-6.5,1,ch1Sound_localizationTask.wav,-6.5,"(857, 878)","(-103,-202)",-95,-338,,,,,,,,,5,1,36,2,,,,,,,,,,,,,,,,,,,,,,,,,,,,,,,,,,,,,,,,,,,,1068.9410016930196,None,1070.0408344040625,None,1070.9740052470006,None,1.446031746031746,1.0177278849296272,1070.9740052470006,None,,,,,,,,,,,,,,,,,37,001,2023_Feb_28_1140,SpeechDraft1Carolyn_lessNoise_PlusLocalization,2021.2.3,59.99760414262095,
,,,,,,,,center,0.0,6,ch1Sound_localizationTask.wav,0.0,"(952, 878)","(-8,-202)",0,-338,,,,,,,,,5,2,37,3,,,,,,,,,,,,,,,,,,,,,,,,,,,,,,,,,,,,,,,,,,,,1072.0079347520368,None,1073.1074597219704,None,1074.0406855400652,None,1.4962962962962962,0.9167950230184942,1074.0406855400652,None,,,,,,,,,,,,,,,,,37,001,2023_Feb_28_1140,SpeechDraft1Carolyn_lessNoise_PlusLocalization,2021.2.3,59.99760414262095,
,,,,,,,,nearRight,6.5,0,ch1Sound_localizationTask.wav,6.5,"(1047, 878)","(87, -202)",95,-338,,,,,,,,,5,3,38,4,,,,,,,,,,,,,,,,,,,,,,,,,,,,,,,,,,,,,,,,,,,,1074.974474468967,None,1076.0742430760292,None,1077.0075072919717,None,1.5820105820105819,1.4831839220132679,1077.0075072919717,None,,,,,,,,,,,,,,,,,37,001,2023_Feb_28_1140,SpeechDraft1Carolyn_lessNoise_PlusLocalization,2021.2.3,59.99760414262095,
,,,,,,,,farLeft,-19.1,5,ch1Sound_localizationTask.wav,-19.1,"(667, 878)","(-293,-202)",-285,-338,,,,,,,,,5,4,39,0,,,,,,,,,,,,,,,,,,,,,,,,,,,,,,,,,,,,,,,,,,,,1078.4912443100475,None,1079.5907375760144,None,1080.5243623009883,None,1.38994708994709,0.9166851589689031,1080.5243623009883,None,,,,,,,,,,,,,,,,,37,001,2023_Feb_28_1140,SpeechDraft1Carolyn_lessNoise_PlusLocalization,2021.2.3,59.99760414262095,
,,,,,,,,nearRight,6.5,0,ch1Sound_localizationTask.wav,6.5,"(1047, 878)","(87, -202)",95,-338,,,,,,,,,5,5,40,4,,,,,,,,,,,,,,,,,,,,,,,,,,,,,,,,,,,,,,,,,,,,1081.4426208829973,None,1082.5574008739786,None,1083.4745042909635,None,1.5835978835978834,0.8999714829260483,1083.4745042909635,None,,,,,,,,,,,,,,,,,37,001,2023_Feb_28_1140,SpeechDraft1Carolyn_lessNoise_PlusLocalization,2021.2.3,59.99760414262095,
,,,,,,,,nearRight,6.5,0,ch1Sound_localizationTask.wav,6.5,"(1047, 878)","(87, -202)",95,-338,,,,,,,,,5,6,41,4,,,,,,,,,,,,,,,,,,,,,,,,,,,,,,,,,,,,,,,,,,,,1084.3911491610343,None,1085.49075111805,None,1086.4240796630038,None,1.5507936507936508,1.049680656986311,1086.4240796630038,None,,,,,,,,,,,,,,,,,37,001,2023_Feb_28_1140,SpeechDraft1Carolyn_lessNoise_PlusLocalization,2021.2.3,59.99760414262095,
,,,,,,,,center,0.0,6,ch1Sound_localizationTask.wav,0.0,"(952, 878)","(-8,-202)",0,-338,,,,,,,,,6,0,42,3,,,,,,,,,,,,,,,,,,,,,,,,,,,,,,,,,,,,,,,,,,,,1087.47472007107,None,1088.574156442075,None,1089.5072711630492,None,1.494179894179894,0.9160879589617252,1089.5072711630492,None,,,,,,,,,,,,,,,,,37,001,2023_Feb_28_1140,SpeechDraft1Carolyn_lessNoise_PlusLocalization,2021.2.3,59.99760414262095,
,,,,,,,,nearLeft,-6.5,1,ch1Sound_localizationTask.wav,-6.5,"(857, 878)","(-103,-202)",-95,-338,,,,,,,,,6,1,43,2,,,,,,,,,,,,,,,,,,,,,,,,,,,,,,,,,,,,,,,,,,,,1090.4244107670384,None,1091.5239675000776,None,1092.4572671490023,None,1.4301587301587302,0.7171626950148493,1092.4572671490023,None,,,,,,,,,,,,,,,,,37,001,2023_Feb_28_1140,SpeechDraft1Carolyn_lessNoise_PlusLocalization,2021.2.3,59.99760414262095,
,,,,,,,,farLeft,-19.1,5,ch1Sound_localizationTask.wav,-19.1,"(667, 878)","(-293,-202)",-285,-338,,,,,,,,,6,2,44,0,,,,,,,,,,,,,,,,,,,,,,,,,,,,,,,,,,,,,,,,,,,,1093.191225831979,None,1094.2910304510733,None,1095.2241263670148,None,1.3195767195767196,0.9671916109509766,1095.2241263670148,None,,,,,,,,,,,,,,,,,37,001,2023_Feb_28_1140,SpeechDraft1Carolyn_lessNoise_PlusLocalization,2021.2.3,59.99760414262095,
,,,,,,,,midRight,13.0,3,ch1Sound_localizationTask.wav,13.0,"(1142, 878)","(182, -202)",190,-338,,,,,,,,,6,3,45,5,,,,,,,,,,,,,,,,,,,,,,,,,,,,,,,,,,,,,,,,,,,,1096.207906646072,None,1097.3075053510256,None,1098.2407575179823,None,1.664021164021164,1.149524695938453,1098.2407575179823,None,,,,,,,,,,,,,,,,,37,001,2023_Feb_28_1140,SpeechDraft1Carolyn_lessNoise_PlusLocalization,2021.2.3,59.99760414262095,
,,,,,,,,nearLeft,-6.5,1,ch1Sound_localizationTask.wav,-6.5,"(857, 878)","(-103,-202)",-95,-338,,,,,,,,,6,4,46,2,,,,,,,,,,,,,,,,,,,,,,,,,,,,,,,,,,,,,,,,,,,,1099.3911444359692,None,1100.4907322300132,None,1101.4243969330564,None,1.4650793650793652,0.7825210110750049,1101.4243969330564,None,,,,,,,,,,,,,,,,,37,001,2023_Feb_28_1140,SpeechDraft1Carolyn_lessNoise_PlusLocalization,2021.2.3,59.99760414262095,
,,,,,,,,center,0.0,6,ch1Sound_localizationTask.wav,0.0,"(952, 878)","(-8,-202)",0,-338,,,,,,,,,6,5,47,3,,,,,,,,,,,,,,,,,,,,,,,,,,,,,,,,,,,,,,,,,,,,1102.208548614988,None,1103.3239100530045,None,1104.2407294900622,None,1.4973544973544972,1.08467135601677,1104.2407294900622,None,,,,,,,,,,,,,,,,,37,001,2023_Feb_28_1140,SpeechDraft1Carolyn_lessNoise_PlusLocalization,2021.2.3,59.99760414262095,
,,,,,,,,midRight,13.0,3,ch1Sound_localizationTask.wav,13.0,"(1142, 878)","(182, -202)",190,-338,,,,,,,,,6,6,48,5,,,,,,,,,,,,,,,,,,,,,,,,,,,,,,,,,,,,,,,,,,,,1105.3423028050456,None,1106.4575827220688,None,1107.3740940709831,None,1.5634920634920635,0.6996178969275206,1107.3740940709831,None,,,,,,,,,,,,,,,,,37,001,2023_Feb_28_1140,SpeechDraft1Carolyn_lessNoise_PlusLocalization,2021.2.3,59.99760414262095,
,,,,,,,,nearRight,6.5,0,ch1Sound_localizationTask.wav,6.5,"(1047, 878)","(87, -202)",95,-338,,,,,,,,,7,0,49,4,,,,,,,,,,,,,,,,,,,,,,,,,,,,,,,,,,,,,,,,,,,,1108.0744427500758,None,1109.1742851110175,None,1110.1073866899824,None,1.5455026455026455,1.0168191839475185,1110.1073866899824,None,,,,,,,,,,,,,,,,,37,001,2023_Feb_28_1140,SpeechDraft1Carolyn_lessNoise_PlusLocalization,2021.2.3,59.99760414262095,
,,,,,,,,midRight,13.0,3,ch1Sound_localizationTask.wav,13.0,"(1142, 878)","(182, -202)",190,-338,,,,,,,,,7,1,50,5,,,,,,,,,,,,,,,,,,,,,,,,,,,,,,,,,,,,,,,,,,,,1111.1244917180156,None,1112.2243891300168,None,1113.1574581600726,None,1.5708994708994708,0.9501233859919012,1113.1574581600726,None,,,,,,,,,,,,,,,,,37,001,2023_Feb_28_1140,SpeechDraft1Carolyn_lessNoise_PlusLocalization,2021.2.3,59.99760414262095,
,,,,,,,,farRight,19.1,4,ch1Sound_localizationTask.wav,19.1,"(1237, 878)","(277,-202)",285,-338,,,,,,,,,7,2,51,6,,,,,,,,,,,,,,,,,,,,,,,,,,,,,,,,,,,,,,,,,,,,1114.1081353470217,None,1115.207547686994,None,1116.140691403998,None,1.607936507936508,1.1655170969897881,1116.140691403998,None,,,,,,,,,,,,,,,,,37,001,2023_Feb_28_1140,SpeechDraft1Carolyn_lessNoise_PlusLocalization,2021.2.3,59.99760414262095,
,,,,,,,,farRight,19.1,4,ch1Sound_localizationTask.wav,19.1,"(1237, 878)","(277,-202)",285,-338,,,,,,,,,7,3,52,6,,,,,,,,,,,,,,,,,,,,,,,,,,,,,,,,,,,,,,,,,,,,1117.3078683110652,None,1118.407582957996,None,1119.3407906449866,None,1.6375661375661377,1.1488310219720006,1119.3407906449866,None,,,,,,,,,,,,,,,,,37,001,2023_Feb_28_1140,SpeechDraft1Carolyn_lessNoise_PlusLocalization,2021.2.3,59.99760414262095,
,,,,,,,,midLeft,-13.0,2,ch1Sound_localizationTask.wav,-13.0,"(762, 878)","(-198,-202)",-190,-338,,,,,,,,,7,4,53,1,,,,,,,,,,,,,,,,,,,,,,,,,,,,,,,,,,,,,,,,,,,,1120.4911148480605,None,1121.5912098779809,None,1122.5240060889628,None,1.3222222222222222,0.8666107759345323,1122.5240060889628,None,,,,,,,,,,,,,,,,,37,001,2023_Feb_28_1140,SpeechDraft1Carolyn_lessNoise_PlusLocalization,2021.2.3,59.99760414262095,
,,,,,,,,midRight,13.0,3,ch1Sound_localizationTask.wav,13.0,"(1142, 878)","(182, -202)",190,-338,,,,,,,,,7,5,54,5,,,,,,,,,,,,,,,,,,,,,,,,,,,,,,,,,,,,,,,,,,,,1123.3917767499806,None,1124.4909254950471,None,1125.4243482240709,None,1.5767195767195767,0.7494229499716312,1125.4243482240709,None,,,,,,,,,,,,,,,,,37,001,2023_Feb_28_1140,SpeechDraft1Carolyn_lessNoise_PlusLocalization,2021.2.3,59.99760414262095,
,,,,,,,,nearRight,6.5,0,ch1Sound_localizationTask.wav,6.5,"(1047, 878)","(87, -202)",95,-338,,,,,,,,,7,6,55,4,,,,,,,,,,,,,,,,,,,,,,,,,,,,,,,,,,,,,,,,,,,,1126.1743985300418,None,1127.2739307250595,None,1128.2074372300413,None,1.543915343915344,0.9329535759752616,1128.2074372300413,None,,,,,,,,,,,,,,,,,37,001,2023_Feb_28_1140,SpeechDraft1Carolyn_lessNoise_PlusLocalization,2021.2.3,59.99760414262095,
,,,,,,,,,,,,,,,,,,,,,,,,,,,,,,,,,,,,,,,,,,,,,,,,,,,,,,,,,,,,,,,,,,,,,,,,,,,,,,,,,,space,32.01263497909531,1129.224574250984,None,,,,,,,,,,,,,37,001,2023_Feb_28_1140,SpeechDraft1Carolyn_lessNoise_PlusLocalization,2021.2.3,59.99760414262095,
,,,,,,,,nearRight,6.5,0,ch1Sound_localizationTask.wav,6.5,"(1047, 878)","(87, -202)",95,-338,,,,,,,,,,,,,0,0,0,4,,,,,,,,,,,,,,,,,,,,,,,,,,,,,,,,,,,,,,,,1161.2741622939939,None,,,1164.3074842890492,None,1.547089947089947,1.7707360779168084,1164.3074842890492,None,,,,,1129.224574250984,None,1162.27450546599,None,1162.4576156389667,1162.4746378069976,,,,,,,37,001,2023_Feb_28_1140,SpeechDraft1Carolyn_lessNoise_PlusLocalization,2021.2.3,59.99760414262095,
,,,,,,,,center,0.0,6,ch1Sound_localizationTask.wav,0.0,"(952, 878)","(-8,-202)",0,-338,,,,,,,,,,,,,0,1,1,3,,,,,,,,,,,,,,,,,,,,,,,,,,,,,,,,,,,,,,,,1166.0748291499913,None,,,1169.091036517988,None,1.4984126984126984,0.9158622829709202,1169.091036517988,None,,,,,,,1167.0743883709656,None,1167.2576804800192,1167.2745345020667,,,,,,,37,001,2023_Feb_28_1140,SpeechDraft1Carolyn_lessNoise_PlusLocalization,2021.2.3,59.99760414262095,
,,,,,,,,farRight,19.1,4,ch1Sound_localizationTask.wav,19.1,"(1237, 878)","(277,-202)",285,-338,,,,,,,,,,,,,0,2,2,6,,,,,,,,,,,,,,,,,,,,,,,,,,,,,,,,,,,,,,,,1170.0087551630568,None,,,1173.024300112971,None,1.6296296296296298,0.8986416610423476,1173.024300112971,None,,,,,,,1171.0077200570377,None,1171.1912139069755,1171.2077602060745,,,,,,,37,001,2023_Feb_28_1140,SpeechDraft1Carolyn_lessNoise_PlusLocalization,2021.2.3,59.99760414262095,
,,,,,,,,nearLeft,-6.5,1,ch1Sound_localizationTask.wav,-6.5,"(857, 878)","(-103,-202)",-95,-338,,,,,,,,,,,,,0,3,3,2,,,,,,,,,,,,,,,,,,,,,,,,,,,,,,,,,,,,,,,,1173.9245434839977,None,,,1176.940811677021,None,1.428042328042328,1.0496898910496384,1176.940811677021,None,,,,,,,1174.9244953769958,None,1175.1080017070053,1175.1244734260254,,,,,,,37,001,2023_Feb_28_1140,SpeechDraft1Carolyn_lessNoise_PlusLocalization,2021.2.3,59.99760414262095,
,,,,,,,,midLeft,-13.0,2,ch1Sound_localizationTask.wav,-13.0,"(762, 878)","(-198,-202)",-190,-338,,,,,,,,,,,,,0,4,4,1,,,,,,,,,,,,,,,,,,,,,,,,,,,,,,,,,,,,,,,,1178.0081399349729,None,,,1181.0245058250148,None,1.4105820105820106,0.9837271169526502,1181.0245058250148,None,,,,,,,1179.0079756630585,None,1179.1911143340403,1179.2076934289653,,,,,,,37,001,2023_Feb_28_1140,SpeechDraft1Carolyn_lessNoise_PlusLocalization,2021.2.3,59.99760414262095,
,,,,,,,,nearLeft,-6.5,1,ch1Sound_localizationTask.wav,-6.5,"(857, 878)","(-103,-202)",-95,-338,,,,,,,,,,,,,0,5,5,2,,,,,,,,,,,,,,,,,,,,,,,,,,,,,,,,,,,,,,,,1182.009180368972,None,,,1185.041027172003,None,1.4433862433862434,1.3837976360227913,1185.041027172003,None,,,,,,,1183.0245991529664,None,1183.2078623670386,1183.2246503300266,,,,,,,37,001,2023_Feb_28_1140,SpeechDraft1Carolyn_lessNoise_PlusLocalization,2021.2.3,59.99760414262095,
,,,,,,,,nearRight,6.5,0,ch1Sound_localizationTask.wav,6.5,"(1047, 878)","(87, -202)",95,-338,,,,,,,,,,,,,0,6,6,4,,,,,,,,,,,,,,,,,,,,,,,,,,,,,,,,,,,,,,,,1186.4413477650378,None,,,1189.4576684599742,None,1.5481481481481483,1.3327436950057745,1189.4576684599742,None,,,,,,,1187.4410593720386,None,1187.6244846869959,1187.641029210994,,,,,,,37,001,2023_Feb_28_1140,SpeechDraft1Carolyn_lessNoise_PlusLocalization,2021.2.3,59.99760414262095,
,,,,,,,,midLeft,-13.0,2,ch1Sound_localizationTask.wav,-13.0,"(762, 878)","(-198,-202)",-190,-338,,,,,,,,,,,,,1,0,7,1,,,,,,,,,,,,,,,,,,,,,,,,,,,,,,,,,,,,,,,,1190.7914059360046,None,,,1193.8074944460532,None,1.4058201058201059,0.8663656640565023,1193.8074944460532,None,,,,,,,1191.7911016270518,None,1191.9745557219721,1191.991093129036,,,,,,,37,001,2023_Feb_28_1140,SpeechDraft1Carolyn_lessNoise_PlusLocalization,2021.2.3,59.99760414262095,
,,,,,,,,farLeft,-19.1,5,ch1Sound_localizationTask.wav,-19.1,"(667, 878)","(-293,-202)",-285,-338,,,,,,,,,,,,,1,1,8,0,,,,,,,,,,,,,,,,,,,,,,,,,,,,,,,,,,,,,,,,1194.6913034080062,None,,,1197.7074316800572,None,1.328042328042328,1.2175107420189306,1197.7074316800572,None,,,,,,,1195.6913502960233,None,1195.8743615869898,1195.891105683986,,,,,,,37,001,2023_Feb_28_1140,SpeechDraft1Carolyn_lessNoise_PlusLocalization,2021.2.3,59.99760414262095,
,,,,,,,,midRight,13.0,3,ch1Sound_localizationTask.wav,13.0,"(1142, 878)","(182, -202)",190,-338,,,,,,,,,,,,,1,2,9,5,,,,,,,,,,,,,,,,,,,,,,,,,,,,,,,,,,,,,,,,1198.941409704974,None,,,1201.9577222580556,None,1.5936507936507938,1.6332486100727692,1201.9577222580556,None,,,,,,,1199.941196462023,None,1200.1243535450194,1200.1413181399694,,,,,,,37,001,2023_Feb_28_1140,SpeechDraft1Carolyn_lessNoise_PlusLocalization,2021.2.3,59.99760414262095,
,,,,,,,,farLeft,-19.1,5,ch1Sound_localizationTask.wav,-19.1,"(667, 878)","(-293,-202)",-285,-338,,,,,,,,,,,,,1,3,10,0,,,,,,,,,,,,,,,,,,,,,,,,,,,,,,,,,,,,,,,,1203.591761999065,None,,,1206.607541757985,None,1.3444444444444446,0.8495823540724814,1206.607541757985,None,,,,,,,1204.5912732590223,None,1204.7746853950666,1204.791255329037,,,,,,,37,001,2023_Feb_28_1140,SpeechDraft1Carolyn_lessNoise_PlusLocalization,2021.2.3,59.99760414262095,
,,,,,,,,nearLeft,-6.5,1,ch1Sound_localizationTask.wav,-6.5,"(857, 878)","(-103,-202)",-95,-338,,,,,,,,,,,,,1,4,11,2,,,,,,,,,,,,,,,,,,,,,,,,,,,,,,,,,,,,,,,,1207.4592602100456,None,,,1210.4909558980726,None,1.4481481481481482,1.4991897239815444,1210.4909558980726,None,,,,,,,1208.4744734370615,None,1208.6577800490195,1208.6746004300658,,,,,,,37,001,2023_Feb_28_1140,SpeechDraft1Carolyn_lessNoise_PlusLocalization,2021.2.3,59.99760414262095,
,,,,,,,,nearLeft,-6.5,1,ch1Sound_localizationTask.wav,-6.5,"(857, 878)","(-103,-202)",-95,-338,,,,,,,,,,,,,1,5,12,2,,,,,,,,,,,,,,,,,,,,,,,,,,,,,,,,,,,,,,,,1211.991295979009,None,,,1215.0078791619744,None,1.434920634920635,1.0663669820642099,1215.0078791619744,None,,,,,,,1212.9911317110527,None,1213.1745127330068,1213.1910408040276,,,,,,,37,001,2023_Feb_28_1140,SpeechDraft1Carolyn_lessNoise_PlusLocalization,2021.2.3,59.99760414262095,
,,,,,,,,nearRight,6.5,0,ch1Sound_localizationTask.wav,6.5,"(1047, 878)","(87, -202)",95,-338,,,,,,,,,,,,,1,6,13,4,,,,,,,,,,,,,,,,,,,,,,,,,,,,,,,,,,,,,,,,1216.074742875062,None,,,1219.0907021620078,None,1.5566137566137566,1.3156980170169845,1219.0907021620078,None,,,,,,,1217.0746813680744,None,1217.257783491048,1217.2745972040575,,,,,,,37,001,2023_Feb_28_1140,SpeechDraft1Carolyn_lessNoise_PlusLocalization,2021.2.3,59.99760414262095,
,,,,,,,,midRight,13.0,3,ch1Sound_localizationTask.wav,13.0,"(1142, 878)","(182, -202)",190,-338,,,,,,,,,,,,,2,0,14,5,,,,,,,,,,,,,,,,,,,,,,,,,,,,,,,,,,,,,,,,1220.4080515970709,None,,,1223.4241373080295,None,1.5841269841269843,1.166106624994427,1223.4241373080295,None,,,,,,,1221.4076399230398,None,1221.5912633109838,1221.607825857005,,,,,,,37,001,2023_Feb_28_1140,SpeechDraft1Carolyn_lessNoise_PlusLocalization,2021.2.3,59.99760414262095,
,,,,,,,,center,0.0,6,ch1Sound_localizationTask.wav,0.0,"(952, 878)","(-8,-202)",0,-338,,,,,,,,,,,,,2,1,15,3,,,,,,,,,,,,,,,,,,,,,,,,,,,,,,,,,,,,,,,,1224.5912739520427,None,,,1227.6077407200355,None,1.4936507936507937,1.5825353430118412,1227.6077407200355,None,,,,,,,1225.5914688330377,None,1225.774366909056,1225.7911889540264,,,,,,,37,001,2023_Feb_28_1140,SpeechDraft1Carolyn_lessNoise_PlusLocalization,2021.2.3,59.99760414262095,
,,,,,,,,center,0.0,6,ch1Sound_localizationTask.wav,0.0,"(952, 878)","(-8,-202)",0,-338,,,,,,,,,,,,,2,2,16,3,,,,,,,,,,,,,,,,,,,,,,,,,,,,,,,,,,,,,,,,1229.1914940240094,None,,,1232.2075704419985,None,1.491005291005291,0.8322251330828294,1232.2075704419985,None,,,,,,,1230.191514797043,None,1230.3746290339623,1230.3913347959751,,,,,,,37,001,2023_Feb_28_1140,SpeechDraft1Carolyn_lessNoise_PlusLocalization,2021.2.3,59.99760414262095,
,,,,,,,,nearLeft,-6.5,1,ch1Sound_localizationTask.wav,-6.5,"(857, 878)","(-103,-202)",-95,-338,,,,,,,,,,,,,2,3,17,2,,,,,,,,,,,,,,,,,,,,,,,,,,,,,,,,,,,,,,,,1233.0412716569845,None,,,1236.057650219067,None,1.4476190476190476,1.1324246530421078,1236.057650219067,None,,,,,,,1234.0411350280046,None,1234.2244760530302,1234.2411772330524,,,,,,,37,001,2023_Feb_28_1140,SpeechDraft1Carolyn_lessNoise_PlusLocalization,2021.2.3,59.99760414262095,
,,,,,,,,midRight,13.0,3,ch1Sound_localizationTask.wav,13.0,"(1142, 878)","(182, -202)",190,-338,,,,,,,,,,,,,2,4,18,5,,,,,,,,,,,,,,,,,,,,,,,,,,,,,,,,,,,,,,,,1237.1915957230376,None,,,1240.2078886290547,None,1.566137566137566,1.7656095570418984,1240.2078886290547,None,,,,,,,1238.191320730024,None,1238.3746433070628,1238.391274419031,,,,,,,37,001,2023_Feb_28_1140,SpeechDraft1Carolyn_lessNoise_PlusLocalization,2021.2.3,59.99760414262095,
,,,,,,,,nearRight,6.5,0,ch1Sound_localizationTask.wav,6.5,"(1047, 878)","(87, -202)",95,-338,,,,,,,,,,,,,2,5,19,4,,,,,,,,,,,,,,,,,,,,,,,,,,,,,,,,,,,,,,,,1241.974686163012,None,,,1244.9911534349667,None,1.5423280423280423,1.3832515450194478,1244.9911534349667,None,,,,,,,1242.9746524380753,None,1243.1577333969763,1243.1745425360277,,,,,,,37,001,2023_Feb_28_1140,SpeechDraft1Carolyn_lessNoise_PlusLocalization,2021.2.3,59.99760414262095,
,,,,,,,,midLeft,-13.0,2,ch1Sound_localizationTask.wav,-13.0,"(762, 878)","(-198,-202)",-190,-338,,,,,,,,,,,,,2,6,20,1,,,,,,,,,,,,,,,,,,,,,,,,,,,,,,,,,,,,,,,,1246.3747792689828,None,,,1249.3908896440407,None,1.3698412698412699,1.3508912470424548,1249.3908896440407,None,,,,,,,1247.3744258519728,None,1247.5579734409694,1247.5746416690527,,,,,,,37,001,2023_Feb_28_1140,SpeechDraft1Carolyn_lessNoise_PlusLocalization,2021.2.3,59.99760414262095,
,,,,,,,,center,0.0,6,ch1Sound_localizationTask.wav,0.0,"(952, 878)","(-8,-202)",0,-338,,,,,,,,,,,,,3,0,21,3,,,,,,,,,,,,,,,,,,,,,,,,,,,,,,,,,,,,,,,,1250.7580569710117,None,,,1253.7743088990683,None,1.5195767195767196,2.1818027989938855,1253.7743088990683,None,,,,,,,1251.7580958990147,None,1251.9414968329947,1251.9580129090464,,,,,,,37,001,2023_Feb_28_1140,SpeechDraft1Carolyn_lessNoise_PlusLocalization,2021.2.3,59.99760414262095,
,,,,,,,,midRight,13.0,3,ch1Sound_localizationTask.wav,13.0,"(1142, 878)","(182, -202)",190,-338,,,,,,,,,,,,,3,1,22,5,,,,,,,,,,,,,,,,,,,,,,,,,,,,,,,,,,,,,,,,1255.9581022689817,None,,,1258.9742771850433,None,1.6042328042328042,1.5325800579739735,1258.9742771850433,None,,,,,,,1256.958060903009,None,1257.141382751055,1257.1581114099827,,,,,,,37,001,2023_Feb_28_1140,SpeechDraft1Carolyn_lessNoise_PlusLocalization,2021.2.3,59.99760414262095,
,,,,,,,,farRight,19.1,4,ch1Sound_localizationTask.wav,19.1,"(1237, 878)","(277,-202)",285,-338,,,,,,,,,,,,,3,2,23,6,,,,,,,,,,,,,,,,,,,,,,,,,,,,,,,,,,,,,,,,1260.5087217210094,None,,,1263.524346720078,None,1.632804232804233,1.415634203935042,1263.524346720078,None,,,,,,,1261.5079774389742,None,1261.691292642965,1261.7081299490528,,,,,,,37,001,2023_Feb_28_1140,SpeechDraft1Carolyn_lessNoise_PlusLocalization,2021.2.3,59.99760414262095,
,,,,,,,,farLeft,-19.1,5,ch1Sound_localizationTask.wav,-19.1,"(667, 878)","(-293,-202)",-285,-338,,,,,,,,,,,,,3,3,24,0,,,,,,,,,,,,,,,,,,,,,,,,,,,,,,,,,,,,,,,,1264.9410665240139,None,,,1267.9575532639865,None,1.3587301587301588,1.1336183809908107,1267.9575532639865,None,,,,,,,1265.9410726419883,None,1266.1086032430176,1266.124587945058,,,,,,,37,001,2023_Feb_28_1140,SpeechDraft1Carolyn_lessNoise_PlusLocalization,2021.2.3,59.99760414262095,
,,,,,,,,farRight,19.1,4,ch1Sound_localizationTask.wav,19.1,"(1237, 878)","(277,-202)",285,-338,,,,,,,,,,,,,3,4,25,6,,,,,,,,,,,,,,,,,,,,,,,,,,,,,,,,,,,,,,,,1269.1082540950738,None,,,1272.1243264760124,None,1.6243386243386242,1.2838235859526321,1272.1243264760124,None,,,,,,,1270.1079659130191,None,1270.2911446100334,1270.3080066440161,,,,,,,37,001,2023_Feb_28_1140,SpeechDraft1Carolyn_lessNoise_PlusLocalization,2021.2.3,59.99760414262095,
,,,,,,,,midRight,13.0,3,ch1Sound_localizationTask.wav,13.0,"(1142, 878)","(182, -202)",190,-338,,,,,,,,,,,,,3,5,26,5,,,,,,,,,,,,,,,,,,,,,,,,,,,,,,,,,,,,,,,,1273.4250843679765,None,,,1276.4411681550555,None,1.5835978835978834,0.5832272219704464,1276.4411681550555,None,,,,,,,1274.4245146600297,None,1274.6079714440275,1274.6244475409621,,,,,,,37,001,2023_Feb_28_1140,SpeechDraft1Carolyn_lessNoise_PlusLocalization,2021.2.3,59.99760414262095,
,,,,,,,,farLeft,-19.1,5,ch1Sound_localizationTask.wav,-19.1,"(667, 878)","(-293,-202)",-285,-338,,,,,,,,,,,,,3,6,27,0,,,,,,,,,,,,,,,,,,,,,,,,,,,,,,,,,,,,,,,,1277.0414293400245,None,,,1280.0581463630078,None,1.3592592592592592,0.8508307940792292,1280.0581463630078,None,,,,,,,1278.0411840690067,None,1278.2246845200425,1278.2412384969648,,,,,,,37,001,2023_Feb_28_1140,SpeechDraft1Carolyn_lessNoise_PlusLocalization,2021.2.3,59.99760414262095,
,,,,,,,,farRight,19.1,4,ch1Sound_localizationTask.wav,19.1,"(1237, 878)","(277,-202)",285,-338,,,,,,,,,,,,,4,0,28,6,,,,,,,,,,,,,,,,,,,,,,,,,,,,,,,,,,,,,,,,1280.9247777910205,None,,,1283.9411181330215,None,1.6264550264550266,1.2343776859343052,1283.9411181330215,None,,,,,,,1281.9249396950472,None,1282.1080542330164,1282.124863923993,,,,,,,37,001,2023_Feb_28_1140,SpeechDraft1Carolyn_lessNoise_PlusLocalization,2021.2.3,59.99760414262095,
,,,,,,,,midLeft,-13.0,2,ch1Sound_localizationTask.wav,-13.0,"(762, 878)","(-198,-202)",-190,-338,,,,,,,,,,,,,4,1,29,1,,,,,,,,,,,,,,,,,,,,,,,,,,,,,,,,,,,,,,,,1285.1915015319828,None,,,1288.2079007140128,None,1.378835978835979,0.7995198230491951,1288.2079007140128,None,,,,,,,1286.1922718710266,None,1286.3750386560569,1286.3918143489864,,,,,,,37,001,2023_Feb_28_1140,SpeechDraft1Carolyn_lessNoise_PlusLocalization,2021.2.3,59.99760414262095,
,,,,,,,,midLeft,-13.0,2,ch1Sound_localizationTask.wav,-13.0,"(762, 878)","(-198,-202)",-190,-338,,,,,,,,,,,,,4,2,30,1,,,,,,,,,,,,,,,,,,,,,,,,,,,,,,,,,,,,,,,,1289.024840436061,None,,,1292.0412834080635,None,1.403174603174603,0.8996918990742415,1292.0412834080635,None,,,,,,,1290.0248588440008,None,1290.2079254550627,1290.2246667309664,,,,,,,37,001,2023_Feb_28_1140,SpeechDraft1Carolyn_lessNoise_PlusLocalization,2021.2.3,59.99760414262095,
,,,,,,,,nearRight,6.5,0,ch1Sound_localizationTask.wav,6.5,"(1047, 878)","(87, -202)",95,-338,,,,,,,,,,,,,4,3,31,4,,,,,,,,,,,,,,,,,,,,,,,,,,,,,,,,,,,,,,,,1292.9580844090087,None,,,1295.9743968970142,None,1.5560846560846562,0.7667909519514069,1295.9743968970142,None,,,,,,,1293.9580786370207,None,1294.141623054049,1294.157805757015,,,,,,,37,001,2023_Feb_28_1140,SpeechDraft1Carolyn_lessNoise_PlusLocalization,2021.2.3,59.99760414262095,
,,,,,,,,midLeft,-13.0,2,ch1Sound_localizationTask.wav,-13.0,"(762, 878)","(-198,-202)",-190,-338,,,,,,,,,,,,,4,4,32,1,,,,,,,,,,,,,,,,,,,,,,,,,,,,,,,,,,,,,,,,1296.7577523529762,None,,,1299.7743343190523,None,1.4010582010582011,0.7667080130195245,1299.7743343190523,None,,,,,,,1297.758183632046,None,1297.9413116869982,1297.9580251809675,,,,,,,37,001,2023_Feb_28_1140,SpeechDraft1Carolyn_lessNoise_PlusLocalization,2021.2.3,59.99760414262095,
,,,,,,,,center,0.0,6,ch1Sound_localizationTask.wav,0.0,"(952, 878)","(-8,-202)",0,-338,,,,,,,,,,,,,4,5,33,3,,,,,,,,,,,,,,,,,,,,,,,,,,,,,,,,,,,,,,,,1300.5582217510091,None,,,1303.574324892019,None,1.4973544973544972,0.7495676469989121,1303.574324892019,None,,,,,,,1301.5579952660482,None,1301.7414984389907,1301.7583073939895,,,,,,,37,001,2023_Feb_28_1140,SpeechDraft1Carolyn_lessNoise_PlusLocalization,2021.2.3,59.99760414262095,
,,,,,,,,farLeft,-19.1,5,ch1Sound_localizationTask.wav,-19.1,"(667, 878)","(-293,-202)",-285,-338,,,,,,,,,,,,,4,6,34,0,,,,,,,,,,,,,,,,,,,,,,,,,,,,,,,,,,,,,,,,1304.324788263999,None,,,1307.341116391006,None,1.335978835978836,0.7830598279833794,1307.341116391006,None,,,,,,,1305.3250499350252,None,1305.508166456013,1305.5247112680227,,,,,,,37,001,2023_Feb_28_1140,SpeechDraft1Carolyn_lessNoise_PlusLocalization,2021.2.3,59.99760414262095,
,,,,,,,,farLeft,-19.1,5,ch1Sound_localizationTask.wav,-19.1,"(667, 878)","(-293,-202)",-285,-338,,,,,,,,,,,,,5,0,35,0,,,,,,,,,,,,,,,,,,,,,,,,,,,,,,,,,,,,,,,,1308.142969531007,None,,,1311.1748275930295,None,1.3761904761904762,1.1607563570141792,1311.1748275930295,None,,,,,,,1309.158192908042,None,1309.3417998600053,1309.3580579550471,,,,,,,37,001,2023_Feb_28_1140,SpeechDraft1Carolyn_lessNoise_PlusLocalization,2021.2.3,59.99760414262095,
,,,,,,,,midRight,13.0,3,ch1Sound_localizationTask.wav,13.0,"(1142, 878)","(182, -202)",190,-338,,,,,,,,,,,,,5,1,36,5,,,,,,,,,,,,,,,,,,,,,,,,,,,,,,,,,,,,,,,,1312.3425135529833,None,,,1315.374570947024,None,1.5989417989417989,0.8295488629955798,1315.374570947024,None,,,,,,,1313.3578056880506,None,1313.5413791369647,1313.557922963053,,,,,,,37,001,2023_Feb_28_1140,SpeechDraft1Carolyn_lessNoise_PlusLocalization,2021.2.3,59.99760414262095,
,,,,,,,,nearLeft,-6.5,1,ch1Sound_localizationTask.wav,-6.5,"(857, 878)","(-103,-202)",-95,-338,,,,,,,,,,,,,5,2,37,2,,,,,,,,,,,,,,,,,,,,,,,,,,,,,,,,,,,,,,,,1316.208120631054,None,,,1319.2246095750015,None,1.4354497354497355,1.0820882678963244,1319.2246095750015,None,,,,,,,1317.2082000829978,None,1317.3912973230472,1317.4078893230762,,,,,,,37,001,2023_Feb_28_1140,SpeechDraft1Carolyn_lessNoise_PlusLocalization,2021.2.3,59.99760414262095,
,,,,,,,,center,0.0,6,ch1Sound_localizationTask.wav,0.0,"(952, 878)","(-8,-202)",0,-338,,,,,,,,,,,,,5,3,38,3,,,,,,,,,,,,,,,,,,,,,,,,,,,,,,,,,,,,,,,,1320.3097990680253,None,,,1323.3409704130609,None,1.5010582010582012,0.7331117369467393,1323.3409704130609,None,,,,,,,1321.3245762540027,None,1321.508071106975,1321.5247495620279,,,,,,,37,001,2023_Feb_28_1140,SpeechDraft1Carolyn_lessNoise_PlusLocalization,2021.2.3,59.99760414262095,
,,,,,,,,nearLeft,-6.5,1,ch1Sound_localizationTask.wav,-6.5,"(857, 878)","(-103,-202)",-95,-338,,,,,,,,,,,,,5,4,39,2,,,,,,,,,,,,,,,,,,,,,,,,,,,,,,,,,,,,,,,,1324.0750835620565,None,,,1327.0908846700331,None,1.4291005291005292,0.8154366369126365,1327.0908846700331,None,,,,,,,1325.0749318019953,None,1325.2581366279628,1325.274903506972,,,,,,,37,001,2023_Feb_28_1140,SpeechDraft1Carolyn_lessNoise_PlusLocalization,2021.2.3,59.99760414262095,
,,,,,,,,center,0.0,6,ch1Sound_localizationTask.wav,0.0,"(952, 878)","(-8,-202)",0,-338,,,,,,,,,,,,,5,5,40,3,,,,,,,,,,,,,,,,,,,,,,,,,,,,,,,,,,,,,,,,1327.908581058029,None,,,1330.9243917940184,None,1.5164021164021164,0.7993486919440329,1330.9243917940184,None,,,,,,,1328.9079199000262,None,1329.0913758210372,1329.1079199779779,,,,,,,37,001,2023_Feb_28_1140,SpeechDraft1Carolyn_lessNoise_PlusLocalization,2021.2.3,59.99760414262095,
,,,,,,,,midLeft,-13.0,2,ch1Sound_localizationTask.wav,-13.0,"(762, 878)","(-198,-202)",-190,-338,,,,,,,,,,,,,5,6,41,1,,,,,,,,,,,,,,,,,,,,,,,,,,,,,,,,,,,,,,,,1331.7247538630618,None,,,1334.741057118983,None,1.3724867724867724,0.7167970080627128,1334.741057118983,None,,,,,,,1332.724659046973,None,1332.9082247610204,1332.9246572050033,,,,,,,37,001,2023_Feb_28_1140,SpeechDraft1Carolyn_lessNoise_PlusLocalization,2021.2.3,59.99760414262095,
,,,,,,,,nearRight,6.5,0,ch1Sound_localizationTask.wav,6.5,"(1047, 878)","(87, -202)",95,-338,,,,,,,,,,,,,6,0,42,4,,,,,,,,,,,,,,,,,,,,,,,,,,,,,,,,,,,,,,,,1335.4745698210318,None,,,1338.4911633849842,None,1.5518518518518518,0.6825860779499635,1338.4911633849842,None,,,,,,,1336.4749653550098,None,1336.65823301801,1336.674785510986,,,,,,,37,001,2023_Feb_28_1140,SpeechDraft1Carolyn_lessNoise_PlusLocalization,2021.2.3,59.99760414262095,
,,,,,,,,farLeft,-19.1,5,ch1Sound_localizationTask.wav,-19.1,"(667, 878)","(-293,-202)",-285,-338,,,,,,,,,,,,,6,1,43,0,,,,,,,,,,,,,,,,,,,,,,,,,,,,,,,,,,,,,,,,1339.174953585025,None,,,1342.1910288550425,None,1.3211640211640212,1.017421669093892,1342.1910288550425,None,,,,,,,1340.1745054930216,None,1340.3582240970572,1340.3746026880108,,,,,,,37,001,2023_Feb_28_1140,SpeechDraft1Carolyn_lessNoise_PlusLocalization,2021.2.3,59.99760414262095,
,,,,,,,,farLeft,-19.1,5,ch1Sound_localizationTask.wav,-19.1,"(667, 878)","(-293,-202)",-285,-338,,,,,,,,,,,,,6,2,44,0,,,,,,,,,,,,,,,,,,,,,,,,,,,,,,,,,,,,,,,,1343.2249161860673,None,,,1346.2411629600683,None,1.3566137566137566,1.3338500760728493,1346.2411629600683,None,,,,,,,1344.224850701983,None,1344.4080643890193,1344.4248411119916,,,,,,,37,001,2023_Feb_28_1140,SpeechDraft1Carolyn_lessNoise_PlusLocalization,2021.2.3,59.99760414262095,
,,,,,,,,midRight,13.0,3,ch1Sound_localizationTask.wav,13.0,"(1142, 878)","(182, -202)",190,-338,,,,,,,,,,,,,6,3,45,5,,,,,,,,,,,,,,,,,,,,,,,,,,,,,,,,,,,,,,,,1347.5755688420031,None,,,1350.5911025800742,None,1.5952380952380953,0.98265707900282,1350.5911025800742,None,,,,,,,1348.5748090910492,None,1348.7581583190477,1348.7748343399726,,,,,,,37,001,2023_Feb_28_1140,SpeechDraft1Carolyn_lessNoise_PlusLocalization,2021.2.3,59.99760414262095,
,,,,,,,,nearRight,6.5,0,ch1Sound_localizationTask.wav,6.5,"(1047, 878)","(87, -202)",95,-338,,,,,,,,,,,,,6,4,46,4,,,,,,,,,,,,,,,,,,,,,,,,,,,,,,,,,,,,,,,,1351.5755322750192,None,,,1354.5912159120198,None,1.5476190476190477,1.1996157699031755,1354.5912159120198,None,,,,,,,1352.5747961830348,None,1352.7579877519747,1352.7747326500248,,,,,,,37,001,2023_Feb_28_1140,SpeechDraft1Carolyn_lessNoise_PlusLocalization,2021.2.3,59.99760414262095,
,,,,,,,,farRight,19.1,4,ch1Sound_localizationTask.wav,19.1,"(1237, 878)","(277,-202)",285,-338,,,,,,,,,,,,,6,5,47,6,,,,,,,,,,,,,,,,,,,,,,,,,,,,,,,,,,,,,,,,1355.7915953539778,None,,,1358.8078487319872,None,1.657142857142857,0.8331637110095471,1358.8078487319872,None,,,,,,,1356.7914352250518,None,1356.974889100995,1356.9915041100467,,,,,,,37,001,2023_Feb_28_1140,SpeechDraft1Carolyn_lessNoise_PlusLocalization,2021.2.3,59.99760414262095,
,,,,,,,,midLeft,-13.0,2,ch1Sound_localizationTask.wav,-13.0,"(762, 878)","(-198,-202)",-190,-338,,,,,,,,,,,,,6,6,48,1,,,,,,,,,,,,,,,,,,,,,,,,,,,,,,,,,,,,,,,,1359.6416866540676,None,,,1362.6578079790343,None,1.4158730158730157,0.8171635860344395,1362.6578079790343,None,,,,,,,1360.6413899899926,None,1360.8248166979756,1360.8414680120768,,,,,,,37,001,2023_Feb_28_1140,SpeechDraft1Carolyn_lessNoise_PlusLocalization,2021.2.3,59.99760414262095,
,,,,,,,,farRight,19.1,4,ch1Sound_localizationTask.wav,19.1,"(1237, 878)","(277,-202)",285,-338,,,,,,,,,,,,,7,0,49,6,,,,,,,,,,,,,,,,,,,,,,,,,,,,,,,,,,,,,,,,1363.4912887020037,None,,,1366.5076719190693,None,1.6354497354497355,1.08286801003851,1366.5076719190693,None,,,,,,,1364.4915083140368,None,1364.674928523018,1364.6913702930324,,,,,,,37,001,2023_Feb_28_1140,SpeechDraft1Carolyn_lessNoise_PlusLocalization,2021.2.3,59.99760414262095,
,,,,,,,,midRight,13.0,3,ch1Sound_localizationTask.wav,13.0,"(1142, 878)","(182, -202)",190,-338,,,,,,,,,,,,,7,1,50,5,,,,,,,,,,,,,,,,,,,,,,,,,,,,,,,,,,,,,,,,1367.5923058280023,None,,,1370.6078218739713,None,1.5783068783068783,1.3152161471080035,1370.6078218739713,None,,,,,,,1368.591396859032,None,1368.7747307830723,1368.7914784019813,,,,,,,37,001,2023_Feb_28_1140,SpeechDraft1Carolyn_lessNoise_PlusLocalization,2021.2.3,59.99760414262095,
,,,,,,,,center,0.0,6,ch1Sound_localizationTask.wav,0.0,"(952, 878)","(-8,-202)",0,-338,,,,,,,,,,,,,7,2,51,3,,,,,,,,,,,,,,,,,,,,,,,,,,,,,,,,,,,,,,,,1371.9250480349874,None,,,1374.9408930169884,None,1.4798941798941798,0.8671083229128271,1374.9408930169884,None,,,,,,,1372.92482529697,None,1373.1079847780056,1373.1248114890186,,,,,,,37,001,2023_Feb_28_1140,SpeechDraft1Carolyn_lessNoise_PlusLocalization,2021.2.3,59.99760414262095,
,,,,,,,,farRight,19.1,4,ch1Sound_localizationTask.wav,19.1,"(1237, 878)","(277,-202)",285,-338,,,,,,,,,,,,,7,3,52,6,,,,,,,,,,,,,,,,,,,,,,,,,,,,,,,,,,,,,,,,1375.8249456940684,None,,,1378.8411441900535,None,1.6428571428571428,1.0154352829558775,1378.8411441900535,None,,,,,,,1376.824692670023,None,1377.008135930053,1377.0248598459875,,,,,,,37,001,2023_Feb_28_1140,SpeechDraft1Carolyn_lessNoise_PlusLocalization,2021.2.3,59.99760414262095,
,,,,,,,,nearRight,6.5,0,ch1Sound_localizationTask.wav,6.5,"(1047, 878)","(87, -202)",95,-338,,,,,,,,,,,,,7,4,53,4,,,,,,,,,,,,,,,,,,,,,,,,,,,,,,,,,,,,,,,,1379.8582467850065,None,,,1382.8744463589974,None,1.5497354497354499,0.9982163009699434,1382.8744463589974,None,,,,,,,1380.858333389042,None,1381.0412711240351,1381.0580729619833,,,,,,,37,001,2023_Feb_28_1140,SpeechDraft1Carolyn_lessNoise_PlusLocalization,2021.2.3,59.99760414262095,
,,,,,,,,nearLeft,-6.5,1,ch1Sound_localizationTask.wav,-6.5,"(857, 878)","(-103,-202)",-95,-338,,,,,,,,,,,,,7,5,54,2,,,,,,,,,,,,,,,,,,,,,,,,,,,,,,,,,,,,,,,,1383.8749296760652,None,,,1386.8913022889756,None,1.4677248677248678,1.0665069319074973,1386.8913022889756,None,,,,,,,1384.8746179779992,None,1385.058249933063,1385.0748623630498,,,,,,,37,001,2023_Feb_28_1140,SpeechDraft1Carolyn_lessNoise_PlusLocalization,2021.2.3,59.99760414262095,
,,,,,,,,farRight,19.1,4,ch1Sound_localizationTask.wav,19.1,"(1237, 878)","(277,-202)",285,-338,,,,,,,,,,,,,7,6,55,6,,,,,,,,,,,,,,,,,,,,,,,,,,,,,,,,,,,,,,,,1387.9751029249746,None,,,1390.9910982169677,None,1.6407407407407408,1.149740549037233,1390.9910982169677,None,,,,,,,1388.9748945920728,None,1389.1582316519925,1389.1749954069965,,,,,,,37,001,2023_Feb_28_1140,SpeechDraft1Carolyn_lessNoise_PlusLocalization,2021.2.3,59.99760414262095,
,,,,,,,,,,,,,,,,,,,,,,,,,,,,,,,,,,,,,,,,,,,,,,,,,,,,,,,,,,,,,,,,,,,,,,,,,,,,,,,,,,,,,,,,,,,,1392.1420768060489,None,c,525.4003425419796,1393.124891648069,None,37,001,2023_Feb_28_1140,SpeechDraft1Carolyn_lessNoise_PlusLocalization,2021.2.3,59.99760414262095,
