Audio_Only_Files,Video_Files,Original_Word_List,noiseLevelCode,conditionCodes,noiseLevelFile1,noiseLevelFile2,InstrTextVar,practiceTrials.thisRepN,practiceTrials.thisTrialN,practiceTrials.thisN,practiceTrials.thisIndex,trials.thisRepN,trials.thisTrialN,trials.thisN,trials.thisIndex,letsGoAlready.keys,letsGoAlready.rt,letsGoAlready.started,letsGoAlready.stopped,text_2.started,text_2.stopped,text_3.started,text_3.stopped,key_resp_2.keys,key_resp_2.rt,key_resp_2.started,key_resp_2.stopped,text_5.started,text_5.stopped,fixCross.started,fixCross.stopped,fixCross2.started,fixCross2.stopped,answerPrompt.started,answerPrompt.stopped,getAnswer.text,getAnswer.started,getAnswer.stopped,goToNext.keys,goToNext.rt,goToNext.started,goToNext.stopped,stretchBreakTxrt.started,stretchBreakTxrt.stopped,key_resp_3.keys,key_resp_3.rt,key_resp_3.started,key_resp_3.stopped,exitTxt.started,exitTxt.stopped,key_resp.keys,key_resp.rt,key_resp.started,key_resp.stopped,participant,session,date,expName,psychopyVersion,frameRate,
,,,,,,,,,,,,,,,,space,1.7402483238838613,9.195635011186823,None,,,,,,,,,,,,,,,,,,,,,,,,,,,,,,,,,,,,3,001,2022_Dec_01_1748,SpeechDraft1Carolyn_lessNoise,2021.2.3,60.26806200458548,
,,,,,,,,,,,,,,,,,,,,9.195635011186823,None,10.962653987109661,None,space,0.8057898271363229,11.146066102199256,None,,,,,,,,,,,,,,,,,,,,,,,,,,,,3,001,2022_Dec_01_1748,SpeechDraft1Carolyn_lessNoise,2021.2.3,60.26806200458548,
ash.wav,ash.mpg,ash,1,A,Pink_Noise_1_1.wav,Pink_Noise_1_2.wav,"This is an example of an

AUDIO trial",0,0,0,0,,,,,,,,,,,,,,,,,11.996053069131449,None,12.995977448066697,None,15.078734243055806,None,16.445939714089036,None,ash,16.445939714089036,None,return,5.438674755161628,16.529272079002112,None,,,,,,,,,,,,,3,001,2022_Dec_01_1748,SpeechDraft1Carolyn_lessNoise,2021.2.3,60.26806200458548,
ash.wav,ash.mpg,ash,1,AV,Pink_Noise_1_1.wav,Pink_Noise_1_2.wav,"This is an example of an

AUDIO + VIDEO  trial",0,1,1,1,,,,,,,,,,,,,,,,,22.011804692214355,None,23.012654956197366,None,24.512832393171266,None,25.895994796184823,None,"ash
",25.895994796184823,None,return,76.08426806912757,25.979591441107914,None,,,,,,,,,,,,,3,001,2022_Dec_01_1748,SpeechDraft1Carolyn_lessNoise,2021.2.3,60.26806200458548,
,,,,,,,,,,,,,,,,,,,,,,,,,,,,,,,,,,,,,,,,,,,102.11298663611524,None,space,2.448139267973602,102.29583326214924,None,,,,,,,3,001,2022_Dec_01_1748,SpeechDraft1Carolyn_lessNoise,2021.2.3,60.26806200458548,
crowd.wav,crowd.mpg,crowd,6,AV,Pink_Noise_6_1.wav,Pink_Noise_6_2.wav,,,,,,0,0,0,62,,,,,,,,,,,,,,,104.79602259304374,None,106.31215894012712,None,107.69609363819472,None,crowd,107.69609363819472,None,return,8.188651528209448,107.77928751916625,None,,,,,,,,,,,,,3,001,2022_Dec_01_1748,SpeechDraft1Carolyn_lessNoise,2021.2.3,60.26806200458548,
client.wav,client.mpg,client,6,A,Pink_Noise_6_1.wav,Pink_Noise_6_2.wav,,,,,,0,1,1,9,,,,,,,,,,,,,,,115.99608122906648,None,117.52876790100709,None,118.91234188806266,None,orange,118.91234188806266,None,return,2.307492721127346,118.99639810109511,None,,,,,,,,,,,,,3,001,2022_Dec_01_1748,SpeechDraft1Carolyn_lessNoise,2021.2.3,60.26806200458548,
toast.wav,toast.mpg,toast,5,A,Pink_Noise_5_1.wav,Pink_Noise_5_2.wav,,,,,,0,2,2,20,,,,,,,,,,,,,,,121.32975176814944,None,122.8460691741202,None,124.22950412612408,None,"toast
",124.22950412612408,None,return,1.7836545938625932,124.31220734701492,None,,,,,,,,,,,,,3,001,2022_Dec_01_1748,SpeechDraft1Carolyn_lessNoise,2021.2.3,60.26806200458548,
cup.wav,cup.mpg,cup,1,A,Pink_Noise_1_1.wav,Pink_Noise_1_2.wav,,,,,,0,3,3,12,,,,,,,,,,,,,,,126.12911547208205,None,127.62902379804291,None,129.01308913109824,None,"cip
",129.01308913109824,None,return,1.319631634047255,129.09619783307426,None,,,,,,,,,,,,,3,001,2022_Dec_01_1748,SpeechDraft1Carolyn_lessNoise,2021.2.3,60.26806200458548,
bow.wav,bow.mpg,bow,6,A,Pink_Noise_6_1.wav,Pink_Noise_6_2.wav,,,,,,0,4,4,54,,,,,,,,,,,,,,,130.44634033506736,None,131.99531733314507,None,133.37979213008657,None,bye,133.37979213008657,None,return,2.6247685719281435,133.46306048100814,None,,,,,,,,,,,,,3,001,2022_Dec_01_1748,SpeechDraft1Carolyn_lessNoise,2021.2.3,60.26806200458548,
guide.wav,guide.mpg,guide,1,AV,Pink_Noise_1_1.wav,Pink_Noise_1_2.wav,,,,,,0,5,5,82,,,,,,,,,,,,,,,136.11268482520245,None,137.64546498004347,None,139.02956897718832,None,"guide
",139.02956897718832,None,return,2.5826798509806395,139.11317875003442,None,,,,,,,,,,,,,3,001,2022_Dec_01_1748,SpeechDraft1Carolyn_lessNoise,2021.2.3,60.26806200458548,
drag.wav,drag.mpg,drag,4,AV,Pink_Noise_4_1.wav,Pink_Noise_4_2.wav,,,,,,0,6,6,83,,,,,,,,,,,,,,,141.72940305317752,None,143.2296252611559,None,144.61258432106115,None,"drag
",144.61258432106115,None,return,5.703746984014288,144.69621021905914,None,,,,,,,,,,,,,3,001,2022_Dec_01_1748,SpeechDraft1Carolyn_lessNoise,2021.2.3,60.26806200458548,
champ.wav,champ.mpg,champ,2,AV,Pink_Noise_2_1.wav,Pink_Noise_2_2.wav,,,,,,0,7,7,64,,,,,,,,,,,,,,,150.43016704102047,None,151.946242014179,None,153.34531881916337,None,champ,153.34531881916337,None,return,2.3550523379817605,153.41287374822423,None,,,,,,,,,,,,,3,001,2022_Dec_01_1748,SpeechDraft1Carolyn_lessNoise,2021.2.3,60.26806200458548,
blood.wav,blood.mpg,blood,4,AV,Pink_Noise_4_1.wav,Pink_Noise_4_2.wav,,,,,,0,8,8,79,,,,,,,,,,,,,,,155.79583543911576,None,157.329102067044,None,158.71224941918626,None,blood,158.71224941918626,None,return,2.259410731960088,158.796444386011,None,,,,,,,,,,,,,3,001,2022_Dec_01_1748,SpeechDraft1Carolyn_lessNoise,2021.2.3,60.26806200458548,
fly.wav,fly.mpg,fly,4,AV,Pink_Noise_4_1.wav,Pink_Noise_4_2.wav,,,,,,0,9,9,84,,,,,,,,,,,,,,,161.07911358308047,None,162.59569045621902,None,163.96311402507126,None,lime,163.96311402507126,None,return,4.849868966965005,164.04608811601065,None,,,,,,,,,,,,,3,001,2022_Dec_01_1748,SpeechDraft1Carolyn_lessNoise,2021.2.3,60.26806200458548,
gloom.wav,gloom.mpg,gloom,4,A,Pink_Noise_4_1.wav,Pink_Noise_4_2.wav,,,,,,0,10,10,23,,,,,,,,,,,,,,,168.91255572321825,None,170.41254104021937,None,171.79603830212727,None,glue,171.79603830212727,None,return,2.912295602960512,171.87958774506114,None,,,,,,,,,,,,,3,001,2022_Dec_01_1748,SpeechDraft1Carolyn_lessNoise,2021.2.3,60.26806200458548,
curse.wav,curse.mpg,curse,2,A,Pink_Noise_2_1.wav,Pink_Noise_2_2.wav,,,,,,0,11,11,53,,,,,,,,,,,,,,,174.81281300121918,None,176.3457501390949,None,177.72943676402792,None,curse,177.72943676402792,None,return,2.3231301431078464,177.81288150302134,None,,,,,,,,,,,,,3,001,2022_Dec_01_1748,SpeechDraft1Carolyn_lessNoise,2021.2.3,60.26806200458548,
oats.wav,oats.mpg,oats,6,A,Pink_Noise_6_1.wav,Pink_Noise_6_2.wav,,,,,,0,12,12,34,,,,,,,,,,,,,,,180.16275384719484,None,181.67894178605638,None,183.04650456621312,None,ant,183.04650456621312,None,return,2.414402727968991,183.12951465602964,None,,,,,,,,,,,,,3,001,2022_Dec_01_1748,SpeechDraft1Carolyn_lessNoise,2021.2.3,60.26806200458548,
buy.wav,buy.mpg,buy,5,A,Pink_Noise_5_1.wav,Pink_Noise_5_2.wav,,,,,,0,13,13,18,,,,,,,,,,,,,,,185.562194542028,None,187.07885200809687,None,188.46286956011318,None,bye,188.46286956011318,None,return,2.757581915007904,188.5462898311671,None,,,,,,,,,,,,,3,001,2022_Dec_01_1748,SpeechDraft1Carolyn_lessNoise,2021.2.3,60.26806200458548,
fruit.wav,fruit.mpg,fruit,5,AV,Pink_Noise_5_1.wav,Pink_Noise_5_2.wav,,,,,,0,14,14,78,,,,,,,,,,,,,,,191.32971516810358,None,192.89598677912727,None,194.27900922717527,None,fruit,194.27900922717527,None,return,2.428824398899451,194.3630407960154,None,,,,,,,,,,,,,3,001,2022_Dec_01_1748,SpeechDraft1Carolyn_lessNoise,2021.2.3,60.26806200458548,
smack.wav,smack.mpg,smack,1,A,Pink_Noise_1_1.wav,Pink_Noise_1_2.wav,,,,,,0,15,15,1,,,,,,,,,,,,,,,196.8127002811525,None,198.31235268618912,None,199.6966453541536,None,"smack
",199.6966453541536,None,return,2.052832528948784,199.7790252182167,None,,,,,,,,,,,,,3,001,2022_Dec_01_1748,SpeechDraft1Carolyn_lessNoise,2021.2.3,60.26806200458548,
slick.wav,slick.mpg,slick,2,A,Pink_Noise_2_1.wav,Pink_Noise_2_2.wav,,,,,,0,16,16,37,,,,,,,,,,,,,,,201.86284046806395,None,203.3624718640931,None,204.74575282400474,None,slick,204.74575282400474,None,return,2.5226992710959166,204.82929580518976,None,,,,,,,,,,,,,3,001,2022_Dec_01_1748,SpeechDraft1Carolyn_lessNoise,2021.2.3,60.26806200458548,
crime.wav,crime.mpg,crime,5,A,Pink_Noise_5_1.wav,Pink_Noise_5_2.wav,,,,,,0,17,17,40,,,,,,,,,,,,,,,207.3797537870705,None,208.87919930019416,None,210.26230745203793,None,crime,210.26230745203793,None,return,2.0374808630440384,210.34634178108536,None,,,,,,,,,,,,,3,001,2022_Dec_01_1748,SpeechDraft1Carolyn_lessNoise,2021.2.3,60.26806200458548,
cent.wav,cent.mpg,cent,3,A,Pink_Noise_3_1.wav,Pink_Noise_3_2.wav,,,,,,0,18,18,30,,,,,,,,,,,,,,,212.41246228315867,None,213.92927688616328,None,215.3129414662253,None,"set
",215.3129414662253,None,return,2.4039190758485347,215.39595871511847,None,,,,,,,,,,,,,3,001,2022_Dec_01_1748,SpeechDraft1Carolyn_lessNoise,2021.2.3,60.26806200458548,
clay.wav,clay.mpg,clay,6,A,Pink_Noise_6_1.wav,Pink_Noise_6_2.wav,,,,,,0,19,19,22,,,,,,,,,,,,,,,217.82944957306609,None,219.32980977906846,None,220.71292665204965,None,..,220.71292665204965,None,return,8.395654676947743,220.79619869822636,None,,,,,,,,,,,,,3,001,2022_Dec_01_1748,SpeechDraft1Carolyn_lessNoise,2021.2.3,60.26806200458548,
clash.wav,clash.mpg,clash,1,A,Pink_Noise_1_1.wav,Pink_Noise_1_2.wav,,,,,,0,20,20,33,,,,,,,,,,,,,,,229.21309376507998,None,230.71252150507644,None,232.09663929603994,None,"clash
",232.09663929603994,None,return,2.100081376032904,232.17978079710156,None,,,,,,,,,,,,,3,001,2022_Dec_01_1748,SpeechDraft1Carolyn_lessNoise,2021.2.3,60.26806200458548,
beach.wav,beach.mpg,beach,6,AV,Pink_Noise_6_1.wav,Pink_Noise_6_2.wav,,,,,,0,21,21,109,,,,,,,,,,,,,,,234.31253669806756,None,235.84541512303986,None,237.22915787505917,None,beach,237.22915787505917,None,return,2.982744931941852,237.3131515351124,None,,,,,,,,,,,,,3,001,2022_Dec_01_1748,SpeechDraft1Carolyn_lessNoise,2021.2.3,60.26806200458548,
cheat.wav,cheat.mpg,cheat,2,AV,Pink_Noise_2_1.wav,Pink_Noise_2_2.wav,,,,,,0,22,22,70,,,,,,,,,,,,,,,240.31325837317854,None,241.82927717105485,None,243.21297015622258,None,cheat,243.21297015622258,None,return,1.9754461930133402,243.29639533301815,None,,,,,,,,,,,,,3,001,2022_Dec_01_1748,SpeechDraft1Carolyn_lessNoise,2021.2.3,60.26806200458548,
swamp.wav,swamp.mpg,swamp,6,AV,Pink_Noise_6_1.wav,Pink_Noise_6_2.wav,,,,,,0,23,23,63,,,,,,,,,,,,,,,245.29636061610654,None,246.81207504007034,None,248.19603954115883,None,swam,248.19603954115883,None,return,3.0168855611700565,248.2791297880467,None,,,,,,,,,,,,,3,001,2022_Dec_01_1748,SpeechDraft1Carolyn_lessNoise,2021.2.3,60.26806200458548,
cleft.wav,cleft.mpg,cleft,5,AV,Pink_Noise_5_1.wav,Pink_Noise_5_2.wav,,,,,,0,24,24,115,,,,,,,,,,,,,,,251.31269355420955,None,252.84641906106845,None,254.22954034013674,None,"clef
",254.22954034013674,None,return,6.1669787431601435,254.3128863919992,None,,,,,,,,,,,,,3,001,2022_Dec_01_1748,SpeechDraft1Carolyn_lessNoise,2021.2.3,60.26806200458548,
cross.wav,cross.mpg,cross,4,A,Pink_Noise_4_1.wav,Pink_Noise_4_2.wav,,,,,,0,25,25,51,,,,,,,,,,,,,,,260.5128779341467,None,262.0125455020461,None,263.3963116721716,None,cross,263.3963116721716,None,return,1.632213429082185,263.4797667940147,None,,,,,,,,,,,,,3,001,2022_Dec_01_1748,SpeechDraft1Carolyn_lessNoise,2021.2.3,60.26806200458548,
gate.wav,gate.mpg,gate,4,AV,Pink_Noise_4_1.wav,Pink_Noise_4_2.wav,,,,,,0,26,26,89,,,,,,,,,,,,,,,265.12944417702965,None,266.6634540420491,None,268.0464696402196,None,"gate
",268.0464696402196,None,return,1.4700075150467455,268.12985780113377,None,,,,,,,,,,,,,3,001,2022_Dec_01_1748,SpeechDraft1Carolyn_lessNoise,2021.2.3,60.26806200458548,
dune.wav,dune.mpg,dune,2,AV,Pink_Noise_2_1.wav,Pink_Noise_2_2.wav,,,,,,0,27,27,104,,,,,,,,,,,,,,,269.62948676920496,None,271.1295575720724,None,272.5130609890912,None,doom,272.5130609890912,None,return,1.579382322030142,272.59647508803755,None,,,,,,,,,,,,,3,001,2022_Dec_01_1748,SpeechDraft1Carolyn_lessNoise,2021.2.3,60.26806200458548,
fur.wav,fur.mpg,fur,5,AV,Pink_Noise_5_1.wav,Pink_Noise_5_2.wav,,,,,,0,28,28,88,,,,,,,,,,,,,,,274.1963251112029,None,275.7121456961613,None,277.0961064440198,None,fur,277.0961064440198,None,return,1.9801290819887072,277.1797929261811,None,,,,,,,,,,,,,3,001,2022_Dec_01_1748,SpeechDraft1Carolyn_lessNoise,2021.2.3,60.26806200458548,
axe.wav,axe.mpg,axe,6,AV,Pink_Noise_6_1.wav,Pink_Noise_6_2.wav,,,,,,0,29,29,65,,,,,,,,,,,,,,,279.17950344411656,None,280.6956406731624,None,282.06251764204353,None,ask,282.06251764204353,None,return,1.5734884210396558,282.1463863500394,None,,,,,,,,,,,,,3,001,2022_Dec_01_1748,SpeechDraft1Carolyn_lessNoise,2021.2.3,60.26806200458548,
skull.wav,skull.mpg,skull,4,AV,Pink_Noise_4_1.wav,Pink_Noise_4_2.wav,,,,,,0,30,30,94,,,,,,,,,,,,,,,283.74659829214215,None,285.2465174451936,None,286.6295260011684,None,scall,286.6295260011684,None,return,8.783575240988284,286.71239668806084,None,,,,,,,,,,,,,3,001,2022_Dec_01_1748,SpeechDraft1Carolyn_lessNoise,2021.2.3,60.26806200458548,
clean.wav,clean.mpg,clean,6,A,Pink_Noise_6_1.wav,Pink_Noise_6_2.wav,,,,,,0,31,31,0,,,,,,,,,,,,,,,295.51265760022216,None,297.0131236521993,None,298.3966247320641,None,me,298.3966247320641,None,return,5.960041461978108,298.4798078951426,None,,,,,,,,,,,,,3,001,2022_Dec_01_1748,SpeechDraft1Carolyn_lessNoise,2021.2.3,60.26806200458548,
bag.wav,bag.mpg,bag,4,A,Pink_Noise_4_1.wav,Pink_Noise_4_2.wav,,,,,,0,32,32,17,,,,,,,,,,,,,,,304.4626366661396,None,305.9625070190523,None,307.34614911605604,None,egg,307.34614911605604,None,return,2.3946884120814502,307.42919037421234,None,,,,,,,,,,,,,3,001,2022_Dec_01_1748,SpeechDraft1Carolyn_lessNoise,2021.2.3,60.26806200458548,
swayed.wav,swayed.mpg,swayed,2,AV,Pink_Noise_2_1.wav,Pink_Noise_2_2.wav,,,,,,0,33,33,86,,,,,,,,,,,,,,,309.84576548519544,None,311.3794566881843,None,312.76308257319033,None,swade,312.76308257319033,None,return,5.449809782905504,312.8462356470991,None,,,,,,,,,,,,,3,001,2022_Dec_01_1748,SpeechDraft1Carolyn_lessNoise,2021.2.3,60.26806200458548,
blend.wav,blend.mpg,blend,1,AV,Pink_Noise_1_1.wav,Pink_Noise_1_2.wav,,,,,,0,34,34,73,,,,,,,,,,,,,,,318.31261512613855,None,319.84602529206313,None,321.2294145000633,None,blend,321.2294145000633,None,return,1.8547800909727812,321.3131235372275,None,,,,,,,,,,,,,3,001,2022_Dec_01_1748,SpeechDraft1Carolyn_lessNoise,2021.2.3,60.26806200458548,
crane.wav,crane.mpg,crane,3,AV,Pink_Noise_3_1.wav,Pink_Noise_3_2.wav,,,,,,0,35,35,61,,,,,,,,,,,,,,,323.19670053804293,None,324.7290847550612,None,326.0964197090361,None,"crang
",326.0964197090361,None,return,2.4518041049595922,326.1800533900969,None,,,,,,,,,,,,,3,001,2022_Dec_01_1748,SpeechDraft1Carolyn_lessNoise,2021.2.3,60.26806200458548,
bleak.wav,bleak.mpg,bleak,5,A,Pink_Noise_5_1.wav,Pink_Noise_5_2.wav,,,,,,0,36,36,38,,,,,,,,,,,,,,,328.66295729600824,None,330.1629809560254,None,331.5461963871494,None,"leak
",331.5461963871494,None,return,1.834658520994708,331.6292009621393,None,,,,,,,,,,,,,3,001,2022_Dec_01_1748,SpeechDraft1Carolyn_lessNoise,2021.2.3,60.26806200458548,
blunt.wav,blunt.mpg,blunt,6,AV,Pink_Noise_6_1.wav,Pink_Noise_6_2.wav,,,,,,0,37,37,112,,,,,,,,,,,,,,,333.49682350014336,None,335.01296599418856,None,336.39663964905776,None,blunt,336.39663964905776,None,return,3.623839353909716,336.4801072110422,None,,,,,,,,,,,,,3,001,2022_Dec_01_1748,SpeechDraft1Carolyn_lessNoise,2021.2.3,60.26806200458548,
phase.wav,phase.mpg,phase,1,A,Pink_Noise_1_1.wav,Pink_Noise_1_2.wav,,,,,,0,38,38,19,,,,,,,,,,,,,,,340.1296663021203,None,341.6632710720878,None,343.04634488001466,None,"phase
",343.04634488001466,None,return,2.134419919922948,343.12943842611276,None,,,,,,,,,,,,,3,001,2022_Dec_01_1748,SpeechDraft1Carolyn_lessNoise,2021.2.3,60.26806200458548,
blimp.wav,blimp.mpg,blimp,6,AV,Pink_Noise_6_1.wav,Pink_Noise_6_2.wav,,,,,,0,39,39,97,,,,,,,,,,,,,,,345.296688367147,None,346.81294473819435,None,348.1791630561929,None,blimp,348.1791630561929,None,return,2.0726754958741367,348.26330900820903,None,,,,,,,,,,,,,3,001,2022_Dec_01_1748,SpeechDraft1Carolyn_lessNoise,2021.2.3,60.26806200458548,
layer.wav,layer.mpg,layer,2,A,Pink_Noise_2_1.wav,Pink_Noise_2_2.wav,,,,,,0,40,40,26,,,,,,,,,,,,,,,350.36304384307005,None,351.8797599452082,None,353.2630585231818,None,"layer
",353.2630585231818,None,return,2.685841643018648,353.3460341230966,None,,,,,,,,,,,,,3,001,2022_Dec_01_1748,SpeechDraft1Carolyn_lessNoise,2021.2.3,60.26806200458548,
brain.wav,brain.mpg,brain,1,A,Pink_Noise_1_1.wav,Pink_Noise_1_2.wav,,,,,,0,41,41,24,,,,,,,,,,,,,,,356.06345976819284,None,357.57974791014567,None,358.9463326910045,None,"brain
",358.9463326910045,None,return,1.633725426858291,359.0300711640157,None,,,,,,,,,,,,,3,001,2022_Dec_01_1748,SpeechDraft1Carolyn_lessNoise,2021.2.3,60.26806200458548,
thrown.wav,thrown.mpg,thrown,5,A,Pink_Noise_5_1.wav,Pink_Noise_5_2.wav,,,,,,0,42,42,5,,,,,,,,,,,,,,,360.69625680008903,None,362.1963166950736,None,363.579869733192,None,"grow
",363.579869733192,None,return,2.800981610780582,363.66287501808256,None,,,,,,,,,,,,,3,001,2022_Dec_01_1748,SpeechDraft1Carolyn_lessNoise,2021.2.3,60.26806200458548,
fist.wav,fist.mpg,fist,5,A,Pink_Noise_5_1.wav,Pink_Noise_5_2.wav,,,,,,0,43,43,48,,,,,,,,,,,,,,,366.4966811181512,None,368.029713741038,None,369.41313266404904,None,pinch,369.41313266404904,None,return,10.22305790707469,369.4968706900254,None,,,,,,,,,,,,,3,001,2022_Dec_01_1748,SpeechDraft1Carolyn_lessNoise,2021.2.3,60.26806200458548,
grow.wav,grow.mpg,grow,6,A,Pink_Noise_6_1.wav,Pink_Noise_6_2.wav,,,,,,0,44,44,43,,,,,,,,,,,,,,,379.74604489305057,None,381.24653143109754,None,382.62972970400006,None,..,382.62972970400006,None,return,8.542642154032364,382.71321558509953,None,,,,,,,,,,,,,3,001,2022_Dec_01_1748,SpeechDraft1Carolyn_lessNoise,2021.2.3,60.26806200458548,
box.wav,box.mpg,box,6,A,Pink_Noise_6_1.wav,Pink_Noise_6_2.wav,,,,,,0,45,45,21,,,,,,,,,,,,,,,391.2801510391291,None,392.7794151341077,None,394.1633890180383,None,fox,394.1633890180383,None,return,1.865508192917332,394.24646190414205,None,,,,,,,,,,,,,3,001,2022_Dec_01_1748,SpeechDraft1Carolyn_lessNoise,2021.2.3,60.26806200458548,
cramp.wav,cramp.mpg,cramp,2,AV,Pink_Noise_2_1.wav,Pink_Noise_2_2.wav,,,,,,0,46,46,105,,,,,,,,,,,,,,,396.1300829842221,None,397.6462764320895,None,399.0293307311367,None,"cramp
",399.0293307311367,None,return,1.6872858260758221,399.11256995704025,None,,,,,,,,,,,,,3,001,2022_Dec_01_1748,SpeechDraft1Carolyn_lessNoise,2021.2.3,60.26806200458548,
fate.wav,fate.mpg,fate,4,A,Pink_Noise_4_1.wav,Pink_Noise_4_2.wav,,,,,,0,47,47,45,,,,,,,,,,,,,,,400.83000083314255,None,402.34643935319036,None,403.7130824071355,None,"fate
",403.7130824071355,None,return,1.3869880388956517,403.7968610620592,None,,,,,,,,,,,,,3,001,2022_Dec_01_1748,SpeechDraft1Carolyn_lessNoise,2021.2.3,60.26806200458548,
den.wav,den.mpg,den,6,AV,Pink_Noise_6_1.wav,Pink_Noise_6_2.wav,,,,,,0,48,48,114,,,,,,,,,,,,,,,405.21320289815776,None,406.7122645471245,None,408.09626639122143,None,gal,408.09626639122143,None,return,6.500342112034559,408.17953384504654,None,,,,,,,,,,,,,3,001,2022_Dec_01_1748,SpeechDraft1Carolyn_lessNoise,2021.2.3,60.26806200458548,
fluent.wav,fluent.mpg,fluent,5,A,Pink_Noise_5_1.wav,Pink_Noise_5_2.wav,,,,,,0,49,49,14,,,,,,,,,,,,,,,414.6964412771631,None,416.22962221107446,None,417.6134000911843,None,food,417.6134000911843,None,return,3.111410772893578,417.69647333119065,None,,,,,,,,,,,,,3,001,2022_Dec_01_1748,SpeechDraft1Carolyn_lessNoise,2021.2.3,60.26806200458548,
grant.wav,grant.mpg,grant,2,A,Pink_Noise_2_1.wav,Pink_Noise_2_2.wav,,,,,,0,50,50,10,,,,,,,,,,,,,,,420.8295995660592,None,422.32978670019656,None,423.71301878313534,None,"grant
",423.71301878313534,None,return,4.019831361016259,423.79603809304535,None,,,,,,,,,,,,,3,001,2022_Dec_01_1748,SpeechDraft1Carolyn_lessNoise,2021.2.3,60.26806200458548,
built.wav,built.mpg,built,3,AV,Pink_Noise_3_1.wav,Pink_Noise_3_2.wav,,,,,,0,51,51,107,,,,,,,,,,,,,,,427.8466569671873,None,429.34605346107855,None,430.7296078170184,None,built,430.7296078170184,None,return,1.4745057080872357,430.8133566461038,None,,,,,,,,,,,,,3,001,2022_Dec_01_1748,SpeechDraft1Carolyn_lessNoise,2021.2.3,60.26806200458548,
claw.wav,claw.mpg,claw,1,AV,Pink_Noise_1_1.wav,Pink_Noise_1_2.wav,,,,,,0,52,52,95,,,,,,,,,,,,,,,432.3126194071956,None,433.84624323109165,None,435.2291983391624,None,claw,435.2291983391624,None,return,3.310447704978287,435.3134076441638,None,,,,,,,,,,,,,3,001,2022_Dec_01_1748,SpeechDraft1Carolyn_lessNoise,2021.2.3,60.26806200458548,
tense.wav,tense.mpg,tense,1,AV,Pink_Noise_1_1.wav,Pink_Noise_1_2.wav,,,,,,0,53,53,75,,,,,,,,,,,,,,,438.64645588910207,None,440.1624487082008,None,441.54676122404635,None,tense,441.54676122404635,None,return,1.641614458989352,441.6302528011147,None,,,,,,,,,,,,,3,001,2022_Dec_01_1748,SpeechDraft1Carolyn_lessNoise,2021.2.3,60.26806200458548,
crate.wav,crate.mpg,crate,2,A,Pink_Noise_2_1.wav,Pink_Noise_2_2.wav,,,,,,0,54,54,11,,,,,,,,,,,,,,,443.29681905009784,None,444.79639154020697,None,446.17990796803497,None,crate,446.17990796803497,None,return,1.5124026739504188,446.26340947812423,None,,,,,,,,,,,,,3,001,2022_Dec_01_1748,SpeechDraft1Carolyn_lessNoise,2021.2.3,60.26806200458548,
chill.wav,chill.mpg,chill,5,A,Pink_Noise_5_1.wav,Pink_Noise_5_2.wav,,,,,,0,55,55,46,,,,,,,,,,,,,,,447.79623114923015,None,449.29623524216004,None,450.67991255712695,None,chill,450.67991255712695,None,return,1.1325822081416845,450.76337774214335,None,,,,,,,,,,,,,3,001,2022_Dec_01_1748,SpeechDraft1Carolyn_lessNoise,2021.2.3,60.26806200458548,
fuse.wav,fuse.mpg,fuse,3,A,Pink_Noise_3_1.wav,Pink_Noise_3_2.wav,,,,,,0,56,56,7,,,,,,,,,,,,,,,451.913090987131,None,453.4299813201651,None,454.8128753011115,None,"fuse
",454.8128753011115,None,return,1.5354766040109098,454.89639900508337,None,,,,,,,,,,,,,3,001,2022_Dec_01_1748,SpeechDraft1Carolyn_lessNoise,2021.2.3,60.26806200458548,
teen.wav,teen.mpg,teen,3,AV,Pink_Noise_3_1.wav,Pink_Noise_3_2.wav,,,,,,0,57,57,110,,,,,,,,,,,,,,,456.46346206218004,None,457.97937661223114,None,459.3629324550275,None,tea,459.3629324550275,None,return,1.2737528861034662,459.44609322817996,None,,,,,,,,,,,,,3,001,2022_Dec_01_1748,SpeechDraft1Carolyn_lessNoise,2021.2.3,60.26806200458548,
coil.wav,coil.mpg,coil,5,AV,Pink_Noise_5_1.wav,Pink_Noise_5_2.wav,,,,,,0,58,58,113,,,,,,,,,,,,,,,460.746330072172,None,462.2629813151434,None,463.6462523220107,None,coil,463.6462523220107,None,return,1.5261723371222615,463.7297314382158,None,,,,,,,,,,,,,3,001,2022_Dec_01_1748,SpeechDraft1Carolyn_lessNoise,2021.2.3,60.26806200458548,
mold.wav,mold.mpg,mold,3,AV,Pink_Noise_3_1.wav,Pink_Noise_3_2.wav,,,,,,0,59,59,119,,,,,,,,,,,,,,,465.27977311820723,None,466.79582882113755,None,468.1799097310286,None,bald,468.1799097310286,None,return,1.624575168825686,468.26328217820264,None,,,,,,,,,,,,,3,001,2022_Dec_01_1748,SpeechDraft1Carolyn_lessNoise,2021.2.3,60.26806200458548,
brand.wav,brand.mpg,brand,4,AV,Pink_Noise_4_1.wav,Pink_Noise_4_2.wav,,,,,,0,60,60,111,,,,,,,,,,,,,,,469.9134134291671,None,471.41311734123155,None,472.79611406102777,None,brand,472.79611406102777,None,return,1.0641719161067158,472.87975120008923,None,,,,,,,,,,,,,3,001,2022_Dec_01_1748,SpeechDraft1Carolyn_lessNoise,2021.2.3,60.26806200458548,
flea.wav,flea.mpg,flea,2,AV,Pink_Noise_2_1.wav,Pink_Noise_2_2.wav,,,,,,0,61,61,80,,,,,,,,,,,,,,,473.96331003215164,None,475.47980021103285,None,476.8465865950566,None,"flea
",476.8465865950566,None,return,2.23817861196585,476.929699576227,None,,,,,,,,,,,,,3,001,2022_Dec_01_1748,SpeechDraft1Carolyn_lessNoise,2021.2.3,60.26806200458548,
bunch.wav,bunch.mpg,bunch,4,A,Pink_Noise_4_1.wav,Pink_Noise_4_2.wav,,,,,,0,62,62,3,,,,,,,,,,,,,,,479.1964968421962,None,480.69624547613785,None,482.0802942351438,None,bunch,482.0802942351438,None,return,1.732443894026801,482.16351750912145,None,,,,,,,,,,,,,3,001,2022_Dec_01_1748,SpeechDraft1Carolyn_lessNoise,2021.2.3,60.26806200458548,
bet.wav,bet.mpg,bet,2,AV,Pink_Noise_2_1.wav,Pink_Noise_2_2.wav,,,,,,0,63,63,108,,,,,,,,,,,,,,,483.91366539220326,None,485.4457971351221,None,486.8295230001677,None,bat,486.8295230001677,None,return,1.406587976962328,486.9133725191932,None,,,,,,,,,,,,,3,001,2022_Dec_01_1748,SpeechDraft1Carolyn_lessNoise,2021.2.3,60.26806200458548,
bound.wav,bound.mpg,bound,1,A,Pink_Noise_1_1.wav,Pink_Noise_1_2.wav,,,,,,0,64,64,27,,,,,,,,,,,,,,,488.34623771207407,None,489.84604209219106,None,491.22994779702276,None,bound,491.22994779702276,None,return,1.3581991659011692,491.31365652102977,None,,,,,,,,,,,,,3,001,2022_Dec_01_1748,SpeechDraft1Carolyn_lessNoise,2021.2.3,60.26806200458548,
fowl.wav,fowl.mpg,fowl,5,AV,Pink_Noise_5_1.wav,Pink_Noise_5_2.wav,,,,,,0,65,65,68,,,,,,,,,,,,,,,492.6967607680708,None,494.22984924307093,None,495.6130062881857,None,found,495.6130062881857,None,return,3.9913756060414016,495.69650637102313,None,,,,,,,,,,,,,3,001,2022_Dec_01_1748,SpeechDraft1Carolyn_lessNoise,2021.2.3,60.26806200458548,
nine.wav,nine.mpg,nine,6,A,Pink_Noise_6_1.wav,Pink_Noise_6_2.wav,,,,,,0,66,66,50,,,,,,,,,,,,,,,499.71291257604025,None,501.2132352772169,None,502.5965482192114,None,"climb
",502.5965482192114,None,return,2.0001081079244614,502.6798009790946,None,,,,,,,,,,,,,3,001,2022_Dec_01_1748,SpeechDraft1Carolyn_lessNoise,2021.2.3,60.26806200458548,
grown.wav,grown.mpg,grown,3,A,Pink_Noise_3_1.wav,Pink_Noise_3_2.wav,,,,,,0,67,67,25,,,,,,,,,,,,,,,504.71366554219276,None,506.26326813711785,None,507.64674603403546,None,grow,507.64674603403546,None,return,1.3578674299642444,507.73001749813557,None,,,,,,,,,,,,,3,001,2022_Dec_01_1748,SpeechDraft1Carolyn_lessNoise,2021.2.3,60.26806200458548,
curve.wav,curve.mpg,curve,1,AV,Pink_Noise_1_1.wav,Pink_Noise_1_2.wav,,,,,,0,68,68,118,,,,,,,,,,,,,,,509.11367953009903,None,510.63024205109105,None,512.0128503781743,None,curve,512.0128503781743,None,return,1.5914198390673846,512.0964282790665,None,,,,,,,,,,,,,3,001,2022_Dec_01_1748,SpeechDraft1Carolyn_lessNoise,2021.2.3,60.26806200458548,
grape.wav,grape.mpg,grape,1,A,Pink_Noise_1_1.wav,Pink_Noise_1_2.wav,,,,,,0,69,69,55,,,,,,,,,,,,,,,513.7134880081285,None,515.2298887041397,None,516.6133405081928,None,grpae,516.6133405081928,None,return,1.2792068589478731,516.696699768072,None,,,,,,,,,,,,,3,001,2022_Dec_01_1748,SpeechDraft1Carolyn_lessNoise,2021.2.3,60.26806200458548,
tank.wav,tank.mpg,tank,1,A,Pink_Noise_1_1.wav,Pink_Noise_1_2.wav,,,,,,0,70,70,16,,,,,,,,,,,,,,,517.9962397951167,None,519.4966502641328,None,520.8799640610814,None,tank,520.8799640610814,None,return,1.3968290339689702,520.9630361220334,None,,,,,,,,,,,,,3,001,2022_Dec_01_1748,SpeechDraft1Carolyn_lessNoise,2021.2.3,60.26806200458548,
grail.wav,grail.mpg,grail,1,AV,Pink_Noise_1_1.wav,Pink_Noise_1_2.wav,,,,,,0,71,71,99,,,,,,,,,,,,,,,522.3801139050629,None,523.9138449542224,None,525.2960356920958,None,gill,525.2960356920958,None,return,1.228041616966948,525.3798221840989,None,,,,,,,,,,,,,3,001,2022_Dec_01_1748,SpeechDraft1Carolyn_lessNoise,2021.2.3,60.26806200458548,
dusk.wav,dusk.mpg,dusk,3,A,Pink_Noise_3_1.wav,Pink_Noise_3_2.wav,,,,,,0,72,72,41,,,,,,,,,,,,,,,526.6296111780684,None,528.1461244451348,None,529.5302313352004,None,dusk,529.5302313352004,None,return,2.370575023116544,529.613300746074,None,,,,,,,,,,,,,3,001,2022_Dec_01_1748,SpeechDraft1Carolyn_lessNoise,2021.2.3,60.26806200458548,
earn.wav,earn.mpg,earn,4,A,Pink_Noise_4_1.wav,Pink_Noise_4_2.wav,,,,,,0,73,73,56,,,,,,,,,,,,,,,532.0137689372059,None,533.512736860197,None,534.8968566220719,None,earth,534.8968566220719,None,return,1.7719716159626842,534.9799470340367,None,,,,,,,,,,,,,3,001,2022_Dec_01_1748,SpeechDraft1Carolyn_lessNoise,2021.2.3,60.26806200458548,
green.wav,green.mpg,green,3,AV,Pink_Noise_3_1.wav,Pink_Noise_3_2.wav,,,,,,0,74,74,71,,,,,,,,,,,,,,,536.7794404511806,None,538.313323821174,None,539.6967973602004,None,"green
",539.6967973602004,None,return,1.452100357040763,539.7797504360788,None,,,,,,,,,,,,,3,001,2022_Dec_01_1748,SpeechDraft1Carolyn_lessNoise,2021.2.3,60.26806200458548,
chalk.wav,chalk.mpg,chalk,5,A,Pink_Noise_5_1.wav,Pink_Noise_5_2.wav,,,,,,0,75,75,59,,,,,,,,,,,,,,,541.2629459300078,None,542.7629117760807,None,544.1468612800818,None,"chonk
",544.1468612800818,None,return,4.170261187013239,544.2296099672094,None,,,,,,,,,,,,,3,001,2022_Dec_01_1748,SpeechDraft1Carolyn_lessNoise,2021.2.3,60.26806200458548,
foot.wav,foot.mpg,foot,3,AV,Pink_Noise_3_1.wav,Pink_Noise_3_2.wav,,,,,,0,76,76,102,,,,,,,,,,,,,,,548.4295968310907,None,549.9469385822304,None,551.3298806881066,None,foot,551.3298806881066,None,return,1.4666163760703057,551.4133298890665,None,,,,,,,,,,,,,3,001,2022_Dec_01_1748,SpeechDraft1Carolyn_lessNoise,2021.2.3,60.26806200458548,
cloth.wav,cloth.mpg,cloth,4,AV,Pink_Noise_4_1.wav,Pink_Noise_4_2.wav,,,,,,0,77,77,69,,,,,,,,,,,,,,,552.8967531260569,None,554.3965635970235,None,555.7800153680146,None,cloth,555.7800153680146,None,return,1.5281268921680748,555.8637553511653,None,,,,,,,,,,,,,3,001,2022_Dec_01_1748,SpeechDraft1Carolyn_lessNoise,2021.2.3,60.26806200458548,
grunt.wav,grunt.mpg,grunt,6,AV,Pink_Noise_6_1.wav,Pink_Noise_6_2.wav,,,,,,0,78,78,117,,,,,,,,,,,,,,,557.4132026170846,None,558.9300589601044,None,560.3136603571475,None,grut,560.3136603571475,None,return,3.898963197134435,560.3969885362312,None,,,,,,,,,,,,,3,001,2022_Dec_01_1748,SpeechDraft1Carolyn_lessNoise,2021.2.3,60.26806200458548,
clam.wav,clam.mpg,clam,3,A,Pink_Noise_3_1.wav,Pink_Noise_3_2.wav,,,,,,0,79,79,52,,,,,,,,,,,,,,,564.3137157110032,None,565.8300884151831,None,567.1963167130016,None,clam,567.1963167130016,None,return,1.6794743190985173,567.2804412830155,None,,,,,,,,,,,,,3,001,2022_Dec_01_1748,SpeechDraft1Carolyn_lessNoise,2021.2.3,60.26806200458548,
fund.wav,fund.mpg,fund,5,AV,Pink_Noise_5_1.wav,Pink_Noise_5_2.wav,,,,,,0,80,80,91,,,,,,,,,,,,,,,568.9800828241277,None,570.4963546912186,None,571.8794500241056,None,"find
",571.8794500241056,None,return,2.4045730219222605,571.9632960800081,None,,,,,,,,,,,,,3,001,2022_Dec_01_1748,SpeechDraft1Carolyn_lessNoise,2021.2.3,60.26806200458548,
glide.wav,glide.mpg,glide,3,A,Pink_Noise_3_1.wav,Pink_Noise_3_2.wav,,,,,,0,81,81,13,,,,,,,,,,,,,,,574.3964973532129,None,575.8969002920203,None,577.280141538009,None,glide,577.280141538009,None,return,1.7244469460565597,577.363417128101,None,,,,,,,,,,,,,3,001,2022_Dec_01_1748,SpeechDraft1Carolyn_lessNoise,2021.2.3,60.26806200458548,
check.wav,check.mpg,check,2,A,Pink_Noise_2_1.wav,Pink_Noise_2_2.wav,,,,,,0,82,82,42,,,,,,,,,,,,,,,579.1133676911704,None,580.6130967270583,None,581.9971816102043,None,check,581.9971816102043,None,return,1.527888922020793,582.0799692010041,None,,,,,,,,,,,,,3,001,2022_Dec_01_1748,SpeechDraft1Carolyn_lessNoise,2021.2.3,60.26806200458548,
bench.wav,bench.mpg,bench,1,AV,Pink_Noise_1_1.wav,Pink_Noise_1_2.wav,,,,,,0,83,83,106,,,,,,,,,,,,,,,583.6298565820325,None,585.1636007430498,None,586.5465652060229,None,"bench
",586.5465652060229,None,return,1.201547710923478,586.6303159771487,None,,,,,,,,,,,,,3,001,2022_Dec_01_1748,SpeechDraft1Carolyn_lessNoise,2021.2.3,60.26806200458548,
dove.wav,dove.mpg,dove,3,A,Pink_Noise_3_1.wav,Pink_Noise_3_2.wav,,,,,,0,84,84,28,,,,,,,,,,,,,,,587.8637316131499,None,589.3794504161924,None,590.7634989260696,None,"dove
",590.7634989260696,None,return,1.3369671939872205,590.8468124500941,None,,,,,,,,,,,,,3,001,2022_Dec_01_1748,SpeechDraft1Carolyn_lessNoise,2021.2.3,60.26806200458548,
die.wav,die.mpg,die,5,A,Pink_Noise_5_1.wav,Pink_Noise_5_2.wav,,,,,,0,85,85,15,,,,,,,,,,,,,,,592.2126685990952,None,593.7130850991234,None,595.0963478770573,None,..,595.0963478770573,None,return,5.012090123957023,595.1798164241482,None,,,,,,,,,,,,,3,001,2022_Dec_01_1748,SpeechDraft1Carolyn_lessNoise,2021.2.3,60.26806200458548,
cold.wav,cold.mpg,cold,5,AV,Pink_Noise_5_1.wav,Pink_Noise_5_2.wav,,,,,,0,86,86,67,,,,,,,,,,,,,,,600.2135559250601,None,601.7298878452275,None,603.1130677661858,None,cold,603.1130677661858,None,return,1.0747392119374126,603.1971077132039,None,,,,,,,,,,,,,3,001,2022_Dec_01_1748,SpeechDraft1Carolyn_lessNoise,2021.2.3,60.26806200458548,
damn.wav,damn.mpg,damn,5,AV,Pink_Noise_5_1.wav,Pink_Noise_5_2.wav,,,,,,0,87,87,74,,,,,,,,,,,,,,,604.2964797341265,None,605.8129224861041,None,607.1963423921261,None,damp,607.1963423921261,None,return,1.3439395788591355,607.2799120310228,None,,,,,,,,,,,,,3,001,2022_Dec_01_1748,SpeechDraft1Carolyn_lessNoise,2021.2.3,60.26806200458548,
sake.wav,sake.mpg,sake,5,AV,Pink_Noise_5_1.wav,Pink_Noise_5_2.wav,,,,,,0,88,88,81,,,,,,,,,,,,,,,608.6466145741288,None,610.162615358131,None,611.5469885480125,None,sink,611.5469885480125,None,return,1.465799236902967,611.630140859168,None,,,,,,,,,,,,,3,001,2022_Dec_01_1748,SpeechDraft1Carolyn_lessNoise,2021.2.3,60.26806200458548,
fine.wav,fine.mpg,fine,1,AV,Pink_Noise_1_1.wav,Pink_Noise_1_2.wav,,,,,,0,89,89,72,,,,,,,,,,,,,,,613.1129927760921,None,614.6300862310454,None,616.0134099961724,None,"fine
",616.0134099961724,None,return,1.8870559378992766,616.0968397632241,None,,,,,,,,,,,,,3,001,2022_Dec_01_1748,SpeechDraft1Carolyn_lessNoise,2021.2.3,60.26806200458548,
bad.wav,bad.mpg,bad,1,AV,Pink_Noise_1_1.wav,Pink_Noise_1_2.wav,,,,,,0,90,90,92,,,,,,,,,,,,,,,618.0136518310755,None,619.5129060451873,None,620.8963555460796,None,"bad
",620.8963555460796,None,return,1.2679465990513563,620.9798960681073,None,,,,,,,,,,,,,3,001,2022_Dec_01_1748,SpeechDraft1Carolyn_lessNoise,2021.2.3,60.26806200458548,
nice.wav,nice.mpg,nice,2,AV,Pink_Noise_2_1.wav,Pink_Noise_2_2.wav,,,,,,0,91,91,96,,,,,,,,,,,,,,,622.2800917671993,None,623.8132043611258,None,625.196868956089,None,"nice
",625.196868956089,None,return,1.1676361658610404,625.2802254250273,None,,,,,,,,,,,,,3,001,2022_Dec_01_1748,SpeechDraft1Carolyn_lessNoise,2021.2.3,60.26806200458548,
cloak.wav,cloak.mpg,cloak,2,A,Pink_Noise_2_1.wav,Pink_Noise_2_2.wav,,,,,,0,92,92,4,,,,,,,,,,,,,,,626.4804150061682,None,627.9796100861859,None,629.3627952651586,None,cloak,629.3627952651586,None,return,4.089266418013722,629.4466728530824,None,,,,,,,,,,,,,3,001,2022_Dec_01_1748,SpeechDraft1Carolyn_lessNoise,2021.2.3,60.26806200458548,
solve.wav,solve.mpg,solve,4,A,Pink_Noise_4_1.wav,Pink_Noise_4_2.wav,,,,,,0,93,93,57,,,,,,,,,,,,,,,633.5638510230929,None,635.0632682621945,None,636.4469597700518,None,saolve,636.4469597700518,None,return,1.8054729797877371,636.5304564461112,None,,,,,,,,,,,,,3,001,2022_Dec_01_1748,SpeechDraft1Carolyn_lessNoise,2021.2.3,60.26806200458548,
eel.wav,eel.mpg,eel,2,A,Pink_Noise_2_1.wav,Pink_Noise_2_2.wav,,,,,,0,94,94,44,,,,,,,,,,,,,,,638.3636648491956,None,639.8636070070788,None,641.2467298060656,None,be you,641.2467298060656,None,return,8.39822706207633,641.3297862911131,None,,,,,,,,,,,,,3,001,2022_Dec_01_1748,SpeechDraft1Carolyn_lessNoise,2021.2.3,60.26806200458548,
blink.wav,blink.mpg,blink,3,A,Pink_Noise_3_1.wav,Pink_Noise_3_2.wav,,,,,,0,95,95,35,,,,,,,,,,,,,,,649.7473393450491,None,651.2964097391814,None,652.6803252431564,None,"blink
",652.6803252431564,None,return,1.683960644993931,652.7638980010524,None,,,,,,,,,,,,,3,001,2022_Dec_01_1748,SpeechDraft1Carolyn_lessNoise,2021.2.3,60.26806200458548,
crawl.wav,crawl.mpg,crawl,3,A,Pink_Noise_3_1.wav,Pink_Noise_3_2.wav,,,,,,0,96,96,29,,,,,,,,,,,,,,,654.4801273630001,None,655.9802062450908,None,657.3640029970556,None,crawl,657.3640029970556,None,return,1.7290389728732407,657.4468448101543,None,,,,,,,,,,,,,3,001,2022_Dec_01_1748,SpeechDraft1Carolyn_lessNoise,2021.2.3,60.26806200458548,
mars.wav,mars.mpg,mars,2,A,Pink_Noise_2_1.wav,Pink_Noise_2_2.wav,,,,,,0,97,97,49,,,,,,,,,,,,,,,659.1971747400239,None,660.7129249600694,None,662.096960458206,None,"mars
",662.096960458206,None,return,1.220322695095092,662.1795433040243,None,,,,,,,,,,,,,3,001,2022_Dec_01_1748,SpeechDraft1Carolyn_lessNoise,2021.2.3,60.26806200458548,
cab.wav,cab.mpg,cab,1,A,Pink_Noise_1_1.wav,Pink_Noise_1_2.wav,,,,,,0,98,98,2,,,,,,,,,,,,,,,663.4301912661176,None,664.9303995980881,None,666.3135698291007,None,"cab
",666.3135698291007,None,return,1.2664952578488737,666.3973569350783,None,,,,,,,,,,,,,3,001,2022_Dec_01_1748,SpeechDraft1Carolyn_lessNoise,2021.2.3,60.26806200458548,
bless.wav,bless.mpg,bless,3,A,Pink_Noise_3_1.wav,Pink_Noise_3_2.wav,,,,,,0,99,99,39,,,,,,,,,,,,,,,667.6971481521614,None,669.2306727550458,None,670.6135064451955,None,bless,670.6135064451955,None,return,1.0791902518831193,670.6966651980765,None,,,,,,,,,,,,,3,001,2022_Dec_01_1748,SpeechDraft1Carolyn_lessNoise,2021.2.3,60.26806200458548,
gift.wav,gift.mpg,gift,4,AV,Pink_Noise_4_1.wav,Pink_Noise_4_2.wav,,,,,,0,100,100,66,,,,,,,,,,,,,,,671.7966402100865,None,673.3127180770971,None,674.6965767741203,None,"gift
",674.6965767741203,None,return,2.0835254539269954,674.7803247920237,None,,,,,,,,,,,,,3,001,2022_Dec_01_1748,SpeechDraft1Carolyn_lessNoise,2021.2.3,60.26806200458548,
grade.wav,grade.mpg,grade,2,AV,Pink_Noise_2_1.wav,Pink_Noise_2_2.wav,,,,,,0,101,101,101,,,,,,,,,,,,,,,676.8961956421845,None,678.4127952430863,None,679.7968242540956,None,grade,679.7968242540956,None,return,1.1119886511005461,679.879881630186,None,,,,,,,,,,,,,3,001,2022_Dec_01_1748,SpeechDraft1Carolyn_lessNoise,2021.2.3,60.26806200458548,
fog.wav,fog.mpg,fog,1,AV,Pink_Noise_1_1.wav,Pink_Noise_1_2.wav,,,,,,0,102,102,103,,,,,,,,,,,,,,,681.0133863470983,None,682.5298308101483,None,683.9131647991017,None,fog,683.9131647991017,None,return,1.338953937869519,683.9970232010819,None,,,,,,,,,,,,,3,001,2022_Dec_01_1748,SpeechDraft1Carolyn_lessNoise,2021.2.3,60.26806200458548,
wild.wav,wild.mpg,wild,3,AV,Pink_Noise_3_1.wav,Pink_Noise_3_2.wav,,,,,,0,103,103,93,,,,,,,,,,,,,,,685.363645545207,None,686.8630085510667,None,688.246533799218,None,"wild
",688.246533799218,None,return,1.5342533939983696,688.3296048310585,None,,,,,,,,,,,,,3,001,2022_Dec_01_1748,SpeechDraft1Carolyn_lessNoise,2021.2.3,60.26806200458548,
climb.wav,climb.mpg,climb,1,A,Pink_Noise_1_1.wav,Pink_Noise_1_2.wav,,,,,,0,104,104,47,,,,,,,,,,,,,,,689.8969770481344,None,691.4139678222127,None,692.7962630190887,None,climb,692.7962630190887,None,return,1.8238217919133604,692.8801376260817,None,,,,,,,,,,,,,3,001,2022_Dec_01_1748,SpeechDraft1Carolyn_lessNoise,2021.2.3,60.26806200458548,
ham.wav,ham.mpg,ham,4,A,Pink_Noise_4_1.wav,Pink_Noise_4_2.wav,,,,,,0,105,105,36,,,,,,,,,,,,,,,694.7303179742303,None,696.2464194111526,None,697.6300825411454,None,ham,697.6300825411454,None,return,1.7507253880612552,697.7131489061285,None,,,,,,,,,,,,,3,001,2022_Dec_01_1748,SpeechDraft1Carolyn_lessNoise,2021.2.3,60.26806200458548,
dice.wav,dice.mpg,dice,5,AV,Pink_Noise_5_1.wav,Pink_Noise_5_2.wav,,,,,,0,106,106,116,,,,,,,,,,,,,,,699.4803603792097,None,700.9968348781113,None,702.3635879431386,None,dice,702.3635879431386,None,return,2.0573095050640404,702.4466416221112,None,,,,,,,,,,,,,3,001,2022_Dec_01_1748,SpeechDraft1Carolyn_lessNoise,2021.2.3,60.26806200458548,
cow.wav,cow.mpg,cow,3,AV,Pink_Noise_3_1.wav,Pink_Noise_3_2.wav,,,,,,0,107,107,87,,,,,,,,,,,,,,,704.5300456271507,None,706.0301563320681,None,707.4135646692012,None,"cow
",707.4135646692012,None,return,2.9349765619263053,707.4968823890667,None,,,,,,,,,,,,,3,001,2022_Dec_01_1748,SpeechDraft1Carolyn_lessNoise,2021.2.3,60.26806200458548,
blow.wav,blow.mpg,blow,4,A,Pink_Noise_4_1.wav,Pink_Noise_4_2.wav,,,,,,0,108,108,6,,,,,,,,,,,,,,,710.4640114121139,None,712.0303182171192,None,713.4135630880482,None,row,713.4135630880482,None,return,3.582611006917432,713.4973571042065,None,,,,,,,,,,,,,3,001,2022_Dec_01_1748,SpeechDraft1Carolyn_lessNoise,2021.2.3,60.26806200458548,
hit.wav,hit.mpg,hit,6,A,Pink_Noise_6_1.wav,Pink_Noise_6_2.wav,,,,,,0,109,109,8,,,,,,,,,,,,,,,717.097153675044,None,718.6128806080669,None,719.9971534870565,None,"feet
",719.9971534870565,None,return,1.3194935889914632,720.0803556460887,None,,,,,,,,,,,,,3,001,2022_Dec_01_1748,SpeechDraft1Carolyn_lessNoise,2021.2.3,60.26806200458548,
bath.wav,bath.mpg,bath,4,A,Pink_Noise_4_1.wav,Pink_Noise_4_2.wav,,,,,,0,110,110,58,,,,,,,,,,,,,,,721.430160441203,None,722.9297759381589,None,724.313775743125,None,bath,724.313775743125,None,return,1.482680708868429,724.397271104157,None,,,,,,,,,,,,,3,001,2022_Dec_01_1748,SpeechDraft1Carolyn_lessNoise,2021.2.3,60.26806200458548,
budge.wav,budge.mpg,budge,4,AV,Pink_Noise_4_1.wav,Pink_Noise_4_2.wav,,,,,,0,111,111,77,,,,,,,,,,,,,,,725.8970762370154,None,727.3962542591617,None,728.7799997550901,None,budge,728.7799997550901,None,return,1.6888849551323801,728.8630832370836,None,,,,,,,,,,,,,3,001,2022_Dec_01_1748,SpeechDraft1Carolyn_lessNoise,2021.2.3,60.26806200458548,
cork.wav,cork.mpg,cork,4,AV,Pink_Noise_4_1.wav,Pink_Noise_4_2.wav,,,,,,0,112,112,90,,,,,,,,,,,,,,,730.579834372038,None,732.1304063170683,None,733.4969473141246,None,"cork
",733.4969473141246,None,return,3.051157427020371,733.5807034100872,None,,,,,,,,,,,,,3,001,2022_Dec_01_1748,SpeechDraft1Carolyn_lessNoise,2021.2.3,60.26806200458548,
grip.wav,grip.mpg,grip,3,AV,Pink_Noise_3_1.wav,Pink_Noise_3_2.wav,,,,,,0,113,113,85,,,,,,,,,,,,,,,736.6635931550991,None,738.1796185371932,None,739.5636773691513,None,grip,739.5636773691513,None,return,1.5606645138468593,739.6472116161603,None,,,,,,,,,,,,,3,001,2022_Dec_01_1748,SpeechDraft1Carolyn_lessNoise,2021.2.3,60.26806200458548,
drive.wav,drive.mpg,drive,6,AV,Pink_Noise_6_1.wav,Pink_Noise_6_2.wav,,,,,,0,114,114,98,,,,,,,,,,,,,,,741.2304125272203,None,742.7466152640991,None,744.1297894851305,None,"drive
",744.1297894851305,None,return,4.218207234982401,744.2136488400865,None,,,,,,,,,,,,,3,001,2022_Dec_01_1748,SpeechDraft1Carolyn_lessNoise,2021.2.3,60.26806200458548,
bin.wav,bin.mpg,bin,2,AV,Pink_Noise_2_1.wav,Pink_Noise_2_2.wav,,,,,,0,115,115,76,,,,,,,,,,,,,,,748.4640661301091,None,749.9797538821585,None,751.3631159090437,None,nig,751.3631159090437,None,return,4.304870442952961,751.4470648930874,None,,,,,,,,,,,,,3,001,2022_Dec_01_1748,SpeechDraft1Carolyn_lessNoise,2021.2.3,60.26806200458548,
your.wav,your.mpg,your,6,AV,Pink_Noise_6_1.wav,Pink_Noise_6_2.wav,,,,,,0,116,116,100,,,,,,,,,,,,,,,755.7807398620062,None,757.2964911560994,None,758.6805525862146,None,gruel,758.6805525862146,None,return,6.16419893479906,758.7637410371099,None,,,,,,,,,,,,,3,001,2022_Dec_01_1748,SpeechDraft1Carolyn_lessNoise,2021.2.3,60.26806200458548,
blot.wav,blot.mpg,blot,6,A,Pink_Noise_6_1.wav,Pink_Noise_6_2.wav,,,,,,0,117,117,32,,,,,,,,,,,,,,,764.9463606302161,None,766.4795091971755,None,767.8637249921449,None,rot,767.8637249921449,None,return,1.3814899909775704,767.9464771312196,None,,,,,,,,,,,,,3,001,2022_Dec_01_1748,SpeechDraft1Carolyn_lessNoise,2021.2.3,60.26806200458548,
gown.wav,gown.mpg,gown,3,AV,Pink_Noise_3_1.wav,Pink_Noise_3_2.wav,,,,,,0,118,118,60,,,,,,,,,,,,,,,769.3470628350042,None,770.8469260900747,None,772.2303495260421,None,how,772.2303495260421,None,return,5.022498650941998,772.3133955830708,None,,,,,,,,,,,,,3,001,2022_Dec_01_1748,SpeechDraft1Carolyn_lessNoise,2021.2.3,60.26806200458548,
blind.wav,blind.mpg,blind,2,A,Pink_Noise_2_1.wav,Pink_Noise_2_2.wav,,,,,,0,119,119,31,,,,,,,,,,,,,,,777.3636669442058,None,778.8631388670765,None,780.2466573331039,None,blind,780.2466573331039,None,return,2.0053082040976733,780.3306411730591,None,,,,,,,,,,,,,3,001,2022_Dec_01_1748,SpeechDraft1Carolyn_lessNoise,2021.2.3,60.26806200458548,
,,,,,,,,,,,,,,,,,,,,,,,,,,,,,,,,,,,,,,,,,,,,,,,,,782.3637322690338,None,w,24.701325241010636,783.3465216560289,None,3,001,2022_Dec_01_1748,SpeechDraft1Carolyn_lessNoise,2021.2.3,60.26806200458548,
