Audio_Only_Files,Video_Files,Original_Word_List,noiseLevelCode,conditionCodes,noiseLevelFile1,noiseLevelFile2,InstrTextVar,targetSpeakerName,targetSpeakerEccen,targetSpkrChannel,targetSpkrSound,targetVisualDegrees,visStimLoc,visStimLoc2,visStimW,visStimH,practiceTrials.thisRepN,practiceTrials.thisTrialN,practiceTrials.thisN,practiceTrials.thisIndex,trials.thisRepN,trials.thisTrialN,trials.thisN,trials.thisIndex,audLocalLoop.thisRepN,audLocalLoop.thisTrialN,audLocalLoop.thisN,audLocalLoop.thisIndex,visualLocalLoop.thisRepN,visualLocalLoop.thisTrialN,visualLocalLoop.thisN,visualLocalLoop.thisIndex,letsGoAlready.keys,letsGoAlready.rt,letsGoAlready.started,letsGoAlready.stopped,text_2.started,text_2.stopped,text_3.started,text_3.stopped,key_resp_2.keys,key_resp_2.rt,key_resp_2.started,key_resp_2.stopped,text_5.started,text_5.stopped,fixCross.started,fixCross.stopped,fixCross2.started,fixCross2.stopped,answerPrompt.started,answerPrompt.stopped,getAnswer.text,getAnswer.started,getAnswer.stopped,goToNext.keys,goToNext.rt,goToNext.started,goToNext.stopped,stretchBreakTxrt.started,stretchBreakTxrt.stopped,key_resp_3.keys,key_resp_3.rt,key_resp_3.started,key_resp_3.stopped,letsGoLocal.keys,letsGoLocal.rt,letsGoLocal.started,letsGoLocal.stopped,text_4.started,text_4.stopped,prepFixTxt.started,prepFixTxt.stopped,prepFixTxt_2.started,prepFixTxt_2.stopped,respPromptLocal.started,respPromptLocal.stopped,slider.response,slider.rt,slider.started,slider.stopped,letsGoLocal_2.keys,letsGoLocal_2.rt,letsGoLocal_2.started,letsGoLocal_2.stopped,text_7.started,text_7.stopped,prepFixTxt_3.started,prepFixTxt_3.stopped,grating.started,grating.stopped,participant,session,date,expName,psychopyVersion,frameRate,
,,,,,,,,,,,,,,,,,,,,,,,,,,,,,,,,,space,1.566046714084223,9.633471664972603,None,,,,,,,,,,,,,,,,,,,,,,,,,,,,,,,,,,,,,,,,,,,,,,,,,,,,,,,,41,001,2023_Mar_03_1113,SpeechDraft1Carolyn_lessNoise_PlusLocalization,2021.2.3,60.00506084720516,
,,,,,,,,,,,,,,,,,,,,,,,,,,,,,,,,,,,,,9.633471664972603,None,11.318569983937778,None,space,0.34692608192563057,11.500541021930985,None,,,,,,,,,,,,,,,,,,,,,,,,,,,,,,,,,,,,,,,,,,,,,,,,41,001,2023_Mar_03_1113,SpeechDraft1Carolyn_lessNoise_PlusLocalization,2021.2.3,60.00506084720516,
ash.wav,ash.mpg,ash,1,A,Pink_Noise_1_1.wav,Pink_Noise_1_2.wav,"This is an example of an

AUDIO trial",,,,,,,,,,0,0,0,0,,,,,,,,,,,,,,,,,,,,,,,,,11.888682944932953,None,12.883564578951336,None,14.999861593940295,None,16.40034004196059,None,ash,16.40034004196059,None,return,3.763878699974157,16.48355362494476,None,,,,,,,,,,,,,,,,,,,,,,,,,,,,,,,,,41,001,2023_Mar_03_1113,SpeechDraft1Carolyn_lessNoise_PlusLocalization,2021.2.3,60.00506084720516,
ash.wav,ash.mpg,ash,1,AV,Pink_Noise_1_1.wav,Pink_Noise_1_2.wav,"This is an example of an

AUDIO + VIDEO  trial",,,,,,,,,,0,1,1,1,,,,,,,,,,,,,,,,,,,,,,,,,20.283273670007475,None,21.283563039964065,None,22.7833846550202,None,24.150304264971055,None,ash,24.150304264971055,None,return,2.3257647909922525,24.233552013989538,None,,,,,,,,,,,,,,,,,,,,,,,,,,,,,,,,,41,001,2023_Mar_03_1113,SpeechDraft1Carolyn_lessNoise_PlusLocalization,2021.2.3,60.00506084720516,
,,,,,,,,,,,,,,,,,,,,,,,,,,,,,,,,,,,,,,,,,,,,,,,,,,,,,,,,,,,,26.600089802988805,None,space,1.4958057820331305,26.783585386001505,None,,,,,,,,,,,,,,,,,,,,,,,,,,,41,001,2023_Mar_03_1113,SpeechDraft1Carolyn_lessNoise_PlusLocalization,2021.2.3,60.00506084720516,
curse.wav,curse.mpg,curse,1,AV,Pink_Noise_1_1.wav,Pink_Noise_1_2.wav,,,,,,,,,,,,,,,0,0,0,85,,,,,,,,,,,,,,,,,,,,,,,28.333169851917773,None,29.81653848197311,None,31.200482807005756,None,ruse,31.200482807005756,None,return,0.5716474120272323,31.283686704933643,None,,,,,,,,,,,,,,,,,,,,,,,,,,,,,,,,,41,001,2023_Mar_03_1113,SpeechDraft1Carolyn_lessNoise_PlusLocalization,2021.2.3,60.00506084720516,
drunk.wav,drunk.mpg,drunk,1,A,Pink_Noise_1_1.wav,Pink_Noise_1_2.wav,,,,,,,,,,,,,,,0,1,1,27,,,,,,,,,,,,,,,,,,,,,,,31.883537094923668,None,33.38322298391722,None,34.76708467595745,None,drug,34.76708467595745,None,return,0.7651633479399607,34.85034058894962,None,,,,,,,,,,,,,,,,,,,,,,,,,,,,,,,,,41,001,2023_Mar_03_1113,SpeechDraft1Carolyn_lessNoise_PlusLocalization,2021.2.3,60.00506084720516,
forth.wav,forth.mpg,forth,2,A,Pink_Noise_2_1.wav,Pink_Noise_2_2.wav,,,,,,,,,,,,,,,0,2,2,50,,,,,,,,,,,,,,,,,,,,,,,35.63379086891655,None,37.13329642394092,None,38.51698482991196,None,"frpth
",38.51698482991196,None,return,4.487021321081556,38.60033528495114,None,,,,,,,,,,,,,,,,,,,,,,,,,,,,,,,,,41,001,2023_Mar_03_1113,SpeechDraft1Carolyn_lessNoise_PlusLocalization,2021.2.3,60.00506084720516,
camp.wav,camp.mpg,camp,5,A,Pink_Noise_5_1.wav,Pink_Noise_5_2.wav,,,,,,,,,,,,,,,0,3,3,43,,,,,,,,,,,,,,,,,,,,,,,43.11699126299936,None,44.61660950595979,None,46.00037291191984,None,pick,46.00037291191984,None,return,0.7476957759354264,46.083658218965866,None,,,,,,,,,,,,,,,,,,,,,,,,,,,,,,,,,41,001,2023_Mar_03_1113,SpeechDraft1Carolyn_lessNoise_PlusLocalization,2021.2.3,60.00506084720516,
deed.wav,deed.mpg,deed,5,AV,Pink_Noise_5_1.wav,Pink_Noise_5_2.wav,,,,,,,,,,,,,,,0,4,4,100,,,,,,,,,,,,,,,,,,,,,,,46.85048567701597,None,48.35007427993696,None,49.73367900692392,None,"eat
",49.73367900692392,None,return,0.7024038470117375,49.81695326091722,None,,,,,,,,,,,,,,,,,,,,,,,,,,,,,,,,,41,001,2023_Mar_03_1113,SpeechDraft1Carolyn_lessNoise_PlusLocalization,2021.2.3,60.00506084720516,
gram.wav,gram.mpg,gram,6,AV,Pink_Noise_6_1.wav,Pink_Noise_6_2.wav,,,,,,,,,,,,,,,0,5,5,94,,,,,,,,,,,,,,,,,,,,,,,50.55028302501887,None,52.04997947800439,None,53.43359467794653,None,sleep,53.43359467794653,None,return,2.3463665910530835,53.517109790001996,None,,,,,,,,,,,,,,,,,,,,,,,,,,,,,,,,,41,001,2023_Mar_03_1113,SpeechDraft1Carolyn_lessNoise_PlusLocalization,2021.2.3,60.00506084720516,
dream.wav,dream.mpg,dream,1,A,Pink_Noise_1_1.wav,Pink_Noise_1_2.wav,,,,,,,,,,,,,,,0,6,6,0,,,,,,,,,,,,,,,,,,,,,,,55.88381245301571,None,57.38331991201267,None,58.76703651098069,None,ream,58.76703651098069,None,return,0.8289597580442205,58.85041331592947,None,,,,,,,,,,,,,,,,,,,,,,,,,,,,,,,,,41,001,2023_Mar_03_1113,SpeechDraft1Carolyn_lessNoise_PlusLocalization,2021.2.3,60.00506084720516,
greek.wav,greek.mpg,greek,4,A,Pink_Noise_4_1.wav,Pink_Noise_4_2.wav,,,,,,,,,,,,,,,0,7,7,49,,,,,,,,,,,,,,,,,,,,,,,59.70038933493197,None,61.20005018892698,None,62.58355746790767,None,greek,62.58355746790767,None,return,1.1964988369727507,62.66696438496001,None,,,,,,,,,,,,,,,,,,,,,,,,,,,,,,,,,41,001,2023_Mar_03_1113,SpeechDraft1Carolyn_lessNoise_PlusLocalization,2021.2.3,60.00506084720516,
fame.wav,fame.mpg,fame,2,AV,Pink_Noise_2_1.wav,Pink_Noise_2_2.wav,,,,,,,,,,,,,,,0,8,8,84,,,,,,,,,,,,,,,,,,,,,,,63.90006152493879,None,65.4000216149725,None,66.78368889493868,None,fame,66.78368889493868,None,return,2.356564766028896,66.86705398501363,None,,,,,,,,,,,,,,,,,,,,,,,,,,,,,,,,,41,001,2023_Mar_03_1113,SpeechDraft1Carolyn_lessNoise_PlusLocalization,2021.2.3,60.00506084720516,
bleak.wav,bleak.mpg,bleak,6,A,Pink_Noise_6_1.wav,Pink_Noise_6_2.wav,,,,,,,,,,,,,,,0,9,9,57,,,,,,,,,,,,,,,,,,,,,,,69.25030053895898,None,70.74999593594112,None,72.13366931898054,None,"sleep
",72.13366931898054,None,return,1.750346846994944,72.21699914091732,None,,,,,,,,,,,,,,,,,,,,,,,,,,,,,,,,,41,001,2023_Mar_03_1113,SpeechDraft1Carolyn_lessNoise_PlusLocalization,2021.2.3,60.00506084720516,
giant.wav,giant.mpg,giant,4,AV,Pink_Noise_4_1.wav,Pink_Noise_4_2.wav,,,,,,,,,,,,,,,0,10,10,103,,,,,,,,,,,,,,,,,,,,,,,74.00036686100066,None,75.49990435794462,None,76.88378578692209,None,giant,76.88378578692209,None,return,1.1922573830233887,76.96711477194913,None,,,,,,,,,,,,,,,,,,,,,,,,,,,,,,,,,41,001,2023_Mar_03_1113,SpeechDraft1Carolyn_lessNoise_PlusLocalization,2021.2.3,60.00506084720516,
clutch.wav,clutch.mpg,clutch,2,A,Pink_Noise_2_1.wav,Pink_Noise_2_2.wav,,,,,,,,,,,,,,,0,11,11,10,,,,,,,,,,,,,,,,,,,,,,,78.18379483290482,None,79.68337986199185,None,81.06708260800224,None,"clutch
",81.06708260800224,None,return,2.136911447974853,81.1504339009989,None,,,,,,,,,,,,,,,,,,,,,,,,,,,,,,,,,41,001,2023_Mar_03_1113,SpeechDraft1Carolyn_lessNoise_PlusLocalization,2021.2.3,60.00506084720516,
tense.wav,tense.mpg,tense,1,AV,Pink_Noise_1_1.wav,Pink_Noise_1_2.wav,,,,,,,,,,,,,,,0,12,12,97,,,,,,,,,,,,,,,,,,,,,,,83.31706394499633,None,84.81672352098394,None,86.20031698793173,None,"tense
",86.20031698793173,None,return,0.9876416120678186,86.28373569692485,None,,,,,,,,,,,,,,,,,,,,,,,,,,,,,,,,,41,001,2023_Mar_03_1113,SpeechDraft1Carolyn_lessNoise_PlusLocalization,2021.2.3,60.00506084720516,
chore.wav,chore.mpg,chore,6,AV,Pink_Noise_6_1.wav,Pink_Noise_6_2.wav,,,,,,,,,,,,,,,0,13,13,92,,,,,,,,,,,,,,,,,,,,,,,87.30053097300697,None,88.80017658893485,None,90.18366359092761,None,chore,90.18366359092761,None,return,0.7324269720120355,90.26703195495065,None,,,,,,,,,,,,,,,,,,,,,,,,,,,,,,,,,41,001,2023_Mar_03_1113,SpeechDraft1Carolyn_lessNoise_PlusLocalization,2021.2.3,60.00506084720516,
draw.wav,draw.mpg,draw,3,AV,Pink_Noise_3_1.wav,Pink_Noise_3_2.wav,,,,,,,,,,,,,,,0,14,14,70,,,,,,,,,,,,,,,,,,,,,,,91.01697320491076,None,92.51672675600275,None,93.90046543593053,None,draw,93.90046543593053,None,return,0.6237744319951162,93.98369057301898,None,,,,,,,,,,,,,,,,,,,,,,,,,,,,,,,,,41,001,2023_Mar_03_1113,SpeechDraft1Carolyn_lessNoise_PlusLocalization,2021.2.3,60.00506084720516,
peach.wav,peach.mpg,peach,4,A,Pink_Noise_4_1.wav,Pink_Noise_4_2.wav,,,,,,,,,,,,,,,0,15,15,39,,,,,,,,,,,,,,,,,,,,,,,94.63377458194736,None,96.13332421495579,None,97.51717648201156,None,"clutch
",97.51717648201156,None,return,3.1509514979552478,97.60037903499324,None,,,,,,,,,,,,,,,,,,,,,,,,,,,,,,,,,41,001,2023_Mar_03_1113,SpeechDraft1Carolyn_lessNoise_PlusLocalization,2021.2.3,60.00506084720516,
fond.wav,fond.mpg,fond,6,AV,Pink_Noise_6_1.wav,Pink_Noise_6_2.wav,,,,,,,,,,,,,,,0,16,16,82,,,,,,,,,,,,,,,,,,,,,,,100.78360509697814,None,102.28342096391134,None,103.66722403094172,None,drive,103.66722403094172,None,return,0.9129136609844863,103.75050341291353,None,,,,,,,,,,,,,,,,,,,,,,,,,,,,,,,,,41,001,2023_Mar_03_1113,SpeechDraft1Carolyn_lessNoise_PlusLocalization,2021.2.3,60.00506084720516,
wear.wav,wear.mpg,wear,1,AV,Pink_Noise_1_1.wav,Pink_Noise_1_2.wav,,,,,,,,,,,,,,,0,17,17,109,,,,,,,,,,,,,,,,,,,,,,,104.68378731992561,None,106.1834346569376,None,107.56692733697128,None,wear,107.56692733697128,None,return,0.8929630770580843,107.65042893192731,None,,,,,,,,,,,,,,,,,,,,,,,,,,,,,,,,,41,001,2023_Mar_03_1113,SpeechDraft1Carolyn_lessNoise_PlusLocalization,2021.2.3,60.00506084720516,
brag.wav,brag.mpg,brag,4,AV,Pink_Noise_4_1.wav,Pink_Noise_4_2.wav,,,,,,,,,,,,,,,0,18,18,117,,,,,,,,,,,,,,,,,,,,,,,108.5670768750133,None,110.06680350902025,None,111.45038638799451,None,"brag
",111.45038638799451,None,return,1.3695356689859182,111.53381153394002,None,,,,,,,,,,,,,,,,,,,,,,,,,,,,,,,,,41,001,2023_Mar_03_1113,SpeechDraft1Carolyn_lessNoise_PlusLocalization,2021.2.3,60.00506084720516,
cycle.wav,cycle.mpg,cycle,2,A,Pink_Noise_2_1.wav,Pink_Noise_2_2.wav,,,,,,,,,,,,,,,0,19,19,32,,,,,,,,,,,,,,,,,,,,,,,112.93367123394273,None,114.41847273590975,None,115.80050553195179,None,cycle,115.80050553195179,None,return,1.6435062360251322,115.88385196297895,None,,,,,,,,,,,,,,,,,,,,,,,,,,,,,,,,,41,001,2023_Mar_03_1113,SpeechDraft1Carolyn_lessNoise_PlusLocalization,2021.2.3,60.00506084720516,
dope.wav,dope.mpg,dope,3,A,Pink_Noise_3_1.wav,Pink_Noise_3_2.wav,,,,,,,,,,,,,,,0,20,20,21,,,,,,,,,,,,,,,,,,,,,,,117.55042648199014,None,119.05005400592927,None,120.4338172719581,None,"dope
",120.4338172719581,None,return,0.5863255639560521,120.51702666992787,None,,,,,,,,,,,,,,,,,,,,,,,,,,,,,,,,,41,001,2023_Mar_03_1113,SpeechDraft1Carolyn_lessNoise_PlusLocalization,2021.2.3,60.00506084720516,
chomp.wav,chomp.mpg,chomp,4,AV,Pink_Noise_4_1.wav,Pink_Noise_4_2.wav,,,,,,,,,,,,,,,0,21,21,67,,,,,,,,,,,,,,,,,,,,,,,121.13375084090512,None,122.63341573695652,None,124.01693347597029,None,"chump
",124.01693347597029,None,return,0.9708632359979674,124.10046498593874,None,,,,,,,,,,,,,,,,,,,,,,,,,,,,,,,,,41,001,2023_Mar_03_1113,SpeechDraft1Carolyn_lessNoise_PlusLocalization,2021.2.3,60.00506084720516,
curve.wav,curve.mpg,curve,6,A,Pink_Noise_6_1.wav,Pink_Noise_6_2.wav,,,,,,,,,,,,,,,0,22,22,7,,,,,,,,,,,,,,,,,,,,,,,125.11726225994062,None,126.61682683601975,None,128.0004655639641,None,mane,128.0004655639641,None,return,1.7075936830369756,128.08376201591454,None,,,,,,,,,,,,,,,,,,,,,,,,,,,,,,,,,41,001,2023_Mar_03_1113,SpeechDraft1Carolyn_lessNoise_PlusLocalization,2021.2.3,60.00506084720516,
fox.wav,fox.mpg,fox,5,A,Pink_Noise_5_1.wav,Pink_Noise_5_2.wav,,,,,,,,,,,,,,,0,23,23,55,,,,,,,,,,,,,,,,,,,,,,,129.81741564197,None,131.3167592479149,None,132.70045755594037,None,fox,132.70045755594037,None,return,0.8316151020117104,132.7838555140188,None,,,,,,,,,,,,,,,,,,,,,,,,,,,,,,,,,41,001,2023_Mar_03_1113,SpeechDraft1Carolyn_lessNoise_PlusLocalization,2021.2.3,60.00506084720516,
clock.wav,clock.mpg,clock,6,A,Pink_Noise_6_1.wav,Pink_Noise_6_2.wav,,,,,,,,,,,,,,,0,24,24,52,,,,,,,,,,,,,,,,,,,,,,,133.63378654094413,None,135.13331972097512,None,136.51726360293105,None,fox,136.51726360293105,None,return,1.2949557600077242,136.60041472897865,None,,,,,,,,,,,,,,,,,,,,,,,,,,,,,,,,,41,001,2023_Mar_03_1113,SpeechDraft1Carolyn_lessNoise_PlusLocalization,2021.2.3,60.00506084720516,
care.wav,care.mpg,care,1,AV,Pink_Noise_1_1.wav,Pink_Noise_1_2.wav,,,,,,,,,,,,,,,0,25,25,80,,,,,,,,,,,,,,,,,,,,,,,137.91711722593755,None,139.41680502099916,None,140.80061618995387,None,"care
",140.80061618995387,None,return,1.0676637149881572,140.88369432801846,None,,,,,,,,,,,,,,,,,,,,,,,,,,,,,,,,,41,001,2023_Mar_03_1113,SpeechDraft1Carolyn_lessNoise_PlusLocalization,2021.2.3,60.00506084720516,
fried.wav,fried.mpg,fried,5,A,Pink_Noise_5_1.wav,Pink_Noise_5_2.wav,,,,,,,,,,,,,,,0,26,26,30,,,,,,,,,,,,,,,,,,,,,,,141.9837155629648,None,143.48349047394004,None,144.86711688898504,None,drive,144.86711688898504,None,return,1.3448458750499412,144.95051406498533,None,,,,,,,,,,,,,,,,,,,,,,,,,,,,,,,,,41,001,2023_Mar_03_1113,SpeechDraft1Carolyn_lessNoise_PlusLocalization,2021.2.3,60.00506084720516,
golf.wav,golf.mpg,golf,4,A,Pink_Noise_4_1.wav,Pink_Noise_4_2.wav,,,,,,,,,,,,,,,0,27,27,31,,,,,,,,,,,,,,,,,,,,,,,146.317073091981,None,147.8333897650009,None,149.21712285198737,None,"golf
",149.21712285198737,None,return,1.1867691889638081,149.3005807439331,None,,,,,,,,,,,,,,,,,,,,,,,,,,,,,,,,,41,001,2023_Mar_03_1113,SpeechDraft1Carolyn_lessNoise_PlusLocalization,2021.2.3,60.00506084720516,
bridge.wav,bridge.mpg,bridge,5,A,Pink_Noise_5_1.wav,Pink_Noise_5_2.wav,,,,,,,,,,,,,,,0,28,28,35,,,,,,,,,,,,,,,,,,,,,,,150.51706728700083,None,152.01671287696809,None,153.4005259249825,None,bridge,153.4005259249825,None,return,0.9317445069318637,153.48374495992903,None,,,,,,,,,,,,,,,,,,,,,,,,,,,,,,,,,41,001,2023_Mar_03_1113,SpeechDraft1Carolyn_lessNoise_PlusLocalization,2021.2.3,60.00506084720516,
gap.wav,gap.mpg,gap,2,AV,Pink_Noise_2_1.wav,Pink_Noise_2_2.wav,,,,,,,,,,,,,,,0,29,29,88,,,,,,,,,,,,,,,,,,,,,,,154.43403279595077,None,155.93350868101697,None,157.31718217791058,None,gap,157.31718217791058,None,return,2.6149858760181814,157.40046720590908,None,,,,,,,,,,,,,,,,,,,,,,,,,,,,,,,,,41,001,2023_Mar_03_1113,SpeechDraft1Carolyn_lessNoise_PlusLocalization,2021.2.3,60.00506084720516,
grown.wav,grown.mpg,grown,1,A,Pink_Noise_1_1.wav,Pink_Noise_1_2.wav,,,,,,,,,,,,,,,0,30,30,5,,,,,,,,,,,,,,,,,,,,,,,160.03391297592316,None,161.5333964789752,None,162.91726534895133,None,grove,162.91726534895133,None,return,0.9109810519730672,163.000380112906,None,,,,,,,,,,,,,,,,,,,,,,,,,,,,,,,,,41,001,2023_Mar_03_1113,SpeechDraft1Carolyn_lessNoise_PlusLocalization,2021.2.3,60.00506084720516,
gem.wav,gem.mpg,gem,2,A,Pink_Noise_2_1.wav,Pink_Noise_2_2.wav,,,,,,,,,,,,,,,0,31,31,41,,,,,,,,,,,,,,,,,,,,,,,163.93382165790536,None,165.43348824593704,None,166.8171614059247,None,gem,166.8171614059247,None,return,0.9788135340204462,166.90059968701098,None,,,,,,,,,,,,,,,,,,,,,,,,,,,,,,,,,41,001,2023_Mar_03_1113,SpeechDraft1Carolyn_lessNoise_PlusLocalization,2021.2.3,60.00506084720516,
clash.wav,clash.mpg,clash,2,A,Pink_Noise_2_1.wav,Pink_Noise_2_2.wav,,,,,,,,,,,,,,,0,32,32,26,,,,,,,,,,,,,,,,,,,,,,,167.90057572501246,None,169.4001047249185,None,170.78383930493146,None,"clash
",170.78383930493146,None,return,3.6361315810354427,170.8672147229081,None,,,,,,,,,,,,,,,,,,,,,,,,,,,,,,,,,41,001,2023_Mar_03_1113,SpeechDraft1Carolyn_lessNoise_PlusLocalization,2021.2.3,60.00506084720516,
cup.wav,cup.mpg,cup,3,AV,Pink_Noise_3_1.wav,Pink_Noise_3_2.wav,,,,,,,,,,,,,,,0,33,33,68,,,,,,,,,,,,,,,,,,,,,,,174.53382438793778,None,176.03391110093798,None,177.417219216004,None,cup,177.417219216004,None,return,1.3230423679342493,177.5004117739154,None,,,,,,,,,,,,,,,,,,,,,,,,,,,,,,,,,41,001,2023_Mar_03_1113,SpeechDraft1Carolyn_lessNoise_PlusLocalization,2021.2.3,60.00506084720516,
chant.wav,chant.mpg,chant,1,AV,Pink_Noise_1_1.wav,Pink_Noise_1_2.wav,,,,,,,,,,,,,,,0,34,34,98,,,,,,,,,,,,,,,,,,,,,,,178.8506858679466,None,180.35027626191732,None,181.73380324197933,None,chant,181.73380324197933,None,return,1.0140992309898138,181.8173252219567,None,,,,,,,,,,,,,,,,,,,,,,,,,,,,,,,,,41,001,2023_Mar_03_1113,SpeechDraft1Carolyn_lessNoise_PlusLocalization,2021.2.3,60.00506084720516,
bloom.wav,bloom.mpg,bloom,5,A,Pink_Noise_5_1.wav,Pink_Noise_5_2.wav,,,,,,,,,,,,,,,0,35,35,11,,,,,,,,,,,,,,,,,,,,,,,182.85054142097943,None,184.35016887099482,None,185.73392990999855,None,"blue
",185.73392990999855,None,return,1.1020960899768397,185.81725743296556,None,,,,,,,,,,,,,,,,,,,,,,,,,,,,,,,,,41,001,2023_Mar_03_1113,SpeechDraft1Carolyn_lessNoise_PlusLocalization,2021.2.3,60.00506084720516,
foil.wav,foil.mpg,foil,6,AV,Pink_Noise_6_1.wav,Pink_Noise_6_2.wav,,,,,,,,,,,,,,,0,36,36,102,,,,,,,,,,,,,,,,,,,,,,,186.95050391799305,None,188.4502190409694,None,189.83384086401202,None,foil,189.83384086401202,None,return,2.21013713395223,189.9172023559222,None,,,,,,,,,,,,,,,,,,,,,,,,,,,,,,,,,41,001,2023_Mar_03_1113,SpeechDraft1Carolyn_lessNoise_PlusLocalization,2021.2.3,60.00506084720516,
calm.wav,calm.mpg,calm,4,AV,Pink_Noise_4_1.wav,Pink_Noise_4_2.wav,,,,,,,,,,,,,,,0,37,37,118,,,,,,,,,,,,,,,,,,,,,,,192.15051599696744,None,193.65012677491177,None,195.03380383295007,None,calm,195.03380383295007,None,return,2.8581844229483977,195.11718441802077,None,,,,,,,,,,,,,,,,,,,,,,,,,,,,,,,,,41,001,2023_Mar_03_1113,SpeechDraft1Carolyn_lessNoise_PlusLocalization,2021.2.3,60.00506084720516,
drum.wav,drum.mpg,drum,6,A,Pink_Noise_6_1.wav,Pink_Noise_6_2.wav,,,,,,,,,,,,,,,0,38,38,59,,,,,,,,,,,,,,,,,,,,,,,198.00056521501392,None,199.5001415279694,None,200.8839557559695,None,drop,200.8839557559695,None,return,1.3122100089676678,200.96715686796233,None,,,,,,,,,,,,,,,,,,,,,,,,,,,,,,,,,41,001,2023_Mar_03_1113,SpeechDraft1Carolyn_lessNoise_PlusLocalization,2021.2.3,60.00506084720516,
flip.wav,flip.mpg,flip,5,A,Pink_Noise_5_1.wav,Pink_Noise_5_2.wav,,,,,,,,,,,,,,,0,39,39,17,,,,,,,,,,,,,,,,,,,,,,,202.30049972701818,None,203.80017774598673,None,205.18388516199775,None,brisk,205.18388516199775,None,return,4.164100370951928,205.26724955590907,None,,,,,,,,,,,,,,,,,,,,,,,,,,,,,,,,,41,001,2023_Mar_03_1113,SpeechDraft1Carolyn_lessNoise_PlusLocalization,2021.2.3,60.00506084720516,
bound.wav,bound.mpg,bound,6,AV,Pink_Noise_6_1.wav,Pink_Noise_6_2.wav,,,,,,,,,,,,,,,0,40,40,95,,,,,,,,,,,,,,,,,,,,,,,209.45057317998726,None,210.95016453391872,None,212.35054160596337,None,"mouse
",212.35054160596337,None,return,1.7499200819293037,212.41742465901189,None,,,,,,,,,,,,,,,,,,,,,,,,,,,,,,,,,41,001,2023_Mar_03_1113,SpeechDraft1Carolyn_lessNoise_PlusLocalization,2021.2.3,60.00506084720516,
rod.wav,rod.mpg,rod,1,A,Pink_Noise_1_1.wav,Pink_Noise_1_2.wav,,,,,,,,,,,,,,,0,41,41,34,,,,,,,,,,,,,,,,,,,,,,,214.20057481294498,None,215.71668613294605,None,217.10037888598163,None,rod,217.10037888598163,None,return,2.6876514949835837,217.1836880799383,None,,,,,,,,,,,,,,,,,,,,,,,,,,,,,,,,,41,001,2023_Mar_03_1113,SpeechDraft1Carolyn_lessNoise_PlusLocalization,2021.2.3,60.00506084720516,
pledge.wav,pledge.mpg,pledge,2,A,Pink_Noise_2_1.wav,Pink_Noise_2_2.wav,,,,,,,,,,,,,,,0,42,42,19,,,,,,,,,,,,,,,,,,,,,,,219.90039421000984,None,221.41675684892107,None,222.80033720796928,None,pledge,222.80033720796928,None,return,1.1955492190318182,222.88377006992232,None,,,,,,,,,,,,,,,,,,,,,,,,,,,,,,,,,41,001,2023_Mar_03_1113,SpeechDraft1Carolyn_lessNoise_PlusLocalization,2021.2.3,60.00506084720516,
cure.wav,cure.mpg,cure,2,A,Pink_Noise_2_1.wav,Pink_Noise_2_2.wav,,,,,,,,,,,,,,,0,43,43,23,,,,,,,,,,,,,,,,,,,,,,,224.10036850499455,None,225.61684520891868,None,226.9851197419921,None,"cure
",226.9851197419921,None,return,2.0195384939434007,227.06776246300433,None,,,,,,,,,,,,,,,,,,,,,,,,,,,,,,,,,41,001,2023_Mar_03_1113,SpeechDraft1Carolyn_lessNoise_PlusLocalization,2021.2.3,60.00506084720516,
clown.wav,clown.mpg,clown,3,A,Pink_Noise_3_1.wav,Pink_Noise_3_2.wav,,,,,,,,,,,,,,,0,44,44,44,,,,,,,,,,,,,,,,,,,,,,,229.11708325892687,None,230.61689479497727,None,232.00068637693767,None,clout,232.00068637693767,None,return,0.947496350039728,232.0838900009403,None,,,,,,,,,,,,,,,,,,,,,,,,,,,,,,,,,41,001,2023_Mar_03_1113,SpeechDraft1Carolyn_lessNoise_PlusLocalization,2021.2.3,60.00506084720516,
grill.wav,grill.mpg,grill,6,A,Pink_Noise_6_1.wav,Pink_Noise_6_2.wav,,,,,,,,,,,,,,,0,45,45,24,,,,,,,,,,,,,,,,,,,,,,,233.05069306201767,None,234.55019541096408,None,235.93401423597243,None,nice,235.93401423597243,None,return,1.366420075064525,236.01725301600527,None,,,,,,,,,,,,,,,,,,,,,,,,,,,,,,,,,41,001,2023_Mar_03_1113,SpeechDraft1Carolyn_lessNoise_PlusLocalization,2021.2.3,60.00506084720516,
gloom.wav,gloom.mpg,gloom,3,AV,Pink_Noise_3_1.wav,Pink_Noise_3_2.wav,,,,,,,,,,,,,,,0,46,46,77,,,,,,,,,,,,,,,,,,,,,,,237.4006202169694,None,238.9001437309198,None,240.28385928401258,None,glooom,240.28385928401258,None,return,1.3920339130563661,240.36732562398538,None,,,,,,,,,,,,,,,,,,,,,,,,,,,,,,,,,41,001,2023_Mar_03_1113,SpeechDraft1Carolyn_lessNoise_PlusLocalization,2021.2.3,60.00506084720516,
lead.wav,lead.mpg,lead,2,AV,Pink_Noise_2_1.wav,Pink_Noise_2_2.wav,,,,,,,,,,,,,,,0,47,47,93,,,,,,,,,,,,,,,,,,,,,,,241.7839240449248,None,243.28363029193133,None,244.66722366493195,None,led,244.66722366493195,None,return,0.5767853419529274,244.75055805093143,None,,,,,,,,,,,,,,,,,,,,,,,,,,,,,,,,,41,001,2023_Mar_03_1113,SpeechDraft1Carolyn_lessNoise_PlusLocalization,2021.2.3,60.00506084720516,
clap.wav,clap.mpg,clap,1,AV,Pink_Noise_1_1.wav,Pink_Noise_1_2.wav,,,,,,,,,,,,,,,0,48,48,86,,,,,,,,,,,,,,,,,,,,,,,245.35056998301297,None,246.8503900229698,None,248.23394804191776,None,clap,248.23394804191776,None,return,0.8420427789678797,248.31732949300203,None,,,,,,,,,,,,,,,,,,,,,,,,,,,,,,,,,41,001,2023_Mar_03_1113,SpeechDraft1Carolyn_lessNoise_PlusLocalization,2021.2.3,60.00506084720516,
crawl.wav,crawl.mpg,crawl,1,AV,Pink_Noise_1_1.wav,Pink_Noise_1_2.wav,,,,,,,,,,,,,,,0,49,49,112,,,,,,,,,,,,,,,,,,,,,,,249.1840632739477,None,250.6837168999482,None,252.06730799295474,None,crawl,252.06730799295474,None,return,1.4328591289231554,252.15069096791558,None,,,,,,,,,,,,,,,,,,,,,,,,,,,,,,,,,41,001,2023_Mar_03_1113,SpeechDraft1Carolyn_lessNoise_PlusLocalization,2021.2.3,60.00506084720516,
flesh.wav,flesh.mpg,flesh,3,A,Pink_Noise_3_1.wav,Pink_Noise_3_2.wav,,,,,,,,,,,,,,,0,50,50,16,,,,,,,,,,,,,,,,,,,,,,,253.60062813898548,None,255.1003323040204,None,256.483931996976,None,"flesh
",256.483931996976,None,return,3.736160353058949,256.56719476694707,None,,,,,,,,,,,,,,,,,,,,,,,,,,,,,,,,,41,001,2023_Mar_03_1113,SpeechDraft1Carolyn_lessNoise_PlusLocalization,2021.2.3,60.00506084720516,
frame.wav,frame.mpg,frame,1,AV,Pink_Noise_1_1.wav,Pink_Noise_1_2.wav,,,,,,,,,,,,,,,0,51,51,101,,,,,,,,,,,,,,,,,,,,,,,260.3339526929194,None,261.8335899899248,None,263.2172973669367,None,"frame
",263.2172973669367,None,return,1.6347446009749547,263.30060331791174,None,,,,,,,,,,,,,,,,,,,,,,,,,,,,,,,,,41,001,2023_Mar_03_1113,SpeechDraft1Carolyn_lessNoise_PlusLocalization,2021.2.3,60.00506084720516,
crust.wav,crust.mpg,crust,6,A,Pink_Noise_6_1.wav,Pink_Noise_6_2.wav,,,,,,,,,,,,,,,0,52,52,25,,,,,,,,,,,,,,,,,,,,,,,264.9671846469864,None,266.4836960139219,None,267.86729376390576,None,game,267.86729376390576,None,return,4.648738284013234,267.9506969379727,None,,,,,,,,,,,,,,,,,,,,,,,,,,,,,,,,,41,001,2023_Mar_03_1113,SpeechDraft1Carolyn_lessNoise_PlusLocalization,2021.2.3,60.00506084720516,
leapt.wav,leapt.mpg,leapt,4,AV,Pink_Noise_4_1.wav,Pink_Noise_4_2.wav,,,,,,,,,,,,,,,0,53,53,61,,,,,,,,,,,,,,,,,,,,,,,272.6172691240208,None,274.11697691096924,None,275.5007000709884,None,led,275.5007000709884,None,return,2.7913895240053535,275.58400076895487,None,,,,,,,,,,,,,,,,,,,,,,,,,,,,,,,,,41,001,2023_Mar_03_1113,SpeechDraft1Carolyn_lessNoise_PlusLocalization,2021.2.3,60.00506084720516,
gum.wav,gum.mpg,gum,1,A,Pink_Noise_1_1.wav,Pink_Noise_1_2.wav,,,,,,,,,,,,,,,0,54,54,20,,,,,,,,,,,,,,,,,,,,,,,278.40064840600826,None,279.90027615299914,None,281.28403106401674,None,gum,281.28403106401674,None,return,0.824218044988811,281.36730149993673,None,,,,,,,,,,,,,,,,,,,,,,,,,,,,,,,,,41,001,2023_Mar_03_1113,SpeechDraft1Carolyn_lessNoise_PlusLocalization,2021.2.3,60.00506084720516,
fluff.wav,fluff.mpg,fluff,1,A,Pink_Noise_1_1.wav,Pink_Noise_1_2.wav,,,,,,,,,,,,,,,0,55,55,9,,,,,,,,,,,,,,,,,,,,,,,282.21734630700666,None,283.7169195719762,None,285.10065902094357,None,fluff,285.10065902094357,None,return,1.3753416299587116,285.18405568401795,None,,,,,,,,,,,,,,,,,,,,,,,,,,,,,,,,,41,001,2023_Mar_03_1113,SpeechDraft1Carolyn_lessNoise_PlusLocalization,2021.2.3,60.00506084720516,
fault.wav,fault.mpg,fault,4,AV,Pink_Noise_4_1.wav,Pink_Noise_4_2.wav,,,,,,,,,,,,,,,0,56,56,73,,,,,,,,,,,,,,,,,,,,,,,286.5839834929211,None,288.08362352999393,None,289.46732786798384,None,"pot
",289.46732786798384,None,return,1.768520376062952,289.5508449289482,None,,,,,,,,,,,,,,,,,,,,,,,,,,,,,,,,,41,001,2023_Mar_03_1113,SpeechDraft1Carolyn_lessNoise_PlusLocalization,2021.2.3,60.00506084720516,
claw.wav,claw.mpg,claw,6,AV,Pink_Noise_6_1.wav,Pink_Noise_6_2.wav,,,,,,,,,,,,,,,0,57,57,90,,,,,,,,,,,,,,,,,,,,,,,291.3506799469469,None,292.8501898240065,None,294.2341348079499,None,"clock
",294.2341348079499,None,return,1.2340674719307572,294.31730834790505,None,,,,,,,,,,,,,,,,,,,,,,,,,,,,,,,,,41,001,2023_Mar_03_1113,SpeechDraft1Carolyn_lessNoise_PlusLocalization,2021.2.3,60.00506084720516,
firm.wav,firm.mpg,firm,5,A,Pink_Noise_5_1.wav,Pink_Noise_5_2.wav,,,,,,,,,,,,,,,0,58,58,56,,,,,,,,,,,,,,,,,,,,,,,295.58406512392685,None,297.08371947996784,None,298.4674795449246,None,broke,298.4674795449246,None,return,1.2407855889759958,298.55064717598725,None,,,,,,,,,,,,,,,,,,,,,,,,,,,,,,,,,41,001,2023_Mar_03_1113,SpeechDraft1Carolyn_lessNoise_PlusLocalization,2021.2.3,60.00506084720516,
champ.wav,champ.mpg,champ,6,A,Pink_Noise_6_1.wav,Pink_Noise_6_2.wav,,,,,,,,,,,,,,,0,59,59,18,,,,,,,,,,,,,,,,,,,,,,,299.81767559598666,None,301.3169584979769,None,302.70087673992384,None,chant,302.70087673992384,None,return,0.7431072409963235,302.7842263249913,None,,,,,,,,,,,,,,,,,,,,,,,,,,,,,,,,,41,001,2023_Mar_03_1113,SpeechDraft1Carolyn_lessNoise_PlusLocalization,2021.2.3,60.00506084720516,
fist.wav,fist.mpg,fist,1,A,Pink_Noise_1_1.wav,Pink_Noise_1_2.wav,,,,,,,,,,,,,,,0,60,60,58,,,,,,,,,,,,,,,,,,,,,,,303.55080791492946,None,305.0506203029072,None,306.4340333179571,None,ist,306.4340333179571,None,return,0.4579512990312651,306.51742222800385,None,,,,,,,,,,,,,,,,,,,,,,,,,,,,,,,,,41,001,2023_Mar_03_1113,SpeechDraft1Carolyn_lessNoise_PlusLocalization,2021.2.3,60.00506084720516,
dive.wav,dive.mpg,dive,6,AV,Pink_Noise_6_1.wav,Pink_Noise_6_2.wav,,,,,,,,,,,,,,,0,61,61,72,,,,,,,,,,,,,,,,,,,,,,,307.0006901419256,None,308.5003381029237,None,309.884050568915,None,knive,309.884050568915,None,return,2.128125784918666,309.9672422539443,None,,,,,,,,,,,,,,,,,,,,,,,,,,,,,,,,,41,001,2023_Mar_03_1113,SpeechDraft1Carolyn_lessNoise_PlusLocalization,2021.2.3,60.00506084720516,
gun.wav,gun.mpg,gun,3,A,Pink_Noise_3_1.wav,Pink_Noise_3_2.wav,,,,,,,,,,,,,,,0,62,62,36,,,,,,,,,,,,,,,,,,,,,,,312.11745363497175,None,313.6171308429912,None,315.00085413991474,None,gun,315.00085413991474,None,return,0.6593883909517899,315.0839813579805,None,,,,,,,,,,,,,,,,,,,,,,,,,,,,,,,,,41,001,2023_Mar_03_1113,SpeechDraft1Carolyn_lessNoise_PlusLocalization,2021.2.3,60.00506084720516,
frog.wav,frog.mpg,frog,3,AV,Pink_Noise_3_1.wav,Pink_Noise_3_2.wav,,,,,,,,,,,,,,,0,63,63,78,,,,,,,,,,,,,,,,,,,,,,,315.76737252098974,None,317.26715207193047,None,318.650612707017,None,frog,318.650612707017,None,return,1.4254342870553955,318.7339476039633,None,,,,,,,,,,,,,,,,,,,,,,,,,,,,,,,,,41,001,2023_Mar_03_1113,SpeechDraft1Carolyn_lessNoise_PlusLocalization,2021.2.3,60.00506084720516,
booth.wav,booth.mpg,booth,3,A,Pink_Noise_3_1.wav,Pink_Noise_3_2.wav,,,,,,,,,,,,,,,0,64,64,28,,,,,,,,,,,,,,,,,,,,,,,320.18408125499263,None,321.68391206196975,None,323.06754933297634,None,food,323.06754933297634,None,return,0.7927180660190061,323.1506734569557,None,,,,,,,,,,,,,,,,,,,,,,,,,,,,,,,,,41,001,2023_Mar_03_1113,SpeechDraft1Carolyn_lessNoise_PlusLocalization,2021.2.3,60.00506084720516,
drab.wav,drab.mpg,drab,6,A,Pink_Noise_6_1.wav,Pink_Noise_6_2.wav,,,,,,,,,,,,,,,0,65,65,2,,,,,,,,,,,,,,,,,,,,,,,323.96742232795805,None,325.467953093932,None,326.85092026391067,None,"gash
",326.85092026391067,None,return,1.3532992729451507,326.9340560439741,None,,,,,,,,,,,,,,,,,,,,,,,,,,,,,,,,,41,001,2023_Mar_03_1113,SpeechDraft1Carolyn_lessNoise_PlusLocalization,2021.2.3,60.00506084720516,
cap.wav,cap.mpg,cap,5,AV,Pink_Noise_5_1.wav,Pink_Noise_5_2.wav,,,,,,,,,,,,,,,0,66,66,115,,,,,,,,,,,,,,,,,,,,,,,328.31738236697856,None,329.8176314859884,None,331.2007321489509,None,cap,331.2007321489509,None,return,0.875377653981559,331.2839805339463,None,,,,,,,,,,,,,,,,,,,,,,,,,,,,,,,,,41,001,2023_Mar_03_1113,SpeechDraft1Carolyn_lessNoise_PlusLocalization,2021.2.3,60.00506084720516,
chef.wav,chef.mpg,chef,1,AV,Pink_Noise_1_1.wav,Pink_Noise_1_2.wav,,,,,,,,,,,,,,,0,67,67,63,,,,,,,,,,,,,,,,,,,,,,,332.18410285096616,None,333.68369783996604,None,335.0692149850074,None,chef,335.0692149850074,None,return,1.448547001928091,335.1509663600009,None,,,,,,,,,,,,,,,,,,,,,,,,,,,,,,,,,41,001,2023_Mar_03_1113,SpeechDraft1Carolyn_lessNoise_PlusLocalization,2021.2.3,60.00506084720516,
flag.wav,flag.mpg,flag,1,AV,Pink_Noise_1_1.wav,Pink_Noise_1_2.wav,,,,,,,,,,,,,,,0,68,68,79,,,,,,,,,,,,,,,,,,,,,,,336.61741459101904,None,338.11712353199255,None,339.5008102499414,None,flag,339.5008102499414,None,return,3.599297371925786,339.58414620300755,None,,,,,,,,,,,,,,,,,,,,,,,,,,,,,,,,,41,001,2023_Mar_03_1113,SpeechDraft1Carolyn_lessNoise_PlusLocalization,2021.2.3,60.00506084720516,
script.wav,script.mpg,script,5,AV,Pink_Noise_5_1.wav,Pink_Noise_5_2.wav,,,,,,,,,,,,,,,0,69,69,96,,,,,,,,,,,,,,,,,,,,,,,343.20084591396153,None,344.7007476199651,None,346.08394696190953,None,scrpit,346.08394696190953,None,return,2.856059252982959,346.1673997369362,None,,,,,,,,,,,,,,,,,,,,,,,,,,,,,,,,,41,001,2023_Mar_03_1113,SpeechDraft1Carolyn_lessNoise_PlusLocalization,2021.2.3,60.00506084720516,
carve.wav,carve.mpg,carve,2,AV,Pink_Noise_2_1.wav,Pink_Noise_2_2.wav,,,,,,,,,,,,,,,0,70,70,62,,,,,,,,,,,,,,,,,,,,,,,349.05074566195253,None,350.55048222793266,None,351.93406128999777,None,"carve
",351.93406128999777,None,return,1.1178817009786144,352.0174818529049,None,,,,,,,,,,,,,,,,,,,,,,,,,,,,,,,,,41,001,2023_Mar_03_1113,SpeechDraft1Carolyn_lessNoise_PlusLocalization,2021.2.3,60.00506084720516,
hit.wav,hit.mpg,hit,5,AV,Pink_Noise_5_1.wav,Pink_Noise_5_2.wav,,,,,,,,,,,,,,,0,71,71,108,,,,,,,,,,,,,,,,,,,,,,,353.16727070498746,None,354.6669851829065,None,356.0507580660051,None,taste,356.0507580660051,None,return,3.049325649975799,356.1341509729391,None,,,,,,,,,,,,,,,,,,,,,,,,,,,,,,,,,41,001,2023_Mar_03_1113,SpeechDraft1Carolyn_lessNoise_PlusLocalization,2021.2.3,60.00506084720516,
glad.wav,glad.mpg,glad,3,AV,Pink_Noise_3_1.wav,Pink_Noise_3_2.wav,,,,,,,,,,,,,,,0,72,72,87,,,,,,,,,,,,,,,,,,,,,,,359.2008319729939,None,360.71709397796076,None,362.100876239012,None,"glad
",362.100876239012,None,return,1.3672213079407811,362.1841394699877,None,,,,,,,,,,,,,,,,,,,,,,,,,,,,,,,,,41,001,2023_Mar_03_1113,SpeechDraft1Carolyn_lessNoise_PlusLocalization,2021.2.3,60.00506084720516,
book.wav,book.mpg,book,2,A,Pink_Noise_2_1.wav,Pink_Noise_2_2.wav,,,,,,,,,,,,,,,0,73,73,48,,,,,,,,,,,,,,,,,,,,,,,363.58412512997165,None,365.1006259910064,None,366.46760502492543,None,"book
",366.46760502492543,None,return,2.9686711240792647,366.5507177229738,None,,,,,,,,,,,,,,,,,,,,,,,,,,,,,,,,,41,001,2023_Mar_03_1113,SpeechDraft1Carolyn_lessNoise_PlusLocalization,2021.2.3,60.00506084720516,
bunch.wav,bunch.mpg,bunch,5,AV,Pink_Noise_5_1.wav,Pink_Noise_5_2.wav,,,,,,,,,,,,,,,0,74,74,89,,,,,,,,,,,,,,,,,,,,,,,369.5508694240125,None,371.05142287700437,None,372.4339477689937,None,"bunch
",372.4339477689937,None,return,1.6180091180140153,372.5173493649345,None,,,,,,,,,,,,,,,,,,,,,,,,,,,,,,,,,41,001,2023_Mar_03_1113,SpeechDraft1Carolyn_lessNoise_PlusLocalization,2021.2.3,60.00506084720516,
dawn.wav,dawn.mpg,dawn,5,A,Pink_Noise_5_1.wav,Pink_Noise_5_2.wav,,,,,,,,,,,,,,,0,75,75,6,,,,,,,,,,,,,,,,,,,,,,,374.1674438449554,None,375.66709882498253,None,377.0508857310051,None,drive,377.0508857310051,None,return,1.705426428001374,377.13409487891477,None,,,,,,,,,,,,,,,,,,,,,,,,,,,,,,,,,41,001,2023_Mar_03_1113,SpeechDraft1Carolyn_lessNoise_PlusLocalization,2021.2.3,60.00506084720516,
guard.wav,guard.mpg,guard,6,AV,Pink_Noise_6_1.wav,Pink_Noise_6_2.wav,,,,,,,,,,,,,,,0,76,76,113,,,,,,,,,,,,,,,,,,,,,,,378.86752803390846,None,380.36790366494097,None,381.75067460292485,None,car,381.75067460292485,None,return,1.3894235009793192,381.83401884895284,None,,,,,,,,,,,,,,,,,,,,,,,,,,,,,,,,,41,001,2023_Mar_03_1113,SpeechDraft1Carolyn_lessNoise_PlusLocalization,2021.2.3,60.00506084720516,
blink.wav,blink.mpg,blink,3,AV,Pink_Noise_3_1.wav,Pink_Noise_3_2.wav,,,,,,,,,,,,,,,0,77,77,91,,,,,,,,,,,,,,,,,,,,,,,383.2507816340076,None,384.75053851597477,None,386.1339578119805,None,ick,386.1339578119805,None,return,1.1900503430515528,386.21742785698734,None,,,,,,,,,,,,,,,,,,,,,,,,,,,,,,,,,41,001,2023_Mar_03_1113,SpeechDraft1Carolyn_lessNoise_PlusLocalization,2021.2.3,60.00506084720516,
thorn.wav,thorn.mpg,thorn,3,A,Pink_Noise_3_1.wav,Pink_Noise_3_2.wav,,,,,,,,,,,,,,,0,78,78,45,,,,,,,,,,,,,,,,,,,,,,,387.4341348579619,None,388.9351574209286,None,390.3174435889814,None,thorn,390.3174435889814,None,return,2.8623666800558567,390.4010003369767,None,,,,,,,,,,,,,,,,,,,,,,,,,,,,,,,,,41,001,2023_Mar_03_1113,SpeechDraft1Carolyn_lessNoise_PlusLocalization,2021.2.3,60.00506084720516,
flaw.wav,flaw.mpg,flaw,6,AV,Pink_Noise_6_1.wav,Pink_Noise_6_2.wav,,,,,,,,,,,,,,,0,79,79,60,,,,,,,,,,,,,,,,,,,,,,,393.2843114909483,None,394.7839806799311,None,396.1674475769978,None,flock,396.1674475769978,None,return,1.0605854829773307,396.2507634059293,None,,,,,,,,,,,,,,,,,,,,,,,,,,,,,,,,,41,001,2023_Mar_03_1113,SpeechDraft1Carolyn_lessNoise_PlusLocalization,2021.2.3,60.00506084720516,
gulf.wav,gulf.mpg,gulf,4,A,Pink_Noise_4_1.wav,Pink_Noise_4_2.wav,,,,,,,,,,,,,,,0,80,80,37,,,,,,,,,,,,,,,,,,,,,,,397.33412781893276,None,398.83376082696486,None,400.21746931492817,None,golf,400.21746931492817,None,return,0.5945727470098063,400.30080301791895,None,,,,,,,,,,,,,,,,,,,,,,,,,,,,,,,,,41,001,2023_Mar_03_1113,SpeechDraft1Carolyn_lessNoise_PlusLocalization,2021.2.3,60.00506084720516,
grape.wav,grape.mpg,grape,4,A,Pink_Noise_4_1.wav,Pink_Noise_4_2.wav,,,,,,,,,,,,,,,0,81,81,42,,,,,,,,,,,,,,,,,,,,,,,400.9175957830157,None,402.41711900697555,None,403.80097612401005,None,grape,403.80097612401005,None,return,0.5232956750551239,403.88423997396603,None,,,,,,,,,,,,,,,,,,,,,,,,,,,,,,,,,41,001,2023_Mar_03_1113,SpeechDraft1Carolyn_lessNoise_PlusLocalization,2021.2.3,60.00506084720516,
fear.wav,fear.mpg,fear,5,A,Pink_Noise_5_1.wav,Pink_Noise_5_2.wav,,,,,,,,,,,,,,,0,82,82,46,,,,,,,,,,,,,,,,,,,,,,,404.43424574891105,None,405.9504729579203,None,407.31761204998475,None,uice,407.31761204998475,None,return,0.4539820500649512,407.40136036195327,None,,,,,,,,,,,,,,,,,,,,,,,,,,,,,,,,,41,001,2023_Mar_03_1113,SpeechDraft1Carolyn_lessNoise_PlusLocalization,2021.2.3,60.00506084720516,
cone.wav,cone.mpg,cone,5,AV,Pink_Noise_5_1.wav,Pink_Noise_5_2.wav,,,,,,,,,,,,,,,0,83,83,76,,,,,,,,,,,,,,,,,,,,,,,407.88420156401116,None,409.3843461389188,None,410.76740969496313,None,"tame
",410.76740969496313,None,return,0.604362242971547,410.85098559991457,None,,,,,,,,,,,,,,,,,,,,,,,,,,,,,,,,,41,001,2023_Mar_03_1113,SpeechDraft1Carolyn_lessNoise_PlusLocalization,2021.2.3,60.00506084720516,
farm.wav,farm.mpg,farm,5,AV,Pink_Noise_5_1.wav,Pink_Noise_5_2.wav,,,,,,,,,,,,,,,0,84,84,69,,,,,,,,,,,,,,,,,,,,,,,411.48415803699754,None,412.9853772049537,None,414.36749944800977,None,fun,414.36749944800977,None,return,0.5486253059934825,414.4508615739178,None,,,,,,,,,,,,,,,,,,,,,,,,,,,,,,,,,41,001,2023_Mar_03_1113,SpeechDraft1Carolyn_lessNoise_PlusLocalization,2021.2.3,60.00506084720516,
glare.wav,glare.mpg,glare,3,A,Pink_Noise_3_1.wav,Pink_Noise_3_2.wav,,,,,,,,,,,,,,,0,85,85,38,,,,,,,,,,,,,,,,,,,,,,,415.01742181996815,None,416.5337098969612,None,417.9175107089104,None,"bear
",417.9175107089104,None,return,4.734478209982626,418.00087702891324,None,,,,,,,,,,,,,,,,,,,,,,,,,,,,,,,,,41,001,2023_Mar_03_1113,SpeechDraft1Carolyn_lessNoise_PlusLocalization,2021.2.3,60.00506084720516,
rid.wav,rid.mpg,rid,3,A,Pink_Noise_3_1.wav,Pink_Noise_3_2.wav,,,,,,,,,,,,,,,0,86,86,22,,,,,,,,,,,,,,,,,,,,,,,422.76755939400755,None,424.26714454591274,None,425.6508799409494,None,rid,425.6508799409494,None,return,0.9611960289767012,425.73417377192527,None,,,,,,,,,,,,,,,,,,,,,,,,,,,,,,,,,41,001,2023_Mar_03_1113,SpeechDraft1Carolyn_lessNoise_PlusLocalization,2021.2.3,60.00506084720516,
crane.wav,crane.mpg,crane,3,AV,Pink_Noise_3_1.wav,Pink_Noise_3_2.wav,,,,,,,,,,,,,,,0,87,87,66,,,,,,,,,,,,,,,,,,,,,,,426.71759995201137,None,428.21792107401416,None,429.60083688097075,None,"craving
",429.60083688097075,None,return,1.8510970839997754,429.6842709919438,None,,,,,,,,,,,,,,,,,,,,,,,,,,,,,,,,,41,001,2023_Mar_03_1113,SpeechDraft1Carolyn_lessNoise_PlusLocalization,2021.2.3,60.00506084720516,
feast.wav,feast.mpg,feast,2,A,Pink_Noise_2_1.wav,Pink_Noise_2_2.wav,,,,,,,,,,,,,,,0,88,88,4,,,,,,,,,,,,,,,,,,,,,,,431.5674430679064,None,433.0670997709967,None,434.4508134369971,None,feast,434.4508134369971,None,return,1.5932485000230372,434.5341343819164,None,,,,,,,,,,,,,,,,,,,,,,,,,,,,,,,,,41,001,2023_Mar_03_1113,SpeechDraft1Carolyn_lessNoise_PlusLocalization,2021.2.3,60.00506084720516,
fluent.wav,fluent.mpg,fluent,2,AV,Pink_Noise_2_1.wav,Pink_Noise_2_2.wav,,,,,,,,,,,,,,,0,89,89,110,,,,,,,,,,,,,,,,,,,,,,,436.1507882709848,None,437.65256570396014,None,439.03449083596934,None,fluent,439.03449083596934,None,return,4.121921312063932,439.11754403694067,None,,,,,,,,,,,,,,,,,,,,,,,,,,,,,,,,,41,001,2023_Mar_03_1113,SpeechDraft1Carolyn_lessNoise_PlusLocalization,2021.2.3,60.00506084720516,
bowl.wav,bowl.mpg,bowl,4,A,Pink_Noise_4_1.wav,Pink_Noise_4_2.wav,,,,,,,,,,,,,,,0,90,90,33,,,,,,,,,,,,,,,,,,,,,,,443.26753190590534,None,444.76722894702107,None,446.15091768000275,None,golf,446.15091768000275,None,return,1.0132436129497364,446.2342175099766,None,,,,,,,,,,,,,,,,,,,,,,,,,,,,,,,,,41,001,2023_Mar_03_1113,SpeechDraft1Carolyn_lessNoise_PlusLocalization,2021.2.3,60.00506084720516,
dual.wav,dual.mpg,dual,2,AV,Pink_Noise_2_1.wav,Pink_Noise_2_2.wav,,,,,,,,,,,,,,,0,91,91,99,,,,,,,,,,,,,,,,,,,,,,,447.2677231649868,None,448.7672303089639,None,450.15093096601777,None,dual,450.15093096601777,None,return,1.6452461939770728,450.2341321629938,None,,,,,,,,,,,,,,,,,,,,,,,,,,,,,,,,,41,001,2023_Mar_03_1113,SpeechDraft1Carolyn_lessNoise_PlusLocalization,2021.2.3,60.00506084720516,
fence.wav,fence.mpg,fence,2,AV,Pink_Noise_2_1.wav,Pink_Noise_2_2.wav,,,,,,,,,,,,,,,0,92,92,104,,,,,,,,,,,,,,,,,,,,,,,451.9009657849092,None,453.4171797109302,None,454.8009810359217,None,felnce,454.8009810359217,None,return,1.4430100780446082,454.88436314696446,None,,,,,,,,,,,,,,,,,,,,,,,,,,,,,,,,,41,001,2023_Mar_03_1113,SpeechDraft1Carolyn_lessNoise_PlusLocalization,2021.2.3,60.00506084720516,
awe.wav,awe.mpg,awe,2,A,Pink_Noise_2_1.wav,Pink_Noise_2_2.wav,,,,,,,,,,,,,,,0,93,93,1,,,,,,,,,,,,,,,,,,,,,,,456.3509295840049,None,457.85206330998335,None,459.23431667592376,None,off,459.23431667592376,None,return,0.5776513169985265,459.3177155510057,None,,,,,,,,,,,,,,,,,,,,,,,,,,,,,,,,,41,001,2023_Mar_03_1113,SpeechDraft1Carolyn_lessNoise_PlusLocalization,2021.2.3,60.00506084720516,
crow.wav,crow.mpg,crow,4,AV,Pink_Noise_4_1.wav,Pink_Noise_4_2.wav,,,,,,,,,,,,,,,0,94,94,64,,,,,,,,,,,,,,,,,,,,,,,459.91763390391134,None,461.43387639301363,None,462.8176182889147,None,crowd,462.8176182889147,None,return,1.2665743629913777,462.90090927190613,None,,,,,,,,,,,,,,,,,,,,,,,,,,,,,,,,,41,001,2023_Mar_03_1113,SpeechDraft1Carolyn_lessNoise_PlusLocalization,2021.2.3,60.00506084720516,
bias.wav,bias.mpg,bias,3,A,Pink_Noise_3_1.wav,Pink_Noise_3_2.wav,,,,,,,,,,,,,,,0,95,95,15,,,,,,,,,,,,,,,,,,,,,,,464.18417029990815,None,465.6854270409094,None,467.06756368197966,None,bias,467.06756368197966,None,return,0.8805597870377824,467.15085300197825,None,,,,,,,,,,,,,,,,,,,,,,,,,,,,,,,,,41,001,2023_Mar_03_1113,SpeechDraft1Carolyn_lessNoise_PlusLocalization,2021.2.3,60.00506084720516,
deck.wav,deck.mpg,deck,6,AV,Pink_Noise_6_1.wav,Pink_Noise_6_2.wav,,,,,,,,,,,,,,,0,96,96,75,,,,,,,,,,,,,,,,,,,,,,,468.0509844489861,None,469.5840462789638,None,470.9676612339681,None,snack,470.9676612339681,None,return,0.8763758189743385,471.05096238898113,None,,,,,,,,,,,,,,,,,,,,,,,,,,,,,,,,,41,001,2023_Mar_03_1113,SpeechDraft1Carolyn_lessNoise_PlusLocalization,2021.2.3,60.00506084720516,
bush.wav,bush.mpg,bush,3,AV,Pink_Noise_3_1.wav,Pink_Noise_3_2.wav,,,,,,,,,,,,,,,0,97,97,65,,,,,,,,,,,,,,,,,,,,,,,471.95099286700133,None,473.4672557869926,None,474.8509466079995,None,rusdh,474.8509466079995,None,return,0.5051909099565819,474.9342607319122,None,,,,,,,,,,,,,,,,,,,,,,,,,,,,,,,,,41,001,2023_Mar_03_1113,SpeechDraft1Carolyn_lessNoise_PlusLocalization,2021.2.3,60.00506084720516,
chill.wav,chill.mpg,chill,3,A,Pink_Noise_3_1.wav,Pink_Noise_3_2.wav,,,,,,,,,,,,,,,0,98,98,51,,,,,,,,,,,,,,,,,,,,,,,475.46770315698814,None,476.96760485495906,None,478.350980700925,None,hill,478.350980700925,None,return,0.6611009100452065,478.43424713693094,None,,,,,,,,,,,,,,,,,,,,,,,,,,,,,,,,,41,001,2023_Mar_03_1113,SpeechDraft1Carolyn_lessNoise_PlusLocalization,2021.2.3,60.00506084720516,
grave.wav,grave.mpg,grave,2,AV,Pink_Noise_2_1.wav,Pink_Noise_2_2.wav,,,,,,,,,,,,,,,0,99,99,116,,,,,,,,,,,,,,,,,,,,,,,479.11761133396067,None,480.63391739700455,None,482.01808547694236,None,grave,482.01808547694236,None,return,0.6664300099946558,482.1009090989828,None,,,,,,,,,,,,,,,,,,,,,,,,,,,,,,,,,41,001,2023_Mar_03_1113,SpeechDraft1Carolyn_lessNoise_PlusLocalization,2021.2.3,60.00506084720516,
game.wav,game.mpg,game,1,A,Pink_Noise_1_1.wav,Pink_Noise_1_2.wav,,,,,,,,,,,,,,,0,100,100,54,,,,,,,,,,,,,,,,,,,,,,,482.7841744169127,None,484.28518258291297,None,485.6690445129061,None,game,485.6690445129061,None,return,3.3123952980386093,485.7509583529318,None,,,,,,,,,,,,,,,,,,,,,,,,,,,,,,,,,41,001,2023_Mar_03_1113,SpeechDraft1Carolyn_lessNoise_PlusLocalization,2021.2.3,60.00506084720516,
built.wav,built.mpg,built,5,AV,Pink_Noise_5_1.wav,Pink_Noise_5_2.wav,,,,,,,,,,,,,,,0,101,101,111,,,,,,,,,,,,,,,,,,,,,,,489.0842623959761,None,490.58514657395426,None,491.96774232096504,None,built,491.96774232096504,None,return,1.508320024004206,492.0510554459179,None,,,,,,,,,,,,,,,,,,,,,,,,,,,,,,,,,41,001,2023_Mar_03_1113,SpeechDraft1Carolyn_lessNoise_PlusLocalization,2021.2.3,60.00506084720516,
chump.wav,chump.mpg,chump,4,A,Pink_Noise_4_1.wav,Pink_Noise_4_2.wav,,,,,,,,,,,,,,,0,102,102,3,,,,,,,,,,,,,,,,,,,,,,,493.5842911149375,None,495.10062681301497,None,496.48420570301823,None,chug,496.48420570301823,None,return,0.8798654009588063,496.5675708099734,None,,,,,,,,,,,,,,,,,,,,,,,,,,,,,,,,,41,001,2023_Mar_03_1113,SpeechDraft1Carolyn_lessNoise_PlusLocalization,2021.2.3,60.00506084720516,
greed.wav,greed.mpg,greed,2,AV,Pink_Noise_2_1.wav,Pink_Noise_2_2.wav,,,,,,,,,,,,,,,0,103,103,107,,,,,,,,,,,,,,,,,,,,,,,497.4676674900111,None,498.969239544007,None,500.3510172639508,None,greed,500.3510172639508,None,return,0.909093055059202,500.434283467941,None,,,,,,,,,,,,,,,,,,,,,,,,,,,,,,,,,41,001,2023_Mar_03_1113,SpeechDraft1Carolyn_lessNoise_PlusLocalization,2021.2.3,60.00506084720516,
pants.wav,pants.mpg,pants,4,A,Pink_Noise_4_1.wav,Pink_Noise_4_2.wav,,,,,,,,,,,,,,,0,104,104,29,,,,,,,,,,,,,,,,,,,,,,,501.3676530109951,None,502.8839727229206,None,504.26765404397156,None,"pince
",504.26765404397156,None,return,3.520459218067117,504.3509212259669,None,,,,,,,,,,,,,,,,,,,,,,,,,,,,,,,,,41,001,2023_Mar_03_1113,SpeechDraft1Carolyn_lessNoise_PlusLocalization,2021.2.3,60.00506084720516,
weep.wav,weep.mpg,weep,1,A,Pink_Noise_1_1.wav,Pink_Noise_1_2.wav,,,,,,,,,,,,,,,0,105,105,40,,,,,,,,,,,,,,,,,,,,,,,507.9009573109215,None,509.4172120220028,None,510.8009940140182,None,weak,510.8009940140182,None,return,1.107192378025502,510.88431773800403,None,,,,,,,,,,,,,,,,,,,,,,,,,,,,,,,,,41,001,2023_Mar_03_1113,SpeechDraft1Carolyn_lessNoise_PlusLocalization,2021.2.3,60.00506084720516,
gush.wav,gush.mpg,gush,4,AV,Pink_Noise_4_1.wav,Pink_Noise_4_2.wav,,,,,,,,,,,,,,,0,106,106,105,,,,,,,,,,,,,,,,,,,,,,,512.0175747600151,None,513.5339483189164,None,514.917805971927,None,gush,514.917805971927,None,return,0.8944111679447815,515.000958604971,None,,,,,,,,,,,,,,,,,,,,,,,,,,,,,,,,,41,001,2023_Mar_03_1113,SpeechDraft1Carolyn_lessNoise_PlusLocalization,2021.2.3,60.00506084720516,
fierce.wav,fierce.mpg,fierce,2,AV,Pink_Noise_2_1.wav,Pink_Noise_2_2.wav,,,,,,,,,,,,,,,0,107,107,119,,,,,,,,,,,,,,,,,,,,,,,515.9176664249972,None,517.4339664039435,None,518.8176568169147,None,"feirce
",518.8176568169147,None,return,2.7862828209763393,518.9010571929393,None,,,,,,,,,,,,,,,,,,,,,,,,,,,,,,,,,41,001,2023_Mar_03_1113,SpeechDraft1Carolyn_lessNoise_PlusLocalization,2021.2.3,60.00506084720516,
dark.wav,dark.mpg,dark,3,AV,Pink_Noise_3_1.wav,Pink_Noise_3_2.wav,,,,,,,,,,,,,,,0,108,108,106,,,,,,,,,,,,,,,,,,,,,,,521.7175622070208,None,523.2506948799128,None,524.6342260449892,None,"duck
",524.6342260449892,None,return,1.4017483938951045,524.717606819002,None,,,,,,,,,,,,,,,,,,,,,,,,,,,,,,,,,41,001,2023_Mar_03_1113,SpeechDraft1Carolyn_lessNoise_PlusLocalization,2021.2.3,60.00506084720516,
chick.wav,chick.mpg,chick,4,AV,Pink_Noise_4_1.wav,Pink_Noise_4_2.wav,,,,,,,,,,,,,,,0,109,109,83,,,,,,,,,,,,,,,,,,,,,,,526.1509740150068,None,527.6673148109112,None,529.0508493619272,None,"chicken
",529.0508493619272,None,return,1.2170722060836852,529.1343022079673,None,,,,,,,,,,,,,,,,,,,,,,,,,,,,,,,,,41,001,2023_Mar_03_1113,SpeechDraft1Carolyn_lessNoise_PlusLocalization,2021.2.3,60.00506084720516,
dead.wav,dead.mpg,dead,4,A,Pink_Noise_4_1.wav,Pink_Noise_4_2.wav,,,,,,,,,,,,,,,0,110,110,47,,,,,,,,,,,,,,,,,,,,,,,530.3843711339869,None,531.9005624370184,None,533.2843234639149,None,dead,533.2843234639149,None,return,1.0957069849828258,533.3676746049896,None,,,,,,,,,,,,,,,,,,,,,,,,,,,,,,,,,41,001,2023_Mar_03_1113,SpeechDraft1Carolyn_lessNoise_PlusLocalization,2021.2.3,60.00506084720516,
cross.wav,cross.mpg,cross,3,AV,Pink_Noise_3_1.wav,Pink_Noise_3_2.wav,,,,,,,,,,,,,,,0,111,111,74,,,,,,,,,,,,,,,,,,,,,,,534.4842666640179,None,536.1841249919962,None,537.5676520760171,None,cross,537.5676520760171,None,return,1.364323450019583,537.6510355069768,None,,,,,,,,,,,,,,,,,,,,,,,,,,,,,,,,,41,001,2023_Mar_03_1113,SpeechDraft1Carolyn_lessNoise_PlusLocalization,2021.2.3,60.00506084720516,
boost.wav,boost.mpg,boost,4,AV,Pink_Noise_4_1.wav,Pink_Noise_4_2.wav,,,,,,,,,,,,,,,0,112,112,114,,,,,,,,,,,,,,,,,,,,,,,539.0343756299699,None,540.534063093015,None,541.9176220269874,None,boost,541.9176220269874,None,return,2.198610922903754,542.000924048014,None,,,,,,,,,,,,,,,,,,,,,,,,,,,,,,,,,41,001,2023_Mar_03_1113,SpeechDraft1Carolyn_lessNoise_PlusLocalization,2021.2.3,60.00506084720516,
edge.wav,edge.mpg,edge,6,A,Pink_Noise_6_1.wav,Pink_Noise_6_2.wav,,,,,,,,,,,,,,,0,113,113,14,,,,,,,,,,,,,,,,,,,,,,,544.217607715982,None,545.7340174609562,None,547.1176285679685,None,edge,547.1176285679685,None,return,2.046272599021904,547.2012772109592,None,,,,,,,,,,,,,,,,,,,,,,,,,,,,,,,,,41,001,2023_Mar_03_1113,SpeechDraft1Carolyn_lessNoise_PlusLocalization,2021.2.3,60.00506084720516,
cramp.wav,cramp.mpg,cramp,5,AV,Pink_Noise_5_1.wav,Pink_Noise_5_2.wav,,,,,,,,,,,,,,,0,114,114,81,,,,,,,,,,,,,,,,,,,,,,,549.2676249509677,None,550.7839405179257,None,552.1677658519475,None,"cramp\
",552.1677658519475,None,return,1.5402013070415705,552.2511484379647,None,,,,,,,,,,,,,,,,,,,,,,,,,,,,,,,,,41,001,2023_Mar_03_1113,SpeechDraft1Carolyn_lessNoise_PlusLocalization,2021.2.3,60.00506084720516,
clam.wav,clam.mpg,clam,4,A,Pink_Noise_4_1.wav,Pink_Noise_4_2.wav,,,,,,,,,,,,,,,0,115,115,13,,,,,,,,,,,,,,,,,,,,,,,553.8344211499207,None,555.3339318259386,None,556.7177462319378,None,plant,556.7177462319378,None,return,2.4143421639455482,556.8010192089714,None,,,,,,,,,,,,,,,,,,,,,,,,,,,,,,,,,41,001,2023_Mar_03_1113,SpeechDraft1Carolyn_lessNoise_PlusLocalization,2021.2.3,60.00506084720516,
creek.wav,creek.mpg,creek,1,A,Pink_Noise_1_1.wav,Pink_Noise_1_2.wav,,,,,,,,,,,,,,,0,116,116,12,,,,,,,,,,,,,,,,,,,,,,,559.234346782905,None,560.7340144870104,None,562.1177943520015,None,creek,562.1177943520015,None,return,1.406510766944848,562.201091249939,None,,,,,,,,,,,,,,,,,,,,,,,,,,,,,,,,,41,001,2023_Mar_03_1113,SpeechDraft1Carolyn_lessNoise_PlusLocalization,2021.2.3,60.00506084720516,
tart.wav,tart.mpg,tart,5,AV,Pink_Noise_5_1.wav,Pink_Noise_5_2.wav,,,,,,,,,,,,,,,0,117,117,71,,,,,,,,,,,,,,,,,,,,,,,563.6344479150139,None,565.135923853959,None,566.5175377889536,None,torch,566.5175377889536,None,return,2.2623502919450402,566.6010049099568,None,,,,,,,,,,,,,,,,,,,,,,,,,,,,,,,,,41,001,2023_Mar_03_1113,SpeechDraft1Carolyn_lessNoise_PlusLocalization,2021.2.3,60.00506084720516,
blunt.wav,blunt.mpg,blunt,6,A,Pink_Noise_6_1.wav,Pink_Noise_6_2.wav,,,,,,,,,,,,,,,0,118,118,8,,,,,,,,,,,,,,,,,,,,,,,568.8844470279291,None,570.4172881519189,None,571.8009927190142,None,blush,571.8009927190142,None,return,3.2592229440342635,571.8844505479792,None,,,,,,,,,,,,,,,,,,,,,,,,,,,,,,,,,41,001,2023_Mar_03_1113,SpeechDraft1Carolyn_lessNoise_PlusLocalization,2021.2.3,60.00506084720516,
shed.wav,shed.mpg,shed,5,A,Pink_Noise_5_1.wav,Pink_Noise_5_2.wav,,,,,,,,,,,,,,,0,119,119,53,,,,,,,,,,,,,,,,,,,,,,,575.1683882249054,None,576.6839146449929,None,578.0676780199865,None,"chef
",578.0676780199865,None,return,2.0002601919695735,578.1510967169888,None,,,,,,,,,,,,,,,,,,,,,,,,,,,,,,,,,41,001,2023_Mar_03_1113,SpeechDraft1Carolyn_lessNoise_PlusLocalization,2021.2.3,60.00506084720516,
,,,,,,,,,,,,,,,,,,,,,,,,,,,,,,,,,,,,,,,,,,,,,,,,,,,,,,,,,,,,,,,,,,space,9.658990196068771,580.2843609990086,None,,,,,,,,,,,,,,,,,,,,,,,41,001,2023_Mar_03_1113,SpeechDraft1Carolyn_lessNoise_PlusLocalization,2021.2.3,60.00506084720516,
,,,,,,,,nearRight,6.5,0,ch1Sound_localizationTask.wav,6.5,"(1047, 878)","(87, -202)",95,-338,,,,,,,,,0,0,0,4,,,,,,,,,,,,,,,,,,,,,,,,,,,,,,,,,,,,,,,,,,580.2843609990086,None,589.9841502589406,None,591.1008132009301,None,592.0174925589235,None,1.7121693121693122,2.002796835033223,592.0174925589235,None,,,,,,,,,,,41,001,2023_Mar_03_1113,SpeechDraft1Carolyn_lessNoise_PlusLocalization,2021.2.3,60.00506084720516,
,,,,,,,,farLeft,-19.1,5,ch1Sound_localizationTask.wav,-19.1,"(667, 878)","(-293,-202)",-285,-338,,,,,,,,,0,1,1,0,,,,,,,,,,,,,,,,,,,,,,,,,,,,,,,,,,,,,,,,,,,,594.0345454119379,None,595.1342203780077,None,596.0674969429383,None,1.1862433862433863,0.7545424270210788,596.0674969429383,None,,,,,,,,,,,41,001,2023_Mar_03_1113,SpeechDraft1Carolyn_lessNoise_PlusLocalization,2021.2.3,60.00506084720516,
,,,,,,,,center,0.0,6,ch1Sound_localizationTask.wav,0.0,"(952, 878)","(-8,-202)",0,-338,,,,,,,,,0,2,2,3,,,,,,,,,,,,,,,,,,,,,,,,,,,,,,,,,,,,,,,,,,,,596.8510267219972,None,597.9506922709988,None,598.8676833260106,None,1.7465608465608464,0.9836888790596277,598.8676833260106,None,,,,,,,,,,,41,001,2023_Mar_03_1113,SpeechDraft1Carolyn_lessNoise_PlusLocalization,2021.2.3,60.00506084720516,
,,,,,,,,farLeft,-19.1,5,ch1Sound_localizationTask.wav,-19.1,"(667, 878)","(-293,-202)",-285,-338,,,,,,,,,0,3,3,0,,,,,,,,,,,,,,,,,,,,,,,,,,,,,,,,,,,,,,,,,,,,599.8532052700175,None,600.9675894170068,None,601.8842037429567,None,1.1671957671957673,0.5178491870174184,601.8842037429567,None,,,,,,,,,,,41,001,2023_Mar_03_1113,SpeechDraft1Carolyn_lessNoise_PlusLocalization,2021.2.3,60.00506084720516,
,,,,,,,,farLeft,-19.1,5,ch1Sound_localizationTask.wav,-19.1,"(667, 878)","(-293,-202)",-285,-338,,,,,,,,,0,4,4,0,,,,,,,,,,,,,,,,,,,,,,,,,,,,,,,,,,,,,,,,,,,,602.4178962549195,None,603.5174013749929,None,604.4509071379434,None,1.0814814814814815,1.1340367450611666,604.4509071379434,None,,,,,,,,,,,41,001,2023_Mar_03_1113,SpeechDraft1Carolyn_lessNoise_PlusLocalization,2021.2.3,60.00506084720516,
,,,,,,,,midLeft,-13.0,2,ch1Sound_localizationTask.wav,-13.0,"(762, 878)","(-198,-202)",-190,-338,,,,,,,,,0,5,5,1,,,,,,,,,,,,,,,,,,,,,,,,,,,,,,,,,,,,,,,,,,,,605.6014923260082,None,606.7009176359279,None,607.6341292549623,None,1.3423280423280424,0.8988750039134175,607.6341292549623,None,,,,,,,,,,,41,001,2023_Mar_03_1113,SpeechDraft1Carolyn_lessNoise_PlusLocalization,2021.2.3,60.00506084720516,
,,,,,,,,farLeft,-19.1,5,ch1Sound_localizationTask.wav,-19.1,"(667, 878)","(-293,-202)",-285,-338,,,,,,,,,0,6,6,0,,,,,,,,,,,,,,,,,,,,,,,,,,,,,,,,,,,,,,,,,,,,608.5361049169442,None,609.6508690930204,None,610.5673041970003,None,1.1830687830687832,0.4007405349984765,610.5673041970003,None,,,,,,,,,,,41,001,2023_Mar_03_1113,SpeechDraft1Carolyn_lessNoise_PlusLocalization,2021.2.3,60.00506084720516,
,,,,,,,,center,0.0,6,ch1Sound_localizationTask.wav,0.0,"(952, 878)","(-8,-202)",0,-338,,,,,,,,,1,0,7,3,,,,,,,,,,,,,,,,,,,,,,,,,,,,,,,,,,,,,,,,,,,,610.9845599209657,None,612.0841347129317,None,613.0175556559116,None,1.5846560846560847,0.7161528670694679,613.0175556559116,None,,,,,,,,,,,41,001,2023_Mar_03_1113,SpeechDraft1Carolyn_lessNoise_PlusLocalization,2021.2.3,60.00506084720516,
,,,,,,,,midLeft,-13.0,2,ch1Sound_localizationTask.wav,-13.0,"(762, 878)","(-198,-202)",-190,-338,,,,,,,,,1,1,8,1,,,,,,,,,,,,,,,,,,,,,,,,,,,,,,,,,,,,,,,,,,,,613.7512477379059,None,614.85090708395,None,615.783953952021,None,1.2677248677248678,0.46749086293857545,615.783953952021,None,,,,,,,,,,,41,001,2023_Mar_03_1113,SpeechDraft1Carolyn_lessNoise_PlusLocalization,2021.2.3,60.00506084720516,
,,,,,,,,midLeft,-13.0,2,ch1Sound_localizationTask.wav,-13.0,"(762, 878)","(-198,-202)",-190,-338,,,,,,,,,1,2,9,1,,,,,,,,,,,,,,,,,,,,,,,,,,,,,,,,,,,,,,,,,,,,616.2678809299832,None,617.3675904419506,None,618.300844408921,None,1.2835978835978836,0.5336654230486602,618.300844408921,None,,,,,,,,,,,41,001,2023_Mar_03_1113,SpeechDraft1Carolyn_lessNoise_PlusLocalization,2021.2.3,60.00506084720516,
,,,,,,,,midRight,13.0,3,ch1Sound_localizationTask.wav,13.0,"(1142, 878)","(182, -202)",190,-338,,,,,,,,,1,3,10,5,,,,,,,,,,,,,,,,,,,,,,,,,,,,,,,,,,,,,,,,,,,,618.8511057969881,None,619.9509660369949,None,620.8844079719856,None,1.6539682539682539,0.34909430204425007,620.8844079719856,None,,,,,,,,,,,41,001,2023_Mar_03_1113,SpeechDraft1Carolyn_lessNoise_PlusLocalization,2021.2.3,60.00506084720516,
,,,,,,,,midLeft,-13.0,2,ch1Sound_localizationTask.wav,-13.0,"(762, 878)","(-198,-202)",-190,-338,,,,,,,,,1,4,11,1,,,,,,,,,,,,,,,,,,,,,,,,,,,,,,,,,,,,,,,,,,,,621.2362534569111,None,622.350859188009,None,623.2674993729452,None,1.2428571428571429,0.43545784591697156,623.2674993729452,None,,,,,,,,,,,41,001,2023_Mar_03_1113,SpeechDraft1Carolyn_lessNoise_PlusLocalization,2021.2.3,60.00506084720516,
,,,,,,,,midLeft,-13.0,2,ch1Sound_localizationTask.wav,-13.0,"(762, 878)","(-198,-202)",-190,-338,,,,,,,,,1,5,12,1,,,,,,,,,,,,,,,,,,,,,,,,,,,,,,,,,,,,,,,,,,,,623.7178081369493,None,624.8175663989969,None,625.7508399799699,None,1.252910052910053,0.3500193260842934,625.7508399799699,None,,,,,,,,,,,41,001,2023_Mar_03_1113,SpeechDraft1Carolyn_lessNoise_PlusLocalization,2021.2.3,60.00506084720516,
,,,,,,,,midLeft,-13.0,2,ch1Sound_localizationTask.wav,-13.0,"(762, 878)","(-198,-202)",-190,-338,,,,,,,,,1,6,13,1,,,,,,,,,,,,,,,,,,,,,,,,,,,,,,,,,,,,,,,,,,,,626.1020664050011,None,627.2008846369572,None,628.1342279269593,None,1.252910052910053,0.532591272960417,628.1342279269593,None,,,,,,,,,,,41,001,2023_Mar_03_1113,SpeechDraft1Carolyn_lessNoise_PlusLocalization,2021.2.3,60.00506084720516,
,,,,,,,,nearRight,6.5,0,ch1Sound_localizationTask.wav,6.5,"(1047, 878)","(87, -202)",95,-338,,,,,,,,,2,0,14,4,,,,,,,,,,,,,,,,,,,,,,,,,,,,,,,,,,,,,,,,,,,,628.6682590040145,None,629.7675528089749,None,630.7008339059539,None,1.6026455026455027,0.4659584528999403,630.7008339059539,None,,,,,,,,,,,41,001,2023_Mar_03_1113,SpeechDraft1Carolyn_lessNoise_PlusLocalization,2021.2.3,60.00506084720516,
,,,,,,,,nearLeft,-6.5,1,ch1Sound_localizationTask.wav,-6.5,"(857, 878)","(-103,-202)",-95,-338,,,,,,,,,2,1,15,2,,,,,,,,,,,,,,,,,,,,,,,,,,,,,,,,,,,,,,,,,,,,631.1696539119584,None,632.284233202925,None,633.2008806939702,None,1.3169312169312168,0.716883301967755,633.2008806939702,None,,,,,,,,,,,41,001,2023_Mar_03_1113,SpeechDraft1Carolyn_lessNoise_PlusLocalization,2021.2.3,60.00506084720516,
,,,,,,,,nearRight,6.5,0,ch1Sound_localizationTask.wav,6.5,"(1047, 878)","(87, -202)",95,-338,,,,,,,,,2,2,16,4,,,,,,,,,,,,,,,,,,,,,,,,,,,,,,,,,,,,,,,,,,,,633.919981435989,None,635.0343844789313,None,635.9508573019411,None,1.6095238095238096,0.599298782995902,635.9508573019411,None,,,,,,,,,,,41,001,2023_Mar_03_1113,SpeechDraft1Carolyn_lessNoise_PlusLocalization,2021.2.3,60.00506084720516,
,,,,,,,,nearLeft,-6.5,1,ch1Sound_localizationTask.wav,-6.5,"(857, 878)","(-103,-202)",-95,-338,,,,,,,,,2,3,17,2,,,,,,,,,,,,,,,,,,,,,,,,,,,,,,,,,,,,,,,,,,,,636.5519722419558,None,637.6509322609054,None,638.584023309988,None,1.3830687830687831,0.6840173540404066,638.584023309988,None,,,,,,,,,,,41,001,2023_Mar_03_1113,SpeechDraft1Carolyn_lessNoise_PlusLocalization,2021.2.3,60.00506084720516,
,,,,,,,,midRight,13.0,3,ch1Sound_localizationTask.wav,13.0,"(1142, 878)","(182, -202)",190,-338,,,,,,,,,2,4,18,5,,,,,,,,,,,,,,,,,,,,,,,,,,,,,,,,,,,,,,,,,,,,639.2847212629858,None,640.3842087469529,None,641.317530205939,None,1.6465608465608466,0.3994615509873256,641.317530205939,None,,,,,,,,,,,41,001,2023_Mar_03_1113,SpeechDraft1Carolyn_lessNoise_PlusLocalization,2021.2.3,60.00506084720516,
,,,,,,,,farLeft,-19.1,5,ch1Sound_localizationTask.wav,-19.1,"(667, 878)","(-293,-202)",-285,-338,,,,,,,,,2,5,19,0,,,,,,,,,,,,,,,,,,,,,,,,,,,,,,,,,,,,,,,,,,,,641.7189730599057,None,642.8341257499997,None,643.7508677130099,None,1.2724867724867726,0.43374272203072906,643.7508677130099,None,,,,,,,,,,,41,001,2023_Mar_03_1113,SpeechDraft1Carolyn_lessNoise_PlusLocalization,2021.2.3,60.00506084720516,
,,,,,,,,nearRight,6.5,0,ch1Sound_localizationTask.wav,6.5,"(1047, 878)","(87, -202)",95,-338,,,,,,,,,2,6,20,4,,,,,,,,,,,,,,,,,,,,,,,,,,,,,,,,,,,,,,,,,,,,644.2012093350058,None,645.3008868870093,None,646.2342633849476,None,1.5153439153439154,0.3504771590232849,646.2342633849476,None,,,,,,,,,,,41,001,2023_Mar_03_1113,SpeechDraft1Carolyn_lessNoise_PlusLocalization,2021.2.3,60.00506084720516,
,,,,,,,,center,0.0,6,ch1Sound_localizationTask.wav,0.0,"(952, 878)","(-8,-202)",0,-338,,,,,,,,,3,0,21,3,,,,,,,,,,,,,,,,,,,,,,,,,,,,,,,,,,,,,,,,,,,,646.6011467319913,None,647.7009208819363,None,648.6340770829702,None,1.355026455026455,0.18388617201708257,648.6340770829702,None,,,,,,,,,,,41,001,2023_Mar_03_1113,SpeechDraft1Carolyn_lessNoise_PlusLocalization,2021.2.3,60.00506084720516,
,,,,,,,,nearLeft,-6.5,1,ch1Sound_localizationTask.wav,-6.5,"(857, 878)","(-103,-202)",-95,-338,,,,,,,,,3,1,22,2,,,,,,,,,,,,,,,,,,,,,,,,,,,,,,,,,,,,,,,,,,,,648.8345051689539,None,649.9341790860053,None,650.8673952269601,None,1.3724867724867724,0.3503179659601301,650.8673952269601,None,,,,,,,,,,,41,001,2023_Mar_03_1113,SpeechDraft1Carolyn_lessNoise_PlusLocalization,2021.2.3,60.00506084720516,
,,,,,,,,farRight,19.1,4,ch1Sound_localizationTask.wav,19.1,"(1237, 878)","(277,-202)",285,-338,,,,,,,,,3,2,23,6,,,,,,,,,,,,,,,,,,,,,,,,,,,,,,,,,,,,,,,,,,,,651.2187392839696,None,652.3174418149283,None,653.2508854599437,None,1.6502645502645503,0.03311467997264117,653.2508854599437,None,,,,,,,,,,,41,001,2023_Mar_03_1113,SpeechDraft1Carolyn_lessNoise_PlusLocalization,2021.2.3,60.00506084720516,
,,,,,,,,midRight,13.0,3,ch1Sound_localizationTask.wav,13.0,"(1142, 878)","(182, -202)",190,-338,,,,,,,,,3,3,24,5,,,,,,,,,,,,,,,,,,,,,,,,,,,,,,,,,,,,,,,,,,,,653.2850000970066,None,654.384337165975,None,655.3175934639294,None,1.801058201058201,0.8010558959795162,655.3175934639294,None,,,,,,,,,,,41,001,2023_Mar_03_1113,SpeechDraft1Carolyn_lessNoise_PlusLocalization,2021.2.3,60.00506084720516,
,,,,,,,,center,0.0,6,ch1Sound_localizationTask.wav,0.0,"(952, 878)","(-8,-202)",0,-338,,,,,,,,,3,4,25,3,,,,,,,,,,,,,,,,,,,,,,,,,,,,,,,,,,,,,,,,,,,,656.134743564995,None,657.2343755270122,None,658.16752081702,None,1.4687830687830687,0.7356262300163507,658.16752081702,None,,,,,,,,,,,41,001,2023_Mar_03_1113,SpeechDraft1Carolyn_lessNoise_PlusLocalization,2021.2.3,60.00506084720516,
,,,,,,,,center,0.0,6,ch1Sound_localizationTask.wav,0.0,"(952, 878)","(-8,-202)",0,-338,,,,,,,,,3,5,26,3,,,,,,,,,,,,,,,,,,,,,,,,,,,,,,,,,,,,,,,,,,,,658.917775181937,None,660.0175952779828,None,660.9508220809512,None,1.2624338624338625,0.4840958860004321,660.9508220809512,None,,,,,,,,,,,41,001,2023_Mar_03_1113,SpeechDraft1Carolyn_lessNoise_PlusLocalization,2021.2.3,60.00506084720516,
,,,,,,,,farRight,19.1,4,ch1Sound_localizationTask.wav,19.1,"(1237, 878)","(277,-202)",285,-338,,,,,,,,,3,6,27,6,,,,,,,,,,,,,,,,,,,,,,,,,,,,,,,,,,,,,,,,,,,,661.4511764039053,None,662.5508109509246,None,663.4842541069956,None,1.7412698412698413,0.48334470798727125,663.4842541069956,None,,,,,,,,,,,41,001,2023_Mar_03_1113,SpeechDraft1Carolyn_lessNoise_PlusLocalization,2021.2.3,60.00506084720516,
,,,,,,,,nearLeft,-6.5,1,ch1Sound_localizationTask.wav,-6.5,"(857, 878)","(-103,-202)",-95,-338,,,,,,,,,4,0,28,2,,,,,,,,,,,,,,,,,,,,,,,,,,,,,,,,,,,,,,,,,,,,663.9692723419284,None,665.0844778659521,None,666.0008938399842,None,1.2507936507936508,0.3504157670540735,666.0008938399842,None,,,,,,,,,,,41,001,2023_Mar_03_1113,SpeechDraft1Carolyn_lessNoise_PlusLocalization,2021.2.3,60.00506084720516,
,,,,,,,,nearLeft,-6.5,1,ch1Sound_localizationTask.wav,-6.5,"(857, 878)","(-103,-202)",-95,-338,,,,,,,,,4,1,29,2,,,,,,,,,,,,,,,,,,,,,,,,,,,,,,,,,,,,,,,,,,,,666.367881056969,None,667.4676198419183,None,668.4009951379849,None,1.2603174603174603,0.3040163549594581,668.4009951379849,None,,,,,,,,,,,41,001,2023_Mar_03_1113,SpeechDraft1Carolyn_lessNoise_PlusLocalization,2021.2.3,60.00506084720516,
,,,,,,,,nearLeft,-6.5,1,ch1Sound_localizationTask.wav,-6.5,"(857, 878)","(-103,-202)",-95,-338,,,,,,,,,4,2,30,2,,,,,,,,,,,,,,,,,,,,,,,,,,,,,,,,,,,,,,,,,,,,668.717997932923,None,669.8175582319964,None,670.7509782540146,None,1.2608465608465609,0.366009785910137,670.7509782540146,None,,,,,,,,,,,41,001,2023_Mar_03_1113,SpeechDraft1Carolyn_lessNoise_PlusLocalization,2021.2.3,60.00506084720516,
,,,,,,,,nearRight,6.5,0,ch1Sound_localizationTask.wav,6.5,"(1047, 878)","(87, -202)",95,-338,,,,,,,,,4,3,31,4,,,,,,,,,,,,,,,,,,,,,,,,,,,,,,,,,,,,,,,,,,,,671.1182638530154,None,672.2175724849803,None,673.1508821470197,None,1.3693121693121693,0.3499228699365631,673.1508821470197,None,,,,,,,,,,,41,001,2023_Mar_03_1113,SpeechDraft1Carolyn_lessNoise_PlusLocalization,2021.2.3,60.00506084720516,
,,,,,,,,midRight,13.0,3,ch1Sound_localizationTask.wav,13.0,"(1142, 878)","(182, -202)",190,-338,,,,,,,,,4,4,32,5,,,,,,,,,,,,,,,,,,,,,,,,,,,,,,,,,,,,,,,,,,,,673.5022425119532,None,674.6008414539974,None,675.5341327239294,None,1.5433862433862435,0.3689837019192055,675.5341327239294,None,,,,,,,,,,,41,001,2023_Mar_03_1113,SpeechDraft1Carolyn_lessNoise_PlusLocalization,2021.2.3,60.00506084720516,
,,,,,,,,nearLeft,-6.5,1,ch1Sound_localizationTask.wav,-6.5,"(857, 878)","(-103,-202)",-95,-338,,,,,,,,,4,5,33,2,,,,,,,,,,,,,,,,,,,,,,,,,,,,,,,,,,,,,,,,,,,,675.9179049649974,None,677.0175922629423,None,677.9508373789722,None,1.3291005291005291,0.31687159603461623,677.9508373789722,None,,,,,,,,,,,41,001,2023_Mar_03_1113,SpeechDraft1Carolyn_lessNoise_PlusLocalization,2021.2.3,60.00506084720516,
,,,,,,,,farRight,19.1,4,ch1Sound_localizationTask.wav,19.1,"(1237, 878)","(277,-202)",285,-338,,,,,,,,,4,6,34,6,,,,,,,,,,,,,,,,,,,,,,,,,,,,,,,,,,,,,,,,,,,,678.284546875977,None,679.3843402799685,None,680.3174901530147,None,1.6851851851851851,0.3686788199702278,680.3174901530147,None,,,,,,,,,,,41,001,2023_Mar_03_1113,SpeechDraft1Carolyn_lessNoise_PlusLocalization,2021.2.3,60.00506084720516,
,,,,,,,,midRight,13.0,3,ch1Sound_localizationTask.wav,13.0,"(1142, 878)","(182, -202)",190,-338,,,,,,,,,5,0,35,5,,,,,,,,,,,,,,,,,,,,,,,,,,,,,,,,,,,,,,,,,,,,680.701249080943,None,681.8009216289502,None,682.7342195679666,None,1.5137566137566139,0.3819691239623353,682.7342195679666,None,,,,,,,,,,,41,001,2023_Mar_03_1113,SpeechDraft1Carolyn_lessNoise_PlusLocalization,2021.2.3,60.00506084720516,
,,,,,,,,farRight,19.1,4,ch1Sound_localizationTask.wav,19.1,"(1237, 878)","(277,-202)",285,-338,,,,,,,,,5,1,36,6,,,,,,,,,,,,,,,,,,,,,,,,,,,,,,,,,,,,,,,,,,,,683.1182987089269,None,684.2182774359826,None,685.1508911079727,None,1.5777777777777777,0.3998980689793825,685.1508911079727,None,,,,,,,,,,,41,001,2023_Mar_03_1113,SpeechDraft1Carolyn_lessNoise_PlusLocalization,2021.2.3,60.00506084720516,
,,,,,,,,farLeft,-19.1,5,ch1Sound_localizationTask.wav,-19.1,"(667, 878)","(-293,-202)",-285,-338,,,,,,,,,5,2,37,0,,,,,,,,,,,,,,,,,,,,,,,,,,,,,,,,,,,,,,,,,,,,685.5516573200002,None,686.6509887289722,None,687.5842056309339,None,1.3772486772486774,0.6500746470410377,687.5842056309339,None,,,,,,,,,,,41,001,2023_Mar_03_1113,SpeechDraft1Carolyn_lessNoise_PlusLocalization,2021.2.3,60.00506084720516,
,,,,,,,,farLeft,-19.1,5,ch1Sound_localizationTask.wav,-19.1,"(667, 878)","(-293,-202)",-285,-338,,,,,,,,,5,3,38,0,,,,,,,,,,,,,,,,,,,,,,,,,,,,,,,,,,,,,,,,,,,,688.2358810579171,None,689.3509572019102,None,690.2676617680117,None,1.4322751322751324,0.6998397300485522,690.2676617680117,None,,,,,,,,,,,41,001,2023_Mar_03_1113,SpeechDraft1Carolyn_lessNoise_PlusLocalization,2021.2.3,60.00506084720516,
,,,,,,,,nearLeft,-6.5,1,ch1Sound_localizationTask.wav,-6.5,"(857, 878)","(-103,-202)",-95,-338,,,,,,,,,5,4,39,2,,,,,,,,,,,,,,,,,,,,,,,,,,,,,,,,,,,,,,,,,,,,690.96852106601,None,692.0676730549894,None,693.0008931659395,None,1.366137566137566,0.6172620260622352,693.0008931659395,None,,,,,,,,,,,41,001,2023_Mar_03_1113,SpeechDraft1Carolyn_lessNoise_PlusLocalization,2021.2.3,60.00506084720516,
,,,,,,,,midRight,13.0,3,ch1Sound_localizationTask.wav,13.0,"(1142, 878)","(182, -202)",190,-338,,,,,,,,,5,5,40,5,,,,,,,,,,,,,,,,,,,,,,,,,,,,,,,,,,,,,,,,,,,,693.6346973559121,None,694.7343516650144,None,695.6676544660004,None,1.6857142857142857,0.616856072912924,695.6676544660004,None,,,,,,,,,,,41,001,2023_Mar_03_1113,SpeechDraft1Carolyn_lessNoise_PlusLocalization,2021.2.3,60.00506084720516,
,,,,,,,,center,0.0,6,ch1Sound_localizationTask.wav,0.0,"(952, 878)","(-8,-202)",0,-338,,,,,,,,,5,6,41,3,,,,,,,,,,,,,,,,,,,,,,,,,,,,,,,,,,,,,,,,,,,,696.3011552349199,None,697.4007391979685,None,698.3341533549828,None,1.580952380952381,0.3985321429790929,698.3341533549828,None,,,,,,,,,,,41,001,2023_Mar_03_1113,SpeechDraft1Carolyn_lessNoise_PlusLocalization,2021.2.3,60.00506084720516,
,,,,,,,,farRight,19.1,4,ch1Sound_localizationTask.wav,19.1,"(1237, 878)","(277,-202)",285,-338,,,,,,,,,6,0,42,6,,,,,,,,,,,,,,,,,,,,,,,,,,,,,,,,,,,,,,,,,,,,698.7352867699228,None,699.8341743969359,None,700.7675304519944,None,1.6227513227513226,0.5158067289739847,700.7675304519944,None,,,,,,,,,,,41,001,2023_Mar_03_1113,SpeechDraft1Carolyn_lessNoise_PlusLocalization,2021.2.3,60.00506084720516,
,,,,,,,,farLeft,-19.1,5,ch1Sound_localizationTask.wav,-19.1,"(667, 878)","(-293,-202)",-285,-338,,,,,,,,,6,1,43,0,,,,,,,,,,,,,,,,,,,,,,,,,,,,,,,,,,,,,,,,,,,,701.2851767130196,None,702.3842839739518,None,703.3175636329688,None,1.3888888888888888,0.6840997290564701,703.3175636329688,None,,,,,,,,,,,41,001,2023_Mar_03_1113,SpeechDraft1Carolyn_lessNoise_PlusLocalization,2021.2.3,60.00506084720516,
,,,,,,,,midRight,13.0,3,ch1Sound_localizationTask.wav,13.0,"(1142, 878)","(182, -202)",190,-338,,,,,,,,,6,2,44,5,,,,,,,,,,,,,,,,,,,,,,,,,,,,,,,,,,,,,,,,,,,,704.018050492974,None,705.1175718159648,None,706.0508886319585,None,1.6047619047619048,0.4163019780535251,706.0508886319585,None,,,,,,,,,,,41,001,2023_Mar_03_1113,SpeechDraft1Carolyn_lessNoise_PlusLocalization,2021.2.3,60.00506084720516,
,,,,,,,,midRight,13.0,3,ch1Sound_localizationTask.wav,13.0,"(1142, 878)","(182, -202)",190,-338,,,,,,,,,6,3,45,5,,,,,,,,,,,,,,,,,,,,,,,,,,,,,,,,,,,,,,,,,,,,706.4683669949882,None,707.567688288982,None,708.5009485509945,None,1.5566137566137566,1.468052770011127,708.5009485509945,None,,,,,,,,,,,41,001,2023_Mar_03_1113,SpeechDraft1Carolyn_lessNoise_PlusLocalization,2021.2.3,60.00506084720516,
,,,,,,,,center,0.0,6,ch1Sound_localizationTask.wav,0.0,"(952, 878)","(-8,-202)",0,-338,,,,,,,,,6,4,46,3,,,,,,,,,,,,,,,,,,,,,,,,,,,,,,,,,,,,,,,,,,,,709.9847823699238,None,711.0842772079632,None,712.0176846639952,None,1.474074074074074,0.34970626898575574,712.0176846639952,None,,,,,,,,,,,41,001,2023_Mar_03_1113,SpeechDraft1Carolyn_lessNoise_PlusLocalization,2021.2.3,60.00506084720516,
,,,,,,,,midLeft,-13.0,2,ch1Sound_localizationTask.wav,-13.0,"(762, 878)","(-198,-202)",-190,-338,,,,,,,,,6,5,47,1,,,,,,,,,,,,,,,,,,,,,,,,,,,,,,,,,,,,,,,,,,,,712.3846462370129,None,713.4843881999841,None,714.417547672987,None,1.3994708994708995,0.1155646579572931,714.417547672987,None,,,,,,,,,,,41,001,2023_Mar_03_1113,SpeechDraft1Carolyn_lessNoise_PlusLocalization,2021.2.3,60.00506084720516,
,,,,,,,,nearRight,6.5,0,ch1Sound_localizationTask.wav,6.5,"(1047, 878)","(87, -202)",95,-338,,,,,,,,,6,6,48,4,,,,,,,,,,,,,,,,,,,,,,,,,,,,,,,,,,,,,,,,,,,,714.5349952249089,None,715.6342317899689,None,716.5675603129202,None,1.519047619047619,0.3164536770200357,716.5675603129202,None,,,,,,,,,,,41,001,2023_Mar_03_1113,SpeechDraft1Carolyn_lessNoise_PlusLocalization,2021.2.3,60.00506084720516,
,,,,,,,,nearRight,6.5,0,ch1Sound_localizationTask.wav,6.5,"(1047, 878)","(87, -202)",95,-338,,,,,,,,,7,0,49,4,,,,,,,,,,,,,,,,,,,,,,,,,,,,,,,,,,,,,,,,,,,,716.9013332249597,None,718.0010429829126,None,718.9343242419418,None,1.5820105820105819,0.3012870990205556,718.9343242419418,None,,,,,,,,,,,41,001,2023_Mar_03_1113,SpeechDraft1Carolyn_lessNoise_PlusLocalization,2021.2.3,60.00506084720516,
,,,,,,,,farRight,19.1,4,ch1Sound_localizationTask.wav,19.1,"(1237, 878)","(277,-202)",285,-338,,,,,,,,,7,1,50,6,,,,,,,,,,,,,,,,,,,,,,,,,,,,,,,,,,,,,,,,,,,,719.2514308219543,None,720.3509555659257,None,721.2843097170116,None,1.5783068783068783,0.31759929202962667,721.2843097170116,None,,,,,,,,,,,41,001,2023_Mar_03_1113,SpeechDraft1Carolyn_lessNoise_PlusLocalization,2021.2.3,60.00506084720516,
,,,,,,,,nearRight,6.5,0,ch1Sound_localizationTask.wav,6.5,"(1047, 878)","(87, -202)",95,-338,,,,,,,,,7,2,51,4,,,,,,,,,,,,,,,,,,,,,,,,,,,,,,,,,,,,,,,,,,,,721.6180862989277,None,722.717621985008,None,723.6508622689871,None,1.5693121693121692,0.1172342300415039,723.6508622689871,None,,,,,,,,,,,41,001,2023_Mar_03_1113,SpeechDraft1Carolyn_lessNoise_PlusLocalization,2021.2.3,60.00506084720516,
,,,,,,,,farRight,19.1,4,ch1Sound_localizationTask.wav,19.1,"(1237, 878)","(277,-202)",285,-338,,,,,,,,,7,3,52,6,,,,,,,,,,,,,,,,,,,,,,,,,,,,,,,,,,,,,,,,,,,,723.7691338979639,None,724.8842924779747,None,725.8009836889105,None,1.6941798941798942,0.08389586408156902,725.8009836889105,None,,,,,,,,,,,41,001,2023_Mar_03_1113,SpeechDraft1Carolyn_lessNoise_PlusLocalization,2021.2.3,60.00506084720516,
,,,,,,,,farRight,19.1,4,ch1Sound_localizationTask.wav,19.1,"(1237, 878)","(277,-202)",285,-338,,,,,,,,,7,4,53,6,,,,,,,,,,,,,,,,,,,,,,,,,,,,,,,,,,,,,,,,,,,,725.9013074709801,None,727.0009731269674,None,727.9343234489206,None,1.7502645502645502,0.16575856297276914,727.9343234489206,None,,,,,,,,,,,41,001,2023_Mar_03_1113,SpeechDraft1Carolyn_lessNoise_PlusLocalization,2021.2.3,60.00506084720516,
,,,,,,,,midLeft,-13.0,2,ch1Sound_localizationTask.wav,-13.0,"(762, 878)","(-198,-202)",-190,-338,,,,,,,,,7,5,54,1,,,,,,,,,,,,,,,,,,,,,,,,,,,,,,,,,,,,,,,,,,,,728.1013908289606,None,729.2009927770123,None,730.1343433329603,None,1.2804232804232805,0.8831422100774944,730.1343433329603,None,,,,,,,,,,,41,001,2023_Mar_03_1113,SpeechDraft1Carolyn_lessNoise_PlusLocalization,2021.2.3,60.00506084720516,
,,,,,,,,center,0.0,6,ch1Sound_localizationTask.wav,0.0,"(952, 878)","(-8,-202)",0,-338,,,,,,,,,7,6,55,3,,,,,,,,,,,,,,,,,,,,,,,,,,,,,,,,,,,,,,,,,,,,731.018675723928,None,732.1176052750088,None,733.0509437549626,None,1.397883597883598,0.6331305858911946,733.0509437549626,None,,,,,,,,,,,41,001,2023_Mar_03_1113,SpeechDraft1Carolyn_lessNoise_PlusLocalization,2021.2.3,60.00506084720516,
,,,,,,,,,,,,,,,,,,,,,,,,,,,,,,,,,,,,,,,,,,,,,,,,,,,,,,,,,,,,,,,,,,,,,,,,,,,,,,,,,,space,5.151386189041659,733.7679689639481,None,,,,,,,41,001,2023_Mar_03_1113,SpeechDraft1Carolyn_lessNoise_PlusLocalization,2021.2.3,60.00506084720516,
,,,,,,,,nearRight,6.5,0,ch1Sound_localizationTask.wav,6.5,"(1047, 878)","(87, -202)",95,-338,,,,,,,,,,,,,0,0,0,4,,,,,,,,,,,,,,,,,,,,,,,,,,,,,,,,,,,,,,,,738.9676807989599,None,,,742.0011297980091,None,1.608994708994709,0.953896471997723,742.0011297980091,None,,,,,733.7679689639481,None,739.9679341989104,None,740.1513227929827,740.167834369,41,001,2023_Mar_03_1113,SpeechDraft1Carolyn_lessNoise_PlusLocalization,2021.2.3,60.00506084720516,
,,,,,,,,nearRight,6.5,0,ch1Sound_localizationTask.wav,6.5,"(1047, 878)","(87, -202)",95,-338,,,,,,,,,,,,,0,1,1,4,,,,,,,,,,,,,,,,,,,,,,,,,,,,,,,,,,,,,,,,742.9679608149454,None,,,745.9842951259343,None,1.564021164021164,0.549769444973208,745.9842951259343,None,,,,,,,743.9679121149238,None,744.1513582979096,744.1678948879708,41,001,2023_Mar_03_1113,SpeechDraft1Carolyn_lessNoise_PlusLocalization,2021.2.3,60.00506084720516,
,,,,,,,,center,0.0,6,ch1Sound_localizationTask.wav,0.0,"(952, 878)","(-8,-202)",0,-338,,,,,,,,,,,,,0,2,2,3,,,,,,,,,,,,,,,,,,,,,,,,,,,,,,,,,,,,,,,,746.5513711159583,None,,,749.56773531402,None,1.5074074074074075,0.6160368240671232,749.56773531402,None,,,,,,,747.5514307549456,None,747.7347221400123,747.7514769160189,41,001,2023_Mar_03_1113,SpeechDraft1Carolyn_lessNoise_PlusLocalization,2021.2.3,60.00506084720516,
,,,,,,,,center,0.0,6,ch1Sound_localizationTask.wav,0.0,"(952, 878)","(-8,-202)",0,-338,,,,,,,,,,,,,0,3,3,3,,,,,,,,,,,,,,,,,,,,,,,,,,,,,,,,,,,,,,,,750.1859477839898,None,,,753.2177831729641,None,1.507936507936508,0.41603386600036174,753.2177831729641,None,,,,,,,751.2013141859788,None,751.3845817740075,751.4013401059201,41,001,2023_Mar_03_1113,SpeechDraft1Carolyn_lessNoise_PlusLocalization,2021.2.3,60.00506084720516,
,,,,,,,,farLeft,-19.1,5,ch1Sound_localizationTask.wav,-19.1,"(667, 878)","(-293,-202)",-285,-338,,,,,,,,,,,,,0,4,4,0,,,,,,,,,,,,,,,,,,,,,,,,,,,,,,,,,,,,,,,,753.6353597289417,None,,,756.6509364879457,None,1.3444444444444446,0.23282126407139003,756.6509364879457,None,,,,,,,754.6347707709065,None,754.8179698309395,754.8346542799845,41,001,2023_Mar_03_1113,SpeechDraft1Carolyn_lessNoise_PlusLocalization,2021.2.3,60.00506084720516,
,,,,,,,,nearRight,6.5,0,ch1Sound_localizationTask.wav,6.5,"(1047, 878)","(87, -202)",95,-338,,,,,,,,,,,,,0,5,5,4,,,,,,,,,,,,,,,,,,,,,,,,,,,,,,,,,,,,,,,,756.8853417419596,None,,,759.9010532459943,None,1.4952380952380953,0.43388419202528894,759.9010532459943,None,,,,,,,757.8846734019462,None,758.068035669974,758.0846082170028,41,001,2023_Mar_03_1113,SpeechDraft1Carolyn_lessNoise_PlusLocalization,2021.2.3,60.00506084720516,
,,,,,,,,farLeft,-19.1,5,ch1Sound_localizationTask.wav,-19.1,"(667, 878)","(-293,-202)",-285,-338,,,,,,,,,,,,,0,6,6,0,,,,,,,,,,,,,,,,,,,,,,,,,,,,,,,,,,,,,,,,760.3514906850178,None,,,763.3677302569849,None,1.3063492063492064,0.8661287650465965,763.3677302569849,None,,,,,,,761.3512814219575,None,761.5346058770083,761.551215842017,41,001,2023_Mar_03_1113,SpeechDraft1Carolyn_lessNoise_PlusLocalization,2021.2.3,60.00506084720516,
,,,,,,,,farRight,19.1,4,ch1Sound_localizationTask.wav,19.1,"(1237, 878)","(277,-202)",285,-338,,,,,,,,,,,,,1,0,7,6,,,,,,,,,,,,,,,,,,,,,,,,,,,,,,,,,,,,,,,,764.2358374459436,None,,,767.2677908609621,None,1.656084656084656,0.7329814410768449,767.2677908609621,None,,,,,,,765.2514108349569,None,765.4346903580008,765.4513661660021,41,001,2023_Mar_03_1113,SpeechDraft1Carolyn_lessNoise_PlusLocalization,2021.2.3,60.00506084720516,
,,,,,,,,midLeft,-13.0,2,ch1Sound_localizationTask.wav,-13.0,"(762, 878)","(-198,-202)",-190,-338,,,,,,,,,,,,,1,1,8,1,,,,,,,,,,,,,,,,,,,,,,,,,,,,,,,,,,,,,,,,768.0021933789831,None,,,771.0176738159498,None,1.4068783068783068,0.4013926009647548,771.0176738159498,None,,,,,,,769.0014011259191,None,769.1847604499198,769.2013376039686,41,001,2023_Mar_03_1113,SpeechDraft1Carolyn_lessNoise_PlusLocalization,2021.2.3,60.00506084720516,
,,,,,,,,center,0.0,6,ch1Sound_localizationTask.wav,0.0,"(952, 878)","(-8,-202)",0,-338,,,,,,,,,,,,,1,2,9,3,,,,,,,,,,,,,,,,,,,,,,,,,,,,,,,,,,,,,,,,771.4346587429754,None,,,774.4512022659183,None,1.5185185185185186,0.7162772400770336,774.4512022659183,None,,,,,,,772.4346686709905,None,772.6180131459842,772.6347474600188,41,001,2023_Mar_03_1113,SpeechDraft1Carolyn_lessNoise_PlusLocalization,2021.2.3,60.00506084720516,
,,,,,,,,farRight,19.1,4,ch1Sound_localizationTask.wav,19.1,"(1237, 878)","(277,-202)",285,-338,,,,,,,,,,,,,1,3,10,6,,,,,,,,,,,,,,,,,,,,,,,,,,,,,,,,,,,,,,,,775.1847738230135,None,,,778.2010580549249,None,1.6835978835978835,0.9656915250234306,778.2010580549249,None,,,,,,,776.1846049969317,None,776.3681548249442,776.384726912016,41,001,2023_Mar_03_1113,SpeechDraft1Carolyn_lessNoise_PlusLocalization,2021.2.3,60.00506084720516,
,,,,,,,,farRight,19.1,4,ch1Sound_localizationTask.wav,19.1,"(1237, 878)","(277,-202)",285,-338,,,,,,,,,,,,,1,4,11,6,,,,,,,,,,,,,,,,,,,,,,,,,,,,,,,,,,,,,,,,779.1688775499351,None,,,782.1844625949161,None,1.7571428571428571,0.7505435789935291,782.1844625949161,None,,,,,,,780.1679816829273,None,780.3513299379265,780.3680336639518,41,001,2023_Mar_03_1113,SpeechDraft1Carolyn_lessNoise_PlusLocalization,2021.2.3,60.00506084720516,
,,,,,,,,midLeft,-13.0,2,ch1Sound_localizationTask.wav,-13.0,"(762, 878)","(-198,-202)",-190,-338,,,,,,,,,,,,,1,5,12,1,,,,,,,,,,,,,,,,,,,,,,,,,,,,,,,,,,,,,,,,782.9513729569735,None,,,785.9677394069731,None,1.4142857142857141,1.0834364000475034,785.9677394069731,None,,,,,,,783.9513797669206,None,784.1347425869899,784.1513637310127,41,001,2023_Mar_03_1113,SpeechDraft1Carolyn_lessNoise_PlusLocalization,2021.2.3,60.00506084720516,
,,,,,,,,nearLeft,-6.5,1,ch1Sound_localizationTask.wav,-6.5,"(857, 878)","(-103,-202)",-95,-338,,,,,,,,,,,,,1,6,13,2,,,,,,,,,,,,,,,,,,,,,,,,,,,,,,,,,,,,,,,,787.0680119419703,None,,,790.0844805029919,None,1.4608465608465608,0.2164498680504039,790.0844805029919,None,,,,,,,788.0679847039282,None,788.2513007100206,788.2680279879132,41,001,2023_Mar_03_1113,SpeechDraft1Carolyn_lessNoise_PlusLocalization,2021.2.3,60.00506084720516,
,,,,,,,,nearLeft,-6.5,1,ch1Sound_localizationTask.wav,-6.5,"(857, 878)","(-103,-202)",-95,-338,,,,,,,,,,,,,2,0,14,2,,,,,,,,,,,,,,,,,,,,,,,,,,,,,,,,,,,,,,,,790.3025840509217,None,,,793.3343580169603,None,1.426984126984127,0.6997765909181908,793.3343580169603,None,,,,,,,791.3181046489626,None,791.5014349669218,791.5179806569358,41,001,2023_Mar_03_1113,SpeechDraft1Carolyn_lessNoise_PlusLocalization,2021.2.3,60.00506084720516,
,,,,,,,,midRight,13.0,3,ch1Sound_localizationTask.wav,13.0,"(1142, 878)","(182, -202)",190,-338,,,,,,,,,,,,,2,1,15,5,,,,,,,,,,,,,,,,,,,,,,,,,,,,,,,,,,,,,,,,794.0358107419452,None,,,797.0677018159768,None,1.6042328042328042,0.7492824960500002,797.0677018159768,None,,,,,,,795.0513854409801,None,795.2347148249391,795.2513968449784,41,001,2023_Mar_03_1113,SpeechDraft1Carolyn_lessNoise_PlusLocalization,2021.2.3,60.00506084720516,
,,,,,,,,midRight,13.0,3,ch1Sound_localizationTask.wav,13.0,"(1142, 878)","(182, -202)",190,-338,,,,,,,,,,,,,2,2,16,5,,,,,,,,,,,,,,,,,,,,,,,,,,,,,,,,,,,,,,,,797.8184415569995,None,,,800.8344627839979,None,1.6455026455026456,0.9150484380079433,800.8344627839979,None,,,,,,,798.8181147970026,None,799.0015669389395,799.0180385969579,41,001,2023_Mar_03_1113,SpeechDraft1Carolyn_lessNoise_PlusLocalization,2021.2.3,60.00506084720516,
,,,,,,,,nearLeft,-6.5,1,ch1Sound_localizationTask.wav,-6.5,"(857, 878)","(-103,-202)",-95,-338,,,,,,,,,,,,,2,3,17,2,,,,,,,,,,,,,,,,,,,,,,,,,,,,,,,,,,,,,,,,801.7517447059508,None,,,804.7677812019829,None,1.4465608465608466,0.5503578229108825,804.7677812019829,None,,,,,,,802.7513517269399,None,802.9345844709314,802.9513839969877,41,001,2023_Mar_03_1113,SpeechDraft1Carolyn_lessNoise_PlusLocalization,2021.2.3,60.00506084720516,
,,,,,,,,center,0.0,6,ch1Sound_localizationTask.wav,0.0,"(952, 878)","(-8,-202)",0,-338,,,,,,,,,,,,,2,4,18,3,,,,,,,,,,,,,,,,,,,,,,,,,,,,,,,,,,,,,,,,805.3193741309224,None,,,808.3510645069182,None,1.51005291005291,0.8328879250911996,808.3510645069182,None,,,,,,,806.3347154639196,None,806.5180556830019,806.5347657559905,41,001,2023_Mar_03_1113,SpeechDraft1Carolyn_lessNoise_PlusLocalization,2021.2.3,60.00506084720516,
,,,,,,,,midRight,13.0,3,ch1Sound_localizationTask.wav,13.0,"(1142, 878)","(182, -202)",190,-338,,,,,,,,,,,,,2,5,19,5,,,,,,,,,,,,,,,,,,,,,,,,,,,,,,,,,,,,,,,,809.185482262983,None,,,812.201134916977,None,1.6333333333333333,0.5821418659761548,812.201134916977,None,,,,,,,810.184768519015,None,810.3681617319817,810.3848131739069,41,001,2023_Mar_03_1113,SpeechDraft1Carolyn_lessNoise_PlusLocalization,2021.2.3,60.00506084720516,
,,,,,,,,farLeft,-19.1,5,ch1Sound_localizationTask.wav,-19.1,"(667, 878)","(-293,-202)",-285,-338,,,,,,,,,,,,,2,6,20,0,,,,,,,,,,,,,,,,,,,,,,,,,,,,,,,,,,,,,,,,812.785307197948,None,,,815.8012111110147,None,1.2682539682539682,1.6821993270423263,815.8012111110147,None,,,,,,,813.7847358989529,None,813.96804594493,813.9847104100045,41,001,2023_Mar_03_1113,SpeechDraft1Carolyn_lessNoise_PlusLocalization,2021.2.3,60.00506084720516,
,,,,,,,,farLeft,-19.1,5,ch1Sound_localizationTask.wav,-19.1,"(667, 878)","(-293,-202)",-285,-338,,,,,,,,,,,,,3,0,21,0,,,,,,,,,,,,,,,,,,,,,,,,,,,,,,,,,,,,,,,,817.4848968900042,None,,,820.5010931079742,None,1.3412698412698414,0.4993947270559147,820.5010931079742,None,,,,,,,818.4847986419918,None,818.6680904269451,818.6848556390032,41,001,2023_Mar_03_1113,SpeechDraft1Carolyn_lessNoise_PlusLocalization,2021.2.3,60.00506084720516,
,,,,,,,,midLeft,-13.0,2,ch1Sound_localizationTask.wav,-13.0,"(762, 878)","(-198,-202)",-190,-338,,,,,,,,,,,,,3,1,22,1,,,,,,,,,,,,,,,,,,,,,,,,,,,,,,,,,,,,,,,,821.0024717199849,None,,,824.034500690992,None,1.3783068783068784,0.6158786970190704,824.034500690992,None,,,,,,,822.0180461379932,None,822.2014059319627,822.2181106009521,41,001,2023_Mar_03_1113,SpeechDraft1Carolyn_lessNoise_PlusLocalization,2021.2.3,60.00506084720516,
,,,,,,,,nearRight,6.5,0,ch1Sound_localizationTask.wav,6.5,"(1047, 878)","(87, -202)",95,-338,,,,,,,,,,,,,3,2,23,4,,,,,,,,,,,,,,,,,,,,,,,,,,,,,,,,,,,,,,,,824.6525049349293,None,,,827.6844650399871,None,1.573015873015873,0.8495465860469267,827.6844650399871,None,,,,,,,825.6681887980085,None,825.8514774430078,825.8681407499826,41,001,2023_Mar_03_1113,SpeechDraft1Carolyn_lessNoise_PlusLocalization,2021.2.3,60.00506084720516,
,,,,,,,,center,0.0,6,ch1Sound_localizationTask.wav,0.0,"(952, 878)","(-8,-202)",0,-338,,,,,,,,,,,,,3,3,24,3,,,,,,,,,,,,,,,,,,,,,,,,,,,,,,,,,,,,,,,,828.5354075779906,None,,,831.5510786710074,None,1.480952380952381,0.4329750790493563,831.5510786710074,None,,,,,,,829.5348425779957,None,829.7181123089977,829.7347328289179,41,001,2023_Mar_03_1113,SpeechDraft1Carolyn_lessNoise_PlusLocalization,2021.2.3,60.00506084720516,
,,,,,,,,nearRight,6.5,0,ch1Sound_localizationTask.wav,6.5,"(1047, 878)","(87, -202)",95,-338,,,,,,,,,,,,,3,4,25,4,,,,,,,,,,,,,,,,,,,,,,,,,,,,,,,,,,,,,,,,831.985300760949,None,,,835.0010392999975,None,1.5804232804232803,0.7353297770023346,835.0010392999975,None,,,,,,,832.9847366720205,None,833.1680557489162,833.1846635419643,41,001,2023_Mar_03_1113,SpeechDraft1Carolyn_lessNoise_PlusLocalization,2021.2.3,60.00506084720516,
,,,,,,,,midLeft,-13.0,2,ch1Sound_localizationTask.wav,-13.0,"(762, 878)","(-198,-202)",-190,-338,,,,,,,,,,,,,3,5,26,1,,,,,,,,,,,,,,,,,,,,,,,,,,,,,,,,,,,,,,,,835.7515697149793,None,,,838.7676521319663,None,1.3656084656084655,0.6829067289363593,838.7676521319663,None,,,,,,,836.7513784900075,None,836.9347977759317,836.9513921060134,41,001,2023_Mar_03_1113,SpeechDraft1Carolyn_lessNoise_PlusLocalization,2021.2.3,60.00506084720516,
,,,,,,,,center,0.0,6,ch1Sound_localizationTask.wav,0.0,"(952, 878)","(-8,-202)",0,-338,,,,,,,,,,,,,3,6,27,3,,,,,,,,,,,,,,,,,,,,,,,,,,,,,,,,,,,,,,,,839.4687572619878,None,,,842.4845264729811,None,1.5164021164021164,0.599788584979251,842.4845264729811,None,,,,,,,840.4681311339373,None,840.6513762209797,840.6680689050118,41,001,2023_Mar_03_1113,SpeechDraft1Carolyn_lessNoise_PlusLocalization,2021.2.3,60.00506084720516,
,,,,,,,,farRight,19.1,4,ch1Sound_localizationTask.wav,19.1,"(1237, 878)","(277,-202)",285,-338,,,,,,,,,,,,,4,0,28,6,,,,,,,,,,,,,,,,,,,,,,,,,,,,,,,,,,,,,,,,843.1014097549487,None,,,846.1178771579871,None,1.5666666666666667,1.100768567994237,846.1178771579871,None,,,,,,,844.1014945079805,None,844.2847664239816,844.301478175912,41,001,2023_Mar_03_1113,SpeechDraft1Carolyn_lessNoise_PlusLocalization,2021.2.3,60.00506084720516,
,,,,,,,,farRight,19.1,4,ch1Sound_localizationTask.wav,19.1,"(1237, 878)","(277,-202)",285,-338,,,,,,,,,,,,,4,1,29,6,,,,,,,,,,,,,,,,,,,,,,,,,,,,,,,,,,,,,,,,847.2348491150187,None,,,850.2512947209179,None,1.662962962962963,0.9667592849582434,850.2512947209179,None,,,,,,,848.2348170760088,None,848.4180684749736,848.4348394789267,41,001,2023_Mar_03_1113,SpeechDraft1Carolyn_lessNoise_PlusLocalization,2021.2.3,60.00506084720516,
,,,,,,,,nearRight,6.5,0,ch1Sound_localizationTask.wav,6.5,"(1047, 878)","(87, -202)",95,-338,,,,,,,,,,,,,4,2,30,4,,,,,,,,,,,,,,,,,,,,,,,,,,,,,,,,,,,,,,,,851.2351089029107,None,,,854.251182834967,None,1.6497354497354497,0.9665195349371061,854.251182834967,None,,,,,,,852.2348029109417,None,852.4182014099788,852.4348199709784,41,001,2023_Mar_03_1113,SpeechDraft1Carolyn_lessNoise_PlusLocalization,2021.2.3,60.00506084720516,
,,,,,,,,center,0.0,6,ch1Sound_localizationTask.wav,0.0,"(952, 878)","(-8,-202)",0,-338,,,,,,,,,,,,,4,3,31,3,,,,,,,,,,,,,,,,,,,,,,,,,,,,,,,,,,,,,,,,855.219654947985,None,,,858.2511319610057,None,1.494179894179894,0.9001114139100537,858.2511319610057,None,,,,,,,856.2347201479133,None,856.4181732839206,856.434746742947,41,001,2023_Mar_03_1113,SpeechDraft1Carolyn_lessNoise_PlusLocalization,2021.2.3,60.00506084720516,
,,,,,,,,midRight,13.0,3,ch1Sound_localizationTask.wav,13.0,"(1142, 878)","(182, -202)",190,-338,,,,,,,,,,,,,4,4,32,5,,,,,,,,,,,,,,,,,,,,,,,,,,,,,,,,,,,,,,,,859.1522688529221,None,,,862.1678529079072,None,1.6169312169312169,0.24984700209461153,862.1678529079072,None,,,,,,,860.1514520730125,None,860.3348045479506,860.3514467979548,41,001,2023_Mar_03_1113,SpeechDraft1Carolyn_lessNoise_PlusLocalization,2021.2.3,60.00506084720516,
,,,,,,,,farRight,19.1,4,ch1Sound_localizationTask.wav,19.1,"(1237, 878)","(277,-202)",285,-338,,,,,,,,,,,,,4,5,33,6,,,,,,,,,,,,,,,,,,,,,,,,,,,,,,,,,,,,,,,,862.4201121799415,None,,,865.4511478479253,None,1.6174603174603175,0.40281655301805586,865.4511478479253,None,,,,,,,863.4348470779369,None,863.618293067906,863.6348540869076,41,001,2023_Mar_03_1113,SpeechDraft1Carolyn_lessNoise_PlusLocalization,2021.2.3,60.00506084720516,
,,,,,,,,nearLeft,-6.5,1,ch1Sound_localizationTask.wav,-6.5,"(857, 878)","(-103,-202)",-95,-338,,,,,,,,,,,,,4,6,34,2,,,,,,,,,,,,,,,,,,,,,,,,,,,,,,,,,,,,,,,,865.8681929089362,None,,,868.8846321710153,None,1.3994708994708995,1.0663321419851854,868.8846321710153,None,,,,,,,866.8681533159688,None,867.0513732079417,867.0681497509358,41,001,2023_Mar_03_1113,SpeechDraft1Carolyn_lessNoise_PlusLocalization,2021.2.3,60.00506084720516,
,,,,,,,,nearLeft,-6.5,1,ch1Sound_localizationTask.wav,-6.5,"(857, 878)","(-103,-202)",-95,-338,,,,,,,,,,,,,5,0,35,2,,,,,,,,,,,,,,,,,,,,,,,,,,,,,,,,,,,,,,,,869.9683457849314,None,,,872.984443796915,None,1.4354497354497355,0.7329557070042938,872.984443796915,None,,,,,,,870.9680939170066,None,871.1515082599362,871.1681974099483,41,001,2023_Mar_03_1113,SpeechDraft1Carolyn_lessNoise_PlusLocalization,2021.2.3,60.00506084720516,
,,,,,,,,midRight,13.0,3,ch1Sound_localizationTask.wav,13.0,"(1142, 878)","(182, -202)",190,-338,,,,,,,,,,,,,5,1,36,5,,,,,,,,,,,,,,,,,,,,,,,,,,,,,,,,,,,,,,,,873.7192491949536,None,,,876.7511023479747,None,1.6063492063492064,0.6834935470251366,876.7511023479747,None,,,,,,,874.7348852040013,None,874.9182200150099,874.934894684935,41,001,2023_Mar_03_1113,SpeechDraft1Carolyn_lessNoise_PlusLocalization,2021.2.3,60.00506084720516,
,,,,,,,,midLeft,-13.0,2,ch1Sound_localizationTask.wav,-13.0,"(762, 878)","(-198,-202)",-190,-338,,,,,,,,,,,,,5,2,37,1,,,,,,,,,,,,,,,,,,,,,,,,,,,,,,,,,,,,,,,,877.4514917139895,None,,,880.4678227449767,None,1.3423280423280424,0.9335559620521963,880.4678227449767,None,,,,,,,878.4514388559619,None,878.6348253519973,878.6514364730101,41,001,2023_Mar_03_1113,SpeechDraft1Carolyn_lessNoise_PlusLocalization,2021.2.3,60.00506084720516,
,,,,,,,,farRight,19.1,4,ch1Sound_localizationTask.wav,19.1,"(1237, 878)","(277,-202)",285,-338,,,,,,,,,,,,,5,3,38,6,,,,,,,,,,,,,,,,,,,,,,,,,,,,,,,,,,,,,,,,881.4182176319882,None,,,884.4344951029634,None,1.7476190476190476,2.3168884000042453,884.4344951029634,None,,,,,,,882.4181830929592,None,882.6015846759547,882.6181437879568,41,001,2023_Mar_03_1113,SpeechDraft1Carolyn_lessNoise_PlusLocalization,2021.2.3,60.00506084720516,
,,,,,,,,farLeft,-19.1,5,ch1Sound_localizationTask.wav,-19.1,"(667, 878)","(-293,-202)",-285,-338,,,,,,,,,,,,,5,4,39,0,,,,,,,,,,,,,,,,,,,,,,,,,,,,,,,,,,,,,,,,886.7680604580091,None,,,889.7845630719094,None,1.308994708994709,0.9502496839268133,889.7845630719094,None,,,,,,,887.7681202329695,None,887.9514839339536,887.9681045089383,41,001,2023_Mar_03_1113,SpeechDraft1Carolyn_lessNoise_PlusLocalization,2021.2.3,60.00506084720516,
,,,,,,,,midLeft,-13.0,2,ch1Sound_localizationTask.wav,-13.0,"(762, 878)","(-198,-202)",-190,-338,,,,,,,,,,,,,5,5,40,1,,,,,,,,,,,,,,,,,,,,,,,,,,,,,,,,,,,,,,,,890.751589011983,None,,,893.767886089976,None,1.4296296296296296,0.8343380669830367,893.767886089976,None,,,,,,,891.7514394179452,None,891.9349255319685,891.9514704339672,41,001,2023_Mar_03_1113,SpeechDraft1Carolyn_lessNoise_PlusLocalization,2021.2.3,60.00506084720516,
,,,,,,,,nearRight,6.5,0,ch1Sound_localizationTask.wav,6.5,"(1047, 878)","(87, -202)",95,-338,,,,,,,,,,,,,5,6,41,4,,,,,,,,,,,,,,,,,,,,,,,,,,,,,,,,,,,,,,,,894.618161128019,None,,,897.6345203180099,None,1.4328042328042327,0.7003215799340978,897.6345203180099,None,,,,,,,895.6182771809399,None,895.8016195129603,895.818201372982,41,001,2023_Mar_03_1113,SpeechDraft1Carolyn_lessNoise_PlusLocalization,2021.2.3,60.00506084720516,
,,,,,,,,nearLeft,-6.5,1,ch1Sound_localizationTask.wav,-6.5,"(857, 878)","(-103,-202)",-95,-338,,,,,,,,,,,,,6,0,42,2,,,,,,,,,,,,,,,,,,,,,,,,,,,,,,,,,,,,,,,,898.3515178249218,None,,,901.3676820989931,None,1.461904761904762,0.8327971290564165,901.3676820989931,None,,,,,,,899.3515498569468,None,899.5347462869249,899.5516572319902,41,001,2023_Mar_03_1113,SpeechDraft1Carolyn_lessNoise_PlusLocalization,2021.2.3,60.00506084720516,
,,,,,,,,midLeft,-13.0,2,ch1Sound_localizationTask.wav,-13.0,"(762, 878)","(-198,-202)",-190,-338,,,,,,,,,,,,,6,1,43,1,,,,,,,,,,,,,,,,,,,,,,,,,,,,,,,,,,,,,,,,902.2025515249697,None,,,905.2347405030159,None,1.3407407407407408,0.9454493470257148,905.2347405030159,None,,,,,,,903.2180912779877,None,903.4015897969948,903.4181700859917,41,001,2023_Mar_03_1113,SpeechDraft1Carolyn_lessNoise_PlusLocalization,2021.2.3,60.00506084720516,
,,,,,,,,farLeft,-19.1,5,ch1Sound_localizationTask.wav,-19.1,"(667, 878)","(-293,-202)",-285,-338,,,,,,,,,,,,,6,2,44,0,,,,,,,,,,,,,,,,,,,,,,,,,,,,,,,,,,,,,,,,906.185861117905,None,,,909.2012666979572,None,1.3063492063492064,0.39896507607772946,909.2012666979572,None,,,,,,,907.184749834938,None,907.3683068120154,907.3847885109717,41,001,2023_Mar_03_1113,SpeechDraft1Carolyn_lessNoise_PlusLocalization,2021.2.3,60.00506084720516,
,,,,,,,,midRight,13.0,3,ch1Sound_localizationTask.wav,13.0,"(1142, 878)","(182, -202)",190,-338,,,,,,,,,,,,,6,3,45,5,,,,,,,,,,,,,,,,,,,,,,,,,,,,,,,,,,,,,,,,909.6032571719261,None,,,912.6343996399082,None,1.6386243386243386,1.1663578141015023,912.6343996399082,None,,,,,,,910.6181787819369,None,910.8015101029305,910.8182044979185,41,001,2023_Mar_03_1113,SpeechDraft1Carolyn_lessNoise_PlusLocalization,2021.2.3,60.00506084720516,
,,,,,,,,farRight,19.1,4,ch1Sound_localizationTask.wav,19.1,"(1237, 878)","(277,-202)",285,-338,,,,,,,,,,,,,6,4,46,6,,,,,,,,,,,,,,,,,,,,,,,,,,,,,,,,,,,,,,,,913.8180394630181,None,,,916.8346609389409,None,1.6915343915343914,0.6674618819961324,916.8346609389409,None,,,,,,,914.8182053719647,None,915.0017260629684,915.0182489729486,41,001,2023_Mar_03_1113,SpeechDraft1Carolyn_lessNoise_PlusLocalization,2021.2.3,60.00506084720516,
,,,,,,,,farLeft,-19.1,5,ch1Sound_localizationTask.wav,-19.1,"(667, 878)","(-293,-202)",-285,-338,,,,,,,,,,,,,6,5,47,0,,,,,,,,,,,,,,,,,,,,,,,,,,,,,,,,,,,,,,,,917.5182186159072,None,,,920.5345442399848,None,1.337037037037037,0.6995736920507625,920.5345442399848,None,,,,,,,918.5183651199332,None,918.7014584889403,918.7183213839307,41,001,2023_Mar_03_1113,SpeechDraft1Carolyn_lessNoise_PlusLocalization,2021.2.3,60.00506084720516,
,,,,,,,,farLeft,-19.1,5,ch1Sound_localizationTask.wav,-19.1,"(667, 878)","(-293,-202)",-285,-338,,,,,,,,,,,,,6,6,48,0,,,,,,,,,,,,,,,,,,,,,,,,,,,,,,,,,,,,,,,,921.2360183749115,None,,,924.2679420049535,None,1.367195767195767,1.566568113048561,924.2679420049535,None,,,,,,,922.2514947130112,None,922.4349231659435,922.4514234659728,41,001,2023_Mar_03_1113,SpeechDraft1Carolyn_lessNoise_PlusLocalization,2021.2.3,60.00506084720516,
,,,,,,,,midRight,13.0,3,ch1Sound_localizationTask.wav,13.0,"(1142, 878)","(182, -202)",190,-338,,,,,,,,,,,,,7,0,49,5,,,,,,,,,,,,,,,,,,,,,,,,,,,,,,,,,,,,,,,,925.836229167995,None,,,928.8678899349179,None,1.626984126984127,0.9332111119292676,928.8678899349179,None,,,,,,,926.8515764179174,None,927.034800103982,927.0515234429622,41,001,2023_Mar_03_1113,SpeechDraft1Carolyn_lessNoise_PlusLocalization,2021.2.3,60.00506084720516,
,,,,,,,,nearLeft,-6.5,1,ch1Sound_localizationTask.wav,-6.5,"(857, 878)","(-103,-202)",-95,-338,,,,,,,,,,,,,7,1,50,2,,,,,,,,,,,,,,,,,,,,,,,,,,,,,,,,,,,,,,,,929.8026080089621,None,,,932.8347014419269,None,1.4275132275132276,0.7673213460948318,932.8347014419269,None,,,,,,,930.8181173029589,None,931.0016129119322,931.0181131690042,41,001,2023_Mar_03_1113,SpeechDraft1Carolyn_lessNoise_PlusLocalization,2021.2.3,60.00506084720516,
,,,,,,,,center,0.0,6,ch1Sound_localizationTask.wav,0.0,"(952, 878)","(-8,-202)",0,-338,,,,,,,,,,,,,7,2,51,3,,,,,,,,,,,,,,,,,,,,,,,,,,,,,,,,,,,,,,,,933.6182871479541,None,,,936.6344911919441,None,1.5074074074074075,0.3831147690070793,936.6344911919441,None,,,,,,,934.6183009399101,None,934.8015356520191,934.818246937939,41,001,2023_Mar_03_1113,SpeechDraft1Carolyn_lessNoise_PlusLocalization,2021.2.3,60.00506084720516,
,,,,,,,,midRight,13.0,3,ch1Sound_localizationTask.wav,13.0,"(1142, 878)","(182, -202)",190,-338,,,,,,,,,,,,,7,3,52,5,,,,,,,,,,,,,,,,,,,,,,,,,,,,,,,,,,,,,,,,937.0199218220077,None,,,940.0512936419109,None,1.5756613756613755,0.03200666804332286,940.0512936419109,None,,,,,,,938.0348161680158,None,938.2182518369518,938.2347695799544,41,001,2023_Mar_03_1113,SpeechDraft1Carolyn_lessNoise_PlusLocalization,2021.2.3,60.00506084720516,
,,,,,,,,nearLeft,-6.5,1,ch1Sound_localizationTask.wav,-6.5,"(857, 878)","(-103,-202)",-95,-338,,,,,,,,,,,,,7,4,53,2,,,,,,,,,,,,,,,,,,,,,,,,,,,,,,,,,,,,,,,,940.0849794569658,None,,,943.1012840159237,None,1.4513227513227513,0.3336523789912462,943.1012840159237,None,,,,,,,941.0849380299915,None,941.2683226969093,941.2851113899378,41,001,2023_Mar_03_1113,SpeechDraft1Carolyn_lessNoise_PlusLocalization,2021.2.3,60.00506084720516,
,,,,,,,,midLeft,-13.0,2,ch1Sound_localizationTask.wav,-13.0,"(762, 878)","(-198,-202)",-190,-338,,,,,,,,,,,,,7,5,54,1,,,,,,,,,,,,,,,,,,,,,,,,,,,,,,,,,,,,,,,,943.4515601039166,None,,,946.467898981995,None,1.3783068783068784,0.4693539550062269,946.467898981995,None,,,,,,,944.4515571169322,None,944.6349005759694,944.6515862819506,41,001,2023_Mar_03_1113,SpeechDraft1Carolyn_lessNoise_PlusLocalization,2021.2.3,60.00506084720516,
,,,,,,,,nearRight,6.5,0,ch1Sound_localizationTask.wav,6.5,"(1047, 878)","(87, -202)",95,-338,,,,,,,,,,,,,7,6,55,4,,,,,,,,,,,,,,,,,,,,,,,,,,,,,,,,,,,,,,,,946.9515792349121,None,,,949.9679416340077,None,1.5629629629629629,0.34932301100343466,949.9679416340077,None,,,,,,,947.9514635630185,None,948.134946724982,948.1515221679583,41,001,2023_Mar_03_1113,SpeechDraft1Carolyn_lessNoise_PlusLocalization,2021.2.3,60.00506084720516,
