Audio_Only_Files,Video_Files,Original_Word_List,noiseLevelCode,conditionCodes,noiseLevelFile1,noiseLevelFile2,InstrTextVar,targetSpeakerName,targetSpeakerEccen,targetSpkrChannel,targetSpkrSound,targetVisualDegrees,visStimLoc,visStimLoc2,visStimW,visStimH,practiceTrials.thisRepN,practiceTrials.thisTrialN,practiceTrials.thisN,practiceTrials.thisIndex,trials.thisRepN,trials.thisTrialN,trials.thisN,trials.thisIndex,audLocalLoop.thisRepN,audLocalLoop.thisTrialN,audLocalLoop.thisN,audLocalLoop.thisIndex,visualLocalLoop.thisRepN,visualLocalLoop.thisTrialN,visualLocalLoop.thisN,visualLocalLoop.thisIndex,letsGoAlready.keys,letsGoAlready.rt,letsGoAlready.started,letsGoAlready.stopped,text_2.started,text_2.stopped,text_3.started,text_3.stopped,key_resp_2.keys,key_resp_2.rt,key_resp_2.started,key_resp_2.stopped,text_5.started,text_5.stopped,fixCross.started,fixCross.stopped,fixCross2.started,fixCross2.stopped,answerPrompt.started,answerPrompt.stopped,getAnswer.text,getAnswer.started,getAnswer.stopped,goToNext.keys,goToNext.rt,goToNext.started,goToNext.stopped,stretchBreakTxrt.started,stretchBreakTxrt.stopped,key_resp_3.keys,key_resp_3.rt,key_resp_3.started,key_resp_3.stopped,letsGoLocal.keys,letsGoLocal.rt,letsGoLocal.started,letsGoLocal.stopped,text_4.started,text_4.stopped,prepFixTxt.started,prepFixTxt.stopped,prepFixTxt_2.started,prepFixTxt_2.stopped,respPromptLocal.started,respPromptLocal.stopped,slider.response,slider.rt,slider.started,slider.stopped,letsGoLocal_2.keys,letsGoLocal_2.rt,letsGoLocal_2.started,letsGoLocal_2.stopped,text_7.started,text_7.stopped,prepFixTxt_3.started,prepFixTxt_3.stopped,grating.started,grating.stopped,exitTxt.started,exitTxt.stopped,key_resp.keys,key_resp.rt,key_resp.started,key_resp.stopped,participant,session,date,expName,psychopyVersion,frameRate,
,,,,,,,,,,,,,,,,,,,,,,,,,,,,,,,,,space,18.62350568897091,13.528127146186307,None,,,,,,,,,,,,,,,,,,,,,,,,,,,,,,,,,,,,,,,,,,,,,,,,,,,,,,,,,,,,,,44,001,2023_Mar_06_1038,SpeechDraft1Carolyn_lessNoise_PlusLocalization,2021.2.3,59.98925906136277,
,,,,,,,,,,,,,,,,,,,,,,,,,,,,,,,,,,,,,13.528127146186307,None,32.27817166317254,None,space,10.18646407010965,32.46120549715124,None,,,,,,,,,,,,,,,,,,,,,,,,,,,,,,,,,,,,,,,,,,,,,,,,,,,,,,44,001,2023_Mar_06_1038,SpeechDraft1Carolyn_lessNoise_PlusLocalization,2021.2.3,59.98925906136277,
ash.wav,ash.mpg,ash,1,A,Pink_Noise_1_1.wav,Pink_Noise_1_2.wav,"This is an example of an

AUDIO trial",,,,,,,,,,0,0,0,0,,,,,,,,,,,,,,,,,,,,,,,,,42.711008318001404,None,43.69454500009306,None,47.01100978208706,None,48.37794686714187,None,"ash
",48.37794686714187,None,return,15.23433108907193,48.46127280010842,None,,,,,,,,,,,,,,,,,,,,,,,,,,,,,,,,,,,,,,,44,001,2023_Mar_06_1038,SpeechDraft1Carolyn_lessNoise_PlusLocalization,2021.2.3,59.98925906136277,
ash.wav,ash.mpg,ash,1,AV,Pink_Noise_1_1.wav,Pink_Noise_1_2.wav,"This is an example of an

AUDIO + VIDEO  trial",,,,,,,,,,0,1,1,1,,,,,,,,,,,,,,,,,,,,,,,,,63.74432621500455,None,64.74463074607775,None,66.2288313661702,None,67.61139150918461,None,ash,67.61139150918461,None,return,4.608951061964035,67.69463257398456,None,,,,,,,,,,,,,,,,,,,,,,,,,,,,,,,,,,,,,,,44,001,2023_Mar_06_1038,SpeechDraft1Carolyn_lessNoise_PlusLocalization,2021.2.3,59.98925906136277,
,,,,,,,,,,,,,,,,,,,,,,,,,,,,,,,,,,,,,,,,,,,,,,,,,,,,,,,,,,,,72.34431444504298,None,space,13.23180003487505,72.52790796617046,None,,,,,,,,,,,,,,,,,,,,,,,,,,,,,,,,,44,001,2023_Mar_06_1038,SpeechDraft1Carolyn_lessNoise_PlusLocalization,2021.2.3,59.98925906136277,
ton.wav,ton.mpg,ton,4,AV,Pink_Noise_4_1.wav,Pink_Noise_4_2.wav,,,,,,,,,,,,,,,0,0,0,102,,,,,,,,,,,,,,,,,,,,,,,85.81100994697772,None,87.29435077519156,None,88.67806684109382,None,"slide
",88.67806684109382,None,return,10.750304110115394,88.76129770604894,None,,,,,,,,,,,,,,,,,,,,,,,,,,,,,,,,,,,,,,,44,001,2023_Mar_06_1038,SpeechDraft1Carolyn_lessNoise_PlusLocalization,2021.2.3,59.98925906136277,
curse.wav,curse.mpg,curse,4,AV,Pink_Noise_4_1.wav,Pink_Noise_4_2.wav,,,,,,,,,,,,,,,0,1,1,108,,,,,,,,,,,,,,,,,,,,,,,99.54474818217568,None,101.04439925705083,None,102.42792679113336,None,"curve
",102.42792679113336,None,return,26.368049322860315,102.51155534619465,None,,,,,,,,,,,,,,,,,,,,,,,,,,,,,,,,,,,,,,,44,001,2023_Mar_06_1038,SpeechDraft1Carolyn_lessNoise_PlusLocalization,2021.2.3,59.98925906136277,
champ.wav,champ.mpg,champ,5,A,Pink_Noise_5_1.wav,Pink_Noise_5_2.wav,,,,,,,,,,,,,,,0,2,2,48,,,,,,,,,,,,,,,,,,,,,,,128.91143572703004,None,130.41101275314577,None,131.79474778706208,None,chat,131.79474778706208,None,return,7.529633966973051,131.87809941219166,None,,,,,,,,,,,,,,,,,,,,,,,,,,,,,,,,,,,,,,,44,001,2023_Mar_06_1038,SpeechDraft1Carolyn_lessNoise_PlusLocalization,2021.2.3,59.98925906136277,
cent.wav,cent.mpg,cent,1,AV,Pink_Noise_1_1.wav,Pink_Noise_1_2.wav,,,,,,,,,,,,,,,0,3,3,118,,,,,,,,,,,,,,,,,,,,,,,139.42806073115207,None,140.92767749913037,None,142.311366294045,None,sat,142.311366294045,None,return,8.17295036604628,142.39474614011124,None,,,,,,,,,,,,,,,,,,,,,,,,,,,,,,,,,,,,,,,44,001,2023_Mar_06_1038,SpeechDraft1Carolyn_lessNoise_PlusLocalization,2021.2.3,59.98925906136277,
tense.wav,tense.mpg,tense,2,A,Pink_Noise_2_1.wav,Pink_Noise_2_2.wav,,,,,,,,,,,,,,,0,4,4,35,,,,,,,,,,,,,,,,,,,,,,,150.59470504312776,None,152.0945888280403,None,153.47805538610555,None,test,153.47805538610555,None,return,4.214220849098638,153.5613659110386,None,,,,,,,,,,,,,,,,,,,,,,,,,,,,,,,,,,,,,,,44,001,2023_Mar_06_1038,SpeechDraft1Carolyn_lessNoise_PlusLocalization,2021.2.3,59.98925906136277,
coal.wav,coal.mpg,coal,2,AV,Pink_Noise_2_1.wav,Pink_Noise_2_2.wav,,,,,,,,,,,,,,,0,5,5,74,,,,,,,,,,,,,,,,,,,,,,,157.79467783519067,None,159.29445213312283,None,160.6779382461682,None,cool,160.6779382461682,None,return,8.454184517962858,160.76143061416224,None,,,,,,,,,,,,,,,,,,,,,,,,,,,,,,,,,,,,,,,44,001,2023_Mar_06_1038,SpeechDraft1Carolyn_lessNoise_PlusLocalization,2021.2.3,59.98925906136277,
clash.wav,clash.mpg,clash,5,AV,Pink_Noise_5_1.wav,Pink_Noise_5_2.wav,,,,,,,,,,,,,,,0,6,6,62,,,,,,,,,,,,,,,,,,,,,,,169.24474194599316,None,170.72832829412073,None,172.11140473210253,None,slash,172.11140473210253,None,return,10.356968761887401,172.1947906240821,None,,,,,,,,,,,,,,,,,,,,,,,,,,,,,,,,,,,,,,,44,001,2023_Mar_06_1038,SpeechDraft1Carolyn_lessNoise_PlusLocalization,2021.2.3,59.98925906136277,
poll.wav,poll.mpg,poll,5,A,Pink_Noise_5_1.wav,Pink_Noise_5_2.wav,,,,,,,,,,,,,,,0,7,7,58,,,,,,,,,,,,,,,,,,,,,,,182.57812390802428,None,184.07785187405534,None,185.46147501002997,None,,185.46147501002997,None,return,7.6387613920960575,185.5448337760754,None,,,,,,,,,,,,,,,,,,,,,,,,,,,,,,,,,,,,,,,44,001,2023_Mar_06_1038,SpeechDraft1Carolyn_lessNoise_PlusLocalization,2021.2.3,59.98925906136277,
feed.wav,feed.mpg,feed,5,AV,Pink_Noise_5_1.wav,Pink_Noise_5_2.wav,,,,,,,,,,,,,,,0,8,8,111,,,,,,,,,,,,,,,,,,,,,,,193.2123201151844,None,194.71130456007086,None,196.09469564002939,None,"feed
",196.09469564002939,None,return,5.653392768930644,196.17820987920277,None,,,,,,,,,,,,,,,,,,,,,,,,,,,,,,,,,,,,,,,44,001,2023_Mar_06_1038,SpeechDraft1Carolyn_lessNoise_PlusLocalization,2021.2.3,59.98925906136277,
axe.wav,axe.mpg,axe,1,AV,Pink_Noise_1_1.wav,Pink_Noise_1_2.wav,,,,,,,,,,,,,,,0,9,9,113,,,,,,,,,,,,,,,,,,,,,,,201.86149409599602,None,203.36118987412192,None,204.74495068611577,None,"x
",204.74495068611577,None,return,5.067464930936694,204.82813310506754,None,,,,,,,,,,,,,,,,,,,,,,,,,,,,,,,,,,,,,,,44,001,2023_Mar_06_1038,SpeechDraft1Carolyn_lessNoise_PlusLocalization,2021.2.3,59.98925906136277,
gram.wav,gram.mpg,gram,2,AV,Pink_Noise_2_1.wav,Pink_Noise_2_2.wav,,,,,,,,,,,,,,,0,10,10,98,,,,,,,,,,,,,,,,,,,,,,,209.92810113006271,None,211.4279158480931,None,212.81133902608417,None,"gram
",212.81133902608417,None,return,9.600830798968673,212.89477121108212,None,,,,,,,,,,,,,,,,,,,,,,,,,,,,,,,,,,,,,,,44,001,2023_Mar_06_1038,SpeechDraft1Carolyn_lessNoise_PlusLocalization,2021.2.3,59.98925906136277,
brew.wav,brew.mpg,brew,6,AV,Pink_Noise_6_1.wav,Pink_Noise_6_2.wav,,,,,,,,,,,,,,,0,11,11,105,,,,,,,,,,,,,,,,,,,,,,,222.52831536112353,None,224.02789125218987,None,225.4114841800183,None,bruin,225.4114841800183,None,return,8.68075439799577,225.4948753330391,None,,,,,,,,,,,,,,,,,,,,,,,,,,,,,,,,,,,,,,,44,001,2023_Mar_06_1038,SpeechDraft1Carolyn_lessNoise_PlusLocalization,2021.2.3,59.98925906136277,
ball.wav,ball.mpg,ball,6,A,Pink_Noise_6_1.wav,Pink_Noise_6_2.wav,,,,,,,,,,,,,,,0,12,12,30,,,,,,,,,,,,,,,,,,,,,,,234.19488568417728,None,235.6946595259942,None,237.07823179499246,None,warm,237.07823179499246,None,return,8.390205365838483,237.16146075516008,None,,,,,,,,,,,,,,,,,,,,,,,,,,,,,,,,,,,,,,,44,001,2023_Mar_06_1038,SpeechDraft1Carolyn_lessNoise_PlusLocalization,2021.2.3,59.98925906136277,
grace.wav,grace.mpg,grace,3,AV,Pink_Noise_3_1.wav,Pink_Noise_3_2.wav,,,,,,,,,,,,,,,0,13,13,81,,,,,,,,,,,,,,,,,,,,,,,245.57838443201035,None,247.0778402031865,None,248.46153737418354,None,"grace
",248.46153737418354,None,return,6.334720193874091,248.54490375798196,None,,,,,,,,,,,,,,,,,,,,,,,,,,,,,,,,,,,,,,,44,001,2023_Mar_06_1038,SpeechDraft1Carolyn_lessNoise_PlusLocalization,2021.2.3,59.98925906136277,
fierce.wav,fierce.mpg,fierce,4,A,Pink_Noise_4_1.wav,Pink_Noise_4_2.wav,,,,,,,,,,,,,,,0,14,14,2,,,,,,,,,,,,,,,,,,,,,,,254.91155845997855,None,256.4112837521825,None,257.79488178598695,None,fears,257.79488178598695,None,return,10.089554505888373,257.8781647060532,None,,,,,,,,,,,,,,,,,,,,,,,,,,,,,,,,,,,,,,,44,001,2023_Mar_06_1038,SpeechDraft1Carolyn_lessNoise_PlusLocalization,2021.2.3,59.98925906136277,
bare.wav,bare.mpg,bare,4,A,Pink_Noise_4_1.wav,Pink_Noise_4_2.wav,,,,,,,,,,,,,,,0,15,15,31,,,,,,,,,,,,,,,,,,,,,,,267.9948292640038,None,269.4945379830897,None,270.8782140710391,None,fish,270.8782140710391,None,return,4.277974434895441,270.9616134769749,None,,,,,,,,,,,,,,,,,,,,,,,,,,,,,,,,,,,,,,,44,001,2023_Mar_06_1038,SpeechDraft1Carolyn_lessNoise_PlusLocalization,2021.2.3,59.98925906136277,
ear.wav,ear.mpg,ear,3,AV,Pink_Noise_3_1.wav,Pink_Noise_3_2.wav,,,,,,,,,,,,,,,0,16,16,116,,,,,,,,,,,,,,,,,,,,,,,275.26157067203894,None,276.7612868351862,None,278.1447650131304,None,guil,278.1447650131304,None,return,6.787188349058852,278.2283957200125,None,,,,,,,,,,,,,,,,,,,,,,,,,,,,,,,,,,,,,,,44,001,2023_Mar_06_1038,SpeechDraft1Carolyn_lessNoise_PlusLocalization,2021.2.3,59.98925906136277,
bear.wav,bear.mpg,bear,4,AV,Pink_Noise_4_1.wav,Pink_Noise_4_2.wav,,,,,,,,,,,,,,,0,17,17,90,,,,,,,,,,,,,,,,,,,,,,,285.04494462907314,None,286.5446714560967,None,287.9282330700662,None,bear,287.9282330700662,None,return,4.748053916031495,288.01160143804736,None,,,,,,,,,,,,,,,,,,,,,,,,,,,,,,,,,,,,,,,44,001,2023_Mar_06_1038,SpeechDraft1Carolyn_lessNoise_PlusLocalization,2021.2.3,59.98925906136277,
bride.wav,bride.mpg,bride,6,AV,Pink_Noise_6_1.wav,Pink_Noise_6_2.wav,,,,,,,,,,,,,,,0,18,18,110,,,,,,,,,,,,,,,,,,,,,,,292.77831261605024,None,294.27789977914654,None,295.6616557261441,None,brain,295.6616557261441,None,return,12.16666897200048,295.7448993229773,None,,,,,,,,,,,,,,,,,,,,,,,,,,,,,,,,,,,,,,,44,001,2023_Mar_06_1038,SpeechDraft1Carolyn_lessNoise_PlusLocalization,2021.2.3,59.98925906136277,
crack.wav,crack.mpg,crack,5,A,Pink_Noise_5_1.wav,Pink_Noise_5_2.wav,,,,,,,,,,,,,,,0,19,19,12,,,,,,,,,,,,,,,,,,,,,,,307.9283498500008,None,309.4279696249869,None,310.81155609106645,None,slash,310.81155609106645,None,return,4.440799744101241,310.89491583313793,None,,,,,,,,,,,,,,,,,,,,,,,,,,,,,,,,,,,,,,,44,001,2023_Mar_06_1038,SpeechDraft1Carolyn_lessNoise_PlusLocalization,2021.2.3,59.98925906136277,
broke.wav,broke.mpg,broke,1,AV,Pink_Noise_1_1.wav,Pink_Noise_1_2.wav,,,,,,,,,,,,,,,0,20,20,115,,,,,,,,,,,,,,,,,,,,,,,315.361644448014,None,316.86130960518494,None,318.2449819999747,None,broke,318.2449819999747,None,return,4.9113399889320135,318.32824540301226,None,,,,,,,,,,,,,,,,,,,,,,,,,,,,,,,,,,,,,,,44,001,2023_Mar_06_1038,SpeechDraft1Carolyn_lessNoise_PlusLocalization,2021.2.3,59.98925906136277,
folk.wav,folk.mpg,folk,3,AV,Pink_Noise_3_1.wav,Pink_Noise_3_2.wav,,,,,,,,,,,,,,,0,21,21,99,,,,,,,,,,,,,,,,,,,,,,,323.26172583410516,None,324.76131371804513,None,326.1448982481379,None,fork,326.1448982481379,None,return,4.3392491459380835,326.22849689098075,None,,,,,,,,,,,,,,,,,,,,,,,,,,,,,,,,,,,,,,,44,001,2023_Mar_06_1038,SpeechDraft1Carolyn_lessNoise_PlusLocalization,2021.2.3,59.98925906136277,
dirt.wav,dirt.mpg,dirt,5,A,Pink_Noise_5_1.wav,Pink_Noise_5_2.wav,,,,,,,,,,,,,,,0,22,22,57,,,,,,,,,,,,,,,,,,,,,,,330.59506982704625,None,332.0946226660162,None,333.4784822000656,None,fish,333.4784822000656,None,return,8.230006157886237,333.5616672781762,None,,,,,,,,,,,,,,,,,,,,,,,,,,,,,,,,,,,,,,,44,001,2023_Mar_06_1038,SpeechDraft1Carolyn_lessNoise_PlusLocalization,2021.2.3,59.98925906136277,
guess.wav,guess.mpg,guess,5,AV,Pink_Noise_5_1.wav,Pink_Noise_5_2.wav,,,,,,,,,,,,,,,0,23,23,76,,,,,,,,,,,,,,,,,,,,,,,341.81162800011225,None,343.3114544809796,None,344.69497627508827,None,death,344.69497627508827,None,return,5.013336370931938,344.77838343498297,None,,,,,,,,,,,,,,,,,,,,,,,,,,,,,,,,,,,,,,,44,001,2023_Mar_06_1038,SpeechDraft1Carolyn_lessNoise_PlusLocalization,2021.2.3,59.98925906136277,
cone.wav,cone.mpg,cone,4,AV,Pink_Noise_4_1.wav,Pink_Noise_4_2.wav,,,,,,,,,,,,,,,0,24,24,100,,,,,,,,,,,,,,,,,,,,,,,349.8116947351955,None,351.31128554511815,None,352.6949818499852,None,"cold
",352.6949818499852,None,return,5.253173518925905,352.77842290117405,None,,,,,,,,,,,,,,,,,,,,,,,,,,,,,,,,,,,,,,,44,001,2023_Mar_06_1038,SpeechDraft1Carolyn_lessNoise_PlusLocalization,2021.2.3,59.98925906136277,
build.wav,build.mpg,build,2,A,Pink_Noise_2_1.wav,Pink_Noise_2_2.wav,,,,,,,,,,,,,,,0,25,25,0,,,,,,,,,,,,,,,,,,,,,,,358.06166985211894,None,359.5613567819819,None,360.9449682771228,None,build,360.9449682771228,None,return,5.1232593432068825,361.0284223901108,None,,,,,,,,,,,,,,,,,,,,,,,,,,,,,,,,,,,,,,,44,001,2023_Mar_06_1038,SpeechDraft1Carolyn_lessNoise_PlusLocalization,2021.2.3,59.98925906136277,
chant.wav,chant.mpg,chant,6,AV,Pink_Noise_6_1.wav,Pink_Noise_6_2.wav,,,,,,,,,,,,,,,0,26,26,63,,,,,,,,,,,,,,,,,,,,,,,366.17834948399104,None,367.678087328095,None,369.061643875204,None,chass,369.061643875204,None,return,4.766413971083239,369.14521663519554,None,,,,,,,,,,,,,,,,,,,,,,,,,,,,,,,,,,,,,,,44,001,2023_Mar_06_1038,SpeechDraft1Carolyn_lessNoise_PlusLocalization,2021.2.3,59.98925906136277,
fed.wav,fed.mpg,fed,5,A,Pink_Noise_5_1.wav,Pink_Noise_5_2.wav,,,,,,,,,,,,,,,0,27,27,51,,,,,,,,,,,,,,,,,,,,,,,373.92835307097994,None,375.42805653600954,None,376.81176769104786,None,death,376.81176769104786,None,return,5.216661799000576,376.89500662405044,None,,,,,,,,,,,,,,,,,,,,,,,,,,,,,,,,,,,,,,,44,001,2023_Mar_06_1038,SpeechDraft1Carolyn_lessNoise_PlusLocalization,2021.2.3,59.98925906136277,
dump.wav,dump.mpg,dump,1,AV,Pink_Noise_1_1.wav,Pink_Noise_1_2.wav,,,,,,,,,,,,,,,0,28,28,114,,,,,,,,,,,,,,,,,,,,,,,382.1283114152029,None,383.62805323814973,None,385.01169186714105,None,dumb,385.01169186714105,None,return,5.688692889874801,385.0950292730704,None,,,,,,,,,,,,,,,,,,,,,,,,,,,,,,,,,,,,,,,44,001,2023_Mar_06_1038,SpeechDraft1Carolyn_lessNoise_PlusLocalization,2021.2.3,59.98925906136277,
flip.wav,flip.mpg,flip,1,AV,Pink_Noise_1_1.wav,Pink_Noise_1_2.wav,,,,,,,,,,,,,,,0,29,29,61,,,,,,,,,,,,,,,,,,,,,,,390.8117350740358,None,392.3114486921113,None,393.69494894100353,None,flip,393.69494894100353,None,return,5.14121631719172,393.77839360013604,None,,,,,,,,,,,,,,,,,,,,,,,,,,,,,,,,,,,,,,,44,001,2023_Mar_06_1038,SpeechDraft1Carolyn_lessNoise_PlusLocalization,2021.2.3,59.98925906136277,
cope.wav,cope.mpg,cope,3,A,Pink_Noise_3_1.wav,Pink_Noise_3_2.wav,,,,,,,,,,,,,,,0,30,30,53,,,,,,,,,,,,,,,,,,,,,,,398.94509733002633,None,400.44468950806186,None,401.82845443999395,None,coke,401.82845443999395,None,return,5.727876167977229,401.91171727119945,None,,,,,,,,,,,,,,,,,,,,,,,,,,,,,,,,,,,,,,,44,001,2023_Mar_06_1038,SpeechDraft1Carolyn_lessNoise_PlusLocalization,2021.2.3,59.98925906136277,
fly.wav,fly.mpg,fly,2,A,Pink_Noise_2_1.wav,Pink_Noise_2_2.wav,,,,,,,,,,,,,,,0,31,31,39,,,,,,,,,,,,,,,,,,,,,,,407.66183309513144,None,409.1616684971377,None,410.5451782301534,None,slide,410.5451782301534,None,return,4.915300677996129,410.6283711770084,None,,,,,,,,,,,,,,,,,,,,,,,,,,,,,,,,,,,,,,,44,001,2023_Mar_06_1038,SpeechDraft1Carolyn_lessNoise_PlusLocalization,2021.2.3,59.98925906136277,
cube.wav,cube.mpg,cube,4,AV,Pink_Noise_4_1.wav,Pink_Noise_4_2.wav,,,,,,,,,,,,,,,0,32,32,104,,,,,,,,,,,,,,,,,,,,,,,415.5617748221848,None,417.06300686416216,None,418.4450966480654,None,"hill
",418.4450966480654,None,return,6.735180903924629,418.5284291780554,None,,,,,,,,,,,,,,,,,,,,,,,,,,,,,,,,,,,,,,,44,001,2023_Mar_06_1038,SpeechDraft1Carolyn_lessNoise_PlusLocalization,2021.2.3,59.98925906136277,
dare.wav,dare.mpg,dare,3,A,Pink_Noise_3_1.wav,Pink_Noise_3_2.wav,,,,,,,,,,,,,,,0,33,33,17,,,,,,,,,,,,,,,,,,,,,,,425.2951964722015,None,426.7947708449792,None,428.1784644960426,None,dear,428.1784644960426,None,return,2.9618185681756586,428.26178753213026,None,,,,,,,,,,,,,,,,,,,,,,,,,,,,,,,,,,,,,,,44,001,2023_Mar_06_1038,SpeechDraft1Carolyn_lessNoise_PlusLocalization,2021.2.3,59.98925906136277,
coach.wav,coach.mpg,coach,5,AV,Pink_Noise_5_1.wav,Pink_Noise_5_2.wav,,,,,,,,,,,,,,,0,34,34,69,,,,,,,,,,,,,,,,,,,,,,,431.24514883197844,None,432.74478997220285,None,434.1283517910633,None,coach,434.1283517910633,None,return,4.33983404096216,434.2118518210482,None,,,,,,,,,,,,,,,,,,,,,,,,,,,,,,,,,,,,,,,44,001,2023_Mar_06_1038,SpeechDraft1Carolyn_lessNoise_PlusLocalization,2021.2.3,59.98925906136277,
carve.wav,carve.mpg,carve,3,A,Pink_Noise_3_1.wav,Pink_Noise_3_2.wav,,,,,,,,,,,,,,,0,35,35,5,,,,,,,,,,,,,,,,,,,,,,,438.5784172171261,None,440.07823373400606,None,441.4617846379988,None,card,441.4617846379988,None,return,5.862523757852614,441.54509023507126,None,,,,,,,,,,,,,,,,,,,,,,,,,,,,,,,,,,,,,,,44,001,2023_Mar_06_1038,SpeechDraft1Carolyn_lessNoise_PlusLocalization,2021.2.3,59.98925906136277,
duct.wav,duct.mpg,duct,3,A,Pink_Noise_3_1.wav,Pink_Noise_3_2.wav,,,,,,,,,,,,,,,0,36,36,1,,,,,,,,,,,,,,,,,,,,,,,447.42861490510404,None,448.9283028820064,None,450.3117866050452,None,"dust
",450.3117866050452,None,return,7.236122080124915,450.3954689090606,None,,,,,,,,,,,,,,,,,,,,,,,,,,,,,,,,,,,,,,,44,001,2023_Mar_06_1038,SpeechDraft1Carolyn_lessNoise_PlusLocalization,2021.2.3,59.98925906136277,
brick.wav,brick.mpg,brick,5,AV,Pink_Noise_5_1.wav,Pink_Noise_5_2.wav,,,,,,,,,,,,,,,0,37,37,109,,,,,,,,,,,,,,,,,,,,,,,457.66183641715907,None,459.1615105140954,None,460.54509867099114,None,break,460.54509867099114,None,return,4.075107167009264,460.6284757561516,None,,,,,,,,,,,,,,,,,,,,,,,,,,,,,,,,,,,,,,,44,001,2023_Mar_06_1038,SpeechDraft1Carolyn_lessNoise_PlusLocalization,2021.2.3,59.98925906136277,
cell.wav,cell.mpg,cell,6,A,Pink_Noise_6_1.wav,Pink_Noise_6_2.wav,,,,,,,,,,,,,,,0,38,38,44,,,,,,,,,,,,,,,,,,,,,,,464.72870014514774,None,466.2281182911247,None,467.6118214200251,None,tired,467.6118214200251,None,return,11.072582296095788,467.6951807651203,None,,,,,,,,,,,,,,,,,,,,,,,,,,,,,,,,,,,,,,,44,001,2023_Mar_06_1038,SpeechDraft1Carolyn_lessNoise_PlusLocalization,2021.2.3,59.98925906136277,
fan.wav,fan.mpg,fan,4,A,Pink_Noise_4_1.wav,Pink_Noise_4_2.wav,,,,,,,,,,,,,,,0,39,39,34,,,,,,,,,,,,,,,,,,,,,,,478.7951491631102,None,480.29492861800827,None,481.6785575791728,None,there,481.6785575791728,None,return,8.661824241047725,481.7618015790358,None,,,,,,,,,,,,,,,,,,,,,,,,,,,,,,,,,,,,,,,44,001,2023_Mar_06_1038,SpeechDraft1Carolyn_lessNoise_PlusLocalization,2021.2.3,59.98925906136277,
mars.wav,mars.mpg,mars,4,A,Pink_Noise_4_1.wav,Pink_Noise_4_2.wav,,,,,,,,,,,,,,,0,40,40,50,,,,,,,,,,,,,,,,,,,,,,,490.44519568118267,None,491.9449235650245,None,493.328444133047,None,earth,493.328444133047,None,return,10.155642261030152,493.4120330470614,None,,,,,,,,,,,,,,,,,,,,,,,,,,,,,,,,,,,,,,,44,001,2023_Mar_06_1038,SpeechDraft1Carolyn_lessNoise_PlusLocalization,2021.2.3,59.98925906136277,
green.wav,green.mpg,green,6,A,Pink_Noise_6_1.wav,Pink_Noise_6_2.wav,,,,,,,,,,,,,,,0,41,41,11,,,,,,,,,,,,,,,,,,,,,,,503.5952816980425,None,505.09504964901134,None,506.47854820406064,None,,506.47854820406064,None,return,4.837719104019925,506.56186611717567,None,,,,,,,,,,,,,,,,,,,,,,,,,,,,,,,,,,,,,,,44,001,2023_Mar_06_1038,SpeechDraft1Carolyn_lessNoise_PlusLocalization,2021.2.3,59.98925906136277,
blade.wav,blade.mpg,blade,1,AV,Pink_Noise_1_1.wav,Pink_Noise_1_2.wav,,,,,,,,,,,,,,,0,42,42,107,,,,,,,,,,,,,,,,,,,,,,,511.42928663408384,None,512.9286389960907,None,514.3118367050774,None,blade,514.3118367050774,None,return,6.716462856857106,514.395200801082,None,,,,,,,,,,,,,,,,,,,,,,,,,,,,,,,,,,,,,,,44,001,2023_Mar_06_1038,SpeechDraft1Carolyn_lessNoise_PlusLocalization,2021.2.3,59.98925906136277,
grill.wav,grill.mpg,grill,1,AV,Pink_Noise_1_1.wav,Pink_Noise_1_2.wav,,,,,,,,,,,,,,,0,43,43,66,,,,,,,,,,,,,,,,,,,,,,,521.1285727431532,None,522.6283022570424,None,524.0118574281223,None,grill,524.0118574281223,None,return,8.576394360978156,524.0951871930156,None,,,,,,,,,,,,,,,,,,,,,,,,,,,,,,,,,,,,,,,44,001,2023_Mar_06_1038,SpeechDraft1Carolyn_lessNoise_PlusLocalization,2021.2.3,59.98925906136277,
craft.wav,craft.mpg,craft,1,A,Pink_Noise_1_1.wav,Pink_Noise_1_2.wav,,,,,,,,,,,,,,,0,44,44,3,,,,,,,,,,,,,,,,,,,,,,,532.6953246199992,None,534.1949409041554,None,535.5786399361677,None,craft,535.5786399361677,None,return,5.673788305139169,535.6619456501212,None,,,,,,,,,,,,,,,,,,,,,,,,,,,,,,,,,,,,,,,44,001,2023_Mar_06_1038,SpeechDraft1Carolyn_lessNoise_PlusLocalization,2021.2.3,59.98925906136277,
pact.wav,pact.mpg,pact,4,A,Pink_Noise_4_1.wav,Pink_Noise_4_2.wav,,,,,,,,,,,,,,,0,45,45,21,,,,,,,,,,,,,,,,,,,,,,,541.3620065730065,None,542.8621399630792,None,544.2453021071851,None,pet,544.2453021071851,None,return,4.3429986231494695,544.3286021531094,None,,,,,,,,,,,,,,,,,,,,,,,,,,,,,,,,,,,,,,,44,001,2023_Mar_06_1038,SpeechDraft1Carolyn_lessNoise_PlusLocalization,2021.2.3,59.98925906136277,
crate.wav,crate.mpg,crate,3,AV,Pink_Noise_3_1.wav,Pink_Noise_3_2.wav,,,,,,,,,,,,,,,0,46,46,94,,,,,,,,,,,,,,,,,,,,,,,548.69533749111,None,550.1949520159978,None,551.5785791550297,None,"quick
",551.5785791550297,None,return,6.753652599873021,551.6619503840338,None,,,,,,,,,,,,,,,,,,,,,,,,,,,,,,,,,,,,,,,44,001,2023_Mar_06_1038,SpeechDraft1Carolyn_lessNoise_PlusLocalization,2021.2.3,59.98925906136277,
glove.wav,glove.mpg,glove,3,A,Pink_Noise_3_1.wav,Pink_Noise_3_2.wav,,,,,,,,,,,,,,,0,47,47,16,,,,,,,,,,,,,,,,,,,,,,,558.4453177130781,None,559.945095831994,None,561.3287057380658,None,girl,561.3287057380658,None,return,5.371793155092746,561.4119431630243,None,,,,,,,,,,,,,,,,,,,,,,,,,,,,,,,,,,,,,,,44,001,2023_Mar_06_1038,SpeechDraft1Carolyn_lessNoise_PlusLocalization,2021.2.3,59.98925906136277,
coast.wav,coast.mpg,coast,5,AV,Pink_Noise_5_1.wav,Pink_Noise_5_2.wav,,,,,,,,,,,,,,,0,48,48,91,,,,,,,,,,,,,,,,,,,,,,,566.8119901891332,None,568.3116223430261,None,569.6952809430659,None,"host
",569.6952809430659,None,return,4.852844523033127,569.7787729180418,None,,,,,,,,,,,,,,,,,,,,,,,,,,,,,,,,,,,,,,,44,001,2023_Mar_06_1038,SpeechDraft1Carolyn_lessNoise_PlusLocalization,2021.2.3,59.98925906136277,
grim.wav,grim.mpg,grim,6,AV,Pink_Noise_6_1.wav,Pink_Noise_6_2.wav,,,,,,,,,,,,,,,0,49,49,88,,,,,,,,,,,,,,,,,,,,,,,574.6619732649997,None,576.1622892101295,None,577.5452271781396,None,grape,577.5452271781396,None,return,5.162922895047814,577.6287487579975,None,,,,,,,,,,,,,,,,,,,,,,,,,,,,,,,,,,,,,,,44,001,2023_Mar_06_1038,SpeechDraft1Carolyn_lessNoise_PlusLocalization,2021.2.3,59.98925906136277,
phase.wav,phase.mpg,phase,5,A,Pink_Noise_5_1.wav,Pink_Noise_5_2.wav,,,,,,,,,,,,,,,0,50,50,47,,,,,,,,,,,,,,,,,,,,,,,582.8119808679912,None,584.3116373170633,None,585.6953721411992,None,things,585.6953721411992,None,return,8.324895460857078,585.7786951609887,None,,,,,,,,,,,,,,,,,,,,,,,,,,,,,,,,,,,,,,,44,001,2023_Mar_06_1038,SpeechDraft1Carolyn_lessNoise_PlusLocalization,2021.2.3,59.98925906136277,
bench.wav,bench.mpg,bench,2,A,Pink_Noise_2_1.wav,Pink_Noise_2_2.wav,,,,,,,,,,,,,,,0,51,51,20,,,,,,,,,,,,,,,,,,,,,,,594.1286330909934,None,595.6289623461198,None,597.012049440993,None,beach,597.012049440993,None,return,8.04032668308355,597.0953579791822,None,,,,,,,,,,,,,,,,,,,,,,,,,,,,,,,,,,,,,,,44,001,2023_Mar_06_1038,SpeechDraft1Carolyn_lessNoise_PlusLocalization,2021.2.3,59.98925906136277,
feast.wav,feast.mpg,feast,4,AV,Pink_Noise_4_1.wav,Pink_Noise_4_2.wav,,,,,,,,,,,,,,,0,52,52,68,,,,,,,,,,,,,,,,,,,,,,,605.1620132550597,None,606.6625688110944,None,608.0452274510171,None,fist,608.0452274510171,None,return,8.110880781896412,608.1287243680563,None,,,,,,,,,,,,,,,,,,,,,,,,,,,,,,,,,,,,,,,44,001,2023_Mar_06_1038,SpeechDraft1Carolyn_lessNoise_PlusLocalization,2021.2.3,59.98925906136277,
base.wav,base.mpg,base,4,A,Pink_Noise_4_1.wav,Pink_Noise_4_2.wav,,,,,,,,,,,,,,,0,53,53,46,,,,,,,,,,,,,,,,,,,,,,,616.2620714160148,None,617.7618079590611,None,619.1453413760755,None,grace,619.1453413760755,None,return,7.058862437028438,619.2287552910857,None,,,,,,,,,,,,,,,,,,,,,,,,,,,,,,,,,,,,,,,44,001,2023_Mar_06_1038,SpeechDraft1Carolyn_lessNoise_PlusLocalization,2021.2.3,59.98925906136277,
gross.wav,gross.mpg,gross,1,A,Pink_Noise_1_1.wav,Pink_Noise_1_2.wav,,,,,,,,,,,,,,,0,54,54,32,,,,,,,,,,,,,,,,,,,,,,,626.3120536371134,None,627.8122735950164,None,629.1955036420841,None,grose,629.1955036420841,None,return,5.720830021891743,629.278761445079,None,,,,,,,,,,,,,,,,,,,,,,,,,,,,,,,,,,,,,,,44,001,2023_Mar_06_1038,SpeechDraft1Carolyn_lessNoise_PlusLocalization,2021.2.3,59.98925906136277,
chill.wav,chill.mpg,chill,3,AV,Pink_Noise_3_1.wav,Pink_Noise_3_2.wav,,,,,,,,,,,,,,,0,55,55,119,,,,,,,,,,,,,,,,,,,,,,,635.0287295421585,None,636.5298091950826,None,637.9120352221653,None,chill,637.9120352221653,None,return,4.580228103790432,637.9954469720833,None,,,,,,,,,,,,,,,,,,,,,,,,,,,,,,,,,,,,,,,44,001,2023_Mar_06_1038,SpeechDraft1Carolyn_lessNoise_PlusLocalization,2021.2.3,59.98925906136277,
camp.wav,camp.mpg,camp,2,AV,Pink_Noise_2_1.wav,Pink_Noise_2_2.wav,,,,,,,,,,,,,,,0,56,56,86,,,,,,,,,,,,,,,,,,,,,,,642.595436538104,None,644.0951760371681,None,645.4787273542024,None,camp,645.4787273542024,None,return,4.093511143932119,645.5620725280605,None,,,,,,,,,,,,,,,,,,,,,,,,,,,,,,,,,,,,,,,44,001,2023_Mar_06_1038,SpeechDraft1Carolyn_lessNoise_PlusLocalization,2021.2.3,59.98925906136277,
roar.wav,roar.mpg,roar,1,A,Pink_Noise_1_1.wav,Pink_Noise_1_2.wav,,,,,,,,,,,,,,,0,57,57,38,,,,,,,,,,,,,,,,,,,,,,,649.6787396520376,None,651.1784236470703,None,652.5620815369766,None,row,652.5620815369766,None,return,6.170114438049495,652.6454708601814,None,,,,,,,,,,,,,,,,,,,,,,,,,,,,,,,,,,,,,,,44,001,2023_Mar_06_1038,SpeechDraft1Carolyn_lessNoise_PlusLocalization,2021.2.3,59.98925906136277,
else.wav,else.mpg,else,1,A,Pink_Noise_1_1.wav,Pink_Noise_1_2.wav,,,,,,,,,,,,,,,0,58,58,15,,,,,,,,,,,,,,,,,,,,,,,658.8454170990735,None,660.3451846761163,None,661.7288000590634,None,"else
",661.7288000590634,None,return,4.6354509859811515,661.812146244105,None,,,,,,,,,,,,,,,,,,,,,,,,,,,,,,,,,,,,,,,44,001,2023_Mar_06_1038,SpeechDraft1Carolyn_lessNoise_PlusLocalization,2021.2.3,59.98925906136277,
blood.wav,blood.mpg,blood,2,A,Pink_Noise_2_1.wav,Pink_Noise_2_2.wav,,,,,,,,,,,,,,,0,59,59,37,,,,,,,,,,,,,,,,,,,,,,,666.4787764251232,None,667.9784305919893,None,669.3620654761326,None,"blade
",669.3620654761326,None,return,32.802066043019295,669.4455326939933,None,,,,,,,,,,,,,,,,,,,,,,,,,,,,,,,,,,,,,,,44,001,2023_Mar_06_1038,SpeechDraft1Carolyn_lessNoise_PlusLocalization,2021.2.3,59.98925906136277,
cream.wav,cream.mpg,cream,4,AV,Pink_Noise_4_1.wav,Pink_Noise_4_2.wav,,,,,,,,,,,,,,,0,60,60,82,,,,,,,,,,,,,,,,,,,,,,,702.2789142699912,None,703.7801171431784,None,705.162147777155,None,"queen
",705.162147777155,None,return,4.233994133071974,705.245608716039,None,,,,,,,,,,,,,,,,,,,,,,,,,,,,,,,,,,,,,,,44,001,2023_Mar_06_1038,SpeechDraft1Carolyn_lessNoise_PlusLocalization,2021.2.3,59.98925906136277,
steam.wav,steam.mpg,steam,2,AV,Pink_Noise_2_1.wav,Pink_Noise_2_2.wav,,,,,,,,,,,,,,,0,61,61,96,,,,,,,,,,,,,,,,,,,,,,,709.5121061310638,None,711.0120113200974,None,712.3954610051587,None,"stin
",712.3954610051587,None,return,12.952736988896504,712.4788559221197,None,,,,,,,,,,,,,,,,,,,,,,,,,,,,,,,,,,,,,,,44,001,2023_Mar_06_1038,SpeechDraft1Carolyn_lessNoise_PlusLocalization,2021.2.3,59.98925906136277,
swayed.wav,swayed.mpg,swayed,2,AV,Pink_Noise_2_1.wav,Pink_Noise_2_2.wav,,,,,,,,,,,,,,,0,62,62,71,,,,,,,,,,,,,,,,,,,,,,,725.4621770591475,None,726.9629499921575,None,728.3454642822035,None,"swide
",728.3454642822035,None,return,4.050654863938689,728.4289428831544,None,,,,,,,,,,,,,,,,,,,,,,,,,,,,,,,,,,,,,,,44,001,2023_Mar_06_1038,SpeechDraft1Carolyn_lessNoise_PlusLocalization,2021.2.3,59.98925906136277,
wear.wav,wear.mpg,wear,3,AV,Pink_Noise_3_1.wav,Pink_Noise_3_2.wav,,,,,,,,,,,,,,,0,63,63,80,,,,,,,,,,,,,,,,,,,,,,,732.5123239380773,None,734.0120742770378,None,735.3955058599822,None,where,735.3955058599822,None,return,7.6966630469542,735.4790794840083,None,,,,,,,,,,,,,,,,,,,,,,,,,,,,,,,,,,,,,,,44,001,2023_Mar_06_1038,SpeechDraft1Carolyn_lessNoise_PlusLocalization,2021.2.3,59.98925906136277,
boil.wav,boil.mpg,boil,6,AV,Pink_Noise_6_1.wav,Pink_Noise_6_2.wav,,,,,,,,,,,,,,,0,64,64,117,,,,,,,,,,,,,,,,,,,,,,,743.1955625950359,None,744.7120019141585,None,746.09549594298,None,boil,746.09549594298,None,return,5.188781657023355,746.1788901260588,None,,,,,,,,,,,,,,,,,,,,,,,,,,,,,,,,,,,,,,,44,001,2023_Mar_06_1038,SpeechDraft1Carolyn_lessNoise_PlusLocalization,2021.2.3,59.98925906136277,
deem.wav,deem.mpg,deem,2,AV,Pink_Noise_2_1.wav,Pink_Noise_2_2.wav,,,,,,,,,,,,,,,0,65,65,92,,,,,,,,,,,,,,,,,,,,,,,751.3955852591898,None,752.9118786170147,None,754.2956968741491,None,dein,754.2956968741491,None,return,5.3487498429603875,754.3789524391759,None,,,,,,,,,,,,,,,,,,,,,,,,,,,,,,,,,,,,,,,44,001,2023_Mar_06_1038,SpeechDraft1Carolyn_lessNoise_PlusLocalization,2021.2.3,59.98925906136277,
tomb.wav,tomb.mpg,tomb,3,AV,Pink_Noise_3_1.wav,Pink_Noise_3_2.wav,,,,,,,,,,,,,,,0,66,66,84,,,,,,,,,,,,,,,,,,,,,,,759.7454785911832,None,761.2459598721471,None,762.6289119170979,None,chill,762.6289119170979,None,return,4.4713566929567605,762.7122364190873,None,,,,,,,,,,,,,,,,,,,,,,,,,,,,,,,,,,,,,,,44,001,2023_Mar_06_1038,SpeechDraft1Carolyn_lessNoise_PlusLocalization,2021.2.3,59.98925906136277,
ham.wav,ham.mpg,ham,1,AV,Pink_Noise_1_1.wav,Pink_Noise_1_2.wav,,,,,,,,,,,,,,,0,67,67,112,,,,,,,,,,,,,,,,,,,,,,,767.2122771081049,None,768.7286222120747,None,770.112362488173,None,ham,770.112362488173,None,return,3.5080589780118316,770.1955304320436,None,,,,,,,,,,,,,,,,,,,,,,,,,,,,,,,,,,,,,,,44,001,2023_Mar_06_1038,SpeechDraft1Carolyn_lessNoise_PlusLocalization,2021.2.3,59.98925906136277,
toast.wav,toast.mpg,toast,2,AV,Pink_Noise_2_1.wav,Pink_Noise_2_2.wav,,,,,,,,,,,,,,,0,68,68,87,,,,,,,,,,,,,,,,,,,,,,,773.7289063881617,None,775.245255514048,None,776.6289154030383,None,toast,776.6289154030383,None,return,3.895400095032528,776.7121969950385,None,,,,,,,,,,,,,,,,,,,,,,,,,,,,,,,,,,,,,,,44,001,2023_Mar_06_1038,SpeechDraft1Carolyn_lessNoise_PlusLocalization,2021.2.3,59.98925906136277,
drill.wav,drill.mpg,drill,6,AV,Pink_Noise_6_1.wav,Pink_Noise_6_2.wav,,,,,,,,,,,,,,,0,69,69,72,,,,,,,,,,,,,,,,,,,,,,,780.6290136261377,None,782.1620286640245,None,783.5455448350403,None,drill,783.5455448350403,None,return,4.330685714958236,783.6289318520576,None,,,,,,,,,,,,,,,,,,,,,,,,,,,,,,,,,,,,,,,44,001,2023_Mar_06_1038,SpeechDraft1Carolyn_lessNoise_PlusLocalization,2021.2.3,59.98925906136277,
shrimp.wav,shrimp.mpg,shrimp,1,AV,Pink_Noise_1_1.wav,Pink_Noise_1_2.wav,,,,,,,,,,,,,,,0,70,70,97,,,,,,,,,,,,,,,,,,,,,,,787.9789498720784,None,789.495271305088,None,790.8622158830985,None,"shrimp
",790.8622158830985,None,return,7.733996597118676,790.9455775599927,None,,,,,,,,,,,,,,,,,,,,,,,,,,,,,,,,,,,,,,,44,001,2023_Mar_06_1038,SpeechDraft1Carolyn_lessNoise_PlusLocalization,2021.2.3,59.98925906136277,
food.wav,food.mpg,food,3,AV,Pink_Noise_3_1.wav,Pink_Noise_3_2.wav,,,,,,,,,,,,,,,0,71,71,78,,,,,,,,,,,,,,,,,,,,,,,798.712273719022,None,800.2141666500829,None,801.5957131851465,None,"food
",801.5957131851465,None,return,4.336596866138279,801.6789976560976,None,,,,,,,,,,,,,,,,,,,,,,,,,,,,,,,,,,,,,,,44,001,2023_Mar_06_1038,SpeechDraft1Carolyn_lessNoise_PlusLocalization,2021.2.3,59.98925906136277,
broom.wav,broom.mpg,broom,6,AV,Pink_Noise_6_1.wav,Pink_Noise_6_2.wav,,,,,,,,,,,,,,,0,72,72,77,,,,,,,,,,,,,,,,,,,,,,,806.0456247681286,None,807.5787769490853,None,808.9622050609905,None,boom,808.9622050609905,None,return,3.9459727129433304,809.0456401761621,None,,,,,,,,,,,,,,,,,,,,,,,,,,,,,,,,,,,,,,,44,001,2023_Mar_06_1038,SpeechDraft1Carolyn_lessNoise_PlusLocalization,2021.2.3,59.98925906136277,
draw.wav,draw.mpg,draw,6,A,Pink_Noise_6_1.wav,Pink_Noise_6_2.wav,,,,,,,,,,,,,,,0,73,73,7,,,,,,,,,,,,,,,,,,,,,,,813.0123667190783,None,814.5134232200217,None,815.8956873579882,None,row,815.8956873579882,None,return,3.644574890844524,815.9789965490345,None,,,,,,,,,,,,,,,,,,,,,,,,,,,,,,,,,,,,,,,44,001,2023_Mar_06_1038,SpeechDraft1Carolyn_lessNoise_PlusLocalization,2021.2.3,59.98925906136277,
leapt.wav,leapt.mpg,leapt,3,A,Pink_Noise_3_1.wav,Pink_Noise_3_2.wav,,,,,,,,,,,,,,,0,74,74,54,,,,,,,,,,,,,,,,,,,,,,,819.6456722801086,None,821.1454933350906,None,822.5289301811717,None,blate,822.5289301811717,None,return,8.059245089069009,822.6123365750536,None,,,,,,,,,,,,,,,,,,,,,,,,,,,,,,,,,,,,,,,44,001,2023_Mar_06_1038,SpeechDraft1Carolyn_lessNoise_PlusLocalization,2021.2.3,59.98925906136277,
cross.wav,cross.mpg,cross,5,A,Pink_Noise_5_1.wav,Pink_Noise_5_2.wav,,,,,,,,,,,,,,,0,75,75,8,,,,,,,,,,,,,,,,,,,,,,,830.697300898144,None,832.2287803872023,None,833.6124408619944,None,cross,833.6124408619944,None,return,6.424031088128686,833.6957128231879,None,,,,,,,,,,,,,,,,,,,,,,,,,,,,,,,,,,,,,,,44,001,2023_Mar_06_1038,SpeechDraft1Carolyn_lessNoise_PlusLocalization,2021.2.3,59.98925906136277,
farm.wav,farm.mpg,farm,4,A,Pink_Noise_4_1.wav,Pink_Noise_4_2.wav,,,,,,,,,,,,,,,0,76,76,14,,,,,,,,,,,,,,,,,,,,,,,840.1457131821662,None,841.6621359300334,None,843.0456881651189,None,scraf,843.0456881651189,None,return,9.174554110970348,843.1290191120934,None,,,,,,,,,,,,,,,,,,,,,,,,,,,,,,,,,,,,,,,44,001,2023_Mar_06_1038,SpeechDraft1Carolyn_lessNoise_PlusLocalization,2021.2.3,59.98925906136277,
crow.wav,crow.mpg,crow,5,A,Pink_Noise_5_1.wav,Pink_Noise_5_2.wav,,,,,,,,,,,,,,,0,77,77,43,,,,,,,,,,,,,,,,,,,,,,,852.3290507481433,None,853.8454829710536,None,855.229065262014,None,grill,855.229065262014,None,return,5.671270861057565,855.3123240030836,None,,,,,,,,,,,,,,,,,,,,,,,,,,,,,,,,,,,,,,,44,001,2023_Mar_06_1038,SpeechDraft1Carolyn_lessNoise_PlusLocalization,2021.2.3,59.98925906136277,
dog.wav,dog.mpg,dog,2,AV,Pink_Noise_2_1.wav,Pink_Noise_2_2.wav,,,,,,,,,,,,,,,0,78,78,73,,,,,,,,,,,,,,,,,,,,,,,861.0123584331013,None,862.5454905261286,None,863.9288879411761,None,"dog
",863.9288879411761,None,return,3.2672193341422826,864.0123835580889,None,,,,,,,,,,,,,,,,,,,,,,,,,,,,,,,,,,,,,,,44,001,2023_Mar_06_1038,SpeechDraft1Carolyn_lessNoise_PlusLocalization,2021.2.3,59.98925906136277,
grass.wav,grass.mpg,grass,3,A,Pink_Noise_3_1.wav,Pink_Noise_3_2.wav,,,,,,,,,,,,,,,0,79,79,19,,,,,,,,,,,,,,,,,,,,,,,867.3124259230681,None,868.828806828009,None,870.2124022771604,None,grass,870.2124022771604,None,return,3.8478272550273687,870.2957667661831,None,,,,,,,,,,,,,,,,,,,,,,,,,,,,,,,,,,,,,,,44,001,2023_Mar_06_1038,SpeechDraft1Carolyn_lessNoise_PlusLocalization,2021.2.3,59.98925906136277,
doom.wav,doom.mpg,doom,1,A,Pink_Noise_1_1.wav,Pink_Noise_1_2.wav,,,,,,,,,,,,,,,0,80,80,24,,,,,,,,,,,,,,,,,,,,,,,874.1623755691107,None,875.6789588050451,None,877.0624062460847,None,dude,877.0624062460847,None,return,3.261903614969924,877.1456969149876,None,,,,,,,,,,,,,,,,,,,,,,,,,,,,,,,,,,,,,,,44,001,2023_Mar_06_1038,SpeechDraft1Carolyn_lessNoise_PlusLocalization,2021.2.3,59.98925906136277,
giant.wav,giant.mpg,giant,1,A,Pink_Noise_1_1.wav,Pink_Noise_1_2.wav,,,,,,,,,,,,,,,0,81,81,36,,,,,,,,,,,,,,,,,,,,,,,880.4290907301474,None,881.9291151321959,None,883.3124396500643,None,giant,883.3124396500643,None,return,6.147845996078104,883.3957552311476,None,,,,,,,,,,,,,,,,,,,,,,,,,,,,,,,,,,,,,,,44,001,2023_Mar_06_1038,SpeechDraft1Carolyn_lessNoise_PlusLocalization,2021.2.3,59.98925906136277,
coin.wav,coin.mpg,coin,6,A,Pink_Noise_6_1.wav,Pink_Noise_6_2.wav,,,,,,,,,,,,,,,0,82,82,4,,,,,,,,,,,,,,,,,,,,,,,889.5624997571576,None,891.0955957851838,None,892.4791041100398,None,,892.4791041100398,None,return,0.7410154701210558,892.5626190931071,None,,,,,,,,,,,,,,,,,,,,,,,,,,,,,,,,,,,,,,,44,001,2023_Mar_06_1038,SpeechDraft1Carolyn_lessNoise_PlusLocalization,2021.2.3,59.98925906136277,
glide.wav,glide.mpg,glide,4,A,Pink_Noise_4_1.wav,Pink_Noise_4_2.wav,,,,,,,,,,,,,,,0,83,83,28,,,,,,,,,,,,,,,,,,,,,,,893.3454417230096,None,894.8620345802046,None,896.2458134980407,None,glide,896.2458134980407,None,return,4.838607853045687,896.329097504029,None,,,,,,,,,,,,,,,,,,,,,,,,,,,,,,,,,,,,,,,44,001,2023_Mar_06_1038,SpeechDraft1Carolyn_lessNoise_PlusLocalization,2021.2.3,59.98925906136277,
calm.wav,calm.mpg,calm,6,AV,Pink_Noise_6_1.wav,Pink_Noise_6_2.wav,,,,,,,,,,,,,,,0,84,84,85,,,,,,,,,,,,,,,,,,,,,,,901.1958441149909,None,902.7122617361601,None,904.0956756940577,None,"lunge
",904.0956756940577,None,return,7.02043190295808,904.1791493680794,None,,,,,,,,,,,,,,,,,,,,,,,,,,,,,,,,,,,,,,,44,001,2023_Mar_06_1038,SpeechDraft1Carolyn_lessNoise_PlusLocalization,2021.2.3,59.98925906136277,
cop.wav,cop.mpg,cop,5,A,Pink_Noise_5_1.wav,Pink_Noise_5_2.wav,,,,,,,,,,,,,,,0,85,85,56,,,,,,,,,,,,,,,,,,,,,,,911.2290922161192,None,912.7304134841543,None,914.1124545880593,None,"cut
",914.1124545880593,None,return,4.65181125793606,914.1957843720447,None,,,,,,,,,,,,,,,,,,,,,,,,,,,,,,,,,,,,,,,44,001,2023_Mar_06_1038,SpeechDraft1Carolyn_lessNoise_PlusLocalization,2021.2.3,59.98925906136277,
fence.wav,fence.mpg,fence,6,A,Pink_Noise_6_1.wav,Pink_Noise_6_2.wav,,,,,,,,,,,,,,,0,86,86,33,,,,,,,,,,,,,,,,,,,,,,,918.8790777730756,None,920.3954566500615,None,921.7792088661809,None,"slide
",921.7792088661809,None,return,4.41708021890372,921.8624929490034,None,,,,,,,,,,,,,,,,,,,,,,,,,,,,,,,,,,,,,,,44,001,2023_Mar_06_1038,SpeechDraft1Carolyn_lessNoise_PlusLocalization,2021.2.3,59.98925906136277,
drive.wav,drive.mpg,drive,2,A,Pink_Noise_2_1.wav,Pink_Noise_2_2.wav,,,,,,,,,,,,,,,0,87,87,29,,,,,,,,,,,,,,,,,,,,,,,926.3124438421801,None,927.8455453820061,None,929.2291341919918,None,"dry
",929.2291341919918,None,return,5.767151385080069,929.3124499311671,None,,,,,,,,,,,,,,,,,,,,,,,,,,,,,,,,,,,,,,,44,001,2023_Mar_06_1038,SpeechDraft1Carolyn_lessNoise_PlusLocalization,2021.2.3,59.98925906136277,
bend.wav,bend.mpg,bend,3,A,Pink_Noise_3_1.wav,Pink_Noise_3_2.wav,,,,,,,,,,,,,,,0,88,88,45,,,,,,,,,,,,,,,,,,,,,,,935.1125072210561,None,936.6287919620518,None,938.0126232570037,None,"bed
",938.0126232570037,None,return,5.951748450985178,938.0958430720493,None,,,,,,,,,,,,,,,,,,,,,,,,,,,,,,,,,,,,,,,44,001,2023_Mar_06_1038,SpeechDraft1Carolyn_lessNoise_PlusLocalization,2021.2.3,59.98925906136277,
truck.wav,truck.mpg,truck,5,A,Pink_Noise_5_1.wav,Pink_Noise_5_2.wav,,,,,,,,,,,,,,,0,89,89,10,,,,,,,,,,,,,,,,,,,,,,,944.0792752471752,None,945.5955547490157,None,946.979341143975,None,"tart
",946.979341143975,None,return,7.753108459059149,947.0624855761416,None,,,,,,,,,,,,,,,,,,,,,,,,,,,,,,,,,,,,,,,44,001,2023_Mar_06_1038,SpeechDraft1Carolyn_lessNoise_PlusLocalization,2021.2.3,59.98925906136277,
grain.wav,grain.mpg,grain,2,AV,Pink_Noise_2_1.wav,Pink_Noise_2_2.wav,,,,,,,,,,,,,,,0,90,90,79,,,,,,,,,,,,,,,,,,,,,,,954.8458431090694,None,956.3621705300175,None,957.7462019131053,None,grape,957.7462019131053,None,return,8.138560015009716,957.8291853750125,None,,,,,,,,,,,,,,,,,,,,,,,,,,,,,,,,,,,,,,,44,001,2023_Mar_06_1038,SpeechDraft1Carolyn_lessNoise_PlusLocalization,2021.2.3,59.98925906136277,
blob.wav,blob.mpg,blob,1,A,Pink_Noise_1_1.wav,Pink_Noise_1_2.wav,,,,,,,,,,,,,,,0,91,91,18,,,,,,,,,,,,,,,,,,,,,,,965.9959443861153,None,967.5289463130757,None,968.9125530919991,None,blaff,968.9125530919991,None,return,4.787712874123827,968.9958719890565,None,,,,,,,,,,,,,,,,,,,,,,,,,,,,,,,,,,,,,,,44,001,2023_Mar_06_1038,SpeechDraft1Carolyn_lessNoise_PlusLocalization,2021.2.3,59.98925906136277,
style.wav,style.mpg,style,6,AV,Pink_Noise_6_1.wav,Pink_Noise_6_2.wav,,,,,,,,,,,,,,,0,92,92,60,,,,,,,,,,,,,,,,,,,,,,,973.8124973061495,None,975.3289318140596,None,976.7125298161991,None,set,976.7125298161991,None,return,1.9398207480553538,976.7959153780248,None,,,,,,,,,,,,,,,,,,,,,,,,,,,,,,,,,,,,,,,44,001,2023_Mar_06_1038,SpeechDraft1Carolyn_lessNoise_PlusLocalization,2021.2.3,59.98925906136277,
gaze.wav,gaze.mpg,gaze,6,A,Pink_Noise_6_1.wav,Pink_Noise_6_2.wav,,,,,,,,,,,,,,,0,93,93,59,,,,,,,,,,,,,,,,,,,,,,,978.7625416661613,None,980.2789361891337,None,981.662680632202,None,,981.662680632202,None,return,1.0376927629113197,981.7458854590077,None,,,,,,,,,,,,,,,,,,,,,,,,,,,,,,,,,,,,,,,44,001,2023_Mar_06_1038,SpeechDraft1Carolyn_lessNoise_PlusLocalization,2021.2.3,59.98925906136277,
film.wav,film.mpg,film,2,A,Pink_Noise_2_1.wav,Pink_Noise_2_2.wav,,,,,,,,,,,,,,,0,94,94,22,,,,,,,,,,,,,,,,,,,,,,,982.8130225120112,None,984.3289435121696,None,985.712650052039,None,film,985.712650052039,None,return,5.699781384086236,985.7959051870275,None,,,,,,,,,,,,,,,,,,,,,,,,,,,,,,,,,,,,,,,44,001,2023_Mar_06_1038,SpeechDraft1Carolyn_lessNoise_PlusLocalization,2021.2.3,59.98925906136277,
bush.wav,bush.mpg,bush,5,AV,Pink_Noise_5_1.wav,Pink_Noise_5_2.wav,,,,,,,,,,,,,,,0,95,95,75,,,,,,,,,,,,,,,,,,,,,,,991.5125532331876,None,993.0288968919776,None,994.4124595830217,None,brush,994.4124595830217,None,return,5.095692698145285,994.4958933070302,None,,,,,,,,,,,,,,,,,,,,,,,,,,,,,,,,,,,,,,,44,001,2023_Mar_06_1038,SpeechDraft1Carolyn_lessNoise_PlusLocalization,2021.2.3,59.98925906136277,
cord.wav,cord.mpg,cord,1,A,Pink_Noise_1_1.wav,Pink_Noise_1_2.wav,,,,,,,,,,,,,,,0,96,96,9,,,,,,,,,,,,,,,,,,,,,,,999.612606439041,None,1001.1456346570048,None,1002.5292696161196,None,cort,1002.5292696161196,None,return,5.242836634162813,1002.6127431150526,None,,,,,,,,,,,,,,,,,,,,,,,,,,,,,,,,,,,,,,,44,001,2023_Mar_06_1038,SpeechDraft1Carolyn_lessNoise_PlusLocalization,2021.2.3,59.98925906136277,
bail.wav,bail.mpg,bail,5,AV,Pink_Noise_5_1.wav,Pink_Noise_5_2.wav,,,,,,,,,,,,,,,0,97,97,67,,,,,,,,,,,,,,,,,,,,,,,1007.8793025070336,None,1009.3957341799978,None,1010.7793074890506,None,"bear
",1010.7793074890506,None,return,3.216974528040737,1010.8626224279869,None,,,,,,,,,,,,,,,,,,,,,,,,,,,,,,,,,,,,,,,44,001,2023_Mar_06_1038,SpeechDraft1Carolyn_lessNoise_PlusLocalization,2021.2.3,59.98925906136277,
dress.wav,dress.mpg,dress,4,A,Pink_Noise_4_1.wav,Pink_Noise_4_2.wav,,,,,,,,,,,,,,,0,98,98,25,,,,,,,,,,,,,,,,,,,,,,,1014.1126137401443,None,1015.6456696491223,None,1017.0292111530434,None,"dress
",1017.0292111530434,None,return,4.134925437159836,1017.1126615870744,None,,,,,,,,,,,,,,,,,,,,,,,,,,,,,,,,,,,,,,,44,001,2023_Mar_06_1038,SpeechDraft1Carolyn_lessNoise_PlusLocalization,2021.2.3,59.98925906136277,
fold.wav,fold.mpg,fold,3,AV,Pink_Noise_3_1.wav,Pink_Noise_3_2.wav,,,,,,,,,,,,,,,0,99,99,83,,,,,,,,,,,,,,,,,,,,,,,1021.2793155980762,None,1022.8123540580273,None,1024.1958798111882,None,foled,1024.1958798111882,None,return,6.640447906218469,1024.2792463211808,None,,,,,,,,,,,,,,,,,,,,,,,,,,,,,,,,,,,,,,,44,001,2023_Mar_06_1038,SpeechDraft1Carolyn_lessNoise_PlusLocalization,2021.2.3,59.98925906136277,
edge.wav,edge.mpg,edge,4,AV,Pink_Noise_4_1.wav,Pink_Noise_4_2.wav,,,,,,,,,,,,,,,0,100,100,101,,,,,,,,,,,,,,,,,,,,,,,1030.9460723521188,None,1032.4789800101425,None,1033.8626163240988,None,edge,1033.8626163240988,None,return,3.6456499681808054,1033.9459269351792,None,,,,,,,,,,,,,,,,,,,,,,,,,,,,,,,,,,,,,,,44,001,2023_Mar_06_1038,SpeechDraft1Carolyn_lessNoise_PlusLocalization,2021.2.3,59.98925906136277,
clothe.wav,clothe.mpg,clothe,2,A,Pink_Noise_2_1.wav,Pink_Noise_2_2.wav,,,,,,,,,,,,,,,0,101,101,55,,,,,,,,,,,,,,,,,,,,,,,1037.6126823490486,None,1039.128865762148,None,1040.512789097149,None,"cloth
",1040.512789097149,None,return,5.283573379041627,1040.5959981610067,None,,,,,,,,,,,,,,,,,,,,,,,,,,,,,,,,,,,,,,,44,001,2023_Mar_06_1038,SpeechDraft1Carolyn_lessNoise_PlusLocalization,2021.2.3,59.98925906136277,
birch.wav,birch.mpg,birch,2,A,Pink_Noise_2_1.wav,Pink_Noise_2_2.wav,,,,,,,,,,,,,,,0,102,102,40,,,,,,,,,,,,,,,,,,,,,,,1045.912626230158,None,1047.4290173531044,None,1048.8126298391726,None,burdge,1048.8126298391726,None,return,12.239726962987334,1048.895966798067,None,,,,,,,,,,,,,,,,,,,,,,,,,,,,,,,,,,,,,,,44,001,2023_Mar_06_1038,SpeechDraft1Carolyn_lessNoise_PlusLocalization,2021.2.3,59.98925906136277,
stain.wav,stain.mpg,stain,2,AV,Pink_Noise_2_1.wav,Pink_Noise_2_2.wav,,,,,,,,,,,,,,,0,103,103,65,,,,,,,,,,,,,,,,,,,,,,,1061.1626380691305,None,1062.6790595161729,None,1064.0625752899796,None,stay,1064.0625752899796,None,return,7.9737991720903665,1064.1459523041267,None,,,,,,,,,,,,,,,,,,,,,,,,,,,,,,,,,,,,,,,44,001,2023_Mar_06_1038,SpeechDraft1Carolyn_lessNoise_PlusLocalization,2021.2.3,59.98925906136277,
tart.wav,tart.mpg,tart,2,A,Pink_Noise_2_1.wav,Pink_Noise_2_2.wav,,,,,,,,,,,,,,,0,104,104,6,,,,,,,,,,,,,,,,,,,,,,,1072.1460367320105,None,1073.6791365290992,None,1075.0626602440607,None,tart,1075.0626602440607,None,return,4.3255686338525265,1075.1460152531508,None,,,,,,,,,,,,,,,,,,,,,,,,,,,,,,,,,,,,,,,44,001,2023_Mar_06_1038,SpeechDraft1Carolyn_lessNoise_PlusLocalization,2021.2.3,59.98925906136277,
flash.wav,flash.mpg,flash,4,AV,Pink_Noise_4_1.wav,Pink_Noise_4_2.wav,,,,,,,,,,,,,,,0,105,105,93,,,,,,,,,,,,,,,,,,,,,,,1079.496003830107,None,1081.0123745121527,None,1082.3960171621293,None,flash,1082.3960171621293,None,return,3.864282237133011,1082.4793118999805,None,,,,,,,,,,,,,,,,,,,,,,,,,,,,,,,,,,,,,,,44,001,2023_Mar_06_1038,SpeechDraft1Carolyn_lessNoise_PlusLocalization,2021.2.3,59.98925906136277,
grave.wav,grave.mpg,grave,3,A,Pink_Noise_3_1.wav,Pink_Noise_3_2.wav,,,,,,,,,,,,,,,0,106,106,26,,,,,,,,,,,,,,,,,,,,,,,1086.3627945960034,None,1087.8789495460223,None,1089.2627357200254,None,grape,1089.2627357200254,None,return,8.613601617980748,1089.3460797581356,None,,,,,,,,,,,,,,,,,,,,,,,,,,,,,,,,,,,,,,,44,001,2023_Mar_06_1038,SpeechDraft1Carolyn_lessNoise_PlusLocalization,2021.2.3,59.98925906136277,
fine.wav,fine.mpg,fine,6,AV,Pink_Noise_6_1.wav,Pink_Noise_6_2.wav,,,,,,,,,,,,,,,0,107,107,95,,,,,,,,,,,,,,,,,,,,,,,1097.9793996750377,None,1099.4960401861463,None,1100.8793502480257,None,fly,1100.8793502480257,None,return,3.2448935641441494,1100.962715044152,None,,,,,,,,,,,,,,,,,,,,,,,,,,,,,,,,,,,,,,,44,001,2023_Mar_06_1038,SpeechDraft1Carolyn_lessNoise_PlusLocalization,2021.2.3,59.98925906136277,
gag.wav,gag.mpg,gag,1,A,Pink_Noise_1_1.wav,Pink_Noise_1_2.wav,,,,,,,,,,,,,,,0,108,108,49,,,,,,,,,,,,,,,,,,,,,,,1104.2295168191195,None,1105.762333034072,None,1107.1460763290524,None,gage,1107.1460763290524,None,return,4.930229679914191,1107.2294568961952,None,,,,,,,,,,,,,,,,,,,,,,,,,,,,,,,,,,,,,,,44,001,2023_Mar_06_1038,SpeechDraft1Carolyn_lessNoise_PlusLocalization,2021.2.3,59.98925906136277,
stone.wav,stone.mpg,stone,4,A,Pink_Noise_4_1.wav,Pink_Noise_4_2.wav,,,,,,,,,,,,,,,0,109,109,13,,,,,,,,,,,,,,,,,,,,,,,1112.1794405141845,None,1113.7291955840774,None,1115.1126346080564,None,slope,1115.1126346080564,None,return,2.5395966700743884,1115.196150095202,None,,,,,,,,,,,,,,,,,,,,,,,,,,,,,,,,,,,,,,,44,001,2023_Mar_06_1038,SpeechDraft1Carolyn_lessNoise_PlusLocalization,2021.2.3,59.98925906136277,
debt.wav,debt.mpg,debt,3,A,Pink_Noise_3_1.wav,Pink_Noise_3_2.wav,,,,,,,,,,,,,,,0,110,110,23,,,,,,,,,,,,,,,,,,,,,,,1117.762758091092,None,1119.2793268112,None,1120.6627690091264,None,debt,1120.6627690091264,None,return,2.7975038471631706,1120.7460966319777,None,,,,,,,,,,,,,,,,,,,,,,,,,,,,,,,,,,,,,,,44,001,2023_Mar_06_1038,SpeechDraft1Carolyn_lessNoise_PlusLocalization,2021.2.3,59.98925906136277,
chalk.wav,chalk.mpg,chalk,4,AV,Pink_Noise_4_1.wav,Pink_Noise_4_2.wav,,,,,,,,,,,,,,,0,111,111,103,,,,,,,,,,,,,,,,,,,,,,,1123.5628263831604,None,1125.079233789118,None,1126.4625676881988,None,chock,1126.4625676881988,None,return,3.6375111748930067,1126.546074450016,None,,,,,,,,,,,,,,,,,,,,,,,,,,,,,,,,,,,,,,,44,001,2023_Mar_06_1038,SpeechDraft1Carolyn_lessNoise_PlusLocalization,2021.2.3,59.98925906136277,
bark.wav,bark.mpg,bark,3,AV,Pink_Noise_3_1.wav,Pink_Noise_3_2.wav,,,,,,,,,,,,,,,0,112,112,70,,,,,,,,,,,,,,,,,,,,,,,1130.2127240481786,None,1131.745843028184,None,1133.1293695280328,None,burt,1133.1293695280328,None,return,3.0588581641204655,1133.212735677138,None,,,,,,,,,,,,,,,,,,,,,,,,,,,,,,,,,,,,,,,44,001,2023_Mar_06_1038,SpeechDraft1Carolyn_lessNoise_PlusLocalization,2021.2.3,59.98925906136277,
dot.wav,dot.mpg,dot,5,AV,Pink_Noise_5_1.wav,Pink_Noise_5_2.wav,,,,,,,,,,,,,,,0,113,113,64,,,,,,,,,,,,,,,,,,,,,,,1136.296073423,None,1137.8133436660282,None,1139.1959965049755,None,dust,1139.1959965049755,None,return,2.208183462964371,1139.279399040155,None,,,,,,,,,,,,,,,,,,,,,,,,,,,,,,,,,,,,,,,44,001,2023_Mar_06_1038,SpeechDraft1Carolyn_lessNoise_PlusLocalization,2021.2.3,59.98925906136277,
fist.wav,fist.mpg,fist,6,A,Pink_Noise_6_1.wav,Pink_Noise_6_2.wav,,,,,,,,,,,,,,,0,114,114,41,,,,,,,,,,,,,,,,,,,,,,,1141.5127317861188,None,1143.0457640900277,None,1144.4294347371906,None,"sis
",1144.4294347371906,None,return,2.5348324850201607,1144.5127617341932,None,,,,,,,,,,,,,,,,,,,,,,,,,,,,,,,,,,,,,,,44,001,2023_Mar_06_1038,SpeechDraft1Carolyn_lessNoise_PlusLocalization,2021.2.3,59.98925906136277,
book.wav,book.mpg,book,6,A,Pink_Noise_6_1.wav,Pink_Noise_6_2.wav,,,,,,,,,,,,,,,0,115,115,52,,,,,,,,,,,,,,,,,,,,,,,1147.0794807421044,None,1148.5958357760683,None,1149.979382707039,None,bridge,1149.979382707039,None,return,7.056911279913038,1150.0627631240059,None,,,,,,,,,,,,,,,,,,,,,,,,,,,,,,,,,,,,,,,44,001,2023_Mar_06_1038,SpeechDraft1Carolyn_lessNoise_PlusLocalization,2021.2.3,59.98925906136277,
claw.wav,claw.mpg,claw,1,A,Pink_Noise_1_1.wav,Pink_Noise_1_2.wav,,,,,,,,,,,,,,,0,116,116,27,,,,,,,,,,,,,,,,,,,,,,,1157.1461570451502,None,1158.6805668349843,None,1160.062811056152,None,clock,1160.062811056152,None,return,14.64548105886206,1160.1461090391967,None,,,,,,,,,,,,,,,,,,,,,,,,,,,,,,,,,,,,,,,44,001,2023_Mar_06_1038,SpeechDraft1Carolyn_lessNoise_PlusLocalization,2021.2.3,59.98925906136277,
gulf.wav,gulf.mpg,gulf,1,AV,Pink_Noise_1_1.wav,Pink_Noise_1_2.wav,,,,,,,,,,,,,,,0,117,117,89,,,,,,,,,,,,,,,,,,,,,,,1174.8129310121294,None,1176.3292254430708,None,1177.7128268061206,None,"golf
",1177.7128268061206,None,return,3.635401909938082,1177.7961930960882,None,,,,,,,,,,,,,,,,,,,,,,,,,,,,,,,,,,,,,,,44,001,2023_Mar_06_1038,SpeechDraft1Carolyn_lessNoise_PlusLocalization,2021.2.3,59.98925906136277,
bland.wav,bland.mpg,bland,6,A,Pink_Noise_6_1.wav,Pink_Noise_6_2.wav,,,,,,,,,,,,,,,0,118,118,42,,,,,,,,,,,,,,,,,,,,,,,1181.4630244530272,None,1182.9957622510847,None,1184.3798970421776,None,grill,1184.3798970421776,None,return,6.496962192002684,1184.462826257106,None,,,,,,,,,,,,,,,,,,,,,,,,,,,,,,,,,,,,,,,44,001,2023_Mar_06_1038,SpeechDraft1Carolyn_lessNoise_PlusLocalization,2021.2.3,59.98925906136277,
quest.wav,quest.mpg,quest,5,AV,Pink_Noise_5_1.wav,Pink_Noise_5_2.wav,,,,,,,,,,,,,,,0,119,119,106,,,,,,,,,,,,,,,,,,,,,,,1190.9794769291766,None,1192.5292624051217,None,1193.9128532400355,None,quest,1193.9128532400355,None,return,3.827424524119124,1193.9961644581053,None,,,,,,,,,,,,,,,,,,,,,,,,,,,,,,,,,,,,,,,44,001,2023_Mar_06_1038,SpeechDraft1Carolyn_lessNoise_PlusLocalization,2021.2.3,59.98925906136277,
,,,,,,,,,,,,,,,,,,,,,,,,,,,,,,,,,,,,,,,,,,,,,,,,,,,,,,,,,,,,,,,,,,space,15.109426549868658,1197.9461565110832,None,,,,,,,,,,,,,,,,,,,,,,,,,,,,,44,001,2023_Mar_06_1038,SpeechDraft1Carolyn_lessNoise_PlusLocalization,2021.2.3,59.98925906136277,
,,,,,,,,nearLeft,-6.5,1,ch1Sound_localizationTask.wav,-6.5,"(857, 878)","(-103,-202)",-95,-338,,,,,,,,,0,0,0,2,,,,,,,,,,,,,,,,,,,,,,,,,,,,,,,,,,,,,,,,,,1197.9461565110832,None,1213.0960087720305,None,1214.2126821910497,None,1215.129399545025,None,1.0820105820105819,5.71996317896992,1215.129399545025,None,,,,,,,,,,,,,,,,,44,001,2023_Mar_06_1038,SpeechDraft1Carolyn_lessNoise_PlusLocalization,2021.2.3,59.98925906136277,
,,,,,,,,farRight,19.1,4,ch1Sound_localizationTask.wav,19.1,"(1237, 878)","(277,-202)",285,-338,,,,,,,,,0,1,1,6,,,,,,,,,,,,,,,,,,,,,,,,,,,,,,,,,,,,,,,,,,,,1220.8630197241437,None,1221.9626717320643,None,1222.8959123420063,None,1.0095238095238095,1.1996558590326458,1222.8959123420063,None,,,,,,,,,,,,,,,,,44,001,2023_Mar_06_1038,SpeechDraft1Carolyn_lessNoise_PlusLocalization,2021.2.3,59.98925906136277,
,,,,,,,,farRight,19.1,4,ch1Sound_localizationTask.wav,19.1,"(1237, 878)","(277,-202)",285,-338,,,,,,,,,0,2,2,6,,,,,,,,,,,,,,,,,,,,,,,,,,,,,,,,,,,,,,,,,,,,1224.0967858249787,None,1225.1960440820549,None,1226.129536706023,None,1.0132275132275133,0.6164653701707721,1226.129536706023,None,,,,,,,,,,,,,,,,,44,001,2023_Mar_06_1038,SpeechDraft1Carolyn_lessNoise_PlusLocalization,2021.2.3,59.98925906136277,
,,,,,,,,nearRight,6.5,0,ch1Sound_localizationTask.wav,6.5,"(1047, 878)","(87, -202)",95,-338,,,,,,,,,0,3,3,4,,,,,,,,,,,,,,,,,,,,,,,,,,,,,,,,,,,,,,,,,,,,1226.746768382145,None,1227.8459978350438,None,1228.7794332201593,None,1.0132275132275133,0.7831785711459816,1228.7794332201593,None,,,,,,,,,,,,,,,,,44,001,2023_Mar_06_1038,SpeechDraft1Carolyn_lessNoise_PlusLocalization,2021.2.3,59.98925906136277,
,,,,,,,,nearLeft,-6.5,1,ch1Sound_localizationTask.wav,-6.5,"(857, 878)","(-103,-202)",-95,-338,,,,,,,,,0,4,4,2,,,,,,,,,,,,,,,,,,,,,,,,,,,,,,,,,,,,,,,,,,,,1229.5632504140958,None,1230.6626223500352,None,1231.5959120891057,None,1.1608465608465608,0.6492314429488033,1231.5959120891057,None,,,,,,,,,,,,,,,,,44,001,2023_Mar_06_1038,SpeechDraft1Carolyn_lessNoise_PlusLocalization,2021.2.3,59.98925906136277,
,,,,,,,,center,0.0,6,ch1Sound_localizationTask.wav,0.0,"(952, 878)","(-8,-202)",0,-338,,,,,,,,,0,5,5,3,,,,,,,,,,,,,,,,,,,,,,,,,,,,,,,,,,,,,,,,,,,,1232.2462805700488,None,1233.3459420150612,None,1234.2792204311118,None,1.4126984126984126,0.7818602749612182,1234.2792204311118,None,,,,,,,,,,,,,,,,,44,001,2023_Mar_06_1038,SpeechDraft1Carolyn_lessNoise_PlusLocalization,2021.2.3,59.98925906136277,
,,,,,,,,farLeft,-19.1,5,ch1Sound_localizationTask.wav,-19.1,"(667, 878)","(-293,-202)",-285,-338,,,,,,,,,0,6,6,0,,,,,,,,,,,,,,,,,,,,,,,,,,,,,,,,,,,,,,,,,,,,1235.0631392961368,None,1236.162561932113,None,1237.0958188402,None,1.2592592592592593,0.7160534500144422,1237.0958188402,None,,,,,,,,,,,,,,,,,44,001,2023_Mar_06_1038,SpeechDraft1Carolyn_lessNoise_PlusLocalization,2021.2.3,59.98925906136277,
,,,,,,,,midRight,13.0,3,ch1Sound_localizationTask.wav,13.0,"(1142, 878)","(182, -202)",190,-338,,,,,,,,,1,0,7,5,,,,,,,,,,,,,,,,,,,,,,,,,,,,,,,,,,,,,,,,,,,,1237.813377181068,None,1238.912548477063,None,1239.8458849280141,None,1.632804232804233,0.7651659590192139,1239.8458849280141,None,,,,,,,,,,,,,,,,,44,001,2023_Mar_06_1038,SpeechDraft1Carolyn_lessNoise_PlusLocalization,2021.2.3,59.98925906136277,
,,,,,,,,nearLeft,-6.5,1,ch1Sound_localizationTask.wav,-6.5,"(857, 878)","(-103,-202)",-95,-338,,,,,,,,,1,1,8,2,,,,,,,,,,,,,,,,,,,,,,,,,,,,,,,,,,,,,,,,,,,,1240.6128850481473,None,1241.7126090370584,None,1242.645869501168,None,1.4084656084656084,0.6153026549145579,1242.645869501168,None,,,,,,,,,,,,,,,,,44,001,2023_Mar_06_1038,SpeechDraft1Carolyn_lessNoise_PlusLocalization,2021.2.3,59.98925906136277,
,,,,,,,,nearLeft,-6.5,1,ch1Sound_localizationTask.wav,-6.5,"(857, 878)","(-103,-202)",-95,-338,,,,,,,,,1,2,9,2,,,,,,,,,,,,,,,,,,,,,,,,,,,,,,,,,,,,,,,,,,,,1243.2630509040318,None,1244.3625574840698,None,1245.2958948269952,None,1.4968253968253968,0.5000837170518935,1245.2958948269952,None,,,,,,,,,,,,,,,,,44,001,2023_Mar_06_1038,SpeechDraft1Carolyn_lessNoise_PlusLocalization,2021.2.3,59.98925906136277,
,,,,,,,,midRight,13.0,3,ch1Sound_localizationTask.wav,13.0,"(1142, 878)","(182, -202)",190,-338,,,,,,,,,1,3,10,5,,,,,,,,,,,,,,,,,,,,,,,,,,,,,,,,,,,,,,,,,,,,1245.79707520199,None,1246.8960560450796,None,1247.8293695761822,None,1.6042328042328042,0.4828205369412899,1247.8293695761822,None,,,,,,,,,,,,,,,,,44,001,2023_Mar_06_1038,SpeechDraft1Carolyn_lessNoise_PlusLocalization,2021.2.3,59.98925906136277,
,,,,,,,,midLeft,-13.0,2,ch1Sound_localizationTask.wav,-13.0,"(762, 878)","(-198,-202)",-190,-338,,,,,,,,,1,4,11,1,,,,,,,,,,,,,,,,,,,,,,,,,,,,,,,,,,,,,,,,,,,,1248.313778450014,None,1249.412682109978,None,1250.3460368360393,None,1.1851851851851851,0.949652612907812,1250.3460368360393,None,,,,,,,,,,,,,,,,,44,001,2023_Mar_06_1038,SpeechDraft1Carolyn_lessNoise_PlusLocalization,2021.2.3,59.98925906136277,
,,,,,,,,midLeft,-13.0,2,ch1Sound_localizationTask.wav,-13.0,"(762, 878)","(-198,-202)",-190,-338,,,,,,,,,1,5,12,1,,,,,,,,,,,,,,,,,,,,,,,,,,,,,,,,,,,,,,,,,,,,1251.2978622161318,None,1252.4125992690679,None,1253.329419362126,None,1.3391534391534392,0.48302449891343713,1253.329419362126,None,,,,,,,,,,,,,,,,,44,001,2023_Mar_06_1038,SpeechDraft1Carolyn_lessNoise_PlusLocalization,2021.2.3,59.98925906136277,
,,,,,,,,farRight,19.1,4,ch1Sound_localizationTask.wav,19.1,"(1237, 878)","(277,-202)",285,-338,,,,,,,,,1,6,13,6,,,,,,,,,,,,,,,,,,,,,,,,,,,,,,,,,,,,,,,,,,,,1253.813876172062,None,1254.9126458261162,None,1255.8459872871172,None,1.6253968253968254,0.6155402781441808,1255.8459872871172,None,,,,,,,,,,,,,,,,,44,001,2023_Mar_06_1038,SpeechDraft1Carolyn_lessNoise_PlusLocalization,2021.2.3,59.98925906136277,
,,,,,,,,midRight,13.0,3,ch1Sound_localizationTask.wav,13.0,"(1142, 878)","(182, -202)",190,-338,,,,,,,,,2,0,14,5,,,,,,,,,,,,,,,,,,,,,,,,,,,,,,,,,,,,,,,,,,,,1256.4797742690425,None,1257.5792165680323,None,1258.512667004019,None,1.6772486772486772,0.44974906789138913,1258.512667004019,None,,,,,,,,,,,,,,,,,44,001,2023_Mar_06_1038,SpeechDraft1Carolyn_lessNoise_PlusLocalization,2021.2.3,59.98925906136277,
,,,,,,,,center,0.0,6,ch1Sound_localizationTask.wav,0.0,"(952, 878)","(-8,-202)",0,-338,,,,,,,,,2,1,15,3,,,,,,,,,,,,,,,,,,,,,,,,,,,,,,,,,,,,,,,,,,,,1258.9639638960361,None,1260.0626683761366,None,1260.9959947611205,None,1.5513227513227514,0.6158000759314746,1260.9959947611205,None,,,,,,,,,,,,,,,,,44,001,2023_Mar_06_1038,SpeechDraft1Carolyn_lessNoise_PlusLocalization,2021.2.3,59.98925906136277,
,,,,,,,,midLeft,-13.0,2,ch1Sound_localizationTask.wav,-13.0,"(762, 878)","(-198,-202)",-190,-338,,,,,,,,,2,2,16,1,,,,,,,,,,,,,,,,,,,,,,,,,,,,,,,,,,,,,,,,,,,,1261.6295644550119,None,1262.7293491610326,None,1263.6626815570053,None,1.3396825396825398,0.6507069040089846,1263.6626815570053,None,,,,,,,,,,,,,,,,,44,001,2023_Mar_06_1038,SpeechDraft1Carolyn_lessNoise_PlusLocalization,2021.2.3,59.98925906136277,
,,,,,,,,farRight,19.1,4,ch1Sound_localizationTask.wav,19.1,"(1237, 878)","(277,-202)",285,-338,,,,,,,,,2,3,17,6,,,,,,,,,,,,,,,,,,,,,,,,,,,,,,,,,,,,,,,,,,,,1264.329795505153,None,1265.429365778109,None,1266.3626186351757,None,1.5328042328042328,0.5150667200796306,1266.3626186351757,None,,,,,,,,,,,,,,,,,44,001,2023_Mar_06_1038,SpeechDraft1Carolyn_lessNoise_PlusLocalization,2021.2.3,59.98925906136277,
,,,,,,,,midLeft,-13.0,2,ch1Sound_localizationTask.wav,-13.0,"(762, 878)","(-198,-202)",-190,-338,,,,,,,,,2,4,18,1,,,,,,,,,,,,,,,,,,,,,,,,,,,,,,,,,,,,,,,,,,,,1266.879602755187,None,1267.9792941221967,None,1268.9127476189751,None,1.3984126984126983,0.7657775329425931,1268.9127476189751,None,,,,,,,,,,,,,,,,,44,001,2023_Mar_06_1038,SpeechDraft1Carolyn_lessNoise_PlusLocalization,2021.2.3,59.98925906136277,
,,,,,,,,nearRight,6.5,0,ch1Sound_localizationTask.wav,6.5,"(1047, 878)","(87, -202)",95,-338,,,,,,,,,2,5,19,4,,,,,,,,,,,,,,,,,,,,,,,,,,,,,,,,,,,,,,,,,,,,1269.679775964003,None,1270.779386979062,None,1271.7127164769918,None,1.4767195767195767,0.8989732498303056,1271.7127164769918,None,,,,,,,,,,,,,,,,,44,001,2023_Mar_06_1038,SpeechDraft1Carolyn_lessNoise_PlusLocalization,2021.2.3,59.98925906136277,
,,,,,,,,farLeft,-19.1,5,ch1Sound_localizationTask.wav,-19.1,"(667, 878)","(-293,-202)",-285,-338,,,,,,,,,2,6,20,0,,,,,,,,,,,,,,,,,,,,,,,,,,,,,,,,,,,,,,,,,,,,1272.6130591949914,None,1273.7126066251658,None,1274.6459969510324,None,1.2301587301587302,0.5168658390175551,1274.6459969510324,None,,,,,,,,,,,,,,,,,44,001,2023_Mar_06_1038,SpeechDraft1Carolyn_lessNoise_PlusLocalization,2021.2.3,59.98925906136277,
,,,,,,,,center,0.0,6,ch1Sound_localizationTask.wav,0.0,"(952, 878)","(-8,-202)",0,-338,,,,,,,,,3,0,21,3,,,,,,,,,,,,,,,,,,,,,,,,,,,,,,,,,,,,,,,,,,,,1275.1796291819774,None,1276.279313096078,None,1277.21260862099,None,1.502116402116402,0.549850604031235,1277.21260862099,None,,,,,,,,,,,,,,,,,44,001,2023_Mar_06_1038,SpeechDraft1Carolyn_lessNoise_PlusLocalization,2021.2.3,59.98925906136277,
,,,,,,,,midLeft,-13.0,2,ch1Sound_localizationTask.wav,-13.0,"(762, 878)","(-198,-202)",-190,-338,,,,,,,,,3,1,22,1,,,,,,,,,,,,,,,,,,,,,,,,,,,,,,,,,,,,,,,,,,,,1277.763827135088,None,1278.8626503441483,None,1279.7959904661402,None,1.4026455026455027,0.6821435489691794,1279.7959904661402,None,,,,,,,,,,,,,,,,,44,001,2023_Mar_06_1038,SpeechDraft1Carolyn_lessNoise_PlusLocalization,2021.2.3,59.98925906136277,
,,,,,,,,center,0.0,6,ch1Sound_localizationTask.wav,0.0,"(952, 878)","(-8,-202)",0,-338,,,,,,,,,3,2,23,3,,,,,,,,,,,,,,,,,,,,,,,,,,,,,,,,,,,,,,,,,,,,1280.4800352321472,None,1281.5793256391771,None,1282.5127226139884,None,1.4682539682539684,0.44961765105836093,1282.5127226139884,None,,,,,,,,,,,,,,,,,44,001,2023_Mar_06_1038,SpeechDraft1Carolyn_lessNoise_PlusLocalization,2021.2.3,59.98925906136277,
,,,,,,,,center,0.0,6,ch1Sound_localizationTask.wav,0.0,"(952, 878)","(-8,-202)",0,-338,,,,,,,,,3,3,24,3,,,,,,,,,,,,,,,,,,,,,,,,,,,,,,,,,,,,,,,,,,,,1282.9634669090156,None,1284.062684884062,None,1284.9959425760899,None,1.553968253968254,0.4488719969522208,1284.9959425760899,None,,,,,,,,,,,,,,,,,44,001,2023_Mar_06_1038,SpeechDraft1Carolyn_lessNoise_PlusLocalization,2021.2.3,59.98925906136277,
,,,,,,,,farRight,19.1,4,ch1Sound_localizationTask.wav,19.1,"(1237, 878)","(277,-202)",285,-338,,,,,,,,,3,4,25,6,,,,,,,,,,,,,,,,,,,,,,,,,,,,,,,,,,,,,,,,,,,,1285.4463806040585,None,1286.5461684411857,None,1287.4793356151786,None,1.7126984126984128,0.44923268002457917,1287.4793356151786,None,,,,,,,,,,,,,,,,,44,001,2023_Mar_06_1038,SpeechDraft1Carolyn_lessNoise_PlusLocalization,2021.2.3,59.98925906136277,
,,,,,,,,farLeft,-19.1,5,ch1Sound_localizationTask.wav,-19.1,"(667, 878)","(-293,-202)",-285,-338,,,,,,,,,3,5,26,0,,,,,,,,,,,,,,,,,,,,,,,,,,,,,,,,,,,,,,,,,,,,1287.92996322806,None,1289.0294973361306,None,1289.9626814671792,None,1.397883597883598,0.5005171480588615,1289.9626814671792,None,,,,,,,,,,,,,,,,,44,001,2023_Mar_06_1038,SpeechDraft1Carolyn_lessNoise_PlusLocalization,2021.2.3,59.98925906136277,
,,,,,,,,nearRight,6.5,0,ch1Sound_localizationTask.wav,6.5,"(1047, 878)","(87, -202)",95,-338,,,,,,,,,3,6,27,4,,,,,,,,,,,,,,,,,,,,,,,,,,,,,,,,,,,,,,,,,,,,1290.481404243037,None,1291.5959934249986,None,1292.5126868870575,None,1.4915343915343915,0.4665290971752256,1292.5126868870575,None,,,,,,,,,,,,,,,,,44,001,2023_Mar_06_1038,SpeechDraft1Carolyn_lessNoise_PlusLocalization,2021.2.3,59.98925906136277,
,,,,,,,,midRight,13.0,3,ch1Sound_localizationTask.wav,13.0,"(1142, 878)","(182, -202)",190,-338,,,,,,,,,4,0,28,5,,,,,,,,,,,,,,,,,,,,,,,,,,,,,,,,,,,,,,,,,,,,1292.980220016092,None,1294.0793517930433,None,1295.0127022999804,None,1.5984126984126985,0.4164776799734682,1295.0127022999804,None,,,,,,,,,,,,,,,,,44,001,2023_Mar_06_1038,SpeechDraft1Carolyn_lessNoise_PlusLocalization,2021.2.3,59.98925906136277,
,,,,,,,,nearLeft,-6.5,1,ch1Sound_localizationTask.wav,-6.5,"(857, 878)","(-103,-202)",-95,-338,,,,,,,,,4,1,29,2,,,,,,,,,,,,,,,,,,,,,,,,,,,,,,,,,,,,,,,,,,,,1295.4462896201294,None,1296.546069421107,None,1297.479389266111,None,1.3724867724867724,0.4663326789159328,1297.479389266111,None,,,,,,,,,,,,,,,,,44,001,2023_Mar_06_1038,SpeechDraft1Carolyn_lessNoise_PlusLocalization,2021.2.3,59.98925906136277,
,,,,,,,,midRight,13.0,3,ch1Sound_localizationTask.wav,13.0,"(1142, 878)","(182, -202)",190,-338,,,,,,,,,4,2,30,5,,,,,,,,,,,,,,,,,,,,,,,,,,,,,,,,,,,,,,,,,,,,1297.9466444991995,None,1299.0460296929814,None,1299.9793920661323,None,1.5645502645502645,0.44896614202298224,1299.9793920661323,None,,,,,,,,,,,,,,,,,44,001,2023_Mar_06_1038,SpeechDraft1Carolyn_lessNoise_PlusLocalization,2021.2.3,59.98925906136277,
,,,,,,,,nearRight,6.5,0,ch1Sound_localizationTask.wav,6.5,"(1047, 878)","(87, -202)",95,-338,,,,,,,,,4,3,31,4,,,,,,,,,,,,,,,,,,,,,,,,,,,,,,,,,,,,,,,,,,,,1300.429630676983,None,1301.5293320640922,None,1302.4628042830154,None,1.5126984126984127,0.38336163107305765,1302.4628042830154,None,,,,,,,,,,,,,,,,,44,001,2023_Mar_06_1038,SpeechDraft1Carolyn_lessNoise_PlusLocalization,2021.2.3,59.98925906136277,
,,,,,,,,farLeft,-19.1,5,ch1Sound_localizationTask.wav,-19.1,"(667, 878)","(-293,-202)",-285,-338,,,,,,,,,4,4,32,0,,,,,,,,,,,,,,,,,,,,,,,,,,,,,,,,,,,,,,,,,,,,1302.84661112912,None,1303.9460220490582,None,1304.8793011021335,None,1.2603174603174603,0.49921834096312523,1304.8793011021335,None,,,,,,,,,,,,,,,,,44,001,2023_Mar_06_1038,SpeechDraft1Carolyn_lessNoise_PlusLocalization,2021.2.3,59.98925906136277,
,,,,,,,,nearRight,6.5,0,ch1Sound_localizationTask.wav,6.5,"(1047, 878)","(87, -202)",95,-338,,,,,,,,,4,5,33,4,,,,,,,,,,,,,,,,,,,,,,,,,,,,,,,,,,,,,,,,,,,,1305.3806431300472,None,1306.479351096088,None,1307.4127490401734,None,1.4455026455026454,0.3828556209336966,1307.4127490401734,None,,,,,,,,,,,,,,,,,44,001,2023_Mar_06_1038,SpeechDraft1Carolyn_lessNoise_PlusLocalization,2021.2.3,59.98925906136277,
,,,,,,,,midRight,13.0,3,ch1Sound_localizationTask.wav,13.0,"(1142, 878)","(182, -202)",190,-338,,,,,,,,,4,6,34,5,,,,,,,,,,,,,,,,,,,,,,,,,,,,,,,,,,,,,,,,,,,,1307.7971129491925,None,1308.8960566991009,None,1309.8293005770538,None,1.6232804232804234,0.39942900906316936,1309.8293005770538,None,,,,,,,,,,,,,,,,,44,001,2023_Mar_06_1038,SpeechDraft1Carolyn_lessNoise_PlusLocalization,2021.2.3,59.98925906136277,
,,,,,,,,center,0.0,6,ch1Sound_localizationTask.wav,0.0,"(952, 878)","(-8,-202)",0,-338,,,,,,,,,5,0,35,3,,,,,,,,,,,,,,,,,,,,,,,,,,,,,,,,,,,,,,,,,,,,1310.2300789610017,None,1311.3294438670855,None,1312.2627090620808,None,1.5174603174603174,0.5987459260504693,1312.2627090620808,None,,,,,,,,,,,,,,,,,44,001,2023_Mar_06_1038,SpeechDraft1Carolyn_lessNoise_PlusLocalization,2021.2.3,59.98925906136277,
,,,,,,,,nearRight,6.5,0,ch1Sound_localizationTask.wav,6.5,"(1047, 878)","(87, -202)",95,-338,,,,,,,,,5,1,36,4,,,,,,,,,,,,,,,,,,,,,,,,,,,,,,,,,,,,,,,,,,,,1312.863020956982,None,1313.9627303930465,None,1314.896139760036,None,1.5904761904761906,0.44992039911448956,1314.896139760036,None,,,,,,,,,,,,,,,,,44,001,2023_Mar_06_1038,SpeechDraft1Carolyn_lessNoise_PlusLocalization,2021.2.3,59.98925906136277,
,,,,,,,,midRight,13.0,3,ch1Sound_localizationTask.wav,13.0,"(1142, 878)","(182, -202)",190,-338,,,,,,,,,5,2,37,5,,,,,,,,,,,,,,,,,,,,,,,,,,,,,,,,,,,,,,,,,,,,1315.3478352420498,None,1316.4627422641497,None,1317.3792279660702,None,1.7068783068783069,0.39943184913136065,1317.3792279660702,None,,,,,,,,,,,,,,,,,44,001,2023_Mar_06_1038,SpeechDraft1Carolyn_lessNoise_PlusLocalization,2021.2.3,59.98925906136277,
,,,,,,,,midLeft,-13.0,2,ch1Sound_localizationTask.wav,-13.0,"(762, 878)","(-198,-202)",-190,-338,,,,,,,,,5,3,38,1,,,,,,,,,,,,,,,,,,,,,,,,,,,,,,,,,,,,,,,,,,,,1317.7964223811869,None,1318.896120074205,None,1319.8294102239888,None,1.353968253968254,0.482553584035486,1319.8294102239888,None,,,,,,,,,,,,,,,,,44,001,2023_Mar_06_1038,SpeechDraft1Carolyn_lessNoise_PlusLocalization,2021.2.3,59.98925906136277,
,,,,,,,,farLeft,-19.1,5,ch1Sound_localizationTask.wav,-19.1,"(667, 878)","(-293,-202)",-285,-338,,,,,,,,,5,4,39,0,,,,,,,,,,,,,,,,,,,,,,,,,,,,,,,,,,,,,,,,,,,,1320.3293752921745,None,1321.429450221127,None,1322.3460964441765,None,1.2074074074074073,0.566646995022893,1322.3460964441765,None,,,,,,,,,,,,,,,,,44,001,2023_Mar_06_1038,SpeechDraft1Carolyn_lessNoise_PlusLocalization,2021.2.3,59.98925906136277,
,,,,,,,,center,0.0,6,ch1Sound_localizationTask.wav,0.0,"(952, 878)","(-8,-202)",0,-338,,,,,,,,,5,5,40,3,,,,,,,,,,,,,,,,,,,,,,,,,,,,,,,,,,,,,,,,,,,,1322.9297168471385,None,1324.0294454200193,None,1324.9626909531653,None,1.3883597883597885,0.5166834180708975,1324.9626909531653,None,,,,,,,,,,,,,,,,,44,001,2023_Mar_06_1038,SpeechDraft1Carolyn_lessNoise_PlusLocalization,2021.2.3,59.98925906136277,
,,,,,,,,midLeft,-13.0,2,ch1Sound_localizationTask.wav,-13.0,"(762, 878)","(-198,-202)",-190,-338,,,,,,,,,5,6,41,1,,,,,,,,,,,,,,,,,,,,,,,,,,,,,,,,,,,,,,,,,,,,1325.4802411531564,None,1326.5795592390932,None,1327.512719968101,None,1.2931216931216931,0.48216576618142426,1327.512719968101,None,,,,,,,,,,,,,,,,,44,001,2023_Mar_06_1038,SpeechDraft1Carolyn_lessNoise_PlusLocalization,2021.2.3,59.98925906136277,
,,,,,,,,farRight,19.1,4,ch1Sound_localizationTask.wav,19.1,"(1237, 878)","(277,-202)",285,-338,,,,,,,,,6,0,42,6,,,,,,,,,,,,,,,,,,,,,,,,,,,,,,,,,,,,,,,,,,,,1327.996470039012,None,1329.0961837552022,None,1330.0293413761538,None,1.5708994708994708,0.43185792095027864,1330.0293413761538,None,,,,,,,,,,,,,,,,,44,001,2023_Mar_06_1038,SpeechDraft1Carolyn_lessNoise_PlusLocalization,2021.2.3,59.98925906136277,
,,,,,,,,farRight,19.1,4,ch1Sound_localizationTask.wav,19.1,"(1237, 878)","(277,-202)",285,-338,,,,,,,,,6,1,43,6,,,,,,,,,,,,,,,,,,,,,,,,,,,,,,,,,,,,,,,,,,,,1330.4631147109903,None,1331.5627092821524,None,1332.4961379270535,None,1.6894179894179895,0.41595998615957797,1332.4961379270535,None,,,,,,,,,,,,,,,,,44,001,2023_Mar_06_1038,SpeechDraft1Carolyn_lessNoise_PlusLocalization,2021.2.3,59.98925906136277,
,,,,,,,,nearRight,6.5,0,ch1Sound_localizationTask.wav,6.5,"(1047, 878)","(87, -202)",95,-338,,,,,,,,,6,2,44,4,,,,,,,,,,,,,,,,,,,,,,,,,,,,,,,,,,,,,,,,,,,,1332.913727829,None,1334.0127081209794,None,1334.9461428001523,None,1.5682539682539682,0.3319367920048535,1334.9461428001523,None,,,,,,,,,,,,,,,,,44,001,2023_Mar_06_1038,SpeechDraft1Carolyn_lessNoise_PlusLocalization,2021.2.3,59.98925906136277,
,,,,,,,,farLeft,-19.1,5,ch1Sound_localizationTask.wav,-19.1,"(667, 878)","(-293,-202)",-285,-338,,,,,,,,,6,3,45,0,,,,,,,,,,,,,,,,,,,,,,,,,,,,,,,,,,,,,,,,,,,,1335.2799733721185,None,1336.3795354431495,None,1337.312735335203,None,1.251851851851852,0.39969247090630233,1337.312735335203,None,,,,,,,,,,,,,,,,,44,001,2023_Mar_06_1038,SpeechDraft1Carolyn_lessNoise_PlusLocalization,2021.2.3,59.98925906136277,
,,,,,,,,center,0.0,6,ch1Sound_localizationTask.wav,0.0,"(952, 878)","(-8,-202)",0,-338,,,,,,,,,6,4,46,3,,,,,,,,,,,,,,,,,,,,,,,,,,,,,,,,,,,,,,,,,,,,1337.7135038131382,None,1338.8127933691721,None,1339.746252950048,None,1.4015873015873015,0.34940103092230856,1339.746252950048,None,,,,,,,,,,,,,,,,,44,001,2023_Mar_06_1038,SpeechDraft1Carolyn_lessNoise_PlusLocalization,2021.2.3,59.98925906136277,
,,,,,,,,farLeft,-19.1,5,ch1Sound_localizationTask.wav,-19.1,"(667, 878)","(-293,-202)",-285,-338,,,,,,,,,6,5,47,0,,,,,,,,,,,,,,,,,,,,,,,,,,,,,,,,,,,,,,,,,,,,1340.0971073631663,None,1341.1961042850744,None,1342.1294798350427,None,1.228042328042328,0.46595916408114135,1342.1294798350427,None,,,,,,,,,,,,,,,,,44,001,2023_Mar_06_1038,SpeechDraft1Carolyn_lessNoise_PlusLocalization,2021.2.3,59.98925906136277,
,,,,,,,,farRight,19.1,4,ch1Sound_localizationTask.wav,19.1,"(1237, 878)","(277,-202)",285,-338,,,,,,,,,6,6,48,6,,,,,,,,,,,,,,,,,,,,,,,,,,,,,,,,,,,,,,,,,,,,1342.5965225240216,None,1343.6960296391044,None,1344.6294737311546,None,1.6428571428571428,0.4487683530896902,1344.6294737311546,None,,,,,,,,,,,,,,,,,44,001,2023_Mar_06_1038,SpeechDraft1Carolyn_lessNoise_PlusLocalization,2021.2.3,59.98925906136277,
,,,,,,,,nearLeft,-6.5,1,ch1Sound_localizationTask.wav,-6.5,"(857, 878)","(-103,-202)",-95,-338,,,,,,,,,7,0,49,2,,,,,,,,,,,,,,,,,,,,,,,,,,,,,,,,,,,,,,,,,,,,1345.0797933980357,None,1346.1795306401327,None,1347.112822106108,None,1.4693121693121693,0.5668452610261738,1347.112822106108,None,,,,,,,,,,,,,,,,,44,001,2023_Mar_06_1038,SpeechDraft1Carolyn_lessNoise_PlusLocalization,2021.2.3,59.98925906136277,
,,,,,,,,farLeft,-19.1,5,ch1Sound_localizationTask.wav,-19.1,"(667, 878)","(-293,-202)",-285,-338,,,,,,,,,7,1,50,0,,,,,,,,,,,,,,,,,,,,,,,,,,,,,,,,,,,,,,,,,,,,1347.696362045128,None,1348.796251568012,None,1349.7296368370298,None,1.317989417989418,0.5172912490088493,1349.7296368370298,None,,,,,,,,,,,,,,,,,44,001,2023_Mar_06_1038,SpeechDraft1Carolyn_lessNoise_PlusLocalization,2021.2.3,59.98925906136277,
,,,,,,,,nearLeft,-6.5,1,ch1Sound_localizationTask.wav,-6.5,"(857, 878)","(-103,-202)",-95,-338,,,,,,,,,7,2,51,2,,,,,,,,,,,,,,,,,,,,,,,,,,,,,,,,,,,,,,,,,,,,1350.263096125098,None,1351.3629940091632,None,1352.2961387021933,None,1.3936507936507936,0.38274365616962314,1352.2961387021933,None,,,,,,,,,,,,,,,,,44,001,2023_Mar_06_1038,SpeechDraft1Carolyn_lessNoise_PlusLocalization,2021.2.3,59.98925906136277,
,,,,,,,,midLeft,-13.0,2,ch1Sound_localizationTask.wav,-13.0,"(762, 878)","(-198,-202)",-190,-338,,,,,,,,,7,3,52,1,,,,,,,,,,,,,,,,,,,,,,,,,,,,,,,,,,,,,,,,,,,,1352.680241726106,None,1353.7795576730277,None,1354.712762373034,None,1.3291005291005291,0.2829457470215857,1354.712762373034,None,,,,,,,,,,,,,,,,,44,001,2023_Mar_06_1038,SpeechDraft1Carolyn_lessNoise_PlusLocalization,2021.2.3,59.98925906136277,
,,,,,,,,midRight,13.0,3,ch1Sound_localizationTask.wav,13.0,"(1142, 878)","(182, -202)",190,-338,,,,,,,,,7,4,53,5,,,,,,,,,,,,,,,,,,,,,,,,,,,,,,,,,,,,,,,,,,,,1354.997340401169,None,1356.0961385471746,None,1357.0293496500235,None,1.6582010582010582,0.5327215339057148,1357.0293496500235,None,,,,,,,,,,,,,,,,,44,001,2023_Mar_06_1038,SpeechDraft1Carolyn_lessNoise_PlusLocalization,2021.2.3,59.98925906136277,
,,,,,,,,nearLeft,-6.5,1,ch1Sound_localizationTask.wav,-6.5,"(857, 878)","(-103,-202)",-95,-338,,,,,,,,,7,5,54,2,,,,,,,,,,,,,,,,,,,,,,,,,,,,,,,,,,,,,,,,,,,,1357.5635429990944,None,1358.6627828939818,None,1359.5961383711547,None,1.505820105820106,0.46565155894495547,1359.5961383711547,None,,,,,,,,,,,,,,,,,44,001,2023_Mar_06_1038,SpeechDraft1Carolyn_lessNoise_PlusLocalization,2021.2.3,59.98925906136277,
,,,,,,,,nearRight,6.5,0,ch1Sound_localizationTask.wav,6.5,"(1047, 878)","(87, -202)",95,-338,,,,,,,,,7,6,55,4,,,,,,,,,,,,,,,,,,,,,,,,,,,,,,,,,,,,,,,,,,,,1360.0631378612015,None,1361.16288063908,None,1362.0962350221816,None,1.6671957671957671,0.46658594417385757,1362.0962350221816,None,,,,,,,,,,,,,,,,,44,001,2023_Mar_06_1038,SpeechDraft1Carolyn_lessNoise_PlusLocalization,2021.2.3,59.98925906136277,
,,,,,,,,,,,,,,,,,,,,,,,,,,,,,,,,,,,,,,,,,,,,,,,,,,,,,,,,,,,,,,,,,,,,,,,,,,,,,,,,,,space,7.617012304021046,1362.6465844281483,None,,,,,,,,,,,,,44,001,2023_Mar_06_1038,SpeechDraft1Carolyn_lessNoise_PlusLocalization,2021.2.3,59.98925906136277,
,,,,,,,,farLeft,-19.1,5,ch1Sound_localizationTask.wav,-19.1,"(667, 878)","(-293,-202)",-285,-338,,,,,,,,,,,,,0,0,0,0,,,,,,,,,,,,,,,,,,,,,,,,,,,,,,,,,,,,,,,,1370.3128523910418,None,,,1373.3462047111243,None,1.334920634920635,1.2041061490308493,1373.3462047111243,None,,,,,1362.6465844281483,None,1371.313163869083,None,1371.4964541080408,1371.513173229061,,,,,,,44,001,2023_Mar_06_1038,SpeechDraft1Carolyn_lessNoise_PlusLocalization,2021.2.3,59.98925906136277,
,,,,,,,,midLeft,-13.0,2,ch1Sound_localizationTask.wav,-13.0,"(762, 878)","(-198,-202)",-190,-338,,,,,,,,,,,,,0,1,1,1,,,,,,,,,,,,,,,,,,,,,,,,,,,,,,,,,,,,,,,,1374.5472047179937,None,,,1377.562781337183,None,1.4063492063492062,0.5993238938972354,1377.562781337183,None,,,,,,,1375.5464841569774,None,1375.7297852050979,1375.7463768969756,,,,,,,44,001,2023_Mar_06_1038,SpeechDraft1Carolyn_lessNoise_PlusLocalization,2021.2.3,59.98925906136277,
,,,,,,,,midRight,13.0,3,ch1Sound_localizationTask.wav,13.0,"(1142, 878)","(182, -202)",190,-338,,,,,,,,,,,,,0,2,2,5,,,,,,,,,,,,,,,,,,,,,,,,,,,,,,,,,,,,,,,,1378.1638936991803,None,,,1381.1794204651378,None,1.6005291005291005,0.8663259861059487,1381.1794204651378,None,,,,,,,1379.163195998175,None,1379.3464940739796,1379.3631147681735,,,,,,,44,001,2023_Mar_06_1038,SpeechDraft1Carolyn_lessNoise_PlusLocalization,2021.2.3,59.98925906136277,
,,,,,,,,farRight,19.1,4,ch1Sound_localizationTask.wav,19.1,"(1237, 878)","(277,-202)",285,-338,,,,,,,,,,,,,0,3,3,6,,,,,,,,,,,,,,,,,,,,,,,,,,,,,,,,,,,,,,,,1382.0631259500515,None,,,1385.0795267620124,None,1.6566137566137566,0.6839159319642931,1385.0795267620124,None,,,,,,,1383.0631109960377,None,1383.2465244580526,1383.2630949381273,,,,,,,44,001,2023_Mar_06_1038,SpeechDraft1Carolyn_lessNoise_PlusLocalization,2021.2.3,59.98925906136277,
,,,,,,,,center,0.0,6,ch1Sound_localizationTask.wav,0.0,"(952, 878)","(-8,-202)",0,-338,,,,,,,,,,,,,0,4,4,3,,,,,,,,,,,,,,,,,,,,,,,,,,,,,,,,,,,,,,,,1385.779805844184,None,,,1388.796235975111,None,1.5232804232804233,0.8176075019873679,1388.796235975111,None,,,,,,,1386.7797820111737,None,1386.9631001900416,1386.9797912919894,,,,,,,44,001,2023_Mar_06_1038,SpeechDraft1Carolyn_lessNoise_PlusLocalization,2021.2.3,59.98925906136277,
,,,,,,,,center,0.0,6,ch1Sound_localizationTask.wav,0.0,"(952, 878)","(-8,-202)",0,-338,,,,,,,,,,,,,0,5,5,3,,,,,,,,,,,,,,,,,,,,,,,,,,,,,,,,,,,,,,,,1389.6298017730005,None,,,1392.6461938540451,None,1.5052910052910053,0.6155176430474967,1392.6461938540451,None,,,,,,,1390.6297726409975,None,1390.8132517221384,1390.8297755711246,,,,,,,44,001,2023_Mar_06_1038,SpeechDraft1Carolyn_lessNoise_PlusLocalization,2021.2.3,59.98925906136277,
,,,,,,,,nearRight,6.5,0,ch1Sound_localizationTask.wav,6.5,"(1047, 878)","(87, -202)",95,-338,,,,,,,,,,,,,0,6,6,4,,,,,,,,,,,,,,,,,,,,,,,,,,,,,,,,,,,,,,,,1393.2632628101856,None,,,1396.2794582990464,None,1.552910052910053,0.5823725040536374,1396.2794582990464,None,,,,,,,1394.2631448800676,None,1394.4464900540188,1394.463170304196,,,,,,,44,001,2023_Mar_06_1038,SpeechDraft1Carolyn_lessNoise_PlusLocalization,2021.2.3,59.98925906136277,
,,,,,,,,midLeft,-13.0,2,ch1Sound_localizationTask.wav,-13.0,"(762, 878)","(-198,-202)",-190,-338,,,,,,,,,,,,,1,0,7,1,,,,,,,,,,,,,,,,,,,,,,,,,,,,,,,,,,,,,,,,1396.8636814691126,None,,,1399.8794803600758,None,1.4052910052910053,0.7843027680646628,1399.8794803600758,None,,,,,,,1397.863200350199,None,1398.0464181730058,1398.0631551700644,,,,,,,44,001,2023_Mar_06_1038,SpeechDraft1Carolyn_lessNoise_PlusLocalization,2021.2.3,59.98925906136277,
,,,,,,,,nearRight,6.5,0,ch1Sound_localizationTask.wav,6.5,"(1047, 878)","(87, -202)",95,-338,,,,,,,,,,,,,1,1,8,4,,,,,,,,,,,,,,,,,,,,,,,,,,,,,,,,,,,,,,,,1400.6799607160501,None,,,1403.6962158461101,None,1.5386243386243388,0.733916874974966,1403.6962158461101,None,,,,,,,1401.679881887976,None,1401.8631353680976,1401.8798378370702,,,,,,,44,001,2023_Mar_06_1038,SpeechDraft1Carolyn_lessNoise_PlusLocalization,2021.2.3,59.98925906136277,
,,,,,,,,nearLeft,-6.5,1,ch1Sound_localizationTask.wav,-6.5,"(857, 878)","(-103,-202)",-95,-338,,,,,,,,,,,,,1,2,9,2,,,,,,,,,,,,,,,,,,,,,,,,,,,,,,,,,,,,,,,,1404.44652026915,None,,,1407.462854751153,None,1.4417989417989419,0.6162510479334742,1407.462854751153,None,,,,,,,1405.4464571350254,None,1405.6298684151843,1405.6464463099837,,,,,,,44,001,2023_Mar_06_1038,SpeechDraft1Carolyn_lessNoise_PlusLocalization,2021.2.3,59.98925906136277,
,,,,,,,,midRight,13.0,3,ch1Sound_localizationTask.wav,13.0,"(1142, 878)","(182, -202)",190,-338,,,,,,,,,,,,,1,3,10,5,,,,,,,,,,,,,,,,,,,,,,,,,,,,,,,,,,,,,,,,1408.0807603511494,None,,,1411.0961180150043,None,1.5862433862433862,0.7824602359905839,1411.0961180150043,None,,,,,,,1409.0797695210204,None,1409.263111869106,1409.27977372217,,,,,,,44,001,2023_Mar_06_1038,SpeechDraft1Carolyn_lessNoise_PlusLocalization,2021.2.3,59.98925906136277,
,,,,,,,,nearLeft,-6.5,1,ch1Sound_localizationTask.wav,-6.5,"(857, 878)","(-103,-202)",-95,-338,,,,,,,,,,,,,1,4,11,2,,,,,,,,,,,,,,,,,,,,,,,,,,,,,,,,,,,,,,,,1411.880825915141,None,,,1414.912924829172,None,1.439153439153439,0.54891487210989,1414.912924829172,None,,,,,,,1412.8965081430506,None,1413.079863105202,1413.0964742850047,,,,,,,44,001,2023_Mar_06_1038,SpeechDraft1Carolyn_lessNoise_PlusLocalization,2021.2.3,59.98925906136277,
,,,,,,,,nearRight,6.5,0,ch1Sound_localizationTask.wav,6.5,"(1047, 878)","(87, -202)",95,-338,,,,,,,,,,,,,1,5,12,4,,,,,,,,,,,,,,,,,,,,,,,,,,,,,,,,,,,,,,,,1415.4637581941206,None,,,1418.479388129199,None,1.552910052910053,0.6323719511274248,1418.479388129199,None,,,,,,,1416.4630826751236,None,1416.646513676038,1416.663200102048,,,,,,,44,001,2023_Mar_06_1038,SpeechDraft1Carolyn_lessNoise_PlusLocalization,2021.2.3,59.98925906136277,
,,,,,,,,center,0.0,6,ch1Sound_localizationTask.wav,0.0,"(952, 878)","(-8,-202)",0,-338,,,,,,,,,,,,,1,6,13,3,,,,,,,,,,,,,,,,,,,,,,,,,,,,,,,,,,,,,,,,1419.1135084251873,None,,,1422.1295495261438,None,1.5026455026455028,0.5491677199024707,1422.1295495261438,None,,,,,,,1420.1131428501103,None,1420.296396188205,1420.3132488750853,,,,,,,44,001,2023_Mar_06_1038,SpeechDraft1Carolyn_lessNoise_PlusLocalization,2021.2.3,59.98925906136277,
,,,,,,,,nearLeft,-6.5,1,ch1Sound_localizationTask.wav,-6.5,"(857, 878)","(-103,-202)",-95,-338,,,,,,,,,,,,,2,0,14,2,,,,,,,,,,,,,,,,,,,,,,,,,,,,,,,,,,,,,,,,1422.6800222021993,None,,,1425.6961840931326,None,1.464021164021164,0.4991327829193324,1425.6961840931326,None,,,,,,,1423.6798120741732,None,1423.863099972019,1423.879839434987,,,,,,,44,001,2023_Mar_06_1038,SpeechDraft1Carolyn_lessNoise_PlusLocalization,2021.2.3,59.98925906136277,
,,,,,,,,midLeft,-13.0,2,ch1Sound_localizationTask.wav,-13.0,"(762, 878)","(-198,-202)",-190,-338,,,,,,,,,,,,,2,1,15,1,,,,,,,,,,,,,,,,,,,,,,,,,,,,,,,,,,,,,,,,1426.1965518200304,None,,,1429.2129190941341,None,1.4232804232804233,0.5660588620230556,1429.2129190941341,None,,,,,,,1427.1965338310692,None,1427.3798900491092,1427.3965465719812,,,,,,,44,001,2023_Mar_06_1038,SpeechDraft1Carolyn_lessNoise_PlusLocalization,2021.2.3,59.98925906136277,
,,,,,,,,nearLeft,-6.5,1,ch1Sound_localizationTask.wav,-6.5,"(857, 878)","(-103,-202)",-95,-338,,,,,,,,,,,,,2,2,16,2,,,,,,,,,,,,,,,,,,,,,,,,,,,,,,,,,,,,,,,,1429.796565297991,None,,,1432.812894839095,None,1.4587301587301587,0.5649618599563837,1432.812894839095,None,,,,,,,1430.7964908881113,None,1430.9798627879936,1430.9965799232014,,,,,,,44,001,2023_Mar_06_1038,SpeechDraft1Carolyn_lessNoise_PlusLocalization,2021.2.3,59.98925906136277,
,,,,,,,,midRight,13.0,3,ch1Sound_localizationTask.wav,13.0,"(1142, 878)","(182, -202)",190,-338,,,,,,,,,,,,,2,3,17,5,,,,,,,,,,,,,,,,,,,,,,,,,,,,,,,,,,,,,,,,1433.3802164050285,None,,,1436.3962392371614,None,1.5793650793650795,0.5491112601011992,1436.3962392371614,None,,,,,,,1434.3798763910308,None,1434.5632049611304,1434.5798590569757,,,,,,,44,001,2023_Mar_06_1038,SpeechDraft1Carolyn_lessNoise_PlusLocalization,2021.2.3,59.98925906136277,
,,,,,,,,midRight,13.0,3,ch1Sound_localizationTask.wav,13.0,"(1142, 878)","(182, -202)",190,-338,,,,,,,,,,,,,2,4,18,5,,,,,,,,,,,,,,,,,,,,,,,,,,,,,,,,,,,,,,,,1436.9470122240018,None,,,1439.9630976649933,None,1.6105820105820106,0.49937346880324185,1439.9630976649933,None,,,,,,,1437.9464839890134,None,1438.1297748791985,1438.146636004094,,,,,,,44,001,2023_Mar_06_1038,SpeechDraft1Carolyn_lessNoise_PlusLocalization,2021.2.3,59.98925906136277,
,,,,,,,,nearLeft,-6.5,1,ch1Sound_localizationTask.wav,-6.5,"(857, 878)","(-103,-202)",-95,-338,,,,,,,,,,,,,2,5,19,2,,,,,,,,,,,,,,,,,,,,,,,,,,,,,,,,,,,,,,,,1440.4798908571247,None,,,1443.4963309459854,None,1.4994708994708994,0.4997619220521301,1443.4963309459854,None,,,,,,,1441.4800277820323,None,1441.6631419600453,1441.6798925569747,,,,,,,44,001,2023_Mar_06_1038,SpeechDraft1Carolyn_lessNoise_PlusLocalization,2021.2.3,59.98925906136277,
,,,,,,,,midRight,13.0,3,ch1Sound_localizationTask.wav,13.0,"(1142, 878)","(182, -202)",190,-338,,,,,,,,,,,,,2,6,20,5,,,,,,,,,,,,,,,,,,,,,,,,,,,,,,,,,,,,,,,,1443.9970733951777,None,,,1447.012961807195,None,1.6015873015873017,0.8162001150194556,1447.012961807195,None,,,,,,,1444.9965375592,None,1445.1799176090863,1445.1966360921506,,,,,,,44,001,2023_Mar_06_1038,SpeechDraft1Carolyn_lessNoise_PlusLocalization,2021.2.3,59.98925906136277,
,,,,,,,,center,0.0,6,ch1Sound_localizationTask.wav,0.0,"(952, 878)","(-8,-202)",0,-338,,,,,,,,,,,,,3,0,21,3,,,,,,,,,,,,,,,,,,,,,,,,,,,,,,,,,,,,,,,,1447.8302518241107,None,,,1450.8461865761783,None,1.4952380952380953,0.782673317939043,1450.8461865761783,None,,,,,,,1448.8298161970451,None,1449.0131685140077,1449.0298976441845,,,,,,,44,001,2023_Mar_06_1038,SpeechDraft1Carolyn_lessNoise_PlusLocalization,2021.2.3,59.98925906136277,
,,,,,,,,midLeft,-13.0,2,ch1Sound_localizationTask.wav,-13.0,"(762, 878)","(-198,-202)",-190,-338,,,,,,,,,,,,,3,1,22,1,,,,,,,,,,,,,,,,,,,,,,,,,,,,,,,,,,,,,,,,1451.630934216082,None,,,1454.663030008087,None,1.4047619047619047,0.6329574168194085,1454.663030008087,None,,,,,,,1452.6465880239848,None,1452.8299316810444,1452.8465596761089,,,,,,,44,001,2023_Mar_06_1038,SpeechDraft1Carolyn_lessNoise_PlusLocalization,2021.2.3,59.98925906136277,
,,,,,,,,farRight,19.1,4,ch1Sound_localizationTask.wav,19.1,"(1237, 878)","(277,-202)",285,-338,,,,,,,,,,,,,3,2,23,6,,,,,,,,,,,,,,,,,,,,,,,,,,,,,,,,,,,,,,,,1455.2968328411225,None,,,1458.3129431391135,None,1.6835978835978835,0.665211034938693,1458.3129431391135,None,,,,,,,1456.2965650861152,None,1456.4801032310352,1456.4965172510128,,,,,,,44,001,2023_Mar_06_1038,SpeechDraft1Carolyn_lessNoise_PlusLocalization,2021.2.3,59.98925906136277,
,,,,,,,,nearLeft,-6.5,1,ch1Sound_localizationTask.wav,-6.5,"(857, 878)","(-103,-202)",-95,-338,,,,,,,,,,,,,3,3,24,2,,,,,,,,,,,,,,,,,,,,,,,,,,,,,,,,,,,,,,,,1458.9799766871147,None,,,1461.9961882780772,None,1.439153439153439,0.7331350347958505,1461.9961882780772,None,,,,,,,1459.9798208000138,None,1460.1631992431358,1460.1798095300328,,,,,,,44,001,2023_Mar_06_1038,SpeechDraft1Carolyn_lessNoise_PlusLocalization,2021.2.3,59.98925906136277,
,,,,,,,,farLeft,-19.1,5,ch1Sound_localizationTask.wav,-19.1,"(667, 878)","(-293,-202)",-285,-338,,,,,,,,,,,,,3,4,25,0,,,,,,,,,,,,,,,,,,,,,,,,,,,,,,,,,,,,,,,,1462.7465829961002,None,,,1465.76295528817,None,1.4455026455026454,2.4154144709464163,1465.76295528817,None,,,,,,,1463.7466340011451,None,1463.9300407841802,1463.9466296071187,,,,,,,44,001,2023_Mar_06_1038,SpeechDraft1Carolyn_lessNoise_PlusLocalization,2021.2.3,59.98925906136277,
,,,,,,,,nearRight,6.5,0,ch1Sound_localizationTask.wav,6.5,"(1047, 878)","(87, -202)",95,-338,,,,,,,,,,,,,3,5,26,4,,,,,,,,,,,,,,,,,,,,,,,,,,,,,,,,,,,,,,,,1468.1798756329808,None,,,1471.1963081401773,None,1.5343915343915344,0.5819114129990339,1471.1963081401773,None,,,,,,,1469.1799126281403,None,1469.3631893580314,1469.3800082800444,,,,,,,44,001,2023_Mar_06_1038,SpeechDraft1Carolyn_lessNoise_PlusLocalization,2021.2.3,59.98925906136277,
,,,,,,,,nearLeft,-6.5,1,ch1Sound_localizationTask.wav,-6.5,"(857, 878)","(-103,-202)",-95,-338,,,,,,,,,,,,,3,6,27,2,,,,,,,,,,,,,,,,,,,,,,,,,,,,,,,,,,,,,,,,1471.7798645340372,None,,,1474.7962663911749,None,1.446031746031746,0.46806257008574903,1474.7962663911749,None,,,,,,,1472.779889440164,None,1472.9632206170354,1472.9799147371668,,,,,,,44,001,2023_Mar_06_1038,SpeechDraft1Carolyn_lessNoise_PlusLocalization,2021.2.3,59.98925906136277,
,,,,,,,,nearRight,6.5,0,ch1Sound_localizationTask.wav,6.5,"(1047, 878)","(87, -202)",95,-338,,,,,,,,,,,,,4,0,28,4,,,,,,,,,,,,,,,,,,,,,,,,,,,,,,,,,,,,,,,,1475.2798763799947,None,,,1478.296236350201,None,1.5587301587301587,0.5656373749952763,1478.296236350201,None,,,,,,,1476.2798427531961,None,1476.4632392330095,1476.4799036660697,,,,,,,44,001,2023_Mar_06_1038,SpeechDraft1Carolyn_lessNoise_PlusLocalization,2021.2.3,59.98925906136277,
,,,,,,,,center,0.0,6,ch1Sound_localizationTask.wav,0.0,"(952, 878)","(-8,-202)",0,-338,,,,,,,,,,,,,4,1,29,3,,,,,,,,,,,,,,,,,,,,,,,,,,,,,,,,,,,,,,,,1478.863974750042,None,,,1481.8795938151889,None,1.4984126984126984,0.7491285249125212,1481.8795938151889,None,,,,,,,1479.8632690140512,None,1480.0465814361814,1480.0632981201634,,,,,,,44,001,2023_Mar_06_1038,SpeechDraft1Carolyn_lessNoise_PlusLocalization,2021.2.3,59.98925906136277,
,,,,,,,,farRight,19.1,4,ch1Sound_localizationTask.wav,19.1,"(1237, 878)","(277,-202)",285,-338,,,,,,,,,,,,,4,2,30,6,,,,,,,,,,,,,,,,,,,,,,,,,,,,,,,,,,,,,,,,1482.6306307271589,None,,,1485.6462923299987,None,1.6724867724867725,0.5332613999489695,1485.6462923299987,None,,,,,,,1483.6298987611663,None,1483.8132634251378,1483.8299370270688,,,,,,,44,001,2023_Mar_06_1038,SpeechDraft1Carolyn_lessNoise_PlusLocalization,2021.2.3,59.98925906136277,
,,,,,,,,farRight,19.1,4,ch1Sound_localizationTask.wav,19.1,"(1237, 878)","(277,-202)",285,-338,,,,,,,,,,,,,4,3,31,6,,,,,,,,,,,,,,,,,,,,,,,,,,,,,,,,,,,,,,,,1486.1812317091972,None,,,1489.212822413072,None,1.6603174603174602,0.6487188639584929,1489.212822413072,None,,,,,,,1487.1965773031116,None,1487.3799528470263,1487.3965879131574,,,,,,,44,001,2023_Mar_06_1038,SpeechDraft1Carolyn_lessNoise_PlusLocalization,2021.2.3,59.98925906136277,
,,,,,,,,farRight,19.1,4,ch1Sound_localizationTask.wav,19.1,"(1237, 878)","(277,-202)",285,-338,,,,,,,,,,,,,4,4,32,6,,,,,,,,,,,,,,,,,,,,,,,,,,,,,,,,,,,,,,,,1489.863295989111,None,,,1492.8795150481164,None,1.6375661375661377,0.48296640207991004,1492.8795150481164,None,,,,,,,1490.8632596139796,None,1491.0466762871947,1491.0632872229908,,,,,,,44,001,2023_Mar_06_1038,SpeechDraft1Carolyn_lessNoise_PlusLocalization,2021.2.3,59.98925906136277,
,,,,,,,,midLeft,-13.0,2,ch1Sound_localizationTask.wav,-13.0,"(762, 878)","(-198,-202)",-190,-338,,,,,,,,,,,,,4,5,33,1,,,,,,,,,,,,,,,,,,,,,,,,,,,,,,,,,,,,,,,,1493.363851968199,None,,,1496.3797638851684,None,1.4227513227513229,0.46607602713629603,1496.3797638851684,None,,,,,,,1494.3632821480278,None,1494.5465618250892,1494.563292506151,,,,,,,44,001,2023_Mar_06_1038,SpeechDraft1Carolyn_lessNoise_PlusLocalization,2021.2.3,59.98925906136277,
,,,,,,,,nearRight,6.5,0,ch1Sound_localizationTask.wav,6.5,"(1047, 878)","(87, -202)",95,-338,,,,,,,,,,,,,4,6,34,4,,,,,,,,,,,,,,,,,,,,,,,,,,,,,,,,,,,,,,,,1496.8473006130662,None,,,1499.8630016071256,None,1.5354497354497354,0.6860272940248251,1499.8630016071256,None,,,,,,,1497.8466038121842,None,1498.0299762249924,1498.04676031298,,,,,,,44,001,2023_Mar_06_1038,SpeechDraft1Carolyn_lessNoise_PlusLocalization,2021.2.3,59.98925906136277,
,,,,,,,,midLeft,-13.0,2,ch1Sound_localizationTask.wav,-13.0,"(762, 878)","(-198,-202)",-190,-338,,,,,,,,,,,,,5,0,35,1,,,,,,,,,,,,,,,,,,,,,,,,,,,,,,,,,,,,,,,,1500.563874481013,None,,,1503.5797873050906,None,1.4185185185185185,0.5325603659730405,1503.5797873050906,None,,,,,,,1501.5632382421754,None,1501.7466978901066,1501.7632865940686,,,,,,,44,001,2023_Mar_06_1038,SpeechDraft1Carolyn_lessNoise_PlusLocalization,2021.2.3,59.98925906136277,
,,,,,,,,midLeft,-13.0,2,ch1Sound_localizationTask.wav,-13.0,"(762, 878)","(-198,-202)",-190,-338,,,,,,,,,,,,,5,1,36,1,,,,,,,,,,,,,,,,,,,,,,,,,,,,,,,,,,,,,,,,1504.1138598071411,None,,,1507.1297507029958,None,1.3746031746031746,0.5331797620747238,1507.1297507029958,None,,,,,,,1505.113253819989,None,1505.296627432108,1505.3132592150941,,,,,,,44,001,2023_Mar_06_1038,SpeechDraft1Carolyn_lessNoise_PlusLocalization,2021.2.3,59.98925906136277,
,,,,,,,,nearRight,6.5,0,ch1Sound_localizationTask.wav,6.5,"(1047, 878)","(87, -202)",95,-338,,,,,,,,,,,,,5,2,37,4,,,,,,,,,,,,,,,,,,,,,,,,,,,,,,,,,,,,,,,,1507.6800048700534,None,,,1510.6962411049753,None,1.4190476190476191,0.9994541639462113,1510.6962411049753,None,,,,,,,1508.6798935171682,None,1508.8632670450024,1508.880074411165,,,,,,,44,001,2023_Mar_06_1038,SpeechDraft1Carolyn_lessNoise_PlusLocalization,2021.2.3,59.98925906136277,
,,,,,,,,midRight,13.0,3,ch1Sound_localizationTask.wav,13.0,"(1142, 878)","(182, -202)",190,-338,,,,,,,,,,,,,5,3,38,5,,,,,,,,,,,,,,,,,,,,,,,,,,,,,,,,,,,,,,,,1511.6970859621651,None,,,1514.7131991970818,None,1.6047619047619048,0.6827680438291281,1514.7131991970818,None,,,,,,,1512.6966142591555,None,1512.8800897609908,1512.8965530390851,,,,,,,44,001,2023_Mar_06_1038,SpeechDraft1Carolyn_lessNoise_PlusLocalization,2021.2.3,59.98925906136277,
,,,,,,,,nearRight,6.5,0,ch1Sound_localizationTask.wav,6.5,"(1047, 878)","(87, -202)",95,-338,,,,,,,,,,,,,5,4,39,4,,,,,,,,,,,,,,,,,,,,,,,,,,,,,,,,,,,,,,,,1515.4133598180488,None,,,1518.4296332411468,None,1.5343915343915344,0.4490893429610878,1518.4296332411468,None,,,,,,,1516.4133016241249,None,1516.5966395691503,1516.6133554379921,,,,,,,44,001,2023_Mar_06_1038,SpeechDraft1Carolyn_lessNoise_PlusLocalization,2021.2.3,59.98925906136277,
,,,,,,,,center,0.0,6,ch1Sound_localizationTask.wav,0.0,"(952, 878)","(-8,-202)",0,-338,,,,,,,,,,,,,5,5,40,3,,,,,,,,,,,,,,,,,,,,,,,,,,,,,,,,,,,,,,,,1518.8805011960212,None,,,1521.8964190531988,None,1.4883597883597883,0.4833863971289247,1521.8964190531988,None,,,,,,,1519.8800967670977,None,1520.0632847771049,1520.0800376140978,,,,,,,44,001,2023_Mar_06_1038,SpeechDraft1Carolyn_lessNoise_PlusLocalization,2021.2.3,59.98925906136277,
,,,,,,,,midLeft,-13.0,2,ch1Sound_localizationTask.wav,-13.0,"(762, 878)","(-198,-202)",-190,-338,,,,,,,,,,,,,5,6,41,1,,,,,,,,,,,,,,,,,,,,,,,,,,,,,,,,,,,,,,,,1522.397120514186,None,,,1525.4130269919988,None,1.4185185185185185,0.664812358096242,1525.4130269919988,None,,,,,,,1523.396704374114,None,1523.5800656441133,1523.5966331730597,,,,,,,44,001,2023_Mar_06_1038,SpeechDraft1Carolyn_lessNoise_PlusLocalization,2021.2.3,59.98925906136277,
,,,,,,,,farLeft,-19.1,5,ch1Sound_localizationTask.wav,-19.1,"(667, 878)","(-293,-202)",-285,-338,,,,,,,,,,,,,6,0,42,0,,,,,,,,,,,,,,,,,,,,,,,,,,,,,,,,,,,,,,,,1526.0801312010735,None,,,1529.0963361521717,None,1.3634920634920635,0.6331844178494066,1529.0963361521717,None,,,,,,,1527.0799646470696,None,1527.2632760279812,1527.2799861440435,,,,,,,44,001,2023_Mar_06_1038,SpeechDraft1Carolyn_lessNoise_PlusLocalization,2021.2.3,59.98925906136277,
,,,,,,,,midRight,13.0,3,ch1Sound_localizationTask.wav,13.0,"(1142, 878)","(182, -202)",190,-338,,,,,,,,,,,,,6,1,43,5,,,,,,,,,,,,,,,,,,,,,,,,,,,,,,,,,,,,,,,,1529.7467212511692,None,,,1532.763104162179,None,1.6,0.598777414066717,1532.763104162179,None,,,,,,,1530.7466657510959,None,1530.9299598371144,1530.9466623221524,,,,,,,44,001,2023_Mar_06_1038,SpeechDraft1Carolyn_lessNoise_PlusLocalization,2021.2.3,59.98925906136277,
,,,,,,,,farLeft,-19.1,5,ch1Sound_localizationTask.wav,-19.1,"(667, 878)","(-293,-202)",-285,-338,,,,,,,,,,,,,6,2,44,0,,,,,,,,,,,,,,,,,,,,,,,,,,,,,,,,,,,,,,,,1533.3635477980133,None,,,1536.3797554899938,None,1.3714285714285714,1.0153432879596949,1536.3797554899938,None,,,,,,,1534.3633706071414,None,1534.5466444131453,1534.5633073560894,,,,,,,44,001,2023_Mar_06_1038,SpeechDraft1Carolyn_lessNoise_PlusLocalization,2021.2.3,59.98925906136277,
,,,,,,,,center,0.0,6,ch1Sound_localizationTask.wav,0.0,"(952, 878)","(-8,-202)",0,-338,,,,,,,,,,,,,6,3,45,3,,,,,,,,,,,,,,,,,,,,,,,,,,,,,,,,,,,,,,,,1537.3978824280202,None,,,1540.4297052151524,None,1.4915343915343915,0.6021480660419911,1540.4297052151524,None,,,,,,,1538.4132230521645,None,1538.5966119521763,1538.6133253399748,,,,,,,44,001,2023_Mar_06_1038,SpeechDraft1Carolyn_lessNoise_PlusLocalization,2021.2.3,59.98925906136277,
,,,,,,,,nearLeft,-6.5,1,ch1Sound_localizationTask.wav,-6.5,"(857, 878)","(-103,-202)",-95,-338,,,,,,,,,,,,,6,4,46,2,,,,,,,,,,,,,,,,,,,,,,,,,,,,,,,,,,,,,,,,1541.046696488047,None,,,1544.0630676671863,None,1.4497354497354498,0.500641694990918,1544.0630676671863,None,,,,,,,1542.0466391372029,None,1542.230250691995,1542.2466516341083,,,,,,,44,001,2023_Mar_06_1038,SpeechDraft1Carolyn_lessNoise_PlusLocalization,2021.2.3,59.98925906136277,
,,,,,,,,midRight,13.0,3,ch1Sound_localizationTask.wav,13.0,"(1142, 878)","(182, -202)",190,-338,,,,,,,,,,,,,6,5,47,5,,,,,,,,,,,,,,,,,,,,,,,,,,,,,,,,,,,,,,,,1544.5799504551105,None,,,1547.596402689116,None,1.6005291005291005,0.4661836849991232,1547.596402689116,None,,,,,,,1545.5799689160194,None,1545.76329093799,1545.7799372461159,,,,,,,44,001,2023_Mar_06_1038,SpeechDraft1Carolyn_lessNoise_PlusLocalization,2021.2.3,59.98925906136277,
,,,,,,,,center,0.0,6,ch1Sound_localizationTask.wav,0.0,"(952, 878)","(-8,-202)",0,-338,,,,,,,,,,,,,6,6,48,3,,,,,,,,,,,,,,,,,,,,,,,,,,,,,,,,,,,,,,,,1548.0801553160418,None,,,1551.0963467550464,None,1.5201058201058202,0.6332780949305743,1551.0963467550464,None,,,,,,,1549.0800969700795,None,1549.2633205051534,1549.2800037621055,,,,,,,44,001,2023_Mar_06_1038,SpeechDraft1Carolyn_lessNoise_PlusLocalization,2021.2.3,59.98925906136277,
,,,,,,,,farLeft,-19.1,5,ch1Sound_localizationTask.wav,-19.1,"(667, 878)","(-293,-202)",-285,-338,,,,,,,,,,,,,7,0,49,0,,,,,,,,,,,,,,,,,,,,,,,,,,,,,,,,,,,,,,,,1551.7467270800844,None,,,1554.7630992350169,None,1.508994708994709,0.6495839718263596,1554.7630992350169,None,,,,,,,1552.746685339138,None,1552.9299971719738,1552.9466518249828,,,,,,,44,001,2023_Mar_06_1038,SpeechDraft1Carolyn_lessNoise_PlusLocalization,2021.2.3,59.98925906136277,
,,,,,,,,farRight,19.1,4,ch1Sound_localizationTask.wav,19.1,"(1237, 878)","(277,-202)",285,-338,,,,,,,,,,,,,7,1,50,6,,,,,,,,,,,,,,,,,,,,,,,,,,,,,,,,,,,,,,,,1555.413935731165,None,,,1558.4297041040845,None,1.657142857142857,0.5993539900518954,1558.4297041040845,None,,,,,,,1556.4134240150452,None,1556.5968443530146,1556.6133276161272,,,,,,,44,001,2023_Mar_06_1038,SpeechDraft1Carolyn_lessNoise_PlusLocalization,2021.2.3,59.98925906136277,
,,,,,,,,farLeft,-19.1,5,ch1Sound_localizationTask.wav,-19.1,"(667, 878)","(-293,-202)",-285,-338,,,,,,,,,,,,,7,2,51,0,,,,,,,,,,,,,,,,,,,,,,,,,,,,,,,,,,,,,,,,1559.0310378060676,None,,,1562.0629639050458,None,1.3423280423280424,0.8818966238759458,1562.0629639050458,None,,,,,,,1560.0467802130152,None,1560.23002430005,1560.2466565610375,,,,,,,44,001,2023_Mar_06_1038,SpeechDraft1Carolyn_lessNoise_PlusLocalization,2021.2.3,59.98925906136277,
,,,,,,,,farRight,19.1,4,ch1Sound_localizationTask.wav,19.1,"(1237, 878)","(277,-202)",285,-338,,,,,,,,,,,,,7,3,52,6,,,,,,,,,,,,,,,,,,,,,,,,,,,,,,,,,,,,,,,,1562.9470712170005,None,,,1565.9631214020774,None,1.6682539682539683,0.9498706459999084,1565.9631214020774,None,,,,,,,1563.9466642700136,None,1564.13005595305,1564.1466185559984,,,,,,,44,001,2023_Mar_06_1038,SpeechDraft1Carolyn_lessNoise_PlusLocalization,2021.2.3,59.98925906136277,
,,,,,,,,farLeft,-19.1,5,ch1Sound_localizationTask.wav,-19.1,"(667, 878)","(-293,-202)",-285,-338,,,,,,,,,,,,,7,4,53,0,,,,,,,,,,,,,,,,,,,,,,,,,,,,,,,,,,,,,,,,1566.929982027039,None,,,1569.9465071531013,None,1.3645502645502645,0.6013294050935656,1569.9465071531013,None,,,,,,,1567.9299781441223,None,1568.1134401080199,1568.130017152056,,,,,,,44,001,2023_Mar_06_1038,SpeechDraft1Carolyn_lessNoise_PlusLocalization,2021.2.3,59.98925906136277,
,,,,,,,,farLeft,-19.1,5,ch1Sound_localizationTask.wav,-19.1,"(667, 878)","(-293,-202)",-285,-338,,,,,,,,,,,,,7,5,54,0,,,,,,,,,,,,,,,,,,,,,,,,,,,,,,,,,,,,,,,,1570.5634204621892,None,,,1573.579693942098,None,1.33015873015873,0.5491138249635696,1573.579693942098,None,,,,,,,1571.5634047121275,None,1571.7467958971392,1571.7633526090067,,,,,,,44,001,2023_Mar_06_1038,SpeechDraft1Carolyn_lessNoise_PlusLocalization,2021.2.3,59.98925906136277,
,,,,,,,,farRight,19.1,4,ch1Sound_localizationTask.wav,19.1,"(1237, 878)","(277,-202)",285,-338,,,,,,,,,,,,,7,6,55,6,,,,,,,,,,,,,,,,,,,,,,,,,,,,,,,,,,,,,,,,1574.1310338070616,None,,,1577.1463377180044,None,1.6613756613756614,0.5493966590147465,1577.1463377180044,None,,,,,,,1575.130099780159,None,1575.3133445631247,1575.3300698131789,,,,,,,44,001,2023_Mar_06_1038,SpeechDraft1Carolyn_lessNoise_PlusLocalization,2021.2.3,59.98925906136277,
,,,,,,,,,,,,,,,,,,,,,,,,,,,,,,,,,,,,,,,,,,,,,,,,,,,,,,,,,,,,,,,,,,,,,,,,,,,,,,,,,,,,,,,,,,,,1577.7135230300482,None,c,169.21484353509732,1578.6967792420182,None,44,001,2023_Mar_06_1038,SpeechDraft1Carolyn_lessNoise_PlusLocalization,2021.2.3,59.98925906136277,
