Audio_Only_Files,Video_Files,Original_Word_List,noiseLevelCode,conditionCodes,noiseLevelFile1,noiseLevelFile2,InstrTextVar,targetSpeakerName,targetSpeakerEccen,targetSpkrChannel,targetSpkrSound,targetVisualDegrees,visStimLoc,visStimLoc2,visStimW,visStimH,practiceTrials.thisRepN,practiceTrials.thisTrialN,practiceTrials.thisN,practiceTrials.thisIndex,trials.thisRepN,trials.thisTrialN,trials.thisN,trials.thisIndex,audLocalLoop.thisRepN,audLocalLoop.thisTrialN,audLocalLoop.thisN,audLocalLoop.thisIndex,visualLocalLoop.thisRepN,visualLocalLoop.thisTrialN,visualLocalLoop.thisN,visualLocalLoop.thisIndex,letsGoAlready.keys,letsGoAlready.rt,letsGoAlready.started,letsGoAlready.stopped,text_2.started,text_2.stopped,text_3.started,text_3.stopped,key_resp_2.keys,key_resp_2.rt,key_resp_2.started,key_resp_2.stopped,text_5.started,text_5.stopped,fixCross.started,fixCross.stopped,fixCross2.started,fixCross2.stopped,answerPrompt.started,answerPrompt.stopped,getAnswer.text,getAnswer.started,getAnswer.stopped,goToNext.keys,goToNext.rt,goToNext.started,goToNext.stopped,stretchBreakTxrt.started,stretchBreakTxrt.stopped,key_resp_3.keys,key_resp_3.rt,key_resp_3.started,key_resp_3.stopped,letsGoLocal.keys,letsGoLocal.rt,letsGoLocal.started,letsGoLocal.stopped,text_4.started,text_4.stopped,prepFixTxt.started,prepFixTxt.stopped,prepFixTxt_2.started,prepFixTxt_2.stopped,respPromptLocal.started,respPromptLocal.stopped,slider.response,slider.rt,slider.started,slider.stopped,letsGoLocal_2.keys,letsGoLocal_2.rt,letsGoLocal_2.started,letsGoLocal_2.stopped,text_7.started,text_7.stopped,prepFixTxt_3.started,prepFixTxt_3.stopped,grating.started,grating.stopped,exitTxt.started,exitTxt.stopped,key_resp.keys,key_resp.rt,key_resp.started,key_resp.stopped,participant,session,date,expName,psychopyVersion,frameRate,
,,,,,,,,,,,,,,,,,,,,,,,,,,,,,,,,,space,4.366339165950194,15.05347203486599,None,,,,,,,,,,,,,,,,,,,,,,,,,,,,,,,,,,,,,,,,,,,,,,,,,,,,,,,,,,,,,,48,001,2023_Mar_08_1543,SpeechDraft1Carolyn_lessNoise_PlusLocalization,2021.2.3,60.00986265061606,
,,,,,,,,,,,,,,,,,,,,,,,,,,,,,,,,,,,,,15.05347203486599,None,19.537046768004075,None,space,6.723831557203084,19.719924540957436,None,,,,,,,,,,,,,,,,,,,,,,,,,,,,,,,,,,,,,,,,,,,,,,,,,,,,,,48,001,2023_Mar_08_1543,SpeechDraft1Carolyn_lessNoise_PlusLocalization,2021.2.3,60.00986265061606,
ash.wav,ash.mpg,ash,1,A,Pink_Noise_1_1.wav,Pink_Noise_1_2.wav,"This is an example of an

AUDIO trial",,,,,,,,,,0,0,0,0,,,,,,,,,,,,,,,,,,,,,,,,,26.503216373035684,None,27.48661722592078,None,30.636990404920653,None,32.037082600872964,None,ash,32.037082600872964,None,return,4.291803092928603,32.119955020956695,None,,,,,,,,,,,,,,,,,,,,,,,,,,,,,,,,,,,,,,,48,001,2023_Mar_08_1543,SpeechDraft1Carolyn_lessNoise_PlusLocalization,2021.2.3,60.00986265061606,
ash.wav,ash.mpg,ash,1,AV,Pink_Noise_1_1.wav,Pink_Noise_1_2.wav,"This is an example of an

AUDIO + VIDEO  trial",,,,,,,,,,0,1,1,1,,,,,,,,,,,,,,,,,,,,,,,,,36.453100298997015,None,37.45332608092576,None,38.93641525506973,None,40.320102710975334,None,ash,40.320102710975334,None,return,7.512465092819184,40.403306745924056,None,,,,,,,,,,,,,,,,,,,,,,,,,,,,,,,,,,,,,,,48,001,2023_Mar_08_1543,SpeechDraft1Carolyn_lessNoise_PlusLocalization,2021.2.3,60.00986265061606,
,,,,,,,,,,,,,,,,,,,,,,,,,,,,,,,,,,,,,,,,,,,,,,,,,,,,,,,,,,,,47.95316498703323,None,space,20.40304025588557,48.13691312284209,None,,,,,,,,,,,,,,,,,,,,,,,,,,,,,,,,,48,001,2023_Mar_08_1543,SpeechDraft1Carolyn_lessNoise_PlusLocalization,2021.2.3,60.00986265061606,
grind.wav,grind.mpg,grind,6,A,Pink_Noise_6_1.wav,Pink_Noise_6_2.wav,,,,,,,,,,,,,,,0,0,0,0,,,,,,,,,,,,,,,,,,,,,,,68.6031840138603,None,70.08635674603283,None,71.47024980094284,None,drove,71.47024980094284,None,return,10.058199378894642,71.55352610186674,None,,,,,,,,,,,,,,,,,,,,,,,,,,,,,,,,,,,,,,,48,001,2023_Mar_08_1543,SpeechDraft1Carolyn_lessNoise_PlusLocalization,2021.2.3,60.00986265061606,
deal.wav,deal.mpg,deal,2,AV,Pink_Noise_2_1.wav,Pink_Noise_2_2.wav,,,,,,,,,,,,,,,0,1,1,110,,,,,,,,,,,,,,,,,,,,,,,81.63701059296727,None,83.13645246298984,None,84.51998819597065,None,deal,84.51998819597065,None,return,3.688257237896323,84.60349947493523,None,,,,,,,,,,,,,,,,,,,,,,,,,,,,,,,,,,,,,,,48,001,2023_Mar_08_1543,SpeechDraft1Carolyn_lessNoise_PlusLocalization,2021.2.3,60.00986265061606,
thrown.wav,thrown.mpg,thrown,2,A,Pink_Noise_2_1.wav,Pink_Noise_2_2.wav,,,,,,,,,,,,,,,0,2,2,58,,,,,,,,,,,,,,,,,,,,,,,88.32007832685485,None,89.82020881492645,None,91.18687318894081,None,throw,91.18687318894081,None,return,7.245722803054377,91.27003208897077,None,,,,,,,,,,,,,,,,,,,,,,,,,,,,,,,,,,,,,,,48,001,2023_Mar_08_1543,SpeechDraft1Carolyn_lessNoise_PlusLocalization,2021.2.3,60.00986265061606,
grin.wav,grin.mpg,grin,2,AV,Pink_Noise_2_1.wav,Pink_Noise_2_2.wav,,,,,,,,,,,,,,,0,3,3,88,,,,,,,,,,,,,,,,,,,,,,,98.53678114991635,None,100.036631654948,None,101.42006187792867,None,grin,101.42006187792867,None,return,5.388191949110478,101.50356813985854,None,,,,,,,,,,,,,,,,,,,,,,,,,,,,,,,,,,,,,,,48,001,2023_Mar_08_1543,SpeechDraft1Carolyn_lessNoise_PlusLocalization,2021.2.3,60.00986265061606,
bible.wav,bible.mpg,bible,3,A,Pink_Noise_3_1.wav,Pink_Noise_3_2.wav,,,,,,,,,,,,,,,0,4,4,49,,,,,,,,,,,,,,,,,,,,,,,106.92021980602294,None,108.41978483693674,None,109.80375055596232,None,"bible
",109.80375055596232,None,return,5.052842881996185,109.88691546488553,None,,,,,,,,,,,,,,,,,,,,,,,,,,,,,,,,,,,,,,,48,001,2023_Mar_08_1543,SpeechDraft1Carolyn_lessNoise_PlusLocalization,2021.2.3,60.00986265061606,
count.wav,count.mpg,count,6,AV,Pink_Noise_6_1.wav,Pink_Noise_6_2.wav,,,,,,,,,,,,,,,0,5,5,81,,,,,,,,,,,,,,,,,,,,,,,114.97024700697511,None,116.46977346995845,None,117.85345837497152,None,mouth,117.85345837497152,None,return,5.475042436970398,117.93679298483767,None,,,,,,,,,,,,,,,,,,,,,,,,,,,,,,,,,,,,,,,48,001,2023_Mar_08_1543,SpeechDraft1Carolyn_lessNoise_PlusLocalization,2021.2.3,60.00986265061606,
cream.wav,cream.mpg,cream,2,AV,Pink_Noise_2_1.wav,Pink_Noise_2_2.wav,,,,,,,,,,,,,,,0,6,6,61,,,,,,,,,,,,,,,,,,,,,,,123.43700302485377,None,124.9366326329764,None,126.32036907691509,None,"cream
",126.32036907691509,None,return,4.3682335710618645,126.40351555799134,None,,,,,,,,,,,,,,,,,,,,,,,,,,,,,,,,,,,,,,,48,001,2023_Mar_08_1543,SpeechDraft1Carolyn_lessNoise_PlusLocalization,2021.2.3,60.00986265061606,
brain.wav,brain.mpg,brain,3,AV,Pink_Noise_3_1.wav,Pink_Noise_3_2.wav,,,,,,,,,,,,,,,0,7,7,86,,,,,,,,,,,,,,,,,,,,,,,130.80356655502692,None,132.30333358701319,None,133.68689067591913,None,rain,133.68689067591913,None,return,4.737584300804883,133.77016569906846,None,,,,,,,,,,,,,,,,,,,,,,,,,,,,,,,,,,,,,,,48,001,2023_Mar_08_1543,SpeechDraft1Carolyn_lessNoise_PlusLocalization,2021.2.3,60.00986265061606,
break.wav,break.mpg,break,4,AV,Pink_Noise_4_1.wav,Pink_Noise_4_2.wav,,,,,,,,,,,,,,,0,8,8,116,,,,,,,,,,,,,,,,,,,,,,,138.53673012088984,None,140.03662443486974,None,141.42037912085652,None,break,141.42037912085652,None,return,7.156437397003174,141.5035155969672,None,,,,,,,,,,,,,,,,,,,,,,,,,,,,,,,,,,,,,,,48,001,2023_Mar_08_1543,SpeechDraft1Carolyn_lessNoise_PlusLocalization,2021.2.3,60.00986265061606,
film.wav,film.mpg,film,2,AV,Pink_Noise_2_1.wav,Pink_Noise_2_2.wav,,,,,,,,,,,,,,,0,9,9,77,,,,,,,,,,,,,,,,,,,,,,,148.68684419500642,None,150.1865216428414,None,151.57042494788766,None,film,151.57042494788766,None,return,5.6141874270979315,151.65356827084906,None,,,,,,,,,,,,,,,,,,,,,,,,,,,,,,,,,,,,,,,48,001,2023_Mar_08_1543,SpeechDraft1Carolyn_lessNoise_PlusLocalization,2021.2.3,60.00986265061606,
check.wav,check.mpg,check,1,A,Pink_Noise_1_1.wav,Pink_Noise_1_2.wav,,,,,,,,,,,,,,,0,10,10,46,,,,,,,,,,,,,,,,,,,,,,,157.28713427484035,None,158.78657869505696,None,160.1536678490229,None,check,160.1536678490229,None,return,6.510891769081354,160.23686330998316,None,,,,,,,,,,,,,,,,,,,,,,,,,,,,,,,,,,,,,,,48,001,2023_Mar_08_1543,SpeechDraft1Carolyn_lessNoise_PlusLocalization,2021.2.3,60.00986265061606,
blush.wav,blush.mpg,blush,1,A,Pink_Noise_1_1.wav,Pink_Noise_1_2.wav,,,,,,,,,,,,,,,0,11,11,27,,,,,,,,,,,,,,,,,,,,,,,166.77040522894822,None,168.26988223590888,None,169.6537433930207,None,blush,169.6537433930207,None,return,5.778840468032286,169.73693260084838,None,,,,,,,,,,,,,,,,,,,,,,,,,,,,,,,,,,,,,,,48,001,2023_Mar_08_1543,SpeechDraft1Carolyn_lessNoise_PlusLocalization,2021.2.3,60.00986265061606,
crash.wav,crash.mpg,crash,2,AV,Pink_Noise_2_1.wav,Pink_Noise_2_2.wav,,,,,,,,,,,,,,,0,12,12,117,,,,,,,,,,,,,,,,,,,,,,,175.53682078397833,None,177.03670185199007,None,178.4201105190441,None,crash,178.4201105190441,None,return,4.940568957012147,178.50351591501385,None,,,,,,,,,,,,,,,,,,,,,,,,,,,,,,,,,,,,,,,48,001,2023_Mar_08_1543,SpeechDraft1Carolyn_lessNoise_PlusLocalization,2021.2.3,60.00986265061606,
clue.wav,clue.mpg,clue,6,A,Pink_Noise_6_1.wav,Pink_Noise_6_2.wav,,,,,,,,,,,,,,,0,13,13,47,,,,,,,,,,,,,,,,,,,,,,,183.47040092386305,None,184.96990704885684,None,186.3537692669779,None,"deal
",186.3537692669779,None,return,3.718689596047625,186.43706765188836,None,,,,,,,,,,,,,,,,,,,,,,,,,,,,,,,,,,,,,,,48,001,2023_Mar_08_1543,SpeechDraft1Carolyn_lessNoise_PlusLocalization,2021.2.3,60.00986265061606,
float.wav,float.mpg,float,5,AV,Pink_Noise_5_1.wav,Pink_Noise_5_2.wav,,,,,,,,,,,,,,,0,14,14,101,,,,,,,,,,,,,,,,,,,,,,,190.18705586297438,None,191.68652916606516,None,193.07044370402582,None,float,193.07044370402582,None,return,4.994028463028371,193.15370580600575,None,,,,,,,,,,,,,,,,,,,,,,,,,,,,,,,,,,,,,,,48,001,2023_Mar_08_1543,SpeechDraft1Carolyn_lessNoise_PlusLocalization,2021.2.3,60.00986265061606,
blunt.wav,blunt.mpg,blunt,5,AV,Pink_Noise_5_1.wav,Pink_Noise_5_2.wav,,,,,,,,,,,,,,,0,15,15,66,,,,,,,,,,,,,,,,,,,,,,,198.17026899498887,None,199.66990112699568,None,201.0535535858944,None,blunt,201.0535535858944,None,return,5.891126370988786,201.1369503608439,None,,,,,,,,,,,,,,,,,,,,,,,,,,,,,,,,,,,,,,,48,001,2023_Mar_08_1543,SpeechDraft1Carolyn_lessNoise_PlusLocalization,2021.2.3,60.00986265061606,
ton.wav,ton.mpg,ton,6,AV,Pink_Noise_6_1.wav,Pink_Noise_6_2.wav,,,,,,,,,,,,,,,0,16,16,96,,,,,,,,,,,,,,,,,,,,,,,207.05358927696943,None,208.55332789802924,None,209.9380233050324,None,knudge,209.9380233050324,None,return,7.823441043961793,210.02046991488896,None,,,,,,,,,,,,,,,,,,,,,,,,,,,,,,,,,,,,,,,48,001,2023_Mar_08_1543,SpeechDraft1Carolyn_lessNoise_PlusLocalization,2021.2.3,60.00986265061606,
faint.wav,faint.mpg,faint,3,A,Pink_Noise_3_1.wav,Pink_Noise_3_2.wav,,,,,,,,,,,,,,,0,17,17,13,,,,,,,,,,,,,,,,,,,,,,,217.87035888805985,None,219.3699473820161,None,220.75362862087786,None,paint,220.75362862087786,None,return,9.798779807053506,220.83707603206858,None,,,,,,,,,,,,,,,,,,,,,,,,,,,,,,,,,,,,,,,48,001,2023_Mar_08_1543,SpeechDraft1Carolyn_lessNoise_PlusLocalization,2021.2.3,60.00986265061606,
foil.wav,foil.mpg,foil,2,A,Pink_Noise_2_1.wav,Pink_Noise_2_2.wav,,,,,,,,,,,,,,,0,18,18,39,,,,,,,,,,,,,,,,,,,,,,,230.65386733599007,None,232.15312384301797,None,233.5203556290362,None,boil,233.5203556290362,None,return,2.272148569812998,233.60376946488395,None,,,,,,,,,,,,,,,,,,,,,,,,,,,,,,,,,,,,,,,48,001,2023_Mar_08_1543,SpeechDraft1Carolyn_lessNoise_PlusLocalization,2021.2.3,60.00986265061606,
gush.wav,gush.mpg,gush,5,A,Pink_Noise_5_1.wav,Pink_Noise_5_2.wav,,,,,,,,,,,,,,,0,19,19,26,,,,,,,,,,,,,,,,,,,,,,,235.90367675805464,None,237.4032964319922,None,238.78703889390454,None,flush,238.78703889390454,None,return,4.333314202958718,238.87047781585716,None,,,,,,,,,,,,,,,,,,,,,,,,,,,,,,,,,,,,,,,48,001,2023_Mar_08_1543,SpeechDraft1Carolyn_lessNoise_PlusLocalization,2021.2.3,60.00986265061606,
creep.wav,creep.mpg,creep,6,A,Pink_Noise_6_1.wav,Pink_Noise_6_2.wav,,,,,,,,,,,,,,,0,20,20,35,,,,,,,,,,,,,,,,,,,,,,,243.22041992889717,None,244.71991343190894,None,246.1037076448556,None,loop,246.1037076448556,None,return,9.07276559015736,246.18710033991374,None,,,,,,,,,,,,,,,,,,,,,,,,,,,,,,,,,,,,,,,48,001,2023_Mar_08_1543,SpeechDraft1Carolyn_lessNoise_PlusLocalization,2021.2.3,60.00986265061606,
bloat.wav,bloat.mpg,bloat,3,AV,Pink_Noise_3_1.wav,Pink_Noise_3_2.wav,,,,,,,,,,,,,,,0,21,21,76,,,,,,,,,,,,,,,,,,,,,,,255.28708952106535,None,256.78662841697223,None,258.1704188929871,None,bloat,258.1704188929871,None,return,5.430049855960533,258.2538119640667,None,,,,,,,,,,,,,,,,,,,,,,,,,,,,,,,,,,,,,,,48,001,2023_Mar_08_1543,SpeechDraft1Carolyn_lessNoise_PlusLocalization,2021.2.3,60.00986265061606,
chop.wav,chop.mpg,chop,3,A,Pink_Noise_3_1.wav,Pink_Noise_3_2.wav,,,,,,,,,,,,,,,0,22,22,3,,,,,,,,,,,,,,,,,,,,,,,263.7039692320395,None,265.2032639158424,None,266.5871484258678,None,chop,266.5871484258678,None,return,2.525487537961453,266.67029172205366,None,,,,,,,,,,,,,,,,,,,,,,,,,,,,,,,,,,,,,,,48,001,2023_Mar_08_1543,SpeechDraft1Carolyn_lessNoise_PlusLocalization,2021.2.3,60.00986265061606,
rent.wav,rent.mpg,rent,3,AV,Pink_Noise_3_1.wav,Pink_Noise_3_2.wav,,,,,,,,,,,,,,,0,23,23,67,,,,,,,,,,,,,,,,,,,,,,,269.2204425809905,None,270.72013697586954,None,272.1038416849915,None,rent,272.1038416849915,None,return,3.6485285190865397,272.1873233139049,None,,,,,,,,,,,,,,,,,,,,,,,,,,,,,,,,,,,,,,,48,001,2023_Mar_08_1543,SpeechDraft1Carolyn_lessNoise_PlusLocalization,2021.2.3,60.00986265061606,
curl.wav,curl.mpg,curl,4,AV,Pink_Noise_4_1.wav,Pink_Noise_4_2.wav,,,,,,,,,,,,,,,0,24,24,113,,,,,,,,,,,,,,,,,,,,,,,275.8536146359984,None,277.3533023518976,None,278.7370573650114,None,curl,278.7370573650114,None,return,3.239394165109843,278.82046853005886,None,,,,,,,,,,,,,,,,,,,,,,,,,,,,,,,,,,,,,,,48,001,2023_Mar_08_1543,SpeechDraft1Carolyn_lessNoise_PlusLocalization,2021.2.3,60.00986265061606,
cop.wav,cop.mpg,cop,5,A,Pink_Noise_5_1.wav,Pink_Noise_5_2.wav,,,,,,,,,,,,,,,0,25,25,34,,,,,,,,,,,,,,,,,,,,,,,282.0870574680157,None,283.5866756429896,None,284.9705223068595,None,"rush
",284.9705223068595,None,return,3.3498864830471575,285.05387293198146,None,,,,,,,,,,,,,,,,,,,,,,,,,,,,,,,,,,,,,,,48,001,2023_Mar_08_1543,SpeechDraft1Carolyn_lessNoise_PlusLocalization,2021.2.3,60.00986265061606,
grade.wav,grade.mpg,grade,4,AV,Pink_Noise_4_1.wav,Pink_Noise_4_2.wav,,,,,,,,,,,,,,,0,26,26,73,,,,,,,,,,,,,,,,,,,,,,,288.4371388598811,None,289.9366367869079,None,291.3203991500195,None,granny,291.3203991500195,None,return,5.344014798058197,291.40373477106914,None,,,,,,,,,,,,,,,,,,,,,,,,,,,,,,,,,,,,,,,48,001,2023_Mar_08_1543,SpeechDraft1Carolyn_lessNoise_PlusLocalization,2021.2.3,60.00986265061606,
glue.wav,glue.mpg,glue,6,A,Pink_Noise_6_1.wav,Pink_Noise_6_2.wav,,,,,,,,,,,,,,,0,27,27,6,,,,,,,,,,,,,,,,,,,,,,,296.7706220750697,None,298.269997067051,None,299.65369246993214,None,beach,299.65369246993214,None,return,5.578635765938088,299.73712032986805,None,,,,,,,,,,,,,,,,,,,,,,,,,,,,,,,,,,,,,,,48,001,2023_Mar_08_1543,SpeechDraft1Carolyn_lessNoise_PlusLocalization,2021.2.3,60.00986265061606,
freeze.wav,freeze.mpg,freeze,5,AV,Pink_Noise_5_1.wav,Pink_Noise_5_2.wav,,,,,,,,,,,,,,,0,28,28,80,,,,,,,,,,,,,,,,,,,,,,,305.3372244599741,None,306.8367332529742,None,308.22059264499694,None,"fins
",308.22059264499694,None,return,5.067880735034123,308.30387702398,None,,,,,,,,,,,,,,,,,,,,,,,,,,,,,,,,,,,,,,,48,001,2023_Mar_08_1543,SpeechDraft1Carolyn_lessNoise_PlusLocalization,2021.2.3,60.00986265061606,
chick.wav,chick.mpg,chick,6,A,Pink_Noise_6_1.wav,Pink_Noise_6_2.wav,,,,,,,,,,,,,,,0,29,29,32,,,,,,,,,,,,,,,,,,,,,,,313.40378592698835,None,314.90349524095654,None,316.2873216390144,None,gym,316.2873216390144,None,return,2.705332945100963,316.37053749500774,None,,,,,,,,,,,,,,,,,,,,,,,,,,,,,,,,,,,,,,,48,001,2023_Mar_08_1543,SpeechDraft1Carolyn_lessNoise_PlusLocalization,2021.2.3,60.00986265061606,
dread.wav,dread.mpg,dread,5,AV,Pink_Noise_5_1.wav,Pink_Noise_5_2.wav,,,,,,,,,,,,,,,0,30,30,71,,,,,,,,,,,,,,,,,,,,,,,319.1037142879795,None,320.60353237204254,None,321.98699855594896,None,dread,321.98699855594896,None,return,3.4053403441794217,322.07059744605795,None,,,,,,,,,,,,,,,,,,,,,,,,,,,,,,,,,,,,,,,48,001,2023_Mar_08_1543,SpeechDraft1Carolyn_lessNoise_PlusLocalization,2021.2.3,60.00986265061606,
cone.wav,cone.mpg,cone,3,A,Pink_Noise_3_1.wav,Pink_Noise_3_2.wav,,,,,,,,,,,,,,,0,31,31,38,,,,,,,,,,,,,,,,,,,,,,,325.50395215302706,None,327.0034055430442,None,328.3871636718977,None,toll,328.3871636718977,None,return,4.197292057098821,328.47049077483825,None,,,,,,,,,,,,,,,,,,,,,,,,,,,,,,,,,,,,,,,48,001,2023_Mar_08_1543,SpeechDraft1Carolyn_lessNoise_PlusLocalization,2021.2.3,60.00986265061606,
hug.wav,hug.mpg,hug,3,A,Pink_Noise_3_1.wav,Pink_Noise_3_2.wav,,,,,,,,,,,,,,,0,32,32,11,,,,,,,,,,,,,,,,,,,,,,,332.68713110196404,None,334.1867273270618,None,335.57087772805244,None,"heart
",335.57087772805244,None,return,2.13400404388085,335.6537503269501,None,,,,,,,,,,,,,,,,,,,,,,,,,,,,,,,,,,,,,,,48,001,2023_Mar_08_1543,SpeechDraft1Carolyn_lessNoise_PlusLocalization,2021.2.3,60.00986265061606,
beat.wav,beat.mpg,beat,2,A,Pink_Noise_2_1.wav,Pink_Noise_2_2.wav,,,,,,,,,,,,,,,0,33,33,17,,,,,,,,,,,,,,,,,,,,,,,337.82048774696887,None,339.320185279008,None,340.7038362538442,None,feet,340.7038362538442,None,return,2.024679153924808,340.78709470899776,None,,,,,,,,,,,,,,,,,,,,,,,,,,,,,,,,,,,,,,,48,001,2023_Mar_08_1543,SpeechDraft1Carolyn_lessNoise_PlusLocalization,2021.2.3,60.00986265061606,
flaw.wav,flaw.mpg,flaw,5,AV,Pink_Noise_5_1.wav,Pink_Noise_5_2.wav,,,,,,,,,,,,,,,0,34,34,65,,,,,,,,,,,,,,,,,,,,,,,342.8373508739751,None,344.3368702849839,None,345.72059464501217,None,"flaw
",345.72059464501217,None,return,3.767893004929647,345.803865785012,None,,,,,,,,,,,,,,,,,,,,,,,,,,,,,,,,,,,,,,,48,001,2023_Mar_08_1543,SpeechDraft1Carolyn_lessNoise_PlusLocalization,2021.2.3,60.00986265061606,
fuel.wav,fuel.mpg,fuel,5,A,Pink_Noise_5_1.wav,Pink_Noise_5_2.wav,,,,,,,,,,,,,,,0,35,35,16,,,,,,,,,,,,,,,,,,,,,,,349.60392945306376,None,351.1035533598624,None,352.48729739990085,None,fill,352.48729739990085,None,return,4.88737623905763,352.5725669588428,None,,,,,,,,,,,,,,,,,,,,,,,,,,,,,,,,,,,,,,,48,001,2023_Mar_08_1543,SpeechDraft1Carolyn_lessNoise_PlusLocalization,2021.2.3,60.00986265061606,
crack.wav,crack.mpg,crack,1,AV,Pink_Noise_1_1.wav,Pink_Noise_1_2.wav,,,,,,,,,,,,,,,0,36,36,82,,,,,,,,,,,,,,,,,,,,,,,357.48736600088887,None,358.98692179704085,None,360.37107927002944,None,crack,360.37107927002944,None,return,3.2139218049123883,360.453836832894,None,,,,,,,,,,,,,,,,,,,,,,,,,,,,,,,,,,,,,,,48,001,2023_Mar_08_1543,SpeechDraft1Carolyn_lessNoise_PlusLocalization,2021.2.3,60.00986265061606,
cramp.wav,cramp.mpg,cramp,3,AV,Pink_Noise_3_1.wav,Pink_Noise_3_2.wav,,,,,,,,,,,,,,,0,37,37,79,,,,,,,,,,,,,,,,,,,,,,,363.6874462228734,None,365.18679245887324,None,366.57067599799484,None,cramp,366.57067599799484,None,return,3.374166490044445,366.6537707259413,None,,,,,,,,,,,,,,,,,,,,,,,,,,,,,,,,,,,,,,,48,001,2023_Mar_08_1543,SpeechDraft1Carolyn_lessNoise_PlusLocalization,2021.2.3,60.00986265061606,
box.wav,box.mpg,box,1,AV,Pink_Noise_1_1.wav,Pink_Noise_1_2.wav,,,,,,,,,,,,,,,0,38,38,119,,,,,,,,,,,,,,,,,,,,,,,370.05383811704814,None,371.55343569093384,None,372.937685478013,None,box,372.937685478013,None,return,3.0471311239525676,373.02061238791794,None,,,,,,,,,,,,,,,,,,,,,,,,,,,,,,,,,,,,,,,48,001,2023_Mar_08_1543,SpeechDraft1Carolyn_lessNoise_PlusLocalization,2021.2.3,60.00986265061606,
bleed.wav,bleed.mpg,bleed,6,AV,Pink_Noise_6_1.wav,Pink_Noise_6_2.wav,,,,,,,,,,,,,,,0,39,39,106,,,,,,,,,,,,,,,,,,,,,,,376.0873817058746,None,377.58798423502594,None,378.97045491891913,None,breed,378.97045491891913,None,return,4.97423503594473,379.0538826340344,None,,,,,,,,,,,,,,,,,,,,,,,,,,,,,,,,,,,,,,,48,001,2023_Mar_08_1543,SpeechDraft1Carolyn_lessNoise_PlusLocalization,2021.2.3,60.00986265061606,
green.wav,green.mpg,green,1,AV,Pink_Noise_1_1.wav,Pink_Noise_1_2.wav,,,,,,,,,,,,,,,0,40,40,98,,,,,,,,,,,,,,,,,,,,,,,384.0539601610508,None,385.55338223604485,None,386.93701320001855,None,green,386.93701320001855,None,return,4.679126071976498,387.02061017998494,None,,,,,,,,,,,,,,,,,,,,,,,,,,,,,,,,,,,,,,,48,001,2023_Mar_08_1543,SpeechDraft1Carolyn_lessNoise_PlusLocalization,2021.2.3,60.00986265061606,
traps.wav,traps.mpg,traps,5,A,Pink_Noise_5_1.wav,Pink_Noise_5_2.wav,,,,,,,,,,,,,,,0,41,41,37,,,,,,,,,,,,,,,,,,,,,,,391.72062118700705,None,393.2201853899751,None,394.60394994192757,None,trots,394.60394994192757,None,return,4.1644828408025205,394.68725487589836,None,,,,,,,,,,,,,,,,,,,,,,,,,,,,,,,,,,,,,,,48,001,2023_Mar_08_1543,SpeechDraft1Carolyn_lessNoise_PlusLocalization,2021.2.3,60.00986265061606,
row.wav,row.mpg,row,3,AV,Pink_Noise_3_1.wav,Pink_Noise_3_2.wav,,,,,,,,,,,,,,,0,42,42,83,,,,,,,,,,,,,,,,,,,,,,,398.8706481750123,None,400.37011068686843,None,401.7539288280532,None,road,401.7539288280532,None,return,3.4545207652263343,401.83724454487674,None,,,,,,,,,,,,,,,,,,,,,,,,,,,,,,,,,,,,,,,48,001,2023_Mar_08_1543,SpeechDraft1Carolyn_lessNoise_PlusLocalization,2021.2.3,60.00986265061606,
guess.wav,guess.mpg,guess,2,AV,Pink_Noise_2_1.wav,Pink_Noise_2_2.wav,,,,,,,,,,,,,,,0,43,43,74,,,,,,,,,,,,,,,,,,,,,,,405.3204984848853,None,406.8702300018631,None,408.2373720749747,None,"guess
",408.2373720749747,None,return,2.8191229980438948,408.3206090829335,None,,,,,,,,,,,,,,,,,,,,,,,,,,,,,,,,,,,,,,,48,001,2023_Mar_08_1543,SpeechDraft1Carolyn_lessNoise_PlusLocalization,2021.2.3,60.00986265061606,
gone.wav,gone.mpg,gone,1,A,Pink_Noise_1_1.wav,Pink_Noise_1_2.wav,,,,,,,,,,,,,,,0,44,44,18,,,,,,,,,,,,,,,,,,,,,,,411.17066000704654,None,412.6701802450698,None,414.05396271287464,None,gone,414.05396271287464,None,return,4.32256848202087,414.1372677870095,None,,,,,,,,,,,,,,,,,,,,,,,,,,,,,,,,,,,,,,,48,001,2023_Mar_08_1543,SpeechDraft1Carolyn_lessNoise_PlusLocalization,2021.2.3,60.00986265061606,
cheer.wav,cheer.mpg,cheer,4,A,Pink_Noise_4_1.wav,Pink_Noise_4_2.wav,,,,,,,,,,,,,,,0,45,45,2,,,,,,,,,,,,,,,,,,,,,,,418.48711201385595,None,420.00351009098813,None,421.38746071304195,None,cheer,421.38746071304195,None,return,2.125160109018907,421.4706438018475,None,,,,,,,,,,,,,,,,,,,,,,,,,,,,,,,,,,,,,,,48,001,2023_Mar_08_1543,SpeechDraft1Carolyn_lessNoise_PlusLocalization,2021.2.3,60.00986265061606,
grant.wav,grant.mpg,grant,1,A,Pink_Noise_1_1.wav,Pink_Noise_1_2.wav,,,,,,,,,,,,,,,0,46,46,56,,,,,,,,,,,,,,,,,,,,,,,423.62080665887333,None,425.1201439208817,None,426.5039673950523,None,grant,426.5039673950523,None,return,4.576394469011575,426.5873768979218,None,,,,,,,,,,,,,,,,,,,,,,,,,,,,,,,,,,,,,,,48,001,2023_Mar_08_1543,SpeechDraft1Carolyn_lessNoise_PlusLocalization,2021.2.3,60.00986265061606,
dump.wav,dump.mpg,dump,6,A,Pink_Noise_6_1.wav,Pink_Noise_6_2.wav,,,,,,,,,,,,,,,0,47,47,50,,,,,,,,,,,,,,,,,,,,,,,431.1874155078549,None,432.68698517698795,None,434.0706525859423,None,"duck
",434.0706525859423,None,return,2.801946996944025,434.1538452839013,None,,,,,,,,,,,,,,,,,,,,,,,,,,,,,,,,,,,,,,,48,001,2023_Mar_08_1543,SpeechDraft1Carolyn_lessNoise_PlusLocalization,2021.2.3,60.00986265061606,
gab.wav,gab.mpg,gab,4,AV,Pink_Noise_4_1.wav,Pink_Noise_4_2.wav,,,,,,,,,,,,,,,0,48,48,109,,,,,,,,,,,,,,,,,,,,,,,436.9872759920545,None,438.50357403885573,None,439.88748691999353,None,gam,439.88748691999353,None,return,5.345073255011812,439.97068344196305,None,,,,,,,,,,,,,,,,,,,,,,,,,,,,,,,,,,,,,,,48,001,2023_Mar_08_1543,SpeechDraft1Carolyn_lessNoise_PlusLocalization,2021.2.3,60.00986265061606,
gem.wav,gem.mpg,gem,6,AV,Pink_Noise_6_1.wav,Pink_Noise_6_2.wav,,,,,,,,,,,,,,,0,49,49,91,,,,,,,,,,,,,,,,,,,,,,,445.3372152899392,None,446.8369095979724,None,448.220879917033,None,jump,448.220879917033,None,return,4.05964993708767,448.3041012468748,None,,,,,,,,,,,,,,,,,,,,,,,,,,,,,,,,,,,,,,,48,001,2023_Mar_08_1543,SpeechDraft1Carolyn_lessNoise_PlusLocalization,2021.2.3,60.00986265061606,
skull.wav,skull.mpg,skull,5,A,Pink_Noise_5_1.wav,Pink_Noise_5_2.wav,,,,,,,,,,,,,,,0,50,50,53,,,,,,,,,,,,,,,,,,,,,,,452.3873797589913,None,453.8869724709075,None,455.27068972191773,None,sour,455.27068972191773,None,return,3.5617427851539105,455.3540263909381,None,,,,,,,,,,,,,,,,,,,,,,,,,,,,,,,,,,,,,,,48,001,2023_Mar_08_1543,SpeechDraft1Carolyn_lessNoise_PlusLocalization,2021.2.3,60.00986265061606,
tank.wav,tank.mpg,tank,4,AV,Pink_Noise_4_1.wav,Pink_Noise_4_2.wav,,,,,,,,,,,,,,,0,51,51,60,,,,,,,,,,,,,,,,,,,,,,,458.9372484749183,None,460.4369643670507,None,461.82066892599687,None,tank,461.82066892599687,None,return,3.6597577570937574,461.90400705183856,None,,,,,,,,,,,,,,,,,,,,,,,,,,,,,,,,,,,,,,,48,001,2023_Mar_08_1543,SpeechDraft1Carolyn_lessNoise_PlusLocalization,2021.2.3,60.00986265061606,
cart.wav,cart.mpg,cart,5,A,Pink_Noise_5_1.wav,Pink_Noise_5_2.wav,,,,,,,,,,,,,,,0,52,52,31,,,,,,,,,,,,,,,,,,,,,,,465.5874590598978,None,467.08690361189656,None,468.4707930039149,None,pipe,468.4707930039149,None,return,2.9937605881132185,468.55402082693763,None,,,,,,,,,,,,,,,,,,,,,,,,,,,,,,,,,,,,,,,48,001,2023_Mar_08_1543,SpeechDraft1Carolyn_lessNoise_PlusLocalization,2021.2.3,60.00986265061606,
shut.wav,shut.mpg,shut,1,A,Pink_Noise_1_1.wav,Pink_Noise_1_2.wav,,,,,,,,,,,,,,,0,53,53,52,,,,,,,,,,,,,,,,,,,,,,,471.5707366350107,None,473.07032008306123,None,474.45402041706257,None,shut,474.45402041706257,None,return,1.9225231730379164,474.53733059205115,None,,,,,,,,,,,,,,,,,,,,,,,,,,,,,,,,,,,,,,,48,001,2023_Mar_08_1543,SpeechDraft1Carolyn_lessNoise_PlusLocalization,2021.2.3,60.00986265061606,
fall.wav,fall.mpg,fall,4,AV,Pink_Noise_4_1.wav,Pink_Noise_4_2.wav,,,,,,,,,,,,,,,0,54,54,95,,,,,,,,,,,,,,,,,,,,,,,476.48743189894594,None,477.9869942460209,None,479.37065517390147,None,fa;;,479.37065517390147,None,return,1.725753670092672,479.4539923190605,None,,,,,,,,,,,,,,,,,,,,,,,,,,,,,,,,,,,,,,,48,001,2023_Mar_08_1543,SpeechDraft1Carolyn_lessNoise_PlusLocalization,2021.2.3,60.00986265061606,
chess.wav,chess.mpg,chess,2,A,Pink_Noise_2_1.wav,Pink_Noise_2_2.wav,,,,,,,,,,,,,,,0,55,55,4,,,,,,,,,,,,,,,,,,,,,,,481.20397569495253,None,482.70363986096345,None,484.0877487070393,None,chest,484.0877487070393,None,return,2.233038359088823,484.17082092002966,None,,,,,,,,,,,,,,,,,,,,,,,,,,,,,,,,,,,,,,,48,001,2023_Mar_08_1543,SpeechDraft1Carolyn_lessNoise_PlusLocalization,2021.2.3,60.00986265061606,
gloom.wav,gloom.mpg,gloom,3,AV,Pink_Noise_3_1.wav,Pink_Noise_3_2.wav,,,,,,,,,,,,,,,0,56,56,114,,,,,,,,,,,,,,,,,,,,,,,486.4207232799381,None,487.92077632201836,None,489.3039646758698,None,g;oom,489.3039646758698,None,return,3.8805700459051877,489.38730260101147,None,,,,,,,,,,,,,,,,,,,,,,,,,,,,,,,,,,,,,,,48,001,2023_Mar_08_1543,SpeechDraft1Carolyn_lessNoise_PlusLocalization,2021.2.3,60.00986265061606,
budge.wav,budge.mpg,budge,4,A,Pink_Noise_4_1.wav,Pink_Noise_4_2.wav,,,,,,,,,,,,,,,0,57,57,14,,,,,,,,,,,,,,,,,,,,,,,493.28733110800385,None,494.7870884828735,None,496.1706217308529,None,budge,496.1706217308529,None,return,5.605644940165803,496.25418296502903,None,,,,,,,,,,,,,,,,,,,,,,,,,,,,,,,,,,,,,,,48,001,2023_Mar_08_1543,SpeechDraft1Carolyn_lessNoise_PlusLocalization,2021.2.3,60.00986265061606,
flick.wav,flick.mpg,flick,5,AV,Pink_Noise_5_1.wav,Pink_Noise_5_2.wav,,,,,,,,,,,,,,,0,58,58,69,,,,,,,,,,,,,,,,,,,,,,,501.8872745500412,None,503.3870429280214,None,504.7706525879912,None,f;ick,504.7706525879912,None,return,6.021822490962222,504.8540412778966,None,,,,,,,,,,,,,,,,,,,,,,,,,,,,,,,,,,,,,,,48,001,2023_Mar_08_1543,SpeechDraft1Carolyn_lessNoise_PlusLocalization,2021.2.3,60.00986265061606,
chat.wav,chat.mpg,chat,5,AV,Pink_Noise_5_1.wav,Pink_Noise_5_2.wav,,,,,,,,,,,,,,,0,59,59,115,,,,,,,,,,,,,,,,,,,,,,,510.9041754270438,None,512.403723875992,None,513.7873544988688,None,chat,513.7873544988688,None,return,2.7569580930285156,513.8708972500172,None,,,,,,,,,,,,,,,,,,,,,,,,,,,,,,,,,,,,,,,48,001,2023_Mar_08_1543,SpeechDraft1Carolyn_lessNoise_PlusLocalization,2021.2.3,60.00986265061606,
style.wav,style.mpg,style,1,A,Pink_Noise_1_1.wav,Pink_Noise_1_2.wav,,,,,,,,,,,,,,,0,60,60,12,,,,,,,,,,,,,,,,,,,,,,,516.6541825558525,None,518.1536586368456,None,519.5376077929977,None,style,519.5376077929977,None,return,4.622936149127781,519.620976696955,None,,,,,,,,,,,,,,,,,,,,,,,,,,,,,,,,,,,,,,,48,001,2023_Mar_08_1543,SpeechDraft1Carolyn_lessNoise_PlusLocalization,2021.2.3,60.00986265061606,
frame.wav,frame.mpg,frame,3,AV,Pink_Noise_3_1.wav,Pink_Noise_3_2.wav,,,,,,,,,,,,,,,0,61,61,112,,,,,,,,,,,,,,,,,,,,,,,524.2708178579342,None,525.7704219708685,None,527.1539657108951,None,frame,527.1539657108951,None,return,4.158329606987536,527.2374582730699,None,,,,,,,,,,,,,,,,,,,,,,,,,,,,,,,,,,,,,,,48,001,2023_Mar_08_1543,SpeechDraft1Carolyn_lessNoise_PlusLocalization,2021.2.3,60.00986265061606,
sun.wav,sun.mpg,sun,6,AV,Pink_Noise_6_1.wav,Pink_Noise_6_2.wav,,,,,,,,,,,,,,,0,62,62,111,,,,,,,,,,,,,,,,,,,,,,,531.420685491059,None,532.9204280788545,None,534.304003339028,None,set,534.304003339028,None,return,4.072208718163893,534.3876616589259,None,,,,,,,,,,,,,,,,,,,,,,,,,,,,,,,,,,,,,,,48,001,2023_Mar_08_1543,SpeechDraft1Carolyn_lessNoise_PlusLocalization,2021.2.3,60.00986265061606,
clumps.wav,clumps.mpg,clumps,2,AV,Pink_Noise_2_1.wav,Pink_Noise_2_2.wav,,,,,,,,,,,,,,,0,63,63,64,,,,,,,,,,,,,,,,,,,,,,,538.4874924740288,None,540.0037132808939,None,541.3875450668857,None,clubs,541.3875450668857,None,return,3.892925404012203,541.4708194050472,None,,,,,,,,,,,,,,,,,,,,,,,,,,,,,,,,,,,,,,,48,001,2023_Mar_08_1543,SpeechDraft1Carolyn_lessNoise_PlusLocalization,2021.2.3,60.00986265061606,
cab.wav,cab.mpg,cab,2,A,Pink_Noise_2_1.wav,Pink_Noise_2_2.wav,,,,,,,,,,,,,,,0,64,64,43,,,,,,,,,,,,,,,,,,,,,,,545.3874306350481,None,546.8869246540125,None,548.2707679730374,None,"cam
",548.2707679730374,None,return,5.217643060954288,548.3541137089487,None,,,,,,,,,,,,,,,,,,,,,,,,,,,,,,,,,,,,,,,48,001,2023_Mar_08_1543,SpeechDraft1Carolyn_lessNoise_PlusLocalization,2021.2.3,60.00986265061606,
goat.wav,goat.mpg,goat,4,A,Pink_Noise_4_1.wav,Pink_Noise_4_2.wav,,,,,,,,,,,,,,,0,65,65,57,,,,,,,,,,,,,,,,,,,,,,,553.604327715002,None,555.1036413300317,None,556.4875819638837,None,goat,556.4875819638837,None,return,2.1129157510586083,556.5708840040024,None,,,,,,,,,,,,,,,,,,,,,,,,,,,,,,,,,,,,,,,48,001,2023_Mar_08_1543,SpeechDraft1Carolyn_lessNoise_PlusLocalization,2021.2.3,60.00986265061606,
deck.wav,deck.mpg,deck,4,A,Pink_Noise_4_1.wav,Pink_Noise_4_2.wav,,,,,,,,,,,,,,,0,66,66,19,,,,,,,,,,,,,,,,,,,,,,,558.7041255759541,None,560.2222775630653,None,561.6042807160411,None,back,561.6042807160411,None,return,2.612329108873382,561.6874544778839,None,,,,,,,,,,,,,,,,,,,,,,,,,,,,,,,,,,,,,,,48,001,2023_Mar_08_1543,SpeechDraft1Carolyn_lessNoise_PlusLocalization,2021.2.3,60.00986265061606,
droop.wav,droop.mpg,droop,2,AV,Pink_Noise_2_1.wav,Pink_Noise_2_2.wav,,,,,,,,,,,,,,,0,67,67,78,,,,,,,,,,,,,,,,,,,,,,,564.3209737229627,None,565.8203843680676,None,567.2041513579898,None,"droop
",567.2041513579898,None,return,2.8842916099820286,567.2874588579871,None,,,,,,,,,,,,,,,,,,,,,,,,,,,,,,,,,,,,,,,48,001,2023_Mar_08_1543,SpeechDraft1Carolyn_lessNoise_PlusLocalization,2021.2.3,60.00986265061606,
cook.wav,cook.mpg,cook,4,A,Pink_Noise_4_1.wav,Pink_Noise_4_2.wav,,,,,,,,,,,,,,,0,68,68,51,,,,,,,,,,,,,,,,,,,,,,,570.2042576938402,None,571.7039029370062,None,573.0874077558983,None,come,573.0874077558983,None,return,3.776781966909766,573.1709701989312,None,,,,,,,,,,,,,,,,,,,,,,,,,,,,,,,,,,,,,,,48,001,2023_Mar_08_1543,SpeechDraft1Carolyn_lessNoise_PlusLocalization,2021.2.3,60.00986265061606,
read.wav,read.mpg,read,2,A,Pink_Noise_2_1.wav,Pink_Noise_2_2.wav,,,,,,,,,,,,,,,0,69,69,21,,,,,,,,,,,,,,,,,,,,,,,576.97074453393,None,578.470522495918,None,579.8541411410552,None,read,579.8541411410552,None,return,2.010347622213885,579.9373902769294,None,,,,,,,,,,,,,,,,,,,,,,,,,,,,,,,,,,,,,,,48,001,2023_Mar_08_1543,SpeechDraft1Carolyn_lessNoise_PlusLocalization,2021.2.3,60.00986265061606,
dirt.wav,dirt.mpg,dirt,6,A,Pink_Noise_6_1.wav,Pink_Noise_6_2.wav,,,,,,,,,,,,,,,0,70,70,55,,,,,,,,,,,,,,,,,,,,,,,581.9707378698513,None,583.4870931049809,None,584.8707843050361,None,"boat
",584.8707843050361,None,return,2.5695157749578357,584.9542401309591,None,,,,,,,,,,,,,,,,,,,,,,,,,,,,,,,,,,,,,,,48,001,2023_Mar_08_1543,SpeechDraft1Carolyn_lessNoise_PlusLocalization,2021.2.3,60.00986265061606,
bag.wav,bag.mpg,bag,6,AV,Pink_Noise_6_1.wav,Pink_Noise_6_2.wav,,,,,,,,,,,,,,,0,71,71,107,,,,,,,,,,,,,,,,,,,,,,,587.5541524670552,None,589.070462950971,None,590.4540592320263,None,blame,590.4540592320263,None,return,4.154158781049773,590.5375966648571,None,,,,,,,,,,,,,,,,,,,,,,,,,,,,,,,,,,,,,,,48,001,2023_Mar_08_1543,SpeechDraft1Carolyn_lessNoise_PlusLocalization,2021.2.3,60.00986265061606,
bold.wav,bold.mpg,bold,1,AV,Pink_Noise_1_1.wav,Pink_Noise_1_2.wav,,,,,,,,,,,,,,,0,72,72,62,,,,,,,,,,,,,,,,,,,,,,,594.7371100480668,None,596.253897421062,None,597.6375616439618,None,"bold
",597.6375616439618,None,return,3.819013600004837,597.7207416170277,None,,,,,,,,,,,,,,,,,,,,,,,,,,,,,,,,,,,,,,,48,001,2023_Mar_08_1543,SpeechDraft1Carolyn_lessNoise_PlusLocalization,2021.2.3,60.00986265061606,
layer.wav,layer.mpg,layer,3,AV,Pink_Noise_3_1.wav,Pink_Noise_3_2.wav,,,,,,,,,,,,,,,0,73,73,100,,,,,,,,,,,,,,,,,,,,,,,601.5709570029285,None,603.0705451120157,None,604.4541147609707,None,layer,604.4541147609707,None,return,2.8665156529750675,604.5374061940238,None,,,,,,,,,,,,,,,,,,,,,,,,,,,,,,,,,,,,,,,48,001,2023_Mar_08_1543,SpeechDraft1Carolyn_lessNoise_PlusLocalization,2021.2.3,60.00986265061606,
born.wav,born.mpg,born,6,AV,Pink_Noise_6_1.wav,Pink_Noise_6_2.wav,,,,,,,,,,,,,,,0,74,74,105,,,,,,,,,,,,,,,,,,,,,,,607.4207942958456,None,608.9206386669539,None,610.3043687369209,None,bored,610.3043687369209,None,return,2.92812210181728,610.3876352619845,None,,,,,,,,,,,,,,,,,,,,,,,,,,,,,,,,,,,,,,,48,001,2023_Mar_08_1543,SpeechDraft1Carolyn_lessNoise_PlusLocalization,2021.2.3,60.00986265061606,
eight.wav,eight.mpg,eight,5,AV,Pink_Noise_5_1.wav,Pink_Noise_5_2.wav,,,,,,,,,,,,,,,0,75,75,70,,,,,,,,,,,,,,,,,,,,,,,613.3376163269859,None,614.8383062230423,None,616.2209627979901,None,eight,616.2209627979901,None,return,4.531578629044816,616.3042488119099,None,,,,,,,,,,,,,,,,,,,,,,,,,,,,,,,,,,,,,,,48,001,2023_Mar_08_1543,SpeechDraft1Carolyn_lessNoise_PlusLocalization,2021.2.3,60.00986265061606,
guide.wav,guide.mpg,guide,4,A,Pink_Noise_4_1.wav,Pink_Noise_4_2.wav,,,,,,,,,,,,,,,0,76,76,54,,,,,,,,,,,,,,,,,,,,,,,620.8542806848418,None,622.3539076729212,None,623.7375128108542,None,guy,623.7375128108542,None,return,3.062926786020398,623.8208649449516,None,,,,,,,,,,,,,,,,,,,,,,,,,,,,,,,,,,,,,,,48,001,2023_Mar_08_1543,SpeechDraft1Carolyn_lessNoise_PlusLocalization,2021.2.3,60.00986265061606,
crowd.wav,crowd.mpg,crowd,4,AV,Pink_Noise_4_1.wav,Pink_Noise_4_2.wav,,,,,,,,,,,,,,,0,77,77,102,,,,,,,,,,,,,,,,,,,,,,,626.9043229250237,None,628.403897752054,None,629.7880372018553,None,crowd,629.7880372018553,None,return,5.9727374711073935,629.8711818950251,None,,,,,,,,,,,,,,,,,,,,,,,,,,,,,,,,,,,,,,,48,001,2023_Mar_08_1543,SpeechDraft1Carolyn_lessNoise_PlusLocalization,2021.2.3,60.00986265061606,
stuck.wav,stuck.mpg,stuck,4,A,Pink_Noise_4_1.wav,Pink_Noise_4_2.wav,,,,,,,,,,,,,,,0,78,78,23,,,,,,,,,,,,,,,,,,,,,,,635.8710544300266,None,637.3871480729431,None,638.7542030829936,None,stuff,638.7542030829936,None,return,4.942149936920032,638.837581714848,None,,,,,,,,,,,,,,,,,,,,,,,,,,,,,,,,,,,,,,,48,001,2023_Mar_08_1543,SpeechDraft1Carolyn_lessNoise_PlusLocalization,2021.2.3,60.00986265061606,
jam.wav,jam.mpg,jam,4,AV,Pink_Noise_4_1.wav,Pink_Noise_4_2.wav,,,,,,,,,,,,,,,0,79,79,75,,,,,,,,,,,,,,,,,,,,,,,643.8044041299727,None,645.3038978818804,None,646.6877270468976,None,jam,646.6877270468976,None,return,4.2650265959091485,646.7708098818548,None,,,,,,,,,,,,,,,,,,,,,,,,,,,,,,,,,,,,,,,48,001,2023_Mar_08_1543,SpeechDraft1Carolyn_lessNoise_PlusLocalization,2021.2.3,60.00986265061606,
gas.wav,gas.mpg,gas,3,A,Pink_Noise_3_1.wav,Pink_Noise_3_2.wav,,,,,,,,,,,,,,,0,80,80,59,,,,,,,,,,,,,,,,,,,,,,,651.0544668589719,None,652.5538902690168,None,653.9375656680204,None,guest,653.9375656680204,None,return,4.694874422857538,654.0208763089031,None,,,,,,,,,,,,,,,,,,,,,,,,,,,,,,,,,,,,,,,48,001,2023_Mar_08_1543,SpeechDraft1Carolyn_lessNoise_PlusLocalization,2021.2.3,60.00986265061606,
bush.wav,bush.mpg,bush,4,A,Pink_Noise_4_1.wav,Pink_Noise_4_2.wav,,,,,,,,,,,,,,,0,81,81,8,,,,,,,,,,,,,,,,,,,,,,,658.7376148139592,None,660.2372638238594,None,661.621283757966,None,brush,661.621283757966,None,return,3.483397584874183,661.7043626839295,None,,,,,,,,,,,,,,,,,,,,,,,,,,,,,,,,,,,,,,,48,001,2023_Mar_08_1543,SpeechDraft1Carolyn_lessNoise_PlusLocalization,2021.2.3,60.00986265061606,
brew.wav,brew.mpg,brew,6,AV,Pink_Noise_6_1.wav,Pink_Noise_6_2.wav,,,,,,,,,,,,,,,0,82,82,87,,,,,,,,,,,,,,,,,,,,,,,665.2043480130378,None,666.7038451549597,None,668.0877981688827,None,brew,668.0877981688827,None,return,3.032904925988987,668.1709787079599,None,,,,,,,,,,,,,,,,,,,,,,,,,,,,,,,,,,,,,,,48,001,2023_Mar_08_1543,SpeechDraft1Carolyn_lessNoise_PlusLocalization,2021.2.3,60.00986265061606,
bust.wav,bust.mpg,bust,1,AV,Pink_Noise_1_1.wav,Pink_Noise_1_2.wav,,,,,,,,,,,,,,,0,83,83,103,,,,,,,,,,,,,,,,,,,,,,,671.221086401958,None,672.7204331080429,None,674.1042295198422,None,bust,674.1042295198422,None,return,3.4403941789641976,674.1875578800682,None,,,,,,,,,,,,,,,,,,,,,,,,,,,,,,,,,,,,,,,48,001,2023_Mar_08_1543,SpeechDraft1Carolyn_lessNoise_PlusLocalization,2021.2.3,60.00986265061606,
bug.wav,bug.mpg,bug,5,A,Pink_Noise_5_1.wav,Pink_Noise_5_2.wav,,,,,,,,,,,,,,,0,84,84,9,,,,,,,,,,,,,,,,,,,,,,,677.654278999893,None,679.1540110940114,None,680.5375219760463,None,barf,680.5375219760463,None,return,2.2785936950240284,680.6211531020235,None,,,,,,,,,,,,,,,,,,,,,,,,,,,,,,,,,,,,,,,48,001,2023_Mar_08_1543,SpeechDraft1Carolyn_lessNoise_PlusLocalization,2021.2.3,60.00986265061606,
built.wav,built.mpg,built,3,A,Pink_Noise_3_1.wav,Pink_Noise_3_2.wav,,,,,,,,,,,,,,,0,85,85,41,,,,,,,,,,,,,,,,,,,,,,,682.9210451589897,None,684.4372884798795,None,685.8213446789887,None,built,685.8213446789887,None,return,10.42742320499383,685.9043569038622,None,,,,,,,,,,,,,,,,,,,,,,,,,,,,,,,,,,,,,,,48,001,2023_Mar_08_1543,SpeechDraft1Carolyn_lessNoise_PlusLocalization,2021.2.3,60.00986265061606,
groom.wav,groom.mpg,groom,6,A,Pink_Noise_6_1.wav,Pink_Noise_6_2.wav,,,,,,,,,,,,,,,0,86,86,1,,,,,,,,,,,,,,,,,,,,,,,696.3542884429917,None,697.8705723260064,None,699.2542962590232,None,drew,699.2542962590232,None,return,3.674225880065933,699.3377042908687,None,,,,,,,,,,,,,,,,,,,,,,,,,,,,,,,,,,,,,,,48,001,2023_Mar_08_1543,SpeechDraft1Carolyn_lessNoise_PlusLocalization,2021.2.3,60.00986265061606,
cloth.wav,cloth.mpg,cloth,3,A,Pink_Noise_3_1.wav,Pink_Noise_3_2.wav,,,,,,,,,,,,,,,0,87,87,15,,,,,,,,,,,,,,,,,,,,,,,703.0377874630503,None,704.5540160180535,None,705.9378039180301,None,clock,705.9378039180301,None,return,3.0308922238182276,706.0208660920616,None,,,,,,,,,,,,,,,,,,,,,,,,,,,,,,,,,,,,,,,48,001,2023_Mar_08_1543,SpeechDraft1Carolyn_lessNoise_PlusLocalization,2021.2.3,60.00986265061606,
frog.wav,frog.mpg,frog,6,A,Pink_Noise_6_1.wav,Pink_Noise_6_2.wav,,,,,,,,,,,,,,,0,88,88,25,,,,,,,,,,,,,,,,,,,,,,,709.070994877955,None,710.5709756580181,None,711.9544356139377,None,spa,711.9544356139377,None,return,1.662093291990459,712.0376830990426,None,,,,,,,,,,,,,,,,,,,,,,,,,,,,,,,,,,,,,,,48,001,2023_Mar_08_1543,SpeechDraft1Carolyn_lessNoise_PlusLocalization,2021.2.3,60.00986265061606,
shed.wav,shed.mpg,shed,1,A,Pink_Noise_1_1.wav,Pink_Noise_1_2.wav,,,,,,,,,,,,,,,0,89,89,7,,,,,,,,,,,,,,,,,,,,,,,713.7210256708786,None,715.2374110089149,None,716.6210730520543,None,shed,716.6210730520543,None,return,2.29134800308384,716.7044571419246,None,,,,,,,,,,,,,,,,,,,,,,,,,,,,,,,,,,,,,,,48,001,2023_Mar_08_1543,SpeechDraft1Carolyn_lessNoise_PlusLocalization,2021.2.3,60.00986265061606,
dig.wav,dig.mpg,dig,3,AV,Pink_Noise_3_1.wav,Pink_Noise_3_2.wav,,,,,,,,,,,,,,,0,90,90,89,,,,,,,,,,,,,,,,,,,,,,,719.0211254479364,None,720.5373601240572,None,721.9211130959447,None,dig,721.9211130959447,None,return,2.6235147651750594,722.0043735259678,None,,,,,,,,,,,,,,,,,,,,,,,,,,,,,,,,,,,,,,,48,001,2023_Mar_08_1543,SpeechDraft1Carolyn_lessNoise_PlusLocalization,2021.2.3,60.00986265061606,
chore.wav,chore.mpg,chore,3,A,Pink_Noise_3_1.wav,Pink_Noise_3_2.wav,,,,,,,,,,,,,,,0,91,91,20,,,,,,,,,,,,,,,,,,,,,,,724.6543391309679,None,726.1540886259172,None,727.5377793069929,None,chore,727.5377793069929,None,return,2.9585986479651183,727.6211882070638,None,,,,,,,,,,,,,,,,,,,,,,,,,,,,,,,,,,,,,,,48,001,2023_Mar_08_1543,SpeechDraft1Carolyn_lessNoise_PlusLocalization,2021.2.3,60.00986265061606,
duke.wav,duke.mpg,duke,1,A,Pink_Noise_1_1.wav,Pink_Noise_1_2.wav,,,,,,,,,,,,,,,0,92,92,48,,,,,,,,,,,,,,,,,,,,,,,730.604360277066,None,732.3042332909536,None,733.6878416088875,None,duke,733.6878416088875,None,return,3.496775667881593,733.7710862590466,None,,,,,,,,,,,,,,,,,,,,,,,,,,,,,,,,,,,,,,,48,001,2023_Mar_08_1543,SpeechDraft1Carolyn_lessNoise_PlusLocalization,2021.2.3,60.00986265061606,
peach.wav,peach.mpg,peach,2,A,Pink_Noise_2_1.wav,Pink_Noise_2_2.wav,,,,,,,,,,,,,,,0,93,93,22,,,,,,,,,,,,,,,,,,,,,,,737.2875361589249,None,738.78745725099,None,740.1711378819309,None,cage,740.1711378819309,None,return,2.2452960240188986,740.254473390989,None,,,,,,,,,,,,,,,,,,,,,,,,,,,,,,,,,,,,,,,48,001,2023_Mar_08_1543,SpeechDraft1Carolyn_lessNoise_PlusLocalization,2021.2.3,60.00986265061606,
rod.wav,rod.mpg,rod,1,AV,Pink_Noise_1_1.wav,Pink_Noise_1_2.wav,,,,,,,,,,,,,,,0,94,94,68,,,,,,,,,,,,,,,,,,,,,,,742.5209661228582,None,744.0207010149024,None,745.4043808619026,None,"rod
",745.4043808619026,None,return,2.8199498478788882,745.4877721830271,None,,,,,,,,,,,,,,,,,,,,,,,,,,,,,,,,,,,,,,,48,001,2023_Mar_08_1543,SpeechDraft1Carolyn_lessNoise_PlusLocalization,2021.2.3,60.00986265061606,
bless.wav,bless.mpg,bless,4,A,Pink_Noise_4_1.wav,Pink_Noise_4_2.wav,,,,,,,,,,,,,,,0,95,95,24,,,,,,,,,,,,,,,,,,,,,,,748.3376698589418,None,749.8542662509717,None,751.2377560350578,None,bliss,751.2377560350578,None,return,4.010489248903468,751.3212482079398,None,,,,,,,,,,,,,,,,,,,,,,,,,,,,,,,,,,,,,,,48,001,2023_Mar_08_1543,SpeechDraft1Carolyn_lessNoise_PlusLocalization,2021.2.3,60.00986265061606,
birch.wav,birch.mpg,birch,5,A,Pink_Noise_5_1.wav,Pink_Noise_5_2.wav,,,,,,,,,,,,,,,0,96,96,42,,,,,,,,,,,,,,,,,,,,,,,755.354579692008,None,756.8706222099718,None,758.2544038780034,None,rich,758.2544038780034,None,return,1.8419356518425047,758.3378464558627,None,,,,,,,,,,,,,,,,,,,,,,,,,,,,,,,,,,,,,,,48,001,2023_Mar_08_1543,SpeechDraft1Carolyn_lessNoise_PlusLocalization,2021.2.3,60.00986265061606,
sake.wav,sake.mpg,sake,5,A,Pink_Noise_5_1.wav,Pink_Noise_5_2.wav,,,,,,,,,,,,,,,0,97,97,29,,,,,,,,,,,,,,,,,,,,,,,760.2045154059306,None,761.7040138489101,None,763.0879372109193,None,sick,763.0879372109193,None,return,1.7606702239718288,763.1710969358683,None,,,,,,,,,,,,,,,,,,,,,,,,,,,,,,,,,,,,,,,48,001,2023_Mar_08_1543,SpeechDraft1Carolyn_lessNoise_PlusLocalization,2021.2.3,60.00986265061606,
led.wav,led.mpg,led,3,AV,Pink_Noise_3_1.wav,Pink_Noise_3_2.wav,,,,,,,,,,,,,,,0,98,98,85,,,,,,,,,,,,,,,,,,,,,,,764.9542530779727,None,766.4550774758682,None,767.8377382990438,None,bled,767.8377382990438,None,return,2.682823284994811,767.921025329968,None,,,,,,,,,,,,,,,,,,,,,,,,,,,,,,,,,,,,,,,48,001,2023_Mar_08_1543,SpeechDraft1Carolyn_lessNoise_PlusLocalization,2021.2.3,60.00986265061606,
cent.wav,cent.mpg,cent,6,A,Pink_Noise_6_1.wav,Pink_Noise_6_2.wav,,,,,,,,,,,,,,,0,99,99,44,,,,,,,,,,,,,,,,,,,,,,,770.6212294679135,None,772.1207734248601,None,773.5043299659155,None,"paint
",773.5043299659155,None,return,4.167933874065056,773.5878308429383,None,,,,,,,,,,,,,,,,,,,,,,,,,,,,,,,,,,,,,,,48,001,2023_Mar_08_1543,SpeechDraft1Carolyn_lessNoise_PlusLocalization,2021.2.3,60.00986265061606,
fine.wav,fine.mpg,fine,2,A,Pink_Noise_2_1.wav,Pink_Noise_2_2.wav,,,,,,,,,,,,,,,0,100,100,36,,,,,,,,,,,,,,,,,,,,,,,777.787689296063,None,779.2873780450318,None,780.6711385508534,None,find,780.6711385508534,None,return,2.465252048103139,780.7546662189998,None,,,,,,,,,,,,,,,,,,,,,,,,,,,,,,,,,,,,,,,48,001,2023_Mar_08_1543,SpeechDraft1Carolyn_lessNoise_PlusLocalization,2021.2.3,60.00986265061606,
crank.wav,crank.mpg,crank,1,AV,Pink_Noise_1_1.wav,Pink_Noise_1_2.wav,,,,,,,,,,,,,,,0,101,101,118,,,,,,,,,,,,,,,,,,,,,,,783.2378015159629,None,784.7543685438577,None,786.1377845818643,None,crank,786.1377845818643,None,return,5.670703883981332,786.2210488340352,None,,,,,,,,,,,,,,,,,,,,,,,,,,,,,,,,,,,,,,,48,001,2023_Mar_08_1543,SpeechDraft1Carolyn_lessNoise_PlusLocalization,2021.2.3,60.00986265061606,
guest.wav,guest.mpg,guest,5,AV,Pink_Noise_5_1.wav,Pink_Noise_5_2.wav,,,,,,,,,,,,,,,0,102,102,108,,,,,,,,,,,,,,,,,,,,,,,791.9210520328488,None,793.4208115909714,None,794.8044658210129,None,guest,794.8044658210129,None,return,4.316195094957948,794.8877357160673,None,,,,,,,,,,,,,,,,,,,,,,,,,,,,,,,,,,,,,,,48,001,2023_Mar_08_1543,SpeechDraft1Carolyn_lessNoise_PlusLocalization,2021.2.3,60.00986265061606,
flu.wav,flu.mpg,flu,6,AV,Pink_Noise_6_1.wav,Pink_Noise_6_2.wav,,,,,,,,,,,,,,,0,103,103,92,,,,,,,,,,,,,,,,,,,,,,,799.2214052299969,None,800.7223563168664,None,802.1044275469612,None,"fool
",802.1044275469612,None,return,3.1358856570441276,802.1878596749157,None,,,,,,,,,,,,,,,,,,,,,,,,,,,,,,,,,,,,,,,48,001,2023_Mar_08_1543,SpeechDraft1Carolyn_lessNoise_PlusLocalization,2021.2.3,60.00986265061606,
bird.wav,bird.mpg,bird,2,AV,Pink_Noise_2_1.wav,Pink_Noise_2_2.wav,,,,,,,,,,,,,,,0,104,104,99,,,,,,,,,,,,,,,,,,,,,,,805.3715497159865,None,806.93758285488,None,808.3210032610223,None,bird,808.3210032610223,None,return,2.2793606091290712,808.4043856859207,None,,,,,,,,,,,,,,,,,,,,,,,,,,,,,,,,,,,,,,,48,001,2023_Mar_08_1543,SpeechDraft1Carolyn_lessNoise_PlusLocalization,2021.2.3,60.00986265061606,
beg.wav,beg.mpg,beg,5,AV,Pink_Noise_5_1.wav,Pink_Noise_5_2.wav,,,,,,,,,,,,,,,0,105,105,84,,,,,,,,,,,,,,,,,,,,,,,810.7044377180282,None,812.2376121080015,None,813.6211312450469,None,play,813.6211312450469,None,return,1.9392047100700438,813.7046394799836,None,,,,,,,,,,,,,,,,,,,,,,,,,,,,,,,,,,,,,,,48,001,2023_Mar_08_1543,SpeechDraft1Carolyn_lessNoise_PlusLocalization,2021.2.3,60.00986265061606,
gown.wav,gown.mpg,gown,2,A,Pink_Noise_2_1.wav,Pink_Noise_2_2.wav,,,,,,,,,,,,,,,0,106,106,40,,,,,,,,,,,,,,,,,,,,,,,815.6712655548472,None,817.1873595309444,None,818.5712894930039,None,go,818.5712894930039,None,return,1.4452489949762821,818.6545048148837,None,,,,,,,,,,,,,,,,,,,,,,,,,,,,,,,,,,,,,,,48,001,2023_Mar_08_1543,SpeechDraft1Carolyn_lessNoise_PlusLocalization,2021.2.3,60.00986265061606,
dine.wav,dine.mpg,dine,1,AV,Pink_Noise_1_1.wav,Pink_Noise_1_2.wav,,,,,,,,,,,,,,,0,107,107,72,,,,,,,,,,,,,,,,,,,,,,,820.1212584120221,None,821.6375317599159,None,823.0211830509361,None,dime,823.0211830509361,None,return,3.9153066789731383,823.1046313040424,None,,,,,,,,,,,,,,,,,,,,,,,,,,,,,,,,,,,,,,,48,001,2023_Mar_08_1543,SpeechDraft1Carolyn_lessNoise_PlusLocalization,2021.2.3,60.00986265061606,
cap.wav,cap.mpg,cap,4,AV,Pink_Noise_4_1.wav,Pink_Noise_4_2.wav,,,,,,,,,,,,,,,0,108,108,63,,,,,,,,,,,,,,,,,,,,,,,827.0378146769945,None,828.5544581110589,None,829.9378025650512,None,ha[,829.9378025650512,None,return,2.5425618709996343,830.0212162169628,None,,,,,,,,,,,,,,,,,,,,,,,,,,,,,,,,,,,,,,,48,001,2023_Mar_08_1543,SpeechDraft1Carolyn_lessNoise_PlusLocalization,2021.2.3,60.00986265061606,
due.wav,due.mpg,due,4,A,Pink_Noise_4_1.wav,Pink_Noise_4_2.wav,,,,,,,,,,,,,,,0,109,109,33,,,,,,,,,,,,,,,,,,,,,,,832.5877317239065,None,834.1041519900318,None,835.4878036428709,None,do,835.4878036428709,None,return,2.2083955761045218,835.5713566690683,None,,,,,,,,,,,,,,,,,,,,,,,,,,,,,,,,,,,,,,,48,001,2023_Mar_08_1543,SpeechDraft1Carolyn_lessNoise_PlusLocalization,2021.2.3,60.00986265061606,
grunt.wav,grunt.mpg,grunt,1,AV,Pink_Noise_1_1.wav,Pink_Noise_1_2.wav,,,,,,,,,,,,,,,0,110,110,104,,,,,,,,,,,,,,,,,,,,,,,837.8045353689231,None,839.3207915648818,None,840.704943240853,None,grunt,840.704943240853,None,return,3.231986031169072,840.7879034338985,None,,,,,,,,,,,,,,,,,,,,,,,,,,,,,,,,,,,,,,,48,001,2023_Mar_08_1543,SpeechDraft1Carolyn_lessNoise_PlusLocalization,2021.2.3,60.00986265061606,
dress.wav,dress.mpg,dress,1,A,Pink_Noise_1_1.wav,Pink_Noise_1_2.wav,,,,,,,,,,,,,,,0,111,111,30,,,,,,,,,,,,,,,,,,,,,,,844.0379423899576,None,845.587366719963,None,846.9712406659964,None,dress,846.9712406659964,None,return,3.1331186920870095,847.0547082088888,None,,,,,,,,,,,,,,,,,,,,,,,,,,,,,,,,,,,,,,,48,001,2023_Mar_08_1543,SpeechDraft1Carolyn_lessNoise_PlusLocalization,2021.2.3,60.00986265061606,
bride.wav,bride.mpg,bride,4,AV,Pink_Noise_4_1.wav,Pink_Noise_4_2.wav,,,,,,,,,,,,,,,0,112,112,93,,,,,,,,,,,,,,,,,,,,,,,850.2047393079847,None,851.7375555238687,None,853.1213114240672,None,bride,853.1213114240672,None,return,3.6470814128406346,853.2046746909618,None,,,,,,,,,,,,,,,,,,,,,,,,,,,,,,,,,,,,,,,48,001,2023_Mar_08_1543,SpeechDraft1Carolyn_lessNoise_PlusLocalization,2021.2.3,60.00986265061606,
bell.wav,bell.mpg,bell,6,AV,Pink_Noise_6_1.wav,Pink_Noise_6_2.wav,,,,,,,,,,,,,,,0,113,113,94,,,,,,,,,,,,,,,,,,,,,,,856.8712728649843,None,858.3874750139657,None,859.7711531750392,None,bell,859.7711531750392,None,return,2.9251886981073767,859.8546332239639,None,,,,,,,,,,,,,,,,,,,,,,,,,,,,,,,,,,,,,,,48,001,2023_Mar_08_1543,SpeechDraft1Carolyn_lessNoise_PlusLocalization,2021.2.3,60.00986265061606,
glare.wav,glare.mpg,glare,2,AV,Pink_Noise_2_1.wav,Pink_Noise_2_2.wav,,,,,,,,,,,,,,,0,114,114,90,,,,,,,,,,,,,,,,,,,,,,,862.8045705519617,None,864.3376873049419,None,865.7212836670224,None,glare,865.7212836670224,None,return,6.223473591031507,865.8044150290079,None,,,,,,,,,,,,,,,,,,,,,,,,,,,,,,,,,,,,,,,48,001,2023_Mar_08_1543,SpeechDraft1Carolyn_lessNoise_PlusLocalization,2021.2.3,60.00986265061606,
dream.wav,dream.mpg,dream,5,A,Pink_Noise_5_1.wav,Pink_Noise_5_2.wav,,,,,,,,,,,,,,,0,115,115,45,,,,,,,,,,,,,,,,,,,,,,,872.0545262908563,None,873.570836356841,None,874.9546511389781,None,kiss,874.9546511389781,None,return,1.5418685630429536,875.0379091950599,None,,,,,,,,,,,,,,,,,,,,,,,,,,,,,,,,,,,,,,,48,001,2023_Mar_08_1543,SpeechDraft1Carolyn_lessNoise_PlusLocalization,2021.2.3,60.00986265061606,
bone.wav,bone.mpg,bone,1,A,Pink_Noise_1_1.wav,Pink_Noise_1_2.wav,,,,,,,,,,,,,,,0,116,116,10,,,,,,,,,,,,,,,,,,,,,,,876.6045972199645,None,878.121166693978,None,879.5046741899569,None,both,879.5046741899569,None,return,6.863926360849291,879.5878609640058,None,,,,,,,,,,,,,,,,,,,,,,,,,,,,,,,,,,,,,,,48,001,2023_Mar_08_1543,SpeechDraft1Carolyn_lessNoise_PlusLocalization,2021.2.3,60.00986265061606,
gust.wav,gust.mpg,gust,2,A,Pink_Noise_2_1.wav,Pink_Noise_2_2.wav,,,,,,,,,,,,,,,0,117,117,28,,,,,,,,,,,,,,,,,,,,,,,886.47130792588,None,888.0207793300506,None,889.4047825918533,None,gust,889.4047825918533,None,return,3.779873645165935,889.4879800658673,None,,,,,,,,,,,,,,,,,,,,,,,,,,,,,,,,,,,,,,,48,001,2023_Mar_08_1543,SpeechDraft1Carolyn_lessNoise_PlusLocalization,2021.2.3,60.00986265061606,
farm.wav,farm.mpg,farm,1,AV,Pink_Noise_1_1.wav,Pink_Noise_1_2.wav,,,,,,,,,,,,,,,0,118,118,97,,,,,,,,,,,,,,,,,,,,,,,893.2878925648984,None,894.820805005962,None,896.2047436998691,None,farm,896.2047436998691,None,return,4.1238036069553345,896.2880633629393,None,,,,,,,,,,,,,,,,,,,,,,,,,,,,,,,,,,,,,,,48,001,2023_Mar_08_1543,SpeechDraft1Carolyn_lessNoise_PlusLocalization,2021.2.3,60.00986265061606,
brag.wav,brag.mpg,brag,3,A,Pink_Noise_3_1.wav,Pink_Noise_3_2.wav,,,,,,,,,,,,,,,0,119,119,5,,,,,,,,,,,,,,,,,,,,,,,900.4379255578388,None,901.9708651190158,None,903.3548936098814,None,brag,903.3548936098814,None,return,3.149863980943337,903.4380140658468,None,,,,,,,,,,,,,,,,,,,,,,,,,,,,,,,,,,,,,,,48,001,2023_Mar_08_1543,SpeechDraft1Carolyn_lessNoise_PlusLocalization,2021.2.3,60.00986265061606,
,,,,,,,,,,,,,,,,,,,,,,,,,,,,,,,,,,,,,,,,,,,,,,,,,,,,,,,,,,,,,,,,,,space,13.435122960014269,906.7046539180446,None,,,,,,,,,,,,,,,,,,,,,,,,,,,,,48,001,2023_Mar_08_1543,SpeechDraft1Carolyn_lessNoise_PlusLocalization,2021.2.3,60.00986265061606,
,,,,,,,,midRight,13.0,3,ch1Sound_localizationTask.wav,13.0,"(1142, 878)","(182, -202)",190,-338,,,,,,,,,0,0,0,5,,,,,,,,,,,,,,,,,,,,,,,,,,,,,,,,,,,,,,,,,,906.7046539180446,None,920.1877727708779,None,921.287681123009,None,922.2209382250439,None,1.1936507936507936,2.269012911012396,922.2209382250439,None,,,,,,,,,,,,,,,,,48,001,2023_Mar_08_1543,SpeechDraft1Carolyn_lessNoise_PlusLocalization,2021.2.3,60.00986265061606,
,,,,,,,,farRight,19.1,4,ch1Sound_localizationTask.wav,19.1,"(1237, 878)","(277,-202)",285,-338,,,,,,,,,0,1,1,6,,,,,,,,,,,,,,,,,,,,,,,,,,,,,,,,,,,,,,,,,,,,924.4901822519023,None,925.6043078289367,None,926.5209136200137,None,1.8306878306878307,2.7826897490303963,926.5209136200137,None,,,,,,,,,,,,,,,,,48,001,2023_Mar_08_1543,SpeechDraft1Carolyn_lessNoise_PlusLocalization,2021.2.3,60.00986265061606,
,,,,,,,,farLeft,-19.1,5,ch1Sound_localizationTask.wav,-19.1,"(667, 878)","(-293,-202)",-285,-338,,,,,,,,,0,2,2,0,,,,,,,,,,,,,,,,,,,,,,,,,,,,,,,,,,,,,,,,,,,,929.3213533898816,None,930.4212429029867,None,931.3542251528706,None,1.066137566137566,5.650702427141368,931.3542251528706,None,,,,,,,,,,,,,,,,,48,001,2023_Mar_08_1543,SpeechDraft1Carolyn_lessNoise_PlusLocalization,2021.2.3,60.00986265061606,
,,,,,,,,center,0.0,6,ch1Sound_localizationTask.wav,0.0,"(952, 878)","(-8,-202)",0,-338,,,,,,,,,0,3,3,3,,,,,,,,,,,,,,,,,,,,,,,,,,,,,,,,,,,,,,,,,,,,937.0060971400235,None,938.1211434898432,None,939.0377387569752,None,1.491005291005291,1.2841096969787031,939.0377387569752,None,,,,,,,,,,,,,,,,,48,001,2023_Mar_08_1543,SpeechDraft1Carolyn_lessNoise_PlusLocalization,2021.2.3,60.00986265061606,
,,,,,,,,farRight,19.1,4,ch1Sound_localizationTask.wav,19.1,"(1237, 878)","(277,-202)",285,-338,,,,,,,,,0,4,4,6,,,,,,,,,,,,,,,,,,,,,,,,,,,,,,,,,,,,,,,,,,,,940.3381791079883,None,941.4376493368763,None,942.3708697878756,None,1.7380952380952381,2.76482952083461,942.3708697878756,None,,,,,,,,,,,,,,,,,48,001,2023_Mar_08_1543,SpeechDraft1Carolyn_lessNoise_PlusLocalization,2021.2.3,60.00986265061606,
,,,,,,,,midRight,13.0,3,ch1Sound_localizationTask.wav,13.0,"(1142, 878)","(182, -202)",190,-338,,,,,,,,,0,5,5,5,,,,,,,,,,,,,,,,,,,,,,,,,,,,,,,,,,,,,,,,,,,,945.138907891931,None,946.2379955688957,None,947.1710141480435,None,1.7142857142857144,1.399590325076133,947.1710141480435,None,,,,,,,,,,,,,,,,,48,001,2023_Mar_08_1543,SpeechDraft1Carolyn_lessNoise_PlusLocalization,2021.2.3,60.00986265061606,
,,,,,,,,midLeft,-13.0,2,ch1Sound_localizationTask.wav,-13.0,"(762, 878)","(-198,-202)",-190,-338,,,,,,,,,0,6,6,1,,,,,,,,,,,,,,,,,,,,,,,,,,,,,,,,,,,,,,,,,,,,948.5724819849711,None,949.6878116989974,None,950.6044951360673,None,1.107936507936508,2.1321331160143018,950.6044951360673,None,,,,,,,,,,,,,,,,,48,001,2023_Mar_08_1543,SpeechDraft1Carolyn_lessNoise_PlusLocalization,2021.2.3,60.00986265061606,
,,,,,,,,farLeft,-19.1,5,ch1Sound_localizationTask.wav,-19.1,"(667, 878)","(-293,-202)",-285,-338,,,,,,,,,1,0,7,0,,,,,,,,,,,,,,,,,,,,,,,,,,,,,,,,,,,,,,,,,,,,952.7380800398532,None,953.8377314680256,None,954.7712635919452,None,1.07989417989418,3.650851300917566,954.7712635919452,None,,,,,,,,,,,,,,,,,48,001,2023_Mar_08_1543,SpeechDraft1Carolyn_lessNoise_PlusLocalization,2021.2.3,60.00986265061606,
,,,,,,,,farLeft,-19.1,5,ch1Sound_localizationTask.wav,-19.1,"(667, 878)","(-293,-202)",-285,-338,,,,,,,,,1,1,8,0,,,,,,,,,,,,,,,,,,,,,,,,,,,,,,,,,,,,,,,,,,,,958.4379677099641,None,959.5375838510226,None,960.4710294969846,None,1.0994708994708995,1.4519038901198655,960.4710294969846,None,,,,,,,,,,,,,,,,,48,001,2023_Mar_08_1543,SpeechDraft1Carolyn_lessNoise_PlusLocalization,2021.2.3,60.00986265061606,
,,,,,,,,nearRight,6.5,0,ch1Sound_localizationTask.wav,6.5,"(1047, 878)","(87, -202)",95,-338,,,,,,,,,1,2,9,4,,,,,,,,,,,,,,,,,,,,,,,,,,,,,,,,,,,,,,,,,,,,961.9380406199489,None,963.0376871640328,None,963.9709530610126,None,1.3021164021164022,1.7021177450660616,963.9709530610126,None,,,,,,,,,,,,,,,,,48,001,2023_Mar_08_1543,SpeechDraft1Carolyn_lessNoise_PlusLocalization,2021.2.3,60.00986265061606,
,,,,,,,,midLeft,-13.0,2,ch1Sound_localizationTask.wav,-13.0,"(762, 878)","(-198,-202)",-190,-338,,,,,,,,,1,3,10,1,,,,,,,,,,,,,,,,,,,,,,,,,,,,,,,,,,,,,,,,,,,,965.6884316820651,None,966.7878224279266,None,967.7210893840529,None,1.2148148148148148,1.1328042061068118,967.7210893840529,None,,,,,,,,,,,,,,,,,48,001,2023_Mar_08_1543,SpeechDraft1Carolyn_lessNoise_PlusLocalization,2021.2.3,60.00986265061606,
,,,,,,,,midRight,13.0,3,ch1Sound_localizationTask.wav,13.0,"(1142, 878)","(182, -202)",190,-338,,,,,,,,,1,4,11,5,,,,,,,,,,,,,,,,,,,,,,,,,,,,,,,,,,,,,,,,,,,,968.8557450769003,None,969.9709127889946,None,970.8878665869124,None,1.6470899470899472,1.2013318659737706,970.8878665869124,None,,,,,,,,,,,,,,,,,48,001,2023_Mar_08_1543,SpeechDraft1Carolyn_lessNoise_PlusLocalization,2021.2.3,60.00986265061606,
,,,,,,,,nearRight,6.5,0,ch1Sound_localizationTask.wav,6.5,"(1047, 878)","(87, -202)",95,-338,,,,,,,,,1,5,12,4,,,,,,,,,,,,,,,,,,,,,,,,,,,,,,,,,,,,,,,,,,,,972.1046155679505,None,973.2043322098907,None,974.13758825697,None,1.5137566137566139,1.067855865927413,974.13758825697,None,,,,,,,,,,,,,,,,,48,001,2023_Mar_08_1543,SpeechDraft1Carolyn_lessNoise_PlusLocalization,2021.2.3,60.00986265061606,
,,,,,,,,nearLeft,-6.5,1,ch1Sound_localizationTask.wav,-6.5,"(857, 878)","(-103,-202)",-95,-338,,,,,,,,,1,6,13,2,,,,,,,,,,,,,,,,,,,,,,,,,,,,,,,,,,,,,,,,,,,,975.2217425869312,None,976.3211643460672,None,977.2543354290538,None,1.2608465608465609,1.082671252079308,977.2543354290538,None,,,,,,,,,,,,,,,,,48,001,2023_Mar_08_1543,SpeechDraft1Carolyn_lessNoise_PlusLocalization,2021.2.3,60.00986265061606,
,,,,,,,,farLeft,-19.1,5,ch1Sound_localizationTask.wav,-19.1,"(667, 878)","(-293,-202)",-285,-338,,,,,,,,,2,0,14,0,,,,,,,,,,,,,,,,,,,,,,,,,,,,,,,,,,,,,,,,,,,,978.338917325018,None,979.4378751069307,None,980.3709392938763,None,1.053968253968254,1.0326266249176115,980.3709392938763,None,,,,,,,,,,,,,,,,,48,001,2023_Mar_08_1543,SpeechDraft1Carolyn_lessNoise_PlusLocalization,2021.2.3,60.00986265061606,
,,,,,,,,midLeft,-13.0,2,ch1Sound_localizationTask.wav,-13.0,"(762, 878)","(-198,-202)",-190,-338,,,,,,,,,2,1,15,1,,,,,,,,,,,,,,,,,,,,,,,,,,,,,,,,,,,,,,,,,,,,981.4060030500405,None,982.5211800709367,None,983.43779691495,None,1.0989417989417989,0.8999298040289432,983.43779691495,None,,,,,,,,,,,,,,,,,48,001,2023_Mar_08_1543,SpeechDraft1Carolyn_lessNoise_PlusLocalization,2021.2.3,60.00986265061606,
,,,,,,,,midRight,13.0,3,ch1Sound_localizationTask.wav,13.0,"(1142, 878)","(182, -202)",190,-338,,,,,,,,,2,2,16,5,,,,,,,,,,,,,,,,,,,,,,,,,,,,,,,,,,,,,,,,,,,,984.3549070989247,None,985.4547249369789,None,986.387640893925,None,1.6126984126984127,1.4183608728926629,986.387640893925,None,,,,,,,,,,,,,,,,,48,001,2023_Mar_08_1543,SpeechDraft1Carolyn_lessNoise_PlusLocalization,2021.2.3,60.00986265061606,
,,,,,,,,center,0.0,6,ch1Sound_localizationTask.wav,0.0,"(952, 878)","(-8,-202)",0,-338,,,,,,,,,2,3,17,3,,,,,,,,,,,,,,,,,,,,,,,,,,,,,,,,,,,,,,,,,,,,987.8217851540539,None,988.9212261429057,None,989.8546917799395,None,1.5121693121693123,0.8990613489877433,989.8546917799395,None,,,,,,,,,,,,,,,,,48,001,2023_Mar_08_1543,SpeechDraft1Carolyn_lessNoise_PlusLocalization,2021.2.3,60.00986265061606,
,,,,,,,,nearLeft,-6.5,1,ch1Sound_localizationTask.wav,-6.5,"(857, 878)","(-103,-202)",-95,-338,,,,,,,,,2,4,18,2,,,,,,,,,,,,,,,,,,,,,,,,,,,,,,,,,,,,,,,,,,,,990.7714970570523,None,991.871171745006,None,992.8042978190351,None,1.5222222222222221,1.682766404002905,992.8042978190351,None,,,,,,,,,,,,,,,,,48,001,2023_Mar_08_1543,SpeechDraft1Carolyn_lessNoise_PlusLocalization,2021.2.3,60.00986265061606,
,,,,,,,,midLeft,-13.0,2,ch1Sound_localizationTask.wav,-13.0,"(762, 878)","(-198,-202)",-190,-338,,,,,,,,,2,5,19,1,,,,,,,,,,,,,,,,,,,,,,,,,,,,,,,,,,,,,,,,,,,,994.4900181719568,None,995.6043912940659,None,996.5211293690372,None,1.0433862433862435,1.0160173319745809,996.5211293690372,None,,,,,,,,,,,,,,,,,48,001,2023_Mar_08_1543,SpeechDraft1Carolyn_lessNoise_PlusLocalization,2021.2.3,60.00986265061606,
,,,,,,,,farRight,19.1,4,ch1Sound_localizationTask.wav,19.1,"(1237, 878)","(277,-202)",285,-338,,,,,,,,,2,6,20,6,,,,,,,,,,,,,,,,,,,,,,,,,,,,,,,,,,,,,,,,,,,,997.5387905340176,None,998.6378335838672,None,999.5711106830277,None,1.773015873015873,1.3010036461055279,999.5711106830277,None,,,,,,,,,,,,,,,,,48,001,2023_Mar_08_1543,SpeechDraft1Carolyn_lessNoise_PlusLocalization,2021.2.3,60.00986265061606,
,,,,,,,,center,0.0,6,ch1Sound_localizationTask.wav,0.0,"(952, 878)","(-8,-202)",0,-338,,,,,,,,,3,0,21,3,,,,,,,,,,,,,,,,,,,,,,,,,,,,,,,,,,,,,,,,,,,,1000.8882730139885,None,1001.9877511330415,None,1002.921144539956,None,1.4968253968253968,1.2989128869958222,1002.921144539956,None,,,,,,,,,,,,,,,,,48,001,2023_Mar_08_1543,SpeechDraft1Carolyn_lessNoise_PlusLocalization,2021.2.3,60.00986265061606,
,,,,,,,,farRight,19.1,4,ch1Sound_localizationTask.wav,19.1,"(1237, 878)","(277,-202)",285,-338,,,,,,,,,3,1,22,6,,,,,,,,,,,,,,,,,,,,,,,,,,,,,,,,,,,,,,,,,,,,1004.2219215719961,None,1005.3212339188904,None,1006.2545417309739,None,1.7253968253968255,1.4499118051026016,1006.2545417309739,None,,,,,,,,,,,,,,,,,48,001,2023_Mar_08_1543,SpeechDraft1Carolyn_lessNoise_PlusLocalization,2021.2.3,60.00986265061606,
,,,,,,,,center,0.0,6,ch1Sound_localizationTask.wav,0.0,"(952, 878)","(-8,-202)",0,-338,,,,,,,,,3,2,23,3,,,,,,,,,,,,,,,,,,,,,,,,,,,,,,,,,,,,,,,,,,,,1007.7213238079567,None,1008.8211064010393,None,1009.7545324689709,None,1.4386243386243387,1.2170328511856496,1009.7545324689709,None,,,,,,,,,,,,,,,,,48,001,2023_Mar_08_1543,SpeechDraft1Carolyn_lessNoise_PlusLocalization,2021.2.3,60.00986265061606,
,,,,,,,,farRight,19.1,4,ch1Sound_localizationTask.wav,19.1,"(1237, 878)","(277,-202)",285,-338,,,,,,,,,3,3,24,6,,,,,,,,,,,,,,,,,,,,,,,,,,,,,,,,,,,,,,,,,,,,1010.9882082119584,None,1012.087784213014,None,1013.0212125699036,None,1.655026455026455,1.1669567548669875,1013.0212125699036,None,,,,,,,,,,,,,,,,,48,001,2023_Mar_08_1543,SpeechDraft1Carolyn_lessNoise_PlusLocalization,2021.2.3,60.00986265061606,
,,,,,,,,farRight,19.1,4,ch1Sound_localizationTask.wav,19.1,"(1237, 878)","(277,-202)",285,-338,,,,,,,,,3,4,25,6,,,,,,,,,,,,,,,,,,,,,,,,,,,,,,,,,,,,,,,,,,,,1014.2048645128962,None,1015.304505124921,None,1016.2379147838801,None,1.6867724867724867,1.0662789661437273,1016.2379147838801,None,,,,,,,,,,,,,,,,,48,001,2023_Mar_08_1543,SpeechDraft1Carolyn_lessNoise_PlusLocalization,2021.2.3,60.00986265061606,
,,,,,,,,nearRight,6.5,0,ch1Sound_localizationTask.wav,6.5,"(1047, 878)","(87, -202)",95,-338,,,,,,,,,3,5,26,4,,,,,,,,,,,,,,,,,,,,,,,,,,,,,,,,,,,,,,,,,,,,1017.3215630149934,None,1018.4213061118498,None,1019.3544068520423,None,1.5037037037037035,1.1497553479857743,1019.3544068520423,None,,,,,,,,,,,,,,,,,48,001,2023_Mar_08_1543,SpeechDraft1Carolyn_lessNoise_PlusLocalization,2021.2.3,60.00986265061606,
,,,,,,,,midLeft,-13.0,2,ch1Sound_localizationTask.wav,-13.0,"(762, 878)","(-198,-202)",-190,-338,,,,,,,,,3,6,27,1,,,,,,,,,,,,,,,,,,,,,,,,,,,,,,,,,,,,,,,,,,,,1020.521474015899,None,1021.6211581618991,None,1022.5544586479664,None,1.1264550264550266,2.2826873229350895,1022.5544586479664,None,,,,,,,,,,,,,,,,,48,001,2023_Mar_08_1543,SpeechDraft1Carolyn_lessNoise_PlusLocalization,2021.2.3,60.00986265061606,
,,,,,,,,nearLeft,-6.5,1,ch1Sound_localizationTask.wav,-6.5,"(857, 878)","(-103,-202)",-95,-338,,,,,,,,,4,0,28,2,,,,,,,,,,,,,,,,,,,,,,,,,,,,,,,,,,,,,,,,,,,,1024.8391256539617,None,1025.9377713289578,None,1026.871218182845,None,1.3153439153439153,1.4020409639924765,1026.871218182845,None,,,,,,,,,,,,,,,,,48,001,2023_Mar_08_1543,SpeechDraft1Carolyn_lessNoise_PlusLocalization,2021.2.3,60.00986265061606,
,,,,,,,,farRight,19.1,4,ch1Sound_localizationTask.wav,19.1,"(1237, 878)","(277,-202)",285,-338,,,,,,,,,4,1,29,6,,,,,,,,,,,,,,,,,,,,,,,,,,,,,,,,,,,,,,,,,,,,1028.2881187258754,None,1029.387806121027,None,1030.3211108848918,None,1.6772486772486772,1.0033462108112872,1030.3211108848918,None,,,,,,,,,,,,,,,,,48,001,2023_Mar_08_1543,SpeechDraft1Carolyn_lessNoise_PlusLocalization,2021.2.3,60.00986265061606,
,,,,,,,,nearLeft,-6.5,1,ch1Sound_localizationTask.wav,-6.5,"(857, 878)","(-103,-202)",-95,-338,,,,,,,,,4,2,30,2,,,,,,,,,,,,,,,,,,,,,,,,,,,,,,,,,,,,,,,,,,,,1031.3383764319587,None,1032.437870010035,None,1033.3711133939214,None,1.2026455026455025,1.1369663120713085,1033.3711133939214,None,,,,,,,,,,,,,,,,,48,001,2023_Mar_08_1543,SpeechDraft1Carolyn_lessNoise_PlusLocalization,2021.2.3,60.00986265061606,
,,,,,,,,nearRight,6.5,0,ch1Sound_localizationTask.wav,6.5,"(1047, 878)","(87, -202)",95,-338,,,,,,,,,4,3,31,4,,,,,,,,,,,,,,,,,,,,,,,,,,,,,,,,,,,,,,,,,,,,1034.5216173229273,None,1035.6213184020016,None,1036.554559879005,None,1.4814814814814814,1.4676692669745535,1036.554559879005,None,,,,,,,,,,,,,,,,,48,001,2023_Mar_08_1543,SpeechDraft1Carolyn_lessNoise_PlusLocalization,2021.2.3,60.00986265061606,
,,,,,,,,center,0.0,6,ch1Sound_localizationTask.wav,0.0,"(952, 878)","(-8,-202)",0,-338,,,,,,,,,4,4,32,3,,,,,,,,,,,,,,,,,,,,,,,,,,,,,,,,,,,,,,,,,,,,1038.0382045500446,None,1039.1379106598906,None,1040.071119158063,None,1.4412698412698413,1.2839286988601089,1040.071119158063,None,,,,,,,,,,,,,,,,,48,001,2023_Mar_08_1543,SpeechDraft1Carolyn_lessNoise_PlusLocalization,2021.2.3,60.00986265061606,
,,,,,,,,nearLeft,-6.5,1,ch1Sound_localizationTask.wav,-6.5,"(857, 878)","(-103,-202)",-95,-338,,,,,,,,,4,5,33,2,,,,,,,,,,,,,,,,,,,,,,,,,,,,,,,,,,,,,,,,,,,,1041.3715258298907,None,1042.471280867001,None,1043.4043052908964,None,1.2894179894179894,1.4512712911237031,1043.4043052908964,None,,,,,,,,,,,,,,,,,48,001,2023_Mar_08_1543,SpeechDraft1Carolyn_lessNoise_PlusLocalization,2021.2.3,60.00986265061606,
,,,,,,,,farLeft,-19.1,5,ch1Sound_localizationTask.wav,-19.1,"(667, 878)","(-293,-202)",-285,-338,,,,,,,,,4,6,34,0,,,,,,,,,,,,,,,,,,,,,,,,,,,,,,,,,,,,,,,,,,,,1044.8713528460357,None,1045.9712195969187,None,1046.9044012490194,None,1.107936507936508,1.2846758901141584,1046.9044012490194,None,,,,,,,,,,,,,,,,,48,001,2023_Mar_08_1543,SpeechDraft1Carolyn_lessNoise_PlusLocalization,2021.2.3,60.00986265061606,
,,,,,,,,farLeft,-19.1,5,ch1Sound_localizationTask.wav,-19.1,"(667, 878)","(-293,-202)",-285,-338,,,,,,,,,5,0,35,0,,,,,,,,,,,,,,,,,,,,,,,,,,,,,,,,,,,,,,,,,,,,1048.2048715068959,None,1049.3044962019194,None,1050.238042959012,None,1.0407407407407407,1.0508728639688343,1050.238042959012,None,,,,,,,,,,,,,,,,,48,001,2023_Mar_08_1543,SpeechDraft1Carolyn_lessNoise_PlusLocalization,2021.2.3,60.00986265061606,
,,,,,,,,nearLeft,-6.5,1,ch1Sound_localizationTask.wav,-6.5,"(857, 878)","(-103,-202)",-95,-338,,,,,,,,,5,1,36,2,,,,,,,,,,,,,,,,,,,,,,,,,,,,,,,,,,,,,,,,,,,,1051.3046739189886,None,1052.4044942660257,None,1053.3377117549535,None,1.024867724867725,1.7341513549908996,1053.3377117549535,None,,,,,,,,,,,,,,,,,48,001,2023_Mar_08_1543,SpeechDraft1Carolyn_lessNoise_PlusLocalization,2021.2.3,60.00986265061606,
,,,,,,,,center,0.0,6,ch1Sound_localizationTask.wav,0.0,"(952, 878)","(-8,-202)",0,-338,,,,,,,,,5,2,37,3,,,,,,,,,,,,,,,,,,,,,,,,,,,,,,,,,,,,,,,,,,,,1055.0884642519522,None,1056.187803437002,None,1057.1212643329054,None,1.608994708994709,1.2188041480258107,1057.1212643329054,None,,,,,,,,,,,,,,,,,48,001,2023_Mar_08_1543,SpeechDraft1Carolyn_lessNoise_PlusLocalization,2021.2.3,60.00986265061606,
,,,,,,,,midLeft,-13.0,2,ch1Sound_localizationTask.wav,-13.0,"(762, 878)","(-198,-202)",-190,-338,,,,,,,,,5,3,38,1,,,,,,,,,,,,,,,,,,,,,,,,,,,,,,,,,,,,,,,,,,,,1058.3549354709685,None,1059.4547495669685,None,1060.3878737648483,None,1.374074074074074,1.2011181521229446,1060.3878737648483,None,,,,,,,,,,,,,,,,,48,001,2023_Mar_08_1543,SpeechDraft1Carolyn_lessNoise_PlusLocalization,2021.2.3,60.00986265061606,
,,,,,,,,midRight,13.0,3,ch1Sound_localizationTask.wav,13.0,"(1142, 878)","(182, -202)",190,-338,,,,,,,,,5,4,39,5,,,,,,,,,,,,,,,,,,,,,,,,,,,,,,,,,,,,,,,,,,,,1061.6050504138693,None,1062.7045178320259,None,1063.6379918828607,None,1.6846560846560847,0.9173105300869793,1063.6379918828607,None,,,,,,,,,,,,,,,,,48,001,2023_Mar_08_1543,SpeechDraft1Carolyn_lessNoise_PlusLocalization,2021.2.3,60.00986265061606,
,,,,,,,,nearLeft,-6.5,1,ch1Sound_localizationTask.wav,-6.5,"(857, 878)","(-103,-202)",-95,-338,,,,,,,,,5,5,40,2,,,,,,,,,,,,,,,,,,,,,,,,,,,,,,,,,,,,,,,,,,,,1064.5715691838413,None,1065.671301248949,None,1066.6045731778722,None,1.4158730158730157,1.0169642539694905,1066.6045731778722,None,,,,,,,,,,,,,,,,,48,001,2023_Mar_08_1543,SpeechDraft1Carolyn_lessNoise_PlusLocalization,2021.2.3,60.00986265061606,
,,,,,,,,nearRight,6.5,0,ch1Sound_localizationTask.wav,6.5,"(1047, 878)","(87, -202)",95,-338,,,,,,,,,5,6,41,4,,,,,,,,,,,,,,,,,,,,,,,,,,,,,,,,,,,,,,,,,,,,1067.6382206559647,None,1068.7379277369473,None,1069.6711213700473,None,1.5253968253968253,1.101642644032836,1069.6711213700473,None,,,,,,,,,,,,,,,,,48,001,2023_Mar_08_1543,SpeechDraft1Carolyn_lessNoise_PlusLocalization,2021.2.3,60.00986265061606,
,,,,,,,,midRight,13.0,3,ch1Sound_localizationTask.wav,13.0,"(1142, 878)","(182, -202)",190,-338,,,,,,,,,6,0,42,5,,,,,,,,,,,,,,,,,,,,,,,,,,,,,,,,,,,,,,,,,,,,1070.7884592220653,None,1071.8879644989502,None,1072.8212454798631,None,1.7026455026455025,1.167884347960353,1072.8212454798631,None,,,,,,,,,,,,,,,,,48,001,2023_Mar_08_1543,SpeechDraft1Carolyn_lessNoise_PlusLocalization,2021.2.3,60.00986265061606,
,,,,,,,,farRight,19.1,4,ch1Sound_localizationTask.wav,19.1,"(1237, 878)","(277,-202)",285,-338,,,,,,,,,6,1,43,6,,,,,,,,,,,,,,,,,,,,,,,,,,,,,,,,,,,,,,,,,,,,1074.0050161180552,None,1075.1045256778598,None,1076.0381496949121,None,1.6899470899470899,1.1850363370031118,1076.0381496949121,None,,,,,,,,,,,,,,,,,48,001,2023_Mar_08_1543,SpeechDraft1Carolyn_lessNoise_PlusLocalization,2021.2.3,60.00986265061606,
,,,,,,,,nearRight,6.5,0,ch1Sound_localizationTask.wav,6.5,"(1047, 878)","(87, -202)",95,-338,,,,,,,,,6,2,44,4,,,,,,,,,,,,,,,,,,,,,,,,,,,,,,,,,,,,,,,,,,,,1077.2383510079235,None,1078.3378194179386,None,1079.271233277861,None,1.5751322751322752,1.0503435761202127,1079.271233277861,None,,,,,,,,,,,,,,,,,48,001,2023_Mar_08_1543,SpeechDraft1Carolyn_lessNoise_PlusLocalization,2021.2.3,60.00986265061606,
,,,,,,,,center,0.0,6,ch1Sound_localizationTask.wav,0.0,"(952, 878)","(-8,-202)",0,-338,,,,,,,,,6,3,45,3,,,,,,,,,,,,,,,,,,,,,,,,,,,,,,,,,,,,,,,,,,,,1080.3383599219378,None,1081.4377983850427,None,1082.3712007219438,None,1.493121693121693,1.3851011479273438,1082.3712007219438,None,,,,,,,,,,,,,,,,,48,001,2023_Mar_08_1543,SpeechDraft1Carolyn_lessNoise_PlusLocalization,2021.2.3,60.00986265061606,
,,,,,,,,midRight,13.0,3,ch1Sound_localizationTask.wav,13.0,"(1142, 878)","(182, -202)",190,-338,,,,,,,,,6,4,46,5,,,,,,,,,,,,,,,,,,,,,,,,,,,,,,,,,,,,,,,,,,,,1083.771813931875,None,1084.8714082250372,None,1085.8046286678873,None,1.6126984126984127,1.1349895191378891,1085.8046286678873,None,,,,,,,,,,,,,,,,,48,001,2023_Mar_08_1543,SpeechDraft1Carolyn_lessNoise_PlusLocalization,2021.2.3,60.00986265061606,
,,,,,,,,nearRight,6.5,0,ch1Sound_localizationTask.wav,6.5,"(1047, 878)","(87, -202)",95,-338,,,,,,,,,6,5,47,4,,,,,,,,,,,,,,,,,,,,,,,,,,,,,,,,,,,,,,,,,,,,1086.9552404799033,None,1088.0544031390455,None,1088.987918477971,None,1.5227513227513227,1.0497567111160606,1088.987918477971,None,,,,,,,,,,,,,,,,,48,001,2023_Mar_08_1543,SpeechDraft1Carolyn_lessNoise_PlusLocalization,2021.2.3,60.00986265061606,
,,,,,,,,nearLeft,-6.5,1,ch1Sound_localizationTask.wav,-6.5,"(857, 878)","(-103,-202)",-95,-338,,,,,,,,,6,6,48,2,,,,,,,,,,,,,,,,,,,,,,,,,,,,,,,,,,,,,,,,,,,,1090.0393319709692,None,1091.1546325390227,None,1092.0711203659885,None,1.3396825396825398,1.518756722100079,1092.0711203659885,None,,,,,,,,,,,,,,,,,48,001,2023_Mar_08_1543,SpeechDraft1Carolyn_lessNoise_PlusLocalization,2021.2.3,60.00986265061606,
,,,,,,,,center,0.0,6,ch1Sound_localizationTask.wav,0.0,"(952, 878)","(-8,-202)",0,-338,,,,,,,,,7,0,49,3,,,,,,,,,,,,,,,,,,,,,,,,,,,,,,,,,,,,,,,,,,,,1093.6050256039016,None,1094.7047155960463,None,1095.6380338799208,None,1.4386243386243387,1.4331939751282334,1095.6380338799208,None,,,,,,,,,,,,,,,,,48,001,2023_Mar_08_1543,SpeechDraft1Carolyn_lessNoise_PlusLocalization,2021.2.3,60.00986265061606,
,,,,,,,,nearRight,6.5,0,ch1Sound_localizationTask.wav,6.5,"(1047, 878)","(87, -202)",95,-338,,,,,,,,,7,1,50,4,,,,,,,,,,,,,,,,,,,,,,,,,,,,,,,,,,,,,,,,,,,,1097.088501294842,None,1098.1878092680126,None,1099.121270471951,None,1.4735449735449735,1.3338387249968946,1099.121270471951,None,,,,,,,,,,,,,,,,,48,001,2023_Mar_08_1543,SpeechDraft1Carolyn_lessNoise_PlusLocalization,2021.2.3,60.00986265061606,
,,,,,,,,midRight,13.0,3,ch1Sound_localizationTask.wav,13.0,"(1142, 878)","(182, -202)",190,-338,,,,,,,,,7,2,51,5,,,,,,,,,,,,,,,,,,,,,,,,,,,,,,,,,,,,,,,,,,,,1100.4719583538827,None,1101.5711642929818,None,1102.504668632988,None,1.6238095238095238,0.7843323179986328,1102.504668632988,None,,,,,,,,,,,,,,,,,48,001,2023_Mar_08_1543,SpeechDraft1Carolyn_lessNoise_PlusLocalization,2021.2.3,60.00986265061606,
,,,,,,,,farLeft,-19.1,5,ch1Sound_localizationTask.wav,-19.1,"(667, 878)","(-293,-202)",-285,-338,,,,,,,,,7,3,52,0,,,,,,,,,,,,,,,,,,,,,,,,,,,,,,,,,,,,,,,,,,,,1103.305263326969,None,1104.404599711066,None,1105.337942252867,None,1.138095238095238,1.233191697159782,1105.337942252867,None,,,,,,,,,,,,,,,,,48,001,2023_Mar_08_1543,SpeechDraft1Carolyn_lessNoise_PlusLocalization,2021.2.3,60.00986265061606,
,,,,,,,,midLeft,-13.0,2,ch1Sound_localizationTask.wav,-13.0,"(762, 878)","(-198,-202)",-190,-338,,,,,,,,,7,4,53,1,,,,,,,,,,,,,,,,,,,,,,,,,,,,,,,,,,,,,,,,,,,,1106.57298123301,None,1107.6878261999227,None,1108.6046359119937,None,1.2407407407407407,0.8847493161447346,1108.6046359119937,None,,,,,,,,,,,,,,,,,48,001,2023_Mar_08_1543,SpeechDraft1Carolyn_lessNoise_PlusLocalization,2021.2.3,60.00986265061606,
,,,,,,,,farLeft,-19.1,5,ch1Sound_localizationTask.wav,-19.1,"(667, 878)","(-293,-202)",-285,-338,,,,,,,,,7,5,54,0,,,,,,,,,,,,,,,,,,,,,,,,,,,,,,,,,,,,,,,,,,,,1109.5050963829271,None,1110.6046792999841,None,1111.5378978289664,None,1.2216931216931217,0.6678968640044332,1111.5378978289664,None,,,,,,,,,,,,,,,,,48,001,2023_Mar_08_1543,SpeechDraft1Carolyn_lessNoise_PlusLocalization,2021.2.3,60.00986265061606,
,,,,,,,,midLeft,-13.0,2,ch1Sound_localizationTask.wav,-13.0,"(762, 878)","(-198,-202)",-190,-338,,,,,,,,,7,6,55,1,,,,,,,,,,,,,,,,,,,,,,,,,,,,,,,,,,,,,,,,,,,,1112.221580100013,None,1113.3212284860201,None,1114.254573999904,None,1.2190476190476192,0.9688007379882038,1114.254573999904,None,,,,,,,,,,,,,,,,,48,001,2023_Mar_08_1543,SpeechDraft1Carolyn_lessNoise_PlusLocalization,2021.2.3,60.00986265061606,
,,,,,,,,,,,,,,,,,,,,,,,,,,,,,,,,,,,,,,,,,,,,,,,,,,,,,,,,,,,,,,,,,,,,,,,,,,,,,,,,,,space,9.146097447024658,1115.3216997110285,None,,,,,,,,,,,,,48,001,2023_Mar_08_1543,SpeechDraft1Carolyn_lessNoise_PlusLocalization,2021.2.3,60.00986265061606,
,,,,,,,,midLeft,-13.0,2,ch1Sound_localizationTask.wav,-13.0,"(762, 878)","(-198,-202)",-190,-338,,,,,,,,,,,,,0,0,0,1,,,,,,,,,,,,,,,,,,,,,,,,,,,,,,,,,,,,,,,,1124.5047911810689,None,,,1127.5229744070675,None,1.4603174603174602,3.4051505860406905,1127.5229744070675,None,,,,,1115.3216997110285,None,1125.5050593940541,None,1125.6883717428427,1125.7050532558933,,,,,,,48,001,2023_Mar_08_1543,SpeechDraft1Carolyn_lessNoise_PlusLocalization,2021.2.3,60.00986265061606,
,,,,,,,,farLeft,-19.1,5,ch1Sound_localizationTask.wav,-19.1,"(667, 878)","(-293,-202)",-285,-338,,,,,,,,,,,,,0,1,1,0,,,,,,,,,,,,,,,,,,,,,,,,,,,,,,,,,,,,,,,,1130.95506045199,None,,,1133.9714237609878,None,1.3343915343915345,1.03376376000233,1133.9714237609878,None,,,,,,,1131.9548793218564,None,1132.1383252888918,1132.1549039739184,,,,,,,48,001,2023_Mar_08_1543,SpeechDraft1Carolyn_lessNoise_PlusLocalization,2021.2.3,60.00986265061606,
,,,,,,,,farLeft,-19.1,5,ch1Sound_localizationTask.wav,-19.1,"(667, 878)","(-293,-202)",-285,-338,,,,,,,,,,,,,0,2,2,0,,,,,,,,,,,,,,,,,,,,,,,,,,,,,,,,,,,,,,,,1135.021579528926,None,,,1138.0381398939062,None,1.3343915343915345,0.8169337830040604,1138.0381398939062,None,,,,,,,1136.0215415209532,None,1136.2049352899194,1136.2215185868554,,,,,,,48,001,2023_Mar_08_1543,SpeechDraft1Carolyn_lessNoise_PlusLocalization,2021.2.3,60.00986265061606,
,,,,,,,,center,0.0,6,ch1Sound_localizationTask.wav,0.0,"(952, 878)","(-8,-202)",0,-338,,,,,,,,,,,,,0,3,3,3,,,,,,,,,,,,,,,,,,,,,,,,,,,,,,,,,,,,,,,,1138.8716813859064,None,,,1141.8879699839745,None,1.5015873015873016,1.2999432189390063,1141.8879699839745,None,,,,,,,1139.8718751638662,None,1140.055138641037,1140.0716493339278,,,,,,,48,001,2023_Mar_08_1543,SpeechDraft1Carolyn_lessNoise_PlusLocalization,2021.2.3,60.00986265061606,
,,,,,,,,midLeft,-13.0,2,ch1Sound_localizationTask.wav,-13.0,"(762, 878)","(-198,-202)",-190,-338,,,,,,,,,,,,,0,4,4,1,,,,,,,,,,,,,,,,,,,,,,,,,,,,,,,,,,,,,,,,1143.20530736004,None,,,1146.2214550990611,None,1.4074074074074074,0.9335848889313638,1146.2214550990611,None,,,,,,,1144.205144953914,None,1144.3883321739268,1144.4051247579046,,,,,,,48,001,2023_Mar_08_1543,SpeechDraft1Carolyn_lessNoise_PlusLocalization,2021.2.3,60.00986265061606,
,,,,,,,,farLeft,-19.1,5,ch1Sound_localizationTask.wav,-19.1,"(667, 878)","(-293,-202)",-285,-338,,,,,,,,,,,,,0,5,5,0,,,,,,,,,,,,,,,,,,,,,,,,,,,,,,,,,,,,,,,,1147.1717984990682,None,,,1150.1880852880422,None,1.3555555555555556,1.017723374068737,1150.1880852880422,None,,,,,,,1148.1717618498951,None,1148.355078103952,1148.3717915639281,,,,,,,48,001,2023_Mar_08_1543,SpeechDraft1Carolyn_lessNoise_PlusLocalization,2021.2.3,60.00986265061606,
,,,,,,,,farRight,19.1,4,ch1Sound_localizationTask.wav,19.1,"(1237, 878)","(277,-202)",285,-338,,,,,,,,,,,,,0,6,6,6,,,,,,,,,,,,,,,,,,,,,,,,,,,,,,,,,,,,,,,,1151.2214280420449,None,,,1154.2380631798878,None,1.693121693121693,2.3016323868650943,1154.2380631798878,None,,,,,,,1152.2216227180324,None,1152.4051030180417,1152.4216733870562,,,,,,,48,001,2023_Mar_08_1543,SpeechDraft1Carolyn_lessNoise_PlusLocalization,2021.2.3,60.00986265061606,
,,,,,,,,midLeft,-13.0,2,ch1Sound_localizationTask.wav,-13.0,"(762, 878)","(-198,-202)",-190,-338,,,,,,,,,,,,,1,0,7,1,,,,,,,,,,,,,,,,,,,,,,,,,,,,,,,,,,,,,,,,1156.5549011940602,None,,,1159.57110275398,None,1.3835978835978837,1.135048046009615,1159.57110275398,None,,,,,,,1157.5550254299305,None,1157.738180728862,1157.7548560500145,,,,,,,48,001,2023_Mar_08_1543,SpeechDraft1Carolyn_lessNoise_PlusLocalization,2021.2.3,60.00986265061606,
,,,,,,,,midLeft,-13.0,2,ch1Sound_localizationTask.wav,-13.0,"(762, 878)","(-198,-202)",-190,-338,,,,,,,,,,,,,1,1,8,1,,,,,,,,,,,,,,,,,,,,,,,,,,,,,,,,,,,,,,,,1160.7218368689064,None,,,1163.7379967980087,None,1.3957671957671958,1.2359950470272452,1163.7379967980087,None,,,,,,,1161.7216492779553,None,1161.904875061009,1161.9216302528512,,,,,,,48,001,2023_Mar_08_1543,SpeechDraft1Carolyn_lessNoise_PlusLocalization,2021.2.3,60.00986265061606,
,,,,,,,,farLeft,-19.1,5,ch1Sound_localizationTask.wav,-19.1,"(667, 878)","(-293,-202)",-285,-338,,,,,,,,,,,,,1,2,9,0,,,,,,,,,,,,,,,,,,,,,,,,,,,,,,,,,,,,,,,,1164.9882558349054,None,,,1168.004622594919,None,1.335978835978836,1.2005475189071149,1168.004622594919,None,,,,,,,1165.9883941479493,None,1166.1715659049805,1166.1884356129449,,,,,,,48,001,2023_Mar_08_1543,SpeechDraft1Carolyn_lessNoise_PlusLocalization,2021.2.3,60.00986265061606,
,,,,,,,,farLeft,-19.1,5,ch1Sound_localizationTask.wav,-19.1,"(667, 878)","(-293,-202)",-285,-338,,,,,,,,,,,,,1,3,10,0,,,,,,,,,,,,,,,,,,,,,,,,,,,,,,,,,,,,,,,,1169.222059082007,None,,,1172.2380474540405,None,1.3555555555555556,1.0167465000413358,1172.2380474540405,None,,,,,,,1170.2217575248796,None,1170.4050971518736,1170.421710609924,,,,,,,48,001,2023_Mar_08_1543,SpeechDraft1Carolyn_lessNoise_PlusLocalization,2021.2.3,60.00986265061606,
,,,,,,,,nearRight,6.5,0,ch1Sound_localizationTask.wav,6.5,"(1047, 878)","(87, -202)",95,-338,,,,,,,,,,,,,1,4,11,4,,,,,,,,,,,,,,,,,,,,,,,,,,,,,,,,,,,,,,,,1173.2718830548692,None,,,1176.288016343955,None,1.6148148148148147,1.383354604942724,1176.288016343955,None,,,,,,,1174.271744520869,None,1174.4549399488606,1174.4717594238464,,,,,,,48,001,2023_Mar_08_1543,SpeechDraft1Carolyn_lessNoise_PlusLocalization,2021.2.3,60.00986265061606,
,,,,,,,,center,0.0,6,ch1Sound_localizationTask.wav,0.0,"(952, 878)","(-8,-202)",0,-338,,,,,,,,,,,,,1,5,12,3,,,,,,,,,,,,,,,,,,,,,,,,,,,,,,,,,,,,,,,,1177.6883860880043,None,,,1180.7045877519995,None,1.5148148148148148,0.8166026091203094,1180.7045877519995,None,,,,,,,1178.688327953918,None,1178.8717134899925,1178.8883786930237,,,,,,,48,001,2023_Mar_08_1543,SpeechDraft1Carolyn_lessNoise_PlusLocalization,2021.2.3,60.00986265061606,
,,,,,,,,nearLeft,-6.5,1,ch1Sound_localizationTask.wav,-6.5,"(857, 878)","(-103,-202)",-95,-338,,,,,,,,,,,,,1,6,13,2,,,,,,,,,,,,,,,,,,,,,,,,,,,,,,,,,,,,,,,,1181.5383610338904,None,,,1184.5547646139748,None,1.447089947089947,0.7849816740490496,1184.5547646139748,None,,,,,,,1182.5384683089796,None,1182.7217939300463,1182.7383333249018,,,,,,,48,001,2023_Mar_08_1543,SpeechDraft1Carolyn_lessNoise_PlusLocalization,2021.2.3,60.00986265061606,
,,,,,,,,nearRight,6.5,0,ch1Sound_localizationTask.wav,6.5,"(1047, 878)","(87, -202)",95,-338,,,,,,,,,,,,,2,0,14,4,,,,,,,,,,,,,,,,,,,,,,,,,,,,,,,,,,,,,,,,1185.3552725680638,None,,,1188.371316836914,None,1.5587301587301587,0.7998626069165766,1188.371316836914,None,,,,,,,1186.3550030798651,None,1186.5384567680303,1186.5549913689028,,,,,,,48,001,2023_Mar_08_1543,SpeechDraft1Carolyn_lessNoise_PlusLocalization,2021.2.3,60.00986265061606,
,,,,,,,,midRight,13.0,3,ch1Sound_localizationTask.wav,13.0,"(1142, 878)","(182, -202)",190,-338,,,,,,,,,,,,,2,1,15,5,,,,,,,,,,,,,,,,,,,,,,,,,,,,,,,,,,,,,,,,1189.188595872838,None,,,1192.204901508987,None,1.6142857142857143,0.9330686291214079,1192.204901508987,None,,,,,,,1190.1885347240604,None,1190.3716328388546,1190.3884932128713,,,,,,,48,001,2023_Mar_08_1543,SpeechDraft1Carolyn_lessNoise_PlusLocalization,2021.2.3,60.00986265061606,
,,,,,,,,farRight,19.1,4,ch1Sound_localizationTask.wav,19.1,"(1237, 878)","(277,-202)",285,-338,,,,,,,,,,,,,2,2,16,6,,,,,,,,,,,,,,,,,,,,,,,,,,,,,,,,,,,,,,,,1193.1396417459473,None,,,1196.1714038599748,None,1.6634920634920634,0.8666068478487432,1196.1714038599748,None,,,,,,,1194.1548823539633,None,1194.338470053859,1194.3549223879818,,,,,,,48,001,2023_Mar_08_1543,SpeechDraft1Carolyn_lessNoise_PlusLocalization,2021.2.3,60.00986265061606,
,,,,,,,,midLeft,-13.0,2,ch1Sound_localizationTask.wav,-13.0,"(762, 878)","(-198,-202)",-190,-338,,,,,,,,,,,,,2,3,17,1,,,,,,,,,,,,,,,,,,,,,,,,,,,,,,,,,,,,,,,,1197.0399738349952,None,,,1200.0714084878564,None,1.3386243386243386,1.9327919411007315,1200.0714084878564,None,,,,,,,1198.0552139310166,None,1198.2383421720006,1198.2550370390527,,,,,,,48,001,2023_Mar_08_1543,SpeechDraft1Carolyn_lessNoise_PlusLocalization,2021.2.3,60.00986265061606,
,,,,,,,,midRight,13.0,3,ch1Sound_localizationTask.wav,13.0,"(1142, 878)","(182, -202)",190,-338,,,,,,,,,,,,,2,4,18,5,,,,,,,,,,,,,,,,,,,,,,,,,,,,,,,,,,,,,,,,1202.0217605768703,None,,,1205.0381992198527,None,1.6216931216931219,1.1153717411216348,1205.0381992198527,None,,,,,,,1203.021906672977,None,1203.2051417499315,1203.221768251853,,,,,,,48,001,2023_Mar_08_1543,SpeechDraft1Carolyn_lessNoise_PlusLocalization,2021.2.3,60.00986265061606,
,,,,,,,,nearRight,6.5,0,ch1Sound_localizationTask.wav,6.5,"(1047, 878)","(87, -202)",95,-338,,,,,,,,,,,,,2,5,19,4,,,,,,,,,,,,,,,,,,,,,,,,,,,,,,,,,,,,,,,,1206.1562055619434,None,,,1209.1880476209335,None,1.5328042328042328,0.6831597739364952,1209.1880476209335,None,,,,,,,1207.1718854620121,None,1207.3552129568998,1207.3718198640272,,,,,,,48,001,2023_Mar_08_1543,SpeechDraft1Carolyn_lessNoise_PlusLocalization,2021.2.3,60.00986265061606,
,,,,,,,,center,0.0,6,ch1Sound_localizationTask.wav,0.0,"(952, 878)","(-8,-202)",0,-338,,,,,,,,,,,,,2,6,20,3,,,,,,,,,,,,,,,,,,,,,,,,,,,,,,,,,,,,,,,,1209.8729121240322,None,,,1212.9047421019059,None,1.4925925925925925,0.5500914079602808,1212.9047421019059,None,,,,,,,1210.8885075999424,None,1211.0716862720437,1211.0884358719923,,,,,,,48,001,2023_Mar_08_1543,SpeechDraft1Carolyn_lessNoise_PlusLocalization,2021.2.3,60.00986265061606,
,,,,,,,,midRight,13.0,3,ch1Sound_localizationTask.wav,13.0,"(1142, 878)","(182, -202)",190,-338,,,,,,,,,,,,,3,0,21,5,,,,,,,,,,,,,,,,,,,,,,,,,,,,,,,,,,,,,,,,1213.4717462570406,None,,,1216.487998089986,None,1.6137566137566137,0.614807209931314,1216.487998089986,None,,,,,,,1214.4718394528609,None,1214.655039215926,1214.6718301959336,,,,,,,48,001,2023_Mar_08_1543,SpeechDraft1Carolyn_lessNoise_PlusLocalization,2021.2.3,60.00986265061606,
,,,,,,,,center,0.0,6,ch1Sound_localizationTask.wav,0.0,"(952, 878)","(-8,-202)",0,-338,,,,,,,,,,,,,3,1,22,3,,,,,,,,,,,,,,,,,,,,,,,,,,,,,,,,,,,,,,,,1217.1055558980443,None,,,1220.1214075989556,None,1.4957671957671956,0.5987360689323395,1220.1214075989556,None,,,,,,,1218.1051179459319,None,1218.2884489509743,1218.3051729470026,,,,,,,48,001,2023_Mar_08_1543,SpeechDraft1Carolyn_lessNoise_PlusLocalization,2021.2.3,60.00986265061606,
,,,,,,,,midRight,13.0,3,ch1Sound_localizationTask.wav,13.0,"(1142, 878)","(182, -202)",190,-338,,,,,,,,,,,,,3,2,23,5,,,,,,,,,,,,,,,,,,,,,,,,,,,,,,,,,,,,,,,,1220.7222426978406,None,,,1223.738125006901,None,1.6111111111111112,0.7507112000603229,1223.738125006901,None,,,,,,,1221.7217343819793,None,1221.90506675886,1221.9216257899534,,,,,,,48,001,2023_Mar_08_1543,SpeechDraft1Carolyn_lessNoise_PlusLocalization,2021.2.3,60.00986265061606,
,,,,,,,,midRight,13.0,3,ch1Sound_localizationTask.wav,13.0,"(1142, 878)","(182, -202)",190,-338,,,,,,,,,,,,,3,3,24,5,,,,,,,,,,,,,,,,,,,,,,,,,,,,,,,,,,,,,,,,1224.5052117828745,None,,,1227.5217270608991,None,1.602116402116402,1.032480974914506,1227.5217270608991,None,,,,,,,1225.5052026158664,None,1225.6884324899875,1225.7053077579476,,,,,,,48,001,2023_Mar_08_1543,SpeechDraft1Carolyn_lessNoise_PlusLocalization,2021.2.3,60.00986265061606,
,,,,,,,,nearLeft,-6.5,1,ch1Sound_localizationTask.wav,-6.5,"(857, 878)","(-103,-202)",-95,-338,,,,,,,,,,,,,3,4,25,2,,,,,,,,,,,,,,,,,,,,,,,,,,,,,,,,,,,,,,,,1228.5554482650477,None,,,1231.5716412528418,None,1.4137566137566138,0.7505159969441593,1231.5716412528418,None,,,,,,,1229.5551479088608,None,1229.7385156080127,1229.7551662179176,,,,,,,48,001,2023_Mar_08_1543,SpeechDraft1Carolyn_lessNoise_PlusLocalization,2021.2.3,60.00986265061606,
,,,,,,,,midLeft,-13.0,2,ch1Sound_localizationTask.wav,-13.0,"(762, 878)","(-198,-202)",-190,-338,,,,,,,,,,,,,3,5,26,1,,,,,,,,,,,,,,,,,,,,,,,,,,,,,,,,,,,,,,,,1232.3383990889415,None,,,1235.3546187039465,None,1.402116402116402,0.9314698500093073,1235.3546187039465,None,,,,,,,1233.33839183487,None,1233.521764694946,1233.5384460489731,,,,,,,48,001,2023_Mar_08_1543,SpeechDraft1Carolyn_lessNoise_PlusLocalization,2021.2.3,60.00986265061606,
,,,,,,,,center,0.0,6,ch1Sound_localizationTask.wav,0.0,"(952, 878)","(-8,-202)",0,-338,,,,,,,,,,,,,3,6,27,3,,,,,,,,,,,,,,,,,,,,,,,,,,,,,,,,,,,,,,,,1236.2886588070542,None,,,1239.3048318589572,None,1.461904761904762,0.8995506458450109,1239.3048318589572,None,,,,,,,1237.2884349219967,None,1237.471940668067,1237.488567535067,,,,,,,48,001,2023_Mar_08_1543,SpeechDraft1Carolyn_lessNoise_PlusLocalization,2021.2.3,60.00986265061606,
,,,,,,,,midRight,13.0,3,ch1Sound_localizationTask.wav,13.0,"(1142, 878)","(182, -202)",190,-338,,,,,,,,,,,,,4,0,28,5,,,,,,,,,,,,,,,,,,,,,,,,,,,,,,,,,,,,,,,,1240.2060856278986,None,,,1243.2213287618943,None,1.6042328042328042,0.5829094930086285,1243.2213287618943,None,,,,,,,1241.2053160369396,None,1241.388497937005,1241.4050552700646,,,,,,,48,001,2023_Mar_08_1543,SpeechDraft1Carolyn_lessNoise_PlusLocalization,2021.2.3,60.00986265061606,
,,,,,,,,farLeft,-19.1,5,ch1Sound_localizationTask.wav,-19.1,"(667, 878)","(-293,-202)",-285,-338,,,,,,,,,,,,,4,1,29,0,,,,,,,,,,,,,,,,,,,,,,,,,,,,,,,,,,,,,,,,1243.8060177939478,None,,,1246.821489404887,None,1.3232804232804232,0.8987498381175101,1246.821489404887,None,,,,,,,1244.8050644120667,None,1244.9885515838396,1245.0051355720498,,,,,,,48,001,2023_Mar_08_1543,SpeechDraft1Carolyn_lessNoise_PlusLocalization,2021.2.3,60.00986265061606,
,,,,,,,,nearLeft,-6.5,1,ch1Sound_localizationTask.wav,-6.5,"(857, 878)","(-103,-202)",-95,-338,,,,,,,,,,,,,4,2,30,2,,,,,,,,,,,,,,,,,,,,,,,,,,,,,,,,,,,,,,,,1247.7231558728963,None,,,1250.7546943069901,None,1.4312169312169312,0.8836532148998231,1250.7546943069901,None,,,,,,,1248.7384961599018,None,1248.9217460609507,1248.9385065669194,,,,,,,48,001,2023_Mar_08_1543,SpeechDraft1Carolyn_lessNoise_PlusLocalization,2021.2.3,60.00986265061606,
,,,,,,,,farRight,19.1,4,ch1Sound_localizationTask.wav,19.1,"(1237, 878)","(277,-202)",285,-338,,,,,,,,,,,,,4,3,31,6,,,,,,,,,,,,,,,,,,,,,,,,,,,,,,,,,,,,,,,,1251.6552718039602,None,,,1254.6717034890316,None,1.6671957671957671,0.7498309810180217,1254.6717034890316,None,,,,,,,1252.655087888008,None,1252.8384975399822,1252.8552287849598,,,,,,,48,001,2023_Mar_08_1543,SpeechDraft1Carolyn_lessNoise_PlusLocalization,2021.2.3,60.00986265061606,
,,,,,,,,center,0.0,6,ch1Sound_localizationTask.wav,0.0,"(952, 878)","(-8,-202)",0,-338,,,,,,,,,,,,,4,4,32,3,,,,,,,,,,,,,,,,,,,,,,,,,,,,,,,,,,,,,,,,1255.4384712360334,None,,,1258.4547710800543,None,1.502116402116402,0.8014488131739199,1258.4547710800543,None,,,,,,,1256.4385392239783,None,1256.6219335978385,1256.638434514869,,,,,,,48,001,2023_Mar_08_1543,SpeechDraft1Carolyn_lessNoise_PlusLocalization,2021.2.3,60.00986265061606,
,,,,,,,,farRight,19.1,4,ch1Sound_localizationTask.wav,19.1,"(1237, 878)","(277,-202)",285,-338,,,,,,,,,,,,,4,5,33,6,,,,,,,,,,,,,,,,,,,,,,,,,,,,,,,,,,,,,,,,1259.2718436280265,None,,,1262.2881203589495,None,1.665079365079365,0.4505771240219474,1262.2881203589495,None,,,,,,,1260.2718413849361,None,1260.4551250059158,1260.4718247000128,,,,,,,48,001,2023_Mar_08_1543,SpeechDraft1Carolyn_lessNoise_PlusLocalization,2021.2.3,60.00986265061606,
,,,,,,,,center,0.0,6,ch1Sound_localizationTask.wav,0.0,"(952, 878)","(-8,-202)",0,-338,,,,,,,,,,,,,4,6,34,3,,,,,,,,,,,,,,,,,,,,,,,,,,,,,,,,,,,,,,,,1262.755147236865,None,,,1265.771593353944,None,1.506878306878307,0.8669119798578322,1265.771593353944,None,,,,,,,1263.7552752848715,None,1263.9384785389993,1263.955103439046,,,,,,,48,001,2023_Mar_08_1543,SpeechDraft1Carolyn_lessNoise_PlusLocalization,2021.2.3,60.00986265061606,
,,,,,,,,nearLeft,-6.5,1,ch1Sound_localizationTask.wav,-6.5,"(857, 878)","(-103,-202)",-95,-338,,,,,,,,,,,,,5,0,35,2,,,,,,,,,,,,,,,,,,,,,,,,,,,,,,,,,,,,,,,,1266.6550127479713,None,,,1269.6714061819948,None,1.4105820105820106,0.6164986288640648,1269.6714061819948,None,,,,,,,1267.6553211710416,None,1267.838559692027,1267.8551050450187,,,,,,,48,001,2023_Mar_08_1543,SpeechDraft1Carolyn_lessNoise_PlusLocalization,2021.2.3,60.00986265061606,
,,,,,,,,farLeft,-19.1,5,ch1Sound_localizationTask.wav,-19.1,"(667, 878)","(-293,-202)",-285,-338,,,,,,,,,,,,,5,1,36,0,,,,,,,,,,,,,,,,,,,,,,,,,,,,,,,,,,,,,,,,1270.2897722870111,None,,,1273.3215264999308,None,1.3343915343915345,0.8173639138694853,1273.3215264999308,None,,,,,,,1271.3051200518385,None,1271.4884328220505,1271.5052944729105,,,,,,,48,001,2023_Mar_08_1543,SpeechDraft1Carolyn_lessNoise_PlusLocalization,2021.2.3,60.00986265061606,
,,,,,,,,nearRight,6.5,0,ch1Sound_localizationTask.wav,6.5,"(1047, 878)","(87, -202)",95,-338,,,,,,,,,,,,,5,2,37,4,,,,,,,,,,,,,,,,,,,,,,,,,,,,,,,,,,,,,,,,1274.1553858758416,None,,,1277.1713655339554,None,1.5878306878306878,0.9831068958155811,1277.1713655339554,None,,,,,,,1275.1552328940015,None,1275.3385947118513,1275.3551608989947,,,,,,,48,001,2023_Mar_08_1543,SpeechDraft1Carolyn_lessNoise_PlusLocalization,2021.2.3,60.00986265061606,
,,,,,,,,nearRight,6.5,0,ch1Sound_localizationTask.wav,6.5,"(1047, 878)","(87, -202)",95,-338,,,,,,,,,,,,,5,3,38,4,,,,,,,,,,,,,,,,,,,,,,,,,,,,,,,,,,,,,,,,1278.1716914949939,None,,,1281.1883147698827,None,1.5349206349206348,0.6504428507760167,1281.1883147698827,None,,,,,,,1279.1717134150676,None,1279.355234687915,1279.3716940439772,,,,,,,48,001,2023_Mar_08_1543,SpeechDraft1Carolyn_lessNoise_PlusLocalization,2021.2.3,60.00986265061606,
,,,,,,,,farRight,19.1,4,ch1Sound_localizationTask.wav,19.1,"(1237, 878)","(277,-202)",285,-338,,,,,,,,,,,,,5,4,39,6,,,,,,,,,,,,,,,,,,,,,,,,,,,,,,,,,,,,,,,,1281.8552044779062,None,,,1284.871581231011,None,1.6677248677248677,0.7004236918874085,1284.871581231011,None,,,,,,,1282.8551910389215,None,1283.0384032330476,1283.0552576829214,,,,,,,48,001,2023_Mar_08_1543,SpeechDraft1Carolyn_lessNoise_PlusLocalization,2021.2.3,60.00986265061606,
,,,,,,,,nearLeft,-6.5,1,ch1Sound_localizationTask.wav,-6.5,"(857, 878)","(-103,-202)",-95,-338,,,,,,,,,,,,,5,5,40,2,,,,,,,,,,,,,,,,,,,,,,,,,,,,,,,,,,,,,,,,1285.5887296339497,None,,,1288.604858014034,None,1.4253968253968254,0.717959496891126,1288.604858014034,None,,,,,,,1286.5886262408458,None,1286.7718717618845,1286.7884049229324,,,,,,,48,001,2023_Mar_08_1543,SpeechDraft1Carolyn_lessNoise_PlusLocalization,2021.2.3,60.00986265061606,
,,,,,,,,center,0.0,6,ch1Sound_localizationTask.wav,0.0,"(952, 878)","(-8,-202)",0,-338,,,,,,,,,,,,,5,6,41,3,,,,,,,,,,,,,,,,,,,,,,,,,,,,,,,,,,,,,,,,1289.3386733559892,None,,,1292.354839037871,None,1.4936507936507937,0.7842506209854037,1292.354839037871,None,,,,,,,1290.3384093819186,None,1290.521850181045,1290.5384253999218,,,,,,,48,001,2023_Mar_08_1543,SpeechDraft1Carolyn_lessNoise_PlusLocalization,2021.2.3,60.00986265061606,
,,,,,,,,farRight,19.1,4,ch1Sound_localizationTask.wav,19.1,"(1237, 878)","(277,-202)",285,-338,,,,,,,,,,,,,6,0,42,6,,,,,,,,,,,,,,,,,,,,,,,,,,,,,,,,,,,,,,,,1293.1551128758583,None,,,1296.1715085878968,None,1.6751322751322753,0.8324227000121027,1296.1715085878968,None,,,,,,,1294.1551479320042,None,1294.3383937908802,1294.3553607109934,,,,,,,48,001,2023_Mar_08_1543,SpeechDraft1Carolyn_lessNoise_PlusLocalization,2021.2.3,60.00986265061606,
,,,,,,,,farRight,19.1,4,ch1Sound_localizationTask.wav,19.1,"(1237, 878)","(277,-202)",285,-338,,,,,,,,,,,,,6,1,43,6,,,,,,,,,,,,,,,,,,,,,,,,,,,,,,,,,,,,,,,,1297.0067199959885,None,,,1300.0383562878706,None,1.6317460317460317,0.8345462279394269,1300.0383562878706,None,,,,,,,1298.021745712962,None,1298.2052495258395,1298.2217250398826,,,,,,,48,001,2023_Mar_08_1543,SpeechDraft1Carolyn_lessNoise_PlusLocalization,2021.2.3,60.00986265061606,
,,,,,,,,nearRight,6.5,0,ch1Sound_localizationTask.wav,6.5,"(1047, 878)","(87, -202)",95,-338,,,,,,,,,,,,,6,2,44,4,,,,,,,,,,,,,,,,,,,,,,,,,,,,,,,,,,,,,,,,1300.888648248976,None,,,1303.9051408669911,None,1.5656084656084657,0.9159170989878476,1303.9051408669911,None,,,,,,,1301.8885969968978,None,1302.0718952510506,1302.088675966952,,,,,,,48,001,2023_Mar_08_1543,SpeechDraft1Carolyn_lessNoise_PlusLocalization,2021.2.3,60.00986265061606,
,,,,,,,,midRight,13.0,3,ch1Sound_localizationTask.wav,13.0,"(1142, 878)","(182, -202)",190,-338,,,,,,,,,,,,,6,3,45,5,,,,,,,,,,,,,,,,,,,,,,,,,,,,,,,,,,,,,,,,1304.8226128078531,None,,,1307.8384355870076,None,1.6047619047619048,0.6649064791854471,1307.8384355870076,None,,,,,,,1305.8218967139255,None,1306.0050968150608,1306.0218856269494,,,,,,,48,001,2023_Mar_08_1543,SpeechDraft1Carolyn_lessNoise_PlusLocalization,2021.2.3,60.00986265061606,
,,,,,,,,midLeft,-13.0,2,ch1Sound_localizationTask.wav,-13.0,"(762, 878)","(-198,-202)",-190,-338,,,,,,,,,,,,,6,4,46,1,,,,,,,,,,,,,,,,,,,,,,,,,,,,,,,,,,,,,,,,1308.5055632679723,None,,,1311.5215230539907,None,1.3486772486772487,0.7339473241008818,1311.5215230539907,None,,,,,,,1309.505351810949,None,1309.688487791922,1309.705426961882,,,,,,,48,001,2023_Mar_08_1543,SpeechDraft1Carolyn_lessNoise_PlusLocalization,2021.2.3,60.00986265061606,
,,,,,,,,nearRight,6.5,0,ch1Sound_localizationTask.wav,6.5,"(1047, 878)","(87, -202)",95,-338,,,,,,,,,,,,,6,5,47,4,,,,,,,,,,,,,,,,,,,,,,,,,,,,,,,,,,,,,,,,1312.271933231037,None,,,1315.288214905886,None,1.546031746031746,0.8844005789142102,1315.288214905886,None,,,,,,,1313.2721474550199,None,1313.4553414420225,1313.4719137889333,,,,,,,48,001,2023_Mar_08_1543,SpeechDraft1Carolyn_lessNoise_PlusLocalization,2021.2.3,60.00986265061606,
,,,,,,,,farLeft,-19.1,5,ch1Sound_localizationTask.wav,-19.1,"(667, 878)","(-293,-202)",-285,-338,,,,,,,,,,,,,6,6,48,0,,,,,,,,,,,,,,,,,,,,,,,,,,,,,,,,,,,,,,,,1316.18873427785,None,,,1319.2049290940631,None,1.325925925925926,0.8341516319196671,1319.2049290940631,None,,,,,,,1317.1885939899366,None,1317.3720267510507,1317.3886521980166,,,,,,,48,001,2023_Mar_08_1543,SpeechDraft1Carolyn_lessNoise_PlusLocalization,2021.2.3,60.00986265061606,
,,,,,,,,farRight,19.1,4,ch1Sound_localizationTask.wav,19.1,"(1237, 878)","(277,-202)",285,-338,,,,,,,,,,,,,7,0,49,6,,,,,,,,,,,,,,,,,,,,,,,,,,,,,,,,,,,,,,,,1320.0554220110644,None,,,1323.0716126258485,None,1.6677248677248677,0.7495110710151494,1323.0716126258485,None,,,,,,,1321.0550287298393,None,1321.2386213119607,1321.255170855904,,,,,,,48,001,2023_Mar_08_1543,SpeechDraft1Carolyn_lessNoise_PlusLocalization,2021.2.3,60.00986265061606,
,,,,,,,,nearLeft,-6.5,1,ch1Sound_localizationTask.wav,-6.5,"(857, 878)","(-103,-202)",-95,-338,,,,,,,,,,,,,7,1,50,2,,,,,,,,,,,,,,,,,,,,,,,,,,,,,,,,,,,,,,,,1323.8386192899197,None,,,1326.8549199248664,None,1.433862433862434,0.7991839449387044,1326.8549199248664,None,,,,,,,1324.838698999025,None,1325.0220444030128,1325.0386217790656,,,,,,,48,001,2023_Mar_08_1543,SpeechDraft1Carolyn_lessNoise_PlusLocalization,2021.2.3,60.00986265061606,
,,,,,,,,nearLeft,-6.5,1,ch1Sound_localizationTask.wav,-6.5,"(857, 878)","(-103,-202)",-95,-338,,,,,,,,,,,,,7,2,51,2,,,,,,,,,,,,,,,,,,,,,,,,,,,,,,,,,,,,,,,,1327.6565981218591,None,,,1330.6883883469272,None,1.4428571428571428,0.8171783061698079,1330.6883883469272,None,,,,,,,1328.671809248859,None,1328.8553977629635,1328.8719009410124,,,,,,,48,001,2023_Mar_08_1543,SpeechDraft1Carolyn_lessNoise_PlusLocalization,2021.2.3,60.00986265061606,
,,,,,,,,midLeft,-13.0,2,ch1Sound_localizationTask.wav,-13.0,"(762, 878)","(-198,-202)",-190,-338,,,,,,,,,,,,,7,3,52,1,,,,,,,,,,,,,,,,,,,,,,,,,,,,,,,,,,,,,,,,1331.5217909179628,None,,,1334.5382153438404,None,1.3894179894179894,0.6992104968521744,1334.5382153438404,None,,,,,,,1332.521800095914,None,1332.7054512279574,1332.7217721978668,,,,,,,48,001,2023_Mar_08_1543,SpeechDraft1Carolyn_lessNoise_PlusLocalization,2021.2.3,60.00986265061606,
,,,,,,,,nearRight,6.5,0,ch1Sound_localizationTask.wav,6.5,"(1047, 878)","(87, -202)",95,-338,,,,,,,,,,,,,7,4,53,4,,,,,,,,,,,,,,,,,,,,,,,,,,,,,,,,,,,,,,,,1335.2555040679872,None,,,1338.2718017899897,None,1.573015873015873,1.7846916900016367,1338.2718017899897,None,,,,,,,1336.2553300170694,None,1336.4385290930513,1336.4554186509922,,,,,,,48,001,2023_Mar_08_1543,SpeechDraft1Carolyn_lessNoise_PlusLocalization,2021.2.3,60.00986265061606,
,,,,,,,,nearLeft,-6.5,1,ch1Sound_localizationTask.wav,-6.5,"(857, 878)","(-103,-202)",-95,-338,,,,,,,,,,,,,7,5,54,2,,,,,,,,,,,,,,,,,,,,,,,,,,,,,,,,,,,,,,,,1340.072224926902,None,,,1343.0883399378508,None,1.4333333333333333,0.9000319640617818,1343.0883399378508,None,,,,,,,1341.0719388239086,None,1341.2552148629911,1341.2719764970243,,,,,,,48,001,2023_Mar_08_1543,SpeechDraft1Carolyn_lessNoise_PlusLocalization,2021.2.3,60.00986265061606,
,,,,,,,,midRight,13.0,3,ch1Sound_localizationTask.wav,13.0,"(1142, 878)","(182, -202)",190,-338,,,,,,,,,,,,,7,6,55,5,,,,,,,,,,,,,,,,,,,,,,,,,,,,,,,,,,,,,,,,1344.005333561916,None,,,1347.0217958639842,None,1.6365079365079365,0.733415347058326,1347.0217958639842,None,,,,,,,1345.0052938610315,None,1345.1885428118985,1345.2052279240452,,,,,,,48,001,2023_Mar_08_1543,SpeechDraft1Carolyn_lessNoise_PlusLocalization,2021.2.3,60.00986265061606,
,,,,,,,,,,,,,,,,,,,,,,,,,,,,,,,,,,,,,,,,,,,,,,,,,,,,,,,,,,,,,,,,,,,,,,,,,,,,,,,,,,,,,,,,,,,,1347.7720138309523,None,c,324.59244939801283,1348.7553575648926,None,48,001,2023_Mar_08_1543,SpeechDraft1Carolyn_lessNoise_PlusLocalization,2021.2.3,60.00986265061606,
