Audio_Only_Files,Video_Files,Original_Word_List,noiseLevelCode,conditionCodes,noiseLevelFile1,noiseLevelFile2,InstrTextVar,practiceTrials.thisRepN,practiceTrials.thisTrialN,practiceTrials.thisN,practiceTrials.thisIndex,trials.thisRepN,trials.thisTrialN,trials.thisN,trials.thisIndex,letsGoAlready.keys,letsGoAlready.rt,letsGoAlready.started,letsGoAlready.stopped,text_2.started,text_2.stopped,text_3.started,text_3.stopped,key_resp_2.keys,key_resp_2.rt,key_resp_2.started,key_resp_2.stopped,text_5.started,text_5.stopped,fixCross.started,fixCross.stopped,fixCross2.started,fixCross2.stopped,answerPrompt.started,answerPrompt.stopped,getAnswer.text,getAnswer.started,getAnswer.stopped,goToNext.keys,goToNext.rt,goToNext.started,goToNext.stopped,stretchBreakTxrt.started,stretchBreakTxrt.stopped,key_resp_3.keys,key_resp_3.rt,key_resp_3.started,key_resp_3.stopped,exitTxt.started,exitTxt.stopped,key_resp.keys,key_resp.rt,key_resp.started,key_resp.stopped,participant,session,date,expName,psychopyVersion,frameRate,
,,,,,,,,,,,,,,,,space,93.68972007199773,9.547756300016772,None,,,,,,,,,,,,,,,,,,,,,,,,,,,,,,,,,,,,4,001,2023_Feb_02_1046,SpeechDraft1Carolyn_lessNoise,2021.2.3,60.01861440843709,
,,,,,,,,,,,,,,,,,,,,9.547756300016772,None,103.26412974001141,None,space,22.61469507298898,103.4307660710183,None,,,,,,,,,,,,,,,,,,,,,,,,,,,,4,001,2023_Feb_02_1046,SpeechDraft1Carolyn_lessNoise,2021.2.3,60.01861440843709,
ash.wav,ash.mpg,ash,1,A,Pink_Noise_1_1.wav,Pink_Noise_1_2.wav,"This is an example of an

AUDIO trial",0,0,0,0,,,,,,,,,,,,,,,,,126.0972168930166,None,127.08063406101428,None,130.23240381100914,None,131.61404330201913,None,ash,131.61404330201913,None,return,0.9079954200133216,131.69748226299998,None,,,,,,,,,,,,,4,001,2023_Feb_02_1046,SpeechDraft1Carolyn_lessNoise,2021.2.3,60.01861440843709,
ash.wav,ash.mpg,ash,1,AV,Pink_Noise_1_1.wav,Pink_Noise_1_2.wav,"This is an example of an

AUDIO + VIDEO  trial",0,1,1,1,,,,,,,,,,,,,,,,,132.64718590301345,None,133.6474205070117,None,135.1305102519982,None,136.51406136501464,None,"ash
",136.51406136501464,None,return,0.5198965599993244,136.59755414602114,None,,,,,,,,,,,,,4,001,2023_Feb_02_1046,SpeechDraft1Carolyn_lessNoise,2021.2.3,60.01861440843709,
,,,,,,,,,,,,,,,,,,,,,,,,,,,,,,,,,,,,,,,,,,,137.1637678249972,None,space,10.186096327000996,137.3474278920039,None,,,,,,,4,001,2023_Feb_02_1046,SpeechDraft1Carolyn_lessNoise,2021.2.3,60.01861440843709,
dice.wav,dice.mpg,dice,2,AV,Pink_Noise_2_1.wav,Pink_Noise_2_2.wav,,,,,,0,0,0,77,,,,,,,,,,,,,,,147.59699924101005,None,149.0805561839952,None,150.46384537700214,None,dice,150.46384537700214,None,return,2.538740926014725,150.53080393900746,None,,,,,,,,,,,,,4,001,2023_Feb_02_1046,SpeechDraft1Carolyn_lessNoise,2021.2.3,60.01861440843709,
freak.wav,freak.mpg,freak,6,A,Pink_Noise_6_1.wav,Pink_Noise_6_2.wav,,,,,,0,1,1,42,,,,,,,,,,,,,,,153.09744445901015,None,154.59735733899288,None,155.98072298199986,None,ooh,155.98072298199986,None,return,3.3333779059757944,156.0640895680117,None,,,,,,,,,,,,,4,001,2023_Feb_02_1046,SpeechDraft1Carolyn_lessNoise,2021.2.3,60.01861440843709,
slick.wav,slick.mpg,slick,4,AV,Pink_Noise_4_1.wav,Pink_Noise_4_2.wav,,,,,,0,2,2,109,,,,,,,,,,,,,,,159.4141502570128,None,160.91392128000734,None,162.2806645820092,None,slick,162.2806645820092,None,return,1.137322838010732,162.3641204040032,None,,,,,,,,,,,,,4,001,2023_Feb_02_1046,SpeechDraft1Carolyn_lessNoise,2021.2.3,60.01861440843709,
frame.wav,frame.mpg,frame,1,AV,Pink_Noise_1_1.wav,Pink_Noise_1_2.wav,,,,,,0,3,3,79,,,,,,,,,,,,,,,163.5307864159986,None,165.01395577102085,None,166.3973247310205,None,frame,166.3973247310205,None,return,0.5887089460156858,166.48075195701676,None,,,,,,,,,,,,,4,001,2023_Feb_02_1046,SpeechDraft1Carolyn_lessNoise,2021.2.3,60.01861440843709,
spire.wav,spire.mpg,spire,6,A,Pink_Noise_6_1.wav,Pink_Noise_6_2.wav,,,,,,0,4,4,3,,,,,,,,,,,,,,,167.09740896199946,None,168.58059982399573,None,169.96405989699997,None,"fire
",169.96405989699997,None,return,0.6860317640239373,170.04742365601123,None,,,,,,,,,,,,,4,001,2023_Feb_02_1046,SpeechDraft1Carolyn_lessNoise,2021.2.3,60.01861440843709,
bee.wav,bee.mpg,bee,2,A,Pink_Noise_2_1.wav,Pink_Noise_2_2.wav,,,,,,0,5,5,28,,,,,,,,,,,,,,,170.76413093699375,None,172.24727307300782,None,173.63083756002015,None,aiming,173.63083756002015,None,return,1.011392693995731,173.7140485199925,None,,,,,,,,,,,,,4,001,2023_Feb_02_1046,SpeechDraft1Carolyn_lessNoise,2021.2.3,60.01861440843709,
depth.wav,depth.mpg,depth,1,AV,Pink_Noise_1_1.wav,Pink_Noise_1_2.wav,,,,,,0,6,6,87,,,,,,,,,,,,,,,174.7474869180005,None,176.23071234000963,None,177.614095522993,None,depth,177.614095522993,None,return,2.275976534001529,177.69746493001003,None,,,,,,,,,,,,,4,001,2023_Feb_02_1046,SpeechDraft1Carolyn_lessNoise,2021.2.3,60.01861440843709,
blade.wav,blade.mpg,blade,5,AV,Pink_Noise_5_1.wav,Pink_Noise_5_2.wav,,,,,,0,7,7,111,,,,,,,,,,,,,,,179.9975206310046,None,181.49734263500432,None,182.86399275701842,None,bill,182.86399275701842,None,return,5.553958465985488,182.9475150850194,None,,,,,,,,,,,,,4,001,2023_Feb_02_1046,SpeechDraft1Carolyn_lessNoise,2021.2.3,60.01861440843709,
globe.wav,globe.mpg,globe,6,A,Pink_Noise_6_1.wav,Pink_Noise_6_2.wav,,,,,,0,8,8,57,,,,,,,,,,,,,,,188.53088310500607,None,190.01445792699815,None,191.39745176199358,None,role,191.39745176199358,None,return,2.092636096989736,191.4808022280049,None,,,,,,,,,,,,,4,001,2023_Feb_02_1046,SpeechDraft1Carolyn_lessNoise,2021.2.3,60.01861440843709,
swamp.wav,swamp.mpg,swamp,6,A,Pink_Noise_6_1.wav,Pink_Noise_6_2.wav,,,,,,0,9,9,40,,,,,,,,,,,,,,,193.59743496699957,None,195.08130583300954,None,196.4640838940104,None,warm,196.4640838940104,None,return,1.345969062007498,196.54747177500394,None,,,,,,,,,,,,,4,001,2023_Feb_02_1046,SpeechDraft1Carolyn_lessNoise,2021.2.3,60.01861440843709,
none.wav,none.mpg,none,3,A,Pink_Noise_3_1.wav,Pink_Noise_3_2.wav,,,,,,0,10,10,32,,,,,,,,,,,,,,,197.91410546499537,None,199.41402451199247,None,200.79753833601717,None,done,200.79753833601717,None,return,0.532608181994874,200.88083645500592,None,,,,,,,,,,,,,4,001,2023_Feb_02_1046,SpeechDraft1Carolyn_lessNoise,2021.2.3,60.01861440843709,
ghost.wav,ghost.mpg,ghost,6,AV,Pink_Noise_6_1.wav,Pink_Noise_6_2.wav,,,,,,0,11,11,106,,,,,,,,,,,,,,,201.43084074300714,None,202.91545994201442,None,204.29747000499628,None,ghost,204.29747000499628,None,return,0.4887488270178437,204.38080310201622,None,,,,,,,,,,,,,4,001,2023_Feb_02_1046,SpeechDraft1Carolyn_lessNoise,2021.2.3,60.01861440843709,
grasp.wav,grasp.mpg,grasp,6,A,Pink_Noise_6_1.wav,Pink_Noise_6_2.wav,,,,,,0,12,12,29,,,,,,,,,,,,,,,204.8975151250197,None,206.38065907201963,None,207.76425375801045,None,bread,207.76425375801045,None,return,3.0379644320055377,207.8475375410053,None,,,,,,,,,,,,,4,001,2023_Feb_02_1046,SpeechDraft1Carolyn_lessNoise,2021.2.3,60.01861440843709,
fade.wav,fade.mpg,fade,3,A,Pink_Noise_3_1.wav,Pink_Noise_3_2.wav,,,,,,0,13,13,15,,,,,,,,,,,,,,,210.91416062501958,None,212.39864040800603,None,213.78099175999523,None,vague,213.78099175999523,None,return,1.1653635029797442,213.86415902600856,None,,,,,,,,,,,,,4,001,2023_Feb_02_1046,SpeechDraft1Carolyn_lessNoise,2021.2.3,60.01861440843709,
pop.wav,pop.mpg,pop,3,AV,Pink_Noise_3_1.wav,Pink_Noise_3_2.wav,,,,,,0,14,14,110,,,,,,,,,,,,,,,215.0474452089984,None,216.5474269000115,None,217.91416206301074,None,"pop
",217.91416206301074,None,return,1.9518703070061747,217.99758103000931,None,,,,,,,,,,,,,4,001,2023_Feb_02_1046,SpeechDraft1Carolyn_lessNoise,2021.2.3,60.01861440843709,
fund.wav,fund.mpg,fund,2,A,Pink_Noise_2_1.wav,Pink_Noise_2_2.wav,,,,,,0,15,15,43,,,,,,,,,,,,,,,219.98080751500675,None,221.46405691001564,None,222.84774759801803,None,fund,222.84774759801803,None,return,0.9706317950040102,222.9308374359971,None,,,,,,,,,,,,,4,001,2023_Feb_02_1046,SpeechDraft1Carolyn_lessNoise,2021.2.3,60.01861440843709,
strike.wav,strike.mpg,strike,2,AV,Pink_Noise_2_1.wav,Pink_Noise_2_2.wav,,,,,,0,16,16,102,,,,,,,,,,,,,,,223.93088622699725,None,225.4307449820044,None,226.79737599601503,None,"strike
",226.79737599601503,None,return,1.0846345399913844,226.88082651401055,None,,,,,,,,,,,,,4,001,2023_Feb_02_1046,SpeechDraft1Carolyn_lessNoise,2021.2.3,60.01861440843709,
bruise.wav,bruise.mpg,bruise,5,A,Pink_Noise_5_1.wav,Pink_Noise_5_2.wav,,,,,,0,17,17,59,,,,,,,,,,,,,,,227.99748182101757,None,229.48067775001982,None,230.86418932801462,None,roots,230.86418932801462,None,return,0.8578877889958676,230.94756165900617,None,,,,,,,,,,,,,4,001,2023_Feb_02_1046,SpeechDraft1Carolyn_lessNoise,2021.2.3,60.01861440843709,
sue.wav,sue.mpg,sue,2,AV,Pink_Noise_2_1.wav,Pink_Noise_2_2.wav,,,,,,0,18,18,119,,,,,,,,,,,,,,,231.83083520299988,None,233.3139946940064,None,234.69744344599894,None,sue,234.69744344599894,None,return,0.6645721700042486,234.7808892200119,None,,,,,,,,,,,,,4,001,2023_Feb_02_1046,SpeechDraft1Carolyn_lessNoise,2021.2.3,60.01861440843709,
cheat.wav,cheat.mpg,cheat,4,A,Pink_Noise_4_1.wav,Pink_Noise_4_2.wav,,,,,,0,19,19,21,,,,,,,,,,,,,,,235.46422180099762,None,236.94737981501385,None,238.3309971790004,None,cheat,238.3309971790004,None,return,0.8713356960215606,238.41418687900295,None,,,,,,,,,,,,,4,001,2023_Feb_02_1046,SpeechDraft1Carolyn_lessNoise,2021.2.3,60.01861440843709,
shock.wav,shock.mpg,shock,2,A,Pink_Noise_2_1.wav,Pink_Noise_2_2.wav,,,,,,0,20,20,13,,,,,,,,,,,,,,,239.31424990901724,None,240.79732212400995,None,242.18091238301713,None,shock,242.18091238301713,None,return,0.8772250530018937,242.26421670499258,None,,,,,,,,,,,,,4,001,2023_Feb_02_1046,SpeechDraft1Carolyn_lessNoise,2021.2.3,60.01861440843709,
crypt.wav,crypt.mpg,crypt,6,AV,Pink_Noise_6_1.wav,Pink_Noise_6_2.wav,,,,,,0,21,21,81,,,,,,,,,,,,,,,243.16421246499522,None,244.6477020129969,None,246.030844265013,None,crypt,246.030844265013,None,return,1.131188261002535,246.1142776730121,None,,,,,,,,,,,,,4,001,2023_Feb_02_1046,SpeechDraft1Carolyn_lessNoise,2021.2.3,60.01861440843709,
fly.wav,fly.mpg,fly,4,A,Pink_Noise_4_1.wav,Pink_Noise_4_2.wav,,,,,,0,22,22,27,,,,,,,,,,,,,,,247.28050010101288,None,248.76405406100093,None,250.14757281701895,None,fly,250.14757281701895,None,return,0.9105709220166318,250.2309043139976,None,,,,,,,,,,,,,4,001,2023_Feb_02_1046,SpeechDraft1Carolyn_lessNoise,2021.2.3,60.01861440843709,
crop.wav,crop.mpg,crop,1,A,Pink_Noise_1_1.wav,Pink_Noise_1_2.wav,,,,,,0,23,23,41,,,,,,,,,,,,,,,251.16432891701697,None,252.6480605819961,None,254.03137731799507,None,crop,254.03137731799507,None,return,0.5871819900057744,254.11427231601556,None,,,,,,,,,,,,,4,001,2023_Feb_02_1046,SpeechDraft1Carolyn_lessNoise,2021.2.3,60.01861440843709,
bib.wav,bib.mpg,bib,4,A,Pink_Noise_4_1.wav,Pink_Noise_4_2.wav,,,,,,0,24,24,12,,,,,,,,,,,,,,,254.73095632501645,None,256.23095957000623,None,257.59757191699464,None,big,257.59757191699464,None,return,0.49248014300246723,257.6809600609995,None,,,,,,,,,,,,,4,001,2023_Feb_02_1046,SpeechDraft1Carolyn_lessNoise,2021.2.3,60.01861440843709,
doll.wav,doll.mpg,doll,6,AV,Pink_Noise_6_1.wav,Pink_Noise_6_2.wav,,,,,,0,25,25,65,,,,,,,,,,,,,,,258.1975944240112,None,259.68074840900954,None,261.064157447021,None,dial,261.064157447021,None,return,1.6898957419907674,261.1476402709959,None,,,,,,,,,,,,,4,001,2023_Feb_02_1046,SpeechDraft1Carolyn_lessNoise,2021.2.3,60.01861440843709,
chill.wav,chill.mpg,chill,3,A,Pink_Noise_3_1.wav,Pink_Noise_3_2.wav,,,,,,0,26,26,26,,,,,,,,,,,,,,,262.86422029000823,None,264.3473529640178,None,265.73101823599427,None,"chill
",265.73101823599427,None,return,0.919258173002163,265.8142094410141,None,,,,,,,,,,,,,4,001,2023_Feb_02_1046,SpeechDraft1Carolyn_lessNoise,2021.2.3,60.01861440843709,
crush.wav,crush.mpg,crush,5,A,Pink_Noise_5_1.wav,Pink_Noise_5_2.wav,,,,,,0,27,27,58,,,,,,,,,,,,,,,266.7642323820037,None,268.2474312290142,None,269.6309353560209,None,crush,269.6309353560209,None,return,0.8832583889889065,269.7142280130065,None,,,,,,,,,,,,,4,001,2023_Feb_02_1046,SpeechDraft1Carolyn_lessNoise,2021.2.3,60.01861440843709,
freeze.wav,freeze.mpg,freeze,1,A,Pink_Noise_1_1.wav,Pink_Noise_1_2.wav,,,,,,0,28,28,4,,,,,,,,,,,,,,,270.6141943880066,None,272.09749759099213,None,273.48118291201536,None,freeze,273.48118291201536,None,return,1.2811521909898147,273.5643113029946,None,,,,,,,,,,,,,4,001,2023_Feb_02_1046,SpeechDraft1Carolyn_lessNoise,2021.2.3,60.01861440843709,
clip.wav,clip.mpg,clip,4,AV,Pink_Noise_4_1.wav,Pink_Noise_4_2.wav,,,,,,0,29,29,89,,,,,,,,,,,,,,,274.8644382689963,None,276.3642032240168,None,277.7476816099952,None,"cliff
",277.7476816099952,None,return,1.3505209359864239,277.83092102900264,None,,,,,,,,,,,,,4,001,2023_Feb_02_1046,SpeechDraft1Carolyn_lessNoise,2021.2.3,60.01861440843709,
damp.wav,damp.mpg,damp,4,AV,Pink_Noise_4_1.wav,Pink_Noise_4_2.wav,,,,,,0,30,30,71,,,,,,,,,,,,,,,279.2142985120008,None,280.7141004060104,None,282.0976143910084,None,damp,282.0976143910084,None,return,0.7444535670219921,282.1810006070009,None,,,,,,,,,,,,,4,001,2023_Feb_02_1046,SpeechDraft1Carolyn_lessNoise,2021.2.3,60.01861440843709,
fence.wav,fence.mpg,fence,3,AV,Pink_Noise_3_1.wav,Pink_Noise_3_2.wav,,,,,,0,31,31,117,,,,,,,,,,,,,,,282.9475687330123,None,284.44741001099464,None,285.8494645440078,None,"fence
",285.8494645440078,None,return,1.5701477969996631,285.93129805801436,None,,,,,,,,,,,,,4,001,2023_Feb_02_1046,SpeechDraft1Carolyn_lessNoise,2021.2.3,60.01861440843709,
faith.wav,faith.mpg,faith,1,AV,Pink_Noise_1_1.wav,Pink_Noise_1_2.wav,,,,,,0,32,32,100,,,,,,,,,,,,,,,287.5309283180104,None,289.0160192520125,None,290.397563652019,None,faith,290.397563652019,None,return,0.9885677199927159,290.48094191099517,None,,,,,,,,,,,,,4,001,2023_Feb_02_1046,SpeechDraft1Carolyn_lessNoise,2021.2.3,60.01861440843709,
dense.wav,dense.mpg,dense,6,AV,Pink_Noise_6_1.wav,Pink_Noise_6_2.wav,,,,,,0,33,33,84,,,,,,,,,,,,,,,291.49766069400357,None,292.9807016070117,None,294.3644815860025,None,nuts,294.3644815860025,None,return,0.7819029469974339,294.44761183901574,None,,,,,,,,,,,,,4,001,2023_Feb_02_1046,SpeechDraft1Carolyn_lessNoise,2021.2.3,60.01861440843709,
book.wav,book.mpg,book,1,AV,Pink_Noise_1_1.wav,Pink_Noise_1_2.wav,,,,,,0,34,34,96,,,,,,,,,,,,,,,295.2476643350092,None,296.74747587202,None,298.1309653650096,None,book,298.1309653650096,None,return,0.9751374229963403,298.2143113250204,None,,,,,,,,,,,,,4,001,2023_Feb_02_1046,SpeechDraft1Carolyn_lessNoise,2021.2.3,60.01861440843709,
coast.wav,coast.mpg,coast,5,AV,Pink_Noise_5_1.wav,Pink_Noise_5_2.wav,,,,,,0,35,35,86,,,,,,,,,,,,,,,299.21426440699724,None,300.69754211601685,None,302.08082958101295,None,"toast
",302.08082958101295,None,return,0.7851558389957063,302.164317554998,None,,,,,,,,,,,,,4,001,2023_Feb_02_1046,SpeechDraft1Carolyn_lessNoise,2021.2.3,60.01861440843709,
base.wav,base.mpg,base,3,AV,Pink_Noise_3_1.wav,Pink_Noise_3_2.wav,,,,,,0,36,36,98,,,,,,,,,,,,,,,302.98107201300445,None,304.49749285000144,None,305.8809324320173,None,base,305.8809324320173,None,return,1.3450804250023793,305.96437473400147,None,,,,,,,,,,,,,4,001,2023_Feb_02_1046,SpeechDraft1Carolyn_lessNoise,2021.2.3,60.01861440843709,
drug.wav,drug.mpg,drug,3,A,Pink_Noise_3_1.wav,Pink_Noise_3_2.wav,,,,,,0,37,37,44,,,,,,,,,,,,,,,307.33097700201324,None,308.83092706502066,None,310.19762934499886,None,drug,310.19762934499886,None,return,0.7165283540089149,310.2809734129987,None,,,,,,,,,,,,,4,001,2023_Feb_02_1046,SpeechDraft1Carolyn_lessNoise,2021.2.3,60.01861440843709,
bird.wav,bird.mpg,bird,1,A,Pink_Noise_1_1.wav,Pink_Noise_1_2.wav,,,,,,0,38,38,31,,,,,,,,,,,,,,,311.01426131799235,None,312.51410801699967,None,313.89765288701165,None,bird,313.89765288701165,None,return,0.6644702469930053,313.98098353800015,None,,,,,,,,,,,,,4,001,2023_Feb_02_1046,SpeechDraft1Carolyn_lessNoise,2021.2.3,60.01861440843709,
gate.wav,gate.mpg,gate,4,A,Pink_Noise_4_1.wav,Pink_Noise_4_2.wav,,,,,,0,39,39,47,,,,,,,,,,,,,,,314.66433440099354,None,316.1640844240028,None,317.5476280900184,None,gate,317.5476280900184,None,return,1.0624233090202324,317.6310354839952,None,,,,,,,,,,,,,4,001,2023_Feb_02_1046,SpeechDraft1Carolyn_lessNoise,2021.2.3,60.01861440843709,
glass.wav,glass.mpg,glass,3,AV,Pink_Noise_3_1.wav,Pink_Noise_3_2.wav,,,,,,0,40,40,85,,,,,,,,,,,,,,,318.71433192299446,None,320.1974600680114,None,321.58096667399514,None,glass,321.58096667399514,None,return,0.9490997089887969,321.66438031199505,None,,,,,,,,,,,,,4,001,2023_Feb_02_1046,SpeechDraft1Carolyn_lessNoise,2021.2.3,60.01861440843709,
gust.wav,gust.mpg,gust,4,A,Pink_Noise_4_1.wav,Pink_Noise_4_2.wav,,,,,,0,41,41,33,,,,,,,,,,,,,,,322.6311573180137,None,324.13072125200415,None,325.4976167480054,None,gust,325.4976167480054,None,return,0.6885286990145687,325.58100897000986,None,,,,,,,,,,,,,4,001,2023_Feb_02_1046,SpeechDraft1Carolyn_lessNoise,2021.2.3,60.01861440843709,
chest.wav,chest.mpg,chest,1,A,Pink_Noise_1_1.wav,Pink_Noise_1_2.wav,,,,,,0,42,42,38,,,,,,,,,,,,,,,326.2976958749932,None,327.7975459409936,None,329.1809654709941,None,chest,329.1809654709941,None,return,1.0371265299909282,329.2643276400049,None,,,,,,,,,,,,,4,001,2023_Feb_02_1046,SpeechDraft1Carolyn_lessNoise,2021.2.3,60.01861440843709,
flog.wav,flog.mpg,flog,2,AV,Pink_Noise_2_1.wav,Pink_Noise_2_2.wav,,,,,,0,43,43,60,,,,,,,,,,,,,,,330.33100209300756,None,331.8144513379957,None,333.1977347150096,None,flog,333.1977347150096,None,return,0.7243520140182227,333.28111931000603,None,,,,,,,,,,,,,4,001,2023_Feb_02_1046,SpeechDraft1Carolyn_lessNoise,2021.2.3,60.01861440843709,
flank.wav,flank.mpg,flank,2,A,Pink_Noise_2_1.wav,Pink_Noise_2_2.wav,,,,,,0,44,44,52,,,,,,,,,,,,,,,334.03108313601115,None,335.53083125900594,None,336.9143425360089,None,flake,336.9143425360089,None,return,0.8155864000145812,336.9979504570074,None,,,,,,,,,,,,,4,001,2023_Feb_02_1046,SpeechDraft1Carolyn_lessNoise,2021.2.3,60.01861440843709,
flat.wav,flat.mpg,flat,4,AV,Pink_Noise_4_1.wav,Pink_Noise_4_2.wav,,,,,,0,45,45,63,,,,,,,,,,,,,,,337.8310223100125,None,339.31423305900535,None,340.6976119670144,None,flat,340.6976119670144,None,return,0.7923729369940702,340.78108231999795,None,,,,,,,,,,,,,4,001,2023_Feb_02_1046,SpeechDraft1Carolyn_lessNoise,2021.2.3,60.01861440843709,
skull.wav,skull.mpg,skull,1,A,Pink_Noise_1_1.wav,Pink_Noise_1_2.wav,,,,,,0,46,46,17,,,,,,,,,,,,,,,341.5977865260211,None,343.08195355400676,None,344.46437559099286,None,skull,344.46437559099286,None,return,1.1937783989997115,344.5476686650072,None,,,,,,,,,,,,,4,001,2023_Feb_02_1046,SpeechDraft1Carolyn_lessNoise,2021.2.3,60.01861440843709,
cross.wav,cross.mpg,cross,3,AV,Pink_Noise_3_1.wav,Pink_Noise_3_2.wav,,,,,,0,47,47,72,,,,,,,,,,,,,,,345.764336385997,None,347.26413307501934,None,348.647689578007,None,"cross
",348.647689578007,None,return,0.9864771649881732,348.7309707470122,None,,,,,,,,,,,,,4,001,2023_Feb_02_1046,SpeechDraft1Carolyn_lessNoise,2021.2.3,60.01861440843709,
cart.wav,cart.mpg,cart,4,AV,Pink_Noise_4_1.wav,Pink_Noise_4_2.wav,,,,,,0,48,48,105,,,,,,,,,,,,,,,349.7477519510139,None,351.23168613002053,None,352.6143713640049,None,cart,352.6143713640049,None,return,0.8997049999888986,352.6977832860139,None,,,,,,,,,,,,,4,001,2023_Feb_02_1046,SpeechDraft1Carolyn_lessNoise,2021.2.3,60.01861440843709,
fruit.wav,fruit.mpg,fruit,6,AV,Pink_Noise_6_1.wav,Pink_Noise_6_2.wav,,,,,,0,49,49,90,,,,,,,,,,,,,,,353.61434868199285,None,355.0975998440117,None,356.4809234710119,None,foot,356.4809234710119,None,return,1.305008839990478,356.56441638301476,None,,,,,,,,,,,,,4,001,2023_Feb_02_1046,SpeechDraft1Carolyn_lessNoise,2021.2.3,60.01861440843709,
calm.wav,calm.mpg,calm,6,AV,Pink_Noise_6_1.wav,Pink_Noise_6_2.wav,,,,,,0,50,50,116,,,,,,,,,,,,,,,357.8978057890199,None,359.382031843008,None,360.76467710299767,None,calm,360.76467710299767,None,return,0.965705419977894,360.8477930560184,None,,,,,,,,,,,,,4,001,2023_Feb_02_1046,SpeechDraft1Carolyn_lessNoise,2021.2.3,60.01861440843709,
bank.wav,bank.mpg,bank,1,A,Pink_Noise_1_1.wav,Pink_Noise_1_2.wav,,,,,,0,51,51,23,,,,,,,,,,,,,,,361.8310534360062,None,363.31466468199505,None,364.698043618002,None,bank,364.698043618002,None,return,0.7203214979963377,364.7811483179976,None,,,,,,,,,,,,,4,001,2023_Feb_02_1046,SpeechDraft1Carolyn_lessNoise,2021.2.3,60.01861440843709,
cure.wav,cure.mpg,cure,5,A,Pink_Noise_5_1.wav,Pink_Noise_5_2.wav,,,,,,0,52,52,8,,,,,,,,,,,,,,,365.5310495820013,None,367.0308952460182,None,368.41454403000535,None,feet,368.41454403000535,None,return,0.8997644250048324,368.4977433330205,None,,,,,,,,,,,,,4,001,2023_Feb_02_1046,SpeechDraft1Carolyn_lessNoise,2021.2.3,60.01861440843709,
fuss.wav,fuss.mpg,fuss,5,A,Pink_Noise_5_1.wav,Pink_Noise_5_2.wav,,,,,,0,53,53,22,,,,,,,,,,,,,,,369.4144820859947,None,370.89864816199406,None,372.28098814500845,None,gust,372.28098814500845,None,return,1.033147286012536,372.3643531429989,None,,,,,,,,,,,,,4,001,2023_Feb_02_1046,SpeechDraft1Carolyn_lessNoise,2021.2.3,60.01861440843709,
flea.wav,flea.mpg,flea,6,AV,Pink_Noise_6_1.wav,Pink_Noise_6_2.wav,,,,,,0,54,54,69,,,,,,,,,,,,,,,373.4144693270209,None,374.8995623840019,None,376.28094766801223,None,train,376.28094766801223,None,return,1.7771185850142501,376.36433016500087,None,,,,,,,,,,,,,4,001,2023_Feb_02_1046,SpeechDraft1Carolyn_lessNoise,2021.2.3,60.01861440843709,
giant.wav,giant.mpg,giant,2,A,Pink_Noise_2_1.wav,Pink_Noise_2_2.wav,,,,,,0,55,55,30,,,,,,,,,,,,,,,378.16456575199845,None,379.6642044490145,None,381.0477760969952,None,"giant
",381.0477760969952,None,return,0.8504067120084073,381.1310472089972,None,,,,,,,,,,,,,4,001,2023_Feb_02_1046,SpeechDraft1Carolyn_lessNoise,2021.2.3,60.01861440843709,
wine.wav,wine.mpg,wine,2,AV,Pink_Noise_2_1.wav,Pink_Noise_2_2.wav,,,,,,0,56,56,103,,,,,,,,,,,,,,,382.0145355160057,None,383.5143101680151,None,384.8809433139977,None,wine,384.8809433139977,None,return,1.0330693360010628,384.96443088300293,None,,,,,,,,,,,,,4,001,2023_Feb_02_1046,SpeechDraft1Carolyn_lessNoise,2021.2.3,60.01861440843709,
groom.wav,groom.mpg,groom,1,AV,Pink_Noise_1_1.wav,Pink_Noise_1_2.wav,,,,,,0,57,57,108,,,,,,,,,,,,,,,386.01486956200097,None,387.5144832410151,None,388.8978716949932,None,groom,388.8978716949932,None,return,0.8485180669813417,388.9810581600177,None,,,,,,,,,,,,,4,001,2023_Feb_02_1046,SpeechDraft1Carolyn_lessNoise,2021.2.3,60.01861440843709,
cold.wav,cold.mpg,cold,2,A,Pink_Noise_2_1.wav,Pink_Noise_2_2.wav,,,,,,0,58,58,54,,,,,,,,,,,,,,,389.8477657260082,None,391.33106697999756,None,392.71498785199947,None,cold,392.71498785199947,None,return,0.4957240340008866,392.79772795402096,None,,,,,,,,,,,,,4,001,2023_Feb_02_1046,SpeechDraft1Carolyn_lessNoise,2021.2.3,60.01861440843709,
sun.wav,sun.mpg,sun,5,AV,Pink_Noise_5_1.wav,Pink_Noise_5_2.wav,,,,,,0,59,59,76,,,,,,,,,,,,,,,393.31455585500225,None,394.81434348001494,None,396.19768203800777,None,"sun
",396.19768203800777,None,return,0.6843689380038995,396.2810922689969,None,,,,,,,,,,,,,4,001,2023_Feb_02_1046,SpeechDraft1Carolyn_lessNoise,2021.2.3,60.01861440843709,
beige.wav,beige.mpg,beige,4,A,Pink_Noise_4_1.wav,Pink_Noise_4_2.wav,,,,,,0,60,60,39,,,,,,,,,,,,,,,396.99774730499485,None,398.49759511399316,None,399.88116543201613,None,beige,399.88116543201613,None,return,0.6809876600163989,399.96446449300856,None,,,,,,,,,,,,,4,001,2023_Feb_02_1046,SpeechDraft1Carolyn_lessNoise,2021.2.3,60.01861440843709,
bride.wav,bride.mpg,bride,6,A,Pink_Noise_6_1.wav,Pink_Noise_6_2.wav,,,,,,0,61,61,1,,,,,,,,,,,,,,,400.664430195,None,402.14776208699914,None,403.53107441199245,None,rust,403.53107441199245,None,return,0.815090374002466,403.61442720799823,None,,,,,,,,,,,,,4,001,2023_Feb_02_1046,SpeechDraft1Carolyn_lessNoise,2021.2.3,60.01861440843709,
blond.wav,blond.mpg,blond,2,AV,Pink_Noise_2_1.wav,Pink_Noise_2_2.wav,,,,,,0,62,62,75,,,,,,,,,,,,,,,404.4478606939956,None,405.94772320700577,None,407.33112162101315,None,lawn,407.33112162101315,None,return,1.2868243280099705,407.4146093290183,None,,,,,,,,,,,,,4,001,2023_Feb_02_1046,SpeechDraft1Carolyn_lessNoise,2021.2.3,60.01861440843709,
bat.wav,bat.mpg,bat,5,AV,Pink_Noise_5_1.wav,Pink_Noise_5_2.wav,,,,,,0,63,63,107,,,,,,,,,,,,,,,408.731080425001,None,410.23084169701906,None,411.614507552993,None,"bat
",411.614507552993,None,return,0.48354604601627216,411.6979088090011,None,,,,,,,,,,,,,4,001,2023_Feb_02_1046,SpeechDraft1Carolyn_lessNoise,2021.2.3,60.01861440843709,
brown.wav,brown.mpg,brown,5,AV,Pink_Noise_5_1.wav,Pink_Noise_5_2.wav,,,,,,0,64,64,62,,,,,,,,,,,,,,,412.2144572630059,None,413.6993895129999,None,415.0810261440056,None,ground,415.0810261440056,None,return,1.2490917789982632,415.1644154090027,None,,,,,,,,,,,,,4,001,2023_Feb_02_1046,SpeechDraft1Carolyn_lessNoise,2021.2.3,60.01861440843709,
cake.wav,cake.mpg,cake,2,A,Pink_Noise_2_1.wav,Pink_Noise_2_2.wav,,,,,,0,65,65,49,,,,,,,,,,,,,,,416.4311190440203,None,417.9309363299981,None,419.2978744680004,None,cake,419.2978744680004,None,return,0.6804557740106247,419.3811211400025,None,,,,,,,,,,,,,4,001,2023_Feb_02_1046,SpeechDraft1Carolyn_lessNoise,2021.2.3,60.01861440843709,
cat.wav,cat.mpg,cat,4,A,Pink_Noise_4_1.wav,Pink_Noise_4_2.wav,,,,,,0,66,66,46,,,,,,,,,,,,,,,420.08110125001986,None,421.5648277410073,None,422.94776946201455,None,cat,422.94776946201455,None,return,0.7743104020191822,423.03118060401175,None,,,,,,,,,,,,,4,001,2023_Feb_02_1046,SpeechDraft1Carolyn_lessNoise,2021.2.3,60.01861440843709,
grail.wav,grail.mpg,grail,1,A,Pink_Noise_1_1.wav,Pink_Noise_1_2.wav,,,,,,0,67,67,0,,,,,,,,,,,,,,,423.8312360510172,None,425.3309904280177,None,426.71441862601205,None,grail,426.71441862601205,None,return,1.1116236250090878,426.79783098201733,None,,,,,,,,,,,,,4,001,2023_Feb_02_1046,SpeechDraft1Carolyn_lessNoise,2021.2.3,60.01861440843709,
swan.wav,swan.mpg,swan,4,AV,Pink_Noise_4_1.wav,Pink_Noise_4_2.wav,,,,,,0,68,68,99,,,,,,,,,,,,,,,427.93118720999337,None,429.4309838839981,None,430.81437740201363,None,"swirl
",430.81437740201363,None,return,1.0196344009891618,430.89781005700934,None,,,,,,,,,,,,,4,001,2023_Feb_02_1046,SpeechDraft1Carolyn_lessNoise,2021.2.3,60.01861440843709,
drill.wav,drill.mpg,drill,3,AV,Pink_Noise_3_1.wav,Pink_Noise_3_2.wav,,,,,,0,69,69,74,,,,,,,,,,,,,,,431.9478201190068,None,433.43214356401586,None,434.81445499000256,None,drill,434.81445499000256,None,return,1.0997390270058531,434.89777470802073,None,,,,,,,,,,,,,4,001,2023_Feb_02_1046,SpeechDraft1Carolyn_lessNoise,2021.2.3,60.01861440843709,
fix.wav,fix.mpg,fix,6,A,Pink_Noise_6_1.wav,Pink_Noise_6_2.wav,,,,,,0,70,70,50,,,,,,,,,,,,,,,436.01453002000926,None,437.51432217800175,None,438.89779826201266,None,faint,438.89779826201266,None,return,1.7602729369828012,438.9811691789946,None,,,,,,,,,,,,,4,001,2023_Feb_02_1046,SpeechDraft1Carolyn_lessNoise,2021.2.3,60.01861440843709,
food.wav,food.mpg,food,2,A,Pink_Noise_2_1.wav,Pink_Noise_2_2.wav,,,,,,0,71,71,11,,,,,,,,,,,,,,,440.7644859199936,None,442.2487235770095,None,443.6311560010072,None,food,443.6311560010072,None,return,0.6829661559895612,443.7145570720022,None,,,,,,,,,,,,,4,001,2023_Feb_02_1046,SpeechDraft1Carolyn_lessNoise,2021.2.3,60.01861440843709,
bump.wav,bump.mpg,bump,5,A,Pink_Noise_5_1.wav,Pink_Noise_5_2.wav,,,,,,0,72,72,37,,,,,,,,,,,,,,,444.41462846301147,None,445.89926093799295,None,447.28116421800223,None,bone,447.28116421800223,None,return,0.6489665800181683,447.3645354610053,None,,,,,,,,,,,,,4,001,2023_Feb_02_1046,SpeechDraft1Carolyn_lessNoise,2021.2.3,60.01861440843709,
blend.wav,blend.mpg,blend,1,AV,Pink_Noise_1_1.wav,Pink_Noise_1_2.wav,,,,,,0,73,73,115,,,,,,,,,,,,,,,448.03132850900874,None,449.5310743820155,None,450.9145637570182,None,blend,450.9145637570182,None,return,0.8717107090051286,450.9978352620092,None,,,,,,,,,,,,,4,001,2023_Feb_02_1046,SpeechDraft1Carolyn_lessNoise,2021.2.3,60.01861440843709,
draft.wav,draft.mpg,draft,3,A,Pink_Noise_3_1.wav,Pink_Noise_3_2.wav,,,,,,0,74,74,53,,,,,,,,,,,,,,,451.8978662510053,None,453.39769995599636,None,454.76457217201823,None,drag,454.76457217201823,None,return,0.6936490809894167,454.84779959201114,None,,,,,,,,,,,,,4,001,2023_Feb_02_1046,SpeechDraft1Carolyn_lessNoise,2021.2.3,60.01861440843709,
bold.wav,bold.mpg,bold,2,A,Pink_Noise_2_1.wav,Pink_Noise_2_2.wav,,,,,,0,75,75,25,,,,,,,,,,,,,,,455.5645976420201,None,457.06430590501986,None,458.4478529500193,None,bold,458.4478529500193,None,return,1.538415778981289,458.53109163901536,None,,,,,,,,,,,,,4,001,2023_Feb_02_1046,SpeechDraft1Carolyn_lessNoise,2021.2.3,60.01861440843709,
crate.wav,crate.mpg,crate,2,AV,Pink_Noise_2_1.wav,Pink_Noise_2_2.wav,,,,,,0,76,76,70,,,,,,,,,,,,,,,460.098002609011,None,461.5976807489933,None,462.96446442900924,None,crate,462.96446442900924,None,return,2.3816407160193194,463.04787829800625,None,,,,,,,,,,,,,4,001,2023_Feb_02_1046,SpeechDraft1Carolyn_lessNoise,2021.2.3,60.01861440843709,
fat.wav,fat.mpg,fat,2,AV,Pink_Noise_2_1.wav,Pink_Noise_2_2.wav,,,,,,0,77,77,82,,,,,,,,,,,,,,,465.4478722549975,None,466.94766343201627,None,468.3312050829991,None,fat,468.3312050829991,None,return,0.5989520990115125,468.4145306349965,None,,,,,,,,,,,,,4,001,2023_Feb_02_1046,SpeechDraft1Carolyn_lessNoise,2021.2.3,60.01861440843709,
gown.wav,gown.mpg,gown,6,AV,Pink_Noise_6_1.wav,Pink_Noise_6_2.wav,,,,,,0,78,78,104,,,,,,,,,,,,,,,469.03115655400325,None,470.5310198160005,None,471.91444188699825,None,gown,471.91444188699825,None,return,0.7115212199860252,471.99793050900917,None,,,,,,,,,,,,,4,001,2023_Feb_02_1046,SpeechDraft1Carolyn_lessNoise,2021.2.3,60.01861440843709,
bench.wav,bench.mpg,bench,2,AV,Pink_Noise_2_1.wav,Pink_Noise_2_2.wav,,,,,,0,79,79,93,,,,,,,,,,,,,,,472.7311739750148,None,474.2310400179995,None,475.6144527060096,None,bench,475.6144527060096,None,return,1.1955349920026492,475.6979223760136,None,,,,,,,,,,,,,4,001,2023_Feb_02_1046,SpeechDraft1Carolyn_lessNoise,2021.2.3,60.01861440843709,
gun.wav,gun.mpg,gun,3,AV,Pink_Noise_3_1.wav,Pink_Noise_3_2.wav,,,,,,0,80,80,92,,,,,,,,,,,,,,,476.914618247014,None,478.4143982749956,None,479.7811451080197,None,gun,479.7811451080197,None,return,0.8609014120011125,479.86455785899307,None,,,,,,,,,,,,,4,001,2023_Feb_02_1046,SpeechDraft1Carolyn_lessNoise,2021.2.3,60.01861440843709,
fee.wav,fee.mpg,fee,3,AV,Pink_Noise_3_1.wav,Pink_Noise_3_2.wav,,,,,,0,81,81,80,,,,,,,,,,,,,,,480.74788967400673,None,482.2330221919983,None,483.6144363420026,None,fear,483.6144363420026,None,return,0.9875313809898216,483.6979029070062,None,,,,,,,,,,,,,4,001,2023_Feb_02_1046,SpeechDraft1Carolyn_lessNoise,2021.2.3,60.01861440843709,
budge.wav,budge.mpg,budge,6,A,Pink_Noise_6_1.wav,Pink_Noise_6_2.wav,,,,,,0,82,82,6,,,,,,,,,,,,,,,484.7146121459955,None,486.21449527400546,None,487.5980256500188,None,rogue,487.5980256500188,None,return,1.716295842983527,487.6812109510065,None,,,,,,,,,,,,,4,001,2023_Feb_02_1046,SpeechDraft1Carolyn_lessNoise,2021.2.3,60.01861440843709,
crime.wav,crime.mpg,crime,4,AV,Pink_Noise_4_1.wav,Pink_Noise_4_2.wav,,,,,,0,83,83,94,,,,,,,,,,,,,,,489.41469858700293,None,490.9145434719976,None,492.28110722100246,None,crime,492.28110722100246,None,return,1.1050177939760033,492.36459461101913,None,,,,,,,,,,,,,4,001,2023_Feb_02_1046,SpeechDraft1Carolyn_lessNoise,2021.2.3,60.01861440843709,
grind.wav,grind.mpg,grind,5,AV,Pink_Noise_5_1.wav,Pink_Noise_5_2.wav,,,,,,0,84,84,67,,,,,,,,,,,,,,,493.4978159710008,None,494.9981600519968,None,496.3811670670111,None,grind,496.3811670670111,None,return,1.1730010730098002,496.46458351399633,None,,,,,,,,,,,,,4,001,2023_Feb_02_1046,SpeechDraft1Carolyn_lessNoise,2021.2.3,60.01861440843709,
beg.wav,beg.mpg,beg,1,AV,Pink_Noise_1_1.wav,Pink_Noise_1_2.wav,,,,,,0,85,85,66,,,,,,,,,,,,,,,497.66455558201415,None,499.16444078300265,None,500.54786476201843,None,beg,500.54786476201843,None,return,1.0064028719789349,500.6311953650147,None,,,,,,,,,,,,,4,001,2023_Feb_02_1046,SpeechDraft1Carolyn_lessNoise,2021.2.3,60.01861440843709,
crowd.wav,crowd.mpg,crowd,1,A,Pink_Noise_1_1.wav,Pink_Noise_1_2.wav,,,,,,0,86,86,10,,,,,,,,,,,,,,,501.6644950690097,None,503.1643464869994,None,504.53123665900785,None,crowd,504.53123665900785,None,return,1.0389368489850312,504.6146008670039,None,,,,,,,,,,,,,4,001,2023_Feb_02_1046,SpeechDraft1Carolyn_lessNoise,2021.2.3,60.01861440843709,
fork.wav,fork.mpg,fork,2,A,Pink_Noise_2_1.wav,Pink_Noise_2_2.wav,,,,,,0,87,87,48,,,,,,,,,,,,,,,505.6812536480138,None,507.1653998279944,None,508.5479291700176,None,fork,508.5479291700176,None,return,0.7259911459987052,508.6314508600044,None,,,,,,,,,,,,,4,001,2023_Feb_02_1046,SpeechDraft1Carolyn_lessNoise,2021.2.3,60.01861440843709,
tart.wav,tart.mpg,tart,4,A,Pink_Noise_4_1.wav,Pink_Noise_4_2.wav,,,,,,0,88,88,2,,,,,,,,,,,,,,,509.381296631007,None,510.88108847499825,None,512.2645977460197,None,tart,512.2645977460197,None,return,0.6895548280153889,512.3479597849946,None,,,,,,,,,,,,,4,001,2023_Feb_02_1046,SpeechDraft1Carolyn_lessNoise,2021.2.3,60.01861440843709,
cent.wav,cent.mpg,cent,1,AV,Pink_Noise_1_1.wav,Pink_Noise_1_2.wav,,,,,,0,89,89,64,,,,,,,,,,,,,,,513.064608746994,None,514.5643510539958,None,515.9478385580005,None,set,515.9478385580005,None,return,0.6542209619947243,516.0312242450018,None,,,,,,,,,,,,,4,001,2023_Feb_02_1046,SpeechDraft1Carolyn_lessNoise,2021.2.3,60.01861440843709,
bias.wav,bias.mpg,bias,3,A,Pink_Noise_3_1.wav,Pink_Noise_3_2.wav,,,,,,0,90,90,14,,,,,,,,,,,,,,,516.7147101750015,None,518.2143652329978,None,519.5980632280116,None,bias,519.5980632280116,None,return,0.6921107639791444,519.6813239330077,None,,,,,,,,,,,,,4,001,2023_Feb_02_1046,SpeechDraft1Carolyn_lessNoise,2021.2.3,60.01861440843709,
float.wav,float.mpg,float,3,A,Pink_Noise_3_1.wav,Pink_Noise_3_2.wav,,,,,,0,91,91,56,,,,,,,,,,,,,,,520.3980327660101,None,521.897785662004,None,523.2645812210103,None,float,523.2645812210103,None,return,0.6895322549971752,523.3479712379922,None,,,,,,,,,,,,,4,001,2023_Feb_02_1046,SpeechDraft1Carolyn_lessNoise,2021.2.3,60.01861440843709,
flake.wav,flake.mpg,flake,3,A,Pink_Noise_3_1.wav,Pink_Noise_3_2.wav,,,,,,0,92,92,5,,,,,,,,,,,,,,,524.0645720949979,None,525.5645257260185,None,526.9479723870172,None,flake,526.9479723870172,None,return,0.7101761490048375,527.0312648130057,None,,,,,,,,,,,,,4,001,2023_Feb_02_1046,SpeechDraft1Carolyn_lessNoise,2021.2.3,60.01861440843709,
thrown.wav,thrown.mpg,thrown,5,A,Pink_Noise_5_1.wav,Pink_Noise_5_2.wav,,,,,,0,93,93,18,,,,,,,,,,,,,,,527.7647131750127,None,529.2644504960044,None,530.6479597370198,None,rose,530.6479597370198,None,return,1.7382432199956384,530.7312585530162,None,,,,,,,,,,,,,4,001,2023_Feb_02_1046,SpeechDraft1Carolyn_lessNoise,2021.2.3,60.01861440843709,
chomp.wav,chomp.mpg,chomp,6,A,Pink_Noise_6_1.wav,Pink_Noise_6_2.wav,,,,,,0,94,94,55,,,,,,,,,,,,,,,532.4979592240124,None,533.9978524979961,None,535.3813347099931,None,"charge
",535.3813347099931,None,return,0.900847499986412,535.464604859997,None,,,,,,,,,,,,,4,001,2023_Feb_02_1046,SpeechDraft1Carolyn_lessNoise,2021.2.3,60.01861440843709,
shut.wav,shut.mpg,shut,5,AV,Pink_Noise_5_1.wav,Pink_Noise_5_2.wav,,,,,,0,95,95,95,,,,,,,,,,,,,,,536.3979354500188,None,537.897758578998,None,539.2646137420088,None,shut,539.2646137420088,None,return,0.7055231420090422,539.3480101980094,None,,,,,,,,,,,,,4,001,2023_Feb_02_1046,SpeechDraft1Carolyn_lessNoise,2021.2.3,60.01861440843709,
blimp.wav,blimp.mpg,blimp,4,AV,Pink_Noise_4_1.wav,Pink_Noise_4_2.wav,,,,,,0,96,96,113,,,,,,,,,,,,,,,540.0812001510058,None,541.5811077500111,None,542.9646117060038,None,flip,542.9646117060038,None,return,0.7254489790066145,543.0479677080002,None,,,,,,,,,,,,,4,001,2023_Feb_02_1046,SpeechDraft1Carolyn_lessNoise,2021.2.3,60.01861440843709,
unit.wav,unit.mpg,unit,5,A,Pink_Noise_5_1.wav,Pink_Noise_5_2.wav,,,,,,0,97,97,51,,,,,,,,,,,,,,,543.7980202129984,None,545.2978079140012,None,546.6812766400108,None,humerus,546.6812766400108,None,return,2.8248029249953106,546.7646392790193,None,,,,,,,,,,,,,4,001,2023_Feb_02_1046,SpeechDraft1Carolyn_lessNoise,2021.2.3,60.01861440843709,
dog.wav,dog.mpg,dog,5,AV,Pink_Noise_5_1.wav,Pink_Noise_5_2.wav,,,,,,0,98,98,68,,,,,,,,,,,,,,,549.6146277170046,None,551.1144645420136,None,552.4978499540011,None,jaw,552.4978499540011,None,return,0.5441153279971331,552.5813255649991,None,,,,,,,,,,,,,4,001,2023_Feb_02_1046,SpeechDraft1Carolyn_lessNoise,2021.2.3,60.01861440843709,
draw.wav,draw.mpg,draw,4,AV,Pink_Noise_4_1.wav,Pink_Noise_4_2.wav,,,,,,0,99,99,118,,,,,,,,,,,,,,,553.1481437979965,None,554.647831618,None,556.0145283240126,None,"draw
",556.0145283240126,None,return,0.6674747369834222,556.0979639120051,None,,,,,,,,,,,,,4,001,2023_Feb_02_1046,SpeechDraft1Carolyn_lessNoise,2021.2.3,60.01861440843709,
firm.wav,firm.mpg,firm,2,AV,Pink_Noise_2_1.wav,Pink_Noise_2_2.wav,,,,,,0,100,100,97,,,,,,,,,,,,,,,556.7979772599938,None,558.2977681820048,None,559.6812836099998,None,firm,559.6812836099998,None,return,0.8569114219862968,559.7646730870183,None,,,,,,,,,,,,,4,001,2023_Feb_02_1046,SpeechDraft1Carolyn_lessNoise,2021.2.3,60.01861440843709,
news.wav,news.mpg,news,5,A,Pink_Noise_5_1.wav,Pink_Noise_5_2.wav,,,,,,0,101,101,20,,,,,,,,,,,,,,,560.6479795940104,None,562.1477720550029,None,563.5147134690196,None,rubes,563.5147134690196,None,return,9.06340825499501,563.598099046998,None,,,,,,,,,,,,,4,001,2023_Feb_02_1046,SpeechDraft1Carolyn_lessNoise,2021.2.3,60.01861440843709,
dare.wav,dare.mpg,dare,1,AV,Pink_Noise_1_1.wav,Pink_Noise_1_2.wav,,,,,,0,102,102,112,,,,,,,,,,,,,,,572.6812942989927,None,574.181079358008,None,575.56457485602,None,dare,575.56457485602,None,return,1.3094950079976115,575.6479456000088,None,,,,,,,,,,,,,4,001,2023_Feb_02_1046,SpeechDraft1Carolyn_lessNoise,2021.2.3,60.01861440843709,
roast.wav,roast.mpg,roast,5,AV,Pink_Noise_5_1.wav,Pink_Noise_5_2.wav,,,,,,0,103,103,78,,,,,,,,,,,,,,,576.9813523030025,None,578.4812813620083,None,579.8646046440117,None,roast,579.8646046440117,None,return,0.8254318369727116,579.9480103800015,None,,,,,,,,,,,,,4,001,2023_Feb_02_1046,SpeechDraft1Carolyn_lessNoise,2021.2.3,60.01861440843709,
beef.wav,beef.mpg,beef,5,AV,Pink_Noise_5_1.wav,Pink_Noise_5_2.wav,,,,,,0,104,104,91,,,,,,,,,,,,,,,580.7979765560012,None,582.297939044016,None,583.6646721659927,None,beef,583.6646721659927,None,return,0.9054964459792245,583.7480896009947,None,,,,,,,,,,,,,4,001,2023_Feb_02_1046,SpeechDraft1Carolyn_lessNoise,2021.2.3,60.01861440843709,
fluff.wav,fluff.mpg,fluff,1,AV,Pink_Noise_1_1.wav,Pink_Noise_1_2.wav,,,,,,0,105,105,101,,,,,,,,,,,,,,,584.6813100700092,None,586.1811503790086,None,587.564717419009,None,"fluff
",587.564717419009,None,return,0.9013624789949972,587.6480931690021,None,,,,,,,,,,,,,4,001,2023_Feb_02_1046,SpeechDraft1Carolyn_lessNoise,2021.2.3,60.01861440843709,
quart.wav,quart.mpg,quart,5,A,Pink_Noise_5_1.wav,Pink_Noise_5_2.wav,,,,,,0,106,106,19,,,,,,,,,,,,,,,588.5813347260118,None,590.0812332950009,None,591.4647212919954,None,fort,591.4647212919954,None,return,0.7454358089889865,591.548028877005,None,,,,,,,,,,,,,4,001,2023_Feb_02_1046,SpeechDraft1Carolyn_lessNoise,2021.2.3,60.01861440843709,
dry.wav,dry.mpg,dry,6,AV,Pink_Noise_6_1.wav,Pink_Noise_6_2.wav,,,,,,0,107,107,114,,,,,,,,,,,,,,,592.3146627340175,None,593.8147188050207,None,595.1980427319941,None,dry,595.1980427319941,None,return,0.6040101499820594,595.2814527680166,None,,,,,,,,,,,,,4,001,2023_Feb_02_1046,SpeechDraft1Carolyn_lessNoise,2021.2.3,60.01861440843709,
clash.wav,clash.mpg,clash,1,A,Pink_Noise_1_1.wav,Pink_Noise_1_2.wav,,,,,,0,108,108,34,,,,,,,,,,,,,,,595.9147020370001,None,597.4144762950018,None,598.7813381350134,None,clash,598.7813381350134,None,return,0.8045931669767015,598.8649298730015,None,,,,,,,,,,,,,4,001,2023_Feb_02_1046,SpeechDraft1Carolyn_lessNoise,2021.2.3,60.01861440843709,
barn.wav,barn.mpg,barn,4,A,Pink_Noise_4_1.wav,Pink_Noise_4_2.wav,,,,,,0,109,109,24,,,,,,,,,,,,,,,599.6980262630095,None,601.1978368840064,None,602.5647041409975,None,find,602.5647041409975,None,return,0.6213733470067382,602.6481410429988,None,,,,,,,,,,,,,4,001,2023_Feb_02_1046,SpeechDraft1Carolyn_lessNoise,2021.2.3,60.01861440843709,
croak.wav,croak.mpg,croak,4,A,Pink_Noise_4_1.wav,Pink_Noise_4_2.wav,,,,,,0,110,110,36,,,,,,,,,,,,,,,603.2980939300032,None,604.7980874570203,None,606.1813632230042,None,croak,606.1813632230042,None,return,0.8287649289995898,606.2646942050196,None,,,,,,,,,,,,,4,001,2023_Feb_02_1046,SpeechDraft1Carolyn_lessNoise,2021.2.3,60.01861440843709,
bone.wav,bone.mpg,bone,6,AV,Pink_Noise_6_1.wav,Pink_Noise_6_2.wav,,,,,,0,111,111,73,,,,,,,,,,,,,,,607.1149559410114,None,608.6145827140135,None,609.9979357880075,None,bone,609.9979357880075,None,return,0.6040595959930215,610.0813848469988,None,,,,,,,,,,,,,4,001,2023_Feb_02_1046,SpeechDraft1Carolyn_lessNoise,2021.2.3,60.01861440843709,
bunch.wav,bunch.mpg,bunch,3,A,Pink_Noise_3_1.wav,Pink_Noise_3_2.wav,,,,,,0,112,112,16,,,,,,,,,,,,,,,610.7146855220199,None,612.2146012970188,None,613.5980680710054,None,bunch,613.5980680710054,None,return,0.9801127249957062,613.681420280016,None,,,,,,,,,,,,,4,001,2023_Feb_02_1046,SpeechDraft1Carolyn_lessNoise,2021.2.3,60.01861440843709,
booth.wav,booth.mpg,booth,4,AV,Pink_Noise_4_1.wav,Pink_Noise_4_2.wav,,,,,,0,113,113,88,,,,,,,,,,,,,,,614.6815679230203,None,616.1812903940154,None,617.5647131190053,None,"booth
",617.5647131190053,None,return,0.9174388849933166,617.6480148120027,None,,,,,,,,,,,,,4,001,2023_Feb_02_1046,SpeechDraft1Carolyn_lessNoise,2021.2.3,60.01861440843709,
boat.wav,boat.mpg,boat,3,AV,Pink_Noise_3_1.wav,Pink_Noise_3_2.wav,,,,,,0,114,114,83,,,,,,,,,,,,,,,618.5980702750094,None,620.0979147570033,None,621.4813260759984,None,"boat
",621.4813260759984,None,return,0.5366995880031027,621.564754934021,None,,,,,,,,,,,,,4,001,2023_Feb_02_1046,SpeechDraft1Carolyn_lessNoise,2021.2.3,60.01861440843709,
bad.wav,bad.mpg,bad,3,A,Pink_Noise_3_1.wav,Pink_Noise_3_2.wav,,,,,,0,115,115,7,,,,,,,,,,,,,,,622.1315740839927,None,623.6311202130164,None,624.9980788580142,None,band,624.9980788580142,None,return,0.7562025309889577,625.081349628017,None,,,,,,,,,,,,,4,001,2023_Feb_02_1046,SpeechDraft1Carolyn_lessNoise,2021.2.3,60.01861440843709,
ditch.wav,ditch.mpg,ditch,1,A,Pink_Noise_1_1.wav,Pink_Noise_1_2.wav,,,,,,0,116,116,45,,,,,,,,,,,,,,,625.8647670280188,None,627.3645544380124,None,628.748040483013,None,ditch,628.748040483013,None,return,1.0381039500061888,628.831397736998,None,,,,,,,,,,,,,4,001,2023_Feb_02_1046,SpeechDraft1Carolyn_lessNoise,2021.2.3,60.01861440843709,
cheer.wav,cheer.mpg,cheer,6,A,Pink_Noise_6_1.wav,Pink_Noise_6_2.wav,,,,,,0,117,117,35,,,,,,,,,,,,,,,629.8980645030097,None,631.3978779460012,None,632.7814381750068,None,"chicken
",632.7814381750068,None,return,1.5886138459900394,632.8648445750005,None,,,,,,,,,,,,,4,001,2023_Feb_02_1046,SpeechDraft1Carolyn_lessNoise,2021.2.3,60.01861440843709,
three.wav,three.mpg,three,3,AV,Pink_Noise_3_1.wav,Pink_Noise_3_2.wav,,,,,,0,118,118,61,,,,,,,,,,,,,,,634.4817450359988,None,635.9813632809964,None,637.3649211400189,None,cream,637.3649211400189,None,return,0.8613953629974276,637.4480555719929,None,,,,,,,,,,,,,4,001,2023_Feb_02_1046,SpeechDraft1Carolyn_lessNoise,2021.2.3,60.01861440843709,
cup.wav,cup.mpg,cup,5,A,Pink_Noise_5_1.wav,Pink_Noise_5_2.wav,,,,,,0,119,119,9,,,,,,,,,,,,,,,638.331424139993,None,639.831246051006,None,641.2146166510065,None,part,641.2146166510065,None,return,0.9153819419734646,641.298143173015,None,,,,,,,,,,,,,4,001,2023_Feb_02_1046,SpeechDraft1Carolyn_lessNoise,2021.2.3,60.01861440843709,
,,,,,,,,,,,,,,,,,,,,,,,,,,,,,,,,,,,,,,,,,,,,,,,,,642.2322175659938,None,w,28465.270592684014,643.2148535790038,None,4,001,2023_Feb_02_1046,SpeechDraft1Carolyn_lessNoise,2021.2.3,60.01861440843709,
