Audio_Only_Files,Video_Files,Original_Word_List,noiseLevelCode,conditionCodes,noiseLevelFile1,noiseLevelFile2,InstrTextVar,practiceTrials.thisRepN,practiceTrials.thisTrialN,practiceTrials.thisN,practiceTrials.thisIndex,trials.thisRepN,trials.thisTrialN,trials.thisN,trials.thisIndex,letsGoAlready.keys,letsGoAlready.rt,letsGoAlready.started,letsGoAlready.stopped,text_2.started,text_2.stopped,text_3.started,text_3.stopped,key_resp_2.keys,key_resp_2.rt,key_resp_2.started,key_resp_2.stopped,text_5.started,text_5.stopped,fixCross.started,fixCross.stopped,fixCross2.started,fixCross2.stopped,answerPrompt.started,answerPrompt.stopped,getAnswer.text,getAnswer.started,getAnswer.stopped,goToNext.keys,goToNext.rt,goToNext.started,goToNext.stopped,stretchBreakTxrt.started,stretchBreakTxrt.stopped,key_resp_3.keys,key_resp_3.rt,key_resp_3.started,key_resp_3.stopped,participant,session,date,expName,psychopyVersion,frameRate,
,,,,,,,,,,,,,,,,space,15.168693335028365,11.752814927953295,None,,,,,,,,,,,,,,,,,,,,,,,,,,,,,,4,001,2022_Nov_04_1153,SpeechDraft1Carolyn_lessNoise,2021.2.3,60.010107525581105,
,,,,,,,,,,,,,,,,,,,,11.752814927953295,None,26.95262942102272,None,space,24.21879127889406,27.11868830700405,None,,,,,,,,,,,,,,,,,,,,,,4,001,2022_Nov_04_1153,SpeechDraft1Carolyn_lessNoise,2021.2.3,60.010107525581105,
ash.wav,ash.mpg,ash,1,A,Pink_Noise_1_1.wav,Pink_Noise_1_2.wav,"This is an example of an

AUDIO trial",0,0,0,0,,,,,,,,,,,,,,,,,51.38554808299523,None,52.38577729696408,None,55.28551485296339,None,56.66906081698835,None,ash,56.66906081698835,None,return,10.409597040037625,56.75181174301542,None,,,,,,,4,001,2022_Nov_04_1153,SpeechDraft1Carolyn_lessNoise,2021.2.3,60.010107525581105,
ash.wav,ash.mpg,ash,1,AV,Pink_Noise_1_1.wav,Pink_Noise_1_2.wav,"This is an example of an

AUDIO + VIDEO  trial",0,1,1,1,,,,,,,,,,,,,,,,,67.20151718892157,None,68.20208531001117,None,69.70163873001002,None,71.08541658800095,None,"ash
",71.08541658800095,None,return,3.8169701549923047,71.168443483999,None,,,,,,,4,001,2022_Nov_04_1153,SpeechDraft1Carolyn_lessNoise,2021.2.3,60.010107525581105,
,,,,,,,,,,,,,,,,,,,,,,,,,,,,,,,,,,,,,,,,,,,75.03559983498417,None,space,81.26212685392238,75.21928057202604,None,4,001,2022_Nov_04_1153,SpeechDraft1Carolyn_lessNoise,2021.2.3,60.010107525581105,
gas.wav,gas.mpg,gas,5,AV,Pink_Noise_5_1.wav,Pink_Noise_5_2.wav,,,,,,0,0,0,93,,,,,,,,,,,,,,,156.53495603101328,None,158.06853736692574,None,159.45230144902598,None,ash,159.45230144902598,None,return,4.5617376590380445,159.53567866398953,None,,,,,,,4,001,2022_Nov_04_1153,SpeechDraft1Carolyn_lessNoise,2021.2.3,60.010107525581105,
clay.wav,clay.mpg,clay,2,A,Pink_Noise_2_1.wav,Pink_Noise_2_2.wav,,,,,,0,1,1,35,,,,,,,,,,,,,,,164.11910265299957,None,165.61928804102354,None,167.0022764679743,None,"play
",167.0022764679743,None,return,1.4516979299951345,167.0857134530088,None,,,,,,,4,001,2022_Nov_04_1153,SpeechDraft1Carolyn_lessNoise,2021.2.3,60.010107525581105,
chump.wav,chump.mpg,chump,2,AV,Pink_Noise_2_1.wav,Pink_Noise_2_2.wav,,,,,,0,2,2,67,,,,,,,,,,,,,,,168.56904757092707,None,170.10236638400238,None,171.48552414798178,None,chop,171.48552414798178,None,return,2.680076949065551,171.56935722799972,None,,,,,,,4,001,2022_Nov_04_1153,SpeechDraft1Carolyn_lessNoise,2021.2.3,60.010107525581105,
tool.wav,tool.mpg,tool,1,AV,Pink_Noise_1_1.wav,Pink_Noise_1_2.wav,,,,,,0,3,3,106,,,,,,,,,,,,,,,174.26898327993695,None,175.7849599890178,None,177.168843448977,None,tour,177.168843448977,None,return,2.1896108150249347,177.25186095095705,None,,,,,,,4,001,2022_Nov_04_1153,SpeechDraft1Carolyn_lessNoise,2021.2.3,60.010107525581105,
pike.wav,pike.mpg,pike,5,A,Pink_Noise_5_1.wav,Pink_Noise_5_2.wav,,,,,,0,4,4,54,,,,,,,,,,,,,,,179.46916107996367,None,180.9857005259255,None,182.36872708797455,None,hi,182.36872708797455,None,return,2.1810537779238075,182.45244740101043,None,,,,,,,4,001,2022_Nov_04_1153,SpeechDraft1Carolyn_lessNoise,2021.2.3,60.010107525581105,
barge.wav,barge.mpg,barge,4,AV,Pink_Noise_4_1.wav,Pink_Noise_4_2.wav,,,,,,0,5,5,108,,,,,,,,,,,,,,,184.6517202790128,None,186.1847362469416,None,187.5688132030191,None,barge,187.5688132030191,None,return,1.4770224340027198,187.65238296298776,None,,,,,,,4,001,2022_Nov_04_1153,SpeechDraft1Carolyn_lessNoise,2021.2.3,60.010107525581105,
grown.wav,grown.mpg,grown,6,A,Pink_Noise_6_1.wav,Pink_Noise_6_2.wav,,,,,,0,6,6,38,,,,,,,,,,,,,,,189.15225317201111,None,190.65213843795937,None,192.03606597101316,None,play,192.03606597101316,None,return,2.2986362379742786,192.1188211629633,None,,,,,,,4,001,2022_Nov_04_1153,SpeechDraft1Carolyn_lessNoise,2021.2.3,60.010107525581105,
dot.wav,dot.mpg,dot,5,AV,Pink_Noise_5_1.wav,Pink_Noise_5_2.wav,,,,,,0,7,7,110,,,,,,,,,,,,,,,194.43535377795342,None,195.9516796999378,None,197.33523632993456,None,dot,197.33523632993456,None,return,4.070210026926361,197.41923148802016,None,,,,,,,4,001,2022_Nov_04_1153,SpeechDraft1Carolyn_lessNoise,2021.2.3,60.010107525581105,
nice.wav,nice.mpg,nice,5,A,Pink_Noise_5_1.wav,Pink_Noise_5_2.wav,,,,,,0,8,8,22,,,,,,,,,,,,,,,201.51935295795556,None,203.05232028092723,None,204.4357934879372,None,mess,204.4357934879372,None,return,1.21055369800888,204.5188559939852,None,,,,,,,4,001,2022_Nov_04_1153,SpeechDraft1Carolyn_lessNoise,2021.2.3,60.010107525581105,
fold.wav,fold.mpg,fold,2,AV,Pink_Noise_2_1.wav,Pink_Noise_2_2.wav,,,,,,0,9,9,102,,,,,,,,,,,,,,,205.75279498891905,None,207.2691051790025,None,208.6516070989892,None,fought,208.6516070989892,None,return,5.60968152503483,208.73575359897222,None,,,,,,,4,001,2022_Nov_04_1153,SpeechDraft1Carolyn_lessNoise,2021.2.3,60.010107525581105,
gust.wav,gust.mpg,gust,3,A,Pink_Noise_3_1.wav,Pink_Noise_3_2.wav,,,,,,0,10,10,12,,,,,,,,,,,,,,,214.36844985792413,None,215.90161850198638,None,217.28609626798425,None,gust,217.28609626798425,None,return,1.024243206018582,217.36916342191398,None,,,,,,,4,001,2022_Nov_04_1153,SpeechDraft1Carolyn_lessNoise,2021.2.3,60.010107525581105,
damn.wav,damn.mpg,damn,6,AV,Pink_Noise_6_1.wav,Pink_Noise_6_2.wav,,,,,,0,11,11,79,,,,,,,,,,,,,,,218.4183512480231,None,219.93539020500612,None,221.31924537499435,None,ham,221.31924537499435,None,return,5.511212851037271,221.40222065895796,None,,,,,,,4,001,2022_Nov_04_1153,SpeechDraft1Carolyn_lessNoise,2021.2.3,60.010107525581105,
gray.wav,gray.mpg,gray,1,A,Pink_Noise_1_1.wav,Pink_Noise_1_2.wav,,,,,,0,12,12,49,,,,,,,,,,,,,,,226.9357244640123,None,228.45244559796993,None,229.83508555497974,None,gray,229.83508555497974,None,return,1.0662803190061823,229.91918477101717,None,,,,,,,4,001,2022_Nov_04_1153,SpeechDraft1Carolyn_lessNoise,2021.2.3,60.010107525581105,
gag.wav,gag.mpg,gag,6,AV,Pink_Noise_6_1.wav,Pink_Noise_6_2.wav,,,,,,0,13,13,66,,,,,,,,,,,,,,,231.0019828940276,None,232.50181070691906,None,233.8859175540274,None,yam,233.8859175540274,None,return,1.7764986529946327,233.96889878401998,None,,,,,,,4,001,2022_Nov_04_1153,SpeechDraft1Carolyn_lessNoise,2021.2.3,60.010107525581105,
dump.wav,dump.mpg,dump,1,AV,Pink_Noise_1_1.wav,Pink_Noise_1_2.wav,,,,,,0,14,14,118,,,,,,,,,,,,,,,235.76947120192926,None,237.28540219995193,None,238.66874404193368,None,"dump
",238.66874404193368,None,return,1.8170625420752913,238.75234415696468,None,,,,,,,4,001,2022_Nov_04_1153,SpeechDraft1Carolyn_lessNoise,2021.2.3,60.010107525581105,
book.wav,book.mpg,book,5,AV,Pink_Noise_5_1.wav,Pink_Noise_5_2.wav,,,,,,0,15,15,99,,,,,,,,,,,,,,,240.6021490630228,None,242.1021828519879,None,243.48597466002684,None,"book
",243.48597466002684,None,return,0.9200783809646964,243.56931900396012,None,,,,,,,4,001,2022_Nov_04_1153,SpeechDraft1Carolyn_lessNoise,2021.2.3,60.010107525581105,
bib.wav,bib.mpg,bib,2,A,Pink_Noise_2_1.wav,Pink_Noise_2_2.wav,,,,,,0,16,16,34,,,,,,,,,,,,,,,244.51885245891754,None,246.03518144297414,None,247.40221452794503,None,fifth,247.40221452794503,None,return,1.0113813279895112,247.48602911294438,None,,,,,,,4,001,2022_Nov_04_1153,SpeechDraft1Carolyn_lessNoise,2021.2.3,60.010107525581105,
buy.wav,buy.mpg,buy,4,A,Pink_Noise_4_1.wav,Pink_Noise_4_2.wav,,,,,,0,17,17,17,,,,,,,,,,,,,,,248.51871701993514,None,250.0189354600152,None,251.40226073993836,None,five,251.40226073993836,None,return,0.41130503499880433,251.48610764893238,None,,,,,,,4,001,2022_Nov_04_1153,SpeechDraft1Carolyn_lessNoise,2021.2.3,60.010107525581105,
bright.wav,bright.mpg,bright,4,A,Pink_Noise_4_1.wav,Pink_Noise_4_2.wav,,,,,,0,18,18,41,,,,,,,,,,,,,,,251.9188198989723,None,253.41894164902624,None,254.80255963501986,None,"great
",254.80255963501986,None,return,0.651720599969849,254.8857045249315,None,,,,,,,4,001,2022_Nov_04_1153,SpeechDraft1Carolyn_lessNoise,2021.2.3,60.010107525581105,
cure.wav,cure.mpg,cure,3,AV,Pink_Noise_3_1.wav,Pink_Noise_3_2.wav,,,,,,0,19,19,73,,,,,,,,,,,,,,,255.56867806299124,None,257.06938081700355,None,258.4525171479909,None,cure,258.4525171479909,None,return,0.6817935809958726,258.5356794350082,None,,,,,,,4,001,2022_Nov_04_1153,SpeechDraft1Carolyn_lessNoise,2021.2.3,60.010107525581105,
doom.wav,doom.mpg,doom,6,AV,Pink_Noise_6_1.wav,Pink_Noise_6_2.wav,,,,,,0,20,20,105,,,,,,,,,,,,,,,259.2364621759625,None,260.75238357891794,None,262.1355239219265,None,you,262.1355239219265,None,return,4.046401833998971,262.219012320973,None,,,,,,,4,001,2022_Nov_04_1153,SpeechDraft1Carolyn_lessNoise,2021.2.3,60.010107525581105,
bound.wav,bound.mpg,bound,6,AV,Pink_Noise_6_1.wav,Pink_Noise_6_2.wav,,,,,,0,21,21,91,,,,,,,,,,,,,,,266.2855129679665,None,267.80199738498777,None,269.1861330330139,None,bound,269.1861330330139,None,return,1.5563730120193213,269.26913443696685,None,,,,,,,4,001,2022_Nov_04_1153,SpeechDraft1Carolyn_lessNoise,2021.2.3,60.010107525581105,
dual.wav,dual.mpg,dual,5,AV,Pink_Noise_5_1.wav,Pink_Noise_5_2.wav,,,,,,0,22,22,116,,,,,,,,,,,,,,,270.853060186957,None,272.3694854140049,None,273.75263640494086,None,chore,273.75263640494086,None,return,2.3894508259836584,273.83602827996947,None,,,,,,,4,001,2022_Nov_04_1153,SpeechDraft1Carolyn_lessNoise,2021.2.3,60.010107525581105,
dip.wav,dip.mpg,dip,3,A,Pink_Noise_3_1.wav,Pink_Noise_3_2.wav,,,,,,0,23,23,26,,,,,,,,,,,,,,,276.2520758769242,None,277.75289095402695,None,279.13619072397705,None,"dip
",279.13619072397705,None,return,0.934186204103753,279.2192223359598,None,,,,,,,4,001,2022_Nov_04_1153,SpeechDraft1Carolyn_lessNoise,2021.2.3,60.010107525581105,
crack.wav,crack.mpg,crack,4,AV,Pink_Noise_4_1.wav,Pink_Noise_4_2.wav,,,,,,0,24,24,81,,,,,,,,,,,,,,,280.186141632963,None,281.70228159299586,None,283.08645683992654,None,crack,283.08645683992654,None,return,1.0967654089909047,283.1686546719866,None,,,,,,,4,001,2022_Nov_04_1153,SpeechDraft1Carolyn_lessNoise,2021.2.3,60.010107525581105,
fright.wav,fright.mpg,fright,4,AV,Pink_Noise_4_1.wav,Pink_Noise_4_2.wav,,,,,,0,25,25,64,,,,,,,,,,,,,,,284.28615700197406,None,285.8025308189681,None,287.1861355409492,None,fright,287.1861355409492,None,return,3.1725514139980078,287.2689328279812,None,,,,,,,4,001,2022_Nov_04_1153,SpeechDraft1Carolyn_lessNoise,2021.2.3,60.010107525581105,
drum.wav,drum.mpg,drum,2,A,Pink_Noise_2_1.wav,Pink_Noise_2_2.wav,,,,,,0,26,26,28,,,,,,,,,,,,,,,290.4687116650166,None,292.00202047498897,None,293.38621125393547,None,"drum
",293.38621125393547,None,return,0.7881392609560862,293.4692858150229,None,,,,,,,4,001,2022_Nov_04_1153,SpeechDraft1Carolyn_lessNoise,2021.2.3,60.010107525581105,
drug.wav,drug.mpg,drug,6,A,Pink_Noise_6_1.wav,Pink_Noise_6_2.wav,,,,,,0,27,27,44,,,,,,,,,,,,,,,294.2856692150235,None,295.8017246220261,None,297.1858790189726,None,right,297.1858790189726,None,return,1.3720956649631262,297.2694229889894,None,,,,,,,4,001,2022_Nov_04_1153,SpeechDraft1Carolyn_lessNoise,2021.2.3,60.010107525581105,
dance.wav,dance.mpg,dance,2,A,Pink_Noise_2_1.wav,Pink_Noise_2_2.wav,,,,,,0,28,28,19,,,,,,,,,,,,,,,298.6685269899899,None,300.1860281249974,None,301.5519952089526,None,dance,301.5519952089526,None,return,0.6053352960152552,301.63611960900016,None,,,,,,,4,001,2022_Nov_04_1153,SpeechDraft1Carolyn_lessNoise,2021.2.3,60.010107525581105,
bottle.wav,bottle.mpg,bottle,3,A,Pink_Noise_3_1.wav,Pink_Noise_3_2.wav,,,,,,0,29,29,1,,,,,,,,,,,,,,,302.2687329009641,None,303.7684408259811,None,305.1528525259346,None,bottle,305.1528525259346,None,return,1.1259191429708153,305.23548803594895,None,,,,,,,4,001,2022_Nov_04_1153,SpeechDraft1Carolyn_lessNoise,2021.2.3,60.010107525581105,
glad.wav,glad.mpg,glad,6,A,Pink_Noise_6_1.wav,Pink_Noise_6_2.wav,,,,,,0,30,30,9,,,,,,,,,,,,,,,306.3861777950078,None,307.9026838740101,None,309.28600337402895,None,"crack
",309.28600337402895,None,return,2.1363264539977536,309.3691062889993,None,,,,,,,4,001,2022_Nov_04_1153,SpeechDraft1Carolyn_lessNoise,2021.2.3,60.010107525581105,
brand.wav,brand.mpg,brand,4,AV,Pink_Noise_4_1.wav,Pink_Noise_4_2.wav,,,,,,0,31,31,117,,,,,,,,,,,,,,,311.5358312429162,None,313.05262294597924,None,314.4353837479139,None,brand,314.4353837479139,None,return,0.6901631900109351,314.5194092799211,None,,,,,,,4,001,2022_Nov_04_1153,SpeechDraft1Carolyn_lessNoise,2021.2.3,60.010107525581105,
barn.wav,barn.mpg,barn,6,AV,Pink_Noise_6_1.wav,Pink_Noise_6_2.wav,,,,,,0,32,32,111,,,,,,,,,,,,,,,315.2359439349966,None,316.75196465698536,None,318.13547444797587,None,pound,318.13547444797587,None,return,1.0781731950119138,318.2192400119966,None,,,,,,,4,001,2022_Nov_04_1153,SpeechDraft1Carolyn_lessNoise,2021.2.3,60.010107525581105,
cease.wav,cease.mpg,cease,1,A,Pink_Noise_1_1.wav,Pink_Noise_1_2.wav,,,,,,0,33,33,4,,,,,,,,,,,,,,,319.31923327292316,None,320.8191816819599,None,322.2027694309363,None,"sees
",322.2027694309363,None,return,2.0353553850436583,322.28605128102936,None,,,,,,,4,001,2022_Nov_04_1153,SpeechDraft1Carolyn_lessNoise,2021.2.3,60.010107525581105,
crown.wav,crown.mpg,crown,2,A,Pink_Noise_2_1.wav,Pink_Noise_2_2.wav,,,,,,0,34,34,20,,,,,,,,,,,,,,,324.35285609797575,None,325.86872607201803,None,327.2524734470062,None,"crown
",327.2524734470062,None,return,0.8172609499888495,327.3361496300204,None,,,,,,,4,001,2022_Nov_04_1153,SpeechDraft1Carolyn_lessNoise,2021.2.3,60.010107525581105,
clot.wav,clot.mpg,clot,4,AV,Pink_Noise_4_1.wav,Pink_Noise_4_2.wav,,,,,,0,35,35,112,,,,,,,,,,,,,,,328.18619407794904,None,329.70173308299854,None,331.08523224201053,None,"clout
",331.08523224201053,None,return,1.98409807193093,331.1693111259956,None,,,,,,,4,001,2022_Nov_04_1153,SpeechDraft1Carolyn_lessNoise,2021.2.3,60.010107525581105,
grunt.wav,grunt.mpg,grunt,5,A,Pink_Noise_5_1.wav,Pink_Noise_5_2.wav,,,,,,0,36,36,14,,,,,,,,,,,,,,,333.1853217689786,None,334.70195281901397,None,336.0851835940266,None,"crane
",336.0851835940266,None,return,4.999970796983689,336.1694598150207,None,,,,,,,4,001,2022_Nov_04_1153,SpeechDraft1Carolyn_lessNoise,2021.2.3,60.010107525581105,
earth.wav,earth.mpg,earth,3,AV,Pink_Noise_3_1.wav,Pink_Noise_3_2.wav,,,,,,0,37,37,92,,,,,,,,,,,,,,,341.20315912691876,None,342.75298588199075,None,344.1359996149549,None,"earth
",344.1359996149549,None,return,0.6865068019833416,344.2189237339189,None,,,,,,,4,001,2022_Nov_04_1153,SpeechDraft1Carolyn_lessNoise,2021.2.3,60.010107525581105,
three.wav,three.mpg,three,3,AV,Pink_Noise_3_1.wav,Pink_Noise_3_2.wav,,,,,,0,38,38,71,,,,,,,,,,,,,,,344.9355787639506,None,346.4356126389466,None,347.81954563595355,None,three,347.81954563595355,None,return,0.9470626800321043,347.9023598849308,None,,,,,,,4,001,2022_Nov_04_1153,SpeechDraft1Carolyn_lessNoise,2021.2.3,60.010107525581105,
flush.wav,flush.mpg,flush,5,A,Pink_Noise_5_1.wav,Pink_Noise_5_2.wav,,,,,,0,39,39,27,,,,,,,,,,,,,,,348.86906653502956,None,350.4185329109896,None,351.80260008596815,None,"brush
",351.80260008596815,None,return,1.2030363549711183,351.8863855769159,None,,,,,,,4,001,2022_Nov_04_1153,SpeechDraft1Carolyn_lessNoise,2021.2.3,60.010107525581105,
stuck.wav,stuck.mpg,stuck,5,A,Pink_Noise_5_1.wav,Pink_Noise_5_2.wav,,,,,,0,40,40,33,,,,,,,,,,,,,,,353.11870002001524,None,354.6353751029819,None,356.01926064898726,None,stump,356.01926064898726,None,return,1.0430083699757233,356.10239787294995,None,,,,,,,4,001,2022_Nov_04_1153,SpeechDraft1Carolyn_lessNoise,2021.2.3,60.010107525581105,
frail.wav,frail.mpg,frail,4,A,Pink_Noise_4_1.wav,Pink_Noise_4_2.wav,,,,,,0,41,41,10,,,,,,,,,,,,,,,357.16915247694124,None,358.6859337949427,None,360.0694696549326,None,"trail
",360.0694696549326,None,return,0.9692391420248896,360.15216561802663,None,,,,,,,4,001,2022_Nov_04_1153,SpeechDraft1Carolyn_lessNoise,2021.2.3,60.010107525581105,
bull.wav,bull.mpg,bull,1,AV,Pink_Noise_1_1.wav,Pink_Noise_1_2.wav,,,,,,0,42,42,75,,,,,,,,,,,,,,,361.1520303679863,None,362.65220269793645,None,364.03608365997206,None,"bowl
",364.03608365997206,None,return,0.6343048640992492,364.11912344791926,None,,,,,,,4,001,2022_Nov_04_1153,SpeechDraft1Carolyn_lessNoise,2021.2.3,60.010107525581105,
break.wav,break.mpg,break,1,A,Pink_Noise_1_1.wav,Pink_Noise_1_2.wav,,,,,,0,43,43,45,,,,,,,,,,,,,,,364.78627964598127,None,366.2853751980001,None,367.6689418449532,None,break,367.6689418449532,None,return,2.8325576540082693,367.75298242794815,None,,,,,,,4,001,2022_Nov_04_1153,SpeechDraft1Carolyn_lessNoise,2021.2.3,60.010107525581105,
cab.wav,cab.mpg,cab,3,A,Pink_Noise_3_1.wav,Pink_Noise_3_2.wav,,,,,,0,44,44,18,,,,,,,,,,,,,,,370.6026847389294,None,372.15247499593534,None,373.5359940499766,None,"calf
",373.5359940499766,None,return,1.469962365925312,373.61944518901873,None,,,,,,,4,001,2022_Nov_04_1153,SpeechDraft1Carolyn_lessNoise,2021.2.3,60.010107525581105,
cent.wav,cent.mpg,cent,4,A,Pink_Noise_4_1.wav,Pink_Noise_4_2.wav,,,,,,0,45,45,37,,,,,,,,,,,,,,,375.11943431093823,None,376.6188801989192,None,378.00273815798573,None,set,378.00273815798573,None,return,0.4116499209776521,378.0857545279432,None,,,,,,,4,001,2022_Nov_04_1153,SpeechDraft1Carolyn_lessNoise,2021.2.3,60.010107525581105,
feast.wav,feast.mpg,feast,3,AV,Pink_Noise_3_1.wav,Pink_Noise_3_2.wav,,,,,,0,46,46,83,,,,,,,,,,,,,,,378.51879386394285,None,380.0363183679292,None,381.4189959989162,None,"feast
",381.4189959989162,None,return,0.618763888021931,381.5026440729853,None,,,,,,,4,001,2022_Nov_04_1153,SpeechDraft1Carolyn_lessNoise,2021.2.3,60.010107525581105,
spray.wav,spray.mpg,spray,3,AV,Pink_Noise_3_1.wav,Pink_Noise_3_2.wav,,,,,,0,47,47,76,,,,,,,,,,,,,,,382.15267889993265,None,383.6691004920285,None,385.0524199579377,None,spray,385.0524199579377,None,return,3.0094664559001103,385.13590959401336,None,,,,,,,4,001,2022_Nov_04_1153,SpeechDraft1Carolyn_lessNoise,2021.2.3,60.010107525581105,
bridge.wav,bridge.mpg,bridge,1,AV,Pink_Noise_1_1.wav,Pink_Noise_1_2.wav,,,,,,0,48,48,70,,,,,,,,,,,,,,,388.1697916489793,None,389.6691567020025,None,391.05222718801815,None,bridge,391.05222718801815,None,return,2.6893717729253694,391.1521363829961,None,,,,,,,4,001,2022_Nov_04_1153,SpeechDraft1Carolyn_lessNoise,2021.2.3,60.010107525581105,
cleft.wav,cleft.mpg,cleft,5,AV,Pink_Noise_5_1.wav,Pink_Noise_5_2.wav,,,,,,0,49,49,94,,,,,,,,,,,,,,,393.8689626249252,None,395.4023640899686,None,396.7856457749149,None,"claft
",396.7856457749149,None,return,1.0681776689598337,396.8692375259707,None,,,,,,,4,001,2022_Nov_04_1153,SpeechDraft1Carolyn_lessNoise,2021.2.3,60.010107525581105,
led.wav,led.mpg,led,5,AV,Pink_Noise_5_1.wav,Pink_Noise_5_2.wav,,,,,,0,50,50,80,,,,,,,,,,,,,,,397.96871401998214,None,399.4851852839347,None,400.85275080497377,None,length,400.85275080497377,None,return,1.4732784390216693,400.936200784985,None,,,,,,,4,001,2022_Nov_04_1153,SpeechDraft1Carolyn_lessNoise,2021.2.3,60.010107525581105,
goat.wav,goat.mpg,goat,2,AV,Pink_Noise_2_1.wav,Pink_Noise_2_2.wav,,,,,,0,51,51,98,,,,,,,,,,,,,,,402.43590658996254,None,403.95204121794086,None,405.33584963099565,None,goat,405.33584963099565,None,return,2.5981705880258232,405.41932674800046,None,,,,,,,4,001,2022_Nov_04_1153,SpeechDraft1Carolyn_lessNoise,2021.2.3,60.010107525581105,
style.wav,style.mpg,style,5,A,Pink_Noise_5_1.wav,Pink_Noise_5_2.wav,,,,,,0,52,52,48,,,,,,,,,,,,,,,408.0363018079661,None,409.5355074389372,None,410.91952022199985,None,style,410.91952022199985,None,return,0.6940671959891915,411.00333906698506,None,,,,,,,4,001,2022_Nov_04_1153,SpeechDraft1Carolyn_lessNoise,2021.2.3,60.010107525581105,
dense.wav,dense.mpg,dense,6,AV,Pink_Noise_6_1.wav,Pink_Noise_6_2.wav,,,,,,0,53,53,97,,,,,,,,,,,,,,,411.719115559943,None,413.2188444399508,None,414.6030898609897,None,"dance
",414.6030898609897,None,return,0.8353275129338726,414.6860900130123,None,,,,,,,4,001,2022_Nov_04_1153,SpeechDraft1Carolyn_lessNoise,2021.2.3,60.010107525581105,
cold.wav,cold.mpg,cold,2,A,Pink_Noise_2_1.wav,Pink_Noise_2_2.wav,,,,,,0,54,54,55,,,,,,,,,,,,,,,415.5523996700067,None,417.0693061819766,None,418.45290240400936,None,"cord
",418.45290240400936,None,return,0.617367772036232,418.53604089492,None,,,,,,,4,001,2022_Nov_04_1153,SpeechDraft1Carolyn_lessNoise,2021.2.3,60.010107525581105,
choke.wav,choke.mpg,choke,6,A,Pink_Noise_6_1.wav,Pink_Noise_6_2.wav,,,,,,0,55,55,30,,,,,,,,,,,,,,,419.1860921100015,None,420.6861373980064,None,422.0691788960248,None,place,422.0691788960248,None,return,2.4567488520406187,422.1528533620294,None,,,,,,,4,001,2022_Nov_04_1153,SpeechDraft1Carolyn_lessNoise,2021.2.3,60.010107525581105,
client.wav,client.mpg,client,4,AV,Pink_Noise_4_1.wav,Pink_Noise_4_2.wav,,,,,,0,56,56,104,,,,,,,,,,,,,,,424.63635855796747,None,426.1521194570232,None,427.53567252797075,None,client,427.53567252797075,None,return,2.2304339839611202,427.6190556299407,None,,,,,,,4,001,2022_Nov_04_1153,SpeechDraft1Carolyn_lessNoise,2021.2.3,60.010107525581105,
calm.wav,calm.mpg,calm,2,A,Pink_Noise_2_1.wav,Pink_Noise_2_2.wav,,,,,,0,57,57,5,,,,,,,,,,,,,,,429.86958093196154,None,431.3694759819191,None,432.75275101698935,None,calm,432.75275101698935,None,return,0.812996543943882,432.8364130699774,None,,,,,,,4,001,2022_Nov_04_1153,SpeechDraft1Carolyn_lessNoise,2021.2.3,60.010107525581105,
swayed.wav,swayed.mpg,swayed,4,A,Pink_Noise_4_1.wav,Pink_Noise_4_2.wav,,,,,,0,58,58,29,,,,,,,,,,,,,,,433.66949494893197,None,435.18587627401575,None,436.569574470981,None,"sway
",436.569574470981,None,return,0.9008230830077082,436.6525838129455,None,,,,,,,4,001,2022_Nov_04_1153,SpeechDraft1Carolyn_lessNoise,2021.2.3,60.010107525581105,
fable.wav,fable.mpg,fable,6,A,Pink_Noise_6_1.wav,Pink_Noise_6_2.wav,,,,,,0,59,59,50,,,,,,,,,,,,,,,437.585462598945,None,439.1021342530148,None,440.48578657594044,None,fade,440.48578657594044,None,return,3.4082131650066003,440.5691886449931,None,,,,,,,4,001,2022_Nov_04_1153,SpeechDraft1Carolyn_lessNoise,2021.2.3,60.010107525581105,
dash.wav,dash.mpg,dash,6,AV,Pink_Noise_6_1.wav,Pink_Noise_6_2.wav,,,,,,0,60,60,119,,,,,,,,,,,,,,,444.0030327360146,None,445.51937563496176,None,446.9030796829611,None,ash,446.9030796829611,None,return,2.031670159078203,446.9857748739887,None,,,,,,,4,001,2022_Nov_04_1153,SpeechDraft1Carolyn_lessNoise,2021.2.3,60.010107525581105,
chant.wav,chant.mpg,chant,6,AV,Pink_Noise_6_1.wav,Pink_Noise_6_2.wav,,,,,,0,61,61,89,,,,,,,,,,,,,,,449.0359289639164,None,450.55249441601336,None,451.9359466859605,None,chance,451.9359466859605,None,return,0.9259446249343455,452.01945246302057,None,,,,,,,4,001,2022_Nov_04_1153,SpeechDraft1Carolyn_lessNoise,2021.2.3,60.010107525581105,
bad.wav,bad.mpg,bad,6,AV,Pink_Noise_6_1.wav,Pink_Noise_6_2.wav,,,,,,0,62,62,86,,,,,,,,,,,,,,,452.96917597495485,None,454.4698573750211,None,455.85272273095325,None,bad,455.85272273095325,None,return,0.9774365579942241,455.9360126479296,None,,,,,,,4,001,2022_Nov_04_1153,SpeechDraft1Carolyn_lessNoise,2021.2.3,60.010107525581105,
awe.wav,awe.mpg,awe,4,A,Pink_Noise_4_1.wav,Pink_Noise_4_2.wav,,,,,,0,63,63,42,,,,,,,,,,,,,,,456.935510491021,None,458.4696857109666,None,459.852436853922,None,"arm
",459.852436853922,None,return,1.8175682360306382,459.9358336889418,None,,,,,,,4,001,2022_Nov_04_1153,SpeechDraft1Carolyn_lessNoise,2021.2.3,60.010107525581105,
grade.wav,grade.mpg,grade,5,A,Pink_Noise_5_1.wav,Pink_Noise_5_2.wav,,,,,,0,64,64,39,,,,,,,,,,,,,,,461.7860803799704,None,463.2853956859326,None,464.6693123829318,None,gray,464.6693123829318,None,return,0.5769197450717911,464.7524847310269,None,,,,,,,4,001,2022_Nov_04_1153,SpeechDraft1Carolyn_lessNoise,2021.2.3,60.010107525581105,
greed.wav,greed.mpg,greed,3,AV,Pink_Noise_3_1.wav,Pink_Noise_3_2.wav,,,,,,0,65,65,72,,,,,,,,,,,,,,,465.3526384399738,None,466.85239766398445,None,468.2362248590216,None,greet,468.2362248590216,None,return,0.6099923040019348,468.3194130139891,None,,,,,,,4,001,2022_Nov_04_1153,SpeechDraft1Carolyn_lessNoise,2021.2.3,60.010107525581105,
chow.wav,chow.mpg,chow,1,A,Pink_Noise_1_1.wav,Pink_Noise_1_2.wav,,,,,,0,66,66,16,,,,,,,,,,,,,,,468.95272694993764,None,470.4690238359617,None,471.8362429640256,None,chow,471.8362429640256,None,return,16.697995989001356,471.91948968195356,None,,,,,,,4,001,2022_Nov_04_1153,SpeechDraft1Carolyn_lessNoise,2021.2.3,60.010107525581105,
rent.wav,rent.mpg,rent,1,AV,Pink_Noise_1_1.wav,Pink_Noise_1_2.wav,,,,,,0,67,67,90,,,,,,,,,,,,,,,488.6360620589694,None,490.1855101189576,None,491.5526419369271,None,rent,491.5526419369271,None,return,0.9979300770210102,491.6354953539558,None,,,,,,,4,001,2022_Nov_04_1153,SpeechDraft1Carolyn_lessNoise,2021.2.3,60.010107525581105,
clock.wav,clock.mpg,clock,5,AV,Pink_Noise_5_1.wav,Pink_Noise_5_2.wav,,,,,,0,68,68,95,,,,,,,,,,,,,,,492.6526639009826,None,494.15352604701184,None,495.53609347192105,None,clock,495.53609347192105,None,return,0.8939971959916875,495.6194111269433,None,,,,,,,4,001,2022_Nov_04_1153,SpeechDraft1Carolyn_lessNoise,2021.2.3,60.010107525581105,
flip.wav,flip.mpg,flip,3,AV,Pink_Noise_3_1.wav,Pink_Noise_3_2.wav,,,,,,0,69,69,65,,,,,,,,,,,,,,,496.5362093389267,None,498.0518770299386,None,499.4360412529204,None,clip,499.4360412529204,None,return,0.7064962619915605,499.5190279550152,None,,,,,,,4,001,2022_Nov_04_1153,SpeechDraft1Carolyn_lessNoise,2021.2.3,60.010107525581105,
claw.wav,claw.mpg,claw,2,AV,Pink_Noise_2_1.wav,Pink_Noise_2_2.wav,,,,,,0,70,70,69,,,,,,,,,,,,,,,500.2531383599853,None,501.76923508092295,None,503.15294377994724,None,claw,503.15294377994724,None,return,1.9251902629621327,503.2362136269221,None,,,,,,,4,001,2022_Nov_04_1153,SpeechDraft1Carolyn_lessNoise,2021.2.3,60.010107525581105,
earn.wav,earn.mpg,earn,6,A,Pink_Noise_6_1.wav,Pink_Noise_6_2.wav,,,,,,0,71,71,15,,,,,,,,,,,,,,,505.18548525101505,None,506.7029022689676,None,508.08623160002753,None,earth,508.08623160002753,None,return,1.9440996929770336,508.1693111999193,None,,,,,,,4,001,2022_Nov_04_1153,SpeechDraft1Carolyn_lessNoise,2021.2.3,60.010107525581105,
globe.wav,globe.mpg,globe,2,AV,Pink_Noise_2_1.wav,Pink_Noise_2_2.wav,,,,,,0,72,72,63,,,,,,,,,,,,,,,510.13639638002496,None,511.6528886569431,None,513.0361035759561,None,"globe
",513.0361035759561,None,return,3.834057468920946,513.1193461170187,None,,,,,,,4,001,2022_Nov_04_1153,SpeechDraft1Carolyn_lessNoise,2021.2.3,60.010107525581105,
duct.wav,duct.mpg,duct,4,A,Pink_Noise_4_1.wav,Pink_Noise_4_2.wav,,,,,,0,73,73,32,,,,,,,,,,,,,,,516.9863042170182,None,518.5193471870152,None,519.9023776400136,None,dot,519.9023776400136,None,return,1.455868126009591,519.9856472789543,None,,,,,,,4,001,2022_Nov_04_1153,SpeechDraft1Carolyn_lessNoise,2021.2.3,60.010107525581105,
strike.wav,strike.mpg,strike,5,AV,Pink_Noise_5_1.wav,Pink_Noise_5_2.wav,,,,,,0,74,74,61,,,,,,,,,,,,,,,521.4694993289886,None,522.9689352689311,None,524.3526469930075,None,strike,524.3526469930075,None,return,1.0609421459957957,524.4364529820159,None,,,,,,,4,001,2022_Nov_04_1153,SpeechDraft1Carolyn_lessNoise,2021.2.3,60.010107525581105,
quit.wav,quit.mpg,quit,6,A,Pink_Noise_6_1.wav,Pink_Noise_6_2.wav,,,,,,0,75,75,57,,,,,,,,,,,,,,,525.5193252769532,None,527.0354495069478,None,528.4026775539387,None,"quick
",528.4026775539387,None,return,0.8029546389589086,528.5024414239451,None,,,,,,,4,001,2022_Nov_04_1153,SpeechDraft1Carolyn_lessNoise,2021.2.3,60.010107525581105,
forth.wav,forth.mpg,forth,5,A,Pink_Noise_5_1.wav,Pink_Noise_5_2.wav,,,,,,0,76,76,24,,,,,,,,,,,,,,,529.3362231309293,None,530.8521929309936,None,532.2201787990052,None,"poor
",532.2201787990052,None,return,0.7709012010600418,532.3024984499207,None,,,,,,,4,001,2022_Nov_04_1153,SpeechDraft1Carolyn_lessNoise,2021.2.3,60.010107525581105,
stain.wav,stain.mpg,stain,2,A,Pink_Noise_2_1.wav,Pink_Noise_2_2.wav,,,,,,0,77,77,21,,,,,,,,,,,,,,,533.1028730929829,None,534.6022010979941,None,535.9859614400193,None,stain,535.9859614400193,None,return,1.8115915639791638,536.0698388100136,None,,,,,,,4,001,2022_Nov_04_1153,SpeechDraft1Carolyn_lessNoise,2021.2.3,60.010107525581105,
booth.wav,booth.mpg,booth,2,A,Pink_Noise_2_1.wav,Pink_Noise_2_2.wav,,,,,,0,78,78,25,,,,,,,,,,,,,,,537.9032023519976,None,539.4531576109584,None,540.835995013942,None,booth,540.835995013942,None,return,2.8099315549479797,540.9194962069159,None,,,,,,,4,001,2022_Nov_04_1153,SpeechDraft1Carolyn_lessNoise,2021.2.3,60.010107525581105,
strive.wav,strive.mpg,strive,2,AV,Pink_Noise_2_1.wav,Pink_Noise_2_2.wav,,,,,,0,79,79,84,,,,,,,,,,,,,,,543.7525397189893,None,545.3031268760096,None,546.6690185900079,None,strive,546.6690185900079,None,return,1.0647401800379157,546.7527400009567,None,,,,,,,4,001,2022_Nov_04_1153,SpeechDraft1Carolyn_lessNoise,2021.2.3,60.010107525581105,
bulb.wav,bulb.mpg,bulb,4,AV,Pink_Noise_4_1.wav,Pink_Noise_4_2.wav,,,,,,0,80,80,115,,,,,,,,,,,,,,,547.8359191759955,None,549.3520900189178,None,550.7363747949712,None,blame,550.7363747949712,None,return,2.4779257050249726,550.8194692599354,None,,,,,,,4,001,2022_Nov_04_1153,SpeechDraft1Carolyn_lessNoise,2021.2.3,60.010107525581105,
flask.wav,flask.mpg,flask,5,AV,Pink_Noise_5_1.wav,Pink_Noise_5_2.wav,,,,,,0,81,81,101,,,,,,,,,,,,,,,553.3188375419704,None,554.8357255029259,None,556.2190521389712,None,flask,556.2190521389712,None,return,1.1463759409962222,556.30305455497,None,,,,,,,4,001,2022_Nov_04_1153,SpeechDraft1Carolyn_lessNoise,2021.2.3,60.010107525581105,
flake.wav,flake.mpg,flake,4,AV,Pink_Noise_4_1.wav,Pink_Noise_4_2.wav,,,,,,0,82,82,85,,,,,,,,,,,,,,,557.4699242690112,None,559.0193354539806,None,560.4030828269897,None,freal,560.4030828269897,None,return,2.0434665790526196,560.4859234750038,None,,,,,,,4,001,2022_Nov_04_1153,SpeechDraft1Carolyn_lessNoise,2021.2.3,60.010107525581105,
frame.wav,frame.mpg,frame,3,AV,Pink_Noise_3_1.wav,Pink_Noise_3_2.wav,,,,,,0,83,83,103,,,,,,,,,,,,,,,562.5533883000026,None,564.05299508397,None,565.4358897319762,None,frame,565.4358897319762,None,return,3.122287259087898,565.5192296369933,None,,,,,,,4,001,2022_Nov_04_1153,SpeechDraft1Carolyn_lessNoise,2021.2.3,60.010107525581105,
bomb.wav,bomb.mpg,bomb,2,AV,Pink_Noise_2_1.wav,Pink_Noise_2_2.wav,,,,,,0,84,84,109,,,,,,,,,,,,,,,568.669549944927,None,570.2196261020144,None,571.6030097110197,None,balm,571.6030097110197,None,return,1.995639706030488,571.6857978269691,None,,,,,,,4,001,2022_Nov_04_1153,SpeechDraft1Carolyn_lessNoise,2021.2.3,60.010107525581105,
gang.wav,gang.mpg,gang,1,AV,Pink_Noise_1_1.wav,Pink_Noise_1_2.wav,,,,,,0,85,85,87,,,,,,,,,,,,,,,573.7027427819557,None,575.2022908260114,None,576.5859897859627,None,"gang
",576.5859897859627,None,return,1.0675286140758544,576.6698768709321,None,,,,,,,4,001,2022_Nov_04_1153,SpeechDraft1Carolyn_lessNoise,2021.2.3,60.010107525581105,
freak.wav,freak.mpg,freak,3,A,Pink_Noise_3_1.wav,Pink_Noise_3_2.wav,,,,,,0,86,86,40,,,,,,,,,,,,,,,577.769778496935,None,579.2690792150097,None,580.652651272947,None,freak,580.652651272947,None,return,1.8096426849951968,580.735752254026,None,,,,,,,4,001,2022_Nov_04_1153,SpeechDraft1Carolyn_lessNoise,2021.2.3,60.010107525581105,
flood.wav,flood.mpg,flood,3,A,Pink_Noise_3_1.wav,Pink_Noise_3_2.wav,,,,,,0,87,87,0,,,,,,,,,,,,,,,582.5694237679709,None,584.085995996953,None,585.4699285509996,None,blood,585.4699285509996,None,return,1.2724122570361942,585.5530564920045,None,,,,,,,4,001,2022_Nov_04_1153,SpeechDraft1Carolyn_lessNoise,2021.2.3,60.010107525581105,
blue.wav,blue.mpg,blue,6,A,Pink_Noise_6_1.wav,Pink_Noise_6_2.wav,,,,,,0,88,88,11,,,,,,,,,,,,,,,586.8533331729705,None,588.3689999700291,None,589.7533515039831,None,woof,589.7533515039831,None,return,1.4290308370254934,589.8364227130078,None,,,,,,,4,001,2022_Nov_04_1153,SpeechDraft1Carolyn_lessNoise,2021.2.3,60.010107525581105,
champ.wav,champ.mpg,champ,1,A,Pink_Noise_1_1.wav,Pink_Noise_1_2.wav,,,,,,0,89,89,56,,,,,,,,,,,,,,,591.2862811959349,None,592.8193151840242,None,594.1862787459977,None,champ,594.1862787459977,None,return,1.3080228390172124,594.2693928439403,None,,,,,,,4,001,2022_Nov_04_1153,SpeechDraft1Carolyn_lessNoise,2021.2.3,60.010107525581105,
foot.wav,foot.mpg,foot,3,AV,Pink_Noise_3_1.wav,Pink_Noise_3_2.wav,,,,,,0,90,90,77,,,,,,,,,,,,,,,595.6026313159382,None,597.1020801679697,None,598.4863513309974,None,"foot
",598.4863513309974,None,return,0.7040484069148079,598.5693426569924,None,,,,,,,4,001,2022_Nov_04_1153,SpeechDraft1Carolyn_lessNoise,2021.2.3,60.010107525581105,
gift.wav,gift.mpg,gift,1,A,Pink_Noise_1_1.wav,Pink_Noise_1_2.wav,,,,,,0,91,91,31,,,,,,,,,,,,,,,599.302976869978,None,600.8521662949352,None,602.2359163329238,None,"gift
",602.2359163329238,None,return,1.9694127850234509,602.319985485985,None,,,,,,,4,001,2022_Nov_04_1153,SpeechDraft1Carolyn_lessNoise,2021.2.3,60.010107525581105,
blush.wav,blush.mpg,blush,4,AV,Pink_Noise_4_1.wav,Pink_Noise_4_2.wav,,,,,,0,92,92,62,,,,,,,,,,,,,,,604.3189652649453,None,605.8365944810212,None,607.2191762740258,None,blush,607.2191762740258,None,return,1.0902269339421764,607.3031703389715,None,,,,,,,4,001,2022_Nov_04_1153,SpeechDraft1Carolyn_lessNoise,2021.2.3,60.010107525581105,
broil.wav,broil.mpg,broil,2,AV,Pink_Noise_2_1.wav,Pink_Noise_2_2.wav,,,,,,0,93,93,88,,,,,,,,,,,,,,,608.41938974394,None,609.9195716829272,None,611.3028711809311,None,brew,611.3028711809311,None,return,5.143256940995343,611.3861533899326,None,,,,,,,4,001,2022_Nov_04_1153,SpeechDraft1Carolyn_lessNoise,2021.2.3,60.010107525581105,
beef.wav,beef.mpg,beef,4,A,Pink_Noise_4_1.wav,Pink_Noise_4_2.wav,,,,,,0,94,94,23,,,,,,,,,,,,,,,616.5531333649997,None,618.0856410779525,None,619.4691580359358,None,beef,619.4691580359358,None,return,0.6250378569820896,619.5523670489201,None,,,,,,,4,001,2022_Nov_04_1153,SpeechDraft1Carolyn_lessNoise,2021.2.3,60.010107525581105,
gate.wav,gate.mpg,gate,6,AV,Pink_Noise_6_1.wav,Pink_Noise_6_2.wav,,,,,,0,95,95,74,,,,,,,,,,,,,,,620.2031569029205,None,621.7197000900051,None,623.1028819539351,None,game,623.1028819539351,None,return,7.974670364055783,623.1867322479375,None,,,,,,,4,001,2022_Nov_04_1153,SpeechDraft1Carolyn_lessNoise,2021.2.3,60.010107525581105,
bowl.wav,bowl.mpg,bowl,4,A,Pink_Noise_4_1.wav,Pink_Noise_4_2.wav,,,,,,0,96,96,8,,,,,,,,,,,,,,,631.1858353369171,None,632.7199775539339,None,634.1027530619176,None,bowl,634.1027530619176,None,return,0.7831829770002514,634.186312744976,None,,,,,,,4,001,2022_Nov_04_1153,SpeechDraft1Carolyn_lessNoise,2021.2.3,60.010107525581105,
cloth.wav,cloth.mpg,cloth,1,AV,Pink_Noise_1_1.wav,Pink_Noise_1_2.wav,,,,,,0,97,97,68,,,,,,,,,,,,,,,634.9863212229684,None,636.502578142914,None,637.8861645539291,None,cloth,637.8861645539291,None,return,4.623837198014371,637.9695803510258,None,,,,,,,4,001,2022_Nov_04_1153,SpeechDraft1Carolyn_lessNoise,2021.2.3,60.010107525581105,
drop.wav,drop.mpg,drop,1,AV,Pink_Noise_1_1.wav,Pink_Noise_1_2.wav,,,,,,0,98,98,107,,,,,,,,,,,,,,,642.6196271619992,None,644.1692190159811,None,645.553255205974,None,drop,645.553255205974,None,return,1.141559434006922,645.6358460009797,None,,,,,,,4,001,2022_Nov_04_1153,SpeechDraft1Carolyn_lessNoise,2021.2.3,60.010107525581105,
dream.wav,dream.mpg,dream,1,A,Pink_Noise_1_1.wav,Pink_Noise_1_2.wav,,,,,,0,99,99,59,,,,,,,,,,,,,,,646.8030777119566,None,648.3193514189916,None,649.7024940799456,None,dream,649.7024940799456,None,return,2.447625598986633,649.7858086719643,None,,,,,,,4,001,2022_Nov_04_1153,SpeechDraft1Carolyn_lessNoise,2021.2.3,60.010107525581105,
clumps.wav,clumps.mpg,clumps,6,A,Pink_Noise_6_1.wav,Pink_Noise_6_2.wav,,,,,,0,100,100,58,,,,,,,,,,,,,,,652.2531432859832,None,653.769500105991,None,655.1533025549725,None,"place
",655.1533025549725,None,return,3.468951766961254,655.2364721699851,None,,,,,,,4,001,2022_Nov_04_1153,SpeechDraft1Carolyn_lessNoise,2021.2.3,60.010107525581105,
frost.wav,frost.mpg,frost,2,AV,Pink_Noise_2_1.wav,Pink_Noise_2_2.wav,,,,,,0,101,101,82,,,,,,,,,,,,,,,658.735702471924,None,660.269820868969,None,661.6526616530027,None,frost,661.6526616530027,None,return,1.2089458090486005,661.7364356910111,None,,,,,,,4,001,2022_Nov_04_1153,SpeechDraft1Carolyn_lessNoise,2021.2.3,60.010107525581105,
feed.wav,feed.mpg,feed,2,A,Pink_Noise_2_1.wav,Pink_Noise_2_2.wav,,,,,,0,102,102,43,,,,,,,,,,,,,,,662.9696279929485,None,664.4861466729781,None,665.8697309049312,None,feed,665.8697309049312,None,return,0.5447972189867869,665.9526045439998,None,,,,,,,4,001,2022_Nov_04_1153,SpeechDraft1Carolyn_lessNoise,2021.2.3,60.010107525581105,
grim.wav,grim.mpg,grim,1,A,Pink_Noise_1_1.wav,Pink_Noise_1_2.wav,,,,,,0,103,103,36,,,,,,,,,,,,,,,666.5196361519629,None,668.0360495129135,None,669.4197341569234,None,grill,669.4197341569234,None,return,4.890229749958962,669.5032371099805,None,,,,,,,4,001,2022_Nov_04_1153,SpeechDraft1Carolyn_lessNoise,2021.2.3,60.010107525581105,
guide.wav,guide.mpg,guide,4,AV,Pink_Noise_4_1.wav,Pink_Noise_4_2.wav,,,,,,0,104,104,60,,,,,,,,,,,,,,,674.4195397009607,None,675.9698401120258,None,677.3523575259605,None,"guide
",677.3523575259605,None,return,1.4211582869756967,677.4362725849496,None,,,,,,,4,001,2022_Nov_04_1153,SpeechDraft1Carolyn_lessNoise,2021.2.3,60.010107525581105,
dig.wav,dig.mpg,dig,5,A,Pink_Noise_5_1.wav,Pink_Noise_5_2.wav,,,,,,0,105,105,51,,,,,,,,,,,,,,,678.886176861939,None,680.4030958180083,None,681.786823984934,None,gift,681.786823984934,None,return,0.9315083030378446,681.8700887109153,None,,,,,,,4,001,2022_Nov_04_1153,SpeechDraft1Carolyn_lessNoise,2021.2.3,60.010107525581105,
fun.wav,fun.mpg,fun,1,A,Pink_Noise_1_1.wav,Pink_Noise_1_2.wav,,,,,,0,106,106,13,,,,,,,,,,,,,,,682.8209087409778,None,684.3359538320219,None,685.7193729400169,None,fun,685.7193729400169,None,return,1.9818765169475228,685.8036096430151,None,,,,,,,4,001,2022_Nov_04_1153,SpeechDraft1Carolyn_lessNoise,2021.2.3,60.010107525581105,
bend.wav,bend.mpg,bend,1,A,Pink_Noise_1_1.wav,Pink_Noise_1_2.wav,,,,,,0,107,107,6,,,,,,,,,,,,,,,687.8033554449212,None,689.3197555849329,None,690.7033361010253,None,bend,690.7033361010253,None,return,0.8553186800563708,690.7862014259445,None,,,,,,,4,001,2022_Nov_04_1153,SpeechDraft1Carolyn_lessNoise,2021.2.3,60.010107525581105,
bride.wav,bride.mpg,bride,2,AV,Pink_Noise_2_1.wav,Pink_Noise_2_2.wav,,,,,,0,108,108,114,,,,,,,,,,,,,,,691.670170777943,None,693.1855957650114,None,694.5697171980282,None,bride,694.5697171980282,None,return,2.9087772000348195,694.6526716569206,None,,,,,,,4,001,2022_Nov_04_1153,SpeechDraft1Carolyn_lessNoise,2021.2.3,60.010107525581105,
fault.wav,fault.mpg,fault,3,A,Pink_Noise_3_1.wav,Pink_Noise_3_2.wav,,,,,,0,109,109,7,,,,,,,,,,,,,,,697.5869900099933,None,699.136552257929,None,700.5191775480052,None,"fought
",700.5191775480052,None,return,1.950486995978281,700.6029159820173,None,,,,,,,4,001,2022_Nov_04_1153,SpeechDraft1Carolyn_lessNoise,2021.2.3,60.010107525581105,
duck.wav,duck.mpg,duck,3,A,Pink_Noise_3_1.wav,Pink_Noise_3_2.wav,,,,,,0,110,110,3,,,,,,,,,,,,,,,702.5867748470046,None,704.0862552929902,None,705.4695064949337,None,"duck
",705.4695064949337,None,return,0.7363664919976145,705.5530299539678,None,,,,,,,4,001,2022_Nov_04_1153,SpeechDraft1Carolyn_lessNoise,2021.2.3,60.010107525581105,
bless.wav,bless.mpg,bless,5,AV,Pink_Noise_5_1.wav,Pink_Noise_5_2.wav,,,,,,0,111,111,113,,,,,,,,,,,,,,,706.3201375099597,None,707.8364084649365,None,709.219813635922,None,must,709.219813635922,None,return,1.0829396250192076,709.3025894470047,None,,,,,,,4,001,2022_Nov_04_1153,SpeechDraft1Carolyn_lessNoise,2021.2.3,60.010107525581105,
quest.wav,quest.mpg,quest,3,AV,Pink_Noise_3_1.wav,Pink_Noise_3_2.wav,,,,,,0,112,112,100,,,,,,,,,,,,,,,710.4026044430211,None,711.9195911430288,None,713.3033994759899,None,quest,713.3033994759899,None,return,1.294579166918993,713.3868240700103,None,,,,,,,4,001,2022_Nov_04_1153,SpeechDraft1Carolyn_lessNoise,2021.2.3,60.010107525581105,
chest.wav,chest.mpg,chest,4,A,Pink_Noise_4_1.wav,Pink_Noise_4_2.wav,,,,,,0,113,113,46,,,,,,,,,,,,,,,714.7030281759799,None,716.2198234390235,None,717.6034739209572,None,chest,717.6034739209572,None,return,0.9070343140047044,717.6864569969475,None,,,,,,,4,001,2022_Nov_04_1153,SpeechDraft1Carolyn_lessNoise,2021.2.3,60.010107525581105,
roar.wav,roar.mpg,roar,1,AV,Pink_Noise_1_1.wav,Pink_Noise_1_2.wav,,,,,,0,114,114,96,,,,,,,,,,,,,,,718.6195021909662,None,720.1360291739693,None,721.5197520279326,None,roar,721.5197520279326,None,return,0.893925332929939,721.603483001003,None,,,,,,,4,001,2022_Nov_04_1153,SpeechDraft1Carolyn_lessNoise,2021.2.3,60.010107525581105,
coup.wav,coup.mpg,coup,5,A,Pink_Noise_5_1.wav,Pink_Noise_5_2.wav,,,,,,0,115,115,53,,,,,,,,,,,,,,,722.5202445900068,None,724.0360257739667,None,725.4197464060271,None,cliff,725.4197464060271,None,return,0.7464269959600642,725.5029644930037,None,,,,,,,4,001,2022_Nov_04_1153,SpeechDraft1Carolyn_lessNoise,2021.2.3,60.010107525581105,
sock.wav,sock.mpg,sock,3,A,Pink_Noise_3_1.wav,Pink_Noise_3_2.wav,,,,,,0,116,116,47,,,,,,,,,,,,,,,726.2693539030151,None,727.7859513129806,None,729.1700171700213,None,sock,729.1700171700213,None,return,0.7404654490528628,729.2529039420187,None,,,,,,,4,001,2022_Nov_04_1153,SpeechDraft1Carolyn_lessNoise,2021.2.3,60.010107525581105,
guard.wav,guard.mpg,guard,3,A,Pink_Noise_3_1.wav,Pink_Noise_3_2.wav,,,,,,0,117,117,2,,,,,,,,,,,,,,,730.0201308869291,None,731.5367708830163,None,732.9199243899202,None,guard,732.9199243899202,None,return,0.6540307729737833,733.0033674850129,None,,,,,,,4,001,2022_Nov_04_1153,SpeechDraft1Carolyn_lessNoise,2021.2.3,60.010107525581105,
fuss.wav,fuss.mpg,fuss,1,AV,Pink_Noise_1_1.wav,Pink_Noise_1_2.wav,,,,,,0,118,118,78,,,,,,,,,,,,,,,733.6869786350289,None,735.2029020369519,None,736.5866063949652,None,fuzz,736.5866063949652,None,return,1.2837213859893382,736.6696814979659,None,,,,,,,4,001,2022_Nov_04_1153,SpeechDraft1Carolyn_lessNoise,2021.2.3,60.010107525581105,
grab.wav,grab.mpg,grab,6,A,Pink_Noise_6_1.wav,Pink_Noise_6_2.wav,,,,,,0,119,119,52,,,,,,,,,,,,,,,737.9698150579352,None,739.485917213955,None,740.8694726419635,None,draft,740.8694726419635,None,return,3.6239805698860437,740.953421967919,None,,,,,,,4,001,2022_Nov_04_1153,SpeechDraft1Carolyn_lessNoise,2021.2.3,60.010107525581105,
