Audio_Only_Files,Video_Files,Original_Word_List,noiseLevelCode,conditionCodes,noiseLevelFile1,noiseLevelFile2,InstrTextVar,targetSpeakerName,targetSpeakerEccen,targetSpkrChannel,targetSpkrSound,targetVisualDegrees,visStimLoc,visStimLoc2,visStimW,visStimH,practiceTrials.thisRepN,practiceTrials.thisTrialN,practiceTrials.thisN,practiceTrials.thisIndex,trials.thisRepN,trials.thisTrialN,trials.thisN,trials.thisIndex,audLocalLoop.thisRepN,audLocalLoop.thisTrialN,audLocalLoop.thisN,audLocalLoop.thisIndex,visualLocalLoop.thisRepN,visualLocalLoop.thisTrialN,visualLocalLoop.thisN,visualLocalLoop.thisIndex,letsGoAlready.keys,letsGoAlready.rt,letsGoAlready.started,letsGoAlready.stopped,text_2.started,text_2.stopped,text_3.started,text_3.stopped,key_resp_2.keys,key_resp_2.rt,key_resp_2.started,key_resp_2.stopped,text_5.started,text_5.stopped,fixCross.started,fixCross.stopped,fixCross2.started,fixCross2.stopped,answerPrompt.started,answerPrompt.stopped,getAnswer.text,getAnswer.started,getAnswer.stopped,goToNext.keys,goToNext.rt,goToNext.started,goToNext.stopped,stretchBreakTxrt.started,stretchBreakTxrt.stopped,key_resp_3.keys,key_resp_3.rt,key_resp_3.started,key_resp_3.stopped,letsGoLocal.keys,letsGoLocal.rt,letsGoLocal.started,letsGoLocal.stopped,text_4.started,text_4.stopped,prepFixTxt.started,prepFixTxt.stopped,prepFixTxt_2.started,prepFixTxt_2.stopped,respPromptLocal.started,respPromptLocal.stopped,slider.response,slider.rt,slider.started,slider.stopped,letsGoLocal_2.keys,letsGoLocal_2.rt,letsGoLocal_2.started,letsGoLocal_2.stopped,text_7.started,text_7.stopped,prepFixTxt_3.started,prepFixTxt_3.stopped,grating.started,grating.stopped,participant,session,date,expName,psychopyVersion,frameRate,
,,,,,,,,,,,,,,,,,,,,,,,,,,,,,,,,,space,9.968760176096112,13.08998425793834,None,,,,,,,,,,,,,,,,,,,,,,,,,,,,,,,,,,,,,,,,,,,,,,,,,,,,,,,,51,001,2023_Mar_13_1148,SpeechDraft1Carolyn_lessNoise_PlusLocalization,2021.2.3,59.99718772391031,
,,,,,,,,,,,,,,,,,,,,,,,,,,,,,,,,,,,,,13.08998425793834,None,23.189670597901568,None,space,21.717610691208392,23.373094436945394,None,,,,,,,,,,,,,,,,,,,,,,,,,,,,,,,,,,,,,,,,,,,,,,,,51,001,2023_Mar_13_1148,SpeechDraft1Carolyn_lessNoise_PlusLocalization,2021.2.3,59.99718772391031,
ash.wav,ash.mpg,ash,1,A,Pink_Noise_1_1.wav,Pink_Noise_1_2.wav,"This is an example of an

AUDIO trial",,,,,,,,,,0,0,0,0,,,,,,,,,,,,,,,,,,,,,,,,,45.1561113120988,None,46.139696958009154,None,49.389466820983216,None,50.77302822098136,None,ash,50.77302822098136,None,return,4.322206248063594,50.85653520002961,None,,,,,,,,,,,,,,,,,,,,,,,,,,,,,,,,,51,001,2023_Mar_13_1148,SpeechDraft1Carolyn_lessNoise_PlusLocalization,2021.2.3,59.99718772391031,
ash.wav,ash.mpg,ash,1,AV,Pink_Noise_1_1.wav,Pink_Noise_1_2.wav,"This is an example of an

AUDIO + VIDEO  trial",,,,,,,,,,0,1,1,1,,,,,,,,,,,,,,,,,,,,,,,,,55.22280456498265,None,56.22302629402839,None,57.70673280209303,None,59.08973099896684,None,ash,59.08973099896684,None,return,3.645701196976006,59.172981705050915,None,,,,,,,,,,,,,,,,,,,,,,,,,,,,,,,,,51,001,2023_Mar_13_1148,SpeechDraft1Carolyn_lessNoise_PlusLocalization,2021.2.3,59.99718772391031,
,,,,,,,,,,,,,,,,,,,,,,,,,,,,,,,,,,,,,,,,,,,,,,,,,,,,,,,,,,,,62.85600778507069,None,space,26.842926362063736,63.03975139907561,None,,,,,,,,,,,,,,,,,,,,,,,,,,,51,001,2023_Mar_13_1148,SpeechDraft1Carolyn_lessNoise_PlusLocalization,2021.2.3,59.99718772391031,
foam.wav,foam.mpg,foam,1,AV,Pink_Noise_1_1.wav,Pink_Noise_1_2.wav,,,,,,,,,,,,,,,0,0,0,95,,,,,,,,,,,,,,,,,,,,,,,89.93946223892272,None,91.42289611999877,None,92.8063739601057,None,"foam
",92.8063739601057,None,return,5.768881676020101,92.8898050240241,None,,,,,,,,,,,,,,,,,,,,,,,,,,,,,,,,,51,001,2023_Mar_13_1148,SpeechDraft1Carolyn_lessNoise_PlusLocalization,2021.2.3,59.99718772391031,
leapt.wav,leapt.mpg,leapt,3,AV,Pink_Noise_3_1.wav,Pink_Noise_3_2.wav,,,,,,,,,,,,,,,0,1,1,112,,,,,,,,,,,,,,,,,,,,,,,98.68994927592576,None,100.17473284900188,None,101.55640009208582,None,leapt,101.55640009208582,None,return,5.554877605987713,101.63985415990464,None,,,,,,,,,,,,,,,,,,,,,,,,,,,,,,,,,51,001,2023_Mar_13_1148,SpeechDraft1Carolyn_lessNoise_PlusLocalization,2021.2.3,59.99718772391031,
fog.wav,fog.mpg,fog,4,A,Pink_Noise_4_1.wav,Pink_Noise_4_2.wav,,,,,,,,,,,,,,,0,2,2,0,,,,,,,,,,,,,,,,,,,,,,,107.22314717597328,None,108.72300410689786,None,110.1063992579002,None,five,110.1063992579002,None,return,5.508893571095541,110.1897869729437,None,,,,,,,,,,,,,,,,,,,,,,,,,,,,,,,,,51,001,2023_Mar_13_1148,SpeechDraft1Carolyn_lessNoise_PlusLocalization,2021.2.3,59.99718772391031,
fool.wav,fool.mpg,fool,4,A,Pink_Noise_4_1.wav,Pink_Noise_4_2.wav,,,,,,,,,,,,,,,0,3,3,29,,,,,,,,,,,,,,,,,,,,,,,115.72311907308176,None,117.22285473509692,None,118.6064681429416,None,pool,118.6064681429416,None,return,1.4087104329373688,118.68997624795884,None,,,,,,,,,,,,,,,,,,,,,,,,,,,,,,,,,51,001,2023_Mar_13_1148,SpeechDraft1Carolyn_lessNoise_PlusLocalization,2021.2.3,59.99718772391031,
blade.wav,blade.mpg,blade,2,AV,Pink_Noise_2_1.wav,Pink_Noise_2_2.wav,,,,,,,,,,,,,,,0,4,4,75,,,,,,,,,,,,,,,,,,,,,,,120.12317148805596,None,121.62291489494964,None,123.0064879138954,None,blade,123.0064879138954,None,return,1.8648199811577797,123.08992328797467,None,,,,,,,,,,,,,,,,,,,,,,,,,,,,,,,,,51,001,2023_Mar_13_1148,SpeechDraft1Carolyn_lessNoise_PlusLocalization,2021.2.3,59.99718772391031,
gloom.wav,gloom.mpg,gloom,4,AV,Pink_Noise_4_1.wav,Pink_Noise_4_2.wav,,,,,,,,,,,,,,,0,5,5,83,,,,,,,,,,,,,,,,,,,,,,,124.97308594407514,None,126.4728461750783,None,127.85635087802075,None,glue,127.85635087802075,None,return,1.846954865846783,127.93985729594715,None,,,,,,,,,,,,,,,,,,,,,,,,,,,,,,,,,51,001,2023_Mar_13_1148,SpeechDraft1Carolyn_lessNoise_PlusLocalization,2021.2.3,59.99718772391031,
flow.wav,flow.mpg,flow,5,A,Pink_Noise_5_1.wav,Pink_Noise_5_2.wav,,,,,,,,,,,,,,,0,6,6,50,,,,,,,,,,,,,,,,,,,,,,,129.80650736088865,None,131.30616165604442,None,132.68979980493896,None,ray,132.68979980493896,None,return,3.4373959300573915,132.77329634409398,None,,,,,,,,,,,,,,,,,,,,,,,,,,,,,,,,,51,001,2023_Mar_13_1148,SpeechDraft1Carolyn_lessNoise_PlusLocalization,2021.2.3,59.99718772391031,
bruise.wav,bruise.mpg,bruise,2,A,Pink_Noise_2_1.wav,Pink_Noise_2_2.wav,,,,,,,,,,,,,,,0,7,7,28,,,,,,,,,,,,,,,,,,,,,,,136.23982070898637,None,137.7394766099751,None,139.1231705620885,None,bruise,139.1231705620885,None,return,2.116266552824527,139.20643403800204,None,,,,,,,,,,,,,,,,,,,,,,,,,,,,,,,,,51,001,2023_Mar_13_1148,SpeechDraft1Carolyn_lessNoise_PlusLocalization,2021.2.3,59.99718772391031,
ear.wav,ear.mpg,ear,6,AV,Pink_Noise_6_1.wav,Pink_Noise_6_2.wav,,,,,,,,,,,,,,,0,8,8,104,,,,,,,,,,,,,,,,,,,,,,,141.33985324692912,None,142.83957972796634,None,144.22303268592805,None,heal,144.22303268592805,None,return,5.320194349857047,144.30648117000237,None,,,,,,,,,,,,,,,,,,,,,,,,,,,,,,,,,51,001,2023_Mar_13_1148,SpeechDraft1Carolyn_lessNoise_PlusLocalization,2021.2.3,59.99718772391031,
fast.wav,fast.mpg,fast,2,AV,Pink_Noise_2_1.wav,Pink_Noise_2_2.wav,,,,,,,,,,,,,,,0,9,9,77,,,,,,,,,,,,,,,,,,,,,,,149.65645731589757,None,151.15632935799658,None,152.54002569196746,None,fast,152.54002569196746,None,return,1.7874912659171969,152.6232000940945,None,,,,,,,,,,,,,,,,,,,,,,,,,,,,,,,,,51,001,2023_Mar_13_1148,SpeechDraft1Carolyn_lessNoise_PlusLocalization,2021.2.3,59.99718772391031,
wound.wav,wound.mpg,wound,2,A,Pink_Noise_2_1.wav,Pink_Noise_2_2.wav,,,,,,,,,,,,,,,0,10,10,34,,,,,,,,,,,,,,,,,,,,,,,154.43982723006047,None,155.9396016621031,None,157.32321467390284,None,wield,157.32321467390284,None,return,11.588191295973957,157.4065465880558,None,,,,,,,,,,,,,,,,,,,,,,,,,,,,,,,,,51,001,2023_Mar_13_1148,SpeechDraft1Carolyn_lessNoise_PlusLocalization,2021.2.3,59.99718772391031,
drill.wav,drill.mpg,drill,6,A,Pink_Noise_6_1.wav,Pink_Noise_6_2.wav,,,,,,,,,,,,,,,0,11,11,17,,,,,,,,,,,,,,,,,,,,,,,169.02321565710008,None,170.52302015409805,None,171.90659718890674,None,blade,171.90659718890674,None,return,2.49272737512365,171.9899378148839,None,,,,,,,,,,,,,,,,,,,,,,,,,,,,,,,,,51,001,2023_Mar_13_1148,SpeechDraft1Carolyn_lessNoise_PlusLocalization,2021.2.3,59.99718772391031,
flag.wav,flag.mpg,flag,5,AV,Pink_Noise_5_1.wav,Pink_Noise_5_2.wav,,,,,,,,,,,,,,,0,12,12,64,,,,,,,,,,,,,,,,,,,,,,,174.506546132965,None,176.00646685506217,None,177.38978438591585,None,flag,177.38978438591585,None,return,2.0093982541002333,177.47329773404635,None,,,,,,,,,,,,,,,,,,,,,,,,,,,,,,,,,51,001,2023_Mar_13_1148,SpeechDraft1Carolyn_lessNoise_PlusLocalization,2021.2.3,59.99718772391031,
freak.wav,freak.mpg,freak,2,A,Pink_Noise_2_1.wav,Pink_Noise_2_2.wav,,,,,,,,,,,,,,,0,13,13,11,,,,,,,,,,,,,,,,,,,,,,,179.50657068006694,None,181.00628915289417,None,182.39007488288917,None,freak,182.39007488288917,None,return,1.777478741016239,182.4732199208811,None,,,,,,,,,,,,,,,,,,,,,,,,,,,,,,,,,51,001,2023_Mar_13_1148,SpeechDraft1Carolyn_lessNoise_PlusLocalization,2021.2.3,59.99718772391031,
code.wav,code.mpg,code,5,A,Pink_Noise_5_1.wav,Pink_Noise_5_2.wav,,,,,,,,,,,,,,,0,14,14,52,,,,,,,,,,,,,,,,,,,,,,,184.27322625089437,None,185.77294496702962,None,187.15658603492193,None,heart,187.15658603492193,None,return,1.3148348338436335,187.23997844709083,None,,,,,,,,,,,,,,,,,,,,,,,,,,,,,,,,,51,001,2023_Mar_13_1148,SpeechDraft1Carolyn_lessNoise_PlusLocalization,2021.2.3,59.99718772391031,
cure.wav,cure.mpg,cure,3,A,Pink_Noise_3_1.wav,Pink_Noise_3_2.wav,,,,,,,,,,,,,,,0,15,15,22,,,,,,,,,,,,,,,,,,,,,,,188.5733259189874,None,190.07306822296232,None,191.4565783420112,None,cure,191.4565783420112,None,return,1.4468917199410498,191.53988612489775,None,,,,,,,,,,,,,,,,,,,,,,,,,,,,,,,,,51,001,2023_Mar_13_1148,SpeechDraft1Carolyn_lessNoise_PlusLocalization,2021.2.3,59.99718772391031,
gym.wav,gym.mpg,gym,3,AV,Pink_Noise_3_1.wav,Pink_Noise_3_2.wav,,,,,,,,,,,,,,,0,16,16,116,,,,,,,,,,,,,,,,,,,,,,,193.00666325190105,None,194.50631410302594,None,195.88972824206576,None,"gym
",195.88972824206576,None,return,2.7174695930443704,195.97321687289514,None,,,,,,,,,,,,,,,,,,,,,,,,,,,,,,,,,51,001,2023_Mar_13_1148,SpeechDraft1Carolyn_lessNoise_PlusLocalization,2021.2.3,59.99718772391031,
date.wav,date.mpg,date,2,AV,Pink_Noise_2_1.wav,Pink_Noise_2_2.wav,,,,,,,,,,,,,,,0,17,17,71,,,,,,,,,,,,,,,,,,,,,,,198.72326347301714,None,200.22297279792838,None,201.60648878710344,None,"date
",201.60648878710344,None,return,1.8007505170535296,201.68993554310873,None,,,,,,,,,,,,,,,,,,,,,,,,,,,,,,,,,51,001,2023_Mar_13_1148,SpeechDraft1Carolyn_lessNoise_PlusLocalization,2021.2.3,59.99718772391031,
mold.wav,mold.mpg,mold,6,AV,Pink_Noise_6_1.wav,Pink_Noise_6_2.wav,,,,,,,,,,,,,,,0,18,18,62,,,,,,,,,,,,,,,,,,,,,,,203.52340545901097,None,205.02498962800018,None,206.40663168393075,None,balls,206.40663168393075,None,return,2.8649075960274786,206.4898601269815,None,,,,,,,,,,,,,,,,,,,,,,,,,,,,,,,,,51,001,2023_Mar_13_1148,SpeechDraft1Carolyn_lessNoise_PlusLocalization,2021.2.3,59.99718772391031,
book.wav,book.mpg,book,3,A,Pink_Noise_3_1.wav,Pink_Noise_3_2.wav,,,,,,,,,,,,,,,0,19,19,43,,,,,,,,,,,,,,,,,,,,,,,209.37328331102617,None,210.87283589388244,None,212.25652191601694,None,"book
",212.25652191601694,None,return,1.3347061530221254,212.33996947901323,None,,,,,,,,,,,,,,,,,,,,,,,,,,,,,,,,,51,001,2023_Mar_13_1148,SpeechDraft1Carolyn_lessNoise_PlusLocalization,2021.2.3,59.99718772391031,
peach.wav,peach.mpg,peach,5,AV,Pink_Noise_5_1.wav,Pink_Noise_5_2.wav,,,,,,,,,,,,,,,0,20,20,108,,,,,,,,,,,,,,,,,,,,,,,213.706496051047,None,215.20633048308082,None,216.58983158296905,None,"beach
",216.58983158296905,None,return,1.8173351699952036,216.67335924902,None,,,,,,,,,,,,,,,,,,,,,,,,,,,,,,,,,51,001,2023_Mar_13_1148,SpeechDraft1Carolyn_lessNoise_PlusLocalization,2021.2.3,59.99718772391031,
flaw.wav,flaw.mpg,flaw,3,AV,Pink_Noise_3_1.wav,Pink_Noise_3_2.wav,,,,,,,,,,,,,,,0,21,21,115,,,,,,,,,,,,,,,,,,,,,,,218.52343086898327,None,220.0232502541039,None,221.40678480104543,None,flaw,221.40678480104543,None,return,1.9607989790383726,221.48987646889873,None,,,,,,,,,,,,,,,,,,,,,,,,,,,,,,,,,51,001,2023_Mar_13_1148,SpeechDraft1Carolyn_lessNoise_PlusLocalization,2021.2.3,59.99718772391031,
ban.wav,ban.mpg,ban,1,AV,Pink_Noise_1_1.wav,Pink_Noise_1_2.wav,,,,,,,,,,,,,,,0,22,22,98,,,,,,,,,,,,,,,,,,,,,,,223.47324185306206,None,224.97303546289913,None,226.35656584706157,None,"ban
",226.35656584706157,None,return,1.402703091967851,226.4399815730285,None,,,,,,,,,,,,,,,,,,,,,,,,,,,,,,,,,51,001,2023_Mar_13_1148,SpeechDraft1Carolyn_lessNoise_PlusLocalization,2021.2.3,59.99718772391031,
cause.wav,cause.mpg,cause,2,A,Pink_Noise_2_1.wav,Pink_Noise_2_2.wav,,,,,,,,,,,,,,,0,23,23,14,,,,,,,,,,,,,,,,,,,,,,,227.8733718979638,None,229.3731081339065,None,230.75664341193624,None,"cause
",230.75664341193624,None,return,1.6507724728435278,230.8399473510217,None,,,,,,,,,,,,,,,,,,,,,,,,,,,,,,,,,51,001,2023_Mar_13_1148,SpeechDraft1Carolyn_lessNoise_PlusLocalization,2021.2.3,59.99718772391031,
feast.wav,feast.mpg,feast,2,AV,Pink_Noise_2_1.wav,Pink_Noise_2_2.wav,,,,,,,,,,,,,,,0,24,24,114,,,,,,,,,,,,,,,,,,,,,,,232.52326979208738,None,234.02298967610113,None,235.40656732209027,None,feast,235.40656732209027,None,return,1.6406774509232491,235.49000067892484,None,,,,,,,,,,,,,,,,,,,,,,,,,,,,,,,,,51,001,2023_Mar_13_1148,SpeechDraft1Carolyn_lessNoise_PlusLocalization,2021.2.3,59.99718772391031,
dull.wav,dull.mpg,dull,5,A,Pink_Noise_5_1.wav,Pink_Noise_5_2.wav,,,,,,,,,,,,,,,0,25,25,5,,,,,,,,,,,,,,,,,,,,,,,237.15665785293095,None,238.6563691960182,None,240.04003238491714,None,world,240.04003238491714,None,return,3.5912571670487523,240.12341966293752,None,,,,,,,,,,,,,,,,,,,,,,,,,,,,,,,,,51,001,2023_Mar_13_1148,SpeechDraft1Carolyn_lessNoise_PlusLocalization,2021.2.3,59.99718772391031,
cough.wav,cough.mpg,cough,5,AV,Pink_Noise_5_1.wav,Pink_Noise_5_2.wav,,,,,,,,,,,,,,,0,26,26,79,,,,,,,,,,,,,,,,,,,,,,,243.73992392094806,None,245.23986194399185,None,246.62332061189227,None,cough,246.62332061189227,None,return,1.8720722659491003,246.70666405698285,None,,,,,,,,,,,,,,,,,,,,,,,,,,,,,,,,,51,001,2023_Mar_13_1148,SpeechDraft1Carolyn_lessNoise_PlusLocalization,2021.2.3,59.99718772391031,
grief.wav,grief.mpg,grief,4,AV,Pink_Noise_4_1.wav,Pink_Noise_4_2.wav,,,,,,,,,,,,,,,0,27,27,67,,,,,,,,,,,,,,,,,,,,,,,248.6066964759957,None,250.106313259108,None,251.4900859729387,None,grief,251.4900859729387,None,return,6.213406468974426,251.57335059088655,None,,,,,,,,,,,,,,,,,,,,,,,,,,,,,,,,,51,001,2023_Mar_13_1148,SpeechDraft1Carolyn_lessNoise_PlusLocalization,2021.2.3,59.99718772391031,
clock.wav,clock.mpg,clock,4,AV,Pink_Noise_4_1.wav,Pink_Noise_4_2.wav,,,,,,,,,,,,,,,0,28,28,89,,,,,,,,,,,,,,,,,,,,,,,257.8065217300318,None,259.30635464796796,None,260.6899991049431,None,clock,260.6899991049431,None,return,5.765283153858036,260.773490492953,None,,,,,,,,,,,,,,,,,,,,,,,,,,,,,,,,,51,001,2023_Mar_13_1148,SpeechDraft1Carolyn_lessNoise_PlusLocalization,2021.2.3,59.99718772391031,
craft.wav,craft.mpg,craft,2,A,Pink_Noise_2_1.wav,Pink_Noise_2_2.wav,,,,,,,,,,,,,,,0,29,29,27,,,,,,,,,,,,,,,,,,,,,,,266.55663686594926,None,268.05642425105907,None,269.440123999957,None,"craft
",269.440123999957,None,return,4.9511938858777285,269.5235121299047,None,,,,,,,,,,,,,,,,,,,,,,,,,,,,,,,,,51,001,2023_Mar_13_1148,SpeechDraft1Carolyn_lessNoise_PlusLocalization,2021.2.3,59.99718772391031,
dune.wav,dune.mpg,dune,1,A,Pink_Noise_1_1.wav,Pink_Noise_1_2.wav,,,,,,,,,,,,,,,0,30,30,6,,,,,,,,,,,,,,,,,,,,,,,274.5068482249044,None,276.0064646929968,None,277.39000041992404,None,dune,277.39000041992404,None,return,1.6412493730895221,277.47343246196397,None,,,,,,,,,,,,,,,,,,,,,,,,,,,,,,,,,51,001,2023_Mar_13_1148,SpeechDraft1Carolyn_lessNoise_PlusLocalization,2021.2.3,59.99718772391031,
rent.wav,rent.mpg,rent,5,A,Pink_Noise_5_1.wav,Pink_Noise_5_2.wav,,,,,,,,,,,,,,,0,31,31,7,,,,,,,,,,,,,,,,,,,,,,,279.14019347704016,None,280.6398251999635,None,282.0232819051016,None,mate,282.0232819051016,None,return,3.4080246561206877,282.10664841905236,None,,,,,,,,,,,,,,,,,,,,,,,,,,,,,,,,,51,001,2023_Mar_13_1148,SpeechDraft1Carolyn_lessNoise_PlusLocalization,2021.2.3,59.99718772391031,
bat.wav,bat.mpg,bat,2,AV,Pink_Noise_2_1.wav,Pink_Noise_2_2.wav,,,,,,,,,,,,,,,0,32,32,100,,,,,,,,,,,,,,,,,,,,,,,285.54011221788824,None,287.0399224299472,None,288.4233819639776,None,bat,288.4233819639776,None,return,1.5439292259979993,288.5067688259296,None,,,,,,,,,,,,,,,,,,,,,,,,,,,,,,,,,51,001,2023_Mar_13_1148,SpeechDraft1Carolyn_lessNoise_PlusLocalization,2021.2.3,59.99718772391031,
cook.wav,cook.mpg,cook,3,AV,Pink_Noise_3_1.wav,Pink_Noise_3_2.wav,,,,,,,,,,,,,,,0,33,33,68,,,,,,,,,,,,,,,,,,,,,,,290.07340124389157,None,291.57310388609767,None,292.95670842402615,None,cook,292.95670842402615,None,return,1.322711864951998,293.0401136870496,None,,,,,,,,,,,,,,,,,,,,,,,,,,,,,,,,,51,001,2023_Mar_13_1148,SpeechDraft1Carolyn_lessNoise_PlusLocalization,2021.2.3,59.99718772391031,
glove.wav,glove.mpg,glove,5,A,Pink_Noise_5_1.wav,Pink_Noise_5_2.wav,,,,,,,,,,,,,,,0,34,34,55,,,,,,,,,,,,,,,,,,,,,,,294.39020205289125,None,295.8898173091002,None,297.27346223499626,None,"glow
",297.27346223499626,None,return,1.8860131278634071,297.35667145694606,None,,,,,,,,,,,,,,,,,,,,,,,,,,,,,,,,,51,001,2023_Mar_13_1148,SpeechDraft1Carolyn_lessNoise_PlusLocalization,2021.2.3,59.99718772391031,
lost.wav,lost.mpg,lost,1,A,Pink_Noise_1_1.wav,Pink_Noise_1_2.wav,,,,,,,,,,,,,,,0,35,35,10,,,,,,,,,,,,,,,,,,,,,,,299.2734505299013,None,300.773220354924,None,302.156915883068,None,lost,302.156915883068,None,return,1.1706785410642624,302.2400180120021,None,,,,,,,,,,,,,,,,,,,,,,,,,,,,,,,,,51,001,2023_Mar_13_1148,SpeechDraft1Carolyn_lessNoise_PlusLocalization,2021.2.3,59.99718772391031,
creep.wav,creep.mpg,creep,5,A,Pink_Noise_5_1.wav,Pink_Noise_5_2.wav,,,,,,,,,,,,,,,0,36,36,42,,,,,,,,,,,,,,,,,,,,,,,303.4401011709124,None,304.9398876701016,None,306.3233090210706,None,freak,306.3233090210706,None,return,2.2198944720439613,306.4067921489477,None,,,,,,,,,,,,,,,,,,,,,,,,,,,,,,,,,51,001,2023_Mar_13_1148,SpeechDraft1Carolyn_lessNoise_PlusLocalization,2021.2.3,59.99718772391031,
bet.wav,bet.mpg,bet,3,AV,Pink_Noise_3_1.wav,Pink_Noise_3_2.wav,,,,,,,,,,,,,,,0,37,37,90,,,,,,,,,,,,,,,,,,,,,,,308.65677077905275,None,310.15651333588175,None,311.5400472509209,None,bat,311.5400472509209,None,return,1.531253881053999,311.62343084905297,None,,,,,,,,,,,,,,,,,,,,,,,,,,,,,,,,,51,001,2023_Mar_13_1148,SpeechDraft1Carolyn_lessNoise_PlusLocalization,2021.2.3,59.99718772391031,
check.wav,check.mpg,check,1,A,Pink_Noise_1_1.wav,Pink_Noise_1_2.wav,,,,,,,,,,,,,,,0,38,38,9,,,,,,,,,,,,,,,,,,,,,,,313.1734415809624,None,314.67318047606386,None,316.0568140989635,None,"check
",316.0568140989635,None,return,4.11852410598658,316.14016043697484,None,,,,,,,,,,,,,,,,,,,,,,,,,,,,,,,,,51,001,2023_Mar_13_1148,SpeechDraft1Carolyn_lessNoise_PlusLocalization,2021.2.3,59.99718772391031,
bald.wav,bald.mpg,bald,3,A,Pink_Noise_3_1.wav,Pink_Noise_3_2.wav,,,,,,,,,,,,,,,0,39,39,38,,,,,,,,,,,,,,,,,,,,,,,320.29017531708814,None,321.7897582510486,None,323.1732804609928,None,"bad
",323.1732804609928,None,return,1.4179154359735548,323.2567765968852,None,,,,,,,,,,,,,,,,,,,,,,,,,,,,,,,,,51,001,2023_Mar_13_1148,SpeechDraft1Carolyn_lessNoise_PlusLocalization,2021.2.3,59.99718772391031,
flood.wav,flood.mpg,flood,2,AV,Pink_Noise_2_1.wav,Pink_Noise_2_2.wav,,,,,,,,,,,,,,,0,40,40,97,,,,,,,,,,,,,,,,,,,,,,,324.7067600530572,None,326.20633070589975,None,327.5900399440434,None,flood,327.5900399440434,None,return,1.9931949938181788,327.673506174935,None,,,,,,,,,,,,,,,,,,,,,,,,,,,,,,,,,51,001,2023_Mar_13_1148,SpeechDraft1Carolyn_lessNoise_PlusLocalization,2021.2.3,59.99718772391031,
ball.wav,ball.mpg,ball,1,A,Pink_Noise_1_1.wav,Pink_Noise_1_2.wav,,,,,,,,,,,,,,,0,41,41,19,,,,,,,,,,,,,,,,,,,,,,,329.6900554529857,None,331.1897944889497,None,332.57343100290745,None,"ball
",332.57343100290745,None,return,1.433822555001825,332.65686389501207,None,,,,,,,,,,,,,,,,,,,,,,,,,,,,,,,,,51,001,2023_Mar_13_1148,SpeechDraft1Carolyn_lessNoise_PlusLocalization,2021.2.3,59.99718772391031,
drain.wav,drain.mpg,drain,3,AV,Pink_Noise_3_1.wav,Pink_Noise_3_2.wav,,,,,,,,,,,,,,,0,42,42,107,,,,,,,,,,,,,,,,,,,,,,,334.12341799400747,None,335.62328492710367,None,337.00667299400084,None,"drain
",337.00667299400084,None,return,2.368403210071847,337.0902803170029,None,,,,,,,,,,,,,,,,,,,,,,,,,,,,,,,,,51,001,2023_Mar_13_1148,SpeechDraft1Carolyn_lessNoise_PlusLocalization,2021.2.3,59.99718772391031,
castle.wav,castle.mpg,castle,6,A,Pink_Noise_6_1.wav,Pink_Noise_6_2.wav,,,,,,,,,,,,,,,0,43,43,44,,,,,,,,,,,,,,,,,,,,,,,339.49018479092047,None,340.98982558003627,None,342.3734771749005,None,under,342.3734771749005,None,return,6.3538782289251685,342.45679890108295,None,,,,,,,,,,,,,,,,,,,,,,,,,,,,,,,,,51,001,2023_Mar_13_1148,SpeechDraft1Carolyn_lessNoise_PlusLocalization,2021.2.3,59.99718772391031,
cope.wav,cope.mpg,cope,2,A,Pink_Noise_2_1.wav,Pink_Noise_2_2.wav,,,,,,,,,,,,,,,0,44,44,3,,,,,,,,,,,,,,,,,,,,,,,348.8401660020463,None,350.33985769795254,None,351.7235429689754,None,cope,351.7235429689754,None,return,1.5799534311518073,351.8068469739519,None,,,,,,,,,,,,,,,,,,,,,,,,,,,,,,,,,51,001,2023_Mar_13_1148,SpeechDraft1Carolyn_lessNoise_PlusLocalization,2021.2.3,59.99718772391031,
flight.wav,flight.mpg,flight,4,AV,Pink_Noise_4_1.wav,Pink_Noise_4_2.wav,,,,,,,,,,,,,,,0,45,45,91,,,,,,,,,,,,,,,,,,,,,,,353.40677436604165,None,354.9232256789692,None,356.3067300040275,None,flight,356.3067300040275,None,return,2.260577443987131,356.3901372079272,None,,,,,,,,,,,,,,,,,,,,,,,,,,,,,,,,,51,001,2023_Mar_13_1148,SpeechDraft1Carolyn_lessNoise_PlusLocalization,2021.2.3,59.99718772391031,
duke.wav,duke.mpg,duke,1,A,Pink_Noise_1_1.wav,Pink_Noise_1_2.wav,,,,,,,,,,,,,,,0,46,46,15,,,,,,,,,,,,,,,,,,,,,,,358.67348898388445,None,360.17316160793416,None,361.5568415171001,None,"duke
",361.5568415171001,None,return,1.450424965005368,361.6402551839128,None,,,,,,,,,,,,,,,,,,,,,,,,,,,,,,,,,51,001,2023_Mar_13_1148,SpeechDraft1Carolyn_lessNoise_PlusLocalization,2021.2.3,59.99718772391031,
dance.wav,dance.mpg,dance,3,A,Pink_Noise_3_1.wav,Pink_Noise_3_2.wav,,,,,,,,,,,,,,,0,47,47,4,,,,,,,,,,,,,,,,,,,,,,,363.14018100197427,None,364.6398739279248,None,366.0235394940246,None,dance,366.0235394940246,None,return,1.4240063920151442,366.1067878110334,None,,,,,,,,,,,,,,,,,,,,,,,,,,,,,,,,,51,001,2023_Mar_13_1148,SpeechDraft1Carolyn_lessNoise_PlusLocalization,2021.2.3,59.99718772391031,
gang.wav,gang.mpg,gang,3,AV,Pink_Noise_3_1.wav,Pink_Noise_3_2.wav,,,,,,,,,,,,,,,0,48,48,69,,,,,,,,,,,,,,,,,,,,,,,367.556792788906,None,369.0566456329543,None,370.4399836938828,None,gay,370.4399836938828,None,return,1.8791377930901945,370.5235542219598,None,,,,,,,,,,,,,,,,,,,,,,,,,,,,,,,,,51,001,2023_Mar_13_1148,SpeechDraft1Carolyn_lessNoise_PlusLocalization,2021.2.3,59.99718772391031,
crude.wav,crude.mpg,crude,5,AV,Pink_Noise_5_1.wav,Pink_Noise_5_2.wav,,,,,,,,,,,,,,,0,49,49,118,,,,,,,,,,,,,,,,,,,,,,,372.42348118987866,None,373.9232999929227,None,375.3068823120557,None,queen,375.3068823120557,None,return,2.748601852916181,375.3901975119952,None,,,,,,,,,,,,,,,,,,,,,,,,,,,,,,,,,51,001,2023_Mar_13_1148,SpeechDraft1Carolyn_lessNoise_PlusLocalization,2021.2.3,59.99718772391031,
badge.wav,badge.mpg,badge,3,A,Pink_Noise_3_1.wav,Pink_Noise_3_2.wav,,,,,,,,,,,,,,,0,50,50,36,,,,,,,,,,,,,,,,,,,,,,,378.15680100000463,None,379.6566359528806,None,381.0401469198987,None,"badge
",381.0401469198987,None,return,1.5191162847913802,381.1235656910576,None,,,,,,,,,,,,,,,,,,,,,,,,,,,,,,,,,51,001,2023_Mar_13_1148,SpeechDraft1Carolyn_lessNoise_PlusLocalization,2021.2.3,59.99718772391031,
flank.wav,flank.mpg,flank,4,AV,Pink_Noise_4_1.wav,Pink_Noise_4_2.wav,,,,,,,,,,,,,,,0,51,51,88,,,,,,,,,,,,,,,,,,,,,,,382.6735583799891,None,384.1732213089708,None,385.55686552706175,None,flake,385.55686552706175,None,return,3.29861469916068,385.6401734389365,None,,,,,,,,,,,,,,,,,,,,,,,,,,,,,,,,,51,001,2023_Mar_13_1148,SpeechDraft1Carolyn_lessNoise_PlusLocalization,2021.2.3,59.99718772391031,
chase.wav,chase.mpg,chase,6,AV,Pink_Noise_6_1.wav,Pink_Noise_6_2.wav,,,,,,,,,,,,,,,0,52,52,74,,,,,,,,,,,,,,,,,,,,,,,388.95684518292546,None,390.4568086259533,None,391.84020204888657,None,"chase
",391.84020204888657,None,return,1.9351952420547605,391.92349567101337,None,,,,,,,,,,,,,,,,,,,,,,,,,,,,,,,,,51,001,2023_Mar_13_1148,SpeechDraft1Carolyn_lessNoise_PlusLocalization,2021.2.3,59.99718772391031,
gram.wav,gram.mpg,gram,4,A,Pink_Noise_4_1.wav,Pink_Noise_4_2.wav,,,,,,,,,,,,,,,0,53,53,33,,,,,,,,,,,,,,,,,,,,,,,393.8902557119727,None,395.3899758479092,None,396.77353445091285,None,plan,396.77353445091285,None,return,1.3618013819213957,396.8568768131081,None,,,,,,,,,,,,,,,,,,,,,,,,,,,,,,,,,51,001,2023_Mar_13_1148,SpeechDraft1Carolyn_lessNoise_PlusLocalization,2021.2.3,59.99718772391031,
solve.wav,solve.mpg,solve,3,A,Pink_Noise_3_1.wav,Pink_Noise_3_2.wav,,,,,,,,,,,,,,,0,54,54,45,,,,,,,,,,,,,,,,,,,,,,,398.24023272888735,None,399.74015591596253,None,401.1235122999642,None,solid,401.1235122999642,None,return,1.9954969680402428,401.2072075998876,None,,,,,,,,,,,,,,,,,,,,,,,,,,,,,,,,,51,001,2023_Mar_13_1148,SpeechDraft1Carolyn_lessNoise_PlusLocalization,2021.2.3,59.99718772391031,
pact.wav,pact.mpg,pact,1,A,Pink_Noise_1_1.wav,Pink_Noise_1_2.wav,,,,,,,,,,,,,,,0,55,55,49,,,,,,,,,,,,,,,,,,,,,,,403.22351852292195,None,404.72324612899683,None,406.1067623940762,None,packed,406.1067623940762,None,return,1.948566136881709,406.1901860090438,None,,,,,,,,,,,,,,,,,,,,,,,,,,,,,,,,,51,001,2023_Mar_13_1148,SpeechDraft1Carolyn_lessNoise_PlusLocalization,2021.2.3,59.99718772391031,
guard.wav,guard.mpg,guard,4,A,Pink_Noise_4_1.wav,Pink_Noise_4_2.wav,,,,,,,,,,,,,,,0,56,56,37,,,,,,,,,,,,,,,,,,,,,,,408.15702114789747,None,409.6567080030218,None,411.0402148941066,None,go,411.0402148941066,None,return,1.6391963819041848,411.12354593910277,None,,,,,,,,,,,,,,,,,,,,,,,,,,,,,,,,,51,001,2023_Mar_13_1148,SpeechDraft1Carolyn_lessNoise_PlusLocalization,2021.2.3,59.99718772391031,
cone.wav,cone.mpg,cone,6,A,Pink_Noise_6_1.wav,Pink_Noise_6_2.wav,,,,,,,,,,,,,,,0,57,57,59,,,,,,,,,,,,,,,,,,,,,,,412.7901586119551,None,414.28998790308833,None,415.67353995190933,None,favor,415.67353995190933,None,return,7.70984572195448,415.7568191939499,None,,,,,,,,,,,,,,,,,,,,,,,,,,,,,,,,,51,001,2023_Mar_13_1148,SpeechDraft1Carolyn_lessNoise_PlusLocalization,2021.2.3,59.99718772391031,
strive.wav,strive.mpg,strive,6,AV,Pink_Noise_6_1.wav,Pink_Noise_6_2.wav,,,,,,,,,,,,,,,0,58,58,85,,,,,,,,,,,,,,,,,,,,,,,423.49018267705105,None,424.9900300009176,None,426.37354544596747,None,strap,426.37354544596747,None,return,3.1538044151384383,426.4568822560832,None,,,,,,,,,,,,,,,,,,,,,,,,,,,,,,,,,51,001,2023_Mar_13_1148,SpeechDraft1Carolyn_lessNoise_PlusLocalization,2021.2.3,59.99718772391031,
crime.wav,crime.mpg,crime,5,A,Pink_Noise_5_1.wav,Pink_Noise_5_2.wav,,,,,,,,,,,,,,,0,59,59,47,,,,,,,,,,,,,,,,,,,,,,,429.64025694387965,None,431.14002772793174,None,432.5235787779093,None,fur,432.5235787779093,None,return,3.5398156298324466,432.606939306017,None,,,,,,,,,,,,,,,,,,,,,,,,,,,,,,,,,51,001,2023_Mar_13_1148,SpeechDraft1Carolyn_lessNoise_PlusLocalization,2021.2.3,59.99718772391031,
flock.wav,flock.mpg,flock,4,A,Pink_Noise_4_1.wav,Pink_Noise_4_2.wav,,,,,,,,,,,,,,,0,60,60,21,,,,,,,,,,,,,,,,,,,,,,,436.173620454967,None,437.67356724408455,None,439.0569639329333,None,flop,439.0569639329333,None,return,1.3985368681605905,439.14023138489574,None,,,,,,,,,,,,,,,,,,,,,,,,,,,,,,,,,51,001,2023_Mar_13_1148,SpeechDraft1Carolyn_lessNoise_PlusLocalization,2021.2.3,59.99718772391031,
carve.wav,carve.mpg,carve,4,A,Pink_Noise_4_1.wav,Pink_Noise_4_2.wav,,,,,,,,,,,,,,,0,61,61,58,,,,,,,,,,,,,,,,,,,,,,,440.55691724596545,None,442.05685243196785,None,443.44037392688915,None,car,443.44037392688915,None,return,1.1910913600586355,443.5235922250431,None,,,,,,,,,,,,,,,,,,,,,,,,,,,,,,,,,51,001,2023_Mar_13_1148,SpeechDraft1Carolyn_lessNoise_PlusLocalization,2021.2.3,59.99718772391031,
bad.wav,bad.mpg,bad,4,A,Pink_Noise_4_1.wav,Pink_Noise_4_2.wav,,,,,,,,,,,,,,,0,62,62,1,,,,,,,,,,,,,,,,,,,,,,,444.7402347740717,None,446.2400387621019,None,447.62362045189366,None,band,447.62362045189366,None,return,1.2718646831344813,447.70688432105817,None,,,,,,,,,,,,,,,,,,,,,,,,,,,,,,,,,51,001,2023_Mar_13_1148,SpeechDraft1Carolyn_lessNoise_PlusLocalization,2021.2.3,59.99718772391031,
desk.wav,desk.mpg,desk,4,A,Pink_Noise_4_1.wav,Pink_Noise_4_2.wav,,,,,,,,,,,,,,,0,63,63,20,,,,,,,,,,,,,,,,,,,,,,,449.00692109088413,None,450.50661178608425,None,451.89013143698685,None,desk,451.89013143698685,None,return,1.421065092086792,451.973621673882,None,,,,,,,,,,,,,,,,,,,,,,,,,,,,,,,,,51,001,2023_Mar_13_1148,SpeechDraft1Carolyn_lessNoise_PlusLocalization,2021.2.3,59.99718772391031,
spire.wav,spire.mpg,spire,5,A,Pink_Noise_5_1.wav,Pink_Noise_5_2.wav,,,,,,,,,,,,,,,0,64,64,23,,,,,,,,,,,,,,,,,,,,,,,453.42372300988063,None,454.92332965508103,None,456.3070908759255,None,spiral,456.3070908759255,None,return,2.1083808029070497,456.390283833025,None,,,,,,,,,,,,,,,,,,,,,,,,,,,,,,,,,51,001,2023_Mar_13_1148,SpeechDraft1Carolyn_lessNoise_PlusLocalization,2021.2.3,59.99718772391031,
fold.wav,fold.mpg,fold,5,A,Pink_Noise_5_1.wav,Pink_Noise_5_2.wav,,,,,,,,,,,,,,,0,65,65,2,,,,,,,,,,,,,,,,,,,,,,,458.5236624700483,None,460.0233887969516,None,461.40686628990807,None,fan,461.40686628990807,None,return,4.608325124019757,461.4903557780199,None,,,,,,,,,,,,,,,,,,,,,,,,,,,,,,,,,51,001,2023_Mar_13_1148,SpeechDraft1Carolyn_lessNoise_PlusLocalization,2021.2.3,59.99718772391031,
foil.wav,foil.mpg,foil,1,AV,Pink_Noise_1_1.wav,Pink_Noise_1_2.wav,,,,,,,,,,,,,,,0,66,66,70,,,,,,,,,,,,,,,,,,,,,,,466.123513890896,None,467.6405277471058,None,469.02372040692717,None,"foil
",469.02372040692717,None,return,2.167684602085501,469.10702180606313,None,,,,,,,,,,,,,,,,,,,,,,,,,,,,,,,,,51,001,2023_Mar_13_1148,SpeechDraft1Carolyn_lessNoise_PlusLocalization,2021.2.3,59.99718772391031,
green.wav,green.mpg,green,6,AV,Pink_Noise_6_1.wav,Pink_Noise_6_2.wav,,,,,,,,,,,,,,,0,67,67,66,,,,,,,,,,,,,,,,,,,,,,,471.30702210590243,None,472.8232596979942,None,474.20688229589723,None,"three
",474.20688229589723,None,return,2.2003323188982904,474.29036328406073,None,,,,,,,,,,,,,,,,,,,,,,,,,,,,,,,,,51,001,2023_Mar_13_1148,SpeechDraft1Carolyn_lessNoise_PlusLocalization,2021.2.3,59.99718772391031,
care.wav,care.mpg,care,1,AV,Pink_Noise_1_1.wav,Pink_Noise_1_2.wav,,,,,,,,,,,,,,,0,68,68,82,,,,,,,,,,,,,,,,,,,,,,,476.5236590409186,None,478.0401116069406,None,479.4237797448877,None,care,479.4237797448877,None,return,1.4237352148629725,479.50696597388014,None,,,,,,,,,,,,,,,,,,,,,,,,,,,,,,,,,51,001,2023_Mar_13_1148,SpeechDraft1Carolyn_lessNoise_PlusLocalization,2021.2.3,59.99718772391031,
glide.wav,glide.mpg,glide,5,AV,Pink_Noise_5_1.wav,Pink_Noise_5_2.wav,,,,,,,,,,,,,,,0,69,69,105,,,,,,,,,,,,,,,,,,,,,,,480.95703587005846,None,482.4571843070444,None,483.840314442059,None,glide,483.840314442059,None,return,2.59101047902368,483.9236483660061,None,,,,,,,,,,,,,,,,,,,,,,,,,,,,,,,,,51,001,2023_Mar_13_1148,SpeechDraft1Carolyn_lessNoise_PlusLocalization,2021.2.3,59.99718772391031,
hug.wav,hug.mpg,hug,6,AV,Pink_Noise_6_1.wav,Pink_Noise_6_2.wav,,,,,,,,,,,,,,,0,70,70,80,,,,,,,,,,,,,,,,,,,,,,,486.54049150506034,None,488.0565826590173,None,489.44028553389944,None,"heart
",489.44028553389944,None,return,4.934944864129648,489.5237327408977,None,,,,,,,,,,,,,,,,,,,,,,,,,,,,,,,,,51,001,2023_Mar_13_1148,SpeechDraft1Carolyn_lessNoise_PlusLocalization,2021.2.3,59.99718772391031,
drag.wav,drag.mpg,drag,6,AV,Pink_Noise_6_1.wav,Pink_Noise_6_2.wav,,,,,,,,,,,,,,,0,71,71,63,,,,,,,,,,,,,,,,,,,,,,,494.4903976600617,None,495.9913920490071,None,497.37356052803807,None,"drag
",497.37356052803807,None,return,2.001764463027939,497.45694010704756,None,,,,,,,,,,,,,,,,,,,,,,,,,,,,,,,,,51,001,2023_Mar_13_1148,SpeechDraft1Carolyn_lessNoise_PlusLocalization,2021.2.3,59.99718772391031,
dim.wav,dim.mpg,dim,1,A,Pink_Noise_1_1.wav,Pink_Noise_1_2.wav,,,,,,,,,,,,,,,0,72,72,18,,,,,,,,,,,,,,,,,,,,,,,499.49037035391666,None,500.9899950430263,None,502.373733127024,None,"dim
",502.373733127024,None,return,1.2177003319375217,502.4569841870107,None,,,,,,,,,,,,,,,,,,,,,,,,,,,,,,,,,51,001,2023_Mar_13_1148,SpeechDraft1Carolyn_lessNoise_PlusLocalization,2021.2.3,59.99718772391031,
sake.wav,sake.mpg,sake,3,A,Pink_Noise_3_1.wav,Pink_Noise_3_2.wav,,,,,,,,,,,,,,,0,73,73,31,,,,,,,,,,,,,,,,,,,,,,,503.7069600690156,None,505.2236408810131,None,506.60710394987836,None,"sick
",506.60710394987836,None,return,1.352317183976993,506.6903598830104,None,,,,,,,,,,,,,,,,,,,,,,,,,,,,,,,,,51,001,2023_Mar_13_1148,SpeechDraft1Carolyn_lessNoise_PlusLocalization,2021.2.3,59.99718772391031,
brag.wav,brag.mpg,brag,3,AV,Pink_Noise_3_1.wav,Pink_Noise_3_2.wav,,,,,,,,,,,,,,,0,74,74,78,,,,,,,,,,,,,,,,,,,,,,,508.0736926589161,None,509.59021113207564,None,510.97375814896077,None,brag,510.97375814896077,None,return,4.305894254008308,511.05692834290676,None,,,,,,,,,,,,,,,,,,,,,,,,,,,,,,,,,51,001,2023_Mar_13_1148,SpeechDraft1Carolyn_lessNoise_PlusLocalization,2021.2.3,59.99718772391031,
depth.wav,depth.mpg,depth,6,AV,Pink_Noise_6_1.wav,Pink_Noise_6_2.wav,,,,,,,,,,,,,,,0,75,75,103,,,,,,,,,,,,,,,,,,,,,,,515.3903535429854,None,516.8906605390366,None,518.2736654200125,None,depth,518.2736654200125,None,return,2.013608912937343,518.357150105061,None,,,,,,,,,,,,,,,,,,,,,,,,,,,,,,,,,51,001,2023_Mar_13_1148,SpeechDraft1Carolyn_lessNoise_PlusLocalization,2021.2.3,59.99718772391031,
bell.wav,bell.mpg,bell,6,A,Pink_Noise_6_1.wav,Pink_Noise_6_2.wav,,,,,,,,,,,,,,,0,76,76,41,,,,,,,,,,,,,,,,,,,,,,,520.3903276419733,None,521.9067067850847,None,523.2905608720612,None,love,523.2905608720612,None,return,1.3731324118562043,523.3736635521054,None,,,,,,,,,,,,,,,,,,,,,,,,,,,,,,,,,51,001,2023_Mar_13_1148,SpeechDraft1Carolyn_lessNoise_PlusLocalization,2021.2.3,59.99718772391031,
edge.wav,edge.mpg,edge,5,AV,Pink_Noise_5_1.wav,Pink_Noise_5_2.wav,,,,,,,,,,,,,,,0,77,77,113,,,,,,,,,,,,,,,,,,,,,,,524.7737045180984,None,526.2901498619467,None,527.673751238035,None,edge,527.673751238035,None,return,1.4296882280614227,527.7570680680219,None,,,,,,,,,,,,,,,,,,,,,,,,,,,,,,,,,51,001,2023_Mar_13_1148,SpeechDraft1Carolyn_lessNoise_PlusLocalization,2021.2.3,59.99718772391031,
gulp.wav,gulp.mpg,gulp,3,A,Pink_Noise_3_1.wav,Pink_Noise_3_2.wav,,,,,,,,,,,,,,,0,78,78,13,,,,,,,,,,,,,,,,,,,,,,,529.2071214530151,None,530.724413438933,None,532.1070580659434,None,gulp,532.1070580659434,None,return,2.156383950030431,532.1904249209911,None,,,,,,,,,,,,,,,,,,,,,,,,,,,,,,,,,51,001,2023_Mar_13_1148,SpeechDraft1Carolyn_lessNoise_PlusLocalization,2021.2.3,59.99718772391031,
crank.wav,crank.mpg,crank,1,A,Pink_Noise_1_1.wav,Pink_Noise_1_2.wav,,,,,,,,,,,,,,,0,79,79,16,,,,,,,,,,,,,,,,,,,,,,,534.3737901449203,None,535.8900805360172,None,537.2737176779192,None,craig,537.2737176779192,None,return,4.00572669878602,537.3570151471067,None,,,,,,,,,,,,,,,,,,,,,,,,,,,,,,,,,51,001,2023_Mar_13_1148,SpeechDraft1Carolyn_lessNoise_PlusLocalization,2021.2.3,59.99718772391031,
frog.wav,frog.mpg,frog,2,A,Pink_Noise_2_1.wav,Pink_Noise_2_2.wav,,,,,,,,,,,,,,,0,80,80,30,,,,,,,,,,,,,,,,,,,,,,,541.3904840559699,None,542.8901179039385,None,544.2737540609669,None,frog,544.2737540609669,None,return,1.5496649900451303,544.3570730329957,None,,,,,,,,,,,,,,,,,,,,,,,,,,,,,,,,,51,001,2023_Mar_13_1148,SpeechDraft1Carolyn_lessNoise_PlusLocalization,2021.2.3,59.99718772391031,
fan.wav,fan.mpg,fan,2,AV,Pink_Noise_2_1.wav,Pink_Noise_2_2.wav,,,,,,,,,,,,,,,0,81,81,96,,,,,,,,,,,,,,,,,,,,,,,545.9237148480024,None,547.4401501771063,None,548.8236269720364,None,fan,548.8236269720364,None,return,3.1275323829613626,548.9071658689063,None,,,,,,,,,,,,,,,,,,,,,,,,,,,,,,,,,51,001,2023_Mar_13_1148,SpeechDraft1Carolyn_lessNoise_PlusLocalization,2021.2.3,59.99718772391031,
buff.wav,buff.mpg,buff,6,A,Pink_Noise_6_1.wav,Pink_Noise_6_2.wav,,,,,,,,,,,,,,,0,82,82,25,,,,,,,,,,,,,,,,,,,,,,,552.0570957539603,None,553.5734936730005,None,554.9570103280712,None,"mark
",554.9570103280712,None,return,1.386309971101582,555.040396352997,None,,,,,,,,,,,,,,,,,,,,,,,,,,,,,,,,,51,001,2023_Mar_13_1148,SpeechDraft1Carolyn_lessNoise_PlusLocalization,2021.2.3,59.99718772391031,
roast.wav,roast.mpg,roast,6,A,Pink_Noise_6_1.wav,Pink_Noise_6_2.wav,,,,,,,,,,,,,,,0,83,83,40,,,,,,,,,,,,,,,,,,,,,,,556.4571269450244,None,557.9734244130086,None,559.3570274899248,None,dance,559.3570274899248,None,return,1.32219496415928,559.4405984459445,None,,,,,,,,,,,,,,,,,,,,,,,,,,,,,,,,,51,001,2023_Mar_13_1148,SpeechDraft1Carolyn_lessNoise_PlusLocalization,2021.2.3,59.99718772391031,
grown.wav,grown.mpg,grown,1,AV,Pink_Noise_1_1.wav,Pink_Noise_1_2.wav,,,,,,,,,,,,,,,0,84,84,106,,,,,,,,,,,,,,,,,,,,,,,560.7904371430632,None,562.3068220058922,None,563.6903789550997,None,grow,563.6903789550997,None,return,2.2449719510041177,563.773716572905,None,,,,,,,,,,,,,,,,,,,,,,,,,,,,,,,,,51,001,2023_Mar_13_1148,SpeechDraft1Carolyn_lessNoise_PlusLocalization,2021.2.3,59.99718772391031,
bail.wav,bail.mpg,bail,5,A,Pink_Noise_5_1.wav,Pink_Noise_5_2.wav,,,,,,,,,,,,,,,0,85,85,26,,,,,,,,,,,,,,,,,,,,,,,566.0403825428803,None,567.5569527079351,None,568.9404275200795,None,band,568.9404275200795,None,return,1.4748634030111134,569.0238097829279,None,,,,,,,,,,,,,,,,,,,,,,,,,,,,,,,,,51,001,2023_Mar_13_1148,SpeechDraft1Carolyn_lessNoise_PlusLocalization,2021.2.3,59.99718772391031,
gap.wav,gap.mpg,gap,5,AV,Pink_Noise_5_1.wav,Pink_Noise_5_2.wav,,,,,,,,,,,,,,,0,86,86,101,,,,,,,,,,,,,,,,,,,,,,,570.5236950530671,None,572.040082792053,None,573.4237312360201,None,gap,573.4237312360201,None,return,3.1755174859426916,573.5071790290531,None,,,,,,,,,,,,,,,,,,,,,,,,,,,,,,,,,51,001,2023_Mar_13_1148,SpeechDraft1Carolyn_lessNoise_PlusLocalization,2021.2.3,59.99718772391031,
flesh.wav,flesh.mpg,flesh,3,AV,Pink_Noise_3_1.wav,Pink_Noise_3_2.wav,,,,,,,,,,,,,,,0,87,87,72,,,,,,,,,,,,,,,,,,,,,,,576.7070820820518,None,578.2070140230935,None,579.5904029710218,None,flush,579.5904029710218,None,return,2.1287912279367447,579.673910616897,None,,,,,,,,,,,,,,,,,,,,,,,,,,,,,,,,,51,001,2023_Mar_13_1148,SpeechDraft1Carolyn_lessNoise_PlusLocalization,2021.2.3,59.99718772391031,
nice.wav,nice.mpg,nice,2,AV,Pink_Noise_2_1.wav,Pink_Noise_2_2.wav,,,,,,,,,,,,,,,0,88,88,99,,,,,,,,,,,,,,,,,,,,,,,581.8237746090163,None,583.3401649289299,None,584.7238956810907,None,nice,584.7238956810907,None,return,1.059439720120281,584.8072221949697,None,,,,,,,,,,,,,,,,,,,,,,,,,,,,,,,,,51,001,2023_Mar_13_1148,SpeechDraft1Carolyn_lessNoise_PlusLocalization,2021.2.3,59.99718772391031,
fame.wav,fame.mpg,fame,3,A,Pink_Noise_3_1.wav,Pink_Noise_3_2.wav,,,,,,,,,,,,,,,0,89,89,57,,,,,,,,,,,,,,,,,,,,,,,585.8904629950412,None,587.4068573429249,None,588.7904494819231,None,bay,588.7904494819231,None,return,2.0489321309141815,588.8737904049922,None,,,,,,,,,,,,,,,,,,,,,,,,,,,,,,,,,51,001,2023_Mar_13_1148,SpeechDraft1Carolyn_lessNoise_PlusLocalization,2021.2.3,59.99718772391031,
beige.wav,beige.mpg,beige,2,AV,Pink_Noise_2_1.wav,Pink_Noise_2_2.wav,,,,,,,,,,,,,,,0,90,90,73,,,,,,,,,,,,,,,,,,,,,,,590.9405023320578,None,592.4567778930068,None,593.8403453889769,None,beige,593.8403453889769,None,return,1.8628578959032893,593.9239385148976,None,,,,,,,,,,,,,,,,,,,,,,,,,,,,,,,,,51,001,2023_Mar_13_1148,SpeechDraft1Carolyn_lessNoise_PlusLocalization,2021.2.3,59.99718772391031,
poll.wav,poll.mpg,poll,6,A,Pink_Noise_6_1.wav,Pink_Noise_6_2.wav,,,,,,,,,,,,,,,0,91,91,32,,,,,,,,,,,,,,,,,,,,,,,595.8071342490148,None,597.3235458990093,None,598.7072219150141,None,fan,598.7072219150141,None,return,1.2442460169550031,598.7904798979871,None,,,,,,,,,,,,,,,,,,,,,,,,,,,,,,,,,51,001,2023_Mar_13_1148,SpeechDraft1Carolyn_lessNoise_PlusLocalization,2021.2.3,59.99718772391031,
guilt.wav,guilt.mpg,guilt,1,AV,Pink_Noise_1_1.wav,Pink_Noise_1_2.wav,,,,,,,,,,,,,,,0,92,92,94,,,,,,,,,,,,,,,,,,,,,,,600.057086376939,None,601.5903778569773,None,602.9736552000977,None,guilt,602.9736552000977,None,return,4.561559075023979,603.0571344830096,None,,,,,,,,,,,,,,,,,,,,,,,,,,,,,,,,,51,001,2023_Mar_13_1148,SpeechDraft1Carolyn_lessNoise_PlusLocalization,2021.2.3,59.99718772391031,
brash.wav,brash.mpg,brash,4,AV,Pink_Noise_4_1.wav,Pink_Noise_4_2.wav,,,,,,,,,,,,,,,0,93,93,87,,,,,,,,,,,,,,,,,,,,,,,607.6405320849735,None,609.1570023719687,None,610.5404647151008,None,brush,610.5404647151008,None,return,4.842778994003311,610.6238837810233,None,,,,,,,,,,,,,,,,,,,,,,,,,,,,,,,,,51,001,2023_Mar_13_1148,SpeechDraft1Carolyn_lessNoise_PlusLocalization,2021.2.3,59.99718772391031,
bathe.wav,bathe.mpg,bathe,1,AV,Pink_Noise_1_1.wav,Pink_Noise_1_2.wav,,,,,,,,,,,,,,,0,94,94,81,,,,,,,,,,,,,,,,,,,,,,,615.4907010749448,None,617.006892944919,None,618.3904599859379,None,bathe,618.3904599859379,None,return,1.9049430079758167,618.4738051509485,None,,,,,,,,,,,,,,,,,,,,,,,,,,,,,,,,,51,001,2023_Mar_13_1148,SpeechDraft1Carolyn_lessNoise_PlusLocalization,2021.2.3,59.99718772391031,
grip.wav,grip.mpg,grip,2,A,Pink_Noise_2_1.wav,Pink_Noise_2_2.wav,,,,,,,,,,,,,,,0,95,95,53,,,,,,,,,,,,,,,,,,,,,,,620.4071326300036,None,621.9401979490649,None,623.324079351034,None,grip,623.324079351034,None,return,1.4915350310038775,623.4071339881048,None,,,,,,,,,,,,,,,,,,,,,,,,,,,,,,,,,51,001,2023_Mar_13_1148,SpeechDraft1Carolyn_lessNoise_PlusLocalization,2021.2.3,59.99718772391031,
feed.wav,feed.mpg,feed,6,A,Pink_Noise_6_1.wav,Pink_Noise_6_2.wav,,,,,,,,,,,,,,,0,96,96,54,,,,,,,,,,,,,,,,,,,,,,,624.9239187689964,None,626.4567982880399,None,627.8404697019141,None,plead,627.8404697019141,None,return,2.1587883760221303,627.9239113179501,None,,,,,,,,,,,,,,,,,,,,,,,,,,,,,,,,,51,001,2023_Mar_13_1148,SpeechDraft1Carolyn_lessNoise_PlusLocalization,2021.2.3,59.99718772391031,
brain.wav,brain.mpg,brain,1,AV,Pink_Noise_1_1.wav,Pink_Noise_1_2.wav,,,,,,,,,,,,,,,0,97,97,119,,,,,,,,,,,,,,,,,,,,,,,630.1073188469745,None,631.6235961520579,None,633.0072087019216,None,brain,633.0072087019216,None,return,1.4961606410797685,633.0905610860791,None,,,,,,,,,,,,,,,,,,,,,,,,,,,,,,,,,51,001,2023_Mar_13_1148,SpeechDraft1Carolyn_lessNoise_PlusLocalization,2021.2.3,59.99718772391031,
cease.wav,cease.mpg,cease,4,AV,Pink_Noise_4_1.wav,Pink_Noise_4_2.wav,,,,,,,,,,,,,,,0,98,98,117,,,,,,,,,,,,,,,,,,,,,,,634.6072481928859,None,636.123626051005,None,637.5071740068961,None,seats,637.5071740068961,None,return,2.004199088085443,637.5904857709538,None,,,,,,,,,,,,,,,,,,,,,,,,,,,,,,,,,51,001,2023_Mar_13_1148,SpeechDraft1Carolyn_lessNoise_PlusLocalization,2021.2.3,59.99718772391031,
your.wav,your.mpg,your,1,A,Pink_Noise_1_1.wav,Pink_Noise_1_2.wav,,,,,,,,,,,,,,,0,99,99,35,,,,,,,,,,,,,,,,,,,,,,,639.6237729249988,None,641.1403432399966,None,642.5239792889915,None,your,642.5239792889915,None,return,2.0113754749763757,642.6073047509417,None,,,,,,,,,,,,,,,,,,,,,,,,,,,,,,,,,51,001,2023_Mar_13_1148,SpeechDraft1Carolyn_lessNoise_PlusLocalization,2021.2.3,59.99718772391031,
skull.wav,skull.mpg,skull,4,A,Pink_Noise_4_1.wav,Pink_Noise_4_2.wav,,,,,,,,,,,,,,,0,100,100,56,,,,,,,,,,,,,,,,,,,,,,,644.6405389080755,None,646.1570163751021,None,647.5404053661041,None,skull,647.5404053661041,None,return,1.9787714921403676,647.6239268009085,None,,,,,,,,,,,,,,,,,,,,,,,,,,,,,,,,,51,001,2023_Mar_13_1148,SpeechDraft1Carolyn_lessNoise_PlusLocalization,2021.2.3,59.99718772391031,
phase.wav,phase.mpg,phase,1,AV,Pink_Noise_1_1.wav,Pink_Noise_1_2.wav,,,,,,,,,,,,,,,0,101,101,102,,,,,,,,,,,,,,,,,,,,,,,649.6238778540865,None,651.140317813959,None,652.5239380439743,None,phase,652.5239380439743,None,return,5.947572102071717,652.6071553039365,None,,,,,,,,,,,,,,,,,,,,,,,,,,,,,,,,,51,001,2023_Mar_13_1148,SpeechDraft1Carolyn_lessNoise_PlusLocalization,2021.2.3,59.99718772391031,
weep.wav,weep.mpg,weep,2,A,Pink_Noise_2_1.wav,Pink_Noise_2_2.wav,,,,,,,,,,,,,,,0,102,102,46,,,,,,,,,,,,,,,,,,,,,,,658.5739362919703,None,660.0909464990254,None,661.4738914500922,None,we,661.4738914500922,None,return,0.7974730799905956,661.5572453239001,None,,,,,,,,,,,,,,,,,,,,,,,,,,,,,,,,,51,001,2023_Mar_13_1148,SpeechDraft1Carolyn_lessNoise_PlusLocalization,2021.2.3,59.99718772391031,
feud.wav,feud.mpg,feud,3,AV,Pink_Noise_3_1.wav,Pink_Noise_3_2.wav,,,,,,,,,,,,,,,0,103,103,93,,,,,,,,,,,,,,,,,,,,,,,662.373942862032,None,663.9236156230327,None,665.3072352309246,None,feud,665.3072352309246,None,return,2.2441193158738315,665.3905773190781,None,,,,,,,,,,,,,,,,,,,,,,,,,,,,,,,,,51,001,2023_Mar_13_1148,SpeechDraft1Carolyn_lessNoise_PlusLocalization,2021.2.3,59.99718772391031,
quest.wav,quest.mpg,quest,4,A,Pink_Noise_4_1.wav,Pink_Noise_4_2.wav,,,,,,,,,,,,,,,0,104,104,51,,,,,,,,,,,,,,,,,,,,,,,667.6573137869127,None,669.1903092619032,None,670.5739628209267,None,pressed,670.5739628209267,None,return,4.505480571184307,670.6572998641059,None,,,,,,,,,,,,,,,,,,,,,,,,,,,,,,,,,51,001,2023_Mar_13_1148,SpeechDraft1Carolyn_lessNoise_PlusLocalization,2021.2.3,59.99718772391031,
crowd.wav,crowd.mpg,crowd,6,AV,Pink_Noise_6_1.wav,Pink_Noise_6_2.wav,,,,,,,,,,,,,,,0,105,105,60,,,,,,,,,,,,,,,,,,,,,,,675.1907547300216,None,676.7237259719986,None,678.1070830230601,None,crowd,678.1070830230601,None,return,7.603994921082631,678.1906937400345,None,,,,,,,,,,,,,,,,,,,,,,,,,,,,,,,,,51,001,2023_Mar_13_1148,SpeechDraft1Carolyn_lessNoise_PlusLocalization,2021.2.3,59.99718772391031,
lie.wav,lie.mpg,lie,1,AV,Pink_Noise_1_1.wav,Pink_Noise_1_2.wav,,,,,,,,,,,,,,,0,106,106,109,,,,,,,,,,,,,,,,,,,,,,,685.823896947084,None,687.3403837829828,None,688.7238739458844,None,lie,688.7238739458844,None,return,1.731460286071524,688.8073049329687,None,,,,,,,,,,,,,,,,,,,,,,,,,,,,,,,,,51,001,2023_Mar_13_1148,SpeechDraft1Carolyn_lessNoise_PlusLocalization,2021.2.3,59.99718772391031,
please.wav,please.mpg,please,4,AV,Pink_Noise_4_1.wav,Pink_Noise_4_2.wav,,,,,,,,,,,,,,,0,107,107,84,,,,,,,,,,,,,,,,,,,,,,,690.5572649359237,None,692.0736617869698,None,693.4573800589424,None,"please
",693.4573800589424,None,return,1.518086405005306,693.5405990129802,None,,,,,,,,,,,,,,,,,,,,,,,,,,,,,,,,,51,001,2023_Mar_13_1148,SpeechDraft1Carolyn_lessNoise_PlusLocalization,2021.2.3,59.99718772391031,
gray.wav,gray.mpg,gray,5,AV,Pink_Noise_5_1.wav,Pink_Noise_5_2.wav,,,,,,,,,,,,,,,0,108,108,61,,,,,,,,,,,,,,,,,,,,,,,695.0906346479896,None,696.6070478949696,None,697.990391358966,None,gray,697.990391358966,None,return,1.3129273699596524,698.073740117019,None,,,,,,,,,,,,,,,,,,,,,,,,,,,,,,,,,51,001,2023_Mar_13_1148,SpeechDraft1Carolyn_lessNoise_PlusLocalization,2021.2.3,59.99718772391031,
bloom.wav,bloom.mpg,bloom,4,AV,Pink_Noise_4_1.wav,Pink_Noise_4_2.wav,,,,,,,,,,,,,,,0,109,109,110,,,,,,,,,,,,,,,,,,,,,,,699.4072571010329,None,700.9238573969342,None,702.3071856519673,None,blue,702.3071856519673,None,return,5.860060120932758,702.3906214830931,None,,,,,,,,,,,,,,,,,,,,,,,,,,,,,,,,,51,001,2023_Mar_13_1148,SpeechDraft1Carolyn_lessNoise_PlusLocalization,2021.2.3,59.99718772391031,
fade.wav,fade.mpg,fade,6,A,Pink_Noise_6_1.wav,Pink_Noise_6_2.wav,,,,,,,,,,,,,,,0,110,110,39,,,,,,,,,,,,,,,,,,,,,,,708.2739513560664,None,709.7903330249246,None,711.174012308009,None,fan,711.174012308009,None,return,1.4413375239819288,711.2573597969022,None,,,,,,,,,,,,,,,,,,,,,,,,,,,,,,,,,51,001,2023_Mar_13_1148,SpeechDraft1Carolyn_lessNoise_PlusLocalization,2021.2.3,59.99718772391031,
wear.wav,wear.mpg,wear,6,AV,Pink_Noise_6_1.wav,Pink_Noise_6_2.wav,,,,,,,,,,,,,,,0,111,111,92,,,,,,,,,,,,,,,,,,,,,,,712.7240387438796,None,714.2571197049692,None,715.6405539149418,None,way,715.6405539149418,None,return,2.094613030087203,715.7240672400221,None,,,,,,,,,,,,,,,,,,,,,,,,,,,,,,,,,51,001,2023_Mar_13_1148,SpeechDraft1Carolyn_lessNoise_PlusLocalization,2021.2.3,59.99718772391031,
drink.wav,drink.mpg,drink,1,A,Pink_Noise_1_1.wav,Pink_Noise_1_2.wav,,,,,,,,,,,,,,,0,112,112,48,,,,,,,,,,,,,,,,,,,,,,,717.8405798869208,None,719.3583633000962,None,720.740521742031,None,drink,720.740521742031,None,return,3.442674641031772,720.8240420080256,None,,,,,,,,,,,,,,,,,,,,,,,,,,,,,,,,,51,001,2023_Mar_13_1148,SpeechDraft1Carolyn_lessNoise_PlusLocalization,2021.2.3,59.99718772391031,
brake.wav,brake.mpg,brake,6,A,Pink_Noise_6_1.wav,Pink_Noise_6_2.wav,,,,,,,,,,,,,,,0,113,113,24,,,,,,,,,,,,,,,,,,,,,,,724.2906545349397,None,725.8070982100908,None,727.1907364050858,None,"rip
",727.1907364050858,None,return,1.800718876067549,727.2739723210689,None,,,,,,,,,,,,,,,,,,,,,,,,,,,,,,,,,51,001,2023_Mar_13_1148,SpeechDraft1Carolyn_lessNoise_PlusLocalization,2021.2.3,59.99718772391031,
row.wav,row.mpg,row,2,AV,Pink_Noise_2_1.wav,Pink_Noise_2_2.wav,,,,,,,,,,,,,,,0,114,114,111,,,,,,,,,,,,,,,,,,,,,,,729.1072834059596,None,730.6238062849734,None,732.0071191720199,None,row,732.0071191720199,None,return,1.6640623391140252,732.0906291559804,None,,,,,,,,,,,,,,,,,,,,,,,,,,,,,,,,,51,001,2023_Mar_13_1148,SpeechDraft1Carolyn_lessNoise_PlusLocalization,2021.2.3,59.99718772391031,
dip.wav,dip.mpg,dip,2,A,Pink_Noise_2_1.wav,Pink_Noise_2_2.wav,,,,,,,,,,,,,,,0,115,115,12,,,,,,,,,,,,,,,,,,,,,,,733.7740345140919,None,735.3071002920624,None,736.6906994390301,None,dip,736.6906994390301,None,return,1.2206440770532936,736.7740332940593,None,,,,,,,,,,,,,,,,,,,,,,,,,,,,,,,,,51,001,2023_Mar_13_1148,SpeechDraft1Carolyn_lessNoise_PlusLocalization,2021.2.3,59.99718772391031,
brown.wav,brown.mpg,brown,5,AV,Pink_Noise_5_1.wav,Pink_Noise_5_2.wav,,,,,,,,,,,,,,,0,116,116,76,,,,,,,,,,,,,,,,,,,,,,,738.0239904429764,None,739.5570607830305,None,740.9407080779783,None,bow,740.9407080779783,None,return,2.154792564921081,741.0239431390073,None,,,,,,,,,,,,,,,,,,,,,,,,,,,,,,,,,51,001,2023_Mar_13_1148,SpeechDraft1Carolyn_lessNoise_PlusLocalization,2021.2.3,59.99718772391031,
route.wav,route.mpg,route,3,A,Pink_Noise_3_1.wav,Pink_Noise_3_2.wav,,,,,,,,,,,,,,,0,117,117,8,,,,,,,,,,,,,,,,,,,,,,,743.2074073590338,None,744.7238245080225,None,746.1073684180155,None,boot,746.1073684180155,None,return,1.6200878219678998,746.1905997770373,None,,,,,,,,,,,,,,,,,,,,,,,,,,,,,,,,,51,001,2023_Mar_13_1148,SpeechDraft1Carolyn_lessNoise_PlusLocalization,2021.2.3,59.99718772391031,
bait.wav,bait.mpg,bait,4,AV,Pink_Noise_4_1.wav,Pink_Noise_4_2.wav,,,,,,,,,,,,,,,0,118,118,65,,,,,,,,,,,,,,,,,,,,,,,747.8406791971065,None,749.3737923530862,None,750.7573768699076,None,bait,750.7573768699076,None,return,1.3940317388623953,750.8407027490903,None,,,,,,,,,,,,,,,,,,,,,,,,,,,,,,,,,51,001,2023_Mar_13_1148,SpeechDraft1Carolyn_lessNoise_PlusLocalization,2021.2.3,59.99718772391031,
dope.wav,dope.mpg,dope,5,AV,Pink_Noise_5_1.wav,Pink_Noise_5_2.wav,,,,,,,,,,,,,,,0,119,119,86,,,,,,,,,,,,,,,,,,,,,,,752.2573779530358,None,753.7904053460807,None,755.173921596026,None,"joke
",755.173921596026,None,return,1.4173729929607362,755.2573143290356,None,,,,,,,,,,,,,,,,,,,,,,,,,,,,,,,,,51,001,2023_Mar_13_1148,SpeechDraft1Carolyn_lessNoise_PlusLocalization,2021.2.3,59.99718772391031,
,,,,,,,,,,,,,,,,,,,,,,,,,,,,,,,,,,,,,,,,,,,,,,,,,,,,,,,,,,,,,,,,,,space,50.5952564610634,756.8074335989077,None,,,,,,,,,,,,,,,,,,,,,,,51,001,2023_Mar_13_1148,SpeechDraft1Carolyn_lessNoise_PlusLocalization,2021.2.3,59.99718772391031,
,,,,,,,,midLeft,-13.0,2,ch1Sound_localizationTask.wav,-13.0,"(762, 878)","(-198,-202)",-190,-338,,,,,,,,,0,0,0,1,,,,,,,,,,,,,,,,,,,,,,,,,,,,,,,,,,,,,,,,,,756.8074335989077,None,807.4404262329917,None,808.5418692240492,None,809.4739855399821,None,1.4645502645502646,3.886574774980545,809.4739855399821,None,,,,,,,,,,,51,001,2023_Mar_13_1148,SpeechDraft1Carolyn_lessNoise_PlusLocalization,2021.2.3,59.99718772391031,
,,,,,,,,nearLeft,-6.5,1,ch1Sound_localizationTask.wav,-6.5,"(857, 878)","(-103,-202)",-95,-338,,,,,,,,,0,1,1,2,,,,,,,,,,,,,,,,,,,,,,,,,,,,,,,,,,,,,,,,,,,,813.3574408919085,None,814.4572111070156,None,815.3905410340521,None,1.378835978835979,1.215624226955697,815.3905410340521,None,,,,,,,,,,,51,001,2023_Mar_13_1148,SpeechDraft1Carolyn_lessNoise_PlusLocalization,2021.2.3,59.99718772391031,
,,,,,,,,midRight,13.0,3,ch1Sound_localizationTask.wav,13.0,"(1142, 878)","(182, -202)",190,-338,,,,,,,,,0,2,2,5,,,,,,,,,,,,,,,,,,,,,,,,,,,,,,,,,,,,,,,,,,,,816.6075672078878,None,817.7071887638886,None,818.6404723268934,None,1.6095238095238096,1.2829984000418335,818.6404723268934,None,,,,,,,,,,,51,001,2023_Mar_13_1148,SpeechDraft1Carolyn_lessNoise_PlusLocalization,2021.2.3,59.99718772391031,
,,,,,,,,nearLeft,-6.5,1,ch1Sound_localizationTask.wav,-6.5,"(857, 878)","(-103,-202)",-95,-338,,,,,,,,,0,3,3,2,,,,,,,,,,,,,,,,,,,,,,,,,,,,,,,,,,,,,,,,,,,,819.9240104958881,None,821.0239518710878,None,821.9571155949961,None,1.398941798941799,1.3336874060332775,821.9571155949961,None,,,,,,,,,,,51,001,2023_Mar_13_1148,SpeechDraft1Carolyn_lessNoise_PlusLocalization,2021.2.3,59.99718772391031,
,,,,,,,,farRight,19.1,4,ch1Sound_localizationTask.wav,19.1,"(1237, 878)","(277,-202)",285,-338,,,,,,,,,0,4,4,6,,,,,,,,,,,,,,,,,,,,,,,,,,,,,,,,,,,,,,,,,,,,823.2908564079553,None,824.3905768978875,None,825.3238539390732,None,1.5804232804232803,1.333486492978409,825.3238539390732,None,,,,,,,,,,,51,001,2023_Mar_13_1148,SpeechDraft1Carolyn_lessNoise_PlusLocalization,2021.2.3,59.99718772391031,
,,,,,,,,farRight,19.1,4,ch1Sound_localizationTask.wav,19.1,"(1237, 878)","(277,-202)",285,-338,,,,,,,,,0,5,5,6,,,,,,,,,,,,,,,,,,,,,,,,,,,,,,,,,,,,,,,,,,,,826.6574219840113,None,827.7572639770806,None,828.6906676238868,None,1.607936507936508,0.9998810631223023,828.6906676238868,None,,,,,,,,,,,51,001,2023_Mar_13_1148,SpeechDraft1Carolyn_lessNoise_PlusLocalization,2021.2.3,59.99718772391031,
,,,,,,,,midRight,13.0,3,ch1Sound_localizationTask.wav,13.0,"(1142, 878)","(182, -202)",190,-338,,,,,,,,,0,6,6,5,,,,,,,,,,,,,,,,,,,,,,,,,,,,,,,,,,,,,,,,,,,,829.690887263976,None,830.7904062569141,None,831.723813196877,None,1.5984126984126985,1.217397078871727,831.723813196877,None,,,,,,,,,,,51,001,2023_Mar_13_1148,SpeechDraft1Carolyn_lessNoise_PlusLocalization,2021.2.3,59.99718772391031,
,,,,,,,,farRight,19.1,4,ch1Sound_localizationTask.wav,19.1,"(1237, 878)","(277,-202)",285,-338,,,,,,,,,1,0,7,6,,,,,,,,,,,,,,,,,,,,,,,,,,,,,,,,,,,,,,,,,,,,832.9413914449979,None,834.0404941348825,None,834.9739098050632,None,1.633862433862434,1.1500125438906252,834.9739098050632,None,,,,,,,,,,,51,001,2023_Mar_13_1148,SpeechDraft1Carolyn_lessNoise_PlusLocalization,2021.2.3,59.99718772391031,
,,,,,,,,midLeft,-13.0,2,ch1Sound_localizationTask.wav,-13.0,"(762, 878)","(-198,-202)",-190,-338,,,,,,,,,1,1,8,1,,,,,,,,,,,,,,,,,,,,,,,,,,,,,,,,,,,,,,,,,,,,836.1242856499739,None,837.2238219659775,None,838.1570779338945,None,1.343915343915344,1.2508140502031893,838.1570779338945,None,,,,,,,,,,,51,001,2023_Mar_13_1148,SpeechDraft1Carolyn_lessNoise_PlusLocalization,2021.2.3,59.99718772391031,
,,,,,,,,nearRight,6.5,0,ch1Sound_localizationTask.wav,6.5,"(1047, 878)","(87, -202)",95,-338,,,,,,,,,1,2,9,4,,,,,,,,,,,,,,,,,,,,,,,,,,,,,,,,,,,,,,,,,,,,839.4241346009076,None,840.52385198907,None,841.4570926679298,None,1.537037037037037,1.7666069970000535,841.4570926679298,None,,,,,,,,,,,51,001,2023_Mar_13_1148,SpeechDraft1Carolyn_lessNoise_PlusLocalization,2021.2.3,59.99718772391031,
,,,,,,,,nearLeft,-6.5,1,ch1Sound_localizationTask.wav,-6.5,"(857, 878)","(-103,-202)",-95,-338,,,,,,,,,1,3,10,2,,,,,,,,,,,,,,,,,,,,,,,,,,,,,,,,,,,,,,,,,,,,843.2241509330925,None,844.3239898930769,None,845.257131573977,None,1.4275132275132276,0.932954337913543,845.257131573977,None,,,,,,,,,,,51,001,2023_Mar_13_1148,SpeechDraft1Carolyn_lessNoise_PlusLocalization,2021.2.3,59.99718772391031,
,,,,,,,,farRight,19.1,4,ch1Sound_localizationTask.wav,19.1,"(1237, 878)","(277,-202)",285,-338,,,,,,,,,1,4,11,6,,,,,,,,,,,,,,,,,,,,,,,,,,,,,,,,,,,,,,,,,,,,846.1907617088873,None,847.2906110410113,None,848.223786967108,None,1.5613756613756613,1.1665158630348742,848.223786967108,None,,,,,,,,,,,51,001,2023_Mar_13_1148,SpeechDraft1Carolyn_lessNoise_PlusLocalization,2021.2.3,59.99718772391031,
,,,,,,,,midRight,13.0,3,ch1Sound_localizationTask.wav,13.0,"(1142, 878)","(182, -202)",190,-338,,,,,,,,,1,5,12,5,,,,,,,,,,,,,,,,,,,,,,,,,,,,,,,,,,,,,,,,,,,,849.3908357690088,None,850.4906697729602,None,851.4238315760158,None,1.516931216931217,0.7161134399939328,851.4238315760158,None,,,,,,,,,,,51,001,2023_Mar_13_1148,SpeechDraft1Carolyn_lessNoise_PlusLocalization,2021.2.3,59.99718772391031,
,,,,,,,,center,0.0,6,ch1Sound_localizationTask.wav,0.0,"(952, 878)","(-8,-202)",0,-338,,,,,,,,,1,6,13,3,,,,,,,,,,,,,,,,,,,,,,,,,,,,,,,,,,,,,,,,,,,,852.1407778649591,None,853.240491396049,None,854.1740435950924,None,1.4883597883597883,0.8483431858476251,854.1740435950924,None,,,,,,,,,,,51,001,2023_Mar_13_1148,SpeechDraft1Carolyn_lessNoise_PlusLocalization,2021.2.3,59.99718772391031,
,,,,,,,,nearRight,6.5,0,ch1Sound_localizationTask.wav,6.5,"(1047, 878)","(87, -202)",95,-338,,,,,,,,,2,0,14,4,,,,,,,,,,,,,,,,,,,,,,,,,,,,,,,,,,,,,,,,,,,,855.0241637700237,None,856.1239221170545,None,857.0573047380894,None,1.507936507936508,0.6497299880720675,857.0573047380894,None,,,,,,,,,,,51,001,2023_Mar_13_1148,SpeechDraft1Carolyn_lessNoise_PlusLocalization,2021.2.3,59.99718772391031,
,,,,,,,,midLeft,-13.0,2,ch1Sound_localizationTask.wav,-13.0,"(762, 878)","(-198,-202)",-190,-338,,,,,,,,,2,1,15,1,,,,,,,,,,,,,,,,,,,,,,,,,,,,,,,,,,,,,,,,,,,,857.7074729749002,None,858.8071968450677,None,859.740562095074,None,1.4603174603174602,0.949568536831066,859.740562095074,None,,,,,,,,,,,51,001,2023_Mar_13_1148,SpeechDraft1Carolyn_lessNoise_PlusLocalization,2021.2.3,59.99718772391031,
,,,,,,,,farLeft,-19.1,5,ch1Sound_localizationTask.wav,-19.1,"(667, 878)","(-293,-202)",-285,-338,,,,,,,,,2,2,16,0,,,,,,,,,,,,,,,,,,,,,,,,,,,,,,,,,,,,,,,,,,,,860.6908434929792,None,861.7906816320028,None,862.7238879851066,None,1.398941798941799,1.0499427439644933,862.7238879851066,None,,,,,,,,,,,51,001,2023_Mar_13_1148,SpeechDraft1Carolyn_lessNoise_PlusLocalization,2021.2.3,59.99718772391031,
,,,,,,,,center,0.0,6,ch1Sound_localizationTask.wav,0.0,"(952, 878)","(-8,-202)",0,-338,,,,,,,,,2,3,17,3,,,,,,,,,,,,,,,,,,,,,,,,,,,,,,,,,,,,,,,,,,,,863.7741870901082,None,864.8739320840687,None,865.8071691798978,None,1.4973544973544972,1.233477524947375,865.8071691798978,None,,,,,,,,,,,51,001,2023_Mar_13_1148,SpeechDraft1Carolyn_lessNoise_PlusLocalization,2021.2.3,59.99718772391031,
,,,,,,,,nearRight,6.5,0,ch1Sound_localizationTask.wav,6.5,"(1047, 878)","(87, -202)",95,-338,,,,,,,,,2,4,18,4,,,,,,,,,,,,,,,,,,,,,,,,,,,,,,,,,,,,,,,,,,,,867.0412960778922,None,868.1405199370347,None,869.0739122780506,None,1.5354497354497354,1.3660507530439645,869.0739122780506,None,,,,,,,,,,,51,001,2023_Mar_13_1148,SpeechDraft1Carolyn_lessNoise_PlusLocalization,2021.2.3,59.99718772391031,
,,,,,,,,midLeft,-13.0,2,ch1Sound_localizationTask.wav,-13.0,"(762, 878)","(-198,-202)",-190,-338,,,,,,,,,2,5,19,1,,,,,,,,,,,,,,,,,,,,,,,,,,,,,,,,,,,,,,,,,,,,870.4407702779863,None,871.5405468139797,None,872.4739156858996,None,1.3994708994708995,0.9989661739673465,872.4739156858996,None,,,,,,,,,,,51,001,2023_Mar_13_1148,SpeechDraft1Carolyn_lessNoise_PlusLocalization,2021.2.3,59.99718772391031,
,,,,,,,,midLeft,-13.0,2,ch1Sound_localizationTask.wav,-13.0,"(762, 878)","(-198,-202)",-190,-338,,,,,,,,,2,6,20,1,,,,,,,,,,,,,,,,,,,,,,,,,,,,,,,,,,,,,,,,,,,,873.4741405958775,None,874.5738832410425,None,875.5073163448833,None,1.4206349206349207,0.766644389135763,875.5073163448833,None,,,,,,,,,,,51,001,2023_Mar_13_1148,SpeechDraft1Carolyn_lessNoise_PlusLocalization,2021.2.3,59.99718772391031,
,,,,,,,,center,0.0,6,ch1Sound_localizationTask.wav,0.0,"(952, 878)","(-8,-202)",0,-338,,,,,,,,,3,0,21,3,,,,,,,,,,,,,,,,,,,,,,,,,,,,,,,,,,,,,,,,,,,,876.2741735349409,None,877.3738711560145,None,878.307252407074,None,1.48994708994709,0.7497041220776737,878.307252407074,None,,,,,,,,,,,51,001,2023_Mar_13_1148,SpeechDraft1Carolyn_lessNoise_PlusLocalization,2021.2.3,59.99718772391031,
,,,,,,,,nearRight,6.5,0,ch1Sound_localizationTask.wav,6.5,"(1047, 878)","(87, -202)",95,-338,,,,,,,,,3,1,22,4,,,,,,,,,,,,,,,,,,,,,,,,,,,,,,,,,,,,,,,,,,,,879.0575683920179,None,880.1571552238893,None,881.0905551419128,None,1.502116402116402,0.9496449150610715,881.0905551419128,None,,,,,,,,,,,51,001,2023_Mar_13_1148,SpeechDraft1Carolyn_lessNoise_PlusLocalization,2021.2.3,59.99718772391031,
,,,,,,,,nearLeft,-6.5,1,ch1Sound_localizationTask.wav,-6.5,"(857, 878)","(-103,-202)",-95,-338,,,,,,,,,3,2,23,2,,,,,,,,,,,,,,,,,,,,,,,,,,,,,,,,,,,,,,,,,,,,882.0408723400906,None,883.140571919037,None,884.0739303398877,None,1.4328042328042327,0.7666535761673003,884.0739303398877,None,,,,,,,,,,,51,001,2023_Mar_13_1148,SpeechDraft1Carolyn_lessNoise_PlusLocalization,2021.2.3,59.99718772391031,
,,,,,,,,midRight,13.0,3,ch1Sound_localizationTask.wav,13.0,"(1142, 878)","(182, -202)",190,-338,,,,,,,,,3,3,24,5,,,,,,,,,,,,,,,,,,,,,,,,,,,,,,,,,,,,,,,,,,,,884.8416855889373,None,885.9405694310553,None,886.873906434048,None,1.5412698412698411,0.731740582967177,886.873906434048,None,,,,,,,,,,,51,001,2023_Mar_13_1148,SpeechDraft1Carolyn_lessNoise_PlusLocalization,2021.2.3,59.99718772391031,
,,,,,,,,farRight,19.1,4,ch1Sound_localizationTask.wav,19.1,"(1237, 878)","(277,-202)",285,-338,,,,,,,,,3,4,25,6,,,,,,,,,,,,,,,,,,,,,,,,,,,,,,,,,,,,,,,,,,,,887.6074980050325,None,888.7074463139288,None,889.6406647309195,None,1.5947089947089947,0.9983147780876607,889.6406647309195,None,,,,,,,,,,,51,001,2023_Mar_13_1148,SpeechDraft1Carolyn_lessNoise_PlusLocalization,2021.2.3,59.99718772391031,
,,,,,,,,farLeft,-19.1,5,ch1Sound_localizationTask.wav,-19.1,"(667, 878)","(-293,-202)",-285,-338,,,,,,,,,3,5,26,0,,,,,,,,,,,,,,,,,,,,,,,,,,,,,,,,,,,,,,,,,,,,890.6410058850888,None,891.7406832689885,None,892.6740282909013,None,1.3529100529100528,0.9665811171289533,892.6740282909013,None,,,,,,,,,,,51,001,2023_Mar_13_1148,SpeechDraft1Carolyn_lessNoise_PlusLocalization,2021.2.3,59.99718772391031,
,,,,,,,,midLeft,-13.0,2,ch1Sound_localizationTask.wav,-13.0,"(762, 878)","(-198,-202)",-190,-338,,,,,,,,,3,6,27,1,,,,,,,,,,,,,,,,,,,,,,,,,,,,,,,,,,,,,,,,,,,,893.6417592018843,None,894.7406607789453,None,895.6739430699963,None,1.4285714285714286,0.9498005760833621,895.6739430699963,None,,,,,,,,,,,51,001,2023_Mar_13_1148,SpeechDraft1Carolyn_lessNoise_PlusLocalization,2021.2.3,59.99718772391031,
,,,,,,,,center,0.0,6,ch1Sound_localizationTask.wav,0.0,"(952, 878)","(-8,-202)",0,-338,,,,,,,,,4,0,28,3,,,,,,,,,,,,,,,,,,,,,,,,,,,,,,,,,,,,,,,,,,,,896.6245536420029,None,897.723890345078,None,898.6571872299537,None,1.4756613756613757,0.7163679280783981,898.6571872299537,None,,,,,,,,,,,51,001,2023_Mar_13_1148,SpeechDraft1Carolyn_lessNoise_PlusLocalization,2021.2.3,59.99718772391031,
,,,,,,,,farRight,19.1,4,ch1Sound_localizationTask.wav,19.1,"(1237, 878)","(277,-202)",285,-338,,,,,,,,,4,1,29,6,,,,,,,,,,,,,,,,,,,,,,,,,,,,,,,,,,,,,,,,,,,,899.3742731839884,None,900.4739256280009,None,901.4072196320631,None,1.5904761904761906,0.9340137899853289,901.4072196320631,None,,,,,,,,,,,51,001,2023_Mar_13_1148,SpeechDraft1Carolyn_lessNoise_PlusLocalization,2021.2.3,59.99718772391031,
,,,,,,,,farLeft,-19.1,5,ch1Sound_localizationTask.wav,-19.1,"(667, 878)","(-293,-202)",-285,-338,,,,,,,,,4,2,30,0,,,,,,,,,,,,,,,,,,,,,,,,,,,,,,,,,,,,,,,,,,,,902.357532751048,None,903.457227098057,None,904.3906824649312,None,1.3587301587301588,0.8338371550198644,904.3906824649312,None,,,,,,,,,,,51,001,2023_Mar_13_1148,SpeechDraft1Carolyn_lessNoise_PlusLocalization,2021.2.3,59.99718772391031,
,,,,,,,,nearLeft,-6.5,1,ch1Sound_localizationTask.wav,-6.5,"(857, 878)","(-103,-202)",-95,-338,,,,,,,,,4,3,31,2,,,,,,,,,,,,,,,,,,,,,,,,,,,,,,,,,,,,,,,,,,,,905.2254971889779,None,906.3407025779597,None,907.257296951022,None,1.4402116402116403,0.7158579810056835,907.257296951022,None,,,,,,,,,,,51,001,2023_Mar_13_1148,SpeechDraft1Carolyn_lessNoise_PlusLocalization,2021.2.3,59.99718772391031,
,,,,,,,,nearLeft,-6.5,1,ch1Sound_localizationTask.wav,-6.5,"(857, 878)","(-103,-202)",-95,-338,,,,,,,,,4,4,32,2,,,,,,,,,,,,,,,,,,,,,,,,,,,,,,,,,,,,,,,,,,,,907.9743010338861,None,909.0740766469389,None,910.0073390218895,None,1.4439153439153438,0.6334389278199524,910.0073390218895,None,,,,,,,,,,,51,001,2023_Mar_13_1148,SpeechDraft1Carolyn_lessNoise_PlusLocalization,2021.2.3,59.99718772391031,
,,,,,,,,nearLeft,-6.5,1,ch1Sound_localizationTask.wav,-6.5,"(857, 878)","(-103,-202)",-95,-338,,,,,,,,,4,5,33,2,,,,,,,,,,,,,,,,,,,,,,,,,,,,,,,,,,,,,,,,,,,,910.6576668380294,None,911.7573214350268,None,912.6906268249732,None,1.435978835978836,0.5677225270774215,912.6906268249732,None,,,,,,,,,,,51,001,2023_Mar_13_1148,SpeechDraft1Carolyn_lessNoise_PlusLocalization,2021.2.3,59.99718772391031,
,,,,,,,,midLeft,-13.0,2,ch1Sound_localizationTask.wav,-13.0,"(762, 878)","(-198,-202)",-190,-338,,,,,,,,,4,6,34,1,,,,,,,,,,,,,,,,,,,,,,,,,,,,,,,,,,,,,,,,,,,,913.2742536149453,None,914.3740552349482,None,915.3072584290057,None,1.4227513227513229,0.6995413049589843,915.3072584290057,None,,,,,,,,,,,51,001,2023_Mar_13_1148,SpeechDraft1Carolyn_lessNoise_PlusLocalization,2021.2.3,59.99718772391031,
,,,,,,,,farLeft,-19.1,5,ch1Sound_localizationTask.wav,-19.1,"(667, 878)","(-293,-202)",-285,-338,,,,,,,,,5,0,35,0,,,,,,,,,,,,,,,,,,,,,,,,,,,,,,,,,,,,,,,,,,,,916.008563515963,None,917.1072948630899,None,918.0406936570071,None,1.353968253968254,0.9659310721326619,918.0406936570071,None,,,,,,,,,,,51,001,2023_Mar_13_1148,SpeechDraft1Carolyn_lessNoise_PlusLocalization,2021.2.3,59.99718772391031,
,,,,,,,,midLeft,-13.0,2,ch1Sound_localizationTask.wav,-13.0,"(762, 878)","(-198,-202)",-190,-338,,,,,,,,,5,1,36,1,,,,,,,,,,,,,,,,,,,,,,,,,,,,,,,,,,,,,,,,,,,,919.0088592320681,None,920.1240374080371,None,921.0405206580181,None,1.402116402116402,0.8335319620091468,921.0405206580181,None,,,,,,,,,,,51,001,2023_Mar_13_1148,SpeechDraft1Carolyn_lessNoise_PlusLocalization,2021.2.3,59.99718772391031,
,,,,,,,,midRight,13.0,3,ch1Sound_localizationTask.wav,13.0,"(1142, 878)","(182, -202)",190,-338,,,,,,,,,5,2,37,5,,,,,,,,,,,,,,,,,,,,,,,,,,,,,,,,,,,,,,,,,,,,921.8753089420497,None,922.9908363278955,None,923.9073200819548,None,1.546031746031746,0.7496825088746846,923.9073200819548,None,,,,,,,,,,,51,001,2023_Mar_13_1148,SpeechDraft1Carolyn_lessNoise_PlusLocalization,2021.2.3,59.99718772391031,
,,,,,,,,farLeft,-19.1,5,ch1Sound_localizationTask.wav,-19.1,"(667, 878)","(-293,-202)",-285,-338,,,,,,,,,5,3,38,0,,,,,,,,,,,,,,,,,,,,,,,,,,,,,,,,,,,,,,,,,,,,924.6577161171008,None,925.7573552639224,None,926.6906781459693,None,1.3756613756613758,0.6672438990790397,926.6906781459693,None,,,,,,,,,,,51,001,2023_Mar_13_1148,SpeechDraft1Carolyn_lessNoise_PlusLocalization,2021.2.3,59.99718772391031,
,,,,,,,,nearLeft,-6.5,1,ch1Sound_localizationTask.wav,-6.5,"(857, 878)","(-103,-202)",-95,-338,,,,,,,,,5,4,39,2,,,,,,,,,,,,,,,,,,,,,,,,,,,,,,,,,,,,,,,,,,,,927.3743034030776,None,928.4740705199074,None,929.4073290529195,None,1.4814814814814814,0.8827067320235074,929.4073290529195,None,,,,,,,,,,,51,001,2023_Mar_13_1148,SpeechDraft1Carolyn_lessNoise_PlusLocalization,2021.2.3,59.99718772391031,
,,,,,,,,center,0.0,6,ch1Sound_localizationTask.wav,0.0,"(952, 878)","(-8,-202)",0,-338,,,,,,,,,5,5,40,3,,,,,,,,,,,,,,,,,,,,,,,,,,,,,,,,,,,,,,,,,,,,930.2910687949043,None,931.3907847420778,None,932.3239880490582,None,1.4994708994708994,0.5997602958232164,932.3239880490582,None,,,,,,,,,,,51,001,2023_Mar_13_1148,SpeechDraft1Carolyn_lessNoise_PlusLocalization,2021.2.3,59.99718772391031,
,,,,,,,,center,0.0,6,ch1Sound_localizationTask.wav,0.0,"(952, 878)","(-8,-202)",0,-338,,,,,,,,,5,6,41,3,,,,,,,,,,,,,,,,,,,,,,,,,,,,,,,,,,,,,,,,,,,,932.9243488220964,None,934.0240206508897,None,934.957338853972,None,1.5,0.5332253270316869,934.957338853972,None,,,,,,,,,,,51,001,2023_Mar_13_1148,SpeechDraft1Carolyn_lessNoise_PlusLocalization,2021.2.3,59.99718772391031,
,,,,,,,,farRight,19.1,4,ch1Sound_localizationTask.wav,19.1,"(1237, 878)","(277,-202)",285,-338,,,,,,,,,6,0,42,6,,,,,,,,,,,,,,,,,,,,,,,,,,,,,,,,,,,,,,,,,,,,935.4910372700542,None,936.5906804369297,None,937.5240692419466,None,1.6253968253968254,0.7656749410089105,937.5240692419466,None,,,,,,,,,,,51,001,2023_Mar_13_1148,SpeechDraft1Carolyn_lessNoise_PlusLocalization,2021.2.3,59.99718772391031,
,,,,,,,,nearRight,6.5,0,ch1Sound_localizationTask.wav,6.5,"(1047, 878)","(87, -202)",95,-338,,,,,,,,,6,1,43,4,,,,,,,,,,,,,,,,,,,,,,,,,,,,,,,,,,,,,,,,,,,,938.290920675965,None,939.3906831969507,None,940.3241783098783,None,1.5153439153439154,0.8326376189943403,940.3241783098783,None,,,,,,,,,,,51,001,2023_Mar_13_1148,SpeechDraft1Carolyn_lessNoise_PlusLocalization,2021.2.3,59.99718772391031,
,,,,,,,,nearRight,6.5,0,ch1Sound_localizationTask.wav,6.5,"(1047, 878)","(87, -202)",95,-338,,,,,,,,,6,2,44,4,,,,,,,,,,,,,,,,,,,,,,,,,,,,,,,,,,,,,,,,,,,,941.1577656909358,None,942.2573276599869,None,943.1907521849498,None,1.506878306878307,0.6169051709584892,943.1907521849498,None,,,,,,,,,,,51,001,2023_Mar_13_1148,SpeechDraft1Carolyn_lessNoise_PlusLocalization,2021.2.3,59.99718772391031,
,,,,,,,,nearRight,6.5,0,ch1Sound_localizationTask.wav,6.5,"(1047, 878)","(87, -202)",95,-338,,,,,,,,,6,3,45,4,,,,,,,,,,,,,,,,,,,,,,,,,,,,,,,,,,,,,,,,,,,,943.8077284060419,None,944.9074375629425,None,945.8407147990074,None,1.506878306878307,0.6659089841414243,945.8407147990074,None,,,,,,,,,,,51,001,2023_Mar_13_1148,SpeechDraft1Carolyn_lessNoise_PlusLocalization,2021.2.3,59.99718772391031,
,,,,,,,,farLeft,-19.1,5,ch1Sound_localizationTask.wav,-19.1,"(667, 878)","(-293,-202)",-285,-338,,,,,,,,,6,4,46,0,,,,,,,,,,,,,,,,,,,,,,,,,,,,,,,,,,,,,,,,,,,,946.5076723319944,None,947.6074150840286,None,948.5407970249653,None,1.3587301587301588,0.7664646429475397,948.5407970249653,None,,,,,,,,,,,51,001,2023_Mar_13_1148,SpeechDraft1Carolyn_lessNoise_PlusLocalization,2021.2.3,59.99718772391031,
,,,,,,,,nearRight,6.5,0,ch1Sound_localizationTask.wav,6.5,"(1047, 878)","(87, -202)",95,-338,,,,,,,,,6,5,47,4,,,,,,,,,,,,,,,,,,,,,,,,,,,,,,,,,,,,,,,,,,,,949.3244102140889,None,950.4240495651029,None,951.3575115099084,None,1.5063492063492063,0.9321175420191139,951.3575115099084,None,,,,,,,,,,,51,001,2023_Mar_13_1148,SpeechDraft1Carolyn_lessNoise_PlusLocalization,2021.2.3,59.99718772391031,
,,,,,,,,center,0.0,6,ch1Sound_localizationTask.wav,0.0,"(952, 878)","(-8,-202)",0,-338,,,,,,,,,6,6,48,3,,,,,,,,,,,,,,,,,,,,,,,,,,,,,,,,,,,,,,,,,,,,952.2908668280579,None,953.3905230530072,None,954.3240720580798,None,1.5005291005291004,0.9332642590161413,954.3240720580798,None,,,,,,,,,,,51,001,2023_Mar_13_1148,SpeechDraft1Carolyn_lessNoise_PlusLocalization,2021.2.3,59.99718772391031,
,,,,,,,,farRight,19.1,4,ch1Sound_localizationTask.wav,19.1,"(1237, 878)","(277,-202)",285,-338,,,,,,,,,7,0,49,6,,,,,,,,,,,,,,,,,,,,,,,,,,,,,,,,,,,,,,,,,,,,955.2576409869362,None,956.3574259339366,None,957.2906811130233,None,1.6095238095238096,0.6325428960844874,957.2906811130233,None,,,,,,,,,,,51,001,2023_Mar_13_1148,SpeechDraft1Carolyn_lessNoise_PlusLocalization,2021.2.3,59.99718772391031,
,,,,,,,,farLeft,-19.1,5,ch1Sound_localizationTask.wav,-19.1,"(667, 878)","(-293,-202)",-285,-338,,,,,,,,,7,1,50,0,,,,,,,,,,,,,,,,,,,,,,,,,,,,,,,,,,,,,,,,,,,,957.9242207240313,None,959.0240985269193,None,959.9574225710239,None,1.3582010582010582,1.2322826101444662,959.9574225710239,None,,,,,,,,,,,51,001,2023_Mar_13_1148,SpeechDraft1Carolyn_lessNoise_PlusLocalization,2021.2.3,59.99718772391031,
,,,,,,,,midRight,13.0,3,ch1Sound_localizationTask.wav,13.0,"(1142, 878)","(182, -202)",190,-338,,,,,,,,,7,2,51,5,,,,,,,,,,,,,,,,,,,,,,,,,,,,,,,,,,,,,,,,,,,,961.1909143980592,None,962.2907600409817,None,963.2239582000766,None,1.580952380952381,0.8991977989207953,963.2239582000766,None,,,,,,,,,,,51,001,2023_Mar_13_1148,SpeechDraft1Carolyn_lessNoise_PlusLocalization,2021.2.3,59.99718772391031,
,,,,,,,,center,0.0,6,ch1Sound_localizationTask.wav,0.0,"(952, 878)","(-8,-202)",0,-338,,,,,,,,,7,3,52,3,,,,,,,,,,,,,,,,,,,,,,,,,,,,,,,,,,,,,,,,,,,,964.1244589260314,None,965.2240898150485,None,966.157496079104,None,1.498941798941799,0.6823848458006978,966.157496079104,None,,,,,,,,,,,51,001,2023_Mar_13_1148,SpeechDraft1Carolyn_lessNoise_PlusLocalization,2021.2.3,59.99718772391031,
,,,,,,,,midRight,13.0,3,ch1Sound_localizationTask.wav,13.0,"(1142, 878)","(182, -202)",190,-338,,,,,,,,,7,4,53,5,,,,,,,,,,,,,,,,,,,,,,,,,,,,,,,,,,,,,,,,,,,,966.8410653229803,None,967.9407262920868,None,968.8740399188828,None,1.5772486772486771,0.666118600871414,968.8740399188828,None,,,,,,,,,,,51,001,2023_Mar_13_1148,SpeechDraft1Carolyn_lessNoise_PlusLocalization,2021.2.3,59.99718772391031,
,,,,,,,,midRight,13.0,3,ch1Sound_localizationTask.wav,13.0,"(1142, 878)","(182, -202)",190,-338,,,,,,,,,7,5,54,5,,,,,,,,,,,,,,,,,,,,,,,,,,,,,,,,,,,,,,,,,,,,969.5411138860509,None,970.6406928768847,None,971.5740890209563,None,1.5693121693121692,0.715929047903046,971.5740890209563,None,,,,,,,,,,,51,001,2023_Mar_13_1148,SpeechDraft1Carolyn_lessNoise_PlusLocalization,2021.2.3,59.99718772391031,
,,,,,,,,farLeft,-19.1,5,ch1Sound_localizationTask.wav,-19.1,"(667, 878)","(-293,-202)",-285,-338,,,,,,,,,7,6,55,0,,,,,,,,,,,,,,,,,,,,,,,,,,,,,,,,,,,,,,,,,,,,972.2909573048819,None,973.3907134099863,None,974.3241056750994,None,1.3470899470899471,0.9505916489288211,974.3241056750994,None,,,,,,,,,,,51,001,2023_Mar_13_1148,SpeechDraft1Carolyn_lessNoise_PlusLocalization,2021.2.3,59.99718772391031,
,,,,,,,,,,,,,,,,,,,,,,,,,,,,,,,,,,,,,,,,,,,,,,,,,,,,,,,,,,,,,,,,,,,,,,,,,,,,,,,,,,space,24.372219540877268,975.3744535299484,None,,,,,,,51,001,2023_Mar_13_1148,SpeechDraft1Carolyn_lessNoise_PlusLocalization,2021.2.3,59.99718772391031,
,,,,,,,,midLeft,-13.0,2,ch1Sound_localizationTask.wav,-13.0,"(762, 878)","(-198,-202)",-190,-338,,,,,,,,,,,,,0,0,0,1,,,,,,,,,,,,,,,,,,,,,,,,,,,,,,,,,,,,,,,,999.7908392639365,None,,,1002.8243503549602,None,1.4010582010582011,1.270150528056547,1002.8243503549602,None,,,,,975.3744535299484,None,1000.7910462990403,None,1000.9744680249132,1000.9910849779844,51,001,2023_Mar_13_1148,SpeechDraft1Carolyn_lessNoise_PlusLocalization,2021.2.3,59.99718772391031,
,,,,,,,,nearRight,6.5,0,ch1Sound_localizationTask.wav,6.5,"(1047, 878)","(87, -202)",95,-338,,,,,,,,,,,,,0,1,1,4,,,,,,,,,,,,,,,,,,,,,,,,,,,,,,,,,,,,,,,,1004.0910547599196,None,,,1007.107357821893,None,1.5645502645502645,1.0825512141454965,1007.107357821893,None,,,,,,,1005.0911009490956,None,1005.2742966150399,1005.2909828259144,51,001,2023_Mar_13_1148,SpeechDraft1Carolyn_lessNoise_PlusLocalization,2021.2.3,59.99718772391031,
,,,,,,,,nearRight,6.5,0,ch1Sound_localizationTask.wav,6.5,"(1047, 878)","(87, -202)",95,-338,,,,,,,,,,,,,0,2,2,4,,,,,,,,,,,,,,,,,,,,,,,,,,,,,,,,,,,,,,,,1008.1910738958977,None,,,1011.2076463249978,None,1.5671957671957673,1.2322680919896811,1011.2076463249978,None,,,,,,,1009.1910437869374,None,1009.3743148020003,1009.3910435079597,51,001,2023_Mar_13_1148,SpeechDraft1Carolyn_lessNoise_PlusLocalization,2021.2.3,59.99718772391031,
,,,,,,,,farRight,19.1,4,ch1Sound_localizationTask.wav,19.1,"(1237, 878)","(277,-202)",285,-338,,,,,,,,,,,,,0,3,3,6,,,,,,,,,,,,,,,,,,,,,,,,,,,,,,,,,,,,,,,,1012.4411327228881,None,,,1015.4574534220155,None,1.6825396825396826,1.2826314631383866,1015.4574534220155,None,,,,,,,1013.4410429960117,None,1013.6243478059769,1013.6410767131019,51,001,2023_Mar_13_1148,SpeechDraft1Carolyn_lessNoise_PlusLocalization,2021.2.3,59.99718772391031,
,,,,,,,,midLeft,-13.0,2,ch1Sound_localizationTask.wav,-13.0,"(762, 878)","(-198,-202)",-190,-338,,,,,,,,,,,,,0,4,4,1,,,,,,,,,,,,,,,,,,,,,,,,,,,,,,,,,,,,,,,,1016.7409900370985,None,,,1019.7574334589299,None,1.397883597883598,1.382365298923105,1019.7574334589299,None,,,,,,,1017.741093252087,None,1017.9244359070435,1017.9410084818956,51,001,2023_Mar_13_1148,SpeechDraft1Carolyn_lessNoise_PlusLocalization,2021.2.3,59.99718772391031,
,,,,,,,,center,0.0,6,ch1Sound_localizationTask.wav,0.0,"(952, 878)","(-8,-202)",0,-338,,,,,,,,,,,,,0,5,5,3,,,,,,,,,,,,,,,,,,,,,,,,,,,,,,,,,,,,,,,,1021.1410798409488,None,,,1024.1574303209782,None,1.5084656084656085,0.8825785261578858,1024.1574303209782,None,,,,,,,1022.1412286229897,None,1022.324433238944,1022.3410349490587,51,001,2023_Mar_13_1148,SpeechDraft1Carolyn_lessNoise_PlusLocalization,2021.2.3,59.99718772391031,
,,,,,,,,center,0.0,6,ch1Sound_localizationTask.wav,0.0,"(952, 878)","(-8,-202)",0,-338,,,,,,,,,,,,,0,6,6,3,,,,,,,,,,,,,,,,,,,,,,,,,,,,,,,,,,,,,,,,1025.0410074950196,None,,,1028.0574466779362,None,1.4994708994708994,0.8655382909346372,1028.0574466779362,None,,,,,,,1026.0411219499074,None,1026.224398942897,1026.241089157993,51,001,2023_Mar_13_1148,SpeechDraft1Carolyn_lessNoise_PlusLocalization,2021.2.3,59.99718772391031,
,,,,,,,,nearLeft,-6.5,1,ch1Sound_localizationTask.wav,-6.5,"(857, 878)","(-103,-202)",-95,-338,,,,,,,,,,,,,1,0,7,2,,,,,,,,,,,,,,,,,,,,,,,,,,,,,,,,,,,,,,,,1028.9244550680742,None,,,1031.9407145879231,None,1.4222222222222223,0.9490420438814908,1031.9407145879231,None,,,,,,,1029.9244811900426,None,1030.107696553925,1030.124358525034,51,001,2023_Mar_13_1148,SpeechDraft1Carolyn_lessNoise_PlusLocalization,2021.2.3,59.99718772391031,
,,,,,,,,farRight,19.1,4,ch1Sound_localizationTask.wav,19.1,"(1237, 878)","(277,-202)",285,-338,,,,,,,,,,,,,1,1,8,6,,,,,,,,,,,,,,,,,,,,,,,,,,,,,,,,,,,,,,,,1032.891036485089,None,,,1035.9075724938884,None,1.671957671957672,0.9831750059965998,1035.9075724938884,None,,,,,,,1033.8910436839797,None,1034.0743629650678,1034.0911767298821,51,001,2023_Mar_13_1148,SpeechDraft1Carolyn_lessNoise_PlusLocalization,2021.2.3,59.99718772391031,
,,,,,,,,midLeft,-13.0,2,ch1Sound_localizationTask.wav,-13.0,"(762, 878)","(-198,-202)",-190,-338,,,,,,,,,,,,,1,2,9,1,,,,,,,,,,,,,,,,,,,,,,,,,,,,,,,,,,,,,,,,1036.8919934330042,None,,,1039.9075063979253,None,1.3904761904761904,1.566708514932543,1039.9075063979253,None,,,,,,,1037.8912362700794,None,1038.0746341550257,1038.0910889969673,51,001,2023_Mar_13_1148,SpeechDraft1Carolyn_lessNoise_PlusLocalization,2021.2.3,59.99718772391031,
,,,,,,,,farLeft,-19.1,5,ch1Sound_localizationTask.wav,-19.1,"(667, 878)","(-293,-202)",-285,-338,,,,,,,,,,,,,1,3,10,0,,,,,,,,,,,,,,,,,,,,,,,,,,,,,,,,,,,,,,,,1041.4753727789503,None,,,1044.4908625138924,None,1.3455026455026455,1.4824349379632622,1044.4908625138924,None,,,,,,,1042.4744770380203,None,1042.6577172379475,1042.6743577648886,51,001,2023_Mar_13_1148,SpeechDraft1Carolyn_lessNoise_PlusLocalization,2021.2.3,59.99718772391031,
,,,,,,,,farLeft,-19.1,5,ch1Sound_localizationTask.wav,-19.1,"(667, 878)","(-293,-202)",-285,-338,,,,,,,,,,,,,1,4,11,0,,,,,,,,,,,,,,,,,,,,,,,,,,,,,,,,,,,,,,,,1045.9747212459333,None,,,1048.990800906904,None,1.3724867724867724,1.0476973729673773,1048.990800906904,None,,,,,,,1046.9744644050952,None,1047.157825635979,1047.1744871360715,51,001,2023_Mar_13_1148,SpeechDraft1Carolyn_lessNoise_PlusLocalization,2021.2.3,59.99718772391031,
,,,,,,,,nearRight,6.5,0,ch1Sound_localizationTask.wav,6.5,"(1047, 878)","(87, -202)",95,-338,,,,,,,,,,,,,1,5,12,4,,,,,,,,,,,,,,,,,,,,,,,,,,,,,,,,,,,,,,,,1050.0420399170835,None,,,1053.0574213359505,None,1.5756613756613755,0.784454365959391,1053.0574213359505,None,,,,,,,1051.0413170449901,None,1051.2244321610779,1051.2411477209534,51,001,2023_Mar_13_1148,SpeechDraft1Carolyn_lessNoise_PlusLocalization,2021.2.3,59.99718772391031,
,,,,,,,,midLeft,-13.0,2,ch1Sound_localizationTask.wav,-13.0,"(762, 878)","(-198,-202)",-190,-338,,,,,,,,,,,,,1,6,13,1,,,,,,,,,,,,,,,,,,,,,,,,,,,,,,,,,,,,,,,,1053.8577039989177,None,,,1056.874183232896,None,1.4195767195767197,1.0665388409979641,1056.874183232896,None,,,,,,,1054.8577956839,None,1055.0411783740856,1055.0578620799351,51,001,2023_Mar_13_1148,SpeechDraft1Carolyn_lessNoise_PlusLocalization,2021.2.3,59.99718772391031,
,,,,,,,,farRight,19.1,4,ch1Sound_localizationTask.wav,19.1,"(1237, 878)","(277,-202)",285,-338,,,,,,,,,,,,,2,0,14,6,,,,,,,,,,,,,,,,,,,,,,,,,,,,,,,,,,,,,,,,1057.9578365790658,None,,,1060.9741685460322,None,1.6746031746031746,1.149080467876047,1060.9741685460322,None,,,,,,,1058.9577617300674,None,1059.1410621989053,1059.1579555580392,51,001,2023_Mar_13_1148,SpeechDraft1Carolyn_lessNoise_PlusLocalization,2021.2.3,59.99718772391031,
,,,,,,,,midLeft,-13.0,2,ch1Sound_localizationTask.wav,-13.0,"(762, 878)","(-198,-202)",-190,-338,,,,,,,,,,,,,2,1,15,1,,,,,,,,,,,,,,,,,,,,,,,,,,,,,,,,,,,,,,,,1062.1245282639284,None,,,1065.140900701983,None,1.3820105820105821,1.6161424869205803,1065.140900701983,None,,,,,,,1063.124580642907,None,1063.307764963014,1063.3243954030331,51,001,2023_Mar_13_1148,SpeechDraft1Carolyn_lessNoise_PlusLocalization,2021.2.3,59.99718772391031,
,,,,,,,,farRight,19.1,4,ch1Sound_localizationTask.wav,19.1,"(1237, 878)","(277,-202)",285,-338,,,,,,,,,,,,,2,2,16,6,,,,,,,,,,,,,,,,,,,,,,,,,,,,,,,,,,,,,,,,1066.7580740679987,None,,,1069.7742674229667,None,1.646031746031746,1.2840062510222197,1069.7742674229667,None,,,,,,,1067.7577705450822,None,1067.9411754920147,1067.9578236250672,51,001,2023_Mar_13_1148,SpeechDraft1Carolyn_lessNoise_PlusLocalization,2021.2.3,59.99718772391031,
,,,,,,,,farLeft,-19.1,5,ch1Sound_localizationTask.wav,-19.1,"(667, 878)","(-293,-202)",-285,-338,,,,,,,,,,,,,2,3,17,0,,,,,,,,,,,,,,,,,,,,,,,,,,,,,,,,,,,,,,,,1071.0746160598937,None,,,1074.090907933889,None,1.3476190476190477,1.0667072518263012,1074.090907933889,None,,,,,,,1072.0744470690843,None,1072.257873859955,1072.2744428499136,51,001,2023_Mar_13_1148,SpeechDraft1Carolyn_lessNoise_PlusLocalization,2021.2.3,59.99718772391031,
,,,,,,,,farLeft,-19.1,5,ch1Sound_localizationTask.wav,-19.1,"(667, 878)","(-293,-202)",-285,-338,,,,,,,,,,,,,2,4,18,0,,,,,,,,,,,,,,,,,,,,,,,,,,,,,,,,,,,,,,,,1075.1748313070275,None,,,1078.1909126339015,None,1.33015873015873,1.152260408969596,1078.1909126339015,None,,,,,,,1076.1744900969788,None,1076.3578166770749,1076.374478309881,51,001,2023_Mar_13_1148,SpeechDraft1Carolyn_lessNoise_PlusLocalization,2021.2.3,59.99718772391031,
,,,,,,,,farLeft,-19.1,5,ch1Sound_localizationTask.wav,-19.1,"(667, 878)","(-293,-202)",-285,-338,,,,,,,,,,,,,2,5,19,0,,,,,,,,,,,,,,,,,,,,,,,,,,,,,,,,,,,,,,,,1079.357895028079,None,,,1082.374475101009,None,1.3486772486772487,1.0995857228990644,1082.374475101009,None,,,,,,,1080.3578359959647,None,1080.5411785340402,1080.5578255020082,51,001,2023_Mar_13_1148,SpeechDraft1Carolyn_lessNoise_PlusLocalization,2021.2.3,59.99718772391031,
,,,,,,,,nearLeft,-6.5,1,ch1Sound_localizationTask.wav,-6.5,"(857, 878)","(-103,-202)",-95,-338,,,,,,,,,,,,,2,6,20,2,,,,,,,,,,,,,,,,,,,,,,,,,,,,,,,,,,,,,,,,1083.4746174330357,None,,,1086.490752903046,None,1.4597883597883599,0.9659249808173627,1086.490752903046,None,,,,,,,1084.4745063039009,None,1084.6578424149193,1084.6744865779765,51,001,2023_Mar_13_1148,SpeechDraft1Carolyn_lessNoise_PlusLocalization,2021.2.3,59.99718772391031,
,,,,,,,,center,0.0,6,ch1Sound_localizationTask.wav,0.0,"(952, 878)","(-8,-202)",0,-338,,,,,,,,,,,,,3,0,21,3,,,,,,,,,,,,,,,,,,,,,,,,,,,,,,,,,,,,,,,,1087.458548079012,None,,,1090.4742848218884,None,1.4984126984126984,1.1484896570909768,1090.4742848218884,None,,,,,,,1088.4578766729683,None,1088.641226706095,1088.6578546979,51,001,2023_Mar_13_1148,SpeechDraft1Carolyn_lessNoise_PlusLocalization,2021.2.3,59.99718772391031,
,,,,,,,,midLeft,-13.0,2,ch1Sound_localizationTask.wav,-13.0,"(762, 878)","(-198,-202)",-190,-338,,,,,,,,,,,,,3,1,22,1,,,,,,,,,,,,,,,,,,,,,,,,,,,,,,,,,,,,,,,,1091.6245568220038,None,,,1094.6410331779625,None,1.3984126984126983,0.7994244350120425,1094.6410331779625,None,,,,,,,1092.6244325789157,None,1092.8078151580412,1092.8244366920553,51,001,2023_Mar_13_1148,SpeechDraft1Carolyn_lessNoise_PlusLocalization,2021.2.3,59.99718772391031,
,,,,,,,,nearRight,6.5,0,ch1Sound_localizationTask.wav,6.5,"(1047, 878)","(87, -202)",95,-338,,,,,,,,,,,,,3,2,23,4,,,,,,,,,,,,,,,,,,,,,,,,,,,,,,,,,,,,,,,,1095.4414595318958,None,,,1098.4574881780427,None,1.5613756613756613,1.083293589996174,1098.4574881780427,None,,,,,,,1096.4411280630156,None,1096.6244558589533,1096.6411209590733,51,001,2023_Mar_13_1148,SpeechDraft1Carolyn_lessNoise_PlusLocalization,2021.2.3,59.99718772391031,
,,,,,,,,nearLeft,-6.5,1,ch1Sound_localizationTask.wav,-6.5,"(857, 878)","(-103,-202)",-95,-338,,,,,,,,,,,,,3,3,24,2,,,,,,,,,,,,,,,,,,,,,,,,,,,,,,,,,,,,,,,,1099.5578570161015,None,,,1102.574373954907,None,1.438095238095238,0.8500952620524913,1102.574373954907,None,,,,,,,1100.5578838880174,None,1100.7411471700761,1100.7579973810352,51,001,2023_Mar_13_1148,SpeechDraft1Carolyn_lessNoise_PlusLocalization,2021.2.3,59.99718772391031,
,,,,,,,,nearRight,6.5,0,ch1Sound_localizationTask.wav,6.5,"(1047, 878)","(87, -202)",95,-338,,,,,,,,,,,,,3,4,25,4,,,,,,,,,,,,,,,,,,,,,,,,,,,,,,,,,,,,,,,,1103.441073171096,None,,,1106.457541858079,None,1.553968253968254,0.7827744150999933,1106.457541858079,None,,,,,,,1104.4412451810203,None,1104.6244906689972,1104.6411475969944,51,001,2023_Mar_13_1148,SpeechDraft1Carolyn_lessNoise_PlusLocalization,2021.2.3,59.99718772391031,
,,,,,,,,midRight,13.0,3,ch1Sound_localizationTask.wav,13.0,"(1142, 878)","(182, -202)",190,-338,,,,,,,,,,,,,3,5,26,5,,,,,,,,,,,,,,,,,,,,,,,,,,,,,,,,,,,,,,,,1107.241028110031,None,,,1110.2576309710275,None,1.643915343915344,1.0990224231500179,1110.2576309710275,None,,,,,,,1108.2410411769524,None,1108.4245063129347,1108.4412287781015,51,001,2023_Mar_13_1148,SpeechDraft1Carolyn_lessNoise_PlusLocalization,2021.2.3,59.99718772391031,
,,,,,,,,center,0.0,6,ch1Sound_localizationTask.wav,0.0,"(952, 878)","(-8,-202)",0,-338,,,,,,,,,,,,,3,6,27,3,,,,,,,,,,,,,,,,,,,,,,,,,,,,,,,,,,,,,,,,1111.3579583528917,None,,,1114.3742512150202,None,1.5026455026455028,0.7824498331174254,1114.3742512150202,None,,,,,,,1112.357871617889,None,1112.541259279009,1112.5579820899293,51,001,2023_Mar_13_1148,SpeechDraft1Carolyn_lessNoise_PlusLocalization,2021.2.3,59.99718772391031,
,,,,,,,,nearLeft,-6.5,1,ch1Sound_localizationTask.wav,-6.5,"(857, 878)","(-103,-202)",-95,-338,,,,,,,,,,,,,4,0,28,2,,,,,,,,,,,,,,,,,,,,,,,,,,,,,,,,,,,,,,,,1115.1579167929012,None,,,1118.174251924036,None,1.4417989417989419,0.7659906940534711,1118.174251924036,None,,,,,,,1116.1579683909658,None,1116.3412660069298,1116.3579745891038,51,001,2023_Mar_13_1148,SpeechDraft1Carolyn_lessNoise_PlusLocalization,2021.2.3,59.99718772391031,
,,,,,,,,farRight,19.1,4,ch1Sound_localizationTask.wav,19.1,"(1237, 878)","(277,-202)",285,-338,,,,,,,,,,,,,4,1,29,6,,,,,,,,,,,,,,,,,,,,,,,,,,,,,,,,,,,,,,,,1118.941355343908,None,,,1121.9576580070425,None,1.6767195767195768,1.332582444185391,1121.9576580070425,None,,,,,,,1119.9412146359682,None,1120.1245608960744,1120.1412578860763,51,001,2023_Mar_13_1148,SpeechDraft1Carolyn_lessNoise_PlusLocalization,2021.2.3,59.99718772391031,
,,,,,,,,midRight,13.0,3,ch1Sound_localizationTask.wav,13.0,"(1142, 878)","(182, -202)",190,-338,,,,,,,,,,,,,4,2,30,5,,,,,,,,,,,,,,,,,,,,,,,,,,,,,,,,,,,,,,,,1123.2912319318857,None,,,1126.3076225388795,None,1.621164021164021,0.6662204740568995,1126.3076225388795,None,,,,,,,1124.2911383020692,None,1124.4745502269361,1124.4912672538776,51,001,2023_Mar_13_1148,SpeechDraft1Carolyn_lessNoise_PlusLocalization,2021.2.3,59.99718772391031,
,,,,,,,,farRight,19.1,4,ch1Sound_localizationTask.wav,19.1,"(1237, 878)","(277,-202)",285,-338,,,,,,,,,,,,,4,3,31,6,,,,,,,,,,,,,,,,,,,,,,,,,,,,,,,,,,,,,,,,1126.9745414329227,None,,,1129.990851295879,None,1.6783068783068784,1.1828062760178,1129.990851295879,None,,,,,,,1127.9745743200183,None,1128.157928721048,1128.1745820660144,51,001,2023_Mar_13_1148,SpeechDraft1Carolyn_lessNoise_PlusLocalization,2021.2.3,59.99718772391031,
,,,,,,,,midRight,13.0,3,ch1Sound_localizationTask.wav,13.0,"(1142, 878)","(182, -202)",190,-338,,,,,,,,,,,,,4,4,32,5,,,,,,,,,,,,,,,,,,,,,,,,,,,,,,,,,,,,,,,,1131.1745675110724,None,,,1134.1909452450927,None,1.5973544973544973,1.199452337110415,1134.1909452450927,None,,,,,,,1132.1745120610576,None,1132.357939437963,1132.374599735951,51,001,2023_Mar_13_1148,SpeechDraft1Carolyn_lessNoise_PlusLocalization,2021.2.3,59.99718772391031,
,,,,,,,,center,0.0,6,ch1Sound_localizationTask.wav,0.0,"(952, 878)","(-8,-202)",0,-338,,,,,,,,,,,,,4,5,33,3,,,,,,,,,,,,,,,,,,,,,,,,,,,,,,,,,,,,,,,,1135.391385027906,None,,,1138.407638746081,None,1.5005291005291004,1.5664000099059194,1138.407638746081,None,,,,,,,1136.3911963070277,None,1136.5746255009435,1136.5912130470388,51,001,2023_Mar_13_1148,SpeechDraft1Carolyn_lessNoise_PlusLocalization,2021.2.3,59.99718772391031,
,,,,,,,,nearRight,6.5,0,ch1Sound_localizationTask.wav,6.5,"(1047, 878)","(87, -202)",95,-338,,,,,,,,,,,,,4,6,34,4,,,,,,,,,,,,,,,,,,,,,,,,,,,,,,,,,,,,,,,,1139.9745794059709,None,,,1142.9909764199983,None,1.564021164021164,1.166152419988066,1142.9909764199983,None,,,,,,,1140.9745748040732,None,1141.158012259053,1141.174568319926,51,001,2023_Mar_13_1148,SpeechDraft1Carolyn_lessNoise_PlusLocalization,2021.2.3,59.99718772391031,
,,,,,,,,farRight,19.1,4,ch1Sound_localizationTask.wav,19.1,"(1237, 878)","(277,-202)",285,-338,,,,,,,,,,,,,5,0,35,6,,,,,,,,,,,,,,,,,,,,,,,,,,,,,,,,,,,,,,,,1144.1579770389944,None,,,1147.1742313150316,None,1.6396825396825396,1.2818981800228357,1147.1742313150316,None,,,,,,,1145.1579838290345,None,1145.3412775569595,1145.3578431799542,51,001,2023_Mar_13_1148,SpeechDraft1Carolyn_lessNoise_PlusLocalization,2021.2.3,59.99718772391031,
,,,,,,,,nearLeft,-6.5,1,ch1Sound_localizationTask.wav,-6.5,"(857, 878)","(-103,-202)",-95,-338,,,,,,,,,,,,,5,1,36,2,,,,,,,,,,,,,,,,,,,,,,,,,,,,,,,,,,,,,,,,1148.4579431340098,None,,,1151.4744469958823,None,1.4544973544973545,1.1004296180326492,1151.4744469958823,None,,,,,,,1149.4579214039259,None,1149.6412350609899,1149.6579325629864,51,001,2023_Mar_13_1148,SpeechDraft1Carolyn_lessNoise_PlusLocalization,2021.2.3,59.99718772391031,
,,,,,,,,farLeft,-19.1,5,ch1Sound_localizationTask.wav,-19.1,"(667, 878)","(-293,-202)",-285,-338,,,,,,,,,,,,,5,2,37,0,,,,,,,,,,,,,,,,,,,,,,,,,,,,,,,,,,,,,,,,1152.5912470258772,None,,,1155.6078028839547,None,1.3518518518518519,1.1493390090763569,1155.6078028839547,None,,,,,,,1153.591261979891,None,1153.7746627999004,1153.7912771098781,51,001,2023_Mar_13_1148,SpeechDraft1Carolyn_lessNoise_PlusLocalization,2021.2.3,59.99718772391031,
,,,,,,,,farRight,19.1,4,ch1Sound_localizationTask.wav,19.1,"(1237, 878)","(277,-202)",285,-338,,,,,,,,,,,,,5,3,38,6,,,,,,,,,,,,,,,,,,,,,,,,,,,,,,,,,,,,,,,,1156.7581058950163,None,,,1159.7743900991045,None,1.664021164021164,0.9828082302119583,1159.7743900991045,None,,,,,,,1157.7579947758932,None,1157.9413741519675,1157.9578771579545,51,001,2023_Mar_13_1148,SpeechDraft1Carolyn_lessNoise_PlusLocalization,2021.2.3,59.99718772391031,
,,,,,,,,midRight,13.0,3,ch1Sound_localizationTask.wav,13.0,"(1142, 878)","(182, -202)",190,-338,,,,,,,,,,,,,5,4,39,5,,,,,,,,,,,,,,,,,,,,,,,,,,,,,,,,,,,,,,,,1160.7579087449703,None,,,1163.7742733969353,None,1.6317460317460317,0.8671281498391181,1163.7742733969353,None,,,,,,,1161.7578617529944,None,1161.9414034809452,1161.9578162929974,51,001,2023_Mar_13_1148,SpeechDraft1Carolyn_lessNoise_PlusLocalization,2021.2.3,59.99718772391031,
,,,,,,,,midRight,13.0,3,ch1Sound_localizationTask.wav,13.0,"(1142, 878)","(182, -202)",190,-338,,,,,,,,,,,,,5,5,40,5,,,,,,,,,,,,,,,,,,,,,,,,,,,,,,,,,,,,,,,,1164.6580111060757,None,,,1167.674233389087,None,1.6026455026455027,0.782894697971642,1167.674233389087,None,,,,,,,1165.6579038740601,None,1165.8412864510901,1165.8580995548982,51,001,2023_Mar_13_1148,SpeechDraft1Carolyn_lessNoise_PlusLocalization,2021.2.3,59.99718772391031,
,,,,,,,,midRight,13.0,3,ch1Sound_localizationTask.wav,13.0,"(1142, 878)","(182, -202)",190,-338,,,,,,,,,,,,,5,6,41,5,,,,,,,,,,,,,,,,,,,,,,,,,,,,,,,,,,,,,,,,1168.4582492990885,None,,,1171.474420246901,None,1.5804232804232803,0.9319908460602164,1171.474420246901,None,,,,,,,1169.458030509064,None,1169.6412840359844,1169.6579326759093,51,001,2023_Mar_13_1148,SpeechDraft1Carolyn_lessNoise_PlusLocalization,2021.2.3,59.99718772391031,
,,,,,,,,midLeft,-13.0,2,ch1Sound_localizationTask.wav,-13.0,"(762, 878)","(-198,-202)",-190,-338,,,,,,,,,,,,,6,0,42,1,,,,,,,,,,,,,,,,,,,,,,,,,,,,,,,,,,,,,,,,1172.4080298489425,None,,,1175.4243329819292,None,1.3846560846560847,1.4319463460706174,1175.4243329819292,None,,,,,,,1173.4079522599932,None,1173.5912172899116,1173.6080091460608,51,001,2023_Mar_13_1148,SpeechDraft1Carolyn_lessNoise_PlusLocalization,2021.2.3,59.99718772391031,
,,,,,,,,midRight,13.0,3,ch1Sound_localizationTask.wav,13.0,"(1142, 878)","(182, -202)",190,-338,,,,,,,,,,,,,6,1,43,5,,,,,,,,,,,,,,,,,,,,,,,,,,,,,,,,,,,,,,,,1176.858500188915,None,,,1179.8741801730357,None,1.596825396825397,1.2325529369991273,1179.8741801730357,None,,,,,,,1177.8579285889864,None,1178.0413962460589,1178.0579713468906,51,001,2023_Mar_13_1148,SpeechDraft1Carolyn_lessNoise_PlusLocalization,2021.2.3,59.99718772391031,
,,,,,,,,center,0.0,6,ch1Sound_localizationTask.wav,0.0,"(952, 878)","(-8,-202)",0,-338,,,,,,,,,,,,,6,2,44,3,,,,,,,,,,,,,,,,,,,,,,,,,,,,,,,,,,,,,,,,1181.1080035308842,None,,,1184.1243938810658,None,1.4735449735449735,1.3155572509858757,1184.1243938810658,None,,,,,,,1182.1079568560235,None,1182.291346386075,1182.3080387639347,51,001,2023_Mar_13_1148,SpeechDraft1Carolyn_lessNoise_PlusLocalization,2021.2.3,59.99718772391031,
,,,,,,,,midLeft,-13.0,2,ch1Sound_localizationTask.wav,-13.0,"(762, 878)","(-198,-202)",-190,-338,,,,,,,,,,,,,6,3,45,1,,,,,,,,,,,,,,,,,,,,,,,,,,,,,,,,,,,,,,,,1185.4412891070824,None,,,1188.4577070099767,None,1.4,1.0496688270941377,1188.4577070099767,None,,,,,,,1186.4413403659128,None,1186.6245565339923,1186.6413321211003,51,001,2023_Mar_13_1148,SpeechDraft1Carolyn_lessNoise_PlusLocalization,2021.2.3,59.99718772391031,
,,,,,,,,nearLeft,-6.5,1,ch1Sound_localizationTask.wav,-6.5,"(857, 878)","(-103,-202)",-95,-338,,,,,,,,,,,,,6,4,46,2,,,,,,,,,,,,,,,,,,,,,,,,,,,,,,,,,,,,,,,,1189.508155544987,None,,,1192.5243099329527,None,1.4634920634920636,1.149154142010957,1192.5243099329527,None,,,,,,,1190.5079634380527,None,1190.6913533098996,1190.7082736839075,51,001,2023_Mar_13_1148,SpeechDraft1Carolyn_lessNoise_PlusLocalization,2021.2.3,59.99718772391031,
,,,,,,,,nearLeft,-6.5,1,ch1Sound_localizationTask.wav,-6.5,"(857, 878)","(-103,-202)",-95,-338,,,,,,,,,,,,,6,5,47,2,,,,,,,,,,,,,,,,,,,,,,,,,,,,,,,,,,,,,,,,1193.6746433589142,None,,,1196.6910500968806,None,1.4275132275132276,0.782570414012298,1196.6910500968806,None,,,,,,,1194.6747452500276,None,1194.858073027106,1194.874597728951,51,001,2023_Mar_13_1148,SpeechDraft1Carolyn_lessNoise_PlusLocalization,2021.2.3,59.99718772391031,
,,,,,,,,midRight,13.0,3,ch1Sound_localizationTask.wav,13.0,"(1142, 878)","(182, -202)",190,-338,,,,,,,,,,,,,6,6,48,5,,,,,,,,,,,,,,,,,,,,,,,,,,,,,,,,,,,,,,,,1197.4746495690197,None,,,1200.491187687032,None,1.6153439153439153,1.0494033170398325,1200.491187687032,None,,,,,,,1198.4746959828772,None,1198.6581189329736,1198.6745764610823,51,001,2023_Mar_13_1148,SpeechDraft1Carolyn_lessNoise_PlusLocalization,2021.2.3,59.99718772391031,
,,,,,,,,nearRight,6.5,0,ch1Sound_localizationTask.wav,6.5,"(1047, 878)","(87, -202)",95,-338,,,,,,,,,,,,,7,0,49,4,,,,,,,,,,,,,,,,,,,,,,,,,,,,,,,,,,,,,,,,1201.5413680300117,None,,,1204.557718490949,None,1.5624338624338625,0.8655091861728579,1204.557718490949,None,,,,,,,1202.5413152300753,None,1202.7247981328983,1202.7412815468851,51,001,2023_Mar_13_1148,SpeechDraft1Carolyn_lessNoise_PlusLocalization,2021.2.3,59.99718772391031,
,,,,,,,,center,0.0,6,ch1Sound_localizationTask.wav,0.0,"(952, 878)","(-8,-202)",0,-338,,,,,,,,,,,,,7,1,50,3,,,,,,,,,,,,,,,,,,,,,,,,,,,,,,,,,,,,,,,,1205.4245754240546,None,,,1208.4410782910418,None,1.4841269841269842,1.1167976327706128,1208.4410782910418,None,,,,,,,1206.424782122951,None,1206.6080107139423,1206.6247962031048,51,001,2023_Mar_13_1148,SpeechDraft1Carolyn_lessNoise_PlusLocalization,2021.2.3,59.99718772391031,
,,,,,,,,farLeft,-19.1,5,ch1Sound_localizationTask.wav,-19.1,"(667, 878)","(-293,-202)",-285,-338,,,,,,,,,,,,,7,2,51,0,,,,,,,,,,,,,,,,,,,,,,,,,,,,,,,,,,,,,,,,1209.5592965749092,None,,,1212.5911322890315,None,1.312169312169312,0.9671815519686788,1212.5911322890315,None,,,,,,,1210.5746504070703,None,1210.758167122025,1210.7747085490264,51,001,2023_Mar_13_1148,SpeechDraft1Carolyn_lessNoise_PlusLocalization,2021.2.3,59.99718772391031,
,,,,,,,,farLeft,-19.1,5,ch1Sound_localizationTask.wav,-19.1,"(667, 878)","(-293,-202)",-285,-338,,,,,,,,,,,,,7,3,52,0,,,,,,,,,,,,,,,,,,,,,,,,,,,,,,,,,,,,,,,,1213.5748260619584,None,,,1216.5910792530049,None,1.3391534391534392,1.015710426028818,1216.5910792530049,None,,,,,,,1214.5747649599798,None,1214.757994963089,1214.7747982789297,51,001,2023_Mar_13_1148,SpeechDraft1Carolyn_lessNoise_PlusLocalization,2021.2.3,59.99718772391031,
,,,,,,,,nearRight,6.5,0,ch1Sound_localizationTask.wav,6.5,"(1047, 878)","(87, -202)",95,-338,,,,,,,,,,,,,7,4,53,4,,,,,,,,,,,,,,,,,,,,,,,,,,,,,,,,,,,,,,,,1217.6080551031046,None,,,1220.624431821052,None,1.5629629629629629,1.0323102599941194,1220.624431821052,None,,,,,,,1218.6080613490194,None,1218.7913446750026,1218.808057372924,51,001,2023_Mar_13_1148,SpeechDraft1Carolyn_lessNoise_PlusLocalization,2021.2.3,59.99718772391031,
,,,,,,,,nearLeft,-6.5,1,ch1Sound_localizationTask.wav,-6.5,"(857, 878)","(-103,-202)",-95,-338,,,,,,,,,,,,,7,5,54,2,,,,,,,,,,,,,,,,,,,,,,,,,,,,,,,,,,,,,,,,1221.6580259890761,None,,,1224.674354512943,None,1.4486772486772486,0.7836046339944005,1224.674354512943,None,,,,,,,1222.6580997419078,None,1222.8414001748897,1222.8581024690066,51,001,2023_Mar_13_1148,SpeechDraft1Carolyn_lessNoise_PlusLocalization,2021.2.3,59.99718772391031,
,,,,,,,,center,0.0,6,ch1Sound_localizationTask.wav,0.0,"(952, 878)","(-8,-202)",0,-338,,,,,,,,,,,,,7,6,55,3,,,,,,,,,,,,,,,,,,,,,,,,,,,,,,,,,,,,,,,,1225.459084414877,None,,,1228.4911783949938,None,1.4957671957671956,0.7826693200040609,1228.4911783949938,None,,,,,,,1226.4747355158906,None,1226.6579683050513,1226.6747664809227,51,001,2023_Mar_13_1148,SpeechDraft1Carolyn_lessNoise_PlusLocalization,2021.2.3,59.99718772391031,
