Audio_Only_Files,Video_Files,Original_Word_List,noiseLevelCode,conditionCodes,noiseLevelFile1,noiseLevelFile2,InstrTextVar,targetSpeakerName,targetSpeakerEccen,targetSpkrChannel,targetSpkrSound,targetVisualDegrees,visStimLoc,visStimLoc2,visStimW,visStimH,practiceTrials.thisRepN,practiceTrials.thisTrialN,practiceTrials.thisN,practiceTrials.thisIndex,trials.thisRepN,trials.thisTrialN,trials.thisN,trials.thisIndex,audLocalLoop.thisRepN,audLocalLoop.thisTrialN,audLocalLoop.thisN,audLocalLoop.thisIndex,visualLocalLoop.thisRepN,visualLocalLoop.thisTrialN,visualLocalLoop.thisN,visualLocalLoop.thisIndex,letsGoAlready.keys,letsGoAlready.rt,letsGoAlready.started,letsGoAlready.stopped,text_2.started,text_2.stopped,text_3.started,text_3.stopped,key_resp_2.keys,key_resp_2.rt,key_resp_2.started,key_resp_2.stopped,text_5.started,text_5.stopped,fixCross.started,fixCross.stopped,fixCross2.started,fixCross2.stopped,answerPrompt.started,answerPrompt.stopped,getAnswer.text,getAnswer.started,getAnswer.stopped,goToNext.keys,goToNext.rt,goToNext.started,goToNext.stopped,stretchBreakTxrt.started,stretchBreakTxrt.stopped,key_resp_3.keys,key_resp_3.rt,key_resp_3.started,key_resp_3.stopped,letsGoLocal.keys,letsGoLocal.rt,letsGoLocal.started,letsGoLocal.stopped,text_4.started,text_4.stopped,prepFixTxt.started,prepFixTxt.stopped,prepFixTxt_2.started,prepFixTxt_2.stopped,respPromptLocal.started,respPromptLocal.stopped,slider.response,slider.rt,slider.started,slider.stopped,letsGoLocal_2.keys,letsGoLocal_2.rt,letsGoLocal_2.started,letsGoLocal_2.stopped,text_7.started,text_7.stopped,prepFixTxt_3.started,prepFixTxt_3.stopped,grating.started,grating.stopped,participant,session,date,expName,psychopyVersion,frameRate,
,,,,,,,,,,,,,,,,,,,,,,,,,,,,,,,,,space,8.412623567972332,313.60696153109893,None,,,,,,,,,,,,,,,,,,,,,,,,,,,,,,,,,,,,,,,,,,,,,,,,,,,,,,,,52,001,2023_Mar_13_1417,SpeechDraft1Carolyn_lessNoise_PlusLocalization,2021.2.3,60.00073675039568,
,,,,,,,,,,,,,,,,,,,,,,,,,,,,,,,,,,,,,313.60696153109893,None,322.1402310479898,None,space,9.143902962096035,322.32372483308427,None,,,,,,,,,,,,,,,,,,,,,,,,,,,,,,,,,,,,,,,,,,,,,,,,52,001,2023_Mar_13_1417,SpeechDraft1Carolyn_lessNoise_PlusLocalization,2021.2.3,60.00073675039568,
ash.wav,ash.mpg,ash,1,A,Pink_Noise_1_1.wav,Pink_Noise_1_2.wav,"This is an example of an

AUDIO trial",,,,,,,,,,0,0,0,0,,,,,,,,,,,,,,,,,,,,,,,,,331.5080557561014,None,332.50703350198455,None,335.7401170860976,None,337.12545240903273,None,ish ,337.12545240903273,None,return,12.732567592989653,337.20706353802234,None,,,,,,,,,,,,,,,,,,,,,,,,,,,,,,,,,52,001,2023_Mar_13_1417,SpeechDraft1Carolyn_lessNoise_PlusLocalization,2021.2.3,60.00073675039568,
ash.wav,ash.mpg,ash,1,AV,Pink_Noise_1_1.wav,Pink_Noise_1_2.wav,"This is an example of an

AUDIO + VIDEO  trial",,,,,,,,,,0,1,1,1,,,,,,,,,,,,,,,,,,,,,,,,,349.9734777030535,None,350.97386413114145,None,352.45783493993804,None,353.8404805229511,None,ish,353.8404805229511,None,return,5.959812388988212,353.92378007108346,None,,,,,,,,,,,,,,,,,,,,,,,,,,,,,,,,,52,001,2023_Mar_13_1417,SpeechDraft1Carolyn_lessNoise_PlusLocalization,2021.2.3,60.00073675039568,
,,,,,,,,,,,,,,,,,,,,,,,,,,,,,,,,,,,,,,,,,,,,,,,,,,,,,,,,,,,,359.92357817012817,None,space,22.712435269961134,360.10713031399064,None,,,,,,,,,,,,,,,,,,,,,,,,,,,52,001,2023_Mar_13_1417,SpeechDraft1Carolyn_lessNoise_PlusLocalization,2021.2.3,60.00073675039568,
bear.wav,bear.mpg,bear,1,AV,Pink_Noise_1_1.wav,Pink_Noise_1_2.wav,,,,,,,,,,,,,,,0,0,0,118,,,,,,,,,,,,,,,,,,,,,,,382.8581853341311,None,384.35702404612675,None,385.7403851239942,None,bear,385.7403851239942,None,return,10.307722765952349,385.82384160300717,None,,,,,,,,,,,,,,,,,,,,,,,,,,,,,,,,,52,001,2023_Mar_13_1417,SpeechDraft1Carolyn_lessNoise_PlusLocalization,2021.2.3,60.00073675039568,
chump.wav,chump.mpg,chump,3,AV,Pink_Noise_3_1.wav,Pink_Noise_3_2.wav,,,,,,,,,,,,,,,0,1,1,88,,,,,,,,,,,,,,,,,,,,,,,396.15711838006973,None,397.6567890869919,None,399.0404964000918,None,chop,399.0404964000918,None,return,4.703667421126738,399.1239107919391,None,,,,,,,,,,,,,,,,,,,,,,,,,,,,,,,,,52,001,2023_Mar_13_1417,SpeechDraft1Carolyn_lessNoise_PlusLocalization,2021.2.3,60.00073675039568,
bird.wav,bird.mpg,bird,6,A,Pink_Noise_6_1.wav,Pink_Noise_6_2.wav,,,,,,,,,,,,,,,0,2,2,32,,,,,,,,,,,,,,,,,,,,,,,403.8572344870772,None,405.3568817260675,None,406.74039075896144,None,room,406.74039075896144,None,return,5.7717902169097215,406.8238554841373,None,,,,,,,,,,,,,,,,,,,,,,,,,,,,,,,,,52,001,2023_Mar_13_1417,SpeechDraft1Carolyn_lessNoise_PlusLocalization,2021.2.3,60.00073675039568,
glow.wav,glow.mpg,glow,4,A,Pink_Noise_4_1.wav,Pink_Noise_4_2.wav,,,,,,,,,,,,,,,0,3,3,11,,,,,,,,,,,,,,,,,,,,,,,412.62387916306034,None,414.1236893311143,None,415.5072560671251,None,glue,415.5072560671251,None,return,5.205191029934213,415.5904340380803,None,,,,,,,,,,,,,,,,,,,,,,,,,,,,,,,,,52,001,2023_Mar_13_1417,SpeechDraft1Carolyn_lessNoise_PlusLocalization,2021.2.3,60.00073675039568,
gun.wav,gun.mpg,gun,3,A,Pink_Noise_3_1.wav,Pink_Noise_3_2.wav,,,,,,,,,,,,,,,0,4,4,40,,,,,,,,,,,,,,,,,,,,,,,420.82383814197965,None,422.3236088969279,None,423.7071950030513,None,good,423.7071950030513,None,return,4.748979137977585,423.7906446149573,None,,,,,,,,,,,,,,,,,,,,,,,,,,,,,,,,,52,001,2023_Mar_13_1417,SpeechDraft1Carolyn_lessNoise_PlusLocalization,2021.2.3,60.00073675039568,
hike.wav,hike.mpg,hike,6,AV,Pink_Noise_6_1.wav,Pink_Noise_6_2.wav,,,,,,,,,,,,,,,0,5,5,64,,,,,,,,,,,,,,,,,,,,,,,428.5572085119784,None,430.0568485360127,None,431.44047813513316,None,gun,431.44047813513316,None,return,4.031748276902363,431.52391243795864,None,,,,,,,,,,,,,,,,,,,,,,,,,,,,,,,,,52,001,2023_Mar_13_1417,SpeechDraft1Carolyn_lessNoise_PlusLocalization,2021.2.3,60.00073675039568,
guilt.wav,guilt.mpg,guilt,1,A,Pink_Noise_1_1.wav,Pink_Noise_1_2.wav,,,,,,,,,,,,,,,0,6,6,35,,,,,,,,,,,,,,,,,,,,,,,435.5738345531281,None,437.0580861340277,None,438.44058261904866,None,guilt,438.44058261904866,None,return,4.9755390419159085,438.52405182807706,None,,,,,,,,,,,,,,,,,,,,,,,,,,,,,,,,,52,001,2023_Mar_13_1417,SpeechDraft1Carolyn_lessNoise_PlusLocalization,2021.2.3,60.00073675039568,
east.wav,east.mpg,east,4,AV,Pink_Noise_4_1.wav,Pink_Noise_4_2.wav,,,,,,,,,,,,,,,0,7,7,87,,,,,,,,,,,,,,,,,,,,,,,443.52395421499386,None,445.0237510090228,None,446.40718121198006,None,eat,446.40718121198006,None,return,5.409023130079731,446.49053409602493,None,,,,,,,,,,,,,,,,,,,,,,,,,,,,,,,,,52,001,2023_Mar_13_1417,SpeechDraft1Carolyn_lessNoise_PlusLocalization,2021.2.3,60.00073675039568,
strive.wav,strive.mpg,strive,5,A,Pink_Noise_5_1.wav,Pink_Noise_5_2.wav,,,,,,,,,,,,,,,0,8,8,41,,,,,,,,,,,,,,,,,,,,,,,451.9240213299636,None,453.40789444511756,None,454.79043093393557,None,strap,454.79043093393557,None,return,15.209573245141655,454.87402538000606,None,,,,,,,,,,,,,,,,,,,,,,,,,,,,,,,,,52,001,2023_Mar_13_1417,SpeechDraft1Carolyn_lessNoise_PlusLocalization,2021.2.3,60.00073675039568,
guess.wav,guess.mpg,guess,1,AV,Pink_Noise_1_1.wav,Pink_Noise_1_2.wav,,,,,,,,,,,,,,,0,9,9,117,,,,,,,,,,,,,,,,,,,,,,,470.1073262980208,None,471.6069766699802,None,472.99057823210023,None,guess,472.99057823210023,None,return,6.4095143240410835,473.0740519701503,None,,,,,,,,,,,,,,,,,,,,,,,,,,,,,,,,,52,001,2023_Mar_13_1417,SpeechDraft1Carolyn_lessNoise_PlusLocalization,2021.2.3,60.00073675039568,
bee.wav,bee.mpg,bee,2,A,Pink_Noise_2_1.wav,Pink_Noise_2_2.wav,,,,,,,,,,,,,,,0,10,10,52,,,,,,,,,,,,,,,,,,,,,,,479.50727764796466,None,481.0070981781464,None,482.3906070529483,None,"be
",482.3906070529483,None,return,1.601556115085259,482.47402257309295,None,,,,,,,,,,,,,,,,,,,,,,,,,,,,,,,,,52,001,2023_Mar_13_1417,SpeechDraft1Carolyn_lessNoise_PlusLocalization,2021.2.3,60.00073675039568,
mass.wav,mass.mpg,mass,1,AV,Pink_Noise_1_1.wav,Pink_Noise_1_2.wav,,,,,,,,,,,,,,,0,11,11,78,,,,,,,,,,,,,,,,,,,,,,,484.1072644900996,None,485.6070434660651,None,486.99054464302026,None,mess,486.99054464302026,None,return,2.2496145530603826,487.07400401798077,None,,,,,,,,,,,,,,,,,,,,,,,,,,,,,,,,,52,001,2023_Mar_13_1417,SpeechDraft1Carolyn_lessNoise_PlusLocalization,2021.2.3,60.00073675039568,
phase.wav,phase.mpg,phase,6,AV,Pink_Noise_6_1.wav,Pink_Noise_6_2.wav,,,,,,,,,,,,,,,0,12,12,95,,,,,,,,,,,,,,,,,,,,,,,489.34057556907646,None,490.8238402190618,None,492.20722005702555,None,"phase
",492.20722005702555,None,return,5.400902663823217,492.29067392414436,None,,,,,,,,,,,,,,,,,,,,,,,,,,,,,,,,,52,001,2023_Mar_13_1417,SpeechDraft1Carolyn_lessNoise_PlusLocalization,2021.2.3,60.00073675039568,
file.wav,file.mpg,file,1,A,Pink_Noise_1_1.wav,Pink_Noise_1_2.wav,,,,,,,,,,,,,,,0,13,13,22,,,,,,,,,,,,,,,,,,,,,,,497.72396097006276,None,499.22367903008126,None,500.6072652700823,None,file,500.6072652700823,None,return,4.065071877092123,500.6906411589589,None,,,,,,,,,,,,,,,,,,,,,,,,,,,,,,,,,52,001,2023_Mar_13_1417,SpeechDraft1Carolyn_lessNoise_PlusLocalization,2021.2.3,60.00073675039568,
belch.wav,belch.mpg,belch,4,AV,Pink_Noise_4_1.wav,Pink_Noise_4_2.wav,,,,,,,,,,,,,,,0,14,14,70,,,,,,,,,,,,,,,,,,,,,,,504.7739726190921,None,506.273839910049,None,507.64061102992855,None,belch,507.64061102992855,None,return,15.991589817916974,507.72399904811755,None,,,,,,,,,,,,,,,,,,,,,,,,,,,,,,,,,52,001,2023_Mar_13_1417,SpeechDraft1Carolyn_lessNoise_PlusLocalization,2021.2.3,60.00073675039568,
cork.wav,cork.mpg,cork,1,A,Pink_Noise_1_1.wav,Pink_Noise_1_2.wav,,,,,,,,,,,,,,,0,15,15,51,,,,,,,,,,,,,,,,,,,,,,,523.7406703331508,None,525.2404375679325,None,526.6239788820967,None,"cork
",526.6239788820967,None,return,5.9361516640055925,526.7074457199778,None,,,,,,,,,,,,,,,,,,,,,,,,,,,,,,,,,52,001,2023_Mar_13_1417,SpeechDraft1Carolyn_lessNoise_PlusLocalization,2021.2.3,60.00073675039568,
flee.wav,flee.mpg,flee,4,AV,Pink_Noise_4_1.wav,Pink_Noise_4_2.wav,,,,,,,,,,,,,,,0,16,16,91,,,,,,,,,,,,,,,,,,,,,,,532.6741434349678,None,534.1737623980734,None,535.5573161181528,None,lead,535.5573161181528,None,return,5.138966555939987,535.640725862002,None,,,,,,,,,,,,,,,,,,,,,,,,,,,,,,,,,52,001,2023_Mar_13_1417,SpeechDraft1Carolyn_lessNoise_PlusLocalization,2021.2.3,60.00073675039568,
blob.wav,blob.mpg,blob,3,AV,Pink_Noise_3_1.wav,Pink_Noise_3_2.wav,,,,,,,,,,,,,,,0,17,17,103,,,,,,,,,,,,,,,,,,,,,,,540.807536469074,None,542.3070329870097,None,543.6906703659333,None,blob,543.6906703659333,None,return,4.421541928080842,543.774138223147,None,,,,,,,,,,,,,,,,,,,,,,,,,,,,,,,,,52,001,2023_Mar_13_1417,SpeechDraft1Carolyn_lessNoise_PlusLocalization,2021.2.3,60.00073675039568,
brash.wav,brash.mpg,brash,1,AV,Pink_Noise_1_1.wav,Pink_Noise_1_2.wav,,,,,,,,,,,,,,,0,18,18,102,,,,,,,,,,,,,,,,,,,,,,,548.2241319811437,None,549.7237308940385,None,551.1073436029255,None,fresh,551.1073436029255,None,return,9.389092684956267,551.1906040280592,None,,,,,,,,,,,,,,,,,,,,,,,,,,,,,,,,,52,001,2023_Mar_13_1417,SpeechDraft1Carolyn_lessNoise_PlusLocalization,2021.2.3,60.00073675039568,
bust.wav,bust.mpg,bust,5,A,Pink_Noise_5_1.wav,Pink_Noise_5_2.wav,,,,,,,,,,,,,,,0,19,19,55,,,,,,,,,,,,,,,,,,,,,,,560.6074707549997,None,562.1070626219735,None,563.4908287029248,None,thrust,563.4908287029248,None,return,5.58963386900723,563.574091456132,None,,,,,,,,,,,,,,,,,,,,,,,,,,,,,,,,,52,001,2023_Mar_13_1417,SpeechDraft1Carolyn_lessNoise_PlusLocalization,2021.2.3,60.00073675039568,
drag.wav,drag.mpg,drag,2,A,Pink_Noise_2_1.wav,Pink_Noise_2_2.wav,,,,,,,,,,,,,,,0,20,20,2,,,,,,,,,,,,,,,,,,,,,,,569.1907113320194,None,570.6903957470786,None,572.0740440951195,None,drag,572.0740440951195,None,return,4.638287864159793,572.1574281409848,None,,,,,,,,,,,,,,,,,,,,,,,,,,,,,,,,,52,001,2023_Mar_13_1417,SpeechDraft1Carolyn_lessNoise_PlusLocalization,2021.2.3,60.00073675039568,
barn.wav,barn.mpg,barn,1,AV,Pink_Noise_1_1.wav,Pink_Noise_1_2.wav,,,,,,,,,,,,,,,0,21,21,114,,,,,,,,,,,,,,,,,,,,,,,576.8241563390475,None,578.3237730450928,None,579.7074617550243,None,barn,579.7074617550243,None,return,3.4449322670698166,579.7906552930363,None,,,,,,,,,,,,,,,,,,,,,,,,,,,,,,,,,52,001,2023_Mar_13_1417,SpeechDraft1Carolyn_lessNoise_PlusLocalization,2021.2.3,60.00073675039568,
fun.wav,fun.mpg,fun,2,AV,Pink_Noise_2_1.wav,Pink_Noise_2_2.wav,,,,,,,,,,,,,,,0,22,22,116,,,,,,,,,,,,,,,,,,,,,,,583.2574561710935,None,584.7572063140105,None,586.1408106670715,None,fun,586.1408106670715,None,return,4.043588621076196,586.2240391010419,None,,,,,,,,,,,,,,,,,,,,,,,,,,,,,,,,,52,001,2023_Mar_13_1417,SpeechDraft1Carolyn_lessNoise_PlusLocalization,2021.2.3,60.00073675039568,
wound.wav,wound.mpg,wound,5,AV,Pink_Noise_5_1.wav,Pink_Noise_5_2.wav,,,,,,,,,,,,,,,0,23,23,113,,,,,,,,,,,,,,,,,,,,,,,590.2907924200408,None,591.7906316269655,None,593.1741671669297,None,new,593.1741671669297,None,return,6.009973631007597,593.2575916131027,None,,,,,,,,,,,,,,,,,,,,,,,,,,,,,,,,,52,001,2023_Mar_13_1417,SpeechDraft1Carolyn_lessNoise_PlusLocalization,2021.2.3,60.00073675039568,
clog.wav,clog.mpg,clog,5,AV,Pink_Noise_5_1.wav,Pink_Noise_5_2.wav,,,,,,,,,,,,,,,0,24,24,107,,,,,,,,,,,,,,,,,,,,,,,599.2907716690097,None,600.7904735249467,None,602.173999245977,None,la,602.173999245977,None,return,3.082193291047588,602.2574459360912,None,,,,,,,,,,,,,,,,,,,,,,,,,,,,,,,,,52,001,2023_Mar_13_1417,SpeechDraft1Carolyn_lessNoise_PlusLocalization,2021.2.3,60.00073675039568,
pike.wav,pike.mpg,pike,6,AV,Pink_Noise_6_1.wav,Pink_Noise_6_2.wav,,,,,,,,,,,,,,,0,25,25,75,,,,,,,,,,,,,,,,,,,,,,,605.3573844800703,None,606.8572806790471,None,608.2409488679841,None,make,608.2409488679841,None,return,4.455554069951177,608.3241049801,None,,,,,,,,,,,,,,,,,,,,,,,,,,,,,,,,,52,001,2023_Mar_13_1417,SpeechDraft1Carolyn_lessNoise_PlusLocalization,2021.2.3,60.00073675039568,
count.wav,count.mpg,count,3,AV,Pink_Noise_3_1.wav,Pink_Noise_3_2.wav,,,,,,,,,,,,,,,0,26,26,61,,,,,,,,,,,,,,,,,,,,,,,612.8074760159943,None,614.3073466031346,None,615.6908162441105,None,count,615.6908162441105,None,return,4.053454044042155,615.7741318419576,None,,,,,,,,,,,,,,,,,,,,,,,,,,,,,,,,,52,001,2023_Mar_13_1417,SpeechDraft1Carolyn_lessNoise_PlusLocalization,2021.2.3,60.00073675039568,
clam.wav,clam.mpg,clam,1,A,Pink_Noise_1_1.wav,Pink_Noise_1_2.wav,,,,,,,,,,,,,,,0,27,27,12,,,,,,,,,,,,,,,,,,,,,,,619.8574898240622,None,621.3571900241077,None,622.7407809339929,None,clam,622.7407809339929,None,return,3.8113860939629376,622.8241867211182,None,,,,,,,,,,,,,,,,,,,,,,,,,,,,,,,,,52,001,2023_Mar_13_1417,SpeechDraft1Carolyn_lessNoise_PlusLocalization,2021.2.3,60.00073675039568,
blush.wav,blush.mpg,blush,3,A,Pink_Noise_3_1.wav,Pink_Noise_3_2.wav,,,,,,,,,,,,,,,0,28,28,23,,,,,,,,,,,,,,,,,,,,,,,626.6575186480768,None,628.1572202551179,None,629.5408296240494,None,"flush
",629.5408296240494,None,return,5.603452863171697,629.6241312359925,None,,,,,,,,,,,,,,,,,,,,,,,,,,,,,,,,,52,001,2023_Mar_13_1417,SpeechDraft1Carolyn_lessNoise_PlusLocalization,2021.2.3,60.00073675039568,
flea.wav,flea.mpg,flea,1,AV,Pink_Noise_1_1.wav,Pink_Noise_1_2.wav,,,,,,,,,,,,,,,0,29,29,60,,,,,,,,,,,,,,,,,,,,,,,635.2574924300425,None,636.7572242741007,None,638.1407460181508,None,flea,638.1407460181508,None,return,4.8994502478744835,638.2242118620779,None,,,,,,,,,,,,,,,,,,,,,,,,,,,,,,,,,52,001,2023_Mar_13_1417,SpeechDraft1Carolyn_lessNoise_PlusLocalization,2021.2.3,60.00073675039568,
dog.wav,dog.mpg,dog,4,A,Pink_Noise_4_1.wav,Pink_Noise_4_2.wav,,,,,,,,,,,,,,,0,30,30,38,,,,,,,,,,,,,,,,,,,,,,,643.1408574939705,None,644.6404982949607,None,646.0242615691386,None,"jog
",646.0242615691386,None,return,3.1520666601136327,646.107518899953,None,,,,,,,,,,,,,,,,,,,,,,,,,,,,,,,,,52,001,2023_Mar_13_1417,SpeechDraft1Carolyn_lessNoise_PlusLocalization,2021.2.3,60.00073675039568,
bottle.wav,bottle.mpg,bottle,6,AV,Pink_Noise_6_1.wav,Pink_Noise_6_2.wav,,,,,,,,,,,,,,,0,31,31,63,,,,,,,,,,,,,,,,,,,,,,,649.2908888510428,None,650.7906918700319,None,652.1740955631249,None,target,652.1740955631249,None,return,6.058048386825249,652.2576138400473,None,,,,,,,,,,,,,,,,,,,,,,,,,,,,,,,,,52,001,2023_Mar_13_1417,SpeechDraft1Carolyn_lessNoise_PlusLocalization,2021.2.3,60.00073675039568,
stuck.wav,stuck.mpg,stuck,3,AV,Pink_Noise_3_1.wav,Pink_Noise_3_2.wav,,,,,,,,,,,,,,,0,32,32,98,,,,,,,,,,,,,,,,,,,,,,,658.3410855110269,None,659.8406811330933,None,661.224165908061,None,stuck,661.224165908061,None,return,5.008014702936634,661.3075625931378,None,,,,,,,,,,,,,,,,,,,,,,,,,,,,,,,,,52,001,2023_Mar_13_1417,SpeechDraft1Carolyn_lessNoise_PlusLocalization,2021.2.3,60.00073675039568,
gas.wav,gas.mpg,gas,2,A,Pink_Noise_2_1.wav,Pink_Noise_2_2.wav,,,,,,,,,,,,,,,0,33,33,53,,,,,,,,,,,,,,,,,,,,,,,666.3408613349311,None,667.8405946709681,None,669.2243155580945,None,"gas
",669.2243155580945,None,return,2.9521003188565373,669.3074780870229,None,,,,,,,,,,,,,,,,,,,,,,,,,,,,,,,,,52,001,2023_Mar_13_1417,SpeechDraft1Carolyn_lessNoise_PlusLocalization,2021.2.3,60.00073675039568,
pop.wav,pop.mpg,pop,4,AV,Pink_Noise_4_1.wav,Pink_Noise_4_2.wav,,,,,,,,,,,,,,,0,34,34,83,,,,,,,,,,,,,,,,,,,,,,,672.2909084239509,None,673.7905827420764,None,675.1742253289558,None,hot,675.1742253289558,None,return,8.64989927597344,675.2576805839781,None,,,,,,,,,,,,,,,,,,,,,,,,,,,,,,,,,52,001,2023_Mar_13_1417,SpeechDraft1Carolyn_lessNoise_PlusLocalization,2021.2.3,60.00073675039568,
chest.wav,chest.mpg,chest,6,A,Pink_Noise_6_1.wav,Pink_Noise_6_2.wav,,,,,,,,,,,,,,,0,35,35,56,,,,,,,,,,,,,,,,,,,,,,,683.9242357970215,None,685.4240181199275,None,686.8075075850356,None,suggest,686.8075075850356,None,return,10.34475525491871,686.8908193621319,None,,,,,,,,,,,,,,,,,,,,,,,,,,,,,,,,,52,001,2023_Mar_13_1417,SpeechDraft1Carolyn_lessNoise_PlusLocalization,2021.2.3,60.00073675039568,
leapt.wav,leapt.mpg,leapt,5,A,Pink_Noise_5_1.wav,Pink_Noise_5_2.wav,,,,,,,,,,,,,,,0,36,36,13,,,,,,,,,,,,,,,,,,,,,,,697.2575135410298,None,698.7572097750381,None,700.1409321869723,None,let,700.1409321869723,None,return,2.5153650059364736,700.2243031589314,None,,,,,,,,,,,,,,,,,,,,,,,,,,,,,,,,,52,001,2023_Mar_13_1417,SpeechDraft1Carolyn_lessNoise_PlusLocalization,2021.2.3,60.00073675039568,
stove.wav,stove.mpg,stove,3,A,Pink_Noise_3_1.wav,Pink_Noise_3_2.wav,,,,,,,,,,,,,,,0,37,37,4,,,,,,,,,,,,,,,,,,,,,,,702.7577005790081,None,704.2575246589258,None,705.640884783119,None,stow,705.640884783119,None,return,5.223362132906914,705.7243099841289,None,,,,,,,,,,,,,,,,,,,,,,,,,,,,,,,,,52,001,2023_Mar_13_1417,SpeechDraft1Carolyn_lessNoise_PlusLocalization,2021.2.3,60.00073675039568,
chin.wav,chin.mpg,chin,5,A,Pink_Noise_5_1.wav,Pink_Noise_5_2.wav,,,,,,,,,,,,,,,0,38,38,30,,,,,,,,,,,,,,,,,,,,,,,710.974274253007,None,712.4740071920678,None,713.8576098540798,None,chain,713.8576098540798,None,return,3.726613976061344,713.9409577350598,None,,,,,,,,,,,,,,,,,,,,,,,,,,,,,,,,,52,001,2023_Mar_13_1417,SpeechDraft1Carolyn_lessNoise_PlusLocalization,2021.2.3,60.00073675039568,
blink.wav,blink.mpg,blink,5,A,Pink_Noise_5_1.wav,Pink_Noise_5_2.wav,,,,,,,,,,,,,,,0,39,39,18,,,,,,,,,,,,,,,,,,,,,,,717.6908536830451,None,719.19071037299,None,720.5742249509785,None,lint,720.5742249509785,None,return,4.9059685580432415,720.6577293090522,None,,,,,,,,,,,,,,,,,,,,,,,,,,,,,,,,,52,001,2023_Mar_13_1417,SpeechDraft1Carolyn_lessNoise_PlusLocalization,2021.2.3,60.00073675039568,
slush.wav,slush.mpg,slush,6,AV,Pink_Noise_6_1.wav,Pink_Noise_6_2.wav,,,,,,,,,,,,,,,0,40,40,66,,,,,,,,,,,,,,,,,,,,,,,725.5910268309526,None,727.0906754529569,None,728.4742069719359,None,jh,728.4742069719359,None,return,4.181908173952252,728.5577664710581,None,,,,,,,,,,,,,,,,,,,,,,,,,,,,,,,,,52,001,2023_Mar_13_1417,SpeechDraft1Carolyn_lessNoise_PlusLocalization,2021.2.3,60.00073675039568,
grind.wav,grind.mpg,grind,6,AV,Pink_Noise_6_1.wav,Pink_Noise_6_2.wav,,,,,,,,,,,,,,,0,41,41,84,,,,,,,,,,,,,,,,,,,,,,,732.7576083161402,None,734.2573813849594,None,735.6409000940621,None,try,735.6409000940621,None,return,5.47923338599503,735.7243353680242,None,,,,,,,,,,,,,,,,,,,,,,,,,,,,,,,,,52,001,2023_Mar_13_1417,SpeechDraft1Carolyn_lessNoise_PlusLocalization,2021.2.3,60.00073675039568,
dish.wav,dish.mpg,dish,1,A,Pink_Noise_1_1.wav,Pink_Noise_1_2.wav,,,,,,,,,,,,,,,0,42,42,19,,,,,,,,,,,,,,,,,,,,,,,741.2243300180417,None,742.7240124701057,None,744.1077267660294,None,"dish
",744.1077267660294,None,return,3.668573345988989,744.1909960811026,None,,,,,,,,,,,,,,,,,,,,,,,,,,,,,,,,,52,001,2023_Mar_13_1417,SpeechDraft1Carolyn_lessNoise_PlusLocalization,2021.2.3,60.00073675039568,
boss.wav,boss.mpg,boss,5,A,Pink_Noise_5_1.wav,Pink_Noise_5_2.wav,,,,,,,,,,,,,,,0,43,43,10,,,,,,,,,,,,,,,,,,,,,,,747.8910214521457,None,749.3907078339253,None,750.7743384561036,None,wash,750.7743384561036,None,return,18.88195661921054,750.8576757479459,None,,,,,,,,,,,,,,,,,,,,,,,,,,,,,,,,,52,001,2023_Mar_13_1417,SpeechDraft1Carolyn_lessNoise_PlusLocalization,2021.2.3,60.00073675039568,
cleft.wav,cleft.mpg,cleft,2,AV,Pink_Noise_2_1.wav,Pink_Noise_2_2.wav,,,,,,,,,,,,,,,0,44,44,108,,,,,,,,,,,,,,,,,,,,,,,769.7577454131097,None,771.2575065731071,None,772.6409840560518,None,vleft,772.6409840560518,None,return,10.023341719061136,772.7243534899317,None,,,,,,,,,,,,,,,,,,,,,,,,,,,,,,,,,52,001,2023_Mar_13_1417,SpeechDraft1Carolyn_lessNoise_PlusLocalization,2021.2.3,60.00073675039568,
brisk.wav,brisk.mpg,brisk,5,AV,Pink_Noise_5_1.wav,Pink_Noise_5_2.wav,,,,,,,,,,,,,,,0,45,45,86,,,,,,,,,,,,,,,,,,,,,,,782.7743211020716,None,784.2740252420772,None,785.6578014211264,None,bliss,785.6578014211264,None,return,15.174556213896722,785.7410114931408,None,,,,,,,,,,,,,,,,,,,,,,,,,,,,,,,,,52,001,2023_Mar_13_1417,SpeechDraft1Carolyn_lessNoise_PlusLocalization,2021.2.3,60.00073675039568,
freeze.wav,freeze.mpg,freeze,2,AV,Pink_Noise_2_1.wav,Pink_Noise_2_2.wav,,,,,,,,,,,,,,,0,46,46,109,,,,,,,,,,,,,,,,,,,,,,,800.9411189050879,None,802.4407223269809,None,803.8243112140335,None,"freeze
",803.8243112140335,None,return,4.7679366550873965,803.9076585511211,None,,,,,,,,,,,,,,,,,,,,,,,,,,,,,,,,,52,001,2023_Mar_13_1417,SpeechDraft1Carolyn_lessNoise_PlusLocalization,2021.2.3,60.00073675039568,
box.wav,box.mpg,box,3,A,Pink_Noise_3_1.wav,Pink_Noise_3_2.wav,,,,,,,,,,,,,,,0,47,47,59,,,,,,,,,,,,,,,,,,,,,,,808.7079500239342,None,810.2074261731468,None,811.5911093701143,None,fox,811.5911093701143,None,return,5.433248328045011,811.6743956389837,None,,,,,,,,,,,,,,,,,,,,,,,,,,,,,,,,,52,001,2023_Mar_13_1417,SpeechDraft1Carolyn_lessNoise_PlusLocalization,2021.2.3,60.00073675039568,
bank.wav,bank.mpg,bank,1,A,Pink_Noise_1_1.wav,Pink_Noise_1_2.wav,,,,,,,,,,,,,,,0,48,48,45,,,,,,,,,,,,,,,,,,,,,,,817.1243410219904,None,818.6241265081335,None,820.0077286809683,None,"beg
",820.0077286809683,None,return,3.7685399940237403,820.0910399430431,None,,,,,,,,,,,,,,,,,,,,,,,,,,,,,,,,,52,001,2023_Mar_13_1417,SpeechDraft1Carolyn_lessNoise_PlusLocalization,2021.2.3,60.00073675039568,
fold.wav,fold.mpg,fold,5,A,Pink_Noise_5_1.wav,Pink_Noise_5_2.wav,,,,,,,,,,,,,,,0,49,49,14,,,,,,,,,,,,,,,,,,,,,,,823.8910935930908,None,825.390725862002,None,826.7743929170538,None,suggst,826.7743929170538,None,return,6.857784455874935,826.8578054399695,None,,,,,,,,,,,,,,,,,,,,,,,,,,,,,,,,,52,001,2023_Mar_13_1417,SpeechDraft1Carolyn_lessNoise_PlusLocalization,2021.2.3,60.00073675039568,
den.wav,den.mpg,den,2,A,Pink_Noise_2_1.wav,Pink_Noise_2_2.wav,,,,,,,,,,,,,,,0,50,50,24,,,,,,,,,,,,,,,,,,,,,,,833.7411782669369,None,835.2409449890256,None,836.6244487869553,None,"dead
",836.6244487869553,None,return,7.935722610214725,836.70790623012,None,,,,,,,,,,,,,,,,,,,,,,,,,,,,,,,,,52,001,2023_Mar_13_1417,SpeechDraft1Carolyn_lessNoise_PlusLocalization,2021.2.3,60.00073675039568,
cough.wav,cough.mpg,cough,4,A,Pink_Noise_4_1.wav,Pink_Noise_4_2.wav,,,,,,,,,,,,,,,0,51,51,0,,,,,,,,,,,,,,,,,,,,,,,844.6746503571048,None,846.1741628590971,None,847.5577481370419,None,cough,847.5577481370419,None,return,5.5144712689798325,847.6411072381306,None,,,,,,,,,,,,,,,,,,,,,,,,,,,,,,,,,52,001,2023_Mar_13_1417,SpeechDraft1Carolyn_lessNoise_PlusLocalization,2021.2.3,60.00073675039568,
squat.wav,squat.mpg,squat,1,AV,Pink_Noise_1_1.wav,Pink_Noise_1_2.wav,,,,,,,,,,,,,,,0,52,52,112,,,,,,,,,,,,,,,,,,,,,,,853.1744486000389,None,854.67429102608,None,856.0578219010495,None,"squat
",856.0578219010495,None,return,9.27033859002404,856.1412372610066,None,,,,,,,,,,,,,,,,,,,,,,,,,,,,,,,,,52,001,2023_Mar_13_1417,SpeechDraft1Carolyn_lessNoise_PlusLocalization,2021.2.3,60.00073675039568,
creep.wav,creep.mpg,creep,5,A,Pink_Noise_5_1.wav,Pink_Noise_5_2.wav,,,,,,,,,,,,,,,0,53,53,26,,,,,,,,,,,,,,,,,,,,,,,865.4411211200058,None,866.9409765340388,None,868.325519355014,None,"ytf
",868.325519355014,None,return,5.41944278893061,868.4081304981373,None,,,,,,,,,,,,,,,,,,,,,,,,,,,,,,,,,52,001,2023_Mar_13_1417,SpeechDraft1Carolyn_lessNoise_PlusLocalization,2021.2.3,60.00073675039568,
swan.wav,swan.mpg,swan,6,A,Pink_Noise_6_1.wav,Pink_Noise_6_2.wav,,,,,,,,,,,,,,,0,54,54,7,,,,,,,,,,,,,,,,,,,,,,,873.8578311861493,None,875.3589186840691,None,876.7411702000536,None,"yh
",876.7411702000536,None,return,2.0350778510328382,876.824501021998,None,,,,,,,,,,,,,,,,,,,,,,,,,,,,,,,,,52,001,2023_Mar_13_1417,SpeechDraft1Carolyn_lessNoise_PlusLocalization,2021.2.3,60.00073675039568,
check.wav,check.mpg,check,2,AV,Pink_Noise_2_1.wav,Pink_Noise_2_2.wav,,,,,,,,,,,,,,,0,55,55,79,,,,,,,,,,,,,,,,,,,,,,,878.8911448549479,None,880.3910075230524,None,881.7743676730897,None,check,881.7743676730897,None,return,7.073738278821111,881.8578912520315,None,,,,,,,,,,,,,,,,,,,,,,,,,,,,,,,,,52,001,2023_Mar_13_1417,SpeechDraft1Carolyn_lessNoise_PlusLocalization,2021.2.3,60.00073675039568,
flop.wav,flop.mpg,flop,4,AV,Pink_Noise_4_1.wav,Pink_Noise_4_2.wav,,,,,,,,,,,,,,,0,56,56,101,,,,,,,,,,,,,,,,,,,,,,,888.9578811530955,None,890.4576329400297,None,891.8411751789972,None,"flop
",891.8411751789972,None,return,4.551044414984062,891.9245265240315,None,,,,,,,,,,,,,,,,,,,,,,,,,,,,,,,,,52,001,2023_Mar_13_1417,SpeechDraft1Carolyn_lessNoise_PlusLocalization,2021.2.3,60.00073675039568,
warmth.wav,warmth.mpg,warmth,3,A,Pink_Noise_3_1.wav,Pink_Noise_3_2.wav,,,,,,,,,,,,,,,0,57,57,54,,,,,,,,,,,,,,,,,,,,,,,896.5079110891093,None,898.0081370740663,None,899.391269729007,None,work,899.391269729007,None,return,6.592941841110587,899.4746085009538,None,,,,,,,,,,,,,,,,,,,,,,,,,,,,,,,,,52,001,2023_Mar_13_1417,SpeechDraft1Carolyn_lessNoise_PlusLocalization,2021.2.3,60.00073675039568,
glide.wav,glide.mpg,glide,4,A,Pink_Noise_4_1.wav,Pink_Noise_4_2.wav,,,,,,,,,,,,,,,0,58,58,8,,,,,,,,,,,,,,,,,,,,,,,906.09128813399,None,907.5909604830667,None,908.9744698670693,None,glide,908.9744698670693,None,return,3.137723594903946,909.0578546670731,None,,,,,,,,,,,,,,,,,,,,,,,,,,,,,,,,,52,001,2023_Mar_13_1417,SpeechDraft1Carolyn_lessNoise_PlusLocalization,2021.2.3,60.00073675039568,
fresh.wav,fresh.mpg,fresh,2,A,Pink_Noise_2_1.wav,Pink_Noise_2_2.wav,,,,,,,,,,,,,,,0,59,59,43,,,,,,,,,,,,,,,,,,,,,,,912.2245681921486,None,913.7410136149265,None,915.1245834031142,None,fresh,915.1245834031142,None,return,8.507714865962043,915.2078406619839,None,,,,,,,,,,,,,,,,,,,,,,,,,,,,,,,,,52,001,2023_Mar_13_1417,SpeechDraft1Carolyn_lessNoise_PlusLocalization,2021.2.3,60.00073675039568,
buzz.wav,buzz.mpg,buzz,1,A,Pink_Noise_1_1.wav,Pink_Noise_1_2.wav,,,,,,,,,,,,,,,0,60,60,9,,,,,,,,,,,,,,,,,,,,,,,923.7412464949302,None,925.2410143229645,None,926.6245521011297,None,buzz,926.6245521011297,None,return,5.263782003894448,926.7078569871373,None,,,,,,,,,,,,,,,,,,,,,,,,,,,,,,,,,52,001,2023_Mar_13_1417,SpeechDraft1Carolyn_lessNoise_PlusLocalization,2021.2.3,60.00073675039568,
druid.wav,druid.mpg,druid,4,AV,Pink_Noise_4_1.wav,Pink_Noise_4_2.wav,,,,,,,,,,,,,,,0,61,61,81,,,,,,,,,,,,,,,,,,,,,,,931.9913681680337,None,933.492564765038,None,934.8745953140315,None,"drew
",934.8745953140315,None,return,3.50162270385772,934.9579564000014,None,,,,,,,,,,,,,,,,,,,,,,,,,,,,,,,,,52,001,2023_Mar_13_1417,SpeechDraft1Carolyn_lessNoise_PlusLocalization,2021.2.3,60.00073675039568,
eve.wav,eve.mpg,eve,5,AV,Pink_Noise_5_1.wav,Pink_Noise_5_2.wav,,,,,,,,,,,,,,,0,62,62,90,,,,,,,,,,,,,,,,,,,,,,,938.4914667571429,None,939.9927445270587,None,941.3744804039598,None,bee,941.3744804039598,None,return,4.297746755881235,941.457853919128,None,,,,,,,,,,,,,,,,,,,,,,,,,,,,,,,,,52,001,2023_Mar_13_1417,SpeechDraft1Carolyn_lessNoise_PlusLocalization,2021.2.3,60.00073675039568,
fate.wav,fate.mpg,fate,6,A,Pink_Noise_6_1.wav,Pink_Noise_6_2.wav,,,,,,,,,,,,,,,0,63,63,36,,,,,,,,,,,,,,,,,,,,,,,945.7746132779866,None,947.2742704481352,None,948.6579404829536,None,flea,948.6579404829536,None,return,5.566379145020619,948.7412956089247,None,,,,,,,,,,,,,,,,,,,,,,,,,,,,,,,,,52,001,2023_Mar_13_1417,SpeechDraft1Carolyn_lessNoise_PlusLocalization,2021.2.3,60.00073675039568,
broad.wav,broad.mpg,broad,2,AV,Pink_Noise_2_1.wav,Pink_Noise_2_2.wav,,,,,,,,,,,,,,,0,64,64,73,,,,,,,,,,,,,,,,,,,,,,,954.3246865731198,None,955.8244751440361,None,957.2077493669931,None,broaded,957.2077493669931,None,return,4.656453497940674,957.2911969700363,None,,,,,,,,,,,,,,,,,,,,,,,,,,,,,,,,,52,001,2023_Mar_13_1417,SpeechDraft1Carolyn_lessNoise_PlusLocalization,2021.2.3,60.00073675039568,
beer.wav,beer.mpg,beer,6,A,Pink_Noise_6_1.wav,Pink_Noise_6_2.wav,,,,,,,,,,,,,,,0,65,65,34,,,,,,,,,,,,,,,,,,,,,,,961.974565309938,None,963.4909737571143,None,964.874621312134,None,new,964.874621312134,None,return,6.973715401953086,964.957940177992,None,,,,,,,,,,,,,,,,,,,,,,,,,,,,,,,,,52,001,2023_Mar_13_1417,SpeechDraft1Carolyn_lessNoise_PlusLocalization,2021.2.3,60.00073675039568,
green.wav,green.mpg,green,5,AV,Pink_Noise_5_1.wav,Pink_Noise_5_2.wav,,,,,,,,,,,,,,,0,66,66,62,,,,,,,,,,,,,,,,,,,,,,,971.9579934631474,None,973.4576433720067,None,974.8412669701502,None,hgmhf,974.8412669701502,None,return,1.6071126519236714,974.9245672300458,None,,,,,,,,,,,,,,,,,,,,,,,,,,,,,,,,,52,001,2023_Mar_13_1417,SpeechDraft1Carolyn_lessNoise_PlusLocalization,2021.2.3,60.00073675039568,
traps.wav,traps.mpg,traps,4,AV,Pink_Noise_4_1.wav,Pink_Noise_4_2.wav,,,,,,,,,,,,,,,0,67,67,119,,,,,,,,,,,,,,,,,,,,,,,976.5579545630608,None,978.0583654670045,None,979.4413103109691,None,"traps
",979.4413103109691,None,return,4.518979641143233,979.5246282760054,None,,,,,,,,,,,,,,,,,,,,,,,,,,,,,,,,,52,001,2023_Mar_13_1417,SpeechDraft1Carolyn_lessNoise_PlusLocalization,2021.2.3,60.00073675039568,
cheek.wav,cheek.mpg,cheek,6,AV,Pink_Noise_6_1.wav,Pink_Noise_6_2.wav,,,,,,,,,,,,,,,0,68,68,77,,,,,,,,,,,,,,,,,,,,,,,984.0747163009364,None,985.5743402619846,None,986.9579307739623,None,hyfbbv,986.9579307739623,None,return,1.4423697569873184,987.0412040499505,None,,,,,,,,,,,,,,,,,,,,,,,,,,,,,,,,,52,001,2023_Mar_13_1417,SpeechDraft1Carolyn_lessNoise_PlusLocalization,2021.2.3,60.00073675039568,
draw.wav,draw.mpg,draw,2,AV,Pink_Noise_2_1.wav,Pink_Noise_2_2.wav,,,,,,,,,,,,,,,0,69,69,80,,,,,,,,,,,,,,,,,,,,,,,988.5080689210445,None,990.0244151100051,None,991.4079670740757,None,draw,991.4079670740757,None,return,3.392203486058861,991.4913528789766,None,,,,,,,,,,,,,,,,,,,,,,,,,,,,,,,,,52,001,2023_Mar_13_1417,SpeechDraft1Carolyn_lessNoise_PlusLocalization,2021.2.3,60.00073675039568,
skull.wav,skull.mpg,skull,2,AV,Pink_Noise_2_1.wav,Pink_Noise_2_2.wav,,,,,,,,,,,,,,,0,70,70,93,,,,,,,,,,,,,,,,,,,,,,,994.9079509149306,None,996.4077247390524,None,997.7914262579288,None,skull,997.7914262579288,None,return,3.2888976489193738,997.8747566549573,None,,,,,,,,,,,,,,,,,,,,,,,,,,,,,,,,,52,001,2023_Mar_13_1417,SpeechDraft1Carolyn_lessNoise_PlusLocalization,2021.2.3,60.00073675039568,
cane.wav,cane.mpg,cane,3,A,Pink_Noise_3_1.wav,Pink_Noise_3_2.wav,,,,,,,,,,,,,,,0,71,71,5,,,,,,,,,,,,,,,,,,,,,,,1001.191303800093,None,1002.7077231570147,None,1004.0912424090784,None,"cane
",1004.0912424090784,None,return,3.716934250900522,1004.1746233471204,None,,,,,,,,,,,,,,,,,,,,,,,,,,,,,,,,,52,001,2023_Mar_13_1417,SpeechDraft1Carolyn_lessNoise_PlusLocalization,2021.2.3,60.00073675039568,
shock.wav,shock.mpg,shock,1,AV,Pink_Noise_1_1.wav,Pink_Noise_1_2.wav,,,,,,,,,,,,,,,0,72,72,105,,,,,,,,,,,,,,,,,,,,,,,1007.9247668399476,None,1009.4244184540585,None,1010.8079609270208,None,shock,1010.8079609270208,None,return,4.9442474390380085,1010.8913214679342,None,,,,,,,,,,,,,,,,,,,,,,,,,,,,,,,,,52,001,2023_Mar_13_1417,SpeechDraft1Carolyn_lessNoise_PlusLocalization,2021.2.3,60.00073675039568,
drug.wav,drug.mpg,drug,2,A,Pink_Noise_2_1.wav,Pink_Noise_2_2.wav,,,,,,,,,,,,,,,0,73,73,15,,,,,,,,,,,,,,,,,,,,,,,1015.8580740159377,None,1017.3578121960163,None,1018.741384148132,None,"drug
",1018.741384148132,None,return,2.866978491889313,1018.8245991361327,None,,,,,,,,,,,,,,,,,,,,,,,,,,,,,,,,,52,001,2023_Mar_13_1417,SpeechDraft1Carolyn_lessNoise_PlusLocalization,2021.2.3,60.00073675039568,
gulp.wav,gulp.mpg,gulp,2,AV,Pink_Noise_2_1.wav,Pink_Noise_2_2.wav,,,,,,,,,,,,,,,0,74,74,74,,,,,,,,,,,,,,,,,,,,,,,1021.7247038879432,None,1023.2244804240763,None,1024.608021727996,None,gulp,1024.608021727996,None,return,6.080312222009525,1024.6913436730392,None,,,,,,,,,,,,,,,,,,,,,,,,,,,,,,,,,52,001,2023_Mar_13_1417,SpeechDraft1Carolyn_lessNoise_PlusLocalization,2021.2.3,60.00073675039568,
game.wav,game.mpg,game,2,A,Pink_Noise_2_1.wav,Pink_Noise_2_2.wav,,,,,,,,,,,,,,,0,75,75,6,,,,,,,,,,,,,,,,,,,,,,,1030.7914579401258,None,1032.307754779933,None,1033.691418146016,None,gay,1033.691418146016,None,return,3.5488588290754706,1033.7747917841189,None,,,,,,,,,,,,,,,,,,,,,,,,,,,,,,,,,52,001,2023_Mar_13_1417,SpeechDraft1Carolyn_lessNoise_PlusLocalization,2021.2.3,60.00073675039568,
grace.wav,grace.mpg,grace,3,AV,Pink_Noise_3_1.wav,Pink_Noise_3_2.wav,,,,,,,,,,,,,,,0,76,76,97,,,,,,,,,,,,,,,,,,,,,,,1037.341364708962,None,1038.841168946121,None,1040.2245627960656,None,grace,1040.2245627960656,None,return,10.42349324002862,1040.308099337155,None,,,,,,,,,,,,,,,,,,,,,,,,,,,,,,,,,52,001,2023_Mar_13_1417,SpeechDraft1Carolyn_lessNoise_PlusLocalization,2021.2.3,60.00073675039568,
fat.wav,fat.mpg,fat,6,A,Pink_Noise_6_1.wav,Pink_Noise_6_2.wav,,,,,,,,,,,,,,,0,77,77,28,,,,,,,,,,,,,,,,,,,,,,,1050.7580854340922,None,1052.2596721199807,None,1053.6414283830673,None,yj,1053.6414283830673,None,return,6.0389133368153125,1053.7247676481493,None,,,,,,,,,,,,,,,,,,,,,,,,,,,,,,,,,52,001,2023_Mar_13_1417,SpeechDraft1Carolyn_lessNoise_PlusLocalization,2021.2.3,60.00073675039568,
strike.wav,strike.mpg,strike,3,A,Pink_Noise_3_1.wav,Pink_Noise_3_2.wav,,,,,,,,,,,,,,,0,78,78,47,,,,,,,,,,,,,,,,,,,,,,,1059.7915131549817,None,1061.4744866560213,None,1062.858044071123,None,sttrength,1062.858044071123,None,return,9.47816549683921,1062.9414384830743,None,,,,,,,,,,,,,,,,,,,,,,,,,,,,,,,,,52,001,2023_Mar_13_1417,SpeechDraft1Carolyn_lessNoise_PlusLocalization,2021.2.3,60.00073675039568,
beam.wav,beam.mpg,beam,2,AV,Pink_Noise_2_1.wav,Pink_Noise_2_2.wav,,,,,,,,,,,,,,,0,79,79,94,,,,,,,,,,,,,,,,,,,,,,,1072.4415589810815,None,1073.9410443371162,None,1075.324465855956,None,"beam
",1075.324465855956,None,return,5.283512172987685,1075.4080739731435,None,,,,,,,,,,,,,,,,,,,,,,,,,,,,,,,,,52,001,2023_Mar_13_1417,SpeechDraft1Carolyn_lessNoise_PlusLocalization,2021.2.3,60.00073675039568,
cone.wav,cone.mpg,cone,4,A,Pink_Noise_4_1.wav,Pink_Noise_4_2.wav,,,,,,,,,,,,,,,0,80,80,58,,,,,,,,,,,,,,,,,,,,,,,1080.724770653993,None,1082.2245239131153,None,1083.6082106891554,None,,1083.6082106891554,None,return,0.12815589387901127,1083.6914354930632,None,,,,,,,,,,,,,,,,,,,,,,,,,,,,,,,,,52,001,2023_Mar_13_1417,SpeechDraft1Carolyn_lessNoise_PlusLocalization,2021.2.3,60.00073675039568,
bread.wav,bread.mpg,bread,6,A,Pink_Noise_6_1.wav,Pink_Noise_6_2.wav,,,,,,,,,,,,,,,0,81,81,3,,,,,,,,,,,,,,,,,,,,,,,1083.8414177990053,None,1085.357861190103,None,1086.7415388571098,None,,1086.7415388571098,None,return,0.2107833200134337,1086.8248152351007,None,,,,,,,,,,,,,,,,,,,,,,,,,,,,,,,,,52,001,2023_Mar_13_1417,SpeechDraft1Carolyn_lessNoise_PlusLocalization,2021.2.3,60.00073675039568,
climb.wav,climb.mpg,climb,5,AV,Pink_Noise_5_1.wav,Pink_Noise_5_2.wav,,,,,,,,,,,,,,,0,82,82,85,,,,,,,,,,,,,,,,,,,,,,,1087.0580551570747,None,1088.55785827199,None,1089.9414064029697,None,,1089.9414064029697,None,return,0.08263361104764044,1090.0250116491225,None,,,,,,,,,,,,,,,,,,,,,,,,,,,,,,,,,52,001,2023_Mar_13_1417,SpeechDraft1Carolyn_lessNoise_PlusLocalization,2021.2.3,60.00073675039568,
coal.wav,coal.mpg,coal,1,A,Pink_Noise_1_1.wav,Pink_Noise_1_2.wav,,,,,,,,,,,,,,,0,83,83,57,,,,,,,,,,,,,,,,,,,,,,,1090.124778812984,None,1091.6412352679763,None,1093.0248669520952,None,"
",1093.0248669520952,None,return,2.9034418871160597,1093.1081478439737,None,,,,,,,,,,,,,,,,,,,,,,,,,,,,,,,,,52,001,2023_Mar_13_1417,SpeechDraft1Carolyn_lessNoise_PlusLocalization,2021.2.3,60.00073675039568,
tart.wav,tart.mpg,tart,4,A,Pink_Noise_4_1.wav,Pink_Noise_4_2.wav,,,,,,,,,,,,,,,0,84,84,48,,,,,,,,,,,,,,,,,,,,,,,1096.041435369989,None,1097.557893827092,None,1098.9414593561087,None,,1098.9414593561087,None,return,0.8666947288438678,1099.0248751009349,None,,,,,,,,,,,,,,,,,,,,,,,,,,,,,,,,,52,001,2023_Mar_13_1417,SpeechDraft1Carolyn_lessNoise_PlusLocalization,2021.2.3,60.00073675039568,
coil.wav,coil.mpg,coil,3,AV,Pink_Noise_3_1.wav,Pink_Noise_3_2.wav,,,,,,,,,,,,,,,0,85,85,104,,,,,,,,,,,,,,,,,,,,,,,1099.9083685211372,None,1101.4245115851518,None,1102.8080895841122,None,"
",1102.8080895841122,None,return,0.567932607838884,1102.8916455130093,None,,,,,,,,,,,,,,,,,,,,,,,,,,,,,,,,,52,001,2023_Mar_13_1417,SpeechDraft1Carolyn_lessNoise_PlusLocalization,2021.2.3,60.00073675039568,
roast.wav,roast.mpg,roast,5,AV,Pink_Noise_5_1.wav,Pink_Noise_5_2.wav,,,,,,,,,,,,,,,0,86,86,115,,,,,,,,,,,,,,,,,,,,,,,1103.4915823950432,None,1104.9921463709325,None,1106.3748827150557,None,"
",1106.3748827150557,None,return,0.18550747213885188,1106.4580615391023,None,,,,,,,,,,,,,,,,,,,,,,,,,,,,,,,,,52,001,2023_Mar_13_1417,SpeechDraft1Carolyn_lessNoise_PlusLocalization,2021.2.3,60.00073675039568,
flake.wav,flake.mpg,flake,2,AV,Pink_Noise_2_1.wav,Pink_Noise_2_2.wav,,,,,,,,,,,,,,,0,87,87,100,,,,,,,,,,,,,,,,,,,,,,,1106.6748039459344,None,1108.2078734640963,None,1109.5913259249646,None,"flake
",1109.5913259249646,None,return,6.184798249974847,1109.6747793001123,None,,,,,,,,,,,,,,,,,,,,,,,,,,,,,,,,,52,001,2023_Mar_13_1417,SpeechDraft1Carolyn_lessNoise_PlusLocalization,2021.2.3,60.00073675039568,
bail.wav,bail.mpg,bail,3,AV,Pink_Noise_3_1.wav,Pink_Noise_3_2.wav,,,,,,,,,,,,,,,0,88,88,92,,,,,,,,,,,,,,,,,,,,,,,1115.8915002010763,None,1117.4079366049264,None,1118.7914582660887,None,bail,1118.7914582660887,None,return,3.1446707260329276,1118.8749021370895,None,,,,,,,,,,,,,,,,,,,,,,,,,,,,,,,,,52,001,2023_Mar_13_1417,SpeechDraft1Carolyn_lessNoise_PlusLocalization,2021.2.3,60.00073675039568,
bold.wav,bold.mpg,bold,4,A,Pink_Noise_4_1.wav,Pink_Noise_4_2.wav,,,,,,,,,,,,,,,0,89,89,27,,,,,,,,,,,,,,,,,,,,,,,1122.0415086930152,None,1123.5579436810222,None,1124.941470691003,None,,1124.941470691003,None,return,0.12271783198229969,1125.0249442409258,None,,,,,,,,,,,,,,,,,,,,,,,,,,,,,,,,,52,001,2023_Mar_13_1417,SpeechDraft1Carolyn_lessNoise_PlusLocalization,2021.2.3,60.00073675039568,
gang.wav,gang.mpg,gang,2,A,Pink_Noise_2_1.wav,Pink_Noise_2_2.wav,,,,,,,,,,,,,,,0,90,90,42,,,,,,,,,,,,,,,,,,,,,,,1125.1750465179794,None,1126.6912280139513,None,1128.0748323360458,None,"
",1128.0748323360458,None,return,0.25343255302868783,1128.1581485499628,None,,,,,,,,,,,,,,,,,,,,,,,,,,,,,,,,,52,001,2023_Mar_13_1417,SpeechDraft1Carolyn_lessNoise_PlusLocalization,2021.2.3,60.00073675039568,
vest.wav,vest.mpg,vest,1,AV,Pink_Noise_1_1.wav,Pink_Noise_1_2.wav,,,,,,,,,,,,,,,0,91,91,69,,,,,,,,,,,,,,,,,,,,,,,1128.441534471931,None,1129.9579063919373,None,1131.3415129850619,None,fast,1131.3415129850619,None,return,4.922668339917436,1131.4250098960474,None,,,,,,,,,,,,,,,,,,,,,,,,,,,,,,,,,52,001,2023_Mar_13_1417,SpeechDraft1Carolyn_lessNoise_PlusLocalization,2021.2.3,60.00073675039568,
belt.wav,belt.mpg,belt,4,A,Pink_Noise_4_1.wav,Pink_Noise_4_2.wav,,,,,,,,,,,,,,,0,92,92,16,,,,,,,,,,,,,,,,,,,,,,,1136.3748962529935,None,1137.8913424951024,None,1139.274967900943,None,built,1139.274967900943,None,return,3.4213557788170874,1139.3582695869263,None,,,,,,,,,,,,,,,,,,,,,,,,,,,,,,,,,52,001,2023_Mar_13_1417,SpeechDraft1Carolyn_lessNoise_PlusLocalization,2021.2.3,60.00073675039568,
fuss.wav,fuss.mpg,fuss,6,A,Pink_Noise_6_1.wav,Pink_Noise_6_2.wav,,,,,,,,,,,,,,,0,93,93,29,,,,,,,,,,,,,,,,,,,,,,,1142.8081780299544,None,1144.3245112721343,None,1145.7081748950295,None,,1145.7081748950295,None,return,1.5402111599687487,1145.791487762006,None,,,,,,,,,,,,,,,,,,,,,,,,,,,,,,,,,52,001,2023_Mar_13_1417,SpeechDraft1Carolyn_lessNoise_PlusLocalization,2021.2.3,60.00073675039568,
brawl.wav,brawl.mpg,brawl,5,AV,Pink_Noise_5_1.wav,Pink_Noise_5_2.wav,,,,,,,,,,,,,,,0,94,94,65,,,,,,,,,,,,,,,,,,,,,,,1147.3583368321415,None,1148.8745768601075,None,1150.2582503750455,None,,1150.2582503750455,None,return,0.39004116994328797,1150.3416394339874,None,,,,,,,,,,,,,,,,,,,,,,,,,,,,,,,,,52,001,2023_Mar_13_1417,SpeechDraft1Carolyn_lessNoise_PlusLocalization,2021.2.3,60.00073675039568,
dine.wav,dine.mpg,dine,6,AV,Pink_Noise_6_1.wav,Pink_Noise_6_2.wav,,,,,,,,,,,,,,,0,95,95,72,,,,,,,,,,,,,,,,,,,,,,,1150.7582887171302,None,1152.2746766619384,None,1153.6582722601015,None,,1153.6582722601015,None,return,2.9419319189619273,1153.7416339050978,None,,,,,,,,,,,,,,,,,,,,,,,,,,,,,,,,,52,001,2023_Mar_13_1417,SpeechDraft1Carolyn_lessNoise_PlusLocalization,2021.2.3,60.00073675039568,
cause.wav,cause.mpg,cause,1,AV,Pink_Noise_1_1.wav,Pink_Noise_1_2.wav,,,,,,,,,,,,,,,0,96,96,106,,,,,,,,,,,,,,,,,,,,,,,1156.7082657360006,None,1158.224692262942,None,1159.60812161793,None,cause,1159.60812161793,None,return,6.2079804099630564,1159.691584997112,None,,,,,,,,,,,,,,,,,,,,,,,,,,,,,,,,,52,001,2023_Mar_13_1417,SpeechDraft1Carolyn_lessNoise_PlusLocalization,2021.2.3,60.00073675039568,
beef.wav,beef.mpg,beef,6,A,Pink_Noise_6_1.wav,Pink_Noise_6_2.wav,,,,,,,,,,,,,,,0,97,97,49,,,,,,,,,,,,,,,,,,,,,,,1165.9249504781328,None,1167.4413476861082,None,1168.8249265570194,None,,1168.8249265570194,None,return,0.6074483590200543,1168.9082162410486,None,,,,,,,,,,,,,,,,,,,,,,,,,,,,,,,,,52,001,2023_Mar_13_1417,SpeechDraft1Carolyn_lessNoise_PlusLocalization,2021.2.3,60.00073675039568,
swamp.wav,swamp.mpg,swamp,5,AV,Pink_Noise_5_1.wav,Pink_Noise_5_2.wav,,,,,,,,,,,,,,,0,98,98,82,,,,,,,,,,,,,,,,,,,,,,,1169.541594515089,None,1171.0580954209436,None,1172.4415038200095,None,"
",1172.4415038200095,None,return,3.5505709450226277,1172.5250065370928,None,,,,,,,,,,,,,,,,,,,,,,,,,,,,,,,,,52,001,2023_Mar_13_1417,SpeechDraft1Carolyn_lessNoise_PlusLocalization,2021.2.3,60.00073675039568,
bless.wav,bless.mpg,bless,3,AV,Pink_Noise_3_1.wav,Pink_Noise_3_2.wav,,,,,,,,,,,,,,,0,99,99,99,,,,,,,,,,,,,,,,,,,,,,,1176.1082888939418,None,1177.6247456190176,None,1179.0082237119786,None,b;ess,1179.0082237119786,None,return,3.9118953819852322,1179.0916672539897,None,,,,,,,,,,,,,,,,,,,,,,,,,,,,,,,,,52,001,2023_Mar_13_1417,SpeechDraft1Carolyn_lessNoise_PlusLocalization,2021.2.3,60.00073675039568,
foil.wav,foil.mpg,foil,4,A,Pink_Noise_4_1.wav,Pink_Noise_4_2.wav,,,,,,,,,,,,,,,0,100,100,25,,,,,,,,,,,,,,,,,,,,,,,1183.0249355209526,None,1184.5248103509657,None,1185.9084678869694,None,,1185.9084678869694,None,return,1.0919264508411288,1185.991628373973,None,,,,,,,,,,,,,,,,,,,,,,,,,,,,,,,,,52,001,2023_Mar_13_1417,SpeechDraft1Carolyn_lessNoise_PlusLocalization,2021.2.3,60.00073675039568,
jeep.wav,jeep.mpg,jeep,6,AV,Pink_Noise_6_1.wav,Pink_Noise_6_2.wav,,,,,,,,,,,,,,,0,101,101,111,,,,,,,,,,,,,,,,,,,,,,,1187.1082913980354,None,1188.6579651499633,None,1190.041590336943,None,,1190.041590336943,None,return,0.11063959309831262,1190.124925134005,None,,,,,,,,,,,,,,,,,,,,,,,,,,,,,,,,,52,001,2023_Mar_13_1417,SpeechDraft1Carolyn_lessNoise_PlusLocalization,2021.2.3,60.00073675039568,
bean.wav,bean.mpg,bean,5,A,Pink_Noise_5_1.wav,Pink_Noise_5_2.wav,,,,,,,,,,,,,,,0,102,102,33,,,,,,,,,,,,,,,,,,,,,,,1190.2583069589455,None,1191.7746177280787,None,1193.1583803249523,None,,1193.1583803249523,None,return,4.106060354039073,1193.2416276091244,None,,,,,,,,,,,,,,,,,,,,,,,,,,,,,,,,,52,001,2023_Mar_13_1417,SpeechDraft1Carolyn_lessNoise_PlusLocalization,2021.2.3,60.00073675039568,
block.wav,block.mpg,block,2,A,Pink_Noise_2_1.wav,Pink_Noise_2_2.wav,,,,,,,,,,,,,,,0,103,103,39,,,,,,,,,,,,,,,,,,,,,,,1197.3751048459671,None,1198.891384581104,None,1200.2748041851446,None,blaxkl,1200.2748041851446,None,return,4.813431133981794,1200.3582504850347,None,,,,,,,,,,,,,,,,,,,,,,,,,,,,,,,,,52,001,2023_Mar_13_1417,SpeechDraft1Carolyn_lessNoise_PlusLocalization,2021.2.3,60.00073675039568,
hug.wav,hug.mpg,hug,6,A,Pink_Noise_6_1.wav,Pink_Noise_6_2.wav,,,,,,,,,,,,,,,0,104,104,17,,,,,,,,,,,,,,,,,,,,,,,1205.1915914721321,None,1206.692171314964,None,1208.074990095105,None,;,1208.074990095105,None,return,4.221313648158684,1208.1582562399562,None,,,,,,,,,,,,,,,,,,,,,,,,,,,,,,,,,52,001,2023_Mar_13_1417,SpeechDraft1Carolyn_lessNoise_PlusLocalization,2021.2.3,60.00073675039568,
bat.wav,bat.mpg,bat,3,AV,Pink_Noise_3_1.wav,Pink_Noise_3_2.wav,,,,,,,,,,,,,,,0,105,105,110,,,,,,,,,,,,,,,,,,,,,,,1212.4082053380553,None,1213.9249252560548,None,1215.3082671309821,None,,1215.3082671309821,None,return,0.5000007189810276,1215.3915756409988,None,,,,,,,,,,,,,,,,,,,,,,,,,,,,,,,,,52,001,2023_Mar_13_1417,SpeechDraft1Carolyn_lessNoise_PlusLocalization,2021.2.3,60.00073675039568,
gust.wav,gust.mpg,gust,3,A,Pink_Noise_3_1.wav,Pink_Noise_3_2.wav,,,,,,,,,,,,,,,0,106,106,50,,,,,,,,,,,,,,,,,,,,,,,1215.9083847799338,None,1217.4248528250027,None,1218.8083575421479,None,,1218.8083575421479,None,return,0.0560899309348315,1218.8915856459644,None,,,,,,,,,,,,,,,,,,,,,,,,,,,,,,,,,52,001,2023_Mar_13_1417,SpeechDraft1Carolyn_lessNoise_PlusLocalization,2021.2.3,60.00073675039568,
toy.wav,toy.mpg,toy,4,A,Pink_Noise_4_1.wav,Pink_Noise_4_2.wav,,,,,,,,,,,,,,,0,107,107,46,,,,,,,,,,,,,,,,,,,,,,,1218.975730770966,None,1220.491434653988,None,1221.8749537579715,None,,1221.8749537579715,None,return,0.13324072398245335,1221.9583402599674,None,,,,,,,,,,,,,,,,,,,,,,,,,,,,,,,,,52,001,2023_Mar_13_1417,SpeechDraft1Carolyn_lessNoise_PlusLocalization,2021.2.3,60.00073675039568,
chalk.wav,chalk.mpg,chalk,2,A,Pink_Noise_2_1.wav,Pink_Noise_2_2.wav,,,,,,,,,,,,,,,0,108,108,37,,,,,,,,,,,,,,,,,,,,,,,1222.108388360124,None,1223.6247528989334,None,1225.0083721680567,None,"
",1225.0083721680567,None,return,0.3679563601035625,1225.0916210750584,None,,,,,,,,,,,,,,,,,,,,,,,,,,,,,,,,,52,001,2023_Mar_13_1417,SpeechDraft1Carolyn_lessNoise_PlusLocalization,2021.2.3,60.00073675039568,
debt.wav,debt.mpg,debt,4,AV,Pink_Noise_4_1.wav,Pink_Noise_4_2.wav,,,,,,,,,,,,,,,0,109,109,68,,,,,,,,,,,,,,,,,,,,,,,1225.4916467929725,None,1227.00819125399,None,1228.392329387134,None,,1228.392329387134,None,return,4.432619133964181,1228.4750220461283,None,,,,,,,,,,,,,,,,,,,,,,,,,,,,,,,,,52,001,2023_Mar_13_1417,SpeechDraft1Carolyn_lessNoise_PlusLocalization,2021.2.3,60.00073675039568,
bite.wav,bite.mpg,bite,3,A,Pink_Noise_3_1.wav,Pink_Noise_3_2.wav,,,,,,,,,,,,,,,0,110,110,20,,,,,,,,,,,,,,,,,,,,,,,1232.9250235599466,None,1234.4580219599884,None,1235.8416880839504,None,"
",1235.8416880839504,None,return,0.35047203907743096,1235.9251169981435,None,,,,,,,,,,,,,,,,,,,,,,,,,,,,,,,,,52,001,2023_Mar_13_1417,SpeechDraft1Carolyn_lessNoise_PlusLocalization,2021.2.3,60.00073675039568,
flock.wav,flock.mpg,flock,4,AV,Pink_Noise_4_1.wav,Pink_Noise_4_2.wav,,,,,,,,,,,,,,,0,111,111,89,,,,,,,,,,,,,,,,,,,,,,,1236.3083764561452,None,1237.8248431349639,None,1239.2082268230151,None,,1239.2082268230151,None,return,2.863882757956162,1239.2917229491286,None,,,,,,,,,,,,,,,,,,,,,,,,,,,,,,,,,52,001,2023_Mar_13_1417,SpeechDraft1Carolyn_lessNoise_PlusLocalization,2021.2.3,60.00073675039568,
curl.wav,curl.mpg,curl,5,AV,Pink_Noise_5_1.wav,Pink_Noise_5_2.wav,,,,,,,,,,,,,,,0,112,112,71,,,,,,,,,,,,,,,,,,,,,,,1242.1750711360946,None,1243.6913220060524,None,1245.0748478220776,None,,1245.0748478220776,None,return,0.709144612075761,1245.1584238009527,None,,,,,,,,,,,,,,,,,,,,,,,,,,,,,,,,,52,001,2023_Mar_13_1417,SpeechDraft1Carolyn_lessNoise_PlusLocalization,2021.2.3,60.00073675039568,
brain.wav,brain.mpg,brain,3,A,Pink_Noise_3_1.wav,Pink_Noise_3_2.wav,,,,,,,,,,,,,,,0,113,113,44,,,,,,,,,,,,,,,,,,,,,,,1245.8916675930377,None,1247.391538884025,None,1248.7749756181147,None,brain,1248.7749756181147,None,return,7.0092087590601295,1248.8583935259376,None,,,,,,,,,,,,,,,,,,,,,,,,,,,,,,,,,52,001,2023_Mar_13_1417,SpeechDraft1Carolyn_lessNoise_PlusLocalization,2021.2.3,60.00073675039568,
crow.wav,crow.mpg,crow,5,A,Pink_Noise_5_1.wav,Pink_Noise_5_2.wav,,,,,,,,,,,,,,,0,114,114,31,,,,,,,,,,,,,,,,,,,,,,,1255.8916589571163,None,1257.4081657601055,None,1258.7916329801083,None,"
",1258.7916329801083,None,return,0.9685101499781013,1258.875065339962,None,,,,,,,,,,,,,,,,,,,,,,,,,,,,,,,,,52,001,2023_Mar_13_1417,SpeechDraft1Carolyn_lessNoise_PlusLocalization,2021.2.3,60.00073675039568,
gum.wav,gum.mpg,gum,1,A,Pink_Noise_1_1.wav,Pink_Noise_1_2.wav,,,,,,,,,,,,,,,0,115,115,21,,,,,,,,,,,,,,,,,,,,,,,1259.8748995580245,None,1261.3917112790514,None,1262.7750581479631,None,gun,1262.7750581479631,None,return,3.7610659969504923,1262.858512256993,None,,,,,,,,,,,,,,,,,,,,,,,,,,,,,,,,,52,001,2023_Mar_13_1417,SpeechDraft1Carolyn_lessNoise_PlusLocalization,2021.2.3,60.00073675039568,
gift.wav,gift.mpg,gift,1,A,Pink_Noise_1_1.wav,Pink_Noise_1_2.wav,,,,,,,,,,,,,,,0,116,116,1,,,,,,,,,,,,,,,,,,,,,,,1266.6417476751376,None,1268.158092576079,None,1269.5416057191323,None,gift,1269.5416057191323,None,return,3.978557567112148,1269.625024301,None,,,,,,,,,,,,,,,,,,,,,,,,,,,,,,,,,52,001,2023_Mar_13_1417,SpeechDraft1Carolyn_lessNoise_PlusLocalization,2021.2.3,60.00073675039568,
frost.wav,frost.mpg,frost,4,AV,Pink_Noise_4_1.wav,Pink_Noise_4_2.wav,,,,,,,,,,,,,,,0,117,117,67,,,,,,,,,,,,,,,,,,,,,,,1273.6250830730423,None,1275.1415935230907,None,1276.5249582589604,None,,1276.5249582589604,None,return,0.9712226239498705,1276.6083633610979,None,,,,,,,,,,,,,,,,,,,,,,,,,,,,,,,,,52,001,2023_Mar_13_1417,SpeechDraft1Carolyn_lessNoise_PlusLocalization,2021.2.3,60.00073675039568,
bow.wav,bow.mpg,bow,6,AV,Pink_Noise_6_1.wav,Pink_Noise_6_2.wav,,,,,,,,,,,,,,,0,118,118,96,,,,,,,,,,,,,,,,,,,,,,,1277.6084350161254,None,1279.1248300711159,None,1280.508281516144,None,,1280.508281516144,None,return,11.699844600865617,1280.5918000929523,None,,,,,,,,,,,,,,,,,,,,,,,,,,,,,,,,,52,001,2023_Mar_13_1417,SpeechDraft1Carolyn_lessNoise_PlusLocalization,2021.2.3,60.00073675039568,
priest.wav,priest.mpg,priest,3,AV,Pink_Noise_3_1.wav,Pink_Noise_3_2.wav,,,,,,,,,,,,,,,0,119,119,76,,,,,,,,,,,,,,,,,,,,,,,1292.3084128149785,None,1293.8418896470685,None,1295.2249585650861,None,"
",1295.2249585650861,None,return,0.7580148840788752,1295.309532291023,None,,,,,,,,,,,,,,,,,,,,,,,,,,,,,,,,,52,001,2023_Mar_13_1417,SpeechDraft1Carolyn_lessNoise_PlusLocalization,2021.2.3,60.00073675039568,
,,,,,,,,,,,,,,,,,,,,,,,,,,,,,,,,,,,,,,,,,,,,,,,,,,,,,,,,,,,,,,,,,,space,19.37186529696919,1296.1917516449466,None,,,,,,,,,,,,,,,,,,,,,,,52,001,2023_Mar_13_1417,SpeechDraft1Carolyn_lessNoise_PlusLocalization,2021.2.3,60.00073675039568,
,,,,,,,,nearLeft,-6.5,1,ch1Sound_localizationTask.wav,-6.5,"(857, 878)","(-103,-202)",-95,-338,,,,,,,,,0,0,0,2,,,,,,,,,,,,,,,,,,,,,,,,,,,,,,,,,,,,,,,,,,1296.1917516449466,None,1315.6082448221277,None,1316.7081844860222,None,1317.641545912018,None,1.0455026455026455,13.503860770026222,1317.641545912018,None,,,,,,,,,,,52,001,2023_Mar_13_1417,SpeechDraft1Carolyn_lessNoise_PlusLocalization,2021.2.3,60.00073675039568,
,,,,,,,,farLeft,-19.1,5,ch1Sound_localizationTask.wav,-19.1,"(667, 878)","(-293,-202)",-285,-338,,,,,,,,,0,1,1,0,,,,,,,,,,,,,,,,,,,,,,,,,,,,,,,,,,,,,,,,,,,,1331.1584897241555,None,1332.25808550301,None,1333.191590554081,None,1.0476190476190477,1.38326880405657,1333.191590554081,None,,,,,,,,,,,52,001,2023_Mar_13_1417,SpeechDraft1Carolyn_lessNoise_PlusLocalization,2021.2.3,60.00073675039568,
,,,,,,,,midLeft,-13.0,2,ch1Sound_localizationTask.wav,-13.0,"(762, 878)","(-198,-202)",-190,-338,,,,,,,,,0,2,2,1,,,,,,,,,,,,,,,,,,,,,,,,,,,,,,,,,,,,,,,,,,,,1334.5917974640615,None,1335.6915716060903,None,1336.6249191050883,None,1.3761904761904762,1.5657290529925376,1336.6249191050883,None,,,,,,,,,,,52,001,2023_Mar_13_1417,SpeechDraft1Carolyn_lessNoise_PlusLocalization,2021.2.3,60.00073675039568,
,,,,,,,,farRight,19.1,4,ch1Sound_localizationTask.wav,19.1,"(1237, 878)","(277,-202)",285,-338,,,,,,,,,0,3,3,6,,,,,,,,,,,,,,,,,,,,,,,,,,,,,,,,,,,,,,,,,,,,1338.1918545051012,None,1339.2915446860716,None,1340.2249858800787,None,1.8608465608465607,1.6669672629795969,1340.2249858800787,None,,,,,,,,,,,52,001,2023_Mar_13_1417,SpeechDraft1Carolyn_lessNoise_PlusLocalization,2021.2.3,60.00073675039568,
,,,,,,,,midLeft,-13.0,2,ch1Sound_localizationTask.wav,-13.0,"(762, 878)","(-198,-202)",-190,-338,,,,,,,,,0,4,4,1,,,,,,,,,,,,,,,,,,,,,,,,,,,,,,,,,,,,,,,,,,,,1341.9085303810425,None,1343.008287293138,None,1343.9416426289827,None,1.3026455026455026,1.150135135045275,1343.9416426289827,None,,,,,,,,,,,52,001,2023_Mar_13_1417,SpeechDraft1Carolyn_lessNoise_PlusLocalization,2021.2.3,60.00073675039568,
,,,,,,,,farRight,19.1,4,ch1Sound_localizationTask.wav,19.1,"(1237, 878)","(277,-202)",285,-338,,,,,,,,,0,5,5,6,,,,,,,,,,,,,,,,,,,,,,,,,,,,,,,,,,,,,,,,,,,,1345.1086716931313,None,1346.2081803721376,None,1347.1415636590682,None,1.7846560846560846,0.9999676400329918,1347.1415636590682,None,,,,,,,,,,,52,001,2023_Mar_13_1417,SpeechDraft1Carolyn_lessNoise_PlusLocalization,2021.2.3,60.00073675039568,
,,,,,,,,nearLeft,-6.5,1,ch1Sound_localizationTask.wav,-6.5,"(857, 878)","(-103,-202)",-95,-338,,,,,,,,,0,6,6,2,,,,,,,,,,,,,,,,,,,,,,,,,,,,,,,,,,,,,,,,,,,,1348.1428212670144,None,1349.2416677339934,None,1350.1749352021143,None,1.4153439153439153,1.000117216957733,1350.1749352021143,None,,,,,,,,,,,52,001,2023_Mar_13_1417,SpeechDraft1Carolyn_lessNoise_PlusLocalization,2021.2.3,60.00073675039568,
,,,,,,,,midLeft,-13.0,2,ch1Sound_localizationTask.wav,-13.0,"(762, 878)","(-198,-202)",-190,-338,,,,,,,,,1,0,7,1,,,,,,,,,,,,,,,,,,,,,,,,,,,,,,,,,,,,,,,,,,,,1351.191916957032,None,1352.2914333229419,None,1353.225040143123,None,1.403174603174603,0.9666757001541555,1353.225040143123,None,,,,,,,,,,,52,001,2023_Mar_13_1417,SpeechDraft1Carolyn_lessNoise_PlusLocalization,2021.2.3,60.00073675039568,
,,,,,,,,midRight,13.0,3,ch1Sound_localizationTask.wav,13.0,"(1142, 878)","(182, -202)",190,-338,,,,,,,,,1,1,8,5,,,,,,,,,,,,,,,,,,,,,,,,,,,,,,,,,,,,,,,,,,,,1354.1931373949628,None,1355.3081569389906,None,1356.2249103791546,None,1.6857142857142857,0.8830784349702299,1356.2249103791546,None,,,,,,,,,,,52,001,2023_Mar_13_1417,SpeechDraft1Carolyn_lessNoise_PlusLocalization,2021.2.3,60.00073675039568,
,,,,,,,,nearRight,6.5,0,ch1Sound_localizationTask.wav,6.5,"(1047, 878)","(87, -202)",95,-338,,,,,,,,,1,2,9,4,,,,,,,,,,,,,,,,,,,,,,,,,,,,,,,,,,,,,,,,,,,,1357.125229998026,None,1358.2248732361477,None,1359.1582576141227,None,1.5820105820105819,0.6494663611520082,1359.1582576141227,None,,,,,,,,,,,52,001,2023_Mar_13_1417,SpeechDraft1Carolyn_lessNoise_PlusLocalization,2021.2.3,60.00073675039568,
,,,,,,,,nearRight,6.5,0,ch1Sound_localizationTask.wav,6.5,"(1047, 878)","(87, -202)",95,-338,,,,,,,,,1,3,10,4,,,,,,,,,,,,,,,,,,,,,,,,,,,,,,,,,,,,,,,,,,,,1359.8086092500016,None,1360.908187081106,None,1361.8415706930682,None,1.6365079365079365,0.7330573659855872,1361.8415706930682,None,,,,,,,,,,,52,001,2023_Mar_13_1417,SpeechDraft1Carolyn_lessNoise_PlusLocalization,2021.2.3,60.00073675039568,
,,,,,,,,midLeft,-13.0,2,ch1Sound_localizationTask.wav,-13.0,"(762, 878)","(-198,-202)",-190,-338,,,,,,,,,1,4,11,1,,,,,,,,,,,,,,,,,,,,,,,,,,,,,,,,,,,,,,,,,,,,1362.5756651009433,None,1363.6749002011493,None,1364.6082127790432,None,1.3603174603174604,0.8167476961389184,1364.6082127790432,None,,,,,,,,,,,52,001,2023_Mar_13_1417,SpeechDraft1Carolyn_lessNoise_PlusLocalization,2021.2.3,60.00073675039568,
,,,,,,,,nearRight,6.5,0,ch1Sound_localizationTask.wav,6.5,"(1047, 878)","(87, -202)",95,-338,,,,,,,,,1,5,12,4,,,,,,,,,,,,,,,,,,,,,,,,,,,,,,,,,,,,,,,,,,,,1365.4418421520386,None,1366.5415566519368,None,1367.474898278946,None,1.6095238095238096,0.7653852379880846,1367.474898278946,None,,,,,,,,,,,52,001,2023_Mar_13_1417,SpeechDraft1Carolyn_lessNoise_PlusLocalization,2021.2.3,60.00073675039568,
,,,,,,,,farRight,19.1,4,ch1Sound_localizationTask.wav,19.1,"(1237, 878)","(277,-202)",285,-338,,,,,,,,,1,6,13,6,,,,,,,,,,,,,,,,,,,,,,,,,,,,,,,,,,,,,,,,,,,,1368.2418394130655,None,1369.3415315970778,None,1370.2748852490913,None,1.808994708994709,1.2166276019997895,1370.2748852490913,None,,,,,,,,,,,52,001,2023_Mar_13_1417,SpeechDraft1Carolyn_lessNoise_PlusLocalization,2021.2.3,60.00073675039568,
,,,,,,,,center,0.0,6,ch1Sound_localizationTask.wav,0.0,"(952, 878)","(-8,-202)",0,-338,,,,,,,,,2,0,14,3,,,,,,,,,,,,,,,,,,,,,,,,,,,,,,,,,,,,,,,,,,,,1371.491701578023,None,1372.5915532079525,None,1373.5249440651387,None,1.4328042328042327,0.7168246458750218,1373.5249440651387,None,,,,,,,,,,,52,001,2023_Mar_13_1417,SpeechDraft1Carolyn_lessNoise_PlusLocalization,2021.2.3,60.00073675039568,
,,,,,,,,midRight,13.0,3,ch1Sound_localizationTask.wav,13.0,"(1142, 878)","(182, -202)",190,-338,,,,,,,,,2,1,15,5,,,,,,,,,,,,,,,,,,,,,,,,,,,,,,,,,,,,,,,,,,,,1374.2585029059555,None,1375.3583806450479,None,1376.291698943125,None,1.7195767195767195,0.6172411430161446,1376.291698943125,None,,,,,,,,,,,52,001,2023_Mar_13_1417,SpeechDraft1Carolyn_lessNoise_PlusLocalization,2021.2.3,60.00073675039568,
,,,,,,,,nearLeft,-6.5,1,ch1Sound_localizationTask.wav,-6.5,"(857, 878)","(-103,-202)",-95,-338,,,,,,,,,2,2,16,2,,,,,,,,,,,,,,,,,,,,,,,,,,,,,,,,,,,,,,,,,,,,1376.9253062941134,None,1378.0250376749318,None,1378.9582035199273,None,1.3402116402116402,0.7670321289915591,1378.9582035199273,None,,,,,,,,,,,52,001,2023_Mar_13_1417,SpeechDraft1Carolyn_lessNoise_PlusLocalization,2021.2.3,60.00073675039568,
,,,,,,,,center,0.0,6,ch1Sound_localizationTask.wav,0.0,"(952, 878)","(-8,-202)",0,-338,,,,,,,,,2,3,17,3,,,,,,,,,,,,,,,,,,,,,,,,,,,,,,,,,,,,,,,,,,,,1379.7418945860118,None,1380.8415686299559,None,1381.7748999050818,None,1.596825396825397,1.182222032919526,1381.7748999050818,None,,,,,,,,,,,52,001,2023_Mar_13_1417,SpeechDraft1Carolyn_lessNoise_PlusLocalization,2021.2.3,60.00073675039568,
,,,,,,,,nearLeft,-6.5,1,ch1Sound_localizationTask.wav,-6.5,"(857, 878)","(-103,-202)",-95,-338,,,,,,,,,2,4,18,2,,,,,,,,,,,,,,,,,,,,,,,,,,,,,,,,,,,,,,,,,,,,1382.9586283620447,None,1384.0580926509574,None,1384.9916640000883,None,1.364021164021164,0.9835322180297226,1384.9916640000883,None,,,,,,,,,,,52,001,2023_Mar_13_1417,SpeechDraft1Carolyn_lessNoise_PlusLocalization,2021.2.3,60.00073675039568,
,,,,,,,,center,0.0,6,ch1Sound_localizationTask.wav,0.0,"(952, 878)","(-8,-202)",0,-338,,,,,,,,,2,5,19,3,,,,,,,,,,,,,,,,,,,,,,,,,,,,,,,,,,,,,,,,,,,,1385.991914632963,None,1387.0915336350445,None,1388.024878957076,None,1.5793650793650795,0.7335967370308936,1388.024878957076,None,,,,,,,,,,,52,001,2023_Mar_13_1417,SpeechDraft1Carolyn_lessNoise_PlusLocalization,2021.2.3,60.00073675039568,
,,,,,,,,farRight,19.1,4,ch1Sound_localizationTask.wav,19.1,"(1237, 878)","(277,-202)",285,-338,,,,,,,,,2,6,20,6,,,,,,,,,,,,,,,,,,,,,,,,,,,,,,,,,,,,,,,,,,,,1388.7752550321165,None,1389.8749265249353,None,1390.8082998299506,None,1.7671957671957672,0.7663187819998711,1390.8082998299506,None,,,,,,,,,,,52,001,2023_Mar_13_1417,SpeechDraft1Carolyn_lessNoise_PlusLocalization,2021.2.3,60.00073675039568,
,,,,,,,,center,0.0,6,ch1Sound_localizationTask.wav,0.0,"(952, 878)","(-8,-202)",0,-338,,,,,,,,,3,0,21,3,,,,,,,,,,,,,,,,,,,,,,,,,,,,,,,,,,,,,,,,,,,,1391.5752031479497,None,1392.6749093669932,None,1393.608274388127,None,1.425925925925926,0.900041813030839,1393.608274388127,None,,,,,,,,,,,52,001,2023_Mar_13_1417,SpeechDraft1Carolyn_lessNoise_PlusLocalization,2021.2.3,60.00073675039568,
,,,,,,,,nearRight,6.5,0,ch1Sound_localizationTask.wav,6.5,"(1047, 878)","(87, -202)",95,-338,,,,,,,,,3,1,22,4,,,,,,,,,,,,,,,,,,,,,,,,,,,,,,,,,,,,,,,,,,,,1394.525349271018,None,1395.6250553419814,None,1396.558270920068,None,1.7153439153439154,1.0489990019705147,1396.558270920068,None,,,,,,,,,,,52,001,2023_Mar_13_1417,SpeechDraft1Carolyn_lessNoise_PlusLocalization,2021.2.3,60.00073675039568,
,,,,,,,,midRight,13.0,3,ch1Sound_localizationTask.wav,13.0,"(1142, 878)","(182, -202)",190,-338,,,,,,,,,3,2,23,5,,,,,,,,,,,,,,,,,,,,,,,,,,,,,,,,,,,,,,,,,,,,1397.6086166859604,None,1398.708393762121,None,1399.6416059981566,None,1.6846560846560847,0.7327996909152716,1399.6416059981566,None,,,,,,,,,,,52,001,2023_Mar_13_1417,SpeechDraft1Carolyn_lessNoise_PlusLocalization,2021.2.3,60.00073675039568,
,,,,,,,,nearLeft,-6.5,1,ch1Sound_localizationTask.wav,-6.5,"(857, 878)","(-103,-202)",-95,-338,,,,,,,,,3,3,24,2,,,,,,,,,,,,,,,,,,,,,,,,,,,,,,,,,,,,,,,,,,,,1400.3760483120568,None,1401.4749772220384,None,1402.4082010351121,None,1.3783068783068784,0.9341148731764406,1402.4082010351121,None,,,,,,,,,,,52,001,2023_Mar_13_1417,SpeechDraft1Carolyn_lessNoise_PlusLocalization,2021.2.3,60.00073675039568,
,,,,,,,,nearLeft,-6.5,1,ch1Sound_localizationTask.wav,-6.5,"(857, 878)","(-103,-202)",-95,-338,,,,,,,,,3,4,25,2,,,,,,,,,,,,,,,,,,,,,,,,,,,,,,,,,,,,,,,,,,,,1403.3586432740558,None,1404.4583275690675,None,1405.3917232491076,None,1.6206349206349207,1.5497771608643234,1405.3917232491076,None,,,,,,,,,,,52,001,2023_Mar_13_1417,SpeechDraft1Carolyn_lessNoise_PlusLocalization,2021.2.3,60.00073675039568,
,,,,,,,,nearLeft,-6.5,1,ch1Sound_localizationTask.wav,-6.5,"(857, 878)","(-103,-202)",-95,-338,,,,,,,,,3,5,26,2,,,,,,,,,,,,,,,,,,,,,,,,,,,,,,,,,,,,,,,,,,,,1406.942033573985,None,1408.0416271269787,None,1408.9749144869857,None,1.4074074074074074,0.850356477079913,1408.9749144869857,None,,,,,,,,,,,52,001,2023_Mar_13_1417,SpeechDraft1Carolyn_lessNoise_PlusLocalization,2021.2.3,60.00073675039568,
,,,,,,,,farLeft,-19.1,5,ch1Sound_localizationTask.wav,-19.1,"(667, 878)","(-293,-202)",-285,-338,,,,,,,,,3,6,27,0,,,,,,,,,,,,,,,,,,,,,,,,,,,,,,,,,,,,,,,,,,,,1409.8419367780443,None,1410.941795204999,None,1411.8748304350302,None,1.2428571428571429,1.1344286920502782,1411.8748304350302,None,,,,,,,,,,,52,001,2023_Mar_13_1417,SpeechDraft1Carolyn_lessNoise_PlusLocalization,2021.2.3,60.00073675039568,
,,,,,,,,farLeft,-19.1,5,ch1Sound_localizationTask.wav,-19.1,"(667, 878)","(-293,-202)",-285,-338,,,,,,,,,4,0,28,0,,,,,,,,,,,,,,,,,,,,,,,,,,,,,,,,,,,,,,,,,,,,1413.0254147110973,None,1414.1250033590477,None,1415.0583491229918,None,1.3306878306878307,0.8155929648783058,1415.0583491229918,None,,,,,,,,,,,52,001,2023_Mar_13_1417,SpeechDraft1Carolyn_lessNoise_PlusLocalization,2021.2.3,60.00073675039568,
,,,,,,,,center,0.0,6,ch1Sound_localizationTask.wav,0.0,"(952, 878)","(-8,-202)",0,-338,,,,,,,,,4,1,29,3,,,,,,,,,,,,,,,,,,,,,,,,,,,,,,,,,,,,,,,,,,,,1415.8922166740522,None,1416.9917089459486,None,1417.924918022938,None,1.4693121693121693,0.8171685230918229,1417.924918022938,None,,,,,,,,,,,52,001,2023_Mar_13_1417,SpeechDraft1Carolyn_lessNoise_PlusLocalization,2021.2.3,60.00073675039568,
,,,,,,,,nearRight,6.5,0,ch1Sound_localizationTask.wav,6.5,"(1047, 878)","(87, -202)",95,-338,,,,,,,,,4,2,30,4,,,,,,,,,,,,,,,,,,,,,,,,,,,,,,,,,,,,,,,,,,,,1418.758643531939,None,1419.8583205549512,None,1420.7917063920759,None,1.6042328042328042,0.6495824449229985,1420.7917063920759,None,,,,,,,,,,,52,001,2023_Mar_13_1417,SpeechDraft1Carolyn_lessNoise_PlusLocalization,2021.2.3,60.00073675039568,
,,,,,,,,farLeft,-19.1,5,ch1Sound_localizationTask.wav,-19.1,"(667, 878)","(-293,-202)",-285,-338,,,,,,,,,4,3,31,0,,,,,,,,,,,,,,,,,,,,,,,,,,,,,,,,,,,,,,,,,,,,1421.441973314155,None,1422.5417941289488,None,1423.4750285979826,None,1.3624338624338623,0.8004585700109601,1423.4750285979826,None,,,,,,,,,,,52,001,2023_Mar_13_1417,SpeechDraft1Carolyn_lessNoise_PlusLocalization,2021.2.3,60.00073675039568,
,,,,,,,,nearRight,6.5,0,ch1Sound_localizationTask.wav,6.5,"(1047, 878)","(87, -202)",95,-338,,,,,,,,,4,4,32,4,,,,,,,,,,,,,,,,,,,,,,,,,,,,,,,,,,,,,,,,,,,,1424.292174502043,None,1425.3915597749874,None,1426.3249635631219,None,1.5862433862433862,0.766976656857878,1426.3249635631219,None,,,,,,,,,,,52,001,2023_Mar_13_1417,SpeechDraft1Carolyn_lessNoise_PlusLocalization,2021.2.3,60.00073675039568,
,,,,,,,,center,0.0,6,ch1Sound_localizationTask.wav,0.0,"(952, 878)","(-8,-202)",0,-338,,,,,,,,,4,5,33,3,,,,,,,,,,,,,,,,,,,,,,,,,,,,,,,,,,,,,,,,,,,,1427.1087358479854,None,1428.2085323990323,None,1429.1418193820864,None,1.4555555555555555,0.7334035451058298,1429.1418193820864,None,,,,,,,,,,,52,001,2023_Mar_13_1417,SpeechDraft1Carolyn_lessNoise_PlusLocalization,2021.2.3,60.00073675039568,
,,,,,,,,midLeft,-13.0,2,ch1Sound_localizationTask.wav,-13.0,"(762, 878)","(-198,-202)",-190,-338,,,,,,,,,4,6,34,1,,,,,,,,,,,,,,,,,,,,,,,,,,,,,,,,,,,,,,,,,,,,1429.8919848250225,None,1430.9916228989605,None,1431.925027115969,None,1.3338624338624339,0.7007244119886309,1431.925027115969,None,,,,,,,,,,,52,001,2023_Mar_13_1417,SpeechDraft1Carolyn_lessNoise_PlusLocalization,2021.2.3,60.00073675039568,
,,,,,,,,farRight,19.1,4,ch1Sound_localizationTask.wav,19.1,"(1237, 878)","(277,-202)",285,-338,,,,,,,,,5,0,35,6,,,,,,,,,,,,,,,,,,,,,,,,,,,,,,,,,,,,,,,,,,,,1432.6418790370226,None,1433.7415708790068,None,1434.6750853459816,None,1.75978835978836,0.750849685864523,1434.6750853459816,None,,,,,,,,,,,52,001,2023_Mar_13_1417,SpeechDraft1Carolyn_lessNoise_PlusLocalization,2021.2.3,60.00073675039568,
,,,,,,,,midRight,13.0,3,ch1Sound_localizationTask.wav,13.0,"(1142, 878)","(182, -202)",190,-338,,,,,,,,,5,1,36,5,,,,,,,,,,,,,,,,,,,,,,,,,,,,,,,,,,,,,,,,,,,,1435.426130471984,None,1436.5250863030087,None,1437.458249066025,None,1.6042328042328042,0.8168935182038695,1437.458249066025,None,,,,,,,,,,,52,001,2023_Mar_13_1417,SpeechDraft1Carolyn_lessNoise_PlusLocalization,2021.2.3,60.00073675039568,
,,,,,,,,farRight,19.1,4,ch1Sound_localizationTask.wav,19.1,"(1237, 878)","(277,-202)",285,-338,,,,,,,,,5,2,37,6,,,,,,,,,,,,,,,,,,,,,,,,,,,,,,,,,,,,,,,,,,,,1438.292113658972,None,1439.3917198861018,None,1440.3250114601105,None,1.7259259259259259,0.8667544280178845,1440.3250114601105,None,,,,,,,,,,,52,001,2023_Mar_13_1417,SpeechDraft1Carolyn_lessNoise_PlusLocalization,2021.2.3,60.00073675039568,
,,,,,,,,farLeft,-19.1,5,ch1Sound_localizationTask.wav,-19.1,"(667, 878)","(-293,-202)",-285,-338,,,,,,,,,5,3,38,0,,,,,,,,,,,,,,,,,,,,,,,,,,,,,,,,,,,,,,,,,,,,1441.1921006101184,None,1442.291737135034,None,1443.224939926993,None,1.328042328042328,0.9839960720855743,1443.224939926993,None,,,,,,,,,,,52,001,2023_Mar_13_1417,SpeechDraft1Carolyn_lessNoise_PlusLocalization,2021.2.3,60.00073675039568,
,,,,,,,,farLeft,-19.1,5,ch1Sound_localizationTask.wav,-19.1,"(667, 878)","(-293,-202)",-285,-338,,,,,,,,,5,4,39,0,,,,,,,,,,,,,,,,,,,,,,,,,,,,,,,,,,,,,,,,,,,,1444.2253263541497,None,1445.3251634701155,None,1446.2583308001049,None,1.308994708994709,0.9172051690984517,1446.2583308001049,None,,,,,,,,,,,52,001,2023_Mar_13_1417,SpeechDraft1Carolyn_lessNoise_PlusLocalization,2021.2.3,60.00073675039568,
,,,,,,,,midLeft,-13.0,2,ch1Sound_localizationTask.wav,-13.0,"(762, 878)","(-198,-202)",-190,-338,,,,,,,,,5,5,40,1,,,,,,,,,,,,,,,,,,,,,,,,,,,,,,,,,,,,,,,,,,,,1447.1921666210983,None,1448.2916527681518,None,1449.2249731030315,None,1.3624338624338623,0.7993985861539841,1449.2249731030315,None,,,,,,,,,,,52,001,2023_Mar_13_1417,SpeechDraft1Carolyn_lessNoise_PlusLocalization,2021.2.3,60.00073675039568,
,,,,,,,,nearLeft,-6.5,1,ch1Sound_localizationTask.wav,-6.5,"(857, 878)","(-103,-202)",-95,-338,,,,,,,,,5,6,41,2,,,,,,,,,,,,,,,,,,,,,,,,,,,,,,,,,,,,,,,,,,,,1450.0262682910543,None,1451.1249197879806,None,1452.058286660118,None,1.5,0.8665567571297288,1452.058286660118,None,,,,,,,,,,,52,001,2023_Mar_13_1417,SpeechDraft1Carolyn_lessNoise_PlusLocalization,2021.2.3,60.00073675039568,
,,,,,,,,midRight,13.0,3,ch1Sound_localizationTask.wav,13.0,"(1142, 878)","(182, -202)",190,-338,,,,,,,,,6,0,42,5,,,,,,,,,,,,,,,,,,,,,,,,,,,,,,,,,,,,,,,,,,,,1452.9253631951287,None,1454.0250829090364,None,1454.9582448210567,None,1.7492063492063492,0.8994967709295452,1454.9582448210567,None,,,,,,,,,,,52,001,2023_Mar_13_1417,SpeechDraft1Carolyn_lessNoise_PlusLocalization,2021.2.3,60.00073675039568,
,,,,,,,,midRight,13.0,3,ch1Sound_localizationTask.wav,13.0,"(1142, 878)","(182, -202)",190,-338,,,,,,,,,6,1,43,5,,,,,,,,,,,,,,,,,,,,,,,,,,,,,,,,,,,,,,,,,,,,1455.8590437099338,None,1456.9583795671351,None,1457.8918105910998,None,1.6544973544973545,0.6668117169756442,1457.8918105910998,None,,,,,,,,,,,52,001,2023_Mar_13_1417,SpeechDraft1Carolyn_lessNoise_PlusLocalization,2021.2.3,60.00073675039568,
,,,,,,,,midLeft,-13.0,2,ch1Sound_localizationTask.wav,-13.0,"(762, 878)","(-198,-202)",-190,-338,,,,,,,,,6,2,44,1,,,,,,,,,,,,,,,,,,,,,,,,,,,,,,,,,,,,,,,,,,,,1458.5593539229594,None,1459.6584549250547,None,1460.5917661481071,None,1.41005291005291,0.7663178090006113,1460.5917661481071,None,,,,,,,,,,,52,001,2023_Mar_13_1417,SpeechDraft1Carolyn_lessNoise_PlusLocalization,2021.2.3,60.00073675039568,
,,,,,,,,nearRight,6.5,0,ch1Sound_localizationTask.wav,6.5,"(1047, 878)","(87, -202)",95,-338,,,,,,,,,6,3,45,4,,,,,,,,,,,,,,,,,,,,,,,,,,,,,,,,,,,,,,,,,,,,1461.359090388054,None,1462.4583549990784,None,1463.391718401108,None,1.6074074074074074,1.134007176849991,1463.391718401108,None,,,,,,,,,,,52,001,2023_Mar_13_1417,SpeechDraft1Carolyn_lessNoise_PlusLocalization,2021.2.3,60.00073675039568,
,,,,,,,,midRight,13.0,3,ch1Sound_localizationTask.wav,13.0,"(1142, 878)","(182, -202)",190,-338,,,,,,,,,6,4,46,5,,,,,,,,,,,,,,,,,,,,,,,,,,,,,,,,,,,,,,,,,,,,1464.5420750200283,None,1465.6417103440035,None,1466.5750495491084,None,1.6068783068783068,0.7499572969973087,1466.5750495491084,None,,,,,,,,,,,52,001,2023_Mar_13_1417,SpeechDraft1Carolyn_lessNoise_PlusLocalization,2021.2.3,60.00073675039568,
,,,,,,,,midLeft,-13.0,2,ch1Sound_localizationTask.wav,-13.0,"(762, 878)","(-198,-202)",-190,-338,,,,,,,,,6,5,47,1,,,,,,,,,,,,,,,,,,,,,,,,,,,,,,,,,,,,,,,,,,,,1467.3254631510936,None,1468.4252572190017,None,1469.3583093001507,None,1.3391534391534392,0.849703443935141,1469.3583093001507,None,,,,,,,,,,,52,001,2023_Mar_13_1417,SpeechDraft1Carolyn_lessNoise_PlusLocalization,2021.2.3,60.00073675039568,
,,,,,,,,farLeft,-19.1,5,ch1Sound_localizationTask.wav,-19.1,"(667, 878)","(-293,-202)",-285,-338,,,,,,,,,6,6,48,0,,,,,,,,,,,,,,,,,,,,,,,,,,,,,,,,,,,,,,,,,,,,1470.2086065660696,None,1471.3083768589422,None,1472.2416957479436,None,1.356084656084656,0.8497397908940911,1472.2416957479436,None,,,,,,,,,,,52,001,2023_Mar_13_1417,SpeechDraft1Carolyn_lessNoise_PlusLocalization,2021.2.3,60.00073675039568,
,,,,,,,,center,0.0,6,ch1Sound_localizationTask.wav,0.0,"(952, 878)","(-8,-202)",0,-338,,,,,,,,,7,0,49,3,,,,,,,,,,,,,,,,,,,,,,,,,,,,,,,,,,,,,,,,,,,,1473.0919824461453,None,1474.191831141943,None,1475.1250520700123,None,1.5444444444444443,1.0994385201483965,1475.1250520700123,None,,,,,,,,,,,52,001,2023_Mar_13_1417,SpeechDraft1Carolyn_lessNoise_PlusLocalization,2021.2.3,60.00073675039568,
,,,,,,,,nearRight,6.5,0,ch1Sound_localizationTask.wav,6.5,"(1047, 878)","(87, -202)",95,-338,,,,,,,,,7,1,50,4,,,,,,,,,,,,,,,,,,,,,,,,,,,,,,,,,,,,,,,,,,,,1476.241888673976,None,1477.3417383399792,None,1478.275086414069,None,1.7121693121693122,0.7671014848165214,1478.275086414069,None,,,,,,,,,,,52,001,2023_Mar_13_1417,SpeechDraft1Carolyn_lessNoise_PlusLocalization,2021.2.3,60.00073675039568,
,,,,,,,,farRight,19.1,4,ch1Sound_localizationTask.wav,19.1,"(1237, 878)","(277,-202)",285,-338,,,,,,,,,7,2,51,6,,,,,,,,,,,,,,,,,,,,,,,,,,,,,,,,,,,,,,,,,,,,1479.058557586046,None,1480.1584203641396,None,1481.0917510329746,None,1.7825396825396824,0.767018361017108,1481.0917510329746,None,,,,,,,,,,,52,001,2023_Mar_13_1417,SpeechDraft1Carolyn_lessNoise_PlusLocalization,2021.2.3,60.00073675039568,
,,,,,,,,farLeft,-19.1,5,ch1Sound_localizationTask.wav,-19.1,"(667, 878)","(-293,-202)",-285,-338,,,,,,,,,7,3,52,0,,,,,,,,,,,,,,,,,,,,,,,,,,,,,,,,,,,,,,,,,,,,1481.8591370780487,None,1482.958479497116,None,1483.891786935972,None,1.3423280423280424,0.8821146818809211,1483.891786935972,None,,,,,,,,,,,52,001,2023_Mar_13_1417,SpeechDraft1Carolyn_lessNoise_PlusLocalization,2021.2.3,60.00073675039568,
,,,,,,,,midRight,13.0,3,ch1Sound_localizationTask.wav,13.0,"(1142, 878)","(182, -202)",190,-338,,,,,,,,,7,4,53,5,,,,,,,,,,,,,,,,,,,,,,,,,,,,,,,,,,,,,,,,,,,,1484.7756588470656,None,1485.8750108969398,None,1486.808506092988,None,1.5756613756613755,1.465784922009334,1486.808506092988,None,,,,,,,,,,,52,001,2023_Mar_13_1417,SpeechDraft1Carolyn_lessNoise_PlusLocalization,2021.2.3,60.00073675039568,
,,,,,,,,farRight,19.1,4,ch1Sound_localizationTask.wav,19.1,"(1237, 878)","(277,-202)",285,-338,,,,,,,,,7,5,54,6,,,,,,,,,,,,,,,,,,,,,,,,,,,,,,,,,,,,,,,,,,,,1488.2753006189596,None,1489.3750715749338,None,1490.3083865251392,None,1.6306878306878307,0.10021017398685217,1490.3083865251392,None,,,,,,,,,,,52,001,2023_Mar_13_1417,SpeechDraft1Carolyn_lessNoise_PlusLocalization,2021.2.3,60.00073675039568,
,,,,,,,,center,0.0,6,ch1Sound_localizationTask.wav,0.0,"(952, 878)","(-8,-202)",0,-338,,,,,,,,,7,6,55,3,,,,,,,,,,,,,,,,,,,,,,,,,,,,,,,,,,,,,,,,,,,,1490.4086774711031,None,1491.5084601039998,None,1492.441728413105,None,1.4661375661375662,0.6491082010325044,1492.441728413105,None,,,,,,,,,,,52,001,2023_Mar_13_1417,SpeechDraft1Carolyn_lessNoise_PlusLocalization,2021.2.3,60.00073675039568,
,,,,,,,,,,,,,,,,,,,,,,,,,,,,,,,,,,,,,,,,,,,,,,,,,,,,,,,,,,,,,,,,,,,,,,,,,,,,,,,,,,space,4.316279256949201,1493.175350585021,None,,,,,,,52,001,2023_Mar_13_1417,SpeechDraft1Carolyn_lessNoise_PlusLocalization,2021.2.3,60.00073675039568,
,,,,,,,,center,0.0,6,ch1Sound_localizationTask.wav,0.0,"(952, 878)","(-8,-202)",0,-338,,,,,,,,,,,,,0,0,0,3,,,,,,,,,,,,,,,,,,,,,,,,,,,,,,,,,,,,,,,,1497.5250773890875,None,,,1500.5426981369965,None,1.5,6.905932419933379,1500.5426981369965,None,,,,,1493.175350585021,None,1498.5253854631446,None,1498.708636657102,1498.7254700800404,52,001,2023_Mar_13_1417,SpeechDraft1Carolyn_lessNoise_PlusLocalization,2021.2.3,60.00073675039568,
,,,,,,,,nearRight,6.5,0,ch1Sound_localizationTask.wav,6.5,"(1047, 878)","(87, -202)",95,-338,,,,,,,,,,,,,0,1,1,4,,,,,,,,,,,,,,,,,,,,,,,,,,,,,,,,,,,,,,,,1507.475365556078,None,,,1510.4917119690217,None,1.591005291005291,1.1336338189430535,1510.4917119690217,None,,,,,,,1508.4753447950352,None,1508.6586605410557,1508.6753659369424,52,001,2023_Mar_13_1417,SpeechDraft1Carolyn_lessNoise_PlusLocalization,2021.2.3,60.00073675039568,
,,,,,,,,center,0.0,6,ch1Sound_localizationTask.wav,0.0,"(952, 878)","(-8,-202)",0,-338,,,,,,,,,,,,,0,2,2,3,,,,,,,,,,,,,,,,,,,,,,,,,,,,,,,,,,,,,,,,1511.6420634260867,None,,,1514.6584756651428,None,1.48994708994709,0.9006285150535405,1514.6584756651428,None,,,,,,,1512.6421516770497,None,1512.8254051459953,1512.8420033999719,52,001,2023_Mar_13_1417,SpeechDraft1Carolyn_lessNoise_PlusLocalization,2021.2.3,60.00073675039568,
,,,,,,,,nearRight,6.5,0,ch1Sound_localizationTask.wav,6.5,"(1047, 878)","(87, -202)",95,-338,,,,,,,,,,,,,0,3,3,4,,,,,,,,,,,,,,,,,,,,,,,,,,,,,,,,,,,,,,,,1515.5754023799673,None,,,1518.5917131679598,None,1.561904761904762,0.9162970369216055,1518.5917131679598,None,,,,,,,1516.5754179011565,None,1516.7587176470552,1516.7753785371315,52,001,2023_Mar_13_1417,SpeechDraft1Carolyn_lessNoise_PlusLocalization,2021.2.3,60.00073675039568,
,,,,,,,,farLeft,-19.1,5,ch1Sound_localizationTask.wav,-19.1,"(667, 878)","(-293,-202)",-285,-338,,,,,,,,,,,,,0,4,4,0,,,,,,,,,,,,,,,,,,,,,,,,,,,,,,,,,,,,,,,,1519.5087982630357,None,,,1522.5251876669936,None,1.3460317460317461,0.9995103129185736,1522.5251876669936,None,,,,,,,1520.5087030159775,None,1520.6921704150736,1520.7087272820063,52,001,2023_Mar_13_1417,SpeechDraft1Carolyn_lessNoise_PlusLocalization,2021.2.3,60.00073675039568,
,,,,,,,,farLeft,-19.1,5,ch1Sound_localizationTask.wav,-19.1,"(667, 878)","(-293,-202)",-285,-338,,,,,,,,,,,,,0,5,5,0,,,,,,,,,,,,,,,,,,,,,,,,,,,,,,,,,,,,,,,,1523.5261454260908,None,,,1526.5417795251124,None,1.3333333333333333,1.1662293879780918,1526.5417795251124,None,,,,,,,1524.525579045061,None,1524.7087348101195,1524.7254638839513,52,001,2023_Mar_13_1417,SpeechDraft1Carolyn_lessNoise_PlusLocalization,2021.2.3,60.00073675039568,
,,,,,,,,farRight,19.1,4,ch1Sound_localizationTask.wav,19.1,"(1237, 878)","(277,-202)",285,-338,,,,,,,,,,,,,0,6,6,6,,,,,,,,,,,,,,,,,,,,,,,,,,,,,,,,,,,,,,,,1527.725613032002,None,,,1530.7417475490365,None,1.644973544973545,1.149500731145963,1530.7417475490365,None,,,,,,,1528.725423156051,None,1528.9087996049784,1528.9255424300209,52,001,2023_Mar_13_1417,SpeechDraft1Carolyn_lessNoise_PlusLocalization,2021.2.3,60.00073675039568,
,,,,,,,,midRight,13.0,3,ch1Sound_localizationTask.wav,13.0,"(1142, 878)","(182, -202)",190,-338,,,,,,,,,,,,,1,0,7,5,,,,,,,,,,,,,,,,,,,,,,,,,,,,,,,,,,,,,,,,1531.892239779001,None,,,1534.9084992650896,None,1.5952380952380953,1.081953699933365,1534.9084992650896,None,,,,,,,1532.892110161949,None,1533.0753896040842,1533.0921489740722,52,001,2023_Mar_13_1417,SpeechDraft1Carolyn_lessNoise_PlusLocalization,2021.2.3,60.00073675039568,
,,,,,,,,nearLeft,-6.5,1,ch1Sound_localizationTask.wav,-6.5,"(857, 878)","(-103,-202)",-95,-338,,,,,,,,,,,,,1,1,8,2,,,,,,,,,,,,,,,,,,,,,,,,,,,,,,,,,,,,,,,,1535.9920680120122,None,,,1539.0085170359816,None,1.4444444444444444,0.9833873719908297,1539.0085170359816,None,,,,,,,1536.9921037531458,None,1537.1753958060872,1537.1921017849818,52,001,2023_Mar_13_1417,SpeechDraft1Carolyn_lessNoise_PlusLocalization,2021.2.3,60.00073675039568,
,,,,,,,,nearLeft,-6.5,1,ch1Sound_localizationTask.wav,-6.5,"(857, 878)","(-103,-202)",-95,-338,,,,,,,,,,,,,1,2,9,2,,,,,,,,,,,,,,,,,,,,,,,,,,,,,,,,,,,,,,,,1540.02538952115,None,,,1543.0418541200925,None,1.452910052910053,1.1328825098462403,1543.0418541200925,None,,,,,,,1541.0253714490682,None,1541.2087317090482,1541.2253908030689,52,001,2023_Mar_13_1417,SpeechDraft1Carolyn_lessNoise_PlusLocalization,2021.2.3,60.00073675039568,
,,,,,,,,farRight,19.1,4,ch1Sound_localizationTask.wav,19.1,"(1237, 878)","(277,-202)",285,-338,,,,,,,,,,,,,1,3,10,6,,,,,,,,,,,,,,,,,,,,,,,,,,,,,,,,,,,,,,,,1544.175475439988,None,,,1547.191900466103,None,1.6407407407407408,1.249647385906428,1547.191900466103,None,,,,,,,1545.1756015389692,None,1545.3589610951021,1545.3753399299458,52,001,2023_Mar_13_1417,SpeechDraft1Carolyn_lessNoise_PlusLocalization,2021.2.3,60.00073675039568,
,,,,,,,,farLeft,-19.1,5,ch1Sound_localizationTask.wav,-19.1,"(667, 878)","(-293,-202)",-285,-338,,,,,,,,,,,,,1,4,11,0,,,,,,,,,,,,,,,,,,,,,,,,,,,,,,,,,,,,,,,,1548.442995358957,None,,,1551.4584428030066,None,1.3222222222222222,1.7325669049751014,1551.4584428030066,None,,,,,,,1549.4421329200268,None,1549.625434777001,1549.6420948770829,52,001,2023_Mar_13_1417,SpeechDraft1Carolyn_lessNoise_PlusLocalization,2021.2.3,60.00073675039568,
,,,,,,,,farLeft,-19.1,5,ch1Sound_localizationTask.wav,-19.1,"(667, 878)","(-293,-202)",-285,-338,,,,,,,,,,,,,1,5,12,0,,,,,,,,,,,,,,,,,,,,,,,,,,,,,,,,,,,,,,,,1553.192881534109,None,,,1556.2085380409844,None,1.361904761904762,1.2334277229383588,1556.2085380409844,None,,,,,,,1554.192074120976,None,1554.3754971970338,1554.3921355451457,52,001,2023_Mar_13_1417,SpeechDraft1Carolyn_lessNoise_PlusLocalization,2021.2.3,60.00073675039568,
,,,,,,,,nearLeft,-6.5,1,ch1Sound_localizationTask.wav,-6.5,"(857, 878)","(-103,-202)",-95,-338,,,,,,,,,,,,,1,6,13,2,,,,,,,,,,,,,,,,,,,,,,,,,,,,,,,,,,,,,,,,1557.4586821389385,None,,,1560.475235359976,None,1.453968253968254,1.0666151880286634,1560.475235359976,None,,,,,,,1558.4590685891453,None,1558.642006634036,1558.658812717069,52,001,2023_Mar_13_1417,SpeechDraft1Carolyn_lessNoise_PlusLocalization,2021.2.3,60.00073675039568,
,,,,,,,,farRight,19.1,4,ch1Sound_localizationTask.wav,19.1,"(1237, 878)","(277,-202)",285,-338,,,,,,,,,,,,,2,0,14,6,,,,,,,,,,,,,,,,,,,,,,,,,,,,,,,,,,,,,,,,1561.5587669410743,None,,,1564.5752718450967,None,1.6619047619047618,0.8994737539906055,1564.5752718450967,None,,,,,,,1562.5588120110333,None,1562.7421679340769,1562.7589228639845,52,001,2023_Mar_13_1417,SpeechDraft1Carolyn_lessNoise_PlusLocalization,2021.2.3,60.00073675039568,
,,,,,,,,center,0.0,6,ch1Sound_localizationTask.wav,0.0,"(952, 878)","(-8,-202)",0,-338,,,,,,,,,,,,,2,1,15,3,,,,,,,,,,,,,,,,,,,,,,,,,,,,,,,,,,,,,,,,1565.4754263919313,None,,,1568.491858482128,None,1.5031746031746032,1.1158583231735975,1568.491858482128,None,,,,,,,1566.4755469700322,None,1566.6587239359505,1566.6753746119794,52,001,2023_Mar_13_1417,SpeechDraft1Carolyn_lessNoise_PlusLocalization,2021.2.3,60.00073675039568,
,,,,,,,,farRight,19.1,4,ch1Sound_localizationTask.wav,19.1,"(1237, 878)","(277,-202)",285,-338,,,,,,,,,,,,,2,2,16,6,,,,,,,,,,,,,,,,,,,,,,,,,,,,,,,,,,,,,,,,1569.6089274131227,None,,,1572.6251696371473,None,1.6513227513227513,0.5827660169452429,1572.6251696371473,None,,,,,,,1570.6088271890767,None,1570.792079223087,1570.8089076420292,52,001,2023_Mar_13_1417,SpeechDraft1Carolyn_lessNoise_PlusLocalization,2021.2.3,60.00073675039568,
,,,,,,,,farRight,19.1,4,ch1Sound_localizationTask.wav,19.1,"(1237, 878)","(277,-202)",285,-338,,,,,,,,,,,,,2,3,17,6,,,,,,,,,,,,,,,,,,,,,,,,,,,,,,,,,,,,,,,,1573.2097260840237,None,,,1576.2252143980004,None,1.6481481481481481,0.467071017017588,1576.2252143980004,None,,,,,,,1574.208748941077,None,1574.3921586170327,1574.4088214531075,52,001,2023_Mar_13_1417,SpeechDraft1Carolyn_lessNoise_PlusLocalization,2021.2.3,60.00073675039568,
,,,,,,,,midLeft,-13.0,2,ch1Sound_localizationTask.wav,-13.0,"(762, 878)","(-198,-202)",-190,-338,,,,,,,,,,,,,2,4,18,1,,,,,,,,,,,,,,,,,,,,,,,,,,,,,,,,,,,,,,,,1576.70881486102,None,,,1579.7253667451441,None,1.425925925925926,1.1170357011724263,1579.7253667451441,None,,,,,,,1577.7087591290474,None,1577.8921542179305,1577.908767321147,52,001,2023_Mar_13_1417,SpeechDraft1Carolyn_lessNoise_PlusLocalization,2021.2.3,60.00073675039568,
,,,,,,,,farRight,19.1,4,ch1Sound_localizationTask.wav,19.1,"(1237, 878)","(277,-202)",285,-338,,,,,,,,,,,,,2,5,19,6,,,,,,,,,,,,,,,,,,,,,,,,,,,,,,,,,,,,,,,,1580.8587074240204,None,,,1583.8752202901524,None,1.6444444444444444,0.8007336820010096,1583.8752202901524,None,,,,,,,1581.8588133950252,None,1582.0420017989818,1582.0588202569634,52,001,2023_Mar_13_1417,SpeechDraft1Carolyn_lessNoise_PlusLocalization,2021.2.3,60.00073675039568,
,,,,,,,,center,0.0,6,ch1Sound_localizationTask.wav,0.0,"(952, 878)","(-8,-202)",0,-338,,,,,,,,,,,,,2,6,20,3,,,,,,,,,,,,,,,,,,,,,,,,,,,,,,,,,,,,,,,,1584.692100359127,None,,,1587.7084771080408,None,1.5015873015873016,0.9500719159841537,1587.7084771080408,None,,,,,,,1585.6922397830058,None,1585.8755650350358,1585.8920977250673,52,001,2023_Mar_13_1417,SpeechDraft1Carolyn_lessNoise_PlusLocalization,2021.2.3,60.00073675039568,
,,,,,,,,midRight,13.0,3,ch1Sound_localizationTask.wav,13.0,"(1142, 878)","(182, -202)",190,-338,,,,,,,,,,,,,3,0,21,5,,,,,,,,,,,,,,,,,,,,,,,,,,,,,,,,,,,,,,,,1588.6605407041498,None,,,1591.6919052139856,None,1.6201058201058203,0.764976373873651,1591.6919052139856,None,,,,,,,1589.6754316729493,None,1589.8588637090288,1589.8754911629949,52,001,2023_Mar_13_1417,SpeechDraft1Carolyn_lessNoise_PlusLocalization,2021.2.3,60.00073675039568,
,,,,,,,,nearLeft,-6.5,1,ch1Sound_localizationTask.wav,-6.5,"(857, 878)","(-103,-202)",-95,-338,,,,,,,,,,,,,3,1,22,2,,,,,,,,,,,,,,,,,,,,,,,,,,,,,,,,,,,,,,,,1592.4588890210725,None,,,1595.475180407986,None,1.433862433862434,1.083519158884883,1595.475180407986,None,,,,,,,1593.4588784130756,None,1593.6422950820997,1593.6587955290452,52,001,2023_Mar_13_1417,SpeechDraft1Carolyn_lessNoise_PlusLocalization,2021.2.3,60.00073675039568,
,,,,,,,,nearLeft,-6.5,1,ch1Sound_localizationTask.wav,-6.5,"(857, 878)","(-103,-202)",-95,-338,,,,,,,,,,,,,3,2,23,2,,,,,,,,,,,,,,,,,,,,,,,,,,,,,,,,,,,,,,,,1596.5754566639662,None,,,1599.5919507611543,None,1.4634920634920636,0.8326723610516638,1599.5919507611543,None,,,,,,,1597.575561073143,None,1597.7590203699656,1597.775507565122,52,001,2023_Mar_13_1417,SpeechDraft1Carolyn_lessNoise_PlusLocalization,2021.2.3,60.00073675039568,
,,,,,,,,nearRight,6.5,0,ch1Sound_localizationTask.wav,6.5,"(1047, 878)","(87, -202)",95,-338,,,,,,,,,,,,,3,3,24,4,,,,,,,,,,,,,,,,,,,,,,,,,,,,,,,,,,,,,,,,1600.425485949032,None,,,1603.4419275340624,None,1.5481481481481483,0.598760100081563,1603.4419275340624,None,,,,,,,1601.4256688209716,None,1601.608852662146,1601.6254669369664,52,001,2023_Mar_13_1417,SpeechDraft1Carolyn_lessNoise_PlusLocalization,2021.2.3,60.00073675039568,
,,,,,,,,farLeft,-19.1,5,ch1Sound_localizationTask.wav,-19.1,"(667, 878)","(-293,-202)",-285,-338,,,,,,,,,,,,,3,4,25,0,,,,,,,,,,,,,,,,,,,,,,,,,,,,,,,,,,,,,,,,1604.0422018130776,None,,,1607.0585511771496,None,1.3613756613756614,1.2825022090692073,1607.0585511771496,None,,,,,,,1605.0421984009445,None,1605.2254191290122,1605.2422241431195,52,001,2023_Mar_13_1417,SpeechDraft1Carolyn_lessNoise_PlusLocalization,2021.2.3,60.00073675039568,
,,,,,,,,center,0.0,6,ch1Sound_localizationTask.wav,0.0,"(952, 878)","(-8,-202)",0,-338,,,,,,,,,,,,,3,5,26,3,,,,,,,,,,,,,,,,,,,,,,,,,,,,,,,,,,,,,,,,1608.3422715051565,None,,,1611.3585978909396,None,1.5,0.2325294071342796,1611.3585978909396,None,,,,,,,1609.3422175110318,None,1609.5256287890952,1609.5422589690425,52,001,2023_Mar_13_1417,SpeechDraft1Carolyn_lessNoise_PlusLocalization,2021.2.3,60.00073675039568,
,,,,,,,,midLeft,-13.0,2,ch1Sound_localizationTask.wav,-13.0,"(762, 878)","(-198,-202)",-190,-338,,,,,,,,,,,,,3,6,27,1,,,,,,,,,,,,,,,,,,,,,,,,,,,,,,,,,,,,,,,,1611.5922065910418,None,,,1614.6085835369304,None,1.4724867724867725,0.04927951213903725,1614.6085835369304,None,,,,,,,1612.592397062108,None,1612.7755475409795,1612.792245201068,52,001,2023_Mar_13_1417,SpeechDraft1Carolyn_lessNoise_PlusLocalization,2021.2.3,60.00073675039568,
,,,,,,,,center,0.0,6,ch1Sound_localizationTask.wav,0.0,"(952, 878)","(-8,-202)",0,-338,,,,,,,,,,,,,4,0,28,3,,,,,,,,,,,,,,,,,,,,,,,,,,,,,,,,,,,,,,,,1614.6588626170997,None,,,1617.6752417350654,None,1.4507936507936507,0.11618111003190279,1617.6752417350654,None,,,,,,,1615.6588558040094,None,1615.842299317941,1615.858780754963,52,001,2023_Mar_13_1417,SpeechDraft1Carolyn_lessNoise_PlusLocalization,2021.2.3,60.00073675039568,
,,,,,,,,nearRight,6.5,0,ch1Sound_localizationTask.wav,6.5,"(1047, 878)","(87, -202)",95,-338,,,,,,,,,,,,,4,1,29,4,,,,,,,,,,,,,,,,,,,,,,,,,,,,,,,,,,,,,,,,1617.7927789050154,None,,,1620.8086072411388,None,1.4523809523809523,0.6327286059968174,1620.8086072411388,None,,,,,,,1618.792219134979,None,1618.9756369180977,1618.9922187000047,52,001,2023_Mar_13_1417,SpeechDraft1Carolyn_lessNoise_PlusLocalization,2021.2.3,60.00073675039568,
,,,,,,,,nearLeft,-6.5,1,ch1Sound_localizationTask.wav,-6.5,"(857, 878)","(-103,-202)",-95,-338,,,,,,,,,,,,,4,2,30,2,,,,,,,,,,,,,,,,,,,,,,,,,,,,,,,,,,,,,,,,1621.442229018081,None,,,1624.4584916611202,None,1.4555555555555555,0.5322685909923166,1624.4584916611202,None,,,,,,,1622.4421476619318,None,1622.6254666070454,1622.6421702429652,52,001,2023_Mar_13_1417,SpeechDraft1Carolyn_lessNoise_PlusLocalization,2021.2.3,60.00073675039568,
,,,,,,,,midLeft,-13.0,2,ch1Sound_localizationTask.wav,-13.0,"(762, 878)","(-198,-202)",-190,-338,,,,,,,,,,,,,4,3,31,1,,,,,,,,,,,,,,,,,,,,,,,,,,,,,,,,,,,,,,,,1624.9920682141092,None,,,1628.0086985460948,None,1.438095238095238,0.5164546421729028,1628.0086985460948,None,,,,,,,1625.9922728829551,None,1626.1755603000056,1626.192150902003,52,001,2023_Mar_13_1417,SpeechDraft1Carolyn_lessNoise_PlusLocalization,2021.2.3,60.00073675039568,
,,,,,,,,midRight,13.0,3,ch1Sound_localizationTask.wav,13.0,"(1142, 878)","(182, -202)",190,-338,,,,,,,,,,,,,4,4,32,5,,,,,,,,,,,,,,,,,,,,,,,,,,,,,,,,,,,,,,,,1628.5422801331151,None,,,1631.5586688199546,None,1.4994708994708994,0.41609805705957115,1631.5586688199546,None,,,,,,,1629.542229566956,None,1629.7255358861294,1629.7422592169605,52,001,2023_Mar_13_1417,SpeechDraft1Carolyn_lessNoise_PlusLocalization,2021.2.3,60.00073675039568,
,,,,,,,,center,0.0,6,ch1Sound_localizationTask.wav,0.0,"(952, 878)","(-8,-202)",0,-338,,,,,,,,,,,,,4,5,33,3,,,,,,,,,,,,,,,,,,,,,,,,,,,,,,,,,,,,,,,,1631.9757563651074,None,,,1634.9920213781297,None,1.4994708994708994,0.049820402869954705,1634.9920213781297,None,,,,,,,1632.9755549670663,None,1633.1587403451558,1633.1755965261254,52,001,2023_Mar_13_1417,SpeechDraft1Carolyn_lessNoise_PlusLocalization,2021.2.3,60.00073675039568,
,,,,,,,,farRight,19.1,4,ch1Sound_localizationTask.wav,19.1,"(1237, 878)","(277,-202)",285,-338,,,,,,,,,,,,,4,6,34,6,,,,,,,,,,,,,,,,,,,,,,,,,,,,,,,,,,,,,,,,1635.0422758720815,None,,,1638.0586103829555,None,1.565079365079365,0.3001114148646593,1638.0586103829555,None,,,,,,,1636.0421562511474,None,1636.2257208770607,1636.2421741019934,52,001,2023_Mar_13_1417,SpeechDraft1Carolyn_lessNoise_PlusLocalization,2021.2.3,60.00073675039568,
,,,,,,,,farLeft,-19.1,5,ch1Sound_localizationTask.wav,-19.1,"(667, 878)","(-293,-202)",-285,-338,,,,,,,,,,,,,5,0,35,0,,,,,,,,,,,,,,,,,,,,,,,,,,,,,,,,,,,,,,,,1638.359490814153,None,,,1641.3753269009758,None,1.3719576719576718,0.8978672188241035,1641.3753269009758,None,,,,,,,1639.3589494731277,None,1639.5422314731404,1639.5589757279959,52,001,2023_Mar_13_1417,SpeechDraft1Carolyn_lessNoise_PlusLocalization,2021.2.3,60.00073675039568,
,,,,,,,,nearRight,6.5,0,ch1Sound_localizationTask.wav,6.5,"(1047, 878)","(87, -202)",95,-338,,,,,,,,,,,,,5,1,36,4,,,,,,,,,,,,,,,,,,,,,,,,,,,,,,,,,,,,,,,,1642.2761889630929,None,,,1645.2919505881146,None,1.5296296296296297,0.7836345660034567,1645.2919505881146,None,,,,,,,1643.2756204421166,None,1643.4589333490003,1643.4754810801242,52,001,2023_Mar_13_1417,SpeechDraft1Carolyn_lessNoise_PlusLocalization,2021.2.3,60.00073675039568,
,,,,,,,,midRight,13.0,3,ch1Sound_localizationTask.wav,13.0,"(1142, 878)","(182, -202)",190,-338,,,,,,,,,,,,,5,2,37,5,,,,,,,,,,,,,,,,,,,,,,,,,,,,,,,,,,,,,,,,1646.0923616460059,None,,,1649.1086140749976,None,1.5947089947089947,0.7494148190598935,1649.1086140749976,None,,,,,,,1647.0921784669627,None,1647.2755770510994,1647.2922158429865,52,001,2023_Mar_13_1417,SpeechDraft1Carolyn_lessNoise_PlusLocalization,2021.2.3,60.00073675039568,
,,,,,,,,midLeft,-13.0,2,ch1Sound_localizationTask.wav,-13.0,"(762, 878)","(-198,-202)",-190,-338,,,,,,,,,,,,,5,3,38,1,,,,,,,,,,,,,,,,,,,,,,,,,,,,,,,,,,,,,,,,1649.8589672390372,None,,,1652.8753101550974,None,1.408994708994709,0.8165766610763967,1652.8753101550974,None,,,,,,,1650.858919649152,None,1651.0422189489473,1651.0588222260121,52,001,2023_Mar_13_1417,SpeechDraft1Carolyn_lessNoise_PlusLocalization,2021.2.3,60.00073675039568,
,,,,,,,,farLeft,-19.1,5,ch1Sound_localizationTask.wav,-19.1,"(667, 878)","(-293,-202)",-285,-338,,,,,,,,,,,,,5,4,39,0,,,,,,,,,,,,,,,,,,,,,,,,,,,,,,,,,,,,,,,,1653.7089141451288,None,,,1656.725352393929,None,1.3814814814814815,0.28267641901038587,1656.725352393929,None,,,,,,,1654.708877929952,None,1654.8924062899314,1654.9089080530684,52,001,2023_Mar_13_1417,SpeechDraft1Carolyn_lessNoise_PlusLocalization,2021.2.3,60.00073675039568,
,,,,,,,,farRight,19.1,4,ch1Sound_localizationTask.wav,19.1,"(1237, 878)","(277,-202)",285,-338,,,,,,,,,,,,,5,5,40,6,,,,,,,,,,,,,,,,,,,,,,,,,,,,,,,,,,,,,,,,1657.0089710990433,None,,,1660.0252181850374,None,1.4370370370370371,0.7152832220308483,1660.0252181850374,None,,,,,,,1658.0088418249507,None,1658.1923728089314,1658.2089209530968,52,001,2023_Mar_13_1417,SpeechDraft1Carolyn_lessNoise_PlusLocalization,2021.2.3,60.00073675039568,
,,,,,,,,midRight,13.0,3,ch1Sound_localizationTask.wav,13.0,"(1142, 878)","(182, -202)",190,-338,,,,,,,,,,,,,5,6,41,5,,,,,,,,,,,,,,,,,,,,,,,,,,,,,,,,,,,,,,,,1660.7422648649663,None,,,1663.7587245451286,None,1.438095238095238,0.5330858598463237,1663.7587245451286,None,,,,,,,1661.7422611459624,None,1661.9255970241502,1661.942306261044,52,001,2023_Mar_13_1417,SpeechDraft1Carolyn_lessNoise_PlusLocalization,2021.2.3,60.00073675039568,
,,,,,,,,nearRight,6.5,0,ch1Sound_localizationTask.wav,6.5,"(1047, 878)","(87, -202)",95,-338,,,,,,,,,,,,,6,0,42,4,,,,,,,,,,,,,,,,,,,,,,,,,,,,,,,,,,,,,,,,1664.2927175019868,None,,,1667.3086789580993,None,1.5285714285714285,0.5513503539841622,1667.3086789580993,None,,,,,,,1665.2922803941183,None,1665.4756591829937,1665.4922621371225,52,001,2023_Mar_13_1417,SpeechDraft1Carolyn_lessNoise_PlusLocalization,2021.2.3,60.00073675039568,
,,,,,,,,farLeft,-19.1,5,ch1Sound_localizationTask.wav,-19.1,"(667, 878)","(-293,-202)",-285,-338,,,,,,,,,,,,,6,1,43,0,,,,,,,,,,,,,,,,,,,,,,,,,,,,,,,,,,,,,,,,1667.8755620331503,None,,,1670.8919653240591,None,1.426984126984127,1.1151455319486558,1670.8919653240591,None,,,,,,,1668.8756185539532,None,1669.0589966310654,1669.07560827001,52,001,2023_Mar_13_1417,SpeechDraft1Carolyn_lessNoise_PlusLocalization,2021.2.3,60.00073675039568,
,,,,,,,,midRight,13.0,3,ch1Sound_localizationTask.wav,13.0,"(1142, 878)","(182, -202)",190,-338,,,,,,,,,,,,,6,2,44,5,,,,,,,,,,,,,,,,,,,,,,,,,,,,,,,,,,,,,,,,1672.0090434469748,None,,,1675.0253224340267,None,1.4285714285714286,0.5838248368818313,1675.0253224340267,None,,,,,,,1673.009010320995,None,1673.1923002409749,1673.2088542741258,52,001,2023_Mar_13_1417,SpeechDraft1Carolyn_lessNoise_PlusLocalization,2021.2.3,60.00073675039568,
,,,,,,,,midLeft,-13.0,2,ch1Sound_localizationTask.wav,-13.0,"(762, 878)","(-198,-202)",-190,-338,,,,,,,,,,,,,6,3,45,1,,,,,,,,,,,,,,,,,,,,,,,,,,,,,,,,,,,,,,,,1675.62566380715,None,,,1678.642026470974,None,1.4306878306878308,0.5828697059769183,1678.642026470974,None,,,,,,,1676.6256873661187,None,1676.8090144849848,1676.8256286371034,52,001,2023_Mar_13_1417,SpeechDraft1Carolyn_lessNoise_PlusLocalization,2021.2.3,60.00073675039568,
,,,,,,,,nearLeft,-6.5,1,ch1Sound_localizationTask.wav,-6.5,"(857, 878)","(-103,-202)",-95,-338,,,,,,,,,,,,,6,4,46,2,,,,,,,,,,,,,,,,,,,,,,,,,,,,,,,,,,,,,,,,1679.2256699730642,None,,,1682.2420198479667,None,1.4306878306878308,0.5161998621188104,1682.2420198479667,None,,,,,,,1680.2254709401168,None,1680.4089135630056,1680.4256781700533,52,001,2023_Mar_13_1417,SpeechDraft1Carolyn_lessNoise_PlusLocalization,2021.2.3,60.00073675039568,
,,,,,,,,nearRight,6.5,0,ch1Sound_localizationTask.wav,6.5,"(1047, 878)","(87, -202)",95,-338,,,,,,,,,,,,,6,5,47,4,,,,,,,,,,,,,,,,,,,,,,,,,,,,,,,,,,,,,,,,1682.759332352085,None,,,1685.775485815946,None,1.4370370370370371,0.5822921909857541,1685.775485815946,None,,,,,,,1683.7589229131117,None,1683.9422411399428,1683.9589189870749,52,001,2023_Mar_13_1417,SpeechDraft1Carolyn_lessNoise_PlusLocalization,2021.2.3,60.00073675039568,
,,,,,,,,center,0.0,6,ch1Sound_localizationTask.wav,0.0,"(952, 878)","(-8,-202)",0,-338,,,,,,,,,,,,,6,6,48,3,,,,,,,,,,,,,,,,,,,,,,,,,,,,,,,,,,,,,,,,1686.3589487711433,None,,,1689.3754951921292,None,1.4402116402116403,5.517063661944121,1689.3754951921292,None,,,,,,,1687.3588897660375,None,1687.5422237189487,1687.558974819025,52,001,2023_Mar_13_1417,SpeechDraft1Carolyn_lessNoise_PlusLocalization,2021.2.3,60.00073675039568,
,,,,,,,,midRight,13.0,3,ch1Sound_localizationTask.wav,13.0,"(1142, 878)","(182, -202)",190,-338,,,,,,,,,,,,,7,0,49,5,,,,,,,,,,,,,,,,,,,,,,,,,,,,,,,,,,,,,,,,1694.9089751020074,None,,,1697.9253200429957,None,1.4386243386243387,0.5497788637876511,1697.9253200429957,None,,,,,,,1695.9090531589463,None,1696.0923335049301,1696.1089418760967,52,001,2023_Mar_13_1417,SpeechDraft1Carolyn_lessNoise_PlusLocalization,2021.2.3,60.00073675039568,
,,,,,,,,midLeft,-13.0,2,ch1Sound_localizationTask.wav,-13.0,"(762, 878)","(-198,-202)",-190,-338,,,,,,,,,,,,,7,1,50,1,,,,,,,,,,,,,,,,,,,,,,,,,,,,,,,,,,,,,,,,1698.4923803131096,None,,,1701.508710162947,None,1.438095238095238,0.5659525969531387,1701.508710162947,None,,,,,,,1699.4923265089747,None,1699.6756245661527,1699.6924439091235,52,001,2023_Mar_13_1417,SpeechDraft1Carolyn_lessNoise_PlusLocalization,2021.2.3,60.00073675039568,
,,,,,,,,midRight,13.0,3,ch1Sound_localizationTask.wav,13.0,"(1142, 878)","(182, -202)",190,-338,,,,,,,,,,,,,7,2,51,5,,,,,,,,,,,,,,,,,,,,,,,,,,,,,,,,,,,,,,,,1702.075695234118,None,,,1705.0920543989632,None,1.4375661375661375,0.5838442891836166,1705.0920543989632,None,,,,,,,1703.0756717489567,None,1703.2590595351066,1703.2756821641233,52,001,2023_Mar_13_1417,SpeechDraft1Carolyn_lessNoise_PlusLocalization,2021.2.3,60.00073675039568,
,,,,,,,,nearLeft,-6.5,1,ch1Sound_localizationTask.wav,-6.5,"(857, 878)","(-103,-202)",-95,-338,,,,,,,,,,,,,7,3,52,2,,,,,,,,,,,,,,,,,,,,,,,,,,,,,,,,,,,,,,,,1705.692358216038,None,,,1708.7088949400932,None,1.4375661375661375,0.6000006790272892,1708.7088949400932,None,,,,,,,1706.6923191021197,None,1706.8756241900846,1706.892365984153,52,001,2023_Mar_13_1417,SpeechDraft1Carolyn_lessNoise_PlusLocalization,2021.2.3,60.00073675039568,
,,,,,,,,midLeft,-13.0,2,ch1Sound_localizationTask.wav,-13.0,"(762, 878)","(-198,-202)",-190,-338,,,,,,,,,,,,,7,4,53,1,,,,,,,,,,,,,,,,,,,,,,,,,,,,,,,,,,,,,,,,1709.3091548120137,None,,,1712.3253527600318,None,1.4370370370370371,0.24954861891455948,1712.3253527600318,None,,,,,,,1710.3089896121528,None,1710.4924026171211,1710.508972932119,52,001,2023_Mar_13_1417,SpeechDraft1Carolyn_lessNoise_PlusLocalization,2021.2.3,60.00073675039568,
,,,,,,,,midLeft,-13.0,2,ch1Sound_localizationTask.wav,-13.0,"(762, 878)","(-198,-202)",-190,-338,,,,,,,,,,,,,7,5,54,1,,,,,,,,,,,,,,,,,,,,,,,,,,,,,,,,,,,,,,,,1712.5756980329752,None,,,1715.5921006260905,None,1.3994708994708995,0.4999365529511124,1715.5921006260905,None,,,,,,,1713.5756098129787,None,1713.7589424580801,1713.7757467550691,52,001,2023_Mar_13_1417,SpeechDraft1Carolyn_lessNoise_PlusLocalization,2021.2.3,60.00073675039568,
,,,,,,,,nearRight,6.5,0,ch1Sound_localizationTask.wav,6.5,"(1047, 878)","(87, -202)",95,-338,,,,,,,,,,,,,7,6,55,4,,,,,,,,,,,,,,,,,,,,,,,,,,,,,,,,,,,,,,,,1716.1090696989559,None,,,1719.1255193699617,None,1.3957671957671958,1.4671847738791257,1719.1255193699617,None,,,,,,,1717.1089989149477,None,1717.292468127096,1717.3091436109971,52,001,2023_Mar_13_1417,SpeechDraft1Carolyn_lessNoise_PlusLocalization,2021.2.3,60.00073675039568,
