Audio_Only_Files,Video_Files,Original_Word_List,noiseLevelCode,conditionCodes,noiseLevelFile1,noiseLevelFile2,InstrTextVar,targetSpeakerName,targetSpeakerEccen,targetSpkrChannel,targetSpkrSound,targetVisualDegrees,visStimLoc,visStimLoc2,visStimW,visStimH,practiceTrials.thisRepN,practiceTrials.thisTrialN,practiceTrials.thisN,practiceTrials.thisIndex,trials.thisRepN,trials.thisTrialN,trials.thisN,trials.thisIndex,audLocalLoop.thisRepN,audLocalLoop.thisTrialN,audLocalLoop.thisN,audLocalLoop.thisIndex,visualLocalLoop.thisRepN,visualLocalLoop.thisTrialN,visualLocalLoop.thisN,visualLocalLoop.thisIndex,letsGoAlready.keys,letsGoAlready.rt,letsGoAlready.started,letsGoAlready.stopped,text_2.started,text_2.stopped,text_3.started,text_3.stopped,key_resp_2.keys,key_resp_2.rt,key_resp_2.started,key_resp_2.stopped,text_5.started,text_5.stopped,fixCross.started,fixCross.stopped,fixCross2.started,fixCross2.stopped,answerPrompt.started,answerPrompt.stopped,getAnswer.text,getAnswer.started,getAnswer.stopped,goToNext.keys,goToNext.rt,goToNext.started,goToNext.stopped,stretchBreakTxrt.started,stretchBreakTxrt.stopped,key_resp_3.keys,key_resp_3.rt,key_resp_3.started,key_resp_3.stopped,letsGoLocal.keys,letsGoLocal.rt,letsGoLocal.started,letsGoLocal.stopped,text_4.started,text_4.stopped,prepFixTxt.started,prepFixTxt.stopped,prepFixTxt_2.started,prepFixTxt_2.stopped,respPromptLocal.started,respPromptLocal.stopped,slider.response,slider.rt,slider.started,slider.stopped,letsGoLocal_2.keys,letsGoLocal_2.rt,letsGoLocal_2.started,letsGoLocal_2.stopped,text_7.started,text_7.stopped,prepFixTxt_3.started,prepFixTxt_3.stopped,grating.started,grating.stopped,participant,session,date,expName,psychopyVersion,frameRate,
,,,,,,,,,,,,,,,,,,,,,,,,,,,,,,,,,space,15.145231901900843,189.1133755769115,None,,,,,,,,,,,,,,,,,,,,,,,,,,,,,,,,,,,,,,,,,,,,,,,,,,,,,,,,53,001,2023_Mar_13_1601,SpeechDraft1Carolyn_lessNoise_PlusLocalization,2021.2.3,59.92001639524581,
,,,,,,,,,,,,,,,,,,,,,,,,,,,,,,,,,,,,,189.1133755769115,None,204.3809548879508,None,space,4.983293943107128,204.56335540604778,None,,,,,,,,,,,,,,,,,,,,,,,,,,,,,,,,,,,,,,,,,,,,,,,,53,001,2023_Mar_13_1601,SpeechDraft1Carolyn_lessNoise_PlusLocalization,2021.2.3,59.92001639524581,
ash.wav,ash.mpg,ash,1,A,Pink_Noise_1_1.wav,Pink_Noise_1_2.wav,"This is an example of an

AUDIO trial",,,,,,,,,,0,0,0,0,,,,,,,,,,,,,,,,,,,,,,,,,209.59662257297896,None,210.5801556110382,None,213.81316577084363,None,215.2132912678644,None,hhhh,215.2132912678644,None,return,7.6104875488672405,215.28013294190168,None,,,,,,,,,,,,,,,,,,,,,,,,,,,,,,,,,53,001,2023_Mar_13_1601,SpeechDraft1Carolyn_lessNoise_PlusLocalization,2021.2.3,59.92001639524581,
ash.wav,ash.mpg,ash,1,AV,Pink_Noise_1_1.wav,Pink_Noise_1_2.wav,"This is an example of an

AUDIO + VIDEO  trial",,,,,,,,,,0,1,1,1,,,,,,,,,,,,,,,,,,,,,,,,,222.92991906683892,None,223.93010847084224,None,225.41331659303978,None,226.79677505302243,None,esh,226.79677505302243,None,return,9.010442723985761,226.88013466191478,None,,,,,,,,,,,,,,,,,,,,,,,,,,,,,,,,,53,001,2023_Mar_13_1601,SpeechDraft1Carolyn_lessNoise_PlusLocalization,2021.2.3,59.92001639524581,
,,,,,,,,,,,,,,,,,,,,,,,,,,,,,,,,,,,,,,,,,,,,,,,,,,,,,,,,,,,,235.92989354394376,None,space,13.705053468933329,236.11358435102738,None,,,,,,,,,,,,,,,,,,,,,,,,,,,53,001,2023_Mar_13_1601,SpeechDraft1Carolyn_lessNoise_PlusLocalization,2021.2.3,59.92001639524581,
bat.wav,bat.mpg,bat,3,AV,Pink_Noise_3_1.wav,Pink_Noise_3_2.wav,,,,,,,,,,,,,,,0,0,0,75,,,,,,,,,,,,,,,,,,,,,,,249.87982144695707,None,251.36326399701647,None,252.74697726592422,None,bat,252.74697726592422,None,return,5.892437058035284,252.83017253596336,None,,,,,,,,,,,,,,,,,,,,,,,,,,,,,,,,,53,001,2023_Mar_13_1601,SpeechDraft1Carolyn_lessNoise_PlusLocalization,2021.2.3,59.92001639524581,
flea.wav,flea.mpg,flea,2,A,Pink_Noise_2_1.wav,Pink_Noise_2_2.wav,,,,,,,,,,,,,,,0,1,1,4,,,,,,,,,,,,,,,,,,,,,,,258.74692446296103,None,260.2466984349303,None,261.6302694519982,None,"flea
",261.6302694519982,None,return,12.616940987063572,261.71366648888215,None,,,,,,,,,,,,,,,,,,,,,,,,,,,,,,,,,53,001,2023_Mar_13_1601,SpeechDraft1Carolyn_lessNoise_PlusLocalization,2021.2.3,59.92001639524581,
crew.wav,crew.mpg,crew,5,A,Pink_Noise_5_1.wav,Pink_Noise_5_2.wav,,,,,,,,,,,,,,,0,2,2,32,,,,,,,,,,,,,,,,,,,,,,,274.3635483388789,None,275.863394333981,None,277.2468222009484,None,idk,277.2468222009484,None,return,6.3924034419469535,277.33020562003367,None,,,,,,,,,,,,,,,,,,,,,,,,,,,,,,,,,53,001,2023_Mar_13_1601,SpeechDraft1Carolyn_lessNoise_PlusLocalization,2021.2.3,59.92001639524581,
skull.wav,skull.mpg,skull,1,AV,Pink_Noise_1_1.wav,Pink_Noise_1_2.wav,,,,,,,,,,,,,,,0,3,3,79,,,,,,,,,,,,,,,,,,,,,,,283.7468865760602,None,285.2466678470373,None,286.6301762459334,None,"skull
",286.6301762459334,None,return,7.201067531015724,286.71353290695697,None,,,,,,,,,,,,,,,,,,,,,,,,,,,,,,,,,53,001,2023_Mar_13_1601,SpeechDraft1Carolyn_lessNoise_PlusLocalization,2021.2.3,59.92001639524581,
crate.wav,crate.mpg,crate,6,A,Pink_Noise_6_1.wav,Pink_Noise_6_2.wav,,,,,,,,,,,,,,,0,4,4,38,,,,,,,,,,,,,,,,,,,,,,,293.94688691105694,None,295.44667900400236,None,296.8303318908438,None,crate,296.8303318908438,None,return,4.393073393963277,296.91350135183893,None,,,,,,,,,,,,,,,,,,,,,,,,,,,,,,,,,53,001,2023_Mar_13_1601,SpeechDraft1Carolyn_lessNoise_PlusLocalization,2021.2.3,59.92001639524581,
flood.wav,flood.mpg,flood,4,A,Pink_Noise_4_1.wav,Pink_Noise_4_2.wav,,,,,,,,,,,,,,,0,5,5,35,,,,,,,,,,,,,,,,,,,,,,,301.3302056048997,None,302.82986119389534,None,304.2137332619168,None,dog,304.2137332619168,None,return,2.8095823409967124,304.29699368891306,None,,,,,,,,,,,,,,,,,,,,,,,,,,,,,,,,,53,001,2023_Mar_13_1601,SpeechDraft1Carolyn_lessNoise_PlusLocalization,2021.2.3,59.92001639524581,
brain.wav,brain.mpg,brain,6,A,Pink_Noise_6_1.wav,Pink_Noise_6_2.wav,,,,,,,,,,,,,,,0,6,6,34,,,,,,,,,,,,,,,,,,,,,,,307.13033593888395,None,308.61336102499627,None,309.996929964982,None,"rain
",309.996929964982,None,return,1.8183211248833686,310.0802689238917,None,,,,,,,,,,,,,,,,,,,,,,,,,,,,,,,,,53,001,2023_Mar_13_1601,SpeechDraft1Carolyn_lessNoise_PlusLocalization,2021.2.3,59.92001639524581,
blank.wav,blank.mpg,blank,4,A,Pink_Noise_4_1.wav,Pink_Noise_4_2.wav,,,,,,,,,,,,,,,0,7,7,42,,,,,,,,,,,,,,,,,,,,,,,311.9303249819204,None,313.42993998294696,None,314.81360404589213,None,write,314.81360404589213,None,return,1.777653591008857,314.896954854019,None,,,,,,,,,,,,,,,,,,,,,,,,,,,,,,,,,53,001,2023_Mar_13_1601,SpeechDraft1Carolyn_lessNoise_PlusLocalization,2021.2.3,59.92001639524581,
ghost.wav,ghost.mpg,ghost,6,A,Pink_Noise_6_1.wav,Pink_Noise_6_2.wav,,,,,,,,,,,,,,,0,8,8,6,,,,,,,,,,,,,,,,,,,,,,,316.69690405298024,None,318.1966325058602,None,319.5802221179474,None,leas,319.5802221179474,None,return,6.226949977921322,319.66363582084887,None,,,,,,,,,,,,,,,,,,,,,,,,,,,,,,,,,53,001,2023_Mar_13_1601,SpeechDraft1Carolyn_lessNoise_PlusLocalization,2021.2.3,59.92001639524581,
fowl.wav,fowl.mpg,fowl,1,AV,Pink_Noise_1_1.wav,Pink_Noise_1_2.wav,,,,,,,,,,,,,,,0,9,9,115,,,,,,,,,,,,,,,,,,,,,,,325.913515338907,None,327.41341181192547,None,328.7968700020574,None,foul,328.7968700020574,None,return,2.530265301000327,328.88040505186655,None,,,,,,,,,,,,,,,,,,,,,,,,,,,,,,,,,53,001,2023_Mar_13_1601,SpeechDraft1Carolyn_lessNoise_PlusLocalization,2021.2.3,59.92001639524581,
chess.wav,chess.mpg,chess,4,AV,Pink_Noise_4_1.wav,Pink_Noise_4_2.wav,,,,,,,,,,,,,,,0,10,10,107,,,,,,,,,,,,,,,,,,,,,,,331.43026856402867,None,332.93009413196705,None,334.3135978090577,None,chess,334.3135978090577,None,return,1.7975681761745363,334.39704185095616,None,,,,,,,,,,,,,,,,,,,,,,,,,,,,,,,,,53,001,2023_Mar_13_1601,SpeechDraft1Carolyn_lessNoise_PlusLocalization,2021.2.3,59.92001639524581,
die.wav,die.mpg,die,1,A,Pink_Noise_1_1.wav,Pink_Noise_1_2.wav,,,,,,,,,,,,,,,0,11,11,3,,,,,,,,,,,,,,,,,,,,,,,336.2136025589425,None,337.71333009400405,None,339.0970419689547,None,die,339.0970419689547,None,return,1.5423491229303181,339.18025263003074,None,,,,,,,,,,,,,,,,,,,,,,,,,,,,,,,,,53,001,2023_Mar_13_1601,SpeechDraft1Carolyn_lessNoise_PlusLocalization,2021.2.3,59.92001639524581,
gush.wav,gush.mpg,gush,3,A,Pink_Noise_3_1.wav,Pink_Noise_3_2.wav,,,,,,,,,,,,,,,0,12,12,45,,,,,,,,,,,,,,,,,,,,,,,340.74701166385785,None,342.246778515866,None,343.63041134597734,None,gush,343.63041134597734,None,return,1.9769715620204806,343.7136382460594,None,,,,,,,,,,,,,,,,,,,,,,,,,,,,,,,,,53,001,2023_Mar_13_1601,SpeechDraft1Carolyn_lessNoise_PlusLocalization,2021.2.3,59.92001639524581,
greed.wav,greed.mpg,greed,5,AV,Pink_Noise_5_1.wav,Pink_Noise_5_2.wav,,,,,,,,,,,,,,,0,13,13,67,,,,,,,,,,,,,,,,,,,,,,,345.71364107192494,None,347.21339463000186,None,348.59698709193617,None,green,348.59698709193617,None,return,2.5943234430160373,348.680268377997,None,,,,,,,,,,,,,,,,,,,,,,,,,,,,,,,,,53,001,2023_Mar_13_1601,SpeechDraft1Carolyn_lessNoise_PlusLocalization,2021.2.3,59.92001639524581,
truck.wav,truck.mpg,truck,2,A,Pink_Noise_2_1.wav,Pink_Noise_2_2.wav,,,,,,,,,,,,,,,0,14,14,54,,,,,,,,,,,,,,,,,,,,,,,351.2969171300065,None,352.7967199899722,None,354.1803472719621,None,truck,354.1803472719621,None,return,3.395005527883768,354.26359556405805,None,,,,,,,,,,,,,,,,,,,,,,,,,,,,,,,,,53,001,2023_Mar_13_1601,SpeechDraft1Carolyn_lessNoise_PlusLocalization,2021.2.3,59.92001639524581,
depth.wav,depth.mpg,depth,3,A,Pink_Noise_3_1.wav,Pink_Noise_3_2.wav,,,,,,,,,,,,,,,0,15,15,31,,,,,,,,,,,,,,,,,,,,,,,357.6804049729835,None,359.18000573688187,None,360.5637370678596,None,"depth
",360.5637370678596,None,return,2.0675854708533734,360.64699357305653,None,,,,,,,,,,,,,,,,,,,,,,,,,,,,,,,,,53,001,2023_Mar_13_1601,SpeechDraft1Carolyn_lessNoise_PlusLocalization,2021.2.3,59.92001639524581,
cheap.wav,cheap.mpg,cheap,2,AV,Pink_Noise_2_1.wav,Pink_Noise_2_2.wav,,,,,,,,,,,,,,,0,16,16,101,,,,,,,,,,,,,,,,,,,,,,,362.7471467349678,None,364.24686703900807,None,365.63021455402486,None,cheap,365.63021455402486,None,return,1.6649628160521388,365.71371451905,None,,,,,,,,,,,,,,,,,,,,,,,,,,,,,,,,,53,001,2023_Mar_13_1601,SpeechDraft1Carolyn_lessNoise_PlusLocalization,2021.2.3,59.92001639524581,
bow.wav,bow.mpg,bow,2,AV,Pink_Noise_2_1.wav,Pink_Noise_2_2.wav,,,,,,,,,,,,,,,0,17,17,83,,,,,,,,,,,,,,,,,,,,,,,367.3970092688687,None,368.89703201991506,None,370.2803353529889,None,bow,370.2803353529889,None,return,1.5267767820041627,370.36379645299166,None,,,,,,,,,,,,,,,,,,,,,,,,,,,,,,,,,53,001,2023_Mar_13_1601,SpeechDraft1Carolyn_lessNoise_PlusLocalization,2021.2.3,59.92001639524581,
drum.wav,drum.mpg,drum,1,A,Pink_Noise_1_1.wav,Pink_Noise_1_2.wav,,,,,,,,,,,,,,,0,18,18,29,,,,,,,,,,,,,,,,,,,,,,,371.91374061396345,None,373.41344644199125,None,374.79697721404955,None,drum,374.79697721404955,None,return,7.10640473710373,374.88027883693576,None,,,,,,,,,,,,,,,,,,,,,,,,,,,,,,,,,53,001,2023_Mar_13_1601,SpeechDraft1Carolyn_lessNoise_PlusLocalization,2021.2.3,59.92001639524581,
brick.wav,brick.mpg,brick,6,A,Pink_Noise_6_1.wav,Pink_Noise_6_2.wav,,,,,,,,,,,,,,,0,19,19,22,,,,,,,,,,,,,,,,,,,,,,,382.01367080095224,None,383.5134739379864,None,384.8970599400345,None,great,384.8970599400345,None,return,2.262133421143517,384.98046261491254,None,,,,,,,,,,,,,,,,,,,,,,,,,,,,,,,,,53,001,2023_Mar_13_1601,SpeechDraft1Carolyn_lessNoise_PlusLocalization,2021.2.3,59.92001639524581,
groan.wav,groan.mpg,groan,6,AV,Pink_Noise_6_1.wav,Pink_Noise_6_2.wav,,,,,,,,,,,,,,,0,20,20,92,,,,,,,,,,,,,,,,,,,,,,,387.2637254248839,None,388.76345566799864,None,390.1469018328935,None,"row
",390.1469018328935,None,return,1.9002334249671549,390.2303699590266,None,,,,,,,,,,,,,,,,,,,,,,,,,,,,,,,,,53,001,2023_Mar_13_1601,SpeechDraft1Carolyn_lessNoise_PlusLocalization,2021.2.3,59.92001639524581,
dry.wav,dry.mpg,dry,6,A,Pink_Noise_6_1.wav,Pink_Noise_6_2.wav,,,,,,,,,,,,,,,0,21,21,10,,,,,,,,,,,,,,,,,,,,,,,392.1637106949929,None,393.6635557508562,None,395.04703995003365,None,"lie
",395.04703995003365,None,return,3.5681704781018198,395.13041758700274,None,,,,,,,,,,,,,,,,,,,,,,,,,,,,,,,,,53,001,2023_Mar_13_1601,SpeechDraft1Carolyn_lessNoise_PlusLocalization,2021.2.3,59.92001639524581,
blame.wav,blame.mpg,blame,1,A,Pink_Noise_1_1.wav,Pink_Noise_1_2.wav,,,,,,,,,,,,,,,0,22,22,56,,,,,,,,,,,,,,,,,,,,,,,398.73039394500665,None,400.2301197240595,None,401.61377225699835,None,plane,401.61377225699835,None,return,1.473672297084704,401.6970709338784,None,,,,,,,,,,,,,,,,,,,,,,,,,,,,,,,,,53,001,2023_Mar_13_1601,SpeechDraft1Carolyn_lessNoise_PlusLocalization,2021.2.3,59.92001639524581,
curl.wav,curl.mpg,curl,4,AV,Pink_Noise_4_1.wav,Pink_Noise_4_2.wav,,,,,,,,,,,,,,,0,23,23,119,,,,,,,,,,,,,,,,,,,,,,,403.1970528969541,None,404.6968172409106,None,406.08053190493956,None,girl,406.08053190493956,None,return,1.87884955201298,406.1637596709188,None,,,,,,,,,,,,,,,,,,,,,,,,,,,,,,,,,53,001,2023_Mar_13_1601,SpeechDraft1Carolyn_lessNoise_PlusLocalization,2021.2.3,59.92001639524581,
dual.wav,dual.mpg,dual,4,AV,Pink_Noise_4_1.wav,Pink_Noise_4_2.wav,,,,,,,,,,,,,,,0,24,24,103,,,,,,,,,,,,,,,,,,,,,,,408.06372032198124,None,409.5633807410486,None,410.94697462092154,None,you,410.94697462092154,None,return,6.172427796991542,411.03039676789194,None,,,,,,,,,,,,,,,,,,,,,,,,,,,,,,,,,53,001,2023_Mar_13_1601,SpeechDraft1Carolyn_lessNoise_PlusLocalization,2021.2.3,59.92001639524581,
curve.wav,curve.mpg,curve,5,AV,Pink_Noise_5_1.wav,Pink_Noise_5_2.wav,,,,,,,,,,,,,,,0,25,25,80,,,,,,,,,,,,,,,,,,,,,,,417.24693624698557,None,418.74698319798335,None,420.1304078588728,None,curve,420.1304078588728,None,return,6.692853248910978,420.21374122495763,None,,,,,,,,,,,,,,,,,,,,,,,,,,,,,,,,,53,001,2023_Mar_13_1601,SpeechDraft1Carolyn_lessNoise_PlusLocalization,2021.2.3,59.92001639524581,
groom.wav,groom.mpg,groom,4,AV,Pink_Noise_4_1.wav,Pink_Noise_4_2.wav,,,,,,,,,,,,,,,0,26,26,61,,,,,,,,,,,,,,,,,,,,,,,426.9303521050606,None,428.43020779290237,None,429.8137445738539,None,groom,429.8137445738539,None,return,4.089650127105415,429.897096515866,None,,,,,,,,,,,,,,,,,,,,,,,,,,,,,,,,,53,001,2023_Mar_13_1601,SpeechDraft1Carolyn_lessNoise_PlusLocalization,2021.2.3,59.92001639524581,
block.wav,block.mpg,block,4,A,Pink_Noise_4_1.wav,Pink_Noise_4_2.wav,,,,,,,,,,,,,,,0,27,27,25,,,,,,,,,,,,,,,,,,,,,,,434.01382449106313,None,435.5134514810052,None,436.89702364197,None,rock,436.89702364197,None,return,1.678147042170167,436.980458681006,None,,,,,,,,,,,,,,,,,,,,,,,,,,,,,,,,,53,001,2023_Mar_13_1601,SpeechDraft1Carolyn_lessNoise_PlusLocalization,2021.2.3,59.92001639524581,
ham.wav,ham.mpg,ham,1,AV,Pink_Noise_1_1.wav,Pink_Noise_1_2.wav,,,,,,,,,,,,,,,0,28,28,77,,,,,,,,,,,,,,,,,,,,,,,438.6805426699575,None,440.18034506984986,None,441.56388086103834,None,"ham
",441.56388086103834,None,return,3.803401059936732,441.6471913449932,None,,,,,,,,,,,,,,,,,,,,,,,,,,,,,,,,,53,001,2023_Mar_13_1601,SpeechDraft1Carolyn_lessNoise_PlusLocalization,2021.2.3,59.92001639524581,
friend.wav,friend.mpg,friend,5,A,Pink_Noise_5_1.wav,Pink_Noise_5_2.wav,,,,,,,,,,,,,,,0,29,29,16,,,,,,,,,,,,,,,,,,,,,,,445.4804031739477,None,446.9801488809753,None,448.3637472500559,None,idk,448.3637472500559,None,return,6.971488268813118,448.4470956248697,None,,,,,,,,,,,,,,,,,,,,,,,,,,,,,,,,,53,001,2023_Mar_13_1601,SpeechDraft1Carolyn_lessNoise_PlusLocalization,2021.2.3,59.92001639524581,
clumps.wav,clumps.mpg,clumps,3,AV,Pink_Noise_3_1.wav,Pink_Noise_3_2.wav,,,,,,,,,,,,,,,0,30,30,87,,,,,,,,,,,,,,,,,,,,,,,455.44716716883704,None,456.9468287208583,None,458.33049391093664,None,clubs,458.33049391093664,None,return,6.844660218106583,458.41391257196665,None,,,,,,,,,,,,,,,,,,,,,,,,,,,,,,,,,53,001,2023_Mar_13_1601,SpeechDraft1Carolyn_lessNoise_PlusLocalization,2021.2.3,59.92001639524581,
cling.wav,cling.mpg,cling,6,A,Pink_Noise_6_1.wav,Pink_Noise_6_2.wav,,,,,,,,,,,,,,,0,31,31,52,,,,,,,,,,,,,,,,,,,,,,,465.28049433301203,None,466.78027738188393,None,468.16385517199524,None,"osk
",468.16385517199524,None,return,2.8834413099102676,468.2471455768682,None,,,,,,,,,,,,,,,,,,,,,,,,,,,,,,,,,53,001,2023_Mar_13_1601,SpeechDraft1Carolyn_lessNoise_PlusLocalization,2021.2.3,59.92001639524581,
boss.wav,boss.mpg,boss,3,A,Pink_Noise_3_1.wav,Pink_Noise_3_2.wav,,,,,,,,,,,,,,,0,32,32,44,,,,,,,,,,,,,,,,,,,,,,,471.1638377129566,None,472.66350523591973,None,474.0473259158898,None,wasp,474.0473259158898,None,return,6.84021498193033,474.1304848450236,None,,,,,,,,,,,,,,,,,,,,,,,,,,,,,,,,,53,001,2023_Mar_13_1601,SpeechDraft1Carolyn_lessNoise_PlusLocalization,2021.2.3,59.92001639524581,
warmth.wav,warmth.mpg,warmth,6,AV,Pink_Noise_6_1.wav,Pink_Noise_6_2.wav,,,,,,,,,,,,,,,0,33,33,82,,,,,,,,,,,,,,,,,,,,,,,480.9972130008973,None,482.49704862898216,None,483.8803816528525,None,warmth,483.8803816528525,None,return,4.966697247000411,483.9638985588681,None,,,,,,,,,,,,,,,,,,,,,,,,,,,,,,,,,53,001,2023_Mar_13_1601,SpeechDraft1Carolyn_lessNoise_PlusLocalization,2021.2.3,59.92001639524581,
grave.wav,grave.mpg,grave,3,AV,Pink_Noise_3_1.wav,Pink_Noise_3_2.wav,,,,,,,,,,,,,,,0,34,34,95,,,,,,,,,,,,,,,,,,,,,,,488.94719639304094,None,490.4469980080612,None,491.83053160388954,None,grave,491.83053160388954,None,return,8.240820909151807,491.91384071391076,None,,,,,,,,,,,,,,,,,,,,,,,,,,,,,,,,,53,001,2023_Mar_13_1601,SpeechDraft1Carolyn_lessNoise_PlusLocalization,2021.2.3,59.92001639524581,
cleft.wav,cleft.mpg,cleft,1,AV,Pink_Noise_1_1.wav,Pink_Noise_1_2.wav,,,,,,,,,,,,,,,0,35,35,62,,,,,,,,,,,,,,,,,,,,,,,500.1804626630619,None,501.68036819505505,None,503.06377046601847,None,cleft,503.06377046601847,None,return,3.2873327611014247,503.14725317200646,None,,,,,,,,,,,,,,,,,,,,,,,,,,,,,,,,,53,001,2023_Mar_13_1601,SpeechDraft1Carolyn_lessNoise_PlusLocalization,2021.2.3,59.92001639524581,
frame.wav,frame.mpg,frame,2,A,Pink_Noise_2_1.wav,Pink_Noise_2_2.wav,,,,,,,,,,,,,,,0,36,36,36,,,,,,,,,,,,,,,,,,,,,,,506.4639072539285,None,507.9634733318817,None,509.3471731720492,None,friend,509.3471731720492,None,return,6.787957317894325,509.43063543201424,None,,,,,,,,,,,,,,,,,,,,,,,,,,,,,,,,,53,001,2023_Mar_13_1601,SpeechDraft1Carolyn_lessNoise_PlusLocalization,2021.2.3,59.92001639524581,
draft.wav,draft.mpg,draft,5,A,Pink_Noise_5_1.wav,Pink_Noise_5_2.wav,,,,,,,,,,,,,,,0,37,37,7,,,,,,,,,,,,,,,,,,,,,,,516.2471937029622,None,517.7470336400438,None,519.130589768989,None,grass,519.130589768989,None,return,3.6126681871246547,519.2139097568579,None,,,,,,,,,,,,,,,,,,,,,,,,,,,,,,,,,53,001,2023_Mar_13_1601,SpeechDraft1Carolyn_lessNoise_PlusLocalization,2021.2.3,59.92001639524581,
stain.wav,stain.mpg,stain,2,A,Pink_Noise_2_1.wav,Pink_Noise_2_2.wav,,,,,,,,,,,,,,,0,38,38,46,,,,,,,,,,,,,,,,,,,,,,,522.8472268369514,None,524.3469590388704,None,525.7305367230438,None,sting,525.7305367230438,None,return,7.692596497014165,525.814012442017,None,,,,,,,,,,,,,,,,,,,,,,,,,,,,,,,,,53,001,2023_Mar_13_1601,SpeechDraft1Carolyn_lessNoise_PlusLocalization,2021.2.3,59.92001639524581,
chord.wav,chord.mpg,chord,6,AV,Pink_Noise_6_1.wav,Pink_Noise_6_2.wav,,,,,,,,,,,,,,,0,39,39,117,,,,,,,,,,,,,,,,,,,,,,,533.5305514058564,None,535.0304818789009,None,536.4138275419828,None,"cord
",536.4138275419828,None,return,4.769333962118253,536.4972343998961,None,,,,,,,,,,,,,,,,,,,,,,,,,,,,,,,,,53,001,2023_Mar_13_1601,SpeechDraft1Carolyn_lessNoise_PlusLocalization,2021.2.3,59.92001639524581,
dial.wav,dial.mpg,dial,3,A,Pink_Noise_3_1.wav,Pink_Noise_3_2.wav,,,,,,,,,,,,,,,0,40,40,20,,,,,,,,,,,,,,,,,,,,,,,541.2972889649682,None,542.7970366380177,None,544.1806313500274,None,dile,544.1806313500274,None,return,2.810714514926076,544.2638617129996,None,,,,,,,,,,,,,,,,,,,,,,,,,,,,,,,,,53,001,2023_Mar_13_1601,SpeechDraft1Carolyn_lessNoise_PlusLocalization,2021.2.3,59.92001639524581,
flask.wav,flask.mpg,flask,2,AV,Pink_Noise_2_1.wav,Pink_Noise_2_2.wav,,,,,,,,,,,,,,,0,41,41,85,,,,,,,,,,,,,,,,,,,,,,,547.0972072579898,None,548.5971322269179,None,549.9807281189132,None,flask,549.9807281189132,None,return,3.3546109618619084,550.0639877179638,None,,,,,,,,,,,,,,,,,,,,,,,,,,,,,,,,,53,001,2023_Mar_13_1601,SpeechDraft1Carolyn_lessNoise_PlusLocalization,2021.2.3,59.92001639524581,
sun.wav,sun.mpg,sun,5,A,Pink_Noise_5_1.wav,Pink_Noise_5_2.wav,,,,,,,,,,,,,,,0,42,42,24,,,,,,,,,,,,,,,,,,,,,,,553.4472708229441,None,554.947307829978,None,556.3305573749822,None,idk,556.3305573749822,None,return,4.748845611000434,556.4138765940443,None,,,,,,,,,,,,,,,,,,,,,,,,,,,,,,,,,53,001,2023_Mar_13_1601,SpeechDraft1Carolyn_lessNoise_PlusLocalization,2021.2.3,59.92001639524581,
dock.wav,dock.mpg,dock,4,AV,Pink_Noise_4_1.wav,Pink_Noise_4_2.wav,,,,,,,,,,,,,,,0,43,43,76,,,,,,,,,,,,,,,,,,,,,,,561.1806552568451,None,562.6812448569108,None,564.064088860061,None,dock ,564.064088860061,None,return,9.495296784909442,564.1472902279347,None,,,,,,,,,,,,,,,,,,,,,,,,,,,,,,,,,53,001,2023_Mar_13_1601,SpeechDraft1Carolyn_lessNoise_PlusLocalization,2021.2.3,59.92001639524581,
bay.wav,bay.mpg,bay,5,A,Pink_Noise_5_1.wav,Pink_Noise_5_2.wav,,,,,,,,,,,,,,,0,44,44,41,,,,,,,,,,,,,,,,,,,,,,,573.6640494370367,None,575.163658563979,None,576.5471983270254,None,snake,576.5471983270254,None,return,8.78790617082268,576.6306742050219,None,,,,,,,,,,,,,,,,,,,,,,,,,,,,,,,,,53,001,2023_Mar_13_1601,SpeechDraft1Carolyn_lessNoise_PlusLocalization,2021.2.3,59.92001639524581,
bib.wav,bib.mpg,bib,1,A,Pink_Noise_1_1.wav,Pink_Noise_1_2.wav,,,,,,,,,,,,,,,0,45,45,0,,,,,,,,,,,,,,,,,,,,,,,585.4473945458885,None,586.94698744989,None,588.3306848099455,None,"fib
",588.3306848099455,None,return,8.300451963907108,588.414128097007,None,,,,,,,,,,,,,,,,,,,,,,,,,,,,,,,,,53,001,2023_Mar_13_1601,SpeechDraft1Carolyn_lessNoise_PlusLocalization,2021.2.3,59.92001639524581,
chef.wav,chef.mpg,chef,5,AV,Pink_Noise_5_1.wav,Pink_Noise_5_2.wav,,,,,,,,,,,,,,,0,46,46,91,,,,,,,,,,,,,,,,,,,,,,,596.7473824089393,None,598.2637416990474,None,599.6473872419447,None,shelf,599.6473872419447,None,return,2.2637339408975095,599.7308665539604,None,,,,,,,,,,,,,,,,,,,,,,,,,,,,,,,,,53,001,2023_Mar_13_1601,SpeechDraft1Carolyn_lessNoise_PlusLocalization,2021.2.3,59.92001639524581,
due.wav,due.mpg,due,5,A,Pink_Noise_5_1.wav,Pink_Noise_5_2.wav,,,,,,,,,,,,,,,0,47,47,43,,,,,,,,,,,,,,,,,,,,,,,602.0140616539866,None,603.5137848989107,None,604.8974819378927,None,juice,604.8974819378927,None,return,1.8139385899994522,604.9806450270116,None,,,,,,,,,,,,,,,,,,,,,,,,,,,,,,,,,53,001,2023_Mar_13_1601,SpeechDraft1Carolyn_lessNoise_PlusLocalization,2021.2.3,59.92001639524581,
fog.wav,fog.mpg,fog,4,A,Pink_Noise_4_1.wav,Pink_Noise_4_2.wav,,,,,,,,,,,,,,,0,48,48,19,,,,,,,,,,,,,,,,,,,,,,,606.8140225368552,None,608.3136423609685,None,609.697378356941,None,idk,609.697378356941,None,return,4.822028992930427,609.7806319298688,None,,,,,,,,,,,,,,,,,,,,,,,,,,,,,,,,,53,001,2023_Mar_13_1601,SpeechDraft1Carolyn_lessNoise_PlusLocalization,2021.2.3,59.92001639524581,
cape.wav,cape.mpg,cape,6,A,Pink_Noise_6_1.wav,Pink_Noise_6_2.wav,,,,,,,,,,,,,,,0,49,49,21,,,,,,,,,,,,,,,,,,,,,,,614.6307589670178,None,616.1470880240668,None,617.5308375579771,None,idk,617.5308375579771,None,return,4.356596163939685,617.6140991470311,None,,,,,,,,,,,,,,,,,,,,,,,,,,,,,,,,,53,001,2023_Mar_13_1601,SpeechDraft1Carolyn_lessNoise_PlusLocalization,2021.2.3,59.92001639524581,
fist.wav,fist.mpg,fist,2,AV,Pink_Noise_2_1.wav,Pink_Noise_2_2.wav,,,,,,,,,,,,,,,0,50,50,93,,,,,,,,,,,,,,,,,,,,,,,621.9974045939744,None,623.4970853528939,None,624.8805794729851,None,fist,624.8805794729851,None,return,9.022581574972719,624.9640971978661,None,,,,,,,,,,,,,,,,,,,,,,,,,,,,,,,,,53,001,2023_Mar_13_1601,SpeechDraft1Carolyn_lessNoise_PlusLocalization,2021.2.3,59.92001639524581,
guest.wav,guest.mpg,guest,3,AV,Pink_Noise_3_1.wav,Pink_Noise_3_2.wav,,,,,,,,,,,,,,,0,51,51,118,,,,,,,,,,,,,,,,,,,,,,,634.0141905718483,None,635.5138691889588,None,636.8974789879285,None,guest,636.8974789879285,None,return,3.365954509936273,636.9807223819662,None,,,,,,,,,,,,,,,,,,,,,,,,,,,,,,,,,53,001,2023_Mar_13_1601,SpeechDraft1Carolyn_lessNoise_PlusLocalization,2021.2.3,59.92001639524581,
flush.wav,flush.mpg,flush,3,AV,Pink_Noise_3_1.wav,Pink_Noise_3_2.wav,,,,,,,,,,,,,,,0,52,52,69,,,,,,,,,,,,,,,,,,,,,,,640.3640136069153,None,641.880526592955,None,643.264190586051,None,flush ,643.264190586051,None,return,1.9272660680580884,643.3473523738794,None,,,,,,,,,,,,,,,,,,,,,,,,,,,,,,,,,53,001,2023_Mar_13_1601,SpeechDraft1Carolyn_lessNoise_PlusLocalization,2021.2.3,59.92001639524581,
cloth.wav,cloth.mpg,cloth,4,A,Pink_Noise_4_1.wav,Pink_Noise_4_2.wav,,,,,,,,,,,,,,,0,53,53,40,,,,,,,,,,,,,,,,,,,,,,,645.2973779358435,None,646.7974224849604,None,648.1807305300608,None,walk,648.1807305300608,None,return,4.938596671912819,648.2640766839031,None,,,,,,,,,,,,,,,,,,,,,,,,,,,,,,,,,53,001,2023_Mar_13_1601,SpeechDraft1Carolyn_lessNoise_PlusLocalization,2021.2.3,59.92001639524581,
cat.wav,cat.mpg,cat,6,AV,Pink_Noise_6_1.wav,Pink_Noise_6_2.wav,,,,,,,,,,,,,,,0,54,54,116,,,,,,,,,,,,,,,,,,,,,,,653.2307869449724,None,654.7304605019744,None,656.1141226538457,None,cat ,656.1141226538457,None,return,4.973216452868655,656.197466871934,None,,,,,,,,,,,,,,,,,,,,,,,,,,,,,,,,,53,001,2023_Mar_13_1601,SpeechDraft1Carolyn_lessNoise_PlusLocalization,2021.2.3,59.92001639524581,
phase.wav,phase.mpg,phase,4,A,Pink_Noise_4_1.wav,Pink_Noise_4_2.wav,,,,,,,,,,,,,,,0,55,55,28,,,,,,,,,,,,,,,,,,,,,,,661.1974002108909,None,662.6973449690267,None,664.0808565099724,None,face,664.0808565099724,None,return,5.742464991984889,664.1641039468814,None,,,,,,,,,,,,,,,,,,,,,,,,,,,,,,,,,53,001,2023_Mar_13_1601,SpeechDraft1Carolyn_lessNoise_PlusLocalization,2021.2.3,59.92001639524581,
bear.wav,bear.mpg,bear,3,A,Pink_Noise_3_1.wav,Pink_Noise_3_2.wav,,,,,,,,,,,,,,,0,56,56,30,,,,,,,,,,,,,,,,,,,,,,,669.9307916259859,None,671.4305571499281,None,672.814163710922,None,berry,672.814163710922,None,return,2.697108185151592,672.8975259000435,None,,,,,,,,,,,,,,,,,,,,,,,,,,,,,,,,,53,001,2023_Mar_13_1601,SpeechDraft1Carolyn_lessNoise_PlusLocalization,2021.2.3,59.92001639524581,
clad.wav,clad.mpg,clad,2,AV,Pink_Noise_2_1.wav,Pink_Noise_2_2.wav,,,,,,,,,,,,,,,0,57,57,100,,,,,,,,,,,,,,,,,,,,,,,675.6140856230631,None,677.1155016298871,None,678.4974183880258,None,clad,678.4974183880258,None,return,6.653833694988862,678.5807713659015,None,,,,,,,,,,,,,,,,,,,,,,,,,,,,,,,,,53,001,2023_Mar_13_1601,SpeechDraft1Carolyn_lessNoise_PlusLocalization,2021.2.3,59.92001639524581,
blink.wav,blink.mpg,blink,2,AV,Pink_Noise_2_1.wav,Pink_Noise_2_2.wav,,,,,,,,,,,,,,,0,58,58,60,,,,,,,,,,,,,,,,,,,,,,,685.2642431438435,None,686.7638575630262,None,688.1476008128375,None,blink,688.1476008128375,None,return,7.859823337057605,688.2307601429056,None,,,,,,,,,,,,,,,,,,,,,,,,,,,,,,,,,53,001,2023_Mar_13_1601,SpeechDraft1Carolyn_lessNoise_PlusLocalization,2021.2.3,59.92001639524581,
nine.wav,nine.mpg,nine,4,AV,Pink_Noise_4_1.wav,Pink_Noise_4_2.wav,,,,,,,,,,,,,,,0,59,59,84,,,,,,,,,,,,,,,,,,,,,,,696.1141357829329,None,697.6305887368508,None,699.0141080820467,None,nine,699.0141080820467,None,return,7.441047085914761,699.0976302318741,None,,,,,,,,,,,,,,,,,,,,,,,,,,,,,,,,,53,001,2023_Mar_13_1601,SpeechDraft1Carolyn_lessNoise_PlusLocalization,2021.2.3,59.92001639524581,
glide.wav,glide.mpg,glide,1,AV,Pink_Noise_1_1.wav,Pink_Noise_1_2.wav,,,,,,,,,,,,,,,0,60,60,109,,,,,,,,,,,,,,,,,,,,,,,706.5640752168838,None,708.0640286910348,None,709.4475153079256,None,glide,709.4475153079256,None,return,6.991721243131906,709.5308552728966,None,,,,,,,,,,,,,,,,,,,,,,,,,,,,,,,,,53,001,2023_Mar_13_1601,SpeechDraft1Carolyn_lessNoise_PlusLocalization,2021.2.3,59.92001639524581,
beige.wav,beige.mpg,beige,2,A,Pink_Noise_2_1.wav,Pink_Noise_2_2.wav,,,,,,,,,,,,,,,0,61,61,48,,,,,,,,,,,,,,,,,,,,,,,716.547394201858,None,718.0471447119489,None,719.4308537389152,None,beige,719.4308537389152,None,return,9.28047599713318,719.5141839310527,None,,,,,,,,,,,,,,,,,,,,,,,,,,,,,,,,,53,001,2023_Mar_13_1601,SpeechDraft1Carolyn_lessNoise_PlusLocalization,2021.2.3,59.92001639524581,
cuff.wav,cuff.mpg,cuff,4,A,Pink_Noise_4_1.wav,Pink_Noise_4_2.wav,,,,,,,,,,,,,,,0,62,62,37,,,,,,,,,,,,,,,,,,,,,,,728.8142052830663,None,730.3308194100391,None,731.714201107854,None,"puff
",731.714201107854,None,return,5.437105352990329,731.7974833589979,None,,,,,,,,,,,,,,,,,,,,,,,,,,,,,,,,,53,001,2023_Mar_13_1601,SpeechDraft1Carolyn_lessNoise_PlusLocalization,2021.2.3,59.92001639524581,
poll.wav,poll.mpg,poll,3,AV,Pink_Noise_3_1.wav,Pink_Noise_3_2.wav,,,,,,,,,,,,,,,0,63,63,96,,,,,,,,,,,,,,,,,,,,,,,737.2641536470037,None,738.7639879549388,None,740.1476080550347,None,pull,740.1476080550347,None,return,5.40364786516875,740.230929709971,None,,,,,,,,,,,,,,,,,,,,,,,,,,,,,,,,,53,001,2023_Mar_13_1601,SpeechDraft1Carolyn_lessNoise_PlusLocalization,2021.2.3,59.92001639524581,
stone.wav,stone.mpg,stone,1,A,Pink_Noise_1_1.wav,Pink_Noise_1_2.wav,,,,,,,,,,,,,,,0,64,64,26,,,,,,,,,,,,,,,,,,,,,,,745.6642408680636,None,747.1645628020633,None,748.5475130060222,None,stove,748.5475130060222,None,return,3.1797352239955217,748.6309117688797,None,,,,,,,,,,,,,,,,,,,,,,,,,,,,,,,,,53,001,2023_Mar_13_1601,SpeechDraft1Carolyn_lessNoise_PlusLocalization,2021.2.3,59.92001639524581,
coup.wav,coup.mpg,coup,4,AV,Pink_Noise_4_1.wav,Pink_Noise_4_2.wav,,,,,,,,,,,,,,,0,65,65,71,,,,,,,,,,,,,,,,,,,,,,,751.8308741429355,None,753.3307970990427,None,754.7142427030485,None,coup,754.7142427030485,None,return,8.16512039094232,754.797577970894,None,,,,,,,,,,,,,,,,,,,,,,,,,,,,,,,,,53,001,2023_Mar_13_1601,SpeechDraft1Carolyn_lessNoise_PlusLocalization,2021.2.3,59.92001639524581,
client.wav,client.mpg,client,1,AV,Pink_Noise_1_1.wav,Pink_Noise_1_2.wav,,,,,,,,,,,,,,,0,66,66,106,,,,,,,,,,,,,,,,,,,,,,,762.9809168819338,None,764.4972954159603,None,765.8809519389179,None,client,765.8809519389179,None,return,9.45431670290418,765.964262977941,None,,,,,,,,,,,,,,,,,,,,,,,,,,,,,,,,,53,001,2023_Mar_13_1601,SpeechDraft1Carolyn_lessNoise_PlusLocalization,2021.2.3,59.92001639524581,
clock.wav,clock.mpg,clock,6,AV,Pink_Noise_6_1.wav,Pink_Noise_6_2.wav,,,,,,,,,,,,,,,0,67,67,108,,,,,,,,,,,,,,,,,,,,,,,775.4475632389076,None,776.947334500961,None,778.3309729099274,None,"idk
",778.3309729099274,None,return,11.1002053511329,778.4144051719923,None,,,,,,,,,,,,,,,,,,,,,,,,,,,,,,,,,53,001,2023_Mar_13_1601,SpeechDraft1Carolyn_lessNoise_PlusLocalization,2021.2.3,59.92001639524581,
row.wav,row.mpg,row,5,AV,Pink_Noise_5_1.wav,Pink_Noise_5_2.wav,,,,,,,,,,,,,,,0,68,68,78,,,,,,,,,,,,,,,,,,,,,,,789.5476035608444,None,791.0474818360526,None,792.430954438867,None,row,792.430954438867,None,return,7.104292723815888,792.5143144680187,None,,,,,,,,,,,,,,,,,,,,,,,,,,,,,,,,,53,001,2023_Mar_13_1601,SpeechDraft1Carolyn_lessNoise_PlusLocalization,2021.2.3,59.92001639524581,
dish.wav,dish.mpg,dish,2,A,Pink_Noise_2_1.wav,Pink_Noise_2_2.wav,,,,,,,,,,,,,,,0,69,69,1,,,,,,,,,,,,,,,,,,,,,,,799.6477530389093,None,801.1473566519562,None,802.531048309058,None,dish,802.531048309058,None,return,15.18028826196678,802.614376366837,None,,,,,,,,,,,,,,,,,,,,,,,,,,,,,,,,,53,001,2023_Mar_13_1601,SpeechDraft1Carolyn_lessNoise_PlusLocalization,2021.2.3,59.92001639524581,
clerk.wav,clerk.mpg,clerk,3,AV,Pink_Noise_3_1.wav,Pink_Noise_3_2.wav,,,,,,,,,,,,,,,0,70,70,89,,,,,,,,,,,,,,,,,,,,,,,817.814239233965,None,819.315163634019,None,820.6974906239193,None,clerk,820.6974906239193,None,return,6.605750585906208,820.780961260898,None,,,,,,,,,,,,,,,,,,,,,,,,,,,,,,,,,53,001,2023_Mar_13_1601,SpeechDraft1Carolyn_lessNoise_PlusLocalization,2021.2.3,59.92001639524581,
fold.wav,fold.mpg,fold,5,AV,Pink_Noise_5_1.wav,Pink_Noise_5_2.wav,,,,,,,,,,,,,,,0,71,71,68,,,,,,,,,,,,,,,,,,,,,,,827.4143445049413,None,828.9140651188791,None,830.2976629808545,None,fold,830.2976629808545,None,return,6.325531609822065,830.3810137149412,None,,,,,,,,,,,,,,,,,,,,,,,,,,,,,,,,,53,001,2023_Mar_13_1601,SpeechDraft1Carolyn_lessNoise_PlusLocalization,2021.2.3,59.92001639524581,
bench.wav,bench.mpg,bench,3,A,Pink_Noise_3_1.wav,Pink_Noise_3_2.wav,,,,,,,,,,,,,,,0,72,72,57,,,,,,,,,,,,,,,,,,,,,,,836.7309284878429,None,838.2475180940237,None,839.6310388238635,None,bench,839.6310388238635,None,return,3.704220503102988,839.7143893670291,None,,,,,,,,,,,,,,,,,,,,,,,,,,,,,,,,,53,001,2023_Mar_13_1601,SpeechDraft1Carolyn_lessNoise_PlusLocalization,2021.2.3,59.92001639524581,
flank.wav,flank.mpg,flank,2,A,Pink_Noise_2_1.wav,Pink_Noise_2_2.wav,,,,,,,,,,,,,,,0,73,73,23,,,,,,,,,,,,,,,,,,,,,,,843.4476995340083,None,844.9473937889561,None,846.3310040559154,None,plank,846.3310040559154,None,return,1.9803456419613212,846.4142973518465,None,,,,,,,,,,,,,,,,,,,,,,,,,,,,,,,,,53,001,2023_Mar_13_1601,SpeechDraft1Carolyn_lessNoise_PlusLocalization,2021.2.3,59.92001639524581,
fail.wav,fail.mpg,fail,4,AV,Pink_Noise_4_1.wav,Pink_Noise_4_2.wav,,,,,,,,,,,,,,,0,74,74,72,,,,,,,,,,,,,,,,,,,,,,,848.4144226249773,None,849.9141212608665,None,851.2974418629892,None,fail,851.2974418629892,None,return,2.309447842184454,851.3811592310667,None,,,,,,,,,,,,,,,,,,,,,,,,,,,,,,,,,53,001,2023_Mar_13_1601,SpeechDraft1Carolyn_lessNoise_PlusLocalization,2021.2.3,59.92001639524581,
budge.wav,budge.mpg,budge,1,AV,Pink_Noise_1_1.wav,Pink_Noise_1_2.wav,,,,,,,,,,,,,,,0,75,75,113,,,,,,,,,,,,,,,,,,,,,,,853.7143696059939,None,855.2307516429573,None,856.614223274868,None,budge,856.614223274868,None,return,11.24893630319275,856.697702070931,None,,,,,,,,,,,,,,,,,,,,,,,,,,,,,,,,,53,001,2023_Mar_13_1601,SpeechDraft1Carolyn_lessNoise_PlusLocalization,2021.2.3,59.92001639524581,
dot.wav,dot.mpg,dot,5,AV,Pink_Noise_5_1.wav,Pink_Noise_5_2.wav,,,,,,,,,,,,,,,0,76,76,70,,,,,,,,,,,,,,,,,,,,,,,867.9643734190613,None,869.4807051329408,None,870.8643022328615,None,start,870.8643022328615,None,return,8.894830343080685,870.9477474619634,None,,,,,,,,,,,,,,,,,,,,,,,,,,,,,,,,,53,001,2023_Mar_13_1601,SpeechDraft1Carolyn_lessNoise_PlusLocalization,2021.2.3,59.92001639524581,
dip.wav,dip.mpg,dip,1,A,Pink_Noise_1_1.wav,Pink_Noise_1_2.wav,,,,,,,,,,,,,,,0,77,77,13,,,,,,,,,,,,,,,,,,,,,,,879.8644445389509,None,881.3640832209494,None,882.7479329349007,None,"dip
",882.7479329349007,None,return,1.251350976061076,882.8312520449981,None,,,,,,,,,,,,,,,,,,,,,,,,,,,,,,,,,53,001,2023_Mar_13_1601,SpeechDraft1Carolyn_lessNoise_PlusLocalization,2021.2.3,59.92001639524581,
guide.wav,guide.mpg,guide,1,A,Pink_Noise_1_1.wav,Pink_Noise_1_2.wav,,,,,,,,,,,,,,,0,78,78,50,,,,,,,,,,,,,,,,,,,,,,,884.1143858279102,None,885.6308144340292,None,887.0146019388922,None,guide,887.0146019388922,None,return,1.3287806459702551,887.0978103058878,None,,,,,,,,,,,,,,,,,,,,,,,,,,,,,,,,,53,001,2023_Mar_13_1601,SpeechDraft1Carolyn_lessNoise_PlusLocalization,2021.2.3,59.92001639524581,
funk.wav,funk.mpg,funk,1,A,Pink_Noise_1_1.wav,Pink_Noise_1_2.wav,,,,,,,,,,,,,,,0,79,79,33,,,,,,,,,,,,,,,,,,,,,,,888.4478314339649,None,889.9475053958595,None,891.3311520679854,None,funk,891.3311520679854,None,return,1.628183868015185,891.4144089410547,None,,,,,,,,,,,,,,,,,,,,,,,,,,,,,,,,,53,001,2023_Mar_13_1601,SpeechDraft1Carolyn_lessNoise_PlusLocalization,2021.2.3,59.92001639524581,
bake.wav,bake.mpg,bake,1,A,Pink_Noise_1_1.wav,Pink_Noise_1_2.wav,,,,,,,,,,,,,,,0,80,80,9,,,,,,,,,,,,,,,,,,,,,,,893.0644262770656,None,894.5807515559718,None,895.9643950809259,None,bake,895.9643950809259,None,return,1.2748039229772985,896.0477658968884,None,,,,,,,,,,,,,,,,,,,,,,,,,,,,,,,,,53,001,2023_Mar_13_1601,SpeechDraft1Carolyn_lessNoise_PlusLocalization,2021.2.3,59.92001639524581,
grasp.wav,grasp.mpg,grasp,2,A,Pink_Noise_2_1.wav,Pink_Noise_2_2.wav,,,,,,,,,,,,,,,0,81,81,53,,,,,,,,,,,,,,,,,,,,,,,897.3478100488428,None,898.8640628380235,None,900.2477928029839,None,grass,900.2477928029839,None,return,2.8714850209653378,900.3311427389272,None,,,,,,,,,,,,,,,,,,,,,,,,,,,,,,,,,53,001,2023_Mar_13_1601,SpeechDraft1Carolyn_lessNoise_PlusLocalization,2021.2.3,59.92001639524581,
break.wav,break.mpg,break,6,AV,Pink_Noise_6_1.wav,Pink_Noise_6_2.wav,,,,,,,,,,,,,,,0,82,82,111,,,,,,,,,,,,,,,,,,,,,,,903.2311849838588,None,904.7308054890018,None,906.1144539359957,None,"break
",906.1144539359957,None,return,1.8686975659802556,906.197896250058,None,,,,,,,,,,,,,,,,,,,,,,,,,,,,,,,,,53,001,2023_Mar_13_1601,SpeechDraft1Carolyn_lessNoise_PlusLocalization,2021.2.3,59.92001639524581,
glad.wav,glad.mpg,glad,2,A,Pink_Noise_2_1.wav,Pink_Noise_2_2.wav,,,,,,,,,,,,,,,0,83,83,18,,,,,,,,,,,,,,,,,,,,,,,908.0978730279021,None,909.5973764709197,None,910.9810470549855,None,"glad
",910.9810470549855,None,return,4.186078743077815,911.0645002669189,None,,,,,,,,,,,,,,,,,,,,,,,,,,,,,,,,,53,001,2023_Mar_13_1601,SpeechDraft1Carolyn_lessNoise_PlusLocalization,2021.2.3,59.92001639524581,
bulb.wav,bulb.mpg,bulb,5,A,Pink_Noise_5_1.wav,Pink_Noise_5_2.wav,,,,,,,,,,,,,,,0,84,84,55,,,,,,,,,,,,,,,,,,,,,,,915.2810981720686,None,916.7973819570616,None,918.1812879338395,None,"run
",918.1812879338395,None,return,2.1861015630420297,918.2644885538612,None,,,,,,,,,,,,,,,,,,,,,,,,,,,,,,,,,53,001,2023_Mar_13_1601,SpeechDraft1Carolyn_lessNoise_PlusLocalization,2021.2.3,59.92001639524581,
crust.wav,crust.mpg,crust,5,A,Pink_Noise_5_1.wav,Pink_Noise_5_2.wav,,,,,,,,,,,,,,,0,85,85,49,,,,,,,,,,,,,,,,,,,,,,,920.4811107758433,None,921.997380734887,None,923.3810517298989,None,class,923.3810517298989,None,return,1.1541456950362772,923.4644352369942,None,,,,,,,,,,,,,,,,,,,,,,,,,,,,,,,,,53,001,2023_Mar_13_1601,SpeechDraft1Carolyn_lessNoise_PlusLocalization,2021.2.3,59.92001639524581,
tense.wav,tense.mpg,tense,5,AV,Pink_Noise_5_1.wav,Pink_Noise_5_2.wav,,,,,,,,,,,,,,,0,86,86,114,,,,,,,,,,,,,,,,,,,,,,,924.6477536528837,None,926.1642859668937,None,927.5477271450218,None,test,927.5477271450218,None,return,2.2273675319738686,927.6311979149468,None,,,,,,,,,,,,,,,,,,,,,,,,,,,,,,,,,53,001,2023_Mar_13_1601,SpeechDraft1Carolyn_lessNoise_PlusLocalization,2021.2.3,59.92001639524581,
style.wav,style.mpg,style,1,AV,Pink_Noise_1_1.wav,Pink_Noise_1_2.wav,,,,,,,,,,,,,,,0,87,87,105,,,,,,,,,,,,,,,,,,,,,,,929.8811265858822,None,931.3974779460113,None,932.7811191158835,None,style,932.7811191158835,None,return,4.178023293148726,932.8645794959739,None,,,,,,,,,,,,,,,,,,,,,,,,,,,,,,,,,53,001,2023_Mar_13_1601,SpeechDraft1Carolyn_lessNoise_PlusLocalization,2021.2.3,59.92001639524581,
deal.wav,deal.mpg,deal,4,AV,Pink_Noise_4_1.wav,Pink_Noise_4_2.wav,,,,,,,,,,,,,,,0,88,88,98,,,,,,,,,,,,,,,,,,,,,,,937.0646121699829,None,938.5645795648452,None,939.9477574520279,None,steal,939.9477574520279,None,return,4.139519065152854,940.0312015400268,None,,,,,,,,,,,,,,,,,,,,,,,,,,,,,,,,,53,001,2023_Mar_13_1601,SpeechDraft1Carolyn_lessNoise_PlusLocalization,2021.2.3,59.92001639524581,
care.wav,care.mpg,care,4,A,Pink_Noise_4_1.wav,Pink_Noise_4_2.wav,,,,,,,,,,,,,,,0,89,89,12,,,,,,,,,,,,,,,,,,,,,,,944.1977552210446,None,945.6979191589635,None,947.0811491028871,None,hair,947.0811491028871,None,return,6.0939857580233365,947.1645953468978,None,,,,,,,,,,,,,,,,,,,,,,,,,,,,,,,,,53,001,2023_Mar_13_1601,SpeechDraft1Carolyn_lessNoise_PlusLocalization,2021.2.3,59.92001639524581,
awe.wav,awe.mpg,awe,3,AV,Pink_Noise_3_1.wav,Pink_Noise_3_2.wav,,,,,,,,,,,,,,,0,90,90,81,,,,,,,,,,,,,,,,,,,,,,,953.2811620149296,None,954.7975349088665,None,956.1810615758877,None,all,956.1810615758877,None,return,2.226098192157224,956.2645055949688,None,,,,,,,,,,,,,,,,,,,,,,,,,,,,,,,,,53,001,2023_Mar_13_1601,SpeechDraft1Carolyn_lessNoise_PlusLocalization,2021.2.3,59.92001639524581,
coil.wav,coil.mpg,coil,1,AV,Pink_Noise_1_1.wav,Pink_Noise_1_2.wav,,,,,,,,,,,,,,,0,91,91,74,,,,,,,,,,,,,,,,,,,,,,,958.5145183419809,None,960.0142634669319,None,961.3977610890288,None,coil,961.3977610890288,None,return,1.5774076499510556,961.4811989888549,None,,,,,,,,,,,,,,,,,,,,,,,,,,,,,,,,,53,001,2023_Mar_13_1601,SpeechDraft1Carolyn_lessNoise_PlusLocalization,2021.2.3,59.92001639524581,
crawl.wav,crawl.mpg,crawl,3,A,Pink_Noise_3_1.wav,Pink_Noise_3_2.wav,,,,,,,,,,,,,,,0,92,92,15,,,,,,,,,,,,,,,,,,,,,,,963.0811665719375,None,964.5975569940638,None,965.9811728198547,None,crawl,965.9811728198547,None,return,1.8901139898225665,966.0645676308777,None,,,,,,,,,,,,,,,,,,,,,,,,,,,,,,,,,53,001,2023_Mar_13_1601,SpeechDraft1Carolyn_lessNoise_PlusLocalization,2021.2.3,59.92001639524581,
bank.wav,bank.mpg,bank,6,AV,Pink_Noise_6_1.wav,Pink_Noise_6_2.wav,,,,,,,,,,,,,,,0,93,93,110,,,,,,,,,,,,,,,,,,,,,,,967.9811703329906,None,969.4827672189567,None,970.8645666679367,None,pain,970.8645666679367,None,return,5.0387517970521,970.9479084629565,None,,,,,,,,,,,,,,,,,,,,,,,,,,,,,,,,,53,001,2023_Mar_13_1601,SpeechDraft1Carolyn_lessNoise_PlusLocalization,2021.2.3,59.92001639524581,
cliff.wav,cliff.mpg,cliff,2,AV,Pink_Noise_2_1.wav,Pink_Noise_2_2.wav,,,,,,,,,,,,,,,0,94,94,63,,,,,,,,,,,,,,,,,,,,,,,976.0145824558567,None,977.5308991339989,None,978.9145483700559,None,cliff,978.9145483700559,None,return,6.476659159176052,978.9979353079107,None,,,,,,,,,,,,,,,,,,,,,,,,,,,,,,,,,53,001,2023_Mar_13_1601,SpeechDraft1Carolyn_lessNoise_PlusLocalization,2021.2.3,59.92001639524581,
fright.wav,fright.mpg,fright,3,A,Pink_Noise_3_1.wav,Pink_Noise_3_2.wav,,,,,,,,,,,,,,,0,95,95,51,,,,,,,,,,,,,,,,,,,,,,,985.4979146479163,None,987.0143039750401,None,988.3980425680056,None,"bright
",988.3980425680056,None,return,10.369382706936449,988.4812232200056,None,,,,,,,,,,,,,,,,,,,,,,,,,,,,,,,,,53,001,2023_Mar_13_1601,SpeechDraft1Carolyn_lessNoise_PlusLocalization,2021.2.3,59.92001639524581,
damn.wav,damn.mpg,damn,6,AV,Pink_Noise_6_1.wav,Pink_Noise_6_2.wav,,,,,,,,,,,,,,,0,96,96,112,,,,,,,,,,,,,,,,,,,,,,,998.8812542289961,None,1000.3977152160369,None,1001.7811249310616,None,dam,1001.7811249310616,None,return,4.706130425911397,1001.8645556978881,None,,,,,,,,,,,,,,,,,,,,,,,,,,,,,,,,,53,001,2023_Mar_13_1601,SpeechDraft1Carolyn_lessNoise_PlusLocalization,2021.2.3,59.92001639524581,
tank.wav,tank.mpg,tank,3,AV,Pink_Noise_3_1.wav,Pink_Noise_3_2.wav,,,,,,,,,,,,,,,0,97,97,102,,,,,,,,,,,,,,,,,,,,,,,1006.5979406989645,None,1008.114372361917,None,1009.4978173119016,None,tank,1009.4978173119016,None,return,4.237260113004595,1009.5813392130658,None,,,,,,,,,,,,,,,,,,,,,,,,,,,,,,,,,53,001,2023_Mar_13_1601,SpeechDraft1Carolyn_lessNoise_PlusLocalization,2021.2.3,59.92001639524581,
bath.wav,bath.mpg,bath,4,A,Pink_Noise_4_1.wav,Pink_Noise_4_2.wav,,,,,,,,,,,,,,,0,98,98,59,,,,,,,,,,,,,,,,,,,,,,,1013.8480024370365,None,1015.3643338039983,None,1016.7480498119257,None,idk,1016.7480498119257,None,return,7.12350729200989,1016.83126024995,None,,,,,,,,,,,,,,,,,,,,,,,,,,,,,,,,,53,001,2023_Mar_13_1601,SpeechDraft1Carolyn_lessNoise_PlusLocalization,2021.2.3,59.92001639524581,
flick.wav,flick.mpg,flick,6,A,Pink_Noise_6_1.wav,Pink_Noise_6_2.wav,,,,,,,,,,,,,,,0,99,99,11,,,,,,,,,,,,,,,,,,,,,,,1023.9813470540103,None,1025.4976744819432,None,1026.8812766619958,None,idk,1026.8812766619958,None,return,1.5901852149982005,1026.9645460478496,None,,,,,,,,,,,,,,,,,,,,,,,,,,,,,,,,,53,001,2023_Mar_13_1601,SpeechDraft1Carolyn_lessNoise_PlusLocalization,2021.2.3,59.92001639524581,
drip.wav,drip.mpg,drip,6,AV,Pink_Noise_6_1.wav,Pink_Noise_6_2.wav,,,,,,,,,,,,,,,0,100,100,104,,,,,,,,,,,,,,,,,,,,,,,1028.5813846809324,None,1030.0976931678597,None,1031.4812687628437,None,drip,1031.4812687628437,None,return,6.325926384888589,1031.564655069029,None,,,,,,,,,,,,,,,,,,,,,,,,,,,,,,,,,53,001,2023_Mar_13_1601,SpeechDraft1Carolyn_lessNoise_PlusLocalization,2021.2.3,59.92001639524581,
bark.wav,bark.mpg,bark,4,A,Pink_Noise_4_1.wav,Pink_Noise_4_2.wav,,,,,,,,,,,,,,,0,101,101,47,,,,,,,,,,,,,,,,,,,,,,,1037.91463746503,None,1039.4309937569778,None,1040.8145578890108,None,parl,1040.8145578890108,None,return,4.056806331966072,1040.8978942229878,None,,,,,,,,,,,,,,,,,,,,,,,,,,,,,,,,,53,001,2023_Mar_13_1601,SpeechDraft1Carolyn_lessNoise_PlusLocalization,2021.2.3,59.92001639524581,
fruit.wav,fruit.mpg,fruit,5,AV,Pink_Noise_5_1.wav,Pink_Noise_5_2.wav,,,,,,,,,,,,,,,0,102,102,88,,,,,,,,,,,,,,,,,,,,,,,1044.9813080599997,None,1046.4975871718489,None,1047.88126711105,None,struddle,1047.88126711105,None,return,13.797853501979262,1047.9647355109919,None,,,,,,,,,,,,,,,,,,,,,,,,,,,,,,,,,53,001,2023_Mar_13_1601,SpeechDraft1Carolyn_lessNoise_PlusLocalization,2021.2.3,59.92001639524581,
eight.wav,eight.mpg,eight,2,AV,Pink_Noise_2_1.wav,Pink_Noise_2_2.wav,,,,,,,,,,,,,,,0,103,103,97,,,,,,,,,,,,,,,,,,,,,,,1061.7813904969953,None,1063.2976947589777,None,1064.6813675400335,None,eight,1064.6813675400335,None,return,2.4779765082057565,1064.764607632067,None,,,,,,,,,,,,,,,,,,,,,,,,,,,,,,,,,53,001,2023_Mar_13_1601,SpeechDraft1Carolyn_lessNoise_PlusLocalization,2021.2.3,59.92001639524581,
feud.wav,feud.mpg,feud,5,A,Pink_Noise_5_1.wav,Pink_Noise_5_2.wav,,,,,,,,,,,,,,,0,104,104,27,,,,,,,,,,,,,,,,,,,,,,,1067.2647368649486,None,1068.765681088902,None,1070.1480064289644,None,jam,1070.1480064289644,None,return,1.299331366084516,1070.231343670981,None,,,,,,,,,,,,,,,,,,,,,,,,,,,,,,,,,53,001,2023_Mar_13_1601,SpeechDraft1Carolyn_lessNoise_PlusLocalization,2021.2.3,59.92001639524581,
goal.wav,goal.mpg,goal,3,AV,Pink_Noise_3_1.wav,Pink_Noise_3_2.wav,,,,,,,,,,,,,,,0,105,105,90,,,,,,,,,,,,,,,,,,,,,,,1071.5481150569394,None,1073.0644559259526,None,1074.4479735670611,None,goal,1074.4479735670611,None,return,5.863415417959914,1074.531330209924,None,,,,,,,,,,,,,,,,,,,,,,,,,,,,,,,,,53,001,2023_Mar_13_1601,SpeechDraft1Carolyn_lessNoise_PlusLocalization,2021.2.3,59.92001639524581,
fierce.wav,fierce.mpg,fierce,1,AV,Pink_Noise_1_1.wav,Pink_Noise_1_2.wav,,,,,,,,,,,,,,,0,106,106,65,,,,,,,,,,,,,,,,,,,,,,,1080.414751444012,None,1081.9310265919194,None,1083.3145463620313,None,fierce,1083.3145463620313,None,return,5.388626201078296,1083.3980239878874,None,,,,,,,,,,,,,,,,,,,,,,,,,,,,,,,,,53,001,2023_Mar_13_1601,SpeechDraft1Carolyn_lessNoise_PlusLocalization,2021.2.3,59.92001639524581,
crisp.wav,crisp.mpg,crisp,6,A,Pink_Noise_6_1.wav,Pink_Noise_6_2.wav,,,,,,,,,,,,,,,0,107,107,39,,,,,,,,,,,,,,,,,,,,,,,1088.8146752710454,None,1090.3310473829042,None,1091.714646002045,None,sticl,1091.714646002045,None,return,3.572655021911487,1091.7980185959022,None,,,,,,,,,,,,,,,,,,,,,,,,,,,,,,,,,53,001,2023_Mar_13_1601,SpeechDraft1Carolyn_lessNoise_PlusLocalization,2021.2.3,59.92001639524581,
dump.wav,dump.mpg,dump,5,A,Pink_Noise_5_1.wav,Pink_Noise_5_2.wav,,,,,,,,,,,,,,,0,108,108,8,,,,,,,,,,,,,,,,,,,,,,,1095.3980958019383,None,1096.9144369349815,None,1098.298168658046,None,dove,1098.298168658046,None,return,3.9812883569393307,1098.3813054549973,None,,,,,,,,,,,,,,,,,,,,,,,,,,,,,,,,,53,001,2023_Mar_13_1601,SpeechDraft1Carolyn_lessNoise_PlusLocalization,2021.2.3,59.92001639524581,
brew.wav,brew.mpg,brew,3,A,Pink_Noise_3_1.wav,Pink_Noise_3_2.wav,,,,,,,,,,,,,,,0,109,109,5,,,,,,,,,,,,,,,,,,,,,,,1102.3814487739,None,1103.8978094400372,None,1105.2814511118922,None,brew,1105.2814511118922,None,return,3.6778414810542017,1105.36477124691,None,,,,,,,,,,,,,,,,,,,,,,,,,,,,,,,,,53,001,2023_Mar_13_1601,SpeechDraft1Carolyn_lessNoise_PlusLocalization,2021.2.3,59.92001639524581,
folk.wav,folk.mpg,folk,2,AV,Pink_Noise_2_1.wav,Pink_Noise_2_2.wav,,,,,,,,,,,,,,,0,110,110,99,,,,,,,,,,,,,,,,,,,,,,,1109.0647964549717,None,1110.5811467240565,None,1111.9645631399471,None,"folk
",1111.9645631399471,None,return,16.202538101933897,1112.0480658540037,None,,,,,,,,,,,,,,,,,,,,,,,,,,,,,,,,,53,001,2023_Mar_13_1601,SpeechDraft1Carolyn_lessNoise_PlusLocalization,2021.2.3,59.92001639524581,
check.wav,check.mpg,check,4,AV,Pink_Noise_4_1.wav,Pink_Noise_4_2.wav,,,,,,,,,,,,,,,0,111,111,94,,,,,,,,,,,,,,,,,,,,,,,1128.2813992248848,None,1129.7977967760526,None,1131.181351175066,None,"check
",1131.181351175066,None,return,2.369792063953355,1131.2647983720526,None,,,,,,,,,,,,,,,,,,,,,,,,,,,,,,,,,53,001,2023_Mar_13_1601,SpeechDraft1Carolyn_lessNoise_PlusLocalization,2021.2.3,59.92001639524581,
food.wav,food.mpg,food,2,AV,Pink_Noise_2_1.wav,Pink_Noise_2_2.wav,,,,,,,,,,,,,,,0,112,112,66,,,,,,,,,,,,,,,,,,,,,,,1133.6648787760641,None,1135.1811947978567,None,1136.5645926250145,None,food,1136.5645926250145,None,return,1.0665794739034027,1136.6481254708488,None,,,,,,,,,,,,,,,,,,,,,,,,,,,,,,,,,53,001,2023_Mar_13_1601,SpeechDraft1Carolyn_lessNoise_PlusLocalization,2021.2.3,59.92001639524581,
vest.wav,vest.mpg,vest,5,AV,Pink_Noise_5_1.wav,Pink_Noise_5_2.wav,,,,,,,,,,,,,,,0,113,113,64,,,,,,,,,,,,,,,,,,,,,,,1137.7314248529729,None,1139.2478920158464,None,1140.6313896249048,None,fast,1140.6313896249048,None,return,1.007675588130951,1140.7148973909207,None,,,,,,,,,,,,,,,,,,,,,,,,,,,,,,,,,53,001,2023_Mar_13_1601,SpeechDraft1Carolyn_lessNoise_PlusLocalization,2021.2.3,59.92001639524581,
dig.wav,dig.mpg,dig,2,A,Pink_Noise_2_1.wav,Pink_Noise_2_2.wav,,,,,,,,,,,,,,,0,114,114,58,,,,,,,,,,,,,,,,,,,,,,,1141.7482243808918,None,1143.2644538530149,None,1144.6481714870315,None,"dig
",1144.6481714870315,None,return,1.3670968029182404,1144.7314918308984,None,,,,,,,,,,,,,,,,,,,,,,,,,,,,,,,,,53,001,2023_Mar_13_1601,SpeechDraft1Carolyn_lessNoise_PlusLocalization,2021.2.3,59.92001639524581,
fuel.wav,fuel.mpg,fuel,6,AV,Pink_Noise_6_1.wav,Pink_Noise_6_2.wav,,,,,,,,,,,,,,,0,115,115,73,,,,,,,,,,,,,,,,,,,,,,,1146.1314071018714,None,1147.6478252098896,None,1149.0312970189843,None,fool,1149.0312970189843,None,return,5.007833837997168,1149.1147710860241,None,,,,,,,,,,,,,,,,,,,,,,,,,,,,,,,,,53,001,2023_Mar_13_1601,SpeechDraft1Carolyn_lessNoise_PlusLocalization,2021.2.3,59.92001639524581,
thief.wav,thief.mpg,thief,6,A,Pink_Noise_6_1.wav,Pink_Noise_6_2.wav,,,,,,,,,,,,,,,0,116,116,2,,,,,,,,,,,,,,,,,,,,,,,1154.1480583059601,None,1155.6643623318523,None,1157.0481418310665,None,idk,1157.0481418310665,None,return,2.9591567059978843,1157.131446012063,None,,,,,,,,,,,,,,,,,,,,,,,,,,,,,,,,,53,001,2023_Mar_13_1601,SpeechDraft1Carolyn_lessNoise_PlusLocalization,2021.2.3,59.92001639524581,
greek.wav,greek.mpg,greek,1,A,Pink_Noise_1_1.wav,Pink_Noise_1_2.wav,,,,,,,,,,,,,,,0,117,117,17,,,,,,,,,,,,,,,,,,,,,,,1160.1148220289033,None,1161.6648853819352,None,1163.048135688994,None,"greek
",1163.048135688994,None,return,2.319139650091529,1163.1314649200067,None,,,,,,,,,,,,,,,,,,,,,,,,,,,,,,,,,53,001,2023_Mar_13_1601,SpeechDraft1Carolyn_lessNoise_PlusLocalization,2021.2.3,59.92001639524581,
dwell.wav,dwell.mpg,dwell,3,A,Pink_Noise_3_1.wav,Pink_Noise_3_2.wav,,,,,,,,,,,,,,,0,118,118,14,,,,,,,,,,,,,,,,,,,,,,,1165.481482113013,None,1166.9979241020046,None,1168.3815663999412,None,dwe;;,1168.3815663999412,None,return,2.9059308290015906,1168.4647268080153,None,,,,,,,,,,,,,,,,,,,,,,,,,,,,,,,,,53,001,2023_Mar_13_1601,SpeechDraft1Carolyn_lessNoise_PlusLocalization,2021.2.3,59.92001639524581,
three.wav,three.mpg,three,5,AV,Pink_Noise_5_1.wav,Pink_Noise_5_2.wav,,,,,,,,,,,,,,,0,119,119,86,,,,,,,,,,,,,,,,,,,,,,,1171.3982757600024,None,1172.9479002379812,None,1174.3314182269387,None,three,1174.3314182269387,None,return,1.1319019820075482,1174.4147505739238,None,,,,,,,,,,,,,,,,,,,,,,,,,,,,,,,,,53,001,2023_Mar_13_1601,SpeechDraft1Carolyn_lessNoise_PlusLocalization,2021.2.3,59.92001639524581,
,,,,,,,,,,,,,,,,,,,,,,,,,,,,,,,,,,,,,,,,,,,,,,,,,,,,,,,,,,,,,,,,,,space,19.689892819151282,1175.6647536249366,None,,,,,,,,,,,,,,,,,,,,,,,53,001,2023_Mar_13_1601,SpeechDraft1Carolyn_lessNoise_PlusLocalization,2021.2.3,59.92001639524581,
,,,,,,,,midLeft,-13.0,2,ch1Sound_localizationTask.wav,-13.0,"(762, 878)","(-198,-202)",-190,-338,,,,,,,,,0,0,0,1,,,,,,,,,,,,,,,,,,,,,,,,,,,,,,,,,,,,,,,,,,1175.6647536249366,None,1195.3979738769121,None,1196.497919990914,None,1197.4312376219314,None,1.204232804232804,4.153469810960814,1197.4312376219314,None,,,,,,,,,,,53,001,2023_Mar_13_1601,SpeechDraft1Carolyn_lessNoise_PlusLocalization,2021.2.3,59.92001639524581,
,,,,,,,,center,0.0,6,ch1Sound_localizationTask.wav,0.0,"(952, 878)","(-8,-202)",0,-338,,,,,,,,,0,1,1,3,,,,,,,,,,,,,,,,,,,,,,,,,,,,,,,,,,,,,,,,,,,,1201.5982247430366,None,1202.6978980328422,None,1203.6310668559745,None,1,2.0175837138667703,1203.6310668559745,None,,,,,,,,,,,53,001,2023_Mar_13_1601,SpeechDraft1Carolyn_lessNoise_PlusLocalization,2021.2.3,59.92001639524581,
,,,,,,,,nearLeft,-6.5,1,ch1Sound_localizationTask.wav,-6.5,"(857, 878)","(-103,-202)",-95,-338,,,,,,,,,0,2,2,2,,,,,,,,,,,,,,,,,,,,,,,,,,,,,,,,,,,,,,,,,,,,1205.664818949066,None,1206.7646166339982,None,1207.6979159649927,None,1.006878306878307,2.100656923139468,1207.6979159649927,None,,,,,,,,,,,53,001,2023_Mar_13_1601,SpeechDraft1Carolyn_lessNoise_PlusLocalization,2021.2.3,59.92001639524581,
,,,,,,,,nearLeft,-6.5,1,ch1Sound_localizationTask.wav,-6.5,"(857, 878)","(-103,-202)",-95,-338,,,,,,,,,0,3,3,2,,,,,,,,,,,,,,,,,,,,,,,,,,,,,,,,,,,,,,,,,,,,1209.814835316036,None,1210.9144287358504,None,1211.8479215549305,None,1,0.9004424130544066,1211.8479215549305,None,,,,,,,,,,,53,001,2023_Mar_13_1601,SpeechDraft1Carolyn_lessNoise_PlusLocalization,2021.2.3,59.92001639524581,
,,,,,,,,farRight,19.1,4,ch1Sound_localizationTask.wav,19.1,"(1237, 878)","(277,-202)",285,-338,,,,,,,,,0,4,4,6,,,,,,,,,,,,,,,,,,,,,,,,,,,,,,,,,,,,,,,,,,,,1212.748282759916,None,1213.8479736698791,None,1214.7812629840337,None,2,1.8989552611019462,1214.7812629840337,None,,,,,,,,,,,53,001,2023_Mar_13_1601,SpeechDraft1Carolyn_lessNoise_PlusLocalization,2021.2.3,59.92001639524581,
,,,,,,,,farLeft,-19.1,5,ch1Sound_localizationTask.wav,-19.1,"(667, 878)","(-293,-202)",-285,-338,,,,,,,,,0,5,5,0,,,,,,,,,,,,,,,,,,,,,,,,,,,,,,,,,,,,,,,,,,,,1216.681998213986,None,1217.7812501909211,None,1218.7145140659995,None,1,2.034194336971268,1218.7145140659995,None,,,,,,,,,,,53,001,2023_Mar_13_1601,SpeechDraft1Carolyn_lessNoise_PlusLocalization,2021.2.3,59.92001639524581,
,,,,,,,,center,0.0,6,ch1Sound_localizationTask.wav,0.0,"(952, 878)","(-8,-202)",0,-338,,,,,,,,,0,6,6,3,,,,,,,,,,,,,,,,,,,,,,,,,,,,,,,,,,,,,,,,,,,,1220.7649793128949,None,1221.8646272278856,None,1222.7978765750304,None,1.4957671957671956,1.867291570873931,1222.7978765750304,None,,,,,,,,,,,53,001,2023_Mar_13_1601,SpeechDraft1Carolyn_lessNoise_PlusLocalization,2021.2.3,59.92001639524581,
,,,,,,,,midLeft,-13.0,2,ch1Sound_localizationTask.wav,-13.0,"(762, 878)","(-198,-202)",-190,-338,,,,,,,,,1,0,7,1,,,,,,,,,,,,,,,,,,,,,,,,,,,,,,,,,,,,,,,,,,,,1224.681403539842,None,1225.7812067838386,None,1226.714557392057,None,1.21005291005291,1.2666107867844403,1226.714557392057,None,,,,,,,,,,,53,001,2023_Mar_13_1601,SpeechDraft1Carolyn_lessNoise_PlusLocalization,2021.2.3,59.92001639524581,
,,,,,,,,farRight,19.1,4,ch1Sound_localizationTask.wav,19.1,"(1237, 878)","(277,-202)",285,-338,,,,,,,,,1,1,8,6,,,,,,,,,,,,,,,,,,,,,,,,,,,,,,,,,,,,,,,,,,,,1227.9824821120128,None,1229.0980481440201,None,1230.0145191720221,None,1.7915343915343915,0.9498152409214526,1230.0145191720221,None,,,,,,,,,,,53,001,2023_Mar_13_1601,SpeechDraft1Carolyn_lessNoise_PlusLocalization,2021.2.3,59.92001639524581,
,,,,,,,,nearRight,6.5,0,ch1Sound_localizationTask.wav,6.5,"(1047, 878)","(87, -202)",95,-338,,,,,,,,,1,2,9,4,,,,,,,,,,,,,,,,,,,,,,,,,,,,,,,,,,,,,,,,,,,,1230.981622967869,None,1232.0812197078485,None,1233.0146444400307,None,1.5158730158730158,1.133506956975907,1233.0146444400307,None,,,,,,,,,,,53,001,2023_Mar_13_1601,SpeechDraft1Carolyn_lessNoise_PlusLocalization,2021.2.3,59.92001639524581,
,,,,,,,,midRight,13.0,3,ch1Sound_localizationTask.wav,13.0,"(1142, 878)","(182, -202)",190,-338,,,,,,,,,1,3,10,5,,,,,,,,,,,,,,,,,,,,,,,,,,,,,,,,,,,,,,,,,,,,1234.1493972039316,None,1235.2645948829595,None,1236.1813039819244,None,1.6201058201058203,1.049622726161033,1236.1813039819244,None,,,,,,,,,,,53,001,2023_Mar_13_1601,SpeechDraft1Carolyn_lessNoise_PlusLocalization,2021.2.3,59.92001639524581,
,,,,,,,,midRight,13.0,3,ch1Sound_localizationTask.wav,13.0,"(1142, 878)","(182, -202)",190,-338,,,,,,,,,1,4,11,5,,,,,,,,,,,,,,,,,,,,,,,,,,,,,,,,,,,,,,,,,,,,1237.2315569990315,None,1238.3312648220453,None,1239.2646748358384,None,1.7015873015873015,0.7986421450041234,1239.2646748358384,None,,,,,,,,,,,53,001,2023_Mar_13_1601,SpeechDraft1Carolyn_lessNoise_PlusLocalization,2021.2.3,59.92001639524581,
,,,,,,,,farRight,19.1,4,ch1Sound_localizationTask.wav,19.1,"(1237, 878)","(277,-202)",285,-338,,,,,,,,,1,5,12,6,,,,,,,,,,,,,,,,,,,,,,,,,,,,,,,,,,,,,,,,,,,,1240.064961623866,None,1241.16467268602,None,1242.0979756489396,None,1.7693121693121694,0.9330718331038952,1242.0979756489396,None,,,,,,,,,,,53,001,2023_Mar_13_1601,SpeechDraft1Carolyn_lessNoise_PlusLocalization,2021.2.3,59.92001639524581,
,,,,,,,,farRight,19.1,4,ch1Sound_localizationTask.wav,19.1,"(1237, 878)","(277,-202)",285,-338,,,,,,,,,1,6,13,6,,,,,,,,,,,,,,,,,,,,,,,,,,,,,,,,,,,,,,,,,,,,1243.0482432988938,None,1244.1479401378892,None,1245.0815464810003,None,1.7116402116402116,0.7965470729395747,1245.0815464810003,None,,,,,,,,,,,53,001,2023_Mar_13_1601,SpeechDraft1Carolyn_lessNoise_PlusLocalization,2021.2.3,59.92001639524581,
,,,,,,,,nearLeft,-6.5,1,ch1Sound_localizationTask.wav,-6.5,"(857, 878)","(-103,-202)",-95,-338,,,,,,,,,2,0,14,2,,,,,,,,,,,,,,,,,,,,,,,,,,,,,,,,,,,,,,,,,,,,1245.8982431069016,None,1246.9979117738549,None,1247.931402083952,None,1.1724867724867725,1.0000549640972167,1247.931402083952,None,,,,,,,,,,,53,001,2023_Mar_13_1601,SpeechDraft1Carolyn_lessNoise_PlusLocalization,2021.2.3,59.92001639524581,
,,,,,,,,farRight,19.1,4,ch1Sound_localizationTask.wav,19.1,"(1237, 878)","(277,-202)",285,-338,,,,,,,,,2,1,15,6,,,,,,,,,,,,,,,,,,,,,,,,,,,,,,,,,,,,,,,,,,,,1248.9323010400403,None,1250.0314043068793,None,1250.9647887728643,None,1.6957671957671958,1.2333606770262122,1250.9647887728643,None,,,,,,,,,,,53,001,2023_Mar_13_1601,SpeechDraft1Carolyn_lessNoise_PlusLocalization,2021.2.3,59.92001639524581,
,,,,,,,,farLeft,-19.1,5,ch1Sound_localizationTask.wav,-19.1,"(667, 878)","(-293,-202)",-285,-338,,,,,,,,,2,2,16,0,,,,,,,,,,,,,,,,,,,,,,,,,,,,,,,,,,,,,,,,,,,,1252.2152832120191,None,1253.3147226260044,None,1254.2479116588365,None,1.1232804232804234,0.7162460340186954,1254.2479116588365,None,,,,,,,,,,,53,001,2023_Mar_13_1601,SpeechDraft1Carolyn_lessNoise_PlusLocalization,2021.2.3,59.92001639524581,
,,,,,,,,nearRight,6.5,0,ch1Sound_localizationTask.wav,6.5,"(1047, 878)","(87, -202)",95,-338,,,,,,,,,2,3,17,4,,,,,,,,,,,,,,,,,,,,,,,,,,,,,,,,,,,,,,,,,,,,1254.9652074819896,None,1256.0646430130582,None,1256.9979881639592,None,1.5756613756613755,0.8333348778542131,1256.9979881639592,None,,,,,,,,,,,53,001,2023_Mar_13_1601,SpeechDraft1Carolyn_lessNoise_PlusLocalization,2021.2.3,59.92001639524581,
,,,,,,,,nearLeft,-6.5,1,ch1Sound_localizationTask.wav,-6.5,"(857, 878)","(-103,-202)",-95,-338,,,,,,,,,2,4,18,2,,,,,,,,,,,,,,,,,,,,,,,,,,,,,,,,,,,,,,,,,,,,1257.8323987449985,None,1258.9312805039808,None,1259.8645503630396,None,1.3433862433862434,0.799430072074756,1259.8645503630396,None,,,,,,,,,,,53,001,2023_Mar_13_1601,SpeechDraft1Carolyn_lessNoise_PlusLocalization,2021.2.3,59.92001639524581,
,,,,,,,,nearLeft,-6.5,1,ch1Sound_localizationTask.wav,-6.5,"(857, 878)","(-103,-202)",-95,-338,,,,,,,,,2,5,19,2,,,,,,,,,,,,,,,,,,,,,,,,,,,,,,,,,,,,,,,,,,,,1260.6650365169626,None,1261.7646197609138,None,1262.6979856649414,None,1.2740740740740741,0.7660645209252834,1262.6979856649414,None,,,,,,,,,,,53,001,2023_Mar_13_1601,SpeechDraft1Carolyn_lessNoise_PlusLocalization,2021.2.3,59.92001639524581,
,,,,,,,,farLeft,-19.1,5,ch1Sound_localizationTask.wav,-19.1,"(667, 878)","(-293,-202)",-285,-338,,,,,,,,,2,6,20,0,,,,,,,,,,,,,,,,,,,,,,,,,,,,,,,,,,,,,,,,,,,,1263.4650524780154,None,1264.5645441350061,None,1265.4979999109637,None,1.1788359788359788,0.6831920398399234,1265.4979999109637,None,,,,,,,,,,,53,001,2023_Mar_13_1601,SpeechDraft1Carolyn_lessNoise_PlusLocalization,2021.2.3,59.92001639524581,
,,,,,,,,farRight,19.1,4,ch1Sound_localizationTask.wav,19.1,"(1237, 878)","(277,-202)",285,-338,,,,,,,,,3,0,21,6,,,,,,,,,,,,,,,,,,,,,,,,,,,,,,,,,,,,,,,,,,,,1266.1820184490643,None,1267.2814457360655,None,1268.2147177599836,None,1.8158730158730159,0.9003688360098749,1268.2147177599836,None,,,,,,,,,,,53,001,2023_Mar_13_1601,SpeechDraft1Carolyn_lessNoise_PlusLocalization,2021.2.3,59.92001639524581,
,,,,,,,,midRight,13.0,3,ch1Sound_localizationTask.wav,13.0,"(1142, 878)","(182, -202)",190,-338,,,,,,,,,3,1,22,5,,,,,,,,,,,,,,,,,,,,,,,,,,,,,,,,,,,,,,,,,,,,1269.1162803629413,None,1270.2312984520104,None,1271.1479929559864,None,1.5677248677248676,0.8000076371245086,1271.1479929559864,None,,,,,,,,,,,53,001,2023_Mar_13_1601,SpeechDraft1Carolyn_lessNoise_PlusLocalization,2021.2.3,59.92001639524581,
,,,,,,,,center,0.0,6,ch1Sound_localizationTask.wav,0.0,"(952, 878)","(-8,-202)",0,-338,,,,,,,,,3,2,23,3,,,,,,,,,,,,,,,,,,,,,,,,,,,,,,,,,,,,,,,,,,,,1271.9486453379504,None,1273.0479572159238,None,1273.981266449904,None,1.5047619047619047,0.9659035119693726,1273.981266449904,None,,,,,,,,,,,53,001,2023_Mar_13_1601,SpeechDraft1Carolyn_lessNoise_PlusLocalization,2021.2.3,59.92001639524581,
,,,,,,,,midLeft,-13.0,2,ch1Sound_localizationTask.wav,-13.0,"(762, 878)","(-198,-202)",-190,-338,,,,,,,,,3,3,24,1,,,,,,,,,,,,,,,,,,,,,,,,,,,,,,,,,,,,,,,,,,,,1274.964820872061,None,1276.064629857894,None,1276.9814360130113,None,1.1994708994708994,0.9833272488322109,1276.9814360130113,None,,,,,,,,,,,53,001,2023_Mar_13_1601,SpeechDraft1Carolyn_lessNoise_PlusLocalization,2021.2.3,59.92001639524581,
,,,,,,,,nearRight,6.5,0,ch1Sound_localizationTask.wav,6.5,"(1047, 878)","(87, -202)",95,-338,,,,,,,,,3,4,25,4,,,,,,,,,,,,,,,,,,,,,,,,,,,,,,,,,,,,,,,,,,,,1277.965350612998,None,1279.0646303449757,None,1279.9981066570617,None,1.4994708994708994,1.1162928130943328,1279.9981066570617,None,,,,,,,,,,,53,001,2023_Mar_13_1601,SpeechDraft1Carolyn_lessNoise_PlusLocalization,2021.2.3,59.92001639524581,
,,,,,,,,center,0.0,6,ch1Sound_localizationTask.wav,0.0,"(952, 878)","(-8,-202)",0,-338,,,,,,,,,3,5,26,3,,,,,,,,,,,,,,,,,,,,,,,,,,,,,,,,,,,,,,,,,,,,1281.1152393498924,None,1282.2146752059925,None,1283.148081857944,None,1.425925925925926,1.732645639916882,1283.148081857944,None,,,,,,,,,,,53,001,2023_Mar_13_1601,SpeechDraft1Carolyn_lessNoise_PlusLocalization,2021.2.3,59.92001639524581,
,,,,,,,,midLeft,-13.0,2,ch1Sound_localizationTask.wav,-13.0,"(762, 878)","(-198,-202)",-190,-338,,,,,,,,,3,6,27,1,,,,,,,,,,,,,,,,,,,,,,,,,,,,,,,,,,,,,,,,,,,,1284.881656036945,None,1285.981288641924,None,1286.9146696629468,None,1.3375661375661376,0.7503621091600507,1286.9146696629468,None,,,,,,,,,,,53,001,2023_Mar_13_1601,SpeechDraft1Carolyn_lessNoise_PlusLocalization,2021.2.3,59.92001639524581,
,,,,,,,,farRight,19.1,4,ch1Sound_localizationTask.wav,19.1,"(1237, 878)","(277,-202)",285,-338,,,,,,,,,4,0,28,6,,,,,,,,,,,,,,,,,,,,,,,,,,,,,,,,,,,,,,,,,,,,1287.6817058739252,None,1288.7814354458824,None,1289.7146394459996,None,1.7126984126984128,0.9842803929932415,1289.7146394459996,None,,,,,,,,,,,53,001,2023_Mar_13_1601,SpeechDraft1Carolyn_lessNoise_PlusLocalization,2021.2.3,59.92001639524581,
,,,,,,,,nearLeft,-6.5,1,ch1Sound_localizationTask.wav,-6.5,"(857, 878)","(-103,-202)",-95,-338,,,,,,,,,4,1,29,2,,,,,,,,,,,,,,,,,,,,,,,,,,,,,,,,,,,,,,,,,,,,1290.7150570489466,None,1291.8146941440646,None,1292.7480431268923,None,1.3507936507936509,1.451175332069397,1292.7480431268923,None,,,,,,,,,,,53,001,2023_Mar_13_1601,SpeechDraft1Carolyn_lessNoise_PlusLocalization,2021.2.3,59.92001639524581,
,,,,,,,,midLeft,-13.0,2,ch1Sound_localizationTask.wav,-13.0,"(762, 878)","(-198,-202)",-190,-338,,,,,,,,,4,2,30,1,,,,,,,,,,,,,,,,,,,,,,,,,,,,,,,,,,,,,,,,,,,,1294.2151007440407,None,1295.3146766719874,None,1296.2480156789534,None,1.276190476190476,0.6825535288080573,1296.2480156789534,None,,,,,,,,,,,53,001,2023_Mar_13_1601,SpeechDraft1Carolyn_lessNoise_PlusLocalization,2021.2.3,59.92001639524581,
,,,,,,,,midLeft,-13.0,2,ch1Sound_localizationTask.wav,-13.0,"(762, 878)","(-198,-202)",-190,-338,,,,,,,,,4,3,31,1,,,,,,,,,,,,,,,,,,,,,,,,,,,,,,,,,,,,,,,,,,,,1296.9325770388823,None,1298.031399742933,None,1298.9646782539785,None,1.2788359788359789,0.549875546945259,1298.9646782539785,None,,,,,,,,,,,53,001,2023_Mar_13_1601,SpeechDraft1Carolyn_lessNoise_PlusLocalization,2021.2.3,59.92001639524581,
,,,,,,,,midRight,13.0,3,ch1Sound_localizationTask.wav,13.0,"(1142, 878)","(182, -202)",190,-338,,,,,,,,,4,4,32,5,,,,,,,,,,,,,,,,,,,,,,,,,,,,,,,,,,,,,,,,,,,,1299.5153019980062,None,1300.6146648209542,None,1301.5480511470232,None,1.6492063492063491,0.6834366249386221,1301.5480511470232,None,,,,,,,,,,,53,001,2023_Mar_13_1601,SpeechDraft1Carolyn_lessNoise_PlusLocalization,2021.2.3,59.92001639524581,
,,,,,,,,nearLeft,-6.5,1,ch1Sound_localizationTask.wav,-6.5,"(857, 878)","(-103,-202)",-95,-338,,,,,,,,,4,5,33,2,,,,,,,,,,,,,,,,,,,,,,,,,,,,,,,,,,,,,,,,,,,,1302.2328552019317,None,1303.348073199857,None,1304.2645844679791,None,1.3031746031746032,0.9014529741834849,1304.2645844679791,None,,,,,,,,,,,53,001,2023_Mar_13_1601,SpeechDraft1Carolyn_lessNoise_PlusLocalization,2021.2.3,59.92001639524581,
,,,,,,,,farLeft,-19.1,5,ch1Sound_localizationTask.wav,-19.1,"(667, 878)","(-293,-202)",-285,-338,,,,,,,,,4,6,34,0,,,,,,,,,,,,,,,,,,,,,,,,,,,,,,,,,,,,,,,,,,,,1305.1818211670034,None,1306.281413703924,None,1307.214624379063,None,1.2121693121693122,0.8845984051004052,1307.214624379063,None,,,,,,,,,,,53,001,2023_Mar_13_1601,SpeechDraft1Carolyn_lessNoise_PlusLocalization,2021.2.3,59.92001639524581,
,,,,,,,,farLeft,-19.1,5,ch1Sound_localizationTask.wav,-19.1,"(667, 878)","(-293,-202)",-285,-338,,,,,,,,,5,0,35,0,,,,,,,,,,,,,,,,,,,,,,,,,,,,,,,,,,,,,,,,,,,,1308.1150287580676,None,1309.2146732248366,None,1310.148151434958,None,1.2523809523809524,0.5646048751659691,1310.148151434958,None,,,,,,,,,,,53,001,2023_Mar_13_1601,SpeechDraft1Carolyn_lessNoise_PlusLocalization,2021.2.3,59.92001639524581,
,,,,,,,,center,0.0,6,ch1Sound_localizationTask.wav,0.0,"(952, 878)","(-8,-202)",0,-338,,,,,,,,,5,1,36,3,,,,,,,,,,,,,,,,,,,,,,,,,,,,,,,,,,,,,,,,,,,,1310.71594000794,None,1311.8147187680006,None,1312.7480931389146,None,1.4878306878306877,0.9511080840602517,1312.7480931389146,None,,,,,,,,,,,53,001,2023_Mar_13_1601,SpeechDraft1Carolyn_lessNoise_PlusLocalization,2021.2.3,59.92001639524581,
,,,,,,,,midLeft,-13.0,2,ch1Sound_localizationTask.wav,-13.0,"(762, 878)","(-198,-202)",-190,-338,,,,,,,,,5,2,37,1,,,,,,,,,,,,,,,,,,,,,,,,,,,,,,,,,,,,,,,,,,,,1313.7150743729435,None,1314.814737773966,None,1315.74804421491,None,1.319047619047619,0.5505592038389295,1315.74804421491,None,,,,,,,,,,,53,001,2023_Mar_13_1601,SpeechDraft1Carolyn_lessNoise_PlusLocalization,2021.2.3,59.92001639524581,
,,,,,,,,nearRight,6.5,0,ch1Sound_localizationTask.wav,6.5,"(1047, 878)","(87, -202)",95,-338,,,,,,,,,5,3,38,4,,,,,,,,,,,,,,,,,,,,,,,,,,,,,,,,,,,,,,,,,,,,1316.3150648439769,None,1317.4146982389502,None,1318.3481485559605,None,1.5386243386243388,1.1658210409805179,1318.3481485559605,None,,,,,,,,,,,53,001,2023_Mar_13_1601,SpeechDraft1Carolyn_lessNoise_PlusLocalization,2021.2.3,59.92001639524581,
,,,,,,,,farLeft,-19.1,5,ch1Sound_localizationTask.wav,-19.1,"(667, 878)","(-293,-202)",-285,-338,,,,,,,,,5,4,39,0,,,,,,,,,,,,,,,,,,,,,,,,,,,,,,,,,,,,,,,,,,,,1319.5149828640278,None,1320.6147848358378,None,1321.5480774559546,None,1.2507936507936508,0.5845542810857296,1321.5480774559546,None,,,,,,,,,,,53,001,2023_Mar_13_1601,SpeechDraft1Carolyn_lessNoise_PlusLocalization,2021.2.3,59.92001639524581,
,,,,,,,,center,0.0,6,ch1Sound_localizationTask.wav,0.0,"(952, 878)","(-8,-202)",0,-338,,,,,,,,,5,5,40,3,,,,,,,,,,,,,,,,,,,,,,,,,,,,,,,,,,,,,,,,,,,,1322.1484169608448,None,1323.2480598578695,None,1324.1819456850644,None,1.506878306878307,0.8811238708440214,1324.1819456850644,None,,,,,,,,,,,53,001,2023_Mar_13_1601,SpeechDraft1Carolyn_lessNoise_PlusLocalization,2021.2.3,59.92001639524581,
,,,,,,,,midRight,13.0,3,ch1Sound_localizationTask.wav,13.0,"(1142, 878)","(182, -202)",190,-338,,,,,,,,,5,6,41,5,,,,,,,,,,,,,,,,,,,,,,,,,,,,,,,,,,,,,,,,,,,,1325.0651542779524,None,1326.164715705905,None,1327.0980759169906,None,1.7243386243386243,0.9661968110594898,1327.0980759169906,None,,,,,,,,,,,53,001,2023_Mar_13_1601,SpeechDraft1Carolyn_lessNoise_PlusLocalization,2021.2.3,59.92001639524581,
,,,,,,,,nearRight,6.5,0,ch1Sound_localizationTask.wav,6.5,"(1047, 878)","(87, -202)",95,-338,,,,,,,,,6,0,42,4,,,,,,,,,,,,,,,,,,,,,,,,,,,,,,,,,,,,,,,,,,,,1328.0662174308673,None,1329.1814568990376,None,1330.0979490729515,None,1.4968253968253968,0.8331350821536034,1330.0979490729515,None,,,,,,,,,,,53,001,2023_Mar_13_1601,SpeechDraft1Carolyn_lessNoise_PlusLocalization,2021.2.3,59.92001639524581,
,,,,,,,,nearRight,6.5,0,ch1Sound_localizationTask.wav,6.5,"(1047, 878)","(87, -202)",95,-338,,,,,,,,,6,1,43,4,,,,,,,,,,,,,,,,,,,,,,,,,,,,,,,,,,,,,,,,,,,,1330.9484408958815,None,1332.0481132338755,None,1332.981250203913,None,1.506878306878307,0.6825472570490092,1332.981250203913,None,,,,,,,,,,,53,001,2023_Mar_13_1601,SpeechDraft1Carolyn_lessNoise_PlusLocalization,2021.2.3,59.92001639524581,
,,,,,,,,center,0.0,6,ch1Sound_localizationTask.wav,0.0,"(952, 878)","(-8,-202)",0,-338,,,,,,,,,6,2,44,3,,,,,,,,,,,,,,,,,,,,,,,,,,,,,,,,,,,,,,,,,,,,1333.6650426730048,None,1334.7646573910024,None,1335.6981074400246,None,1.5031746031746032,0.5501372881699353,1335.6981074400246,None,,,,,,,,,,,53,001,2023_Mar_13_1601,SpeechDraft1Carolyn_lessNoise_PlusLocalization,2021.2.3,59.92001639524581,
,,,,,,,,nearRight,6.5,0,ch1Sound_localizationTask.wav,6.5,"(1047, 878)","(87, -202)",95,-338,,,,,,,,,6,3,45,4,,,,,,,,,,,,,,,,,,,,,,,,,,,,,,,,,,,,,,,,,,,,1336.2486332189292,None,1337.3481081810314,None,1338.281472187955,None,1.5243386243386243,0.5522592489141971,1338.281472187955,None,,,,,,,,,,,53,001,2023_Mar_13_1601,SpeechDraft1Carolyn_lessNoise_PlusLocalization,2021.2.3,59.92001639524581,
,,,,,,,,midRight,13.0,3,ch1Sound_localizationTask.wav,13.0,"(1142, 878)","(182, -202)",190,-338,,,,,,,,,6,4,46,5,,,,,,,,,,,,,,,,,,,,,,,,,,,,,,,,,,,,,,,,,,,,1338.8483932199888,None,1339.9480787499342,None,1340.8814053889364,None,1.7423280423280423,0.8179264909122139,1340.8814053889364,None,,,,,,,,,,,53,001,2023_Mar_13_1601,SpeechDraft1Carolyn_lessNoise_PlusLocalization,2021.2.3,59.92001639524581,
,,,,,,,,nearRight,6.5,0,ch1Sound_localizationTask.wav,6.5,"(1047, 878)","(87, -202)",95,-338,,,,,,,,,6,5,47,4,,,,,,,,,,,,,,,,,,,,,,,,,,,,,,,,,,,,,,,,,,,,1341.7151808789931,None,1342.8147697199602,None,1343.7481066230685,None,1.546031746031746,0.6994422639254481,1343.7481066230685,None,,,,,,,,,,,53,001,2023_Mar_13_1601,SpeechDraft1Carolyn_lessNoise_PlusLocalization,2021.2.3,59.92001639524581,
,,,,,,,,nearLeft,-6.5,1,ch1Sound_localizationTask.wav,-6.5,"(857, 878)","(-103,-202)",-95,-338,,,,,,,,,6,6,48,2,,,,,,,,,,,,,,,,,,,,,,,,,,,,,,,,,,,,,,,,,,,,1344.448470766889,None,1345.548174798023,None,1346.4814431958366,None,1.3465608465608465,0.7851947948802263,1346.4814431958366,None,,,,,,,,,,,53,001,2023_Mar_13_1601,SpeechDraft1Carolyn_lessNoise_PlusLocalization,2021.2.3,59.92001639524581,
,,,,,,,,farLeft,-19.1,5,ch1Sound_localizationTask.wav,-19.1,"(667, 878)","(-293,-202)",-285,-338,,,,,,,,,7,0,49,0,,,,,,,,,,,,,,,,,,,,,,,,,,,,,,,,,,,,,,,,,,,,1347.281676193932,None,1348.3814499059226,None,1349.3147468869574,None,1.2190476190476192,0.7514568609185517,1349.3147468869574,None,,,,,,,,,,,53,001,2023_Mar_13_1601,SpeechDraft1Carolyn_lessNoise_PlusLocalization,2021.2.3,59.92001639524581,
,,,,,,,,midRight,13.0,3,ch1Sound_localizationTask.wav,13.0,"(1142, 878)","(182, -202)",190,-338,,,,,,,,,7,1,50,5,,,,,,,,,,,,,,,,,,,,,,,,,,,,,,,,,,,,,,,,,,,,1350.081727298908,None,1351.1814254380297,None,1352.114623670932,None,1.6486772486772487,1.5158543610014021,1352.114623670932,None,,,,,,,,,,,53,001,2023_Mar_13_1601,SpeechDraft1Carolyn_lessNoise_PlusLocalization,2021.2.3,59.92001639524581,
,,,,,,,,farLeft,-19.1,5,ch1Sound_localizationTask.wav,-19.1,"(667, 878)","(-293,-202)",-285,-338,,,,,,,,,7,2,51,0,,,,,,,,,,,,,,,,,,,,,,,,,,,,,,,,,,,,,,,,,,,,1353.6321954119485,None,1354.7314569889568,None,1355.664691326907,None,1.2433862433862433,0.8176715038716793,1355.664691326907,None,,,,,,,,,,,53,001,2023_Mar_13_1601,SpeechDraft1Carolyn_lessNoise_PlusLocalization,2021.2.3,59.92001639524581,
,,,,,,,,midLeft,-13.0,2,ch1Sound_localizationTask.wav,-13.0,"(762, 878)","(-198,-202)",-190,-338,,,,,,,,,7,3,52,1,,,,,,,,,,,,,,,,,,,,,,,,,,,,,,,,,,,,,,,,,,,,1356.4983518479858,None,1357.5982211548835,None,1358.531407685019,None,1.3968253968253967,0.7333321170881391,1358.531407685019,None,,,,,,,,,,,53,001,2023_Mar_13_1601,SpeechDraft1Carolyn_lessNoise_PlusLocalization,2021.2.3,59.92001639524581,
,,,,,,,,center,0.0,6,ch1Sound_localizationTask.wav,0.0,"(952, 878)","(-8,-202)",0,-338,,,,,,,,,7,4,53,3,,,,,,,,,,,,,,,,,,,,,,,,,,,,,,,,,,,,,,,,,,,,1359.2660212519113,None,1360.3647979940288,None,1361.2981577948667,None,1.4730158730158731,0.9495646881405264,1361.2981577948667,None,,,,,,,,,,,53,001,2023_Mar_13_1601,SpeechDraft1Carolyn_lessNoise_PlusLocalization,2021.2.3,59.92001639524581,
,,,,,,,,farRight,19.1,4,ch1Sound_localizationTask.wav,19.1,"(1237, 878)","(277,-202)",285,-338,,,,,,,,,7,5,54,6,,,,,,,,,,,,,,,,,,,,,,,,,,,,,,,,,,,,,,,,,,,,1362.2493700268678,None,1363.3482152780052,None,1364.2815302128438,None,1.664021164021164,0.6159803681075573,1364.2815302128438,None,,,,,,,,,,,53,001,2023_Mar_13_1601,SpeechDraft1Carolyn_lessNoise_PlusLocalization,2021.2.3,59.92001639524581,
,,,,,,,,midRight,13.0,3,ch1Sound_localizationTask.wav,13.0,"(1142, 878)","(182, -202)",190,-338,,,,,,,,,7,6,55,5,,,,,,,,,,,,,,,,,,,,,,,,,,,,,,,,,,,,,,,,,,,,1364.8985765459947,None,1365.9981533838436,None,1366.9314540089108,None,1.5772486772486771,0.6165674638468772,1366.9314540089108,None,,,,,,,,,,,53,001,2023_Mar_13_1601,SpeechDraft1Carolyn_lessNoise_PlusLocalization,2021.2.3,59.92001639524581,
,,,,,,,,,,,,,,,,,,,,,,,,,,,,,,,,,,,,,,,,,,,,,,,,,,,,,,,,,,,,,,,,,,,,,,,,,,,,,,,,,,space,28.96283031720668,1367.6318608359434,None,,,,,,,53,001,2023_Mar_13_1601,SpeechDraft1Carolyn_lessNoise_PlusLocalization,2021.2.3,59.92001639524581,
,,,,,,,,farRight,19.1,4,ch1Sound_localizationTask.wav,19.1,"(1237, 878)","(277,-202)",285,-338,,,,,,,,,,,,,0,0,0,6,,,,,,,,,,,,,,,,,,,,,,,,,,,,,,,,,,,,,,,,1396.631736787036,None,,,1399.6648576499429,None,1.6708994708994709,1.1865945279132575,1399.6648576499429,None,,,,,1367.6318608359434,None,1397.631773125846,None,1397.8150294718798,1397.8318562000059,53,001,2023_Mar_13_1601,SpeechDraft1Carolyn_lessNoise_PlusLocalization,2021.2.3,59.92001639524581,
,,,,,,,,nearLeft,-6.5,1,ch1Sound_localizationTask.wav,-6.5,"(857, 878)","(-103,-202)",-95,-338,,,,,,,,,,,,,0,1,1,2,,,,,,,,,,,,,,,,,,,,,,,,,,,,,,,,,,,,,,,,1400.8490338800475,None,,,1403.8648105890024,None,1.4285714285714286,0.9815391500014812,1403.8648105890024,None,,,,,,,1401.8485170609783,None,1402.0317867049016,1402.048461131053,53,001,2023_Mar_13_1601,SpeechDraft1Carolyn_lessNoise_PlusLocalization,2021.2.3,59.92001639524581,
,,,,,,,,midRight,13.0,3,ch1Sound_localizationTask.wav,13.0,"(1142, 878)","(182, -202)",190,-338,,,,,,,,,,,,,0,2,2,5,,,,,,,,,,,,,,,,,,,,,,,,,,,,,,,,,,,,,,,,1404.8484748238698,None,,,1407.8649582790677,None,1.6169312169312169,1.0328635219484568,1407.8649582790677,None,,,,,,,1405.8485001919325,None,1406.0318523319438,1406.0484396310057,53,001,2023_Mar_13_1601,SpeechDraft1Carolyn_lessNoise_PlusLocalization,2021.2.3,59.92001639524581,
,,,,,,,,farRight,19.1,4,ch1Sound_localizationTask.wav,19.1,"(1237, 878)","(277,-202)",285,-338,,,,,,,,,,,,,0,3,3,6,,,,,,,,,,,,,,,,,,,,,,,,,,,,,,,,,,,,,,,,1408.8989277798682,None,,,1411.9148528350051,None,1.6582010582010582,1.0833219240885228,1411.9148528350051,None,,,,,,,1409.8984433128498,None,1410.0818874919787,1410.0984803619795,53,001,2023_Mar_13_1601,SpeechDraft1Carolyn_lessNoise_PlusLocalization,2021.2.3,59.92001639524581,
,,,,,,,,farLeft,-19.1,5,ch1Sound_localizationTask.wav,-19.1,"(667, 878)","(-293,-202)",-285,-338,,,,,,,,,,,,,0,4,4,0,,,,,,,,,,,,,,,,,,,,,,,,,,,,,,,,,,,,,,,,1413.0152529769111,None,,,1416.0315549469087,None,1.3391534391534392,0.9162468430586159,1416.0315549469087,None,,,,,,,1414.0151480329223,None,1414.1985451008659,1414.2151942369528,53,001,2023_Mar_13_1601,SpeechDraft1Carolyn_lessNoise_PlusLocalization,2021.2.3,59.92001639524581,
,,,,,,,,nearLeft,-6.5,1,ch1Sound_localizationTask.wav,-6.5,"(857, 878)","(-103,-202)",-95,-338,,,,,,,,,,,,,0,5,5,2,,,,,,,,,,,,,,,,,,,,,,,,,,,,,,,,,,,,,,,,1416.9493656728882,None,,,1419.9648360670544,None,1.4407407407407407,0.8489817609079182,1419.9648360670544,None,,,,,,,1417.9484476118814,None,1418.1318716900423,1418.1484699118882,53,001,2023_Mar_13_1601,SpeechDraft1Carolyn_lessNoise_PlusLocalization,2021.2.3,59.92001639524581,
,,,,,,,,midLeft,-13.0,2,ch1Sound_localizationTask.wav,-13.0,"(762, 878)","(-198,-202)",-190,-338,,,,,,,,,,,,,0,6,6,1,,,,,,,,,,,,,,,,,,,,,,,,,,,,,,,,,,,,,,,,1420.8152175899595,None,,,1423.8315092460252,None,1.3931216931216932,0.8495469829067588,1423.8315092460252,None,,,,,,,1421.8151806239039,None,1421.9984124929179,1422.0152043830603,53,001,2023_Mar_13_1601,SpeechDraft1Carolyn_lessNoise_PlusLocalization,2021.2.3,59.92001639524581,
,,,,,,,,center,0.0,6,ch1Sound_localizationTask.wav,0.0,"(952, 878)","(-8,-202)",0,-338,,,,,,,,,,,,,1,0,7,3,,,,,,,,,,,,,,,,,,,,,,,,,,,,,,,,,,,,,,,,1424.682192788925,None,,,1427.698114220053,None,1.5132275132275133,1.266326410928741,1427.698114220053,None,,,,,,,1425.681831083959,None,1425.8652075340506,1425.8817795270588,53,001,2023_Mar_13_1601,SpeechDraft1Carolyn_lessNoise_PlusLocalization,2021.2.3,59.92001639524581,
,,,,,,,,farRight,19.1,4,ch1Sound_localizationTask.wav,19.1,"(1237, 878)","(277,-202)",285,-338,,,,,,,,,,,,,1,1,8,6,,,,,,,,,,,,,,,,,,,,,,,,,,,,,,,,,,,,,,,,1428.9665489038453,None,,,1431.9984282760415,None,1.668783068783069,0.982993494020775,1431.9984282760415,None,,,,,,,1429.9817802729085,None,1430.165161916986,1430.1818441918585,53,001,2023_Mar_13_1601,SpeechDraft1Carolyn_lessNoise_PlusLocalization,2021.2.3,59.92001639524581,
,,,,,,,,center,0.0,6,ch1Sound_localizationTask.wav,0.0,"(952, 878)","(-8,-202)",0,-338,,,,,,,,,,,,,1,2,9,3,,,,,,,,,,,,,,,,,,,,,,,,,,,,,,,,,,,,,,,,1432.9826128168497,None,,,1435.9983833190054,None,1.5015873015873016,1.0842338369693607,1435.9983833190054,None,,,,,,,1433.981988743879,None,1434.1651506428607,1434.1817538950127,53,001,2023_Mar_13_1601,SpeechDraft1Carolyn_lessNoise_PlusLocalization,2021.2.3,59.92001639524581,
,,,,,,,,midLeft,-13.0,2,ch1Sound_localizationTask.wav,-13.0,"(762, 878)","(-198,-202)",-190,-338,,,,,,,,,,,,,1,3,10,1,,,,,,,,,,,,,,,,,,,,,,,,,,,,,,,,,,,,,,,,1437.0985028650612,None,,,1440.1149025000632,None,1.3957671957671958,0.9488379899412394,1440.1149025000632,None,,,,,,,1438.0984491039999,None,1438.2818737500347,1438.2984517749865,53,001,2023_Mar_13_1601,SpeechDraft1Carolyn_lessNoise_PlusLocalization,2021.2.3,59.92001639524581,
,,,,,,,,center,0.0,6,ch1Sound_localizationTask.wav,0.0,"(952, 878)","(-8,-202)",0,-338,,,,,,,,,,,,,1,4,11,3,,,,,,,,,,,,,,,,,,,,,,,,,,,,,,,,,,,,,,,,1441.0654684440233,None,,,1444.081543467939,None,1.4973544973544972,1.0183859050739557,1444.081543467939,None,,,,,,,1442.0652141890023,None,1442.248520305846,1442.2652637229767,53,001,2023_Mar_13_1601,SpeechDraft1Carolyn_lessNoise_PlusLocalization,2021.2.3,59.92001639524581,
,,,,,,,,farLeft,-19.1,5,ch1Sound_localizationTask.wav,-19.1,"(667, 878)","(-293,-202)",-285,-338,,,,,,,,,,,,,1,5,12,0,,,,,,,,,,,,,,,,,,,,,,,,,,,,,,,,,,,,,,,,1445.115207171999,None,,,1448.1316376300529,None,1.3216931216931216,1.0002121469005942,1448.1316376300529,None,,,,,,,1446.1151773419697,None,1446.2985053758603,1446.3151595229283,53,001,2023_Mar_13_1601,SpeechDraft1Carolyn_lessNoise_PlusLocalization,2021.2.3,59.92001639524581,
,,,,,,,,center,0.0,6,ch1Sound_localizationTask.wav,0.0,"(952, 878)","(-8,-202)",0,-338,,,,,,,,,,,,,1,6,13,3,,,,,,,,,,,,,,,,,,,,,,,,,,,,,,,,,,,,,,,,1449.1485662038904,None,,,1452.1648767199367,None,1.5037037037037035,0.6496270480565727,1452.1648767199367,None,,,,,,,1450.1485781979281,None,1450.3318312489428,1450.348555464996,53,001,2023_Mar_13_1601,SpeechDraft1Carolyn_lessNoise_PlusLocalization,2021.2.3,59.92001639524581,
,,,,,,,,midLeft,-13.0,2,ch1Sound_localizationTask.wav,-13.0,"(762, 878)","(-198,-202)",-190,-338,,,,,,,,,,,,,2,0,14,1,,,,,,,,,,,,,,,,,,,,,,,,,,,,,,,,,,,,,,,,1452.8153327419423,None,,,1455.8317333760206,None,1.3931216931216932,0.9828198719769716,1455.8317333760206,None,,,,,,,1453.8151918100193,None,1453.9985201249365,1454.0152779009659,53,001,2023_Mar_13_1601,SpeechDraft1Carolyn_lessNoise_PlusLocalization,2021.2.3,59.92001639524581,
,,,,,,,,nearRight,6.5,0,ch1Sound_localizationTask.wav,6.5,"(1047, 878)","(87, -202)",95,-338,,,,,,,,,,,,,2,1,15,4,,,,,,,,,,,,,,,,,,,,,,,,,,,,,,,,,,,,,,,,1456.8319657549728,None,,,1459.8482389738783,None,1.5973544973544973,0.9313875320367515,1459.8482389738783,None,,,,,,,1457.8318984059151,None,1458.015198625857,1458.0318513738457,53,001,2023_Mar_13_1601,SpeechDraft1Carolyn_lessNoise_PlusLocalization,2021.2.3,59.92001639524581,
,,,,,,,,nearLeft,-6.5,1,ch1Sound_localizationTask.wav,-6.5,"(857, 878)","(-103,-202)",-95,-338,,,,,,,,,,,,,2,2,16,2,,,,,,,,,,,,,,,,,,,,,,,,,,,,,,,,,,,,,,,,1460.7819902370684,None,,,1463.7982434390578,None,1.4343915343915343,0.7657740791328251,1463.7982434390578,None,,,,,,,1461.7819112448487,None,1461.9651521008927,1461.9819606239907,53,001,2023_Mar_13_1601,SpeechDraft1Carolyn_lessNoise_PlusLocalization,2021.2.3,59.92001639524581,
,,,,,,,,nearRight,6.5,0,ch1Sound_localizationTask.wav,6.5,"(1047, 878)","(87, -202)",95,-338,,,,,,,,,,,,,2,3,17,4,,,,,,,,,,,,,,,,,,,,,,,,,,,,,,,,,,,,,,,,1464.5655405858997,None,,,1467.581645112019,None,1.5767195767195767,1.1334682828746736,1467.581645112019,None,,,,,,,1465.5652809708845,None,1465.748509147903,1465.7652805768885,53,001,2023_Mar_13_1601,SpeechDraft1Carolyn_lessNoise_PlusLocalization,2021.2.3,59.92001639524581,
,,,,,,,,nearLeft,-6.5,1,ch1Sound_localizationTask.wav,-6.5,"(857, 878)","(-103,-202)",-95,-338,,,,,,,,,,,,,2,4,18,2,,,,,,,,,,,,,,,,,,,,,,,,,,,,,,,,,,,,,,,,1468.731845553033,None,,,1471.748273952864,None,1.435978835978836,0.816799052990973,1471.748273952864,None,,,,,,,1469.7319665660616,None,1469.91527596605,1469.9318080728408,53,001,2023_Mar_13_1601,SpeechDraft1Carolyn_lessNoise_PlusLocalization,2021.2.3,59.92001639524581,
,,,,,,,,midRight,13.0,3,ch1Sound_localizationTask.wav,13.0,"(1142, 878)","(182, -202)",190,-338,,,,,,,,,,,,,2,5,19,5,,,,,,,,,,,,,,,,,,,,,,,,,,,,,,,,,,,,,,,,1472.5818826640025,None,,,1475.5983193700667,None,1.6275132275132276,0.7168800060171634,1475.5983193700667,None,,,,,,,1473.5818960808683,None,1473.7651743809693,1473.7819750518538,53,001,2023_Mar_13_1601,SpeechDraft1Carolyn_lessNoise_PlusLocalization,2021.2.3,59.92001639524581,
,,,,,,,,farRight,19.1,4,ch1Sound_localizationTask.wav,19.1,"(1237, 878)","(277,-202)",285,-338,,,,,,,,,,,,,2,6,20,6,,,,,,,,,,,,,,,,,,,,,,,,,,,,,,,,,,,,,,,,1476.315842460841,None,,,1479.331600613892,None,1.6275132275132276,0.6167573051061481,1479.331600613892,None,,,,,,,1477.3152407428715,None,1477.4986204688903,1477.5152908489108,53,001,2023_Mar_13_1601,SpeechDraft1Carolyn_lessNoise_PlusLocalization,2021.2.3,59.92001639524581,
,,,,,,,,center,0.0,6,ch1Sound_localizationTask.wav,0.0,"(952, 878)","(-8,-202)",0,-338,,,,,,,,,,,,,3,0,21,3,,,,,,,,,,,,,,,,,,,,,,,,,,,,,,,,,,,,,,,,1479.9490207899362,None,,,1482.964975137962,None,1.5015873015873016,0.8662783191539347,1482.964975137962,None,,,,,,,1480.9485445339233,None,1481.1318764218595,1481.1485955528915,53,001,2023_Mar_13_1601,SpeechDraft1Carolyn_lessNoise_PlusLocalization,2021.2.3,59.92001639524581,
,,,,,,,,farLeft,-19.1,5,ch1Sound_localizationTask.wav,-19.1,"(667, 878)","(-293,-202)",-285,-338,,,,,,,,,,,,,3,1,22,0,,,,,,,,,,,,,,,,,,,,,,,,,,,,,,,,,,,,,,,,1483.8321296558715,None,,,1486.8482860289514,None,1.3296296296296295,0.8505461199674755,1486.8482860289514,None,,,,,,,1484.8319574119523,None,1485.0153676369227,1485.0321591009852,53,001,2023_Mar_13_1601,SpeechDraft1Carolyn_lessNoise_PlusLocalization,2021.2.3,59.92001639524581,
,,,,,,,,center,0.0,6,ch1Sound_localizationTask.wav,0.0,"(952, 878)","(-8,-202)",0,-338,,,,,,,,,,,,,3,2,23,3,,,,,,,,,,,,,,,,,,,,,,,,,,,,,,,,,,,,,,,,1487.7154163189698,None,,,1490.731615287019,None,1.5052910052910053,0.915526119992137,1490.731615287019,None,,,,,,,1488.7152091900352,None,1488.8985700749326,1488.915241488954,53,001,2023_Mar_13_1601,SpeechDraft1Carolyn_lessNoise_PlusLocalization,2021.2.3,59.92001639524581,
,,,,,,,,center,0.0,6,ch1Sound_localizationTask.wav,0.0,"(952, 878)","(-8,-202)",0,-338,,,,,,,,,,,,,3,3,24,3,,,,,,,,,,,,,,,,,,,,,,,,,,,,,,,,,,,,,,,,1491.6486202690285,None,,,1494.6650027248543,None,1.5052910052910053,3.0833565129432827,1494.6650027248543,None,,,,,,,1492.64851279906,None,1492.8319152728654,1492.8484958389308,53,001,2023_Mar_13_1601,SpeechDraft1Carolyn_lessNoise_PlusLocalization,2021.2.3,59.92001639524581,
,,,,,,,,midRight,13.0,3,ch1Sound_localizationTask.wav,13.0,"(1142, 878)","(182, -202)",190,-338,,,,,,,,,,,,,3,4,25,5,,,,,,,,,,,,,,,,,,,,,,,,,,,,,,,,,,,,,,,,1497.749092543032,None,,,1500.764988784911,None,1.6195767195767194,0.9828667771071196,1500.764988784911,None,,,,,,,1498.748534312006,None,1498.9319339918438,1498.9489565929398,53,001,2023_Mar_13_1601,SpeechDraft1Carolyn_lessNoise_PlusLocalization,2021.2.3,59.92001639524581,
,,,,,,,,nearLeft,-6.5,1,ch1Sound_localizationTask.wav,-6.5,"(857, 878)","(-103,-202)",-95,-338,,,,,,,,,,,,,3,5,26,2,,,,,,,,,,,,,,,,,,,,,,,,,,,,,,,,,,,,,,,,1501.7484885929152,None,,,1504.7649284820072,None,1.411111111111111,0.9496149031911045,1504.7649284820072,None,,,,,,,1502.7485320388805,None,1502.9319419148378,1502.948470003903,53,001,2023_Mar_13_1601,SpeechDraft1Carolyn_lessNoise_PlusLocalization,2021.2.3,59.92001639524581,
,,,,,,,,nearRight,6.5,0,ch1Sound_localizationTask.wav,6.5,"(1047, 878)","(87, -202)",95,-338,,,,,,,,,,,,,3,6,27,4,,,,,,,,,,,,,,,,,,,,,,,,,,,,,,,,,,,,,,,,1505.732026180951,None,,,1508.7483634529635,None,1.5555555555555556,0.6325117480009794,1508.7483634529635,None,,,,,,,1506.7319638759363,None,1506.915278522065,1506.9319795488846,53,001,2023_Mar_13_1601,SpeechDraft1Carolyn_lessNoise_PlusLocalization,2021.2.3,59.92001639524581,
,,,,,,,,nearRight,6.5,0,ch1Sound_localizationTask.wav,6.5,"(1047, 878)","(87, -202)",95,-338,,,,,,,,,,,,,4,0,28,4,,,,,,,,,,,,,,,,,,,,,,,,,,,,,,,,,,,,,,,,1509.3827429278754,None,,,1512.398443254875,None,1.5597883597883597,0.566782538080588,1512.398443254875,None,,,,,,,1510.3820208429825,None,1510.5652526209597,1510.5819042250514,53,001,2023_Mar_13_1601,SpeechDraft1Carolyn_lessNoise_PlusLocalization,2021.2.3,59.92001639524581,
,,,,,,,,farLeft,-19.1,5,ch1Sound_localizationTask.wav,-19.1,"(667, 878)","(-293,-202)",-285,-338,,,,,,,,,,,,,4,1,29,0,,,,,,,,,,,,,,,,,,,,,,,,,,,,,,,,,,,,,,,,1512.965825380059,None,,,1515.98169653886,None,1.3285714285714285,1.0988217811100185,1515.98169653886,None,,,,,,,1513.9652633529622,None,1514.1486462838948,1514.1651757829823,53,001,2023_Mar_13_1601,SpeechDraft1Carolyn_lessNoise_PlusLocalization,2021.2.3,59.92001639524581,
,,,,,,,,midRight,13.0,3,ch1Sound_localizationTask.wav,13.0,"(1142, 878)","(182, -202)",190,-338,,,,,,,,,,,,,4,2,30,5,,,,,,,,,,,,,,,,,,,,,,,,,,,,,,,,,,,,,,,,1517.0829933548812,None,,,1520.1149743879214,None,1.608994708994709,1.032461198978126,1520.1149743879214,None,,,,,,,1518.098710061051,None,1518.281966109993,1518.2985541180242,53,001,2023_Mar_13_1601,SpeechDraft1Carolyn_lessNoise_PlusLocalization,2021.2.3,59.92001639524581,
,,,,,,,,midRight,13.0,3,ch1Sound_localizationTask.wav,13.0,"(1142, 878)","(182, -202)",190,-338,,,,,,,,,,,,,4,3,31,5,,,,,,,,,,,,,,,,,,,,,,,,,,,,,,,,,,,,,,,,1521.1486625608522,None,,,1524.1650594130624,None,1.6005291005291005,0.7329310600180179,1524.1650594130624,None,,,,,,,1522.1486893799156,None,1522.3318929448724,1522.3485605099704,53,001,2023_Mar_13_1601,SpeechDraft1Carolyn_lessNoise_PlusLocalization,2021.2.3,59.92001639524581,
,,,,,,,,farLeft,-19.1,5,ch1Sound_localizationTask.wav,-19.1,"(667, 878)","(-293,-202)",-285,-338,,,,,,,,,,,,,4,4,32,0,,,,,,,,,,,,,,,,,,,,,,,,,,,,,,,,,,,,,,,,1524.8986914148554,None,,,1527.914915334899,None,1.3402116402116402,1.083650453016162,1527.914915334899,None,,,,,,,1525.8986622020602,None,1526.082075255923,1526.09861649503,53,001,2023_Mar_13_1601,SpeechDraft1Carolyn_lessNoise_PlusLocalization,2021.2.3,59.92001639524581,
,,,,,,,,midLeft,-13.0,2,ch1Sound_localizationTask.wav,-13.0,"(762, 878)","(-198,-202)",-190,-338,,,,,,,,,,,,,4,5,33,1,,,,,,,,,,,,,,,,,,,,,,,,,,,,,,,,,,,,,,,,1529.0153037749697,None,,,1532.0317113478668,None,1.3878306878306879,0.8497360520996153,1532.0317113478668,None,,,,,,,1530.0153770148754,None,1530.1985967538785,1530.2153190069366,53,001,2023_Mar_13_1601,SpeechDraft1Carolyn_lessNoise_PlusLocalization,2021.2.3,59.92001639524581,
,,,,,,,,farRight,19.1,4,ch1Sound_localizationTask.wav,19.1,"(1237, 878)","(277,-202)",285,-338,,,,,,,,,,,,,4,6,34,6,,,,,,,,,,,,,,,,,,,,,,,,,,,,,,,,,,,,,,,,1532.898646713933,None,,,1535.9150066459551,None,1.6423280423280424,1.3498135039117187,1535.9150066459551,None,,,,,,,1533.8985507660545,None,1534.0820257258601,1534.0986630460247,53,001,2023_Mar_13_1601,SpeechDraft1Carolyn_lessNoise_PlusLocalization,2021.2.3,59.92001639524581,
,,,,,,,,midLeft,-13.0,2,ch1Sound_localizationTask.wav,-13.0,"(762, 878)","(-198,-202)",-190,-338,,,,,,,,,,,,,5,0,35,1,,,,,,,,,,,,,,,,,,,,,,,,,,,,,,,,,,,,,,,,1537.2819914140273,None,,,1540.298433692893,None,1.4333333333333333,0.9828325670678169,1540.298433692893,None,,,,,,,1538.2819256410003,None,1538.465383878909,1538.481991701061,53,001,2023_Mar_13_1601,SpeechDraft1Carolyn_lessNoise_PlusLocalization,2021.2.3,59.92001639524581,
,,,,,,,,farRight,19.1,4,ch1Sound_localizationTask.wav,19.1,"(1237, 878)","(277,-202)",285,-338,,,,,,,,,,,,,5,1,36,6,,,,,,,,,,,,,,,,,,,,,,,,,,,,,,,,,,,,,,,,1541.282620173879,None,,,1544.298292011954,None,1.6502645502645503,1.0994919571094215,1544.298292011954,None,,,,,,,1542.2820795339067,None,1542.4653415030334,1542.4819936859421,53,001,2023_Mar_13_1601,SpeechDraft1Carolyn_lessNoise_PlusLocalization,2021.2.3,59.92001639524581,
,,,,,,,,farLeft,-19.1,5,ch1Sound_localizationTask.wav,-19.1,"(667, 878)","(-293,-202)",-285,-338,,,,,,,,,,,,,5,2,37,0,,,,,,,,,,,,,,,,,,,,,,,,,,,,,,,,,,,,,,,,1545.399718399858,None,,,1548.4317626468837,None,1.3116402116402117,0.8497747511137277,1548.4317626468837,None,,,,,,,1546.4152706069872,None,1546.5986588119995,1546.6152576080058,53,001,2023_Mar_13_1601,SpeechDraft1Carolyn_lessNoise_PlusLocalization,2021.2.3,59.92001639524581,
,,,,,,,,midRight,13.0,3,ch1Sound_localizationTask.wav,13.0,"(1142, 878)","(182, -202)",190,-338,,,,,,,,,,,,,5,3,38,5,,,,,,,,,,,,,,,,,,,,,,,,,,,,,,,,,,,,,,,,1549.282861773856,None,,,1552.2983723678626,None,1.6333333333333333,0.9821188759524375,1552.2983723678626,None,,,,,,,1550.2819138958585,None,1550.4653677160386,1550.4819783549756,53,001,2023_Mar_13_1601,SpeechDraft1Carolyn_lessNoise_PlusLocalization,2021.2.3,59.92001639524581,
,,,,,,,,center,0.0,6,ch1Sound_localizationTask.wav,0.0,"(952, 878)","(-8,-202)",0,-338,,,,,,,,,,,,,5,4,39,3,,,,,,,,,,,,,,,,,,,,,,,,,,,,,,,,,,,,,,,,1553.2819813259412,None,,,1556.2984569719993,None,1.480952380952381,1.0985246119089425,1556.2984569719993,None,,,,,,,1554.282109057065,None,1554.465347175952,1554.4820072739385,53,001,2023_Mar_13_1601,SpeechDraft1Carolyn_lessNoise_PlusLocalization,2021.2.3,59.92001639524581,
,,,,,,,,farLeft,-19.1,5,ch1Sound_localizationTask.wav,-19.1,"(667, 878)","(-293,-202)",-285,-338,,,,,,,,,,,,,5,5,40,0,,,,,,,,,,,,,,,,,,,,,,,,,,,,,,,,,,,,,,,,1557.3986304479185,None,,,1560.4151494498365,None,1.3402116402116402,1.2661111541092396,1560.4151494498365,None,,,,,,,1558.3986173279118,None,1558.5820286760572,1558.5986852550413,53,001,2023_Mar_13_1601,SpeechDraft1Carolyn_lessNoise_PlusLocalization,2021.2.3,59.92001639524581,
,,,,,,,,nearRight,6.5,0,ch1Sound_localizationTask.wav,6.5,"(1047, 878)","(87, -202)",95,-338,,,,,,,,,,,,,5,6,41,4,,,,,,,,,,,,,,,,,,,,,,,,,,,,,,,,,,,,,,,,1561.6822841109242,None,,,1564.6983626689762,None,1.571957671957672,1.1992336891125888,1564.6983626689762,None,,,,,,,1562.6820035758428,None,1562.8652657319326,1562.8820099958684,53,001,2023_Mar_13_1601,SpeechDraft1Carolyn_lessNoise_PlusLocalization,2021.2.3,59.92001639524581,
,,,,,,,,nearLeft,-6.5,1,ch1Sound_localizationTask.wav,-6.5,"(857, 878)","(-103,-202)",-95,-338,,,,,,,,,,,,,6,0,42,2,,,,,,,,,,,,,,,,,,,,,,,,,,,,,,,,,,,,,,,,1565.899373186985,None,,,1568.915181030985,None,1.4476190476190476,0.49901284486986697,1568.915181030985,None,,,,,,,1566.8987176278606,None,1567.081926238956,1567.098692284897,53,001,2023_Mar_13_1601,SpeechDraft1Carolyn_lessNoise_PlusLocalization,2021.2.3,59.92001639524581,
,,,,,,,,nearLeft,-6.5,1,ch1Sound_localizationTask.wav,-6.5,"(857, 878)","(-103,-202)",-95,-338,,,,,,,,,,,,,6,1,43,2,,,,,,,,,,,,,,,,,,,,,,,,,,,,,,,,,,,,,,,,1569.4152739359997,None,,,1572.4317910340615,None,1.461904761904762,0.5497139228973538,1572.4317910340615,None,,,,,,,1570.415276133921,None,1570.598586963024,1570.6153284169268,53,001,2023_Mar_13_1601,SpeechDraft1Carolyn_lessNoise_PlusLocalization,2021.2.3,59.92001639524581,
,,,,,,,,farRight,19.1,4,ch1Sound_localizationTask.wav,19.1,"(1237, 878)","(277,-202)",285,-338,,,,,,,,,,,,,6,2,44,6,,,,,,,,,,,,,,,,,,,,,,,,,,,,,,,,,,,,,,,,1572.982278903015,None,,,1575.998405257007,None,1.6947089947089946,0.8658870400395244,1575.998405257007,None,,,,,,,1573.9820939658675,None,1574.165397173958,1574.181980133988,53,001,2023_Mar_13_1601,SpeechDraft1Carolyn_lessNoise_PlusLocalization,2021.2.3,59.92001639524581,
,,,,,,,,midLeft,-13.0,2,ch1Sound_localizationTask.wav,-13.0,"(762, 878)","(-198,-202)",-190,-338,,,,,,,,,,,,,6,3,45,1,,,,,,,,,,,,,,,,,,,,,,,,,,,,,,,,,,,,,,,,1576.8656018818729,None,,,1579.881573430961,None,1.4047619047619047,0.6659154309891164,1579.881573430961,None,,,,,,,1577.8654135789257,None,1578.0487210119609,1578.0654253398534,53,001,2023_Mar_13_1601,SpeechDraft1Carolyn_lessNoise_PlusLocalization,2021.2.3,59.92001639524581,
,,,,,,,,nearRight,6.5,0,ch1Sound_localizationTask.wav,6.5,"(1047, 878)","(87, -202)",95,-338,,,,,,,,,,,,,6,4,46,4,,,,,,,,,,,,,,,,,,,,,,,,,,,,,,,,,,,,,,,,1580.5494916760363,None,,,1583.5650638998486,None,1.565079365079365,0.9166140400338918,1583.5650638998486,None,,,,,,,1581.5487096440047,None,1581.7321762240026,1581.7487032180652,53,001,2023_Mar_13_1601,SpeechDraft1Carolyn_lessNoise_PlusLocalization,2021.2.3,59.92001639524581,
,,,,,,,,midRight,13.0,3,ch1Sound_localizationTask.wav,13.0,"(1142, 878)","(182, -202)",190,-338,,,,,,,,,,,,,6,5,47,5,,,,,,,,,,,,,,,,,,,,,,,,,,,,,,,,,,,,,,,,1584.4823997018393,None,,,1587.4983473028988,None,1.6185185185185185,1.0491637780796736,1587.4983473028988,None,,,,,,,1585.482176411897,None,1585.6654413698707,1585.6820394019596,53,001,2023_Mar_13_1601,SpeechDraft1Carolyn_lessNoise_PlusLocalization,2021.2.3,59.92001639524581,
,,,,,,,,midLeft,-13.0,2,ch1Sound_localizationTask.wav,-13.0,"(762, 878)","(-198,-202)",-190,-338,,,,,,,,,,,,,6,6,48,1,,,,,,,,,,,,,,,,,,,,,,,,,,,,,,,,,,,,,,,,1588.5492693979759,None,,,1591.5650406279601,None,1.398941798941799,0.916400050977245,1591.5650406279601,None,,,,,,,1589.5487892548554,None,1589.7320630808827,1589.7486915639602,53,001,2023_Mar_13_1601,SpeechDraft1Carolyn_lessNoise_PlusLocalization,2021.2.3,59.92001639524581,
,,,,,,,,farLeft,-19.1,5,ch1Sound_localizationTask.wav,-19.1,"(667, 878)","(-293,-202)",-285,-338,,,,,,,,,,,,,7,0,49,0,,,,,,,,,,,,,,,,,,,,,,,,,,,,,,,,,,,,,,,,1592.482941520866,None,,,1595.4985111800488,None,1.3365079365079366,0.9326287750154734,1595.4985111800488,None,,,,,,,1593.4819768979214,None,1593.6654153659474,1593.6819966540206,53,001,2023_Mar_13_1601,SpeechDraft1Carolyn_lessNoise_PlusLocalization,2021.2.3,59.92001639524581,
,,,,,,,,nearLeft,-6.5,1,ch1Sound_localizationTask.wav,-6.5,"(857, 878)","(-103,-202)",-95,-338,,,,,,,,,,,,,7,1,50,2,,,,,,,,,,,,,,,,,,,,,,,,,,,,,,,,,,,,,,,,1596.4333192489576,None,,,1599.4650908268522,None,1.4656084656084656,0.9999602751340717,1599.4650908268522,None,,,,,,,1597.4486456979066,None,1597.6321900489274,1597.6488098609261,53,001,2023_Mar_13_1601,SpeechDraft1Carolyn_lessNoise_PlusLocalization,2021.2.3,59.92001639524581,
,,,,,,,,nearRight,6.5,0,ch1Sound_localizationTask.wav,6.5,"(1047, 878)","(87, -202)",95,-338,,,,,,,,,,,,,7,2,51,4,,,,,,,,,,,,,,,,,,,,,,,,,,,,,,,,,,,,,,,,1600.466376032913,None,,,1603.4817162780091,None,1.5677248677248676,1.0831660758703947,1603.4817162780091,None,,,,,,,1601.4654256808572,None,1601.648725365987,1601.6653619578574,53,001,2023_Mar_13_1601,SpeechDraft1Carolyn_lessNoise_PlusLocalization,2021.2.3,59.92001639524581,
,,,,,,,,nearRight,6.5,0,ch1Sound_localizationTask.wav,6.5,"(1047, 878)","(87, -202)",95,-338,,,,,,,,,,,,,7,3,52,4,,,,,,,,,,,,,,,,,,,,,,,,,,,,,,,,,,,,,,,,1604.5655688438565,None,,,1607.5818028249778,None,1.5671957671957673,0.6495524710044265,1607.5818028249778,None,,,,,,,1605.5653681668919,None,1605.748839512933,1605.7654435860459,53,001,2023_Mar_13_1601,SpeechDraft1Carolyn_lessNoise_PlusLocalization,2021.2.3,59.92001639524581,
,,,,,,,,midLeft,-13.0,2,ch1Sound_localizationTask.wav,-13.0,"(762, 878)","(-198,-202)",-190,-338,,,,,,,,,,,,,7,4,53,1,,,,,,,,,,,,,,,,,,,,,,,,,,,,,,,,,,,,,,,,1608.2323415679857,None,,,1611.2484274508897,None,1.403174603174603,1.066927672829479,1611.2484274508897,None,,,,,,,1609.2320789939258,None,1609.415374493925,1609.4319997129496,53,001,2023_Mar_13_1601,SpeechDraft1Carolyn_lessNoise_PlusLocalization,2021.2.3,59.92001639524581,
,,,,,,,,farRight,19.1,4,ch1Sound_localizationTask.wav,19.1,"(1237, 878)","(277,-202)",285,-338,,,,,,,,,,,,,7,5,54,6,,,,,,,,,,,,,,,,,,,,,,,,,,,,,,,,,,,,,,,,1612.3162598968484,None,,,1615.33196708397,None,1.7380952380952381,0.4011738009285182,1615.33196708397,None,,,,,,,1613.31540000299,None,1613.4986465719994,1613.5153835599776,53,001,2023_Mar_13_1601,SpeechDraft1Carolyn_lessNoise_PlusLocalization,2021.2.3,59.92001639524581,
,,,,,,,,midRight,13.0,3,ch1Sound_localizationTask.wav,13.0,"(1142, 878)","(182, -202)",190,-338,,,,,,,,,,,,,7,6,55,5,,,,,,,,,,,,,,,,,,,,,,,,,,,,,,,,,,,,,,,,1615.7487125289626,None,,,1618.7652507380117,None,1.5984126984126985,0.9007573211565614,1618.7652507380117,None,,,,,,,1616.7487761918455,None,1616.932118993951,1616.9487362189684,53,001,2023_Mar_13_1601,SpeechDraft1Carolyn_lessNoise_PlusLocalization,2021.2.3,59.92001639524581,
