Audio_Only_Files,Video_Files,Original_Word_List,noiseLevelCode,conditionCodes,noiseLevelFile1,noiseLevelFile2,InstrTextVar,targetSpeakerName,targetSpeakerEccen,targetSpkrChannel,targetSpkrSound,targetVisualDegrees,visStimLoc,visStimLoc2,visStimW,visStimH,practiceTrials.thisRepN,practiceTrials.thisTrialN,practiceTrials.thisN,practiceTrials.thisIndex,trials.thisRepN,trials.thisTrialN,trials.thisN,trials.thisIndex,audLocalLoop.thisRepN,audLocalLoop.thisTrialN,audLocalLoop.thisN,audLocalLoop.thisIndex,visualLocalLoop.thisRepN,visualLocalLoop.thisTrialN,visualLocalLoop.thisN,visualLocalLoop.thisIndex,letsGoAlready.keys,letsGoAlready.rt,letsGoAlready.started,letsGoAlready.stopped,text_2.started,text_2.stopped,text_3.started,text_3.stopped,key_resp_2.keys,key_resp_2.rt,key_resp_2.started,key_resp_2.stopped,text_5.started,text_5.stopped,fixCross.started,fixCross.stopped,fixCross2.started,fixCross2.stopped,answerPrompt.started,answerPrompt.stopped,getAnswer.text,getAnswer.started,getAnswer.stopped,goToNext.keys,goToNext.rt,goToNext.started,goToNext.stopped,stretchBreakTxrt.started,stretchBreakTxrt.stopped,key_resp_3.keys,key_resp_3.rt,key_resp_3.started,key_resp_3.stopped,letsGoLocal.keys,letsGoLocal.rt,letsGoLocal.started,letsGoLocal.stopped,text_4.started,text_4.stopped,prepFixTxt.started,prepFixTxt.stopped,prepFixTxt_2.started,prepFixTxt_2.stopped,respPromptLocal.started,respPromptLocal.stopped,slider.response,slider.rt,slider.started,slider.stopped,letsGoLocal_2.keys,letsGoLocal_2.rt,letsGoLocal_2.started,letsGoLocal_2.stopped,text_7.started,text_7.stopped,prepFixTxt_3.started,prepFixTxt_3.stopped,grating.started,grating.stopped,participant,session,date,expName,psychopyVersion,frameRate,
,,,,,,,,,,,,,,,,,,,,,,,,,,,,,,,,,space,19.350681874901056,29.294415848096833,None,,,,,,,,,,,,,,,,,,,,,,,,,,,,,,,,,,,,,,,,,,,,,,,,,,,,,,,,54,001,2023_Mar_13_1800,SpeechDraft1Carolyn_lessNoise_PlusLocalization,2021.2.3,60.009363851398724,
,,,,,,,,,,,,,,,,,,,,,,,,,,,,,,,,,,,,,29.294415848096833,None,48.77773365704343,None,space,12.97200950793922,48.961228247964755,None,,,,,,,,,,,,,,,,,,,,,,,,,,,,,,,,,,,,,,,,,,,,,,,,54,001,2023_Mar_13_1800,SpeechDraft1Carolyn_lessNoise_PlusLocalization,2021.2.3,60.009363851398724,
ash.wav,ash.mpg,ash,1,A,Pink_Noise_1_1.wav,Pink_Noise_1_2.wav,"This is an example of an

AUDIO trial",,,,,,,,,,0,0,0,0,,,,,,,,,,,,,,,,,,,,,,,,,61.99439595406875,None,62.97787762293592,None,66.21141276904382,None,67.59622455993667,None,ash,67.59622455993667,None,return,10.679104378912598,67.67800980410539,None,,,,,,,,,,,,,,,,,,,,,,,,,,,,,,,,,54,001,2023_Mar_13_1800,SpeechDraft1Carolyn_lessNoise_PlusLocalization,2021.2.3,60.009363851398724,
ash.wav,ash.mpg,ash,1,AV,Pink_Noise_1_1.wav,Pink_Noise_1_2.wav,"This is an example of an

AUDIO + VIDEO  trial",,,,,,,,,,0,1,1,1,,,,,,,,,,,,,,,,,,,,,,,,,78.39430189598352,None,79.39461678196676,None,80.87818929413334,None,82.26126192812808,None,ash,82.26126192812808,None,return,1.9244796971324831,82.34470436093397,None,,,,,,,,,,,,,,,,,,,,,,,,,,,,,,,,,54,001,2023_Mar_13_1800,SpeechDraft1Carolyn_lessNoise_PlusLocalization,2021.2.3,60.009363851398724,
,,,,,,,,,,,,,,,,,,,,,,,,,,,,,,,,,,,,,,,,,,,,,,,,,,,,,,,,,,,,84.31099605513737,None,space,25.95038721198216,84.49470209213905,None,,,,,,,,,,,,,,,,,,,,,,,,,,,54,001,2023_Mar_13_1800,SpeechDraft1Carolyn_lessNoise_PlusLocalization,2021.2.3,60.009363851398724,
funk.wav,funk.mpg,funk,2,A,Pink_Noise_2_1.wav,Pink_Noise_2_2.wav,,,,,,,,,,,,,,,0,0,0,12,,,,,,,,,,,,,,,,,,,,,,,110.51107046799734,None,111.99437732994556,None,113.37811178597622,None,"funk
",113.37811178597622,None,return,4.903672666056082,113.46138867014088,None,,,,,,,,,,,,,,,,,,,,,,,,,,,,,,,,,54,001,2023_Mar_13_1800,SpeechDraft1Carolyn_lessNoise_PlusLocalization,2021.2.3,60.009363851398724,
eel.wav,eel.mpg,eel,4,A,Pink_Noise_4_1.wav,Pink_Noise_4_2.wav,,,,,,,,,,,,,,,0,1,1,52,,,,,,,,,,,,,,,,,,,,,,,118.39475340605713,None,119.89437486999668,None,121.2779721589759,None,eel,121.2779721589759,None,return,2.715794422896579,121.36136757908389,None,,,,,,,,,,,,,,,,,,,,,,,,,,,,,,,,,54,001,2023_Mar_13_1800,SpeechDraft1Carolyn_lessNoise_PlusLocalization,2021.2.3,60.009363851398724,
grape.wav,grape.mpg,grape,6,AV,Pink_Noise_6_1.wav,Pink_Noise_6_2.wav,,,,,,,,,,,,,,,0,2,2,72,,,,,,,,,,,,,,,,,,,,,,,124.09469652501866,None,125.59448075899854,None,126.97807196807116,None,grape,126.97807196807116,None,return,5.9757076390087605,127.0613753281068,None,,,,,,,,,,,,,,,,,,,,,,,,,,,,,,,,,54,001,2023_Mar_13_1800,SpeechDraft1Carolyn_lessNoise_PlusLocalization,2021.2.3,60.009363851398724,
flank.wav,flank.mpg,flank,2,AV,Pink_Noise_2_1.wav,Pink_Noise_2_2.wav,,,,,,,,,,,,,,,0,3,3,63,,,,,,,,,,,,,,,,,,,,,,,133.06133860512637,None,134.54444190813228,None,135.92796811298467,None,flank,135.92796811298467,None,return,3.377680968027562,136.0114107229747,None,,,,,,,,,,,,,,,,,,,,,,,,,,,,,,,,,54,001,2023_Mar_13_1800,SpeechDraft1Carolyn_lessNoise_PlusLocalization,2021.2.3,60.009363851398724,
ton.wav,ton.mpg,ton,6,A,Pink_Noise_6_1.wav,Pink_Noise_6_2.wav,,,,,,,,,,,,,,,0,4,4,9,,,,,,,,,,,,,,,,,,,,,,,139.41131537407637,None,140.9110779040493,None,142.29473328706808,None,light,142.29473328706808,None,return,9.483090901048854,142.3781276680529,None,,,,,,,,,,,,,,,,,,,,,,,,,,,,,,,,,54,001,2023_Mar_13_1800,SpeechDraft1Carolyn_lessNoise_PlusLocalization,2021.2.3,60.009363851398724,
bush.wav,bush.mpg,bush,6,A,Pink_Noise_6_1.wav,Pink_Noise_6_2.wav,,,,,,,,,,,,,,,0,5,5,24,,,,,,,,,,,,,,,,,,,,,,,151.87813687510788,None,153.37772931996733,None,154.74467853596434,None,rush,154.74467853596434,None,return,1.8650282679591328,154.8281342589762,None,,,,,,,,,,,,,,,,,,,,,,,,,,,,,,,,,54,001,2023_Mar_13_1800,SpeechDraft1Carolyn_lessNoise_PlusLocalization,2021.2.3,60.009363851398724,
wild.wav,wild.mpg,wild,5,A,Pink_Noise_5_1.wav,Pink_Noise_5_2.wav,,,,,,,,,,,,,,,0,6,6,48,,,,,,,,,,,,,,,,,,,,,,,156.71146759414114,None,158.2111604299862,None,159.59476714394987,None,"quiet
",159.59476714394987,None,return,8.470914001110941,159.67817413411103,None,,,,,,,,,,,,,,,,,,,,,,,,,,,,,,,,,54,001,2023_Mar_13_1800,SpeechDraft1Carolyn_lessNoise_PlusLocalization,2021.2.3,60.009363851398724,
greek.wav,greek.mpg,greek,1,AV,Pink_Noise_1_1.wav,Pink_Noise_1_2.wav,,,,,,,,,,,,,,,0,7,7,88,,,,,,,,,,,,,,,,,,,,,,,168.17819887702353,None,169.6610824901145,None,171.04471735400148,None,greek,171.04471735400148,None,return,5.108989753993228,171.1280950170476,None,,,,,,,,,,,,,,,,,,,,,,,,,,,,,,,,,54,001,2023_Mar_13_1800,SpeechDraft1Carolyn_lessNoise_PlusLocalization,2021.2.3,60.009363851398724,
drop.wav,drop.mpg,drop,3,A,Pink_Noise_3_1.wav,Pink_Noise_3_2.wav,,,,,,,,,,,,,,,0,8,8,3,,,,,,,,,,,,,,,,,,,,,,,176.2614603030961,None,177.7611204199493,None,179.14477863907814,None,"drop
",179.14477863907814,None,return,1.9370374490972608,179.2280661710538,None,,,,,,,,,,,,,,,,,,,,,,,,,,,,,,,,,54,001,2023_Mar_13_1800,SpeechDraft1Carolyn_lessNoise_PlusLocalization,2021.2.3,60.009363851398724,
barn.wav,barn.mpg,barn,3,A,Pink_Noise_3_1.wav,Pink_Noise_3_2.wav,,,,,,,,,,,,,,,0,9,9,36,,,,,,,,,,,,,,,,,,,,,,,181.1947584100999,None,182.69460040796548,None,184.07817203598097,None,fun,184.07817203598097,None,return,3.243664575042203,184.16142688598484,None,,,,,,,,,,,,,,,,,,,,,,,,,,,,,,,,,54,001,2023_Mar_13_1800,SpeechDraft1Carolyn_lessNoise_PlusLocalization,2021.2.3,60.009363851398724,
roar.wav,roar.mpg,roar,5,A,Pink_Noise_5_1.wav,Pink_Noise_5_2.wav,,,,,,,,,,,,,,,0,10,10,34,,,,,,,,,,,,,,,,,,,,,,,187.42812889814377,None,188.92770165205002,None,190.3115004959982,None,glow,190.3115004959982,None,return,10.75424100086093,190.39486301597208,None,,,,,,,,,,,,,,,,,,,,,,,,,,,,,,,,,54,001,2023_Mar_13_1800,SpeechDraft1Carolyn_lessNoise_PlusLocalization,2021.2.3,60.009363851398724,
greed.wav,greed.mpg,greed,1,AV,Pink_Noise_1_1.wav,Pink_Noise_1_2.wav,,,,,,,,,,,,,,,0,11,11,117,,,,,,,,,,,,,,,,,,,,,,,201.17814338603057,None,202.67779540806077,None,204.0615207850933,None,greed,204.0615207850933,None,return,3.5241501568816602,204.14495569700375,None,,,,,,,,,,,,,,,,,,,,,,,,,,,,,,,,,54,001,2023_Mar_13_1800,SpeechDraft1Carolyn_lessNoise_PlusLocalization,2021.2.3,60.009363851398724,
dope.wav,dope.mpg,dope,2,AV,Pink_Noise_2_1.wav,Pink_Noise_2_2.wav,,,,,,,,,,,,,,,0,12,12,68,,,,,,,,,,,,,,,,,,,,,,,207.69484022306278,None,209.1946493210271,None,210.56164799095131,None,dope,210.56164799095131,None,return,0.8563697920180857,210.6448301479686,None,,,,,,,,,,,,,,,,,,,,,,,,,,,,,,,,,54,001,2023_Mar_13_1800,SpeechDraft1Carolyn_lessNoise_PlusLocalization,2021.2.3,60.009363851398724,
fog.wav,fog.mpg,fog,6,A,Pink_Noise_6_1.wav,Pink_Noise_6_2.wav,,,,,,,,,,,,,,,0,13,13,31,,,,,,,,,,,,,,,,,,,,,,,211.5282275050413,None,213.01177572808228,None,214.3948207211215,None,main,214.3948207211215,None,return,8.87896068696864,214.47816935111769,None,,,,,,,,,,,,,,,,,,,,,,,,,,,,,,,,,54,001,2023_Mar_13_1800,SpeechDraft1Carolyn_lessNoise_PlusLocalization,2021.2.3,60.009363851398724,
grab.wav,grab.mpg,grab,1,A,Pink_Noise_1_1.wav,Pink_Noise_1_2.wav,,,,,,,,,,,,,,,0,14,14,47,,,,,,,,,,,,,,,,,,,,,,,223.37823818810284,None,224.87783151911572,None,226.2616432569921,None,grab,226.2616432569921,None,return,4.612280800938606,226.3448123431299,None,,,,,,,,,,,,,,,,,,,,,,,,,,,,,,,,,54,001,2023_Mar_13_1800,SpeechDraft1Carolyn_lessNoise_PlusLocalization,2021.2.3,60.009363851398724,
clash.wav,clash.mpg,clash,2,A,Pink_Noise_2_1.wav,Pink_Noise_2_2.wav,,,,,,,,,,,,,,,0,15,15,13,,,,,,,,,,,,,,,,,,,,,,,230.9781779050827,None,232.4778544260189,None,233.86155529599637,None,clash,233.86155529599637,None,return,2.8762640319764614,233.94487033900805,None,,,,,,,,,,,,,,,,,,,,,,,,,,,,,,,,,54,001,2023_Mar_13_1800,SpeechDraft1Carolyn_lessNoise_PlusLocalization,2021.2.3,60.009363851398724,
clay.wav,clay.mpg,clay,4,A,Pink_Noise_4_1.wav,Pink_Noise_4_2.wav,,,,,,,,,,,,,,,0,16,16,7,,,,,,,,,,,,,,,,,,,,,,,236.8447951739654,None,238.34465255914256,None,239.72819225210696,None,clip,239.72819225210696,None,return,5.921524511883035,239.81167207611725,None,,,,,,,,,,,,,,,,,,,,,,,,,,,,,,,,,54,001,2023_Mar_13_1800,SpeechDraft1Carolyn_lessNoise_PlusLocalization,2021.2.3,60.009363851398724,
chase.wav,chase.mpg,chase,1,A,Pink_Noise_1_1.wav,Pink_Noise_1_2.wav,,,,,,,,,,,,,,,0,17,17,15,,,,,,,,,,,,,,,,,,,,,,,245.76158753503114,None,247.26124447095208,None,248.64494025195017,None,chase,248.64494025195017,None,return,1.9489856578875333,248.72820252203383,None,,,,,,,,,,,,,,,,,,,,,,,,,,,,,,,,,54,001,2023_Mar_13_1800,SpeechDraft1Carolyn_lessNoise_PlusLocalization,2021.2.3,60.009363851398724,
flake.wav,flake.mpg,flake,3,AV,Pink_Noise_3_1.wav,Pink_Noise_3_2.wav,,,,,,,,,,,,,,,0,18,18,103,,,,,,,,,,,,,,,,,,,,,,,250.69485296006314,None,252.19463101495057,None,253.57816285500303,None,flake,253.57816285500303,None,return,5.143512543058023,253.66160001396202,None,,,,,,,,,,,,,,,,,,,,,,,,,,,,,,,,,54,001,2023_Mar_13_1800,SpeechDraft1Carolyn_lessNoise_PlusLocalization,2021.2.3,60.009363851398724,
crate.wav,crate.mpg,crate,5,AV,Pink_Noise_5_1.wav,Pink_Noise_5_2.wav,,,,,,,,,,,,,,,0,19,19,111,,,,,,,,,,,,,,,,,,,,,,,258.82828957308084,None,260.3128850189969,None,261.69485276099294,None,"crate
",261.69485276099294,None,return,3.8659623968414962,261.77912480500527,None,,,,,,,,,,,,,,,,,,,,,,,,,,,,,,,,,54,001,2023_Mar_13_1800,SpeechDraft1Carolyn_lessNoise_PlusLocalization,2021.2.3,60.009363851398724,
fat.wav,fat.mpg,fat,4,A,Pink_Noise_4_1.wav,Pink_Noise_4_2.wav,,,,,,,,,,,,,,,0,20,20,44,,,,,,,,,,,,,,,,,,,,,,,265.67827783408575,None,267.1782400540542,None,268.56160679413006,None,pet,268.56160679413006,None,return,2.0321318600326777,268.6450229960028,None,,,,,,,,,,,,,,,,,,,,,,,,,,,,,,,,,54,001,2023_Mar_13_1800,SpeechDraft1Carolyn_lessNoise_PlusLocalization,2021.2.3,60.009363851398724,
cube.wav,cube.mpg,cube,5,AV,Pink_Noise_5_1.wav,Pink_Noise_5_2.wav,,,,,,,,,,,,,,,0,21,21,106,,,,,,,,,,,,,,,,,,,,,,,270.6949432780966,None,272.19470651703887,None,273.57830123300664,None,"cube
",273.57830123300664,None,return,1.9034834031481296,273.66160373413004,None,,,,,,,,,,,,,,,,,,,,,,,,,,,,,,,,,54,001,2023_Mar_13_1800,SpeechDraft1Carolyn_lessNoise_PlusLocalization,2021.2.3,60.009363851398724,
clown.wav,clown.mpg,clown,4,A,Pink_Noise_4_1.wav,Pink_Noise_4_2.wav,,,,,,,,,,,,,,,0,22,22,35,,,,,,,,,,,,,,,,,,,,,,,275.59490025392734,None,277.0946892721113,None,278.478257026989,None,"cone
",278.478257026989,None,return,10.235303518828005,278.56173906102777,None,,,,,,,,,,,,,,,,,,,,,,,,,,,,,,,,,54,001,2023_Mar_13_1800,SpeechDraft1Carolyn_lessNoise_PlusLocalization,2021.2.3,60.009363851398724,
cold.wav,cold.mpg,cold,3,A,Pink_Noise_3_1.wav,Pink_Noise_3_2.wav,,,,,,,,,,,,,,,0,23,23,49,,,,,,,,,,,,,,,,,,,,,,,288.8282994830515,None,290.3278689221479,None,291.71163737401366,None,cold,291.71163737401366,None,return,1.7462409399449825,291.79494348703884,None,,,,,,,,,,,,,,,,,,,,,,,,,,,,,,,,,54,001,2023_Mar_13_1800,SpeechDraft1Carolyn_lessNoise_PlusLocalization,2021.2.3,60.009363851398724,
dash.wav,dash.mpg,dash,1,A,Pink_Noise_1_1.wav,Pink_Noise_1_2.wav,,,,,,,,,,,,,,,0,24,24,21,,,,,,,,,,,,,,,,,,,,,,,293.56157644698396,None,295.061326402938,None,296.4449476141017,None,dasg,296.4449476141017,None,return,2.388878287980333,296.5283199539408,None,,,,,,,,,,,,,,,,,,,,,,,,,,,,,,,,,54,001,2023_Mar_13_1800,SpeechDraft1Carolyn_lessNoise_PlusLocalization,2021.2.3,60.009363851398724,
float.wav,float.mpg,float,6,AV,Pink_Noise_6_1.wav,Pink_Noise_6_2.wav,,,,,,,,,,,,,,,0,25,25,96,,,,,,,,,,,,,,,,,,,,,,,298.94494556309655,None,300.44459556392394,None,301.82836567796767,None,float,301.82836567796767,None,return,4.293445034883916,301.91164944600314,None,,,,,,,,,,,,,,,,,,,,,,,,,,,,,,,,,54,001,2023_Mar_13_1800,SpeechDraft1Carolyn_lessNoise_PlusLocalization,2021.2.3,60.009363851398724,
fleet.wav,fleet.mpg,fleet,1,A,Pink_Noise_1_1.wav,Pink_Noise_1_2.wav,,,,,,,,,,,,,,,0,26,26,27,,,,,,,,,,,,,,,,,,,,,,,306.2285211989656,None,307.7283182730898,None,309.1117896530777,None,fleet,309.1117896530777,None,return,3.810025210957974,309.1950584349688,None,,,,,,,,,,,,,,,,,,,,,,,,,,,,,,,,,54,001,2023_Mar_13_1800,SpeechDraft1Carolyn_lessNoise_PlusLocalization,2021.2.3,60.009363851398724,
buff.wav,buff.mpg,buff,6,AV,Pink_Noise_6_1.wav,Pink_Noise_6_2.wav,,,,,,,,,,,,,,,0,27,27,85,,,,,,,,,,,,,,,,,,,,,,,313.0282512039412,None,314.5279264829587,None,315.91173150693066,None,buff,315.91173150693066,None,return,3.0420575060416013,315.99502610904165,None,,,,,,,,,,,,,,,,,,,,,,,,,,,,,,,,,54,001,2023_Mar_13_1800,SpeechDraft1Carolyn_lessNoise_PlusLocalization,2021.2.3,60.009363851398724,
cheek.wav,cheek.mpg,cheek,5,A,Pink_Noise_5_1.wav,Pink_Noise_5_2.wav,,,,,,,,,,,,,,,0,28,28,33,,,,,,,,,,,,,,,,,,,,,,,319.06167071615346,None,320.5614709309302,None,321.9450933090411,None,"cheap
",321.9450933090411,None,return,2.5687956009060144,322.0282993861474,None,,,,,,,,,,,,,,,,,,,,,,,,,,,,,,,,,54,001,2023_Mar_13_1800,SpeechDraft1Carolyn_lessNoise_PlusLocalization,2021.2.3,60.009363851398724,
faint.wav,faint.mpg,faint,4,A,Pink_Noise_4_1.wav,Pink_Noise_4_2.wav,,,,,,,,,,,,,,,0,29,29,46,,,,,,,,,,,,,,,,,,,,,,,324.6282726950012,None,326.1282457639463,None,327.5116785969585,None,fate,327.5116785969585,None,return,4.874144461005926,327.595054512145,None,,,,,,,,,,,,,,,,,,,,,,,,,,,,,,,,,54,001,2023_Mar_13_1800,SpeechDraft1Carolyn_lessNoise_PlusLocalization,2021.2.3,60.009363851398724,
fed.wav,fed.mpg,fed,6,A,Pink_Noise_6_1.wav,Pink_Noise_6_2.wav,,,,,,,,,,,,,,,0,30,30,43,,,,,,,,,,,,,,,,,,,,,,,332.49508668202907,None,333.9949544679839,None,335.37837692396715,None,"mom
",335.37837692396715,None,return,6.735264293150976,335.4618187970482,None,,,,,,,,,,,,,,,,,,,,,,,,,,,,,,,,,54,001,2023_Mar_13_1800,SpeechDraft1Carolyn_lessNoise_PlusLocalization,2021.2.3,60.009363851398724,
depth.wav,depth.mpg,depth,1,A,Pink_Noise_1_1.wav,Pink_Noise_1_2.wav,,,,,,,,,,,,,,,0,31,31,51,,,,,,,,,,,,,,,,,,,,,,,342.228448697133,None,343.7279471401125,None,345.1117186890915,None,"depth
",345.1117186890915,None,return,2.2180226331111044,345.1950733130798,None,,,,,,,,,,,,,,,,,,,,,,,,,,,,,,,,,54,001,2023_Mar_13_1800,SpeechDraft1Carolyn_lessNoise_PlusLocalization,2021.2.3,60.009363851398724,
unit.wav,unit.mpg,unit,2,A,Pink_Noise_2_1.wav,Pink_Noise_2_2.wav,,,,,,,,,,,,,,,0,32,32,25,,,,,,,,,,,,,,,,,,,,,,,347.4449262700509,None,348.9447304480709,None,350.32837020698935,None,unit,350.32837020698935,None,return,1.0894038509577513,350.4117644520011,None,,,,,,,,,,,,,,,,,,,,,,,,,,,,,,,,,54,001,2023_Mar_13_1800,SpeechDraft1Carolyn_lessNoise_PlusLocalization,2021.2.3,60.009363851398724,
flock.wav,flock.mpg,flock,4,AV,Pink_Noise_4_1.wav,Pink_Noise_4_2.wav,,,,,,,,,,,,,,,0,33,33,84,,,,,,,,,,,,,,,,,,,,,,,351.5283295379486,None,353.0280599130783,None,354.41166281793267,None,flat,354.41166281793267,None,return,7.526094617089257,354.49499305407517,None,,,,,,,,,,,,,,,,,,,,,,,,,,,,,,,,,54,001,2023_Mar_13_1800,SpeechDraft1Carolyn_lessNoise_PlusLocalization,2021.2.3,60.009363851398724,
beard.wav,beard.mpg,beard,5,AV,Pink_Noise_5_1.wav,Pink_Noise_5_2.wav,,,,,,,,,,,,,,,0,34,34,113,,,,,,,,,,,,,,,,,,,,,,,362.0450731241144,None,363.5447710659355,None,364.9284633260686,None,"mirror
",364.9284633260686,None,return,16.769383505918086,365.0117229721509,None,,,,,,,,,,,,,,,,,,,,,,,,,,,,,,,,,54,001,2023_Mar_13_1800,SpeechDraft1Carolyn_lessNoise_PlusLocalization,2021.2.3,60.009363851398724,
gum.wav,gum.mpg,gum,5,AV,Pink_Noise_5_1.wav,Pink_Noise_5_2.wav,,,,,,,,,,,,,,,0,35,35,97,,,,,,,,,,,,,,,,,,,,,,,381.8116731259506,None,383.31153458193876,None,384.69509839313105,None,gum,384.69509839313105,None,return,5.242564955027774,384.778527115006,None,,,,,,,,,,,,,,,,,,,,,,,,,,,,,,,,,54,001,2023_Mar_13_1800,SpeechDraft1Carolyn_lessNoise_PlusLocalization,2021.2.3,60.009363851398724,
bug.wav,bug.mpg,bug,1,A,Pink_Noise_1_1.wav,Pink_Noise_1_2.wav,,,,,,,,,,,,,,,0,36,36,19,,,,,,,,,,,,,,,,,,,,,,,390.04514825809747,None,391.54485003696755,None,392.9284862729255,None,bug,392.9284862729255,None,return,5.977311430033296,393.0117968400009,None,,,,,,,,,,,,,,,,,,,,,,,,,,,,,,,,,54,001,2023_Mar_13_1800,SpeechDraft1Carolyn_lessNoise_PlusLocalization,2021.2.3,60.009363851398724,
hit.wav,hit.mpg,hit,1,AV,Pink_Noise_1_1.wav,Pink_Noise_1_2.wav,,,,,,,,,,,,,,,0,37,37,102,,,,,,,,,,,,,,,,,,,,,,,399.0117326180916,None,400.5117925510276,None,401.89499333896674,None,"hit
",401.89499333896674,None,return,3.018557642120868,401.97854481008835,None,,,,,,,,,,,,,,,,,,,,,,,,,,,,,,,,,54,001,2023_Mar_13_1800,SpeechDraft1Carolyn_lessNoise_PlusLocalization,2021.2.3,60.009363851398724,
drain.wav,drain.mpg,drain,4,A,Pink_Noise_4_1.wav,Pink_Noise_4_2.wav,,,,,,,,,,,,,,,0,38,38,26,,,,,,,,,,,,,,,,,,,,,,,405.0284105259925,None,406.5280560660176,None,407.9116764150094,None,drape,407.9116764150094,None,return,7.537965956144035,407.99513072008267,None,,,,,,,,,,,,,,,,,,,,,,,,,,,,,,,,,54,001,2023_Mar_13_1800,SpeechDraft1Carolyn_lessNoise_PlusLocalization,2021.2.3,60.009363851398724,
fast.wav,fast.mpg,fast,2,AV,Pink_Noise_2_1.wav,Pink_Noise_2_2.wav,,,,,,,,,,,,,,,0,39,39,81,,,,,,,,,,,,,,,,,,,,,,,415.5617170841433,None,417.06149221607484,None,418.4452467150986,None,fast,418.4452467150986,None,return,2.3965850870590657,418.52861589496024,None,,,,,,,,,,,,,,,,,,,,,,,,,,,,,,,,,54,001,2023_Mar_13_1800,SpeechDraft1Carolyn_lessNoise_PlusLocalization,2021.2.3,60.009363851398724,
traps.wav,traps.mpg,traps,4,AV,Pink_Noise_4_1.wav,Pink_Noise_4_2.wav,,,,,,,,,,,,,,,0,40,40,69,,,,,,,,,,,,,,,,,,,,,,,420.94518130412325,None,422.4447822889779,None,423.8282452230342,None,traps,423.8282452230342,None,return,10.58123701903969,423.9118685319554,None,,,,,,,,,,,,,,,,,,,,,,,,,,,,,,,,,54,001,2023_Mar_13_1800,SpeechDraft1Carolyn_lessNoise_PlusLocalization,2021.2.3,60.009363851398724,
foam.wav,foam.mpg,foam,2,A,Pink_Noise_2_1.wav,Pink_Noise_2_2.wav,,,,,,,,,,,,,,,0,41,41,37,,,,,,,,,,,,,,,,,,,,,,,434.5117959100753,None,436.0117424039636,None,437.3951839839574,None,"foam
",437.3951839839574,None,return,1.3024785430170596,437.47861971799284,None,,,,,,,,,,,,,,,,,,,,,,,,,,,,,,,,,54,001,2023_Mar_13_1800,SpeechDraft1Carolyn_lessNoise_PlusLocalization,2021.2.3,60.009363851398724,
fraud.wav,fraud.mpg,fraud,6,AV,Pink_Noise_6_1.wav,Pink_Noise_6_2.wav,,,,,,,,,,,,,,,0,42,42,77,,,,,,,,,,,,,,,,,,,,,,,438.8118322810624,None,440.31151618110016,None,441.69522952195257,None,far,441.69522952195257,None,return,5.970529509009793,441.77856749715284,None,,,,,,,,,,,,,,,,,,,,,,,,,,,,,,,,,54,001,2023_Mar_13_1800,SpeechDraft1Carolyn_lessNoise_PlusLocalization,2021.2.3,60.009363851398724,
fuss.wav,fuss.mpg,fuss,5,AV,Pink_Noise_5_1.wav,Pink_Noise_5_2.wav,,,,,,,,,,,,,,,0,43,43,91,,,,,,,,,,,,,,,,,,,,,,,447.77851849398576,None,449.2782858670689,None,450.6618805229664,None,fuss,450.6618805229664,None,return,2.107895920984447,450.7452329720836,None,,,,,,,,,,,,,,,,,,,,,,,,,,,,,,,,,54,001,2023_Mar_13_1800,SpeechDraft1Carolyn_lessNoise_PlusLocalization,2021.2.3,60.009363851398724,
none.wav,none.mpg,none,4,A,Pink_Noise_4_1.wav,Pink_Noise_4_2.wav,,,,,,,,,,,,,,,0,44,44,40,,,,,,,,,,,,,,,,,,,,,,,452.87861266499385,None,454.3785169410985,None,455.7619422960561,None,done,455.7619422960561,None,return,1.063968556933105,455.84513371810317,None,,,,,,,,,,,,,,,,,,,,,,,,,,,,,,,,,54,001,2023_Mar_13_1800,SpeechDraft1Carolyn_lessNoise_PlusLocalization,2021.2.3,60.009363851398724,
snake.wav,snake.mpg,snake,1,AV,Pink_Noise_1_1.wav,Pink_Noise_1_2.wav,,,,,,,,,,,,,,,0,45,45,73,,,,,,,,,,,,,,,,,,,,,,,456.92852899013087,None,458.4281770440284,None,459.81189464614727,None,snakle,459.81189464614727,None,return,1.1899907898623496,459.8952195481397,None,,,,,,,,,,,,,,,,,,,,,,,,,,,,,,,,,54,001,2023_Mar_13_1800,SpeechDraft1Carolyn_lessNoise_PlusLocalization,2021.2.3,60.009363851398724,
ease.wav,ease.mpg,ease,3,A,Pink_Noise_3_1.wav,Pink_Noise_3_2.wav,,,,,,,,,,,,,,,0,46,46,29,,,,,,,,,,,,,,,,,,,,,,,461.11184565909207,None,462.61144722113386,None,463.99530024803244,None,earrings,463.99530024803244,None,return,8.174566966015846,464.07852675393224,None,,,,,,,,,,,,,,,,,,,,,,,,,,,,,,,,,54,001,2023_Mar_13_1800,SpeechDraft1Carolyn_lessNoise_PlusLocalization,2021.2.3,60.009363851398724,
lie.wav,lie.mpg,lie,2,AV,Pink_Noise_2_1.wav,Pink_Noise_2_2.wav,,,,,,,,,,,,,,,0,47,47,104,,,,,,,,,,,,,,,,,,,,,,,472.27847321215086,None,473.77819285402074,None,475.16200640494935,None,lie,475.16200640494935,None,return,3.775769508909434,475.24532916396856,None,,,,,,,,,,,,,,,,,,,,,,,,,,,,,,,,,54,001,2023_Mar_13_1800,SpeechDraft1Carolyn_lessNoise_PlusLocalization,2021.2.3,60.009363851398724,
eat.wav,eat.mpg,eat,5,A,Pink_Noise_5_1.wav,Pink_Noise_5_2.wav,,,,,,,,,,,,,,,0,48,48,54,,,,,,,,,,,,,,,,,,,,,,,479.0452315849252,None,480.54508025501855,None,481.92871982301585,None,mute,481.92871982301585,None,return,8.36117065185681,482.01190971699543,None,,,,,,,,,,,,,,,,,,,,,,,,,,,,,,,,,54,001,2023_Mar_13_1800,SpeechDraft1Carolyn_lessNoise_PlusLocalization,2021.2.3,60.009363851398724,
grin.wav,grin.mpg,grin,3,AV,Pink_Noise_3_1.wav,Pink_Noise_3_2.wav,,,,,,,,,,,,,,,0,49,49,118,,,,,,,,,,,,,,,,,,,,,,,490.3952521351166,None,491.8949719290249,None,493.27862552413717,None,grid,493.27862552413717,None,return,3.5714016971178353,493.3618018941488,None,,,,,,,,,,,,,,,,,,,,,,,,,,,,,,,,,54,001,2023_Mar_13_1800,SpeechDraft1Carolyn_lessNoise_PlusLocalization,2021.2.3,60.009363851398724,
frog.wav,frog.mpg,frog,2,A,Pink_Noise_2_1.wav,Pink_Noise_2_2.wav,,,,,,,,,,,,,,,0,50,50,41,,,,,,,,,,,,,,,,,,,,,,,496.9620698480867,None,498.46145545714535,None,499.84526086994447,None,frog,499.84526086994447,None,return,10.308522592065856,499.92859249794856,None,,,,,,,,,,,,,,,,,,,,,,,,,,,,,,,,,54,001,2023_Mar_13_1800,SpeechDraft1Carolyn_lessNoise_PlusLocalization,2021.2.3,60.009363851398724,
cart.wav,cart.mpg,cart,6,AV,Pink_Noise_6_1.wav,Pink_Noise_6_2.wav,,,,,,,,,,,,,,,0,51,51,66,,,,,,,,,,,,,,,,,,,,,,,510.26191322901286,None,511.76210553292185,None,513.1453797260765,None,cart,513.1453797260765,None,return,4.560373099986464,513.2287339849863,None,,,,,,,,,,,,,,,,,,,,,,,,,,,,,,,,,54,001,2023_Mar_13_1800,SpeechDraft1Carolyn_lessNoise_PlusLocalization,2021.2.3,60.009363851398724,
bowl.wav,bowl.mpg,bowl,5,AV,Pink_Noise_5_1.wav,Pink_Noise_5_2.wav,,,,,,,,,,,,,,,0,52,52,119,,,,,,,,,,,,,,,,,,,,,,,517.8119114069268,None,519.3116162361111,None,520.6952320390847,None,bowl,520.6952320390847,None,return,3.290548176970333,520.7786304370966,None,,,,,,,,,,,,,,,,,,,,,,,,,,,,,,,,,54,001,2023_Mar_13_1800,SpeechDraft1Carolyn_lessNoise_PlusLocalization,2021.2.3,60.009363851398724,
stone.wav,stone.mpg,stone,3,AV,Pink_Noise_3_1.wav,Pink_Noise_3_2.wav,,,,,,,,,,,,,,,0,53,53,74,,,,,,,,,,,,,,,,,,,,,,,524.0952545250766,None,525.5948526549619,None,526.9785465439782,None,stow,526.9785465439782,None,return,1.3989624339155853,527.0621937781107,None,,,,,,,,,,,,,,,,,,,,,,,,,,,,,,,,,54,001,2023_Mar_13_1800,SpeechDraft1Carolyn_lessNoise_PlusLocalization,2021.2.3,60.009363851398724,
curl.wav,curl.mpg,curl,1,AV,Pink_Noise_1_1.wav,Pink_Noise_1_2.wav,,,,,,,,,,,,,,,0,54,54,64,,,,,,,,,,,,,,,,,,,,,,,528.4786548840348,None,529.9783023600467,None,531.3619598960504,None,curl,531.3619598960504,None,return,2.4799179160036147,531.4452534830198,None,,,,,,,,,,,,,,,,,,,,,,,,,,,,,,,,,54,001,2023_Mar_13_1800,SpeechDraft1Carolyn_lessNoise_PlusLocalization,2021.2.3,60.009363851398724,
camp.wav,camp.mpg,camp,3,AV,Pink_Noise_3_1.wav,Pink_Noise_3_2.wav,,,,,,,,,,,,,,,0,55,55,100,,,,,,,,,,,,,,,,,,,,,,,533.9453349499963,None,535.444995873142,None,536.82867101999,None,camp,536.82867101999,None,return,2.821260544937104,536.9119031929877,None,,,,,,,,,,,,,,,,,,,,,,,,,,,,,,,,,54,001,2023_Mar_13_1800,SpeechDraft1Carolyn_lessNoise_PlusLocalization,2021.2.3,60.009363851398724,
bait.wav,bait.mpg,bait,2,AV,Pink_Noise_2_1.wav,Pink_Noise_2_2.wav,,,,,,,,,,,,,,,0,56,56,95,,,,,,,,,,,,,,,,,,,,,,,539.7619112019893,None,541.2616766060237,None,542.6451960611157,None,"bait
",542.6451960611157,None,return,3.3884579930454493,542.7286378289573,None,,,,,,,,,,,,,,,,,,,,,,,,,,,,,,,,,54,001,2023_Mar_13_1800,SpeechDraft1Carolyn_lessNoise_PlusLocalization,2021.2.3,60.009363851398724,
duct.wav,duct.mpg,duct,4,AV,Pink_Noise_4_1.wav,Pink_Noise_4_2.wav,,,,,,,,,,,,,,,0,57,57,92,,,,,,,,,,,,,,,,,,,,,,,546.1455380760599,None,547.6616638079286,None,549.028622251004,None,dot,549.028622251004,None,return,5.149061162024736,549.112105089007,None,,,,,,,,,,,,,,,,,,,,,,,,,,,,,,,,,54,001,2023_Mar_13_1800,SpeechDraft1Carolyn_lessNoise_PlusLocalization,2021.2.3,60.009363851398724,
fool.wav,fool.mpg,fool,3,A,Pink_Noise_3_1.wav,Pink_Noise_3_2.wav,,,,,,,,,,,,,,,0,58,58,11,,,,,,,,,,,,,,,,,,,,,,,554.278690312989,None,555.7785440420266,None,557.1620231540874,None,"ghoul
",557.1620231540874,None,return,7.903729873942211,557.2453641879838,None,,,,,,,,,,,,,,,,,,,,,,,,,,,,,,,,,54,001,2023_Mar_13_1800,SpeechDraft1Carolyn_lessNoise_PlusLocalization,2021.2.3,60.009363851398724,
bin.wav,bin.mpg,bin,2,AV,Pink_Noise_2_1.wav,Pink_Noise_2_2.wav,,,,,,,,,,,,,,,0,59,59,109,,,,,,,,,,,,,,,,,,,,,,,565.1786977290176,None,566.6790839110035,None,568.0619174661115,None,bin,568.0619174661115,None,return,2.3238682160153985,568.1453425551299,None,,,,,,,,,,,,,,,,,,,,,,,,,,,,,,,,,54,001,2023_Mar_13_1800,SpeechDraft1Carolyn_lessNoise_PlusLocalization,2021.2.3,60.009363851398724,
goal.wav,goal.mpg,goal,5,A,Pink_Noise_5_1.wav,Pink_Noise_5_2.wav,,,,,,,,,,,,,,,0,60,60,1,,,,,,,,,,,,,,,,,,,,,,,570.495415084064,None,571.9948974850122,None,573.3788486099802,None,laurel,573.3788486099802,None,return,7.79110979498364,573.4620534479618,None,,,,,,,,,,,,,,,,,,,,,,,,,,,,,,,,,54,001,2023_Mar_13_1800,SpeechDraft1Carolyn_lessNoise_PlusLocalization,2021.2.3,60.009363851398724,
chant.wav,chant.mpg,chant,4,A,Pink_Noise_4_1.wav,Pink_Noise_4_2.wav,,,,,,,,,,,,,,,0,61,61,58,,,,,,,,,,,,,,,,,,,,,,,581.2786460369825,None,582.7801483271178,None,584.162028844934,None,chate,584.162028844934,None,return,3.703664034139365,584.245424346067,None,,,,,,,,,,,,,,,,,,,,,,,,,,,,,,,,,54,001,2023_Mar_13_1800,SpeechDraft1Carolyn_lessNoise_PlusLocalization,2021.2.3,60.009363851398724,
bride.wav,bride.mpg,bride,2,AV,Pink_Noise_2_1.wav,Pink_Noise_2_2.wav,,,,,,,,,,,,,,,0,62,62,112,,,,,,,,,,,,,,,,,,,,,,,587.9787935740314,None,589.4799148160964,None,590.8619696551468,None,bride,590.8619696551468,None,return,19.227717543020844,590.9453702981118,None,,,,,,,,,,,,,,,,,,,,,,,,,,,,,,,,,54,001,2023_Mar_13_1800,SpeechDraft1Carolyn_lessNoise_PlusLocalization,2021.2.3,60.009363851398724,
crash.wav,crash.mpg,crash,2,A,Pink_Noise_2_1.wav,Pink_Noise_2_2.wav,,,,,,,,,,,,,,,0,63,63,32,,,,,,,,,,,,,,,,,,,,,,,610.195408014115,None,611.711768032983,None,613.0787670989521,None,"crash
",613.0787670989521,None,return,6.235028109047562,613.1620692580473,None,,,,,,,,,,,,,,,,,,,,,,,,,,,,,,,,,54,001,2023_Mar_13_1800,SpeechDraft1Carolyn_lessNoise_PlusLocalization,2021.2.3,60.009363851398724,
shed.wav,shed.mpg,shed,3,AV,Pink_Noise_3_1.wav,Pink_Noise_3_2.wav,,,,,,,,,,,,,,,0,64,64,89,,,,,,,,,,,,,,,,,,,,,,,619.428807714954,None,620.9298249250278,None,622.3121297410689,None,shed,622.3121297410689,None,return,1.2096370719373226,622.3954549550544,None,,,,,,,,,,,,,,,,,,,,,,,,,,,,,,,,,54,001,2023_Mar_13_1800,SpeechDraft1Carolyn_lessNoise_PlusLocalization,2021.2.3,60.009363851398724,
green.wav,green.mpg,green,6,AV,Pink_Noise_6_1.wav,Pink_Noise_6_2.wav,,,,,,,,,,,,,,,0,65,65,110,,,,,,,,,,,,,,,,,,,,,,,623.6287164080422,None,625.1284616771154,None,626.5120323069859,None,green,626.5120323069859,None,return,3.6496967889834195,626.5955013930798,None,,,,,,,,,,,,,,,,,,,,,,,,,,,,,,,,,54,001,2023_Mar_13_1800,SpeechDraft1Carolyn_lessNoise_PlusLocalization,2021.2.3,60.009363851398724,
swayed.wav,swayed.mpg,swayed,1,AV,Pink_Noise_1_1.wav,Pink_Noise_1_2.wav,,,,,,,,,,,,,,,0,66,66,115,,,,,,,,,,,,,,,,,,,,,,,630.2621085590217,None,631.7618386149406,None,633.1453459910117,None,suede,633.1453459910117,None,return,2.6804513440001756,633.228710622061,None,,,,,,,,,,,,,,,,,,,,,,,,,,,,,,,,,54,001,2023_Mar_13_1800,SpeechDraft1Carolyn_lessNoise_PlusLocalization,2021.2.3,60.009363851398724,
tank.wav,tank.mpg,tank,1,A,Pink_Noise_1_1.wav,Pink_Noise_1_2.wav,,,,,,,,,,,,,,,0,67,67,30,,,,,,,,,,,,,,,,,,,,,,,635.9290167819709,None,637.428362343926,None,638.8121793000028,None,tank,638.8121793000028,None,return,1.3576067450921983,638.8955249791034,None,,,,,,,,,,,,,,,,,,,,,,,,,,,,,,,,,54,001,2023_Mar_13_1800,SpeechDraft1Carolyn_lessNoise_PlusLocalization,2021.2.3,60.009363851398724,
truce.wav,truce.mpg,truce,6,A,Pink_Noise_6_1.wav,Pink_Noise_6_2.wav,,,,,,,,,,,,,,,0,68,68,14,,,,,,,,,,,,,,,,,,,,,,,640.2787817011122,None,641.7951727111358,None,643.1788514200598,None,peace,643.1788514200598,None,return,2.8231848520226777,643.2620921030175,None,,,,,,,,,,,,,,,,,,,,,,,,,,,,,,,,,54,001,2023_Mar_13_1800,SpeechDraft1Carolyn_lessNoise_PlusLocalization,2021.2.3,60.009363851398724,
fish.wav,fish.mpg,fish,3,A,Pink_Noise_3_1.wav,Pink_Noise_3_2.wav,,,,,,,,,,,,,,,0,69,69,28,,,,,,,,,,,,,,,,,,,,,,,646.1120873070322,None,647.6134560741484,None,648.9954739799723,None,fish,648.9954739799723,None,return,3.3582732200156897,649.0788096459582,None,,,,,,,,,,,,,,,,,,,,,,,,,,,,,,,,,54,001,2023_Mar_13_1800,SpeechDraft1Carolyn_lessNoise_PlusLocalization,2021.2.3,60.009363851398724,
gush.wav,gush.mpg,gush,5,A,Pink_Noise_5_1.wav,Pink_Noise_5_2.wav,,,,,,,,,,,,,,,0,70,70,55,,,,,,,,,,,,,,,,,,,,,,,652.462143467972,None,653.9617169280536,None,655.3454961411189,None,marsh,655.3454961411189,None,return,2.096323811914772,655.4288136621471,None,,,,,,,,,,,,,,,,,,,,,,,,,,,,,,,,,54,001,2023_Mar_13_1800,SpeechDraft1Carolyn_lessNoise_PlusLocalization,2021.2.3,60.009363851398724,
guest.wav,guest.mpg,guest,1,AV,Pink_Noise_1_1.wav,Pink_Noise_1_2.wav,,,,,,,,,,,,,,,0,71,71,78,,,,,,,,,,,,,,,,,,,,,,,657.5455587590113,None,659.0453141920734,None,660.4291825280525,None,"guest
",660.4291825280525,None,return,5.036912610055879,660.5121858851053,None,,,,,,,,,,,,,,,,,,,,,,,,,,,,,,,,,54,001,2023_Mar_13_1800,SpeechDraft1Carolyn_lessNoise_PlusLocalization,2021.2.3,60.009363851398724,
flash.wav,flash.mpg,flash,1,A,Pink_Noise_1_1.wav,Pink_Noise_1_2.wav,,,,,,,,,,,,,,,0,72,72,10,,,,,,,,,,,,,,,,,,,,,,,665.5787497579586,None,667.0952554570977,None,668.4620464809705,None,"flash
",668.4620464809705,None,return,1.0195564979221672,668.5455419521313,None,,,,,,,,,,,,,,,,,,,,,,,,,,,,,,,,,54,001,2023_Mar_13_1800,SpeechDraft1Carolyn_lessNoise_PlusLocalization,2021.2.3,60.009363851398724,
burn.wav,burn.mpg,burn,4,A,Pink_Noise_4_1.wav,Pink_Noise_4_2.wav,,,,,,,,,,,,,,,0,73,73,6,,,,,,,,,,,,,,,,,,,,,,,669.5954490080476,None,671.0952171839308,None,672.4788286150433,None,bird,672.4788286150433,None,return,2.299073569010943,672.56210612203,None,,,,,,,,,,,,,,,,,,,,,,,,,,,,,,,,,54,001,2023_Mar_13_1800,SpeechDraft1Carolyn_lessNoise_PlusLocalization,2021.2.3,60.009363851398724,
blind.wav,blind.mpg,blind,3,AV,Pink_Noise_3_1.wav,Pink_Noise_3_2.wav,,,,,,,,,,,,,,,0,74,74,67,,,,,,,,,,,,,,,,,,,,,,,674.8788321150932,None,676.3787285911385,None,677.762100049993,None,"blind
",677.762100049993,None,return,3.1513892239890993,677.8457137900405,None,,,,,,,,,,,,,,,,,,,,,,,,,,,,,,,,,54,001,2023_Mar_13_1800,SpeechDraft1Carolyn_lessNoise_PlusLocalization,2021.2.3,60.009363851398724,
blow.wav,blow.mpg,blow,5,AV,Pink_Noise_5_1.wav,Pink_Noise_5_2.wav,,,,,,,,,,,,,,,0,75,75,94,,,,,,,,,,,,,,,,,,,,,,,681.0289466551039,None,682.545387336053,None,683.9288042660337,None,blow,683.9288042660337,None,return,2.057031184900552,684.0121737529989,None,,,,,,,,,,,,,,,,,,,,,,,,,,,,,,,,,54,001,2023_Mar_13_1800,SpeechDraft1Carolyn_lessNoise_PlusLocalization,2021.2.3,60.009363851398724,
blood.wav,blood.mpg,blood,4,AV,Pink_Noise_4_1.wav,Pink_Noise_4_2.wav,,,,,,,,,,,,,,,0,76,76,76,,,,,,,,,,,,,,,,,,,,,,,686.0955721510109,None,687.6117922540288,None,688.9797367139254,None,"blood
",688.9797367139254,None,return,1.6868841801770031,689.0622029069345,None,,,,,,,,,,,,,,,,,,,,,,,,,,,,,,,,,54,001,2023_Mar_13_1800,SpeechDraft1Carolyn_lessNoise_PlusLocalization,2021.2.3,60.009363851398724,
rod.wav,rod.mpg,rod,4,A,Pink_Noise_4_1.wav,Pink_Noise_4_2.wav,,,,,,,,,,,,,,,0,77,77,5,,,,,,,,,,,,,,,,,,,,,,,690.7788480981253,None,692.2788139779586,None,693.6622320211027,None,"ride
",693.6622320211027,None,return,5.467476201010868,693.7456011970062,None,,,,,,,,,,,,,,,,,,,,,,,,,,,,,,,,,54,001,2023_Mar_13_1800,SpeechDraft1Carolyn_lessNoise_PlusLocalization,2021.2.3,60.009363851398724,
block.wav,block.mpg,block,6,A,Pink_Noise_6_1.wav,Pink_Noise_6_2.wav,,,,,,,,,,,,,,,0,78,78,39,,,,,,,,,,,,,,,,,,,,,,,699.2455135900527,None,700.7452812029514,None,702.1288249799982,None,luck,702.1288249799982,None,return,3.3608436149079353,702.2122574560344,None,,,,,,,,,,,,,,,,,,,,,,,,,,,,,,,,,54,001,2023_Mar_13_1800,SpeechDraft1Carolyn_lessNoise_PlusLocalization,2021.2.3,60.009363851398724,
chump.wav,chump.mpg,chump,3,AV,Pink_Noise_3_1.wav,Pink_Noise_3_2.wav,,,,,,,,,,,,,,,0,79,79,101,,,,,,,,,,,,,,,,,,,,,,,705.5956269940361,None,707.0953144659288,None,708.4787889069412,None,"chum
",708.4787889069412,None,return,1.4349602300208062,708.5621436981019,None,,,,,,,,,,,,,,,,,,,,,,,,,,,,,,,,,54,001,2023_Mar_13_1800,SpeechDraft1Carolyn_lessNoise_PlusLocalization,2021.2.3,60.009363851398724,
glass.wav,glass.mpg,glass,2,AV,Pink_Noise_2_1.wav,Pink_Noise_2_2.wav,,,,,,,,,,,,,,,0,80,80,79,,,,,,,,,,,,,,,,,,,,,,,710.028735761065,None,711.530590966111,None,712.9120455430821,None,glass,712.9120455430821,None,return,1.441480710171163,712.9956405831035,None,,,,,,,,,,,,,,,,,,,,,,,,,,,,,,,,,54,001,2023_Mar_13_1800,SpeechDraft1Carolyn_lessNoise_PlusLocalization,2021.2.3,60.009363851398724,
club.wav,club.mpg,club,1,AV,Pink_Noise_1_1.wav,Pink_Noise_1_2.wav,,,,,,,,,,,,,,,0,81,81,62,,,,,,,,,,,,,,,,,,,,,,,714.4621503630187,None,715.9619803479873,None,717.3455078669358,None,club,717.3455078669358,None,return,3.2642691410146654,717.428831591038,None,,,,,,,,,,,,,,,,,,,,,,,,,,,,,,,,,54,001,2023_Mar_13_1800,SpeechDraft1Carolyn_lessNoise_PlusLocalization,2021.2.3,60.009363851398724,
count.wav,count.mpg,count,6,AV,Pink_Noise_6_1.wav,Pink_Noise_6_2.wav,,,,,,,,,,,,,,,0,82,82,60,,,,,,,,,,,,,,,,,,,,,,,720.7121117841452,None,722.2120172909927,None,723.5955336571205,None,count,723.5955336571205,None,return,4.422284108120948,723.6788384909742,None,,,,,,,,,,,,,,,,,,,,,,,,,,,,,,,,,54,001,2023_Mar_13_1800,SpeechDraft1Carolyn_lessNoise_PlusLocalization,2021.2.3,60.009363851398724,
flirt.wav,flirt.mpg,flirt,4,AV,Pink_Noise_4_1.wav,Pink_Noise_4_2.wav,,,,,,,,,,,,,,,0,83,83,114,,,,,,,,,,,,,,,,,,,,,,,728.1290021811146,None,729.6454059169628,None,731.0289117360953,None,foot,731.0289117360953,None,return,3.340880470117554,731.1122609970625,None,,,,,,,,,,,,,,,,,,,,,,,,,,,,,,,,,54,001,2023_Mar_13_1800,SpeechDraft1Carolyn_lessNoise_PlusLocalization,2021.2.3,60.009363851398724,
bib.wav,bib.mpg,bib,6,A,Pink_Noise_6_1.wav,Pink_Noise_6_2.wav,,,,,,,,,,,,,,,0,84,84,42,,,,,,,,,,,,,,,,,,,,,,,734.478800042998,None,735.9785509109497,None,737.3622762011364,None,day,737.3622762011364,None,return,3.4156098149251193,737.4455832070671,None,,,,,,,,,,,,,,,,,,,,,,,,,,,,,,,,,54,001,2023_Mar_13_1800,SpeechDraft1Carolyn_lessNoise_PlusLocalization,2021.2.3,60.009363851398724,
beat.wav,beat.mpg,beat,3,A,Pink_Noise_3_1.wav,Pink_Noise_3_2.wav,,,,,,,,,,,,,,,0,85,85,16,,,,,,,,,,,,,,,,,,,,,,,740.8788960571401,None,742.395365789067,None,743.7787525339518,None,eat,743.7787525339518,None,return,2.6069799300748855,743.8622258559335,None,,,,,,,,,,,,,,,,,,,,,,,,,,,,,,,,,54,001,2023_Mar_13_1800,SpeechDraft1Carolyn_lessNoise_PlusLocalization,2021.2.3,60.009363851398724,
giant.wav,giant.mpg,giant,4,AV,Pink_Noise_4_1.wav,Pink_Noise_4_2.wav,,,,,,,,,,,,,,,0,86,86,86,,,,,,,,,,,,,,,,,,,,,,,746.4955478960183,None,747.9956053891219,None,749.3789041971322,None,giany,749.3789041971322,None,return,1.8149327910505235,749.462233552942,None,,,,,,,,,,,,,,,,,,,,,,,,,,,,,,,,,54,001,2023_Mar_13_1800,SpeechDraft1Carolyn_lessNoise_PlusLocalization,2021.2.3,60.009363851398724,
grass.wav,grass.mpg,grass,1,AV,Pink_Noise_1_1.wav,Pink_Noise_1_2.wav,,,,,,,,,,,,,,,0,87,87,107,,,,,,,,,,,,,,,,,,,,,,,751.2956535411067,None,752.7961745369248,None,754.17888790695,None,grass,754.17888790695,None,return,4.974682461936027,754.2623994329479,None,,,,,,,,,,,,,,,,,,,,,,,,,,,,,,,,,54,001,2023_Mar_13_1800,SpeechDraft1Carolyn_lessNoise_PlusLocalization,2021.2.3,60.009363851398724,
round.wav,round.mpg,round,3,A,Pink_Noise_3_1.wav,Pink_Noise_3_2.wav,,,,,,,,,,,,,,,0,88,88,38,,,,,,,,,,,,,,,,,,,,,,,759.2622578779701,None,760.7785266099963,None,762.1622355331201,None,round,762.1622355331201,None,return,7.295503177912906,762.2456169759389,None,,,,,,,,,,,,,,,,,,,,,,,,,,,,,,,,,54,001,2023_Mar_13_1800,SpeechDraft1Carolyn_lessNoise_PlusLocalization,2021.2.3,60.009363851398724,
cult.wav,cult.mpg,cult,4,AV,Pink_Noise_4_1.wav,Pink_Noise_4_2.wav,,,,,,,,,,,,,,,0,89,89,93,,,,,,,,,,,,,,,,,,,,,,,769.5623215991072,None,771.0786421280354,None,772.4624183659907,None,call,772.4624183659907,None,return,3.7474422401282936,772.5456480081193,None,,,,,,,,,,,,,,,,,,,,,,,,,,,,,,,,,54,001,2023_Mar_13_1800,SpeechDraft1Carolyn_lessNoise_PlusLocalization,2021.2.3,60.009363851398724,
shut.wav,shut.mpg,shut,5,AV,Pink_Noise_5_1.wav,Pink_Noise_5_2.wav,,,,,,,,,,,,,,,0,90,90,116,,,,,,,,,,,,,,,,,,,,,,,776.312295323005,None,777.828700782964,None,779.21222952893,None,shut,779.21222952893,None,return,1.8055425977800041,779.2956405000295,None,,,,,,,,,,,,,,,,,,,,,,,,,,,,,,,,,54,001,2023_Mar_13_1800,SpeechDraft1Carolyn_lessNoise_PlusLocalization,2021.2.3,60.009363851398724,
pop.wav,pop.mpg,pop,3,A,Pink_Noise_3_1.wav,Pink_Noise_3_2.wav,,,,,,,,,,,,,,,0,91,91,18,,,,,,,,,,,,,,,,,,,,,,,781.1289089380298,None,782.6286916411482,None,784.0123838710133,None,pop,784.0123838710133,None,return,3.6933499698061496,784.0957216420211,None,,,,,,,,,,,,,,,,,,,,,,,,,,,,,,,,,54,001,2023_Mar_13_1800,SpeechDraft1Carolyn_lessNoise_PlusLocalization,2021.2.3,60.009363851398724,
golf.wav,golf.mpg,golf,3,AV,Pink_Noise_3_1.wav,Pink_Noise_3_2.wav,,,,,,,,,,,,,,,0,92,92,108,,,,,,,,,,,,,,,,,,,,,,,787.8122970990371,None,789.3286526370794,None,790.7122197081335,None,"golf
",790.7122197081335,None,return,1.7694233350921422,790.7956662930083,None,,,,,,,,,,,,,,,,,,,,,,,,,,,,,,,,,54,001,2023_Mar_13_1800,SpeechDraft1Carolyn_lessNoise_PlusLocalization,2021.2.3,60.009363851398724,
foil.wav,foil.mpg,foil,6,AV,Pink_Noise_6_1.wav,Pink_Noise_6_2.wav,,,,,,,,,,,,,,,0,93,93,83,,,,,,,,,,,,,,,,,,,,,,,792.5956487290096,None,794.0954780450556,None,795.4788857491221,None,"foil
",795.4788857491221,None,return,4.250688303960487,795.5624073459767,None,,,,,,,,,,,,,,,,,,,,,,,,,,,,,,,,,54,001,2023_Mar_13_1800,SpeechDraft1Carolyn_lessNoise_PlusLocalization,2021.2.3,60.009363851398724,
rent.wav,rent.mpg,rent,6,A,Pink_Noise_6_1.wav,Pink_Noise_6_2.wav,,,,,,,,,,,,,,,0,94,94,0,,,,,,,,,,,,,,,,,,,,,,,799.8457202850841,None,801.3453741720878,None,802.7287096790969,None,rent,802.7287096790969,None,return,2.112828698940575,802.8123185159639,None,,,,,,,,,,,,,,,,,,,,,,,,,,,,,,,,,54,001,2023_Mar_13_1800,SpeechDraft1Carolyn_lessNoise_PlusLocalization,2021.2.3,60.009363851398724,
gown.wav,gown.mpg,gown,6,AV,Pink_Noise_6_1.wav,Pink_Noise_6_2.wav,,,,,,,,,,,,,,,0,95,95,75,,,,,,,,,,,,,,,,,,,,,,,804.945665541105,None,806.4620694590267,None,807.8455025139265,None,cow,807.8455025139265,None,return,1.2280117340851575,807.929089861922,None,,,,,,,,,,,,,,,,,,,,,,,,,,,,,,,,,54,001,2023_Mar_13_1800,SpeechDraft1Carolyn_lessNoise_PlusLocalization,2021.2.3,60.009363851398724,
glove.wav,glove.mpg,glove,3,AV,Pink_Noise_3_1.wav,Pink_Noise_3_2.wav,,,,,,,,,,,,,,,0,96,96,82,,,,,,,,,,,,,,,,,,,,,,,809.1790302540176,None,810.6787630410399,None,812.0625146939419,None,glove,812.0625146939419,None,return,2.6114182719029486,812.1456745010801,None,,,,,,,,,,,,,,,,,,,,,,,,,,,,,,,,,54,001,2023_Mar_13_1800,SpeechDraft1Carolyn_lessNoise_PlusLocalization,2021.2.3,60.009363851398724,
grasp.wav,grasp.mpg,grasp,4,AV,Pink_Noise_4_1.wav,Pink_Noise_4_2.wav,,,,,,,,,,,,,,,0,97,97,90,,,,,,,,,,,,,,,,,,,,,,,814.7789200111292,None,816.2953463990707,None,817.6789972221013,None,grasp,817.6789972221013,None,return,4.9228053111582994,817.7623963749502,None,,,,,,,,,,,,,,,,,,,,,,,,,,,,,,,,,54,001,2023_Mar_13_1800,SpeechDraft1Carolyn_lessNoise_PlusLocalization,2021.2.3,60.009363851398724,
fill.wav,fill.mpg,fill,5,AV,Pink_Noise_5_1.wav,Pink_Noise_5_2.wav,,,,,,,,,,,,,,,0,98,98,65,,,,,,,,,,,,,,,,,,,,,,,822.7125090330373,None,824.2288632120471,None,825.6123596681282,None,fill,825.6123596681282,None,return,1.1655788400676101,825.6956604910083,None,,,,,,,,,,,,,,,,,,,,,,,,,,,,,,,,,54,001,2023_Mar_13_1800,SpeechDraft1Carolyn_lessNoise_PlusLocalization,2021.2.3,60.009363851398724,
grail.wav,grail.mpg,grail,2,AV,Pink_Noise_2_1.wav,Pink_Noise_2_2.wav,,,,,,,,,,,,,,,0,99,99,80,,,,,,,,,,,,,,,,,,,,,,,826.8790716959629,None,828.3954599550925,None,829.7790785010438,None,grai;,829.7790785010438,None,return,5.630726519040763,829.8623668039218,None,,,,,,,,,,,,,,,,,,,,,,,,,,,,,,,,,54,001,2023_Mar_13_1800,SpeechDraft1Carolyn_lessNoise_PlusLocalization,2021.2.3,60.009363851398724,
draft.wav,draft.mpg,draft,2,A,Pink_Noise_2_1.wav,Pink_Noise_2_2.wav,,,,,,,,,,,,,,,0,100,100,45,,,,,,,,,,,,,,,,,,,,,,,835.5123495389707,None,837.0454689341132,None,838.4290002039634,None,draft,838.4290002039634,None,return,3.1488045260775834,838.5123657779768,None,,,,,,,,,,,,,,,,,,,,,,,,,,,,,,,,,54,001,2023_Mar_13_1800,SpeechDraft1Carolyn_lessNoise_PlusLocalization,2021.2.3,60.009363851398724,
cause.wav,cause.mpg,cause,5,A,Pink_Noise_5_1.wav,Pink_Noise_5_2.wav,,,,,,,,,,,,,,,0,101,101,2,,,,,,,,,,,,,,,,,,,,,,,841.6790209210012,None,843.1953989479225,None,844.5791561980732,None,calls,844.5791561980732,None,return,3.030842322157696,844.662276746938,None,,,,,,,,,,,,,,,,,,,,,,,,,,,,,,,,,54,001,2023_Mar_13_1800,SpeechDraft1Carolyn_lessNoise_PlusLocalization,2021.2.3,60.009363851398724,
steam.wav,steam.mpg,steam,2,A,Pink_Noise_2_1.wav,Pink_Noise_2_2.wav,,,,,,,,,,,,,,,0,102,102,57,,,,,,,,,,,,,,,,,,,,,,,847.7123592321295,None,849.2289008740336,None,850.612406949047,None,steam,850.612406949047,None,return,1.5974931900855154,850.6956701010931,None,,,,,,,,,,,,,,,,,,,,,,,,,,,,,,,,,54,001,2023_Mar_13_1800,SpeechDraft1Carolyn_lessNoise_PlusLocalization,2021.2.3,60.009363851398724,
blond.wav,blond.mpg,blond,6,A,Pink_Noise_6_1.wav,Pink_Noise_6_2.wav,,,,,,,,,,,,,,,0,103,103,17,,,,,,,,,,,,,,,,,,,,,,,852.3124098540284,None,853.828779442003,None,855.2125008890871,None,fly,855.2125008890871,None,return,0.9893642768729478,855.2958203190938,None,,,,,,,,,,,,,,,,,,,,,,,,,,,,,,,,,54,001,2023_Mar_13_1800,SpeechDraft1Carolyn_lessNoise_PlusLocalization,2021.2.3,60.009363851398724,
bind.wav,bind.mpg,bind,5,A,Pink_Noise_5_1.wav,Pink_Noise_5_2.wav,,,,,,,,,,,,,,,0,104,104,22,,,,,,,,,,,,,,,,,,,,,,,856.3123808430973,None,857.8287607140373,None,859.2123828679323,None,eye,859.2123828679323,None,return,1.2213185450527817,859.295778067084,None,,,,,,,,,,,,,,,,,,,,,,,,,,,,,,,,,54,001,2023_Mar_13_1800,SpeechDraft1Carolyn_lessNoise_PlusLocalization,2021.2.3,60.009363851398724,
brash.wav,brash.mpg,brash,4,AV,Pink_Noise_4_1.wav,Pink_Noise_4_2.wav,,,,,,,,,,,,,,,0,105,105,71,,,,,,,,,,,,,,,,,,,,,,,860.5457678320818,None,862.0622153291479,None,863.4455611309968,None,"brash
",863.4455611309968,None,return,6.899959460133687,863.529126917012,None,,,,,,,,,,,,,,,,,,,,,,,,,,,,,,,,,54,001,2023_Mar_13_1800,SpeechDraft1Carolyn_lessNoise_PlusLocalization,2021.2.3,60.009363851398724,
brick.wav,brick.mpg,brick,5,A,Pink_Noise_5_1.wav,Pink_Noise_5_2.wav,,,,,,,,,,,,,,,0,106,106,56,,,,,,,,,,,,,,,,,,,,,,,870.4624209180474,None,872.0120710120536,None,873.3958128879312,None,"writ
",873.3958128879312,None,return,5.349980128929019,873.4791173080448,None,,,,,,,,,,,,,,,,,,,,,,,,,,,,,,,,,54,001,2023_Mar_13_1800,SpeechDraft1Carolyn_lessNoise_PlusLocalization,2021.2.3,60.009363851398724,
break.wav,break.mpg,break,3,A,Pink_Noise_3_1.wav,Pink_Noise_3_2.wav,,,,,,,,,,,,,,,0,107,107,8,,,,,,,,,,,,,,,,,,,,,,,878.8624117770232,None,880.3788056359626,None,881.7624760339968,None,break,881.7624760339968,None,return,4.799248266965151,881.8459392720833,None,,,,,,,,,,,,,,,,,,,,,,,,,,,,,,,,,54,001,2023_Mar_13_1800,SpeechDraft1Carolyn_lessNoise_PlusLocalization,2021.2.3,60.009363851398724,
dump.wav,dump.mpg,dump,1,A,Pink_Noise_1_1.wav,Pink_Noise_1_2.wav,,,,,,,,,,,,,,,0,108,108,23,,,,,,,,,,,,,,,,,,,,,,,886.6623961750884,None,888.1787585159764,None,889.5623969840817,None,dumn,889.5623969840817,None,return,1.3914508738089353,889.6456390521489,None,,,,,,,,,,,,,,,,,,,,,,,,,,,,,,,,,54,001,2023_Mar_13_1800,SpeechDraft1Carolyn_lessNoise_PlusLocalization,2021.2.3,60.009363851398724,
dish.wav,dish.mpg,dish,6,AV,Pink_Noise_6_1.wav,Pink_Noise_6_2.wav,,,,,,,,,,,,,,,0,109,109,98,,,,,,,,,,,,,,,,,,,,,,,891.0625937909354,None,892.5624696209561,None,893.9456851070281,None,sit,893.9456851070281,None,return,2.3599458429962397,894.0291365410667,None,,,,,,,,,,,,,,,,,,,,,,,,,,,,,,,,,54,001,2023_Mar_13_1800,SpeechDraft1Carolyn_lessNoise_PlusLocalization,2021.2.3,60.009363851398724,
groan.wav,groan.mpg,groan,2,A,Pink_Noise_2_1.wav,Pink_Noise_2_2.wav,,,,,,,,,,,,,,,0,110,110,53,,,,,,,,,,,,,,,,,,,,,,,896.4124274409842,None,897.9287840421312,None,899.3125321900006,None,grow,899.3125321900006,None,return,13.849363239016384,899.3958221869543,None,,,,,,,,,,,,,,,,,,,,,,,,,,,,,,,,,54,001,2023_Mar_13_1800,SpeechDraft1Carolyn_lessNoise_PlusLocalization,2021.2.3,60.009363851398724,
wine.wav,wine.mpg,wine,4,AV,Pink_Noise_4_1.wav,Pink_Noise_4_2.wav,,,,,,,,,,,,,,,0,111,111,61,,,,,,,,,,,,,,,,,,,,,,,913.2623659521341,None,914.7789395090658,None,916.1624028559308,None,why,916.1624028559308,None,return,3.271346841007471,916.2457369850017,None,,,,,,,,,,,,,,,,,,,,,,,,,,,,,,,,,54,001,2023_Mar_13_1800,SpeechDraft1Carolyn_lessNoise_PlusLocalization,2021.2.3,60.009363851398724,
bless.wav,bless.mpg,bless,6,A,Pink_Noise_6_1.wav,Pink_Noise_6_2.wav,,,,,,,,,,,,,,,0,112,112,50,,,,,,,,,,,,,,,,,,,,,,,919.5456339139491,None,921.0464002939407,None,922.4291706881486,None,rest,922.4291706881486,None,return,2.0285696890205145,922.5125210229307,None,,,,,,,,,,,,,,,,,,,,,,,,,,,,,,,,,54,001,2023_Mar_13_1800,SpeechDraft1Carolyn_lessNoise_PlusLocalization,2021.2.3,60.009363851398724,
cycle.wav,cycle.mpg,cycle,5,AV,Pink_Noise_5_1.wav,Pink_Noise_5_2.wav,,,,,,,,,,,,,,,0,113,113,70,,,,,,,,,,,,,,,,,,,,,,,924.5624109229539,None,926.0788154250477,None,927.4624694199301,None,"cycle
",927.4624694199301,None,return,3.403183582937345,927.5459051660728,None,,,,,,,,,,,,,,,,,,,,,,,,,,,,,,,,,54,001,2023_Mar_13_1800,SpeechDraft1Carolyn_lessNoise_PlusLocalization,2021.2.3,60.009363851398724,
bag.wav,bag.mpg,bag,5,A,Pink_Noise_5_1.wav,Pink_Noise_5_2.wav,,,,,,,,,,,,,,,0,114,114,20,,,,,,,,,,,,,,,,,,,,,,,930.9791041030549,None,932.5121896599885,None,933.895810540067,None,end,933.895810540067,None,return,2.0658832660410553,933.9792983510997,None,,,,,,,,,,,,,,,,,,,,,,,,,,,,,,,,,54,001,2023_Mar_13_1800,SpeechDraft1Carolyn_lessNoise_PlusLocalization,2021.2.3,60.009363851398724,
slush.wav,slush.mpg,slush,2,A,Pink_Noise_2_1.wav,Pink_Noise_2_2.wav,,,,,,,,,,,,,,,0,115,115,4,,,,,,,,,,,,,,,,,,,,,,,936.0624987031333,None,937.5788684680592,None,938.9625332390424,None,slush,938.9625332390424,None,return,6.375166988000274,939.0459155710414,None,,,,,,,,,,,,,,,,,,,,,,,,,,,,,,,,,54,001,2023_Mar_13_1800,SpeechDraft1Carolyn_lessNoise_PlusLocalization,2021.2.3,60.009363851398724,
choke.wav,choke.mpg,choke,3,AV,Pink_Noise_3_1.wav,Pink_Noise_3_2.wav,,,,,,,,,,,,,,,0,116,116,87,,,,,,,,,,,,,,,,,,,,,,,945.445908036083,None,946.9623932139948,None,948.345735742012,None,choke,948.345735742012,None,return,4.079992109909654,948.4291604440659,None,,,,,,,,,,,,,,,,,,,,,,,,,,,,,,,,,54,001,2023_Mar_13_1800,SpeechDraft1Carolyn_lessNoise_PlusLocalization,2021.2.3,60.009363851398724,
grip.wav,grip.mpg,grip,2,AV,Pink_Noise_2_1.wav,Pink_Noise_2_2.wav,,,,,,,,,,,,,,,0,117,117,105,,,,,,,,,,,,,,,,,,,,,,,952.5292210460175,None,954.0455113800708,None,955.4291977761313,None,grip,955.4291977761313,None,return,9.148707997985184,955.5124957470689,None,,,,,,,,,,,,,,,,,,,,,,,,,,,,,,,,,54,001,2023_Mar_13_1800,SpeechDraft1Carolyn_lessNoise_PlusLocalization,2021.2.3,60.009363851398724,
chick.wav,chick.mpg,chick,1,A,Pink_Noise_1_1.wav,Pink_Noise_1_2.wav,,,,,,,,,,,,,,,0,118,118,59,,,,,,,,,,,,,,,,,,,,,,,964.6792401280254,None,966.1956904490944,None,967.579316791147,None,chick,967.579316791147,None,return,4.462542550871149,967.6625785289798,None,,,,,,,,,,,,,,,,,,,,,,,,,,,,,,,,,54,001,2023_Mar_13_1800,SpeechDraft1Carolyn_lessNoise_PlusLocalization,2021.2.3,60.009363851398724,
blaze.wav,blaze.mpg,blaze,1,AV,Pink_Noise_1_1.wav,Pink_Noise_1_2.wav,,,,,,,,,,,,,,,0,119,119,99,,,,,,,,,,,,,,,,,,,,,,,972.1458480539732,None,973.6623797430657,None,975.0458740119357,None,"blaze
",975.0458740119357,None,return,8.6518424320966,975.1292457380332,None,,,,,,,,,,,,,,,,,,,,,,,,,,,,,,,,,54,001,2023_Mar_13_1800,SpeechDraft1Carolyn_lessNoise_PlusLocalization,2021.2.3,60.009363851398724,
,,,,,,,,,,,,,,,,,,,,,,,,,,,,,,,,,,,,,,,,,,,,,,,,,,,,,,,,,,,,,,,,,,space,19.54849576111883,983.9126550750807,None,,,,,,,,,,,,,,,,,,,,,,,54,001,2023_Mar_13_1800,SpeechDraft1Carolyn_lessNoise_PlusLocalization,2021.2.3,60.009363851398724,
,,,,,,,,midRight,13.0,3,ch1Sound_localizationTask.wav,13.0,"(1142, 878)","(182, -202)",190,-338,,,,,,,,,0,0,0,5,,,,,,,,,,,,,,,,,,,,,,,,,,,,,,,,,,,,,,,,,,983.9126550750807,None,1003.495621877024,None,1004.5954681141302,None,1005.5289549110457,None,1.2624338624338625,3.2188017801381648,1005.5289549110457,None,,,,,,,,,,,54,001,2023_Mar_13_1800,SpeechDraft1Carolyn_lessNoise_PlusLocalization,2021.2.3,60.009363851398724,
,,,,,,,,nearRight,6.5,0,ch1Sound_localizationTask.wav,6.5,"(1047, 878)","(87, -202)",95,-338,,,,,,,,,0,1,1,4,,,,,,,,,,,,,,,,,,,,,,,,,,,,,,,,,,,,,,,,,,,,1008.7463453300297,None,1009.845648678951,None,1010.7789843790233,None,1.5566137566137566,1.616413592128083,1010.7789843790233,None,,,,,,,,,,,54,001,2023_Mar_13_1800,SpeechDraft1Carolyn_lessNoise_PlusLocalization,2021.2.3,60.009363851398724,
,,,,,,,,nearRight,6.5,0,ch1Sound_localizationTask.wav,6.5,"(1047, 878)","(87, -202)",95,-338,,,,,,,,,0,2,2,4,,,,,,,,,,,,,,,,,,,,,,,,,,,,,,,,,,,,,,,,,,,,1012.4127311920747,None,1013.5122576220892,None,1014.4456824960653,None,1.494179894179894,0.666488653048873,1014.4456824960653,None,,,,,,,,,,,54,001,2023_Mar_13_1800,SpeechDraft1Carolyn_lessNoise_PlusLocalization,2021.2.3,60.009363851398724,
,,,,,,,,farLeft,-19.1,5,ch1Sound_localizationTask.wav,-19.1,"(667, 878)","(-293,-202)",-285,-338,,,,,,,,,0,3,3,0,,,,,,,,,,,,,,,,,,,,,,,,,,,,,,,,,,,,,,,,,,,,1015.112621240085,None,1016.2123078261502,None,1017.1456030660775,None,1.3148148148148149,0.9156782228965312,1017.1456030660775,None,,,,,,,,,,,54,001,2023_Mar_13_1800,SpeechDraft1Carolyn_lessNoise_PlusLocalization,2021.2.3,60.009363851398724,
,,,,,,,,nearRight,6.5,0,ch1Sound_localizationTask.wav,6.5,"(1047, 878)","(87, -202)",95,-338,,,,,,,,,0,4,4,4,,,,,,,,,,,,,,,,,,,,,,,,,,,,,,,,,,,,,,,,,,,,1018.0632559179794,None,1019.1623187360819,None,1020.0957068139687,None,1.6232804232804234,0.8986816839314997,1020.0957068139687,None,,,,,,,,,,,54,001,2023_Mar_13_1800,SpeechDraft1Carolyn_lessNoise_PlusLocalization,2021.2.3,60.009363851398724,
,,,,,,,,nearLeft,-6.5,1,ch1Sound_localizationTask.wav,-6.5,"(857, 878)","(-103,-202)",-95,-338,,,,,,,,,0,5,5,2,,,,,,,,,,,,,,,,,,,,,,,,,,,,,,,,,,,,,,,,,,,,1020.9961328180507,None,1022.0957071650773,None,1023.0289207410533,None,1.3735449735449734,0.9990479662083089,1023.0289207410533,None,,,,,,,,,,,54,001,2023_Mar_13_1800,SpeechDraft1Carolyn_lessNoise_PlusLocalization,2021.2.3,60.009363851398724,
,,,,,,,,farRight,19.1,4,ch1Sound_localizationTask.wav,19.1,"(1237, 878)","(277,-202)",285,-338,,,,,,,,,0,6,6,6,,,,,,,,,,,,,,,,,,,,,,,,,,,,,,,,,,,,,,,,,,,,1024.0294944790658,None,1025.1289587130304,None,1026.0623390821274,None,1.7613756613756615,0.8166914149187505,1026.0623390821274,None,,,,,,,,,,,54,001,2023_Mar_13_1800,SpeechDraft1Carolyn_lessNoise_PlusLocalization,2021.2.3,60.009363851398724,
,,,,,,,,midLeft,-13.0,2,ch1Sound_localizationTask.wav,-13.0,"(762, 878)","(-198,-202)",-190,-338,,,,,,,,,1,0,7,1,,,,,,,,,,,,,,,,,,,,,,,,,,,,,,,,,,,,,,,,,,,,1026.896019600099,None,1027.9956199231092,None,1028.9292456239928,None,1.2878306878306878,1.098906273022294,1028.9292456239928,None,,,,,,,,,,,54,001,2023_Mar_13_1800,SpeechDraft1Carolyn_lessNoise_PlusLocalization,2021.2.3,60.009363851398724,
,,,,,,,,midLeft,-13.0,2,ch1Sound_localizationTask.wav,-13.0,"(762, 878)","(-198,-202)",-190,-338,,,,,,,,,1,1,8,1,,,,,,,,,,,,,,,,,,,,,,,,,,,,,,,,,,,,,,,,,,,,1030.0293691460975,None,1031.1288782919291,None,1032.0623138430528,None,1.3169312169312168,0.732104416936636,1032.0623138430528,None,,,,,,,,,,,54,001,2023_Mar_13_1800,SpeechDraft1Carolyn_lessNoise_PlusLocalization,2021.2.3,60.009363851398724,
,,,,,,,,farRight,19.1,4,ch1Sound_localizationTask.wav,19.1,"(1237, 878)","(277,-202)",285,-338,,,,,,,,,1,2,9,6,,,,,,,,,,,,,,,,,,,,,,,,,,,,,,,,,,,,,,,,,,,,1032.7960154030006,None,1033.895895672962,None,1034.828893064987,None,1.680952380952381,1.4323772678617388,1034.828893064987,None,,,,,,,,,,,54,001,2023_Mar_13_1800,SpeechDraft1Carolyn_lessNoise_PlusLocalization,2021.2.3,60.009363851398724,
,,,,,,,,center,0.0,6,ch1Sound_localizationTask.wav,0.0,"(952, 878)","(-8,-202)",0,-338,,,,,,,,,1,3,10,3,,,,,,,,,,,,,,,,,,,,,,,,,,,,,,,,,,,,,,,,,,,,1036.2627588100731,None,1037.36224490311,None,1038.2956966119818,None,1.4370370370370371,0.8657097909599543,1038.2956966119818,None,,,,,,,,,,,54,001,2023_Mar_13_1800,SpeechDraft1Carolyn_lessNoise_PlusLocalization,2021.2.3,60.009363851398724,
,,,,,,,,farRight,19.1,4,ch1Sound_localizationTask.wav,19.1,"(1237, 878)","(277,-202)",285,-338,,,,,,,,,1,4,11,6,,,,,,,,,,,,,,,,,,,,,,,,,,,,,,,,,,,,,,,,,,,,1039.1626203579362,None,1040.2623911970295,None,1041.1957394520286,None,1.7587301587301587,0.8325317550916225,1041.1957394520286,None,,,,,,,,,,,54,001,2023_Mar_13_1800,SpeechDraft1Carolyn_lessNoise_PlusLocalization,2021.2.3,60.009363851398724,
,,,,,,,,midLeft,-13.0,2,ch1Sound_localizationTask.wav,-13.0,"(762, 878)","(-198,-202)",-190,-338,,,,,,,,,1,5,12,1,,,,,,,,,,,,,,,,,,,,,,,,,,,,,,,,,,,,,,,,,,,,1042.0297149380203,None,1043.1290639040526,None,1044.0626235890668,None,1.2904761904761906,0.6823662440292537,1044.0626235890668,None,,,,,,,,,,,54,001,2023_Mar_13_1800,SpeechDraft1Carolyn_lessNoise_PlusLocalization,2021.2.3,60.009363851398724,
,,,,,,,,nearLeft,-6.5,1,ch1Sound_localizationTask.wav,-6.5,"(857, 878)","(-103,-202)",-95,-338,,,,,,,,,1,6,13,2,,,,,,,,,,,,,,,,,,,,,,,,,,,,,,,,,,,,,,,,,,,,1044.746693721041,None,1045.8457721199375,None,1046.7790398939978,None,1.4079365079365078,0.7844545380212367,1046.7790398939978,None,,,,,,,,,,,54,001,2023_Mar_13_1800,SpeechDraft1Carolyn_lessNoise_PlusLocalization,2021.2.3,60.009363851398724,
,,,,,,,,nearRight,6.5,0,ch1Sound_localizationTask.wav,6.5,"(1047, 878)","(87, -202)",95,-338,,,,,,,,,2,0,14,4,,,,,,,,,,,,,,,,,,,,,,,,,,,,,,,,,,,,,,,,,,,,1047.5793118600268,None,1048.6790102180094,None,1049.6122848929372,None,1.498941798941799,1.0331203232053667,1049.6122848929372,None,,,,,,,,,,,54,001,2023_Mar_13_1800,SpeechDraft1Carolyn_lessNoise_PlusLocalization,2021.2.3,60.009363851398724,
,,,,,,,,midLeft,-13.0,2,ch1Sound_localizationTask.wav,-13.0,"(762, 878)","(-198,-202)",-190,-338,,,,,,,,,2,1,15,1,,,,,,,,,,,,,,,,,,,,,,,,,,,,,,,,,,,,,,,,,,,,1050.6626240930054,None,1051.76245686505,None,1052.6957598940935,None,1.3777777777777778,1.3324215398170054,1052.6957598940935,None,,,,,,,,,,,54,001,2023_Mar_13_1800,SpeechDraft1Carolyn_lessNoise_PlusLocalization,2021.2.3,60.009363851398724,
,,,,,,,,nearRight,6.5,0,ch1Sound_localizationTask.wav,6.5,"(1047, 878)","(87, -202)",95,-338,,,,,,,,,2,2,16,4,,,,,,,,,,,,,,,,,,,,,,,,,,,,,,,,,,,,,,,,,,,,1054.0292844581418,None,1055.129214643035,None,1056.062322492944,None,1.560846560846561,0.7828005710616708,1056.062322492944,None,,,,,,,,,,,54,001,2023_Mar_13_1800,SpeechDraft1Carolyn_lessNoise_PlusLocalization,2021.2.3,60.009363851398724,
,,,,,,,,midRight,13.0,3,ch1Sound_localizationTask.wav,13.0,"(1142, 878)","(182, -202)",190,-338,,,,,,,,,2,3,17,5,,,,,,,,,,,,,,,,,,,,,,,,,,,,,,,,,,,,,,,,,,,,1056.8462293180637,None,1057.9456799170002,None,1058.879097887082,None,1.6587301587301586,0.5504845948889852,1058.879097887082,None,,,,,,,,,,,54,001,2023_Mar_13_1800,SpeechDraft1Carolyn_lessNoise_PlusLocalization,2021.2.3,60.009363851398724,
,,,,,,,,center,0.0,6,ch1Sound_localizationTask.wav,0.0,"(952, 878)","(-8,-202)",0,-338,,,,,,,,,2,4,18,3,,,,,,,,,,,,,,,,,,,,,,,,,,,,,,,,,,,,,,,,,,,,1059.4460308160633,None,1060.5456210549455,None,1061.4790394450538,None,1.5052910052910053,0.6819162180181593,1061.4790394450538,None,,,,,,,,,,,54,001,2023_Mar_13_1800,SpeechDraft1Carolyn_lessNoise_PlusLocalization,2021.2.3,60.009363851398724,
,,,,,,,,farLeft,-19.1,5,ch1Sound_localizationTask.wav,-19.1,"(667, 878)","(-293,-202)",-285,-338,,,,,,,,,2,5,19,0,,,,,,,,,,,,,,,,,,,,,,,,,,,,,,,,,,,,,,,,,,,,1062.1625697731506,None,1063.2624051470775,None,1064.1956483679824,None,1.2587301587301587,1.1493688910268247,1064.1956483679824,None,,,,,,,,,,,54,001,2023_Mar_13_1800,SpeechDraft1Carolyn_lessNoise_PlusLocalization,2021.2.3,60.009363851398724,
,,,,,,,,farLeft,-19.1,5,ch1Sound_localizationTask.wav,-19.1,"(667, 878)","(-293,-202)",-285,-338,,,,,,,,,2,6,20,0,,,,,,,,,,,,,,,,,,,,,,,,,,,,,,,,,,,,,,,,,,,,1065.3470247660298,None,1066.4623350230977,None,1067.3790306081064,None,1.2074074074074073,0.7658333589788526,1067.3790306081064,None,,,,,,,,,,,54,001,2023_Mar_13_1800,SpeechDraft1Carolyn_lessNoise_PlusLocalization,2021.2.3,60.009363851398724,
,,,,,,,,center,0.0,6,ch1Sound_localizationTask.wav,0.0,"(952, 878)","(-8,-202)",0,-338,,,,,,,,,3,0,21,3,,,,,,,,,,,,,,,,,,,,,,,,,,,,,,,,,,,,,,,,,,,,1068.1459400891326,None,1069.2457908981014,None,1070.1791027749423,None,1.4735449735449735,0.8325183319393545,1070.1791027749423,None,,,,,,,,,,,54,001,2023_Mar_13_1800,SpeechDraft1Carolyn_lessNoise_PlusLocalization,2021.2.3,60.009363851398724,
,,,,,,,,farLeft,-19.1,5,ch1Sound_localizationTask.wav,-19.1,"(667, 878)","(-293,-202)",-285,-338,,,,,,,,,3,1,22,0,,,,,,,,,,,,,,,,,,,,,,,,,,,,,,,,,,,,,,,,,,,,1071.012669854099,None,1072.1124539000448,None,1073.0457341549918,None,1.2645502645502646,1.1482670560944825,1073.0457341549918,None,,,,,,,,,,,54,001,2023_Mar_13_1800,SpeechDraft1Carolyn_lessNoise_PlusLocalization,2021.2.3,60.009363851398724,
,,,,,,,,farRight,19.1,4,ch1Sound_localizationTask.wav,19.1,"(1237, 878)","(277,-202)",285,-338,,,,,,,,,3,2,23,6,,,,,,,,,,,,,,,,,,,,,,,,,,,,,,,,,,,,,,,,,,,,1074.1959693320096,None,1075.295812678989,None,1076.2290752660483,None,1.7634920634920634,0.6986234788782895,1076.2290752660483,None,,,,,,,,,,,54,001,2023_Mar_13_1800,SpeechDraft1Carolyn_lessNoise_PlusLocalization,2021.2.3,60.009363851398724,
,,,,,,,,midRight,13.0,3,ch1Sound_localizationTask.wav,13.0,"(1142, 878)","(182, -202)",190,-338,,,,,,,,,3,3,24,5,,,,,,,,,,,,,,,,,,,,,,,,,,,,,,,,,,,,,,,,,,,,1076.9295142400078,None,1078.0292749151122,None,1078.96253016009,None,1.6153439153439153,0.6993257629219443,1078.96253016009,None,,,,,,,,,,,54,001,2023_Mar_13_1800,SpeechDraft1Carolyn_lessNoise_PlusLocalization,2021.2.3,60.009363851398724,
,,,,,,,,farLeft,-19.1,5,ch1Sound_localizationTask.wav,-19.1,"(667, 878)","(-293,-202)",-285,-338,,,,,,,,,3,4,25,0,,,,,,,,,,,,,,,,,,,,,,,,,,,,,,,,,,,,,,,,,,,,1079.6631073011085,None,1080.7624689650256,None,1081.6957248989493,None,1.3518518518518519,0.6312343240715563,1081.6957248989493,None,,,,,,,,,,,54,001,2023_Mar_13_1800,SpeechDraft1Carolyn_lessNoise_PlusLocalization,2021.2.3,60.009363851398724,
,,,,,,,,nearRight,6.5,0,ch1Sound_localizationTask.wav,6.5,"(1047, 878)","(87, -202)",95,-338,,,,,,,,,3,5,26,4,,,,,,,,,,,,,,,,,,,,,,,,,,,,,,,,,,,,,,,,,,,,1082.3293458181433,None,1083.4291404010728,None,1084.362502194941,None,1.5825396825396827,0.5662874090485275,1084.362502194941,None,,,,,,,,,,,54,001,2023_Mar_13_1800,SpeechDraft1Carolyn_lessNoise_PlusLocalization,2021.2.3,60.009363851398724,
,,,,,,,,center,0.0,6,ch1Sound_localizationTask.wav,0.0,"(952, 878)","(-8,-202)",0,-338,,,,,,,,,3,6,27,3,,,,,,,,,,,,,,,,,,,,,,,,,,,,,,,,,,,,,,,,,,,,1084.929265073035,None,1086.0290895639919,None,1086.9625175199471,None,1.493121693121693,0.6328387130051851,1086.9625175199471,None,,,,,,,,,,,54,001,2023_Mar_13_1800,SpeechDraft1Carolyn_lessNoise_PlusLocalization,2021.2.3,60.009363851398724,
,,,,,,,,center,0.0,6,ch1Sound_localizationTask.wav,0.0,"(952, 878)","(-8,-202)",0,-338,,,,,,,,,4,0,28,3,,,,,,,,,,,,,,,,,,,,,,,,,,,,,,,,,,,,,,,,,,,,1087.5960860471241,None,1088.6957981660962,None,1089.6290283079725,None,1.5206349206349206,0.6493994649499655,1089.6290283079725,None,,,,,,,,,,,54,001,2023_Mar_13_1800,SpeechDraft1Carolyn_lessNoise_PlusLocalization,2021.2.3,60.009363851398724,
,,,,,,,,nearLeft,-6.5,1,ch1Sound_localizationTask.wav,-6.5,"(857, 878)","(-103,-202)",-95,-338,,,,,,,,,4,1,29,2,,,,,,,,,,,,,,,,,,,,,,,,,,,,,,,,,,,,,,,,,,,,1090.2793020380195,None,1091.3791932819877,None,1092.3124484990258,None,1.4010582010582011,0.6339512888807803,1092.3124484990258,None,,,,,,,,,,,54,001,2023_Mar_13_1800,SpeechDraft1Carolyn_lessNoise_PlusLocalization,2021.2.3,60.009363851398724,
,,,,,,,,midLeft,-13.0,2,ch1Sound_localizationTask.wav,-13.0,"(762, 878)","(-198,-202)",-190,-338,,,,,,,,,4,2,30,1,,,,,,,,,,,,,,,,,,,,,,,,,,,,,,,,,,,,,,,,,,,,1092.9625933440402,None,1094.0625496560242,None,1094.9958483870141,None,1.3645502645502645,1.149740788852796,1094.9958483870141,None,,,,,,,,,,,54,001,2023_Mar_13_1800,SpeechDraft1Carolyn_lessNoise_PlusLocalization,2021.2.3,60.009363851398724,
,,,,,,,,farRight,19.1,4,ch1Sound_localizationTask.wav,19.1,"(1237, 878)","(277,-202)",285,-338,,,,,,,,,4,3,31,6,,,,,,,,,,,,,,,,,,,,,,,,,,,,,,,,,,,,,,,,,,,,1096.162769855,None,1097.2624250759836,None,1098.1957125209738,None,1.7941798941798943,1.215241233818233,1098.1957125209738,None,,,,,,,,,,,54,001,2023_Mar_13_1800,SpeechDraft1Carolyn_lessNoise_PlusLocalization,2021.2.3,60.009363851398724,
,,,,,,,,nearLeft,-6.5,1,ch1Sound_localizationTask.wav,-6.5,"(857, 878)","(-103,-202)",-95,-338,,,,,,,,,4,4,32,2,,,,,,,,,,,,,,,,,,,,,,,,,,,,,,,,,,,,,,,,,,,,1099.4126862429548,None,1100.5125755949412,None,1101.445798736997,None,1.3962962962962964,0.783098170068115,1101.445798736997,None,,,,,,,,,,,54,001,2023_Mar_13_1800,SpeechDraft1Carolyn_lessNoise_PlusLocalization,2021.2.3,60.009363851398724,
,,,,,,,,midRight,13.0,3,ch1Sound_localizationTask.wav,13.0,"(1142, 878)","(182, -202)",190,-338,,,,,,,,,4,5,33,5,,,,,,,,,,,,,,,,,,,,,,,,,,,,,,,,,,,,,,,,,,,,1102.2293466511182,None,1103.3290850189514,None,1104.2624217839912,None,1.643915343915344,0.5986636599991471,1104.2624217839912,None,,,,,,,,,,,54,001,2023_Mar_13_1800,SpeechDraft1Carolyn_lessNoise_PlusLocalization,2021.2.3,60.009363851398724,
,,,,,,,,midLeft,-13.0,2,ch1Sound_localizationTask.wav,-13.0,"(762, 878)","(-198,-202)",-190,-338,,,,,,,,,4,6,34,1,,,,,,,,,,,,,,,,,,,,,,,,,,,,,,,,,,,,,,,,,,,,1104.8628629690502,None,1105.9624348911457,None,1106.8957966279704,None,1.4005291005291005,0.5667724679224193,1106.8957966279704,None,,,,,,,,,,,54,001,2023_Mar_13_1800,SpeechDraft1Carolyn_lessNoise_PlusLocalization,2021.2.3,60.009363851398724,
,,,,,,,,nearLeft,-6.5,1,ch1Sound_localizationTask.wav,-6.5,"(857, 878)","(-103,-202)",-95,-338,,,,,,,,,5,0,35,2,,,,,,,,,,,,,,,,,,,,,,,,,,,,,,,,,,,,,,,,,,,,1107.4794023479335,None,1108.579092554981,None,1109.5125220569316,None,1.4661375661375662,0.6317190749105066,1109.5125220569316,None,,,,,,,,,,,54,001,2023_Mar_13_1800,SpeechDraft1Carolyn_lessNoise_PlusLocalization,2021.2.3,60.009363851398724,
,,,,,,,,nearRight,6.5,0,ch1Sound_localizationTask.wav,6.5,"(1047, 878)","(87, -202)",95,-338,,,,,,,,,5,1,36,4,,,,,,,,,,,,,,,,,,,,,,,,,,,,,,,,,,,,,,,,,,,,1110.1462108381093,None,1111.2457829150371,None,1112.1792193269357,None,1.565079365079365,0.6990697379224002,1112.1792193269357,None,,,,,,,,,,,54,001,2023_Mar_13_1800,SpeechDraft1Carolyn_lessNoise_PlusLocalization,2021.2.3,60.009363851398724,
,,,,,,,,midRight,13.0,3,ch1Sound_localizationTask.wav,13.0,"(1142, 878)","(182, -202)",190,-338,,,,,,,,,5,2,37,5,,,,,,,,,,,,,,,,,,,,,,,,,,,,,,,,,,,,,,,,,,,,1112.8794439020567,None,1113.979078900069,None,1114.9126868480816,None,1.6444444444444444,0.665917961858213,1114.9126868480816,None,,,,,,,,,,,54,001,2023_Mar_13_1800,SpeechDraft1Carolyn_lessNoise_PlusLocalization,2021.2.3,60.009363851398724,
,,,,,,,,midLeft,-13.0,2,ch1Sound_localizationTask.wav,-13.0,"(762, 878)","(-198,-202)",-190,-338,,,,,,,,,5,3,38,1,,,,,,,,,,,,,,,,,,,,,,,,,,,,,,,,,,,,,,,,,,,,1115.5794003889896,None,1116.6791749170516,None,1117.612425774103,None,1.3656084656084655,0.8827974160667509,1117.612425774103,None,,,,,,,,,,,54,001,2023_Mar_13_1800,SpeechDraft1Carolyn_lessNoise_PlusLocalization,2021.2.3,60.009363851398724,
,,,,,,,,midLeft,-13.0,2,ch1Sound_localizationTask.wav,-13.0,"(762, 878)","(-198,-202)",-190,-338,,,,,,,,,5,4,39,1,,,,,,,,,,,,,,,,,,,,,,,,,,,,,,,,,,,,,,,,,,,,1118.497226248961,None,1119.6124226020183,None,1120.5291893540416,None,1.3894179894179894,0.798734778072685,1120.5291893540416,None,,,,,,,,,,,54,001,2023_Mar_13_1800,SpeechDraft1Carolyn_lessNoise_PlusLocalization,2021.2.3,60.009363851398724,
,,,,,,,,farRight,19.1,4,ch1Sound_localizationTask.wav,19.1,"(1237, 878)","(277,-202)",285,-338,,,,,,,,,5,5,40,6,,,,,,,,,,,,,,,,,,,,,,,,,,,,,,,,,,,,,,,,,,,,1121.3292591799982,None,1122.4291588689666,None,1123.3624059271533,None,1.682010582010582,0.8997773909941316,1123.3624059271533,None,,,,,,,,,,,54,001,2023_Mar_13_1800,SpeechDraft1Carolyn_lessNoise_PlusLocalization,2021.2.3,60.009363851398724,
,,,,,,,,center,0.0,6,ch1Sound_localizationTask.wav,0.0,"(952, 878)","(-8,-202)",0,-338,,,,,,,,,5,6,41,3,,,,,,,,,,,,,,,,,,,,,,,,,,,,,,,,,,,,,,,,,,,,1124.2627703840844,None,1125.362430575071,None,1126.2958297040313,None,1.5285714285714285,0.5661964660976082,1126.2958297040313,None,,,,,,,,,,,54,001,2023_Mar_13_1800,SpeechDraft1Carolyn_lessNoise_PlusLocalization,2021.2.3,60.009363851398724,
,,,,,,,,farLeft,-19.1,5,ch1Sound_localizationTask.wav,-19.1,"(667, 878)","(-293,-202)",-285,-338,,,,,,,,,6,0,42,0,,,,,,,,,,,,,,,,,,,,,,,,,,,,,,,,,,,,,,,,,,,,1126.8627792629413,None,1127.9625805551186,None,1128.8958333940245,None,1.2338624338624338,0.8657418768852949,1128.8958333940245,None,,,,,,,,,,,54,001,2023_Mar_13_1800,SpeechDraft1Carolyn_lessNoise_PlusLocalization,2021.2.3,60.009363851398724,
,,,,,,,,midRight,13.0,3,ch1Sound_localizationTask.wav,13.0,"(1142, 878)","(182, -202)",190,-338,,,,,,,,,6,1,43,5,,,,,,,,,,,,,,,,,,,,,,,,,,,,,,,,,,,,,,,,,,,,1129.7628817891236,None,1130.8625026531518,None,1131.7958601049613,None,1.6735449735449737,0.6824253429658711,1131.7958601049613,None,,,,,,,,,,,54,001,2023_Mar_13_1800,SpeechDraft1Carolyn_lessNoise_PlusLocalization,2021.2.3,60.009363851398724,
,,,,,,,,nearLeft,-6.5,1,ch1Sound_localizationTask.wav,-6.5,"(857, 878)","(-103,-202)",-95,-338,,,,,,,,,6,2,44,2,,,,,,,,,,,,,,,,,,,,,,,,,,,,,,,,,,,,,,,,,,,,1132.4796557929367,None,1133.5792814660817,None,1134.5124715941492,None,1.4158730158730157,0.5825146269053221,1134.5124715941492,None,,,,,,,,,,,54,001,2023_Mar_13_1800,SpeechDraft1Carolyn_lessNoise_PlusLocalization,2021.2.3,60.009363851398724,
,,,,,,,,nearRight,6.5,0,ch1Sound_localizationTask.wav,6.5,"(1047, 878)","(87, -202)",95,-338,,,,,,,,,6,3,45,4,,,,,,,,,,,,,,,,,,,,,,,,,,,,,,,,,,,,,,,,,,,,1135.0961001119576,None,1136.1958605281543,None,1137.1294341660105,None,1.5513227513227514,0.8315227071288973,1137.1294341660105,None,,,,,,,,,,,54,001,2023_Mar_13_1800,SpeechDraft1Carolyn_lessNoise_PlusLocalization,2021.2.3,60.009363851398724,
,,,,,,,,center,0.0,6,ch1Sound_localizationTask.wav,0.0,"(952, 878)","(-8,-202)",0,-338,,,,,,,,,6,4,46,3,,,,,,,,,,,,,,,,,,,,,,,,,,,,,,,,,,,,,,,,,,,,1137.9628226649947,None,1139.0625611320138,None,1139.9957164989319,None,1.5037037037037035,0.9810714670456946,1139.9957164989319,None,,,,,,,,,,,54,001,2023_Mar_13_1800,SpeechDraft1Carolyn_lessNoise_PlusLocalization,2021.2.3,60.009363851398724,
,,,,,,,,farLeft,-19.1,5,ch1Sound_localizationTask.wav,-19.1,"(667, 878)","(-293,-202)",-285,-338,,,,,,,,,6,5,47,0,,,,,,,,,,,,,,,,,,,,,,,,,,,,,,,,,,,,,,,,,,,,1140.979412309127,None,1142.079117428977,None,1143.012577967951,None,1.2306878306878306,0.7490530968643725,1143.012577967951,None,,,,,,,,,,,54,001,2023_Mar_13_1800,SpeechDraft1Carolyn_lessNoise_PlusLocalization,2021.2.3,60.009363851398724,
,,,,,,,,center,0.0,6,ch1Sound_localizationTask.wav,0.0,"(952, 878)","(-8,-202)",0,-338,,,,,,,,,6,6,48,3,,,,,,,,,,,,,,,,,,,,,,,,,,,,,,,,,,,,,,,,,,,,1143.7629251601174,None,1144.8625507289544,None,1145.795848847134,None,1.498941798941799,0.8334267681930214,1145.795848847134,None,,,,,,,,,,,54,001,2023_Mar_13_1800,SpeechDraft1Carolyn_lessNoise_PlusLocalization,2021.2.3,60.009363851398724,
,,,,,,,,farRight,19.1,4,ch1Sound_localizationTask.wav,19.1,"(1237, 878)","(277,-202)",285,-338,,,,,,,,,7,0,49,6,,,,,,,,,,,,,,,,,,,,,,,,,,,,,,,,,,,,,,,,,,,,1146.6294649769552,None,1147.7291281051002,None,1148.6625096120406,None,1.7116402116402116,0.5661681089550257,1148.6625096120406,None,,,,,,,,,,,54,001,2023_Mar_13_1800,SpeechDraft1Carolyn_lessNoise_PlusLocalization,2021.2.3,60.009363851398724,
,,,,,,,,midRight,13.0,3,ch1Sound_localizationTask.wav,13.0,"(1142, 878)","(182, -202)",190,-338,,,,,,,,,7,1,50,5,,,,,,,,,,,,,,,,,,,,,,,,,,,,,,,,,,,,,,,,,,,,1149.22948210896,None,1150.3291244190186,None,1151.2626336801331,None,1.6936507936507936,0.4830445440020412,1151.2626336801331,None,,,,,,,,,,,54,001,2023_Mar_13_1800,SpeechDraft1Carolyn_lessNoise_PlusLocalization,2021.2.3,60.009363851398724,
,,,,,,,,nearLeft,-6.5,1,ch1Sound_localizationTask.wav,-6.5,"(857, 878)","(-103,-202)",-95,-338,,,,,,,,,7,2,51,2,,,,,,,,,,,,,,,,,,,,,,,,,,,,,,,,,,,,,,,,,,,,1151.746697385097,None,1152.8458088079933,None,1153.7791705301497,None,1.4878306878306877,0.7814927170984447,1153.7791705301497,None,,,,,,,,,,,54,001,2023_Mar_13_1800,SpeechDraft1Carolyn_lessNoise_PlusLocalization,2021.2.3,60.009363851398724,
,,,,,,,,midRight,13.0,3,ch1Sound_localizationTask.wav,13.0,"(1142, 878)","(182, -202)",190,-338,,,,,,,,,7,3,52,5,,,,,,,,,,,,,,,,,,,,,,,,,,,,,,,,,,,,,,,,,,,,1154.562865758082,None,1155.6625032711308,None,1156.5958947369363,None,1.6322751322751323,0.5992183659691364,1156.5958947369363,None,,,,,,,,,,,54,001,2023_Mar_13_1800,SpeechDraft1Carolyn_lessNoise_PlusLocalization,2021.2.3,60.009363851398724,
,,,,,,,,nearLeft,-6.5,1,ch1Sound_localizationTask.wav,-6.5,"(857, 878)","(-103,-202)",-95,-338,,,,,,,,,7,4,53,2,,,,,,,,,,,,,,,,,,,,,,,,,,,,,,,,,,,,,,,,,,,,1157.1961291620973,None,1158.2959112799726,None,1159.2292582429945,None,1.4121693121693122,0.7993730211164802,1159.2292582429945,None,,,,,,,,,,,54,001,2023_Mar_13_1800,SpeechDraft1Carolyn_lessNoise_PlusLocalization,2021.2.3,60.009363851398724,
,,,,,,,,farLeft,-19.1,5,ch1Sound_localizationTask.wav,-19.1,"(667, 878)","(-293,-202)",-285,-338,,,,,,,,,7,5,54,0,,,,,,,,,,,,,,,,,,,,,,,,,,,,,,,,,,,,,,,,,,,,1160.029594839085,None,1161.1292004981078,None,1162.0625142080244,None,1.3126984126984127,0.78164076898247,1162.0625142080244,None,,,,,,,,,,,54,001,2023_Mar_13_1800,SpeechDraft1Carolyn_lessNoise_PlusLocalization,2021.2.3,60.009363851398724,
,,,,,,,,farRight,19.1,4,ch1Sound_localizationTask.wav,19.1,"(1237, 878)","(277,-202)",285,-338,,,,,,,,,7,6,55,6,,,,,,,,,,,,,,,,,,,,,,,,,,,,,,,,,,,,,,,,,,,,1162.846013112925,None,1163.9457131980453,None,1164.879292123951,None,1.7798941798941799,1.1997359979432076,1164.879292123951,None,,,,,,,,,,,54,001,2023_Mar_13_1800,SpeechDraft1Carolyn_lessNoise_PlusLocalization,2021.2.3,60.009363851398724,
,,,,,,,,,,,,,,,,,,,,,,,,,,,,,,,,,,,,,,,,,,,,,,,,,,,,,,,,,,,,,,,,,,,,,,,,,,,,,,,,,,space,8.698335092049092,1166.1628199061379,None,,,,,,,54,001,2023_Mar_13_1800,SpeechDraft1Carolyn_lessNoise_PlusLocalization,2021.2.3,60.009363851398724,
,,,,,,,,midLeft,-13.0,2,ch1Sound_localizationTask.wav,-13.0,"(762, 878)","(-198,-202)",-190,-338,,,,,,,,,,,,,0,0,0,1,,,,,,,,,,,,,,,,,,,,,,,,,,,,,,,,,,,,,,,,1174.896001273999,None,,,1177.9292383349966,None,1.391005291005291,1.1033204500563443,1177.9292383349966,None,,,,,1166.1628199061379,None,1175.8961854740046,None,1176.0796247629914,1176.0962065791246,54,001,2023_Mar_13_1800,SpeechDraft1Carolyn_lessNoise_PlusLocalization,2021.2.3,60.009363851398724,
,,,,,,,,midLeft,-13.0,2,ch1Sound_localizationTask.wav,-13.0,"(762, 878)","(-198,-202)",-190,-338,,,,,,,,,,,,,0,1,1,1,,,,,,,,,,,,,,,,,,,,,,,,,,,,,,,,,,,,,,,,1179.029848992126,None,,,1182.0460047360975,None,1.3973544973544973,0.9318329289089888,1182.0460047360975,None,,,,,,,1180.0295967310667,None,1180.212927001994,1180.2295860699378,54,001,2023_Mar_13_1800,SpeechDraft1Carolyn_lessNoise_PlusLocalization,2021.2.3,60.009363851398724,
,,,,,,,,farRight,19.1,4,ch1Sound_localizationTask.wav,19.1,"(1237, 878)","(277,-202)",285,-338,,,,,,,,,,,,,0,2,2,6,,,,,,,,,,,,,,,,,,,,,,,,,,,,,,,,,,,,,,,,1182.9795146619435,None,,,1185.9960084750783,None,1.668783068783069,1.1659166440367699,1185.9960084750783,None,,,,,,,1183.9795981410425,None,1184.162863746984,1184.179589888081,54,001,2023_Mar_13_1800,SpeechDraft1Carolyn_lessNoise_PlusLocalization,2021.2.3,60.009363851398724,
,,,,,,,,midRight,13.0,3,ch1Sound_localizationTask.wav,13.0,"(1142, 878)","(182, -202)",190,-338,,,,,,,,,,,,,0,3,3,5,,,,,,,,,,,,,,,,,,,,,,,,,,,,,,,,,,,,,,,,1187.1628349910025,None,,,1190.1791516069788,None,1.601058201058201,1.0821725281421095,1190.1791516069788,None,,,,,,,1188.1628894750029,None,1188.346198500134,1188.362868518103,54,001,2023_Mar_13_1800,SpeechDraft1Carolyn_lessNoise_PlusLocalization,2021.2.3,60.009363851398724,
,,,,,,,,midRight,13.0,3,ch1Sound_localizationTask.wav,13.0,"(1142, 878)","(182, -202)",190,-338,,,,,,,,,,,,,0,4,4,5,,,,,,,,,,,,,,,,,,,,,,,,,,,,,,,,,,,,,,,,1191.2629698240198,None,,,1194.2792692440562,None,1.5920634920634922,1.0981738790869713,1194.2792692440562,None,,,,,,,1192.2629390941001,None,1192.4461506069638,1192.4628847390413,54,001,2023_Mar_13_1800,SpeechDraft1Carolyn_lessNoise_PlusLocalization,2021.2.3,60.009363851398724,
,,,,,,,,farRight,19.1,4,ch1Sound_localizationTask.wav,19.1,"(1237, 878)","(277,-202)",285,-338,,,,,,,,,,,,,0,5,5,6,,,,,,,,,,,,,,,,,,,,,,,,,,,,,,,,,,,,,,,,1195.3794622081332,None,,,1198.3959997510538,None,1.6486772486772487,0.9650285951793194,1198.3959997510538,None,,,,,,,1196.3795451160986,None,1196.5627703829668,1196.579506766051,54,001,2023_Mar_13_1800,SpeechDraft1Carolyn_lessNoise_PlusLocalization,2021.2.3,60.009363851398724,
,,,,,,,,center,0.0,6,ch1Sound_localizationTask.wav,0.0,"(952, 878)","(-8,-202)",0,-338,,,,,,,,,,,,,0,6,6,3,,,,,,,,,,,,,,,,,,,,,,,,,,,,,,,,,,,,,,,,1199.3628450080287,None,,,1202.3792791920714,None,1.507936507936508,1.1477780789136887,1202.3792791920714,None,,,,,,,1200.3627763949335,None,1200.546263629105,1200.5628994640429,54,001,2023_Mar_13_1800,SpeechDraft1Carolyn_lessNoise_PlusLocalization,2021.2.3,60.009363851398724,
,,,,,,,,nearRight,6.5,0,ch1Sound_localizationTask.wav,6.5,"(1047, 878)","(87, -202)",95,-338,,,,,,,,,,,,,1,0,7,4,,,,,,,,,,,,,,,,,,,,,,,,,,,,,,,,,,,,,,,,1203.5295844750945,None,,,1206.545922506135,None,1.564021164021164,0.9657842749729753,1206.545922506135,None,,,,,,,1204.5294676700141,None,1204.7129691669252,1204.7295132461004,54,001,2023_Mar_13_1800,SpeechDraft1Carolyn_lessNoise_PlusLocalization,2021.2.3,60.009363851398724,
,,,,,,,,farRight,19.1,4,ch1Sound_localizationTask.wav,19.1,"(1237, 878)","(277,-202)",285,-338,,,,,,,,,,,,,1,1,8,6,,,,,,,,,,,,,,,,,,,,,,,,,,,,,,,,,,,,,,,,1207.5128439220134,None,,,1210.5292593799531,None,1.6555555555555554,0.8992185830138624,1210.5292593799531,None,,,,,,,1208.512914627092,None,1208.6961740921251,1208.712826114148,54,001,2023_Mar_13_1800,SpeechDraft1Carolyn_lessNoise_PlusLocalization,2021.2.3,60.009363851398724,
,,,,,,,,midRight,13.0,3,ch1Sound_localizationTask.wav,13.0,"(1142, 878)","(182, -202)",190,-338,,,,,,,,,,,,,1,2,9,5,,,,,,,,,,,,,,,,,,,,,,,,,,,,,,,,,,,,,,,,1211.4295395971276,None,,,1214.4460249920376,None,1.5984126984126985,1.0332821880001575,1214.4460249920376,None,,,,,,,1212.4296722279396,None,1212.6128999800421,1212.6294809919782,54,001,2023_Mar_13_1800,SpeechDraft1Carolyn_lessNoise_PlusLocalization,2021.2.3,60.009363851398724,
,,,,,,,,midRight,13.0,3,ch1Sound_localizationTask.wav,13.0,"(1142, 878)","(182, -202)",190,-338,,,,,,,,,,,,,1,3,10,5,,,,,,,,,,,,,,,,,,,,,,,,,,,,,,,,,,,,,,,,1215.4962243160699,None,,,1218.51254048408,None,1.6063492063492064,1.0989845090080053,1218.51254048408,None,,,,,,,1216.496148842154,None,1216.679619177943,1216.6962615079246,54,001,2023_Mar_13_1800,SpeechDraft1Carolyn_lessNoise_PlusLocalization,2021.2.3,60.009363851398724,
,,,,,,,,nearLeft,-6.5,1,ch1Sound_localizationTask.wav,-6.5,"(857, 878)","(-103,-202)",-95,-338,,,,,,,,,,,,,1,4,11,2,,,,,,,,,,,,,,,,,,,,,,,,,,,,,,,,,,,,,,,,1219.6133348129224,None,,,1222.6292343121022,None,1.438095238095238,1.2662093248218298,1222.6292343121022,None,,,,,,,1220.6128470541444,None,1220.7961509460583,1220.8129272200167,54,001,2023_Mar_13_1800,SpeechDraft1Carolyn_lessNoise_PlusLocalization,2021.2.3,60.009363851398724,
,,,,,,,,midLeft,-13.0,2,ch1Sound_localizationTask.wav,-13.0,"(762, 878)","(-198,-202)",-190,-338,,,,,,,,,,,,,1,5,12,1,,,,,,,,,,,,,,,,,,,,,,,,,,,,,,,,,,,,,,,,1223.896186426049,None,,,1226.9125368469395,None,1.4015873015873015,1.081934129120782,1226.9125368469395,None,,,,,,,1224.896208056016,None,1225.079650750151,1225.096230308991,54,001,2023_Mar_13_1800,SpeechDraft1Carolyn_lessNoise_PlusLocalization,2021.2.3,60.009363851398724,
,,,,,,,,nearRight,6.5,0,ch1Sound_localizationTask.wav,6.5,"(1047, 878)","(87, -202)",95,-338,,,,,,,,,,,,,1,6,13,4,,,,,,,,,,,,,,,,,,,,,,,,,,,,,,,,,,,,,,,,1227.996274088975,None,,,1231.0125636011362,None,1.566137566137566,0.9648571640718728,1231.0125636011362,None,,,,,,,1228.9964359251317,None,1229.1795718059875,1229.196191889001,54,001,2023_Mar_13_1800,SpeechDraft1Carolyn_lessNoise_PlusLocalization,2021.2.3,60.009363851398724,
,,,,,,,,nearLeft,-6.5,1,ch1Sound_localizationTask.wav,-6.5,"(857, 878)","(-103,-202)",-95,-338,,,,,,,,,,,,,2,0,14,2,,,,,,,,,,,,,,,,,,,,,,,,,,,,,,,,,,,,,,,,1231.9795062409248,None,,,1234.996012900956,None,1.447089947089947,1.0492606370244175,1234.996012900956,None,,,,,,,1232.979534065118,None,1233.1629465951119,1233.179580945056,54,001,2023_Mar_13_1800,SpeechDraft1Carolyn_lessNoise_PlusLocalization,2021.2.3,60.009363851398724,
,,,,,,,,farLeft,-19.1,5,ch1Sound_localizationTask.wav,-19.1,"(667, 878)","(-293,-202)",-285,-338,,,,,,,,,,,,,2,1,15,0,,,,,,,,,,,,,,,,,,,,,,,,,,,,,,,,,,,,,,,,1236.0462892770302,None,,,1239.0627014921047,None,1.3338624338624339,1.0646351790055633,1239.0627014921047,None,,,,,,,1237.0463601599913,None,1237.229590363102,1237.246387447929,54,001,2023_Mar_13_1800,SpeechDraft1Carolyn_lessNoise_PlusLocalization,2021.2.3,60.009363851398724,
,,,,,,,,midRight,13.0,3,ch1Sound_localizationTask.wav,13.0,"(1142, 878)","(182, -202)",190,-338,,,,,,,,,,,,,2,2,16,5,,,,,,,,,,,,,,,,,,,,,,,,,,,,,,,,,,,,,,,,1240.129721440142,None,,,1243.1460774880834,None,1.6179894179894179,1.682142788078636,1243.1460774880834,None,,,,,,,1241.1296272929758,None,1241.3128450859804,1241.32966262009,54,001,2023_Mar_13_1800,SpeechDraft1Carolyn_lessNoise_PlusLocalization,2021.2.3,60.009363851398724,
,,,,,,,,center,0.0,6,ch1Sound_localizationTask.wav,0.0,"(952, 878)","(-8,-202)",0,-338,,,,,,,,,,,,,2,3,17,3,,,,,,,,,,,,,,,,,,,,,,,,,,,,,,,,,,,,,,,,1244.8297671310138,None,,,1247.8460273630917,None,1.5005291005291004,0.7643871230538934,1247.8460273630917,None,,,,,,,1245.8296742939856,None,1246.012977798935,1246.0295887140092,54,001,2023_Mar_13_1800,SpeechDraft1Carolyn_lessNoise_PlusLocalization,2021.2.3,60.009363851398724,
,,,,,,,,farLeft,-19.1,5,ch1Sound_localizationTask.wav,-19.1,"(667, 878)","(-293,-202)",-285,-338,,,,,,,,,,,,,2,4,18,0,,,,,,,,,,,,,,,,,,,,,,,,,,,,,,,,,,,,,,,,1248.6129606140312,None,,,1251.6293250110466,None,1.3497354497354497,0.88177206995897,1251.6293250110466,None,,,,,,,1249.6129224400502,None,1249.7962940430734,1249.8129454611335,54,001,2023_Mar_13_1800,SpeechDraft1Carolyn_lessNoise_PlusLocalization,2021.2.3,60.009363851398724,
,,,,,,,,center,0.0,6,ch1Sound_localizationTask.wav,0.0,"(952, 878)","(-8,-202)",0,-338,,,,,,,,,,,,,2,5,19,3,,,,,,,,,,,,,,,,,,,,,,,,,,,,,,,,,,,,,,,,1252.5129314630758,None,,,1255.5293569751084,None,1.505820105820106,0.9154557811561972,1255.5293569751084,None,,,,,,,1253.513001637999,None,1253.6962944460101,1253.7129844860174,54,001,2023_Mar_13_1800,SpeechDraft1Carolyn_lessNoise_PlusLocalization,2021.2.3,60.009363851398724,
,,,,,,,,nearLeft,-6.5,1,ch1Sound_localizationTask.wav,-6.5,"(857, 878)","(-103,-202)",-95,-338,,,,,,,,,,,,,2,6,20,2,,,,,,,,,,,,,,,,,,,,,,,,,,,,,,,,,,,,,,,,1256.446378247114,None,,,1259.4627719391137,None,1.4396825396825397,0.8825463189277798,1259.4627719391137,None,,,,,,,1257.4462670581415,None,1257.6296124500223,1257.6462838321459,54,001,2023_Mar_13_1800,SpeechDraft1Carolyn_lessNoise_PlusLocalization,2021.2.3,60.009363851398724,
,,,,,,,,nearLeft,-6.5,1,ch1Sound_localizationTask.wav,-6.5,"(857, 878)","(-103,-202)",-95,-338,,,,,,,,,,,,,3,0,21,2,,,,,,,,,,,,,,,,,,,,,,,,,,,,,,,,,,,,,,,,1260.346245527966,None,,,1263.3626698979642,None,1.4523809523809523,0.798933515092358,1263.3626698979642,None,,,,,,,1261.3462400829885,None,1261.529539715033,1261.5463196970522,54,001,2023_Mar_13_1800,SpeechDraft1Carolyn_lessNoise_PlusLocalization,2021.2.3,60.009363851398724,
,,,,,,,,farLeft,-19.1,5,ch1Sound_localizationTask.wav,-19.1,"(667, 878)","(-293,-202)",-285,-338,,,,,,,,,,,,,3,1,22,0,,,,,,,,,,,,,,,,,,,,,,,,,,,,,,,,,,,,,,,,1264.1629769089632,None,,,1267.1794742890634,None,1.3571428571428572,1.199306194903329,1267.1794742890634,None,,,,,,,1265.1628655439708,None,1265.3462685779668,1265.3629530039616,54,001,2023_Mar_13_1800,SpeechDraft1Carolyn_lessNoise_PlusLocalization,2021.2.3,60.009363851398724,
,,,,,,,,nearRight,6.5,0,ch1Sound_localizationTask.wav,6.5,"(1047, 878)","(87, -202)",95,-338,,,,,,,,,,,,,3,2,23,4,,,,,,,,,,,,,,,,,,,,,,,,,,,,,,,,,,,,,,,,1268.3795870640315,None,,,1271.3961014309898,None,1.5587301587301587,1.4151593130081892,1271.3961014309898,None,,,,,,,1269.379678842146,None,1269.5630379179493,1269.5796061321162,54,001,2023_Mar_13_1800,SpeechDraft1Carolyn_lessNoise_PlusLocalization,2021.2.3,60.009363851398724,
,,,,,,,,center,0.0,6,ch1Sound_localizationTask.wav,0.0,"(952, 878)","(-8,-202)",0,-338,,,,,,,,,,,,,3,3,24,3,,,,,,,,,,,,,,,,,,,,,,,,,,,,,,,,,,,,,,,,1272.8129315369297,None,,,1275.8293490321375,None,1.5010582010582012,0.8158566439524293,1275.8293490321375,None,,,,,,,1273.813017596025,None,1273.9962962560821,1274.0130341281183,54,001,2023_Mar_13_1800,SpeechDraft1Carolyn_lessNoise_PlusLocalization,2021.2.3,60.009363851398724,
,,,,,,,,farRight,19.1,4,ch1Sound_localizationTask.wav,19.1,"(1237, 878)","(277,-202)",285,-338,,,,,,,,,,,,,3,4,25,6,,,,,,,,,,,,,,,,,,,,,,,,,,,,,,,,,,,,,,,,1276.6630037969444,None,,,1279.6793085539248,None,1.6603174603174602,1.1987425507977605,1279.6793085539248,None,,,,,,,1277.6631357390434,None,1277.846465104958,1277.8629692511167,54,001,2023_Mar_13_1800,SpeechDraft1Carolyn_lessNoise_PlusLocalization,2021.2.3,60.009363851398724,
,,,,,,,,farLeft,-19.1,5,ch1Sound_localizationTask.wav,-19.1,"(667, 878)","(-293,-202)",-285,-338,,,,,,,,,,,,,3,5,26,0,,,,,,,,,,,,,,,,,,,,,,,,,,,,,,,,,,,,,,,,1280.87974080001,None,,,1283.8960974100046,None,1.3460317460317461,0.9493919189553708,1283.8960974100046,None,,,,,,,1281.8796907081269,None,1282.062990738079,1282.079685704084,54,001,2023_Mar_13_1800,SpeechDraft1Carolyn_lessNoise_PlusLocalization,2021.2.3,60.009363851398724,
,,,,,,,,center,0.0,6,ch1Sound_localizationTask.wav,0.0,"(952, 878)","(-8,-202)",0,-338,,,,,,,,,,,,,3,6,27,3,,,,,,,,,,,,,,,,,,,,,,,,,,,,,,,,,,,,,,,,1284.8630501949228,None,,,1287.87956094509,None,1.5137566137566139,0.8151789128314704,1287.87956094509,None,,,,,,,1285.863045111997,None,1286.0463402310852,1286.0630861609243,54,001,2023_Mar_13_1800,SpeechDraft1Carolyn_lessNoise_PlusLocalization,2021.2.3,60.009363851398724,
,,,,,,,,nearRight,6.5,0,ch1Sound_localizationTask.wav,6.5,"(1047, 878)","(87, -202)",95,-338,,,,,,,,,,,,,4,0,28,4,,,,,,,,,,,,,,,,,,,,,,,,,,,,,,,,,,,,,,,,1288.6963261419442,None,,,1291.7125963191502,None,1.5603174603174603,0.7658313130959868,1291.7125963191502,None,,,,,,,1289.696285411017,None,1289.8796581041533,1289.8963950469624,54,001,2023_Mar_13_1800,SpeechDraft1Carolyn_lessNoise_PlusLocalization,2021.2.3,60.009363851398724,
,,,,,,,,center,0.0,6,ch1Sound_localizationTask.wav,0.0,"(952, 878)","(-8,-202)",0,-338,,,,,,,,,,,,,4,1,29,3,,,,,,,,,,,,,,,,,,,,,,,,,,,,,,,,,,,,,,,,1292.4796943590045,None,,,1295.4960473810788,None,1.505820105820106,0.9650320080108941,1295.4960473810788,None,,,,,,,1293.4798093771096,None,1293.66298093996,1293.6798077060375,54,001,2023_Mar_13_1800,SpeechDraft1Carolyn_lessNoise_PlusLocalization,2021.2.3,60.009363851398724,
,,,,,,,,midLeft,-13.0,2,ch1Sound_localizationTask.wav,-13.0,"(762, 878)","(-198,-202)",-190,-338,,,,,,,,,,,,,4,2,30,1,,,,,,,,,,,,,,,,,,,,,,,,,,,,,,,,,,,,,,,,1296.4629611470737,None,,,1299.4794974951074,None,1.3952380952380952,0.8988103719893843,1299.4794974951074,None,,,,,,,1297.463051729137,None,1297.6464360749815,1297.6629528149497,54,001,2023_Mar_13_1800,SpeechDraft1Carolyn_lessNoise_PlusLocalization,2021.2.3,60.009363851398724,
,,,,,,,,midLeft,-13.0,2,ch1Sound_localizationTask.wav,-13.0,"(762, 878)","(-198,-202)",-190,-338,,,,,,,,,,,,,4,3,31,1,,,,,,,,,,,,,,,,,,,,,,,,,,,,,,,,,,,,,,,,1300.3801287401002,None,,,1303.396187941078,None,1.4216931216931217,0.9317423701286316,1303.396187941078,None,,,,,,,1301.3797315021511,None,1301.5630229630042,1301.5797020939644,54,001,2023_Mar_13_1800,SpeechDraft1Carolyn_lessNoise_PlusLocalization,2021.2.3,60.009363851398724,
,,,,,,,,farLeft,-19.1,5,ch1Sound_localizationTask.wav,-19.1,"(667, 878)","(-293,-202)",-285,-338,,,,,,,,,,,,,4,4,32,0,,,,,,,,,,,,,,,,,,,,,,,,,,,,,,,,,,,,,,,,1304.3296666119713,None,,,1307.346160821151,None,1.3566137566137566,0.9981141351163387,1307.346160821151,None,,,,,,,1305.329780653119,None,1305.5131226680242,1305.529683867935,54,001,2023_Mar_13_1800,SpeechDraft1Carolyn_lessNoise_PlusLocalization,2021.2.3,60.009363851398724,
,,,,,,,,nearLeft,-6.5,1,ch1Sound_localizationTask.wav,-6.5,"(857, 878)","(-103,-202)",-95,-338,,,,,,,,,,,,,4,5,33,2,,,,,,,,,,,,,,,,,,,,,,,,,,,,,,,,,,,,,,,,1308.3463431759737,None,,,1311.362591653131,None,1.4328042328042327,0.7321192100644112,1311.362591653131,None,,,,,,,1309.3463292771485,None,1309.5297421230935,1309.5463361169677,54,001,2023_Mar_13_1800,SpeechDraft1Carolyn_lessNoise_PlusLocalization,2021.2.3,60.009363851398724,
,,,,,,,,midLeft,-13.0,2,ch1Sound_localizationTask.wav,-13.0,"(762, 878)","(-198,-202)",-190,-338,,,,,,,,,,,,,4,6,34,1,,,,,,,,,,,,,,,,,,,,,,,,,,,,,,,,,,,,,,,,1312.096265295986,None,,,1315.1127783749253,None,1.4068783068783068,0.9165980299003422,1315.1127783749253,None,,,,,,,1313.096326311119,None,1313.2797469729558,1313.296268383041,54,001,2023_Mar_13_1800,SpeechDraft1Carolyn_lessNoise_PlusLocalization,2021.2.3,60.009363851398724,
,,,,,,,,midLeft,-13.0,2,ch1Sound_localizationTask.wav,-13.0,"(762, 878)","(-198,-202)",-190,-338,,,,,,,,,,,,,5,0,35,1,,,,,,,,,,,,,,,,,,,,,,,,,,,,,,,,,,,,,,,,1316.030056185089,None,,,1319.0460857020225,None,1.4005291005291005,0.5660632699728012,1319.0460857020225,None,,,,,,,1317.0296935939696,None,1317.2130251920316,1317.2297927611507,54,001,2023_Mar_13_1800,SpeechDraft1Carolyn_lessNoise_PlusLocalization,2021.2.3,60.009363851398724,
,,,,,,,,center,0.0,6,ch1Sound_localizationTask.wav,0.0,"(952, 878)","(-8,-202)",0,-338,,,,,,,,,,,,,5,1,36,3,,,,,,,,,,,,,,,,,,,,,,,,,,,,,,,,,,,,,,,,1319.629712636117,None,,,1322.6461997290608,None,1.4994708994708994,0.9160324500408024,1322.6461997290608,None,,,,,,,1320.6297260120045,None,1320.8130109841004,1320.8297974639572,54,001,2023_Mar_13_1800,SpeechDraft1Carolyn_lessNoise_PlusLocalization,2021.2.3,60.009363851398724,
,,,,,,,,farRight,19.1,4,ch1Sound_localizationTask.wav,19.1,"(1237, 878)","(277,-202)",285,-338,,,,,,,,,,,,,5,2,37,6,,,,,,,,,,,,,,,,,,,,,,,,,,,,,,,,,,,,,,,,1323.5630961819552,None,,,1326.5794778671116,None,1.6608465608465608,1.0662054799031466,1326.5794778671116,None,,,,,,,1324.5631461141165,None,1324.7464105731342,1324.7629823780153,54,001,2023_Mar_13_1800,SpeechDraft1Carolyn_lessNoise_PlusLocalization,2021.2.3,60.009363851398724,
,,,,,,,,farLeft,-19.1,5,ch1Sound_localizationTask.wav,-19.1,"(667, 878)","(-293,-202)",-285,-338,,,,,,,,,,,,,5,3,38,0,,,,,,,,,,,,,,,,,,,,,,,,,,,,,,,,,,,,,,,,1327.6463680309244,None,,,1330.662811939139,None,1.3412698412698414,1.1822453991044313,1330.662811939139,None,,,,,,,1328.6464210690465,None,1328.8297738069668,1328.8464090900961,54,001,2023_Mar_13_1800,SpeechDraft1Carolyn_lessNoise_PlusLocalization,2021.2.3,60.009363851398724,
,,,,,,,,nearLeft,-6.5,1,ch1Sound_localizationTask.wav,-6.5,"(857, 878)","(-103,-202)",-95,-338,,,,,,,,,,,,,5,4,39,2,,,,,,,,,,,,,,,,,,,,,,,,,,,,,,,,,,,,,,,,1331.8463749110233,None,,,1334.8627971280366,None,1.4423280423280422,0.8981915740296245,1334.8627971280366,None,,,,,,,1332.8464154889807,None,1333.0297270619776,1333.046540293144,54,001,2023_Mar_13_1800,SpeechDraft1Carolyn_lessNoise_PlusLocalization,2021.2.3,60.009363851398724,
,,,,,,,,farRight,19.1,4,ch1Sound_localizationTask.wav,19.1,"(1237, 878)","(277,-202)",285,-338,,,,,,,,,,,,,5,5,40,6,,,,,,,,,,,,,,,,,,,,,,,,,,,,,,,,,,,,,,,,1335.7629844041076,None,,,1338.7794210279826,None,1.6656084656084655,0.8819582548458129,1338.7794210279826,None,,,,,,,1336.7630757500883,None,1336.9464599259663,1336.9630301981233,54,001,2023_Mar_13_1800,SpeechDraft1Carolyn_lessNoise_PlusLocalization,2021.2.3,60.009363851398724,
,,,,,,,,midRight,13.0,3,ch1Sound_localizationTask.wav,13.0,"(1142, 878)","(182, -202)",190,-338,,,,,,,,,,,,,5,6,41,5,,,,,,,,,,,,,,,,,,,,,,,,,,,,,,,,,,,,,,,,1339.6631517519709,None,,,1342.6794399111532,None,1.5994708994708995,0.6806600759737194,1342.6794399111532,None,,,,,,,1340.663132586982,None,1340.8464107541367,1340.863182923058,54,001,2023_Mar_13_1800,SpeechDraft1Carolyn_lessNoise_PlusLocalization,2021.2.3,60.009363851398724,
,,,,,,,,center,0.0,6,ch1Sound_localizationTask.wav,0.0,"(952, 878)","(-8,-202)",0,-338,,,,,,,,,,,,,6,0,42,3,,,,,,,,,,,,,,,,,,,,,,,,,,,,,,,,,,,,,,,,1343.3630254990421,None,,,1346.379432355985,None,1.508994708994709,1.0165023230947554,1346.379432355985,None,,,,,,,1344.363138729008,None,1344.5464595521335,1344.5630118870176,54,001,2023_Mar_13_1800,SpeechDraft1Carolyn_lessNoise_PlusLocalization,2021.2.3,60.009363851398724,
,,,,,,,,nearRight,6.5,0,ch1Sound_localizationTask.wav,6.5,"(1047, 878)","(87, -202)",95,-338,,,,,,,,,,,,,6,1,43,4,,,,,,,,,,,,,,,,,,,,,,,,,,,,,,,,,,,,,,,,1347.4130199309438,None,,,1350.4293759891298,None,1.564021164021164,0.9979835548438132,1350.4293759891298,None,,,,,,,1348.4130188729614,None,1348.5963943479583,1348.6130089119542,54,001,2023_Mar_13_1800,SpeechDraft1Carolyn_lessNoise_PlusLocalization,2021.2.3,60.009363851398724,
,,,,,,,,midRight,13.0,3,ch1Sound_localizationTask.wav,13.0,"(1142, 878)","(182, -202)",190,-338,,,,,,,,,,,,,6,2,44,5,,,,,,,,,,,,,,,,,,,,,,,,,,,,,,,,,,,,,,,,1351.4297395199537,None,,,1354.446199676022,None,1.5957671957671957,0.8316794240381569,1354.446199676022,None,,,,,,,1352.4297363669612,None,1352.6131143521052,1352.6298606609926,54,001,2023_Mar_13_1800,SpeechDraft1Carolyn_lessNoise_PlusLocalization,2021.2.3,60.009363851398724,
,,,,,,,,farRight,19.1,4,ch1Sound_localizationTask.wav,19.1,"(1237, 878)","(277,-202)",285,-338,,,,,,,,,,,,,6,3,45,6,,,,,,,,,,,,,,,,,,,,,,,,,,,,,,,,,,,,,,,,1355.2798607889563,None,,,1358.296350384131,None,1.6179894179894179,1.182247722055763,1358.296350384131,None,,,,,,,1356.2801084190141,None,1356.4630999481305,1356.479677777039,54,001,2023_Mar_13_1800,SpeechDraft1Carolyn_lessNoise_PlusLocalization,2021.2.3,60.009363851398724,
,,,,,,,,farLeft,-19.1,5,ch1Sound_localizationTask.wav,-19.1,"(667, 878)","(-293,-202)",-285,-338,,,,,,,,,,,,,6,4,46,0,,,,,,,,,,,,,,,,,,,,,,,,,,,,,,,,,,,,,,,,1359.4801503310446,None,,,1362.4961861879565,None,1.3571428571428572,0.8987180078402162,1362.4961861879565,None,,,,,,,1360.4797416301444,None,1360.6630365389865,1360.6797776559833,54,001,2023_Mar_13_1800,SpeechDraft1Carolyn_lessNoise_PlusLocalization,2021.2.3,60.009363851398724,
,,,,,,,,nearRight,6.5,0,ch1Sound_localizationTask.wav,6.5,"(1047, 878)","(87, -202)",95,-338,,,,,,,,,,,,,6,5,47,4,,,,,,,,,,,,,,,,,,,,,,,,,,,,,,,,,,,,,,,,1363.39636762999,None,,,1366.4127736869268,None,1.5613756613756613,1.0655275150202215,1366.4127736869268,None,,,,,,,1364.3964000290725,None,1364.5798180440906,1364.5964768419508,54,001,2023_Mar_13_1800,SpeechDraft1Carolyn_lessNoise_PlusLocalization,2021.2.3,60.009363851398724,
,,,,,,,,midLeft,-13.0,2,ch1Sound_localizationTask.wav,-13.0,"(762, 878)","(-198,-202)",-190,-338,,,,,,,,,,,,,6,6,48,1,,,,,,,,,,,,,,,,,,,,,,,,,,,,,,,,,,,,,,,,1367.4797270980198,None,,,1370.4961364651099,None,1.4126984126984126,0.8328385900240391,1370.4961364651099,None,,,,,,,1368.47978878906,None,1368.6631427209359,1368.679796549026,54,001,2023_Mar_13_1800,SpeechDraft1Carolyn_lessNoise_PlusLocalization,2021.2.3,60.009363851398724,
,,,,,,,,nearRight,6.5,0,ch1Sound_localizationTask.wav,6.5,"(1047, 878)","(87, -202)",95,-338,,,,,,,,,,,,,7,0,49,4,,,,,,,,,,,,,,,,,,,,,,,,,,,,,,,,,,,,,,,,1371.3308350110892,None,,,1374.3628531210124,None,1.561904761904762,0.8318773629143834,1374.3628531210124,None,,,,,,,1372.3465066601057,None,1372.5297134229913,1372.5464345279615,54,001,2023_Mar_13_1800,SpeechDraft1Carolyn_lessNoise_PlusLocalization,2021.2.3,60.009363851398724,
,,,,,,,,nearLeft,-6.5,1,ch1Sound_localizationTask.wav,-6.5,"(857, 878)","(-103,-202)",-95,-338,,,,,,,,,,,,,7,1,50,2,,,,,,,,,,,,,,,,,,,,,,,,,,,,,,,,,,,,,,,,1375.1964874239638,None,,,1378.2128611830994,None,1.4502645502645501,0.8323768011759967,1378.2128611830994,None,,,,,,,1376.196536438074,None,1376.3797381340992,1376.396431026049,54,001,2023_Mar_13_1800,SpeechDraft1Carolyn_lessNoise_PlusLocalization,2021.2.3,60.009363851398724,
,,,,,,,,nearRight,6.5,0,ch1Sound_localizationTask.wav,6.5,"(1047, 878)","(87, -202)",95,-338,,,,,,,,,,,,,7,2,51,4,,,,,,,,,,,,,,,,,,,,,,,,,,,,,,,,,,,,,,,,1379.0464581439737,None,,,1382.062722823117,None,1.5592592592592593,0.8986810098867863,1382.062722823117,None,,,,,,,1380.0464310059324,None,1380.229943769984,1380.2463870320935,54,001,2023_Mar_13_1800,SpeechDraft1Carolyn_lessNoise_PlusLocalization,2021.2.3,60.009363851398724,
,,,,,,,,farLeft,-19.1,5,ch1Sound_localizationTask.wav,-19.1,"(667, 878)","(-293,-202)",-285,-338,,,,,,,,,,,,,7,3,52,0,,,,,,,,,,,,,,,,,,,,,,,,,,,,,,,,,,,,,,,,1382.9631699731108,None,,,1385.9795165290125,None,1.3603174603174604,0.8202566450927407,1385.9795165290125,None,,,,,,,1383.9631344981026,None,1384.146421434125,1384.1632412199397,54,001,2023_Mar_13_1800,SpeechDraft1Carolyn_lessNoise_PlusLocalization,2021.2.3,60.009363851398724,
,,,,,,,,midRight,13.0,3,ch1Sound_localizationTask.wav,13.0,"(1142, 878)","(182, -202)",190,-338,,,,,,,,,,,,,7,4,53,5,,,,,,,,,,,,,,,,,,,,,,,,,,,,,,,,,,,,,,,,1386.813211562112,None,,,1389.829488051124,None,1.6285714285714286,1.181467143818736,1389.829488051124,None,,,,,,,1387.8131364730652,None,1387.9964811571408,1388.013021090068,54,001,2023_Mar_13_1800,SpeechDraft1Carolyn_lessNoise_PlusLocalization,2021.2.3,60.009363851398724,
,,,,,,,,farRight,19.1,4,ch1Sound_localizationTask.wav,19.1,"(1237, 878)","(277,-202)",285,-338,,,,,,,,,,,,,7,5,54,6,,,,,,,,,,,,,,,,,,,,,,,,,,,,,,,,,,,,,,,,1391.0135256340727,None,,,1394.0295813509729,None,1.6846560846560847,0.8323202740866691,1394.0295813509729,None,,,,,,,1392.0131742660888,None,1392.1964448590297,1392.2131188961212,54,001,2023_Mar_13_1800,SpeechDraft1Carolyn_lessNoise_PlusLocalization,2021.2.3,60.009363851398724,
,,,,,,,,nearLeft,-6.5,1,ch1Sound_localizationTask.wav,-6.5,"(857, 878)","(-103,-202)",-95,-338,,,,,,,,,,,,,7,6,55,2,,,,,,,,,,,,,,,,,,,,,,,,,,,,,,,,,,,,,,,,1394.8632251969539,None,,,1397.879502658965,None,1.4507936507936507,0.7985167719889432,1397.879502658965,None,,,,,,,1395.8633995570708,None,1396.0465202520136,1396.063220639946,54,001,2023_Mar_13_1800,SpeechDraft1Carolyn_lessNoise_PlusLocalization,2021.2.3,60.009363851398724,
