Audio_Only_Files,Video_Files,Original_Word_List,noiseLevelCode,conditionCodes,noiseLevelFile1,noiseLevelFile2,InstrTextVar,targetSpeakerName,targetSpeakerEccen,targetSpkrChannel,targetSpkrSound,targetVisualDegrees,visStimLoc,visStimLoc2,visStimW,visStimH,practiceTrials.thisRepN,practiceTrials.thisTrialN,practiceTrials.thisN,practiceTrials.thisIndex,trials.thisRepN,trials.thisTrialN,trials.thisN,trials.thisIndex,audLocalLoop.thisRepN,audLocalLoop.thisTrialN,audLocalLoop.thisN,audLocalLoop.thisIndex,visualLocalLoop.thisRepN,visualLocalLoop.thisTrialN,visualLocalLoop.thisN,visualLocalLoop.thisIndex,letsGoAlready.keys,letsGoAlready.rt,letsGoAlready.started,letsGoAlready.stopped,text_2.started,text_2.stopped,text_3.started,text_3.stopped,key_resp_2.keys,key_resp_2.rt,key_resp_2.started,key_resp_2.stopped,text_5.started,text_5.stopped,fixCross.started,fixCross.stopped,fixCross2.started,fixCross2.stopped,answerPrompt.started,answerPrompt.stopped,getAnswer.text,getAnswer.started,getAnswer.stopped,goToNext.keys,goToNext.rt,goToNext.started,goToNext.stopped,stretchBreakTxrt.started,stretchBreakTxrt.stopped,key_resp_3.keys,key_resp_3.rt,key_resp_3.started,key_resp_3.stopped,letsGoLocal.keys,letsGoLocal.rt,letsGoLocal.started,letsGoLocal.stopped,text_4.started,text_4.stopped,prepFixTxt.started,prepFixTxt.stopped,prepFixTxt_2.started,prepFixTxt_2.stopped,respPromptLocal.started,respPromptLocal.stopped,slider.response,slider.rt,slider.started,slider.stopped,letsGoLocal_2.keys,letsGoLocal_2.rt,letsGoLocal_2.started,letsGoLocal_2.stopped,text_7.started,text_7.stopped,prepFixTxt_3.started,prepFixTxt_3.stopped,grating.started,grating.stopped,participant,session,date,expName,psychopyVersion,frameRate,
,,,,,,,,,,,,,,,,,,,,,,,,,,,,,,,,,space,12.713408679002896,26.21269459091127,None,,,,,,,,,,,,,,,,,,,,,,,,,,,,,,,,,,,,,,,,,,,,,,,,,,,,,,,,55,001,2023_Mar_14_1943,SpeechDraft1Carolyn_lessNoise_PlusLocalization,2021.2.3,59.98614956048121,
,,,,,,,,,,,,,,,,,,,,,,,,,,,,,,,,,,,,,26.21269459091127,None,39.04643084388226,None,space,3.656608039047569,39.22940064989962,None,,,,,,,,,,,,,,,,,,,,,,,,,,,,,,,,,,,,,,,,,,,,,,,,55,001,2023_Mar_14_1943,SpeechDraft1Carolyn_lessNoise_PlusLocalization,2021.2.3,59.98614956048121,
ash.wav,ash.mpg,ash,1,A,Pink_Noise_1_1.wav,Pink_Noise_1_2.wav,"This is an example of an

AUDIO trial",,,,,,,,,,0,0,0,0,,,,,,,,,,,,,,,,,,,,,,,,,42.94571217801422,None,43.92945026489906,None,47.27994960802607,None,48.66282579489052,None,ash ,48.66282579489052,None,return,9.443883782951161,48.74609015486203,None,,,,,,,,,,,,,,,,,,,,,,,,,,,,,,,,,55,001,2023_Mar_14_1943,SpeechDraft1Carolyn_lessNoise_PlusLocalization,2021.2.3,59.98614956048121,
ash.wav,ash.mpg,ash,1,AV,Pink_Noise_1_1.wav,Pink_Noise_1_2.wav,"This is an example of an

AUDIO + VIDEO  trial",,,,,,,,,,0,1,1,1,,,,,,,,,,,,,,,,,,,,,,,,,58.22906231484376,None,59.229440887924284,None,60.71315641188994,None,62.09607664984651,None,ash,62.09607664984651,None,return,3.458534319885075,62.179477338911965,None,,,,,,,,,,,,,,,,,,,,,,,,,,,,,,,,,55,001,2023_Mar_14_1943,SpeechDraft1Carolyn_lessNoise_PlusLocalization,2021.2.3,59.98614956048121,
,,,,,,,,,,,,,,,,,,,,,,,,,,,,,,,,,,,,,,,,,,,,,,,,,,,,,,,,,,,,65.67909772903658,None,space,18.215290626045316,65.8627750009764,None,,,,,,,,,,,,,,,,,,,,,,,,,,,55,001,2023_Mar_14_1943,SpeechDraft1Carolyn_lessNoise_PlusLocalization,2021.2.3,59.98614956048121,
bee.wav,bee.mpg,bee,5,AV,Pink_Noise_5_1.wav,Pink_Noise_5_2.wav,,,,,,,,,,,,,,,0,0,0,92,,,,,,,,,,,,,,,,,,,,,,,84.12917550490238,None,85.61242007790133,None,86.99614198505878,None,"pee
",86.99614198505878,None,return,6.118481912882999,87.07951039983891,None,,,,,,,,,,,,,,,,,,,,,,,,,,,,,,,,,55,001,2023_Mar_14_1943,SpeechDraft1Carolyn_lessNoise_PlusLocalization,2021.2.3,59.98614956048121,
frail.wav,frail.mpg,frail,1,A,Pink_Noise_1_1.wav,Pink_Noise_1_2.wav,,,,,,,,,,,,,,,0,1,1,36,,,,,,,,,,,,,,,,,,,,,,,93.22949318098836,None,94.72932294895872,None,96.11275929491967,None,frail,96.11275929491967,None,return,12.177913871826604,96.19606792088598,None,,,,,,,,,,,,,,,,,,,,,,,,,,,,,,,,,55,001,2023_Mar_14_1943,SpeechDraft1Carolyn_lessNoise_PlusLocalization,2021.2.3,59.98614956048121,
claim.wav,claim.mpg,claim,6,A,Pink_Noise_6_1.wav,Pink_Noise_6_2.wav,,,,,,,,,,,,,,,0,2,2,27,,,,,,,,,,,,,,,,,,,,,,,108.39613812696189,None,109.89674786385149,None,111.2795747120399,None,"
",111.2795747120399,None,return,3.451135799055919,111.36285012285225,None,,,,,,,,,,,,,,,,,,,,,,,,,,,,,,,,,55,001,2023_Mar_14_1943,SpeechDraft1Carolyn_lessNoise_PlusLocalization,2021.2.3,59.98614956048121,
flaw.wav,flaw.mpg,flaw,1,AV,Pink_Noise_1_1.wav,Pink_Noise_1_2.wav,,,,,,,,,,,,,,,0,3,3,102,,,,,,,,,,,,,,,,,,,,,,,114.84618549002334,None,116.34583242796361,None,117.72937887301669,None,flaw,117.72937887301669,None,return,4.1052279700525105,117.81282005505636,None,,,,,,,,,,,,,,,,,,,,,,,,,,,,,,,,,55,001,2023_Mar_14_1943,SpeechDraft1Carolyn_lessNoise_PlusLocalization,2021.2.3,59.98614956048121,
fierce.wav,fierce.mpg,fierce,2,A,Pink_Noise_2_1.wav,Pink_Noise_2_2.wav,,,,,,,,,,,,,,,0,4,4,29,,,,,,,,,,,,,,,,,,,,,,,121.94613867998123,None,123.44596132892184,None,124.8295114110224,None,fierce,124.8295114110224,None,return,4.773190304171294,124.91288621397689,None,,,,,,,,,,,,,,,,,,,,,,,,,,,,,,,,,55,001,2023_Mar_14_1943,SpeechDraft1Carolyn_lessNoise_PlusLocalization,2021.2.3,59.98614956048121,
dish.wav,dish.mpg,dish,6,A,Pink_Noise_6_1.wav,Pink_Noise_6_2.wav,,,,,,,,,,,,,,,0,5,5,59,,,,,,,,,,,,,,,,,,,,,,,129.71285743289627,None,131.21253120503388,None,132.59622360183857,None,,132.59622360183857,None,return,2.3905604879837483,132.6795450069476,None,,,,,,,,,,,,,,,,,,,,,,,,,,,,,,,,,55,001,2023_Mar_14_1943,SpeechDraft1Carolyn_lessNoise_PlusLocalization,2021.2.3,59.98614956048121,
gloom.wav,gloom.mpg,gloom,3,AV,Pink_Noise_3_1.wav,Pink_Noise_3_2.wav,,,,,,,,,,,,,,,0,6,6,97,,,,,,,,,,,,,,,,,,,,,,,135.09611362800933,None,136.59589205193333,None,137.9794021169655,None,glue,137.9794021169655,None,return,4.823242970975116,138.06285652704537,None,,,,,,,,,,,,,,,,,,,,,,,,,,,,,,,,,55,001,2023_Mar_14_1943,SpeechDraft1Carolyn_lessNoise_PlusLocalization,2021.2.3,59.98614956048121,
blank.wav,blank.mpg,blank,5,AV,Pink_Noise_5_1.wav,Pink_Noise_5_2.wav,,,,,,,,,,,,,,,0,7,7,119,,,,,,,,,,,,,,,,,,,,,,,142.91286856890656,None,144.4126539810095,None,145.79601228702813,None,bread,145.79601228702813,None,return,4.21456629014574,145.87946385191754,None,,,,,,,,,,,,,,,,,,,,,,,,,,,,,,,,,55,001,2023_Mar_14_1943,SpeechDraft1Carolyn_lessNoise_PlusLocalization,2021.2.3,59.98614956048121,
guide.wav,guide.mpg,guide,2,AV,Pink_Noise_2_1.wav,Pink_Noise_2_2.wav,,,,,,,,,,,,,,,0,8,8,109,,,,,,,,,,,,,,,,,,,,,,,150.11294371797703,None,151.6125826779753,None,152.9961249178741,None,guide,152.9961249178741,None,return,4.526423160918057,153.07955191587098,None,,,,,,,,,,,,,,,,,,,,,,,,,,,,,,,,,55,001,2023_Mar_14_1943,SpeechDraft1Carolyn_lessNoise_PlusLocalization,2021.2.3,59.98614956048121,
cloth.wav,cloth.mpg,cloth,6,AV,Pink_Noise_6_1.wav,Pink_Noise_6_2.wav,,,,,,,,,,,,,,,0,9,9,108,,,,,,,,,,,,,,,,,,,,,,,157.6295245909132,None,159.12925755092874,None,160.5126900859177,None,cloth,160.5126900859177,None,return,3.8977871919050813,160.59621839388274,None,,,,,,,,,,,,,,,,,,,,,,,,,,,,,,,,,55,001,2023_Mar_14_1943,SpeechDraft1Carolyn_lessNoise_PlusLocalization,2021.2.3,59.98614956048121,
blood.wav,blood.mpg,blood,1,A,Pink_Noise_1_1.wav,Pink_Noise_1_2.wav,,,,,,,,,,,,,,,0,10,10,50,,,,,,,,,,,,,,,,,,,,,,,164.51298711705022,None,166.01258248300292,None,167.39618677087128,None,blood,167.39618677087128,None,return,4.726406845031306,167.47957434202544,None,,,,,,,,,,,,,,,,,,,,,,,,,,,,,,,,,55,001,2023_Mar_14_1943,SpeechDraft1Carolyn_lessNoise_PlusLocalization,2021.2.3,59.98614956048121,
else.wav,else.mpg,else,2,A,Pink_Noise_2_1.wav,Pink_Noise_2_2.wav,,,,,,,,,,,,,,,0,11,11,16,,,,,,,,,,,,,,,,,,,,,,,172.22956663090736,None,173.72920811991207,None,175.1128515668679,None,else,175.1128515668679,None,return,3.7457290492020547,175.19627615297213,None,,,,,,,,,,,,,,,,,,,,,,,,,,,,,,,,,55,001,2023_Mar_14_1943,SpeechDraft1Carolyn_lessNoise_PlusLocalization,2021.2.3,59.98614956048121,
dip.wav,dip.mpg,dip,1,A,Pink_Noise_1_1.wav,Pink_Noise_1_2.wav,,,,,,,,,,,,,,,0,12,12,46,,,,,,,,,,,,,,,,,,,,,,,178.9630658540409,None,180.4626481528394,None,181.8461336849723,None,dip,181.8461336849723,None,return,2.596495615085587,181.9295824789442,None,,,,,,,,,,,,,,,,,,,,,,,,,,,,,,,,,55,001,2023_Mar_14_1943,SpeechDraft1Carolyn_lessNoise_PlusLocalization,2021.2.3,59.98614956048121,
cash.wav,cash.mpg,cash,6,A,Pink_Noise_6_1.wav,Pink_Noise_6_2.wav,,,,,,,,,,,,,,,0,13,13,24,,,,,,,,,,,,,,,,,,,,,,,184.5462400340475,None,186.04593011597171,None,187.42957498203032,None,,187.42957498203032,None,return,1.2210541821550578,187.5129604288377,None,,,,,,,,,,,,,,,,,,,,,,,,,,,,,,,,,55,001,2023_Mar_14_1943,SpeechDraft1Carolyn_lessNoise_PlusLocalization,2021.2.3,59.98614956048121,
deck.wav,deck.mpg,deck,5,A,Pink_Noise_5_1.wav,Pink_Noise_5_2.wav,,,,,,,,,,,,,,,0,14,14,44,,,,,,,,,,,,,,,,,,,,,,,188.76309327385388,None,190.26251164684072,None,191.64627658296376,None,"
",191.64627658296376,None,return,14.820436477893963,191.72954434296116,None,,,,,,,,,,,,,,,,,,,,,,,,,,,,,,,,,55,001,2023_Mar_14_1943,SpeechDraft1Carolyn_lessNoise_PlusLocalization,2021.2.3,59.98614956048121,
sake.wav,sake.mpg,sake,4,AV,Pink_Noise_4_1.wav,Pink_Noise_4_2.wav,,,,,,,,,,,,,,,0,15,15,79,,,,,,,,,,,,,,,,,,,,,,,206.59646457689814,None,208.09594105486758,None,209.47951633203775,None,sink,209.47951633203775,None,return,2.8991593320388347,209.56291994987987,None,,,,,,,,,,,,,,,,,,,,,,,,,,,,,,,,,55,001,2023_Mar_14_1943,SpeechDraft1Carolyn_lessNoise_PlusLocalization,2021.2.3,59.98614956048121,
block.wav,block.mpg,block,3,A,Pink_Noise_3_1.wav,Pink_Noise_3_2.wav,,,,,,,,,,,,,,,0,16,16,48,,,,,,,,,,,,,,,,,,,,,,,212.47958825994283,None,213.97925665206276,None,215.36296529206447,None,fly,215.36296529206447,None,return,4.879781875992194,215.44628158397973,None,,,,,,,,,,,,,,,,,,,,,,,,,,,,,,,,,55,001,2023_Mar_14_1943,SpeechDraft1Carolyn_lessNoise_PlusLocalization,2021.2.3,59.98614956048121,
cloud.wav,cloud.mpg,cloud,4,A,Pink_Noise_4_1.wav,Pink_Noise_4_2.wav,,,,,,,,,,,,,,,0,17,17,17,,,,,,,,,,,,,,,,,,,,,,,220.3462730878964,None,221.8461024488788,None,223.22960063093342,None,bow,223.22960063093342,None,return,3.180975512135774,223.3130091568455,None,,,,,,,,,,,,,,,,,,,,,,,,,,,,,,,,,55,001,2023_Mar_14_1943,SpeechDraft1Carolyn_lessNoise_PlusLocalization,2021.2.3,59.98614956048121,
chip.wav,chip.mpg,chip,3,AV,Pink_Noise_3_1.wav,Pink_Noise_3_2.wav,,,,,,,,,,,,,,,0,18,18,90,,,,,,,,,,,,,,,,,,,,,,,226.5129324349109,None,228.01290294504724,None,229.3961859459523,None,chip,229.3961859459523,None,return,2.7263675979338586,229.47960693296045,None,,,,,,,,,,,,,,,,,,,,,,,,,,,,,,,,,55,001,2023_Mar_14_1943,SpeechDraft1Carolyn_lessNoise_PlusLocalization,2021.2.3,59.98614956048121,
broad.wav,broad.mpg,broad,2,AV,Pink_Noise_2_1.wav,Pink_Noise_2_2.wav,,,,,,,,,,,,,,,0,19,19,104,,,,,,,,,,,,,,,,,,,,,,,232.22969990805723,None,233.72947360784747,None,235.11288656899706,None,broad,235.11288656899706,None,return,2.665680180070922,235.19639882189222,None,,,,,,,,,,,,,,,,,,,,,,,,,,,,,,,,,55,001,2023_Mar_14_1943,SpeechDraft1Carolyn_lessNoise_PlusLocalization,2021.2.3,59.98614956048121,
fail.wav,fail.mpg,fail,1,AV,Pink_Noise_1_1.wav,Pink_Noise_1_2.wav,,,,,,,,,,,,,,,0,20,20,70,,,,,,,,,,,,,,,,,,,,,,,237.87962036184035,None,239.37934213900007,None,240.76288205897436,None,fail,240.76288205897436,None,return,3.4638471859507263,240.84625850990415,None,,,,,,,,,,,,,,,,,,,,,,,,,,,,,,,,,55,001,2023_Mar_14_1943,SpeechDraft1Carolyn_lessNoise_PlusLocalization,2021.2.3,59.98614956048121,
bland.wav,bland.mpg,bland,6,AV,Pink_Noise_6_1.wav,Pink_Noise_6_2.wav,,,,,,,,,,,,,,,0,21,21,107,,,,,,,,,,,,,,,,,,,,,,,244.32965461700223,None,245.82949185092002,None,247.21299371588975,None,bland,247.21299371588975,None,return,3.765765155898407,247.29628164786845,None,,,,,,,,,,,,,,,,,,,,,,,,,,,,,,,,,55,001,2023_Mar_14_1943,SpeechDraft1Carolyn_lessNoise_PlusLocalization,2021.2.3,59.98614956048121,
cease.wav,cease.mpg,cease,1,A,Pink_Noise_1_1.wav,Pink_Noise_1_2.wav,,,,,,,,,,,,,,,0,22,22,1,,,,,,,,,,,,,,,,,,,,,,,251.07966818893328,None,252.5793545448687,None,253.96302148303948,None,cease,253.96302148303948,None,return,3.9276541071012616,254.0463334210217,None,,,,,,,,,,,,,,,,,,,,,,,,,,,,,,,,,55,001,2023_Mar_14_1943,SpeechDraft1Carolyn_lessNoise_PlusLocalization,2021.2.3,59.98614956048121,
draw.wav,draw.mpg,draw,5,AV,Pink_Noise_5_1.wav,Pink_Noise_5_2.wav,,,,,,,,,,,,,,,0,23,23,63,,,,,,,,,,,,,,,,,,,,,,,257.99641699902713,None,259.49608144396916,None,260.8796223239042,None,"draw
",260.8796223239042,None,return,2.2349419589154422,260.9630390610546,None,,,,,,,,,,,,,,,,,,,,,,,,,,,,,,,,,55,001,2023_Mar_14_1943,SpeechDraft1Carolyn_lessNoise_PlusLocalization,2021.2.3,59.98614956048121,
badge.wav,badge.mpg,badge,4,AV,Pink_Noise_4_1.wav,Pink_Noise_4_2.wav,,,,,,,,,,,,,,,0,24,24,94,,,,,,,,,,,,,,,,,,,,,,,263.22967185406014,None,264.7294030848425,None,266.1128737248946,None,badge,266.1128737248946,None,return,2.5296308079268783,266.1964762888383,None,,,,,,,,,,,,,,,,,,,,,,,,,,,,,,,,,55,001,2023_Mar_14_1943,SpeechDraft1Carolyn_lessNoise_PlusLocalization,2021.2.3,59.98614956048121,
shed.wav,shed.mpg,shed,3,A,Pink_Noise_3_1.wav,Pink_Noise_3_2.wav,,,,,,,,,,,,,,,0,25,25,47,,,,,,,,,,,,,,,,,,,,,,,268.7464346620254,None,270.2460520090535,None,271.62973188306205,None,shed,271.62973188306205,None,return,2.124973136000335,271.71301486506127,None,,,,,,,,,,,,,,,,,,,,,,,,,,,,,,,,,55,001,2023_Mar_14_1943,SpeechDraft1Carolyn_lessNoise_PlusLocalization,2021.2.3,59.98614956048121,
cart.wav,cart.mpg,cart,2,AV,Pink_Noise_2_1.wav,Pink_Noise_2_2.wav,,,,,,,,,,,,,,,0,26,26,72,,,,,,,,,,,,,,,,,,,,,,,273.86298883194104,None,275.3628387209028,None,276.74618632602505,None,cart,276.74618632602505,None,return,2.9122463220264763,276.82975614001043,None,,,,,,,,,,,,,,,,,,,,,,,,,,,,,,,,,55,001,2023_Mar_14_1943,SpeechDraft1Carolyn_lessNoise_PlusLocalization,2021.2.3,59.98614956048121,
fault.wav,fault.mpg,fault,2,A,Pink_Noise_2_1.wav,Pink_Noise_2_2.wav,,,,,,,,,,,,,,,0,27,27,37,,,,,,,,,,,,,,,,,,,,,,,279.7630298449658,None,281.2628362879623,None,282.64634189987555,None,"fault
",282.64634189987555,None,return,3.1002974251750857,282.72966922004707,None,,,,,,,,,,,,,,,,,,,,,,,,,,,,,,,,,55,001,2023_Mar_14_1943,SpeechDraft1Carolyn_lessNoise_PlusLocalization,2021.2.3,59.98614956048121,
birch.wav,birch.mpg,birch,6,A,Pink_Noise_6_1.wav,Pink_Noise_6_2.wav,,,,,,,,,,,,,,,0,28,28,31,,,,,,,,,,,,,,,,,,,,,,,285.8630356830545,None,287.3626821038779,None,288.74633942800574,None,birch,288.74633942800574,None,return,5.616338688880205,288.8297227260191,None,,,,,,,,,,,,,,,,,,,,,,,,,,,,,,,,,55,001,2023_Mar_14_1943,SpeechDraft1Carolyn_lessNoise_PlusLocalization,2021.2.3,59.98614956048121,
dual.wav,dual.mpg,dual,6,A,Pink_Noise_6_1.wav,Pink_Noise_6_2.wav,,,,,,,,,,,,,,,0,29,29,14,,,,,,,,,,,,,,,,,,,,,,,294.46299940906465,None,295.9626895750407,None,297.3464145178441,None,,297.3464145178441,None,return,1.0403498050291091,297.42979209590703,None,,,,,,,,,,,,,,,,,,,,,,,,,,,,,,,,,55,001,2023_Mar_14_1943,SpeechDraft1Carolyn_lessNoise_PlusLocalization,2021.2.3,59.98614956048121,
layer.wav,layer.mpg,layer,1,AV,Pink_Noise_1_1.wav,Pink_Noise_1_2.wav,,,,,,,,,,,,,,,0,30,30,113,,,,,,,,,,,,,,,,,,,,,,,298.4964215939399,None,299.9961780968588,None,301.3798516530078,None,"layer
",301.3798516530078,None,return,3.366958798840642,301.46301056584343,None,,,,,,,,,,,,,,,,,,,,,,,,,,,,,,,,,55,001,2023_Mar_14_1943,SpeechDraft1Carolyn_lessNoise_PlusLocalization,2021.2.3,59.98614956048121,
check.wav,check.mpg,check,2,A,Pink_Noise_2_1.wav,Pink_Noise_2_2.wav,,,,,,,,,,,,,,,0,31,31,43,,,,,,,,,,,,,,,,,,,,,,,304.8630590059329,None,306.3627425939776,None,307.74645780795254,None,"check
",307.74645780795254,None,return,5.736247950932011,307.8297481930349,None,,,,,,,,,,,,,,,,,,,,,,,,,,,,,,,,,55,001,2023_Mar_14_1943,SpeechDraft1Carolyn_lessNoise_PlusLocalization,2021.2.3,59.98614956048121,
rod.wav,rod.mpg,rod,1,AV,Pink_Noise_1_1.wav,Pink_Noise_1_2.wav,,,,,,,,,,,,,,,0,32,32,64,,,,,,,,,,,,,,,,,,,,,,,313.59643350401893,None,315.09615584788844,None,316.47974086995237,None,rod,316.47974086995237,None,return,3.8108859651256353,316.56312091089785,None,,,,,,,,,,,,,,,,,,,,,,,,,,,,,,,,,55,001,2023_Mar_14_1943,SpeechDraft1Carolyn_lessNoise_PlusLocalization,2021.2.3,59.98614956048121,
bar.wav,bar.mpg,bar,6,AV,Pink_Noise_6_1.wav,Pink_Noise_6_2.wav,,,,,,,,,,,,,,,0,33,33,83,,,,,,,,,,,,,,,,,,,,,,,320.3964834790677,None,321.8965692098718,None,323.27976307994686,None,bar,323.27976307994686,None,return,2.4429779679048806,323.3630221008789,None,,,,,,,,,,,,,,,,,,,,,,,,,,,,,,,,,55,001,2023_Mar_14_1943,SpeechDraft1Carolyn_lessNoise_PlusLocalization,2021.2.3,59.98614956048121,
flask.wav,flask.mpg,flask,3,A,Pink_Noise_3_1.wav,Pink_Noise_3_2.wav,,,,,,,,,,,,,,,0,34,34,23,,,,,,,,,,,,,,,,,,,,,,,325.8316079569049,None,327.3461169449147,None,328.72974125901237,None,"clasp
",328.72974125901237,None,return,2.3688385759014636,328.8131627549883,None,,,,,,,,,,,,,,,,,,,,,,,,,,,,,,,,,55,001,2023_Mar_14_1943,SpeechDraft1Carolyn_lessNoise_PlusLocalization,2021.2.3,59.98614956048121,
chop.wav,chop.mpg,chop,1,AV,Pink_Noise_1_1.wav,Pink_Noise_1_2.wav,,,,,,,,,,,,,,,0,35,35,76,,,,,,,,,,,,,,,,,,,,,,,331.2132127948571,None,332.71281725005247,None,334.0963644259609,None,chop,334.0963644259609,None,return,2.594201023923233,334.17980307806283,None,,,,,,,,,,,,,,,,,,,,,,,,,,,,,,,,,55,001,2023_Mar_14_1943,SpeechDraft1Carolyn_lessNoise_PlusLocalization,2021.2.3,59.98614956048121,
choke.wav,choke.mpg,choke,3,AV,Pink_Noise_3_1.wav,Pink_Noise_3_2.wav,,,,,,,,,,,,,,,0,36,36,77,,,,,,,,,,,,,,,,,,,,,,,336.7964730639942,None,338.2960570589639,None,339.6796591070015,None,choke,339.6796591070015,None,return,2.642900438979268,339.76308203698136,None,,,,,,,,,,,,,,,,,,,,,,,,,,,,,,,,,55,001,2023_Mar_14_1943,SpeechDraft1Carolyn_lessNoise_PlusLocalization,2021.2.3,59.98614956048121,
ear.wav,ear.mpg,ear,3,A,Pink_Noise_3_1.wav,Pink_Noise_3_2.wav,,,,,,,,,,,,,,,0,37,37,21,,,,,,,,,,,,,,,,,,,,,,,342.4298056738917,None,343.9294554858934,None,345.3131501560565,None,fear,345.3131501560565,None,return,5.2575791731942445,345.3963922178373,None,,,,,,,,,,,,,,,,,,,,,,,,,,,,,,,,,55,001,2023_Mar_14_1943,SpeechDraft1Carolyn_lessNoise_PlusLocalization,2021.2.3,59.98614956048121,
cough.wav,cough.mpg,cough,6,AV,Pink_Noise_6_1.wav,Pink_Noise_6_2.wav,,,,,,,,,,,,,,,0,38,38,89,,,,,,,,,,,,,,,,,,,,,,,350.679907517042,None,352.18099088198505,None,353.56309106806293,None,cough,353.56309106806293,None,return,10.255694572115317,353.6464630118571,None,,,,,,,,,,,,,,,,,,,,,,,,,,,,,,,,,55,001,2023_Mar_14_1943,SpeechDraft1Carolyn_lessNoise_PlusLocalization,2021.2.3,59.98614956048121,
bait.wav,bait.mpg,bait,3,AV,Pink_Noise_3_1.wav,Pink_Noise_3_2.wav,,,,,,,,,,,,,,,0,39,39,65,,,,,,,,,,,,,,,,,,,,,,,363.92977903294377,None,365.43035887088627,None,366.8131908448413,None,bait,366.8131908448413,None,return,3.021583243040368,366.8964947250206,None,,,,,,,,,,,,,,,,,,,,,,,,,,,,,,,,,55,001,2023_Mar_14_1943,SpeechDraft1Carolyn_lessNoise_PlusLocalization,2021.2.3,59.98614956048121,
dusk.wav,dusk.mpg,dusk,1,A,Pink_Noise_1_1.wav,Pink_Noise_1_2.wav,,,,,,,,,,,,,,,0,40,40,30,,,,,,,,,,,,,,,,,,,,,,,369.94651677506045,None,371.4460315979086,None,372.82979481690563,None,dusk,372.82979481690563,None,return,2.612891229102388,372.91313793789595,None,,,,,,,,,,,,,,,,,,,,,,,,,,,,,,,,,55,001,2023_Mar_14_1943,SpeechDraft1Carolyn_lessNoise_PlusLocalization,2021.2.3,59.98614956048121,
dog.wav,dog.mpg,dog,5,A,Pink_Noise_5_1.wav,Pink_Noise_5_2.wav,,,,,,,,,,,,,,,0,41,41,32,,,,,,,,,,,,,,,,,,,,,,,375.54656113893725,None,377.0462095818948,None,378.4299100940116,None,dawn,378.4299100940116,None,return,8.116920880973339,378.51312878588215,None,,,,,,,,,,,,,,,,,,,,,,,,,,,,,,,,,55,001,2023_Mar_14_1943,SpeechDraft1Carolyn_lessNoise_PlusLocalization,2021.2.3,59.98614956048121,
earn.wav,earn.mpg,earn,6,AV,Pink_Noise_6_1.wav,Pink_Noise_6_2.wav,,,,,,,,,,,,,,,0,42,42,66,,,,,,,,,,,,,,,,,,,,,,,386.6471050269902,None,388.146371840965,None,389.52973974193446,None,earl,389.52973974193446,None,return,6.928859446197748,389.6131457388401,None,,,,,,,,,,,,,,,,,,,,,,,,,,,,,,,,,55,001,2023_Mar_14_1943,SpeechDraft1Carolyn_lessNoise_PlusLocalization,2021.2.3,59.98614956048121,
fluent.wav,fluent.mpg,fluent,1,A,Pink_Noise_1_1.wav,Pink_Noise_1_2.wav,,,,,,,,,,,,,,,0,43,43,3,,,,,,,,,,,,,,,,,,,,,,,396.56321642990224,None,398.06305713998154,None,399.4465569588356,None,fluent,399.4465569588356,None,return,3.996202667010948,399.52984066097997,None,,,,,,,,,,,,,,,,,,,,,,,,,,,,,,,,,55,001,2023_Mar_14_1943,SpeechDraft1Carolyn_lessNoise_PlusLocalization,2021.2.3,59.98614956048121,
drop.wav,drop.mpg,drop,3,AV,Pink_Noise_3_1.wav,Pink_Noise_3_2.wav,,,,,,,,,,,,,,,0,44,44,62,,,,,,,,,,,,,,,,,,,,,,,403.5465325899422,None,405.04621295491233,None,406.42975947796367,None,dropped,406.42975947796367,None,return,4.32476287195459,406.5132341028657,None,,,,,,,,,,,,,,,,,,,,,,,,,,,,,,,,,55,001,2023_Mar_14_1943,SpeechDraft1Carolyn_lessNoise_PlusLocalization,2021.2.3,59.98614956048121,
bloat.wav,bloat.mpg,bloat,6,AV,Pink_Noise_6_1.wav,Pink_Noise_6_2.wav,,,,,,,,,,,,,,,0,45,45,116,,,,,,,,,,,,,,,,,,,,,,,410.8632660319563,None,412.3629586058669,None,413.74649763689376,None,bloat,413.74649763689376,None,return,5.344173196936026,413.82980065303855,None,,,,,,,,,,,,,,,,,,,,,,,,,,,,,,,,,55,001,2023_Mar_14_1943,SpeechDraft1Carolyn_lessNoise_PlusLocalization,2021.2.3,59.98614956048121,
chest.wav,chest.mpg,chest,4,AV,Pink_Noise_4_1.wav,Pink_Noise_4_2.wav,,,,,,,,,,,,,,,0,46,46,88,,,,,,,,,,,,,,,,,,,,,,,419.1965056860354,None,420.696308438899,None,422.07988608884625,None,chest,422.07988608884625,None,return,3.7227801377885044,422.16330238385126,None,,,,,,,,,,,,,,,,,,,,,,,,,,,,,,,,,55,001,2023_Mar_14_1943,SpeechDraft1Carolyn_lessNoise_PlusLocalization,2021.2.3,59.98614956048121,
slush.wav,slush.mpg,slush,5,A,Pink_Noise_5_1.wav,Pink_Noise_5_2.wav,,,,,,,,,,,,,,,0,47,47,20,,,,,,,,,,,,,,,,,,,,,,,425.91323321289383,None,427.4129738069605,None,428.79661362990737,None,slush,428.79661362990737,None,return,3.446187342982739,428.87984183989465,None,,,,,,,,,,,,,,,,,,,,,,,,,,,,,,,,,55,001,2023_Mar_14_1943,SpeechDraft1Carolyn_lessNoise_PlusLocalization,2021.2.3,59.98614956048121,
born.wav,born.mpg,born,2,AV,Pink_Noise_2_1.wav,Pink_Noise_2_2.wav,,,,,,,,,,,,,,,0,48,48,106,,,,,,,,,,,,,,,,,,,,,,,432.34663327690214,None,433.84629623405635,None,435.22992448089644,None,born,435.22992448089644,None,return,3.1727921119891107,435.3132533968892,None,,,,,,,,,,,,,,,,,,,,,,,,,,,,,,,,,55,001,2023_Mar_14_1943,SpeechDraft1Carolyn_lessNoise_PlusLocalization,2021.2.3,59.98614956048121,
spire.wav,spire.mpg,spire,3,AV,Pink_Noise_3_1.wav,Pink_Noise_3_2.wav,,,,,,,,,,,,,,,0,49,49,95,,,,,,,,,,,,,,,,,,,,,,,438.5132472978439,None,440.01293186401017,None,441.39667871198617,None,inspire,441.39667871198617,None,return,14.58223520219326,441.4798256929498,None,,,,,,,,,,,,,,,,,,,,,,,,,,,,,,,,,55,001,2023_Mar_14_1943,SpeechDraft1Carolyn_lessNoise_PlusLocalization,2021.2.3,59.98614956048121,
goose.wav,goose.mpg,goose,3,A,Pink_Noise_3_1.wav,Pink_Noise_3_2.wav,,,,,,,,,,,,,,,0,50,50,12,,,,,,,,,,,,,,,,,,,,,,,456.07999623101205,None,457.579601167934,None,458.96337197883986,None,goose,458.96337197883986,None,return,3.0874541068915278,459.04654696094804,None,,,,,,,,,,,,,,,,,,,,,,,,,,,,,,,,,55,001,2023_Mar_14_1943,SpeechDraft1Carolyn_lessNoise_PlusLocalization,2021.2.3,59.98614956048121,
fast.wav,fast.mpg,fast,3,A,Pink_Noise_3_1.wav,Pink_Noise_3_2.wav,,,,,,,,,,,,,,,0,51,51,38,,,,,,,,,,,,,,,,,,,,,,,462.16328095598146,None,463.6630518960301,None,465.0465575910639,None,fast,465.0465575910639,None,return,2.5882416039239615,465.1298310570419,None,,,,,,,,,,,,,,,,,,,,,,,,,,,,,,,,,55,001,2023_Mar_14_1943,SpeechDraft1Carolyn_lessNoise_PlusLocalization,2021.2.3,59.98614956048121,
brain.wav,brain.mpg,brain,4,AV,Pink_Noise_4_1.wav,Pink_Noise_4_2.wav,,,,,,,,,,,,,,,0,52,52,91,,,,,,,,,,,,,,,,,,,,,,,467.7466931708623,None,469.263042798033,None,470.6298273799475,None,brail,470.6298273799475,None,return,8.62067235284485,470.7133133909665,None,,,,,,,,,,,,,,,,,,,,,,,,,,,,,,,,,55,001,2023_Mar_14_1943,SpeechDraft1Carolyn_lessNoise_PlusLocalization,2021.2.3,59.98614956048121,
grain.wav,grain.mpg,grain,2,AV,Pink_Noise_2_1.wav,Pink_Noise_2_2.wav,,,,,,,,,,,,,,,0,53,53,100,,,,,,,,,,,,,,,,,,,,,,,479.3633455859963,None,480.863062501885,None,482.2467694620136,None,"grin
",482.2467694620136,None,return,4.452104979893193,482.3298988309689,None,,,,,,,,,,,,,,,,,,,,,,,,,,,,,,,,,55,001,2023_Mar_14_1943,SpeechDraft1Carolyn_lessNoise_PlusLocalization,2021.2.3,59.98614956048121,
grin.wav,grin.mpg,grin,6,A,Pink_Noise_6_1.wav,Pink_Noise_6_2.wav,,,,,,,,,,,,,,,0,54,54,22,,,,,,,,,,,,,,,,,,,,,,,486.81356177688576,None,488.31307051400654,None,489.69666728004813,None,frail,489.69666728004813,None,return,7.674130096100271,489.77997893700376,None,,,,,,,,,,,,,,,,,,,,,,,,,,,,,,,,,55,001,2023_Mar_14_1943,SpeechDraft1Carolyn_lessNoise_PlusLocalization,2021.2.3,59.98614956048121,
beard.wav,beard.mpg,beard,3,AV,Pink_Noise_3_1.wav,Pink_Noise_3_2.wav,,,,,,,,,,,,,,,0,55,55,117,,,,,,,,,,,,,,,,,,,,,,,497.48018318996765,None,498.9964187729638,None,500.3800783199258,None,beard,500.3800783199258,None,return,2.758640782907605,500.46336573990993,None,,,,,,,,,,,,,,,,,,,,,,,,,,,,,,,,,55,001,2023_Mar_14_1943,SpeechDraft1Carolyn_lessNoise_PlusLocalization,2021.2.3,59.98614956048121,
blur.wav,blur.mpg,blur,3,AV,Pink_Noise_3_1.wav,Pink_Noise_3_2.wav,,,,,,,,,,,,,,,0,56,56,118,,,,,,,,,,,,,,,,,,,,,,,503.2465969908517,None,504.74702343693934,None,506.1299698529765,None,blur,506.1299698529765,None,return,3.6566602250095457,506.21343241794966,None,,,,,,,,,,,,,,,,,,,,,,,,,,,,,,,,,55,001,2023_Mar_14_1943,SpeechDraft1Carolyn_lessNoise_PlusLocalization,2021.2.3,59.98614956048121,
desk.wav,desk.mpg,desk,5,AV,Pink_Noise_5_1.wav,Pink_Noise_5_2.wav,,,,,,,,,,,,,,,0,57,57,82,,,,,,,,,,,,,,,,,,,,,,,509.896761453012,None,511.4131026088726,None,512.779916760046,None,desk,512.779916760046,None,return,3.822742888936773,512.8633227869868,None,,,,,,,,,,,,,,,,,,,,,,,,,,,,,,,,,55,001,2023_Mar_14_1943,SpeechDraft1Carolyn_lessNoise_PlusLocalization,2021.2.3,59.98614956048121,
brash.wav,brash.mpg,brash,4,A,Pink_Noise_4_1.wav,Pink_Noise_4_2.wav,,,,,,,,,,,,,,,0,58,58,2,,,,,,,,,,,,,,,,,,,,,,,516.7133371939417,None,518.2131006920245,None,519.5966545760166,None,"rash
",519.5966545760166,None,return,2.669989794958383,519.6799917079043,None,,,,,,,,,,,,,,,,,,,,,,,,,,,,,,,,,55,001,2023_Mar_14_1943,SpeechDraft1Carolyn_lessNoise_PlusLocalization,2021.2.3,59.98614956048121,
dent.wav,dent.mpg,dent,1,A,Pink_Noise_1_1.wav,Pink_Noise_1_2.wav,,,,,,,,,,,,,,,0,59,59,58,,,,,,,,,,,,,,,,,,,,,,,522.3800288098864,None,523.8798369078431,None,525.2633799018804,None,"dent
",525.2633799018804,None,return,2.419274467974901,525.346718269866,None,,,,,,,,,,,,,,,,,,,,,,,,,,,,,,,,,55,001,2023_Mar_14_1943,SpeechDraft1Carolyn_lessNoise_PlusLocalization,2021.2.3,59.98614956048121,
cure.wav,cure.mpg,cure,5,A,Pink_Noise_5_1.wav,Pink_Noise_5_2.wav,,,,,,,,,,,,,,,0,60,60,55,,,,,,,,,,,,,,,,,,,,,,,527.7968240608461,None,529.3131521828473,None,530.6966998439748,None,joke,530.6966998439748,None,return,4.137965285219252,530.7801007099915,None,,,,,,,,,,,,,,,,,,,,,,,,,,,,,,,,,55,001,2023_Mar_14_1943,SpeechDraft1Carolyn_lessNoise_PlusLocalization,2021.2.3,59.98614956048121,
buff.wav,buff.mpg,buff,3,A,Pink_Noise_3_1.wav,Pink_Noise_3_2.wav,,,,,,,,,,,,,,,0,61,61,52,,,,,,,,,,,,,,,,,,,,,,,534.946768683847,None,536.4464501210023,None,537.8300569069106,None,fun,537.8300569069106,None,return,11.140705561032519,537.913382516941,None,,,,,,,,,,,,,,,,,,,,,,,,,,,,,,,,,55,001,2023_Mar_14_1943,SpeechDraft1Carolyn_lessNoise_PlusLocalization,2021.2.3,59.98614956048121,
axe.wav,axe.mpg,axe,5,AV,Pink_Noise_5_1.wav,Pink_Noise_5_2.wav,,,,,,,,,,,,,,,0,62,62,110,,,,,,,,,,,,,,,,,,,,,,,549.0800714059733,None,550.58053069585,None,551.963277455885,None,"axe
",551.963277455885,None,return,3.3192287711426616,552.0467761158943,None,,,,,,,,,,,,,,,,,,,,,,,,,,,,,,,,,55,001,2023_Mar_14_1943,SpeechDraft1Carolyn_lessNoise_PlusLocalization,2021.2.3,59.98614956048121,
glove.wav,glove.mpg,glove,4,A,Pink_Noise_4_1.wav,Pink_Noise_4_2.wav,,,,,,,,,,,,,,,0,63,63,45,,,,,,,,,,,,,,,,,,,,,,,555.3966715950519,None,556.9131850949489,None,558.2966239990201,None,"girl
",558.2966239990201,None,return,4.833949164953083,558.3800441508647,None,,,,,,,,,,,,,,,,,,,,,,,,,,,,,,,,,55,001,2023_Mar_14_1943,SpeechDraft1Carolyn_lessNoise_PlusLocalization,2021.2.3,59.98614956048121,
truce.wav,truce.mpg,truce,2,A,Pink_Noise_2_1.wav,Pink_Noise_2_2.wav,,,,,,,,,,,,,,,0,64,64,4,,,,,,,,,,,,,,,,,,,,,,,563.2469313000329,None,564.7463245170657,None,566.1302075339481,None,"truce
",566.1302075339481,None,return,3.9845345478970557,566.2134431030136,None,,,,,,,,,,,,,,,,,,,,,,,,,,,,,,,,,55,001,2023_Mar_14_1943,SpeechDraft1Carolyn_lessNoise_PlusLocalization,2021.2.3,59.98614956048121,
stuck.wav,stuck.mpg,stuck,4,AV,Pink_Noise_4_1.wav,Pink_Noise_4_2.wav,,,,,,,,,,,,,,,0,65,65,99,,,,,,,,,,,,,,,,,,,,,,,570.2301503259223,None,571.7311628528405,None,573.1138139718678,None,stuck,573.1138139718678,None,return,4.129148819018155,573.196827373933,None,,,,,,,,,,,,,,,,,,,,,,,,,,,,,,,,,55,001,2023_Mar_14_1943,SpeechDraft1Carolyn_lessNoise_PlusLocalization,2021.2.3,59.98614956048121,
clown.wav,clown.mpg,clown,4,A,Pink_Noise_4_1.wav,Pink_Noise_4_2.wav,,,,,,,,,,,,,,,0,66,66,15,,,,,,,,,,,,,,,,,,,,,,,577.3468450859655,None,578.8633016550448,None,580.2302296380512,None,frown,580.2302296380512,None,return,3.5166179100051522,580.313444401836,None,,,,,,,,,,,,,,,,,,,,,,,,,,,,,,,,,55,001,2023_Mar_14_1943,SpeechDraft1Carolyn_lessNoise_PlusLocalization,2021.2.3,59.98614956048121,
bless.wav,bless.mpg,bless,6,A,Pink_Noise_6_1.wav,Pink_Noise_6_2.wav,,,,,,,,,,,,,,,0,67,67,19,,,,,,,,,,,,,,,,,,,,,,,583.8467983969022,None,585.3632003478706,None,586.7301874698605,None,glass,586.7301874698605,None,return,3.5124726539943367,586.8135071969591,None,,,,,,,,,,,,,,,,,,,,,,,,,,,,,,,,,55,001,2023_Mar_14_1943,SpeechDraft1Carolyn_lessNoise_PlusLocalization,2021.2.3,59.98614956048121,
steam.wav,steam.mpg,steam,4,AV,Pink_Noise_4_1.wav,Pink_Noise_4_2.wav,,,,,,,,,,,,,,,0,68,68,78,,,,,,,,,,,,,,,,,,,,,,,590.3468047699425,None,591.863253386924,None,593.2301386829931,None,steam,593.2301386829931,None,return,3.3404723778367043,593.3136101949494,None,,,,,,,,,,,,,,,,,,,,,,,,,,,,,,,,,55,001,2023_Mar_14_1943,SpeechDraft1Carolyn_lessNoise_PlusLocalization,2021.2.3,59.98614956048121,
flag.wav,flag.mpg,flag,4,A,Pink_Noise_4_1.wav,Pink_Noise_4_2.wav,,,,,,,,,,,,,,,0,69,69,35,,,,,,,,,,,,,,,,,,,,,,,596.6801606600638,None,598.1964099749457,None,599.563571523875,None,flower,599.563571523875,None,return,2.815292203100398,599.6468024558853,None,,,,,,,,,,,,,,,,,,,,,,,,,,,,,,,,,55,001,2023_Mar_14_1943,SpeechDraft1Carolyn_lessNoise_PlusLocalization,2021.2.3,59.98614956048121,
please.wav,please.mpg,please,2,AV,Pink_Noise_2_1.wav,Pink_Noise_2_2.wav,,,,,,,,,,,,,,,0,70,70,115,,,,,,,,,,,,,,,,,,,,,,,602.480135506019,None,603.9799463239033,None,605.3634589060675,None,"please
",605.3634589060675,None,return,3.303217286011204,605.4467419858556,None,,,,,,,,,,,,,,,,,,,,,,,,,,,,,,,,,55,001,2023_Mar_14_1943,SpeechDraft1Carolyn_lessNoise_PlusLocalization,2021.2.3,59.98614956048121,
file.wav,file.mpg,file,2,A,Pink_Noise_2_1.wav,Pink_Noise_2_2.wav,,,,,,,,,,,,,,,0,71,71,39,,,,,,,,,,,,,,,,,,,,,,,608.7802162868902,None,610.2799226338975,None,611.6635018468369,None,"file
",611.6635018468369,None,return,2.051180967129767,611.7467917150352,None,,,,,,,,,,,,,,,,,,,,,,,,,,,,,,,,,55,001,2023_Mar_14_1943,SpeechDraft1Carolyn_lessNoise_PlusLocalization,2021.2.3,59.98614956048121,
crypt.wav,crypt.mpg,crypt,1,A,Pink_Noise_1_1.wav,Pink_Noise_1_2.wav,,,,,,,,,,,,,,,0,72,72,51,,,,,,,,,,,,,,,,,,,,,,,613.8301728218794,None,615.3300639230292,None,616.7133340758737,None,"crypt
",616.7133340758737,None,return,5.401156096952036,616.7968332080636,None,,,,,,,,,,,,,,,,,,,,,,,,,,,,,,,,,55,001,2023_Mar_14_1943,SpeechDraft1Carolyn_lessNoise_PlusLocalization,2021.2.3,59.98614956048121,
blimp.wav,blimp.mpg,blimp,5,A,Pink_Noise_5_1.wav,Pink_Noise_5_2.wav,,,,,,,,,,,,,,,0,73,73,25,,,,,,,,,,,,,,,,,,,,,,,622.2302090970334,None,623.7465138200205,None,625.1136380310636,None,"lip
",625.1136380310636,None,return,2.6172286700457335,625.1967841919977,None,,,,,,,,,,,,,,,,,,,,,,,,,,,,,,,,,55,001,2023_Mar_14_1943,SpeechDraft1Carolyn_lessNoise_PlusLocalization,2021.2.3,59.98614956048121,
greek.wav,greek.mpg,greek,6,AV,Pink_Noise_6_1.wav,Pink_Noise_6_2.wav,,,,,,,,,,,,,,,0,74,74,96,,,,,,,,,,,,,,,,,,,,,,,627.8468711329624,None,629.3484880039468,None,630.7302038019989,None,greet,630.7302038019989,None,return,4.34444244694896,630.8135575170163,None,,,,,,,,,,,,,,,,,,,,,,,,,,,,,,,,,55,001,2023_Mar_14_1943,SpeechDraft1Carolyn_lessNoise_PlusLocalization,2021.2.3,59.98614956048121,
beam.wav,beam.mpg,beam,5,AV,Pink_Noise_5_1.wav,Pink_Noise_5_2.wav,,,,,,,,,,,,,,,0,75,75,111,,,,,,,,,,,,,,,,,,,,,,,635.1802488178946,None,636.6799755508546,None,638.0633913050406,None,beep,638.0633913050406,None,return,2.555196445900947,638.1468884919304,None,,,,,,,,,,,,,,,,,,,,,,,,,,,,,,,,,55,001,2023_Mar_14_1943,SpeechDraft1Carolyn_lessNoise_PlusLocalization,2021.2.3,59.98614956048121,
damn.wav,damn.mpg,damn,5,A,Pink_Noise_5_1.wav,Pink_Noise_5_2.wav,,,,,,,,,,,,,,,0,76,76,5,,,,,,,,,,,,,,,,,,,,,,,640.7301746690646,None,642.2300586858764,None,643.6135885538533,None,fail,643.6135885538533,None,return,3.1731978359166533,643.696897424059,None,,,,,,,,,,,,,,,,,,,,,,,,,,,,,,,,,55,001,2023_Mar_14_1943,SpeechDraft1Carolyn_lessNoise_PlusLocalization,2021.2.3,59.98614956048121,
birth.wav,birth.mpg,birth,5,AV,Pink_Noise_5_1.wav,Pink_Noise_5_2.wav,,,,,,,,,,,,,,,0,77,77,80,,,,,,,,,,,,,,,,,,,,,,,646.8970027910545,None,648.413303792011,None,649.7968525548931,None,birth,649.7968525548931,None,return,2.781828684033826,649.8802359588444,None,,,,,,,,,,,,,,,,,,,,,,,,,,,,,,,,,55,001,2023_Mar_14_1943,SpeechDraft1Carolyn_lessNoise_PlusLocalization,2021.2.3,59.98614956048121,
bias.wav,bias.mpg,bias,5,A,Pink_Noise_5_1.wav,Pink_Noise_5_2.wav,,,,,,,,,,,,,,,0,78,78,18,,,,,,,,,,,,,,,,,,,,,,,652.6801928528585,None,654.1799297260586,None,655.5635643459391,None,bite,655.5635643459391,None,return,4.327167717041448,655.6468236339279,None,,,,,,,,,,,,,,,,,,,,,,,,,,,,,,,,,55,001,2023_Mar_14_1943,SpeechDraft1Carolyn_lessNoise_PlusLocalization,2021.2.3,59.98614956048121,
bring.wav,bring.mpg,bring,2,A,Pink_Noise_2_1.wav,Pink_Noise_2_2.wav,,,,,,,,,,,,,,,0,79,79,54,,,,,,,,,,,,,,,,,,,,,,,659.9968945330475,None,661.49668323691,None,662.8802694459446,None,grin,662.8802694459446,None,return,2.6664458110462874,662.9636324609164,None,,,,,,,,,,,,,,,,,,,,,,,,,,,,,,,,,55,001,2023_Mar_14_1943,SpeechDraft1Carolyn_lessNoise_PlusLocalization,2021.2.3,59.98614956048121,
poll.wav,poll.mpg,poll,4,AV,Pink_Noise_4_1.wav,Pink_Noise_4_2.wav,,,,,,,,,,,,,,,0,80,80,103,,,,,,,,,,,,,,,,,,,,,,,665.6468664458953,None,667.1633328220341,None,668.5468802959658,None,pull,668.5468802959658,None,return,3.255885088117793,668.6302352668718,None,,,,,,,,,,,,,,,,,,,,,,,,,,,,,,,,,55,001,2023_Mar_14_1943,SpeechDraft1Carolyn_lessNoise_PlusLocalization,2021.2.3,59.98614956048121,
quit.wav,quit.mpg,quit,6,A,Pink_Noise_6_1.wav,Pink_Noise_6_2.wav,,,,,,,,,,,,,,,0,81,81,53,,,,,,,,,,,,,,,,,,,,,,,671.9134929708671,None,673.4141588988714,None,674.7969926670194,None,frown,674.7969926670194,None,return,3.813792495056987,674.8802763000131,None,,,,,,,,,,,,,,,,,,,,,,,,,,,,,,,,,55,001,2023_Mar_14_1943,SpeechDraft1Carolyn_lessNoise_PlusLocalization,2021.2.3,59.98614956048121,
cane.wav,cane.mpg,cane,3,A,Pink_Noise_3_1.wav,Pink_Noise_3_2.wav,,,,,,,,,,,,,,,0,82,82,11,,,,,,,,,,,,,,,,,,,,,,,678.7137127199676,None,680.2300390449818,None,681.6137542449869,None,"cane
",681.6137542449869,None,return,6.869100811891258,681.6968865809031,None,,,,,,,,,,,,,,,,,,,,,,,,,,,,,,,,,55,001,2023_Mar_14_1943,SpeechDraft1Carolyn_lessNoise_PlusLocalization,2021.2.3,59.98614956048121,
draft.wav,draft.mpg,draft,1,AV,Pink_Noise_1_1.wav,Pink_Noise_1_2.wav,,,,,,,,,,,,,,,0,83,83,93,,,,,,,,,,,,,,,,,,,,,,,688.5969186979346,None,690.1134404819459,None,691.4968553809449,None,"draft
",691.4968553809449,None,return,3.001676162937656,691.580296754837,None,,,,,,,,,,,,,,,,,,,,,,,,,,,,,,,,,55,001,2023_Mar_14_1943,SpeechDraft1Carolyn_lessNoise_PlusLocalization,2021.2.3,59.98614956048121,
fuse.wav,fuse.mpg,fuse,5,AV,Pink_Noise_5_1.wav,Pink_Noise_5_2.wav,,,,,,,,,,,,,,,0,84,84,101,,,,,,,,,,,,,,,,,,,,,,,694.6137166828848,None,696.1300357049331,None,697.513614717871,None,fuse,697.513614717871,None,return,2.696998836006969,697.5970539860427,None,,,,,,,,,,,,,,,,,,,,,,,,,,,,,,,,,55,001,2023_Mar_14_1943,SpeechDraft1Carolyn_lessNoise_PlusLocalization,2021.2.3,59.98614956048121,
fall.wav,fall.mpg,fall,2,A,Pink_Noise_2_1.wav,Pink_Noise_2_2.wav,,,,,,,,,,,,,,,0,85,85,33,,,,,,,,,,,,,,,,,,,,,,,700.3136259778403,None,701.8305165660568,None,703.2136085738894,None,"fall
",703.2136085738894,None,return,2.668990612961352,703.296995545039,None,,,,,,,,,,,,,,,,,,,,,,,,,,,,,,,,,55,001,2023_Mar_14_1943,SpeechDraft1Carolyn_lessNoise_PlusLocalization,2021.2.3,59.98614956048121,
depth.wav,depth.mpg,depth,3,AV,Pink_Noise_3_1.wav,Pink_Noise_3_2.wav,,,,,,,,,,,,,,,0,86,86,114,,,,,,,,,,,,,,,,,,,,,,,705.9969056400005,None,707.4969317140058,None,708.8801928919274,None,"depth
",708.8801928919274,None,return,2.8023082688450813,708.9636866389774,None,,,,,,,,,,,,,,,,,,,,,,,,,,,,,,,,,55,001,2023_Mar_14_1943,SpeechDraft1Carolyn_lessNoise_PlusLocalization,2021.2.3,59.98614956048121,
coy.wav,coy.mpg,coy,2,AV,Pink_Noise_2_1.wav,Pink_Noise_2_2.wav,,,,,,,,,,,,,,,0,87,87,75,,,,,,,,,,,,,,,,,,,,,,,711.7969822490122,None,713.3133264339995,None,714.6967619860079,None,coy,714.6967619860079,None,return,2.649781650165096,714.7802952099591,None,,,,,,,,,,,,,,,,,,,,,,,,,,,,,,,,,55,001,2023_Mar_14_1943,SpeechDraft1Carolyn_lessNoise_PlusLocalization,2021.2.3,59.98614956048121,
dial.wav,dial.mpg,dial,2,AV,Pink_Noise_2_1.wav,Pink_Noise_2_2.wav,,,,,,,,,,,,,,,0,88,88,71,,,,,,,,,,,,,,,,,,,,,,,717.4468879890628,None,718.9633548450656,None,720.3468306038994,None,dial,720.3468306038994,None,return,3.2398173920810223,720.4303204908501,None,,,,,,,,,,,,,,,,,,,,,,,,,,,,,,,,,55,001,2023_Mar_14_1943,SpeechDraft1Carolyn_lessNoise_PlusLocalization,2021.2.3,59.98614956048121,
mold.wav,mold.mpg,mold,4,A,Pink_Noise_4_1.wav,Pink_Noise_4_2.wav,,,,,,,,,,,,,,,0,89,89,6,,,,,,,,,,,,,,,,,,,,,,,723.6969848379958,None,725.1968435698655,None,726.5802766119596,None,"aren't
",726.5802766119596,None,return,7.134371611988172,726.6636057640426,None,,,,,,,,,,,,,,,,,,,,,,,,,,,,,,,,,55,001,2023_Mar_14_1943,SpeechDraft1Carolyn_lessNoise_PlusLocalization,2021.2.3,59.98614956048121,
grace.wav,grace.mpg,grace,3,A,Pink_Noise_3_1.wav,Pink_Noise_3_2.wav,,,,,,,,,,,,,,,0,90,90,9,,,,,,,,,,,,,,,,,,,,,,,733.8302971369121,None,735.3466526940465,None,736.7303247009404,None,grace,736.7303247009404,None,return,2.480337446089834,736.8137217550538,None,,,,,,,,,,,,,,,,,,,,,,,,,,,,,,,,,55,001,2023_Mar_14_1943,SpeechDraft1Carolyn_lessNoise_PlusLocalization,2021.2.3,59.98614956048121,
clot.wav,clot.mpg,clot,1,AV,Pink_Noise_1_1.wav,Pink_Noise_1_2.wav,,,,,,,,,,,,,,,0,91,91,98,,,,,,,,,,,,,,,,,,,,,,,739.3136764368974,None,740.8300552270375,None,742.2135428369511,None,"clat
",742.2135428369511,None,return,6.6849675960838795,742.2970092420001,None,,,,,,,,,,,,,,,,,,,,,,,,,,,,,,,,,55,001,2023_Mar_14_1943,SpeechDraft1Carolyn_lessNoise_PlusLocalization,2021.2.3,59.98614956048121,
cute.wav,cute.mpg,cute,3,AV,Pink_Noise_3_1.wav,Pink_Noise_3_2.wav,,,,,,,,,,,,,,,0,92,92,85,,,,,,,,,,,,,,,,,,,,,,,749.0137350889854,None,750.5301787308417,None,751.9136486519128,None,"cute
",751.9136486519128,None,return,2.784817609935999,751.9971617769916,None,,,,,,,,,,,,,,,,,,,,,,,,,,,,,,,,,55,001,2023_Mar_14_1943,SpeechDraft1Carolyn_lessNoise_PlusLocalization,2021.2.3,59.98614956048121,
rent.wav,rent.mpg,rent,6,A,Pink_Noise_6_1.wav,Pink_Noise_6_2.wav,,,,,,,,,,,,,,,0,93,93,13,,,,,,,,,,,,,,,,,,,,,,,754.8135933838785,None,756.3142898490187,None,757.6969841660466,None,lent,757.6969841660466,None,return,3.481590841896832,757.7804855389986,None,,,,,,,,,,,,,,,,,,,,,,,,,,,,,,,,,55,001,2023_Mar_14_1943,SpeechDraft1Carolyn_lessNoise_PlusLocalization,2021.2.3,59.98614956048121,
fit.wav,fit.mpg,fit,3,A,Pink_Noise_3_1.wav,Pink_Noise_3_2.wav,,,,,,,,,,,,,,,0,94,94,41,,,,,,,,,,,,,,,,,,,,,,,761.2803766790312,None,762.7809169190004,None,764.1637096519116,None,"fit
",764.1637096519116,None,return,2.0868782540783286,764.2470899948385,None,,,,,,,,,,,,,,,,,,,,,,,,,,,,,,,,,55,001,2023_Mar_14_1943,SpeechDraft1Carolyn_lessNoise_PlusLocalization,2021.2.3,59.98614956048121,
weep.wav,weep.mpg,weep,2,A,Pink_Noise_2_1.wav,Pink_Noise_2_2.wav,,,,,,,,,,,,,,,0,95,95,40,,,,,,,,,,,,,,,,,,,,,,,766.3637630378362,None,767.8634135308675,None,769.2470497188624,None,weep,769.2470497188624,None,return,2.0595775691326708,769.3304103519768,None,,,,,,,,,,,,,,,,,,,,,,,,,,,,,,,,,55,001,2023_Mar_14_1943,SpeechDraft1Carolyn_lessNoise_PlusLocalization,2021.2.3,59.98614956048121,
brisk.wav,brisk.mpg,brisk,6,A,Pink_Noise_6_1.wav,Pink_Noise_6_2.wav,,,,,,,,,,,,,,,0,96,96,57,,,,,,,,,,,,,,,,,,,,,,,771.4136833499651,None,772.9301615599543,None,774.3137866698671,None,,774.3137866698671,None,return,0.649041528115049,774.3970386830624,None,,,,,,,,,,,,,,,,,,,,,,,,,,,,,,,,,55,001,2023_Mar_14_1943,SpeechDraft1Carolyn_lessNoise_PlusLocalization,2021.2.3,59.98614956048121,
choir.wav,choir.mpg,choir,6,AV,Pink_Noise_6_1.wav,Pink_Noise_6_2.wav,,,,,,,,,,,,,,,0,97,97,69,,,,,,,,,,,,,,,,,,,,,,,775.0642315789592,None,776.5648108769674,None,777.9470577698667,None,worm,777.9470577698667,None,return,5.23899308918044,778.0470651199576,None,,,,,,,,,,,,,,,,,,,,,,,,,,,,,,,,,55,001,2023_Mar_14_1943,SpeechDraft1Carolyn_lessNoise_PlusLocalization,2021.2.3,59.98614956048121,
beer.wav,beer.mpg,beer,5,A,Pink_Noise_5_1.wav,Pink_Noise_5_2.wav,,,,,,,,,,,,,,,0,98,98,7,,,,,,,,,,,,,,,,,,,,,,,783.3136696668807,None,784.8301005100366,None,786.213703477988,None,yield,786.213703477988,None,return,3.820836784085259,786.2971522868611,None,,,,,,,,,,,,,,,,,,,,,,,,,,,,,,,,,55,001,2023_Mar_14_1943,SpeechDraft1Carolyn_lessNoise_PlusLocalization,2021.2.3,59.98614956048121,
bare.wav,bare.mpg,bare,6,AV,Pink_Noise_6_1.wav,Pink_Noise_6_2.wav,,,,,,,,,,,,,,,0,99,99,84,,,,,,,,,,,,,,,,,,,,,,,790.1470425568987,None,791.6483311180491,None,793.030257493956,None,"blur
",793.030257493956,None,return,8.652205082122236,793.1137808589265,None,,,,,,,,,,,,,,,,,,,,,,,,,,,,,,,,,55,001,2023_Mar_14_1943,SpeechDraft1Carolyn_lessNoise_PlusLocalization,2021.2.3,59.98614956048121,
drain.wav,drain.mpg,drain,1,AV,Pink_Noise_1_1.wav,Pink_Noise_1_2.wav,,,,,,,,,,,,,,,0,100,100,81,,,,,,,,,,,,,,,,,,,,,,,801.7971113650128,None,803.3135703308508,None,804.6969365640543,None,drain,804.6969365640543,None,return,3.377678464865312,804.7803553619888,None,,,,,,,,,,,,,,,,,,,,,,,,,,,,,,,,,55,001,2023_Mar_14_1943,SpeechDraft1Carolyn_lessNoise_PlusLocalization,2021.2.3,59.98614956048121,
grim.wav,grim.mpg,grim,5,AV,Pink_Noise_5_1.wav,Pink_Noise_5_2.wav,,,,,,,,,,,,,,,0,101,101,112,,,,,,,,,,,,,,,,,,,,,,,808.1803936150391,None,809.7301208849531,None,811.1137839339208,None,grim,811.1137839339208,None,return,2.688915268983692,811.1971687378827,None,,,,,,,,,,,,,,,,,,,,,,,,,,,,,,,,,55,001,2023_Mar_14_1943,SpeechDraft1Carolyn_lessNoise_PlusLocalization,2021.2.3,59.98614956048121,
clean.wav,clean.mpg,clean,1,AV,Pink_Noise_1_1.wav,Pink_Noise_1_2.wav,,,,,,,,,,,,,,,0,102,102,73,,,,,,,,,,,,,,,,,,,,,,,813.9137811260298,None,815.4302286629099,None,816.8136525698937,None,clean,816.8136525698937,None,return,3.404856710927561,816.8971196508501,None,,,,,,,,,,,,,,,,,,,,,,,,,,,,,,,,,55,001,2023_Mar_14_1943,SpeechDraft1Carolyn_lessNoise_PlusLocalization,2021.2.3,59.98614956048121,
fly.wav,fly.mpg,fly,1,AV,Pink_Noise_1_1.wav,Pink_Noise_1_2.wav,,,,,,,,,,,,,,,0,103,103,60,,,,,,,,,,,,,,,,,,,,,,,820.3305264089722,None,821.8305434768554,None,823.2139983309899,None,fly,823.2139983309899,None,return,2.8208539970219135,823.2971255888697,None,,,,,,,,,,,,,,,,,,,,,,,,,,,,,,,,,55,001,2023_Mar_14_1943,SpeechDraft1Carolyn_lessNoise_PlusLocalization,2021.2.3,59.98614956048121,
dock.wav,dock.mpg,dock,4,AV,Pink_Noise_4_1.wav,Pink_Noise_4_2.wav,,,,,,,,,,,,,,,0,104,104,87,,,,,,,,,,,,,,,,,,,,,,,826.1470470868517,None,827.6635924209841,None,829.0469408819918,None,duck,829.0469408819918,None,return,3.1874742170330137,829.130502254935,None,,,,,,,,,,,,,,,,,,,,,,,,,,,,,,,,,55,001,2023_Mar_14_1943,SpeechDraft1Carolyn_lessNoise_PlusLocalization,2021.2.3,59.98614956048121,
brown.wav,brown.mpg,brown,4,AV,Pink_Noise_4_1.wav,Pink_Noise_4_2.wav,,,,,,,,,,,,,,,0,105,105,74,,,,,,,,,,,,,,,,,,,,,,,832.3471893998794,None,833.8636640468612,None,835.2470198718365,None,prowl,835.2470198718365,None,return,3.531590534839779,835.330473953858,None,,,,,,,,,,,,,,,,,,,,,,,,,,,,,,,,,55,001,2023_Mar_14_1943,SpeechDraft1Carolyn_lessNoise_PlusLocalization,2021.2.3,59.98614956048121,
fan.wav,fan.mpg,fan,1,A,Pink_Noise_1_1.wav,Pink_Noise_1_2.wav,,,,,,,,,,,,,,,0,106,106,10,,,,,,,,,,,,,,,,,,,,,,,838.8805065150373,None,840.3970299570356,None,841.7804820828605,None,"fan
",841.7804820828605,None,return,1.7181164061184973,841.8638715539128,None,,,,,,,,,,,,,,,,,,,,,,,,,,,,,,,,,55,001,2023_Mar_14_1943,SpeechDraft1Carolyn_lessNoise_PlusLocalization,2021.2.3,59.98614956048121,
carve.wav,carve.mpg,carve,4,A,Pink_Noise_4_1.wav,Pink_Noise_4_2.wav,,,,,,,,,,,,,,,0,107,107,34,,,,,,,,,,,,,,,,,,,,,,,843.6138810859993,None,845.1301882858388,None,846.5137680000626,None,"tarp
",846.5137680000626,None,return,2.800919330911711,846.5971851670183,None,,,,,,,,,,,,,,,,,,,,,,,,,,,,,,,,,55,001,2023_Mar_14_1943,SpeechDraft1Carolyn_lessNoise_PlusLocalization,2021.2.3,59.98614956048121,
cape.wav,cape.mpg,cape,4,AV,Pink_Noise_4_1.wav,Pink_Noise_4_2.wav,,,,,,,,,,,,,,,0,108,108,67,,,,,,,,,,,,,,,,,,,,,,,849.430514463922,None,850.9468900219072,None,852.3303554728627,None,cape,852.3303554728627,None,return,2.7282424201257527,852.4137467518449,None,,,,,,,,,,,,,,,,,,,,,,,,,,,,,,,,,55,001,2023_Mar_14_1943,SpeechDraft1Carolyn_lessNoise_PlusLocalization,2021.2.3,59.98614956048121,
sue.wav,sue.mpg,sue,5,A,Pink_Noise_5_1.wav,Pink_Noise_5_2.wav,,,,,,,,,,,,,,,0,109,109,42,,,,,,,,,,,,,,,,,,,,,,,855.1638061699923,None,856.6805089928675,None,858.0638788340148,None,"stoop
",858.0638788340148,None,return,2.4346325979568064,858.1473443680443,None,,,,,,,,,,,,,,,,,,,,,,,,,,,,,,,,,55,001,2023_Mar_14_1943,SpeechDraft1Carolyn_lessNoise_PlusLocalization,2021.2.3,59.98614956048121,
dread.wav,dread.mpg,dread,6,AV,Pink_Noise_6_1.wav,Pink_Noise_6_2.wav,,,,,,,,,,,,,,,0,110,110,86,,,,,,,,,,,,,,,,,,,,,,,860.6138553710189,None,862.1301991208456,None,863.5136976959184,None,dread,863.5136976959184,None,return,4.080834033899009,863.5971540850587,None,,,,,,,,,,,,,,,,,,,,,,,,,,,,,,,,,55,001,2023_Mar_14_1943,SpeechDraft1Carolyn_lessNoise_PlusLocalization,2021.2.3,59.98614956048121,
jam.wav,jam.mpg,jam,4,A,Pink_Noise_4_1.wav,Pink_Noise_4_2.wav,,,,,,,,,,,,,,,0,111,111,49,,,,,,,,,,,,,,,,,,,,,,,867.6971420098562,None,869.2135116769932,None,870.5971157590393,None,"jail
",870.5971157590393,None,return,2.2854149711783975,870.6805649260059,None,,,,,,,,,,,,,,,,,,,,,,,,,,,,,,,,,55,001,2023_Mar_14_1943,SpeechDraft1Carolyn_lessNoise_PlusLocalization,2021.2.3,59.98614956048121,
crisp.wav,crisp.mpg,crisp,4,A,Pink_Noise_4_1.wav,Pink_Noise_4_2.wav,,,,,,,,,,,,,,,0,112,112,56,,,,,,,,,,,,,,,,,,,,,,,872.9972205099184,None,874.5135784288868,None,875.8971938518807,None,crisp,875.8971938518807,None,return,2.977371694985777,875.9805830549449,None,,,,,,,,,,,,,,,,,,,,,,,,,,,,,,,,,55,001,2023_Mar_14_1943,SpeechDraft1Carolyn_lessNoise_PlusLocalization,2021.2.3,59.98614956048121,
live.wav,live.mpg,live,1,A,Pink_Noise_1_1.wav,Pink_Noise_1_2.wav,,,,,,,,,,,,,,,0,113,113,28,,,,,,,,,,,,,,,,,,,,,,,878.9805559560191,None,880.496888415888,None,881.880579842953,None,live,881.880579842953,None,return,1.9222675119526684,881.9638424238656,None,,,,,,,,,,,,,,,,,,,,,,,,,,,,,,,,,55,001,2023_Mar_14_1943,SpeechDraft1Carolyn_lessNoise_PlusLocalization,2021.2.3,59.98614956048121,
chick.wav,chick.mpg,chick,5,AV,Pink_Noise_5_1.wav,Pink_Noise_5_2.wav,,,,,,,,,,,,,,,0,114,114,68,,,,,,,,,,,,,,,,,,,,,,,883.9139671409503,None,885.4303836729378,None,886.8138160170056,None,chick,886.8138160170056,None,return,2.9568274889606982,886.8972579790279,None,,,,,,,,,,,,,,,,,,,,,,,,,,,,,,,,,55,001,2023_Mar_14_1943,SpeechDraft1Carolyn_lessNoise_PlusLocalization,2021.2.3,59.98614956048121,
coast.wav,coast.mpg,coast,2,AV,Pink_Noise_2_1.wav,Pink_Noise_2_2.wav,,,,,,,,,,,,,,,0,115,115,105,,,,,,,,,,,,,,,,,,,,,,,889.8805010288488,None,891.3970738758799,None,892.7805251418613,None,coast,892.7805251418613,None,return,2.094161819200963,892.863813071046,None,,,,,,,,,,,,,,,,,,,,,,,,,,,,,,,,,55,001,2023_Mar_14_1943,SpeechDraft1Carolyn_lessNoise_PlusLocalization,2021.2.3,59.98614956048121,
chat.wav,chat.mpg,chat,5,A,Pink_Noise_5_1.wav,Pink_Noise_5_2.wav,,,,,,,,,,,,,,,0,116,116,8,,,,,,,,,,,,,,,,,,,,,,,894.9805255238898,None,896.4970203489065,None,897.8639368170407,None,chat,897.8639368170407,None,return,2.2908641800750047,897.9471802068874,None,,,,,,,,,,,,,,,,,,,,,,,,,,,,,,,,,55,001,2023_Mar_14_1943,SpeechDraft1Carolyn_lessNoise_PlusLocalization,2021.2.3,59.98614956048121,
ban.wav,ban.mpg,ban,2,A,Pink_Noise_2_1.wav,Pink_Noise_2_2.wav,,,,,,,,,,,,,,,0,117,117,26,,,,,,,,,,,,,,,,,,,,,,,900.2639386008959,None,901.7802563358564,None,903.1639264980331,None,ban,903.1639264980331,None,return,3.3746673529967666,903.2472970779054,None,,,,,,,,,,,,,,,,,,,,,,,,,,,,,,,,,55,001,2023_Mar_14_1943,SpeechDraft1Carolyn_lessNoise_PlusLocalization,2021.2.3,59.98614956048121,
grown.wav,grown.mpg,grown,4,A,Pink_Noise_4_1.wav,Pink_Noise_4_2.wav,,,,,,,,,,,,,,,0,118,118,0,,,,,,,,,,,,,,,,,,,,,,,906.6472980768885,None,908.1637035489548,None,909.5471783450339,None,road,909.5471783450339,None,return,2.4874509789515287,909.6305353639182,None,,,,,,,,,,,,,,,,,,,,,,,,,,,,,,,,,55,001,2023_Mar_14_1943,SpeechDraft1Carolyn_lessNoise_PlusLocalization,2021.2.3,59.98614956048121,
vest.wav,vest.mpg,vest,2,AV,Pink_Noise_2_1.wav,Pink_Noise_2_2.wav,,,,,,,,,,,,,,,0,119,119,61,,,,,,,,,,,,,,,,,,,,,,,912.1472799419425,None,913.6636186649557,None,915.0470989069436,None,fest,915.0470989069436,None,return,2.3874756798613816,915.1305015198886,None,,,,,,,,,,,,,,,,,,,,,,,,,,,,,,,,,55,001,2023_Mar_14_1943,SpeechDraft1Carolyn_lessNoise_PlusLocalization,2021.2.3,59.98614956048121,
,,,,,,,,,,,,,,,,,,,,,,,,,,,,,,,,,,,,,,,,,,,,,,,,,,,,,,,,,,,,,,,,,,space,32.82344490918331,917.6305665350519,None,,,,,,,,,,,,,,,,,,,,,,,55,001,2023_Mar_14_1943,SpeechDraft1Carolyn_lessNoise_PlusLocalization,2021.2.3,59.98614956048121,
,,,,,,,,center,0.0,6,ch1Sound_localizationTask.wav,0.0,"(952, 878)","(-8,-202)",0,-338,,,,,,,,,0,0,0,3,,,,,,,,,,,,,,,,,,,,,,,,,,,,,,,,,,,,,,,,,,917.6305665350519,None,950.4970406179782,None,951.6136853299104,None,952.5304495289456,None,1.2793650793650793,11.202461211010814,952.5304495289456,None,,,,,,,,,,,55,001,2023_Mar_14_1943,SpeechDraft1Carolyn_lessNoise_PlusLocalization,2021.2.3,59.98614956048121,
,,,,,,,,nearRight,6.5,0,ch1Sound_localizationTask.wav,6.5,"(1047, 878)","(87, -202)",95,-338,,,,,,,,,0,1,1,4,,,,,,,,,,,,,,,,,,,,,,,,,,,,,,,,,,,,,,,,,,,,963.7313650290016,None,964.8304394669831,None,965.7637370410375,None,1.6026455026455027,2.4838560961652547,965.7637370410375,None,,,,,,,,,,,55,001,2023_Mar_14_1943,SpeechDraft1Carolyn_lessNoise_PlusLocalization,2021.2.3,59.98614956048121,
,,,,,,,,midRight,13.0,3,ch1Sound_localizationTask.wav,13.0,"(1142, 878)","(182, -202)",190,-338,,,,,,,,,0,2,2,5,,,,,,,,,,,,,,,,,,,,,,,,,,,,,,,,,,,,,,,,,,,,968.2479960068595,None,969.3469618039671,None,970.2803269959986,None,1.66984126984127,1.2511422759853303,970.2803269959986,None,,,,,,,,,,,55,001,2023_Mar_14_1943,SpeechDraft1Carolyn_lessNoise_PlusLocalization,2021.2.3,59.98614956048121,
,,,,,,,,farRight,19.1,4,ch1Sound_localizationTask.wav,19.1,"(1237, 878)","(277,-202)",285,-338,,,,,,,,,0,3,3,6,,,,,,,,,,,,,,,,,,,,,,,,,,,,,,,,,,,,,,,,,,,,971.5472796410322,None,972.6471278979443,None,973.5804231849033,None,1.783068783068783,2.716591231059283,973.5804231849033,None,,,,,,,,,,,55,001,2023_Mar_14_1943,SpeechDraft1Carolyn_lessNoise_PlusLocalization,2021.2.3,59.98614956048121,
,,,,,,,,farRight,19.1,4,ch1Sound_localizationTask.wav,19.1,"(1237, 878)","(277,-202)",285,-338,,,,,,,,,0,4,4,6,,,,,,,,,,,,,,,,,,,,,,,,,,,,,,,,,,,,,,,,,,,,976.2974145519547,None,977.3969441510271,None,978.3304175499361,None,1.8285714285714285,2.917186831124127,978.3304175499361,None,,,,,,,,,,,55,001,2023_Mar_14_1943,SpeechDraft1Carolyn_lessNoise_PlusLocalization,2021.2.3,59.98614956048121,
,,,,,,,,farLeft,-19.1,5,ch1Sound_localizationTask.wav,-19.1,"(667, 878)","(-293,-202)",-285,-338,,,,,,,,,0,5,5,0,,,,,,,,,,,,,,,,,,,,,,,,,,,,,,,,,,,,,,,,,,,,981.2479528458789,None,982.3471032250673,None,983.2802702069748,None,1.216931216931217,2.3159544710069895,983.2802702069748,None,,,,,,,,,,,55,001,2023_Mar_14_1943,SpeechDraft1Carolyn_lessNoise_PlusLocalization,2021.2.3,59.98614956048121,
,,,,,,,,midRight,13.0,3,ch1Sound_localizationTask.wav,13.0,"(1142, 878)","(182, -202)",190,-338,,,,,,,,,0,6,6,5,,,,,,,,,,,,,,,,,,,,,,,,,,,,,,,,,,,,,,,,,,,,985.5975862338673,None,986.6972628708463,None,987.6303750940133,None,1.7486772486772486,1.749229877954349,987.6303750940133,None,,,,,,,,,,,55,001,2023_Mar_14_1943,SpeechDraft1Carolyn_lessNoise_PlusLocalization,2021.2.3,59.98614956048121,
,,,,,,,,midRight,13.0,3,ch1Sound_localizationTask.wav,13.0,"(1142, 878)","(182, -202)",190,-338,,,,,,,,,1,0,7,5,,,,,,,,,,,,,,,,,,,,,,,,,,,,,,,,,,,,,,,,,,,,989.3807382129598,None,990.4803773770109,None,991.4136245648842,None,1.633862433862434,1.5492904449347407,991.4136245648842,None,,,,,,,,,,,55,001,2023_Mar_14_1943,SpeechDraft1Carolyn_lessNoise_PlusLocalization,2021.2.3,59.98614956048121,
,,,,,,,,farLeft,-19.1,5,ch1Sound_localizationTask.wav,-19.1,"(667, 878)","(-293,-202)",-285,-338,,,,,,,,,1,1,8,0,,,,,,,,,,,,,,,,,,,,,,,,,,,,,,,,,,,,,,,,,,,,992.9640709368978,None,994.0637163829524,None,994.9970565389376,None,1.2375661375661375,3.233602311927825,994.9970565389376,None,,,,,,,,,,,55,001,2023_Mar_14_1943,SpeechDraft1Carolyn_lessNoise_PlusLocalization,2021.2.3,59.98614956048121,
,,,,,,,,midRight,13.0,3,ch1Sound_localizationTask.wav,13.0,"(1142, 878)","(182, -202)",190,-338,,,,,,,,,1,2,9,5,,,,,,,,,,,,,,,,,,,,,,,,,,,,,,,,,,,,,,,,,,,,998.2309244750068,None,999.3304067410063,None,1000.2637307508849,None,1.644973544973545,1.2006340178195387,1000.2637307508849,None,,,,,,,,,,,55,001,2023_Mar_14_1943,SpeechDraft1Carolyn_lessNoise_PlusLocalization,2021.2.3,59.98614956048121,
,,,,,,,,nearLeft,-6.5,1,ch1Sound_localizationTask.wav,-6.5,"(857, 878)","(-103,-202)",-95,-338,,,,,,,,,1,3,10,2,,,,,,,,,,,,,,,,,,,,,,,,,,,,,,,,,,,,,,,,,,,,1001.464665354928,None,1002.5640817668755,None,1003.4971261960454,None,1.3021164021164022,1.2322845198214054,1003.4971261960454,None,,,,,,,,,,,55,001,2023_Mar_14_1943,SpeechDraft1Carolyn_lessNoise_PlusLocalization,2021.2.3,59.98614956048121,
,,,,,,,,farLeft,-19.1,5,ch1Sound_localizationTask.wav,-19.1,"(667, 878)","(-293,-202)",-285,-338,,,,,,,,,1,4,11,0,,,,,,,,,,,,,,,,,,,,,,,,,,,,,,,,,,,,,,,,,,,,1004.7309701510239,None,1005.8304098069202,None,1006.7637337429915,None,1.165079365079365,1.1493352178949863,1006.7637337429915,None,,,,,,,,,,,55,001,2023_Mar_14_1943,SpeechDraft1Carolyn_lessNoise_PlusLocalization,2021.2.3,59.98614956048121,
,,,,,,,,midRight,13.0,3,ch1Sound_localizationTask.wav,13.0,"(1142, 878)","(182, -202)",190,-338,,,,,,,,,1,5,12,5,,,,,,,,,,,,,,,,,,,,,,,,,,,,,,,,,,,,,,,,,,,,1007.9140513120219,None,1009.0137304759119,None,1009.9472062978894,None,1.6767195767195768,1.4668032920453697,1009.9472062978894,None,,,,,,,,,,,55,001,2023_Mar_14_1943,SpeechDraft1Carolyn_lessNoise_PlusLocalization,2021.2.3,59.98614956048121,
,,,,,,,,nearRight,6.5,0,ch1Sound_localizationTask.wav,6.5,"(1047, 878)","(87, -202)",95,-338,,,,,,,,,1,6,13,4,,,,,,,,,,,,,,,,,,,,,,,,,,,,,,,,,,,,,,,,,,,,1011.4144359340426,None,1012.5138912468683,None,1013.4470843099989,None,1.5026455026455028,1.149020615965128,1013.4470843099989,None,,,,,,,,,,,55,001,2023_Mar_14_1943,SpeechDraft1Carolyn_lessNoise_PlusLocalization,2021.2.3,59.98614956048121,
,,,,,,,,nearRight,6.5,0,ch1Sound_localizationTask.wav,6.5,"(1047, 878)","(87, -202)",95,-338,,,,,,,,,2,0,14,4,,,,,,,,,,,,,,,,,,,,,,,,,,,,,,,,,,,,,,,,,,,,1014.5978906068485,None,1015.6970990959089,None,1016.6306943399832,None,1.5047619047619047,1.0465580951422453,1016.6306943399832,None,,,,,,,,,,,55,001,2023_Mar_14_1943,SpeechDraft1Carolyn_lessNoise_PlusLocalization,2021.2.3,59.98614956048121,
,,,,,,,,center,0.0,6,ch1Sound_localizationTask.wav,0.0,"(952, 878)","(-8,-202)",0,-338,,,,,,,,,2,1,15,3,,,,,,,,,,,,,,,,,,,,,,,,,,,,,,,,,,,,,,,,,,,,1017.6808920728508,None,1018.7805606790353,None,1019.7138430438936,None,1.378835978835979,0.9331128548365086,1019.7138430438936,None,,,,,,,,,,,55,001,2023_Mar_14_1943,SpeechDraft1Carolyn_lessNoise_PlusLocalization,2021.2.3,59.98614956048121,
,,,,,,,,nearLeft,-6.5,1,ch1Sound_localizationTask.wav,-6.5,"(857, 878)","(-103,-202)",-95,-338,,,,,,,,,2,2,16,2,,,,,,,,,,,,,,,,,,,,,,,,,,,,,,,,,,,,,,,,,,,,1020.6478206529282,None,1021.747091834899,None,1022.6804004360456,None,1.3052910052910054,0.7829727039206773,1022.6804004360456,None,,,,,,,,,,,55,001,2023_Mar_14_1943,SpeechDraft1Carolyn_lessNoise_PlusLocalization,2021.2.3,59.98614956048121,
,,,,,,,,farLeft,-19.1,5,ch1Sound_localizationTask.wav,-19.1,"(667, 878)","(-293,-202)",-285,-338,,,,,,,,,2,3,17,0,,,,,,,,,,,,,,,,,,,,,,,,,,,,,,,,,,,,,,,,,,,,1023.4646546910517,None,1024.5638955959585,None,1025.4971291460097,None,1.1592592592592592,1.0661956751719117,1025.4971291460097,None,,,,,,,,,,,55,001,2023_Mar_14_1943,SpeechDraft1Carolyn_lessNoise_PlusLocalization,2021.2.3,59.98614956048121,
,,,,,,,,midLeft,-13.0,2,ch1Sound_localizationTask.wav,-13.0,"(762, 878)","(-198,-202)",-190,-338,,,,,,,,,2,4,18,1,,,,,,,,,,,,,,,,,,,,,,,,,,,,,,,,,,,,,,,,,,,,1026.5644854458515,None,1027.663728771964,None,1028.5971182119101,None,1.229100529100529,0.916527986060828,1028.5971182119101,None,,,,,,,,,,,55,001,2023_Mar_14_1943,SpeechDraft1Carolyn_lessNoise_PlusLocalization,2021.2.3,59.98614956048121,
,,,,,,,,center,0.0,6,ch1Sound_localizationTask.wav,0.0,"(952, 878)","(-8,-202)",0,-338,,,,,,,,,2,5,19,3,,,,,,,,,,,,,,,,,,,,,,,,,,,,,,,,,,,,,,,,,,,,1029.514221466845,None,1030.6137519469485,None,1031.5471347200219,None,1.2724867724867726,0.8672075069043785,1031.5471347200219,None,,,,,,,,,,,55,001,2023_Mar_14_1943,SpeechDraft1Carolyn_lessNoise_PlusLocalization,2021.2.3,59.98614956048121,
,,,,,,,,midLeft,-13.0,2,ch1Sound_localizationTask.wav,-13.0,"(762, 878)","(-198,-202)",-190,-338,,,,,,,,,2,6,20,1,,,,,,,,,,,,,,,,,,,,,,,,,,,,,,,,,,,,,,,,,,,,1032.4307169008534,None,1033.5304526910186,None,1034.4639345589094,None,1.2497354497354498,0.9164575079921633,1034.4639345589094,None,,,,,,,,,,,55,001,2023_Mar_14_1943,SpeechDraft1Carolyn_lessNoise_PlusLocalization,2021.2.3,59.98614956048121,
,,,,,,,,nearRight,6.5,0,ch1Sound_localizationTask.wav,6.5,"(1047, 878)","(87, -202)",95,-338,,,,,,,,,3,0,21,4,,,,,,,,,,,,,,,,,,,,,,,,,,,,,,,,,,,,,,,,,,,,1035.3807906040456,None,1036.480572758941,None,1037.413814267842,None,1.4232804232804233,1.1157127041369677,1037.413814267842,None,,,,,,,,,,,55,001,2023_Mar_14_1943,SpeechDraft1Carolyn_lessNoise_PlusLocalization,2021.2.3,59.98614956048121,
,,,,,,,,farRight,19.1,4,ch1Sound_localizationTask.wav,19.1,"(1237, 878)","(277,-202)",285,-338,,,,,,,,,3,1,22,6,,,,,,,,,,,,,,,,,,,,,,,,,,,,,,,,,,,,,,,,,,,,1038.5307285469025,None,1039.6304053170606,None,1040.5636599608697,None,1.6222222222222222,0.9164096210151911,1040.5636599608697,None,,,,,,,,,,,55,001,2023_Mar_14_1943,SpeechDraft1Carolyn_lessNoise_PlusLocalization,2021.2.3,59.98614956048121,
,,,,,,,,nearRight,6.5,0,ch1Sound_localizationTask.wav,6.5,"(1047, 878)","(87, -202)",95,-338,,,,,,,,,3,2,23,4,,,,,,,,,,,,,,,,,,,,,,,,,,,,,,,,,,,,,,,,,,,,1041.480935985921,None,1042.5804909879807,None,1043.5137658088934,None,1.5174603174603174,0.8485656830016524,1043.5137658088934,None,,,,,,,,,,,55,001,2023_Mar_14_1943,SpeechDraft1Carolyn_lessNoise_PlusLocalization,2021.2.3,59.98614956048121,
,,,,,,,,center,0.0,6,ch1Sound_localizationTask.wav,0.0,"(952, 878)","(-8,-202)",0,-338,,,,,,,,,3,3,24,3,,,,,,,,,,,,,,,,,,,,,,,,,,,,,,,,,,,,,,,,,,,,1044.364138355013,None,1045.4638978298753,None,1046.3971020448953,None,1.4952380952380953,0.8159990950953215,1046.3971020448953,None,,,,,,,,,,,55,001,2023_Mar_14_1943,SpeechDraft1Carolyn_lessNoise_PlusLocalization,2021.2.3,59.98614956048121,
,,,,,,,,farRight,19.1,4,ch1Sound_localizationTask.wav,19.1,"(1237, 878)","(277,-202)",285,-338,,,,,,,,,3,4,25,6,,,,,,,,,,,,,,,,,,,,,,,,,,,,,,,,,,,,,,,,,,,,1047.214186365949,None,1048.3138900778722,None,1049.2471118839458,None,1.5936507936507938,0.8673033150844276,1049.2471118839458,None,,,,,,,,,,,55,001,2023_Mar_14_1943,SpeechDraft1Carolyn_lessNoise_PlusLocalization,2021.2.3,59.98614956048121,
,,,,,,,,midRight,13.0,3,ch1Sound_localizationTask.wav,13.0,"(1142, 878)","(182, -202)",190,-338,,,,,,,,,3,5,26,5,,,,,,,,,,,,,,,,,,,,,,,,,,,,,,,,,,,,,,,,,,,,1050.1307225739583,None,1051.2303356139455,None,1052.1638084009755,None,1.5952380952380953,0.6664936731103808,1052.1638084009755,None,,,,,,,,,,,55,001,2023_Mar_14_1943,SpeechDraft1Carolyn_lessNoise_PlusLocalization,2021.2.3,59.98614956048121,
,,,,,,,,farRight,19.1,4,ch1Sound_localizationTask.wav,19.1,"(1237, 878)","(277,-202)",285,-338,,,,,,,,,3,6,27,6,,,,,,,,,,,,,,,,,,,,,,,,,,,,,,,,,,,,,,,,,,,,1052.8311318750493,None,1053.9306036860216,None,1054.8637932550628,None,1.6582010582010582,1.11565544991754,1054.8637932550628,None,,,,,,,,,,,55,001,2023_Mar_14_1943,SpeechDraft1Carolyn_lessNoise_PlusLocalization,2021.2.3,59.98614956048121,
,,,,,,,,nearLeft,-6.5,1,ch1Sound_localizationTask.wav,-6.5,"(857, 878)","(-103,-202)",-95,-338,,,,,,,,,4,0,28,2,,,,,,,,,,,,,,,,,,,,,,,,,,,,,,,,,,,,,,,,,,,,1055.980921309907,None,1057.0804897588678,None,1058.0137969770003,None,1.2502645502645502,0.983329770155251,1058.0137969770003,None,,,,,,,,,,,55,001,2023_Mar_14_1943,SpeechDraft1Carolyn_lessNoise_PlusLocalization,2021.2.3,59.98614956048121,
,,,,,,,,farLeft,-19.1,5,ch1Sound_localizationTask.wav,-19.1,"(667, 878)","(-293,-202)",-285,-338,,,,,,,,,4,1,29,0,,,,,,,,,,,,,,,,,,,,,,,,,,,,,,,,,,,,,,,,,,,,1058.9977083508857,None,1060.0970492449123,None,1061.0304923469666,None,1.1365079365079365,0.7655163789168,1061.0304923469666,None,,,,,,,,,,,55,001,2023_Mar_14_1943,SpeechDraft1Carolyn_lessNoise_PlusLocalization,2021.2.3,59.98614956048121,
,,,,,,,,midLeft,-13.0,2,ch1Sound_localizationTask.wav,-13.0,"(762, 878)","(-198,-202)",-190,-338,,,,,,,,,4,2,30,1,,,,,,,,,,,,,,,,,,,,,,,,,,,,,,,,,,,,,,,,,,,,1061.7975098229945,None,1062.8972900439985,None,1063.8306079639588,None,1.3232804232804232,1.067130575189367,1063.8306079639588,None,,,,,,,,,,,55,001,2023_Mar_14_1943,SpeechDraft1Carolyn_lessNoise_PlusLocalization,2021.2.3,59.98614956048121,
,,,,,,,,nearRight,6.5,0,ch1Sound_localizationTask.wav,6.5,"(1047, 878)","(87, -202)",95,-338,,,,,,,,,4,3,31,4,,,,,,,,,,,,,,,,,,,,,,,,,,,,,,,,,,,,,,,,,,,,1064.914176790975,None,1066.013900430873,None,1066.9473046779167,None,1.4973544973544972,1.0994519719388336,1066.9473046779167,None,,,,,,,,,,,55,001,2023_Mar_14_1943,SpeechDraft1Carolyn_lessNoise_PlusLocalization,2021.2.3,59.98614956048121,
,,,,,,,,farRight,19.1,4,ch1Sound_localizationTask.wav,19.1,"(1237, 878)","(277,-202)",285,-338,,,,,,,,,4,4,32,6,,,,,,,,,,,,,,,,,,,,,,,,,,,,,,,,,,,,,,,,,,,,1068.0643454010133,None,1069.16382071306,None,1070.0971844729502,None,1.751851851851852,0.9495576820336282,1070.0971844729502,None,,,,,,,,,,,55,001,2023_Mar_14_1943,SpeechDraft1Carolyn_lessNoise_PlusLocalization,2021.2.3,59.98614956048121,
,,,,,,,,midLeft,-13.0,2,ch1Sound_localizationTask.wav,-13.0,"(762, 878)","(-198,-202)",-190,-338,,,,,,,,,4,5,33,1,,,,,,,,,,,,,,,,,,,,,,,,,,,,,,,,,,,,,,,,,,,,1071.048055713065,None,1072.1472240570001,None,1073.0807192679495,None,1.3417989417989418,1.0327482370194048,1073.0807192679495,None,,,,,,,,,,,55,001,2023_Mar_14_1943,SpeechDraft1Carolyn_lessNoise_PlusLocalization,2021.2.3,59.98614956048121,
,,,,,,,,farLeft,-19.1,5,ch1Sound_localizationTask.wav,-19.1,"(667, 878)","(-293,-202)",-285,-338,,,,,,,,,4,6,34,0,,,,,,,,,,,,,,,,,,,,,,,,,,,,,,,,,,,,,,,,,,,,1074.1144136770163,None,1075.2138145428617,None,1076.1472919508815,None,1.2740740740740741,0.7998599561396986,1076.1472919508815,None,,,,,,,,,,,55,001,2023_Mar_14_1943,SpeechDraft1Carolyn_lessNoise_PlusLocalization,2021.2.3,59.98614956048121,
,,,,,,,,farRight,19.1,4,ch1Sound_localizationTask.wav,19.1,"(1237, 878)","(277,-202)",285,-338,,,,,,,,,5,0,35,6,,,,,,,,,,,,,,,,,,,,,,,,,,,,,,,,,,,,,,,,,,,,1076.9476251008455,None,1078.0472053489648,None,1078.9805051540025,None,1.6523809523809523,0.8830865989439189,1078.9805051540025,None,,,,,,,,,,,55,001,2023_Mar_14_1943,SpeechDraft1Carolyn_lessNoise_PlusLocalization,2021.2.3,59.98614956048121,
,,,,,,,,nearLeft,-6.5,1,ch1Sound_localizationTask.wav,-6.5,"(857, 878)","(-103,-202)",-95,-338,,,,,,,,,5,1,36,2,,,,,,,,,,,,,,,,,,,,,,,,,,,,,,,,,,,,,,,,,,,,1079.864498074865,None,1080.9639380278531,None,1081.89729033201,None,1.378835978835979,1.0156258658971637,1081.89729033201,None,,,,,,,,,,,55,001,2023_Mar_14_1943,SpeechDraft1Carolyn_lessNoise_PlusLocalization,2021.2.3,59.98614956048121,
,,,,,,,,nearRight,6.5,0,ch1Sound_localizationTask.wav,6.5,"(1047, 878)","(87, -202)",95,-338,,,,,,,,,5,2,37,4,,,,,,,,,,,,,,,,,,,,,,,,,,,,,,,,,,,,,,,,,,,,1082.9140629980247,None,1084.0138756730594,None,1084.9471715218388,None,1.5005291005291004,0.9329426970798522,1084.9471715218388,None,,,,,,,,,,,55,001,2023_Mar_14_1943,SpeechDraft1Carolyn_lessNoise_PlusLocalization,2021.2.3,59.98614956048121,
,,,,,,,,center,0.0,6,ch1Sound_localizationTask.wav,0.0,"(952, 878)","(-8,-202)",0,-338,,,,,,,,,5,3,38,3,,,,,,,,,,,,,,,,,,,,,,,,,,,,,,,,,,,,,,,,,,,,1085.8812296618707,None,1086.9805937029887,None,1087.9138050070032,None,1.4010582010582011,0.6487847119569778,1087.9138050070032,None,,,,,,,,,,,55,001,2023_Mar_14_1943,SpeechDraft1Carolyn_lessNoise_PlusLocalization,2021.2.3,59.98614956048121,
,,,,,,,,nearLeft,-6.5,1,ch1Sound_localizationTask.wav,-6.5,"(857, 878)","(-103,-202)",-95,-338,,,,,,,,,5,4,39,2,,,,,,,,,,,,,,,,,,,,,,,,,,,,,,,,,,,,,,,,,,,,1088.5641574228648,None,1089.6639278898947,None,1090.5970937388483,None,1.3656084656084655,0.7830683249048889,1090.5970937388483,None,,,,,,,,,,,55,001,2023_Mar_14_1943,SpeechDraft1Carolyn_lessNoise_PlusLocalization,2021.2.3,59.98614956048121,
,,,,,,,,nearLeft,-6.5,1,ch1Sound_localizationTask.wav,-6.5,"(857, 878)","(-103,-202)",-95,-338,,,,,,,,,5,5,40,2,,,,,,,,,,,,,,,,,,,,,,,,,,,,,,,,,,,,,,,,,,,,1091.3816480520181,None,1092.4805455468595,None,1093.413832479855,None,1.284126984126984,0.8175927479751408,1093.413832479855,None,,,,,,,,,,,55,001,2023_Mar_14_1943,SpeechDraft1Carolyn_lessNoise_PlusLocalization,2021.2.3,59.98614956048121,
,,,,,,,,midRight,13.0,3,ch1Sound_localizationTask.wav,13.0,"(1142, 878)","(182, -202)",190,-338,,,,,,,,,5,6,41,5,,,,,,,,,,,,,,,,,,,,,,,,,,,,,,,,,,,,,,,,,,,,1094.2474612840451,None,1095.3472223498393,None,1096.2806197588798,None,1.5513227513227514,0.782650418812409,1096.2806197588798,None,,,,,,,,,,,55,001,2023_Mar_14_1943,SpeechDraft1Carolyn_lessNoise_PlusLocalization,2021.2.3,59.98614956048121,
,,,,,,,,farLeft,-19.1,5,ch1Sound_localizationTask.wav,-19.1,"(667, 878)","(-293,-202)",-285,-338,,,,,,,,,6,0,42,0,,,,,,,,,,,,,,,,,,,,,,,,,,,,,,,,,,,,,,,,,,,,1097.0646706009284,None,1098.1638909629546,None,1099.097154209856,None,1.276190476190476,1.0824921810999513,1099.097154209856,None,,,,,,,,,,,55,001,2023_Mar_14_1943,SpeechDraft1Carolyn_lessNoise_PlusLocalization,2021.2.3,59.98614956048121,
,,,,,,,,nearLeft,-6.5,1,ch1Sound_localizationTask.wav,-6.5,"(857, 878)","(-103,-202)",-95,-338,,,,,,,,,6,1,43,2,,,,,,,,,,,,,,,,,,,,,,,,,,,,,,,,,,,,,,,,,,,,1100.1808988589328,None,1101.2805548219476,None,1102.213834883878,None,1.3333333333333333,1.0165431580971926,1102.213834883878,None,,,,,,,,,,,55,001,2023_Mar_14_1943,SpeechDraft1Carolyn_lessNoise_PlusLocalization,2021.2.3,59.98614956048121,
,,,,,,,,farRight,19.1,4,ch1Sound_localizationTask.wav,19.1,"(1237, 878)","(277,-202)",285,-338,,,,,,,,,6,2,44,6,,,,,,,,,,,,,,,,,,,,,,,,,,,,,,,,,,,,,,,,,,,,1103.2317968639545,None,1104.3306621720549,None,1105.2639532689936,None,1.5777777777777777,1.0333582058083266,1105.2639532689936,None,,,,,,,,,,,55,001,2023_Mar_14_1943,SpeechDraft1Carolyn_lessNoise_PlusLocalization,2021.2.3,59.98614956048121,
,,,,,,,,midLeft,-13.0,2,ch1Sound_localizationTask.wav,-13.0,"(762, 878)","(-198,-202)",-190,-338,,,,,,,,,6,3,45,1,,,,,,,,,,,,,,,,,,,,,,,,,,,,,,,,,,,,,,,,,,,,1106.314356907038,None,1107.4138638889417,None,1108.347230246989,None,1.306878306878307,0.9491416939999908,1108.347230246989,None,,,,,,,,,,,55,001,2023_Mar_14_1943,SpeechDraft1Carolyn_lessNoise_PlusLocalization,2021.2.3,59.98614956048121,
,,,,,,,,nearRight,6.5,0,ch1Sound_localizationTask.wav,6.5,"(1047, 878)","(87, -202)",95,-338,,,,,,,,,6,4,46,4,,,,,,,,,,,,,,,,,,,,,,,,,,,,,,,,,,,,,,,,,,,,1109.2976377459709,None,1110.3971703278366,None,1111.3305710288696,None,1.5476190476190477,1.1821174011565745,1111.3305710288696,None,,,,,,,,,,,55,001,2023_Mar_14_1943,SpeechDraft1Carolyn_lessNoise_PlusLocalization,2021.2.3,59.98614956048121,
,,,,,,,,nearLeft,-6.5,1,ch1Sound_localizationTask.wav,-6.5,"(857, 878)","(-103,-202)",-95,-338,,,,,,,,,6,5,47,2,,,,,,,,,,,,,,,,,,,,,,,,,,,,,,,,,,,,,,,,,,,,1112.514233982889,None,1113.61398700485,None,1114.5472522589844,None,1.3375661375661376,1.400023294147104,1114.5472522589844,None,,,,,,,,,,,55,001,2023_Mar_14_1943,SpeechDraft1Carolyn_lessNoise_PlusLocalization,2021.2.3,59.98614956048121,
,,,,,,,,center,0.0,6,ch1Sound_localizationTask.wav,0.0,"(952, 878)","(-8,-202)",0,-338,,,,,,,,,6,6,48,3,,,,,,,,,,,,,,,,,,,,,,,,,,,,,,,,,,,,,,,,,,,,1115.9478623808827,None,1117.047240742948,None,1117.980512212962,None,1.3793650793650793,0.8168724540155381,1117.980512212962,None,,,,,,,,,,,55,001,2023_Mar_14_1943,SpeechDraft1Carolyn_lessNoise_PlusLocalization,2021.2.3,59.98614956048121,
,,,,,,,,farLeft,-19.1,5,ch1Sound_localizationTask.wav,-19.1,"(667, 878)","(-293,-202)",-285,-338,,,,,,,,,7,0,49,0,,,,,,,,,,,,,,,,,,,,,,,,,,,,,,,,,,,,,,,,,,,,1118.7982075228356,None,1119.8972856160253,None,1120.8306106659584,None,1.253968253968254,0.7323321290314198,1120.8306106659584,None,,,,,,,,,,,55,001,2023_Mar_14_1943,SpeechDraft1Carolyn_lessNoise_PlusLocalization,2021.2.3,59.98614956048121,
,,,,,,,,midRight,13.0,3,ch1Sound_localizationTask.wav,13.0,"(1142, 878)","(182, -202)",190,-338,,,,,,,,,7,1,50,5,,,,,,,,,,,,,,,,,,,,,,,,,,,,,,,,,,,,,,,,,,,,1121.5641342918389,None,1122.6638855880592,None,1123.597179442877,None,1.53015873015873,0.9324914989992976,1123.597179442877,None,,,,,,,,,,,55,001,2023_Mar_14_1943,SpeechDraft1Carolyn_lessNoise_PlusLocalization,2021.2.3,59.98614956048121,
,,,,,,,,midLeft,-13.0,2,ch1Sound_localizationTask.wav,-13.0,"(762, 878)","(-198,-202)",-190,-338,,,,,,,,,7,2,51,1,,,,,,,,,,,,,,,,,,,,,,,,,,,,,,,,,,,,,,,,,,,,1124.531468049856,None,1125.6309532078449,None,1126.563927117968,None,1.3243386243386244,0.9331480700057,1126.563927117968,None,,,,,,,,,,,55,001,2023_Mar_14_1943,SpeechDraft1Carolyn_lessNoise_PlusLocalization,2021.2.3,59.98614956048121,
,,,,,,,,midLeft,-13.0,2,ch1Sound_localizationTask.wav,-13.0,"(762, 878)","(-198,-202)",-190,-338,,,,,,,,,7,3,52,1,,,,,,,,,,,,,,,,,,,,,,,,,,,,,,,,,,,,,,,,,,,,1127.5142712120432,None,1128.6139969958458,None,1129.5472570308484,None,1.2571428571428571,0.8488545319996774,1129.5472570308484,None,,,,,,,,,,,55,001,2023_Mar_14_1943,SpeechDraft1Carolyn_lessNoise_PlusLocalization,2021.2.3,59.98614956048121,
,,,,,,,,midLeft,-13.0,2,ch1Sound_localizationTask.wav,-13.0,"(762, 878)","(-198,-202)",-190,-338,,,,,,,,,7,4,53,1,,,,,,,,,,,,,,,,,,,,,,,,,,,,,,,,,,,,,,,,,,,,1130.397744341055,None,1131.4976195748895,None,1132.4304689988494,None,1.2,0.8661635580938309,1132.4304689988494,None,,,,,,,,,,,55,001,2023_Mar_14_1943,SpeechDraft1Carolyn_lessNoise_PlusLocalization,2021.2.3,59.98614956048121,
,,,,,,,,center,0.0,6,ch1Sound_localizationTask.wav,0.0,"(952, 878)","(-8,-202)",0,-338,,,,,,,,,7,5,54,3,,,,,,,,,,,,,,,,,,,,,,,,,,,,,,,,,,,,,,,,,,,,1133.298386984039,None,1134.3975312809926,None,1135.3306929890532,None,1.3973544973544973,0.9497156080324203,1135.3306929890532,None,,,,,,,,,,,55,001,2023_Mar_14_1943,SpeechDraft1Carolyn_lessNoise_PlusLocalization,2021.2.3,59.98614956048121,
,,,,,,,,center,0.0,6,ch1Sound_localizationTask.wav,0.0,"(952, 878)","(-8,-202)",0,-338,,,,,,,,,7,6,55,3,,,,,,,,,,,,,,,,,,,,,,,,,,,,,,,,,,,,,,,,,,,,1136.2811532539781,None,1137.3806943329982,None,1138.313939054031,None,1.4026455026455027,0.7998510478064418,1138.313939054031,None,,,,,,,,,,,55,001,2023_Mar_14_1943,SpeechDraft1Carolyn_lessNoise_PlusLocalization,2021.2.3,59.98614956048121,
,,,,,,,,,,,,,,,,,,,,,,,,,,,,,,,,,,,,,,,,,,,,,,,,,,,,,,,,,,,,,,,,,,,,,,,,,,,,,,,,,,space,12.248495277017355,1139.1975533468649,None,,,,,,,55,001,2023_Mar_14_1943,SpeechDraft1Carolyn_lessNoise_PlusLocalization,2021.2.3,59.98614956048121,
,,,,,,,,nearLeft,-6.5,1,ch1Sound_localizationTask.wav,-6.5,"(857, 878)","(-103,-202)",-95,-338,,,,,,,,,,,,,0,0,0,2,,,,,,,,,,,,,,,,,,,,,,,,,,,,,,,,,,,,,,,,1151.480708181858,None,,,1154.5139256480616,None,1.4423280423280422,1.619816152844578,1154.5139256480616,None,,,,,1139.1975533468649,None,1152.4809406150598,None,1152.6642870530486,1152.6808901689947,55,001,2023_Mar_14_1943,SpeechDraft1Carolyn_lessNoise_PlusLocalization,2021.2.3,59.98614956048121,
,,,,,,,,nearLeft,-6.5,1,ch1Sound_localizationTask.wav,-6.5,"(857, 878)","(-103,-202)",-95,-338,,,,,,,,,,,,,0,1,1,2,,,,,,,,,,,,,,,,,,,,,,,,,,,,,,,,,,,,,,,,1156.13090133504,None,,,1159.1474142749794,None,1.4650793650793652,0.8998708841390908,1159.1474142749794,None,,,,,,,1157.1308719520457,None,1157.3142266678624,1157.3308618739247,55,001,2023_Mar_14_1943,SpeechDraft1Carolyn_lessNoise_PlusLocalization,2021.2.3,59.98614956048121,
,,,,,,,,midLeft,-13.0,2,ch1Sound_localizationTask.wav,-13.0,"(762, 878)","(-198,-202)",-190,-338,,,,,,,,,,,,,0,2,2,1,,,,,,,,,,,,,,,,,,,,,,,,,,,,,,,,,,,,,,,,1160.0478055558633,None,,,1163.0639471190516,None,1.3624338624338623,0.982961144996807,1163.0639471190516,None,,,,,,,1161.047573594842,None,1161.2309999370482,1161.247628326062,55,001,2023_Mar_14_1943,SpeechDraft1Carolyn_lessNoise_PlusLocalization,2021.2.3,59.98614956048121,
,,,,,,,,nearRight,6.5,0,ch1Sound_localizationTask.wav,6.5,"(1047, 878)","(87, -202)",95,-338,,,,,,,,,,,,,0,3,3,4,,,,,,,,,,,,,,,,,,,,,,,,,,,,,,,,,,,,,,,,1164.0477681029588,None,,,1167.0640401218552,None,1.5492063492063493,1.1321600070223212,1167.0640401218552,None,,,,,,,1165.0476272089873,None,1165.2309974429663,1165.2475225050002,55,001,2023_Mar_14_1943,SpeechDraft1Carolyn_lessNoise_PlusLocalization,2021.2.3,59.98614956048121,
,,,,,,,,midRight,13.0,3,ch1Sound_localizationTask.wav,13.0,"(1142, 878)","(182, -202)",190,-338,,,,,,,,,,,,,0,4,4,5,,,,,,,,,,,,,,,,,,,,,,,,,,,,,,,,,,,,,,,,1168.1983797920402,None,,,1171.2141059448477,None,1.6238095238095238,1.032692362787202,1171.2141059448477,None,,,,,,,1169.19756305404,None,1169.3808295659255,1169.397644274868,55,001,2023_Mar_14_1943,SpeechDraft1Carolyn_lessNoise_PlusLocalization,2021.2.3,59.98614956048121,
,,,,,,,,nearLeft,-6.5,1,ch1Sound_localizationTask.wav,-6.5,"(857, 878)","(-103,-202)",-95,-338,,,,,,,,,,,,,0,5,5,2,,,,,,,,,,,,,,,,,,,,,,,,,,,,,,,,,,,,,,,,1172.2476484309882,None,,,1175.2641941120382,None,1.4613756613756614,0.8816738501191139,1175.2641941120382,None,,,,,,,1173.2476756898686,None,1173.4307882848661,1173.4477079929784,55,001,2023_Mar_14_1943,SpeechDraft1Carolyn_lessNoise_PlusLocalization,2021.2.3,59.98614956048121,
,,,,,,,,farRight,19.1,4,ch1Sound_localizationTask.wav,19.1,"(1237, 878)","(277,-202)",285,-338,,,,,,,,,,,,,0,6,6,6,,,,,,,,,,,,,,,,,,,,,,,,,,,,,,,,,,,,,,,,1176.147667746991,None,,,1179.1639542798512,None,1.6783068783068784,1.2327949551399797,1179.1639542798512,None,,,,,,,1177.1475904330146,None,1177.3309416628908,1177.3476095120423,55,001,2023_Mar_14_1943,SpeechDraft1Carolyn_lessNoise_PlusLocalization,2021.2.3,59.98614956048121,
,,,,,,,,farRight,19.1,4,ch1Sound_localizationTask.wav,19.1,"(1237, 878)","(277,-202)",285,-338,,,,,,,,,,,,,1,0,7,6,,,,,,,,,,,,,,,,,,,,,,,,,,,,,,,,,,,,,,,,1180.3980480609462,None,,,1183.4140563609544,None,1.6402116402116402,0.9650136439595371,1183.4140563609544,None,,,,,,,1181.3975880639628,None,1181.581034427043,1181.5976886530407,55,001,2023_Mar_14_1943,SpeechDraft1Carolyn_lessNoise_PlusLocalization,2021.2.3,59.98614956048121,
,,,,,,,,nearRight,6.5,0,ch1Sound_localizationTask.wav,6.5,"(1047, 878)","(87, -202)",95,-338,,,,,,,,,,,,,1,1,8,4,,,,,,,,,,,,,,,,,,,,,,,,,,,,,,,,,,,,,,,,1184.3809015438892,None,,,1187.3973361600656,None,1.5486772486772487,1.049732657149434,1187.3973361600656,None,,,,,,,1185.3808949349914,None,1185.5643151190598,1185.580908844946,55,001,2023_Mar_14_1943,SpeechDraft1Carolyn_lessNoise_PlusLocalization,2021.2.3,59.98614956048121,
,,,,,,,,center,0.0,6,ch1Sound_localizationTask.wav,0.0,"(952, 878)","(-8,-202)",0,-338,,,,,,,,,,,,,1,2,9,3,,,,,,,,,,,,,,,,,,,,,,,,,,,,,,,,,,,,,,,,1188.4642914240249,None,,,1191.4808009378612,None,1.4962962962962962,1.1654002158902586,1191.4808009378612,None,,,,,,,1189.4642769659404,None,1189.6476832979824,1189.6642247340642,55,001,2023_Mar_14_1943,SpeechDraft1Carolyn_lessNoise_PlusLocalization,2021.2.3,59.98614956048121,
,,,,,,,,center,0.0,6,ch1Sound_localizationTask.wav,0.0,"(952, 878)","(-8,-202)",0,-338,,,,,,,,,,,,,1,3,10,3,,,,,,,,,,,,,,,,,,,,,,,,,,,,,,,,,,,,,,,,1192.6476677090395,None,,,1195.6640511860605,None,1.4968253968253968,0.7995462398976088,1195.6640511860605,None,,,,,,,1193.6476043479051,None,1193.830945052905,1193.8476274758577,55,001,2023_Mar_14_1943,SpeechDraft1Carolyn_lessNoise_PlusLocalization,2021.2.3,59.98614956048121,
,,,,,,,,midRight,13.0,3,ch1Sound_localizationTask.wav,13.0,"(1142, 878)","(182, -202)",190,-338,,,,,,,,,,,,,1,4,11,5,,,,,,,,,,,,,,,,,,,,,,,,,,,,,,,,,,,,,,,,1196.464408627944,None,,,1199.4806436898652,None,1.6105820105820106,1.0484752210322767,1199.4806436898652,None,,,,,,,1197.4643654259853,None,1197.6476234300062,1197.6642979979515,55,001,2023_Mar_14_1943,SpeechDraft1Carolyn_lessNoise_PlusLocalization,2021.2.3,59.98614956048121,
,,,,,,,,farLeft,-19.1,5,ch1Sound_localizationTask.wav,-19.1,"(667, 878)","(-293,-202)",-285,-338,,,,,,,,,,,,,1,5,12,0,,,,,,,,,,,,,,,,,,,,,,,,,,,,,,,,,,,,,,,,1200.5311400820501,None,,,1203.547412513988,None,1.3497354497354497,1.6657946109771729,1203.547412513988,None,,,,,,,1201.5309667140245,None,1201.714301045984,1201.7311452769209,55,001,2023_Mar_14_1943,SpeechDraft1Carolyn_lessNoise_PlusLocalization,2021.2.3,59.98614956048121,
,,,,,,,,midRight,13.0,3,ch1Sound_localizationTask.wav,13.0,"(1142, 878)","(182, -202)",190,-338,,,,,,,,,,,,,1,6,13,5,,,,,,,,,,,,,,,,,,,,,,,,,,,,,,,,,,,,,,,,1205.2146740839817,None,,,1208.2307557219174,None,1.5962962962962963,1.2818715260364115,1208.2307557219174,None,,,,,,,1206.2143533548806,None,1206.3976627029479,1206.4143065249082,55,001,2023_Mar_14_1943,SpeechDraft1Carolyn_lessNoise_PlusLocalization,2021.2.3,59.98614956048121,
,,,,,,,,farRight,19.1,4,ch1Sound_localizationTask.wav,19.1,"(1237, 878)","(277,-202)",285,-338,,,,,,,,,,,,,2,0,14,6,,,,,,,,,,,,,,,,,,,,,,,,,,,,,,,,,,,,,,,,1209.5143967820331,None,,,1212.5307632209733,None,1.6703703703703705,0.8829192749690264,1212.5307632209733,None,,,,,,,1210.514349131845,None,1210.6975499638356,1210.7143631780054,55,001,2023_Mar_14_1943,SpeechDraft1Carolyn_lessNoise_PlusLocalization,2021.2.3,59.98614956048121,
,,,,,,,,nearLeft,-6.5,1,ch1Sound_localizationTask.wav,-6.5,"(857, 878)","(-103,-202)",-95,-338,,,,,,,,,,,,,2,1,15,2,,,,,,,,,,,,,,,,,,,,,,,,,,,,,,,,,,,,,,,,1213.415490310872,None,,,1216.4473874010146,None,1.4576719576719577,1.2989313639700413,1216.4473874010146,None,,,,,,,1214.4310199299362,None,1214.6143382769078,1214.6309685129672,55,001,2023_Mar_14_1943,SpeechDraft1Carolyn_lessNoise_PlusLocalization,2021.2.3,59.98614956048121,
,,,,,,,,midLeft,-13.0,2,ch1Sound_localizationTask.wav,-13.0,"(762, 878)","(-198,-202)",-190,-338,,,,,,,,,,,,,2,2,16,1,,,,,,,,,,,,,,,,,,,,,,,,,,,,,,,,,,,,,,,,1217.7478181549814,None,,,1220.7640170790255,None,1.4148148148148147,1.1991513899993151,1220.7640170790255,None,,,,,,,1218.7476623419207,None,1218.9309583120048,1218.9476671549492,55,001,2023_Mar_14_1943,SpeechDraft1Carolyn_lessNoise_PlusLocalization,2021.2.3,59.98614956048121,
,,,,,,,,midLeft,-13.0,2,ch1Sound_localizationTask.wav,-13.0,"(762, 878)","(-198,-202)",-190,-338,,,,,,,,,,,,,2,3,17,1,,,,,,,,,,,,,,,,,,,,,,,,,,,,,,,,,,,,,,,,1221.9645778138656,None,,,1224.9807467348874,None,1.4211640211640213,0.8993119769729674,1224.9807467348874,None,,,,,,,1222.9644103068858,None,1223.147763792891,1223.1643103349488,55,001,2023_Mar_14_1943,SpeechDraft1Carolyn_lessNoise_PlusLocalization,2021.2.3,59.98614956048121,
,,,,,,,,nearRight,6.5,0,ch1Sound_localizationTask.wav,6.5,"(1047, 878)","(87, -202)",95,-338,,,,,,,,,,,,,2,4,18,4,,,,,,,,,,,,,,,,,,,,,,,,,,,,,,,,,,,,,,,,1225.8811620429624,None,,,1228.8974397529382,None,1.5423280423280423,1.215305973077193,1228.8974397529382,None,,,,,,,1226.8809840639587,None,1227.0643299680669,1227.0809401299339,55,001,2023_Mar_14_1943,SpeechDraft1Carolyn_lessNoise_PlusLocalization,2021.2.3,59.98614956048121,
,,,,,,,,farRight,19.1,4,ch1Sound_localizationTask.wav,19.1,"(1237, 878)","(277,-202)",285,-338,,,,,,,,,,,,,2,5,19,6,,,,,,,,,,,,,,,,,,,,,,,,,,,,,,,,,,,,,,,,1230.114294190891,None,,,1233.1308698558714,None,1.6756613756613756,1.6314819790422916,1233.1308698558714,None,,,,,,,1231.114290606929,None,1231.297708375845,1231.3143093809485,55,001,2023_Mar_14_1943,SpeechDraft1Carolyn_lessNoise_PlusLocalization,2021.2.3,59.98614956048121,
,,,,,,,,midRight,13.0,3,ch1Sound_localizationTask.wav,13.0,"(1142, 878)","(182, -202)",190,-338,,,,,,,,,,,,,2,6,20,5,,,,,,,,,,,,,,,,,,,,,,,,,,,,,,,,,,,,,,,,1234.7644216478802,None,,,1237.7807079639751,None,1.5936507936507938,1.5819660830311477,1237.7807079639751,None,,,,,,,1235.7642936259508,None,1235.947827651864,1235.964458366856,55,001,2023_Mar_14_1943,SpeechDraft1Carolyn_lessNoise_PlusLocalization,2021.2.3,59.98614956048121,
,,,,,,,,midLeft,-13.0,2,ch1Sound_localizationTask.wav,-13.0,"(762, 878)","(-198,-202)",-190,-338,,,,,,,,,,,,,3,0,21,1,,,,,,,,,,,,,,,,,,,,,,,,,,,,,,,,,,,,,,,,1239.364359762054,None,,,1242.3808363080025,None,1.4142857142857141,1.116442850092426,1242.3808363080025,None,,,,,,,1240.3643849298824,None,1240.5477656470612,1240.5644483549986,55,001,2023_Mar_14_1943,SpeechDraft1Carolyn_lessNoise_PlusLocalization,2021.2.3,59.98614956048121,
,,,,,,,,nearLeft,-6.5,1,ch1Sound_localizationTask.wav,-6.5,"(857, 878)","(-103,-202)",-95,-338,,,,,,,,,,,,,3,1,22,2,,,,,,,,,,,,,,,,,,,,,,,,,,,,,,,,,,,,,,,,1243.4980874999892,None,,,1246.5141358990222,None,1.4724867724867725,1.099585616029799,1246.5141358990222,None,,,,,,,1244.4977739229798,None,1244.681045240024,1244.697723965859,55,001,2023_Mar_14_1943,SpeechDraft1Carolyn_lessNoise_PlusLocalization,2021.2.3,59.98614956048121,
,,,,,,,,nearLeft,-6.5,1,ch1Sound_localizationTask.wav,-6.5,"(857, 878)","(-103,-202)",-95,-338,,,,,,,,,,,,,3,2,23,2,,,,,,,,,,,,,,,,,,,,,,,,,,,,,,,,,,,,,,,,1247.614483095007,None,,,1250.630792838987,None,1.4222222222222223,1.2000057639088482,1250.630792838987,None,,,,,,,1248.614381043939,None,1248.7977022400592,1248.81440685899,55,001,2023_Mar_14_1943,SpeechDraft1Carolyn_lessNoise_PlusLocalization,2021.2.3,59.98614956048121,
,,,,,,,,farLeft,-19.1,5,ch1Sound_localizationTask.wav,-19.1,"(667, 878)","(-293,-202)",-285,-338,,,,,,,,,,,,,3,3,24,0,,,,,,,,,,,,,,,,,,,,,,,,,,,,,,,,,,,,,,,,1251.831367281964,None,,,1254.8474776409566,None,1.343915343915344,1.1497068661265075,1254.8474776409566,None,,,,,,,1252.8309898499865,None,1253.014396619983,1253.0310041150078,55,001,2023_Mar_14_1943,SpeechDraft1Carolyn_lessNoise_PlusLocalization,2021.2.3,59.98614956048121,
,,,,,,,,midLeft,-13.0,2,ch1Sound_localizationTask.wav,-13.0,"(762, 878)","(-198,-202)",-190,-338,,,,,,,,,,,,,3,4,25,1,,,,,,,,,,,,,,,,,,,,,,,,,,,,,,,,,,,,,,,,1255.9977184480522,None,,,1259.0141070969403,None,1.41005291005291,2.367102548945695,1259.0141070969403,None,,,,,,,1256.997683885973,None,1257.1810988290235,1257.1977465888485,55,001,2023_Mar_14_1943,SpeechDraft1Carolyn_lessNoise_PlusLocalization,2021.2.3,59.98614956048121,
,,,,,,,,nearLeft,-6.5,1,ch1Sound_localizationTask.wav,-6.5,"(857, 878)","(-103,-202)",-95,-338,,,,,,,,,,,,,3,5,26,2,,,,,,,,,,,,,,,,,,,,,,,,,,,,,,,,,,,,,,,,1261.3976666459348,None,,,1264.414164274931,None,1.4682539682539684,1.0165317510254681,1264.414164274931,None,,,,,,,1262.3976667469833,None,1262.581170457881,1262.5976668659132,55,001,2023_Mar_14_1943,SpeechDraft1Carolyn_lessNoise_PlusLocalization,2021.2.3,59.98614956048121,
,,,,,,,,farLeft,-19.1,5,ch1Sound_localizationTask.wav,-19.1,"(667, 878)","(-293,-202)",-285,-338,,,,,,,,,,,,,3,6,27,0,,,,,,,,,,,,,,,,,,,,,,,,,,,,,,,,,,,,,,,,1265.431272387039,None,,,1268.4473913880065,None,1.3248677248677247,2.04922350612469,1268.4473913880065,None,,,,,,,1266.4310368520673,None,1266.6144891928416,1266.6310142339207,55,001,2023_Mar_14_1943,SpeechDraft1Carolyn_lessNoise_PlusLocalization,2021.2.3,59.98614956048121,
,,,,,,,,nearLeft,-6.5,1,ch1Sound_localizationTask.wav,-6.5,"(857, 878)","(-103,-202)",-95,-338,,,,,,,,,,,,,4,0,28,2,,,,,,,,,,,,,,,,,,,,,,,,,,,,,,,,,,,,,,,,1270.4979803978931,None,,,1273.5141178460326,None,1.4650793650793652,1.3322330510709435,1273.5141178460326,None,,,,,,,1271.4978012149222,None,1271.681008315878,1271.6977132319007,55,001,2023_Mar_14_1943,SpeechDraft1Carolyn_lessNoise_PlusLocalization,2021.2.3,59.98614956048121,
,,,,,,,,nearRight,6.5,0,ch1Sound_localizationTask.wav,6.5,"(1047, 878)","(87, -202)",95,-338,,,,,,,,,,,,,4,1,29,4,,,,,,,,,,,,,,,,,,,,,,,,,,,,,,,,,,,,,,,,1274.8477493638638,None,,,1277.8640699619427,None,1.5396825396825395,1.3333715540356934,1277.8640699619427,None,,,,,,,1275.8477509508375,None,1276.0310567568522,1276.0477436508518,55,001,2023_Mar_14_1943,SpeechDraft1Carolyn_lessNoise_PlusLocalization,2021.2.3,59.98614956048121,
,,,,,,,,center,0.0,6,ch1Sound_localizationTask.wav,0.0,"(952, 878)","(-8,-202)",0,-338,,,,,,,,,,,,,4,2,30,3,,,,,,,,,,,,,,,,,,,,,,,,,,,,,,,,,,,,,,,,1279.2145454420242,None,,,1282.2308330298401,None,1.4878306878306877,0.9820180721580982,1282.2308330298401,None,,,,,,,1280.2144912858494,None,1280.3978095790371,1280.4144880569074,55,001,2023_Mar_14_1943,SpeechDraft1Carolyn_lessNoise_PlusLocalization,2021.2.3,59.98614956048121,
,,,,,,,,center,0.0,6,ch1Sound_localizationTask.wav,0.0,"(952, 878)","(-8,-202)",0,-338,,,,,,,,,,,,,4,3,31,3,,,,,,,,,,,,,,,,,,,,,,,,,,,,,,,,,,,,,,,,1283.2144814969506,None,,,1286.2309012068436,None,1.4994708994708994,1.1658418599981815,1286.2309012068436,None,,,,,,,1284.214440251002,None,1284.3977618319914,1284.4144109669141,55,001,2023_Mar_14_1943,SpeechDraft1Carolyn_lessNoise_PlusLocalization,2021.2.3,59.98614956048121,
,,,,,,,,farLeft,-19.1,5,ch1Sound_localizationTask.wav,-19.1,"(667, 878)","(-293,-202)",-285,-338,,,,,,,,,,,,,4,4,32,0,,,,,,,,,,,,,,,,,,,,,,,,,,,,,,,,,,,,,,,,1287.3977462109178,None,,,1290.4141534320079,None,1.325925925925926,1.1992124191019684,1290.4141534320079,None,,,,,,,1288.3977840058506,None,1288.5811573718674,1288.5977346878499,55,001,2023_Mar_14_1943,SpeechDraft1Carolyn_lessNoise_PlusLocalization,2021.2.3,59.98614956048121,
,,,,,,,,midLeft,-13.0,2,ch1Sound_localizationTask.wav,-13.0,"(762, 878)","(-198,-202)",-190,-338,,,,,,,,,,,,,4,5,33,1,,,,,,,,,,,,,,,,,,,,,,,,,,,,,,,,,,,,,,,,1291.6149003698956,None,,,1294.6308573698625,None,1.505820105820106,7.249866762198508,1294.6308573698625,None,,,,,,,1292.6144345968496,None,1292.7977557999548,1292.81444155192,55,001,2023_Mar_14_1943,SpeechDraft1Carolyn_lessNoise_PlusLocalization,2021.2.3,59.98614956048121,
,,,,,,,,center,0.0,6,ch1Sound_localizationTask.wav,0.0,"(952, 878)","(-8,-202)",0,-338,,,,,,,,,,,,,4,6,34,3,,,,,,,,,,,,,,,,,,,,,,,,,,,,,,,,,,,,,,,,1301.8818191550672,None,,,1304.8975325198844,None,1.505820105820106,1.2499557069968432,1304.8975325198844,None,,,,,,,1302.8810938240495,None,1303.0644754099194,1303.0811831848696,55,001,2023_Mar_14_1943,SpeechDraft1Carolyn_lessNoise_PlusLocalization,2021.2.3,59.98614956048121,
,,,,,,,,farLeft,-19.1,5,ch1Sound_localizationTask.wav,-19.1,"(667, 878)","(-293,-202)",-285,-338,,,,,,,,,,,,,5,0,35,0,,,,,,,,,,,,,,,,,,,,,,,,,,,,,,,,,,,,,,,,1306.1479888230097,None,,,1309.164129328914,None,1.33015873015873,1.1828687719535083,1309.164129328914,None,,,,,,,1307.1477913719136,None,1307.331096770009,1307.3477860370185,55,001,2023_Mar_14_1943,SpeechDraft1Carolyn_lessNoise_PlusLocalization,2021.2.3,59.98614956048121,
,,,,,,,,center,0.0,6,ch1Sound_localizationTask.wav,0.0,"(952, 878)","(-8,-202)",0,-338,,,,,,,,,,,,,5,1,36,3,,,,,,,,,,,,,,,,,,,,,,,,,,,,,,,,,,,,,,,,1310.3478594068438,None,,,1313.364136470016,None,1.4841269841269842,1.33236947003752,1313.364136470016,None,,,,,,,1311.3478292690124,None,1311.5313358388375,1311.5478904838674,55,001,2023_Mar_14_1943,SpeechDraft1Carolyn_lessNoise_PlusLocalization,2021.2.3,59.98614956048121,
,,,,,,,,farLeft,-19.1,5,ch1Sound_localizationTask.wav,-19.1,"(667, 878)","(-293,-202)",-285,-338,,,,,,,,,,,,,5,2,37,0,,,,,,,,,,,,,,,,,,,,,,,,,,,,,,,,,,,,,,,,1314.6978413108736,None,,,1317.714267930016,None,1.3375661375661376,1.1489189809653908,1317.714267930016,None,,,,,,,1315.6977845658548,None,1315.8810970929917,1315.8980189899448,55,001,2023_Mar_14_1943,SpeechDraft1Carolyn_lessNoise_PlusLocalization,2021.2.3,59.98614956048121,
,,,,,,,,nearRight,6.5,0,ch1Sound_localizationTask.wav,6.5,"(1047, 878)","(87, -202)",95,-338,,,,,,,,,,,,,5,3,38,4,,,,,,,,,,,,,,,,,,,,,,,,,,,,,,,,,,,,,,,,1318.8645332129672,None,,,1321.8808733390179,None,1.5518518518518518,1.2665880990680307,1321.8808733390179,None,,,,,,,1319.8644563939888,None,1320.0477523920126,1320.0645701319445,55,001,2023_Mar_14_1943,SpeechDraft1Carolyn_lessNoise_PlusLocalization,2021.2.3,59.98614956048121,
,,,,,,,,nearRight,6.5,0,ch1Sound_localizationTask.wav,6.5,"(1047, 878)","(87, -202)",95,-338,,,,,,,,,,,,,5,4,39,4,,,,,,,,,,,,,,,,,,,,,,,,,,,,,,,,,,,,,,,,1323.1483410350047,None,,,1326.1641794189345,None,1.5433862433862435,1.482833585003391,1326.1641794189345,None,,,,,,,1324.147937441012,None,1324.331162828952,1324.3478069659323,55,001,2023_Mar_14_1943,SpeechDraft1Carolyn_lessNoise_PlusLocalization,2021.2.3,59.98614956048121,
,,,,,,,,midLeft,-13.0,2,ch1Sound_localizationTask.wav,-13.0,"(762, 878)","(-198,-202)",-190,-338,,,,,,,,,,,,,5,5,40,1,,,,,,,,,,,,,,,,,,,,,,,,,,,,,,,,,,,,,,,,1327.6478135888465,None,,,1330.6641550508793,None,1.3931216931216932,1.0325837549753487,1330.6641550508793,None,,,,,,,1328.647779918043,None,1328.8311660990585,1328.8477508688811,55,001,2023_Mar_14_1943,SpeechDraft1Carolyn_lessNoise_PlusLocalization,2021.2.3,59.98614956048121,
,,,,,,,,farRight,19.1,4,ch1Sound_localizationTask.wav,19.1,"(1237, 878)","(277,-202)",285,-338,,,,,,,,,,,,,5,6,41,6,,,,,,,,,,,,,,,,,,,,,,,,,,,,,,,,,,,,,,,,1331.698375700973,None,,,1334.7143276268616,None,1.682010582010582,1.3492725200485438,1334.7143276268616,None,,,,,,,1332.697903229855,None,1332.8811196039896,1332.8978480389342,55,001,2023_Mar_14_1943,SpeechDraft1Carolyn_lessNoise_PlusLocalization,2021.2.3,59.98614956048121,
,,,,,,,,farRight,19.1,4,ch1Sound_localizationTask.wav,19.1,"(1237, 878)","(277,-202)",285,-338,,,,,,,,,,,,,6,0,42,6,,,,,,,,,,,,,,,,,,,,,,,,,,,,,,,,,,,,,,,,1336.0645906839054,None,,,1339.0809481809847,None,1.6597883597883598,1.0659466919023544,1339.0809481809847,None,,,,,,,1337.0645550019108,None,1337.2478445188608,1337.2644700859673,55,001,2023_Mar_14_1943,SpeechDraft1Carolyn_lessNoise_PlusLocalization,2021.2.3,59.98614956048121,
,,,,,,,,center,0.0,6,ch1Sound_localizationTask.wav,0.0,"(952, 878)","(-8,-202)",0,-338,,,,,,,,,,,,,6,1,43,3,,,,,,,,,,,,,,,,,,,,,,,,,,,,,,,,,,,,,,,,1340.1479195000138,None,,,1343.164301219862,None,1.5126984126984127,1.2156088601332158,1343.164301219862,None,,,,,,,1341.1477119170595,None,1341.331180515932,1341.3477554428391,55,001,2023_Mar_14_1943,SpeechDraft1Carolyn_lessNoise_PlusLocalization,2021.2.3,59.98614956048121,
,,,,,,,,farRight,19.1,4,ch1Sound_localizationTask.wav,19.1,"(1237, 878)","(277,-202)",285,-338,,,,,,,,,,,,,6,2,44,6,,,,,,,,,,,,,,,,,,,,,,,,,,,,,,,,,,,,,,,,1344.3814808579627,None,,,1347.397578598,None,1.6862433862433863,1.2824960639700294,1347.397578598,None,,,,,,,1345.3811121829785,None,1345.5645382308867,1345.581157520879,55,001,2023_Mar_14_1943,SpeechDraft1Carolyn_lessNoise_PlusLocalization,2021.2.3,59.98614956048121,
,,,,,,,,midRight,13.0,3,ch1Sound_localizationTask.wav,13.0,"(1142, 878)","(182, -202)",190,-338,,,,,,,,,,,,,6,3,45,5,,,,,,,,,,,,,,,,,,,,,,,,,,,,,,,,,,,,,,,,1348.681189164985,None,,,1351.6978295340668,None,1.607936507936508,1.1332087609916925,1351.6978295340668,None,,,,,,,1349.6812199130654,None,1349.8645335359033,1349.8811577360611,55,001,2023_Mar_14_1943,SpeechDraft1Carolyn_lessNoise_PlusLocalization,2021.2.3,59.98614956048121,
,,,,,,,,farLeft,-19.1,5,ch1Sound_localizationTask.wav,-19.1,"(667, 878)","(-293,-202)",-285,-338,,,,,,,,,,,,,6,4,46,0,,,,,,,,,,,,,,,,,,,,,,,,,,,,,,,,,,,,,,,,1352.8314663488418,None,,,1355.8475890439004,None,1.342857142857143,1.582916463026777,1355.8475890439004,None,,,,,,,1353.831230212003,None,1354.0144895520061,1354.0311909548473,55,001,2023_Mar_14_1943,SpeechDraft1Carolyn_lessNoise_PlusLocalization,2021.2.3,59.98614956048121,
,,,,,,,,nearRight,6.5,0,ch1Sound_localizationTask.wav,6.5,"(1047, 878)","(87, -202)",95,-338,,,,,,,,,,,,,6,5,47,4,,,,,,,,,,,,,,,,,,,,,,,,,,,,,,,,,,,,,,,,1357.431734670885,None,,,1360.4475587699562,None,1.5465608465608467,1.3322093680035323,1360.4475587699562,None,,,,,,,1358.43123077997,None,1358.6145818559453,1358.6311082290486,55,001,2023_Mar_14_1943,SpeechDraft1Carolyn_lessNoise_PlusLocalization,2021.2.3,59.98614956048121,
,,,,,,,,midRight,13.0,3,ch1Sound_localizationTask.wav,13.0,"(1142, 878)","(182, -202)",190,-338,,,,,,,,,,,,,6,6,48,5,,,,,,,,,,,,,,,,,,,,,,,,,,,,,,,,,,,,,,,,1361.7811541729607,None,,,1364.7976384388749,None,1.6280423280423282,1.0326462239027023,1364.7976384388749,None,,,,,,,1362.7811521890108,None,1362.9645456839353,1362.9812414608896,55,001,2023_Mar_14_1943,SpeechDraft1Carolyn_lessNoise_PlusLocalization,2021.2.3,59.98614956048121,
,,,,,,,,nearRight,6.5,0,ch1Sound_localizationTask.wav,6.5,"(1047, 878)","(87, -202)",95,-338,,,,,,,,,,,,,7,0,49,4,,,,,,,,,,,,,,,,,,,,,,,,,,,,,,,,,,,,,,,,1365.831539286999,None,,,1368.8475527558476,None,1.5613756613756613,1.1328508809674531,1368.8475527558476,None,,,,,,,1366.8312254569028,None,1367.0145141298417,1367.0313784189057,55,001,2023_Mar_14_1943,SpeechDraft1Carolyn_lessNoise_PlusLocalization,2021.2.3,59.98614956048121,
,,,,,,,,farRight,19.1,4,ch1Sound_localizationTask.wav,19.1,"(1237, 878)","(277,-202)",285,-338,,,,,,,,,,,,,7,1,50,6,,,,,,,,,,,,,,,,,,,,,,,,,,,,,,,,,,,,,,,,1369.9812015958596,None,,,1372.9976109429263,None,1.6767195767195768,1.1485188871156424,1372.9976109429263,None,,,,,,,1370.981288729934,None,1371.1646041369531,1371.1811841998715,55,001,2023_Mar_14_1943,SpeechDraft1Carolyn_lessNoise_PlusLocalization,2021.2.3,59.98614956048121,
,,,,,,,,farLeft,-19.1,5,ch1Sound_localizationTask.wav,-19.1,"(667, 878)","(-293,-202)",-285,-338,,,,,,,,,,,,,7,2,51,0,,,,,,,,,,,,,,,,,,,,,,,,,,,,,,,,,,,,,,,,1374.1479763539974,None,,,1377.1643236470409,None,1.356084656084656,1.33214996708557,1377.1643236470409,None,,,,,,,1375.1478423939552,None,1375.3311918268446,1375.348101825919,55,001,2023_Mar_14_1943,SpeechDraft1Carolyn_lessNoise_PlusLocalization,2021.2.3,59.98614956048121,
,,,,,,,,midRight,13.0,3,ch1Sound_localizationTask.wav,13.0,"(1142, 878)","(182, -202)",190,-338,,,,,,,,,,,,,7,3,52,5,,,,,,,,,,,,,,,,,,,,,,,,,,,,,,,,,,,,,,,,1378.497867716942,None,,,1381.5143489919137,None,1.5952380952380953,1.3164661331102252,1381.5143489919137,None,,,,,,,1379.4978543850593,None,1379.6812156320084,1379.6979463349562,55,001,2023_Mar_14_1943,SpeechDraft1Carolyn_lessNoise_PlusLocalization,2021.2.3,59.98614956048121,
,,,,,,,,center,0.0,6,ch1Sound_localizationTask.wav,0.0,"(952, 878)","(-8,-202)",0,-338,,,,,,,,,,,,,7,4,53,3,,,,,,,,,,,,,,,,,,,,,,,,,,,,,,,,,,,,,,,,1382.8318342659622,None,,,1385.847560786875,None,1.4968253968253968,1.0489103090949357,1385.847560786875,None,,,,,,,1383.8312394539826,None,1384.014534207061,1384.0311395758763,55,001,2023_Mar_14_1943,SpeechDraft1Carolyn_lessNoise_PlusLocalization,2021.2.3,59.98614956048121,
,,,,,,,,midLeft,-13.0,2,ch1Sound_localizationTask.wav,-13.0,"(762, 878)","(-198,-202)",-190,-338,,,,,,,,,,,,,7,5,54,1,,,,,,,,,,,,,,,,,,,,,,,,,,,,,,,,,,,,,,,,1386.8980770849157,None,,,1389.9143391209655,None,1.425925925925926,0.983412740053609,1389.9143391209655,None,,,,,,,1387.8979097639676,None,1388.0812414409593,1388.097821803065,55,001,2023_Mar_14_1943,SpeechDraft1Carolyn_lessNoise_PlusLocalization,2021.2.3,59.98614956048121,
,,,,,,,,midRight,13.0,3,ch1Sound_localizationTask.wav,13.0,"(1142, 878)","(182, -202)",190,-338,,,,,,,,,,,,,7,6,55,5,,,,,,,,,,,,,,,,,,,,,,,,,,,,,,,,,,,,,,,,1390.898660690058,None,,,1393.9141947410535,None,1.5735449735449736,1.0987931180279702,1393.9141947410535,None,,,,,,,1391.8978976688813,None,1392.0811894489452,1392.097950167954,55,001,2023_Mar_14_1943,SpeechDraft1Carolyn_lessNoise_PlusLocalization,2021.2.3,59.98614956048121,
