Audio_Only_Files,Video_Files,Original_Word_List,noiseLevelCode,conditionCodes,noiseLevelFile1,noiseLevelFile2,InstrTextVar,targetSpeakerName,targetSpeakerEccen,targetSpkrChannel,targetSpkrSound,targetVisualDegrees,visStimLoc,visStimLoc2,visStimW,visStimH,practiceTrials.thisRepN,practiceTrials.thisTrialN,practiceTrials.thisN,practiceTrials.thisIndex,trials.thisRepN,trials.thisTrialN,trials.thisN,trials.thisIndex,audLocalLoop.thisRepN,audLocalLoop.thisTrialN,audLocalLoop.thisN,audLocalLoop.thisIndex,visualLocalLoop.thisRepN,visualLocalLoop.thisTrialN,visualLocalLoop.thisN,visualLocalLoop.thisIndex,letsGoAlready.keys,letsGoAlready.rt,letsGoAlready.started,letsGoAlready.stopped,text_2.started,text_2.stopped,text_3.started,text_3.stopped,key_resp_2.keys,key_resp_2.rt,key_resp_2.started,key_resp_2.stopped,text_5.started,text_5.stopped,fixCross.started,fixCross.stopped,fixCross2.started,fixCross2.stopped,answerPrompt.started,answerPrompt.stopped,getAnswer.text,getAnswer.started,getAnswer.stopped,goToNext.keys,goToNext.rt,goToNext.started,goToNext.stopped,stretchBreakTxrt.started,stretchBreakTxrt.stopped,key_resp_3.keys,key_resp_3.rt,key_resp_3.started,key_resp_3.stopped,letsGoLocal.keys,letsGoLocal.rt,letsGoLocal.started,letsGoLocal.stopped,text_4.started,text_4.stopped,prepFixTxt.started,prepFixTxt.stopped,prepFixTxt_2.started,prepFixTxt_2.stopped,respPromptLocal.started,respPromptLocal.stopped,slider.response,slider.rt,slider.started,slider.stopped,letsGoLocal_2.keys,letsGoLocal_2.rt,letsGoLocal_2.started,letsGoLocal_2.stopped,text_7.started,text_7.stopped,prepFixTxt_3.started,prepFixTxt_3.stopped,grating.started,grating.stopped,participant,session,date,expName,psychopyVersion,frameRate,
,,,,,,,,,,,,,,,,,,,,,,,,,,,,,,,,,space,9.32561046606861,11.64314143708907,None,,,,,,,,,,,,,,,,,,,,,,,,,,,,,,,,,,,,,,,,,,,,,,,,,,,,,,,,56,001,2023_Mar_15_1135,SpeechDraft1Carolyn_lessNoise_PlusLocalization,2021.2.3,59.92418434921777,
,,,,,,,,,,,,,,,,,,,,,,,,,,,,,,,,,,,,,11.64314143708907,None,21.09278353303671,None,space,26.08447033003904,21.276258289115503,None,,,,,,,,,,,,,,,,,,,,,,,,,,,,,,,,,,,,,,,,,,,,,,,,56,001,2023_Mar_15_1135,SpeechDraft1Carolyn_lessNoise_PlusLocalization,2021.2.3,59.92418434921777,
ash.wav,ash.mpg,ash,1,A,Pink_Noise_1_1.wav,Pink_Noise_1_2.wav,"This is an example of an

AUDIO trial",,,,,,,,,,0,0,0,0,,,,,,,,,,,,,,,,,,,,,,,,,47.40976813202724,None,48.40962966205552,None,51.57584470696747,None,52.95939132710919,None,ash,52.95939132710919,None,return,2.9099624699447304,53.0427475720644,None,,,,,,,,,,,,,,,,,,,,,,,,,,,,,,,,,56,001,2023_Mar_15_1135,SpeechDraft1Carolyn_lessNoise_PlusLocalization,2021.2.3,59.92418434921777,
ash.wav,ash.mpg,ash,1,AV,Pink_Noise_1_1.wav,Pink_Noise_1_2.wav,"This is an example of an

AUDIO + VIDEO  trial",,,,,,,,,,0,1,1,1,,,,,,,,,,,,,,,,,,,,,,,,,55.992419563932344,None,56.992902050027624,None,58.47593226702884,None,59.85933030908927,None,ash,59.85933030908927,None,return,2.474089300027117,59.94273124402389,None,,,,,,,,,,,,,,,,,,,,,,,,,,,,,,,,,56,001,2023_Mar_15_1135,SpeechDraft1Carolyn_lessNoise_PlusLocalization,2021.2.3,59.92418434921777,
,,,,,,,,,,,,,,,,,,,,,,,,,,,,,,,,,,,,,,,,,,,,,,,,,,,,,,,,,,,,62.45910676615313,None,space,17.80570372310467,62.64300430496223,None,,,,,,,,,,,,,,,,,,,,,,,,,,,56,001,2023_Mar_15_1135,SpeechDraft1Carolyn_lessNoise_PlusLocalization,2021.2.3,59.92418434921777,
chill.wav,chill.mpg,chill,6,AV,Pink_Noise_6_1.wav,Pink_Noise_6_2.wav,,,,,,,,,,,,,,,0,0,0,87,,,,,,,,,,,,,,,,,,,,,,,80.50904189306311,None,81.99241367611103,None,83.37595516908914,None,chin,83.37595516908914,None,return,2.621285778004676,83.45948125515133,None,,,,,,,,,,,,,,,,,,,,,,,,,,,,,,,,,56,001,2023_Mar_15_1135,SpeechDraft1Carolyn_lessNoise_PlusLocalization,2021.2.3,59.92418434921777,
tank.wav,tank.mpg,tank,5,A,Pink_Noise_5_1.wav,Pink_Noise_5_2.wav,,,,,,,,,,,,,,,0,1,1,57,,,,,,,,,,,,,,,,,,,,,,,86.10945046902634,None,87.59410167811438,None,88.97608117409982,None,chin,88.97608117409982,None,return,3.5330175310373306,89.0597378979437,None,,,,,,,,,,,,,,,,,,,,,,,,,,,,,,,,,56,001,2023_Mar_15_1135,SpeechDraft1Carolyn_lessNoise_PlusLocalization,2021.2.3,59.92418434921777,
code.wav,code.mpg,code,3,AV,Pink_Noise_3_1.wav,Pink_Noise_3_2.wav,,,,,,,,,,,,,,,0,2,2,70,,,,,,,,,,,,,,,,,,,,,,,92.60941337211989,None,94.09339580615051,None,95.47607708210126,None,coke,95.47607708210126,None,return,1.9211818331386894,95.55955009604804,None,,,,,,,,,,,,,,,,,,,,,,,,,,,,,,,,,56,001,2023_Mar_15_1135,SpeechDraft1Carolyn_lessNoise_PlusLocalization,2021.2.3,59.92418434921777,
dash.wav,dash.mpg,dash,5,AV,Pink_Noise_5_1.wav,Pink_Noise_5_2.wav,,,,,,,,,,,,,,,0,3,3,114,,,,,,,,,,,,,,,,,,,,,,,97.50967815006152,None,98.9936176771298,None,100.37607012013905,None,dash,100.37607012013905,None,return,1.9252367119770497,100.4594726189971,None,,,,,,,,,,,,,,,,,,,,,,,,,,,,,,,,,56,001,2023_Mar_15_1135,SpeechDraft1Carolyn_lessNoise_PlusLocalization,2021.2.3,59.92418434921777,
cling.wav,cling.mpg,cling,1,A,Pink_Noise_1_1.wav,Pink_Noise_1_2.wav,,,,,,,,,,,,,,,0,4,4,41,,,,,,,,,,,,,,,,,,,,,,,102.40944877197035,None,103.89423120394349,None,105.27630854211748,None,cling,105.27630854211748,None,return,1.7611668610479683,105.3595434660092,None,,,,,,,,,,,,,,,,,,,,,,,,,,,,,,,,,56,001,2023_Mar_15_1135,SpeechDraft1Carolyn_lessNoise_PlusLocalization,2021.2.3,59.92418434921777,
blind.wav,blind.mpg,blind,6,A,Pink_Noise_6_1.wav,Pink_Noise_6_2.wav,,,,,,,,,,,,,,,0,5,5,39,,,,,,,,,,,,,,,,,,,,,,,107.14282436296344,None,108.62644433416426,None,110.00978206912987,None,love,110.00978206912987,None,return,1.5956406199838966,110.09310657111928,None,,,,,,,,,,,,,,,,,,,,,,,,,,,,,,,,,56,001,2023_Mar_15_1135,SpeechDraft1Carolyn_lessNoise_PlusLocalization,2021.2.3,59.92418434921777,
bush.wav,bush.mpg,bush,4,AV,Pink_Noise_4_1.wav,Pink_Noise_4_2.wav,,,,,,,,,,,,,,,0,6,6,117,,,,,,,,,,,,,,,,,,,,,,,111.70969815412536,None,113.2091297111474,None,114.59285548096523,None,brush,114.59285548096523,None,return,1.9484839159995317,114.67634031712078,None,,,,,,,,,,,,,,,,,,,,,,,,,,,,,,,,,56,001,2023_Mar_15_1135,SpeechDraft1Carolyn_lessNoise_PlusLocalization,2021.2.3,59.92418434921777,
chest.wav,chest.mpg,chest,3,AV,Pink_Noise_3_1.wav,Pink_Noise_3_2.wav,,,,,,,,,,,,,,,0,7,7,71,,,,,,,,,,,,,,,,,,,,,,,116.64281894802116,None,118.12703525694087,None,119.50941414316185,None,chest,119.50941414316185,None,return,3.111809488153085,119.5929041041527,None,,,,,,,,,,,,,,,,,,,,,,,,,,,,,,,,,56,001,2023_Mar_15_1135,SpeechDraft1Carolyn_lessNoise_PlusLocalization,2021.2.3,59.92418434921777,
climb.wav,climb.mpg,climb,4,A,Pink_Noise_4_1.wav,Pink_Noise_4_2.wav,,,,,,,,,,,,,,,0,8,8,0,,,,,,,,,,,,,,,,,,,,,,,122.72642033104785,None,124.22582087293267,None,125.60956961708143,None,find,125.60956961708143,None,return,1.3399437570478767,125.69293832406402,None,,,,,,,,,,,,,,,,,,,,,,,,,,,,,,,,,56,001,2023_Mar_15_1135,SpeechDraft1Carolyn_lessNoise_PlusLocalization,2021.2.3,59.92418434921777,
fist.wav,fist.mpg,fist,1,A,Pink_Noise_1_1.wav,Pink_Noise_1_2.wav,,,,,,,,,,,,,,,0,9,9,35,,,,,,,,,,,,,,,,,,,,,,,127.0596312659327,None,128.559225050034,None,129.9428267700132,None,fist,129.9428267700132,None,return,3.798441029852256,130.02633616211824,None,,,,,,,,,,,,,,,,,,,,,,,,,,,,,,,,,56,001,2023_Mar_15_1135,SpeechDraft1Carolyn_lessNoise_PlusLocalization,2021.2.3,59.92418434921777,
egg.wav,egg.mpg,egg,5,A,Pink_Noise_5_1.wav,Pink_Noise_5_2.wav,,,,,,,,,,,,,,,0,10,10,6,,,,,,,,,,,,,,,,,,,,,,,133.8429992471356,None,135.3426637800876,None,136.72621034714393,None,"egg
",136.72621034714393,None,return,0.9670895179733634,136.80962669895962,None,,,,,,,,,,,,,,,,,,,,,,,,,,,,,,,,,56,001,2023_Mar_15_1135,SpeechDraft1Carolyn_lessNoise_PlusLocalization,2021.2.3,59.92418434921777,
beard.wav,beard.mpg,beard,6,A,Pink_Noise_6_1.wav,Pink_Noise_6_2.wav,,,,,,,,,,,,,,,0,11,11,37,,,,,,,,,,,,,,,,,,,,,,,137.8097406839952,None,139.30917281401344,None,140.69295396097004,None,leap,140.69295396097004,None,return,1.3043778738938272,140.77635720209219,None,,,,,,,,,,,,,,,,,,,,,,,,,,,,,,,,,56,001,2023_Mar_15_1135,SpeechDraft1Carolyn_lessNoise_PlusLocalization,2021.2.3,59.92418434921777,
dent.wav,dent.mpg,dent,2,AV,Pink_Noise_2_1.wav,Pink_Noise_2_2.wav,,,,,,,,,,,,,,,0,12,12,78,,,,,,,,,,,,,,,,,,,,,,,142.10953083913773,None,143.59375429409556,None,144.9761055719573,None,"dent
",144.9761055719573,None,return,0.9169188141822815,145.0598008830566,None,,,,,,,,,,,,,,,,,,,,,,,,,,,,,,,,,56,001,2023_Mar_15_1135,SpeechDraft1Carolyn_lessNoise_PlusLocalization,2021.2.3,59.92418434921777,
core.wav,core.mpg,core,4,AV,Pink_Noise_4_1.wav,Pink_Noise_4_2.wav,,,,,,,,,,,,,,,0,13,13,88,,,,,,,,,,,,,,,,,,,,,,,146.00957097811624,None,147.50927310599945,None,148.89320019911975,None,core,148.89320019911975,None,return,1.0085338200442493,148.97617538203485,None,,,,,,,,,,,,,,,,,,,,,,,,,,,,,,,,,56,001,2023_Mar_15_1135,SpeechDraft1Carolyn_lessNoise_PlusLocalization,2021.2.3,59.92418434921777,
beg.wav,beg.mpg,beg,1,A,Pink_Noise_1_1.wav,Pink_Noise_1_2.wav,,,,,,,,,,,,,,,0,14,14,26,,,,,,,,,,,,,,,,,,,,,,,150.00974472612143,None,151.50934723601677,None,152.89290630398318,None,beg,152.89290630398318,None,return,8.008496416034177,152.97621341096237,None,,,,,,,,,,,,,,,,,,,,,,,,,,,,,,,,,56,001,2023_Mar_15_1135,SpeechDraft1Carolyn_lessNoise_PlusLocalization,2021.2.3,59.92418434921777,
quest.wav,quest.mpg,quest,4,A,Pink_Noise_4_1.wav,Pink_Noise_4_2.wav,,,,,,,,,,,,,,,0,15,15,22,,,,,,,,,,,,,,,,,,,,,,,161.00955763808452,None,162.50937082106248,None,163.8931651089806,None,crust,163.8931651089806,None,return,2.9045426319353282,163.97628130298108,None,,,,,,,,,,,,,,,,,,,,,,,,,,,,,,,,,56,001,2023_Mar_15_1135,SpeechDraft1Carolyn_lessNoise_PlusLocalization,2021.2.3,59.92418434921777,
badge.wav,badge.mpg,badge,6,AV,Pink_Noise_6_1.wav,Pink_Noise_6_2.wav,,,,,,,,,,,,,,,0,16,16,110,,,,,,,,,,,,,,,,,,,,,,,166.9097571671009,None,168.4093536080327,None,169.79284628713503,None,bash,169.79284628713503,None,return,1.0604774390812963,169.87623642198741,None,,,,,,,,,,,,,,,,,,,,,,,,,,,,,,,,,56,001,2023_Mar_15_1135,SpeechDraft1Carolyn_lessNoise_PlusLocalization,2021.2.3,59.92418434921777,
traps.wav,traps.mpg,traps,2,A,Pink_Noise_2_1.wav,Pink_Noise_2_2.wav,,,,,,,,,,,,,,,0,17,17,5,,,,,,,,,,,,,,,,,,,,,,,170.95978969312273,None,172.45947434194386,None,173.84289155411534,None,"traps
",173.84289155411534,None,return,1.2343667650129646,173.92635823297314,None,,,,,,,,,,,,,,,,,,,,,,,,,,,,,,,,,56,001,2023_Mar_15_1135,SpeechDraft1Carolyn_lessNoise_PlusLocalization,2021.2.3,59.92418434921777,
dove.wav,dove.mpg,dove,2,AV,Pink_Noise_2_1.wav,Pink_Noise_2_2.wav,,,,,,,,,,,,,,,0,18,18,89,,,,,,,,,,,,,,,,,,,,,,,175.1928884270601,None,176.692617647117,None,178.07617166102864,None,dove,178.07617166102864,None,return,3.649131165118888,178.1596745690331,None,,,,,,,,,,,,,,,,,,,,,,,,,,,,,,,,,56,001,2023_Mar_15_1135,SpeechDraft1Carolyn_lessNoise_PlusLocalization,2021.2.3,59.92418434921777,
glow.wav,glow.mpg,glow,6,A,Pink_Noise_6_1.wav,Pink_Noise_6_2.wav,,,,,,,,,,,,,,,0,19,19,10,,,,,,,,,,,,,,,,,,,,,,,181.82633985113353,None,183.32597821415402,None,184.7102287360467,None,roam,184.7102287360467,None,return,5.1918008560314775,184.7929070419632,None,,,,,,,,,,,,,,,,,,,,,,,,,,,,,,,,,56,001,2023_Mar_15_1135,SpeechDraft1Carolyn_lessNoise_PlusLocalization,2021.2.3,59.92418434921777,
chalk.wav,chalk.mpg,chalk,5,A,Pink_Noise_5_1.wav,Pink_Noise_5_2.wav,,,,,,,,,,,,,,,0,20,20,47,,,,,,,,,,,,,,,,,,,,,,,190.00972633901983,None,191.50945604895242,None,192.89323952398263,None,chop,192.89323952398263,None,return,19.088318541878834,192.97649195301346,None,,,,,,,,,,,,,,,,,,,,,,,,,,,,,,,,,56,001,2023_Mar_15_1135,SpeechDraft1Carolyn_lessNoise_PlusLocalization,2021.2.3,59.92418434921777,
grant.wav,grant.mpg,grant,3,A,Pink_Noise_3_1.wav,Pink_Noise_3_2.wav,,,,,,,,,,,,,,,0,21,21,44,,,,,,,,,,,,,,,,,,,,,,,212.09299547108822,None,213.59255318297073,None,214.97632175614126,None,"rant
",214.97632175614126,None,return,3.868800772121176,215.05992000107653,None,,,,,,,,,,,,,,,,,,,,,,,,,,,,,,,,,56,001,2023_Mar_15_1135,SpeechDraft1Carolyn_lessNoise_PlusLocalization,2021.2.3,59.92418434921777,
rod.wav,rod.mpg,rod,4,AV,Pink_Noise_4_1.wav,Pink_Noise_4_2.wav,,,,,,,,,,,,,,,0,22,22,72,,,,,,,,,,,,,,,,,,,,,,,218.9595512750093,None,220.45930695394054,None,221.84314626595005,None,riide,221.84314626595005,None,return,2.170461942208931,221.9262487180531,None,,,,,,,,,,,,,,,,,,,,,,,,,,,,,,,,,56,001,2023_Mar_15_1135,SpeechDraft1Carolyn_lessNoise_PlusLocalization,2021.2.3,59.92418434921777,
coach.wav,coach.mpg,coach,6,AV,Pink_Noise_6_1.wav,Pink_Noise_6_2.wav,,,,,,,,,,,,,,,0,23,23,81,,,,,,,,,,,,,,,,,,,,,,,224.12632865295745,None,225.6260190049652,None,227.0095526149962,None,coach,227.0095526149962,None,return,1.6036780660506338,227.09304631897248,None,,,,,,,,,,,,,,,,,,,,,,,,,,,,,,,,,56,001,2023_Mar_15_1135,SpeechDraft1Carolyn_lessNoise_PlusLocalization,2021.2.3,59.92418434921777,
cheek.wav,cheek.mpg,cheek,6,A,Pink_Noise_6_1.wav,Pink_Noise_6_2.wav,,,,,,,,,,,,,,,0,24,24,14,,,,,,,,,,,,,,,,,,,,,,,228.72622641408816,None,230.2263595450204,None,231.60969267203473,None,chin,231.60969267203473,None,return,1.187597261974588,231.69312384002842,None,,,,,,,,,,,,,,,,,,,,,,,,,,,,,,,,,56,001,2023_Mar_15_1135,SpeechDraft1Carolyn_lessNoise_PlusLocalization,2021.2.3,59.92418434921777,
route.wav,route.mpg,route,6,AV,Pink_Noise_6_1.wav,Pink_Noise_6_2.wav,,,,,,,,,,,,,,,0,25,25,64,,,,,,,,,,,,,,,,,,,,,,,232.90972147602588,None,234.4095699400641,None,235.79285047505982,None,three,235.79285047505982,None,return,2.38857326307334,235.87629315908998,None,,,,,,,,,,,,,,,,,,,,,,,,,,,,,,,,,56,001,2023_Mar_15_1135,SpeechDraft1Carolyn_lessNoise_PlusLocalization,2021.2.3,59.92418434921777,
bend.wav,bend.mpg,bend,1,A,Pink_Noise_1_1.wav,Pink_Noise_1_2.wav,,,,,,,,,,,,,,,0,26,26,17,,,,,,,,,,,,,,,,,,,,,,,238.29304422996938,None,239.79264647513628,None,241.17656712094322,None,bend,241.17656712094322,None,return,2.037068752106279,241.25965224113315,None,,,,,,,,,,,,,,,,,,,,,,,,,,,,,,,,,56,001,2023_Mar_15_1135,SpeechDraft1Carolyn_lessNoise_PlusLocalization,2021.2.3,59.92418434921777,
duck.wav,duck.mpg,duck,2,A,Pink_Noise_2_1.wav,Pink_Noise_2_2.wav,,,,,,,,,,,,,,,0,27,27,59,,,,,,,,,,,,,,,,,,,,,,,243.32642614794895,None,244.8260211709421,None,246.20991456112824,None,duck,246.20991456112824,None,return,1.8916954610031098,246.29301520995796,None,,,,,,,,,,,,,,,,,,,,,,,,,,,,,,,,,56,001,2023_Mar_15_1135,SpeechDraft1Carolyn_lessNoise_PlusLocalization,2021.2.3,59.92418434921777,
grave.wav,grave.mpg,grave,3,A,Pink_Noise_3_1.wav,Pink_Noise_3_2.wav,,,,,,,,,,,,,,,0,28,28,30,,,,,,,,,,,,,,,,,,,,,,,248.20985743612982,None,249.70938187814318,None,251.0931052470114,None,rain,251.0931052470114,None,return,1.6164668039418757,251.17630019411445,None,,,,,,,,,,,,,,,,,,,,,,,,,,,,,,,,,56,001,2023_Mar_15_1135,SpeechDraft1Carolyn_lessNoise_PlusLocalization,2021.2.3,59.92418434921777,
eve.wav,eve.mpg,eve,2,AV,Pink_Noise_2_1.wav,Pink_Noise_2_2.wav,,,,,,,,,,,,,,,0,29,29,96,,,,,,,,,,,,,,,,,,,,,,,252.8096741491463,None,254.3097659230698,None,255.6930257701315,None,"eve
",255.6930257701315,None,return,1.3362538239452988,255.77646132116206,None,,,,,,,,,,,,,,,,,,,,,,,,,,,,,,,,,56,001,2023_Mar_15_1135,SpeechDraft1Carolyn_lessNoise_PlusLocalization,2021.2.3,59.92418434921777,
fraud.wav,fraud.mpg,fraud,3,A,Pink_Noise_3_1.wav,Pink_Noise_3_2.wav,,,,,,,,,,,,,,,0,30,30,24,,,,,,,,,,,,,,,,,,,,,,,257.1432287020143,None,258.64292712998576,None,260.0265153001528,None,"fraud
",260.0265153001528,None,return,3.018718778155744,260.10999262612313,None,,,,,,,,,,,,,,,,,,,,,,,,,,,,,,,,,56,001,2023_Mar_15_1135,SpeechDraft1Carolyn_lessNoise_PlusLocalization,2021.2.3,59.92418434921777,
dope.wav,dope.mpg,dope,4,AV,Pink_Noise_4_1.wav,Pink_Noise_4_2.wav,,,,,,,,,,,,,,,0,31,31,68,,,,,,,,,,,,,,,,,,,,,,,263.15970453596674,None,264.65949866594747,None,266.04294251604006,None,dope,266.04294251604006,None,return,3.778074927860871,266.1266658080276,None,,,,,,,,,,,,,,,,,,,,,,,,,,,,,,,,,56,001,2023_Mar_15_1135,SpeechDraft1Carolyn_lessNoise_PlusLocalization,2021.2.3,59.92418434921777,
fluff.wav,fluff.mpg,fluff,1,AV,Pink_Noise_1_1.wav,Pink_Noise_1_2.wav,,,,,,,,,,,,,,,0,32,32,93,,,,,,,,,,,,,,,,,,,,,,,269.9264586539939,None,271.42607360798866,None,272.80965097411536,None,dluff,272.80965097411536,None,return,2.0997797469608486,272.8929858650081,None,,,,,,,,,,,,,,,,,,,,,,,,,,,,,,,,,56,001,2023_Mar_15_1135,SpeechDraft1Carolyn_lessNoise_PlusLocalization,2021.2.3,59.92418434921777,
budge.wav,budge.mpg,budge,6,AV,Pink_Noise_6_1.wav,Pink_Noise_6_2.wav,,,,,,,,,,,,,,,0,33,33,95,,,,,,,,,,,,,,,,,,,,,,,275.0096271811053,None,276.5093540181406,None,277.89328266493976,None,bunch,277.89328266493976,None,return,8.216343165142462,277.9764381409623,None,,,,,,,,,,,,,,,,,,,,,,,,,,,,,,,,,56,001,2023_Mar_15_1135,SpeechDraft1Carolyn_lessNoise_PlusLocalization,2021.2.3,59.92418434921777,
phase.wav,phase.mpg,phase,1,AV,Pink_Noise_1_1.wav,Pink_Noise_1_2.wav,,,,,,,,,,,,,,,0,34,34,84,,,,,,,,,,,,,,,,,,,,,,,286.2099771371577,None,287.70968202711083,None,289.0929703160655,None,faxe,289.0929703160655,None,return,1.6163703738711774,289.17640354298055,None,,,,,,,,,,,,,,,,,,,,,,,,,,,,,,,,,56,001,2023_Mar_15_1135,SpeechDraft1Carolyn_lessNoise_PlusLocalization,2021.2.3,59.92418434921777,
grace.wav,grace.mpg,grace,1,AV,Pink_Noise_1_1.wav,Pink_Noise_1_2.wav,,,,,,,,,,,,,,,0,35,35,60,,,,,,,,,,,,,,,,,,,,,,,290.80977181112394,None,292.3095948949922,None,293.6931699470151,None,"grace
",293.6931699470151,None,return,2.136057588038966,293.77668115193956,None,,,,,,,,,,,,,,,,,,,,,,,,,,,,,,,,,56,001,2023_Mar_15_1135,SpeechDraft1Carolyn_lessNoise_PlusLocalization,2021.2.3,59.92418434921777,
brief.wav,brief.mpg,brief,4,AV,Pink_Noise_4_1.wav,Pink_Noise_4_2.wav,,,,,,,,,,,,,,,0,36,36,116,,,,,,,,,,,,,,,,,,,,,,,295.9430885941256,None,297.45953080803156,None,298.8432910621632,None,brief,298.8432910621632,None,return,1.9063721150159836,298.9264495400712,None,,,,,,,,,,,,,,,,,,,,,,,,,,,,,,,,,56,001,2023_Mar_15_1135,SpeechDraft1Carolyn_lessNoise_PlusLocalization,2021.2.3,59.92418434921777,
bib.wav,bib.mpg,bib,6,A,Pink_Noise_6_1.wav,Pink_Noise_6_2.wav,,,,,,,,,,,,,,,0,37,37,2,,,,,,,,,,,,,,,,,,,,,,,300.8598195600789,None,302.35956655209884,None,303.74309199210256,None,his,303.74309199210256,None,return,2.6142418440431356,303.8265139670111,None,,,,,,,,,,,,,,,,,,,,,,,,,,,,,,,,,56,001,2023_Mar_15_1135,SpeechDraft1Carolyn_lessNoise_PlusLocalization,2021.2.3,59.92418434921777,
dense.wav,dense.mpg,dense,4,A,Pink_Noise_4_1.wav,Pink_Noise_4_2.wav,,,,,,,,,,,,,,,0,38,38,40,,,,,,,,,,,,,,,,,,,,,,,306.4597713230178,None,307.9593853650149,None,309.34310892107897,None,lip,309.34310892107897,None,return,1.2222906530369073,309.42655365215614,None,,,,,,,,,,,,,,,,,,,,,,,,,,,,,,,,,56,001,2023_Mar_15_1135,SpeechDraft1Carolyn_lessNoise_PlusLocalization,2021.2.3,59.92418434921777,
clothe.wav,clothe.mpg,clothe,2,AV,Pink_Noise_2_1.wav,Pink_Noise_2_2.wav,,,,,,,,,,,,,,,0,39,39,108,,,,,,,,,,,,,,,,,,,,,,,310.67633175104856,None,312.17609163816087,None,313.5599144890439,None,cloth,313.5599144890439,None,return,1.7415978040080518,313.6430810741149,None,,,,,,,,,,,,,,,,,,,,,,,,,,,,,,,,,56,001,2023_Mar_15_1135,SpeechDraft1Carolyn_lessNoise_PlusLocalization,2021.2.3,59.92418434921777,
eel.wav,eel.mpg,eel,5,A,Pink_Noise_5_1.wav,Pink_Noise_5_2.wav,,,,,,,,,,,,,,,0,40,40,15,,,,,,,,,,,,,,,,,,,,,,,315.4097979590297,None,316.909480977105,None,318.2931726111565,None,eek,318.2931726111565,None,return,0.5922100651077926,318.3764965981245,None,,,,,,,,,,,,,,,,,,,,,,,,,,,,,,,,,56,001,2023_Mar_15_1135,SpeechDraft1Carolyn_lessNoise_PlusLocalization,2021.2.3,59.92418434921777,
dip.wav,dip.mpg,dip,2,A,Pink_Noise_2_1.wav,Pink_Noise_2_2.wav,,,,,,,,,,,,,,,0,41,41,50,,,,,,,,,,,,,,,,,,,,,,,318.99311431800015,None,320.4927214400377,None,321.87637499999255,None,dip,321.87637499999255,None,return,3.4810368709731847,321.95972941303626,None,,,,,,,,,,,,,,,,,,,,,,,,,,,,,,,,,56,001,2023_Mar_15_1135,SpeechDraft1Carolyn_lessNoise_PlusLocalization,2021.2.3,59.92418434921777,
brawl.wav,brawl.mpg,brawl,2,A,Pink_Noise_2_1.wav,Pink_Noise_2_2.wav,,,,,,,,,,,,,,,0,42,42,27,,,,,,,,,,,,,,,,,,,,,,,325.45976501796395,None,326.9596739569679,None,328.34316327702254,None,"brawl
",328.34316327702254,None,return,4.318204333074391,328.42651542602107,None,,,,,,,,,,,,,,,,,,,,,,,,,,,,,,,,,56,001,2023_Mar_15_1135,SpeechDraft1Carolyn_lessNoise_PlusLocalization,2021.2.3,59.92418434921777,
flag.wav,flag.mpg,flag,5,AV,Pink_Noise_5_1.wav,Pink_Noise_5_2.wav,,,,,,,,,,,,,,,0,43,43,66,,,,,,,,,,,,,,,,,,,,,,,332.7764951449353,None,334.276514996076,None,335.659717438044,None,"dive
",335.659717438044,None,return,1.7695818410720676,335.74314753408544,None,,,,,,,,,,,,,,,,,,,,,,,,,,,,,,,,,56,001,2023_Mar_15_1135,SpeechDraft1Carolyn_lessNoise_PlusLocalization,2021.2.3,59.92418434921777,
grin.wav,grin.mpg,grin,2,AV,Pink_Noise_2_1.wav,Pink_Noise_2_2.wav,,,,,,,,,,,,,,,0,44,44,90,,,,,,,,,,,,,,,,,,,,,,,337.54337910795584,None,339.04287948203273,None,340.4264546839986,None,grin,340.4264546839986,None,return,1.930635266005993,340.5100864721462,None,,,,,,,,,,,,,,,,,,,,,,,,,,,,,,,,,56,001,2023_Mar_15_1135,SpeechDraft1Carolyn_lessNoise_PlusLocalization,2021.2.3,59.92418434921777,
glove.wav,glove.mpg,glove,4,A,Pink_Noise_4_1.wav,Pink_Noise_4_2.wav,,,,,,,,,,,,,,,0,45,45,34,,,,,,,,,,,,,,,,,,,,,,,342.459870088147,None,343.9594951600302,None,345.34318115003407,None,glide,345.34318115003407,None,return,6.422185181872919,345.42672022711486,None,,,,,,,,,,,,,,,,,,,,,,,,,,,,,,,,,56,001,2023_Mar_15_1135,SpeechDraft1Carolyn_lessNoise_PlusLocalization,2021.2.3,59.92418434921777,
quart.wav,quart.mpg,quart,2,A,Pink_Noise_2_1.wav,Pink_Noise_2_2.wav,,,,,,,,,,,,,,,0,46,46,53,,,,,,,,,,,,,,,,,,,,,,,351.8928242069669,None,353.3927836660296,None,354.77677031513304,None,court,354.77677031513304,None,return,1.8287343820556998,354.85998317599297,None,,,,,,,,,,,,,,,,,,,,,,,,,,,,,,,,,56,001,2023_Mar_15_1135,SpeechDraft1Carolyn_lessNoise_PlusLocalization,2021.2.3,59.92418434921777,
fame.wav,fame.mpg,fame,1,A,Pink_Noise_1_1.wav,Pink_Noise_1_2.wav,,,,,,,,,,,,,,,0,47,47,49,,,,,,,,,,,,,,,,,,,,,,,356.7097634279635,None,358.20946082798764,None,359.59324198798276,None,"fanh
",359.59324198798276,None,return,1.8521863201167434,359.67651648493484,None,,,,,,,,,,,,,,,,,,,,,,,,,,,,,,,,,56,001,2023_Mar_15_1135,SpeechDraft1Carolyn_lessNoise_PlusLocalization,2021.2.3,59.92418434921777,
flesh.wav,flesh.mpg,flesh,3,A,Pink_Noise_3_1.wav,Pink_Noise_3_2.wav,,,,,,,,,,,,,,,0,48,48,46,,,,,,,,,,,,,,,,,,,,,,,361.5598257021047,None,363.0594870650675,None,364.4433512331452,None,"brush
",364.4433512331452,None,return,6.61826958716847,364.5264597281348,None,,,,,,,,,,,,,,,,,,,,,,,,,,,,,,,,,56,001,2023_Mar_15_1135,SpeechDraft1Carolyn_lessNoise_PlusLocalization,2021.2.3,59.92418434921777,
blink.wav,blink.mpg,blink,1,AV,Pink_Noise_1_1.wav,Pink_Noise_1_2.wav,,,,,,,,,,,,,,,0,49,49,107,,,,,,,,,,,,,,,,,,,,,,,371.17651996714994,None,372.6762285360601,None,374.0597810430918,None,blink,374.0597810430918,None,return,3.6736486449372023,374.1431463879999,None,,,,,,,,,,,,,,,,,,,,,,,,,,,,,,,,,56,001,2023_Mar_15_1135,SpeechDraft1Carolyn_lessNoise_PlusLocalization,2021.2.3,59.92418434921777,
chunk.wav,chunk.mpg,chunk,5,AV,Pink_Noise_5_1.wav,Pink_Noise_5_2.wav,,,,,,,,,,,,,,,0,50,50,91,,,,,,,,,,,,,,,,,,,,,,,377.8436597271357,None,379.3429343770258,None,380.7264711789321,None,chuck,380.7264711789321,None,return,5.406889938050881,380.8099135621451,None,,,,,,,,,,,,,,,,,,,,,,,,,,,,,,,,,56,001,2023_Mar_15_1135,SpeechDraft1Carolyn_lessNoise_PlusLocalization,2021.2.3,59.92418434921777,
blush.wav,blush.mpg,blush,2,A,Pink_Noise_2_1.wav,Pink_Noise_2_2.wav,,,,,,,,,,,,,,,0,51,51,38,,,,,,,,,,,,,,,,,,,,,,,386.24333216110244,None,387.743173455121,None,389.1268994160928,None,plush,389.1268994160928,None,return,3.6868356089107692,389.20987618202344,None,,,,,,,,,,,,,,,,,,,,,,,,,,,,,,,,,56,001,2023_Mar_15_1135,SpeechDraft1Carolyn_lessNoise_PlusLocalization,2021.2.3,59.92418434921777,
fade.wav,fade.mpg,fade,3,AV,Pink_Noise_3_1.wav,Pink_Noise_3_2.wav,,,,,,,,,,,,,,,0,52,52,103,,,,,,,,,,,,,,,,,,,,,,,392.9267065101303,None,394.42638383898884,None,395.8097755149938,None,fang,395.8097755149938,None,return,3.5555695418734103,395.8932532980107,None,,,,,,,,,,,,,,,,,,,,,,,,,,,,,,,,,56,001,2023_Mar_15_1135,SpeechDraft1Carolyn_lessNoise_PlusLocalization,2021.2.3,59.92418434921777,
blade.wav,blade.mpg,blade,1,AV,Pink_Noise_1_1.wav,Pink_Noise_1_2.wav,,,,,,,,,,,,,,,0,53,53,104,,,,,,,,,,,,,,,,,,,,,,,399.47664582612924,None,400.9762681501452,None,402.360113570001,None,blaid,402.360113570001,None,return,4.397412271937355,402.44333232799545,None,,,,,,,,,,,,,,,,,,,,,,,,,,,,,,,,,56,001,2023_Mar_15_1135,SpeechDraft1Carolyn_lessNoise_PlusLocalization,2021.2.3,59.92418434921777,
earn.wav,earn.mpg,earn,6,AV,Pink_Noise_6_1.wav,Pink_Noise_6_2.wav,,,,,,,,,,,,,,,0,54,54,102,,,,,,,,,,,,,,,,,,,,,,,406.86002734396607,None,408.3595876120962,None,409.74335709703155,None,old,409.74335709703155,None,return,1.0141966389492154,409.82656296994537,None,,,,,,,,,,,,,,,,,,,,,,,,,,,,,,,,,56,001,2023_Mar_15_1135,SpeechDraft1Carolyn_lessNoise_PlusLocalization,2021.2.3,59.92418434921777,
bug.wav,bug.mpg,bug,1,AV,Pink_Noise_1_1.wav,Pink_Noise_1_2.wav,,,,,,,,,,,,,,,0,55,55,63,,,,,,,,,,,,,,,,,,,,,,,410.86004685005173,None,412.3595152681228,None,413.74342526099645,None,bug,413.74342526099645,None,return,1.309747472172603,413.82696853694506,None,,,,,,,,,,,,,,,,,,,,,,,,,,,,,,,,,56,001,2023_Mar_15_1135,SpeechDraft1Carolyn_lessNoise_PlusLocalization,2021.2.3,59.92418434921777,
gift.wav,gift.mpg,gift,3,A,Pink_Noise_3_1.wav,Pink_Noise_3_2.wav,,,,,,,,,,,,,,,0,56,56,23,,,,,,,,,,,,,,,,,,,,,,,415.15991908102296,None,416.65950111998245,None,418.04328345204704,None,gift,418.04328345204704,None,return,3.050164704909548,418.1265637080651,None,,,,,,,,,,,,,,,,,,,,,,,,,,,,,,,,,56,001,2023_Mar_15_1135,SpeechDraft1Carolyn_lessNoise_PlusLocalization,2021.2.3,59.92418434921777,
bare.wav,bare.mpg,bare,6,AV,Pink_Noise_6_1.wav,Pink_Noise_6_2.wav,,,,,,,,,,,,,,,0,57,57,61,,,,,,,,,,,,,,,,,,,,,,,421.1932160081342,None,422.69290127116255,None,424.07652386301197,None,bear,424.07652386301197,None,return,1.0728158259298652,424.15999473212287,None,,,,,,,,,,,,,,,,,,,,,,,,,,,,,,,,,56,001,2023_Mar_15_1135,SpeechDraft1Carolyn_lessNoise_PlusLocalization,2021.2.3,59.92418434921777,
gray.wav,gray.mpg,gray,4,AV,Pink_Noise_4_1.wav,Pink_Noise_4_2.wav,,,,,,,,,,,,,,,0,58,58,76,,,,,,,,,,,,,,,,,,,,,,,425.25991998799145,None,426.7596976310015,None,428.1435894239694,None,grey,428.1435894239694,None,return,1.190239252988249,428.2266059620306,None,,,,,,,,,,,,,,,,,,,,,,,,,,,,,,,,,56,001,2023_Mar_15_1135,SpeechDraft1Carolyn_lessNoise_PlusLocalization,2021.2.3,59.92418434921777,
glass.wav,glass.mpg,glass,5,AV,Pink_Noise_5_1.wav,Pink_Noise_5_2.wav,,,,,,,,,,,,,,,0,59,59,92,,,,,,,,,,,,,,,,,,,,,,,429.44346527801827,None,430.9428979831282,None,432.32663982501253,None,class,432.32663982501253,None,return,1.2549008319620043,432.40991369308904,None,,,,,,,,,,,,,,,,,,,,,,,,,,,,,,,,,56,001,2023_Mar_15_1135,SpeechDraft1Carolyn_lessNoise_PlusLocalization,2021.2.3,59.92418434921777,
bland.wav,bland.mpg,bland,2,A,Pink_Noise_2_1.wav,Pink_Noise_2_2.wav,,,,,,,,,,,,,,,0,60,60,11,,,,,,,,,,,,,,,,,,,,,,,433.6932324981317,None,435.19324885797687,None,436.576685765991,None,"bland
",436.576685765991,None,return,5.252762750023976,436.65994076197967,None,,,,,,,,,,,,,,,,,,,,,,,,,,,,,,,,,56,001,2023_Mar_15_1135,SpeechDraft1Carolyn_lessNoise_PlusLocalization,2021.2.3,59.92418434921777,
deal.wav,deal.mpg,deal,1,AV,Pink_Noise_1_1.wav,Pink_Noise_1_2.wav,,,,,,,,,,,,,,,0,61,61,77,,,,,,,,,,,,,,,,,,,,,,,441.9435023169499,None,443.4429639179725,None,444.8266509459354,None,deal,444.8266509459354,None,return,2.530410114908591,444.9103278541006,None,,,,,,,,,,,,,,,,,,,,,,,,,,,,,,,,,56,001,2023_Mar_15_1135,SpeechDraft1Carolyn_lessNoise_PlusLocalization,2021.2.3,59.92418434921777,
bust.wav,bust.mpg,bust,2,A,Pink_Noise_2_1.wav,Pink_Noise_2_2.wav,,,,,,,,,,,,,,,0,62,62,32,,,,,,,,,,,,,,,,,,,,,,,447.4599689261522,None,448.9596389911603,None,450.3432835121639,None,bust,450.3432835121639,None,return,1.6618997789919376,450.42682147794403,None,,,,,,,,,,,,,,,,,,,,,,,,,,,,,,,,,56,001,2023_Mar_15_1135,SpeechDraft1Carolyn_lessNoise_PlusLocalization,2021.2.3,59.92418434921777,
cuff.wav,cuff.mpg,cuff,3,AV,Pink_Noise_3_1.wav,Pink_Noise_3_2.wav,,,,,,,,,,,,,,,0,63,63,94,,,,,,,,,,,,,,,,,,,,,,,452.10997213004157,None,453.61029020510614,None,454.99326391215436,None,cuff,454.99326391215436,None,return,3.6279919990338385,455.07671719114296,None,,,,,,,,,,,,,,,,,,,,,,,,,,,,,,,,,56,001,2023_Mar_15_1135,SpeechDraft1Carolyn_lessNoise_PlusLocalization,2021.2.3,59.92418434921777,
grow.wav,grow.mpg,grow,2,A,Pink_Noise_2_1.wav,Pink_Noise_2_2.wav,,,,,,,,,,,,,,,0,64,64,28,,,,,,,,,,,,,,,,,,,,,,,458.7267653271556,None,460.22661522915587,None,461.6102379539516,None,grow,461.6102379539516,None,return,2.1713979539927095,461.69345638598315,None,,,,,,,,,,,,,,,,,,,,,,,,,,,,,,,,,56,001,2023_Mar_15_1135,SpeechDraft1Carolyn_lessNoise_PlusLocalization,2021.2.3,59.92418434921777,
fox.wav,fox.mpg,fox,6,A,Pink_Noise_6_1.wav,Pink_Noise_6_2.wav,,,,,,,,,,,,,,,0,65,65,54,,,,,,,,,,,,,,,,,,,,,,,463.89333558711223,None,465.3929173720535,None,466.7766886029858,None,no,466.7766886029858,None,return,2.6607891749590635,466.859958617948,None,,,,,,,,,,,,,,,,,,,,,,,,,,,,,,,,,56,001,2023_Mar_15_1135,SpeechDraft1Carolyn_lessNoise_PlusLocalization,2021.2.3,59.92418434921777,
cent.wav,cent.mpg,cent,6,A,Pink_Noise_6_1.wav,Pink_Noise_6_2.wav,,,,,,,,,,,,,,,0,66,66,55,,,,,,,,,,,,,,,,,,,,,,,469.5436257480178,None,471.0441445331089,None,472.42666905606166,None,no,472.42666905606166,None,return,1.1065972840879112,472.51022010599263,None,,,,,,,,,,,,,,,,,,,,,,,,,,,,,,,,,56,001,2023_Mar_15_1135,SpeechDraft1Carolyn_lessNoise_PlusLocalization,2021.2.3,59.92418434921777,
flair.wav,flair.mpg,flair,6,A,Pink_Noise_6_1.wav,Pink_Noise_6_2.wav,,,,,,,,,,,,,,,0,67,67,18,,,,,,,,,,,,,,,,,,,,,,,473.64332364103757,None,475.14311085199006,None,476.52672971598804,None,"no
",476.52672971598804,None,return,0.5345492651686072,476.6101659350097,None,,,,,,,,,,,,,,,,,,,,,,,,,,,,,,,,,56,001,2023_Mar_15_1135,SpeechDraft1Carolyn_lessNoise_PlusLocalization,2021.2.3,59.92418434921777,
crush.wav,crush.mpg,crush,3,A,Pink_Noise_3_1.wav,Pink_Noise_3_2.wav,,,,,,,,,,,,,,,0,68,68,20,,,,,,,,,,,,,,,,,,,,,,,477.17691619112156,None,478.693064623978,None,480.0766810080968,None,crush,480.0766810080968,None,return,2.528709570178762,480.16003929194994,None,,,,,,,,,,,,,,,,,,,,,,,,,,,,,,,,,56,001,2023_Mar_15_1135,SpeechDraft1Carolyn_lessNoise_PlusLocalization,2021.2.3,59.92418434921777,
fall.wav,fall.mpg,fall,5,A,Pink_Noise_5_1.wav,Pink_Noise_5_2.wav,,,,,,,,,,,,,,,0,69,69,7,,,,,,,,,,,,,,,,,,,,,,,482.710047069937,None,484.20956986793317,None,485.59329559700564,None,noss,485.59329559700564,None,return,1.9079983159899712,485.6767060770653,None,,,,,,,,,,,,,,,,,,,,,,,,,,,,,,,,,56,001,2023_Mar_15_1135,SpeechDraft1Carolyn_lessNoise_PlusLocalization,2021.2.3,59.92418434921777,
dead.wav,dead.mpg,dead,5,A,Pink_Noise_5_1.wav,Pink_Noise_5_2.wav,,,,,,,,,,,,,,,0,70,70,9,,,,,,,,,,,,,,,,,,,,,,,487.61003727302887,None,489.1096884419676,None,490.4936309240293,None,dead,490.4936309240293,None,return,1.0881047130096704,490.576700089965,None,,,,,,,,,,,,,,,,,,,,,,,,,,,,,,,,,56,001,2023_Mar_15_1135,SpeechDraft1Carolyn_lessNoise_PlusLocalization,2021.2.3,59.92418434921777,
cape.wav,cape.mpg,cape,5,A,Pink_Noise_5_1.wav,Pink_Noise_5_2.wav,,,,,,,,,,,,,,,0,71,71,58,,,,,,,,,,,,,,,,,,,,,,,491.69330882211216,None,493.19302987796254,None,494.57680992316455,None,no,494.57680992316455,None,return,2.140467958059162,494.6603259909898,None,,,,,,,,,,,,,,,,,,,,,,,,,,,,,,,,,56,001,2023_Mar_15_1135,SpeechDraft1Carolyn_lessNoise_PlusLocalization,2021.2.3,59.92418434921777,
fool.wav,fool.mpg,fool,6,A,Pink_Noise_6_1.wav,Pink_Noise_6_2.wav,,,,,,,,,,,,,,,0,72,72,29,,,,,,,,,,,,,,,,,,,,,,,496.82667559105903,None,498.326448997017,None,499.710214083083,None,,499.710214083083,None,return,0.12714726198464632,499.7935386840254,None,,,,,,,,,,,,,,,,,,,,,,,,,,,,,,,,,56,001,2023_Mar_15_1135,SpeechDraft1Carolyn_lessNoise_PlusLocalization,2021.2.3,59.92418434921777,
beef.wav,beef.mpg,beef,4,AV,Pink_Noise_4_1.wav,Pink_Noise_4_2.wav,,,,,,,,,,,,,,,0,73,73,83,,,,,,,,,,,,,,,,,,,,,,,499.9433484619949,None,501.4443768069614,None,502.8269756711088,None,theif,502.8269756711088,None,return,1.6745406100526452,502.9101905950811,None,,,,,,,,,,,,,,,,,,,,,,,,,,,,,,,,,56,001,2023_Mar_15_1135,SpeechDraft1Carolyn_lessNoise_PlusLocalization,2021.2.3,59.92418434921777,
blond.wav,blond.mpg,blond,1,A,Pink_Noise_1_1.wav,Pink_Noise_1_2.wav,,,,,,,,,,,,,,,0,74,74,13,,,,,,,,,,,,,,,,,,,,,,,504.61016153893434,None,506.1099873150233,None,507.49361073505133,None,"blonde
",507.49361073505133,None,return,3.1839568680152297,507.5767539970111,None,,,,,,,,,,,,,,,,,,,,,,,,,,,,,,,,,56,001,2023_Mar_15_1135,SpeechDraft1Carolyn_lessNoise_PlusLocalization,2021.2.3,59.92418434921777,
cart.wav,cart.mpg,cart,4,A,Pink_Noise_4_1.wav,Pink_Noise_4_2.wav,,,,,,,,,,,,,,,0,75,75,31,,,,,,,,,,,,,,,,,,,,,,,510.793663314078,None,512.2930361800827,None,513.6767860869877,None,are,513.6767860869877,None,return,1.760676811914891,513.7600311830174,None,,,,,,,,,,,,,,,,,,,,,,,,,,,,,,,,,56,001,2023_Mar_15_1135,SpeechDraft1Carolyn_lessNoise_PlusLocalization,2021.2.3,59.92418434921777,
crown.wav,crown.mpg,crown,2,AV,Pink_Noise_2_1.wav,Pink_Noise_2_2.wav,,,,,,,,,,,,,,,0,76,76,100,,,,,,,,,,,,,,,,,,,,,,,515.5433765221387,None,517.0440818809438,None,518.4267239989713,None,crown,518.4267239989713,None,return,4.738657684996724,518.5101510209497,None,,,,,,,,,,,,,,,,,,,,,,,,,,,,,,,,,56,001,2023_Mar_15_1135,SpeechDraft1Carolyn_lessNoise_PlusLocalization,2021.2.3,59.92418434921777,
chin.wav,chin.mpg,chin,3,AV,Pink_Noise_3_1.wav,Pink_Noise_3_2.wav,,,,,,,,,,,,,,,0,77,77,85,,,,,,,,,,,,,,,,,,,,,,,523.2769739821088,None,524.7775430299807,None,526.1600524231326,None,chun,526.1600524231326,None,return,1.325317309005186,526.2433861850295,None,,,,,,,,,,,,,,,,,,,,,,,,,,,,,,,,,56,001,2023_Mar_15_1135,SpeechDraft1Carolyn_lessNoise_PlusLocalization,2021.2.3,59.92418434921777,
grasp.wav,grasp.mpg,grasp,1,A,Pink_Noise_1_1.wav,Pink_Noise_1_2.wav,,,,,,,,,,,,,,,0,78,78,8,,,,,,,,,,,,,,,,,,,,,,,527.5934623889625,None,529.0934982590843,None,530.4767810711637,None,grasp,530.4767810711637,None,return,1.2805262138135731,530.5602364421356,None,,,,,,,,,,,,,,,,,,,,,,,,,,,,,,,,,56,001,2023_Mar_15_1135,SpeechDraft1Carolyn_lessNoise_PlusLocalization,2021.2.3,59.92418434921777,
dwell.wav,dwell.mpg,dwell,2,A,Pink_Noise_2_1.wav,Pink_Noise_2_2.wav,,,,,,,,,,,,,,,0,79,79,36,,,,,,,,,,,,,,,,,,,,,,,531.8601250939537,None,533.3603149550036,None,534.7433856071439,None,dwell,534.7433856071439,None,return,1.3576990850269794,534.8270100620575,None,,,,,,,,,,,,,,,,,,,,,,,,,,,,,,,,,56,001,2023_Mar_15_1135,SpeechDraft1Carolyn_lessNoise_PlusLocalization,2021.2.3,59.92418434921777,
grim.wav,grim.mpg,grim,4,A,Pink_Noise_4_1.wav,Pink_Noise_4_2.wav,,,,,,,,,,,,,,,0,80,80,43,,,,,,,,,,,,,,,,,,,,,,,536.2100635680836,None,537.7097422119696,None,539.0937119959854,None,rent,539.0937119959854,None,return,0.6800476778298616,539.1767514699604,None,,,,,,,,,,,,,,,,,,,,,,,,,,,,,,,,,56,001,2023_Mar_15_1135,SpeechDraft1Carolyn_lessNoise_PlusLocalization,2021.2.3,59.92418434921777,
buzz.wav,buzz.mpg,buzz,1,A,Pink_Noise_1_1.wav,Pink_Noise_1_2.wav,,,,,,,,,,,,,,,0,81,81,21,,,,,,,,,,,,,,,,,,,,,,,539.8768427651376,None,541.3932113971096,None,542.7767355490942,None,nuzz,542.7767355490942,None,return,0.8285662489943206,542.8601455809548,None,,,,,,,,,,,,,,,,,,,,,,,,,,,,,,,,,56,001,2023_Mar_15_1135,SpeechDraft1Carolyn_lessNoise_PlusLocalization,2021.2.3,59.92418434921777,
oats.wav,oats.mpg,oats,2,AV,Pink_Noise_2_1.wav,Pink_Noise_2_2.wav,,,,,,,,,,,,,,,0,82,82,73,,,,,,,,,,,,,,,,,,,,,,,543.7103162889834,None,545.2098350930028,None,546.5938423681073,None,oats,546.5938423681073,None,return,2.003972435835749,546.6767477639951,None,,,,,,,,,,,,,,,,,,,,,,,,,,,,,,,,,56,001,2023_Mar_15_1135,SpeechDraft1Carolyn_lessNoise_PlusLocalization,2021.2.3,59.92418434921777,
beige.wav,beige.mpg,beige,4,A,Pink_Noise_4_1.wav,Pink_Noise_4_2.wav,,,,,,,,,,,,,,,0,83,83,45,,,,,,,,,,,,,,,,,,,,,,,548.7100488799624,None,550.2096446170472,None,551.5936045949347,None,beige,551.5936045949347,None,return,1.2919869881588966,551.6767302860972,None,,,,,,,,,,,,,,,,,,,,,,,,,,,,,,,,,56,001,2023_Mar_15_1135,SpeechDraft1Carolyn_lessNoise_PlusLocalization,2021.2.3,59.92418434921777,
castle.wav,castle.mpg,castle,5,AV,Pink_Noise_5_1.wav,Pink_Noise_5_2.wav,,,,,,,,,,,,,,,0,84,84,115,,,,,,,,,,,,,,,,,,,,,,,552.9936472231057,None,554.493159975158,None,555.8767886939459,None,castle,555.8767886939459,None,return,1.7605823220219463,555.9601193950512,None,,,,,,,,,,,,,,,,,,,,,,,,,,,,,,,,,56,001,2023_Mar_15_1135,SpeechDraft1Carolyn_lessNoise_PlusLocalization,2021.2.3,59.92418434921777,
dock.wav,dock.mpg,dock,6,AV,Pink_Noise_6_1.wav,Pink_Noise_6_2.wav,,,,,,,,,,,,,,,0,85,85,74,,,,,,,,,,,,,,,,,,,,,,,557.7434117200319,None,559.2431213210803,None,560.6268742841203,None,cap,560.6268742841203,None,return,1.906583501957357,560.710218844004,None,,,,,,,,,,,,,,,,,,,,,,,,,,,,,,,,,56,001,2023_Mar_15_1135,SpeechDraft1Carolyn_lessNoise_PlusLocalization,2021.2.3,59.92418434921777,
chick.wav,chick.mpg,chick,4,A,Pink_Noise_4_1.wav,Pink_Noise_4_2.wav,,,,,,,,,,,,,,,0,86,86,19,,,,,,,,,,,,,,,,,,,,,,,562.6435516751371,None,564.1431062901393,None,565.5270671739709,None,"chin
",565.5270671739709,None,return,0.8865806830581278,565.6101338409353,None,,,,,,,,,,,,,,,,,,,,,,,,,,,,,,,,,56,001,2023_Mar_15_1135,SpeechDraft1Carolyn_lessNoise_PlusLocalization,2021.2.3,59.92418434921777,
pride.wav,pride.mpg,pride,3,A,Pink_Noise_3_1.wav,Pink_Noise_3_2.wav,,,,,,,,,,,,,,,0,87,87,25,,,,,,,,,,,,,,,,,,,,,,,566.5268402320798,None,568.0278884430882,None,569.4101573261432,None,size,569.4101573261432,None,return,1.8272724840790033,569.4934371730778,None,,,,,,,,,,,,,,,,,,,,,,,,,,,,,,,,,56,001,2023_Mar_15_1135,SpeechDraft1Carolyn_lessNoise_PlusLocalization,2021.2.3,59.92418434921777,
pact.wav,pact.mpg,pact,5,AV,Pink_Noise_5_1.wav,Pink_Noise_5_2.wav,,,,,,,,,,,,,,,0,88,88,119,,,,,,,,,,,,,,,,,,,,,,,571.343415124109,None,572.8435794450343,None,574.2267155090813,None,bat,574.2267155090813,None,return,0.994533616816625,574.3102054239716,None,,,,,,,,,,,,,,,,,,,,,,,,,,,,,,,,,56,001,2023_Mar_15_1135,SpeechDraft1Carolyn_lessNoise_PlusLocalization,2021.2.3,59.92418434921777,
bloat.wav,bloat.mpg,bloat,5,A,Pink_Noise_5_1.wav,Pink_Noise_5_2.wav,,,,,,,,,,,,,,,0,89,89,48,,,,,,,,,,,,,,,,,,,,,,,575.3268593831453,None,576.8265280269552,None,578.2103146410082,None,"throat\
",578.2103146410082,None,return,3.666890966007486,578.2938295609783,None,,,,,,,,,,,,,,,,,,,,,,,,,,,,,,,,,56,001,2023_Mar_15_1135,SpeechDraft1Carolyn_lessNoise_PlusLocalization,2021.2.3,59.92418434921777,
drain.wav,drain.mpg,drain,3,AV,Pink_Noise_3_1.wav,Pink_Noise_3_2.wav,,,,,,,,,,,,,,,0,90,90,101,,,,,,,,,,,,,,,,,,,,,,,581.9934289450757,None,583.4932746340055,None,584.8770720581524,None,drain,584.8770720581524,None,return,1.8966459059156477,584.9601632060949,None,,,,,,,,,,,,,,,,,,,,,,,,,,,,,,,,,56,001,2023_Mar_15_1135,SpeechDraft1Carolyn_lessNoise_PlusLocalization,2021.2.3,59.92418434921777,
guilt.wav,guilt.mpg,guilt,4,A,Pink_Noise_4_1.wav,Pink_Noise_4_2.wav,,,,,,,,,,,,,,,0,91,91,12,,,,,,,,,,,,,,,,,,,,,,,586.8771325589623,None,588.3767846261617,None,589.7601656340994,None,guilt,589.7601656340994,None,return,4.389332392951474,589.8434827150777,None,,,,,,,,,,,,,,,,,,,,,,,,,,,,,,,,,56,001,2023_Mar_15_1135,SpeechDraft1Carolyn_lessNoise_PlusLocalization,2021.2.3,59.92418434921777,
spray.wav,spray.mpg,spray,4,AV,Pink_Noise_4_1.wav,Pink_Noise_4_2.wav,,,,,,,,,,,,,,,0,92,92,69,,,,,,,,,,,,,,,,,,,,,,,594.2601416450925,None,595.7764814200345,None,597.1602078150027,None,spread,597.1602078150027,None,return,1.740913175046444,597.2437828870025,None,,,,,,,,,,,,,,,,,,,,,,,,,,,,,,,,,56,001,2023_Mar_15_1135,SpeechDraft1Carolyn_lessNoise_PlusLocalization,2021.2.3,59.92418434921777,
brag.wav,brag.mpg,brag,4,AV,Pink_Noise_4_1.wav,Pink_Noise_4_2.wav,,,,,,,,,,,,,,,0,93,93,80,,,,,,,,,,,,,,,,,,,,,,,599.02664129599,None,600.5433474669699,None,601.9267772210296,None,bread,601.9267772210296,None,return,1.190548251150176,602.0101916079875,None,,,,,,,,,,,,,,,,,,,,,,,,,,,,,,,,,56,001,2023_Mar_15_1135,SpeechDraft1Carolyn_lessNoise_PlusLocalization,2021.2.3,59.92418434921777,
cope.wav,cope.mpg,cope,2,AV,Pink_Noise_2_1.wav,Pink_Noise_2_2.wav,,,,,,,,,,,,,,,0,94,94,112,,,,,,,,,,,,,,,,,,,,,,,603.2267490290105,None,604.7266048940364,None,606.1100941160694,None,"coke
",606.1100941160694,None,return,2.351139022037387,606.193577168975,None,,,,,,,,,,,,,,,,,,,,,,,,,,,,,,,,,56,001,2023_Mar_15_1135,SpeechDraft1Carolyn_lessNoise_PlusLocalization,2021.2.3,59.92418434921777,
dump.wav,dump.mpg,dump,5,AV,Pink_Noise_5_1.wav,Pink_Noise_5_2.wav,,,,,,,,,,,,,,,0,95,95,86,,,,,,,,,,,,,,,,,,,,,,,608.5770438199397,None,610.0767356250435,None,611.4604515749961,None,dump,611.4604515749961,None,return,2.225059079937637,611.5436503640376,None,,,,,,,,,,,,,,,,,,,,,,,,,,,,,,,,,56,001,2023_Mar_15_1135,SpeechDraft1Carolyn_lessNoise_PlusLocalization,2021.2.3,59.92418434921777,
flea.wav,flea.mpg,flea,2,AV,Pink_Noise_2_1.wav,Pink_Noise_2_2.wav,,,,,,,,,,,,,,,0,96,96,118,,,,,,,,,,,,,,,,,,,,,,,613.7938090979587,None,615.294000527123,None,616.6767514920793,None,flee,616.6767514920793,None,return,1.5045011178590357,616.7602217530366,None,,,,,,,,,,,,,,,,,,,,,,,,,,,,,,,,,56,001,2023_Mar_15_1135,SpeechDraft1Carolyn_lessNoise_PlusLocalization,2021.2.3,59.92418434921777,
eye.wav,eye.mpg,eye,5,A,Pink_Noise_5_1.wav,Pink_Noise_5_2.wav,,,,,,,,,,,,,,,0,97,97,33,,,,,,,,,,,,,,,,,,,,,,,618.2936221940909,None,619.8100354189519,None,621.1935436110944,None,eyr,621.1935436110944,None,return,2.5959026529453695,621.2768351391423,None,,,,,,,,,,,,,,,,,,,,,,,,,,,,,,,,,56,001,2023_Mar_15_1135,SpeechDraft1Carolyn_lessNoise_PlusLocalization,2021.2.3,59.92418434921777,
gap.wav,gap.mpg,gap,3,AV,Pink_Noise_3_1.wav,Pink_Noise_3_2.wav,,,,,,,,,,,,,,,0,98,98,106,,,,,,,,,,,,,,,,,,,,,,,623.8935239680577,None,625.3936547969934,None,626.7772301661316,None,gap,626.7772301661316,None,return,0.9566502999514341,626.8601608709432,None,,,,,,,,,,,,,,,,,,,,,,,,,,,,,,,,,56,001,2023_Mar_15_1135,SpeechDraft1Carolyn_lessNoise_PlusLocalization,2021.2.3,59.92418434921777,
feud.wav,feud.mpg,feud,1,A,Pink_Noise_1_1.wav,Pink_Noise_1_2.wav,,,,,,,,,,,,,,,0,99,99,3,,,,,,,,,,,,,,,,,,,,,,,627.8436076350044,None,629.3597722761333,None,630.7435320259538,None,"feid
",630.7435320259538,None,return,1.6697710298467427,630.8269649120048,None,,,,,,,,,,,,,,,,,,,,,,,,,,,,,,,,,56,001,2023_Mar_15_1135,SpeechDraft1Carolyn_lessNoise_PlusLocalization,2021.2.3,59.92418434921777,
dive.wav,dive.mpg,dive,3,A,Pink_Noise_3_1.wav,Pink_Noise_3_2.wav,,,,,,,,,,,,,,,0,100,100,4,,,,,,,,,,,,,,,,,,,,,,,632.5269608011004,None,634.0265769991092,None,635.4104023990221,None,five,635.4104023990221,None,return,1.1549110650084913,635.493869096972,None,,,,,,,,,,,,,,,,,,,,,,,,,,,,,,,,,56,001,2023_Mar_15_1135,SpeechDraft1Carolyn_lessNoise_PlusLocalization,2021.2.3,59.92418434921777,
crank.wav,crank.mpg,crank,6,AV,Pink_Noise_6_1.wav,Pink_Noise_6_2.wav,,,,,,,,,,,,,,,0,101,101,65,,,,,,,,,,,,,,,,,,,,,,,636.6933706100099,None,638.2098927111365,None,639.5935032370035,None,bus,639.5935032370035,None,return,1.3799758469685912,639.6768428829964,None,,,,,,,,,,,,,,,,,,,,,,,,,,,,,,,,,56,001,2023_Mar_15_1135,SpeechDraft1Carolyn_lessNoise_PlusLocalization,2021.2.3,59.92418434921777,
hit.wav,hit.mpg,hit,1,AV,Pink_Noise_1_1.wav,Pink_Noise_1_2.wav,,,,,,,,,,,,,,,0,102,102,99,,,,,,,,,,,,,,,,,,,,,,,641.0772322900593,None,642.59337112098,None,643.9767905140761,None,hit,643.9767905140761,None,return,0.44443653197959065,644.0602775530424,None,,,,,,,,,,,,,,,,,,,,,,,,,,,,,,,,,56,001,2023_Mar_15_1135,SpeechDraft1Carolyn_lessNoise_PlusLocalization,2021.2.3,59.92418434921777,
dine.wav,dine.mpg,dine,3,AV,Pink_Noise_3_1.wav,Pink_Noise_3_2.wav,,,,,,,,,,,,,,,0,103,103,105,,,,,,,,,,,,,,,,,,,,,,,644.5268624010496,None,646.0270020780154,None,647.4101066261064,None,iv,647.4101066261064,None,return,0.3952071729581803,647.4935362450778,None,,,,,,,,,,,,,,,,,,,,,,,,,,,,,,,,,56,001,2023_Mar_15_1135,SpeechDraft1Carolyn_lessNoise_PlusLocalization,2021.2.3,59.92418434921777,
greed.wav,greed.mpg,greed,2,AV,Pink_Noise_2_1.wav,Pink_Noise_2_2.wav,,,,,,,,,,,,,,,0,104,104,113,,,,,,,,,,,,,,,,,,,,,,,647.9101677450817,None,649.4266767119989,None,650.8101424290799,None,"greed
",650.8101424290799,None,return,0.9869071810971946,650.8938120689709,None,,,,,,,,,,,,,,,,,,,,,,,,,,,,,,,,,56,001,2023_Mar_15_1135,SpeechDraft1Carolyn_lessNoise_PlusLocalization,2021.2.3,59.92418434921777,
nine.wav,nine.mpg,nine,3,AV,Pink_Noise_3_1.wav,Pink_Noise_3_2.wav,,,,,,,,,,,,,,,0,105,105,75,,,,,,,,,,,,,,,,,,,,,,,651.9102817170788,None,653.4266779031605,None,654.8101442330517,None,ine,654.8101442330517,None,return,0.32295945892110467,654.8938481030054,None,,,,,,,,,,,,,,,,,,,,,,,,,,,,,,,,,56,001,2023_Mar_15_1135,SpeechDraft1Carolyn_lessNoise_PlusLocalization,2021.2.3,59.92418434921777,
bound.wav,bound.mpg,bound,6,A,Pink_Noise_6_1.wav,Pink_Noise_6_2.wav,,,,,,,,,,,,,,,0,106,106,1,,,,,,,,,,,,,,,,,,,,,,,655.2438736029435,None,656.7434432399459,None,658.126869500149,None,no,658.126869500149,None,return,0.7104695390444249,658.2102415489499,None,,,,,,,,,,,,,,,,,,,,,,,,,,,,,,,,,56,001,2023_Mar_15_1135,SpeechDraft1Carolyn_lessNoise_PlusLocalization,2021.2.3,59.92418434921777,
cloak.wav,cloak.mpg,cloak,5,A,Pink_Noise_5_1.wav,Pink_Noise_5_2.wav,,,,,,,,,,,,,,,0,107,107,16,,,,,,,,,,,,,,,,,,,,,,,658.9439007840119,None,660.4602922401391,None,661.8436726969667,None,"
no",661.8436726969667,None,return,1.6740016248077154,661.926828708034,None,,,,,,,,,,,,,,,,,,,,,,,,,,,,,,,,,56,001,2023_Mar_15_1135,SpeechDraft1Carolyn_lessNoise_PlusLocalization,2021.2.3,59.92418434921777,
cloud.wav,cloud.mpg,cloud,5,AV,Pink_Noise_5_1.wav,Pink_Noise_5_2.wav,,,,,,,,,,,,,,,0,108,108,109,,,,,,,,,,,,,,,,,,,,,,,663.6268501970917,None,665.1267159730196,None,666.5101719989907,None,"fiuve
",666.5101719989907,None,return,1.1348888140637428,666.5938469311222,None,,,,,,,,,,,,,,,,,,,,,,,,,,,,,,,,,56,001,2023_Mar_15_1135,SpeechDraft1Carolyn_lessNoise_PlusLocalization,2021.2.3,59.92418434921777,
tart.wav,tart.mpg,tart,3,A,Pink_Noise_3_1.wav,Pink_Noise_3_2.wav,,,,,,,,,,,,,,,0,109,109,52,,,,,,,,,,,,,,,,,,,,,,,667.7603977699764,None,669.2598892131355,None,670.6436295551248,None,art,670.6436295551248,None,return,0.6496976357884705,670.7270745791029,None,,,,,,,,,,,,,,,,,,,,,,,,,,,,,,,,,56,001,2023_Mar_15_1135,SpeechDraft1Carolyn_lessNoise_PlusLocalization,2021.2.3,59.92418434921777,
blob.wav,blob.mpg,blob,6,AV,Pink_Noise_6_1.wav,Pink_Noise_6_2.wav,,,,,,,,,,,,,,,0,110,110,98,,,,,,,,,,,,,,,,,,,,,,,671.3935737840366,None,672.9104370260611,None,674.2938660711516,None,nopr,674.2938660711516,None,return,2.3435989760328084,674.3771075131372,None,,,,,,,,,,,,,,,,,,,,,,,,,,,,,,,,,56,001,2023_Mar_15_1135,SpeechDraft1Carolyn_lessNoise_PlusLocalization,2021.2.3,59.92418434921777,
clumps.wav,clumps.mpg,clumps,3,AV,Pink_Noise_3_1.wav,Pink_Noise_3_2.wav,,,,,,,,,,,,,,,0,111,111,67,,,,,,,,,,,,,,,,,,,,,,,676.7436045531649,None,678.244771359954,None,679.6268890921492,None,vlump,679.6268890921492,None,return,1.7622108520008624,679.7105403081514,None,,,,,,,,,,,,,,,,,,,,,,,,,,,,,,,,,56,001,2023_Mar_15_1135,SpeechDraft1Carolyn_lessNoise_PlusLocalization,2021.2.3,59.92418434921777,
doll.wav,doll.mpg,doll,4,A,Pink_Noise_4_1.wav,Pink_Noise_4_2.wav,,,,,,,,,,,,,,,0,112,112,42,,,,,,,,,,,,,,,,,,,,,,,681.4936168510467,None,683.0099728470668,None,684.3937177951448,None,no,684.3937177951448,None,return,0.6916576637886465,684.477050476009,None,,,,,,,,,,,,,,,,,,,,,,,,,,,,,,,,,56,001,2023_Mar_15_1135,SpeechDraft1Carolyn_lessNoise_PlusLocalization,2021.2.3,59.92418434921777,
beat.wav,beat.mpg,beat,1,AV,Pink_Noise_1_1.wav,Pink_Noise_1_2.wav,,,,,,,,,,,,,,,0,113,113,97,,,,,,,,,,,,,,,,,,,,,,,685.1937282369472,None,686.693876810139,None,688.0768682640046,None,feet,688.0768682640046,None,return,0.7284843751695007,688.1602527890354,None,,,,,,,,,,,,,,,,,,,,,,,,,,,,,,,,,56,001,2023_Mar_15_1135,SpeechDraft1Carolyn_lessNoise_PlusLocalization,2021.2.3,59.92418434921777,
fish.wav,fish.mpg,fish,1,AV,Pink_Noise_1_1.wav,Pink_Noise_1_2.wav,,,,,,,,,,,,,,,0,114,114,111,,,,,,,,,,,,,,,,,,,,,,,688.9105797200464,None,690.4270431280602,None,691.810445924988,None,"fosh
",691.810445924988,None,return,5.003044500015676,691.8936787480488,None,,,,,,,,,,,,,,,,,,,,,,,,,,,,,,,,,56,001,2023_Mar_15_1135,SpeechDraft1Carolyn_lessNoise_PlusLocalization,2021.2.3,59.92418434921777,
grab.wav,grab.mpg,grab,1,A,Pink_Noise_1_1.wav,Pink_Noise_1_2.wav,,,,,,,,,,,,,,,0,115,115,56,,,,,,,,,,,,,,,,,,,,,,,696.9269825641531,None,698.443365497049,None,699.826959928032,None,rab,699.826959928032,None,return,0.6662533860653639,699.9105368319433,None,,,,,,,,,,,,,,,,,,,,,,,,,,,,,,,,,56,001,2023_Mar_15_1135,SpeechDraft1Carolyn_lessNoise_PlusLocalization,2021.2.3,59.92418434921777,
chop.wav,chop.mpg,chop,5,AV,Pink_Noise_5_1.wav,Pink_Noise_5_2.wav,,,,,,,,,,,,,,,0,116,116,79,,,,,,,,,,,,,,,,,,,,,,,700.5936673930846,None,702.0933693251573,None,703.4768427130766,None,chow,703.4768427130766,None,return,0.8242925549857318,703.5604070289992,None,,,,,,,,,,,,,,,,,,,,,,,,,,,,,,,,,56,001,2023_Mar_15_1135,SpeechDraft1Carolyn_lessNoise_PlusLocalization,2021.2.3,59.92418434921777,
born.wav,born.mpg,born,3,A,Pink_Noise_3_1.wav,Pink_Noise_3_2.wav,,,,,,,,,,,,,,,0,117,117,51,,,,,,,,,,,,,,,,,,,,,,,704.4103229900356,None,705.9101315031294,None,707.2937066610903,None,four,707.2937066610903,None,return,0.7757375189103186,707.3769621681422,None,,,,,,,,,,,,,,,,,,,,,,,,,,,,,,,,,56,001,2023_Mar_15_1135,SpeechDraft1Carolyn_lessNoise_PlusLocalization,2021.2.3,59.92418434921777,
none.wav,none.mpg,none,5,AV,Pink_Noise_5_1.wav,Pink_Noise_5_2.wav,,,,,,,,,,,,,,,0,118,118,82,,,,,,,,,,,,,,,,,,,,,,,708.1770142051391,None,709.678310360061,None,711.0604253790807,None,nine,711.0604253790807,None,return,0.47323467885144055,711.1436314531602,None,,,,,,,,,,,,,,,,,,,,,,,,,,,,,,,,,56,001,2023_Mar_15_1135,SpeechDraft1Carolyn_lessNoise_PlusLocalization,2021.2.3,59.92418434921777,
squat.wav,squat.mpg,squat,4,AV,Pink_Noise_4_1.wav,Pink_Noise_4_2.wav,,,,,,,,,,,,,,,0,119,119,62,,,,,,,,,,,,,,,,,,,,,,,711.6437386509497,None,713.1600439960603,None,714.54359152494,None,squat,714.54359152494,None,return,1.3657091241329908,714.6270854310133,None,,,,,,,,,,,,,,,,,,,,,,,,,,,,,,,,,56,001,2023_Mar_15_1135,SpeechDraft1Carolyn_lessNoise_PlusLocalization,2021.2.3,59.92418434921777,
,,,,,,,,,,,,,,,,,,,,,,,,,,,,,,,,,,,,,,,,,,,,,,,,,,,,,,,,,,,,,,,,,,space,17.82696327008307,716.0937399789691,None,,,,,,,,,,,,,,,,,,,,,,,56,001,2023_Mar_15_1135,SpeechDraft1Carolyn_lessNoise_PlusLocalization,2021.2.3,59.92418434921777,
,,,,,,,,midLeft,-13.0,2,ch1Sound_localizationTask.wav,-13.0,"(762, 878)","(-198,-202)",-190,-338,,,,,,,,,0,0,0,1,,,,,,,,,,,,,,,,,,,,,,,,,,,,,,,,,,,,,,,,,,716.0937399789691,None,733.9600642691366,None,735.0599487160798,None,735.9933945899829,None,1.2746031746031745,7.352374092210084,735.9933945899829,None,,,,,,,,,,,56,001,2023_Mar_15_1135,SpeechDraft1Carolyn_lessNoise_PlusLocalization,2021.2.3,59.92418434921777,
,,,,,,,,nearRight,6.5,0,ch1Sound_localizationTask.wav,6.5,"(1047, 878)","(87, -202)",95,-338,,,,,,,,,0,1,1,4,,,,,,,,,,,,,,,,,,,,,,,,,,,,,,,,,,,,,,,,,,,,743.3438368979841,None,744.4435682580806,None,745.3766815110575,None,1.765079365079365,1.2501322159077972,745.3766815110575,None,,,,,,,,,,,56,001,2023_Mar_15_1135,SpeechDraft1Carolyn_lessNoise_PlusLocalization,2021.2.3,59.92418434921777,
,,,,,,,,center,0.0,6,ch1Sound_localizationTask.wav,0.0,"(952, 878)","(-8,-202)",0,-338,,,,,,,,,0,2,2,3,,,,,,,,,,,,,,,,,,,,,,,,,,,,,,,,,,,,,,,,,,,,746.643846572144,None,747.7436446140055,None,748.6767575000413,None,1.4158730158730157,1.09932200005278,748.6767575000413,None,,,,,,,,,,,56,001,2023_Mar_15_1135,SpeechDraft1Carolyn_lessNoise_PlusLocalization,2021.2.3,59.92418434921777,
,,,,,,,,farRight,19.1,4,ch1Sound_localizationTask.wav,19.1,"(1237, 878)","(277,-202)",285,-338,,,,,,,,,0,3,3,6,,,,,,,,,,,,,,,,,,,,,,,,,,,,,,,,,,,,,,,,,,,,749.777075498132,None,750.8770283940248,None,751.8100176129956,None,1.7190476190476192,2.350241073872894,751.8100176129956,None,,,,,,,,,,,56,001,2023_Mar_15_1135,SpeechDraft1Carolyn_lessNoise_PlusLocalization,2021.2.3,59.92418434921777,
,,,,,,,,center,0.0,6,ch1Sound_localizationTask.wav,0.0,"(952, 878)","(-8,-202)",0,-338,,,,,,,,,0,4,4,3,,,,,,,,,,,,,,,,,,,,,,,,,,,,,,,,,,,,,,,,,,,,754.1610708539374,None,755.2602145781275,None,756.193385074148,None,1.3232804232804232,1.1007498151157051,756.193385074148,None,,,,,,,,,,,56,001,2023_Mar_15_1135,SpeechDraft1Carolyn_lessNoise_PlusLocalization,2021.2.3,59.92418434921777,
,,,,,,,,farLeft,-19.1,5,ch1Sound_localizationTask.wav,-19.1,"(667, 878)","(-293,-202)",-285,-338,,,,,,,,,0,5,5,0,,,,,,,,,,,,,,,,,,,,,,,,,,,,,,,,,,,,,,,,,,,,757.2947623671498,None,758.410271018045,None,759.3268126531038,None,1.1915343915343914,0.6326946078334004,759.3268126531038,None,,,,,,,,,,,56,001,2023_Mar_15_1135,SpeechDraft1Carolyn_lessNoise_PlusLocalization,2021.2.3,59.92418434921777,
,,,,,,,,center,0.0,6,ch1Sound_localizationTask.wav,0.0,"(952, 878)","(-8,-202)",0,-338,,,,,,,,,0,6,6,3,,,,,,,,,,,,,,,,,,,,,,,,,,,,,,,,,,,,,,,,,,,,759.9606498230714,None,761.0601789101493,None,761.9936788841151,None,1.4867724867724867,0.9157305040862411,761.9936788841151,None,,,,,,,,,,,56,001,2023_Mar_15_1135,SpeechDraft1Carolyn_lessNoise_PlusLocalization,2021.2.3,59.92418434921777,
,,,,,,,,farRight,19.1,4,ch1Sound_localizationTask.wav,19.1,"(1237, 878)","(277,-202)",285,-338,,,,,,,,,1,0,7,6,,,,,,,,,,,,,,,,,,,,,,,,,,,,,,,,,,,,,,,,,,,,762.9103303509764,None,764.0100323930383,None,764.9434558791108,None,1.7513227513227514,0.04952575312927365,764.9434558791108,None,,,,,,,,,,,56,001,2023_Mar_15_1135,SpeechDraft1Carolyn_lessNoise_PlusLocalization,2021.2.3,59.92418434921777,
,,,,,,,,midRight,13.0,3,ch1Sound_localizationTask.wav,13.0,"(1142, 878)","(182, -202)",190,-338,,,,,,,,,1,1,8,5,,,,,,,,,,,,,,,,,,,,,,,,,,,,,,,,,,,,,,,,,,,,764.9940849770792,None,766.093422746053,None,767.0270175761543,None,1.6148148148148147,0.08294605906121433,767.0270175761543,None,,,,,,,,,,,56,001,2023_Mar_15_1135,SpeechDraft1Carolyn_lessNoise_PlusLocalization,2021.2.3,59.92418434921777,
,,,,,,,,nearRight,6.5,0,ch1Sound_localizationTask.wav,6.5,"(1047, 878)","(87, -202)",95,-338,,,,,,,,,1,2,9,4,,,,,,,,,,,,,,,,,,,,,,,,,,,,,,,,,,,,,,,,,,,,767.1107023721561,None,768.2105226709973,None,769.1434711711481,None,1.5095238095238095,0.6502041439525783,769.1434711711481,None,,,,,,,,,,,56,001,2023_Mar_15_1135,SpeechDraft1Carolyn_lessNoise_PlusLocalization,2021.2.3,59.92418434921777,
,,,,,,,,center,0.0,6,ch1Sound_localizationTask.wav,0.0,"(952, 878)","(-8,-202)",0,-338,,,,,,,,,1,3,10,3,,,,,,,,,,,,,,,,,,,,,,,,,,,,,,,,,,,,,,,,,,,,769.810684483964,None,770.9100938211195,None,771.8434721101075,None,1.433862433862434,0.06757100112736225,771.8434721101075,None,,,,,,,,,,,56,001,2023_Mar_15_1135,SpeechDraft1Carolyn_lessNoise_PlusLocalization,2021.2.3,59.92418434921777,
,,,,,,,,center,0.0,6,ch1Sound_localizationTask.wav,0.0,"(952, 878)","(-8,-202)",0,-338,,,,,,,,,1,4,11,3,,,,,,,,,,,,,,,,,,,,,,,,,,,,,,,,,,,,,,,,,,,,771.9269377570599,None,773.0267357290722,None,773.9604390400928,None,1.4497354497354498,0.7823732211254537,773.9604390400928,None,,,,,,,,,,,56,001,2023_Mar_15_1135,SpeechDraft1Carolyn_lessNoise_PlusLocalization,2021.2.3,59.92418434921777,
,,,,,,,,farRight,19.1,4,ch1Sound_localizationTask.wav,19.1,"(1237, 878)","(277,-202)",285,-338,,,,,,,,,1,5,12,6,,,,,,,,,,,,,,,,,,,,,,,,,,,,,,,,,,,,,,,,,,,,774.7437867671251,None,775.8436057840008,None,776.7767490751576,None,1.6412698412698412,0.4004955228883773,776.7767490751576,None,,,,,,,,,,,56,001,2023_Mar_15_1135,SpeechDraft1Carolyn_lessNoise_PlusLocalization,2021.2.3,59.92418434921777,
,,,,,,,,nearLeft,-6.5,1,ch1Sound_localizationTask.wav,-6.5,"(857, 878)","(-103,-202)",-95,-338,,,,,,,,,1,6,13,2,,,,,,,,,,,,,,,,,,,,,,,,,,,,,,,,,,,,,,,,,,,,777.1777895430569,None,778.2768706821371,None,779.2101544330362,None,1.3645502645502645,0.09886905690655112,779.2101544330362,None,,,,,,,,,,,56,001,2023_Mar_15_1135,SpeechDraft1Carolyn_lessNoise_PlusLocalization,2021.2.3,59.92418434921777,
,,,,,,,,farLeft,-19.1,5,ch1Sound_localizationTask.wav,-19.1,"(667, 878)","(-293,-202)",-285,-338,,,,,,,,,2,0,14,0,,,,,,,,,,,,,,,,,,,,,,,,,,,,,,,,,,,,,,,,,,,,779.3105095860083,None,780.4102496630512,None,781.343394475989,None,1.298941798941799,0.38322546193376184,781.343394475989,None,,,,,,,,,,,56,001,2023_Mar_15_1135,SpeechDraft1Carolyn_lessNoise_PlusLocalization,2021.2.3,59.92418434921777,
,,,,,,,,farRight,19.1,4,ch1Sound_localizationTask.wav,19.1,"(1237, 878)","(277,-202)",285,-338,,,,,,,,,2,1,15,6,,,,,,,,,,,,,,,,,,,,,,,,,,,,,,,,,,,,,,,,,,,,781.727345891064,None,782.8269419639837,None,783.7603136589751,None,1.837037037037037,2.516828325111419,783.7603136589751,None,,,,,,,,,,,56,001,2023_Mar_15_1135,SpeechDraft1Carolyn_lessNoise_PlusLocalization,2021.2.3,59.92418434921777,
,,,,,,,,farLeft,-19.1,5,ch1Sound_localizationTask.wav,-19.1,"(667, 878)","(-293,-202)",-285,-338,,,,,,,,,2,2,16,0,,,,,,,,,,,,,,,,,,,,,,,,,,,,,,,,,,,,,,,,,,,,786.2773159849457,None,787.3772445430513,None,788.3100748010911,None,1.0973544973544973,1.765991095919162,788.3100748010911,None,,,,,,,,,,,56,001,2023_Mar_15_1135,SpeechDraft1Carolyn_lessNoise_PlusLocalization,2021.2.3,59.92418434921777,
,,,,,,,,center,0.0,6,ch1Sound_localizationTask.wav,0.0,"(952, 878)","(-8,-202)",0,-338,,,,,,,,,2,3,17,3,,,,,,,,,,,,,,,,,,,,,,,,,,,,,,,,,,,,,,,,,,,,790.0771627910435,None,791.1768966659438,None,792.1102665020153,None,1.3862433862433863,0.7335932590067387,792.1102665020153,None,,,,,,,,,,,56,001,2023_Mar_15_1135,SpeechDraft1Carolyn_lessNoise_PlusLocalization,2021.2.3,59.92418434921777,
,,,,,,,,midLeft,-13.0,2,ch1Sound_localizationTask.wav,-13.0,"(762, 878)","(-198,-202)",-190,-338,,,,,,,,,2,4,18,1,,,,,,,,,,,,,,,,,,,,,,,,,,,,,,,,,,,,,,,,,,,,792.8606535200961,None,793.959989557974,None,794.8939626279753,None,1.1851851851851851,1.450217345962301,794.8939626279753,None,,,,,,,,,,,56,001,2023_Mar_15_1135,SpeechDraft1Carolyn_lessNoise_PlusLocalization,2021.2.3,59.92418434921777,
,,,,,,,,midLeft,-13.0,2,ch1Sound_localizationTask.wav,-13.0,"(762, 878)","(-198,-202)",-190,-338,,,,,,,,,2,5,19,1,,,,,,,,,,,,,,,,,,,,,,,,,,,,,,,,,,,,,,,,,,,,796.3603723449633,None,797.4600942379329,None,798.3936936331447,None,1.4682539682539684,1.1163723799400032,798.3936936331447,None,,,,,,,,,,,56,001,2023_Mar_15_1135,SpeechDraft1Carolyn_lessNoise_PlusLocalization,2021.2.3,59.92418434921777,
,,,,,,,,nearLeft,-6.5,1,ch1Sound_localizationTask.wav,-6.5,"(857, 878)","(-103,-202)",-95,-338,,,,,,,,,2,6,20,2,,,,,,,,,,,,,,,,,,,,,,,,,,,,,,,,,,,,,,,,,,,,799.5112461871468,None,800.6103320640977,None,801.5435369850602,None,1.335978835978836,1.2823919639922678,801.5435369850602,None,,,,,,,,,,,56,001,2023_Mar_15_1135,SpeechDraft1Carolyn_lessNoise_PlusLocalization,2021.2.3,59.92418434921777,
,,,,,,,,midRight,13.0,3,ch1Sound_localizationTask.wav,13.0,"(1142, 878)","(182, -202)",190,-338,,,,,,,,,3,0,21,5,,,,,,,,,,,,,,,,,,,,,,,,,,,,,,,,,,,,,,,,,,,,802.8274225429632,None,803.9266520000529,None,804.8603623439558,None,1.608994708994709,0.5836155049037188,804.8603623439558,None,,,,,,,,,,,56,001,2023_Mar_15_1135,SpeechDraft1Carolyn_lessNoise_PlusLocalization,2021.2.3,59.92418434921777,
,,,,,,,,nearRight,6.5,0,ch1Sound_localizationTask.wav,6.5,"(1047, 878)","(87, -202)",95,-338,,,,,,,,,3,1,22,4,,,,,,,,,,,,,,,,,,,,,,,,,,,,,,,,,,,,,,,,,,,,805.4604522190057,None,806.5605145499576,None,807.4938225150108,None,1.4846560846560846,0.5680271631572396,807.4938225150108,None,,,,,,,,,,,56,001,2023_Mar_15_1135,SpeechDraft1Carolyn_lessNoise_PlusLocalization,2021.2.3,59.92418434921777,
,,,,,,,,midRight,13.0,3,ch1Sound_localizationTask.wav,13.0,"(1142, 878)","(182, -202)",190,-338,,,,,,,,,3,2,23,5,,,,,,,,,,,,,,,,,,,,,,,,,,,,,,,,,,,,,,,,,,,,808.0774753510486,None,809.1770211909898,None,810.110172420973,None,1.7296296296296296,1.0686272259335965,810.110172420973,None,,,,,,,,,,,56,001,2023_Mar_15_1135,SpeechDraft1Carolyn_lessNoise_PlusLocalization,2021.2.3,59.92418434921777,
,,,,,,,,midRight,13.0,3,ch1Sound_localizationTask.wav,13.0,"(1142, 878)","(182, -202)",190,-338,,,,,,,,,3,3,24,5,,,,,,,,,,,,,,,,,,,,,,,,,,,,,,,,,,,,,,,,,,,,811.1938361600041,None,812.2936343629844,None,813.2268337409478,None,1.6296296296296298,0.6012295240070671,813.2268337409478,None,,,,,,,,,,,56,001,2023_Mar_15_1135,SpeechDraft1Carolyn_lessNoise_PlusLocalization,2021.2.3,59.92418434921777,
,,,,,,,,nearRight,6.5,0,ch1Sound_localizationTask.wav,6.5,"(1047, 878)","(87, -202)",95,-338,,,,,,,,,3,4,25,4,,,,,,,,,,,,,,,,,,,,,,,,,,,,,,,,,,,,,,,,,,,,813.8441395889968,None,814.9435388969723,None,815.876890073996,None,1.5724867724867724,0.4155612310860306,815.876890073996,None,,,,,,,,,,,56,001,2023_Mar_15_1135,SpeechDraft1Carolyn_lessNoise_PlusLocalization,2021.2.3,59.92418434921777,
,,,,,,,,nearLeft,-6.5,1,ch1Sound_localizationTask.wav,-6.5,"(857, 878)","(-103,-202)",-95,-338,,,,,,,,,3,5,26,2,,,,,,,,,,,,,,,,,,,,,,,,,,,,,,,,,,,,,,,,,,,,816.2937922780402,None,817.3938163011335,None,818.327326735016,None,1.4185185185185185,1.300661644898355,818.327326735016,None,,,,,,,,,,,56,001,2023_Mar_15_1135,SpeechDraft1Carolyn_lessNoise_PlusLocalization,2021.2.3,59.92418434921777,
,,,,,,,,farRight,19.1,4,ch1Sound_localizationTask.wav,19.1,"(1237, 878)","(277,-202)",285,-338,,,,,,,,,3,6,27,6,,,,,,,,,,,,,,,,,,,,,,,,,,,,,,,,,,,,,,,,,,,,819.6439557510894,None,820.7435835520737,None,821.6771136301104,None,1.7947089947089947,0.9334012060426176,821.6771136301104,None,,,,,,,,,,,56,001,2023_Mar_15_1135,SpeechDraft1Carolyn_lessNoise_PlusLocalization,2021.2.3,59.92418434921777,
,,,,,,,,midLeft,-13.0,2,ch1Sound_localizationTask.wav,-13.0,"(762, 878)","(-198,-202)",-190,-338,,,,,,,,,4,0,28,1,,,,,,,,,,,,,,,,,,,,,,,,,,,,,,,,,,,,,,,,,,,,822.6116844851058,None,823.7270220399369,None,824.6435870961286,None,1.2074074074074073,1.1660394750069827,824.6435870961286,None,,,,,,,,,,,56,001,2023_Mar_15_1135,SpeechDraft1Carolyn_lessNoise_PlusLocalization,2021.2.3,59.92418434921777,
,,,,,,,,center,0.0,6,ch1Sound_localizationTask.wav,0.0,"(952, 878)","(-8,-202)",0,-338,,,,,,,,,4,1,29,3,,,,,,,,,,,,,,,,,,,,,,,,,,,,,,,,,,,,,,,,,,,,825.810659743147,None,826.9100503490772,None,827.8436296579894,None,1.4174603174603175,0.9999447350855917,827.8436296579894,None,,,,,,,,,,,56,001,2023_Mar_15_1135,SpeechDraft1Carolyn_lessNoise_PlusLocalization,2021.2.3,59.92418434921777,
,,,,,,,,farRight,19.1,4,ch1Sound_localizationTask.wav,19.1,"(1237, 878)","(277,-202)",285,-338,,,,,,,,,4,2,30,6,,,,,,,,,,,,,,,,,,,,,,,,,,,,,,,,,,,,,,,,,,,,828.8604093859904,None,829.960172489984,None,830.8938233391382,None,1.7576719576719577,1.6679825538303703,830.8938233391382,None,,,,,,,,,,,56,001,2023_Mar_15_1135,SpeechDraft1Carolyn_lessNoise_PlusLocalization,2021.2.3,59.92418434921777,
,,,,,,,,farLeft,-19.1,5,ch1Sound_localizationTask.wav,-19.1,"(667, 878)","(-293,-202)",-285,-338,,,,,,,,,4,3,31,0,,,,,,,,,,,,,,,,,,,,,,,,,,,,,,,,,,,,,,,,,,,,832.5772955049761,None,833.676883594133,None,834.6103899281006,None,1.12010582010582,0.8499822888989002,834.6103899281006,None,,,,,,,,,,,56,001,2023_Mar_15_1135,SpeechDraft1Carolyn_lessNoise_PlusLocalization,2021.2.3,59.92418434921777,
,,,,,,,,midRight,13.0,3,ch1Sound_localizationTask.wav,13.0,"(1142, 878)","(182, -202)",190,-338,,,,,,,,,4,4,32,5,,,,,,,,,,,,,,,,,,,,,,,,,,,,,,,,,,,,,,,,,,,,835.4771668240428,None,836.5767937570345,None,837.5103739490733,None,1.751851851851852,0.6176009299233556,837.5103739490733,None,,,,,,,,,,,56,001,2023_Mar_15_1135,SpeechDraft1Carolyn_lessNoise_PlusLocalization,2021.2.3,59.92418434921777,
,,,,,,,,farLeft,-19.1,5,ch1Sound_localizationTask.wav,-19.1,"(667, 878)","(-293,-202)",-285,-338,,,,,,,,,4,5,33,0,,,,,,,,,,,,,,,,,,,,,,,,,,,,,,,,,,,,,,,,,,,,838.1439738080371,None,839.243812212022,None,840.1770128021017,None,1.1888888888888889,0.8997644381597638,840.1770128021017,None,,,,,,,,,,,56,001,2023_Mar_15_1135,SpeechDraft1Carolyn_lessNoise_PlusLocalization,2021.2.3,59.92418434921777,
,,,,,,,,midRight,13.0,3,ch1Sound_localizationTask.wav,13.0,"(1142, 878)","(182, -202)",190,-338,,,,,,,,,4,6,34,5,,,,,,,,,,,,,,,,,,,,,,,,,,,,,,,,,,,,,,,,,,,,841.0791536630131,None,842.1934733779635,None,843.110228602076,None,1.6788359788359788,0.7176274019293487,843.110228602076,None,,,,,,,,,,,56,001,2023_Mar_15_1135,SpeechDraft1Carolyn_lessNoise_PlusLocalization,2021.2.3,59.92418434921777,
,,,,,,,,farLeft,-19.1,5,ch1Sound_localizationTask.wav,-19.1,"(667, 878)","(-293,-202)",-285,-338,,,,,,,,,5,0,35,0,,,,,,,,,,,,,,,,,,,,,,,,,,,,,,,,,,,,,,,,,,,,843.844257340068,None,844.9437117129564,None,845.8771261540242,None,1.271957671957672,1.0835921431425959,845.8771261540242,None,,,,,,,,,,,56,001,2023_Mar_15_1135,SpeechDraft1Carolyn_lessNoise_PlusLocalization,2021.2.3,59.92418434921777,
,,,,,,,,farLeft,-19.1,5,ch1Sound_localizationTask.wav,-19.1,"(667, 878)","(-293,-202)",-285,-338,,,,,,,,,5,1,36,0,,,,,,,,,,,,,,,,,,,,,,,,,,,,,,,,,,,,,,,,,,,,846.9610805921257,None,848.0602730540559,None,848.9937552469783,None,1.270899470899471,0.4502776418812573,848.9937552469783,None,,,,,,,,,,,56,001,2023_Mar_15_1135,SpeechDraft1Carolyn_lessNoise_PlusLocalization,2021.2.3,59.92418434921777,
,,,,,,,,center,0.0,6,ch1Sound_localizationTask.wav,0.0,"(952, 878)","(-8,-202)",0,-338,,,,,,,,,5,2,37,3,,,,,,,,,,,,,,,,,,,,,,,,,,,,,,,,,,,,,,,,,,,,849.444013603963,None,850.5437019481324,None,851.4768435901497,None,1.5206349206349206,0.6495766481384635,851.4768435901497,None,,,,,,,,,,,56,001,2023_Mar_15_1135,SpeechDraft1Carolyn_lessNoise_PlusLocalization,2021.2.3,59.92418434921777,
,,,,,,,,nearLeft,-6.5,1,ch1Sound_localizationTask.wav,-6.5,"(857, 878)","(-103,-202)",-95,-338,,,,,,,,,5,3,38,2,,,,,,,,,,,,,,,,,,,,,,,,,,,,,,,,,,,,,,,,,,,,852.1271409629844,None,853.2270404270384,None,854.1606603721157,None,1.3820105820105821,0.4500543719623238,854.1606603721157,None,,,,,,,,,,,56,001,2023_Mar_15_1135,SpeechDraft1Carolyn_lessNoise_PlusLocalization,2021.2.3,59.92418434921777,
,,,,,,,,nearLeft,-6.5,1,ch1Sound_localizationTask.wav,-6.5,"(857, 878)","(-103,-202)",-95,-338,,,,,,,,,5,4,39,2,,,,,,,,,,,,,,,,,,,,,,,,,,,,,,,,,,,,,,,,,,,,854.6107450430281,None,855.7101902130526,None,856.6435438659973,None,1.4116402116402116,0.46687296009622514,856.6435438659973,None,,,,,,,,,,,56,001,2023_Mar_15_1135,SpeechDraft1Carolyn_lessNoise_PlusLocalization,2021.2.3,59.92418434921777,
,,,,,,,,midLeft,-13.0,2,ch1Sound_localizationTask.wav,-13.0,"(762, 878)","(-198,-202)",-190,-338,,,,,,,,,5,5,40,1,,,,,,,,,,,,,,,,,,,,,,,,,,,,,,,,,,,,,,,,,,,,857.1105110580102,None,858.2106468679849,None,859.1436474900693,None,1.2931216931216931,0.550517386989668,859.1436474900693,None,,,,,,,,,,,56,001,2023_Mar_15_1135,SpeechDraft1Carolyn_lessNoise_PlusLocalization,2021.2.3,59.92418434921777,
,,,,,,,,farRight,19.1,4,ch1Sound_localizationTask.wav,19.1,"(1237, 878)","(277,-202)",285,-338,,,,,,,,,5,6,41,6,,,,,,,,,,,,,,,,,,,,,,,,,,,,,,,,,,,,,,,,,,,,859.6939322410617,None,860.7935421031434,None,861.7269684420899,None,1.783068783068783,0.7159673310816288,861.7269684420899,None,,,,,,,,,,,56,001,2023_Mar_15_1135,SpeechDraft1Carolyn_lessNoise_PlusLocalization,2021.2.3,59.92418434921777,
,,,,,,,,nearRight,6.5,0,ch1Sound_localizationTask.wav,6.5,"(1047, 878)","(87, -202)",95,-338,,,,,,,,,6,0,42,4,,,,,,,,,,,,,,,,,,,,,,,,,,,,,,,,,,,,,,,,,,,,862.4438996980898,None,863.5434160910081,None,864.476955340011,None,1.4867724867724867,0.8327856920659542,864.476955340011,None,,,,,,,,,,,56,001,2023_Mar_15_1135,SpeechDraft1Carolyn_lessNoise_PlusLocalization,2021.2.3,59.92418434921777,
,,,,,,,,farLeft,-19.1,5,ch1Sound_localizationTask.wav,-19.1,"(667, 878)","(-293,-202)",-285,-338,,,,,,,,,6,1,43,0,,,,,,,,,,,,,,,,,,,,,,,,,,,,,,,,,,,,,,,,,,,,865.310767875053,None,866.4103852650151,None,867.3439332561102,None,1.1888888888888889,0.5964466880541295,867.3439332561102,None,,,,,,,,,,,56,001,2023_Mar_15_1135,SpeechDraft1Carolyn_lessNoise_PlusLocalization,2021.2.3,59.92418434921777,
,,,,,,,,nearRight,6.5,0,ch1Sound_localizationTask.wav,6.5,"(1047, 878)","(87, -202)",95,-338,,,,,,,,,6,2,44,4,,,,,,,,,,,,,,,,,,,,,,,,,,,,,,,,,,,,,,,,,,,,867.9605053621344,None,869.0601546589751,None,869.9936722051352,None,1.6851851851851851,0.6667255610227585,869.9936722051352,None,,,,,,,,,,,56,001,2023_Mar_15_1135,SpeechDraft1Carolyn_lessNoise_PlusLocalization,2021.2.3,59.92418434921777,
,,,,,,,,nearLeft,-6.5,1,ch1Sound_localizationTask.wav,-6.5,"(857, 878)","(-103,-202)",-95,-338,,,,,,,,,6,3,45,2,,,,,,,,,,,,,,,,,,,,,,,,,,,,,,,,,,,,,,,,,,,,870.6608825300355,None,871.760357537074,None,872.6936899060383,None,1.4142857142857141,0.6498043991159648,872.6936899060383,None,,,,,,,,,,,56,001,2023_Mar_15_1135,SpeechDraft1Carolyn_lessNoise_PlusLocalization,2021.2.3,59.92418434921777,
,,,,,,,,farRight,19.1,4,ch1Sound_localizationTask.wav,19.1,"(1237, 878)","(277,-202)",285,-338,,,,,,,,,6,4,46,6,,,,,,,,,,,,,,,,,,,,,,,,,,,,,,,,,,,,,,,,,,,,873.3444664080162,None,874.4439318450168,None,875.377015340142,None,1.825925925925926,0.5657251360826194,875.377015340142,None,,,,,,,,,,,56,001,2023_Mar_15_1135,SpeechDraft1Carolyn_lessNoise_PlusLocalization,2021.2.3,59.92418434921777,
,,,,,,,,nearLeft,-6.5,1,ch1Sound_localizationTask.wav,-6.5,"(857, 878)","(-103,-202)",-95,-338,,,,,,,,,6,5,47,2,,,,,,,,,,,,,,,,,,,,,,,,,,,,,,,,,,,,,,,,,,,,875.9441849661525,None,877.0437829729635,None,877.9771412350237,None,1.5074074074074075,0.6341475769877434,877.9771412350237,None,,,,,,,,,,,56,001,2023_Mar_15_1135,SpeechDraft1Carolyn_lessNoise_PlusLocalization,2021.2.3,59.92418434921777,
,,,,,,,,nearRight,6.5,0,ch1Sound_localizationTask.wav,6.5,"(1047, 878)","(87, -202)",95,-338,,,,,,,,,6,6,48,4,,,,,,,,,,,,,,,,,,,,,,,,,,,,,,,,,,,,,,,,,,,,878.6273248931393,None,879.7268622640986,None,880.6603161841631,None,1.6544973544973545,0.6152601460926235,880.6603161841631,None,,,,,,,,,,,56,001,2023_Mar_15_1135,SpeechDraft1Carolyn_lessNoise_PlusLocalization,2021.2.3,59.92418434921777,
,,,,,,,,nearRight,6.5,0,ch1Sound_localizationTask.wav,6.5,"(1047, 878)","(87, -202)",95,-338,,,,,,,,,7,0,49,4,,,,,,,,,,,,,,,,,,,,,,,,,,,,,,,,,,,,,,,,,,,,881.2772119389847,None,882.376874837093,None,883.3107242670376,None,1.4010582010582011,0.8981564990244806,883.3107242670376,None,,,,,,,,,,,56,001,2023_Mar_15_1135,SpeechDraft1Carolyn_lessNoise_PlusLocalization,2021.2.3,59.92418434921777,
,,,,,,,,midRight,13.0,3,ch1Sound_localizationTask.wav,13.0,"(1142, 878)","(182, -202)",190,-338,,,,,,,,,7,1,50,5,,,,,,,,,,,,,,,,,,,,,,,,,,,,,,,,,,,,,,,,,,,,884.227462203009,None,885.3271882210393,None,886.2605148099829,None,1.5592592592592593,0.5003481430467218,886.2605148099829,None,,,,,,,,,,,56,001,2023_Mar_15_1135,SpeechDraft1Carolyn_lessNoise_PlusLocalization,2021.2.3,59.92418434921777,
,,,,,,,,midLeft,-13.0,2,ch1Sound_localizationTask.wav,-13.0,"(762, 878)","(-198,-202)",-190,-338,,,,,,,,,7,2,51,1,,,,,,,,,,,,,,,,,,,,,,,,,,,,,,,,,,,,,,,,,,,,886.777225806145,None,887.8769009751268,None,888.8106738480274,None,1.426984126984127,0.8179012429900467,888.8106738480274,None,,,,,,,,,,,56,001,2023_Mar_15_1135,SpeechDraft1Carolyn_lessNoise_PlusLocalization,2021.2.3,59.92418434921777,
,,,,,,,,midRight,13.0,3,ch1Sound_localizationTask.wav,13.0,"(1142, 878)","(182, -202)",190,-338,,,,,,,,,7,3,52,5,,,,,,,,,,,,,,,,,,,,,,,,,,,,,,,,,,,,,,,,,,,,889.64428791916,None,890.7434658310376,None,891.6772775391582,None,1.580952380952381,0.7333880688529462,891.6772775391582,None,,,,,,,,,,,56,001,2023_Mar_15_1135,SpeechDraft1Carolyn_lessNoise_PlusLocalization,2021.2.3,59.92418434921777,
,,,,,,,,midLeft,-13.0,2,ch1Sound_localizationTask.wav,-13.0,"(762, 878)","(-198,-202)",-190,-338,,,,,,,,,7,4,53,1,,,,,,,,,,,,,,,,,,,,,,,,,,,,,,,,,,,,,,,,,,,,892.4106778909918,None,893.510317441076,None,894.4438281571493,None,1.4476190476190476,0.4153692820109427,894.4438281571493,None,,,,,,,,,,,56,001,2023_Mar_15_1135,SpeechDraft1Carolyn_lessNoise_PlusLocalization,2021.2.3,59.92418434921777,
,,,,,,,,nearLeft,-6.5,1,ch1Sound_localizationTask.wav,-6.5,"(857, 878)","(-103,-202)",-95,-338,,,,,,,,,7,5,54,2,,,,,,,,,,,,,,,,,,,,,,,,,,,,,,,,,,,,,,,,,,,,894.8605921179987,None,895.9602493899874,None,896.8936600489542,None,1.4650793650793652,0.47009167703799903,896.8936600489542,None,,,,,,,,,,,56,001,2023_Mar_15_1135,SpeechDraft1Carolyn_lessNoise_PlusLocalization,2021.2.3,59.92418434921777,
,,,,,,,,midLeft,-13.0,2,ch1Sound_localizationTask.wav,-13.0,"(762, 878)","(-198,-202)",-190,-338,,,,,,,,,7,6,55,1,,,,,,,,,,,,,,,,,,,,,,,,,,,,,,,,,,,,,,,,,,,,897.3775841081515,None,898.4773301701061,None,899.4104041859973,None,1.38994708994709,0.08322838181629777,899.4104041859973,None,,,,,,,,,,,56,001,2023_Mar_15_1135,SpeechDraft1Carolyn_lessNoise_PlusLocalization,2021.2.3,59.92418434921777,
,,,,,,,,,,,,,,,,,,,,,,,,,,,,,,,,,,,,,,,,,,,,,,,,,,,,,,,,,,,,,,,,,,,,,,,,,,,,,,,,,,space,8.567320856032893,899.5773897480685,None,,,,,,,56,001,2023_Mar_15_1135,SpeechDraft1Carolyn_lessNoise_PlusLocalization,2021.2.3,59.92418434921777,
,,,,,,,,nearRight,6.5,0,ch1Sound_localizationTask.wav,6.5,"(1047, 878)","(87, -202)",95,-338,,,,,,,,,,,,,0,0,0,4,,,,,,,,,,,,,,,,,,,,,,,,,,,,,,,,,,,,,,,,908.1936746430583,None,,,911.2105736271478,None,1.5714285714285714,0.7719451559241861,911.2105736271478,None,,,,,899.5773897480685,None,909.1940794661641,None,909.3772766729817,909.3940809641499,56,001,2023_Mar_15_1135,SpeechDraft1Carolyn_lessNoise_PlusLocalization,2021.2.3,59.92418434921777,
,,,,,,,,nearLeft,-6.5,1,ch1Sound_localizationTask.wav,-6.5,"(857, 878)","(-103,-202)",-95,-338,,,,,,,,,,,,,0,1,1,2,,,,,,,,,,,,,,,,,,,,,,,,,,,,,,,,,,,,,,,,912.0108715579845,None,,,915.0271693649702,None,1.4486772486772486,0.933139270870015,915.0271693649702,None,,,,,,,913.0107267119456,None,913.1939264140092,913.2105518649332,56,001,2023_Mar_15_1135,SpeechDraft1Carolyn_lessNoise_PlusLocalization,2021.2.3,59.92418434921777,
,,,,,,,,farLeft,-19.1,5,ch1Sound_localizationTask.wav,-19.1,"(667, 878)","(-293,-202)",-285,-338,,,,,,,,,,,,,0,2,2,0,,,,,,,,,,,,,,,,,,,,,,,,,,,,,,,,,,,,,,,,915.9773418100085,None,,,918.9937977420632,None,1.37989417989418,0.7997010438703,918.9937977420632,None,,,,,,,916.977401826065,None,917.1606381710153,917.1774070260581,56,001,2023_Mar_15_1135,SpeechDraft1Carolyn_lessNoise_PlusLocalization,2021.2.3,59.92418434921777,
,,,,,,,,farLeft,-19.1,5,ch1Sound_localizationTask.wav,-19.1,"(667, 878)","(-293,-202)",-285,-338,,,,,,,,,,,,,0,3,3,0,,,,,,,,,,,,,,,,,,,,,,,,,,,,,,,,,,,,,,,,919.7941925709601,None,,,922.8107282400597,None,1.3735449735449734,0.4329670728184283,922.8107282400597,None,,,,,,,920.7939415830187,None,920.9773101180326,920.9940933999605,56,001,2023_Mar_15_1135,SpeechDraft1Carolyn_lessNoise_PlusLocalization,2021.2.3,59.92418434921777,
,,,,,,,,farRight,19.1,4,ch1Sound_localizationTask.wav,19.1,"(1237, 878)","(277,-202)",285,-338,,,,,,,,,,,,,0,4,4,6,,,,,,,,,,,,,,,,,,,,,,,,,,,,,,,,,,,,,,,,923.2441372829489,None,,,926.2604473449755,None,1.6645502645502646,1.0353001640178263,926.2604473449755,None,,,,,,,924.2441086380277,None,924.4272453419399,924.4439213520382,56,001,2023_Mar_15_1135,SpeechDraft1Carolyn_lessNoise_PlusLocalization,2021.2.3,59.92418434921777,
,,,,,,,,nearRight,6.5,0,ch1Sound_localizationTask.wav,6.5,"(1047, 878)","(87, -202)",95,-338,,,,,,,,,,,,,0,5,5,4,,,,,,,,,,,,,,,,,,,,,,,,,,,,,,,,,,,,,,,,927.3116858820431,None,,,930.3270125391427,None,1.5587301587301587,0.9165464250836521,930.3270125391427,None,,,,,,,928.3106941410806,None,928.4940732230898,928.5106202310417,56,001,2023_Mar_15_1135,SpeechDraft1Carolyn_lessNoise_PlusLocalization,2021.2.3,59.92418434921777,
,,,,,,,,midRight,13.0,3,ch1Sound_localizationTask.wav,13.0,"(1142, 878)","(182, -202)",190,-338,,,,,,,,,,,,,0,6,6,5,,,,,,,,,,,,,,,,,,,,,,,,,,,,,,,,,,,,,,,,931.2448394361418,None,,,934.2604075900745,None,1.5994708994708995,0.5669162729755044,934.2604075900745,None,,,,,,,932.2442266810685,None,932.4274900290184,932.444013196975,56,001,2023_Mar_15_1135,SpeechDraft1Carolyn_lessNoise_PlusLocalization,2021.2.3,59.92418434921777,
,,,,,,,,nearRight,6.5,0,ch1Sound_localizationTask.wav,6.5,"(1047, 878)","(87, -202)",95,-338,,,,,,,,,,,,,1,0,7,4,,,,,,,,,,,,,,,,,,,,,,,,,,,,,,,,,,,,,,,,934.84414589894,None,,,937.8603903630283,None,1.5624338624338625,0.7657470270060003,937.8603903630283,None,,,,,,,935.8438901160844,None,936.027353225043,936.0439839281607,56,001,2023_Mar_15_1135,SpeechDraft1Carolyn_lessNoise_PlusLocalization,2021.2.3,59.92418434921777,
,,,,,,,,midLeft,-13.0,2,ch1Sound_localizationTask.wav,-13.0,"(762, 878)","(-198,-202)",-190,-338,,,,,,,,,,,,,1,1,8,1,,,,,,,,,,,,,,,,,,,,,,,,,,,,,,,,,,,,,,,,938.6273656780832,None,,,941.6436749929562,None,1.4164021164021166,0.5835196990519762,941.6436749929562,None,,,,,,,939.627289416967,None,939.8106652221177,939.827312694164,56,001,2023_Mar_15_1135,SpeechDraft1Carolyn_lessNoise_PlusLocalization,2021.2.3,59.92418434921777,
,,,,,,,,midLeft,-13.0,2,ch1Sound_localizationTask.wav,-13.0,"(762, 878)","(-198,-202)",-190,-338,,,,,,,,,,,,,1,2,9,1,,,,,,,,,,,,,,,,,,,,,,,,,,,,,,,,,,,,,,,,942.2443074961193,None,,,945.2604397730902,None,1.4285714285714286,0.18255308805964887,945.2604397730902,None,,,,,,,943.244002385065,None,943.4274427159689,943.4440912641585,56,001,2023_Mar_15_1135,SpeechDraft1Carolyn_lessNoise_PlusLocalization,2021.2.3,59.92418434921777,
,,,,,,,,nearRight,6.5,0,ch1Sound_localizationTask.wav,6.5,"(1047, 878)","(87, -202)",95,-338,,,,,,,,,,,,,1,3,10,4,,,,,,,,,,,,,,,,,,,,,,,,,,,,,,,,,,,,,,,,945.4442296579946,None,,,948.4606233180966,None,1.5804232804232803,0.8668825149070472,948.4606233180966,None,,,,,,,946.4441326591186,None,946.6274146710057,946.6440734830685,56,001,2023_Mar_15_1135,SpeechDraft1Carolyn_lessNoise_PlusLocalization,2021.2.3,59.92418434921777,
,,,,,,,,farRight,19.1,4,ch1Sound_localizationTask.wav,19.1,"(1237, 878)","(277,-202)",285,-338,,,,,,,,,,,,,1,4,11,6,,,,,,,,,,,,,,,,,,,,,,,,,,,,,,,,,,,,,,,,949.3278911251109,None,,,952.344008037122,None,1.637037037037037,0.3502718710806221,952.344008037122,None,,,,,,,950.3273070370778,None,950.5108327730559,950.5273162741214,56,001,2023_Mar_15_1135,SpeechDraft1Carolyn_lessNoise_PlusLocalization,2021.2.3,59.92418434921777,
,,,,,,,,nearLeft,-6.5,1,ch1Sound_localizationTask.wav,-6.5,"(857, 878)","(-103,-202)",-95,-338,,,,,,,,,,,,,1,5,12,2,,,,,,,,,,,,,,,,,,,,,,,,,,,,,,,,,,,,,,,,952.693923237035,None,,,955.710328869056,None,1.452910052910053,0.4500369729939848,955.710328869056,None,,,,,,,953.6940504109953,None,953.8774052951485,953.8940073561389,56,001,2023_Mar_15_1135,SpeechDraft1Carolyn_lessNoise_PlusLocalization,2021.2.3,59.92418434921777,
,,,,,,,,farRight,19.1,4,ch1Sound_localizationTask.wav,19.1,"(1237, 878)","(277,-202)",285,-338,,,,,,,,,,,,,1,6,13,6,,,,,,,,,,,,,,,,,,,,,,,,,,,,,,,,,,,,,,,,956.1606967330445,None,,,959.1772002500948,None,1.6523809523809523,0.7830767959821969,959.1772002500948,None,,,,,,,957.1606647991575,None,957.3443095481489,957.360946851084,56,001,2023_Mar_15_1135,SpeechDraft1Carolyn_lessNoise_PlusLocalization,2021.2.3,59.92418434921777,
,,,,,,,,nearLeft,-6.5,1,ch1Sound_localizationTask.wav,-6.5,"(857, 878)","(-103,-202)",-95,-338,,,,,,,,,,,,,2,0,14,2,,,,,,,,,,,,,,,,,,,,,,,,,,,,,,,,,,,,,,,,959.9609721801244,None,,,962.9770653170999,None,1.4407407407407407,0.9501771510113031,962.9770653170999,None,,,,,,,960.9608699739911,None,961.1441955489572,961.1606846631039,56,001,2023_Mar_15_1135,SpeechDraft1Carolyn_lessNoise_PlusLocalization,2021.2.3,59.92418434921777,
,,,,,,,,midRight,13.0,3,ch1Sound_localizationTask.wav,13.0,"(1142, 878)","(182, -202)",190,-338,,,,,,,,,,,,,2,1,15,5,,,,,,,,,,,,,,,,,,,,,,,,,,,,,,,,,,,,,,,,963.9280200719368,None,,,966.9436947931536,None,1.607936507936508,0.7993821441195905,966.9436947931536,None,,,,,,,964.9275359460153,None,965.1108219311573,965.127379395999,56,001,2023_Mar_15_1135,SpeechDraft1Carolyn_lessNoise_PlusLocalization,2021.2.3,59.92418434921777,
,,,,,,,,farLeft,-19.1,5,ch1Sound_localizationTask.wav,-19.1,"(667, 878)","(-293,-202)",-285,-338,,,,,,,,,,,,,2,2,16,0,,,,,,,,,,,,,,,,,,,,,,,,,,,,,,,,,,,,,,,,967.7439693789929,None,,,970.7605220859405,None,1.33015873015873,0.9334080629050732,970.7605220859405,None,,,,,,,968.744145730976,None,968.9273066250607,968.9441251051612,56,001,2023_Mar_15_1135,SpeechDraft1Carolyn_lessNoise_PlusLocalization,2021.2.3,59.92418434921777,
,,,,,,,,midRight,13.0,3,ch1Sound_localizationTask.wav,13.0,"(1142, 878)","(182, -202)",190,-338,,,,,,,,,,,,,2,3,17,5,,,,,,,,,,,,,,,,,,,,,,,,,,,,,,,,,,,,,,,,971.6952446470968,None,,,974.7274697329849,None,1.5534391534391534,0.6330049098469317,974.7274697329849,None,,,,,,,972.7107028609607,None,972.8939905050211,972.9107031479944,56,001,2023_Mar_15_1135,SpeechDraft1Carolyn_lessNoise_PlusLocalization,2021.2.3,59.92418434921777,
,,,,,,,,farRight,19.1,4,ch1Sound_localizationTask.wav,19.1,"(1237, 878)","(277,-202)",285,-338,,,,,,,,,,,,,2,4,18,6,,,,,,,,,,,,,,,,,,,,,,,,,,,,,,,,,,,,,,,,975.3609120999463,None,,,978.3770406551193,None,1.651851851851852,0.38211351190693676,978.3770406551193,None,,,,,,,976.3606277371291,None,976.5440164920874,976.5606443961151,56,001,2023_Mar_15_1135,SpeechDraft1Carolyn_lessNoise_PlusLocalization,2021.2.3,59.92418434921777,
,,,,,,,,midRight,13.0,3,ch1Sound_localizationTask.wav,13.0,"(1142, 878)","(182, -202)",190,-338,,,,,,,,,,,,,2,5,19,5,,,,,,,,,,,,,,,,,,,,,,,,,,,,,,,,,,,,,,,,978.7610372730996,None,,,981.7770595490001,None,1.633862433862434,0.4498832600656897,981.7770595490001,None,,,,,,,979.7607432331424,None,979.9441006509587,979.9607916700188,56,001,2023_Mar_15_1135,SpeechDraft1Carolyn_lessNoise_PlusLocalization,2021.2.3,59.92418434921777,
,,,,,,,,farLeft,-19.1,5,ch1Sound_localizationTask.wav,-19.1,"(667, 878)","(-293,-202)",-285,-338,,,,,,,,,,,,,2,6,20,0,,,,,,,,,,,,,,,,,,,,,,,,,,,,,,,,,,,,,,,,982.2278242651373,None,,,985.2440599610563,None,1.3317460317460317,0.5169163639657199,985.2440599610563,None,,,,,,,983.2275858889334,None,983.4106969451532,983.4273693279829,56,001,2023_Mar_15_1135,SpeechDraft1Carolyn_lessNoise_PlusLocalization,2021.2.3,59.92418434921777,
,,,,,,,,farLeft,-19.1,5,ch1Sound_localizationTask.wav,-19.1,"(667, 878)","(-293,-202)",-285,-338,,,,,,,,,,,,,3,0,21,0,,,,,,,,,,,,,,,,,,,,,,,,,,,,,,,,,,,,,,,,985.7774633800145,None,,,988.7942200170364,None,1.335978835978836,0.4171754219569266,988.7942200170364,None,,,,,,,986.7773109979462,None,986.9609711461235,986.9774915529415,56,001,2023_Mar_15_1135,SpeechDraft1Carolyn_lessNoise_PlusLocalization,2021.2.3,59.92418434921777,
,,,,,,,,center,0.0,6,ch1Sound_localizationTask.wav,0.0,"(952, 878)","(-8,-202)",0,-338,,,,,,,,,,,,,3,1,22,3,,,,,,,,,,,,,,,,,,,,,,,,,,,,,,,,,,,,,,,,989.2107421229593,None,,,992.2270779230166,None,1.5105820105820107,0.5338095719926059,992.2270779230166,None,,,,,,,990.2107843109407,None,990.3940150900744,990.4108289319556,56,001,2023_Mar_15_1135,SpeechDraft1Carolyn_lessNoise_PlusLocalization,2021.2.3,59.92418434921777,
,,,,,,,,farRight,19.1,4,ch1Sound_localizationTask.wav,19.1,"(1237, 878)","(277,-202)",285,-338,,,,,,,,,,,,,3,2,23,6,,,,,,,,,,,,,,,,,,,,,,,,,,,,,,,,,,,,,,,,992.7776769180782,None,,,995.7936386649963,None,1.6428571428571428,0.483676586067304,995.7936386649963,None,,,,,,,993.7773836790584,None,993.9607642930932,993.9774204241112,56,001,2023_Mar_15_1135,SpeechDraft1Carolyn_lessNoise_PlusLocalization,2021.2.3,59.92418434921777,
,,,,,,,,midLeft,-13.0,2,ch1Sound_localizationTask.wav,-13.0,"(762, 878)","(-198,-202)",-190,-338,,,,,,,,,,,,,3,3,24,1,,,,,,,,,,,,,,,,,,,,,,,,,,,,,,,,,,,,,,,,996.2781060980633,None,,,999.2937137680128,None,1.3746031746031746,0.6832513001281768,999.2937137680128,None,,,,,,,997.2773295000661,None,997.4607102370355,997.4776440409478,56,001,2023_Mar_15_1135,SpeechDraft1Carolyn_lessNoise_PlusLocalization,2021.2.3,59.92418434921777,
,,,,,,,,nearRight,6.5,0,ch1Sound_localizationTask.wav,6.5,"(1047, 878)","(87, -202)",95,-338,,,,,,,,,,,,,3,4,25,4,,,,,,,,,,,,,,,,,,,,,,,,,,,,,,,,,,,,,,,,999.9941648510285,None,,,1003.0104224199895,None,1.544973544973545,0.482184937922284,1003.0104224199895,None,,,,,,,1000.9940191470087,None,1001.1774808710907,1001.1940271661151,56,001,2023_Mar_15_1135,SpeechDraft1Carolyn_lessNoise_PlusLocalization,2021.2.3,59.92418434921777,
,,,,,,,,farLeft,-19.1,5,ch1Sound_localizationTask.wav,-19.1,"(667, 878)","(-293,-202)",-285,-338,,,,,,,,,,,,,3,5,26,0,,,,,,,,,,,,,,,,,,,,,,,,,,,,,,,,,,,,,,,,1003.4940688391216,None,,,1006.5104722869582,None,1.342857142857143,0.6338097250554711,1006.5104722869582,None,,,,,,,1004.494358584052,None,1004.677339052083,1004.6940392430406,56,001,2023_Mar_15_1135,SpeechDraft1Carolyn_lessNoise_PlusLocalization,2021.2.3,59.92418434921777,
,,,,,,,,center,0.0,6,ch1Sound_localizationTask.wav,0.0,"(952, 878)","(-8,-202)",0,-338,,,,,,,,,,,,,3,6,27,3,,,,,,,,,,,,,,,,,,,,,,,,,,,,,,,,,,,,,,,,1007.1610615409445,None,,,1010.1771104070358,None,1.5211640211640212,0.6835628841072321,1010.1771104070358,None,,,,,,,1008.1609146441333,None,1008.3442272660322,1008.3610134350602,56,001,2023_Mar_15_1135,SpeechDraft1Carolyn_lessNoise_PlusLocalization,2021.2.3,59.92418434921777,
,,,,,,,,midRight,13.0,3,ch1Sound_localizationTask.wav,13.0,"(1142, 878)","(182, -202)",190,-338,,,,,,,,,,,,,4,0,28,5,,,,,,,,,,,,,,,,,,,,,,,,,,,,,,,,,,,,,,,,1010.8609061259776,None,,,1013.8771808440797,None,1.5904761904761906,0.13324026693589985,1013.8771808440797,None,,,,,,,1011.8610476420727,None,1012.0441124041099,1012.0610758429393,56,001,2023_Mar_15_1135,SpeechDraft1Carolyn_lessNoise_PlusLocalization,2021.2.3,59.92418434921777,
,,,,,,,,farRight,19.1,4,ch1Sound_localizationTask.wav,19.1,"(1237, 878)","(277,-202)",285,-338,,,,,,,,,,,,,4,1,29,6,,,,,,,,,,,,,,,,,,,,,,,,,,,,,,,,,,,,,,,,1014.0107204259839,None,,,1017.0270826229826,None,1.6052910052910052,0.21625886904075742,1017.0270826229826,None,,,,,,,1015.0107463460881,None,1015.1940966350958,1015.2110383401159,56,001,2023_Mar_15_1135,SpeechDraft1Carolyn_lessNoise_PlusLocalization,2021.2.3,59.92418434921777,
,,,,,,,,midLeft,-13.0,2,ch1Sound_localizationTask.wav,-13.0,"(762, 878)","(-198,-202)",-190,-338,,,,,,,,,,,,,4,2,30,1,,,,,,,,,,,,,,,,,,,,,,,,,,,,,,,,,,,,,,,,1017.2441200639587,None,,,1020.2608584221452,None,1.3851851851851853,0.38395297387614846,1020.2608584221452,None,,,,,,,1018.244094165042,None,1018.4274192710873,1018.4440376369748,56,001,2023_Mar_15_1135,SpeechDraft1Carolyn_lessNoise_PlusLocalization,2021.2.3,59.92418434921777,
,,,,,,,,midLeft,-13.0,2,ch1Sound_localizationTask.wav,-13.0,"(762, 878)","(-198,-202)",-190,-338,,,,,,,,,,,,,4,3,31,1,,,,,,,,,,,,,,,,,,,,,,,,,,,,,,,,,,,,,,,,1020.660739328945,None,,,1023.6771347280592,None,1.4185185185185185,0.11630276893265545,1023.6771347280592,None,,,,,,,1021.6608654081356,None,1021.8441752609797,1021.860783593962,56,001,2023_Mar_15_1135,SpeechDraft1Carolyn_lessNoise_PlusLocalization,2021.2.3,59.92418434921777,
,,,,,,,,center,0.0,6,ch1Sound_localizationTask.wav,0.0,"(952, 878)","(-8,-202)",0,-338,,,,,,,,,,,,,4,4,32,3,,,,,,,,,,,,,,,,,,,,,,,,,,,,,,,,,,,,,,,,1023.7942404230125,None,,,1026.810715493979,None,1.4873015873015873,0.08329293690621853,1026.810715493979,None,,,,,,,1024.7940002509858,None,1024.977475559106,1024.9943117850926,56,001,2023_Mar_15_1135,SpeechDraft1Carolyn_lessNoise_PlusLocalization,2021.2.3,59.92418434921777,
,,,,,,,,nearRight,6.5,0,ch1Sound_localizationTask.wav,6.5,"(1047, 878)","(87, -202)",95,-338,,,,,,,,,,,,,4,5,33,4,,,,,,,,,,,,,,,,,,,,,,,,,,,,,,,,,,,,,,,,1026.8942319301423,None,,,1029.9106367300265,None,1.5185185185185186,0.21664591203443706,1029.9106367300265,None,,,,,,,1027.894036778016,None,1028.0775321060792,1028.0943450250197,56,001,2023_Mar_15_1135,SpeechDraft1Carolyn_lessNoise_PlusLocalization,2021.2.3,59.92418434921777,
,,,,,,,,nearLeft,-6.5,1,ch1Sound_localizationTask.wav,-6.5,"(857, 878)","(-103,-202)",-95,-338,,,,,,,,,,,,,4,6,34,2,,,,,,,,,,,,,,,,,,,,,,,,,,,,,,,,,,,,,,,,1030.127439707052,None,,,1033.143849510001,None,1.4603174603174602,0.4500050498172641,1033.143849510001,None,,,,,,,1031.1274343179539,None,1031.3107145579997,1031.3274589211214,56,001,2023_Mar_15_1135,SpeechDraft1Carolyn_lessNoise_PlusLocalization,2021.2.3,59.92418434921777,
,,,,,,,,center,0.0,6,ch1Sound_localizationTask.wav,0.0,"(952, 878)","(-8,-202)",0,-338,,,,,,,,,,,,,5,0,35,3,,,,,,,,,,,,,,,,,,,,,,,,,,,,,,,,,,,,,,,,1033.6109184599482,None,,,1036.6272415260319,None,1.4873015873015873,0.18216871190816164,1036.6272415260319,None,,,,,,,1034.610796479974,None,1034.7943137639668,1034.8109961131122,56,001,2023_Mar_15_1135,SpeechDraft1Carolyn_lessNoise_PlusLocalization,2021.2.3,59.92418434921777,
,,,,,,,,center,0.0,6,ch1Sound_localizationTask.wav,0.0,"(952, 878)","(-8,-202)",0,-338,,,,,,,,,,,,,5,1,36,3,,,,,,,,,,,,,,,,,,,,,,,,,,,,,,,,,,,,,,,,1036.8110193761531,None,,,1039.8271366909612,None,1.4873015873015873,0.09918244299478829,1039.8271366909612,None,,,,,,,1037.810791311087,None,1037.9940932199825,1038.011023327941,56,001,2023_Mar_15_1135,SpeechDraft1Carolyn_lessNoise_PlusLocalization,2021.2.3,59.92418434921777,
,,,,,,,,nearRight,6.5,0,ch1Sound_localizationTask.wav,6.5,"(1047, 878)","(87, -202)",95,-338,,,,,,,,,,,,,5,2,37,4,,,,,,,,,,,,,,,,,,,,,,,,,,,,,,,,,,,,,,,,1039.9276571969967,None,,,1042.9438882749528,None,1.5010582010582012,0.383155063027516,1042.9438882749528,None,,,,,,,1040.9276332550216,None,1041.110737248091,1041.1273840630893,56,001,2023_Mar_15_1135,SpeechDraft1Carolyn_lessNoise_PlusLocalization,2021.2.3,59.92418434921777,
,,,,,,,,farLeft,-19.1,5,ch1Sound_localizationTask.wav,-19.1,"(667, 878)","(-293,-202)",-285,-338,,,,,,,,,,,,,5,3,38,0,,,,,,,,,,,,,,,,,,,,,,,,,,,,,,,,,,,,,,,,1043.327785718022,None,,,1046.3439823079389,None,1.325925925925926,0.8334096500184387,1046.3439823079389,None,,,,,,,1044.3274442281108,None,1044.5109283139464,1044.5273923920467,56,001,2023_Mar_15_1135,SpeechDraft1Carolyn_lessNoise_PlusLocalization,2021.2.3,59.92418434921777,
,,,,,,,,center,0.0,6,ch1Sound_localizationTask.wav,0.0,"(952, 878)","(-8,-202)",0,-338,,,,,,,,,,,,,5,4,39,3,,,,,,,,,,,,,,,,,,,,,,,,,,,,,,,,,,,,,,,,1047.1942706680857,None,,,1050.2106399771292,None,1.505820105820106,0.6497786368709058,1050.2106399771292,None,,,,,,,1048.1940837181173,None,1048.3774971000385,1048.3940908960067,56,001,2023_Mar_15_1135,SpeechDraft1Carolyn_lessNoise_PlusLocalization,2021.2.3,59.92418434921777,
,,,,,,,,center,0.0,6,ch1Sound_localizationTask.wav,0.0,"(952, 878)","(-8,-202)",0,-338,,,,,,,,,,,,,5,5,40,3,,,,,,,,,,,,,,,,,,,,,,,,,,,,,,,,,,,,,,,,1050.8613820071332,None,,,1053.8771989061497,None,1.507936507936508,0.1020092589315027,1053.8771989061497,None,,,,,,,1051.8609033829998,None,1052.0442490400746,1052.0608689100482,56,001,2023_Mar_15_1135,SpeechDraft1Carolyn_lessNoise_PlusLocalization,2021.2.3,59.92418434921777,
,,,,,,,,farRight,19.1,4,ch1Sound_localizationTask.wav,19.1,"(1237, 878)","(277,-202)",285,-338,,,,,,,,,,,,,5,6,41,6,,,,,,,,,,,,,,,,,,,,,,,,,,,,,,,,,,,,,,,,1053.9942492260598,None,,,1057.0104539189488,None,1.6735449735449737,0.7496422890108079,1057.0104539189488,None,,,,,,,1054.9940973459743,None,1055.177487625042,1055.1941093290225,56,001,2023_Mar_15_1135,SpeechDraft1Carolyn_lessNoise_PlusLocalization,2021.2.3,59.92418434921777,
,,,,,,,,midLeft,-13.0,2,ch1Sound_localizationTask.wav,-13.0,"(762, 878)","(-198,-202)",-190,-338,,,,,,,,,,,,,6,0,42,1,,,,,,,,,,,,,,,,,,,,,,,,,,,,,,,,,,,,,,,,1057.7612436551135,None,,,1060.7773399620783,None,1.3693121693121693,0.6500250401441008,1060.7773399620783,None,,,,,,,1058.760742570972,None,1058.9443823620677,1058.9608309471514,56,001,2023_Mar_15_1135,SpeechDraft1Carolyn_lessNoise_PlusLocalization,2021.2.3,59.92418434921777,
,,,,,,,,center,0.0,6,ch1Sound_localizationTask.wav,0.0,"(952, 878)","(-8,-202)",0,-338,,,,,,,,,,,,,6,1,43,3,,,,,,,,,,,,,,,,,,,,,,,,,,,,,,,,,,,,,,,,1061.4284972480964,None,,,1064.44374504406,None,1.4714285714285715,0.1494867540895939,1064.44374504406,None,,,,,,,1062.42759740795,None,1062.6108640930615,1062.6275597820058,56,001,2023_Mar_15_1135,SpeechDraft1Carolyn_lessNoise_PlusLocalization,2021.2.3,59.92418434921777,
,,,,,,,,nearLeft,-6.5,1,ch1Sound_localizationTask.wav,-6.5,"(857, 878)","(-103,-202)",-95,-338,,,,,,,,,,,,,6,2,44,2,,,,,,,,,,,,,,,,,,,,,,,,,,,,,,,,,,,,,,,,1064.6108116931282,None,,,1067.6271939040162,None,1.4507936507936507,0.1825284520164132,1067.6271939040162,None,,,,,,,1065.6110479130875,None,1065.7942690709606,1065.811060128035,56,001,2023_Mar_15_1135,SpeechDraft1Carolyn_lessNoise_PlusLocalization,2021.2.3,59.92418434921777,
,,,,,,,,midRight,13.0,3,ch1Sound_localizationTask.wav,13.0,"(1142, 878)","(182, -202)",190,-338,,,,,,,,,,,,,6,3,45,5,,,,,,,,,,,,,,,,,,,,,,,,,,,,,,,,,,,,,,,,1067.811283351155,None,,,1070.827238947153,None,1.6243386243386242,0.7318711029365659,1070.827238947153,None,,,,,,,1068.8109140261076,None,1068.9941372170579,1069.0108597991057,56,001,2023_Mar_15_1135,SpeechDraft1Carolyn_lessNoise_PlusLocalization,2021.2.3,59.92418434921777,
,,,,,,,,nearLeft,-6.5,1,ch1Sound_localizationTask.wav,-6.5,"(857, 878)","(-103,-202)",-95,-338,,,,,,,,,,,,,6,4,46,2,,,,,,,,,,,,,,,,,,,,,,,,,,,,,,,,,,,,,,,,1071.5609759110957,None,,,1074.577277706936,None,1.4407407407407407,0.3833972718566656,1074.577277706936,None,,,,,,,1072.5608652359806,None,1072.7441399490926,1072.7607198399492,56,001,2023_Mar_15_1135,SpeechDraft1Carolyn_lessNoise_PlusLocalization,2021.2.3,59.92418434921777,
,,,,,,,,nearLeft,-6.5,1,ch1Sound_localizationTask.wav,-6.5,"(857, 878)","(-103,-202)",-95,-338,,,,,,,,,,,,,6,5,47,2,,,,,,,,,,,,,,,,,,,,,,,,,,,,,,,,,,,,,,,,1074.961504304083,None,,,1077.9774490189739,None,1.4883597883597883,0.3836438290309161,1077.9774490189739,None,,,,,,,1075.960824625101,None,1076.1442950810306,1076.1612554150634,56,001,2023_Mar_15_1135,SpeechDraft1Carolyn_lessNoise_PlusLocalization,2021.2.3,59.92418434921777,
,,,,,,,,farRight,19.1,4,ch1Sound_localizationTask.wav,19.1,"(1237, 878)","(277,-202)",285,-338,,,,,,,,,,,,,6,6,48,6,,,,,,,,,,,,,,,,,,,,,,,,,,,,,,,,,,,,,,,,1078.3612997110467,None,,,1081.377313486999,None,1.6433862433862434,0.7323600200470537,1081.377313486999,None,,,,,,,1079.3607989030425,None,1079.5441728280857,1079.5609331419691,56,001,2023_Mar_15_1135,SpeechDraft1Carolyn_lessNoise_PlusLocalization,2021.2.3,59.92418434921777,
,,,,,,,,nearRight,6.5,0,ch1Sound_localizationTask.wav,6.5,"(1047, 878)","(87, -202)",95,-338,,,,,,,,,,,,,7,0,49,4,,,,,,,,,,,,,,,,,,,,,,,,,,,,,,,,,,,,,,,,1082.111021167133,None,,,1085.127246959135,None,1.5571428571428572,0.3503111300524324,1085.127246959135,None,,,,,,,1083.1109930570237,None,1083.2942876880988,1083.3110061420593,56,001,2023_Mar_15_1135,SpeechDraft1Carolyn_lessNoise_PlusLocalization,2021.2.3,59.92418434921777,
,,,,,,,,midLeft,-13.0,2,ch1Sound_localizationTask.wav,-13.0,"(762, 878)","(-198,-202)",-190,-338,,,,,,,,,,,,,7,1,50,1,,,,,,,,,,,,,,,,,,,,,,,,,,,,,,,,,,,,,,,,1085.4786870840471,None,,,1088.4941587729845,None,1.3476190476190477,0.8333026519976556,1088.4941587729845,None,,,,,,,1086.4774713160004,None,1086.6608148489613,1086.6775116270874,56,001,2023_Mar_15_1135,SpeechDraft1Carolyn_lessNoise_PlusLocalization,2021.2.3,59.92418434921777,
,,,,,,,,midRight,13.0,3,ch1Sound_localizationTask.wav,13.0,"(1142, 878)","(182, -202)",190,-338,,,,,,,,,,,,,7,2,51,5,,,,,,,,,,,,,,,,,,,,,,,,,,,,,,,,,,,,,,,,1089.328944223933,None,,,1092.3606893429533,None,1.585185185185185,0.50010692095384,1092.3606893429533,None,,,,,,,1090.3443545030896,None,1090.5274503719993,1090.5444661800284,56,001,2023_Mar_15_1135,SpeechDraft1Carolyn_lessNoise_PlusLocalization,2021.2.3,59.92418434921777,
,,,,,,,,farLeft,-19.1,5,ch1Sound_localizationTask.wav,-19.1,"(667, 878)","(-293,-202)",-285,-338,,,,,,,,,,,,,7,3,52,0,,,,,,,,,,,,,,,,,,,,,,,,,,,,,,,,,,,,,,,,1092.877770595951,None,,,1095.8940203969833,None,1.3529100529100528,0.5504002990201116,1095.8940203969833,None,,,,,,,1093.8775569931604,None,1094.0609637759626,1094.077420676127,56,001,2023_Mar_15_1135,SpeechDraft1Carolyn_lessNoise_PlusLocalization,2021.2.3,59.92418434921777,
,,,,,,,,nearLeft,-6.5,1,ch1Sound_localizationTask.wav,-6.5,"(857, 878)","(-103,-202)",-95,-338,,,,,,,,,,,,,7,4,53,2,,,,,,,,,,,,,,,,,,,,,,,,,,,,,,,,,,,,,,,,1096.4453727430664,None,,,1099.4610328329727,None,1.4164021164021166,0.3334733920637518,1099.4610328329727,None,,,,,,,1097.4443129899446,None,1097.6277369069867,1097.6441243051086,56,001,2023_Mar_15_1135,SpeechDraft1Carolyn_lessNoise_PlusLocalization,2021.2.3,59.92418434921777,
,,,,,,,,midRight,13.0,3,ch1Sound_localizationTask.wav,13.0,"(1142, 878)","(182, -202)",190,-338,,,,,,,,,,,,,7,5,54,5,,,,,,,,,,,,,,,,,,,,,,,,,,,,,,,,,,,,,,,,1099.7953262520023,None,,,1102.827292134054,None,1.547089947089947,0.1498858139384538,1102.827292134054,None,,,,,,,1100.810862318147,None,1100.9944059301633,1101.010849753162,56,001,2023_Mar_15_1135,SpeechDraft1Carolyn_lessNoise_PlusLocalization,2021.2.3,59.92418434921777,
,,,,,,,,midLeft,-13.0,2,ch1Sound_localizationTask.wav,-13.0,"(762, 878)","(-198,-202)",-190,-338,,,,,,,,,,,,,7,6,55,1,,,,,,,,,,,,,,,,,,,,,,,,,,,,,,,,,,,,,,,,1102.9943127781153,None,,,1106.0107912579551,None,1.3523809523809525,0.9002879259642214,1106.0107912579551,None,,,,,,,1103.9942795040552,None,1104.1777525560465,1104.1943072210997,56,001,2023_Mar_15_1135,SpeechDraft1Carolyn_lessNoise_PlusLocalization,2021.2.3,59.92418434921777,
