Audio_Only_Files,Video_Files,Original_Word_List,noiseLevelCode,conditionCodes,noiseLevelFile1,noiseLevelFile2,InstrTextVar,targetSpeakerName,targetSpeakerEccen,targetSpkrChannel,targetSpkrSound,targetVisualDegrees,visStimLoc,visStimLoc2,visStimW,visStimH,practiceTrials.thisRepN,practiceTrials.thisTrialN,practiceTrials.thisN,practiceTrials.thisIndex,trials.thisRepN,trials.thisTrialN,trials.thisN,trials.thisIndex,audLocalLoop.thisRepN,audLocalLoop.thisTrialN,audLocalLoop.thisN,audLocalLoop.thisIndex,visualLocalLoop.thisRepN,visualLocalLoop.thisTrialN,visualLocalLoop.thisN,visualLocalLoop.thisIndex,letsGoAlready.keys,letsGoAlready.rt,letsGoAlready.started,letsGoAlready.stopped,text_2.started,text_2.stopped,text_3.started,text_3.stopped,key_resp_2.keys,key_resp_2.rt,key_resp_2.started,key_resp_2.stopped,text_5.started,text_5.stopped,fixCross.started,fixCross.stopped,fixCross2.started,fixCross2.stopped,answerPrompt.started,answerPrompt.stopped,getAnswer.text,getAnswer.started,getAnswer.stopped,goToNext.keys,goToNext.rt,goToNext.started,goToNext.stopped,stretchBreakTxrt.started,stretchBreakTxrt.stopped,key_resp_3.keys,key_resp_3.rt,key_resp_3.started,key_resp_3.stopped,letsGoLocal.keys,letsGoLocal.rt,letsGoLocal.started,letsGoLocal.stopped,text_4.started,text_4.stopped,prepFixTxt.started,prepFixTxt.stopped,prepFixTxt_2.started,prepFixTxt_2.stopped,respPromptLocal.started,respPromptLocal.stopped,slider.response,slider.rt,slider.started,slider.stopped,letsGoLocal_2.keys,letsGoLocal_2.rt,letsGoLocal_2.started,letsGoLocal_2.stopped,text_7.started,text_7.stopped,prepFixTxt_3.started,prepFixTxt_3.stopped,grating.started,grating.stopped,participant,session,date,expName,psychopyVersion,frameRate,
,,,,,,,,,,,,,,,,,,,,,,,,,,,,,,,,,space,15.30908439005725,12.445492330938578,None,,,,,,,,,,,,,,,,,,,,,,,,,,,,,,,,,,,,,,,,,,,,,,,,,,,,,,,,60,001,2023_Mar_16_1155,SpeechDraft1Carolyn_lessNoise_PlusLocalization,2021.2.3,60.077145068909836,
,,,,,,,,,,,,,,,,,,,,,,,,,,,,,,,,,,,,,12.445492330938578,None,27.876201134873554,None,space,7.08776322286576,28.05887284898199,None,,,,,,,,,,,,,,,,,,,,,,,,,,,,,,,,,,,,,,,,,,,,,,,,60,001,2023_Mar_16_1155,SpeechDraft1Carolyn_lessNoise_PlusLocalization,2021.2.3,60.077145068909836,
ash.wav,ash.mpg,ash,1,A,Pink_Noise_1_1.wav,Pink_Noise_1_2.wav,"This is an example of an

AUDIO trial",,,,,,,,,,0,0,0,0,,,,,,,,,,,,,,,,,,,,,,,,,35.208599250996485,None,36.19234439288266,None,39.37547191604972,None,40.75884000188671,None,ash,40.75884000188671,None,return,4.88033808209002,40.84229317889549,None,,,,,,,,,,,,,,,,,,,,,,,,,,,,,,,,,60,001,2023_Mar_16_1155,SpeechDraft1Carolyn_lessNoise_PlusLocalization,2021.2.3,60.077145068909836,
ash.wav,ash.mpg,ash,1,AV,Pink_Noise_1_1.wav,Pink_Noise_1_2.wav,"This is an example of an

AUDIO + VIDEO  trial",,,,,,,,,,0,1,1,1,,,,,,,,,,,,,,,,,,,,,,,,,45.75880855508149,None,46.75883569009602,None,48.24373677093536,None,49.62541973288171,None,ash,49.62541973288171,None,return,3.781727882102132,49.708910181885585,None,,,,,,,,,,,,,,,,,,,,,,,,,,,,,,,,,60,001,2023_Mar_16_1155,SpeechDraft1Carolyn_lessNoise_PlusLocalization,2021.2.3,60.077145068909836,
,,,,,,,,,,,,,,,,,,,,,,,,,,,,,,,,,,,,,,,,,,,,,,,,,,,,,,,,,,,,53.52522643888369,None,space,10.725740595022216,53.70883968309499,None,,,,,,,,,,,,,,,,,,,,,,,,,,,60,001,2023_Mar_16_1155,SpeechDraft1Carolyn_lessNoise_PlusLocalization,2021.2.3,60.077145068909836,
flesh.wav,flesh.mpg,flesh,1,AV,Pink_Noise_1_1.wav,Pink_Noise_1_2.wav,,,,,,,,,,,,,,,0,0,0,79,,,,,,,,,,,,,,,,,,,,,,,64.49204468796961,None,65.95959360804409,None,67.34223956009373,None,"flush
",67.34223956009373,None,return,11.601123791886494,67.4254172439687,None,,,,,,,,,,,,,,,,,,,,,,,,,,,,,,,,,60,001,2023_Mar_16_1155,SpeechDraft1Carolyn_lessNoise_PlusLocalization,2021.2.3,60.077145068909836,
hug.wav,hug.mpg,hug,5,A,Pink_Noise_5_1.wav,Pink_Noise_5_2.wav,,,,,,,,,,,,,,,0,1,1,46,,,,,,,,,,,,,,,,,,,,,,,79.05902084708214,None,80.54200359387323,None,81.92574562691152,None,"cart
",81.92574562691152,None,return,3.1857965940143913,82.00874269893393,None,,,,,,,,,,,,,,,,,,,,,,,,,,,,,,,,,60,001,2023_Mar_16_1155,SpeechDraft1Carolyn_lessNoise_PlusLocalization,2021.2.3,60.077145068909836,
frame.wav,frame.mpg,frame,1,A,Pink_Noise_1_1.wav,Pink_Noise_1_2.wav,,,,,,,,,,,,,,,0,2,2,21,,,,,,,,,,,,,,,,,,,,,,,85.22542867809534,None,86.7255137830507,None,88.10873389802873,None,train,88.10873389802873,None,return,13.1301622078754,88.19249023287557,None,,,,,,,,,,,,,,,,,,,,,,,,,,,,,,,,,60,001,2023_Mar_16_1155,SpeechDraft1Carolyn_lessNoise_PlusLocalization,2021.2.3,60.077145068909836,
boil.wav,boil.mpg,boil,2,A,Pink_Noise_2_1.wav,Pink_Noise_2_2.wav,,,,,,,,,,,,,,,0,3,3,28,,,,,,,,,,,,,,,,,,,,,,,101.34214772190899,None,102.8423047568649,None,104.22580879507586,None,"oil
",104.22580879507586,None,return,3.8857440459541976,104.30880682799034,None,,,,,,,,,,,,,,,,,,,,,,,,,,,,,,,,,60,001,2023_Mar_16_1155,SpeechDraft1Carolyn_lessNoise_PlusLocalization,2021.2.3,60.077145068909836,
grass.wav,grass.mpg,grass,6,A,Pink_Noise_6_1.wav,Pink_Noise_6_2.wav,,,,,,,,,,,,,,,0,4,4,16,,,,,,,,,,,,,,,,,,,,,,,108.22551068500616,None,109.7253602000419,None,111.0923935289029,None,floss,111.0923935289029,None,return,4.843061765888706,111.17548414086923,None,,,,,,,,,,,,,,,,,,,,,,,,,,,,,,,,,60,001,2023_Mar_16_1155,SpeechDraft1Carolyn_lessNoise_PlusLocalization,2021.2.3,60.077145068909836,
flag.wav,flag.mpg,flag,5,A,Pink_Noise_5_1.wav,Pink_Noise_5_2.wav,,,,,,,,,,,,,,,0,5,5,24,,,,,,,,,,,,,,,,,,,,,,,116.04219526587985,None,117.52640029788017,None,118.9087822730653,None,trap,118.9087822730653,None,return,3.4981719041243196,118.99242513393983,None,,,,,,,,,,,,,,,,,,,,,,,,,,,,,,,,,60,001,2023_Mar_16_1155,SpeechDraft1Carolyn_lessNoise_PlusLocalization,2021.2.3,60.077145068909836,
dent.wav,dent.mpg,dent,1,AV,Pink_Noise_1_1.wav,Pink_Noise_1_2.wav,,,,,,,,,,,,,,,0,6,6,74,,,,,,,,,,,,,,,,,,,,,,,122.50945695186965,None,124.00900259404443,None,125.39241938991472,None,dent,125.39241938991472,None,return,2.654838568996638,125.47570191090927,None,,,,,,,,,,,,,,,,,,,,,,,,,,,,,,,,,60,001,2023_Mar_16_1155,SpeechDraft1Carolyn_lessNoise_PlusLocalization,2021.2.3,60.077145068909836,
pike.wav,pike.mpg,pike,6,A,Pink_Noise_6_1.wav,Pink_Noise_6_2.wav,,,,,,,,,,,,,,,0,7,7,33,,,,,,,,,,,,,,,,,,,,,,,128.15911380806938,None,129.65856837504543,None,131.04221852892078,None,"kite
",131.04221852892078,None,return,4.068704801145941,131.12585311708972,None,,,,,,,,,,,,,,,,,,,,,,,,,,,,,,,,,60,001,2023_Mar_16_1155,SpeechDraft1Carolyn_lessNoise_PlusLocalization,2021.2.3,60.077145068909836,
build.wav,build.mpg,build,1,AV,Pink_Noise_1_1.wav,Pink_Noise_1_2.wav,,,,,,,,,,,,,,,0,8,8,116,,,,,,,,,,,,,,,,,,,,,,,135.22558465087786,None,136.7253025129903,None,138.10890542902052,None,build,138.10890542902052,None,return,3.466319696046412,138.19235997996293,None,,,,,,,,,,,,,,,,,,,,,,,,,,,,,,,,,60,001,2023_Mar_16_1155,SpeechDraft1Carolyn_lessNoise_PlusLocalization,2021.2.3,60.077145068909836,
clay.wav,clay.mpg,clay,5,A,Pink_Noise_5_1.wav,Pink_Noise_5_2.wav,,,,,,,,,,,,,,,0,9,9,51,,,,,,,,,,,,,,,,,,,,,,,141.67577531607822,None,143.1754730970133,None,144.55899655097164,None,"yum
",144.55899655097164,None,return,9.800102123059332,144.64244979806244,None,,,,,,,,,,,,,,,,,,,,,,,,,,,,,,,,,60,001,2023_Mar_16_1155,SpeechDraft1Carolyn_lessNoise_PlusLocalization,2021.2.3,60.077145068909836,
chunk.wav,chunk.mpg,chunk,6,A,Pink_Noise_6_1.wav,Pink_Noise_6_2.wav,,,,,,,,,,,,,,,0,10,10,17,,,,,,,,,,,,,,,,,,,,,,,154.4755616618786,None,155.9753622659482,None,157.34246578486636,None,truck,157.34246578486636,None,return,3.1928466269746423,157.4256891789846,None,,,,,,,,,,,,,,,,,,,,,,,,,,,,,,,,,60,001,2023_Mar_16_1155,SpeechDraft1Carolyn_lessNoise_PlusLocalization,2021.2.3,60.077145068909836,
fowl.wav,fowl.mpg,fowl,1,AV,Pink_Noise_1_1.wav,Pink_Noise_1_2.wav,,,,,,,,,,,,,,,0,11,11,75,,,,,,,,,,,,,,,,,,,,,,,160.64240164402872,None,162.14206623798236,None,163.5257795068901,None,"foul
",163.5257795068901,None,return,6.833614331204444,163.6089251949452,None,,,,,,,,,,,,,,,,,,,,,,,,,,,,,,,,,60,001,2023_Mar_16_1155,SpeechDraft1Carolyn_lessNoise_PlusLocalization,2021.2.3,60.077145068909836,
buzz.wav,buzz.mpg,buzz,4,AV,Pink_Noise_4_1.wav,Pink_Noise_4_2.wav,,,,,,,,,,,,,,,0,12,12,89,,,,,,,,,,,,,,,,,,,,,,,170.47573565202765,None,171.97567484201863,None,173.3592633770313,None,buzz,173.3592633770313,None,return,2.5283028348349035,173.44225953286514,None,,,,,,,,,,,,,,,,,,,,,,,,,,,,,,,,,60,001,2023_Mar_16_1155,SpeechDraft1Carolyn_lessNoise_PlusLocalization,2021.2.3,60.077145068909836,
style.wav,style.mpg,style,5,AV,Pink_Noise_5_1.wav,Pink_Noise_5_2.wav,,,,,,,,,,,,,,,0,13,13,91,,,,,,,,,,,,,,,,,,,,,,,175.99228172493167,None,177.49218982202,None,178.87569942697883,None,"style
",178.87569942697883,None,return,4.267376333009452,178.95917616295628,None,,,,,,,,,,,,,,,,,,,,,,,,,,,,,,,,,60,001,2023_Mar_16_1155,SpeechDraft1Carolyn_lessNoise_PlusLocalization,2021.2.3,60.077145068909836,
cart.wav,cart.mpg,cart,3,AV,Pink_Noise_3_1.wav,Pink_Noise_3_2.wav,,,,,,,,,,,,,,,0,14,14,83,,,,,,,,,,,,,,,,,,,,,,,183.25892739207484,None,184.7586424339097,None,186.12560419994406,None,cart,186.12560419994406,None,return,3.0576161770150065,186.20908667892218,None,,,,,,,,,,,,,,,,,,,,,,,,,,,,,,,,,60,001,2023_Mar_16_1155,SpeechDraft1Carolyn_lessNoise_PlusLocalization,2021.2.3,60.077145068909836,
grant.wav,grant.mpg,grant,6,A,Pink_Noise_6_1.wav,Pink_Noise_6_2.wav,,,,,,,,,,,,,,,0,15,15,3,,,,,,,,,,,,,,,,,,,,,,,189.2923548030667,None,190.79203643091023,None,192.17582363495603,None,loss,192.17582363495603,None,return,2.5276238981168717,192.25891361292452,None,,,,,,,,,,,,,,,,,,,,,,,,,,,,,,,,,60,001,2023_Mar_16_1155,SpeechDraft1Carolyn_lessNoise_PlusLocalization,2021.2.3,60.077145068909836,
fade.wav,fade.mpg,fade,4,AV,Pink_Noise_4_1.wav,Pink_Noise_4_2.wav,,,,,,,,,,,,,,,0,16,16,71,,,,,,,,,,,,,,,,,,,,,,,194.8088857110124,None,196.30879127699882,None,197.6922742559109,None,fade,197.6922742559109,None,return,3.8986329848412424,197.77597945509478,None,,,,,,,,,,,,,,,,,,,,,,,,,,,,,,,,,60,001,2023_Mar_16_1155,SpeechDraft1Carolyn_lessNoise_PlusLocalization,2021.2.3,60.077145068909836,
dry.wav,dry.mpg,dry,4,AV,Pink_Noise_4_1.wav,Pink_Noise_4_2.wav,,,,,,,,,,,,,,,0,17,17,87,,,,,,,,,,,,,,,,,,,,,,,201.69255481497385,None,203.19196781795472,None,204.57551252888516,None,dru,204.57551252888516,None,return,2.6874367040582,204.65912672993727,None,,,,,,,,,,,,,,,,,,,,,,,,,,,,,,,,,60,001,2023_Mar_16_1155,SpeechDraft1Carolyn_lessNoise_PlusLocalization,2021.2.3,60.077145068909836,
bride.wav,bride.mpg,bride,4,A,Pink_Noise_4_1.wav,Pink_Noise_4_2.wav,,,,,,,,,,,,,,,0,18,18,35,,,,,,,,,,,,,,,,,,,,,,,207.3757788480725,None,208.87552313203923,None,210.25922057195567,None,ride,210.25922057195567,None,return,2.9882730580866337,210.34228806593455,None,,,,,,,,,,,,,,,,,,,,,,,,,,,,,,,,,60,001,2023_Mar_16_1155,SpeechDraft1Carolyn_lessNoise_PlusLocalization,2021.2.3,60.077145068909836,
ban.wav,ban.mpg,ban,5,A,Pink_Noise_5_1.wav,Pink_Noise_5_2.wav,,,,,,,,,,,,,,,0,19,19,57,,,,,,,,,,,,,,,,,,,,,,,213.35919391107745,None,214.85888631502166,None,216.24246807186864,None,stare,216.24246807186864,None,return,4.1650226609781384,216.32561664492823,None,,,,,,,,,,,,,,,,,,,,,,,,,,,,,,,,,60,001,2023_Mar_16_1155,SpeechDraft1Carolyn_lessNoise_PlusLocalization,2021.2.3,60.077145068909836,
fluff.wav,fluff.mpg,fluff,1,AV,Pink_Noise_1_1.wav,Pink_Noise_1_2.wav,,,,,,,,,,,,,,,0,20,20,96,,,,,,,,,,,,,,,,,,,,,,,220.50917928107083,None,222.00910156103782,None,223.39227704587393,None,"fluff
",223.39227704587393,None,return,8.102766450960189,223.47579746693373,None,,,,,,,,,,,,,,,,,,,,,,,,,,,,,,,,,60,001,2023_Mar_16_1155,SpeechDraft1Carolyn_lessNoise_PlusLocalization,2021.2.3,60.077145068909836,
brash.wav,brash.mpg,brash,5,A,Pink_Noise_5_1.wav,Pink_Noise_5_2.wav,,,,,,,,,,,,,,,0,21,21,13,,,,,,,,,,,,,,,,,,,,,,,231.60903074289672,None,233.10857424489222,None,234.49267686600797,None,thresh,234.49267686600797,None,return,3.258920402964577,234.5756654420402,None,,,,,,,,,,,,,,,,,,,,,,,,,,,,,,,,,60,001,2023_Mar_16_1155,SpeechDraft1Carolyn_lessNoise_PlusLocalization,2021.2.3,60.077145068909836,
priest.wav,priest.mpg,priest,3,AV,Pink_Noise_3_1.wav,Pink_Noise_3_2.wav,,,,,,,,,,,,,,,0,22,22,100,,,,,,,,,,,,,,,,,,,,,,,237.8593375289347,None,239.3586484019179,None,240.74254891602322,None,"priest
",240.74254891602322,None,return,7.152830112958327,240.82571798493154,None,,,,,,,,,,,,,,,,,,,,,,,,,,,,,,,,,60,001,2023_Mar_16_1155,SpeechDraft1Carolyn_lessNoise_PlusLocalization,2021.2.3,60.077145068909836,
cream.wav,cream.mpg,cream,5,A,Pink_Noise_5_1.wav,Pink_Noise_5_2.wav,,,,,,,,,,,,,,,0,23,23,7,,,,,,,,,,,,,,,,,,,,,,,248.0094541439321,None,249.50871703703888,None,250.89238473703153,None,stain,250.89238473703153,None,return,3.6905379199888557,250.97605192288756,None,,,,,,,,,,,,,,,,,,,,,,,,,,,,,,,,,60,001,2023_Mar_16_1155,SpeechDraft1Carolyn_lessNoise_PlusLocalization,2021.2.3,60.077145068909836,
boss.wav,boss.mpg,boss,5,AV,Pink_Noise_5_1.wav,Pink_Noise_5_2.wav,,,,,,,,,,,,,,,0,24,24,90,,,,,,,,,,,,,,,,,,,,,,,254.6926496110391,None,256.19243794097565,None,257.57581648486666,None,moss,257.57581648486666,None,return,2.543355419067666,257.65918001090176,None,,,,,,,,,,,,,,,,,,,,,,,,,,,,,,,,,60,001,2023_Mar_16_1155,SpeechDraft1Carolyn_lessNoise_PlusLocalization,2021.2.3,60.077145068909836,
gulf.wav,gulf.mpg,gulf,3,AV,Pink_Noise_3_1.wav,Pink_Noise_3_2.wav,,,,,,,,,,,,,,,0,25,25,107,,,,,,,,,,,,,,,,,,,,,,,260.2259554709308,None,261.72610909095965,None,263.10926443408243,None,golf,263.10926443408243,None,return,2.906126721063629,263.1925504929386,None,,,,,,,,,,,,,,,,,,,,,,,,,,,,,,,,,60,001,2023_Mar_16_1155,SpeechDraft1Carolyn_lessNoise_PlusLocalization,2021.2.3,60.077145068909836,
faint.wav,faint.mpg,faint,6,AV,Pink_Noise_6_1.wav,Pink_Noise_6_2.wav,,,,,,,,,,,,,,,0,26,26,62,,,,,,,,,,,,,,,,,,,,,,,266.1256465110928,None,267.62543057999574,None,269.00919419899583,None,flush,269.00919419899583,None,return,4.838311253115535,269.0923199679237,None,,,,,,,,,,,,,,,,,,,,,,,,,,,,,,,,,60,001,2023_Mar_16_1155,SpeechDraft1Carolyn_lessNoise_PlusLocalization,2021.2.3,60.077145068909836,
brew.wav,brew.mpg,brew,4,A,Pink_Noise_4_1.wav,Pink_Noise_4_2.wav,,,,,,,,,,,,,,,0,27,27,30,,,,,,,,,,,,,,,,,,,,,,,273.9756959879305,None,275.47578424890526,None,276.8592397880275,None,broom,276.8592397880275,None,return,3.0760601670481265,276.9424670089502,None,,,,,,,,,,,,,,,,,,,,,,,,,,,,,,,,,60,001,2023_Mar_16_1155,SpeechDraft1Carolyn_lessNoise_PlusLocalization,2021.2.3,60.077145068909836,
glove.wav,glove.mpg,glove,5,A,Pink_Noise_5_1.wav,Pink_Noise_5_2.wav,,,,,,,,,,,,,,,0,28,28,43,,,,,,,,,,,,,,,,,,,,,,,280.04248910490423,None,281.5423885129858,None,282.925837299088,None,cloak,282.925837299088,None,return,7.897345500998199,283.0092064959463,None,,,,,,,,,,,,,,,,,,,,,,,,,,,,,,,,,60,001,2023_Mar_16_1155,SpeechDraft1Carolyn_lessNoise_PlusLocalization,2021.2.3,60.077145068909836,
gown.wav,gown.mpg,gown,2,AV,Pink_Noise_2_1.wav,Pink_Noise_2_2.wav,,,,,,,,,,,,,,,0,29,29,105,,,,,,,,,,,,,,,,,,,,,,,290.9259648839943,None,292.4256427909713,None,293.8093696190044,None,gown,293.8093696190044,None,return,5.998149623861536,293.89239907008596,None,,,,,,,,,,,,,,,,,,,,,,,,,,,,,,,,,60,001,2023_Mar_16_1155,SpeechDraft1Carolyn_lessNoise_PlusLocalization,2021.2.3,60.077145068909836,
bee.wav,bee.mpg,bee,5,AV,Pink_Noise_5_1.wav,Pink_Noise_5_2.wav,,,,,,,,,,,,,,,0,30,30,66,,,,,,,,,,,,,,,,,,,,,,,299.9091860600747,None,301.40920709003694,None,302.79247866990045,None,beat,302.79247866990045,None,return,2.8307969411835074,302.87577858706936,None,,,,,,,,,,,,,,,,,,,,,,,,,,,,,,,,,60,001,2023_Mar_16_1155,SpeechDraft1Carolyn_lessNoise_PlusLocalization,2021.2.3,60.077145068909836,
drug.wav,drug.mpg,drug,4,AV,Pink_Noise_4_1.wav,Pink_Noise_4_2.wav,,,,,,,,,,,,,,,0,31,31,67,,,,,,,,,,,,,,,,,,,,,,,305.7259973678738,None,307.2281820778735,None,308.609159297077,None,drug,308.609159297077,None,return,2.6380410708952695,308.6925014790613,None,,,,,,,,,,,,,,,,,,,,,,,,,,,,,,,,,60,001,2023_Mar_16_1155,SpeechDraft1Carolyn_lessNoise_PlusLocalization,2021.2.3,60.077145068909836,
birth.wav,birth.mpg,birth,4,A,Pink_Noise_4_1.wav,Pink_Noise_4_2.wav,,,,,,,,,,,,,,,0,32,32,27,,,,,,,,,,,,,,,,,,,,,,,311.3591563629452,None,312.85898325708695,None,314.2427234740462,None,burnt,314.2427234740462,None,return,4.156776608200744,314.3259478439577,None,,,,,,,,,,,,,,,,,,,,,,,,,,,,,,,,,60,001,2023_Mar_16_1155,SpeechDraft1Carolyn_lessNoise_PlusLocalization,2021.2.3,60.077145068909836,
forth.wav,forth.mpg,forth,5,AV,Pink_Noise_5_1.wav,Pink_Noise_5_2.wav,,,,,,,,,,,,,,,0,33,33,113,,,,,,,,,,,,,,,,,,,,,,,318.50929535296746,None,320.0091477010865,None,321.3925239900127,None,choice,321.3925239900127,None,return,3.9268043250776827,321.47573290695436,None,,,,,,,,,,,,,,,,,,,,,,,,,,,,,,,,,60,001,2023_Mar_16_1155,SpeechDraft1Carolyn_lessNoise_PlusLocalization,2021.2.3,60.077145068909836,
ball.wav,ball.mpg,ball,4,AV,Pink_Noise_4_1.wav,Pink_Noise_4_2.wav,,,,,,,,,,,,,,,0,34,34,94,,,,,,,,,,,,,,,,,,,,,,,325.4259505078662,None,326.9256196450442,None,328.3091591540724,None,ball,328.3091591540724,None,return,4.129984739935026,328.3926781199407,None,,,,,,,,,,,,,,,,,,,,,,,,,,,,,,,,,60,001,2023_Mar_16_1155,SpeechDraft1Carolyn_lessNoise_PlusLocalization,2021.2.3,60.077145068909836,
wind.wav,wind.mpg,wind,1,AV,Pink_Noise_1_1.wav,Pink_Noise_1_2.wav,,,,,,,,,,,,,,,0,35,35,108,,,,,,,,,,,,,,,,,,,,,,,332.54288728395477,None,334.04231388890184,None,335.4261608598754,None,wind,335.4261608598754,None,return,2.445316586876288,335.50924076489173,None,,,,,,,,,,,,,,,,,,,,,,,,,,,,,,,,,60,001,2023_Mar_16_1155,SpeechDraft1Carolyn_lessNoise_PlusLocalization,2021.2.3,60.077145068909836,
nine.wav,nine.mpg,nine,1,AV,Pink_Noise_1_1.wav,Pink_Noise_1_2.wav,,,,,,,,,,,,,,,0,36,36,60,,,,,,,,,,,,,,,,,,,,,,,337.9763957748655,None,339.4760182448663,None,340.85927800508216,None,"nine
",340.85927800508216,None,return,5.267873322125524,340.9426681480836,None,,,,,,,,,,,,,,,,,,,,,,,,,,,,,,,,,60,001,2023_Mar_16_1155,SpeechDraft1Carolyn_lessNoise_PlusLocalization,2021.2.3,60.077145068909836,
cheek.wav,cheek.mpg,cheek,5,A,Pink_Noise_5_1.wav,Pink_Noise_5_2.wav,,,,,,,,,,,,,,,0,37,37,11,,,,,,,,,,,,,,,,,,,,,,,346.24250801699236,None,347.7425865409896,None,349.12583951395936,None,chips,349.12583951395936,None,return,3.057401510886848,349.2092558750883,None,,,,,,,,,,,,,,,,,,,,,,,,,,,,,,,,,60,001,2023_Mar_16_1155,SpeechDraft1Carolyn_lessNoise_PlusLocalization,2021.2.3,60.077145068909836,
dock.wav,dock.mpg,dock,6,A,Pink_Noise_6_1.wav,Pink_Noise_6_2.wav,,,,,,,,,,,,,,,0,38,38,19,,,,,,,,,,,,,,,,,,,,,,,352.29262278508395,None,353.7922486520838,None,355.1760781998746,None,floss,355.1760781998746,None,return,2.343133407877758,355.25937569793314,None,,,,,,,,,,,,,,,,,,,,,,,,,,,,,,,,,60,001,2023_Mar_16_1155,SpeechDraft1Carolyn_lessNoise_PlusLocalization,2021.2.3,60.077145068909836,
guilt.wav,guilt.mpg,guilt,2,A,Pink_Noise_2_1.wav,Pink_Noise_2_2.wav,,,,,,,,,,,,,,,0,39,39,40,,,,,,,,,,,,,,,,,,,,,,,357.6260097499471,None,359.125684106024,None,360.5093872558791,None,"guilt
",360.5093872558791,None,return,2.8338348059915006,360.59270639298484,None,,,,,,,,,,,,,,,,,,,,,,,,,,,,,,,,,60,001,2023_Mar_16_1155,SpeechDraft1Carolyn_lessNoise_PlusLocalization,2021.2.3,60.077145068909836,
clock.wav,clock.mpg,clock,3,A,Pink_Noise_3_1.wav,Pink_Noise_3_2.wav,,,,,,,,,,,,,,,0,40,40,5,,,,,,,,,,,,,,,,,,,,,,,363.45921524008736,None,364.9588081049733,None,366.3426274128724,None,clock,366.3426274128724,None,return,2.192602809984237,366.4259176289197,None,,,,,,,,,,,,,,,,,,,,,,,,,,,,,,,,,60,001,2023_Mar_16_1155,SpeechDraft1Carolyn_lessNoise_PlusLocalization,2021.2.3,60.077145068909836,
bush.wav,bush.mpg,bush,6,A,Pink_Noise_6_1.wav,Pink_Noise_6_2.wav,,,,,,,,,,,,,,,0,41,41,41,,,,,,,,,,,,,,,,,,,,,,,368.64262350206263,None,370.14225335395895,None,371.52607635594904,None,lunch,371.52607635594904,None,return,3.481099645141512,371.6094496410806,None,,,,,,,,,,,,,,,,,,,,,,,,,,,,,,,,,60,001,2023_Mar_16_1155,SpeechDraft1Carolyn_lessNoise_PlusLocalization,2021.2.3,60.077145068909836,
blink.wav,blink.mpg,blink,3,A,Pink_Noise_3_1.wav,Pink_Noise_3_2.wav,,,,,,,,,,,,,,,0,42,42,9,,,,,,,,,,,,,,,,,,,,,,,375.10949298902415,None,376.6091327019967,None,377.99265612103045,None,"blink
",377.99265612103045,None,return,2.486529899062589,378.07601512386464,None,,,,,,,,,,,,,,,,,,,,,,,,,,,,,,,,,60,001,2023_Mar_16_1155,SpeechDraft1Carolyn_lessNoise_PlusLocalization,2021.2.3,60.077145068909836,
fist.wav,fist.mpg,fist,4,AV,Pink_Noise_4_1.wav,Pink_Noise_4_2.wav,,,,,,,,,,,,,,,0,43,43,63,,,,,,,,,,,,,,,,,,,,,,,380.59253640589304,None,382.092423398979,None,383.47587551595643,None,fist,383.47587551595643,None,return,2.3313731350935996,383.5591955499258,None,,,,,,,,,,,,,,,,,,,,,,,,,,,,,,,,,60,001,2023_Mar_16_1155,SpeechDraft1Carolyn_lessNoise_PlusLocalization,2021.2.3,60.077145068909836,
rent.wav,rent.mpg,rent,5,AV,Pink_Noise_5_1.wav,Pink_Noise_5_2.wav,,,,,,,,,,,,,,,0,44,44,103,,,,,,,,,,,,,,,,,,,,,,,385.90919311903417,None,387.4089694120921,None,388.79275367897935,None,hurt,388.79275367897935,None,return,2.5827351619955152,388.87588225887157,None,,,,,,,,,,,,,,,,,,,,,,,,,,,,,,,,,60,001,2023_Mar_16_1155,SpeechDraft1Carolyn_lessNoise_PlusLocalization,2021.2.3,60.077145068909836,
paid.wav,paid.mpg,paid,4,A,Pink_Noise_4_1.wav,Pink_Noise_4_2.wav,,,,,,,,,,,,,,,0,45,45,50,,,,,,,,,,,,,,,,,,,,,,,391.4759488159325,None,392.99238043488003,None,394.3758975190576,None,pain,394.3758975190576,None,return,2.647106260061264,394.4594382829964,None,,,,,,,,,,,,,,,,,,,,,,,,,,,,,,,,,60,001,2023_Mar_16_1155,SpeechDraft1Carolyn_lessNoise_PlusLocalization,2021.2.3,60.077145068909836,
drunk.wav,drunk.mpg,drunk,6,A,Pink_Noise_6_1.wav,Pink_Noise_6_2.wav,,,,,,,,,,,,,,,0,46,46,31,,,,,,,,,,,,,,,,,,,,,,,397.1260781320743,None,398.62572743487544,None,400.0094949998893,None,"drunk
",400.0094949998893,None,return,2.6698490211274475,400.0926884969231,None,,,,,,,,,,,,,,,,,,,,,,,,,,,,,,,,,60,001,2023_Mar_16_1155,SpeechDraft1Carolyn_lessNoise_PlusLocalization,2021.2.3,60.077145068909836,
fold.wav,fold.mpg,fold,3,A,Pink_Noise_3_1.wav,Pink_Noise_3_2.wav,,,,,,,,,,,,,,,0,47,47,18,,,,,,,,,,,,,,,,,,,,,,,402.7926594389137,None,404.2927163010463,None,405.67598943109624,None,"fall
",405.67598943109624,None,return,2.25095974188298,405.7595996109303,None,,,,,,,,,,,,,,,,,,,,,,,,,,,,,,,,,60,001,2023_Mar_16_1155,SpeechDraft1Carolyn_lessNoise_PlusLocalization,2021.2.3,60.077145068909836,
bathe.wav,bathe.mpg,bathe,3,A,Pink_Noise_3_1.wav,Pink_Noise_3_2.wav,,,,,,,,,,,,,,,0,48,48,53,,,,,,,,,,,,,,,,,,,,,,,408.0427532668691,None,409.55937321903184,None,410.9262364259921,None,bathe,410.9262364259921,None,return,2.321069619851187,411.0094758239575,None,,,,,,,,,,,,,,,,,,,,,,,,,,,,,,,,,60,001,2023_Mar_16_1155,SpeechDraft1Carolyn_lessNoise_PlusLocalization,2021.2.3,60.077145068909836,
grab.wav,grab.mpg,grab,2,A,Pink_Noise_2_1.wav,Pink_Noise_2_2.wav,,,,,,,,,,,,,,,0,49,49,36,,,,,,,,,,,,,,,,,,,,,,,413.35922049102373,None,414.858955679927,None,416.2428743469063,None,grab,416.2428743469063,None,return,7.228184211067855,416.32636097306386,None,,,,,,,,,,,,,,,,,,,,,,,,,,,,,,,,,60,001,2023_Mar_16_1155,SpeechDraft1Carolyn_lessNoise_PlusLocalization,2021.2.3,60.077145068909836,
catch.wav,catch.mpg,catch,1,A,Pink_Noise_1_1.wav,Pink_Noise_1_2.wav,,,,,,,,,,,,,,,0,50,50,15,,,,,,,,,,,,,,,,,,,,,,,423.5760264529381,None,425.0758754340932,None,426.45940312789753,None,catch,426.45940312789753,None,return,5.556069143116474,426.5426668599248,None,,,,,,,,,,,,,,,,,,,,,,,,,,,,,,,,,60,001,2023_Mar_16_1155,SpeechDraft1Carolyn_lessNoise_PlusLocalization,2021.2.3,60.077145068909836,
brake.wav,brake.mpg,brake,6,AV,Pink_Noise_6_1.wav,Pink_Noise_6_2.wav,,,,,,,,,,,,,,,0,51,51,109,,,,,,,,,,,,,,,,,,,,,,,432.12620639498346,None,433.62667021504603,None,435.0093821908813,None,bait,435.0093821908813,None,return,3.3099127837922424,435.09260974498466,None,,,,,,,,,,,,,,,,,,,,,,,,,,,,,,,,,60,001,2023_Mar_16_1155,SpeechDraft1Carolyn_lessNoise_PlusLocalization,2021.2.3,60.077145068909836,
cult.wav,cult.mpg,cult,1,A,Pink_Noise_1_1.wav,Pink_Noise_1_2.wav,,,,,,,,,,,,,,,0,52,52,49,,,,,,,,,,,,,,,,,,,,,,,438.42633994086646,None,439.9260131078772,None,441.309352820972,None,"cult
",441.309352820972,None,return,2.233995382906869,441.39256284805015,None,,,,,,,,,,,,,,,,,,,,,,,,,,,,,,,,,60,001,2023_Mar_16_1155,SpeechDraft1Carolyn_lessNoise_PlusLocalization,2021.2.3,60.077145068909836,
east.wav,east.mpg,east,3,A,Pink_Noise_3_1.wav,Pink_Noise_3_2.wav,,,,,,,,,,,,,,,0,53,53,6,,,,,,,,,,,,,,,,,,,,,,,443.6594197829254,None,445.1591194830835,None,446.5428898099344,None,"beast
",446.5428898099344,None,return,2.3685328839346766,446.62601478095166,None,,,,,,,,,,,,,,,,,,,,,,,,,,,,,,,,,60,001,2023_Mar_16_1155,SpeechDraft1Carolyn_lessNoise_PlusLocalization,2021.2.3,60.077145068909836,
flaw.wav,flaw.mpg,flaw,2,AV,Pink_Noise_2_1.wav,Pink_Noise_2_2.wav,,,,,,,,,,,,,,,0,54,54,92,,,,,,,,,,,,,,,,,,,,,,,449.0259328999091,None,450.52613026602194,None,451.9095266649965,None,flaw,451.9095266649965,None,return,3.2097885191906244,451.9927293579094,None,,,,,,,,,,,,,,,,,,,,,,,,,,,,,,,,,60,001,2023_Mar_16_1155,SpeechDraft1Carolyn_lessNoise_PlusLocalization,2021.2.3,60.077145068909836,
feud.wav,feud.mpg,feud,4,AV,Pink_Noise_4_1.wav,Pink_Noise_4_2.wav,,,,,,,,,,,,,,,0,55,55,112,,,,,,,,,,,,,,,,,,,,,,,455.2258972870186,None,456.7257593178656,None,458.10958752804436,None,"feud
",458.10958752804436,None,return,2.6018714271485806,458.1926704950165,None,,,,,,,,,,,,,,,,,,,,,,,,,,,,,,,,,60,001,2023_Mar_16_1155,SpeechDraft1Carolyn_lessNoise_PlusLocalization,2021.2.3,60.077145068909836,
green.wav,green.mpg,green,2,A,Pink_Noise_2_1.wav,Pink_Noise_2_2.wav,,,,,,,,,,,,,,,0,56,56,25,,,,,,,,,,,,,,,,,,,,,,,460.826199661009,None,462.32642356096767,None,463.70943481405266,None,green,463.70943481405266,None,return,1.7216762639582157,463.79292952502146,None,,,,,,,,,,,,,,,,,,,,,,,,,,,,,,,,,60,001,2023_Mar_16_1155,SpeechDraft1Carolyn_lessNoise_PlusLocalization,2021.2.3,60.077145068909836,
cute.wav,cute.mpg,cute,1,A,Pink_Noise_1_1.wav,Pink_Noise_1_2.wav,,,,,,,,,,,,,,,0,57,57,0,,,,,,,,,,,,,,,,,,,,,,,465.5430143070407,None,467.0425767239649,None,468.4263430200517,None,cute,468.4263430200517,None,return,1.66114342212677,468.50939362100326,None,,,,,,,,,,,,,,,,,,,,,,,,,,,,,,,,,60,001,2023_Mar_16_1155,SpeechDraft1Carolyn_lessNoise_PlusLocalization,2021.2.3,60.077145068909836,
brown.wav,brown.mpg,brown,3,AV,Pink_Noise_3_1.wav,Pink_Noise_3_2.wav,,,,,,,,,,,,,,,0,58,58,68,,,,,,,,,,,,,,,,,,,,,,,470.1930040139705,None,471.6923719418701,None,473.0759543259628,None,brown,473.0759543259628,None,return,4.738992902915925,473.1596922299359,None,,,,,,,,,,,,,,,,,,,,,,,,,,,,,,,,,60,001,2023_Mar_16_1155,SpeechDraft1Carolyn_lessNoise_PlusLocalization,2021.2.3,60.077145068909836,
wear.wav,wear.mpg,wear,1,A,Pink_Noise_1_1.wav,Pink_Noise_1_2.wav,,,,,,,,,,,,,,,0,59,59,4,,,,,,,,,,,,,,,,,,,,,,,477.9262097380124,None,479.44251160207205,None,480.8262414028868,None,where,480.8262414028868,None,return,2.5810978699009866,480.909583250992,None,,,,,,,,,,,,,,,,,,,,,,,,,,,,,,,,,60,001,2023_Mar_16_1155,SpeechDraft1Carolyn_lessNoise_PlusLocalization,2021.2.3,60.077145068909836,
gut.wav,gut.mpg,gut,4,AV,Pink_Noise_4_1.wav,Pink_Noise_4_2.wav,,,,,,,,,,,,,,,0,60,60,104,,,,,,,,,,,,,,,,,,,,,,,483.50971348793246,None,485.0090716620907,None,486.39270367706195,None,"gut
",486.39270367706195,None,return,1.9022950190119445,486.47625751188025,None,,,,,,,,,,,,,,,,,,,,,,,,,,,,,,,,,60,001,2023_Mar_16_1155,SpeechDraft1Carolyn_lessNoise_PlusLocalization,2021.2.3,60.077145068909836,
drum.wav,drum.mpg,drum,6,AV,Pink_Noise_6_1.wav,Pink_Noise_6_2.wav,,,,,,,,,,,,,,,0,61,61,102,,,,,,,,,,,,,,,,,,,,,,,488.4094956680201,None,489.90923208603635,None,491.2925757179037,None,drop,491.2925757179037,None,return,7.530314021045342,491.37629747600295,None,,,,,,,,,,,,,,,,,,,,,,,,,,,,,,,,,60,001,2023_Mar_16_1155,SpeechDraft1Carolyn_lessNoise_PlusLocalization,2021.2.3,60.077145068909836,
barge.wav,barge.mpg,barge,4,A,Pink_Noise_4_1.wav,Pink_Noise_4_2.wav,,,,,,,,,,,,,,,0,62,62,52,,,,,,,,,,,,,,,,,,,,,,,498.9263958069496,None,500.442680187989,None,501.8097458819393,None,large,501.8097458819393,None,return,2.8618026848416775,501.8927420009859,None,,,,,,,,,,,,,,,,,,,,,,,,,,,,,,,,,60,001,2023_Mar_16_1155,SpeechDraft1Carolyn_lessNoise_PlusLocalization,2021.2.3,60.077145068909836,
feast.wav,feast.mpg,feast,3,AV,Pink_Noise_3_1.wav,Pink_Noise_3_2.wav,,,,,,,,,,,,,,,0,63,63,106,,,,,,,,,,,,,,,,,,,,,,,504.7760595008731,None,506.29269444197416,None,507.6758868850302,None,feast,507.6758868850302,None,return,3.691129785962403,507.75945792300627,None,,,,,,,,,,,,,,,,,,,,,,,,,,,,,,,,,60,001,2023_Mar_16_1155,SpeechDraft1Carolyn_lessNoise_PlusLocalization,2021.2.3,60.077145068909836,
clad.wav,clad.mpg,clad,2,A,Pink_Noise_2_1.wav,Pink_Noise_2_2.wav,,,,,,,,,,,,,,,0,64,64,48,,,,,,,,,,,,,,,,,,,,,,,511.47611847589724,None,512.9759047720581,None,514.3594289498869,None,"clad
",514.3594289498869,None,return,5.535602843854576,514.4429497770034,None,,,,,,,,,,,,,,,,,,,,,,,,,,,,,,,,,60,001,2023_Mar_16_1155,SpeechDraft1Carolyn_lessNoise_PlusLocalization,2021.2.3,60.077145068909836,
gum.wav,gum.mpg,gum,4,A,Pink_Noise_4_1.wav,Pink_Noise_4_2.wav,,,,,,,,,,,,,,,0,65,65,23,,,,,,,,,,,,,,,,,,,,,,,520.0096131688915,None,521.5260035819374,None,522.9095489368774,None,gun,522.9095489368774,None,return,1.6975615359842777,522.9929835828952,None,,,,,,,,,,,,,,,,,,,,,,,,,,,,,,,,,60,001,2023_Mar_16_1155,SpeechDraft1Carolyn_lessNoise_PlusLocalization,2021.2.3,60.077145068909836,
broke.wav,broke.mpg,broke,5,AV,Pink_Noise_5_1.wav,Pink_Noise_5_2.wav,,,,,,,,,,,,,,,0,66,66,99,,,,,,,,,,,,,,,,,,,,,,,524.7094020058867,None,526.2091446730774,None,527.592955160886,None,birth,527.592955160886,None,return,3.8461270788684487,527.6764687439427,None,,,,,,,,,,,,,,,,,,,,,,,,,,,,,,,,,60,001,2023_Mar_16_1155,SpeechDraft1Carolyn_lessNoise_PlusLocalization,2021.2.3,60.077145068909836,
cat.wav,cat.mpg,cat,3,A,Pink_Noise_3_1.wav,Pink_Noise_3_2.wav,,,,,,,,,,,,,,,0,67,67,2,,,,,,,,,,,,,,,,,,,,,,,531.5428064260632,None,533.042544614058,None,534.4260805209633,None,cat,534.4260805209633,None,return,1.7490169580560178,534.5096464389935,None,,,,,,,,,,,,,,,,,,,,,,,,,,,,,,,,,60,001,2023_Mar_16_1155,SpeechDraft1Carolyn_lessNoise_PlusLocalization,2021.2.3,60.077145068909836,
brisk.wav,brisk.mpg,brisk,6,AV,Pink_Noise_6_1.wav,Pink_Noise_6_2.wav,,,,,,,,,,,,,,,0,68,68,77,,,,,,,,,,,,,,,,,,,,,,,536.2764988690615,None,537.7759411099833,None,539.1594212139025,None,brisk,539.1594212139025,None,return,5.6477249099407345,539.2428241958842,None,,,,,,,,,,,,,,,,,,,,,,,,,,,,,,,,,60,001,2023_Mar_16_1155,SpeechDraft1Carolyn_lessNoise_PlusLocalization,2021.2.3,60.077145068909836,
grunt.wav,grunt.mpg,grunt,1,A,Pink_Noise_1_1.wav,Pink_Noise_1_2.wav,,,,,,,,,,,,,,,0,69,69,12,,,,,,,,,,,,,,,,,,,,,,,544.9095702779014,None,546.4259671599139,None,547.8093938599341,None,grunt,547.8093938599341,None,return,2.277656296035275,547.8928948289249,None,,,,,,,,,,,,,,,,,,,,,,,,,,,,,,,,,60,001,2023_Mar_16_1155,SpeechDraft1Carolyn_lessNoise_PlusLocalization,2021.2.3,60.077145068909836,
blush.wav,blush.mpg,blush,6,AV,Pink_Noise_6_1.wav,Pink_Noise_6_2.wav,,,,,,,,,,,,,,,0,70,70,88,,,,,,,,,,,,,,,,,,,,,,,550.1928324149922,None,551.6926179579459,None,553.0762556989212,None,blush,553.0762556989212,None,return,6.730927722994238,553.159653509967,None,,,,,,,,,,,,,,,,,,,,,,,,,,,,,,,,,60,001,2023_Mar_16_1155,SpeechDraft1Carolyn_lessNoise_PlusLocalization,2021.2.3,60.077145068909836,
crook.wav,crook.mpg,crook,2,AV,Pink_Noise_2_1.wav,Pink_Noise_2_2.wav,,,,,,,,,,,,,,,0,71,71,65,,,,,,,,,,,,,,,,,,,,,,,559.9094013259746,None,561.4115503570065,None,562.7929153870791,None,crook,562.7929153870791,None,return,4.030383154982701,562.8762599129695,None,,,,,,,,,,,,,,,,,,,,,,,,,,,,,,,,,60,001,2023_Mar_16_1155,SpeechDraft1Carolyn_lessNoise_PlusLocalization,2021.2.3,60.077145068909836,
fast.wav,fast.mpg,fast,5,A,Pink_Noise_5_1.wav,Pink_Noise_5_2.wav,,,,,,,,,,,,,,,0,72,72,22,,,,,,,,,,,,,,,,,,,,,,,566.9264231829438,None,568.4264125279151,None,569.8095368149225,None,"mask
",569.8095368149225,None,return,2.0855124129448086,569.8930378048681,None,,,,,,,,,,,,,,,,,,,,,,,,,,,,,,,,,60,001,2023_Mar_16_1155,SpeechDraft1Carolyn_lessNoise_PlusLocalization,2021.2.3,60.077145068909836,
grief.wav,grief.mpg,grief,2,AV,Pink_Noise_2_1.wav,Pink_Noise_2_2.wav,,,,,,,,,,,,,,,0,73,73,72,,,,,,,,,,,,,,,,,,,,,,,572.0095155169256,None,573.5260193110444,None,574.8930583619513,None,"grief
",574.8930583619513,None,return,2.402376130921766,574.976162143983,None,,,,,,,,,,,,,,,,,,,,,,,,,,,,,,,,,60,001,2023_Mar_16_1155,SpeechDraft1Carolyn_lessNoise_PlusLocalization,2021.2.3,60.077145068909836,
chant.wav,chant.mpg,chant,3,A,Pink_Noise_3_1.wav,Pink_Noise_3_2.wav,,,,,,,,,,,,,,,0,74,74,37,,,,,,,,,,,,,,,,,,,,,,,577.4094872290734,None,578.9092582468875,None,580.292875162093,None,"chant
",580.292875162093,None,return,2.3862944929860532,580.3762523520272,None,,,,,,,,,,,,,,,,,,,,,,,,,,,,,,,,,60,001,2023_Mar_16_1155,SpeechDraft1Carolyn_lessNoise_PlusLocalization,2021.2.3,60.077145068909836,
blame.wav,blame.mpg,blame,5,AV,Pink_Noise_5_1.wav,Pink_Noise_5_2.wav,,,,,,,,,,,,,,,0,75,75,101,,,,,,,,,,,,,,,,,,,,,,,582.7931656029541,None,584.292698354926,None,585.6762868040241,None,lamb,585.6762868040241,None,return,1.9150958280079067,585.759516190039,None,,,,,,,,,,,,,,,,,,,,,,,,,,,,,,,,,60,001,2023_Mar_16_1155,SpeechDraft1Carolyn_lessNoise_PlusLocalization,2021.2.3,60.077145068909836,
gap.wav,gap.mpg,gap,4,A,Pink_Noise_4_1.wav,Pink_Noise_4_2.wav,,,,,,,,,,,,,,,0,76,76,32,,,,,,,,,,,,,,,,,,,,,,,587.6932006520219,None,589.1928383819759,None,590.576158571057,None,gap,590.576158571057,None,return,1.4708297331817448,590.6597282520961,None,,,,,,,,,,,,,,,,,,,,,,,,,,,,,,,,,60,001,2023_Mar_16_1155,SpeechDraft1Carolyn_lessNoise_PlusLocalization,2021.2.3,60.077145068909836,
fetch.wav,fetch.mpg,fetch,6,A,Pink_Noise_6_1.wav,Pink_Noise_6_2.wav,,,,,,,,,,,,,,,0,77,77,58,,,,,,,,,,,,,,,,,,,,,,,592.1597851898987,None,593.6593770310283,None,595.0428452689666,None,"catch
",595.0428452689666,None,return,1.8842298442032188,595.1263117438648,None,,,,,,,,,,,,,,,,,,,,,,,,,,,,,,,,,60,001,2023_Mar_16_1155,SpeechDraft1Carolyn_lessNoise_PlusLocalization,2021.2.3,60.077145068909836,
batch.wav,batch.mpg,batch,2,A,Pink_Noise_2_1.wav,Pink_Noise_2_2.wav,,,,,,,,,,,,,,,0,78,78,29,,,,,,,,,,,,,,,,,,,,,,,597.0428747548722,None,598.5426210418809,None,599.9264643979259,None,"batch
",599.9264643979259,None,return,1.7368077640421689,600.0097691400442,None,,,,,,,,,,,,,,,,,,,,,,,,,,,,,,,,,60,001,2023_Mar_16_1155,SpeechDraft1Carolyn_lessNoise_PlusLocalization,2021.2.3,60.077145068909836,
cramp.wav,cramp.mpg,cramp,1,AV,Pink_Noise_1_1.wav,Pink_Noise_1_2.wav,,,,,,,,,,,,,,,0,79,79,82,,,,,,,,,,,,,,,,,,,,,,,601.7763224050868,None,603.2760762888938,None,604.6597336209379,None,"cram
",604.6597336209379,None,return,2.9876727319788188,604.7428791979328,None,,,,,,,,,,,,,,,,,,,,,,,,,,,,,,,,,60,001,2023_Mar_16_1155,SpeechDraft1Carolyn_lessNoise_PlusLocalization,2021.2.3,60.077145068909836,
bird.wav,bird.mpg,bird,1,A,Pink_Noise_1_1.wav,Pink_Noise_1_2.wav,,,,,,,,,,,,,,,0,80,80,42,,,,,,,,,,,,,,,,,,,,,,,607.759507301962,None,609.2762631569058,None,610.6598193910904,None,bird,610.6598193910904,None,return,1.499516632175073,610.74313810491,None,,,,,,,,,,,,,,,,,,,,,,,,,,,,,,,,,60,001,2023_Mar_16_1155,SpeechDraft1Carolyn_lessNoise_PlusLocalization,2021.2.3,60.077145068909836,
wheat.wav,wheat.mpg,wheat,6,AV,Pink_Noise_6_1.wav,Pink_Noise_6_2.wav,,,,,,,,,,,,,,,0,81,81,117,,,,,,,,,,,,,,,,,,,,,,,612.2595146440435,None,613.7594296250027,None,615.14303427306,None,wheat,615.14303427306,None,return,2.808180289110169,615.2263594570104,None,,,,,,,,,,,,,,,,,,,,,,,,,,,,,,,,,60,001,2023_Mar_16_1155,SpeechDraft1Carolyn_lessNoise_PlusLocalization,2021.2.3,60.077145068909836,
tank.wav,tank.mpg,tank,3,AV,Pink_Noise_3_1.wav,Pink_Noise_3_2.wav,,,,,,,,,,,,,,,0,82,82,118,,,,,,,,,,,,,,,,,,,,,,,618.059751420049,None,619.5593879618682,None,620.9428459929768,None,teg,620.9428459929768,None,return,2.2881767300423235,621.026372875087,None,,,,,,,,,,,,,,,,,,,,,,,,,,,,,,,,,60,001,2023_Mar_16_1155,SpeechDraft1Carolyn_lessNoise_PlusLocalization,2021.2.3,60.077145068909836,
leapt.wav,leapt.mpg,leapt,4,A,Pink_Noise_4_1.wav,Pink_Noise_4_2.wav,,,,,,,,,,,,,,,0,83,83,14,,,,,,,,,,,,,,,,,,,,,,,623.3429969770368,None,624.8428864020389,None,626.2263653900009,None,melt,626.2263653900009,None,return,3.108663192950189,626.3098863898776,None,,,,,,,,,,,,,,,,,,,,,,,,,,,,,,,,,60,001,2023_Mar_16_1155,SpeechDraft1Carolyn_lessNoise_PlusLocalization,2021.2.3,60.077145068909836,
chain.wav,chain.mpg,chain,6,A,Pink_Noise_6_1.wav,Pink_Noise_6_2.wav,,,,,,,,,,,,,,,0,84,84,8,,,,,,,,,,,,,,,,,,,,,,,629.4429138929117,None,630.9425256559625,None,632.326398058096,None,chair,632.326398058096,None,return,1.5049685440026224,632.4095743729267,None,,,,,,,,,,,,,,,,,,,,,,,,,,,,,,,,,60,001,2023_Mar_16_1155,SpeechDraft1Carolyn_lessNoise_PlusLocalization,2021.2.3,60.077145068909836,
fed.wav,fed.mpg,fed,3,A,Pink_Noise_3_1.wav,Pink_Noise_3_2.wav,,,,,,,,,,,,,,,0,85,85,39,,,,,,,,,,,,,,,,,,,,,,,633.9431223000865,None,635.4447392730508,None,636.8264654669911,None,bed,636.8264654669911,None,return,1.0929819049779326,636.9095561569557,None,,,,,,,,,,,,,,,,,,,,,,,,,,,,,,,,,60,001,2023_Mar_16_1155,SpeechDraft1Carolyn_lessNoise_PlusLocalization,2021.2.3,60.077145068909836,
chomp.wav,chomp.mpg,chomp,1,A,Pink_Noise_1_1.wav,Pink_Noise_1_2.wav,,,,,,,,,,,,,,,0,86,86,10,,,,,,,,,,,,,,,,,,,,,,,638.0262350819539,None,639.5260564370546,None,640.9095367740374,None,chomp,640.9095367740374,None,return,2.1206953120417893,641.0098370520864,None,,,,,,,,,,,,,,,,,,,,,,,,,,,,,,,,,60,001,2023_Mar_16_1155,SpeechDraft1Carolyn_lessNoise_PlusLocalization,2021.2.3,60.077145068909836,
bag.wav,bag.mpg,bag,1,AV,Pink_Noise_1_1.wav,Pink_Noise_1_2.wav,,,,,,,,,,,,,,,0,87,87,110,,,,,,,,,,,,,,,,,,,,,,,643.159821732901,None,644.6593771919142,None,646.0428305719979,None,bag,646.0428305719979,None,return,1.4281389811076224,646.1264151039068,None,,,,,,,,,,,,,,,,,,,,,,,,,,,,,,,,,60,001,2023_Mar_16_1155,SpeechDraft1Carolyn_lessNoise_PlusLocalization,2021.2.3,60.077145068909836,
bass.wav,bass.mpg,bass,3,AV,Pink_Noise_3_1.wav,Pink_Noise_3_2.wav,,,,,,,,,,,,,,,0,88,88,119,,,,,,,,,,,,,,,,,,,,,,,647.576287390897,None,649.0780354049057,None,650.459790811874,None,vase,650.459790811874,None,return,2.0594807697925717,650.5430557250511,None,,,,,,,,,,,,,,,,,,,,,,,,,,,,,,,,,60,001,2023_Mar_16_1155,SpeechDraft1Carolyn_lessNoise_PlusLocalization,2021.2.3,60.077145068909836,
tomb.wav,tomb.mpg,tomb,5,A,Pink_Noise_5_1.wav,Pink_Noise_5_2.wav,,,,,,,,,,,,,,,0,89,89,38,,,,,,,,,,,,,,,,,,,,,,,652.6265586519148,None,654.1259925209451,None,655.5096178450622,None,broom,655.5096178450622,None,return,3.137394707882777,655.5931571610272,None,,,,,,,,,,,,,,,,,,,,,,,,,,,,,,,,,60,001,2023_Mar_16_1155,SpeechDraft1Carolyn_lessNoise_PlusLocalization,2021.2.3,60.077145068909836,
grave.wav,grave.mpg,grave,3,AV,Pink_Noise_3_1.wav,Pink_Noise_3_2.wav,,,,,,,,,,,,,,,0,90,90,86,,,,,,,,,,,,,,,,,,,,,,,658.7595235069748,None,660.2593262740411,None,661.6430212229025,None,"grave
",661.6430212229025,None,return,2.8683006181381643,661.7262596110813,None,,,,,,,,,,,,,,,,,,,,,,,,,,,,,,,,,60,001,2023_Mar_16_1155,SpeechDraft1Carolyn_lessNoise_PlusLocalization,2021.2.3,60.077145068909836,
pride.wav,pride.mpg,pride,6,AV,Pink_Noise_6_1.wav,Pink_Noise_6_2.wav,,,,,,,,,,,,,,,0,91,91,78,,,,,,,,,,,,,,,,,,,,,,,664.6263017640449,None,666.1260319440626,None,667.5096907510888,None,black,667.5096907510888,None,return,2.545290549052879,667.5931995848659,None,,,,,,,,,,,,,,,,,,,,,,,,,,,,,,,,,60,001,2023_Mar_16_1155,SpeechDraft1Carolyn_lessNoise_PlusLocalization,2021.2.3,60.077145068909836,
gone.wav,gone.mpg,gone,2,A,Pink_Noise_2_1.wav,Pink_Noise_2_2.wav,,,,,,,,,,,,,,,0,92,92,56,,,,,,,,,,,,,,,,,,,,,,,670.1597704780288,None,671.6760322379414,None,673.059730442008,None,gone,673.059730442008,None,return,1.5473660649731755,673.1431850180961,None,,,,,,,,,,,,,,,,,,,,,,,,,,,,,,,,,60,001,2023_Mar_16_1155,SpeechDraft1Carolyn_lessNoise_PlusLocalization,2021.2.3,60.077145068909836,
blur.wav,blur.mpg,blur,1,AV,Pink_Noise_1_1.wav,Pink_Noise_1_2.wav,,,,,,,,,,,,,,,0,93,93,70,,,,,,,,,,,,,,,,,,,,,,,674.7098534130491,None,676.2093439649325,None,677.5930583928712,None,blur,677.5930583928712,None,return,7.462045336142182,677.676501607988,None,,,,,,,,,,,,,,,,,,,,,,,,,,,,,,,,,60,001,2023_Mar_16_1155,SpeechDraft1Carolyn_lessNoise_PlusLocalization,2021.2.3,60.077145068909836,
fine.wav,fine.mpg,fine,6,AV,Pink_Noise_6_1.wav,Pink_Noise_6_2.wav,,,,,,,,,,,,,,,0,94,94,115,,,,,,,,,,,,,,,,,,,,,,,685.159603971988,None,686.6601689809468,None,688.0429674750194,None,,688.0429674750194,None,return,0.16397553589195013,688.1266214409843,None,,,,,,,,,,,,,,,,,,,,,,,,,,,,,,,,,60,001,2023_Mar_16_1155,SpeechDraft1Carolyn_lessNoise_PlusLocalization,2021.2.3,60.077145068909836,
vest.wav,vest.mpg,vest,2,AV,Pink_Noise_2_1.wav,Pink_Noise_2_2.wav,,,,,,,,,,,,,,,0,95,95,81,,,,,,,,,,,,,,,,,,,,,,,688.3105356700253,None,689.8097423950676,None,691.1931608780287,None,"fest
",691.1931608780287,None,return,1.718241852009669,691.2763164590579,None,,,,,,,,,,,,,,,,,,,,,,,,,,,,,,,,,60,001,2023_Mar_16_1155,SpeechDraft1Carolyn_lessNoise_PlusLocalization,2021.2.3,60.077145068909836,
cow.wav,cow.mpg,cow,1,A,Pink_Noise_1_1.wav,Pink_Noise_1_2.wav,,,,,,,,,,,,,,,0,96,96,1,,,,,,,,,,,,,,,,,,,,,,,693.0263217808679,None,694.526448141085,None,695.9097239209805,None,cow,695.9097239209805,None,return,1.6733720789197832,695.9933249058668,None,,,,,,,,,,,,,,,,,,,,,,,,,,,,,,,,,60,001,2023_Mar_16_1155,SpeechDraft1Carolyn_lessNoise_PlusLocalization,2021.2.3,60.077145068909836,
blot.wav,blot.mpg,blot,5,AV,Pink_Noise_5_1.wav,Pink_Noise_5_2.wav,,,,,,,,,,,,,,,0,97,97,64,,,,,,,,,,,,,,,,,,,,,,,697.6931759850122,None,699.1934893149883,None,700.5765338749625,None,"black
",700.5765338749625,None,return,3.0867950920946896,700.6597481099889,None,,,,,,,,,,,,,,,,,,,,,,,,,,,,,,,,,60,001,2023_Mar_16_1155,SpeechDraft1Carolyn_lessNoise_PlusLocalization,2021.2.3,60.077145068909836,
dull.wav,dull.mpg,dull,4,AV,Pink_Noise_4_1.wav,Pink_Noise_4_2.wav,,,,,,,,,,,,,,,0,98,98,85,,,,,,,,,,,,,,,,,,,,,,,703.7765404279344,None,705.2774190290365,None,706.6596113159321,None,"doll
",706.6596113159321,None,return,4.3873652901966125,706.7432193139102,None,,,,,,,,,,,,,,,,,,,,,,,,,,,,,,,,,60,001,2023_Mar_16_1155,SpeechDraft1Carolyn_lessNoise_PlusLocalization,2021.2.3,60.077145068909836,
brief.wav,brief.mpg,brief,2,AV,Pink_Noise_2_1.wav,Pink_Noise_2_2.wav,,,,,,,,,,,,,,,0,99,99,98,,,,,,,,,,,,,,,,,,,,,,,711.159928485984,None,712.6599793338683,None,714.0430115249474,None,brief,714.0430115249474,None,return,4.524196051992476,714.1264307498932,None,,,,,,,,,,,,,,,,,,,,,,,,,,,,,,,,,60,001,2023_Mar_16_1155,SpeechDraft1Carolyn_lessNoise_PlusLocalization,2021.2.3,60.077145068909836,
bay.wav,bay.mpg,bay,6,AV,Pink_Noise_6_1.wav,Pink_Noise_6_2.wav,,,,,,,,,,,,,,,0,100,100,84,,,,,,,,,,,,,,,,,,,,,,,718.676579088904,None,720.19275328191,None,721.5762463179417,None,man,721.5762463179417,None,return,3.1265023469459265,721.6600350900553,None,,,,,,,,,,,,,,,,,,,,,,,,,,,,,,,,,60,001,2023_Mar_16_1155,SpeechDraft1Carolyn_lessNoise_PlusLocalization,2021.2.3,60.077145068909836,
chase.wav,chase.mpg,chase,2,A,Pink_Noise_2_1.wav,Pink_Noise_2_2.wav,,,,,,,,,,,,,,,0,101,101,20,,,,,,,,,,,,,,,,,,,,,,,724.8098212869372,None,726.3260824249592,None,727.7099392339587,None,chase,727.7099392339587,None,return,1.4654139708727598,727.7931949119084,None,,,,,,,,,,,,,,,,,,,,,,,,,,,,,,,,,60,001,2023_Mar_16_1155,SpeechDraft1Carolyn_lessNoise_PlusLocalization,2021.2.3,60.077145068909836,
bind.wav,bind.mpg,bind,2,AV,Pink_Noise_2_1.wav,Pink_Noise_2_2.wav,,,,,,,,,,,,,,,0,102,102,114,,,,,,,,,,,,,,,,,,,,,,,729.2766028100159,None,730.7773677469231,None,732.1600328050554,None,"find
",732.1600328050554,None,return,1.103545926976949,732.2430185950361,None,,,,,,,,,,,,,,,,,,,,,,,,,,,,,,,,,60,001,2023_Mar_16_1155,SpeechDraft1Carolyn_lessNoise_PlusLocalization,2021.2.3,60.077145068909836,
clot.wav,clot.mpg,clot,4,A,Pink_Noise_4_1.wav,Pink_Noise_4_2.wav,,,,,,,,,,,,,,,0,103,103,26,,,,,,,,,,,,,,,,,,,,,,,733.3764913720079,None,734.8773185189348,None,736.2599074200261,None,"
",736.2599074200261,None,return,2.0353552389424294,736.3431992998812,None,,,,,,,,,,,,,,,,,,,,,,,,,,,,,,,,,60,001,2023_Mar_16_1155,SpeechDraft1Carolyn_lessNoise_PlusLocalization,2021.2.3,60.077145068909836,
dance.wav,dance.mpg,dance,3,AV,Pink_Noise_3_1.wav,Pink_Noise_3_2.wav,,,,,,,,,,,,,,,0,104,104,93,,,,,,,,,,,,,,,,,,,,,,,738.4097663029097,None,739.9261824009009,None,741.3097047349438,None,dance,741.3097047349438,None,return,2.633531236089766,741.3930179970339,None,,,,,,,,,,,,,,,,,,,,,,,,,,,,,,,,,60,001,2023_Mar_16_1155,SpeechDraft1Carolyn_lessNoise_PlusLocalization,2021.2.3,60.077145068909836,
live.wav,live.mpg,live,4,AV,Pink_Noise_4_1.wav,Pink_Noise_4_2.wav,,,,,,,,,,,,,,,0,105,105,111,,,,,,,,,,,,,,,,,,,,,,,744.0430958820507,None,745.5426629269496,None,746.9264503149316,None,lick,746.9264503149316,None,return,2.896681851008907,747.0099800489843,None,,,,,,,,,,,,,,,,,,,,,,,,,,,,,,,,,60,001,2023_Mar_16_1155,SpeechDraft1Carolyn_lessNoise_PlusLocalization,2021.2.3,60.077145068909836,
coy.wav,coy.mpg,coy,1,A,Pink_Noise_1_1.wav,Pink_Noise_1_2.wav,,,,,,,,,,,,,,,0,106,106,45,,,,,,,,,,,,,,,,,,,,,,,749.9266387899406,None,751.4430809079204,None,752.8099968528841,None,coy,752.8099968528841,None,return,2.3254655371420085,752.893073634943,None,,,,,,,,,,,,,,,,,,,,,,,,,,,,,,,,,60,001,2023_Mar_16_1155,SpeechDraft1Carolyn_lessNoise_PlusLocalization,2021.2.3,60.077145068909836,
bomb.wav,bomb.mpg,bomb,4,A,Pink_Noise_4_1.wav,Pink_Noise_4_2.wav,,,,,,,,,,,,,,,0,107,107,59,,,,,,,,,,,,,,,,,,,,,,,755.2431394099258,None,756.7594816749915,None,758.1431713560596,None,"bowel
",758.1431713560596,None,return,3.783974470105022,758.2265746910125,None,,,,,,,,,,,,,,,,,,,,,,,,,,,,,,,,,60,001,2023_Mar_16_1155,SpeechDraft1Carolyn_lessNoise_PlusLocalization,2021.2.3,60.077145068909836,
ghost.wav,ghost.mpg,ghost,3,A,Pink_Noise_3_1.wav,Pink_Noise_3_2.wav,,,,,,,,,,,,,,,0,108,108,54,,,,,,,,,,,,,,,,,,,,,,,762.0432779819239,None,763.5436237740796,None,764.9267131350935,None,ghost,764.9267131350935,None,return,2.704846343025565,765.009703238029,None,,,,,,,,,,,,,,,,,,,,,,,,,,,,,,,,,60,001,2023_Mar_16_1155,SpeechDraft1Carolyn_lessNoise_PlusLocalization,2021.2.3,60.077145068909836,
crack.wav,crack.mpg,crack,3,AV,Pink_Noise_3_1.wav,Pink_Noise_3_2.wav,,,,,,,,,,,,,,,0,109,109,69,,,,,,,,,,,,,,,,,,,,,,,767.7433428280056,None,769.2596377169248,None,770.6430789700244,None,crack,770.6430789700244,None,return,3.540261316811666,770.726420026971,None,,,,,,,,,,,,,,,,,,,,,,,,,,,,,,,,,60,001,2023_Mar_16_1155,SpeechDraft1Carolyn_lessNoise_PlusLocalization,2021.2.3,60.077145068909836,
wound.wav,wound.mpg,wound,2,AV,Pink_Noise_2_1.wav,Pink_Noise_2_2.wav,,,,,,,,,,,,,,,0,110,110,76,,,,,,,,,,,,,,,,,,,,,,,774.2932508920785,None,775.8093269029632,None,777.1933750729077,None,wound,777.1933750729077,None,return,2.261928404914215,777.2766124699265,None,,,,,,,,,,,,,,,,,,,,,,,,,,,,,,,,,60,001,2023_Mar_16_1155,SpeechDraft1Carolyn_lessNoise_PlusLocalization,2021.2.3,60.077145068909836,
poll.wav,poll.mpg,poll,5,AV,Pink_Noise_5_1.wav,Pink_Noise_5_2.wav,,,,,,,,,,,,,,,0,111,111,61,,,,,,,,,,,,,,,,,,,,,,,779.559823497897,None,781.0763264768757,None,782.4611411450896,None,pour,782.4611411450896,None,return,6.9231095898430794,782.5435688169673,None,,,,,,,,,,,,,,,,,,,,,,,,,,,,,,,,,60,001,2023_Mar_16_1155,SpeechDraft1Carolyn_lessNoise_PlusLocalization,2021.2.3,60.077145068909836,
gross.wav,gross.mpg,gross,5,AV,Pink_Noise_5_1.wav,Pink_Noise_5_2.wav,,,,,,,,,,,,,,,0,112,112,97,,,,,,,,,,,,,,,,,,,,,,,789.4931045880076,None,790.9950069990009,None,792.3764757690951,None,gross,792.3764757690951,None,return,1.846682040952146,792.4599341850262,None,,,,,,,,,,,,,,,,,,,,,,,,,,,,,,,,,60,001,2023_Mar_16_1155,SpeechDraft1Carolyn_lessNoise_PlusLocalization,2021.2.3,60.077145068909836,
bound.wav,bound.mpg,bound,6,AV,Pink_Noise_6_1.wav,Pink_Noise_6_2.wav,,,,,,,,,,,,,,,0,113,113,80,,,,,,,,,,,,,,,,,,,,,,,794.32664337405,None,795.8427706949878,None,797.226526116021,None,"found
",797.226526116021,None,return,2.7005684731993824,797.3099915059283,None,,,,,,,,,,,,,,,,,,,,,,,,,,,,,,,,,60,001,2023_Mar_16_1155,SpeechDraft1Carolyn_lessNoise_PlusLocalization,2021.2.3,60.077145068909836,
cause.wav,cause.mpg,cause,6,A,Pink_Noise_6_1.wav,Pink_Noise_6_2.wav,,,,,,,,,,,,,,,0,114,114,47,,,,,,,,,,,,,,,,,,,,,,,800.0432781979907,None,801.5595888739917,None,802.9432394509204,None,"lost
",802.9432394509204,None,return,1.9519978978205472,803.0265527509619,None,,,,,,,,,,,,,,,,,,,,,,,,,,,,,,,,,60,001,2023_Mar_16_1155,SpeechDraft1Carolyn_lessNoise_PlusLocalization,2021.2.3,60.077145068909836,
brag.wav,brag.mpg,brag,3,A,Pink_Noise_3_1.wav,Pink_Noise_3_2.wav,,,,,,,,,,,,,,,0,115,115,44,,,,,,,,,,,,,,,,,,,,,,,805.0098688490689,None,806.5262860900257,None,807.8933120779693,None,rag,807.8933120779693,None,return,1.554114776197821,807.9764355858788,None,,,,,,,,,,,,,,,,,,,,,,,,,,,,,,,,,60,001,2023_Mar_16_1155,SpeechDraft1Carolyn_lessNoise_PlusLocalization,2021.2.3,60.077145068909836,
foul.wav,foul.mpg,foul,2,AV,Pink_Noise_2_1.wav,Pink_Noise_2_2.wav,,,,,,,,,,,,,,,0,116,116,73,,,,,,,,,,,,,,,,,,,,,,,809.5600249129348,None,811.0760401510634,None,812.4610384819098,None,foul,812.4610384819098,None,return,1.8270292561501265,812.5435075829737,None,,,,,,,,,,,,,,,,,,,,,,,,,,,,,,,,,60,001,2023_Mar_16_1155,SpeechDraft1Carolyn_lessNoise_PlusLocalization,2021.2.3,60.077145068909836,
dual.wav,dual.mpg,dual,2,A,Pink_Noise_2_1.wav,Pink_Noise_2_2.wav,,,,,,,,,,,,,,,0,117,117,55,,,,,,,,,,,,,,,,,,,,,,,814.393171756994,None,815.9096656960901,None,817.2768434688915,None,duel,817.2768434688915,None,return,1.4826778210699558,817.3599822840188,None,,,,,,,,,,,,,,,,,,,,,,,,,,,,,,,,,60,001,2023_Mar_16_1155,SpeechDraft1Carolyn_lessNoise_PlusLocalization,2021.2.3,60.077145068909836,
eat.wav,eat.mpg,eat,2,AV,Pink_Noise_2_1.wav,Pink_Noise_2_2.wav,,,,,,,,,,,,,,,0,118,118,95,,,,,,,,,,,,,,,,,,,,,,,818.8600297369994,None,820.3605884739663,None,821.743081193883,None,eat,821.743081193883,None,return,1.4799428379628807,821.8266990769189,None,,,,,,,,,,,,,,,,,,,,,,,,,,,,,,,,,60,001,2023_Mar_16_1155,SpeechDraft1Carolyn_lessNoise_PlusLocalization,2021.2.3,60.077145068909836,
clue.wav,clue.mpg,clue,2,A,Pink_Noise_2_1.wav,Pink_Noise_2_2.wav,,,,,,,,,,,,,,,0,119,119,34,,,,,,,,,,,,,,,,,,,,,,,823.3266317450907,None,824.8430986108724,None,826.2267185559031,None,clue,826.2267185559031,None,return,1.6126456048805267,826.3099717989098,None,,,,,,,,,,,,,,,,,,,,,,,,,,,,,,,,,60,001,2023_Mar_16_1155,SpeechDraft1Carolyn_lessNoise_PlusLocalization,2021.2.3,60.077145068909836,
,,,,,,,,,,,,,,,,,,,,,,,,,,,,,,,,,,,,,,,,,,,,,,,,,,,,,,,,,,,,,,,,,,space,10.207690845010802,828.0268473948818,None,,,,,,,,,,,,,,,,,,,,,,,60,001,2023_Mar_16_1155,SpeechDraft1Carolyn_lessNoise_PlusLocalization,2021.2.3,60.077145068909836,
,,,,,,,,midLeft,-13.0,2,ch1Sound_localizationTask.wav,-13.0,"(762, 878)","(-198,-202)",-190,-338,,,,,,,,,0,0,0,1,,,,,,,,,,,,,,,,,,,,,,,,,,,,,,,,,,,,,,,,,,828.0268473948818,None,838.2761068078689,None,839.3763059610501,None,840.3096214300022,None,1.2666666666666666,2.6029189079999924,840.3096214300022,None,,,,,,,,,,,60,001,2023_Mar_16_1155,SpeechDraft1Carolyn_lessNoise_PlusLocalization,2021.2.3,60.077145068909836,
,,,,,,,,farLeft,-19.1,5,ch1Sound_localizationTask.wav,-19.1,"(667, 878)","(-293,-202)",-285,-338,,,,,,,,,0,1,1,0,,,,,,,,,,,,,,,,,,,,,,,,,,,,,,,,,,,,,,,,,,,,842.9107352690771,None,844.0097724990919,None,844.942887902027,None,1.1169312169312169,1.4007411268539727,844.942887902027,None,,,,,,,,,,,60,001,2023_Mar_16_1155,SpeechDraft1Carolyn_lessNoise_PlusLocalization,2021.2.3,60.077145068909836,
,,,,,,,,center,0.0,6,ch1Sound_localizationTask.wav,0.0,"(952, 878)","(-8,-202)",0,-338,,,,,,,,,0,2,2,3,,,,,,,,,,,,,,,,,,,,,,,,,,,,,,,,,,,,,,,,,,,,846.3601095660124,None,847.459796937881,None,848.3929184048902,None,1.4777777777777779,1.7498340089805424,848.3929184048902,None,,,,,,,,,,,60,001,2023_Mar_16_1155,SpeechDraft1Carolyn_lessNoise_PlusLocalization,2021.2.3,60.077145068909836,
,,,,,,,,farRight,19.1,4,ch1Sound_localizationTask.wav,19.1,"(1237, 878)","(277,-202)",285,-338,,,,,,,,,0,3,3,6,,,,,,,,,,,,,,,,,,,,,,,,,,,,,,,,,,,,,,,,,,,,850.1439129069913,None,851.2432261048816,None,852.1764616919681,None,1.7343915343915344,2.3661062410101295,852.1764616919681,None,,,,,,,,,,,60,001,2023_Mar_16_1155,SpeechDraft1Carolyn_lessNoise_PlusLocalization,2021.2.3,60.077145068909836,
,,,,,,,,center,0.0,6,ch1Sound_localizationTask.wav,0.0,"(952, 878)","(-8,-202)",0,-338,,,,,,,,,0,4,4,3,,,,,,,,,,,,,,,,,,,,,,,,,,,,,,,,,,,,,,,,,,,,854.5440799039789,None,855.6428540449124,None,856.5766466429923,None,1.4957671957671956,2.233357670949772,856.5766466429923,None,,,,,,,,,,,60,001,2023_Mar_16_1155,SpeechDraft1Carolyn_lessNoise_PlusLocalization,2021.2.3,60.077145068909836,
,,,,,,,,nearRight,6.5,0,ch1Sound_localizationTask.wav,6.5,"(1047, 878)","(87, -202)",95,-338,,,,,,,,,0,5,5,4,,,,,,,,,,,,,,,,,,,,,,,,,,,,,,,,,,,,,,,,,,,,858.8266300959513,None,859.9262594538741,None,860.8597450689413,None,1.5010582010582012,0.8174772078637034,860.8597450689413,None,,,,,,,,,,,60,001,2023_Mar_16_1155,SpeechDraft1Carolyn_lessNoise_PlusLocalization,2021.2.3,60.077145068909836,
,,,,,,,,farLeft,-19.1,5,ch1Sound_localizationTask.wav,-19.1,"(667, 878)","(-293,-202)",-285,-338,,,,,,,,,0,6,6,0,,,,,,,,,,,,,,,,,,,,,,,,,,,,,,,,,,,,,,,,,,,,861.6933893919922,None,862.7932044100016,None,863.726411413867,None,1.1433862433862434,0.9001828478649259,863.726411413867,None,,,,,,,,,,,60,001,2023_Mar_16_1155,SpeechDraft1Carolyn_lessNoise_PlusLocalization,2021.2.3,60.077145068909836,
,,,,,,,,center,0.0,6,ch1Sound_localizationTask.wav,0.0,"(952, 878)","(-8,-202)",0,-338,,,,,,,,,1,0,7,3,,,,,,,,,,,,,,,,,,,,,,,,,,,,,,,,,,,,,,,,,,,,864.6433895700611,None,865.7429603070486,None,866.6762619719375,None,1.492063492063492,0.7167221489362419,866.6762619719375,None,,,,,,,,,,,60,001,2023_Mar_16_1155,SpeechDraft1Carolyn_lessNoise_PlusLocalization,2021.2.3,60.077145068909836,
,,,,,,,,nearRight,6.5,0,ch1Sound_localizationTask.wav,6.5,"(1047, 878)","(87, -202)",95,-338,,,,,,,,,1,1,8,4,,,,,,,,,,,,,,,,,,,,,,,,,,,,,,,,,,,,,,,,,,,,867.4102595678996,None,868.5098542270716,None,869.44294369407,None,1.5671957671957673,0.7831747219897807,869.44294369407,None,,,,,,,,,,,60,001,2023_Mar_16_1155,SpeechDraft1Carolyn_lessNoise_PlusLocalization,2021.2.3,60.077145068909836,
,,,,,,,,center,0.0,6,ch1Sound_localizationTask.wav,0.0,"(952, 878)","(-8,-202)",0,-338,,,,,,,,,1,2,9,3,,,,,,,,,,,,,,,,,,,,,,,,,,,,,,,,,,,,,,,,,,,,870.2272013819311,None,871.326268998906,None,872.259848902002,None,1.4365079365079365,0.7680324059911072,872.259848902002,None,,,,,,,,,,,60,001,2023_Mar_16_1155,SpeechDraft1Carolyn_lessNoise_PlusLocalization,2021.2.3,60.077145068909836,
,,,,,,,,midLeft,-13.0,2,ch1Sound_localizationTask.wav,-13.0,"(762, 878)","(-198,-202)",-190,-338,,,,,,,,,1,3,10,1,,,,,,,,,,,,,,,,,,,,,,,,,,,,,,,,,,,,,,,,,,,,873.0436272500083,None,874.1430654248688,None,875.0763492858969,None,1.2920634920634921,0.8831984798889607,875.0763492858969,None,,,,,,,,,,,60,001,2023_Mar_16_1155,SpeechDraft1Carolyn_lessNoise_PlusLocalization,2021.2.3,60.077145068909836,
,,,,,,,,nearLeft,-6.5,1,ch1Sound_localizationTask.wav,-6.5,"(857, 878)","(-103,-202)",-95,-338,,,,,,,,,1,4,11,2,,,,,,,,,,,,,,,,,,,,,,,,,,,,,,,,,,,,,,,,,,,,875.9615366030484,None,877.0762663378846,None,877.9928324539214,None,1.3423280423280424,0.6327161979861557,877.9928324539214,None,,,,,,,,,,,60,001,2023_Mar_16_1155,SpeechDraft1Carolyn_lessNoise_PlusLocalization,2021.2.3,60.077145068909836,
,,,,,,,,farRight,19.1,4,ch1Sound_localizationTask.wav,19.1,"(1237, 878)","(277,-202)",285,-338,,,,,,,,,1,5,12,6,,,,,,,,,,,,,,,,,,,,,,,,,,,,,,,,,,,,,,,,,,,,878.6273544030264,None,879.7264181738719,None,880.6597853559069,None,1.6333333333333333,0.6666403540875763,880.6597853559069,None,,,,,,,,,,,60,001,2023_Mar_16_1155,SpeechDraft1Carolyn_lessNoise_PlusLocalization,2021.2.3,60.077145068909836,
,,,,,,,,midRight,13.0,3,ch1Sound_localizationTask.wav,13.0,"(1142, 878)","(182, -202)",190,-338,,,,,,,,,1,6,13,5,,,,,,,,,,,,,,,,,,,,,,,,,,,,,,,,,,,,,,,,,,,,881.3269440638833,None,882.4265145389363,None,883.3596686648671,None,1.6105820105820106,0.48329471005126834,883.3596686648671,None,,,,,,,,,,,60,001,2023_Mar_16_1155,SpeechDraft1Carolyn_lessNoise_PlusLocalization,2021.2.3,60.077145068909836,
,,,,,,,,nearRight,6.5,0,ch1Sound_localizationTask.wav,6.5,"(1047, 878)","(87, -202)",95,-338,,,,,,,,,2,0,14,4,,,,,,,,,,,,,,,,,,,,,,,,,,,,,,,,,,,,,,,,,,,,883.8445285810158,None,884.9596378200222,None,885.8764417860657,None,1.5227513227513227,1.0826128090266138,885.8764417860657,None,,,,,,,,,,,60,001,2023_Mar_16_1155,SpeechDraft1Carolyn_lessNoise_PlusLocalization,2021.2.3,60.077145068909836,
,,,,,,,,midLeft,-13.0,2,ch1Sound_localizationTask.wav,-13.0,"(762, 878)","(-198,-202)",-190,-338,,,,,,,,,2,1,15,1,,,,,,,,,,,,,,,,,,,,,,,,,,,,,,,,,,,,,,,,,,,,886.9610256690066,None,888.0762483030558,None,888.9930296139792,None,1.2862433862433862,1.0175571388099343,888.9930296139792,None,,,,,,,,,,,60,001,2023_Mar_16_1155,SpeechDraft1Carolyn_lessNoise_PlusLocalization,2021.2.3,60.077145068909836,
,,,,,,,,farRight,19.1,4,ch1Sound_localizationTask.wav,19.1,"(1237, 878)","(277,-202)",285,-338,,,,,,,,,2,2,16,6,,,,,,,,,,,,,,,,,,,,,,,,,,,,,,,,,,,,,,,,,,,,890.026592124952,None,891.1263709159102,None,892.0596391928848,None,1.6804232804232804,0.7510793940164149,892.0596391928848,None,,,,,,,,,,,60,001,2023_Mar_16_1155,SpeechDraft1Carolyn_lessNoise_PlusLocalization,2021.2.3,60.077145068909836,
,,,,,,,,nearLeft,-6.5,1,ch1Sound_localizationTask.wav,-6.5,"(857, 878)","(-103,-202)",-95,-338,,,,,,,,,2,3,17,2,,,,,,,,,,,,,,,,,,,,,,,,,,,,,,,,,,,,,,,,,,,,892.8269369250629,None,893.9263372970745,None,894.8597484969068,None,1.3624338624338623,0.7503397059626877,894.8597484969068,None,,,,,,,,,,,60,001,2023_Mar_16_1155,SpeechDraft1Carolyn_lessNoise_PlusLocalization,2021.2.3,60.077145068909836,
,,,,,,,,farLeft,-19.1,5,ch1Sound_localizationTask.wav,-19.1,"(667, 878)","(-293,-202)",-285,-338,,,,,,,,,2,4,18,0,,,,,,,,,,,,,,,,,,,,,,,,,,,,,,,,,,,,,,,,,,,,895.6268163200002,None,896.7264529529493,None,897.6598136730026,None,1.2444444444444445,1.017418926116079,897.6598136730026,None,,,,,,,,,,,60,001,2023_Mar_16_1155,SpeechDraft1Carolyn_lessNoise_PlusLocalization,2021.2.3,60.077145068909836,
,,,,,,,,midRight,13.0,3,ch1Sound_localizationTask.wav,13.0,"(1142, 878)","(182, -202)",190,-338,,,,,,,,,2,5,19,5,,,,,,,,,,,,,,,,,,,,,,,,,,,,,,,,,,,,,,,,,,,,898.6935483040288,None,899.7930209739134,None,900.7264698969666,None,1.597883597883598,0.7499463758431375,900.7264698969666,None,,,,,,,,,,,60,001,2023_Mar_16_1155,SpeechDraft1Carolyn_lessNoise_PlusLocalization,2021.2.3,60.077145068909836,
,,,,,,,,center,0.0,6,ch1Sound_localizationTask.wav,0.0,"(952, 878)","(-8,-202)",0,-338,,,,,,,,,2,6,20,3,,,,,,,,,,,,,,,,,,,,,,,,,,,,,,,,,,,,,,,,,,,,901.4933837410063,None,902.5932400180027,None,903.5266077290289,None,1.4978835978835978,0.5995819459203631,903.5266077290289,None,,,,,,,,,,,60,001,2023_Mar_16_1155,SpeechDraft1Carolyn_lessNoise_PlusLocalization,2021.2.3,60.077145068909836,
,,,,,,,,nearRight,6.5,0,ch1Sound_localizationTask.wav,6.5,"(1047, 878)","(87, -202)",95,-338,,,,,,,,,3,0,21,4,,,,,,,,,,,,,,,,,,,,,,,,,,,,,,,,,,,,,,,,,,,,904.1269865240902,None,905.2263348719571,None,906.1597001040354,None,1.5042328042328044,0.8495575729757547,906.1597001040354,None,,,,,,,,,,,60,001,2023_Mar_16_1155,SpeechDraft1Carolyn_lessNoise_PlusLocalization,2021.2.3,60.077145068909836,
,,,,,,,,center,0.0,6,ch1Sound_localizationTask.wav,0.0,"(952, 878)","(-8,-202)",0,-338,,,,,,,,,3,1,22,3,,,,,,,,,,,,,,,,,,,,,,,,,,,,,,,,,,,,,,,,,,,,907.010636148043,None,908.1097136200406,None,909.0432306930888,None,1.5253968253968253,1.7998903498519212,909.0432306930888,None,,,,,,,,,,,60,001,2023_Mar_16_1155,SpeechDraft1Carolyn_lessNoise_PlusLocalization,2021.2.3,60.077145068909836,
,,,,,,,,farRight,19.1,4,ch1Sound_localizationTask.wav,19.1,"(1237, 878)","(277,-202)",285,-338,,,,,,,,,3,2,23,6,,,,,,,,,,,,,,,,,,,,,,,,,,,,,,,,,,,,,,,,,,,,910.8443876709789,None,911.9596964609809,None,912.8764608199708,None,1.6301587301587301,0.6331019198987633,912.8764608199708,None,,,,,,,,,,,60,001,2023_Mar_16_1155,SpeechDraft1Carolyn_lessNoise_PlusLocalization,2021.2.3,60.077145068909836,
,,,,,,,,center,0.0,6,ch1Sound_localizationTask.wav,0.0,"(952, 878)","(-8,-202)",0,-338,,,,,,,,,3,3,24,3,,,,,,,,,,,,,,,,,,,,,,,,,,,,,,,,,,,,,,,,,,,,913.5108346680645,None,914.60997347394,None,915.5430953009054,None,1.4285714285714286,0.6327776738908142,915.5430953009054,None,,,,,,,,,,,60,001,2023_Mar_16_1155,SpeechDraft1Carolyn_lessNoise_PlusLocalization,2021.2.3,60.077145068909836,
,,,,,,,,farRight,19.1,4,ch1Sound_localizationTask.wav,19.1,"(1237, 878)","(277,-202)",285,-338,,,,,,,,,3,4,25,6,,,,,,,,,,,,,,,,,,,,,,,,,,,,,,,,,,,,,,,,,,,,916.1932857180946,None,917.2932674360927,None,918.2264388368931,None,1.6873015873015873,0.9839462749660015,918.2264388368931,None,,,,,,,,,,,60,001,2023_Mar_16_1155,SpeechDraft1Carolyn_lessNoise_PlusLocalization,2021.2.3,60.077145068909836,
,,,,,,,,farRight,19.1,4,ch1Sound_localizationTask.wav,19.1,"(1237, 878)","(277,-202)",285,-338,,,,,,,,,3,5,26,6,,,,,,,,,,,,,,,,,,,,,,,,,,,,,,,,,,,,,,,,,,,,919.2268724080641,None,920.3264297458809,None,921.2598318948876,None,1.6973544973544974,0.616814976092428,921.2598318948876,None,,,,,,,,,,,60,001,2023_Mar_16_1155,SpeechDraft1Carolyn_lessNoise_PlusLocalization,2021.2.3,60.077145068909836,
,,,,,,,,midRight,13.0,3,ch1Sound_localizationTask.wav,13.0,"(1142, 878)","(182, -202)",190,-338,,,,,,,,,3,6,27,5,,,,,,,,,,,,,,,,,,,,,,,,,,,,,,,,,,,,,,,,,,,,921.8783879480325,None,922.9930988468695,None,923.909910911927,None,1.6312169312169313,0.4995463371742517,923.909910911927,None,,,,,,,,,,,60,001,2023_Mar_16_1155,SpeechDraft1Carolyn_lessNoise_PlusLocalization,2021.2.3,60.077145068909836,
,,,,,,,,farLeft,-19.1,5,ch1Sound_localizationTask.wav,-19.1,"(667, 878)","(-293,-202)",-285,-338,,,,,,,,,4,0,28,0,,,,,,,,,,,,,,,,,,,,,,,,,,,,,,,,,,,,,,,,,,,,924.4102904158644,None,925.5098606580868,None,926.4429732889403,None,1.3343915343915345,0.950882466044277,926.4429732889403,None,,,,,,,,,,,60,001,2023_Mar_16_1155,SpeechDraft1Carolyn_lessNoise_PlusLocalization,2021.2.3,60.077145068909836,
,,,,,,,,nearRight,6.5,0,ch1Sound_localizationTask.wav,6.5,"(1047, 878)","(87, -202)",95,-338,,,,,,,,,4,1,29,4,,,,,,,,,,,,,,,,,,,,,,,,,,,,,,,,,,,,,,,,,,,,927.4102857639082,None,928.5099821989425,None,929.442889967002,None,1.5365079365079364,0.5995864691212773,929.442889967002,None,,,,,,,,,,,60,001,2023_Mar_16_1155,SpeechDraft1Carolyn_lessNoise_PlusLocalization,2021.2.3,60.077145068909836,
,,,,,,,,center,0.0,6,ch1Sound_localizationTask.wav,0.0,"(952, 878)","(-8,-202)",0,-338,,,,,,,,,4,2,30,3,,,,,,,,,,,,,,,,,,,,,,,,,,,,,,,,,,,,,,,,,,,,930.0448613900226,None,931.1597393339034,None,932.0766907669604,None,1.4851851851851852,0.7827296711038798,932.0766907669604,None,,,,,,,,,,,60,001,2023_Mar_16_1155,SpeechDraft1Carolyn_lessNoise_PlusLocalization,2021.2.3,60.077145068909836,
,,,,,,,,nearLeft,-6.5,1,ch1Sound_localizationTask.wav,-6.5,"(857, 878)","(-103,-202)",-95,-338,,,,,,,,,4,3,31,2,,,,,,,,,,,,,,,,,,,,,,,,,,,,,,,,,,,,,,,,,,,,932.877143752994,None,933.9766427308787,None,934.9097110140137,None,1.3947089947089948,0.5330920768901706,934.9097110140137,None,,,,,,,,,,,60,001,2023_Mar_16_1155,SpeechDraft1Carolyn_lessNoise_PlusLocalization,2021.2.3,60.077145068909836,
,,,,,,,,farLeft,-19.1,5,ch1Sound_localizationTask.wav,-19.1,"(667, 878)","(-293,-202)",-285,-338,,,,,,,,,4,4,32,0,,,,,,,,,,,,,,,,,,,,,,,,,,,,,,,,,,,,,,,,,,,,935.4444383040536,None,936.5596007490531,None,937.4765586880967,None,1.2693121693121694,0.6322934629861265,937.4765586880967,None,,,,,,,,,,,60,001,2023_Mar_16_1155,SpeechDraft1Carolyn_lessNoise_PlusLocalization,2021.2.3,60.077145068909836,
,,,,,,,,nearLeft,-6.5,1,ch1Sound_localizationTask.wav,-6.5,"(857, 878)","(-103,-202)",-95,-338,,,,,,,,,4,5,33,2,,,,,,,,,,,,,,,,,,,,,,,,,,,,,,,,,,,,,,,,,,,,938.111441413872,None,939.2263850818854,None,940.1431297110394,None,1.3375661375661376,0.6002277198713273,940.1431297110394,None,,,,,,,,,,,60,001,2023_Mar_16_1155,SpeechDraft1Carolyn_lessNoise_PlusLocalization,2021.2.3,60.077145068909836,
,,,,,,,,farRight,19.1,4,ch1Sound_localizationTask.wav,19.1,"(1237, 878)","(277,-202)",285,-338,,,,,,,,,4,6,34,6,,,,,,,,,,,,,,,,,,,,,,,,,,,,,,,,,,,,,,,,,,,,940.7436877510045,None,941.8432207480073,None,942.7763067518827,None,1.6222222222222222,0.8346449099481106,942.7763067518827,None,,,,,,,,,,,60,001,2023_Mar_16_1155,SpeechDraft1Carolyn_lessNoise_PlusLocalization,2021.2.3,60.077145068909836,
,,,,,,,,nearLeft,-6.5,1,ch1Sound_localizationTask.wav,-6.5,"(857, 878)","(-103,-202)",-95,-338,,,,,,,,,5,0,35,2,,,,,,,,,,,,,,,,,,,,,,,,,,,,,,,,,,,,,,,,,,,,943.6268473828677,None,944.726391247008,None,945.6597843270283,None,1.403174603174603,0.6500873900949955,945.6597843270283,None,,,,,,,,,,,60,001,2023_Mar_16_1155,SpeechDraft1Carolyn_lessNoise_PlusLocalization,2021.2.3,60.077145068909836,
,,,,,,,,nearLeft,-6.5,1,ch1Sound_localizationTask.wav,-6.5,"(857, 878)","(-103,-202)",-95,-338,,,,,,,,,5,1,36,2,,,,,,,,,,,,,,,,,,,,,,,,,,,,,,,,,,,,,,,,,,,,946.326909319032,None,947.4264206360094,None,948.3597469730303,None,1.3597883597883598,0.8172624839935452,948.3597469730303,None,,,,,,,,,,,60,001,2023_Mar_16_1155,SpeechDraft1Carolyn_lessNoise_PlusLocalization,2021.2.3,60.077145068909836,
,,,,,,,,midLeft,-13.0,2,ch1Sound_localizationTask.wav,-13.0,"(762, 878)","(-198,-202)",-190,-338,,,,,,,,,5,2,37,1,,,,,,,,,,,,,,,,,,,,,,,,,,,,,,,,,,,,,,,,,,,,949.1934749470092,None,950.2932272010949,None,951.2264114429709,None,1.367195767195767,0.5174811948090792,951.2264114429709,None,,,,,,,,,,,60,001,2023_Mar_16_1155,SpeechDraft1Carolyn_lessNoise_PlusLocalization,2021.2.3,60.077145068909836,
,,,,,,,,nearRight,6.5,0,ch1Sound_localizationTask.wav,6.5,"(1047, 878)","(87, -202)",95,-338,,,,,,,,,5,3,38,4,,,,,,,,,,,,,,,,,,,,,,,,,,,,,,,,,,,,,,,,,,,,951.760266548954,None,952.8598770650569,None,953.7930222079158,None,1.4248677248677248,4.183829574147239,953.7930222079158,None,,,,,,,,,,,60,001,2023_Mar_16_1155,SpeechDraft1Carolyn_lessNoise_PlusLocalization,2021.2.3,60.077145068909836,
,,,,,,,,midLeft,-13.0,2,ch1Sound_localizationTask.wav,-13.0,"(762, 878)","(-198,-202)",-190,-338,,,,,,,,,5,4,39,1,,,,,,,,,,,,,,,,,,,,,,,,,,,,,,,,,,,,,,,,,,,,957.9785339650698,None,959.0930285870563,None,960.0096983208787,None,1.4047619047619047,0.750233928207308,960.0096983208787,None,,,,,,,,,,,60,001,2023_Mar_16_1155,SpeechDraft1Carolyn_lessNoise_PlusLocalization,2021.2.3,60.077145068909836,
,,,,,,,,nearLeft,-6.5,1,ch1Sound_localizationTask.wav,-6.5,"(857, 878)","(-103,-202)",-95,-338,,,,,,,,,5,5,40,2,,,,,,,,,,,,,,,,,,,,,,,,,,,,,,,,,,,,,,,,,,,,960.7767618419603,None,961.8766005660873,None,962.8096149968915,None,1.4767195767195767,0.6155073270201683,962.8096149968915,None,,,,,,,,,,,60,001,2023_Mar_16_1155,SpeechDraft1Carolyn_lessNoise_PlusLocalization,2021.2.3,60.077145068909836,
,,,,,,,,midRight,13.0,3,ch1Sound_localizationTask.wav,13.0,"(1142, 878)","(182, -202)",190,-338,,,,,,,,,5,6,41,5,,,,,,,,,,,,,,,,,,,,,,,,,,,,,,,,,,,,,,,,,,,,963.4273544680327,None,964.5267507580575,None,965.459805212915,None,1.5492063492063493,0.6005137818865478,965.459805212915,None,,,,,,,,,,,60,001,2023_Mar_16_1155,SpeechDraft1Carolyn_lessNoise_PlusLocalization,2021.2.3,60.077145068909836,
,,,,,,,,farLeft,-19.1,5,ch1Sound_localizationTask.wav,-19.1,"(667, 878)","(-293,-202)",-285,-338,,,,,,,,,6,0,42,0,,,,,,,,,,,,,,,,,,,,,,,,,,,,,,,,,,,,,,,,,,,,966.0769570858683,None,967.1764482369181,None,968.109858358046,None,1.3222222222222222,0.6823187451809645,968.109858358046,None,,,,,,,,,,,60,001,2023_Mar_16_1155,SpeechDraft1Carolyn_lessNoise_PlusLocalization,2021.2.3,60.077145068909836,
,,,,,,,,farRight,19.1,4,ch1Sound_localizationTask.wav,19.1,"(1237, 878)","(277,-202)",285,-338,,,,,,,,,6,1,43,6,,,,,,,,,,,,,,,,,,,,,,,,,,,,,,,,,,,,,,,,,,,,968.7936339280568,None,969.8933682569768,None,970.8266170029528,None,1.6407407407407408,1.6672397919464856,970.8266170029528,None,,,,,,,,,,,60,001,2023_Mar_16_1155,SpeechDraft1Carolyn_lessNoise_PlusLocalization,2021.2.3,60.077145068909836,
,,,,,,,,midRight,13.0,3,ch1Sound_localizationTask.wav,13.0,"(1142, 878)","(182, -202)",190,-338,,,,,,,,,6,2,44,5,,,,,,,,,,,,,,,,,,,,,,,,,,,,,,,,,,,,,,,,,,,,972.5102747979108,None,973.6097761129495,None,974.5436137830839,None,1.4915343915343915,0.8837703550234437,974.5436137830839,None,,,,,,,,,,,60,001,2023_Mar_16_1155,SpeechDraft1Carolyn_lessNoise_PlusLocalization,2021.2.3,60.077145068909836,
,,,,,,,,nearLeft,-6.5,1,ch1Sound_localizationTask.wav,-6.5,"(857, 878)","(-103,-202)",-95,-338,,,,,,,,,6,3,45,2,,,,,,,,,,,,,,,,,,,,,,,,,,,,,,,,,,,,,,,,,,,,975.4435593439266,None,976.5432650179137,None,977.476444673026,None,1.367195767195767,0.683635510969907,977.476444673026,None,,,,,,,,,,,60,001,2023_Mar_16_1155,SpeechDraft1Carolyn_lessNoise_PlusLocalization,2021.2.3,60.077145068909836,
,,,,,,,,farLeft,-19.1,5,ch1Sound_localizationTask.wav,-19.1,"(667, 878)","(-293,-202)",-285,-338,,,,,,,,,6,4,46,0,,,,,,,,,,,,,,,,,,,,,,,,,,,,,,,,,,,,,,,,,,,,978.1770239179023,None,979.2765079920646,None,980.2100041920785,None,1.247089947089947,0.5990874010603875,980.2100041920785,None,,,,,,,,,,,60,001,2023_Mar_16_1155,SpeechDraft1Carolyn_lessNoise_PlusLocalization,2021.2.3,60.077145068909836,
,,,,,,,,nearRight,6.5,0,ch1Sound_localizationTask.wav,6.5,"(1047, 878)","(87, -202)",95,-338,,,,,,,,,6,5,47,4,,,,,,,,,,,,,,,,,,,,,,,,,,,,,,,,,,,,,,,,,,,,980.8108508810401,None,981.9099785180297,None,982.8429861720651,None,1.58994708994709,0.7832456971518695,982.8429861720651,None,,,,,,,,,,,60,001,2023_Mar_16_1155,SpeechDraft1Carolyn_lessNoise_PlusLocalization,2021.2.3,60.077145068909836,
,,,,,,,,midRight,13.0,3,ch1Sound_localizationTask.wav,13.0,"(1142, 878)","(182, -202)",190,-338,,,,,,,,,6,6,48,5,,,,,,,,,,,,,,,,,,,,,,,,,,,,,,,,,,,,,,,,,,,,983.6278965140227,None,984.7265398579184,None,985.6599646219984,None,1.673015873015873,1.0172210729215294,985.6599646219984,None,,,,,,,,,,,60,001,2023_Mar_16_1155,SpeechDraft1Carolyn_lessNoise_PlusLocalization,2021.2.3,60.077145068909836,
,,,,,,,,midLeft,-13.0,2,ch1Sound_localizationTask.wav,-13.0,"(762, 878)","(-198,-202)",-190,-338,,,,,,,,,7,0,49,1,,,,,,,,,,,,,,,,,,,,,,,,,,,,,,,,,,,,,,,,,,,,986.6780020119622,None,987.7929793859366,None,988.709794213064,None,1.362962962962963,0.9851451911963522,988.709794213064,None,,,,,,,,,,,60,001,2023_Mar_16_1155,SpeechDraft1Carolyn_lessNoise_PlusLocalization,2021.2.3,60.077145068909836,
,,,,,,,,farLeft,-19.1,5,ch1Sound_localizationTask.wav,-19.1,"(667, 878)","(-293,-202)",-285,-338,,,,,,,,,7,1,50,0,,,,,,,,,,,,,,,,,,,,,,,,,,,,,,,,,,,,,,,,,,,,989.7103089320008,None,990.8098458140157,None,991.7433708449826,None,1.182010582010582,1.1006314980331808,991.7433708449826,None,,,,,,,,,,,60,001,2023_Mar_16_1155,SpeechDraft1Carolyn_lessNoise_PlusLocalization,2021.2.3,60.077145068909836,
,,,,,,,,midRight,13.0,3,ch1Sound_localizationTask.wav,13.0,"(1142, 878)","(182, -202)",190,-338,,,,,,,,,7,2,51,5,,,,,,,,,,,,,,,,,,,,,,,,,,,,,,,,,,,,,,,,,,,,992.8601998980157,None,993.9598228489049,None,994.8932187990285,None,1.7888888888888888,1.0658187358640134,994.8932187990285,None,,,,,,,,,,,60,001,2023_Mar_16_1155,SpeechDraft1Carolyn_lessNoise_PlusLocalization,2021.2.3,60.077145068909836,
,,,,,,,,midLeft,-13.0,2,ch1Sound_localizationTask.wav,-13.0,"(762, 878)","(-198,-202)",-190,-338,,,,,,,,,7,3,52,1,,,,,,,,,,,,,,,,,,,,,,,,,,,,,,,,,,,,,,,,,,,,995.9602750940248,None,997.0597427589819,None,997.9935096958652,None,1.3687830687830687,0.7336459269281477,997.9935096958652,None,,,,,,,,,,,60,001,2023_Mar_16_1155,SpeechDraft1Carolyn_lessNoise_PlusLocalization,2021.2.3,60.077145068909836,
,,,,,,,,nearRight,6.5,0,ch1Sound_localizationTask.wav,6.5,"(1047, 878)","(87, -202)",95,-338,,,,,,,,,7,4,53,4,,,,,,,,,,,,,,,,,,,,,,,,,,,,,,,,,,,,,,,,,,,,998.7436428240035,None,999.8435374689288,None,1000.7764189860318,None,1.516931216931217,0.499616903020069,1000.7764189860318,None,,,,,,,,,,,60,001,2023_Mar_16_1155,SpeechDraft1Carolyn_lessNoise_PlusLocalization,2021.2.3,60.077145068909836,
,,,,,,,,midRight,13.0,3,ch1Sound_localizationTask.wav,13.0,"(1142, 878)","(182, -202)",190,-338,,,,,,,,,7,5,54,5,,,,,,,,,,,,,,,,,,,,,,,,,,,,,,,,,,,,,,,,,,,,1001.2782028070651,None,1002.3931352160871,None,1003.3099090738688,None,1.5703703703703704,0.4525937750004232,1003.3099090738688,None,,,,,,,,,,,60,001,2023_Mar_16_1155,SpeechDraft1Carolyn_lessNoise_PlusLocalization,2021.2.3,60.077145068909836,
,,,,,,,,midLeft,-13.0,2,ch1Sound_localizationTask.wav,-13.0,"(762, 878)","(-198,-202)",-190,-338,,,,,,,,,7,6,55,1,,,,,,,,,,,,,,,,,,,,,,,,,,,,,,,,,,,,,,,,,,,,1003.7768233718816,None,1004.8765493570827,None,1005.8098994209431,None,1.380952380952381,0.715616662055254,1005.8098994209431,None,,,,,,,,,,,60,001,2023_Mar_16_1155,SpeechDraft1Carolyn_lessNoise_PlusLocalization,2021.2.3,60.077145068909836,
,,,,,,,,,,,,,,,,,,,,,,,,,,,,,,,,,,,,,,,,,,,,,,,,,,,,,,,,,,,,,,,,,,,,,,,,,,,,,,,,,,space,9.680569988209754,1006.6100915928837,None,,,,,,,60,001,2023_Mar_16_1155,SpeechDraft1Carolyn_lessNoise_PlusLocalization,2021.2.3,60.077145068909836,
,,,,,,,,nearLeft,-6.5,1,ch1Sound_localizationTask.wav,-6.5,"(857, 878)","(-103,-202)",-95,-338,,,,,,,,,,,,,0,0,0,2,,,,,,,,,,,,,,,,,,,,,,,,,,,,,,,,,,,,,,,,1016.3267206270248,None,,,1019.3446733390447,None,1.446031746031746,0.771483819000423,1019.3446733390447,None,,,,,1006.6100915928837,None,1017.3267465909012,None,1017.5103770098649,1017.5268663079478,60,001,2023_Mar_16_1155,SpeechDraft1Carolyn_lessNoise_PlusLocalization,2021.2.3,60.077145068909836,
,,,,,,,,nearLeft,-6.5,1,ch1Sound_localizationTask.wav,-6.5,"(857, 878)","(-103,-202)",-95,-338,,,,,,,,,,,,,0,1,1,2,,,,,,,,,,,,,,,,,,,,,,,,,,,,,,,,,,,,,,,,1020.128348106984,None,,,1023.1600341619924,None,1.4417989417989419,0.4321659409906715,1023.1600341619924,None,,,,,,,1021.1434952379204,None,1021.3269445819315,1021.3434185090009,60,001,2023_Mar_16_1155,SpeechDraft1Carolyn_lessNoise_PlusLocalization,2021.2.3,60.077145068909836,
,,,,,,,,nearRight,6.5,0,ch1Sound_localizationTask.wav,6.5,"(1047, 878)","(87, -202)",95,-338,,,,,,,,,,,,,0,2,2,4,,,,,,,,,,,,,,,,,,,,,,,,,,,,,,,,,,,,,,,,1023.5938182310201,None,,,1026.6098612179048,None,1.5492063492063493,0.9827838400378823,1026.6098612179048,None,,,,,,,1024.593632025877,None,1024.7769296879414,1024.793517118087,60,001,2023_Mar_16_1155,SpeechDraft1Carolyn_lessNoise_PlusLocalization,2021.2.3,60.077145068909836,
,,,,,,,,nearLeft,-6.5,1,ch1Sound_localizationTask.wav,-6.5,"(857, 878)","(-103,-202)",-95,-338,,,,,,,,,,,,,0,3,3,2,,,,,,,,,,,,,,,,,,,,,,,,,,,,,,,,,,,,,,,,1027.5947092459537,None,,,1030.6267838249914,None,1.4386243386243387,0.6839984350372106,1030.6267838249914,None,,,,,,,1028.6101970688906,None,1028.793429683894,1028.8103619960602,60,001,2023_Mar_16_1155,SpeechDraft1Carolyn_lessNoise_PlusLocalization,2021.2.3,60.077145068909836,
,,,,,,,,midLeft,-13.0,2,ch1Sound_localizationTask.wav,-13.0,"(762, 878)","(-198,-202)",-190,-338,,,,,,,,,,,,,0,4,4,1,,,,,,,,,,,,,,,,,,,,,,,,,,,,,,,,,,,,,,,,1031.3270157799125,None,,,1034.3432688240428,None,1.4026455026455027,0.6660186420194805,1034.3432688240428,None,,,,,,,1032.327030743938,None,1032.5100856909994,1032.5267748329788,60,001,2023_Mar_16_1155,SpeechDraft1Carolyn_lessNoise_PlusLocalization,2021.2.3,60.077145068909836,
,,,,,,,,midLeft,-13.0,2,ch1Sound_localizationTask.wav,-13.0,"(762, 878)","(-198,-202)",-190,-338,,,,,,,,,,,,,0,5,5,1,,,,,,,,,,,,,,,,,,,,,,,,,,,,,,,,,,,,,,,,1035.0112165149767,None,,,1038.0268182430882,None,1.4,0.46641426905989647,1038.0268182430882,None,,,,,,,1036.0102499320637,None,1036.1936423950829,1036.2101736010518,60,001,2023_Mar_16_1155,SpeechDraft1Carolyn_lessNoise_PlusLocalization,2021.2.3,60.077145068909836,
,,,,,,,,midRight,13.0,3,ch1Sound_localizationTask.wav,13.0,"(1142, 878)","(182, -202)",190,-338,,,,,,,,,,,,,0,6,6,5,,,,,,,,,,,,,,,,,,,,,,,,,,,,,,,,,,,,,,,,1038.4952081560623,None,,,1041.5268274850678,None,1.6063492063492064,0.7498807669617236,1041.5268274850678,None,,,,,,,1039.5101136320736,None,1039.69374530809,1039.710367043037,60,001,2023_Mar_16_1155,SpeechDraft1Carolyn_lessNoise_PlusLocalization,2021.2.3,60.077145068909836,
,,,,,,,,nearRight,6.5,0,ch1Sound_localizationTask.wav,6.5,"(1047, 878)","(87, -202)",95,-338,,,,,,,,,,,,,1,0,7,4,,,,,,,,,,,,,,,,,,,,,,,,,,,,,,,,,,,,,,,,1042.2778269359842,None,,,1045.2933241210412,None,1.5634920634920635,0.883425572887063,1045.2933241210412,None,,,,,,,1043.276837216923,None,1043.4602409470826,1043.4770281929523,60,001,2023_Mar_16_1155,SpeechDraft1Carolyn_lessNoise_PlusLocalization,2021.2.3,60.077145068909836,
,,,,,,,,midRight,13.0,3,ch1Sound_localizationTask.wav,13.0,"(1142, 878)","(182, -202)",190,-338,,,,,,,,,,,,,1,1,8,5,,,,,,,,,,,,,,,,,,,,,,,,,,,,,,,,,,,,,,,,1046.193715020083,None,,,1049.2101878190879,None,1.5693121693121692,1.0501442030072212,1049.2101878190879,None,,,,,,,1047.1935385270044,None,1047.3768030419014,1047.3935650868807,60,001,2023_Mar_16_1155,SpeechDraft1Carolyn_lessNoise_PlusLocalization,2021.2.3,60.077145068909836,
,,,,,,,,nearLeft,-6.5,1,ch1Sound_localizationTask.wav,-6.5,"(857, 878)","(-103,-202)",-95,-338,,,,,,,,,,,,,1,2,9,2,,,,,,,,,,,,,,,,,,,,,,,,,,,,,,,,,,,,,,,,1050.2605874969158,None,,,1053.2769355790224,None,1.3962962962962964,2.1340943770483136,1053.2769355790224,None,,,,,,,1051.2604214260355,None,1051.443532488076,1051.4604851610493,60,001,2023_Mar_16_1155,SpeechDraft1Carolyn_lessNoise_PlusLocalization,2021.2.3,60.077145068909836,
,,,,,,,,midRight,13.0,3,ch1Sound_localizationTask.wav,13.0,"(1142, 878)","(182, -202)",190,-338,,,,,,,,,,,,,1,3,10,5,,,,,,,,,,,,,,,,,,,,,,,,,,,,,,,,,,,,,,,,1055.426906659035,None,,,1058.4434950910509,None,1.6058201058201058,0.8509711781516671,1058.4434950910509,None,,,,,,,1056.4269985789433,None,1056.6103021360468,1056.6268948079087,60,001,2023_Mar_16_1155,SpeechDraft1Carolyn_lessNoise_PlusLocalization,2021.2.3,60.077145068909836,
,,,,,,,,farRight,19.1,4,ch1Sound_localizationTask.wav,19.1,"(1237, 878)","(277,-202)",285,-338,,,,,,,,,,,,,1,4,11,6,,,,,,,,,,,,,,,,,,,,,,,,,,,,,,,,,,,,,,,,1059.3103100010194,None,,,1062.3267400269397,None,1.6455026455026456,0.5666738341096789,1062.3267400269397,None,,,,,,,1060.3102975189686,None,1060.49363571289,1060.5104126359802,60,001,2023_Mar_16_1155,SpeechDraft1Carolyn_lessNoise_PlusLocalization,2021.2.3,60.077145068909836,
,,,,,,,,nearLeft,-6.5,1,ch1Sound_localizationTask.wav,-6.5,"(857, 878)","(-103,-202)",-95,-338,,,,,,,,,,,,,1,5,12,2,,,,,,,,,,,,,,,,,,,,,,,,,,,,,,,,,,,,,,,,1062.9103118539788,None,,,1065.9266076060012,None,1.426984126984127,0.6995353980455548,1065.9266076060012,None,,,,,,,1063.9103319048882,None,1064.0935575780459,1064.110118466895,60,001,2023_Mar_16_1155,SpeechDraft1Carolyn_lessNoise_PlusLocalization,2021.2.3,60.077145068909836,
,,,,,,,,nearRight,6.5,0,ch1Sound_localizationTask.wav,6.5,"(1047, 878)","(87, -202)",95,-338,,,,,,,,,,,,,1,6,13,4,,,,,,,,,,,,,,,,,,,,,,,,,,,,,,,,,,,,,,,,1066.627964430023,None,,,1069.6433553178795,None,1.5576719576719578,0.7657073261216283,1069.6433553178795,None,,,,,,,1067.627033158904,None,1067.810340757016,1067.8269458150025,60,001,2023_Mar_16_1155,SpeechDraft1Carolyn_lessNoise_PlusLocalization,2021.2.3,60.077145068909836,
,,,,,,,,center,0.0,6,ch1Sound_localizationTask.wav,0.0,"(952, 878)","(-8,-202)",0,-338,,,,,,,,,,,,,2,0,14,3,,,,,,,,,,,,,,,,,,,,,,,,,,,,,,,,,,,,,,,,1070.4107109580655,None,,,1073.4264474669471,None,1.4846560846560846,0.7821462848223746,1073.4264474669471,None,,,,,,,1071.410075525986,None,1071.5935802429449,1071.6101852590218,60,001,2023_Mar_16_1155,SpeechDraft1Carolyn_lessNoise_PlusLocalization,2021.2.3,60.077145068909836,
,,,,,,,,farRight,19.1,4,ch1Sound_localizationTask.wav,19.1,"(1237, 878)","(277,-202)",285,-338,,,,,,,,,,,,,2,1,15,6,,,,,,,,,,,,,,,,,,,,,,,,,,,,,,,,,,,,,,,,1074.2109244179446,None,,,1077.2267019120045,None,1.6322751322751323,0.7160615830216557,1077.2267019120045,None,,,,,,,1075.2101670170669,None,1075.393619346898,1075.410109176999,60,001,2023_Mar_16_1155,SpeechDraft1Carolyn_lessNoise_PlusLocalization,2021.2.3,60.077145068909836,
,,,,,,,,nearRight,6.5,0,ch1Sound_localizationTask.wav,6.5,"(1047, 878)","(87, -202)",95,-338,,,,,,,,,,,,,2,2,16,4,,,,,,,,,,,,,,,,,,,,,,,,,,,,,,,,,,,,,,,,1077.9452576609328,None,,,1080.9764898428693,None,1.5455026455026455,0.9163087292108685,1080.9764898428693,None,,,,,,,1078.960136696929,None,1079.1434849579819,1079.1603254880756,60,001,2023_Mar_16_1155,SpeechDraft1Carolyn_lessNoise_PlusLocalization,2021.2.3,60.077145068909836,
,,,,,,,,midLeft,-13.0,2,ch1Sound_localizationTask.wav,-13.0,"(762, 878)","(-198,-202)",-190,-338,,,,,,,,,,,,,2,3,17,1,,,,,,,,,,,,,,,,,,,,,,,,,,,,,,,,,,,,,,,,1081.8942093208898,None,,,1084.9100402810145,None,1.3756613756613758,0.7658678169827908,1084.9100402810145,None,,,,,,,1082.8934791050851,None,1083.0768246490043,1083.093496331945,60,001,2023_Mar_16_1155,SpeechDraft1Carolyn_lessNoise_PlusLocalization,2021.2.3,60.077145068909836,
,,,,,,,,center,0.0,6,ch1Sound_localizationTask.wav,0.0,"(952, 878)","(-8,-202)",0,-338,,,,,,,,,,,,,2,4,18,3,,,,,,,,,,,,,,,,,,,,,,,,,,,,,,,,,,,,,,,,1085.6779448459856,None,,,1088.7102944098879,None,1.5005291005291004,0.7491497499868274,1088.7102944098879,None,,,,,,,1086.693717242917,None,1086.8771752219182,1086.8937483129557,60,001,2023_Mar_16_1155,SpeechDraft1Carolyn_lessNoise_PlusLocalization,2021.2.3,60.077145068909836,
,,,,,,,,center,0.0,6,ch1Sound_localizationTask.wav,0.0,"(952, 878)","(-8,-202)",0,-338,,,,,,,,,,,,,2,5,19,3,,,,,,,,,,,,,,,,,,,,,,,,,,,,,,,,,,,,,,,,1089.460340525955,None,,,1092.4767364510335,None,1.5010582010582012,0.7161277967970818,1092.4767364510335,None,,,,,,,1090.460401050048,None,1090.6438191239722,1090.6601835889742,60,001,2023_Mar_16_1155,SpeechDraft1Carolyn_lessNoise_PlusLocalization,2021.2.3,60.077145068909836,
,,,,,,,,nearLeft,-6.5,1,ch1Sound_localizationTask.wav,-6.5,"(857, 878)","(-103,-202)",-95,-338,,,,,,,,,,,,,2,6,20,2,,,,,,,,,,,,,,,,,,,,,,,,,,,,,,,,,,,,,,,,1093.1941745078657,None,,,1096.209826777922,None,1.4142857142857141,0.6662085249554366,1096.209826777922,None,,,,,,,1094.1935707409866,None,1094.3768004779704,1094.3937743350398,60,001,2023_Mar_16_1155,SpeechDraft1Carolyn_lessNoise_PlusLocalization,2021.2.3,60.077145068909836,
,,,,,,,,nearRight,6.5,0,ch1Sound_localizationTask.wav,6.5,"(1047, 878)","(87, -202)",95,-338,,,,,,,,,,,,,3,0,21,4,,,,,,,,,,,,,,,,,,,,,,,,,,,,,,,,,,,,,,,,1096.8938391359989,None,,,1099.9099851818755,None,1.5645502645502645,0.9009159889537841,1099.9099851818755,None,,,,,,,1097.8938996770885,None,1098.0770964580588,1098.0938653640915,60,001,2023_Mar_16_1155,SpeechDraft1Carolyn_lessNoise_PlusLocalization,2021.2.3,60.077145068909836,
,,,,,,,,center,0.0,6,ch1Sound_localizationTask.wav,0.0,"(952, 878)","(-8,-202)",0,-338,,,,,,,,,,,,,3,1,22,3,,,,,,,,,,,,,,,,,,,,,,,,,,,,,,,,,,,,,,,,1100.8270465489477,None,,,1103.8433274980634,None,1.4994708994708994,0.8663087461609393,1103.8433274980634,None,,,,,,,1101.8268769469578,None,1102.0104945169296,1102.0270603930112,60,001,2023_Mar_16_1155,SpeechDraft1Carolyn_lessNoise_PlusLocalization,2021.2.3,60.077145068909836,
,,,,,,,,nearLeft,-6.5,1,ch1Sound_localizationTask.wav,-6.5,"(857, 878)","(-103,-202)",-95,-338,,,,,,,,,,,,,3,2,23,2,,,,,,,,,,,,,,,,,,,,,,,,,,,,,,,,,,,,,,,,1104.7115800329484,None,,,1107.7434837340843,None,1.4206349206349207,0.8646860490553081,1107.7434837340843,None,,,,,,,1105.727118599927,None,1105.9104904029518,1105.9270954940002,60,001,2023_Mar_16_1155,SpeechDraft1Carolyn_lessNoise_PlusLocalization,2021.2.3,60.077145068909836,
,,,,,,,,nearLeft,-6.5,1,ch1Sound_localizationTask.wav,-6.5,"(857, 878)","(-103,-202)",-95,-338,,,,,,,,,,,,,3,3,24,2,,,,,,,,,,,,,,,,,,,,,,,,,,,,,,,,,,,,,,,,1108.610474511981,None,,,1111.6267009819858,None,1.439153439153439,0.9895553928799927,1111.6267009819858,None,,,,,,,1109.6101823959034,None,1109.7937169868965,1109.8102460650261,60,001,2023_Mar_16_1155,SpeechDraft1Carolyn_lessNoise_PlusLocalization,2021.2.3,60.077145068909836,
,,,,,,,,farRight,19.1,4,ch1Sound_localizationTask.wav,19.1,"(1237, 878)","(277,-202)",285,-338,,,,,,,,,,,,,3,4,25,6,,,,,,,,,,,,,,,,,,,,,,,,,,,,,,,,,,,,,,,,1112.628985825926,None,,,1115.6601503619459,None,1.6513227513227513,1.3012624310795218,1115.6601503619459,None,,,,,,,1113.643685003044,None,1113.827152000973,1113.843662813073,60,001,2023_Mar_16_1155,SpeechDraft1Carolyn_lessNoise_PlusLocalization,2021.2.3,60.077145068909836,
,,,,,,,,midRight,13.0,3,ch1Sound_localizationTask.wav,13.0,"(1142, 878)","(182, -202)",190,-338,,,,,,,,,,,,,3,5,26,5,,,,,,,,,,,,,,,,,,,,,,,,,,,,,,,,,,,,,,,,1116.977134325076,None,,,1119.993281666888,None,1.5925925925925926,0.8496009400114417,1119.993281666888,None,,,,,,,1117.9769121210556,None,1118.1601662719622,1118.1770284778904,60,001,2023_Mar_16_1155,SpeechDraft1Carolyn_lessNoise_PlusLocalization,2021.2.3,60.077145068909836,
,,,,,,,,farLeft,-19.1,5,ch1Sound_localizationTask.wav,-19.1,"(667, 878)","(-293,-202)",-285,-338,,,,,,,,,,,,,3,6,27,0,,,,,,,,,,,,,,,,,,,,,,,,,,,,,,,,,,,,,,,,1120.8604354679119,None,,,1123.8768187479582,None,1.3402116402116402,1.2825406568590552,1123.8768187479582,None,,,,,,,1121.8601674900856,None,1122.0436070859432,1122.0603820099495,60,001,2023_Mar_16_1155,SpeechDraft1Carolyn_lessNoise_PlusLocalization,2021.2.3,60.077145068909836,
,,,,,,,,farRight,19.1,4,ch1Sound_localizationTask.wav,19.1,"(1237, 878)","(277,-202)",285,-338,,,,,,,,,,,,,4,0,28,6,,,,,,,,,,,,,,,,,,,,,,,,,,,,,,,,,,,,,,,,1125.1619670919608,None,,,1128.1935028890148,None,1.6566137566137566,0.8842272891197354,1128.1935028890148,None,,,,,,,1126.1770881379489,None,1126.3606140750926,1126.3768619089387,60,001,2023_Mar_16_1155,SpeechDraft1Carolyn_lessNoise_PlusLocalization,2021.2.3,60.077145068909836,
,,,,,,,,farRight,19.1,4,ch1Sound_localizationTask.wav,19.1,"(1237, 878)","(277,-202)",285,-338,,,,,,,,,,,,,4,1,29,6,,,,,,,,,,,,,,,,,,,,,,,,,,,,,,,,,,,,,,,,1129.0938270259649,None,,,1132.109955400927,None,1.3185185185185184,1.485313449986279,1132.109955400927,None,,,,,,,1130.0939084200654,None,1130.2771198179107,1130.293738157954,60,001,2023_Mar_16_1155,SpeechDraft1Carolyn_lessNoise_PlusLocalization,2021.2.3,60.077145068909836,
,,,,,,,,nearRight,6.5,0,ch1Sound_localizationTask.wav,6.5,"(1047, 878)","(87, -202)",95,-338,,,,,,,,,,,,,4,2,30,4,,,,,,,,,,,,,,,,,,,,,,,,,,,,,,,,,,,,,,,,1133.6269476939924,None,,,1136.6435460939538,None,1.5486772486772487,0.7664134348742664,1136.6435460939538,None,,,,,,,1134.6271375890356,None,1134.810577647062,1134.8269822138827,60,001,2023_Mar_16_1155,SpeechDraft1Carolyn_lessNoise_PlusLocalization,2021.2.3,60.077145068909836,
,,,,,,,,center,0.0,6,ch1Sound_localizationTask.wav,0.0,"(952, 878)","(-8,-202)",0,-338,,,,,,,,,,,,,4,3,31,3,,,,,,,,,,,,,,,,,,,,,,,,,,,,,,,,,,,,,,,,1137.4271016169805,None,,,1140.4433271170128,None,1.5042328042328044,0.8338661610614508,1140.4433271170128,None,,,,,,,1138.4271822338924,None,1138.6102726198733,1138.6270031309687,60,001,2023_Mar_16_1155,SpeechDraft1Carolyn_lessNoise_PlusLocalization,2021.2.3,60.077145068909836,
,,,,,,,,midLeft,-13.0,2,ch1Sound_localizationTask.wav,-13.0,"(762, 878)","(-198,-202)",-190,-338,,,,,,,,,,,,,4,4,32,1,,,,,,,,,,,,,,,,,,,,,,,,,,,,,,,,,,,,,,,,1141.2939072500449,None,,,1144.3104045169894,None,1.398941798941799,0.7171828020364046,1144.3104045169894,None,,,,,,,1142.2936885969248,None,1142.4769228950609,1142.4938361069653,60,001,2023_Mar_16_1155,SpeechDraft1Carolyn_lessNoise_PlusLocalization,2021.2.3,60.077145068909836,
,,,,,,,,midRight,13.0,3,ch1Sound_localizationTask.wav,13.0,"(1142, 878)","(182, -202)",190,-338,,,,,,,,,,,,,4,5,33,5,,,,,,,,,,,,,,,,,,,,,,,,,,,,,,,,,,,,,,,,1145.04366278206,None,,,1148.0600566850044,None,1.61005291005291,1.1328819231130183,1148.0600566850044,None,,,,,,,1146.043880336918,None,1146.2271667779423,1146.2438918699045,60,001,2023_Mar_16_1155,SpeechDraft1Carolyn_lessNoise_PlusLocalization,2021.2.3,60.077145068909836,
,,,,,,,,midLeft,-13.0,2,ch1Sound_localizationTask.wav,-13.0,"(762, 878)","(-198,-202)",-190,-338,,,,,,,,,,,,,4,6,34,1,,,,,,,,,,,,,,,,,,,,,,,,,,,,,,,,,,,,,,,,1149.1954577029683,None,,,1152.2271210618783,None,1.3820105820105821,0.9157461270224303,1152.2271210618783,None,,,,,,,1150.2103884578682,None,1150.393770718947,1150.410402094014,60,001,2023_Mar_16_1155,SpeechDraft1Carolyn_lessNoise_PlusLocalization,2021.2.3,60.077145068909836,
,,,,,,,,center,0.0,6,ch1Sound_localizationTask.wav,0.0,"(952, 878)","(-8,-202)",0,-338,,,,,,,,,,,,,5,0,35,3,,,,,,,,,,,,,,,,,,,,,,,,,,,,,,,,,,,,,,,,1153.1439507550094,None,,,1156.1601331310812,None,1.4883597883597883,1.2483894240576774,1156.1601331310812,None,,,,,,,1154.1436948028859,None,1154.326905400958,1154.3437298829667,60,001,2023_Mar_16_1155,SpeechDraft1Carolyn_lessNoise_PlusLocalization,2021.2.3,60.077145068909836,
,,,,,,,,midLeft,-13.0,2,ch1Sound_localizationTask.wav,-13.0,"(762, 878)","(-198,-202)",-190,-338,,,,,,,,,,,,,5,1,36,1,,,,,,,,,,,,,,,,,,,,,,,,,,,,,,,,,,,,,,,,1157.410928101046,None,,,1160.4268868020736,None,1.3957671957671958,1.5657958700321615,1160.4268868020736,None,,,,,,,1158.4103294909,None,1158.5938807369675,1158.610439185053,60,001,2023_Mar_16_1155,SpeechDraft1Carolyn_lessNoise_PlusLocalization,2021.2.3,60.077145068909836,
,,,,,,,,midLeft,-13.0,2,ch1Sound_localizationTask.wav,-13.0,"(762, 878)","(-198,-202)",-190,-338,,,,,,,,,,,,,5,2,37,1,,,,,,,,,,,,,,,,,,,,,,,,,,,,,,,,,,,,,,,,1161.9941124899779,None,,,1165.0100994249806,None,1.392063492063492,0.8662227350287139,1165.0100994249806,None,,,,,,,1162.9937514399644,None,1163.1768591809087,1163.193682312034,60,001,2023_Mar_16_1155,SpeechDraft1Carolyn_lessNoise_PlusLocalization,2021.2.3,60.077145068909836,
,,,,,,,,farLeft,-19.1,5,ch1Sound_localizationTask.wav,-19.1,"(667, 878)","(-293,-202)",-285,-338,,,,,,,,,,,,,5,3,38,0,,,,,,,,,,,,,,,,,,,,,,,,,,,,,,,,,,,,,,,,1165.8940622990485,None,,,1168.9104939969257,None,1.3206349206349206,1.0501248121727258,1168.9104939969257,None,,,,,,,1166.8936683349311,None,1167.0769597610924,1167.0937819578685,60,001,2023_Mar_16_1155,SpeechDraft1Carolyn_lessNoise_PlusLocalization,2021.2.3,60.077145068909836,
,,,,,,,,farRight,19.1,4,ch1Sound_localizationTask.wav,19.1,"(1237, 878)","(277,-202)",285,-338,,,,,,,,,,,,,5,4,39,6,,,,,,,,,,,,,,,,,,,,,,,,,,,,,,,,,,,,,,,,1169.961244215956,None,,,1172.9767367190216,None,1.644973544973545,1.2500651830341667,1172.9767367190216,None,,,,,,,1170.9602967998944,None,1171.1438945990521,1171.1604521849658,60,001,2023_Mar_16_1155,SpeechDraft1Carolyn_lessNoise_PlusLocalization,2021.2.3,60.077145068909836,
,,,,,,,,center,0.0,6,ch1Sound_localizationTask.wav,0.0,"(952, 878)","(-8,-202)",0,-338,,,,,,,,,,,,,5,5,40,3,,,,,,,,,,,,,,,,,,,,,,,,,,,,,,,,,,,,,,,,1174.228109030053,None,,,1177.2601426448673,None,1.4978835978835978,0.7831380229908973,1177.2601426448673,None,,,,,,,1175.243796956027,None,1175.4270979019348,1175.4437750109937,60,001,2023_Mar_16_1155,SpeechDraft1Carolyn_lessNoise_PlusLocalization,2021.2.3,60.077145068909836,
,,,,,,,,farRight,19.1,4,ch1Sound_localizationTask.wav,19.1,"(1237, 878)","(277,-202)",285,-338,,,,,,,,,,,,,5,6,41,6,,,,,,,,,,,,,,,,,,,,,,,,,,,,,,,,,,,,,,,,1178.0452537268866,None,,,1181.0768353939056,None,1.656084656084656,0.5331067950464785,1181.0768353939056,None,,,,,,,1179.0604957770556,None,1179.2436450039968,1179.2605135100894,60,001,2023_Mar_16_1155,SpeechDraft1Carolyn_lessNoise_PlusLocalization,2021.2.3,60.077145068909836,
,,,,,,,,midRight,13.0,3,ch1Sound_localizationTask.wav,13.0,"(1142, 878)","(182, -202)",190,-338,,,,,,,,,,,,,6,0,42,5,,,,,,,,,,,,,,,,,,,,,,,,,,,,,,,,,,,,,,,,1181.612166706007,None,,,1184.6436162348837,None,1.6015873015873017,0.6324359751306474,1184.6436162348837,None,,,,,,,1182.6269325269386,None,1182.8103266230319,1182.826949242968,60,001,2023_Mar_16_1155,SpeechDraft1Carolyn_lessNoise_PlusLocalization,2021.2.3,60.077145068909836,
,,,,,,,,midRight,13.0,3,ch1Sound_localizationTask.wav,13.0,"(1142, 878)","(182, -202)",190,-338,,,,,,,,,,,,,6,1,43,5,,,,,,,,,,,,,,,,,,,,,,,,,,,,,,,,,,,,,,,,1185.277338464046,None,,,1188.2938622450456,None,1.5883597883597882,0.5157397459261119,1188.2938622450456,None,,,,,,,1186.277174782008,None,1186.4604527559131,1186.4769462810364,60,001,2023_Mar_16_1155,SpeechDraft1Carolyn_lessNoise_PlusLocalization,2021.2.3,60.077145068909836,
,,,,,,,,farLeft,-19.1,5,ch1Sound_localizationTask.wav,-19.1,"(667, 878)","(-293,-202)",-285,-338,,,,,,,,,,,,,6,2,44,0,,,,,,,,,,,,,,,,,,,,,,,,,,,,,,,,,,,,,,,,1188.8110787118785,None,,,1191.8265315119643,None,1.298941798941799,0.715315479086712,1191.8265315119643,None,,,,,,,1189.8106163409539,None,1189.9938341309316,1190.0104667320848,60,001,2023_Mar_16_1155,SpeechDraft1Carolyn_lessNoise_PlusLocalization,2021.2.3,60.077145068909836,
,,,,,,,,nearRight,6.5,0,ch1Sound_localizationTask.wav,6.5,"(1047, 878)","(87, -202)",95,-338,,,,,,,,,,,,,6,3,45,4,,,,,,,,,,,,,,,,,,,,,,,,,,,,,,,,,,,,,,,,1192.5442836370785,None,,,1195.560402407078,None,1.544973544973545,1.0315911639481783,1195.560402407078,None,,,,,,,1193.543852302013,None,1193.7271125779953,1193.7436507660896,60,001,2023_Mar_16_1155,SpeechDraft1Carolyn_lessNoise_PlusLocalization,2021.2.3,60.077145068909836,
,,,,,,,,center,0.0,6,ch1Sound_localizationTask.wav,0.0,"(952, 878)","(-8,-202)",0,-338,,,,,,,,,,,,,6,4,46,3,,,,,,,,,,,,,,,,,,,,,,,,,,,,,,,,,,,,,,,,1196.5942943568807,None,,,1199.6102178918663,None,1.480952380952381,0.6327665690332651,1199.6102178918663,None,,,,,,,1197.593715691939,None,1197.7771424350794,1197.793627110077,60,001,2023_Mar_16_1155,SpeechDraft1Carolyn_lessNoise_PlusLocalization,2021.2.3,60.077145068909836,
,,,,,,,,farLeft,-19.1,5,ch1Sound_localizationTask.wav,-19.1,"(667, 878)","(-293,-202)",-285,-338,,,,,,,,,,,,,6,5,47,0,,,,,,,,,,,,,,,,,,,,,,,,,,,,,,,,,,,,,,,,1200.2457286310382,None,,,1203.2769369080197,None,1.3296296296296295,0.6343121009413153,1203.2769369080197,None,,,,,,,1201.2605303199962,None,1201.4438710908871,1201.460319353966,60,001,2023_Mar_16_1155,SpeechDraft1Carolyn_lessNoise_PlusLocalization,2021.2.3,60.077145068909836,
,,,,,,,,farLeft,-19.1,5,ch1Sound_localizationTask.wav,-19.1,"(667, 878)","(-293,-202)",-285,-338,,,,,,,,,,,,,6,6,48,0,,,,,,,,,,,,,,,,,,,,,,,,,,,,,,,,,,,,,,,,1203.9272494819015,None,,,1206.943602731917,None,1.3354497354497354,0.43402158794924617,1206.943602731917,None,,,,,,,1204.9269781219773,None,1205.1103015770204,1205.1270233269315,60,001,2023_Mar_16_1155,SpeechDraft1Carolyn_lessNoise_PlusLocalization,2021.2.3,60.077145068909836,
,,,,,,,,midLeft,-13.0,2,ch1Sound_localizationTask.wav,-13.0,"(762, 878)","(-198,-202)",-190,-338,,,,,,,,,,,,,7,0,49,1,,,,,,,,,,,,,,,,,,,,,,,,,,,,,,,,,,,,,,,,1207.3938275850378,None,,,1210.410016363021,None,1.3761904761904762,0.751655116211623,1210.410016363021,None,,,,,,,1208.393930413993,None,1208.577023837017,1208.59400541801,60,001,2023_Mar_16_1155,SpeechDraft1Carolyn_lessNoise_PlusLocalization,2021.2.3,60.077145068909836,
,,,,,,,,farLeft,-19.1,5,ch1Sound_localizationTask.wav,-19.1,"(667, 878)","(-293,-202)",-285,-338,,,,,,,,,,,,,7,1,50,0,,,,,,,,,,,,,,,,,,,,,,,,,,,,,,,,,,,,,,,,1211.1772557650693,None,,,1214.193636283977,None,1.3380952380952382,1.649419920053333,1214.193636283977,None,,,,,,,1212.177048936952,None,1212.3606236560736,1212.377068273956,60,001,2023_Mar_16_1155,SpeechDraft1Carolyn_lessNoise_PlusLocalization,2021.2.3,60.077145068909836,
,,,,,,,,farLeft,-19.1,5,ch1Sound_localizationTask.wav,-19.1,"(667, 878)","(-293,-202)",-285,-338,,,,,,,,,,,,,7,2,51,0,,,,,,,,,,,,,,,,,,,,,,,,,,,,,,,,,,,,,,,,1215.8444137419574,None,,,1218.860192525899,None,1.3534391534391534,0.5663924920372665,1218.860192525899,None,,,,,,,1216.843926446978,None,1217.0272379270755,1217.0438955898862,60,001,2023_Mar_16_1155,SpeechDraft1Carolyn_lessNoise_PlusLocalization,2021.2.3,60.077145068909836,
,,,,,,,,nearRight,6.5,0,ch1Sound_localizationTask.wav,6.5,"(1047, 878)","(87, -202)",95,-338,,,,,,,,,,,,,7,3,52,4,,,,,,,,,,,,,,,,,,,,,,,,,,,,,,,,,,,,,,,,1219.4439320629463,None,,,1222.4602871378884,None,1.5613756613756613,0.6993805379606783,1222.4602871378884,None,,,,,,,1220.4439202218782,None,1220.6272947839461,1220.6439017239027,60,001,2023_Mar_16_1155,SpeechDraft1Carolyn_lessNoise_PlusLocalization,2021.2.3,60.077145068909836,
,,,,,,,,farLeft,-19.1,5,ch1Sound_localizationTask.wav,-19.1,"(667, 878)","(-293,-202)",-285,-338,,,,,,,,,,,,,7,4,53,0,,,,,,,,,,,,,,,,,,,,,,,,,,,,,,,,,,,,,,,,1223.1770537220873,None,,,1226.1934956659097,None,1.3507936507936509,0.7012005869764835,1226.1934956659097,None,,,,,,,1224.1771923289634,None,1224.36035905499,1224.377312459983,60,001,2023_Mar_16_1155,SpeechDraft1Carolyn_lessNoise_PlusLocalization,2021.2.3,60.077145068909836,
,,,,,,,,midRight,13.0,3,ch1Sound_localizationTask.wav,13.0,"(1142, 878)","(182, -202)",190,-338,,,,,,,,,,,,,7,5,54,5,,,,,,,,,,,,,,,,,,,,,,,,,,,,,,,,,,,,,,,,1226.9106433258858,None,,,1229.9269326829817,None,1.5920634920634922,0.5823189062066376,1229.9269326829817,None,,,,,,,1227.9104067850858,None,1228.0939676410053,1228.1103621919174,60,001,2023_Mar_16_1155,SpeechDraft1Carolyn_lessNoise_PlusLocalization,2021.2.3,60.077145068909836,
,,,,,,,,farRight,19.1,4,ch1Sound_localizationTask.wav,19.1,"(1237, 878)","(277,-202)",285,-338,,,,,,,,,,,,,7,6,55,6,,,,,,,,,,,,,,,,,,,,,,,,,,,,,,,,,,,,,,,,1230.5110135730356,None,,,1233.526885503903,None,1.5941798941798941,0.2995541689451784,1233.526885503903,None,,,,,,,1231.5105677458923,None,1231.6939874729142,1231.7107668609824,60,001,2023_Mar_16_1155,SpeechDraft1Carolyn_lessNoise_PlusLocalization,2021.2.3,60.077145068909836,
