Audio_Only_Files,Video_Files,Original_Word_List,noiseLevelCode,conditionCodes,noiseLevelFile1,noiseLevelFile2,InstrTextVar,targetSpeakerName,targetSpeakerEccen,targetSpkrChannel,targetSpkrSound,targetVisualDegrees,visStimLoc,visStimLoc2,visStimW,visStimH,practiceTrials.thisRepN,practiceTrials.thisTrialN,practiceTrials.thisN,practiceTrials.thisIndex,trials.thisRepN,trials.thisTrialN,trials.thisN,trials.thisIndex,audLocalLoop.thisRepN,audLocalLoop.thisTrialN,audLocalLoop.thisN,audLocalLoop.thisIndex,visualLocalLoop.thisRepN,visualLocalLoop.thisTrialN,visualLocalLoop.thisN,visualLocalLoop.thisIndex,letsGoAlready.keys,letsGoAlready.rt,letsGoAlready.started,letsGoAlready.stopped,text_2.started,text_2.stopped,text_3.started,text_3.stopped,key_resp_2.keys,key_resp_2.rt,key_resp_2.started,key_resp_2.stopped,text_5.started,text_5.stopped,fixCross.started,fixCross.stopped,fixCross2.started,fixCross2.stopped,answerPrompt.started,answerPrompt.stopped,getAnswer.text,getAnswer.started,getAnswer.stopped,goToNext.keys,goToNext.rt,goToNext.started,goToNext.stopped,stretchBreakTxrt.started,stretchBreakTxrt.stopped,key_resp_3.keys,key_resp_3.rt,key_resp_3.started,key_resp_3.stopped,letsGoLocal.keys,letsGoLocal.rt,letsGoLocal.started,letsGoLocal.stopped,text_4.started,text_4.stopped,prepFixTxt.started,prepFixTxt.stopped,prepFixTxt_2.started,prepFixTxt_2.stopped,respPromptLocal.started,respPromptLocal.stopped,slider.response,slider.rt,slider.started,slider.stopped,letsGoLocal_2.keys,letsGoLocal_2.rt,letsGoLocal_2.started,letsGoLocal_2.stopped,text_7.started,text_7.stopped,prepFixTxt_3.started,prepFixTxt_3.stopped,grating.started,grating.stopped,participant,session,date,expName,psychopyVersion,frameRate,
,,,,,,,,,,,,,,,,,,,,,,,,,,,,,,,,,space,19.015645305160433,75.56124260509387,None,,,,,,,,,,,,,,,,,,,,,,,,,,,,,,,,,,,,,,,,,,,,,,,,,,,,,,,,61,001,2023_Mar_16_1418,SpeechDraft1Carolyn_lessNoise_PlusLocalization,2021.2.3,59.97843614266247,
,,,,,,,,,,,,,,,,,,,,,,,,,,,,,,,,,,,,,75.56124260509387,None,94.69554637209512,None,space,9.55532896798104,94.87757046590559,None,,,,,,,,,,,,,,,,,,,,,,,,,,,,,,,,,,,,,,,,,,,,,,,,61,001,2023_Mar_16_1418,SpeechDraft1Carolyn_lessNoise_PlusLocalization,2021.2.3,59.97843614266247,
ash.wav,ash.mpg,ash,1,A,Pink_Noise_1_1.wav,Pink_Noise_1_2.wav,"This is an example of an

AUDIO trial",,,,,,,,,,0,0,0,0,,,,,,,,,,,,,,,,,,,,,,,,,104.49410225288011,None,105.47760200803168,None,108.5774447619915,None,109.94440242205746,None,"ash
",109.94440242205746,None,return,5.285150379873812,110.02765644807369,None,,,,,,,,,,,,,,,,,,,,,,,,,,,,,,,,,61,001,2023_Mar_16_1418,SpeechDraft1Carolyn_lessNoise_PlusLocalization,2021.2.3,59.97843614266247,
ash.wav,ash.mpg,ash,1,AV,Pink_Noise_1_1.wav,Pink_Noise_1_2.wav,"This is an example of an

AUDIO + VIDEO  trial",,,,,,,,,,0,1,1,1,,,,,,,,,,,,,,,,,,,,,,,,,115.36070501687936,None,116.3610564249102,None,117.86081351991743,None,119.24434194806963,None,ash,119.24434194806963,None,return,3.7610575361177325,119.32772332592867,None,,,,,,,,,,,,,,,,,,,,,,,,,,,,,,,,,61,001,2023_Mar_16_1418,SpeechDraft1Carolyn_lessNoise_PlusLocalization,2021.2.3,59.97843614266247,
,,,,,,,,,,,,,,,,,,,,,,,,,,,,,,,,,,,,,,,,,,,,,,,,,,,,,,,,,,,,123.1274820419494,None,space,47.92178790993057,123.31106444704346,None,,,,,,,,,,,,,,,,,,,,,,,,,,,61,001,2023_Mar_16_1418,SpeechDraft1Carolyn_lessNoise_PlusLocalization,2021.2.3,59.97843614266247,
freeze.wav,freeze.mpg,freeze,6,AV,Pink_Noise_6_1.wav,Pink_Noise_6_2.wav,,,,,,,,,,,,,,,0,0,0,117,,,,,,,,,,,,,,,,,,,,,,,171.29413262289017,None,172.7774633038789,None,174.16240238700993,None,wreath,174.16240238700993,None,return,9.772564694983885,174.24437458091415,None,,,,,,,,,,,,,,,,,,,,,,,,,,,,,,,,,61,001,2023_Mar_16_1418,SpeechDraft1Carolyn_lessNoise_PlusLocalization,2021.2.3,59.97843614266247,
blood.wav,blood.mpg,blood,4,A,Pink_Noise_4_1.wav,Pink_Noise_4_2.wav,,,,,,,,,,,,,,,0,1,1,50,,,,,,,,,,,,,,,,,,,,,,,184.0446724309586,None,185.5279707228765,None,186.91103892307729,None,blood,186.91103892307729,None,return,12.854349975008518,186.99444857705384,None,,,,,,,,,,,,,,,,,,,,,,,,,,,,,,,,,61,001,2023_Mar_16_1418,SpeechDraft1Carolyn_lessNoise_PlusLocalization,2021.2.3,59.97843614266247,
clue.wav,clue.mpg,clue,5,AV,Pink_Noise_5_1.wav,Pink_Noise_5_2.wav,,,,,,,,,,,,,,,0,2,2,103,,,,,,,,,,,,,,,,,,,,,,,199.87788716191426,None,201.37756867404096,None,202.76117447204888,None,clue,202.76117447204888,None,return,8.548340760869905,202.84455794398673,None,,,,,,,,,,,,,,,,,,,,,,,,,,,,,,,,,61,001,2023_Mar_16_1418,SpeechDraft1Carolyn_lessNoise_PlusLocalization,2021.2.3,59.97843614266247,
float.wav,float.mpg,float,6,A,Pink_Noise_6_1.wav,Pink_Noise_6_2.wav,,,,,,,,,,,,,,,0,3,3,7,,,,,,,,,,,,,,,,,,,,,,,211.41109042288736,None,212.91081209294498,None,214.29453267599456,None,"drew
",214.29453267599456,None,return,8.134985859971493,214.3778119329363,None,,,,,,,,,,,,,,,,,,,,,,,,,,,,,,,,,61,001,2023_Mar_16_1418,SpeechDraft1Carolyn_lessNoise_PlusLocalization,2021.2.3,59.97843614266247,
quest.wav,quest.mpg,quest,5,AV,Pink_Noise_5_1.wav,Pink_Noise_5_2.wav,,,,,,,,,,,,,,,0,4,4,71,,,,,,,,,,,,,,,,,,,,,,,222.5444380529225,None,224.04421052592807,None,225.41108877700754,None,"west
",225.41108877700754,None,return,3.802271469961852,225.49454019707628,None,,,,,,,,,,,,,,,,,,,,,,,,,,,,,,,,,61,001,2023_Mar_16_1418,SpeechDraft1Carolyn_lessNoise_PlusLocalization,2021.2.3,59.97843614266247,
tense.wav,tense.mpg,tense,1,AV,Pink_Noise_1_1.wav,Pink_Noise_1_2.wav,,,,,,,,,,,,,,,0,5,5,72,,,,,,,,,,,,,,,,,,,,,,,229.32779838098213,None,230.82758307806216,None,232.2111409099307,None,"tense
",232.2111409099307,None,return,10.386233911849558,232.29455794789828,None,,,,,,,,,,,,,,,,,,,,,,,,,,,,,,,,,61,001,2023_Mar_16_1418,SpeechDraft1Carolyn_lessNoise_PlusLocalization,2021.2.3,59.97843614266247,
lead.wav,lead.mpg,lead,4,AV,Pink_Noise_4_1.wav,Pink_Noise_4_2.wav,,,,,,,,,,,,,,,0,6,6,90,,,,,,,,,,,,,,,,,,,,,,,242.71121751191095,None,244.21092666406184,None,245.59442128497176,None,"lead
",245.59442128497176,None,return,2.818911495851353,245.67788161407225,None,,,,,,,,,,,,,,,,,,,,,,,,,,,,,,,,,61,001,2023_Mar_16_1418,SpeechDraft1Carolyn_lessNoise_PlusLocalization,2021.2.3,59.97843614266247,
dirt.wav,dirt.mpg,dirt,6,AV,Pink_Noise_6_1.wav,Pink_Noise_6_2.wav,,,,,,,,,,,,,,,0,7,7,108,,,,,,,,,,,,,,,,,,,,,,,248.5278001818806,None,250.02760972897522,None,251.4111381690018,None,earth,251.4111381690018,None,return,11.530192620819435,251.49469426297583,None,,,,,,,,,,,,,,,,,,,,,,,,,,,,,,,,,61,001,2023_Mar_16_1418,SpeechDraft1Carolyn_lessNoise_PlusLocalization,2021.2.3,59.97843614266247,
bark.wav,bark.mpg,bark,4,AV,Pink_Noise_4_1.wav,Pink_Noise_4_2.wav,,,,,,,,,,,,,,,0,8,8,79,,,,,,,,,,,,,,,,,,,,,,,263.04462761594914,None,264.52845702902414,None,265.91124113299884,None,"bark
",265.91124113299884,None,return,3.1181460758671165,265.9946437680628,None,,,,,,,,,,,,,,,,,,,,,,,,,,,,,,,,,61,001,2023_Mar_16_1418,SpeechDraft1Carolyn_lessNoise_PlusLocalization,2021.2.3,59.97843614266247,
grand.wav,grand.mpg,grand,4,AV,Pink_Noise_4_1.wav,Pink_Noise_4_2.wav,,,,,,,,,,,,,,,0,9,9,60,,,,,,,,,,,,,,,,,,,,,,,269.14454123401083,None,270.64428676106036,None,272.0278798469808,None,grand,272.0278798469808,None,return,3.9614901659078896,272.1113078119233,None,,,,,,,,,,,,,,,,,,,,,,,,,,,,,,,,,61,001,2023_Mar_16_1418,SpeechDraft1Carolyn_lessNoise_PlusLocalization,2021.2.3,59.97843614266247,
crust.wav,crust.mpg,crust,6,AV,Pink_Noise_6_1.wav,Pink_Noise_6_2.wav,,,,,,,,,,,,,,,0,10,10,82,,,,,,,,,,,,,,,,,,,,,,,276.09473866201006,None,277.5941748658661,None,278.97787883505225,None,rest,278.97787883505225,None,return,4.899580575060099,279.06128585594706,None,,,,,,,,,,,,,,,,,,,,,,,,,,,,,,,,,61,001,2023_Mar_16_1418,SpeechDraft1Carolyn_lessNoise_PlusLocalization,2021.2.3,59.97843614266247,
grade.wav,grade.mpg,grade,1,A,Pink_Noise_1_1.wav,Pink_Noise_1_2.wav,,,,,,,,,,,,,,,0,11,11,21,,,,,,,,,,,,,,,,,,,,,,,283.9780158540234,None,285.4623287669383,None,286.84458229504526,None,grade,286.84458229504526,None,return,3.2569848829880357,286.927931509912,None,,,,,,,,,,,,,,,,,,,,,,,,,,,,,,,,,61,001,2023_Mar_16_1418,SpeechDraft1Carolyn_lessNoise_PlusLocalization,2021.2.3,59.97843614266247,
priest.wav,priest.mpg,priest,5,A,Pink_Noise_5_1.wav,Pink_Noise_5_2.wav,,,,,,,,,,,,,,,0,12,12,39,,,,,,,,,,,,,,,,,,,,,,,290.21142354095355,None,291.71109364787117,None,293.07787334988825,None,"fix
",293.07787334988825,None,return,3.3195451889187098,293.16125955595635,None,,,,,,,,,,,,,,,,,,,,,,,,,,,,,,,,,61,001,2023_Mar_16_1418,SpeechDraft1Carolyn_lessNoise_PlusLocalization,2021.2.3,59.97843614266247,
catch.wav,catch.mpg,catch,4,A,Pink_Noise_4_1.wav,Pink_Noise_4_2.wav,,,,,,,,,,,,,,,0,13,13,11,,,,,,,,,,,,,,,,,,,,,,,296.51128462702036,None,298.0110504110344,None,299.3945890699979,None,"catch
",299.3945890699979,None,return,2.650709510082379,299.47808175790124,None,,,,,,,,,,,,,,,,,,,,,,,,,,,,,,,,,61,001,2023_Mar_16_1418,SpeechDraft1Carolyn_lessNoise_PlusLocalization,2021.2.3,59.97843614266247,
cream.wav,cream.mpg,cream,4,AV,Pink_Noise_4_1.wav,Pink_Noise_4_2.wav,,,,,,,,,,,,,,,0,14,14,118,,,,,,,,,,,,,,,,,,,,,,,302.16138300090097,None,303.66104342998005,None,305.04459726507775,None,cream,305.04459726507775,None,return,5.880886917002499,305.1279198930133,None,,,,,,,,,,,,,,,,,,,,,,,,,,,,,,,,,61,001,2023_Mar_16_1418,SpeechDraft1Carolyn_lessNoise_PlusLocalization,2021.2.3,59.97843614266247,
blank.wav,blank.mpg,blank,2,AV,Pink_Noise_2_1.wav,Pink_Noise_2_2.wav,,,,,,,,,,,,,,,0,15,15,75,,,,,,,,,,,,,,,,,,,,,,,311.02801506291144,None,312.51267214794643,None,313.8945774489548,None,blank,313.8945774489548,None,return,6.470869784941897,313.9779303660616,None,,,,,,,,,,,,,,,,,,,,,,,,,,,,,,,,,61,001,2023_Mar_16_1418,SpeechDraft1Carolyn_lessNoise_PlusLocalization,2021.2.3,59.97843614266247,
chest.wav,chest.mpg,chest,6,A,Pink_Noise_6_1.wav,Pink_Noise_6_2.wav,,,,,,,,,,,,,,,0,16,16,4,,,,,,,,,,,,,,,,,,,,,,,320.47819262207486,None,321.97776687704027,None,323.3613097979687,None,chest,323.3613097979687,None,return,12.308125999057665,323.4446584440302,None,,,,,,,,,,,,,,,,,,,,,,,,,,,,,,,,,61,001,2023_Mar_16_1418,SpeechDraft1Carolyn_lessNoise_PlusLocalization,2021.2.3,59.97843614266247,
chill.wav,chill.mpg,chill,1,A,Pink_Noise_1_1.wav,Pink_Noise_1_2.wav,,,,,,,,,,,,,,,0,17,17,10,,,,,,,,,,,,,,,,,,,,,,,335.7780177888926,None,337.27772079990245,None,338.66156213288195,None,chill,338.66156213288195,None,return,3.656103063840419,338.74471134203486,None,,,,,,,,,,,,,,,,,,,,,,,,,,,,,,,,,61,001,2023_Mar_16_1418,SpeechDraft1Carolyn_lessNoise_PlusLocalization,2021.2.3,59.97843614266247,
deem.wav,deem.mpg,deem,1,A,Pink_Noise_1_1.wav,Pink_Noise_1_2.wav,,,,,,,,,,,,,,,0,18,18,15,,,,,,,,,,,,,,,,,,,,,,,342.4285492859781,None,343.94447330594994,None,345.32792088086717,None,deem,345.32792088086717,None,return,9.221452404977754,345.4114232729189,None,,,,,,,,,,,,,,,,,,,,,,,,,,,,,,,,,61,001,2023_Mar_16_1418,SpeechDraft1Carolyn_lessNoise_PlusLocalization,2021.2.3,59.97843614266247,
beef.wav,beef.mpg,beef,5,AV,Pink_Noise_5_1.wav,Pink_Noise_5_2.wav,,,,,,,,,,,,,,,0,19,19,81,,,,,,,,,,,,,,,,,,,,,,,354.6613253010437,None,356.16118920291774,None,357.544860658003,None,blew,357.544860658003,None,return,7.164811294991523,357.62804595497437,None,,,,,,,,,,,,,,,,,,,,,,,,,,,,,,,,,61,001,2023_Mar_16_1418,SpeechDraft1Carolyn_lessNoise_PlusLocalization,2021.2.3,59.97843614266247,
phase.wav,phase.mpg,phase,3,A,Pink_Noise_3_1.wav,Pink_Noise_3_2.wav,,,,,,,,,,,,,,,0,20,20,5,,,,,,,,,,,,,,,,,,,,,,,364.81132273795083,None,366.3110806918703,None,367.69475973094814,None,fazed,367.69475973094814,None,return,4.246960057877004,367.7779417480342,None,,,,,,,,,,,,,,,,,,,,,,,,,,,,,,,,,61,001,2023_Mar_16_1418,SpeechDraft1Carolyn_lessNoise_PlusLocalization,2021.2.3,59.97843614266247,
desk.wav,desk.mpg,desk,3,A,Pink_Noise_3_1.wav,Pink_Noise_3_2.wav,,,,,,,,,,,,,,,0,21,21,13,,,,,,,,,,,,,,,,,,,,,,,372.0447911040392,None,373.5445244249422,None,374.9280801790301,None,desk,374.9280801790301,None,return,2.797434124862775,375.01139306486584,None,,,,,,,,,,,,,,,,,,,,,,,,,,,,,,,,,61,001,2023_Mar_16_1418,SpeechDraft1Carolyn_lessNoise_PlusLocalization,2021.2.3,59.97843614266247,
dead.wav,dead.mpg,dead,2,AV,Pink_Noise_2_1.wav,Pink_Noise_2_2.wav,,,,,,,,,,,,,,,0,22,22,98,,,,,,,,,,,,,,,,,,,,,,,377.8281132779084,None,379.3278935160488,None,380.71137739601545,None,dead,380.71137739601545,None,return,2.526026380015537,380.79479566798545,None,,,,,,,,,,,,,,,,,,,,,,,,,,,,,,,,,61,001,2023_Mar_16_1418,SpeechDraft1Carolyn_lessNoise_PlusLocalization,2021.2.3,59.97843614266247,
born.wav,born.mpg,born,1,AV,Pink_Noise_1_1.wav,Pink_Noise_1_2.wav,,,,,,,,,,,,,,,0,23,23,104,,,,,,,,,,,,,,,,,,,,,,,383.3447589019779,None,384.84451407403685,None,386.22800533496775,None,born,386.22800533496775,None,return,3.377413634909317,386.31136493501253,None,,,,,,,,,,,,,,,,,,,,,,,,,,,,,,,,,61,001,2023_Mar_16_1418,SpeechDraft1Carolyn_lessNoise_PlusLocalization,2021.2.3,59.97843614266247,
groom.wav,groom.mpg,groom,2,A,Pink_Noise_2_1.wav,Pink_Noise_2_2.wav,,,,,,,,,,,,,,,0,24,24,2,,,,,,,,,,,,,,,,,,,,,,,389.7112668759655,None,391.2110442458652,None,392.5948032599408,None,groom,392.5948032599408,None,return,3.6426027501001954,392.6781767520588,None,,,,,,,,,,,,,,,,,,,,,,,,,,,,,,,,,61,001,2023_Mar_16_1418,SpeechDraft1Carolyn_lessNoise_PlusLocalization,2021.2.3,59.97843614266247,
dusk.wav,dusk.mpg,dusk,1,AV,Pink_Noise_1_1.wav,Pink_Noise_1_2.wav,,,,,,,,,,,,,,,0,25,25,89,,,,,,,,,,,,,,,,,,,,,,,396.3446744249668,None,397.84461638587527,None,399.2280511748977,None,dusk,399.2280511748977,None,return,3.825293351896107,399.31149734486826,None,,,,,,,,,,,,,,,,,,,,,,,,,,,,,,,,,61,001,2023_Mar_16_1418,SpeechDraft1Carolyn_lessNoise_PlusLocalization,2021.2.3,59.97843614266247,
drink.wav,drink.mpg,drink,2,AV,Pink_Noise_2_1.wav,Pink_Noise_2_2.wav,,,,,,,,,,,,,,,0,26,26,95,,,,,,,,,,,,,,,,,,,,,,,403.16140713286586,None,404.66115017887205,None,406.0446980779525,None,"drink
",406.0446980779525,None,return,4.152663137065247,406.1281241560355,None,,,,,,,,,,,,,,,,,,,,,,,,,,,,,,,,,61,001,2023_Mar_16_1418,SpeechDraft1Carolyn_lessNoise_PlusLocalization,2021.2.3,59.97843614266247,
check.wav,check.mpg,check,3,AV,Pink_Noise_3_1.wav,Pink_Noise_3_2.wav,,,,,,,,,,,,,,,0,27,27,110,,,,,,,,,,,,,,,,,,,,,,,410.31149126193486,None,411.81122824992053,None,413.1946896240115,None,check,413.1946896240115,None,return,4.290763400029391,413.27811465389095,None,,,,,,,,,,,,,,,,,,,,,,,,,,,,,,,,,61,001,2023_Mar_16_1418,SpeechDraft1Carolyn_lessNoise_PlusLocalization,2021.2.3,59.97843614266247,
cruel.wav,cruel.mpg,cruel,1,AV,Pink_Noise_1_1.wav,Pink_Noise_1_2.wav,,,,,,,,,,,,,,,0,28,28,68,,,,,,,,,,,,,,,,,,,,,,,417.5947984738741,None,419.094482234912,None,420.47802189108916,None,cruel,420.47802189108916,None,return,4.087269061943516,420.56150547089055,None,,,,,,,,,,,,,,,,,,,,,,,,,,,,,,,,,61,001,2023_Mar_16_1418,SpeechDraft1Carolyn_lessNoise_PlusLocalization,2021.2.3,59.97843614266247,
bet.wav,bet.mpg,bet,4,A,Pink_Noise_4_1.wav,Pink_Noise_4_2.wav,,,,,,,,,,,,,,,0,29,29,38,,,,,,,,,,,,,,,,,,,,,,,424.6780033260584,None,426.17787101701833,None,427.5614202939905,None,max,427.5614202939905,None,return,2.4119427418336272,427.6448745569214,None,,,,,,,,,,,,,,,,,,,,,,,,,,,,,,,,,61,001,2023_Mar_16_1418,SpeechDraft1Carolyn_lessNoise_PlusLocalization,2021.2.3,59.97843614266247,
chain.wav,chain.mpg,chain,2,A,Pink_Noise_2_1.wav,Pink_Noise_2_2.wav,,,,,,,,,,,,,,,0,30,30,20,,,,,,,,,,,,,,,,,,,,,,,430.07821847405285,None,431.5779111390002,None,432.96140374802053,None,chain,432.96140374802053,None,return,2.8039563838392496,433.044834343018,None,,,,,,,,,,,,,,,,,,,,,,,,,,,,,,,,,61,001,2023_Mar_16_1418,SpeechDraft1Carolyn_lessNoise_PlusLocalization,2021.2.3,59.97843614266247,
brick.wav,brick.mpg,brick,6,A,Pink_Noise_6_1.wav,Pink_Noise_6_2.wav,,,,,,,,,,,,,,,0,31,31,55,,,,,,,,,,,,,,,,,,,,,,,435.878164665075,None,437.3779250730295,None,438.76147315697744,None,"rain
",438.76147315697744,None,return,7.683896922040731,438.844900325872,None,,,,,,,,,,,,,,,,,,,,,,,,,,,,,,,,,61,001,2023_Mar_16_1418,SpeechDraft1Carolyn_lessNoise_PlusLocalization,2021.2.3,59.97843614266247,
cork.wav,cork.mpg,cork,1,A,Pink_Noise_1_1.wav,Pink_Noise_1_2.wav,,,,,,,,,,,,,,,0,32,32,36,,,,,,,,,,,,,,,,,,,,,,,446.561491709901,None,448.0611867690459,None,449.44482190907,None,cork,449.44482190907,None,return,2.792608003830537,449.52816801308654,None,,,,,,,,,,,,,,,,,,,,,,,,,,,,,,,,,61,001,2023_Mar_16_1418,SpeechDraft1Carolyn_lessNoise_PlusLocalization,2021.2.3,59.97843614266247,
fame.wav,fame.mpg,fame,2,A,Pink_Noise_2_1.wav,Pink_Noise_2_2.wav,,,,,,,,,,,,,,,0,33,33,34,,,,,,,,,,,,,,,,,,,,,,,452.344892825,None,453.84449677402154,None,455.22819988406263,None,fang,455.22819988406263,None,return,7.47348149982281,455.311473821057,None,,,,,,,,,,,,,,,,,,,,,,,,,,,,,,,,,61,001,2023_Mar_16_1418,SpeechDraft1Carolyn_lessNoise_PlusLocalization,2021.2.3,59.97843614266247,
bed.wav,bed.mpg,bed,3,A,Pink_Noise_3_1.wav,Pink_Noise_3_2.wav,,,,,,,,,,,,,,,0,34,34,30,,,,,,,,,,,,,,,,,,,,,,,462.8115264768712,None,464.3112486519385,None,465.69487968902104,None,bed,465.69487968902104,None,return,4.830624356865883,465.7781478019897,None,,,,,,,,,,,,,,,,,,,,,,,,,,,,,,,,,61,001,2023_Mar_16_1418,SpeechDraft1Carolyn_lessNoise_PlusLocalization,2021.2.3,59.97843614266247,
duet.wav,duet.mpg,duet,5,A,Pink_Noise_5_1.wav,Pink_Noise_5_2.wav,,,,,,,,,,,,,,,0,35,35,47,,,,,,,,,,,,,,,,,,,,,,,470.6281580030918,None,472.12789285206236,None,473.51145789795555,None,zero,473.51145789795555,None,return,3.7420456442050636,473.5947653220501,None,,,,,,,,,,,,,,,,,,,,,,,,,,,,,,,,,61,001,2023_Mar_16_1418,SpeechDraft1Carolyn_lessNoise_PlusLocalization,2021.2.3,59.97843614266247,
flop.wav,flop.mpg,flop,3,AV,Pink_Noise_3_1.wav,Pink_Noise_3_2.wav,,,,,,,,,,,,,,,0,36,36,94,,,,,,,,,,,,,,,,,,,,,,,477.361596952891,None,478.8612689750735,None,480.2448228779249,None,flap,480.2448228779249,None,return,3.9206092739477754,480.3281931269448,None,,,,,,,,,,,,,,,,,,,,,,,,,,,,,,,,,61,001,2023_Mar_16_1418,SpeechDraft1Carolyn_lessNoise_PlusLocalization,2021.2.3,59.97843614266247,
friend.wav,friend.mpg,friend,4,A,Pink_Noise_4_1.wav,Pink_Noise_4_2.wav,,,,,,,,,,,,,,,0,37,37,48,,,,,,,,,,,,,,,,,,,,,,,484.278225610964,None,485.77808798407204,None,487.1616136559751,None,train,487.1616136559751,None,return,2.7400782101321965,487.2448329809122,None,,,,,,,,,,,,,,,,,,,,,,,,,,,,,,,,,61,001,2023_Mar_16_1418,SpeechDraft1Carolyn_lessNoise_PlusLocalization,2021.2.3,59.97843614266247,
please.wav,please.mpg,please,1,AV,Pink_Noise_1_1.wav,Pink_Noise_1_2.wav,,,,,,,,,,,,,,,0,38,38,109,,,,,,,,,,,,,,,,,,,,,,,490.01154184387997,None,491.5112904049456,None,492.8948701270856,None,"please
",492.8948701270856,None,return,2.534516541985795,492.9782815130893,None,,,,,,,,,,,,,,,,,,,,,,,,,,,,,,,,,61,001,2023_Mar_16_1418,SpeechDraft1Carolyn_lessNoise_PlusLocalization,2021.2.3,59.97843614266247,
blaze.wav,blaze.mpg,blaze,1,AV,Pink_Noise_1_1.wav,Pink_Noise_1_2.wav,,,,,,,,,,,,,,,0,39,39,97,,,,,,,,,,,,,,,,,,,,,,,495.5449088169262,None,497.04457887192257,None,498.4282838120125,None,blaze,498.4282838120125,None,return,5.449258370790631,498.51160800200887,None,,,,,,,,,,,,,,,,,,,,,,,,,,,,,,,,,61,001,2023_Mar_16_1418,SpeechDraft1Carolyn_lessNoise_PlusLocalization,2021.2.3,59.97843614266247,
club.wav,club.mpg,club,6,A,Pink_Noise_6_1.wav,Pink_Noise_6_2.wav,,,,,,,,,,,,,,,0,40,40,24,,,,,,,,,,,,,,,,,,,,,,,503.978220715886,None,505.47802226804197,None,506.86158099304885,None,raze,506.86158099304885,None,return,6.832047666190192,506.9448473409284,None,,,,,,,,,,,,,,,,,,,,,,,,,,,,,,,,,61,001,2023_Mar_16_1418,SpeechDraft1Carolyn_lessNoise_PlusLocalization,2021.2.3,59.97843614266247,
cope.wav,cope.mpg,cope,5,AV,Pink_Noise_5_1.wav,Pink_Noise_5_2.wav,,,,,,,,,,,,,,,0,41,41,83,,,,,,,,,,,,,,,,,,,,,,,513.7948866270017,None,515.2946295379661,None,516.6783622899093,None,cope,516.6783622899093,None,return,3.4551810449920595,516.7616999919992,None,,,,,,,,,,,,,,,,,,,,,,,,,,,,,,,,,61,001,2023_Mar_16_1418,SpeechDraft1Carolyn_lessNoise_PlusLocalization,2021.2.3,59.97843614266247,
gain.wav,gain.mpg,gain,2,AV,Pink_Noise_2_1.wav,Pink_Noise_2_2.wav,,,,,,,,,,,,,,,0,42,42,112,,,,,,,,,,,,,,,,,,,,,,,520.2450833308976,None,521.7446135999635,None,523.1281688269228,None,game,523.1281688269228,None,return,5.797279712045565,523.2115449509583,None,,,,,,,,,,,,,,,,,,,,,,,,,,,,,,,,,61,001,2023_Mar_16_1418,SpeechDraft1Carolyn_lessNoise_PlusLocalization,2021.2.3,59.97843614266247,
fraud.wav,fraud.mpg,fraud,2,A,Pink_Noise_2_1.wav,Pink_Noise_2_2.wav,,,,,,,,,,,,,,,0,43,43,42,,,,,,,,,,,,,,,,,,,,,,,529.0282767738681,None,530.528034697054,None,531.9116804490332,None,"trod
",531.9116804490332,None,return,2.101934612961486,531.9948603850789,None,,,,,,,,,,,,,,,,,,,,,,,,,,,,,,,,,61,001,2023_Mar_16_1418,SpeechDraft1Carolyn_lessNoise_PlusLocalization,2021.2.3,59.97843614266247,
two.wav,two.mpg,two,1,AV,Pink_Noise_1_1.wav,Pink_Noise_1_2.wav,,,,,,,,,,,,,,,0,44,44,70,,,,,,,,,,,,,,,,,,,,,,,534.1452049519867,None,535.6447260589339,None,537.0281752459705,None,"two
",537.0281752459705,None,return,4.953177701914683,537.1116087918635,None,,,,,,,,,,,,,,,,,,,,,,,,,,,,,,,,,61,001,2023_Mar_16_1418,SpeechDraft1Carolyn_lessNoise_PlusLocalization,2021.2.3,59.97843614266247,
eel.wav,eel.mpg,eel,3,AV,Pink_Noise_3_1.wav,Pink_Noise_3_2.wav,,,,,,,,,,,,,,,0,45,45,101,,,,,,,,,,,,,,,,,,,,,,,542.0948765319772,None,543.5947525820229,None,544.9781817418989,None,eel,544.9781817418989,None,return,2.3311545799952,545.0616279828828,None,,,,,,,,,,,,,,,,,,,,,,,,,,,,,,,,,61,001,2023_Mar_16_1418,SpeechDraft1Carolyn_lessNoise_PlusLocalization,2021.2.3,59.97843614266247,
swamp.wav,swamp.mpg,swamp,5,A,Pink_Noise_5_1.wav,Pink_Noise_5_2.wav,,,,,,,,,,,,,,,0,46,46,51,,,,,,,,,,,,,,,,,,,,,,,547.4116159558762,None,548.911357474979,None,550.2949748879764,None,top,550.2949748879764,None,return,6.238588534062728,550.3782854010351,None,,,,,,,,,,,,,,,,,,,,,,,,,,,,,,,,,61,001,2023_Mar_16_1418,SpeechDraft1Carolyn_lessNoise_PlusLocalization,2021.2.3,59.97843614266247,
eight.wav,eight.mpg,eight,5,A,Pink_Noise_5_1.wav,Pink_Noise_5_2.wav,,,,,,,,,,,,,,,0,47,47,52,,,,,,,,,,,,,,,,,,,,,,,556.6449997320306,None,558.1448510079645,None,559.5282678029034,None,eat,559.5282678029034,None,return,2.093065819935873,559.6117038819939,None,,,,,,,,,,,,,,,,,,,,,,,,,,,,,,,,,61,001,2023_Mar_16_1418,SpeechDraft1Carolyn_lessNoise_PlusLocalization,2021.2.3,59.97843614266247,
beat.wav,beat.mpg,beat,6,AV,Pink_Noise_6_1.wav,Pink_Noise_6_2.wav,,,,,,,,,,,,,,,0,48,48,119,,,,,,,,,,,,,,,,,,,,,,,561.7303374758922,None,563.2447394859046,None,564.6282845439855,None,beat,564.6282845439855,None,return,2.4251013179309666,564.7116815359332,None,,,,,,,,,,,,,,,,,,,,,,,,,,,,,,,,,61,001,2023_Mar_16_1418,SpeechDraft1Carolyn_lessNoise_PlusLocalization,2021.2.3,59.97843614266247,
farm.wav,farm.mpg,farm,4,AV,Pink_Noise_4_1.wav,Pink_Noise_4_2.wav,,,,,,,,,,,,,,,0,49,49,63,,,,,,,,,,,,,,,,,,,,,,,567.1616497959476,None,568.6614885039162,None,570.045006420929,None,"farm
",570.045006420929,None,return,5.320434834109619,570.1283504429739,None,,,,,,,,,,,,,,,,,,,,,,,,,,,,,,,,,61,001,2023_Mar_16_1418,SpeechDraft1Carolyn_lessNoise_PlusLocalization,2021.2.3,59.97843614266247,
foot.wav,foot.mpg,foot,2,A,Pink_Noise_2_1.wav,Pink_Noise_2_2.wav,,,,,,,,,,,,,,,0,50,50,58,,,,,,,,,,,,,,,,,,,,,,,575.478300482966,None,576.9789959678892,None,578.3617184208706,None,foot,578.3617184208706,None,return,5.931879753014073,578.4449989830609,None,,,,,,,,,,,,,,,,,,,,,,,,,,,,,,,,,61,001,2023_Mar_16_1418,SpeechDraft1Carolyn_lessNoise_PlusLocalization,2021.2.3,59.97843614266247,
pledge.wav,pledge.mpg,pledge,1,AV,Pink_Noise_1_1.wav,Pink_Noise_1_2.wav,,,,,,,,,,,,,,,0,51,51,106,,,,,,,,,,,,,,,,,,,,,,,584.3949975920841,None,585.8946778848767,None,587.2783137320075,None,pledge,587.2783137320075,None,return,3.0310916469898075,587.3617015550844,None,,,,,,,,,,,,,,,,,,,,,,,,,,,,,,,,,61,001,2023_Mar_16_1418,SpeechDraft1Carolyn_lessNoise_PlusLocalization,2021.2.3,59.97843614266247,
frog.wav,frog.mpg,frog,2,A,Pink_Noise_2_1.wav,Pink_Noise_2_2.wav,,,,,,,,,,,,,,,0,52,52,37,,,,,,,,,,,,,,,,,,,,,,,590.4116955848876,None,591.9115379429422,None,593.2950453129597,None,frog,593.2950453129597,None,return,3.0542908729985356,593.378512826981,None,,,,,,,,,,,,,,,,,,,,,,,,,,,,,,,,,61,001,2023_Mar_16_1418,SpeechDraft1Carolyn_lessNoise_PlusLocalization,2021.2.3,59.97843614266247,
fish.wav,fish.mpg,fish,3,AV,Pink_Noise_3_1.wav,Pink_Noise_3_2.wav,,,,,,,,,,,,,,,0,53,53,105,,,,,,,,,,,,,,,,,,,,,,,596.4616456090007,None,597.961523730075,None,599.3450559929479,None,fish,599.3450559929479,None,return,2.4604075979441404,599.4283896950074,None,,,,,,,,,,,,,,,,,,,,,,,,,,,,,,,,,61,001,2023_Mar_16_1418,SpeechDraft1Carolyn_lessNoise_PlusLocalization,2021.2.3,59.97843614266247,
drill.wav,drill.mpg,drill,2,AV,Pink_Noise_2_1.wav,Pink_Noise_2_2.wav,,,,,,,,,,,,,,,0,54,54,73,,,,,,,,,,,,,,,,,,,,,,,601.9117806069553,None,603.4114667240065,None,604.7950055249967,None,drill,604.7950055249967,None,return,1.7465614599641412,604.8783449509647,None,,,,,,,,,,,,,,,,,,,,,,,,,,,,,,,,,61,001,2023_Mar_16_1418,SpeechDraft1Carolyn_lessNoise_PlusLocalization,2021.2.3,59.97843614266247,
cause.wav,cause.mpg,cause,3,A,Pink_Noise_3_1.wav,Pink_Noise_3_2.wav,,,,,,,,,,,,,,,0,55,55,3,,,,,,,,,,,,,,,,,,,,,,,606.6450402140617,None,608.144818210043,None,609.5284352479503,None,cars,609.5284352479503,None,return,2.4288814491592348,609.6118940059096,None,,,,,,,,,,,,,,,,,,,,,,,,,,,,,,,,,61,001,2023_Mar_16_1418,SpeechDraft1Carolyn_lessNoise_PlusLocalization,2021.2.3,59.97843614266247,
grace.wav,grace.mpg,grace,3,AV,Pink_Noise_3_1.wav,Pink_Noise_3_2.wav,,,,,,,,,,,,,,,0,56,56,107,,,,,,,,,,,,,,,,,,,,,,,612.0617187060416,None,613.5615123910829,None,614.9450277399737,None,grace,614.9450277399737,None,return,8.348591739078984,615.0283078600187,None,,,,,,,,,,,,,,,,,,,,,,,,,,,,,,,,,61,001,2023_Mar_16_1418,SpeechDraft1Carolyn_lessNoise_PlusLocalization,2021.2.3,59.97843614266247,
calm.wav,calm.mpg,calm,1,A,Pink_Noise_1_1.wav,Pink_Noise_1_2.wav,,,,,,,,,,,,,,,0,57,57,59,,,,,,,,,,,,,,,,,,,,,,,623.394989755936,None,624.894843460992,None,626.2784595589619,None,calm,626.2784595589619,None,return,2.6149833609815687,626.3618591059931,None,,,,,,,,,,,,,,,,,,,,,,,,,,,,,,,,,61,001,2023_Mar_16_1418,SpeechDraft1Carolyn_lessNoise_PlusLocalization,2021.2.3,59.97843614266247,
toast.wav,toast.mpg,toast,2,AV,Pink_Noise_2_1.wav,Pink_Noise_2_2.wav,,,,,,,,,,,,,,,0,58,58,77,,,,,,,,,,,,,,,,,,,,,,,628.9951564879157,None,630.5115488150623,None,631.8951452169567,None,"toast
",631.8951452169567,None,return,7.534442787989974,631.9783670869656,None,,,,,,,,,,,,,,,,,,,,,,,,,,,,,,,,,61,001,2023_Mar_16_1418,SpeechDraft1Carolyn_lessNoise_PlusLocalization,2021.2.3,59.97843614266247,
bridge.wav,bridge.mpg,bridge,5,AV,Pink_Noise_5_1.wav,Pink_Noise_5_2.wav,,,,,,,,,,,,,,,0,59,59,96,,,,,,,,,,,,,,,,,,,,,,,639.5450274520554,None,641.0455252919346,None,642.4284813900013,None,"fridge
",642.4284813900013,None,return,4.153022576821968,642.5117634700146,None,,,,,,,,,,,,,,,,,,,,,,,,,,,,,,,,,61,001,2023_Mar_16_1418,SpeechDraft1Carolyn_lessNoise_PlusLocalization,2021.2.3,59.97843614266247,
squat.wav,squat.mpg,squat,1,A,Pink_Noise_1_1.wav,Pink_Noise_1_2.wav,,,,,,,,,,,,,,,0,60,60,33,,,,,,,,,,,,,,,,,,,,,,,646.6951785208657,None,648.1948393080384,None,649.5784783458803,None,squat,649.5784783458803,None,return,13.627038478152826,649.6617649460677,None,,,,,,,,,,,,,,,,,,,,,,,,,,,,,,,,,61,001,2023_Mar_16_1418,SpeechDraft1Carolyn_lessNoise_PlusLocalization,2021.2.3,59.97843614266247,
carve.wav,carve.mpg,carve,1,AV,Pink_Noise_1_1.wav,Pink_Noise_1_2.wav,,,,,,,,,,,,,,,0,61,61,115,,,,,,,,,,,,,,,,,,,,,,,663.3115566158667,None,664.8115726378746,None,666.1950495000929,None,carve,666.1950495000929,None,return,8.146422359161079,666.2784421818797,None,,,,,,,,,,,,,,,,,,,,,,,,,,,,,,,,,61,001,2023_Mar_16_1418,SpeechDraft1Carolyn_lessNoise_PlusLocalization,2021.2.3,59.97843614266247,
fluff.wav,fluff.mpg,fluff,4,AV,Pink_Noise_4_1.wav,Pink_Noise_4_2.wav,,,,,,,,,,,,,,,0,62,62,99,,,,,,,,,,,,,,,,,,,,,,,674.445119072916,None,675.9449274709914,None,677.3286489620805,None,fluff,677.3286489620805,None,return,3.757089426042512,677.4118193190079,None,,,,,,,,,,,,,,,,,,,,,,,,,,,,,,,,,61,001,2023_Mar_16_1418,SpeechDraft1Carolyn_lessNoise_PlusLocalization,2021.2.3,59.97843614266247,
brief.wav,brief.mpg,brief,3,AV,Pink_Noise_3_1.wav,Pink_Noise_3_2.wav,,,,,,,,,,,,,,,0,63,63,116,,,,,,,,,,,,,,,,,,,,,,,681.1951921100263,None,682.6948336930946,None,684.0798308770172,None,brief,684.0798308770172,None,return,10.174789984943345,684.1620071660727,None,,,,,,,,,,,,,,,,,,,,,,,,,,,,,,,,,61,001,2023_Mar_16_1418,SpeechDraft1Carolyn_lessNoise_PlusLocalization,2021.2.3,59.97843614266247,
due.wav,due.mpg,due,6,AV,Pink_Noise_6_1.wav,Pink_Noise_6_2.wav,,,,,,,,,,,,,,,0,64,64,114,,,,,,,,,,,,,,,,,,,,,,,694.3618033130188,None,695.8624412189238,None,697.2451052539982,None,two,697.2451052539982,None,return,3.608300636988133,697.3284761619288,None,,,,,,,,,,,,,,,,,,,,,,,,,,,,,,,,,61,001,2023_Mar_16_1418,SpeechDraft1Carolyn_lessNoise_PlusLocalization,2021.2.3,59.97843614266247,
brand.wav,brand.mpg,brand,4,A,Pink_Noise_4_1.wav,Pink_Noise_4_2.wav,,,,,,,,,,,,,,,0,65,65,40,,,,,,,,,,,,,,,,,,,,,,,700.961886594072,None,702.461564555997,None,703.845128716901,None,brand,703.845128716901,None,return,2.6642693041358143,703.928547881078,None,,,,,,,,,,,,,,,,,,,,,,,,,,,,,,,,,61,001,2023_Mar_16_1418,SpeechDraft1Carolyn_lessNoise_PlusLocalization,2021.2.3,59.97843614266247,
claim.wav,claim.mpg,claim,3,A,Pink_Noise_3_1.wav,Pink_Noise_3_2.wav,,,,,,,,,,,,,,,0,66,66,31,,,,,,,,,,,,,,,,,,,,,,,706.6118471010122,None,708.1116500960197,None,709.4951825148892,None,c;aim,709.4951825148892,None,return,2.406353039201349,709.5785333439708,None,,,,,,,,,,,,,,,,,,,,,,,,,,,,,,,,,61,001,2023_Mar_16_1418,SpeechDraft1Carolyn_lessNoise_PlusLocalization,2021.2.3,59.97843614266247,
flood.wav,flood.mpg,flood,6,A,Pink_Noise_6_1.wav,Pink_Noise_6_2.wav,,,,,,,,,,,,,,,0,67,67,14,,,,,,,,,,,,,,,,,,,,,,,712.0119290810544,None,713.511596696917,None,714.8953044288792,None,"fetch
",714.8953044288792,None,return,3.1182986781932414,714.9785035259556,None,,,,,,,,,,,,,,,,,,,,,,,,,,,,,,,,,61,001,2023_Mar_16_1418,SpeechDraft1Carolyn_lessNoise_PlusLocalization,2021.2.3,59.97843614266247,
dog.wav,dog.mpg,dog,6,AV,Pink_Noise_6_1.wav,Pink_Noise_6_2.wav,,,,,,,,,,,,,,,0,68,68,84,,,,,,,,,,,,,,,,,,,,,,,718.12856048299,None,719.6282834319863,None,721.0119760660455,None,johm,721.0119760660455,None,return,3.5776923161465675,721.0951023770031,None,,,,,,,,,,,,,,,,,,,,,,,,,,,,,,,,,61,001,2023_Mar_16_1418,SpeechDraft1Carolyn_lessNoise_PlusLocalization,2021.2.3,59.97843614266247,
bell.wav,bell.mpg,bell,6,A,Pink_Noise_6_1.wav,Pink_Noise_6_2.wav,,,,,,,,,,,,,,,0,69,69,35,,,,,,,,,,,,,,,,,,,,,,,724.695231243968,None,726.1949583438691,None,727.5784982920159,None,wow,727.5784982920159,None,return,4.010929485084489,727.6618673698977,None,,,,,,,,,,,,,,,,,,,,,,,,,,,,,,,,,61,001,2023_Mar_16_1418,SpeechDraft1Carolyn_lessNoise_PlusLocalization,2021.2.3,59.97843614266247,
drop.wav,drop.mpg,drop,6,AV,Pink_Noise_6_1.wav,Pink_Noise_6_2.wav,,,,,,,,,,,,,,,0,70,70,87,,,,,,,,,,,,,,,,,,,,,,,731.6953140320256,None,733.1949166909326,None,734.5785226169974,None,drop,734.5785226169974,None,return,1.8108595190569758,734.6619571179617,None,,,,,,,,,,,,,,,,,,,,,,,,,,,,,,,,,61,001,2023_Mar_16_1418,SpeechDraft1Carolyn_lessNoise_PlusLocalization,2021.2.3,59.97843614266247,
swayed.wav,swayed.mpg,swayed,3,A,Pink_Noise_3_1.wav,Pink_Noise_3_2.wav,,,,,,,,,,,,,,,0,71,71,18,,,,,,,,,,,,,,,,,,,,,,,736.4953742700163,None,737.9950151429512,None,739.3785878058989,None,suede,739.3785878058989,None,return,3.378966490039602,739.4618394218851,None,,,,,,,,,,,,,,,,,,,,,,,,,,,,,,,,,61,001,2023_Mar_16_1418,SpeechDraft1Carolyn_lessNoise_PlusLocalization,2021.2.3,59.97843614266247,
cop.wav,cop.mpg,cop,5,AV,Pink_Noise_5_1.wav,Pink_Noise_5_2.wav,,,,,,,,,,,,,,,0,72,72,62,,,,,,,,,,,,,,,,,,,,,,,742.8619837870356,None,744.3783355259802,None,745.7620979060885,None,"hop
",745.7620979060885,None,return,6.0834981189109385,745.845286346972,None,,,,,,,,,,,,,,,,,,,,,,,,,,,,,,,,,61,001,2023_Mar_16_1418,SpeechDraft1Carolyn_lessNoise_PlusLocalization,2021.2.3,59.97843614266247,
dent.wav,dent.mpg,dent,5,AV,Pink_Noise_5_1.wav,Pink_Noise_5_2.wav,,,,,,,,,,,,,,,0,73,73,85,,,,,,,,,,,,,,,,,,,,,,,751.9618746200576,None,753.4617404190358,None,754.8451718420256,None,stench,754.8451718420256,None,return,13.216263995040208,754.9286240879446,None,,,,,,,,,,,,,,,,,,,,,,,,,,,,,,,,,61,001,2023_Mar_16_1418,SpeechDraft1Carolyn_lessNoise_PlusLocalization,2021.2.3,59.97843614266247,
fade.wav,fade.mpg,fade,6,A,Pink_Noise_6_1.wav,Pink_Noise_6_2.wav,,,,,,,,,,,,,,,0,74,74,32,,,,,,,,,,,,,,,,,,,,,,,768.1618924879003,None,769.661569773918,None,771.0452508139424,None,"gain
",771.0452508139424,None,return,3.3681106551084667,771.1286801949609,None,,,,,,,,,,,,,,,,,,,,,,,,,,,,,,,,,61,001,2023_Mar_16_1418,SpeechDraft1Carolyn_lessNoise_PlusLocalization,2021.2.3,59.97843614266247,
golf.wav,golf.mpg,golf,1,A,Pink_Noise_1_1.wav,Pink_Noise_1_2.wav,,,,,,,,,,,,,,,0,75,75,54,,,,,,,,,,,,,,,,,,,,,,,774.5286025828682,None,776.0449872950558,None,777.4286059639417,None,golf,777.4286059639417,None,return,2.896881140070036,777.5119721549563,None,,,,,,,,,,,,,,,,,,,,,,,,,,,,,,,,,61,001,2023_Mar_16_1418,SpeechDraft1Carolyn_lessNoise_PlusLocalization,2021.2.3,59.97843614266247,
fault.wav,fault.mpg,fault,4,AV,Pink_Noise_4_1.wav,Pink_Noise_4_2.wav,,,,,,,,,,,,,,,0,76,76,86,,,,,,,,,,,,,,,,,,,,,,,780.4285757548641,None,781.9283655600157,None,783.3119423908647,None,fault,783.3119423908647,None,return,2.405541963176802,783.395300379023,None,,,,,,,,,,,,,,,,,,,,,,,,,,,,,,,,,61,001,2023_Mar_16_1418,SpeechDraft1Carolyn_lessNoise_PlusLocalization,2021.2.3,59.97843614266247,
coat.wav,coat.mpg,coat,5,A,Pink_Noise_5_1.wav,Pink_Noise_5_2.wav,,,,,,,,,,,,,,,0,77,77,49,,,,,,,,,,,,,,,,,,,,,,,785.8286707589868,None,787.3283764480148,None,788.7119284109212,None,toast,788.7119284109212,None,return,7.525576684158295,788.7952311290428,None,,,,,,,,,,,,,,,,,,,,,,,,,,,,,,,,,61,001,2023_Mar_16_1418,SpeechDraft1Carolyn_lessNoise_PlusLocalization,2021.2.3,59.97843614266247,
leapt.wav,leapt.mpg,leapt,3,AV,Pink_Noise_3_1.wav,Pink_Noise_3_2.wav,,,,,,,,,,,,,,,0,78,78,113,,,,,,,,,,,,,,,,,,,,,,,796.3453962090425,None,797.8451315730345,None,799.2285786559805,None,leapt,799.2285786559805,None,return,15.248823097907007,799.312026249012,None,,,,,,,,,,,,,,,,,,,,,,,,,,,,,,,,,61,001,2023_Mar_16_1418,SpeechDraft1Carolyn_lessNoise_PlusLocalization,2021.2.3,59.97843614266247,
pike.wav,pike.mpg,pike,5,A,Pink_Noise_5_1.wav,Pink_Noise_5_2.wav,,,,,,,,,,,,,,,0,79,79,16,,,,,,,,,,,,,,,,,,,,,,,814.5786687110085,None,816.0783579349518,None,817.4620397349354,None,tight,817.4620397349354,None,return,3.2235010738950223,817.5453885509633,None,,,,,,,,,,,,,,,,,,,,,,,,,,,,,,,,,61,001,2023_Mar_16_1418,SpeechDraft1Carolyn_lessNoise_PlusLocalization,2021.2.3,59.97843614266247,
grunt.wav,grunt.mpg,grunt,3,A,Pink_Noise_3_1.wav,Pink_Noise_3_2.wav,,,,,,,,,,,,,,,0,80,80,23,,,,,,,,,,,,,,,,,,,,,,,820.7954193609767,None,822.2951739740092,None,823.6786403700244,None,grunt,823.6786403700244,None,return,4.1428967860993,823.7619156290311,None,,,,,,,,,,,,,,,,,,,,,,,,,,,,,,,,,61,001,2023_Mar_16_1418,SpeechDraft1Carolyn_lessNoise_PlusLocalization,2021.2.3,59.97843614266247,
doll.wav,doll.mpg,doll,1,A,Pink_Noise_1_1.wav,Pink_Noise_1_2.wav,,,,,,,,,,,,,,,0,81,81,56,,,,,,,,,,,,,,,,,,,,,,,827.928734168876,None,829.4284628890455,None,830.8119878470898,None,dog,830.8119878470898,None,return,2.8575194319710135,830.8953587799333,None,,,,,,,,,,,,,,,,,,,,,,,,,,,,,,,,,61,001,2023_Mar_16_1418,SpeechDraft1Carolyn_lessNoise_PlusLocalization,2021.2.3,59.97843614266247,
bass.wav,bass.mpg,bass,4,AV,Pink_Noise_4_1.wav,Pink_Noise_4_2.wav,,,,,,,,,,,,,,,0,82,82,67,,,,,,,,,,,,,,,,,,,,,,,833.7786655849777,None,835.2784251610283,None,836.6620309429709,None,base,836.6620309429709,None,return,4.21548331505619,836.7453836130444,None,,,,,,,,,,,,,,,,,,,,,,,,,,,,,,,,,61,001,2023_Mar_16_1418,SpeechDraft1Carolyn_lessNoise_PlusLocalization,2021.2.3,59.97843614266247,
cook.wav,cook.mpg,cook,6,AV,Pink_Noise_6_1.wav,Pink_Noise_6_2.wav,,,,,,,,,,,,,,,0,83,83,100,,,,,,,,,,,,,,,,,,,,,,,840.9787435920443,None,842.4950469238684,None,843.8786404540297,None,good,843.8786404540297,None,return,4.0147598220501095,843.9621553290635,None,,,,,,,,,,,,,,,,,,,,,,,,,,,,,,,,,61,001,2023_Mar_16_1418,SpeechDraft1Carolyn_lessNoise_PlusLocalization,2021.2.3,59.97843614266247,
jeep.wav,jeep.mpg,jeep,6,AV,Pink_Noise_6_1.wav,Pink_Noise_6_2.wav,,,,,,,,,,,,,,,0,84,84,76,,,,,,,,,,,,,,,,,,,,,,,847.9954689349979,None,849.4952109309379,None,850.8788034140598,None,cheap,850.8788034140598,None,return,2.8068140840623528,850.9620880689472,None,,,,,,,,,,,,,,,,,,,,,,,,,,,,,,,,,61,001,2023_Mar_16_1418,SpeechDraft1Carolyn_lessNoise_PlusLocalization,2021.2.3,59.97843614266247,
goose.wav,goose.mpg,goose,3,AV,Pink_Noise_3_1.wav,Pink_Noise_3_2.wav,,,,,,,,,,,,,,,0,85,85,92,,,,,,,,,,,,,,,,,,,,,,,853.7954363569152,None,855.2951850420795,None,856.6786539559253,None,goose,856.6786539559253,None,return,3.2147693908773363,856.7620857930742,None,,,,,,,,,,,,,,,,,,,,,,,,,,,,,,,,,61,001,2023_Mar_16_1418,SpeechDraft1Carolyn_lessNoise_PlusLocalization,2021.2.3,59.97843614266247,
gram.wav,gram.mpg,gram,1,A,Pink_Noise_1_1.wav,Pink_Noise_1_2.wav,,,,,,,,,,,,,,,0,86,86,22,,,,,,,,,,,,,,,,,,,,,,,859.9953831629828,None,861.4950512999203,None,862.878899655072,None,gram,862.878899655072,None,return,2.4547763410955667,862.9620481000748,None,,,,,,,,,,,,,,,,,,,,,,,,,,,,,,,,,61,001,2023_Mar_16_1418,SpeechDraft1Carolyn_lessNoise_PlusLocalization,2021.2.3,59.97843614266247,
castle.wav,castle.mpg,castle,2,A,Pink_Noise_2_1.wav,Pink_Noise_2_2.wav,,,,,,,,,,,,,,,0,87,87,43,,,,,,,,,,,,,,,,,,,,,,,865.4453963169362,None,866.961805294035,None,868.3287246709224,None,castle,868.3287246709224,None,return,2.6286887410096824,868.4121190130245,None,,,,,,,,,,,,,,,,,,,,,,,,,,,,,,,,,61,001,2023_Mar_16_1418,SpeechDraft1Carolyn_lessNoise_PlusLocalization,2021.2.3,59.97843614266247,
clerk.wav,clerk.mpg,clerk,2,AV,Pink_Noise_2_1.wav,Pink_Noise_2_2.wav,,,,,,,,,,,,,,,0,88,88,78,,,,,,,,,,,,,,,,,,,,,,,871.0625021068845,None,872.57856983901,None,873.9620935660787,None,"clerk
",873.9620935660787,None,return,2.435220419894904,874.0455736040603,None,,,,,,,,,,,,,,,,,,,,,,,,,,,,,,,,,61,001,2023_Mar_16_1418,SpeechDraft1Carolyn_lessNoise_PlusLocalization,2021.2.3,59.97843614266247,
dumb.wav,dumb.mpg,dumb,4,A,Pink_Noise_4_1.wav,Pink_Noise_4_2.wav,,,,,,,,,,,,,,,0,89,89,1,,,,,,,,,,,,,,,,,,,,,,,876.5120413659606,None,878.0127612310462,None,879.3954661949538,None,dumb,879.3954661949538,None,return,9.913935818942264,879.4788475919049,None,,,,,,,,,,,,,,,,,,,,,,,,,,,,,,,,,61,001,2023_Mar_16_1418,SpeechDraft1Carolyn_lessNoise_PlusLocalization,2021.2.3,59.97843614266247,
dull.wav,dull.mpg,dull,3,A,Pink_Noise_3_1.wav,Pink_Noise_3_2.wav,,,,,,,,,,,,,,,0,90,90,27,,,,,,,,,,,,,,,,,,,,,,,889.4120822779369,None,890.9284586769063,None,892.3121145679615,None,dog,892.3121145679615,None,return,8.125363000901416,892.3954065809958,None,,,,,,,,,,,,,,,,,,,,,,,,,,,,,,,,,61,001,2023_Mar_16_1418,SpeechDraft1Carolyn_lessNoise_PlusLocalization,2021.2.3,59.97843614266247,
dive.wav,dive.mpg,dive,3,AV,Pink_Noise_3_1.wav,Pink_Noise_3_2.wav,,,,,,,,,,,,,,,0,91,91,102,,,,,,,,,,,,,,,,,,,,,,,900.5454135469627,None,902.0452622009907,None,903.428981998004,None,dive,903.428981998004,None,return,5.048691093921661,903.5121920090169,None,,,,,,,,,,,,,,,,,,,,,,,,,,,,,,,,,61,001,2023_Mar_16_1418,SpeechDraft1Carolyn_lessNoise_PlusLocalization,2021.2.3,59.97843614266247,
bake.wav,bake.mpg,bake,4,A,Pink_Noise_4_1.wav,Pink_Noise_4_2.wav,,,,,,,,,,,,,,,0,92,92,0,,,,,,,,,,,,,,,,,,,,,,,908.578815080924,None,910.0785113980528,None,911.4621682548895,None,bake,911.4621682548895,None,return,4.631402443163097,911.5454122510273,None,,,,,,,,,,,,,,,,,,,,,,,,,,,,,,,,,61,001,2023_Mar_16_1418,SpeechDraft1Carolyn_lessNoise_PlusLocalization,2021.2.3,59.97843614266247,
blunt.wav,blunt.mpg,blunt,4,A,Pink_Noise_4_1.wav,Pink_Noise_4_2.wav,,,,,,,,,,,,,,,0,93,93,26,,,,,,,,,,,,,,,,,,,,,,,916.1955194640905,None,917.6952112410218,None,919.0787639869377,None,"blunt
",919.0787639869377,None,return,4.702650712104514,919.1621347800829,None,,,,,,,,,,,,,,,,,,,,,,,,,,,,,,,,,61,001,2023_Mar_16_1418,SpeechDraft1Carolyn_lessNoise_PlusLocalization,2021.2.3,59.97843614266247,
break.wav,break.mpg,break,2,AV,Pink_Noise_2_1.wav,Pink_Noise_2_2.wav,,,,,,,,,,,,,,,0,94,94,64,,,,,,,,,,,,,,,,,,,,,,,923.8954333290458,None,925.4118361750152,None,926.7787681680638,None,break,926.7787681680638,None,return,3.7146649120841175,926.8621519019362,None,,,,,,,,,,,,,,,,,,,,,,,,,,,,,,,,,61,001,2023_Mar_16_1418,SpeechDraft1Carolyn_lessNoise_PlusLocalization,2021.2.3,59.97843614266247,
fuel.wav,fuel.mpg,fuel,5,A,Pink_Noise_5_1.wav,Pink_Noise_5_2.wav,,,,,,,,,,,,,,,0,95,95,46,,,,,,,,,,,,,,,,,,,,,,,930.5955186709762,None,932.1119340830483,None,933.4955210969783,None,foeld,933.4955210969783,None,return,4.606022382155061,933.5788796250708,None,,,,,,,,,,,,,,,,,,,,,,,,,,,,,,,,,61,001,2023_Mar_16_1418,SpeechDraft1Carolyn_lessNoise_PlusLocalization,2021.2.3,59.97843614266247,
strike.wav,strike.mpg,strike,5,AV,Pink_Noise_5_1.wav,Pink_Noise_5_2.wav,,,,,,,,,,,,,,,0,96,96,66,,,,,,,,,,,,,,,,,,,,,,,938.213691823883,None,939.7286177540664,None,941.1120720969047,None,strength,941.1120720969047,None,return,11.17341258819215,941.1955307519529,None,,,,,,,,,,,,,,,,,,,,,,,,,,,,,,,,,61,001,2023_Mar_16_1418,SpeechDraft1Carolyn_lessNoise_PlusLocalization,2021.2.3,59.97843614266247,
sake.wav,sake.mpg,sake,5,AV,Pink_Noise_5_1.wav,Pink_Noise_5_2.wav,,,,,,,,,,,,,,,0,97,97,65,,,,,,,,,,,,,,,,,,,,,,,952.3954490320757,None,953.8958263359964,None,955.2788605520036,None,sick,955.2788605520036,None,return,4.694586178986356,955.362193750916,None,,,,,,,,,,,,,,,,,,,,,,,,,,,,,,,,,61,001,2023_Mar_16_1418,SpeechDraft1Carolyn_lessNoise_PlusLocalization,2021.2.3,59.97843614266247,
cramp.wav,cramp.mpg,cramp,3,A,Pink_Noise_3_1.wav,Pink_Noise_3_2.wav,,,,,,,,,,,,,,,0,98,98,44,,,,,,,,,,,,,,,,,,,,,,,960.0788657399826,None,961.5785784299951,None,962.9622830338776,None,cramped,962.9622830338776,None,return,5.411210353951901,963.0455660480075,None,,,,,,,,,,,,,,,,,,,,,,,,,,,,,,,,,61,001,2023_Mar_16_1418,SpeechDraft1Carolyn_lessNoise_PlusLocalization,2021.2.3,59.97843614266247,
chump.wav,chump.mpg,chump,2,A,Pink_Noise_2_1.wav,Pink_Noise_2_2.wav,,,,,,,,,,,,,,,0,99,99,29,,,,,,,,,,,,,,,,,,,,,,,968.4789886379149,None,969.9952565999702,None,971.3789675310254,None,"chunk
",971.3789675310254,None,return,3.5705660111270845,971.4622501099948,None,,,,,,,,,,,,,,,,,,,,,,,,,,,,,,,,,61,001,2023_Mar_16_1418,SpeechDraft1Carolyn_lessNoise_PlusLocalization,2021.2.3,59.97843614266247,
shrimp.wav,shrimp.mpg,shrimp,6,A,Pink_Noise_6_1.wav,Pink_Noise_6_2.wav,,,,,,,,,,,,,,,0,100,100,12,,,,,,,,,,,,,,,,,,,,,,,975.0622418189887,None,976.5618671069387,None,977.9456946090795,None,train,977.9456946090795,None,return,3.5958379029762,978.0289556870703,None,,,,,,,,,,,,,,,,,,,,,,,,,,,,,,,,,61,001,2023_Mar_16_1418,SpeechDraft1Carolyn_lessNoise_PlusLocalization,2021.2.3,59.97843614266247,
clumps.wav,clumps.mpg,clumps,2,A,Pink_Noise_2_1.wav,Pink_Noise_2_2.wav,,,,,,,,,,,,,,,0,101,101,25,,,,,,,,,,,,,,,,,,,,,,,981.6456416260917,None,983.1460191900842,None,984.5288696589414,None,gloves,984.5288696589414,None,return,6.4446716560050845,984.6121319869999,None,,,,,,,,,,,,,,,,,,,,,,,,,,,,,,,,,61,001,2023_Mar_16_1418,SpeechDraft1Carolyn_lessNoise_PlusLocalization,2021.2.3,59.97843614266247,
fate.wav,fate.mpg,fate,3,AV,Pink_Noise_3_1.wav,Pink_Noise_3_2.wav,,,,,,,,,,,,,,,0,102,102,61,,,,,,,,,,,,,,,,,,,,,,,991.0789718430024,None,992.5953117660247,None,993.9788754349574,None,feint,993.9788754349574,None,return,5.706703216070309,994.0622452818789,None,,,,,,,,,,,,,,,,,,,,,,,,,,,,,,,,,61,001,2023_Mar_16_1418,SpeechDraft1Carolyn_lessNoise_PlusLocalization,2021.2.3,59.97843614266247,
none.wav,none.mpg,none,5,A,Pink_Noise_5_1.wav,Pink_Noise_5_2.wav,,,,,,,,,,,,,,,0,103,103,19,,,,,,,,,,,,,,,,,,,,,,,999.7955951229669,None,1001.312041714089,None,1002.6955986479297,None,dark,1002.6955986479297,None,return,4.013893501134589,1002.7789399789181,None,,,,,,,,,,,,,,,,,,,,,,,,,,,,,,,,,61,001,2023_Mar_16_1418,SpeechDraft1Carolyn_lessNoise_PlusLocalization,2021.2.3,59.97843614266247,
block.wav,block.mpg,block,6,A,Pink_Noise_6_1.wav,Pink_Noise_6_2.wav,,,,,,,,,,,,,,,0,104,104,17,,,,,,,,,,,,,,,,,,,,,,,1006.8123498279601,None,1008.3125949569512,None,1009.6956458860077,None,blank,1009.6956458860077,None,return,8.32594374800101,1009.7788801689167,None,,,,,,,,,,,,,,,,,,,,,,,,,,,,,,,,,61,001,2023_Mar_16_1418,SpeechDraft1Carolyn_lessNoise_PlusLocalization,2021.2.3,59.97843614266247,
bun.wav,bun.mpg,bun,2,AV,Pink_Noise_2_1.wav,Pink_Noise_2_2.wav,,,,,,,,,,,,,,,0,105,105,88,,,,,,,,,,,,,,,,,,,,,,,1018.1289512570947,None,1019.6453554239124,None,1021.0287969859783,None,bun,1021.0287969859783,None,return,2.9125002389773726,1021.1122787969653,None,,,,,,,,,,,,,,,,,,,,,,,,,,,,,,,,,61,001,2023_Mar_16_1418,SpeechDraft1Carolyn_lessNoise_PlusLocalization,2021.2.3,59.97843614266247,
blind.wav,blind.mpg,blind,6,A,Pink_Noise_6_1.wav,Pink_Noise_6_2.wav,,,,,,,,,,,,,,,0,106,106,6,,,,,,,,,,,,,,,,,,,,,,,1024.045570117887,None,1025.5465247370303,None,1026.9290140150115,None,blunt,1026.9290140150115,None,return,5.060572464950383,1027.0122635609005,None,,,,,,,,,,,,,,,,,,,,,,,,,,,,,,,,,61,001,2023_Mar_16_1418,SpeechDraft1Carolyn_lessNoise_PlusLocalization,2021.2.3,59.97843614266247,
box.wav,box.mpg,box,6,AV,Pink_Noise_6_1.wav,Pink_Noise_6_2.wav,,,,,,,,,,,,,,,0,107,107,111,,,,,,,,,,,,,,,,,,,,,,,1032.0956356879324,None,1033.6120479570236,None,1034.9957838300616,None,pipes,1034.9957838300616,None,return,5.553797316970304,1035.0789953148924,None,,,,,,,,,,,,,,,,,,,,,,,,,,,,,,,,,61,001,2023_Mar_16_1418,SpeechDraft1Carolyn_lessNoise_PlusLocalization,2021.2.3,59.97843614266247,
foil.wav,foil.mpg,foil,4,A,Pink_Noise_4_1.wav,Pink_Noise_4_2.wav,,,,,,,,,,,,,,,0,108,108,41,,,,,,,,,,,,,,,,,,,,,,,1040.6622661990114,None,1042.1787416019943,None,1043.5622912030667,None,oil,1043.5622912030667,None,return,4.643146537011489,1043.645633205073,None,,,,,,,,,,,,,,,,,,,,,,,,,,,,,,,,,61,001,2023_Mar_16_1418,SpeechDraft1Carolyn_lessNoise_PlusLocalization,2021.2.3,59.97843614266247,
stove.wav,stove.mpg,stove,2,AV,Pink_Noise_2_1.wav,Pink_Noise_2_2.wav,,,,,,,,,,,,,,,0,109,109,69,,,,,,,,,,,,,,,,,,,,,,,1048.312341263052,None,1049.828817147063,None,1051.2122244639322,None,stove,1051.2122244639322,None,return,3.713147820904851,1051.2957325100433,None,,,,,,,,,,,,,,,,,,,,,,,,,,,,,,,,,61,001,2023_Mar_16_1418,SpeechDraft1Carolyn_lessNoise_PlusLocalization,2021.2.3,59.97843614266247,
bald.wav,bald.mpg,bald,1,A,Pink_Noise_1_1.wav,Pink_Noise_1_2.wav,,,,,,,,,,,,,,,0,110,110,53,,,,,,,,,,,,,,,,,,,,,,,1055.0290899029933,None,1056.5454955468886,None,1057.9291036820505,None,bald,1057.9291036820505,None,return,11.692429631017148,1058.012350735953,None,,,,,,,,,,,,,,,,,,,,,,,,,,,,,,,,,61,001,2023_Mar_16_1418,SpeechDraft1Carolyn_lessNoise_PlusLocalization,2021.2.3,59.97843614266247,
germ.wav,germ.mpg,germ,4,AV,Pink_Noise_4_1.wav,Pink_Noise_4_2.wav,,,,,,,,,,,,,,,0,111,111,74,,,,,,,,,,,,,,,,,,,,,,,1069.7290629078634,None,1071.245406141039,None,1072.6290173220914,None,germ,1072.6290173220914,None,return,2.6964043830521405,1072.7124727440532,None,,,,,,,,,,,,,,,,,,,,,,,,,,,,,,,,,61,001,2023_Mar_16_1418,SpeechDraft1Carolyn_lessNoise_PlusLocalization,2021.2.3,59.97843614266247,
dense.wav,dense.mpg,dense,4,AV,Pink_Noise_4_1.wav,Pink_Noise_4_2.wav,,,,,,,,,,,,,,,0,112,112,91,,,,,,,,,,,,,,,,,,,,,,,1075.4290294819511,None,1076.9454176579602,None,1078.3289550959598,None,gnats,1078.3289550959598,None,return,3.5885216780006886,1078.4123682980426,None,,,,,,,,,,,,,,,,,,,,,,,,,,,,,,,,,61,001,2023_Mar_16_1418,SpeechDraft1Carolyn_lessNoise_PlusLocalization,2021.2.3,59.97843614266247,
mass.wav,mass.mpg,mass,1,AV,Pink_Noise_1_1.wav,Pink_Noise_1_2.wav,,,,,,,,,,,,,,,0,113,113,80,,,,,,,,,,,,,,,,,,,,,,,1082.0290643780027,None,1083.545556915924,None,1084.928985960083,None,mass,1084.928985960083,None,return,1.6764207880478352,1085.012372473022,None,,,,,,,,,,,,,,,,,,,,,,,,,,,,,,,,,61,001,2023_Mar_16_1418,SpeechDraft1Carolyn_lessNoise_PlusLocalization,2021.2.3,59.97843614266247,
deck.wav,deck.mpg,deck,4,A,Pink_Noise_4_1.wav,Pink_Noise_4_2.wav,,,,,,,,,,,,,,,0,114,114,57,,,,,,,,,,,,,,,,,,,,,,,1086.7124384450726,None,1088.2287112360355,None,1089.6124948628712,None,"neck
",1089.6124948628712,None,return,2.3849546290002763,1089.6958447999787,None,,,,,,,,,,,,,,,,,,,,,,,,,,,,,,,,,61,001,2023_Mar_16_1418,SpeechDraft1Carolyn_lessNoise_PlusLocalization,2021.2.3,59.97843614266247,
rent.wav,rent.mpg,rent,3,A,Pink_Noise_3_1.wav,Pink_Noise_3_2.wav,,,,,,,,,,,,,,,0,115,115,28,,,,,,,,,,,,,,,,,,,,,,,1092.1125094159506,None,1093.6288087689318,None,1095.0125087660272,None,bed,1095.0125087660272,None,return,1.9291171869263053,1095.095682553947,None,,,,,,,,,,,,,,,,,,,,,,,,,,,,,,,,,61,001,2023_Mar_16_1418,SpeechDraft1Carolyn_lessNoise_PlusLocalization,2021.2.3,59.97843614266247,
pop.wav,pop.mpg,pop,5,AV,Pink_Noise_5_1.wav,Pink_Noise_5_2.wav,,,,,,,,,,,,,,,0,116,116,93,,,,,,,,,,,,,,,,,,,,,,,1097.0457275959197,None,1098.562162589049,None,1099.9456901529338,None,pop,1099.9456901529338,None,return,4.627745131962001,1100.0290399079677,None,,,,,,,,,,,,,,,,,,,,,,,,,,,,,,,,,61,001,2023_Mar_16_1418,SpeechDraft1Carolyn_lessNoise_PlusLocalization,2021.2.3,59.97843614266247,
dial.wav,dial.mpg,dial,5,A,Pink_Noise_5_1.wav,Pink_Noise_5_2.wav,,,,,,,,,,,,,,,0,117,117,8,,,,,,,,,,,,,,,,,,,,,,,1104.679096861044,None,1106.1954171778634,None,1107.5792426590342,None,diamond,1107.5792426590342,None,return,2.466535883024335,1107.6623485309538,None,,,,,,,,,,,,,,,,,,,,,,,,,,,,,,,,,61,001,2023_Mar_16_1418,SpeechDraft1Carolyn_lessNoise_PlusLocalization,2021.2.3,59.97843614266247,
bag.wav,bag.mpg,bag,2,A,Pink_Noise_2_1.wav,Pink_Noise_2_2.wav,,,,,,,,,,,,,,,0,118,118,9,,,,,,,,,,,,,,,,,,,,,,,1110.1457499470562,None,1111.6621067419183,None,1113.0456672050059,None,egg,1113.0456672050059,None,return,1.2157290999311954,1113.1291668149643,None,,,,,,,,,,,,,,,,,,,,,,,,,,,,,,,,,61,001,2023_Mar_16_1418,SpeechDraft1Carolyn_lessNoise_PlusLocalization,2021.2.3,59.97843614266247,
cloth.wav,cloth.mpg,cloth,5,A,Pink_Noise_5_1.wav,Pink_Noise_5_2.wav,,,,,,,,,,,,,,,0,119,119,45,,,,,,,,,,,,,,,,,,,,,,,1114.3624373839702,None,1115.8788532579783,None,1117.2624356399756,None,von,1117.2624356399756,None,return,2.823127250187099,1117.3457805609796,None,,,,,,,,,,,,,,,,,,,,,,,,,,,,,,,,,61,001,2023_Mar_16_1418,SpeechDraft1Carolyn_lessNoise_PlusLocalization,2021.2.3,59.97843614266247,
,,,,,,,,,,,,,,,,,,,,,,,,,,,,,,,,,,,,,,,,,,,,,,,,,,,,,,,,,,,,,,,,,,space,32.79355648602359,1120.2792269580532,None,,,,,,,,,,,,,,,,,,,,,,,61,001,2023_Mar_16_1418,SpeechDraft1Carolyn_lessNoise_PlusLocalization,2021.2.3,59.97843614266247,
,,,,,,,,nearLeft,-6.5,1,ch1Sound_localizationTask.wav,-6.5,"(857, 878)","(-103,-202)",-95,-338,,,,,,,,,0,0,0,2,,,,,,,,,,,,,,,,,,,,,,,,,,,,,,,,,,,,,,,,,,1120.2792269580532,None,1153.1122976820916,None,1154.2122539540287,None,1155.1455374949146,None,1.3343915343915345,3.7202756288461387,1155.1455374949146,None,,,,,,,,,,,61,001,2023_Mar_16_1418,SpeechDraft1Carolyn_lessNoise_PlusLocalization,2021.2.3,59.97843614266247,
,,,,,,,,nearRight,6.5,0,ch1Sound_localizationTask.wav,6.5,"(1047, 878)","(87, -202)",95,-338,,,,,,,,,0,1,1,4,,,,,,,,,,,,,,,,,,,,,,,,,,,,,,,,,,,,,,,,,,,,1158.879212992033,None,1159.9788447560277,None,1160.9122248939238,None,1.5492063492063493,1.5001724001485854,1160.9122248939238,None,,,,,,,,,,,61,001,2023_Mar_16_1418,SpeechDraft1Carolyn_lessNoise_PlusLocalization,2021.2.3,59.97843614266247,
,,,,,,,,midRight,13.0,3,ch1Sound_localizationTask.wav,13.0,"(1142, 878)","(182, -202)",190,-338,,,,,,,,,0,2,2,5,,,,,,,,,,,,,,,,,,,,,,,,,,,,,,,,,,,,,,,,,,,,1162.4132776700426,None,1163.512134463992,None,1164.4456593568902,None,1.6243386243386242,0.7000786550343037,1164.4456593568902,None,,,,,,,,,,,61,001,2023_Mar_16_1418,SpeechDraft1Carolyn_lessNoise_PlusLocalization,2021.2.3,59.97843614266247,
,,,,,,,,nearRight,6.5,0,ch1Sound_localizationTask.wav,6.5,"(1047, 878)","(87, -202)",95,-338,,,,,,,,,0,3,3,4,,,,,,,,,,,,,,,,,,,,,,,,,,,,,,,,,,,,,,,,,,,,1165.1627035120036,None,1166.2623940969352,None,1167.1955990740098,None,1.5026455026455028,0.9675752769690007,1167.1955990740098,None,,,,,,,,,,,61,001,2023_Mar_16_1418,SpeechDraft1Carolyn_lessNoise_PlusLocalization,2021.2.3,59.97843614266247,
,,,,,,,,farRight,19.1,4,ch1Sound_localizationTask.wav,19.1,"(1237, 878)","(277,-202)",285,-338,,,,,,,,,0,4,4,6,,,,,,,,,,,,,,,,,,,,,,,,,,,,,,,,,,,,,,,,,,,,1168.179123237962,None,1169.2788257049397,None,1170.2123175689485,None,1.6222222222222222,0.8689687789883465,1170.2123175689485,None,,,,,,,,,,,61,001,2023_Mar_16_1418,SpeechDraft1Carolyn_lessNoise_PlusLocalization,2021.2.3,59.97843614266247,
,,,,,,,,nearLeft,-6.5,1,ch1Sound_localizationTask.wav,-6.5,"(857, 878)","(-103,-202)",-95,-338,,,,,,,,,0,5,5,2,,,,,,,,,,,,,,,,,,,,,,,,,,,,,,,,,,,,,,,,,,,,1171.095886566909,None,1172.1954890340567,None,1173.1286778568756,None,1.3873015873015873,0.6844219509512186,1173.1286778568756,None,,,,,,,,,,,61,001,2023_Mar_16_1418,SpeechDraft1Carolyn_lessNoise_PlusLocalization,2021.2.3,59.97843614266247,
,,,,,,,,center,0.0,6,ch1Sound_localizationTask.wav,0.0,"(952, 878)","(-8,-202)",0,-338,,,,,,,,,0,6,6,3,,,,,,,,,,,,,,,,,,,,,,,,,,,,,,,,,,,,,,,,,,,,1173.829099450959,None,1174.9288488088641,None,1175.8621961819008,None,1.4730158730158731,1.0829883820842952,1175.8621961819008,None,,,,,,,,,,,61,001,2023_Mar_16_1418,SpeechDraft1Carolyn_lessNoise_PlusLocalization,2021.2.3,59.97843614266247,
,,,,,,,,midLeft,-13.0,2,ch1Sound_localizationTask.wav,-13.0,"(762, 878)","(-198,-202)",-190,-338,,,,,,,,,1,0,7,1,,,,,,,,,,,,,,,,,,,,,,,,,,,,,,,,,,,,,,,,,,,,1176.9463112060912,None,1178.0455426529516,None,1178.9788673899602,None,1.3756613756613758,0.8821420718450099,1178.9788673899602,None,,,,,,,,,,,61,001,2023_Mar_16_1418,SpeechDraft1Carolyn_lessNoise_PlusLocalization,2021.2.3,59.97843614266247,
,,,,,,,,farLeft,-19.1,5,ch1Sound_localizationTask.wav,-19.1,"(667, 878)","(-293,-202)",-285,-338,,,,,,,,,1,1,8,0,,,,,,,,,,,,,,,,,,,,,,,,,,,,,,,,,,,,,,,,,,,,1179.8626033440232,None,1180.9622763919178,None,1181.8954363530502,None,1.3100529100529101,0.9170683610718697,1181.8954363530502,None,,,,,,,,,,,61,001,2023_Mar_16_1418,SpeechDraft1Carolyn_lessNoise_PlusLocalization,2021.2.3,59.97843614266247,
,,,,,,,,nearRight,6.5,0,ch1Sound_localizationTask.wav,6.5,"(1047, 878)","(87, -202)",95,-338,,,,,,,,,1,2,9,4,,,,,,,,,,,,,,,,,,,,,,,,,,,,,,,,,,,,,,,,,,,,1182.8292222730815,None,1183.9289284420665,None,1184.8623425739352,None,1.547089947089947,1.2325059159193188,1184.8623425739352,None,,,,,,,,,,,61,001,2023_Mar_16_1418,SpeechDraft1Carolyn_lessNoise_PlusLocalization,2021.2.3,59.97843614266247,
,,,,,,,,midRight,13.0,3,ch1Sound_localizationTask.wav,13.0,"(1142, 878)","(182, -202)",190,-338,,,,,,,,,1,3,10,5,,,,,,,,,,,,,,,,,,,,,,,,,,,,,,,,,,,,,,,,,,,,1186.0959169708658,None,1187.195610769093,None,1188.128961832961,None,1.528042328042328,1.4187816891353577,1188.128961832961,None,,,,,,,,,,,61,001,2023_Mar_16_1418,SpeechDraft1Carolyn_lessNoise_PlusLocalization,2021.2.3,59.97843614266247,
,,,,,,,,center,0.0,6,ch1Sound_localizationTask.wav,0.0,"(952, 878)","(-8,-202)",0,-338,,,,,,,,,1,4,11,3,,,,,,,,,,,,,,,,,,,,,,,,,,,,,,,,,,,,,,,,,,,,1189.562603364,None,1190.6622669119388,None,1191.5955889860634,None,1.4513227513227513,0.6514409249648452,1191.5955889860634,None,,,,,,,,,,,61,001,2023_Mar_16_1418,SpeechDraft1Carolyn_lessNoise_PlusLocalization,2021.2.3,59.97843614266247,
,,,,,,,,midLeft,-13.0,2,ch1Sound_localizationTask.wav,-13.0,"(762, 878)","(-198,-202)",-190,-338,,,,,,,,,1,5,12,1,,,,,,,,,,,,,,,,,,,,,,,,,,,,,,,,,,,,,,,,,,,,1192.262542336015,None,1193.3622685428709,None,1194.2956111999229,None,1.4037037037037037,1.4314605579711497,1194.2956111999229,None,,,,,,,,,,,61,001,2023_Mar_16_1418,SpeechDraft1Carolyn_lessNoise_PlusLocalization,2021.2.3,59.97843614266247,
,,,,,,,,midRight,13.0,3,ch1Sound_localizationTask.wav,13.0,"(1142, 878)","(182, -202)",190,-338,,,,,,,,,1,6,13,5,,,,,,,,,,,,,,,,,,,,,,,,,,,,,,,,,,,,,,,,,,,,1195.7458082858939,None,1196.8455828889273,None,1197.7789632210042,None,1.5391534391534392,0.8176538571715355,1197.7789632210042,None,,,,,,,,,,,61,001,2023_Mar_16_1418,SpeechDraft1Carolyn_lessNoise_PlusLocalization,2021.2.3,59.97843614266247,
,,,,,,,,farLeft,-19.1,5,ch1Sound_localizationTask.wav,-19.1,"(667, 878)","(-293,-202)",-285,-338,,,,,,,,,2,0,14,0,,,,,,,,,,,,,,,,,,,,,,,,,,,,,,,,,,,,,,,,,,,,1198.6126991850324,None,1199.7123099800665,None,1200.6458158129826,None,1.3719576719576718,0.7690483189653605,1200.6458158129826,None,,,,,,,,,,,61,001,2023_Mar_16_1418,SpeechDraft1Carolyn_lessNoise_PlusLocalization,2021.2.3,59.97843614266247,
,,,,,,,,farRight,19.1,4,ch1Sound_localizationTask.wav,19.1,"(1237, 878)","(277,-202)",285,-338,,,,,,,,,2,1,15,6,,,,,,,,,,,,,,,,,,,,,,,,,,,,,,,,,,,,,,,,,,,,1201.4292397480458,None,1202.528844957007,None,1203.462304047076,None,1.6095238095238096,1.0509849260561168,1203.462304047076,None,,,,,,,,,,,61,001,2023_Mar_16_1418,SpeechDraft1Carolyn_lessNoise_PlusLocalization,2021.2.3,59.97843614266247,
,,,,,,,,farLeft,-19.1,5,ch1Sound_localizationTask.wav,-19.1,"(667, 878)","(-293,-202)",-285,-338,,,,,,,,,2,2,16,0,,,,,,,,,,,,,,,,,,,,,,,,,,,,,,,,,,,,,,,,,,,,1204.5293734520674,None,1205.628932839958,None,1206.5622496819124,None,1.3867724867724869,0.984061021823436,1206.5622496819124,None,,,,,,,,,,,61,001,2023_Mar_16_1418,SpeechDraft1Carolyn_lessNoise_PlusLocalization,2021.2.3,59.97843614266247,
,,,,,,,,nearLeft,-6.5,1,ch1Sound_localizationTask.wav,-6.5,"(857, 878)","(-103,-202)",-95,-338,,,,,,,,,2,3,17,2,,,,,,,,,,,,,,,,,,,,,,,,,,,,,,,,,,,,,,,,,,,,1207.56266033696,None,1208.662347731879,None,1209.5955974040553,None,1.4444444444444444,0.5841215390246361,1209.5955974040553,None,,,,,,,,,,,61,001,2023_Mar_16_1418,SpeechDraft1Carolyn_lessNoise_PlusLocalization,2021.2.3,59.97843614266247,
,,,,,,,,nearRight,6.5,0,ch1Sound_localizationTask.wav,6.5,"(1047, 878)","(87, -202)",95,-338,,,,,,,,,2,4,18,4,,,,,,,,,,,,,,,,,,,,,,,,,,,,,,,,,,,,,,,,,,,,1210.1960115120746,None,1211.295671534026,None,1212.228955298895,None,1.5354497354497354,0.5690413690172136,1212.228955298895,None,,,,,,,,,,,61,001,2023_Mar_16_1418,SpeechDraft1Carolyn_lessNoise_PlusLocalization,2021.2.3,59.97843614266247,
,,,,,,,,midLeft,-13.0,2,ch1Sound_localizationTask.wav,-13.0,"(762, 878)","(-198,-202)",-190,-338,,,,,,,,,2,5,19,1,,,,,,,,,,,,,,,,,,,,,,,,,,,,,,,,,,,,,,,,,,,,1212.8126688909251,None,1213.912228486035,None,1214.84564975393,None,1.3698412698412699,0.552417699014768,1214.84564975393,None,,,,,,,,,,,61,001,2023_Mar_16_1418,SpeechDraft1Carolyn_lessNoise_PlusLocalization,2021.2.3,59.97843614266247,
,,,,,,,,center,0.0,6,ch1Sound_localizationTask.wav,0.0,"(952, 878)","(-8,-202)",0,-338,,,,,,,,,2,6,20,3,,,,,,,,,,,,,,,,,,,,,,,,,,,,,,,,,,,,,,,,,,,,1215.412541981088,None,1216.5122241179924,None,1217.4457772278693,None,1.4730158730158731,0.4335850072093308,1217.4457772278693,None,,,,,,,,,,,61,001,2023_Mar_16_1418,SpeechDraft1Carolyn_lessNoise_PlusLocalization,2021.2.3,59.97843614266247,
,,,,,,,,midRight,13.0,3,ch1Sound_localizationTask.wav,13.0,"(1142, 878)","(182, -202)",190,-338,,,,,,,,,3,0,21,5,,,,,,,,,,,,,,,,,,,,,,,,,,,,,,,,,,,,,,,,,,,,1217.880151253892,None,1218.9789798089769,None,1219.9121966399252,None,1.538095238095238,0.6007561159785837,1219.9121966399252,None,,,,,,,,,,,61,001,2023_Mar_16_1418,SpeechDraft1Carolyn_lessNoise_PlusLocalization,2021.2.3,59.97843614266247,
,,,,,,,,nearLeft,-6.5,1,ch1Sound_localizationTask.wav,-6.5,"(857, 878)","(-103,-202)",-95,-338,,,,,,,,,3,1,22,2,,,,,,,,,,,,,,,,,,,,,,,,,,,,,,,,,,,,,,,,,,,,1220.5292968880385,None,1221.6290163530502,None,1222.5623121040408,None,1.4761904761904763,0.6498823459260166,1222.5623121040408,None,,,,,,,,,,,61,001,2023_Mar_16_1418,SpeechDraft1Carolyn_lessNoise_PlusLocalization,2021.2.3,59.97843614266247,
,,,,,,,,midRight,13.0,3,ch1Sound_localizationTask.wav,13.0,"(1142, 878)","(182, -202)",190,-338,,,,,,,,,3,2,23,5,,,,,,,,,,,,,,,,,,,,,,,,,,,,,,,,,,,,,,,,,,,,1223.2131323739886,None,1224.3123029030394,None,1225.2455949489959,None,1.5328042328042328,0.6338246108498424,1225.2455949489959,None,,,,,,,,,,,61,001,2023_Mar_16_1418,SpeechDraft1Carolyn_lessNoise_PlusLocalization,2021.2.3,59.97843614266247,
,,,,,,,,center,0.0,6,ch1Sound_localizationTask.wav,0.0,"(952, 878)","(-8,-202)",0,-338,,,,,,,,,3,3,24,3,,,,,,,,,,,,,,,,,,,,,,,,,,,,,,,,,,,,,,,,,,,,1225.8802975390572,None,1226.9955258290283,None,1227.91230546101,None,1.482010582010582,0.6506491620093584,1227.91230546101,None,,,,,,,,,,,61,001,2023_Mar_16_1418,SpeechDraft1Carolyn_lessNoise_PlusLocalization,2021.2.3,59.97843614266247,
,,,,,,,,center,0.0,6,ch1Sound_localizationTask.wav,0.0,"(952, 878)","(-8,-202)",0,-338,,,,,,,,,3,4,25,3,,,,,,,,,,,,,,,,,,,,,,,,,,,,,,,,,,,,,,,,,,,,1228.5793311710004,None,1229.6789787199814,None,1230.6123721760232,None,1.4777777777777779,0.7351303470786661,1230.6123721760232,None,,,,,,,,,,,61,001,2023_Mar_16_1418,SpeechDraft1Carolyn_lessNoise_PlusLocalization,2021.2.3,59.97843614266247,
,,,,,,,,nearRight,6.5,0,ch1Sound_localizationTask.wav,6.5,"(1047, 878)","(87, -202)",95,-338,,,,,,,,,3,5,26,4,,,,,,,,,,,,,,,,,,,,,,,,,,,,,,,,,,,,,,,,,,,,1231.3625360089354,None,1232.4623397069518,None,1233.3956546979025,None,1.5201058201058202,0.6337823229841888,1233.3956546979025,None,,,,,,,,,,,61,001,2023_Mar_16_1418,SpeechDraft1Carolyn_lessNoise_PlusLocalization,2021.2.3,59.97843614266247,
,,,,,,,,farLeft,-19.1,5,ch1Sound_localizationTask.wav,-19.1,"(667, 878)","(-293,-202)",-285,-338,,,,,,,,,3,6,27,0,,,,,,,,,,,,,,,,,,,,,,,,,,,,,,,,,,,,,,,,,,,,1234.0459935648832,None,1235.1456665559672,None,1236.078906113049,None,1.391005291005291,0.5508408760651946,1236.078906113049,None,,,,,,,,,,,61,001,2023_Mar_16_1418,SpeechDraft1Carolyn_lessNoise_PlusLocalization,2021.2.3,59.97843614266247,
,,,,,,,,farRight,19.1,4,ch1Sound_localizationTask.wav,19.1,"(1237, 878)","(277,-202)",285,-338,,,,,,,,,4,0,28,6,,,,,,,,,,,,,,,,,,,,,,,,,,,,,,,,,,,,,,,,,,,,1236.6459909509867,None,1237.745596874971,None,1238.6789733849,None,1.602116402116402,0.7173561728559434,1238.6789733849,None,,,,,,,,,,,61,001,2023_Mar_16_1418,SpeechDraft1Carolyn_lessNoise_PlusLocalization,2021.2.3,59.97843614266247,
,,,,,,,,center,0.0,6,ch1Sound_localizationTask.wav,0.0,"(952, 878)","(-8,-202)",0,-338,,,,,,,,,4,1,29,3,,,,,,,,,,,,,,,,,,,,,,,,,,,,,,,,,,,,,,,,,,,,1239.4126451560296,None,1240.5122144829948,None,1241.4458179390058,None,1.4788359788359788,0.5345462739933282,1241.4458179390058,None,,,,,,,,,,,61,001,2023_Mar_16_1418,SpeechDraft1Carolyn_lessNoise_PlusLocalization,2021.2.3,59.97843614266247,
,,,,,,,,nearRight,6.5,0,ch1Sound_localizationTask.wav,6.5,"(1047, 878)","(87, -202)",95,-338,,,,,,,,,4,2,30,4,,,,,,,,,,,,,,,,,,,,,,,,,,,,,,,,,,,,,,,,,,,,1241.9959353478625,None,1243.0956896229181,None,1244.0291247719433,None,1.48994708994709,0.48265732009895146,1244.0291247719433,None,,,,,,,,,,,61,001,2023_Mar_16_1418,SpeechDraft1Carolyn_lessNoise_PlusLocalization,2021.2.3,59.97843614266247,
,,,,,,,,midLeft,-13.0,2,ch1Sound_localizationTask.wav,-13.0,"(762, 878)","(-198,-202)",-190,-338,,,,,,,,,4,3,31,1,,,,,,,,,,,,,,,,,,,,,,,,,,,,,,,,,,,,,,,,,,,,1244.5129671639297,None,1245.6122544270474,None,1246.5456064750906,None,1.4428571428571428,0.5677704238332808,1246.5456064750906,None,,,,,,,,,,,61,001,2023_Mar_16_1418,SpeechDraft1Carolyn_lessNoise_PlusLocalization,2021.2.3,59.97843614266247,
,,,,,,,,midLeft,-13.0,2,ch1Sound_localizationTask.wav,-13.0,"(762, 878)","(-198,-202)",-190,-338,,,,,,,,,4,4,32,1,,,,,,,,,,,,,,,,,,,,,,,,,,,,,,,,,,,,,,,,,,,,1247.1292620920576,None,1248.2289182690438,None,1249.1623375250492,None,1.4153439153439153,0.566644717939198,1249.1623375250492,None,,,,,,,,,,,61,001,2023_Mar_16_1418,SpeechDraft1Carolyn_lessNoise_PlusLocalization,2021.2.3,59.97843614266247,
,,,,,,,,farRight,19.1,4,ch1Sound_localizationTask.wav,19.1,"(1237, 878)","(277,-202)",285,-338,,,,,,,,,4,5,33,6,,,,,,,,,,,,,,,,,,,,,,,,,,,,,,,,,,,,,,,,,,,,1249.74600352603,None,1250.8456252820324,None,1251.778959041927,None,1.6894179894179895,0.90284568304196,1251.778959041927,None,,,,,,,,,,,61,001,2023_Mar_16_1418,SpeechDraft1Carolyn_lessNoise_PlusLocalization,2021.2.3,59.97843614266247,
,,,,,,,,center,0.0,6,ch1Sound_localizationTask.wav,0.0,"(952, 878)","(-8,-202)",0,-338,,,,,,,,,4,6,34,3,,,,,,,,,,,,,,,,,,,,,,,,,,,,,,,,,,,,,,,,,,,,1252.6962194929365,None,1253.7956358438823,None,1254.7290224749595,None,1.4883597883597883,0.7694485331885517,1254.7290224749595,None,,,,,,,,,,,61,001,2023_Mar_16_1418,SpeechDraft1Carolyn_lessNoise_PlusLocalization,2021.2.3,59.97843614266247,
,,,,,,,,nearLeft,-6.5,1,ch1Sound_localizationTask.wav,-6.5,"(857, 878)","(-103,-202)",-95,-338,,,,,,,,,5,0,35,2,,,,,,,,,,,,,,,,,,,,,,,,,,,,,,,,,,,,,,,,,,,,1255.5127361640334,None,1256.6124261009973,None,1257.5458183190785,None,1.452910052910053,0.7162956211250275,1257.5458183190785,None,,,,,,,,,,,61,001,2023_Mar_16_1418,SpeechDraft1Carolyn_lessNoise_PlusLocalization,2021.2.3,59.97843614266247,
,,,,,,,,nearRight,6.5,0,ch1Sound_localizationTask.wav,6.5,"(1047, 878)","(87, -202)",95,-338,,,,,,,,,5,1,36,4,,,,,,,,,,,,,,,,,,,,,,,,,,,,,,,,,,,,,,,,,,,,1258.2792391639668,None,1259.3790871358942,None,1260.312319962075,None,1.5603174603174603,0.6013979990966618,1260.312319962075,None,,,,,,,,,,,61,001,2023_Mar_16_1418,SpeechDraft1Carolyn_lessNoise_PlusLocalization,2021.2.3,59.97843614266247,
,,,,,,,,farRight,19.1,4,ch1Sound_localizationTask.wav,19.1,"(1237, 878)","(277,-202)",285,-338,,,,,,,,,5,2,37,6,,,,,,,,,,,,,,,,,,,,,,,,,,,,,,,,,,,,,,,,,,,,1260.9294809810817,None,1262.0290458670352,None,1262.9623389209155,None,1.6222222222222222,0.5513519521337003,1262.9623389209155,None,,,,,,,,,,,61,001,2023_Mar_16_1418,SpeechDraft1Carolyn_lessNoise_PlusLocalization,2021.2.3,59.97843614266247,
,,,,,,,,nearRight,6.5,0,ch1Sound_localizationTask.wav,6.5,"(1047, 878)","(87, -202)",95,-338,,,,,,,,,5,3,38,4,,,,,,,,,,,,,,,,,,,,,,,,,,,,,,,,,,,,,,,,,,,,1263.5293957260437,None,1264.6290246690623,None,1265.562340124976,None,1.566137566137566,0.49924959195777774,1265.562340124976,None,,,,,,,,,,,61,001,2023_Mar_16_1418,SpeechDraft1Carolyn_lessNoise_PlusLocalization,2021.2.3,59.97843614266247,
,,,,,,,,farLeft,-19.1,5,ch1Sound_localizationTask.wav,-19.1,"(667, 878)","(-293,-202)",-285,-338,,,,,,,,,5,4,39,0,,,,,,,,,,,,,,,,,,,,,,,,,,,,,,,,,,,,,,,,,,,,1266.063984615961,None,1267.1790881219786,None,1268.09557063994,None,1.4058201058201059,0.5514661269262433,1268.09557063994,None,,,,,,,,,,,61,001,2023_Mar_16_1418,SpeechDraft1Carolyn_lessNoise_PlusLocalization,2021.2.3,59.97843614266247,
,,,,,,,,farLeft,-19.1,5,ch1Sound_localizationTask.wav,-19.1,"(667, 878)","(-293,-202)",-285,-338,,,,,,,,,5,5,40,0,,,,,,,,,,,,,,,,,,,,,,,,,,,,,,,,,,,,,,,,,,,,1268.662667953875,None,1269.76236753189,None,1270.695666979067,None,1.375132275132275,0.5347893610596657,1270.695666979067,None,,,,,,,,,,,61,001,2023_Mar_16_1418,SpeechDraft1Carolyn_lessNoise_PlusLocalization,2021.2.3,59.97843614266247,
,,,,,,,,center,0.0,6,ch1Sound_localizationTask.wav,0.0,"(952, 878)","(-8,-202)",0,-338,,,,,,,,,5,6,41,3,,,,,,,,,,,,,,,,,,,,,,,,,,,,,,,,,,,,,,,,,,,,1271.2461250449996,None,1272.3457139860839,None,1273.279170098016,None,1.507936507936508,0.8839694270864129,1273.279170098016,None,,,,,,,,,,,61,001,2023_Mar_16_1418,SpeechDraft1Carolyn_lessNoise_PlusLocalization,2021.2.3,59.97843614266247,
,,,,,,,,farRight,19.1,4,ch1Sound_localizationTask.wav,19.1,"(1237, 878)","(277,-202)",285,-338,,,,,,,,,6,0,42,6,,,,,,,,,,,,,,,,,,,,,,,,,,,,,,,,,,,,,,,,,,,,1274.1794132110663,None,1275.2789156700019,None,1276.2124846889637,None,1.6264550264550266,0.7335566489491612,1276.2124846889637,None,,,,,,,,,,,61,001,2023_Mar_16_1418,SpeechDraft1Carolyn_lessNoise_PlusLocalization,2021.2.3,59.97843614266247,
,,,,,,,,midRight,13.0,3,ch1Sound_localizationTask.wav,13.0,"(1142, 878)","(182, -202)",190,-338,,,,,,,,,6,1,43,5,,,,,,,,,,,,,,,,,,,,,,,,,,,,,,,,,,,,,,,,,,,,1276.962754016975,None,1278.0623993389308,None,1278.9957996930461,None,1.5597883597883597,0.6321901350747794,1278.9957996930461,None,,,,,,,,,,,61,001,2023_Mar_16_1418,SpeechDraft1Carolyn_lessNoise_PlusLocalization,2021.2.3,59.97843614266247,
,,,,,,,,nearLeft,-6.5,1,ch1Sound_localizationTask.wav,-6.5,"(857, 878)","(-103,-202)",-95,-338,,,,,,,,,6,2,44,2,,,,,,,,,,,,,,,,,,,,,,,,,,,,,,,,,,,,,,,,,,,,1279.6294154999778,None,1280.7290658920538,None,1281.662459155079,None,1.455026455026455,0.5508216780144721,1281.662459155079,None,,,,,,,,,,,61,001,2023_Mar_16_1418,SpeechDraft1Carolyn_lessNoise_PlusLocalization,2021.2.3,59.97843614266247,
,,,,,,,,midLeft,-13.0,2,ch1Sound_localizationTask.wav,-13.0,"(762, 878)","(-198,-202)",-190,-338,,,,,,,,,6,3,45,1,,,,,,,,,,,,,,,,,,,,,,,,,,,,,,,,,,,,,,,,,,,,1282.2294989030343,None,1283.3291175439954,None,1284.262674618978,None,1.4026455026455027,0.864321893081069,1284.262674618978,None,,,,,,,,,,,61,001,2023_Mar_16_1418,SpeechDraft1Carolyn_lessNoise_PlusLocalization,2021.2.3,59.97843614266247,
,,,,,,,,farLeft,-19.1,5,ch1Sound_localizationTask.wav,-19.1,"(667, 878)","(-293,-202)",-285,-338,,,,,,,,,6,4,46,0,,,,,,,,,,,,,,,,,,,,,,,,,,,,,,,,,,,,,,,,,,,,1285.1461352498736,None,1286.245801606914,None,1287.1790121488739,None,1.3576719576719576,0.6349083641543984,1287.1790121488739,None,,,,,,,,,,,61,001,2023_Mar_16_1418,SpeechDraft1Carolyn_lessNoise_PlusLocalization,2021.2.3,59.97843614266247,
,,,,,,,,nearLeft,-6.5,1,ch1Sound_localizationTask.wav,-6.5,"(857, 878)","(-103,-202)",-95,-338,,,,,,,,,6,5,47,2,,,,,,,,,,,,,,,,,,,,,,,,,,,,,,,,,,,,,,,,,,,,1287.8298357499298,None,1288.9290560949594,None,1289.862299323082,None,1.4523809523809523,0.6675427770242095,1289.862299323082,None,,,,,,,,,,,61,001,2023_Mar_16_1418,SpeechDraft1Carolyn_lessNoise_PlusLocalization,2021.2.3,59.97843614266247,
,,,,,,,,nearLeft,-6.5,1,ch1Sound_localizationTask.wav,-6.5,"(857, 878)","(-103,-202)",-95,-338,,,,,,,,,6,6,48,2,,,,,,,,,,,,,,,,,,,,,,,,,,,,,,,,,,,,,,,,,,,,1290.5460935190786,None,1291.6456938779447,None,1292.5791468310636,None,1.4597883597883599,0.6840615859255195,1292.5791468310636,None,,,,,,,,,,,61,001,2023_Mar_16_1418,SpeechDraft1Carolyn_lessNoise_PlusLocalization,2021.2.3,59.97843614266247,
,,,,,,,,midLeft,-13.0,2,ch1Sound_localizationTask.wav,-13.0,"(762, 878)","(-198,-202)",-190,-338,,,,,,,,,7,0,49,1,,,,,,,,,,,,,,,,,,,,,,,,,,,,,,,,,,,,,,,,,,,,1293.279302150011,None,1294.3790482080076,None,1295.3124220098834,None,1.4179894179894181,0.6347051050979644,1295.3124220098834,None,,,,,,,,,,,61,001,2023_Mar_16_1418,SpeechDraft1Carolyn_lessNoise_PlusLocalization,2021.2.3,59.97843614266247,
,,,,,,,,farRight,19.1,4,ch1Sound_localizationTask.wav,19.1,"(1237, 878)","(277,-202)",285,-338,,,,,,,,,7,1,50,6,,,,,,,,,,,,,,,,,,,,,,,,,,,,,,,,,,,,,,,,,,,,1295.9627503100783,None,1297.0623222859576,None,1297.9957109759562,None,1.6031746031746033,0.9174721238669008,1297.9957109759562,None,,,,,,,,,,,61,001,2023_Mar_16_1418,SpeechDraft1Carolyn_lessNoise_PlusLocalization,2021.2.3,59.97843614266247,
,,,,,,,,farRight,19.1,4,ch1Sound_localizationTask.wav,19.1,"(1237, 878)","(277,-202)",285,-338,,,,,,,,,7,2,51,6,,,,,,,,,,,,,,,,,,,,,,,,,,,,,,,,,,,,,,,,,,,,1298.929525854066,None,1300.0291151599959,None,1300.9623358459212,None,1.61005291005291,0.9495254349894822,1300.9623358459212,None,,,,,,,,,,,61,001,2023_Mar_16_1418,SpeechDraft1Carolyn_lessNoise_PlusLocalization,2021.2.3,59.97843614266247,
,,,,,,,,midLeft,-13.0,2,ch1Sound_localizationTask.wav,-13.0,"(762, 878)","(-198,-202)",-190,-338,,,,,,,,,7,3,52,1,,,,,,,,,,,,,,,,,,,,,,,,,,,,,,,,,,,,,,,,,,,,1301.913462675875,None,1303.012430615956,None,1303.9457622698974,None,1.41005291005291,0.6338987029157579,1303.9457622698974,None,,,,,,,,,,,61,001,2023_Mar_16_1418,SpeechDraft1Carolyn_lessNoise_PlusLocalization,2021.2.3,59.97843614266247,
,,,,,,,,midRight,13.0,3,ch1Sound_localizationTask.wav,13.0,"(1142, 878)","(182, -202)",190,-338,,,,,,,,,7,4,53,5,,,,,,,,,,,,,,,,,,,,,,,,,,,,,,,,,,,,,,,,,,,,1304.5960897270124,None,1305.695703634061,None,1306.6289989519864,None,1.6206349206349207,0.7509822300635278,1306.6289989519864,None,,,,,,,,,,,61,001,2023_Mar_16_1418,SpeechDraft1Carolyn_lessNoise_PlusLocalization,2021.2.3,59.97843614266247,
,,,,,,,,midRight,13.0,3,ch1Sound_localizationTask.wav,13.0,"(1142, 878)","(182, -202)",190,-338,,,,,,,,,7,5,54,5,,,,,,,,,,,,,,,,,,,,,,,,,,,,,,,,,,,,,,,,,,,,1307.3960998500697,None,1308.4957372909412,None,1309.4290529049467,None,1.5656084656084657,0.6162291429936886,1309.4290529049467,None,,,,,,,,,,,61,001,2023_Mar_16_1418,SpeechDraft1Carolyn_lessNoise_PlusLocalization,2021.2.3,59.97843614266247,
,,,,,,,,farLeft,-19.1,5,ch1Sound_localizationTask.wav,-19.1,"(667, 878)","(-293,-202)",-285,-338,,,,,,,,,7,6,55,0,,,,,,,,,,,,,,,,,,,,,,,,,,,,,,,,,,,,,,,,,,,,1310.0469977220055,None,1311.1459851800464,None,1312.0790737939533,None,1.4153439153439153,0.6510487529449165,1312.0790737939533,None,,,,,,,,,,,61,001,2023_Mar_16_1418,SpeechDraft1Carolyn_lessNoise_PlusLocalization,2021.2.3,59.97843614266247,
,,,,,,,,,,,,,,,,,,,,,,,,,,,,,,,,,,,,,,,,,,,,,,,,,,,,,,,,,,,,,,,,,,,,,,,,,,,,,,,,,,space,48.25142797990702,1312.8293365018908,None,,,,,,,61,001,2023_Mar_16_1418,SpeechDraft1Carolyn_lessNoise_PlusLocalization,2021.2.3,59.97843614266247,
,,,,,,,,midRight,13.0,3,ch1Sound_localizationTask.wav,13.0,"(1142, 878)","(182, -202)",190,-338,,,,,,,,,,,,,0,0,0,5,,,,,,,,,,,,,,,,,,,,,,,,,,,,,,,,,,,,,,,,1361.1291765850037,None,,,1364.1624133039732,None,1.583068783068783,1.2209351300261915,1364.1624133039732,None,,,,,1312.8293365018908,None,1362.1294046998955,None,1362.3127007489093,1362.3294137010816,61,001,2023_Mar_16_1418,SpeechDraft1Carolyn_lessNoise_PlusLocalization,2021.2.3,59.97843614266247,
,,,,,,,,midLeft,-13.0,2,ch1Sound_localizationTask.wav,-13.0,"(762, 878)","(-198,-202)",-190,-338,,,,,,,,,,,,,0,1,1,1,,,,,,,,,,,,,,,,,,,,,,,,,,,,,,,,,,,,,,,,1365.381082593929,None,,,1368.4124581990764,None,1.398941798941799,1.133891548961401,1368.4124581990764,None,,,,,,,1366.3961682619993,None,1366.5795245759655,1366.5961200650781,61,001,2023_Mar_16_1418,SpeechDraft1Carolyn_lessNoise_PlusLocalization,2021.2.3,59.97843614266247,
,,,,,,,,farLeft,-19.1,5,ch1Sound_localizationTask.wav,-19.1,"(667, 878)","(-293,-202)",-285,-338,,,,,,,,,,,,,0,2,2,0,,,,,,,,,,,,,,,,,,,,,,,,,,,,,,,,,,,,,,,,1369.5629154860508,None,,,1372.579255691031,None,1.3767195767195768,0.9176464169286191,1372.579255691031,None,,,,,,,1370.5628330758773,None,1370.746089336928,1370.7628354560584,61,001,2023_Mar_16_1418,SpeechDraft1Carolyn_lessNoise_PlusLocalization,2021.2.3,59.97843614266247,
,,,,,,,,nearLeft,-6.5,1,ch1Sound_localizationTask.wav,-6.5,"(857, 878)","(-103,-202)",-95,-338,,,,,,,,,,,,,0,3,3,2,,,,,,,,,,,,,,,,,,,,,,,,,,,,,,,,,,,,,,,,1373.5129182080273,None,,,1376.52906712587,None,1.4465608465608466,1.0158772978466004,1376.52906712587,None,,,,,,,1374.512782047037,None,1374.6961866200436,1374.7127360159066,61,001,2023_Mar_16_1418,SpeechDraft1Carolyn_lessNoise_PlusLocalization,2021.2.3,59.97843614266247,
,,,,,,,,nearLeft,-6.5,1,ch1Sound_localizationTask.wav,-6.5,"(857, 878)","(-103,-202)",-95,-338,,,,,,,,,,,,,0,4,4,2,,,,,,,,,,,,,,,,,,,,,,,,,,,,,,,,,,,,,,,,1377.5472822529264,None,,,1380.5792514239438,None,1.4465608465608466,0.4834849019534886,1380.5792514239438,None,,,,,,,1378.562802728964,None,1378.7461261290591,1378.7627579548862,61,001,2023_Mar_16_1418,SpeechDraft1Carolyn_lessNoise_PlusLocalization,2021.2.3,59.97843614266247,
,,,,,,,,center,0.0,6,ch1Sound_localizationTask.wav,0.0,"(952, 878)","(-8,-202)",0,-338,,,,,,,,,,,,,0,5,5,3,,,,,,,,,,,,,,,,,,,,,,,,,,,,,,,,,,,,,,,,1381.063618594082,None,,,1384.0792770769913,None,1.4973544973544972,1.433376875007525,1384.0792770769913,None,,,,,,,1382.062767243944,None,1382.246129815001,1382.2628478459083,61,001,2023_Mar_16_1418,SpeechDraft1Carolyn_lessNoise_PlusLocalization,2021.2.3,59.97843614266247,
,,,,,,,,farLeft,-19.1,5,ch1Sound_localizationTask.wav,-19.1,"(667, 878)","(-293,-202)",-285,-338,,,,,,,,,,,,,0,6,6,0,,,,,,,,,,,,,,,,,,,,,,,,,,,,,,,,,,,,,,,,1385.5136729099322,None,,,1388.529091102071,None,1.3407407407407408,0.8165422780439258,1388.529091102071,None,,,,,,,1386.5128748209681,None,1386.6963253219146,1386.7127883879002,61,001,2023_Mar_16_1418,SpeechDraft1Carolyn_lessNoise_PlusLocalization,2021.2.3,59.97843614266247,
,,,,,,,,nearLeft,-6.5,1,ch1Sound_localizationTask.wav,-6.5,"(857, 878)","(-103,-202)",-95,-338,,,,,,,,,,,,,1,0,7,2,,,,,,,,,,,,,,,,,,,,,,,,,,,,,,,,,,,,,,,,1389.3630961449817,None,,,1392.3792514118832,None,1.4486772486772486,1.3326613479293883,1392.3792514118832,None,,,,,,,1390.36281900201,None,1390.5461534750648,1390.5627798540518,61,001,2023_Mar_16_1418,SpeechDraft1Carolyn_lessNoise_PlusLocalization,2021.2.3,59.97843614266247,
,,,,,,,,farRight,19.1,4,ch1Sound_localizationTask.wav,19.1,"(1237, 878)","(277,-202)",285,-338,,,,,,,,,,,,,1,1,8,6,,,,,,,,,,,,,,,,,,,,,,,,,,,,,,,,,,,,,,,,1393.729575342033,None,,,1396.745903671952,None,1.6566137566137566,1.3660858729854226,1396.745903671952,None,,,,,,,1394.7294449270703,None,1394.912951661041,1394.9294964259025,61,001,2023_Mar_16_1418,SpeechDraft1Carolyn_lessNoise_PlusLocalization,2021.2.3,59.97843614266247,
,,,,,,,,center,0.0,6,ch1Sound_localizationTask.wav,0.0,"(952, 878)","(-8,-202)",0,-338,,,,,,,,,,,,,1,2,9,3,,,,,,,,,,,,,,,,,,,,,,,,,,,,,,,,,,,,,,,,1398.1132705910131,None,,,1401.1291817489546,None,1.5063492063492063,0.9153893699403852,1401.1291817489546,None,,,,,,,1399.1129424609244,None,1399.2961290800013,1399.3128636109177,61,001,2023_Mar_16_1418,SpeechDraft1Carolyn_lessNoise_PlusLocalization,2021.2.3,59.97843614266247,
,,,,,,,,center,0.0,6,ch1Sound_localizationTask.wav,0.0,"(952, 878)","(-8,-202)",0,-338,,,,,,,,,,,,,1,3,10,3,,,,,,,,,,,,,,,,,,,,,,,,,,,,,,,,,,,,,,,,1402.0469755970407,None,,,1405.0624789618887,None,1.5063492063492063,0.43226353800855577,1405.0624789618887,None,,,,,,,1403.046210295055,None,1403.2294928990304,1403.2461668839678,61,001,2023_Mar_16_1418,SpeechDraft1Carolyn_lessNoise_PlusLocalization,2021.2.3,59.97843614266247,
,,,,,,,,farRight,19.1,4,ch1Sound_localizationTask.wav,19.1,"(1237, 878)","(277,-202)",285,-338,,,,,,,,,,,,,1,4,11,6,,,,,,,,,,,,,,,,,,,,,,,,,,,,,,,,,,,,,,,,1405.4969303810503,None,,,1408.512474823976,None,1.6402116402116402,1.249044786207378,1408.512474823976,None,,,,,,,1406.4962304178625,None,1406.6795516279526,1406.696132285986,61,001,2023_Mar_16_1418,SpeechDraft1Carolyn_lessNoise_PlusLocalization,2021.2.3,59.97843614266247,
,,,,,,,,farRight,19.1,4,ch1Sound_localizationTask.wav,19.1,"(1237, 878)","(277,-202)",285,-338,,,,,,,,,,,,,1,5,12,6,,,,,,,,,,,,,,,,,,,,,,,,,,,,,,,,,,,,,,,,1409.763488384895,None,,,1412.7792053238954,None,1.6402116402116402,0.4492015780415386,1412.7792053238954,None,,,,,,,1410.7628315030597,None,1410.946017535869,1410.9628954508808,61,001,2023_Mar_16_1418,SpeechDraft1Carolyn_lessNoise_PlusLocalization,2021.2.3,59.97843614266247,
,,,,,,,,midLeft,-13.0,2,ch1Sound_localizationTask.wav,-13.0,"(762, 878)","(-198,-202)",-190,-338,,,,,,,,,,,,,1,6,13,1,,,,,,,,,,,,,,,,,,,,,,,,,,,,,,,,,,,,,,,,1413.2304065560456,None,,,1416.2460992168635,None,1.4137566137566138,1.0828223200514913,1416.2460992168635,None,,,,,,,1414.2294655859005,None,1414.41277364688,1414.4295294058975,61,001,2023_Mar_16_1418,SpeechDraft1Carolyn_lessNoise_PlusLocalization,2021.2.3,59.97843614266247,
,,,,,,,,nearRight,6.5,0,ch1Sound_localizationTask.wav,6.5,"(1047, 878)","(87, -202)",95,-338,,,,,,,,,,,,,2,0,14,4,,,,,,,,,,,,,,,,,,,,,,,,,,,,,,,,,,,,,,,,1417.3307392839342,None,,,1420.3626614320092,None,1.5492063492063493,0.6827425111550838,1420.3626614320092,None,,,,,,,1418.3461891768966,None,1418.5294795848895,1418.5462351739407,61,001,2023_Mar_16_1418,SpeechDraft1Carolyn_lessNoise_PlusLocalization,2021.2.3,59.97843614266247,
,,,,,,,,center,0.0,6,ch1Sound_localizationTask.wav,0.0,"(952, 878)","(-8,-202)",0,-338,,,,,,,,,,,,,2,1,15,3,,,,,,,,,,,,,,,,,,,,,,,,,,,,,,,,,,,,,,,,1421.0628982400522,None,,,1424.0792156930547,None,1.5042328042328044,0.9831505338661373,1424.0792156930547,None,,,,,,,1422.062823218992,None,1422.246227819007,1422.2629707539454,61,001,2023_Mar_16_1418,SpeechDraft1Carolyn_lessNoise_PlusLocalization,2021.2.3,59.97843614266247,
,,,,,,,,nearLeft,-6.5,1,ch1Sound_localizationTask.wav,-6.5,"(857, 878)","(-103,-202)",-95,-338,,,,,,,,,,,,,2,2,16,2,,,,,,,,,,,,,,,,,,,,,,,,,,,,,,,,,,,,,,,,1425.063316052081,None,,,1428.079260071041,None,1.439153439153439,0.9172218008898199,1428.079260071041,None,,,,,,,1426.062958336901,None,1426.2461469459813,1426.2628704430535,61,001,2023_Mar_16_1418,SpeechDraft1Carolyn_lessNoise_PlusLocalization,2021.2.3,59.97843614266247,
,,,,,,,,nearRight,6.5,0,ch1Sound_localizationTask.wav,6.5,"(1047, 878)","(87, -202)",95,-338,,,,,,,,,,,,,2,3,17,4,,,,,,,,,,,,,,,,,,,,,,,,,,,,,,,,,,,,,,,,1429.0128666909877,None,,,1432.0292188969906,None,1.5576719576719578,1.032510827993974,1432.0292188969906,None,,,,,,,1430.0129044200294,None,1430.196333144093,1430.2130211740732,61,001,2023_Mar_16_1418,SpeechDraft1Carolyn_lessNoise_PlusLocalization,2021.2.3,59.97843614266247,
,,,,,,,,nearRight,6.5,0,ch1Sound_localizationTask.wav,6.5,"(1047, 878)","(87, -202)",95,-338,,,,,,,,,,,,,2,4,18,4,,,,,,,,,,,,,,,,,,,,,,,,,,,,,,,,,,,,,,,,1433.0640955988783,None,,,1436.0959158099722,None,1.5735449735449736,0.8166569769382477,1436.0959158099722,None,,,,,,,1434.0796095030382,None,1434.2631324380636,1434.279511749046,61,001,2023_Mar_16_1418,SpeechDraft1Carolyn_lessNoise_PlusLocalization,2021.2.3,59.97843614266247,
,,,,,,,,center,0.0,6,ch1Sound_localizationTask.wav,0.0,"(952, 878)","(-8,-202)",0,-338,,,,,,,,,,,,,2,5,19,3,,,,,,,,,,,,,,,,,,,,,,,,,,,,,,,,,,,,,,,,1436.929681509966,None,,,1439.9458307658788,None,1.4978835978835978,0.9332449780777097,1439.9458307658788,None,,,,,,,1437.9294726750813,None,1438.1127757718787,1438.1295572849922,61,001,2023_Mar_16_1418,SpeechDraft1Carolyn_lessNoise_PlusLocalization,2021.2.3,59.97843614266247,
,,,,,,,,nearLeft,-6.5,1,ch1Sound_localizationTask.wav,-6.5,"(857, 878)","(-103,-202)",-95,-338,,,,,,,,,,,,,2,6,20,2,,,,,,,,,,,,,,,,,,,,,,,,,,,,,,,,,,,,,,,,1440.8962401929311,None,,,1443.912639101036,None,1.4534391534391533,0.7663173719774932,1443.912639101036,None,,,,,,,1441.8962719540577,None,1442.0795739279129,1442.0963132330216,61,001,2023_Mar_16_1418,SpeechDraft1Carolyn_lessNoise_PlusLocalization,2021.2.3,59.97843614266247,
,,,,,,,,farLeft,-19.1,5,ch1Sound_localizationTask.wav,-19.1,"(667, 878)","(-293,-202)",-285,-338,,,,,,,,,,,,,3,0,21,0,,,,,,,,,,,,,,,,,,,,,,,,,,,,,,,,,,,,,,,,1444.6808073460124,None,,,1447.7126529188827,None,1.3195767195767196,0.9843458728864789,1447.7126529188827,None,,,,,,,1445.696208476089,None,1445.8796047929209,1445.8962061179336,61,001,2023_Mar_16_1418,SpeechDraft1Carolyn_lessNoise_PlusLocalization,2021.2.3,59.97843614266247,
,,,,,,,,farRight,19.1,4,ch1Sound_localizationTask.wav,19.1,"(1237, 878)","(277,-202)",285,-338,,,,,,,,,,,,,3,1,22,6,,,,,,,,,,,,,,,,,,,,,,,,,,,,,,,,,,,,,,,,1448.7129361110274,None,,,1451.7292958749458,None,1.632804232804233,1.0334926811046898,1451.7292958749458,None,,,,,,,1449.7129703629762,None,1449.8962479708716,1449.9128951539751,61,001,2023_Mar_16_1418,SpeechDraft1Carolyn_lessNoise_PlusLocalization,2021.2.3,59.97843614266247,
,,,,,,,,farLeft,-19.1,5,ch1Sound_localizationTask.wav,-19.1,"(667, 878)","(-293,-202)",-285,-338,,,,,,,,,,,,,3,2,23,0,,,,,,,,,,,,,,,,,,,,,,,,,,,,,,,,,,,,,,,,1452.7795693399385,None,,,1455.7959912109654,None,1.3851851851851853,0.8163771550171077,1455.7959912109654,None,,,,,,,1453.77950361697,None,1453.9629146938678,1453.9794312668964,61,001,2023_Mar_16_1418,SpeechDraft1Carolyn_lessNoise_PlusLocalization,2021.2.3,59.97843614266247,
,,,,,,,,farRight,19.1,4,ch1Sound_localizationTask.wav,19.1,"(1237, 878)","(277,-202)",285,-338,,,,,,,,,,,,,3,3,24,6,,,,,,,,,,,,,,,,,,,,,,,,,,,,,,,,,,,,,,,,1456.6295978270937,None,,,1459.6460273149423,None,1.6582010582010582,0.916221430990845,1459.6460273149423,None,,,,,,,1457.6295512919314,None,1457.8128804350272,1457.8294432910625,61,001,2023_Mar_16_1418,SpeechDraft1Carolyn_lessNoise_PlusLocalization,2021.2.3,59.97843614266247,
,,,,,,,,midLeft,-13.0,2,ch1Sound_localizationTask.wav,-13.0,"(762, 878)","(-198,-202)",-190,-338,,,,,,,,,,,,,3,4,25,1,,,,,,,,,,,,,,,,,,,,,,,,,,,,,,,,,,,,,,,,1460.5646923629101,None,,,1463.5959258689545,None,1.4190476190476191,1.1332515459507704,1463.5959258689545,None,,,,,,,1461.579569595866,None,1461.762811935041,1461.7795825749636,61,001,2023_Mar_16_1418,SpeechDraft1Carolyn_lessNoise_PlusLocalization,2021.2.3,59.97843614266247,
,,,,,,,,midRight,13.0,3,ch1Sound_localizationTask.wav,13.0,"(1142, 878)","(182, -202)",190,-338,,,,,,,,,,,,,3,5,26,5,,,,,,,,,,,,,,,,,,,,,,,,,,,,,,,,,,,,,,,,1464.7463170259725,None,,,1467.7627222279552,None,1.6132275132275131,0.9666677201166749,1467.7627222279552,None,,,,,,,1465.7462321100757,None,1465.9295805550646,1465.9461586310063,61,001,2023_Mar_16_1418,SpeechDraft1Carolyn_lessNoise_PlusLocalization,2021.2.3,59.97843614266247,
,,,,,,,,farLeft,-19.1,5,ch1Sound_localizationTask.wav,-19.1,"(667, 878)","(-293,-202)",-285,-338,,,,,,,,,,,,,3,6,27,0,,,,,,,,,,,,,,,,,,,,,,,,,,,,,,,,,,,,,,,,1468.7464442059863,None,,,1471.762647371972,None,1.343915343915344,0.8500450130086392,1471.762647371972,None,,,,,,,1469.7462987429462,None,1469.929566438077,1469.9462699219584,61,001,2023_Mar_16_1418,SpeechDraft1Carolyn_lessNoise_PlusLocalization,2021.2.3,59.97843614266247,
,,,,,,,,nearRight,6.5,0,ch1Sound_localizationTask.wav,6.5,"(1047, 878)","(87, -202)",95,-338,,,,,,,,,,,,,4,0,28,4,,,,,,,,,,,,,,,,,,,,,,,,,,,,,,,,,,,,,,,,1472.6296128220856,None,,,1475.6461142159533,None,1.5465608465608467,0.9332941980101168,1475.6461142159533,None,,,,,,,1473.6295804569963,None,1473.8129147039726,1473.8295242348686,61,001,2023_Mar_16_1418,SpeechDraft1Carolyn_lessNoise_PlusLocalization,2021.2.3,59.97843614266247,
,,,,,,,,nearRight,6.5,0,ch1Sound_localizationTask.wav,6.5,"(1047, 878)","(87, -202)",95,-338,,,,,,,,,,,,,4,1,29,4,,,,,,,,,,,,,,,,,,,,,,,,,,,,,,,,,,,,,,,,1476.5963954119943,None,,,1479.6127123800106,None,1.564021164021164,0.8318472341634333,1479.6127123800106,None,,,,,,,1477.596290586982,None,1477.779569128994,1477.7963130839635,61,001,2023_Mar_16_1418,SpeechDraft1Carolyn_lessNoise_PlusLocalization,2021.2.3,59.97843614266247,
,,,,,,,,center,0.0,6,ch1Sound_localizationTask.wav,0.0,"(952, 878)","(-8,-202)",0,-338,,,,,,,,,,,,,4,2,30,3,,,,,,,,,,,,,,,,,,,,,,,,,,,,,,,,,,,,,,,,1480.4478718868922,None,,,1483.4792911200784,None,1.5015873015873016,0.8658709728624672,1483.4792911200784,None,,,,,,,1481.4629523609765,None,1481.646259317873,1481.6629297409672,61,001,2023_Mar_16_1418,SpeechDraft1Carolyn_lessNoise_PlusLocalization,2021.2.3,59.97843614266247,
,,,,,,,,nearLeft,-6.5,1,ch1Sound_localizationTask.wav,-6.5,"(857, 878)","(-103,-202)",-95,-338,,,,,,,,,,,,,4,3,31,2,,,,,,,,,,,,,,,,,,,,,,,,,,,,,,,,,,,,,,,,1484.3473160208669,None,,,1487.379474153975,None,1.447089947089947,0.9337789721321315,1487.379474153975,None,,,,,,,1485.362918796949,None,1485.5463178439531,1485.562942494871,61,001,2023_Mar_16_1418,SpeechDraft1Carolyn_lessNoise_PlusLocalization,2021.2.3,59.97843614266247,
,,,,,,,,nearRight,6.5,0,ch1Sound_localizationTask.wav,6.5,"(1047, 878)","(87, -202)",95,-338,,,,,,,,,,,,,4,4,32,4,,,,,,,,,,,,,,,,,,,,,,,,,,,,,,,,,,,,,,,,1488.314214044949,None,,,1491.3459726448637,None,1.561904761904762,1.0159011199139059,1491.3459726448637,None,,,,,,,1489.3296547250357,None,1489.512873335043,1489.5296578640118,61,001,2023_Mar_16_1418,SpeechDraft1Carolyn_lessNoise_PlusLocalization,2021.2.3,59.97843614266247,
,,,,,,,,midRight,13.0,3,ch1Sound_localizationTask.wav,13.0,"(1142, 878)","(182, -202)",190,-338,,,,,,,,,,,,,4,5,33,5,,,,,,,,,,,,,,,,,,,,,,,,,,,,,,,,,,,,,,,,1492.3634643650148,None,,,1495.379389148904,None,1.6042328042328042,0.7492538699880242,1495.379389148904,None,,,,,,,1493.363021319965,None,1493.5461602748837,1493.5629721910227,61,001,2023_Mar_16_1418,SpeechDraft1Carolyn_lessNoise_PlusLocalization,2021.2.3,59.97843614266247,
,,,,,,,,farRight,19.1,4,ch1Sound_localizationTask.wav,19.1,"(1237, 878)","(277,-202)",285,-338,,,,,,,,,,,,,4,6,34,6,,,,,,,,,,,,,,,,,,,,,,,,,,,,,,,,,,,,,,,,1496.1307045149151,None,,,1499.1627711700276,None,1.6661375661375661,0.682025115005672,1499.1627711700276,None,,,,,,,1497.146286703879,None,1497.329569868045,1497.346316637937,61,001,2023_Mar_16_1418,SpeechDraft1Carolyn_lessNoise_PlusLocalization,2021.2.3,59.97843614266247,
,,,,,,,,farLeft,-19.1,5,ch1Sound_localizationTask.wav,-19.1,"(667, 878)","(-293,-202)",-285,-338,,,,,,,,,,,,,5,0,35,0,,,,,,,,,,,,,,,,,,,,,,,,,,,,,,,,,,,,,,,,1499.8468041170854,None,,,1502.862610588083,None,1.3523809523809525,0.6992864948697388,1502.862610588083,None,,,,,,,1500.8463700630236,None,1501.0296453409828,1501.0465121769812,61,001,2023_Mar_16_1418,SpeechDraft1Carolyn_lessNoise_PlusLocalization,2021.2.3,59.97843614266247,
,,,,,,,,midRight,13.0,3,ch1Sound_localizationTask.wav,13.0,"(1142, 878)","(182, -202)",190,-338,,,,,,,,,,,,,5,1,36,5,,,,,,,,,,,,,,,,,,,,,,,,,,,,,,,,,,,,,,,,1503.564189130906,None,,,1506.5962364519946,None,1.5857142857142859,0.8502452098764479,1506.5962364519946,None,,,,,,,1504.5796677169856,None,1504.7631483159494,1504.7796430189628,61,001,2023_Mar_16_1418,SpeechDraft1Carolyn_lessNoise_PlusLocalization,2021.2.3,59.97843614266247,
,,,,,,,,nearRight,6.5,0,ch1Sound_localizationTask.wav,6.5,"(1047, 878)","(87, -202)",95,-338,,,,,,,,,,,,,5,2,37,4,,,,,,,,,,,,,,,,,,,,,,,,,,,,,,,,,,,,,,,,1507.4631966268644,None,,,1510.4793860730715,None,1.553968253968254,0.8659530831500888,1510.4793860730715,None,,,,,,,1508.4629782070406,None,1508.6462921719067,1508.6630810480565,61,001,2023_Mar_16_1418,SpeechDraft1Carolyn_lessNoise_PlusLocalization,2021.2.3,59.97843614266247,
,,,,,,,,center,0.0,6,ch1Sound_localizationTask.wav,0.0,"(952, 878)","(-8,-202)",0,-338,,,,,,,,,,,,,5,3,38,3,,,,,,,,,,,,,,,,,,,,,,,,,,,,,,,,,,,,,,,,1511.362996781012,None,,,1514.3793398889247,None,1.4962962962962962,0.7491352381184697,1514.3793398889247,None,,,,,,,1512.3629427410197,None,1512.5463042929769,1512.5629783049226,61,001,2023_Mar_16_1418,SpeechDraft1Carolyn_lessNoise_PlusLocalization,2021.2.3,59.97843614266247,
,,,,,,,,midLeft,-13.0,2,ch1Sound_localizationTask.wav,-13.0,"(762, 878)","(-198,-202)",-190,-338,,,,,,,,,,,,,5,4,39,1,,,,,,,,,,,,,,,,,,,,,,,,,,,,,,,,,,,,,,,,1515.1308797518723,None,,,1518.1626472119242,None,1.3857142857142857,0.801003250060603,1518.1626472119242,None,,,,,,,1516.1462891700212,None,1516.3296571460087,1516.3463259139098,61,001,2023_Mar_16_1418,SpeechDraft1Carolyn_lessNoise_PlusLocalization,2021.2.3,59.97843614266247,
,,,,,,,,nearLeft,-6.5,1,ch1Sound_localizationTask.wav,-6.5,"(857, 878)","(-103,-202)",-95,-338,,,,,,,,,,,,,5,5,40,2,,,,,,,,,,,,,,,,,,,,,,,,,,,,,,,,,,,,,,,,1518.9797272789292,None,,,1521.9960605909582,None,1.4365079365079365,0.9163133760448545,1521.9960605909582,None,,,,,,,1519.9796290209051,None,1520.1629361540545,1520.1797817840707,61,001,2023_Mar_16_1418,SpeechDraft1Carolyn_lessNoise_PlusLocalization,2021.2.3,59.97843614266247,
,,,,,,,,nearRight,6.5,0,ch1Sound_localizationTask.wav,6.5,"(1047, 878)","(87, -202)",95,-338,,,,,,,,,,,,,5,6,41,4,,,,,,,,,,,,,,,,,,,,,,,,,,,,,,,,,,,,,,,,1522.929648393998,None,,,1525.9461695749778,None,1.5476190476190477,0.91684023081325,1525.9461695749778,None,,,,,,,1523.9296228780877,None,1524.1130658490583,1524.1297068530694,61,001,2023_Mar_16_1418,SpeechDraft1Carolyn_lessNoise_PlusLocalization,2021.2.3,59.97843614266247,
,,,,,,,,farRight,19.1,4,ch1Sound_localizationTask.wav,19.1,"(1237, 878)","(277,-202)",285,-338,,,,,,,,,,,,,6,0,42,6,,,,,,,,,,,,,,,,,,,,,,,,,,,,,,,,,,,,,,,,1526.8798004458658,None,,,1529.8959445599467,None,1.6608465608465608,1.1503229739610106,1529.8959445599467,None,,,,,,,1527.8797677869443,None,1528.062966109952,1528.0796321439557,61,001,2023_Mar_16_1418,SpeechDraft1Carolyn_lessNoise_PlusLocalization,2021.2.3,59.97843614266247,
,,,,,,,,midRight,13.0,3,ch1Sound_localizationTask.wav,13.0,"(1142, 878)","(182, -202)",190,-338,,,,,,,,,,,,,6,1,43,5,,,,,,,,,,,,,,,,,,,,,,,,,,,,,,,,,,,,,,,,1531.0630391479935,None,,,1534.0793482139707,None,1.6121693121693121,0.8994688740931451,1534.0793482139707,None,,,,,,,1532.0631109939422,None,1532.2462789730635,1532.2630131919868,61,001,2023_Mar_16_1418,SpeechDraft1Carolyn_lessNoise_PlusLocalization,2021.2.3,59.97843614266247,
,,,,,,,,midRight,13.0,3,ch1Sound_localizationTask.wav,13.0,"(1142, 878)","(182, -202)",190,-338,,,,,,,,,,,,,6,2,44,5,,,,,,,,,,,,,,,,,,,,,,,,,,,,,,,,,,,,,,,,1534.981375942938,None,,,1538.012922723079,None,1.6037037037037036,0.6150867140386254,1538.012922723079,None,,,,,,,1535.9963630200364,None,1536.1797052740585,1536.196262392914,61,001,2023_Mar_16_1418,SpeechDraft1Carolyn_lessNoise_PlusLocalization,2021.2.3,59.97843614266247,
,,,,,,,,midRight,13.0,3,ch1Sound_localizationTask.wav,13.0,"(1142, 878)","(182, -202)",190,-338,,,,,,,,,,,,,6,3,45,5,,,,,,,,,,,,,,,,,,,,,,,,,,,,,,,,,,,,,,,,1538.6303900519852,None,,,1541.6460558709223,None,1.5904761904761906,0.6658620089292526,1541.6460558709223,None,,,,,,,1539.629667262081,None,1539.8129786378704,1539.8296663879883,61,001,2023_Mar_16_1418,SpeechDraft1Carolyn_lessNoise_PlusLocalization,2021.2.3,59.97843614266247,
,,,,,,,,nearLeft,-6.5,1,ch1Sound_localizationTask.wav,-6.5,"(857, 878)","(-103,-202)",-95,-338,,,,,,,,,,,,,6,4,46,2,,,,,,,,,,,,,,,,,,,,,,,,,,,,,,,,,,,,,,,,1542.314032169059,None,,,1545.3462707889266,None,1.4507936507936507,0.8166249960195273,1545.3462707889266,None,,,,,,,1543.329739100067,None,1543.512963661924,1543.5296604039613,61,001,2023_Mar_16_1418,SpeechDraft1Carolyn_lessNoise_PlusLocalization,2021.2.3,59.97843614266247,
,,,,,,,,midLeft,-13.0,2,ch1Sound_localizationTask.wav,-13.0,"(762, 878)","(-198,-202)",-190,-338,,,,,,,,,,,,,6,5,47,1,,,,,,,,,,,,,,,,,,,,,,,,,,,,,,,,,,,,,,,,1546.179791917093,None,,,1549.196221225895,None,1.3873015873015873,0.7504825789947063,1549.196221225895,None,,,,,,,1547.179693588987,None,1547.3630293209571,1547.3797251910437,61,001,2023_Mar_16_1418,SpeechDraft1Carolyn_lessNoise_PlusLocalization,2021.2.3,59.97843614266247,
,,,,,,,,center,0.0,6,ch1Sound_localizationTask.wav,0.0,"(952, 878)","(-8,-202)",0,-338,,,,,,,,,,,,,6,6,48,3,,,,,,,,,,,,,,,,,,,,,,,,,,,,,,,,,,,,,,,,1549.963392043952,None,,,1552.9794137589633,None,1.5042328042328044,3.8823192310519516,1552.9794137589633,None,,,,,,,1550.9630607839208,None,1551.1464081020094,1551.163026717957,61,001,2023_Mar_16_1418,SpeechDraft1Carolyn_lessNoise_PlusLocalization,2021.2.3,59.97843614266247,
,,,,,,,,midRight,13.0,3,ch1Sound_localizationTask.wav,13.0,"(1142, 878)","(182, -202)",190,-338,,,,,,,,,,,,,7,0,49,5,,,,,,,,,,,,,,,,,,,,,,,,,,,,,,,,,,,,,,,,1556.8638605659362,None,,,1559.8794910949655,None,1.5915343915343916,0.7000970209483057,1559.8794910949655,None,,,,,,,1557.86312170187,None,1558.046365407994,1558.0631836960092,61,001,2023_Mar_16_1418,SpeechDraft1Carolyn_lessNoise_PlusLocalization,2021.2.3,59.97843614266247,
,,,,,,,,farRight,19.1,4,ch1Sound_localizationTask.wav,19.1,"(1237, 878)","(277,-202)",285,-338,,,,,,,,,,,,,7,1,50,6,,,,,,,,,,,,,,,,,,,,,,,,,,,,,,,,,,,,,,,,1560.5966056878679,None,,,1563.612758985022,None,1.6280423280423282,0.7827574030961841,1563.612758985022,None,,,,,,,1561.5964245069772,None,1561.779761705082,1561.7963376778644,61,001,2023_Mar_16_1418,SpeechDraft1Carolyn_lessNoise_PlusLocalization,2021.2.3,59.97843614266247,
,,,,,,,,farLeft,-19.1,5,ch1Sound_localizationTask.wav,-19.1,"(667, 878)","(-293,-202)",-285,-338,,,,,,,,,,,,,7,2,51,0,,,,,,,,,,,,,,,,,,,,,,,,,,,,,,,,,,,,,,,,1564.3976818390656,None,,,1567.4295010620262,None,1.3492063492063493,0.9001904090400785,1567.4295010620262,None,,,,,,,1565.4130998470355,None,1565.5964191369712,1565.613011131063,61,001,2023_Mar_16_1418,SpeechDraft1Carolyn_lessNoise_PlusLocalization,2021.2.3,59.97843614266247,
,,,,,,,,midLeft,-13.0,2,ch1Sound_localizationTask.wav,-13.0,"(762, 878)","(-198,-202)",-190,-338,,,,,,,,,,,,,7,3,52,1,,,,,,,,,,,,,,,,,,,,,,,,,,,,,,,,,,,,,,,,1568.3464631040115,None,,,1571.3627535130363,None,1.4174603174603175,0.8337749990168959,1571.3627535130363,None,,,,,,,1569.346361536067,None,1569.5297652510926,1569.5463533040602,61,001,2023_Mar_16_1418,SpeechDraft1Carolyn_lessNoise_PlusLocalization,2021.2.3,59.97843614266247,
,,,,,,,,farLeft,-19.1,5,ch1Sound_localizationTask.wav,-19.1,"(667, 878)","(-293,-202)",-285,-338,,,,,,,,,,,,,7,4,53,0,,,,,,,,,,,,,,,,,,,,,,,,,,,,,,,,,,,,,,,,1572.2130679360125,None,,,1575.2294568729121,None,1.3375661375661376,0.86712526390329,1575.2294568729121,None,,,,,,,1573.2131523310672,None,1573.3964108279906,1573.4131760110613,61,001,2023_Mar_16_1418,SpeechDraft1Carolyn_lessNoise_PlusLocalization,2021.2.3,59.97843614266247,
,,,,,,,,midLeft,-13.0,2,ch1Sound_localizationTask.wav,-13.0,"(762, 878)","(-198,-202)",-190,-338,,,,,,,,,,,,,7,5,54,1,,,,,,,,,,,,,,,,,,,,,,,,,,,,,,,,,,,,,,,,1576.1132985320874,None,,,1579.1293588280678,None,1.4248677248677248,0.6995496649760753,1579.1293588280678,None,,,,,,,1577.1130313898902,None,1577.2964631090872,1577.313085025875,61,001,2023_Mar_16_1418,SpeechDraft1Carolyn_lessNoise_PlusLocalization,2021.2.3,59.97843614266247,
,,,,,,,,midLeft,-13.0,2,ch1Sound_localizationTask.wav,-13.0,"(762, 878)","(-198,-202)",-190,-338,,,,,,,,,,,,,7,6,55,1,,,,,,,,,,,,,,,,,,,,,,,,,,,,,,,,,,,,,,,,1579.8463782519102,None,,,1582.8628174860496,None,1.3941798941798942,0.8825608398765326,1582.8628174860496,None,,,,,,,1580.8464131539222,None,1581.029834697023,1581.046366208,61,001,2023_Mar_16_1418,SpeechDraft1Carolyn_lessNoise_PlusLocalization,2021.2.3,59.97843614266247,
