Audio_Only_Files,Video_Files,Original_Word_List,noiseLevelCode,conditionCodes,noiseLevelFile1,noiseLevelFile2,InstrTextVar,targetSpeakerName,targetSpeakerEccen,targetSpkrChannel,targetSpkrSound,targetVisualDegrees,visStimLoc,visStimLoc2,visStimW,visStimH,practiceTrials.thisRepN,practiceTrials.thisTrialN,practiceTrials.thisN,practiceTrials.thisIndex,trials.thisRepN,trials.thisTrialN,trials.thisN,trials.thisIndex,audLocalLoop.thisRepN,audLocalLoop.thisTrialN,audLocalLoop.thisN,audLocalLoop.thisIndex,visualLocalLoop.thisRepN,visualLocalLoop.thisTrialN,visualLocalLoop.thisN,visualLocalLoop.thisIndex,letsGoAlready.keys,letsGoAlready.rt,letsGoAlready.started,letsGoAlready.stopped,text_2.started,text_2.stopped,text_3.started,text_3.stopped,key_resp_2.keys,key_resp_2.rt,key_resp_2.started,key_resp_2.stopped,text_5.started,text_5.stopped,fixCross.started,fixCross.stopped,fixCross2.started,fixCross2.stopped,answerPrompt.started,answerPrompt.stopped,getAnswer.text,getAnswer.started,getAnswer.stopped,goToNext.keys,goToNext.rt,goToNext.started,goToNext.stopped,stretchBreakTxrt.started,stretchBreakTxrt.stopped,key_resp_3.keys,key_resp_3.rt,key_resp_3.started,key_resp_3.stopped,letsGoLocal.keys,letsGoLocal.rt,letsGoLocal.started,letsGoLocal.stopped,text_4.started,text_4.stopped,prepFixTxt.started,prepFixTxt.stopped,prepFixTxt_2.started,prepFixTxt_2.stopped,respPromptLocal.started,respPromptLocal.stopped,slider.response,slider.rt,slider.started,slider.stopped,letsGoLocal_2.keys,letsGoLocal_2.rt,letsGoLocal_2.started,letsGoLocal_2.stopped,text_7.started,text_7.stopped,prepFixTxt_3.started,prepFixTxt_3.stopped,grating.started,grating.stopped,exitTxt.started,exitTxt.stopped,key_resp.keys,key_resp.rt,key_resp.started,key_resp.stopped,participant,session,date,expName,psychopyVersion,frameRate,
,,,,,,,,,,,,,,,,,,,,,,,,,,,,,,,,,space,1.5678175929933786,11.081442759837955,None,,,,,,,,,,,,,,,,,,,,,,,,,,,,,,,,,,,,,,,,,,,,,,,,,,,,,,,,,,,,,,63,001,2023_Apr_05_1850,SpeechDraft1Carolyn_lessNoise_PlusLocalization,2021.2.3,59.95637147530804,
,,,,,,,,,,,,,,,,,,,,,,,,,,,,,,,,,,,,,11.081442759837955,None,12.781189811881632,None,space,290.7006948683411,12.964565156027675,None,,,,,,,,,,,,,,,,,,,,,,,,,,,,,,,,,,,,,,,,,,,,,,,,,,,,,,63,001,2023_Apr_05_1850,SpeechDraft1Carolyn_lessNoise_PlusLocalization,2021.2.3,59.95637147530804,
ash.wav,ash.mpg,ash,1,A,Pink_Noise_1_1.wav,Pink_Noise_1_2.wav,"This is an example of an

AUDIO trial",,,,,,,,,,0,0,0,0,,,,,,,,,,,,,,,,,,,,,,,,,303.73143177386373,None,304.71517036808655,None,308.0652018757537,None,309.448221698869,None,ash,309.448221698869,None,return,3.4056944083422422,309.5316959680058,None,,,,,,,,,,,,,,,,,,,,,,,,,,,,,,,,,,,,,,,63,001,2023_Apr_05_1850,SpeechDraft1Carolyn_lessNoise_PlusLocalization,2021.2.3,59.95637147530804,
ash.wav,ash.mpg,ash,1,AV,Pink_Noise_1_1.wav,Pink_Noise_1_2.wav,"This is an example of an

AUDIO + VIDEO  trial",,,,,,,,,,0,1,1,1,,,,,,,,,,,,,,,,,,,,,,,,,312.9813947179355,None,313.98164441715926,None,315.4812116608955,None,316.8649215060286,None,ash,316.8649215060286,None,return,2.780881378799677,316.9483834737912,None,,,,,,,,,,,,,,,,,,,,,,,,,,,,,,,,,,,,,,,63,001,2023_Apr_05_1850,SpeechDraft1Carolyn_lessNoise_PlusLocalization,2021.2.3,59.95637147530804,
,,,,,,,,,,,,,,,,,,,,,,,,,,,,,,,,,,,,,,,,,,,,,,,,,,,,,,,,,,,,319.7646796628833,None,space,25.637074174825102,319.94830734375864,None,,,,,,,,,,,,,,,,,,,,,,,,,,,,,,,,,63,001,2023_Apr_05_1850,SpeechDraft1Carolyn_lessNoise_PlusLocalization,2021.2.3,59.95637147530804,
barn.wav,barn.mpg,barn,2,AV,Pink_Noise_2_1.wav,Pink_Noise_2_2.wav,,,,,,,,,,,,,,,0,0,0,68,,,,,,,,,,,,,,,,,,,,,,,345.64805861376226,None,347.1313532567583,None,348.5148372077383,None,barn,348.5148372077383,None,return,3.610932406038046,348.59832128789276,None,,,,,,,,,,,,,,,,,,,,,,,,,,,,,,,,,,,,,,,63,001,2023_Apr_05_1850,SpeechDraft1Carolyn_lessNoise_PlusLocalization,2021.2.3,59.95637147530804,
bald.wav,bald.mpg,bald,5,AV,Pink_Noise_5_1.wav,Pink_Noise_5_2.wav,,,,,,,,,,,,,,,0,1,1,93,,,,,,,,,,,,,,,,,,,,,,,352.2316854069941,None,353.7314979797229,None,355.1150906831026,None,bard,355.1150906831026,None,return,3.5550161828286946,355.1983075258322,None,,,,,,,,,,,,,,,,,,,,,,,,,,,,,,,,,,,,,,,63,001,2023_Apr_05_1850,SpeechDraft1Carolyn_lessNoise_PlusLocalization,2021.2.3,59.95637147530804,
thrown.wav,thrown.mpg,thrown,2,A,Pink_Noise_2_1.wav,Pink_Noise_2_2.wav,,,,,,,,,,,,,,,0,2,2,19,,,,,,,,,,,,,,,,,,,,,,,358.7817642367445,None,360.2816059049219,None,361.6650148751214,None,throw,361.6650148751214,None,return,2.2208655369468033,361.7483871979639,None,,,,,,,,,,,,,,,,,,,,,,,,,,,,,,,,,,,,,,,63,001,2023_Apr_05_1850,SpeechDraft1Carolyn_lessNoise_PlusLocalization,2021.2.3,59.95637147530804,
priest.wav,priest.mpg,priest,6,AV,Pink_Noise_6_1.wav,Pink_Noise_6_2.wav,,,,,,,,,,,,,,,0,3,3,65,,,,,,,,,,,,,,,,,,,,,,,363.99839972285554,None,365.4981630621478,None,366.88164115091786,None,prince,366.88164115091786,None,return,2.716334265191108,366.96502701891586,None,,,,,,,,,,,,,,,,,,,,,,,,,,,,,,,,,,,,,,,63,001,2023_Apr_05_1850,SpeechDraft1Carolyn_lessNoise_PlusLocalization,2021.2.3,59.95637147530804,
two.wav,two.mpg,two,4,AV,Pink_Noise_4_1.wav,Pink_Noise_4_2.wav,,,,,,,,,,,,,,,0,4,4,96,,,,,,,,,,,,,,,,,,,,,,,369.6985036339611,None,371.1980027691461,None,372.58170480513945,None,two,372.58170480513945,None,return,2.344225851818919,372.6650728099048,None,,,,,,,,,,,,,,,,,,,,,,,,,,,,,,,,,,,,,,,63,001,2023_Apr_05_1850,SpeechDraft1Carolyn_lessNoise_PlusLocalization,2021.2.3,59.95637147530804,
bark.wav,bark.mpg,bark,4,A,Pink_Noise_4_1.wav,Pink_Noise_4_2.wav,,,,,,,,,,,,,,,0,5,5,3,,,,,,,,,,,,,,,,,,,,,,,375.0316751659848,None,376.53151464182884,None,377.91506860777736,None,barf,377.91506860777736,None,return,2.330876713152975,377.99838918214664,None,,,,,,,,,,,,,,,,,,,,,,,,,,,,,,,,,,,,,,,63,001,2023_Apr_05_1850,SpeechDraft1Carolyn_lessNoise_PlusLocalization,2021.2.3,59.95637147530804,
grunt.wav,grunt.mpg,grunt,3,A,Pink_Noise_3_1.wav,Pink_Noise_3_2.wav,,,,,,,,,,,,,,,0,6,6,23,,,,,,,,,,,,,,,,,,,,,,,380.34835849003866,None,381.8480024849996,None,383.2318685571663,None,grunt,383.2318685571663,None,return,4.4461929416283965,383.3151165638119,None,,,,,,,,,,,,,,,,,,,,,,,,,,,,,,,,,,,,,,,63,001,2023_Apr_05_1850,SpeechDraft1Carolyn_lessNoise_PlusLocalization,2021.2.3,59.95637147530804,
bathe.wav,bathe.mpg,bathe,4,A,Pink_Noise_4_1.wav,Pink_Noise_4_2.wav,,,,,,,,,,,,,,,0,7,7,15,,,,,,,,,,,,,,,,,,,,,,,387.7817632551305,None,389.281507931184,None,390.66499215876684,None,image,390.66499215876684,None,return,3.33290764503181,390.74843405094,None,,,,,,,,,,,,,,,,,,,,,,,,,,,,,,,,,,,,,,,63,001,2023_Apr_05_1850,SpeechDraft1Carolyn_lessNoise_PlusLocalization,2021.2.3,59.95637147530804,
brain.wav,brain.mpg,brain,5,A,Pink_Noise_5_1.wav,Pink_Noise_5_2.wav,,,,,,,,,,,,,,,0,8,8,25,,,,,,,,,,,,,,,,,,,,,,,394.09833437390625,None,395.59807355701923,None,396.9818880870007,None,slay,396.9818880870007,None,return,1.8883010670542717,397.0650296807289,None,,,,,,,,,,,,,,,,,,,,,,,,,,,,,,,,,,,,,,,63,001,2023_Apr_05_1850,SpeechDraft1Carolyn_lessNoise_PlusLocalization,2021.2.3,59.95637147530804,
chest.wav,chest.mpg,chest,4,A,Pink_Noise_4_1.wav,Pink_Noise_4_2.wav,,,,,,,,,,,,,,,0,9,9,22,,,,,,,,,,,,,,,,,,,,,,,398.9817617549561,None,400.4812890291214,None,401.8651655111462,None,chest,401.8651655111462,None,return,1.604817199986428,401.94845311902463,None,,,,,,,,,,,,,,,,,,,,,,,,,,,,,,,,,,,,,,,63,001,2023_Apr_05_1850,SpeechDraft1Carolyn_lessNoise_PlusLocalization,2021.2.3,59.95637147530804,
fast.wav,fast.mpg,fast,5,AV,Pink_Noise_5_1.wav,Pink_Noise_5_2.wav,,,,,,,,,,,,,,,0,10,10,60,,,,,,,,,,,,,,,,,,,,,,,403.5816662469879,None,405.08145822398365,None,406.46513541415334,None,fast,406.46513541415334,None,return,1.9489447213709354,406.54839156614617,None,,,,,,,,,,,,,,,,,,,,,,,,,,,,,,,,,,,,,,,63,001,2023_Apr_05_1850,SpeechDraft1Carolyn_lessNoise_PlusLocalization,2021.2.3,59.95637147530804,
chip.wav,chip.mpg,chip,3,A,Pink_Noise_3_1.wav,Pink_Noise_3_2.wav,,,,,,,,,,,,,,,0,11,11,4,,,,,,,,,,,,,,,,,,,,,,,408.5152440648526,None,410.01517445314676,None,411.3983759097755,None,chip,411.3983759097755,None,return,1.839631122071296,411.48171087214723,None,,,,,,,,,,,,,,,,,,,,,,,,,,,,,,,,,,,,,,,63,001,2023_Apr_05_1850,SpeechDraft1Carolyn_lessNoise_PlusLocalization,2021.2.3,59.95637147530804,
broom.wav,broom.mpg,broom,6,AV,Pink_Noise_6_1.wav,Pink_Noise_6_2.wav,,,,,,,,,,,,,,,0,12,12,72,,,,,,,,,,,,,,,,,,,,,,,413.3484882218763,None,414.84813821781427,None,416.2316107908264,None,broom,416.2316107908264,None,return,2.174232211895287,416.3150785160251,None,,,,,,,,,,,,,,,,,,,,,,,,,,,,,,,,,,,,,,,63,001,2023_Apr_05_1850,SpeechDraft1Carolyn_lessNoise_PlusLocalization,2021.2.3,59.95637147530804,
fur.wav,fur.mpg,fur,6,A,Pink_Noise_6_1.wav,Pink_Noise_6_2.wav,,,,,,,,,,,,,,,0,13,13,7,,,,,,,,,,,,,,,,,,,,,,,418.51513115596026,None,420.0147405900061,None,421.39843472093344,None,window,421.39843472093344,None,return,4.543480143882334,421.48179169697687,None,,,,,,,,,,,,,,,,,,,,,,,,,,,,,,,,,,,,,,,63,001,2023_Apr_05_1850,SpeechDraft1Carolyn_lessNoise_PlusLocalization,2021.2.3,59.95637147530804,
flop.wav,flop.mpg,flop,1,A,Pink_Noise_1_1.wav,Pink_Noise_1_2.wav,,,,,,,,,,,,,,,0,14,14,17,,,,,,,,,,,,,,,,,,,,,,,426.0483899367973,None,427.5492228739895,None,428.9318631570786,None,block,428.9318631570786,None,return,1.62614336470142,429.0151042691432,None,,,,,,,,,,,,,,,,,,,,,,,,,,,,,,,,,,,,,,,63,001,2023_Apr_05_1850,SpeechDraft1Carolyn_lessNoise_PlusLocalization,2021.2.3,59.95637147530804,
date.wav,date.mpg,date,4,A,Pink_Noise_4_1.wav,Pink_Noise_4_2.wav,,,,,,,,,,,,,,,0,15,15,12,,,,,,,,,,,,,,,,,,,,,,,430.6650866288692,None,432.164811886847,None,433.5485164010897,None,dit,433.5485164010897,None,return,3.577392536215484,433.63184868497774,None,,,,,,,,,,,,,,,,,,,,,,,,,,,,,,,,,,,,,,,63,001,2023_Apr_05_1850,SpeechDraft1Carolyn_lessNoise_PlusLocalization,2021.2.3,59.95637147530804,
blond.wav,blond.mpg,blond,3,A,Pink_Noise_3_1.wav,Pink_Noise_3_2.wav,,,,,,,,,,,,,,,0,16,16,1,,,,,,,,,,,,,,,,,,,,,,,437.23183732805774,None,438.7315601799637,None,440.1151089607738,None,slide,440.1151089607738,None,return,1.9628510917536914,440.198448556941,None,,,,,,,,,,,,,,,,,,,,,,,,,,,,,,,,,,,,,,,63,001,2023_Apr_05_1850,SpeechDraft1Carolyn_lessNoise_PlusLocalization,2021.2.3,59.95637147530804,
grade.wav,grade.mpg,grade,4,A,Pink_Noise_4_1.wav,Pink_Noise_4_2.wav,,,,,,,,,,,,,,,0,17,17,30,,,,,,,,,,,,,,,,,,,,,,,442.1818534228951,None,443.68148770881817,None,445.06515004392713,None,grade,445.06515004392713,None,return,2.0208246842958033,445.14844109816477,None,,,,,,,,,,,,,,,,,,,,,,,,,,,,,,,,,,,,,,,63,001,2023_Apr_05_1850,SpeechDraft1Carolyn_lessNoise_PlusLocalization,2021.2.3,59.95637147530804,
fable.wav,fable.mpg,fable,1,AV,Pink_Noise_1_1.wav,Pink_Noise_1_2.wav,,,,,,,,,,,,,,,0,18,18,105,,,,,,,,,,,,,,,,,,,,,,,447.19857872091234,None,448.69835412316024,None,450.08174217678607,None,fable,450.08174217678607,None,return,2.092136736959219,450.1651266971603,None,,,,,,,,,,,,,,,,,,,,,,,,,,,,,,,,,,,,,,,63,001,2023_Apr_05_1850,SpeechDraft1Carolyn_lessNoise_PlusLocalization,2021.2.3,59.95637147530804,
doom.wav,doom.mpg,doom,5,A,Pink_Noise_5_1.wav,Pink_Noise_5_2.wav,,,,,,,,,,,,,,,0,19,19,8,,,,,,,,,,,,,,,,,,,,,,,452.281811918132,None,453.7814019448124,None,455.1650949390605,None,zoom,455.1650949390605,None,return,3.2086728382855654,455.2486044918187,None,,,,,,,,,,,,,,,,,,,,,,,,,,,,,,,,,,,,,,,63,001,2023_Apr_05_1850,SpeechDraft1Carolyn_lessNoise_PlusLocalization,2021.2.3,59.95637147530804,
built.wav,built.mpg,built,2,A,Pink_Noise_2_1.wav,Pink_Noise_2_2.wav,,,,,,,,,,,,,,,0,20,20,21,,,,,,,,,,,,,,,,,,,,,,,458.4818816781044,None,459.98170085903257,None,461.36530532781035,None,"built
",461.36530532781035,None,return,2.016740899067372,461.44850593199953,None,,,,,,,,,,,,,,,,,,,,,,,,,,,,,,,,,,,,,,,63,001,2023_Apr_05_1850,SpeechDraft1Carolyn_lessNoise_PlusLocalization,2021.2.3,59.95637147530804,
fork.wav,fork.mpg,fork,1,AV,Pink_Noise_1_1.wav,Pink_Noise_1_2.wav,,,,,,,,,,,,,,,0,21,21,78,,,,,,,,,,,,,,,,,,,,,,,463.4985384931788,None,464.99816030310467,None,466.38181364675984,None,fork,466.38181364675984,None,return,4.280091450084001,466.46523410314694,None,,,,,,,,,,,,,,,,,,,,,,,,,,,,,,,,,,,,,,,63,001,2023_Apr_05_1850,SpeechDraft1Carolyn_lessNoise_PlusLocalization,2021.2.3,59.95637147530804,
feud.wav,feud.mpg,feud,5,AV,Pink_Noise_5_1.wav,Pink_Noise_5_2.wav,,,,,,,,,,,,,,,0,22,22,74,,,,,,,,,,,,,,,,,,,,,,,470.7651760010049,None,472.2817805977538,None,473.6650922051631,None,food,473.6650922051631,None,return,1.3328262269496918,473.74852850986645,None,,,,,,,,,,,,,,,,,,,,,,,,,,,,,,,,,,,,,,,63,001,2023_Apr_05_1850,SpeechDraft1Carolyn_lessNoise_PlusLocalization,2021.2.3,59.95637147530804,
draft.wav,draft.mpg,draft,6,A,Pink_Noise_6_1.wav,Pink_Noise_6_2.wav,,,,,,,,,,,,,,,0,23,23,24,,,,,,,,,,,,,,,,,,,,,,,475.09848789311945,None,476.59821474784985,None,477.9818041520193,None,rat,477.9818041520193,None,return,4.288055113051087,478.06521763280034,None,,,,,,,,,,,,,,,,,,,,,,,,,,,,,,,,,,,,,,,63,001,2023_Apr_05_1850,SpeechDraft1Carolyn_lessNoise_PlusLocalization,2021.2.3,59.95637147530804,
fine.wav,fine.mpg,fine,5,A,Pink_Noise_5_1.wav,Pink_Noise_5_2.wav,,,,,,,,,,,,,,,0,24,24,56,,,,,,,,,,,,,,,,,,,,,,,482.38184621883556,None,483.8815095941536,None,485.26519367611036,None,"sign
",485.26519367611036,None,return,1.484675615094602,485.34858962194994,None,,,,,,,,,,,,,,,,,,,,,,,,,,,,,,,,,,,,,,,63,001,2023_Apr_05_1850,SpeechDraft1Carolyn_lessNoise_PlusLocalization,2021.2.3,59.95637147530804,
duct.wav,duct.mpg,duct,1,AV,Pink_Noise_1_1.wav,Pink_Noise_1_2.wav,,,,,,,,,,,,,,,0,25,25,75,,,,,,,,,,,,,,,,,,,,,,,486.8652595169842,None,488.36493986984715,None,489.74846993293613,None,dot,489.74846993293613,None,return,1.1293225828558207,489.8319065528922,None,,,,,,,,,,,,,,,,,,,,,,,,,,,,,,,,,,,,,,,63,001,2023_Apr_05_1850,SpeechDraft1Carolyn_lessNoise_PlusLocalization,2021.2.3,59.95637147530804,
pants.wav,pants.mpg,pants,3,AV,Pink_Noise_3_1.wav,Pink_Noise_3_2.wav,,,,,,,,,,,,,,,0,26,26,61,,,,,,,,,,,,,,,,,,,,,,,490.981894900091,None,492.4816089500673,None,493.86515127914026,None,pants,493.86515127914026,None,return,3.2607426857575774,493.94851106917486,None,,,,,,,,,,,,,,,,,,,,,,,,,,,,,,,,,,,,,,,63,001,2023_Apr_05_1850,SpeechDraft1Carolyn_lessNoise_PlusLocalization,2021.2.3,59.95637147530804,
earth.wav,earth.mpg,earth,1,AV,Pink_Noise_1_1.wav,Pink_Noise_1_2.wav,,,,,,,,,,,,,,,0,27,27,85,,,,,,,,,,,,,,,,,,,,,,,497.23196597304195,None,498.73264036886394,None,500.11512034293264,None,earth,500.11512034293264,None,return,5.754884548019618,500.1984760048799,None,,,,,,,,,,,,,,,,,,,,,,,,,,,,,,,,,,,,,,,63,001,2023_Apr_05_1850,SpeechDraft1Carolyn_lessNoise_PlusLocalization,2021.2.3,59.95637147530804,
script.wav,script.mpg,script,4,AV,Pink_Noise_4_1.wav,Pink_Noise_4_2.wav,,,,,,,,,,,,,,,0,28,28,116,,,,,,,,,,,,,,,,,,,,,,,505.9818748361431,None,507.4815153889358,None,508.8651453410275,None,"stripped
",508.8651453410275,None,return,2.3005478009581566,508.9487046590075,None,,,,,,,,,,,,,,,,,,,,,,,,,,,,,,,,,,,,,,,63,001,2023_Apr_05_1850,SpeechDraft1Carolyn_lessNoise_PlusLocalization,2021.2.3,59.95637147530804,
clash.wav,clash.mpg,clash,2,AV,Pink_Noise_2_1.wav,Pink_Noise_2_2.wav,,,,,,,,,,,,,,,0,29,29,112,,,,,,,,,,,,,,,,,,,,,,,511.28184834774584,None,512.7816155217588,None,514.1651934050024,None,clash,514.1651934050024,None,return,7.216680038254708,514.2485818187706,None,,,,,,,,,,,,,,,,,,,,,,,,,,,,,,,,,,,,,,,63,001,2023_Apr_05_1850,SpeechDraft1Carolyn_lessNoise_PlusLocalization,2021.2.3,59.95637147530804,
duck.wav,duck.mpg,duck,1,A,Pink_Noise_1_1.wav,Pink_Noise_1_2.wav,,,,,,,,,,,,,,,0,30,30,14,,,,,,,,,,,,,,,,,,,,,,,521.4818684579805,None,522.9816536828876,None,524.3652388588525,None,"duck
",524.3652388588525,None,return,1.552570919971913,524.448687071912,None,,,,,,,,,,,,,,,,,,,,,,,,,,,,,,,,,,,,,,,63,001,2023_Apr_05_1850,SpeechDraft1Carolyn_lessNoise_PlusLocalization,2021.2.3,59.95637147530804,
bind.wav,bind.mpg,bind,4,AV,Pink_Noise_4_1.wav,Pink_Noise_4_2.wav,,,,,,,,,,,,,,,0,31,31,119,,,,,,,,,,,,,,,,,,,,,,,526.03193628788,None,527.5316080581397,None,528.9152539470233,None,"bind
",528.9152539470233,None,return,1.8026783568784595,528.9985874607228,None,,,,,,,,,,,,,,,,,,,,,,,,,,,,,,,,,,,,,,,63,001,2023_Apr_05_1850,SpeechDraft1Carolyn_lessNoise_PlusLocalization,2021.2.3,59.95637147530804,
drink.wav,drink.mpg,drink,4,A,Pink_Noise_4_1.wav,Pink_Noise_4_2.wav,,,,,,,,,,,,,,,0,32,32,55,,,,,,,,,,,,,,,,,,,,,,,530.8319897991605,None,532.3316080369987,None,533.7153455237858,None,drink,533.7153455237858,None,return,2.354669215157628,533.79861200694,None,,,,,,,,,,,,,,,,,,,,,,,,,,,,,,,,,,,,,,,63,001,2023_Apr_05_1850,SpeechDraft1Carolyn_lessNoise_PlusLocalization,2021.2.3,59.95637147530804,
pride.wav,pride.mpg,pride,6,A,Pink_Noise_6_1.wav,Pink_Noise_6_2.wav,,,,,,,,,,,,,,,0,33,33,51,,,,,,,,,,,,,,,,,,,,,,,536.1820103991777,None,537.6816291189753,None,539.0652561718598,None,slush,539.0652561718598,None,return,4.14883441478014,539.1485963398591,None,,,,,,,,,,,,,,,,,,,,,,,,,,,,,,,,,,,,,,,63,001,2023_Apr_05_1850,SpeechDraft1Carolyn_lessNoise_PlusLocalization,2021.2.3,59.95637147530804,
bed.wav,bed.mpg,bed,1,A,Pink_Noise_1_1.wav,Pink_Noise_1_2.wav,,,,,,,,,,,,,,,0,34,34,5,,,,,,,,,,,,,,,,,,,,,,,543.3152795447968,None,544.8152068341151,None,546.1985927820206,None,bed,546.1985927820206,None,return,2.295278715901077,546.2819785550237,None,,,,,,,,,,,,,,,,,,,,,,,,,,,,,,,,,,,,,,,63,001,2023_Apr_05_1850,SpeechDraft1Carolyn_lessNoise_PlusLocalization,2021.2.3,59.95637147530804,
flow.wav,flow.mpg,flow,5,A,Pink_Noise_5_1.wav,Pink_Noise_5_2.wav,,,,,,,,,,,,,,,0,35,35,6,,,,,,,,,,,,,,,,,,,,,,,548.5987658579834,None,550.099490635097,None,551.4819431398064,None,sled,551.4819431398064,None,return,10.107852017972618,551.5653928159736,None,,,,,,,,,,,,,,,,,,,,,,,,,,,,,,,,,,,,,,,63,001,2023_Apr_05_1850,SpeechDraft1Carolyn_lessNoise_PlusLocalization,2021.2.3,59.95637147530804,
fresh.wav,fresh.mpg,fresh,1,AV,Pink_Noise_1_1.wav,Pink_Noise_1_2.wav,,,,,,,,,,,,,,,0,36,36,111,,,,,,,,,,,,,,,,,,,,,,,561.6986033888534,None,563.2002272950485,None,564.5820308951661,None,"fresh
",564.5820308951661,None,return,1.351962424814701,564.6652873377316,None,,,,,,,,,,,,,,,,,,,,,,,,,,,,,,,,,,,,,,,63,001,2023_Apr_05_1850,SpeechDraft1Carolyn_lessNoise_PlusLocalization,2021.2.3,59.95637147530804,
groan.wav,groan.mpg,groan,2,A,Pink_Noise_2_1.wav,Pink_Noise_2_2.wav,,,,,,,,,,,,,,,0,37,37,53,,,,,,,,,,,,,,,,,,,,,,,566.0487097678706,None,567.5482661551796,None,568.9319473640062,None,grow,568.9319473640062,None,return,1.5540305152535439,569.0152128320187,None,,,,,,,,,,,,,,,,,,,,,,,,,,,,,,,,,,,,,,,63,001,2023_Apr_05_1850,SpeechDraft1Carolyn_lessNoise_PlusLocalization,2021.2.3,59.95637147530804,
bad.wav,bad.mpg,bad,5,A,Pink_Noise_5_1.wav,Pink_Noise_5_2.wav,,,,,,,,,,,,,,,0,38,38,35,,,,,,,,,,,,,,,,,,,,,,,570.5986278578639,None,572.0982947507873,None,573.4819403351285,None,errand,573.4819403351285,None,return,2.507941165007651,573.5652851741761,None,,,,,,,,,,,,,,,,,,,,,,,,,,,,,,,,,,,,,,,63,001,2023_Apr_05_1850,SpeechDraft1Carolyn_lessNoise_PlusLocalization,2021.2.3,59.95637147530804,
chunk.wav,chunk.mpg,chunk,2,AV,Pink_Noise_2_1.wav,Pink_Noise_2_2.wav,,,,,,,,,,,,,,,0,39,39,109,,,,,,,,,,,,,,,,,,,,,,,576.0986237651668,None,577.5993381910957,None,578.9820225709118,None,chuck,578.9820225709118,None,return,2.247899842914194,579.0653760707937,None,,,,,,,,,,,,,,,,,,,,,,,,,,,,,,,,,,,,,,,63,001,2023_Apr_05_1850,SpeechDraft1Carolyn_lessNoise_PlusLocalization,2021.2.3,59.95637147530804,
fox.wav,fox.mpg,fox,2,A,Pink_Noise_2_1.wav,Pink_Noise_2_2.wav,,,,,,,,,,,,,,,0,40,40,41,,,,,,,,,,,,,,,,,,,,,,,581.3320951941423,None,582.8316792808473,None,584.2153966519982,None,fox,584.2153966519982,None,return,1.35856175981462,584.2986923740245,None,,,,,,,,,,,,,,,,,,,,,,,,,,,,,,,,,,,,,,,63,001,2023_Apr_05_1850,SpeechDraft1Carolyn_lessNoise_PlusLocalization,2021.2.3,59.95637147530804,
blade.wav,blade.mpg,blade,4,AV,Pink_Noise_4_1.wav,Pink_Noise_4_2.wav,,,,,,,,,,,,,,,0,41,41,102,,,,,,,,,,,,,,,,,,,,,,,585.6820011907257,None,587.1816340158693,None,588.5653659789823,None,blade,588.5653659789823,None,return,1.392570857424289,588.6486666020937,None,,,,,,,,,,,,,,,,,,,,,,,,,,,,,,,,,,,,,,,63,001,2023_Apr_05_1850,SpeechDraft1Carolyn_lessNoise_PlusLocalization,2021.2.3,59.95637147530804,
fee.wav,fee.mpg,fee,6,AV,Pink_Noise_6_1.wav,Pink_Noise_6_2.wav,,,,,,,,,,,,,,,0,42,42,103,,,,,,,,,,,,,,,,,,,,,,,590.0653518820181,None,591.5651480238885,None,592.9486045418307,None,fade,592.9486045418307,None,return,2.625279367901385,593.0320032578893,None,,,,,,,,,,,,,,,,,,,,,,,,,,,,,,,,,,,,,,,63,001,2023_Apr_05_1850,SpeechDraft1Carolyn_lessNoise_PlusLocalization,2021.2.3,59.95637147530804,
count.wav,count.mpg,count,1,A,Pink_Noise_1_1.wav,Pink_Noise_1_2.wav,,,,,,,,,,,,,,,0,43,43,0,,,,,,,,,,,,,,,,,,,,,,,595.6819895738736,None,597.1983596640639,None,598.5821851450019,None,count,598.5821851450019,None,return,2.6800674931146204,598.6653270679526,None,,,,,,,,,,,,,,,,,,,,,,,,,,,,,,,,,,,,,,,63,001,2023_Apr_05_1850,SpeechDraft1Carolyn_lessNoise_PlusLocalization,2021.2.3,59.95637147530804,
quest.wav,quest.mpg,quest,2,AV,Pink_Noise_2_1.wav,Pink_Noise_2_2.wav,,,,,,,,,,,,,,,0,44,44,63,,,,,,,,,,,,,,,,,,,,,,,601.3653403120115,None,602.8651178660803,None,604.2486399477348,None,quest,604.2486399477348,None,return,6.077144551090896,604.3321076841094,None,,,,,,,,,,,,,,,,,,,,,,,,,,,,,,,,,,,,,,,63,001,2023_Apr_05_1850,SpeechDraft1Carolyn_lessNoise_PlusLocalization,2021.2.3,59.95637147530804,
drip.wav,drip.mpg,drip,1,A,Pink_Noise_1_1.wav,Pink_Noise_1_2.wav,,,,,,,,,,,,,,,0,45,45,38,,,,,,,,,,,,,,,,,,,,,,,610.4322244590148,None,611.9332194677554,None,613.3153516747989,None,drip,613.3153516747989,None,return,3.2105944608338177,613.3986511020921,None,,,,,,,,,,,,,,,,,,,,,,,,,,,,,,,,,,,,,,,63,001,2023_Apr_05_1850,SpeechDraft1Carolyn_lessNoise_PlusLocalization,2021.2.3,59.95637147530804,
wild.wav,wild.mpg,wild,6,A,Pink_Noise_6_1.wav,Pink_Noise_6_2.wav,,,,,,,,,,,,,,,0,46,46,47,,,,,,,,,,,,,,,,,,,,,,,616.6321331351064,None,618.1484008380212,None,619.5320821967907,None,whte,619.5320821967907,None,return,3.609908701851964,619.6153764310293,None,,,,,,,,,,,,,,,,,,,,,,,,,,,,,,,,,,,,,,,63,001,2023_Apr_05_1850,SpeechDraft1Carolyn_lessNoise_PlusLocalization,2021.2.3,59.95637147530804,
break.wav,break.mpg,break,3,A,Pink_Noise_3_1.wav,Pink_Noise_3_2.wav,,,,,,,,,,,,,,,0,47,47,33,,,,,,,,,,,,,,,,,,,,,,,623.2487492128275,None,624.7491595749743,None,626.1321011190303,None,break,626.1321011190303,None,return,3.961893305182457,626.2153706159443,None,,,,,,,,,,,,,,,,,,,,,,,,,,,,,,,,,,,,,,,63,001,2023_Apr_05_1850,SpeechDraft1Carolyn_lessNoise_PlusLocalization,2021.2.3,59.95637147530804,
cord.wav,cord.mpg,cord,1,A,Pink_Noise_1_1.wav,Pink_Noise_1_2.wav,,,,,,,,,,,,,,,0,48,48,29,,,,,,,,,,,,,,,,,,,,,,,630.1987150409259,None,631.6986015741713,None,633.0821032617241,None,cord,633.0821032617241,None,return,4.131940738297999,633.1653856369667,None,,,,,,,,,,,,,,,,,,,,,,,,,,,,,,,,,,,,,,,63,001,2023_Apr_05_1850,SpeechDraft1Carolyn_lessNoise_PlusLocalization,2021.2.3,59.95637147530804,
cart.wav,cart.mpg,cart,6,AV,Pink_Noise_6_1.wav,Pink_Noise_6_2.wav,,,,,,,,,,,,,,,0,49,49,64,,,,,,,,,,,,,,,,,,,,,,,637.3153899731115,None,638.8318060641177,None,640.2153843319975,None,"hut
",640.2153843319975,None,return,6.1025421428494155,640.2987160459161,None,,,,,,,,,,,,,,,,,,,,,,,,,,,,,,,,,,,,,,,63,001,2023_Apr_05_1850,SpeechDraft1Carolyn_lessNoise_PlusLocalization,2021.2.3,59.95637147530804,
dip.wav,dip.mpg,dip,1,AV,Pink_Noise_1_1.wav,Pink_Noise_1_2.wav,,,,,,,,,,,,,,,0,50,50,73,,,,,,,,,,,,,,,,,,,,,,,646.4321408830583,None,647.9484838400967,None,649.3320233831182,None,dip,649.3320233831182,None,return,0.9458071780391037,649.4154633530416,None,,,,,,,,,,,,,,,,,,,,,,,,,,,,,,,,,,,,,,,63,001,2023_Apr_05_1850,SpeechDraft1Carolyn_lessNoise_PlusLocalization,2021.2.3,59.95637147530804,
ease.wav,ease.mpg,ease,2,AV,Pink_Noise_2_1.wav,Pink_Noise_2_2.wav,,,,,,,,,,,,,,,0,51,51,69,,,,,,,,,,,,,,,,,,,,,,,650.382091675885,None,651.8817803468555,None,653.2653375840746,None,eat,653.2653375840746,None,return,9.948455597274005,653.3488829201087,None,,,,,,,,,,,,,,,,,,,,,,,,,,,,,,,,,,,,,,,63,001,2023_Apr_05_1850,SpeechDraft1Carolyn_lessNoise_PlusLocalization,2021.2.3,59.95637147530804,
brash.wav,brash.mpg,brash,3,A,Pink_Noise_3_1.wav,Pink_Noise_3_2.wav,,,,,,,,,,,,,,,0,52,52,37,,,,,,,,,,,,,,,,,,,,,,,663.3154460010119,None,664.831837283913,None,666.2154058208689,None,fresh,666.2154058208689,None,return,1.3584774481132627,666.2987924381159,None,,,,,,,,,,,,,,,,,,,,,,,,,,,,,,,,,,,,,,,63,001,2023_Apr_05_1850,SpeechDraft1Carolyn_lessNoise_PlusLocalization,2021.2.3,59.95637147530804,
broad.wav,broad.mpg,broad,3,AV,Pink_Noise_3_1.wav,Pink_Noise_3_2.wav,,,,,,,,,,,,,,,0,53,53,99,,,,,,,,,,,,,,,,,,,,,,,667.6821259511635,None,669.1985191199929,None,670.5821639560163,None,"broad
",670.5821639560163,None,return,1.9678035816177726,670.6654546777718,None,,,,,,,,,,,,,,,,,,,,,,,,,,,,,,,,,,,,,,,63,001,2023_Apr_05_1850,SpeechDraft1Carolyn_lessNoise_PlusLocalization,2021.2.3,59.95637147530804,
eat.wav,eat.mpg,eat,3,AV,Pink_Noise_3_1.wav,Pink_Noise_3_2.wav,,,,,,,,,,,,,,,0,54,54,81,,,,,,,,,,,,,,,,,,,,,,,672.6654692990705,None,674.1819639080204,None,675.5653260601684,None,hit,675.5653260601684,None,return,2.8165244460105896,675.648837920744,None,,,,,,,,,,,,,,,,,,,,,,,,,,,,,,,,,,,,,,,63,001,2023_Apr_05_1850,SpeechDraft1Carolyn_lessNoise_PlusLocalization,2021.2.3,59.95637147530804,
coup.wav,coup.mpg,coup,3,AV,Pink_Noise_3_1.wav,Pink_Noise_3_2.wav,,,,,,,,,,,,,,,0,55,55,97,,,,,,,,,,,,,,,,,,,,,,,678.4821705701761,None,679.9984837807715,None,681.3820060999133,None,coon,681.3820060999133,None,return,5.591879542917013,681.4653877429664,None,,,,,,,,,,,,,,,,,,,,,,,,,,,,,,,,,,,,,,,63,001,2023_Apr_05_1850,SpeechDraft1Carolyn_lessNoise_PlusLocalization,2021.2.3,59.95637147530804,
mass.wav,mass.mpg,mass,1,A,Pink_Noise_1_1.wav,Pink_Noise_1_2.wav,,,,,,,,,,,,,,,0,56,56,59,,,,,,,,,,,,,,,,,,,,,,,687.0821057567373,None,688.5834829248488,None,689.9654092737474,None,mass,689.9654092737474,None,return,2.1604610928334296,690.0487761008553,None,,,,,,,,,,,,,,,,,,,,,,,,,,,,,,,,,,,,,,,63,001,2023_Apr_05_1850,SpeechDraft1Carolyn_lessNoise_PlusLocalization,2021.2.3,59.95637147530804,
wound.wav,wound.mpg,wound,2,A,Pink_Noise_2_1.wav,Pink_Noise_2_2.wav,,,,,,,,,,,,,,,0,57,57,13,,,,,,,,,,,,,,,,,,,,,,,692.2322094580159,None,693.7327807801776,None,695.115659434814,None,"wound
",695.115659434814,None,return,5.050517120398581,695.1987456497736,None,,,,,,,,,,,,,,,,,,,,,,,,,,,,,,,,,,,,,,,63,001,2023_Apr_05_1850,SpeechDraft1Carolyn_lessNoise_PlusLocalization,2021.2.3,59.95637147530804,
grass.wav,grass.mpg,grass,2,AV,Pink_Noise_2_1.wav,Pink_Noise_2_2.wav,,,,,,,,,,,,,,,0,58,58,101,,,,,,,,,,,,,,,,,,,,,,,700.2821300351061,None,701.7986398600042,None,703.1820771978237,None,grass,703.1820771978237,None,return,1.66389178391546,703.2654398791492,None,,,,,,,,,,,,,,,,,,,,,,,,,,,,,,,,,,,,,,,63,001,2023_Apr_05_1850,SpeechDraft1Carolyn_lessNoise_PlusLocalization,2021.2.3,59.95637147530804,
bridge.wav,bridge.mpg,bridge,4,AV,Pink_Noise_4_1.wav,Pink_Noise_4_2.wav,,,,,,,,,,,,,,,0,59,59,110,,,,,,,,,,,,,,,,,,,,,,,704.9488448929042,None,706.4651673207991,None,707.8488096329384,None,bridge,707.8488096329384,None,return,3.3249819851480424,707.9322616257705,None,,,,,,,,,,,,,,,,,,,,,,,,,,,,,,,,,,,,,,,63,001,2023_Apr_05_1850,SpeechDraft1Carolyn_lessNoise_PlusLocalization,2021.2.3,59.95637147530804,
birth.wav,birth.mpg,birth,1,AV,Pink_Noise_1_1.wav,Pink_Noise_1_2.wav,,,,,,,,,,,,,,,0,60,60,77,,,,,,,,,,,,,,,,,,,,,,,711.2821669131517,None,712.7831438439898,None,714.1654264689423,None,"birth
",714.1654264689423,None,return,4.16836815001443,714.2488898579031,None,,,,,,,,,,,,,,,,,,,,,,,,,,,,,,,,,,,,,,,63,001,2023_Apr_05_1850,SpeechDraft1Carolyn_lessNoise_PlusLocalization,2021.2.3,59.95637147530804,
lie.wav,lie.mpg,lie,3,A,Pink_Noise_3_1.wav,Pink_Noise_3_2.wav,,,,,,,,,,,,,,,0,61,61,54,,,,,,,,,,,,,,,,,,,,,,,718.4488395848311,None,719.9486304740421,None,721.3322563050315,None,lion,721.3322563050315,None,return,7.305823083035648,721.4156001629308,None,,,,,,,,,,,,,,,,,,,,,,,,,,,,,,,,,,,,,,,63,001,2023_Apr_05_1850,SpeechDraft1Carolyn_lessNoise_PlusLocalization,2021.2.3,59.95637147530804,
gross.wav,gross.mpg,gross,4,AV,Pink_Noise_4_1.wav,Pink_Noise_4_2.wav,,,,,,,,,,,,,,,0,62,62,83,,,,,,,,,,,,,,,,,,,,,,,728.7489659041166,None,730.2652846528217,None,731.6488031418994,None,"gross
",731.6488031418994,None,return,3.917070767842233,731.7321665240452,None,,,,,,,,,,,,,,,,,,,,,,,,,,,,,,,,,,,,,,,63,001,2023_Apr_05_1850,SpeechDraft1Carolyn_lessNoise_PlusLocalization,2021.2.3,59.95637147530804,
depth.wav,depth.mpg,depth,2,AV,Pink_Noise_2_1.wav,Pink_Noise_2_2.wav,,,,,,,,,,,,,,,0,63,63,117,,,,,,,,,,,,,,,,,,,,,,,735.6822975957766,None,737.1825363077223,None,738.5655175698921,None,"depth
",738.5655175698921,None,return,4.000445208046585,738.6488853488117,None,,,,,,,,,,,,,,,,,,,,,,,,,,,,,,,,,,,,,,,63,001,2023_Apr_05_1850,SpeechDraft1Carolyn_lessNoise_PlusLocalization,2021.2.3,59.95637147530804,
bench.wav,bench.mpg,bench,5,AV,Pink_Noise_5_1.wav,Pink_Noise_5_2.wav,,,,,,,,,,,,,,,0,64,64,98,,,,,,,,,,,,,,,,,,,,,,,742.6822162880562,None,744.1820053928532,None,745.5654915128835,None,bench,745.5654915128835,None,return,2.4643616499379277,745.648903104011,None,,,,,,,,,,,,,,,,,,,,,,,,,,,,,,,,,,,,,,,63,001,2023_Apr_05_1850,SpeechDraft1Carolyn_lessNoise_PlusLocalization,2021.2.3,59.95637147530804,
fool.wav,fool.mpg,fool,1,AV,Pink_Noise_1_1.wav,Pink_Noise_1_2.wav,,,,,,,,,,,,,,,0,65,65,67,,,,,,,,,,,,,,,,,,,,,,,748.1322109829634,None,749.6486239768565,None,751.0321938707493,None,fool,751.0321938707493,None,return,1.3416160000488162,751.1156180649996,None,,,,,,,,,,,,,,,,,,,,,,,,,,,,,,,,,,,,,,,63,001,2023_Apr_05_1850,SpeechDraft1Carolyn_lessNoise_PlusLocalization,2021.2.3,59.95637147530804,
truce.wav,truce.mpg,truce,6,AV,Pink_Noise_6_1.wav,Pink_Noise_6_2.wav,,,,,,,,,,,,,,,0,66,66,114,,,,,,,,,,,,,,,,,,,,,,,752.4823008948006,None,753.9986871927977,None,755.3821714529768,None,toast,755.3821714529768,None,return,1.2317428910173476,755.4655894949101,None,,,,,,,,,,,,,,,,,,,,,,,,,,,,,,,,,,,,,,,63,001,2023_Apr_05_1850,SpeechDraft1Carolyn_lessNoise_PlusLocalization,2021.2.3,59.95637147530804,
dual.wav,dual.mpg,dual,5,A,Pink_Noise_5_1.wav,Pink_Noise_5_2.wav,,,,,,,,,,,,,,,0,67,67,39,,,,,,,,,,,,,,,,,,,,,,,756.7155713597313,None,758.2318596867844,None,759.6154774739407,None,world,759.6154774739407,None,return,3.158317649271339,759.698937505018,None,,,,,,,,,,,,,,,,,,,,,,,,,,,,,,,,,,,,,,,63,001,2023_Apr_05_1850,SpeechDraft1Carolyn_lessNoise_PlusLocalization,2021.2.3,59.95637147530804,
awe.wav,awe.mpg,awe,6,AV,Pink_Noise_6_1.wav,Pink_Noise_6_2.wav,,,,,,,,,,,,,,,0,68,68,62,,,,,,,,,,,,,,,,,,,,,,,762.8823188249953,None,764.3986723637208,None,765.7835330739617,None,awe,765.7835330739617,None,return,3.127624198794365,765.8656340269372,None,,,,,,,,,,,,,,,,,,,,,,,,,,,,,,,,,,,,,,,63,001,2023_Apr_05_1850,SpeechDraft1Carolyn_lessNoise_PlusLocalization,2021.2.3,59.95637147530804,
dash.wav,dash.mpg,dash,1,A,Pink_Noise_1_1.wav,Pink_Noise_1_2.wav,,,,,,,,,,,,,,,0,69,69,48,,,,,,,,,,,,,,,,,,,,,,,769.0156714748591,None,770.5486944918521,None,771.9323943201452,None,dash,771.9323943201452,None,return,2.409687900915742,772.0155565408058,None,,,,,,,,,,,,,,,,,,,,,,,,,,,,,,,,,,,,,,,63,001,2023_Apr_05_1850,SpeechDraft1Carolyn_lessNoise_PlusLocalization,2021.2.3,59.95637147530804,
dry.wav,dry.mpg,dry,3,A,Pink_Noise_3_1.wav,Pink_Noise_3_2.wav,,,,,,,,,,,,,,,0,70,70,42,,,,,,,,,,,,,,,,,,,,,,,774.4489093017764,None,775.9652395728044,None,777.3489315877669,None,"dry
",777.3489315877669,None,return,2.4169604131020606,777.4322950099595,None,,,,,,,,,,,,,,,,,,,,,,,,,,,,,,,,,,,,,,,63,001,2023_Apr_05_1850,SpeechDraft1Carolyn_lessNoise_PlusLocalization,2021.2.3,59.95637147530804,
flirt.wav,flirt.mpg,flirt,5,AV,Pink_Noise_5_1.wav,Pink_Noise_5_2.wav,,,,,,,,,,,,,,,0,71,71,92,,,,,,,,,,,,,,,,,,,,,,,779.8822442940436,None,781.3986764079891,None,782.7821957059205,None,foot,782.7821957059205,None,return,2.3436952070333064,782.865551399067,None,,,,,,,,,,,,,,,,,,,,,,,,,,,,,,,,,,,,,,,63,001,2023_Apr_05_1850,SpeechDraft1Carolyn_lessNoise_PlusLocalization,2021.2.3,59.95637147530804,
solve.wav,solve.mpg,solve,6,AV,Pink_Noise_6_1.wav,Pink_Noise_6_2.wav,,,,,,,,,,,,,,,0,72,72,87,,,,,,,,,,,,,,,,,,,,,,,785.2323731309734,None,786.748604496941,None,788.1322146789171,None,solve,788.1322146789171,None,return,6.097533368971199,788.2157349740155,None,,,,,,,,,,,,,,,,,,,,,,,,,,,,,,,,,,,,,,,63,001,2023_Apr_05_1850,SpeechDraft1Carolyn_lessNoise_PlusLocalization,2021.2.3,59.95637147530804,
gate.wav,gate.mpg,gate,2,A,Pink_Noise_2_1.wav,Pink_Noise_2_2.wav,,,,,,,,,,,,,,,0,73,73,28,,,,,,,,,,,,,,,,,,,,,,,794.3323249421082,None,795.8486812049523,None,797.2324744397774,None,gate,797.2324744397774,None,return,2.173727745190263,797.3156493450515,None,,,,,,,,,,,,,,,,,,,,,,,,,,,,,,,,,,,,,,,63,001,2023_Apr_05_1850,SpeechDraft1Carolyn_lessNoise_PlusLocalization,2021.2.3,59.95637147530804,
gab.wav,gab.mpg,gab,3,AV,Pink_Noise_3_1.wav,Pink_Noise_3_2.wav,,,,,,,,,,,,,,,0,74,74,91,,,,,,,,,,,,,,,,,,,,,,,799.5175048047677,None,801.0487757897936,None,802.432334586978,None,gam,802.432334586978,None,return,5.957705073058605,802.5156252440065,None,,,,,,,,,,,,,,,,,,,,,,,,,,,,,,,,,,,,,,,63,001,2023_Apr_05_1850,SpeechDraft1Carolyn_lessNoise_PlusLocalization,2021.2.3,59.95637147530804,
fill.wav,fill.mpg,fill,2,AV,Pink_Noise_2_1.wav,Pink_Noise_2_2.wav,,,,,,,,,,,,,,,0,75,75,104,,,,,,,,,,,,,,,,,,,,,,,808.4991593309678,None,810.0154054989107,None,811.3990314211696,None,"fill
",811.3990314211696,None,return,3.550948715303093,811.4822988598607,None,,,,,,,,,,,,,,,,,,,,,,,,,,,,,,,,,,,,,,,63,001,2023_Apr_05_1850,SpeechDraft1Carolyn_lessNoise_PlusLocalization,2021.2.3,59.95637147530804,
fruit.wav,fruit.mpg,fruit,4,A,Pink_Noise_4_1.wav,Pink_Noise_4_2.wav,,,,,,,,,,,,,,,0,76,76,18,,,,,,,,,,,,,,,,,,,,,,,815.0656201951206,None,816.5820472510532,None,817.9656410259195,None,bridge,817.9656410259195,None,return,6.808204946108162,818.0490641160868,None,,,,,,,,,,,,,,,,,,,,,,,,,,,,,,,,,,,,,,,63,001,2023_Apr_05_1850,SpeechDraft1Carolyn_lessNoise_PlusLocalization,2021.2.3,59.95637147530804,
flush.wav,flush.mpg,flush,5,A,Pink_Noise_5_1.wav,Pink_Noise_5_2.wav,,,,,,,,,,,,,,,0,77,77,11,,,,,,,,,,,,,,,,,,,,,,,824.8823404740542,None,826.4153691739775,None,827.7990078018047,None,slusj,827.7990078018047,None,return,4.910884136799723,827.8823681827635,None,,,,,,,,,,,,,,,,,,,,,,,,,,,,,,,,,,,,,,,63,001,2023_Apr_05_1850,SpeechDraft1Carolyn_lessNoise_PlusLocalization,2021.2.3,59.95637147530804,
cloak.wav,cloak.mpg,cloak,4,A,Pink_Noise_4_1.wav,Pink_Noise_4_2.wav,,,,,,,,,,,,,,,0,78,78,45,,,,,,,,,,,,,,,,,,,,,,,832.8157385950908,None,834.3486674297601,None,835.7323077549227,None,cloak,835.7323077549227,None,return,3.3216006490401924,835.8156550638378,None,,,,,,,,,,,,,,,,,,,,,,,,,,,,,,,,,,,,,,,63,001,2023_Apr_05_1850,SpeechDraft1Carolyn_lessNoise_PlusLocalization,2021.2.3,59.95637147530804,
bush.wav,bush.mpg,bush,1,A,Pink_Noise_1_1.wav,Pink_Noise_1_2.wav,,,,,,,,,,,,,,,0,79,79,32,,,,,,,,,,,,,,,,,,,,,,,839.16574110277,None,840.6987421829253,None,842.0823785890825,None,brush,842.0823785890825,None,return,3.3155333544127643,842.1658079908229,None,,,,,,,,,,,,,,,,,,,,,,,,,,,,,,,,,,,,,,,63,001,2023_Apr_05_1850,SpeechDraft1Carolyn_lessNoise_PlusLocalization,2021.2.3,59.95637147530804,
drop.wav,drop.mpg,drop,6,AV,Pink_Noise_6_1.wav,Pink_Noise_6_2.wav,,,,,,,,,,,,,,,0,80,80,89,,,,,,,,,,,,,,,,,,,,,,,845.4990935381502,None,847.0153590808623,None,848.3989844447933,None,"damp
",848.3989844447933,None,return,10.334964569658041,848.4822878791019,None,,,,,,,,,,,,,,,,,,,,,,,,,,,,,,,,,,,,,,,63,001,2023_Apr_05_1850,SpeechDraft1Carolyn_lessNoise_PlusLocalization,2021.2.3,59.95637147530804,
fist.wav,fist.mpg,fist,1,AV,Pink_Noise_1_1.wav,Pink_Noise_1_2.wav,,,,,,,,,,,,,,,0,81,81,115,,,,,,,,,,,,,,,,,,,,,,,858.8490801947191,None,860.3655066438951,None,861.7488989760168,None,fist,861.7488989760168,None,return,2.2729694303125143,861.8323495569639,None,,,,,,,,,,,,,,,,,,,,,,,,,,,,,,,,,,,,,,,63,001,2023_Apr_05_1850,SpeechDraft1Carolyn_lessNoise_PlusLocalization,2021.2.3,59.95637147530804,
fraud.wav,fraud.mpg,fraud,1,AV,Pink_Noise_1_1.wav,Pink_Noise_1_2.wav,,,,,,,,,,,,,,,0,82,82,80,,,,,,,,,,,,,,,,,,,,,,,864.1325693167746,None,865.6487844409421,None,867.0323433340527,None,fraud,867.0323433340527,None,return,3.8775107599794865,867.1157395271584,None,,,,,,,,,,,,,,,,,,,,,,,,,,,,,,,,,,,,,,,63,001,2023_Apr_05_1850,SpeechDraft1Carolyn_lessNoise_PlusLocalization,2021.2.3,59.95637147530804,
please.wav,please.mpg,please,5,AV,Pink_Noise_5_1.wav,Pink_Noise_5_2.wav,,,,,,,,,,,,,,,0,83,83,79,,,,,,,,,,,,,,,,,,,,,,,871.0157305821776,None,872.5320917768404,None,873.915862836875,None,pace,873.915862836875,None,return,7.130313120316714,873.9990655011497,None,,,,,,,,,,,,,,,,,,,,,,,,,,,,,,,,,,,,,,,63,001,2023_Apr_05_1850,SpeechDraft1Carolyn_lessNoise_PlusLocalization,2021.2.3,59.95637147530804,
dive.wav,dive.mpg,dive,3,A,Pink_Noise_3_1.wav,Pink_Noise_3_2.wav,,,,,,,,,,,,,,,0,84,84,10,,,,,,,,,,,,,,,,,,,,,,,881.1490938081406,None,882.6654209997505,None,884.0490450188518,None,"dive
",884.0490450188518,None,return,3.6527725881896913,884.13249059394,None,,,,,,,,,,,,,,,,,,,,,,,,,,,,,,,,,,,,,,,63,001,2023_Apr_05_1850,SpeechDraft1Carolyn_lessNoise_PlusLocalization,2021.2.3,59.95637147530804,
fluent.wav,fluent.mpg,fluent,5,A,Pink_Noise_5_1.wav,Pink_Noise_5_2.wav,,,,,,,,,,,,,,,0,85,85,46,,,,,,,,,,,,,,,,,,,,,,,887.8157871970907,None,889.3488764590584,None,890.7324489341117,None,livid,890.7324489341117,None,return,4.945447198115289,890.8158373287879,None,,,,,,,,,,,,,,,,,,,,,,,,,,,,,,,,,,,,,,,63,001,2023_Apr_05_1850,SpeechDraft1Carolyn_lessNoise_PlusLocalization,2021.2.3,59.95637147530804,
duke.wav,duke.mpg,duke,6,AV,Pink_Noise_6_1.wav,Pink_Noise_6_2.wav,,,,,,,,,,,,,,,0,86,86,76,,,,,,,,,,,,,,,,,,,,,,,895.7824493041262,None,897.2987249749713,None,898.6823559817858,None,"shooy
",898.6823559817858,None,return,3.635491931810975,898.7657951731235,None,,,,,,,,,,,,,,,,,,,,,,,,,,,,,,,,,,,,,,,63,001,2023_Apr_05_1850,SpeechDraft1Carolyn_lessNoise_PlusLocalization,2021.2.3,59.95637147530804,
hug.wav,hug.mpg,hug,5,AV,Pink_Noise_5_1.wav,Pink_Noise_5_2.wav,,,,,,,,,,,,,,,0,87,87,95,,,,,,,,,,,,,,,,,,,,,,,902.4327056589536,None,903.9489840189926,None,905.3323366697878,None,"heart
",905.3323366697878,None,return,7.633505400270224,905.4157477957197,None,,,,,,,,,,,,,,,,,,,,,,,,,,,,,,,,,,,,,,,63,001,2023_Apr_05_1850,SpeechDraft1Carolyn_lessNoise_PlusLocalization,2021.2.3,59.95637147530804,
stuck.wav,stuck.mpg,stuck,4,AV,Pink_Noise_4_1.wav,Pink_Noise_4_2.wav,,,,,,,,,,,,,,,0,88,88,82,,,,,,,,,,,,,,,,,,,,,,,913.0824490729719,None,914.5987819791771,None,915.9824085100554,None,stuck,915.9824085100554,None,return,5.775382926221937,916.0658538108692,None,,,,,,,,,,,,,,,,,,,,,,,,,,,,,,,,,,,,,,,63,001,2023_Apr_05_1850,SpeechDraft1Carolyn_lessNoise_PlusLocalization,2021.2.3,59.95637147530804,
bay.wav,bay.mpg,bay,6,A,Pink_Noise_6_1.wav,Pink_Noise_6_2.wav,,,,,,,,,,,,,,,0,89,89,50,,,,,,,,,,,,,,,,,,,,,,,921.8657455509529,None,923.39875074476,None,924.7825320330448,None,bang,924.7825320330448,None,return,6.223537143319845,924.8658256237395,None,,,,,,,,,,,,,,,,,,,,,,,,,,,,,,,,,,,,,,,63,001,2023_Apr_05_1850,SpeechDraft1Carolyn_lessNoise_PlusLocalization,2021.2.3,59.95637147530804,
slick.wav,slick.mpg,slick,6,A,Pink_Noise_6_1.wav,Pink_Noise_6_2.wav,,,,,,,,,,,,,,,0,90,90,44,,,,,,,,,,,,,,,,,,,,,,,931.115867823828,None,932.6162929120474,None,933.999146815855,None,set,933.999146815855,None,return,1.2228717720136046,934.0825789249502,None,,,,,,,,,,,,,,,,,,,,,,,,,,,,,,,,,,,,,,,63,001,2023_Apr_05_1850,SpeechDraft1Carolyn_lessNoise_PlusLocalization,2021.2.3,59.95637147530804,
clown.wav,clown.mpg,clown,2,A,Pink_Noise_2_1.wav,Pink_Noise_2_2.wav,,,,,,,,,,,,,,,0,91,91,52,,,,,,,,,,,,,,,,,,,,,,,935.3325492967851,None,936.8489452637732,None,938.2325156847946,None,"cloak
",938.2325156847946,None,return,4.701331470161676,938.3159328079782,None,,,,,,,,,,,,,,,,,,,,,,,,,,,,,,,,,,,,,,,63,001,2023_Apr_05_1850,SpeechDraft1Carolyn_lessNoise_PlusLocalization,2021.2.3,59.95637147530804,
dope.wav,dope.mpg,dope,6,A,Pink_Noise_6_1.wav,Pink_Noise_6_2.wav,,,,,,,,,,,,,,,0,92,92,27,,,,,,,,,,,,,,,,,,,,,,,943.0492609911598,None,944.5655686911196,None,945.9492012001574,None,built,945.9492012001574,None,return,2.976698908023536,946.0325467698276,None,,,,,,,,,,,,,,,,,,,,,,,,,,,,,,,,,,,,,,,63,001,2023_Apr_05_1850,SpeechDraft1Carolyn_lessNoise_PlusLocalization,2021.2.3,59.95637147530804,
fit.wav,fit.mpg,fit,1,A,Pink_Noise_1_1.wav,Pink_Noise_1_2.wav,,,,,,,,,,,,,,,0,93,93,2,,,,,,,,,,,,,,,,,,,,,,,949.0325869028457,None,950.565639284905,None,951.9491561739706,None,fit,951.9491561739706,None,return,2.12070121569559,952.0325385867618,None,,,,,,,,,,,,,,,,,,,,,,,,,,,,,,,,,,,,,,,63,001,2023_Apr_05_1850,SpeechDraft1Carolyn_lessNoise_PlusLocalization,2021.2.3,59.95637147530804,
chore.wav,chore.mpg,chore,5,AV,Pink_Noise_5_1.wav,Pink_Noise_5_2.wav,,,,,,,,,,,,,,,0,94,94,107,,,,,,,,,,,,,,,,,,,,,,,954.1824984769337,None,955.732306653168,None,957.1157667958178,None,chore,957.1157667958178,None,return,2.5620506228879094,957.1992233558558,None,,,,,,,,,,,,,,,,,,,,,,,,,,,,,,,,,,,,,,,63,001,2023_Apr_05_1850,SpeechDraft1Carolyn_lessNoise_PlusLocalization,2021.2.3,59.95637147530804,
bag.wav,bag.mpg,bag,4,AV,Pink_Noise_4_1.wav,Pink_Noise_4_2.wav,,,,,,,,,,,,,,,0,95,95,108,,,,,,,,,,,,,,,,,,,,,,,959.7825038558803,None,961.2991429697722,None,962.6825151210651,None,bag,962.6825151210651,None,return,1.7235265378840268,962.7658121441491,None,,,,,,,,,,,,,,,,,,,,,,,,,,,,,,,,,,,,,,,63,001,2023_Apr_05_1850,SpeechDraft1Carolyn_lessNoise_PlusLocalization,2021.2.3,59.95637147530804,
glue.wav,glue.mpg,glue,3,AV,Pink_Noise_3_1.wav,Pink_Noise_3_2.wav,,,,,,,,,,,,,,,0,96,96,88,,,,,,,,,,,,,,,,,,,,,,,964.5158797837794,None,966.0327127571218,None,967.4158237869851,None,"glue
",967.4158237869851,None,return,1.6700693578459322,967.4991897279397,None,,,,,,,,,,,,,,,,,,,,,,,,,,,,,,,,,,,,,,,63,001,2023_Apr_05_1850,SpeechDraft1Carolyn_lessNoise_PlusLocalization,2021.2.3,59.95637147530804,
grain.wav,grain.mpg,grain,5,A,Pink_Noise_5_1.wav,Pink_Noise_5_2.wav,,,,,,,,,,,,,,,0,97,97,43,,,,,,,,,,,,,,,,,,,,,,,969.1992871700786,None,970.7323171780445,None,972.115838970989,None,ranch,972.115838970989,None,return,3.7700050929561257,972.1992493080907,None,,,,,,,,,,,,,,,,,,,,,,,,,,,,,,,,,,,,,,,63,001,2023_Apr_05_1850,SpeechDraft1Carolyn_lessNoise_PlusLocalization,2021.2.3,59.95637147530804,
shrimp.wav,shrimp.mpg,shrimp,5,AV,Pink_Noise_5_1.wav,Pink_Noise_5_2.wav,,,,,,,,,,,,,,,0,98,98,118,,,,,,,,,,,,,,,,,,,,,,,975.9991561481729,None,977.5156686627306,None,978.8991091060452,None,shrimp,978.8991091060452,None,return,3.8826359887607396,978.9826857368462,None,,,,,,,,,,,,,,,,,,,,,,,,,,,,,,,,,,,,,,,63,001,2023_Apr_05_1850,SpeechDraft1Carolyn_lessNoise_PlusLocalization,2021.2.3,59.95637147530804,
foam.wav,foam.mpg,foam,2,AV,Pink_Noise_2_1.wav,Pink_Noise_2_2.wav,,,,,,,,,,,,,,,0,99,99,86,,,,,,,,,,,,,,,,,,,,,,,982.8825330599211,None,984.4002779517323,None,985.7824152959511,None,foam,985.7824152959511,None,return,3.2394867911934853,985.8658652119339,None,,,,,,,,,,,,,,,,,,,,,,,,,,,,,,,,,,,,,,,63,001,2023_Apr_05_1850,SpeechDraft1Carolyn_lessNoise_PlusLocalization,2021.2.3,59.95637147530804,
frail.wav,frail.mpg,frail,2,A,Pink_Noise_2_1.wav,Pink_Noise_2_2.wav,,,,,,,,,,,,,,,0,100,100,57,,,,,,,,,,,,,,,,,,,,,,,989.1325315688737,None,990.6491605290212,None,992.0325836720876,None,frail,992.0325836720876,None,return,3.421377880964428,992.1158984918147,None,,,,,,,,,,,,,,,,,,,,,,,,,,,,,,,,,,,,,,,63,001,2023_Apr_05_1850,SpeechDraft1Carolyn_lessNoise_PlusLocalization,2021.2.3,59.95637147530804,
shed.wav,shed.mpg,shed,3,A,Pink_Noise_3_1.wav,Pink_Noise_3_2.wav,,,,,,,,,,,,,,,0,101,101,58,,,,,,,,,,,,,,,,,,,,,,,995.5821303240955,None,997.1156182661653,None,998.4993146341294,None,"shed
",998.4993146341294,None,return,2.818713840097189,998.5825545531698,None,,,,,,,,,,,,,,,,,,,,,,,,,,,,,,,,,,,,,,,63,001,2023_Apr_05_1850,SpeechDraft1Carolyn_lessNoise_PlusLocalization,2021.2.3,59.95637147530804,
cliff.wav,cliff.mpg,cliff,3,AV,Pink_Noise_3_1.wav,Pink_Noise_3_2.wav,,,,,,,,,,,,,,,0,102,102,113,,,,,,,,,,,,,,,,,,,,,,,1001.4325951980427,None,1002.9498695218936,None,1004.3324167099781,None,cliff,1004.3324167099781,None,return,3.1771764350123703,1004.4160778857768,None,,,,,,,,,,,,,,,,,,,,,,,,,,,,,,,,,,,,,,,63,001,2023_Apr_05_1850,SpeechDraft1Carolyn_lessNoise_PlusLocalization,2021.2.3,59.95637147530804,
drag.wav,drag.mpg,drag,2,A,Pink_Noise_2_1.wav,Pink_Noise_2_2.wav,,,,,,,,,,,,,,,0,103,103,26,,,,,,,,,,,,,,,,,,,,,,,1007.6159881139174,None,1009.1330721499398,None,1010.5160138909705,None,"drag
",1010.5160138909705,None,return,1.2339775552973151,1010.5992649067193,None,,,,,,,,,,,,,,,,,,,,,,,,,,,,,,,,,,,,,,,63,001,2023_Apr_05_1850,SpeechDraft1Carolyn_lessNoise_PlusLocalization,2021.2.3,59.95637147530804,
brisk.wav,brisk.mpg,brisk,3,AV,Pink_Noise_3_1.wav,Pink_Noise_3_2.wav,,,,,,,,,,,,,,,0,104,104,100,,,,,,,,,,,,,,,,,,,,,,,1011.8659270280041,None,1013.3990069441497,None,1014.7823983491398,None,brisk,1014.7823983491398,None,return,7.095306903123856,1014.8659769850783,None,,,,,,,,,,,,,,,,,,,,,,,,,,,,,,,,,,,,,,,63,001,2023_Apr_05_1850,SpeechDraft1Carolyn_lessNoise_PlusLocalization,2021.2.3,59.95637147530804,
ghost.wav,ghost.mpg,ghost,6,A,Pink_Noise_6_1.wav,Pink_Noise_6_2.wav,,,,,,,,,,,,,,,0,105,105,49,,,,,,,,,,,,,,,,,,,,,,,1021.9826903101057,None,1023.4990438809618,None,1024.8834154787473,None,ghost,1024.8834154787473,None,return,2.7312915199436247,1024.9659551368095,None,,,,,,,,,,,,,,,,,,,,,,,,,,,,,,,,,,,,,,,63,001,2023_Apr_05_1850,SpeechDraft1Carolyn_lessNoise_PlusLocalization,2021.2.3,59.95637147530804,
buff.wav,buff.mpg,buff,4,AV,Pink_Noise_4_1.wav,Pink_Noise_4_2.wav,,,,,,,,,,,,,,,0,106,106,84,,,,,,,,,,,,,,,,,,,,,,,1027.7160752061754,None,1029.2496853698976,None,1030.632664224133,None,buff,1030.632664224133,None,return,4.973515584133565,1030.7158432938159,None,,,,,,,,,,,,,,,,,,,,,,,,,,,,,,,,,,,,,,,63,001,2023_Apr_05_1850,SpeechDraft1Carolyn_lessNoise_PlusLocalization,2021.2.3,59.95637147530804,
beach.wav,beach.mpg,beach,3,AV,Pink_Noise_3_1.wav,Pink_Noise_3_2.wav,,,,,,,,,,,,,,,0,107,107,70,,,,,,,,,,,,,,,,,,,,,,,1035.7160214758478,None,1037.2656287169084,None,1038.6492478721775,None,beach,1038.6492478721775,None,return,10.364574950188398,1038.7327246638015,None,,,,,,,,,,,,,,,,,,,,,,,,,,,,,,,,,,,,,,,63,001,2023_Apr_05_1850,SpeechDraft1Carolyn_lessNoise_PlusLocalization,2021.2.3,59.95637147530804,
cold.wav,cold.mpg,cold,2,AV,Pink_Noise_2_1.wav,Pink_Noise_2_2.wav,,,,,,,,,,,,,,,0,108,108,94,,,,,,,,,,,,,,,,,,,,,,,1049.1161097930744,None,1050.633629757911,None,1052.0158838629723,None,cold,1052.0158838629723,None,return,1.2619303418323398,1052.0993425948545,None,,,,,,,,,,,,,,,,,,,,,,,,,,,,,,,,,,,,,,,63,001,2023_Apr_05_1850,SpeechDraft1Carolyn_lessNoise_PlusLocalization,2021.2.3,59.95637147530804,
dish.wav,dish.mpg,dish,5,AV,Pink_Noise_5_1.wav,Pink_Noise_5_2.wav,,,,,,,,,,,,,,,0,109,109,66,,,,,,,,,,,,,,,,,,,,,,,1053.3826709529385,None,1054.9175565368496,None,1056.2992930598557,None,"dish
",1056.2992930598557,None,return,1.4186373972333968,1056.3826261111535,None,,,,,,,,,,,,,,,,,,,,,,,,,,,,,,,,,,,,,,,63,001,2023_Apr_05_1850,SpeechDraft1Carolyn_lessNoise_PlusLocalization,2021.2.3,59.95637147530804,
blimp.wav,blimp.mpg,blimp,2,A,Pink_Noise_2_1.wav,Pink_Noise_2_2.wav,,,,,,,,,,,,,,,0,110,110,31,,,,,,,,,,,,,,,,,,,,,,,1057.8327683107927,None,1059.3491976601072,None,1060.7326929317787,None,flip,1060.7326929317787,None,return,1.641300668939948,1060.8160188798793,None,,,,,,,,,,,,,,,,,,,,,,,,,,,,,,,,,,,,,,,63,001,2023_Apr_05_1850,SpeechDraft1Carolyn_lessNoise_PlusLocalization,2021.2.3,59.95637147530804,
gas.wav,gas.mpg,gas,4,AV,Pink_Noise_4_1.wav,Pink_Noise_4_2.wav,,,,,,,,,,,,,,,0,111,111,106,,,,,,,,,,,,,,,,,,,,,,,1062.482668621,None,1064.0324835269712,None,1065.4160145688802,None,"guess
",1065.4160145688802,None,return,1.733848802279681,1065.499418519903,None,,,,,,,,,,,,,,,,,,,,,,,,,,,,,,,,,,,,,,,63,001,2023_Apr_05_1850,SpeechDraft1Carolyn_lessNoise_PlusLocalization,2021.2.3,59.95637147530804,
grip.wav,grip.mpg,grip,4,A,Pink_Noise_4_1.wav,Pink_Noise_4_2.wav,,,,,,,,,,,,,,,0,112,112,40,,,,,,,,,,,,,,,,,,,,,,,1067.266025110148,None,1068.7990309759043,None,1070.1827424019575,None,grit,1070.1827424019575,None,return,3.2153285769745708,1070.26605629595,None,,,,,,,,,,,,,,,,,,,,,,,,,,,,,,,,,,,,,,,63,001,2023_Apr_05_1850,SpeechDraft1Carolyn_lessNoise_PlusLocalization,2021.2.3,59.95637147530804,
blind.wav,blind.mpg,blind,6,A,Pink_Noise_6_1.wav,Pink_Noise_6_2.wav,,,,,,,,,,,,,,,0,113,113,34,,,,,,,,,,,,,,,,,,,,,,,1073.4992931280285,None,1075.0491349319927,None,1076.4326367359608,None,slime,1076.4326367359608,None,return,3.7812338918447495,1076.5160270081833,None,,,,,,,,,,,,,,,,,,,,,,,,,,,,,,,,,,,,,,,63,001,2023_Apr_05_1850,SpeechDraft1Carolyn_lessNoise_PlusLocalization,2021.2.3,59.95637147530804,
tart.wav,tart.mpg,tart,5,A,Pink_Noise_5_1.wav,Pink_Noise_5_2.wav,,,,,,,,,,,,,,,0,114,114,20,,,,,,,,,,,,,,,,,,,,,,,1080.3161325957626,None,1081.8491315948777,None,1083.232785873115,None,trust,1083.232785873115,None,return,4.40530195273459,1083.3160452400334,None,,,,,,,,,,,,,,,,,,,,,,,,,,,,,,,,,,,,,,,63,001,2023_Apr_05_1850,SpeechDraft1Carolyn_lessNoise_PlusLocalization,2021.2.3,59.95637147530804,
bee.wav,bee.mpg,bee,3,AV,Pink_Noise_3_1.wav,Pink_Noise_3_2.wav,,,,,,,,,,,,,,,0,115,115,90,,,,,,,,,,,,,,,,,,,,,,,1087.7493339800276,None,1089.2824211688712,None,1090.6660331287421,None,big,1090.6660331287421,None,return,5.043878139927983,1090.7493726927787,None,,,,,,,,,,,,,,,,,,,,,,,,,,,,,,,,,,,,,,,63,001,2023_Apr_05_1850,SpeechDraft1Carolyn_lessNoise_PlusLocalization,2021.2.3,59.95637147530804,
fun.wav,fun.mpg,fun,4,A,Pink_Noise_4_1.wav,Pink_Noise_4_2.wav,,,,,,,,,,,,,,,0,116,116,9,,,,,,,,,,,,,,,,,,,,,,,1095.8160997447558,None,1097.332437211182,None,1098.716016388964,None,touch,1098.716016388964,None,return,3.105975832324475,1098.7993638650514,None,,,,,,,,,,,,,,,,,,,,,,,,,,,,,,,,,,,,,,,63,001,2023_Apr_05_1850,SpeechDraft1Carolyn_lessNoise_PlusLocalization,2021.2.3,59.95637147530804,
brawl.wav,brawl.mpg,brawl,6,A,Pink_Noise_6_1.wav,Pink_Noise_6_2.wav,,,,,,,,,,,,,,,0,117,117,16,,,,,,,,,,,,,,,,,,,,,,,1101.9328020769171,None,1103.4496843288653,None,1104.8327201721258,None,strong,1104.8327201721258,None,return,2.861170121934265,1104.9161206260324,None,,,,,,,,,,,,,,,,,,,,,,,,,,,,,,,,,,,,,,,63,001,2023_Apr_05_1850,SpeechDraft1Carolyn_lessNoise_PlusLocalization,2021.2.3,59.95637147530804,
beat.wav,beat.mpg,beat,6,AV,Pink_Noise_6_1.wav,Pink_Noise_6_2.wav,,,,,,,,,,,,,,,0,118,118,71,,,,,,,,,,,,,,,,,,,,,,,1107.7996099069715,None,1109.3324621859938,None,1110.716016617138,None,beat,1110.716016617138,None,return,2.26594666717574,1110.7993836770765,None,,,,,,,,,,,,,,,,,,,,,,,,,,,,,,,,,,,,,,,63,001,2023_Apr_05_1850,SpeechDraft1Carolyn_lessNoise_PlusLocalization,2021.2.3,59.95637147530804,
blur.wav,blur.mpg,blur,3,A,Pink_Noise_3_1.wav,Pink_Noise_3_2.wav,,,,,,,,,,,,,,,0,119,119,36,,,,,,,,,,,,,,,,,,,,,,,1113.082763500046,None,1114.6490318351425,None,1116.0328191411681,None,blur,1116.0328191411681,None,return,3.1091674021445215,1116.1160776587203,None,,,,,,,,,,,,,,,,,,,,,,,,,,,,,,,,,,,,,,,63,001,2023_Apr_05_1850,SpeechDraft1Carolyn_lessNoise_PlusLocalization,2021.2.3,59.95637147530804,
,,,,,,,,,,,,,,,,,,,,,,,,,,,,,,,,,,,,,,,,,,,,,,,,,,,,,,,,,,,,,,,,,,space,16.219855044968426,1119.3495025788434,None,,,,,,,,,,,,,,,,,,,,,,,,,,,,,63,001,2023_Apr_05_1850,SpeechDraft1Carolyn_lessNoise_PlusLocalization,2021.2.3,59.95637147530804,
,,,,,,,,midLeft,-13.0,2,ch1Sound_localizationTask.wav,-13.0,"(762, 878)","(-198,-202)",-190,-338,,,,,,,,,0,0,0,1,,,,,,,,,,,,,,,,,,,,,,,,,,,,,,,,,,,,,,,,,,1119.3495025788434,None,1135.6159221748821,None,1136.7327373721637,None,1137.6490298868157,None,1.3142857142857143,6.237734084948897,1137.6490298868157,None,,,,,,,,,,,,,,,,,63,001,2023_Apr_05_1850,SpeechDraft1Carolyn_lessNoise_PlusLocalization,2021.2.3,59.95637147530804,
,,,,,,,,farRight,19.1,4,ch1Sound_localizationTask.wav,19.1,"(1237, 878)","(277,-202)",285,-338,,,,,,,,,0,1,1,6,,,,,,,,,,,,,,,,,,,,,,,,,,,,,,,,,,,,,,,,,,,,1143.8994479710236,None,1144.9991129487753,None,1145.9326470391825,None,1.6566137566137566,3.0842646551318467,1145.9326470391825,None,,,,,,,,,,,,,,,,,63,001,2023_Apr_05_1850,SpeechDraft1Carolyn_lessNoise_PlusLocalization,2021.2.3,59.95637147530804,
,,,,,,,,nearLeft,-6.5,1,ch1Sound_localizationTask.wav,-6.5,"(857, 878)","(-103,-202)",-95,-338,,,,,,,,,0,2,2,2,,,,,,,,,,,,,,,,,,,,,,,,,,,,,,,,,,,,,,,,,,,,1149.0331069431268,None,1150.1325787319802,None,1151.0658648340032,None,1.3417989417989418,2.7166521823965013,1151.0658648340032,None,,,,,,,,,,,,,,,,,63,001,2023_Apr_05_1850,SpeechDraft1Carolyn_lessNoise_PlusLocalization,2021.2.3,59.95637147530804,
,,,,,,,,midLeft,-13.0,2,ch1Sound_localizationTask.wav,-13.0,"(762, 878)","(-198,-202)",-190,-338,,,,,,,,,0,3,3,1,,,,,,,,,,,,,,,,,,,,,,,,,,,,,,,,,,,,,,,,,,,,1153.7837108131498,None,1154.8838333128951,None,1155.815924233757,None,1.2195767195767195,2.466648277360946,1155.815924233757,None,,,,,,,,,,,,,,,,,63,001,2023_Apr_05_1850,SpeechDraft1Carolyn_lessNoise_PlusLocalization,2021.2.3,59.95637147530804,
,,,,,,,,midRight,13.0,3,ch1Sound_localizationTask.wav,13.0,"(1142, 878)","(182, -202)",190,-338,,,,,,,,,0,4,4,5,,,,,,,,,,,,,,,,,,,,,,,,,,,,,,,,,,,,,,,,,,,,1158.2834123531356,None,1159.3824826250784,None,1160.3158257408068,None,1.7084656084656085,2.816257460974157,1160.3158257408068,None,,,,,,,,,,,,,,,,,63,001,2023_Apr_05_1850,SpeechDraft1Carolyn_lessNoise_PlusLocalization,2021.2.3,59.95637147530804,
,,,,,,,,center,0.0,6,ch1Sound_localizationTask.wav,0.0,"(952, 878)","(-8,-202)",0,-338,,,,,,,,,0,5,5,3,,,,,,,,,,,,,,,,,,,,,,,,,,,,,,,,,,,,,,,,,,,,1163.1334408228286,None,1164.2326228041202,None,1165.1659225919284,None,1.480952380952381,2.782316113822162,1165.1659225919284,None,,,,,,,,,,,,,,,,,63,001,2023_Apr_05_1850,SpeechDraft1Carolyn_lessNoise_PlusLocalization,2021.2.3,59.95637147530804,
,,,,,,,,midRight,13.0,3,ch1Sound_localizationTask.wav,13.0,"(1142, 878)","(182, -202)",190,-338,,,,,,,,,0,6,6,5,,,,,,,,,,,,,,,,,,,,,,,,,,,,,,,,,,,,,,,,,,,,1167.9498180961236,None,1169.049086309038,None,1169.982541942969,None,1.6275132275132276,2.267133492976427,1169.982541942969,None,,,,,,,,,,,,,,,,,63,001,2023_Apr_05_1850,SpeechDraft1Carolyn_lessNoise_PlusLocalization,2021.2.3,59.95637147530804,
,,,,,,,,farRight,19.1,4,ch1Sound_localizationTask.wav,19.1,"(1237, 878)","(277,-202)",285,-338,,,,,,,,,1,0,7,6,,,,,,,,,,,,,,,,,,,,,,,,,,,,,,,,,,,,,,,,,,,,1172.2662448049523,None,1173.3659349838272,None,1174.299226779025,None,1.735978835978836,2.933102529961616,1174.299226779025,None,,,,,,,,,,,,,,,,,63,001,2023_Apr_05_1850,SpeechDraft1Carolyn_lessNoise_PlusLocalization,2021.2.3,59.95637147530804,
,,,,,,,,midRight,13.0,3,ch1Sound_localizationTask.wav,13.0,"(1142, 878)","(182, -202)",190,-338,,,,,,,,,1,1,8,5,,,,,,,,,,,,,,,,,,,,,,,,,,,,,,,,,,,,,,,,,,,,1177.2341064480133,None,1178.3492108751088,None,1179.2657326268964,None,1.7507936507936508,2.99990089610219,1179.2657326268964,None,,,,,,,,,,,,,,,,,63,001,2023_Apr_05_1850,SpeechDraft1Carolyn_lessNoise_PlusLocalization,2021.2.3,59.95637147530804,
,,,,,,,,nearLeft,-6.5,1,ch1Sound_localizationTask.wav,-6.5,"(857, 878)","(-103,-202)",-95,-338,,,,,,,,,1,2,9,2,,,,,,,,,,,,,,,,,,,,,,,,,,,,,,,,,,,,,,,,,,,,1182.2677515470423,None,1183.382402998861,None,1184.2991828820668,None,1.3597883597883598,2.3160511017777026,1184.2991828820668,None,,,,,,,,,,,,,,,,,63,001,2023_Apr_05_1850,SpeechDraft1Carolyn_lessNoise_PlusLocalization,2021.2.3,59.95637147530804,
,,,,,,,,nearRight,6.5,0,ch1Sound_localizationTask.wav,6.5,"(1047, 878)","(87, -202)",95,-338,,,,,,,,,1,3,10,4,,,,,,,,,,,,,,,,,,,,,,,,,,,,,,,,,,,,,,,,,,,,1186.6165658668615,None,1187.715954896994,None,1188.6492303479463,None,1.564021164021164,1.8010079599916935,1188.6492303479463,None,,,,,,,,,,,,,,,,,63,001,2023_Apr_05_1850,SpeechDraft1Carolyn_lessNoise_PlusLocalization,2021.2.3,59.95637147530804,
,,,,,,,,farRight,19.1,4,ch1Sound_localizationTask.wav,19.1,"(1237, 878)","(277,-202)",285,-338,,,,,,,,,1,4,11,6,,,,,,,,,,,,,,,,,,,,,,,,,,,,,,,,,,,,,,,,,,,,1190.4662674348801,None,1191.5659428890795,None,1192.499367211014,None,1.7925925925925927,2.9994998890906572,1192.499367211014,None,,,,,,,,,,,,,,,,,63,001,2023_Apr_05_1850,SpeechDraft1Carolyn_lessNoise_PlusLocalization,2021.2.3,59.95637147530804,
,,,,,,,,farLeft,-19.1,5,ch1Sound_localizationTask.wav,-19.1,"(667, 878)","(-293,-202)",-285,-338,,,,,,,,,1,5,12,0,,,,,,,,,,,,,,,,,,,,,,,,,,,,,,,,,,,,,,,,,,,,1195.5003520571627,None,1196.5991802411154,None,1197.53259376809,None,1.0825396825396827,2.4179478748701513,1197.53259376809,None,,,,,,,,,,,,,,,,,63,001,2023_Apr_05_1850,SpeechDraft1Carolyn_lessNoise_PlusLocalization,2021.2.3,59.95637147530804,
,,,,,,,,midRight,13.0,3,ch1Sound_localizationTask.wav,13.0,"(1142, 878)","(182, -202)",190,-338,,,,,,,,,1,6,13,5,,,,,,,,,,,,,,,,,,,,,,,,,,,,,,,,,,,,,,,,,,,,1199.9663837328553,None,1201.0660511511378,None,1201.9992365459912,None,1.2264550264550265,1.2015768000856042,1201.9992365459912,None,,,,,,,,,,,,,,,,,63,001,2023_Apr_05_1850,SpeechDraft1Carolyn_lessNoise_PlusLocalization,2021.2.3,59.95637147530804,
,,,,,,,,midLeft,-13.0,2,ch1Sound_localizationTask.wav,-13.0,"(762, 878)","(-198,-202)",-190,-338,,,,,,,,,2,0,14,1,,,,,,,,,,,,,,,,,,,,,,,,,,,,,,,,,,,,,,,,,,,,1203.2162300520577,None,1204.316008838825,None,1205.2492995900102,None,1.2232804232804233,2.252344544045627,1205.2492995900102,None,,,,,,,,,,,,,,,,,63,001,2023_Apr_05_1850,SpeechDraft1Carolyn_lessNoise_PlusLocalization,2021.2.3,59.95637147530804,
,,,,,,,,farLeft,-19.1,5,ch1Sound_localizationTask.wav,-19.1,"(667, 878)","(-293,-202)",-285,-338,,,,,,,,,2,1,15,0,,,,,,,,,,,,,,,,,,,,,,,,,,,,,,,,,,,,,,,,,,,,1207.5161819350906,None,1208.615952171851,None,1209.5492992270738,None,1.337037037037037,2.1990033867768943,1209.5492992270738,None,,,,,,,,,,,,,,,,,63,001,2023_Apr_05_1850,SpeechDraft1Carolyn_lessNoise_PlusLocalization,2021.2.3,59.95637147530804,
,,,,,,,,center,0.0,6,ch1Sound_localizationTask.wav,0.0,"(952, 878)","(-8,-202)",0,-338,,,,,,,,,2,2,16,3,,,,,,,,,,,,,,,,,,,,,,,,,,,,,,,,,,,,,,,,,,,,1211.751085696742,None,1212.8659390690736,None,1213.7825753069483,None,1.5042328042328044,1.8510315590538085,1213.7825753069483,None,,,,,,,,,,,,,,,,,63,001,2023_Apr_05_1850,SpeechDraft1Carolyn_lessNoise_PlusLocalization,2021.2.3,59.95637147530804,
,,,,,,,,midLeft,-13.0,2,ch1Sound_localizationTask.wav,-13.0,"(762, 878)","(-198,-202)",-190,-338,,,,,,,,,2,3,17,1,,,,,,,,,,,,,,,,,,,,,,,,,,,,,,,,,,,,,,,,,,,,1215.6497839409858,None,1216.7492697220296,None,1217.6825684821233,None,1.4005291005291005,2.4665656769648194,1217.6825684821233,None,,,,,,,,,,,,,,,,,63,001,2023_Apr_05_1850,SpeechDraft1Carolyn_lessNoise_PlusLocalization,2021.2.3,59.95637147530804,
,,,,,,,,midRight,13.0,3,ch1Sound_localizationTask.wav,13.0,"(1142, 878)","(182, -202)",190,-338,,,,,,,,,2,4,18,5,,,,,,,,,,,,,,,,,,,,,,,,,,,,,,,,,,,,,,,,,,,,1220.1511380411685,None,1221.2659441251308,None,1222.1826970707625,None,1.7798941798941799,2.6999344336800277,1222.1826970707625,None,,,,,,,,,,,,,,,,,63,001,2023_Apr_05_1850,SpeechDraft1Carolyn_lessNoise_PlusLocalization,2021.2.3,59.95637147530804,
,,,,,,,,midLeft,-13.0,2,ch1Sound_localizationTask.wav,-13.0,"(762, 878)","(-198,-202)",-190,-338,,,,,,,,,2,5,19,1,,,,,,,,,,,,,,,,,,,,,,,,,,,,,,,,,,,,,,,,,,,,1224.8996343347244,None,1225.99924741406,None,1226.9326061140746,None,1.1306878306878307,2.069508679676801,1226.9326061140746,None,,,,,,,,,,,,,,,,,63,001,2023_Apr_05_1850,SpeechDraft1Carolyn_lessNoise_PlusLocalization,2021.2.3,59.95637147530804,
,,,,,,,,center,0.0,6,ch1Sound_localizationTask.wav,0.0,"(952, 878)","(-8,-202)",0,-338,,,,,,,,,2,6,20,3,,,,,,,,,,,,,,,,,,,,,,,,,,,,,,,,,,,,,,,,,,,,1229.0162460641004,None,1230.115968564991,None,1231.049301438965,None,1.5767195767195767,2.366642880253494,1231.049301438965,None,,,,,,,,,,,,,,,,,63,001,2023_Apr_05_1850,SpeechDraft1Carolyn_lessNoise_PlusLocalization,2021.2.3,59.95637147530804,
,,,,,,,,farRight,19.1,4,ch1Sound_localizationTask.wav,19.1,"(1237, 878)","(277,-202)",285,-338,,,,,,,,,3,0,21,6,,,,,,,,,,,,,,,,,,,,,,,,,,,,,,,,,,,,,,,,,,,,1233.4170509800315,None,1234.5161067480221,None,1235.4493143819273,None,1.933862433862434,2.433148780837655,1235.4493143819273,None,,,,,,,,,,,,,,,,,63,001,2023_Apr_05_1850,SpeechDraft1Carolyn_lessNoise_PlusLocalization,2021.2.3,59.95637147530804,
,,,,,,,,farRight,19.1,4,ch1Sound_localizationTask.wav,19.1,"(1237, 878)","(277,-202)",285,-338,,,,,,,,,3,1,22,6,,,,,,,,,,,,,,,,,,,,,,,,,,,,,,,,,,,,,,,,,,,,1237.8834375590086,None,1238.9827424641699,None,1239.916040719021,None,1.7015873015873015,2.9154450511559844,1239.916040719021,None,,,,,,,,,,,,,,,,,63,001,2023_Apr_05_1850,SpeechDraft1Carolyn_lessNoise_PlusLocalization,2021.2.3,59.95637147530804,
,,,,,,,,nearLeft,-6.5,1,ch1Sound_localizationTask.wav,-6.5,"(857, 878)","(-103,-202)",-95,-338,,,,,,,,,3,2,23,2,,,,,,,,,,,,,,,,,,,,,,,,,,,,,,,,,,,,,,,,,,,,1242.832976352889,None,1243.9325764197856,None,1244.8659703209996,None,1.3984126984126983,2.28575135814026,1244.8659703209996,None,,,,,,,,,,,,,,,,,63,001,2023_Apr_05_1850,SpeechDraft1Carolyn_lessNoise_PlusLocalization,2021.2.3,59.95637147530804,
,,,,,,,,center,0.0,6,ch1Sound_localizationTask.wav,0.0,"(952, 878)","(-8,-202)",0,-338,,,,,,,,,3,3,24,3,,,,,,,,,,,,,,,,,,,,,,,,,,,,,,,,,,,,,,,,,,,,1247.1663423678838,None,1248.2659510960802,None,1249.1993579980917,None,1.5481481481481483,2.6816985909827054,1249.1993579980917,None,,,,,,,,,,,,,,,,,63,001,2023_Apr_05_1850,SpeechDraft1Carolyn_lessNoise_PlusLocalization,2021.2.3,59.95637147530804,
,,,,,,,,nearRight,6.5,0,ch1Sound_localizationTask.wav,6.5,"(1047, 878)","(87, -202)",95,-338,,,,,,,,,3,4,25,4,,,,,,,,,,,,,,,,,,,,,,,,,,,,,,,,,,,,,,,,,,,,1251.8833129191771,None,1252.9827578929253,None,1253.9159812578,None,1.4841269841269842,2.1669483510777354,1253.9159812578,None,,,,,,,,,,,,,,,,,63,001,2023_Apr_05_1850,SpeechDraft1Carolyn_lessNoise_PlusLocalization,2021.2.3,59.95637147530804,
,,,,,,,,midLeft,-13.0,2,ch1Sound_localizationTask.wav,-13.0,"(762, 878)","(-198,-202)",-190,-338,,,,,,,,,3,5,26,1,,,,,,,,,,,,,,,,,,,,,,,,,,,,,,,,,,,,,,,,,,,,1256.099626937881,None,1257.1993520921096,None,1258.1326964157633,None,1.2931216931216931,2.283863002900034,1258.1326964157633,None,,,,,,,,,,,,,,,,,63,001,2023_Apr_05_1850,SpeechDraft1Carolyn_lessNoise_PlusLocalization,2021.2.3,59.95637147530804,
,,,,,,,,nearLeft,-6.5,1,ch1Sound_localizationTask.wav,-6.5,"(857, 878)","(-103,-202)",-95,-338,,,,,,,,,3,6,27,2,,,,,,,,,,,,,,,,,,,,,,,,,,,,,,,,,,,,,,,,,,,,1260.4330372647382,None,1261.5328829651698,None,1262.4662484028377,None,1.51005291005291,2.4548856848850846,1262.4662484028377,None,,,,,,,,,,,,,,,,,63,001,2023_Apr_05_1850,SpeechDraft1Carolyn_lessNoise_PlusLocalization,2021.2.3,59.95637147530804,
,,,,,,,,midLeft,-13.0,2,ch1Sound_localizationTask.wav,-13.0,"(762, 878)","(-198,-202)",-190,-338,,,,,,,,,4,0,28,1,,,,,,,,,,,,,,,,,,,,,,,,,,,,,,,,,,,,,,,,,,,,1264.9339992329478,None,1266.0326926638372,None,1266.9660714538768,None,1.246031746031746,1.6523840501904488,1266.9660714538768,None,,,,,,,,,,,,,,,,,63,001,2023_Apr_05_1850,SpeechDraft1Carolyn_lessNoise_PlusLocalization,2021.2.3,59.95637147530804,
,,,,,,,,nearRight,6.5,0,ch1Sound_localizationTask.wav,6.5,"(1047, 878)","(87, -202)",95,-338,,,,,,,,,4,1,29,4,,,,,,,,,,,,,,,,,,,,,,,,,,,,,,,,,,,,,,,,,,,,1268.6329827317968,None,1269.7326688589528,None,1270.66602959577,None,1.6830687830687832,2.7674735230393708,1270.66602959577,None,,,,,,,,,,,,,,,,,63,001,2023_Apr_05_1850,SpeechDraft1Carolyn_lessNoise_PlusLocalization,2021.2.3,59.95637147530804,
,,,,,,,,nearRight,6.5,0,ch1Sound_localizationTask.wav,6.5,"(1047, 878)","(87, -202)",95,-338,,,,,,,,,4,2,30,4,,,,,,,,,,,,,,,,,,,,,,,,,,,,,,,,,,,,,,,,,,,,1273.4498191480525,None,1274.5493455911055,None,1275.4827487557195,None,1.6539682539682539,2.735036284662783,1275.4827487557195,None,,,,,,,,,,,,,,,,,63,001,2023_Apr_05_1850,SpeechDraft1Carolyn_lessNoise_PlusLocalization,2021.2.3,59.95637147530804,
,,,,,,,,farRight,19.1,4,ch1Sound_localizationTask.wav,19.1,"(1237, 878)","(277,-202)",285,-338,,,,,,,,,4,3,31,6,,,,,,,,,,,,,,,,,,,,,,,,,,,,,,,,,,,,,,,,,,,,1278.2331707561389,None,1279.3327659061179,None,1280.2660964480601,None,1.8544973544973544,3.068120809737593,1280.2660964480601,None,,,,,,,,,,,,,,,,,63,001,2023_Apr_05_1850,SpeechDraft1Carolyn_lessNoise_PlusLocalization,2021.2.3,59.95637147530804,
,,,,,,,,nearRight,6.5,0,ch1Sound_localizationTask.wav,6.5,"(1047, 878)","(87, -202)",95,-338,,,,,,,,,4,4,32,4,,,,,,,,,,,,,,,,,,,,,,,,,,,,,,,,,,,,,,,,,,,,1283.3502519517206,None,1284.4493468031287,None,1285.3827303731814,None,1.6608465608465608,2.5170878781937063,1285.3827303731814,None,,,,,,,,,,,,,,,,,63,001,2023_Apr_05_1850,SpeechDraft1Carolyn_lessNoise_PlusLocalization,2021.2.3,59.95637147530804,
,,,,,,,,farLeft,-19.1,5,ch1Sound_localizationTask.wav,-19.1,"(667, 878)","(-293,-202)",-285,-338,,,,,,,,,4,5,33,0,,,,,,,,,,,,,,,,,,,,,,,,,,,,,,,,,,,,,,,,,,,,1287.9164125858806,None,1289.0159935890697,None,1289.9493776829913,None,1.4121693121693122,1.798894568812102,1289.9493776829913,None,,,,,,,,,,,,,,,,,63,001,2023_Apr_05_1850,SpeechDraft1Carolyn_lessNoise_PlusLocalization,2021.2.3,59.95637147530804,
,,,,,,,,farLeft,-19.1,5,ch1Sound_localizationTask.wav,-19.1,"(667, 878)","(-293,-202)",-285,-338,,,,,,,,,4,6,34,0,,,,,,,,,,,,,,,,,,,,,,,,,,,,,,,,,,,,,,,,,,,,1291.7501861508936,None,1292.8493723808788,None,1293.782754050102,None,1.5206349206349206,2.1824014713056386,1293.782754050102,None,,,,,,,,,,,,,,,,,63,001,2023_Apr_05_1850,SpeechDraft1Carolyn_lessNoise_PlusLocalization,2021.2.3,59.95637147530804,
,,,,,,,,nearLeft,-6.5,1,ch1Sound_localizationTask.wav,-6.5,"(857, 878)","(-103,-202)",-95,-338,,,,,,,,,5,0,35,2,,,,,,,,,,,,,,,,,,,,,,,,,,,,,,,,,,,,,,,,,,,,1295.9662540229037,None,1297.0661481041461,None,1297.9993346109986,None,1.4962962962962962,2.332158610690385,1297.9993346109986,None,,,,,,,,,,,,,,,,,63,001,2023_Apr_05_1850,SpeechDraft1Carolyn_lessNoise_PlusLocalization,2021.2.3,59.95637147530804,
,,,,,,,,nearLeft,-6.5,1,ch1Sound_localizationTask.wav,-6.5,"(857, 878)","(-103,-202)",-95,-338,,,,,,,,,5,1,36,2,,,,,,,,,,,,,,,,,,,,,,,,,,,,,,,,,,,,,,,,,,,,1300.3329915138893,None,1301.4328067079186,None,1302.3661486278288,None,1.4841269841269842,2.5840768879279494,1302.3661486278288,None,,,,,,,,,,,,,,,,,63,001,2023_Apr_05_1850,SpeechDraft1Carolyn_lessNoise_PlusLocalization,2021.2.3,59.95637147530804,
,,,,,,,,farRight,19.1,4,ch1Sound_localizationTask.wav,19.1,"(1237, 878)","(277,-202)",285,-338,,,,,,,,,5,2,37,6,,,,,,,,,,,,,,,,,,,,,,,,,,,,,,,,,,,,,,,,,,,,1304.9664851999842,None,1306.0660664350726,None,1306.9993483670987,None,1.7428571428571429,2.2334997188299894,1306.9993483670987,None,,,,,,,,,,,,,,,,,63,001,2023_Apr_05_1850,SpeechDraft1Carolyn_lessNoise_PlusLocalization,2021.2.3,59.95637147530804,
,,,,,,,,center,0.0,6,ch1Sound_localizationTask.wav,0.0,"(952, 878)","(-8,-202)",0,-338,,,,,,,,,5,3,38,3,,,,,,,,,,,,,,,,,,,,,,,,,,,,,,,,,,,,,,,,,,,,1309.2499472177587,None,1310.349420112092,None,1311.2828283999115,None,1.5,2.333077335730195,1311.2828283999115,None,,,,,,,,,,,,,,,,,63,001,2023_Apr_05_1850,SpeechDraft1Carolyn_lessNoise_PlusLocalization,2021.2.3,59.95637147530804,
,,,,,,,,midRight,13.0,3,ch1Sound_localizationTask.wav,13.0,"(1142, 878)","(182, -202)",190,-338,,,,,,,,,5,4,39,5,,,,,,,,,,,,,,,,,,,,,,,,,,,,,,,,,,,,,,,,,,,,1313.6330978297628,None,1314.7327764397487,None,1315.6660373830236,None,1.808994708994709,2.316241580992937,1315.6660373830236,None,,,,,,,,,,,,,,,,,63,001,2023_Apr_05_1850,SpeechDraft1Carolyn_lessNoise_PlusLocalization,2021.2.3,59.95637147530804,
,,,,,,,,nearRight,6.5,0,ch1Sound_localizationTask.wav,6.5,"(1047, 878)","(87, -202)",95,-338,,,,,,,,,5,5,40,4,,,,,,,,,,,,,,,,,,,,,,,,,,,,,,,,,,,,,,,,,,,,1317.984457344748,None,1319.0994340451434,None,1320.0160581828095,None,1.6746031746031746,2.385165832005441,1320.0160581828095,None,,,,,,,,,,,,,,,,,63,001,2023_Apr_05_1850,SpeechDraft1Carolyn_lessNoise_PlusLocalization,2021.2.3,59.95637147530804,
,,,,,,,,farLeft,-19.1,5,ch1Sound_localizationTask.wav,-19.1,"(667, 878)","(-293,-202)",-285,-338,,,,,,,,,5,6,41,0,,,,,,,,,,,,,,,,,,,,,,,,,,,,,,,,,,,,,,,,,,,,1322.4163759779185,None,1323.516062703915,None,1324.4497200031765,None,1.364021164021164,2.000369504094124,1324.4497200031765,None,,,,,,,,,,,,,,,,,63,001,2023_Apr_05_1850,SpeechDraft1Carolyn_lessNoise_PlusLocalization,2021.2.3,59.95637147530804,
,,,,,,,,farLeft,-19.1,5,ch1Sound_localizationTask.wav,-19.1,"(667, 878)","(-293,-202)",-285,-338,,,,,,,,,6,0,42,0,,,,,,,,,,,,,,,,,,,,,,,,,,,,,,,,,,,,,,,,,,,,1326.4664428150281,None,1327.5660984609276,None,1328.4994384720922,None,1.3243386243386244,2.069510367233306,1328.4994384720922,None,,,,,,,,,,,,,,,,,63,001,2023_Apr_05_1850,SpeechDraft1Carolyn_lessNoise_PlusLocalization,2021.2.3,59.95637147530804,
,,,,,,,,nearRight,6.5,0,ch1Sound_localizationTask.wav,6.5,"(1047, 878)","(87, -202)",95,-338,,,,,,,,,6,1,43,4,,,,,,,,,,,,,,,,,,,,,,,,,,,,,,,,,,,,,,,,,,,,1330.5830850810744,None,1331.6828784020618,None,1332.6162209347822,None,1.662962962962963,2.018924341071397,1332.6162209347822,None,,,,,,,,,,,,,,,,,63,001,2023_Apr_05_1850,SpeechDraft1Carolyn_lessNoise_PlusLocalization,2021.2.3,59.95637147530804,
,,,,,,,,farLeft,-19.1,5,ch1Sound_localizationTask.wav,-19.1,"(667, 878)","(-293,-202)",-285,-338,,,,,,,,,6,2,44,0,,,,,,,,,,,,,,,,,,,,,,,,,,,,,,,,,,,,,,,,,,,,1334.649891038891,None,1335.7494270619936,None,1336.6827292749658,None,1.2920634920634921,1.9343365686945617,1336.6827292749658,None,,,,,,,,,,,,,,,,,63,001,2023_Apr_05_1850,SpeechDraft1Carolyn_lessNoise_PlusLocalization,2021.2.3,59.95637147530804,
,,,,,,,,midLeft,-13.0,2,ch1Sound_localizationTask.wav,-13.0,"(762, 878)","(-198,-202)",-190,-338,,,,,,,,,6,3,45,1,,,,,,,,,,,,,,,,,,,,,,,,,,,,,,,,,,,,,,,,,,,,1338.6330260140821,None,1339.7328411499038,None,1340.6661219610833,None,1.403174603174603,2.350003878120333,1340.6661219610833,None,,,,,,,,,,,,,,,,,63,001,2023_Apr_05_1850,SpeechDraft1Carolyn_lessNoise_PlusLocalization,2021.2.3,59.95637147530804,
,,,,,,,,nearLeft,-6.5,1,ch1Sound_localizationTask.wav,-6.5,"(857, 878)","(-103,-202)",-95,-338,,,,,,,,,6,4,46,2,,,,,,,,,,,,,,,,,,,,,,,,,,,,,,,,,,,,,,,,,,,,1343.0174023481086,None,1344.1162234060466,None,1345.0494995848276,None,1.608994708994709,2.1824081358499825,1345.0494995848276,None,,,,,,,,,,,,,,,,,63,001,2023_Apr_05_1850,SpeechDraft1Carolyn_lessNoise_PlusLocalization,2021.2.3,59.95637147530804,
,,,,,,,,center,0.0,6,ch1Sound_localizationTask.wav,0.0,"(952, 878)","(-8,-202)",0,-338,,,,,,,,,6,5,47,3,,,,,,,,,,,,,,,,,,,,,,,,,,,,,,,,,,,,,,,,,,,,1347.233927524183,None,1348.332680649124,None,1349.2662401581183,None,1.7910052910052912,2.217375268228352,1349.2662401581183,None,,,,,,,,,,,,,,,,,63,001,2023_Apr_05_1850,SpeechDraft1Carolyn_lessNoise_PlusLocalization,2021.2.3,59.95637147530804,
,,,,,,,,nearRight,6.5,0,ch1Sound_localizationTask.wav,6.5,"(1047, 878)","(87, -202)",95,-338,,,,,,,,,6,6,48,4,,,,,,,,,,,,,,,,,,,,,,,,,,,,,,,,,,,,,,,,,,,,1351.4849092788063,None,1352.599510423839,None,1353.5160898617469,None,1.7153439153439154,2.5163955334573984,1353.5160898617469,None,,,,,,,,,,,,,,,,,63,001,2023_Apr_05_1850,SpeechDraft1Carolyn_lessNoise_PlusLocalization,2021.2.3,59.95637147530804,
,,,,,,,,farLeft,-19.1,5,ch1Sound_localizationTask.wav,-19.1,"(667, 878)","(-293,-202)",-285,-338,,,,,,,,,7,0,49,0,,,,,,,,,,,,,,,,,,,,,,,,,,,,,,,,,,,,,,,,,,,,1356.0498769837432,None,1357.149600808043,None,1358.082870571874,None,1.546031746031746,3.399959112983197,1358.082870571874,None,,,,,,,,,,,,,,,,,63,001,2023_Apr_05_1850,SpeechDraft1Carolyn_lessNoise_PlusLocalization,2021.2.3,59.95637147530804,
,,,,,,,,farRight,19.1,4,ch1Sound_localizationTask.wav,19.1,"(1237, 878)","(277,-202)",285,-338,,,,,,,,,7,1,50,6,,,,,,,,,,,,,,,,,,,,,,,,,,,,,,,,,,,,,,,,,,,,1361.4834360880777,None,1362.5828151311725,None,1363.5161146461032,None,1.762962962962963,3.231905146036297,1363.5161146461032,None,,,,,,,,,,,,,,,,,63,001,2023_Apr_05_1850,SpeechDraft1Carolyn_lessNoise_PlusLocalization,2021.2.3,59.95637147530804,
,,,,,,,,center,0.0,6,ch1Sound_localizationTask.wav,0.0,"(952, 878)","(-8,-202)",0,-338,,,,,,,,,7,2,51,3,,,,,,,,,,,,,,,,,,,,,,,,,,,,,,,,,,,,,,,,,,,,1366.7497469941154,None,1367.8494976200163,None,1368.782790652942,None,1.483068783068783,2.900867659598589,1368.782790652942,None,,,,,,,,,,,,,,,,,63,001,2023_Apr_05_1850,SpeechDraft1Carolyn_lessNoise_PlusLocalization,2021.2.3,59.95637147530804,
,,,,,,,,nearLeft,-6.5,1,ch1Sound_localizationTask.wav,-6.5,"(857, 878)","(-103,-202)",-95,-338,,,,,,,,,7,3,52,2,,,,,,,,,,,,,,,,,,,,,,,,,,,,,,,,,,,,,,,,,,,,1371.699858665932,None,1372.7994780200534,None,1373.7328908578493,None,1.6047619047619048,2.3336658431217074,1373.7328908578493,None,,,,,,,,,,,,,,,,,63,001,2023_Apr_05_1850,SpeechDraft1Carolyn_lessNoise_PlusLocalization,2021.2.3,59.95637147530804,
,,,,,,,,center,0.0,6,ch1Sound_localizationTask.wav,0.0,"(952, 878)","(-8,-202)",0,-338,,,,,,,,,7,4,53,3,,,,,,,,,,,,,,,,,,,,,,,,,,,,,,,,,,,,,,,,,,,,1376.0832588607445,None,1377.182937221136,None,1378.116134738084,None,1.7417989417989417,2.1675082091242075,1378.116134738084,None,,,,,,,,,,,,,,,,,63,001,2023_Apr_05_1850,SpeechDraft1Carolyn_lessNoise_PlusLocalization,2021.2.3,59.95637147530804,
,,,,,,,,midRight,13.0,3,ch1Sound_localizationTask.wav,13.0,"(1142, 878)","(182, -202)",190,-338,,,,,,,,,7,5,54,5,,,,,,,,,,,,,,,,,,,,,,,,,,,,,,,,,,,,,,,,,,,,1380.2999366801232,None,1381.3995526591316,None,1382.3328933888115,None,1.8248677248677247,2.81716879690066,1382.3328933888115,None,,,,,,,,,,,,,,,,,63,001,2023_Apr_05_1850,SpeechDraft1Carolyn_lessNoise_PlusLocalization,2021.2.3,59.95637147530804,
,,,,,,,,midRight,13.0,3,ch1Sound_localizationTask.wav,13.0,"(1142, 878)","(182, -202)",190,-338,,,,,,,,,7,6,55,5,,,,,,,,,,,,,,,,,,,,,,,,,,,,,,,,,,,,,,,,,,,,1385.1667874800041,None,1386.2661491809413,None,1387.1995372688398,None,1.7608465608465609,2.6162655078805983,1387.1995372688398,None,,,,,,,,,,,,,,,,,63,001,2023_Apr_05_1850,SpeechDraft1Carolyn_lessNoise_PlusLocalization,2021.2.3,59.95637147530804,
,,,,,,,,,,,,,,,,,,,,,,,,,,,,,,,,,,,,,,,,,,,,,,,,,,,,,,,,,,,,,,,,,,,,,,,,,,,,,,,,,,space,59.63755881180987,1389.8998055788688,None,,,,,,,,,,,,,63,001,2023_Apr_05_1850,SpeechDraft1Carolyn_lessNoise_PlusLocalization,2021.2.3,59.95637147530804,
,,,,,,,,nearLeft,-6.5,1,ch1Sound_localizationTask.wav,-6.5,"(857, 878)","(-103,-202)",-95,-338,,,,,,,,,,,,,0,0,0,2,,,,,,,,,,,,,,,,,,,,,,,,,,,,,,,,,,,,,,,,1449.5829684091732,None,,,1452.6162658189423,None,1.397883597883598,3.6540991640649736,1452.6162658189423,None,,,,,1389.8998055788688,None,1450.5831861789338,None,1450.766715173144,1450.7834182209335,,,,,,,63,001,2023_Apr_05_1850,SpeechDraft1Carolyn_lessNoise_PlusLocalization,2021.2.3,59.95637147530804,
,,,,,,,,nearRight,6.5,0,ch1Sound_localizationTask.wav,6.5,"(1047, 878)","(87, -202)",95,-338,,,,,,,,,,,,,0,1,1,4,,,,,,,,,,,,,,,,,,,,,,,,,,,,,,,,,,,,,,,,1456.2678184150718,None,,,1459.2995803910308,None,1.511111111111111,1.633783564902842,1459.2995803910308,None,,,,,,,1457.2833216320723,None,1457.4665806698613,1457.4832319649868,,,,,,,63,001,2023_Apr_05_1850,SpeechDraft1Carolyn_lessNoise_PlusLocalization,2021.2.3,59.95637147530804,
,,,,,,,,farLeft,-19.1,5,ch1Sound_localizationTask.wav,-19.1,"(667, 878)","(-293,-202)",-285,-338,,,,,,,,,,,,,0,2,2,0,,,,,,,,,,,,,,,,,,,,,,,,,,,,,,,,,,,,,,,,1460.9499185429886,None,,,1463.966354764998,None,1.2867724867724868,1.9999199188314378,1463.966354764998,None,,,,,,,1461.9499181457795,None,1462.1332787908614,1462.149914378766,,,,,,,63,001,2023_Apr_05_1850,SpeechDraft1Carolyn_lessNoise_PlusLocalization,2021.2.3,59.95637147530804,
,,,,,,,,midLeft,-13.0,2,ch1Sound_localizationTask.wav,-13.0,"(762, 878)","(-198,-202)",-190,-338,,,,,,,,,,,,,0,3,3,1,,,,,,,,,,,,,,,,,,,,,,,,,,,,,,,,,,,,,,,,1465.9832181651145,None,,,1468.9997377060354,None,1.3931216931216932,2.782955626025796,1468.9997377060354,None,,,,,,,1466.9832694199868,None,1467.166597588919,1467.1833267640322,,,,,,,63,001,2023_Apr_05_1850,SpeechDraft1Carolyn_lessNoise_PlusLocalization,2021.2.3,59.95637147530804,
,,,,,,,,center,0.0,6,ch1Sound_localizationTask.wav,0.0,"(952, 878)","(-8,-202)",0,-338,,,,,,,,,,,,,0,4,4,3,,,,,,,,,,,,,,,,,,,,,,,,,,,,,,,,,,,,,,,,1471.7999726417474,None,,,1474.8164624427445,None,1.46984126984127,4.0469077890738845,1474.8164624427445,None,,,,,,,1472.7999759451486,None,1472.983377872035,1472.999987710733,,,,,,,63,001,2023_Apr_05_1850,SpeechDraft1Carolyn_lessNoise_PlusLocalization,2021.2.3,59.95637147530804,
,,,,,,,,midLeft,-13.0,2,ch1Sound_localizationTask.wav,-13.0,"(762, 878)","(-198,-202)",-190,-338,,,,,,,,,,,,,0,5,5,1,,,,,,,,,,,,,,,,,,,,,,,,,,,,,,,,,,,,,,,,1478.8834108579904,None,,,1481.899642740842,None,1.4142857142857141,3.7179916789755225,1481.899642740842,None,,,,,,,1479.8832877129316,None,1480.0666082501411,1480.083233691752,,,,,,,63,001,2023_Apr_05_1850,SpeechDraft1Carolyn_lessNoise_PlusLocalization,2021.2.3,59.95637147530804,
,,,,,,,,nearRight,6.5,0,ch1Sound_localizationTask.wav,6.5,"(1047, 878)","(87, -202)",95,-338,,,,,,,,,,,,,0,6,6,4,,,,,,,,,,,,,,,,,,,,,,,,,,,,,,,,,,,,,,,,1485.6332518379204,None,,,1488.6495731021278,None,1.565079365079365,2.583122166339308,1488.6495731021278,None,,,,,,,1486.6332628168166,None,1486.8166204690933,1486.8332834541798,,,,,,,63,001,2023_Apr_05_1850,SpeechDraft1Carolyn_lessNoise_PlusLocalization,2021.2.3,59.95637147530804,
,,,,,,,,midRight,13.0,3,ch1Sound_localizationTask.wav,13.0,"(1142, 878)","(182, -202)",190,-338,,,,,,,,,,,,,1,0,7,5,,,,,,,,,,,,,,,,,,,,,,,,,,,,,,,,,,,,,,,,1491.2502027088776,None,,,1494.2664220500737,None,1.6481481481481481,4.915232566185296,1494.2664220500737,None,,,,,,,1492.2499476247467,None,1492.4334171288647,1492.4499176801182,,,,,,,63,001,2023_Apr_05_1850,SpeechDraft1Carolyn_lessNoise_PlusLocalization,2021.2.3,59.95637147530804,
,,,,,,,,midRight,13.0,3,ch1Sound_localizationTask.wav,13.0,"(1142, 878)","(182, -202)",190,-338,,,,,,,,,,,,,1,1,8,5,,,,,,,,,,,,,,,,,,,,,,,,,,,,,,,,,,,,,,,,1499.1999018378556,None,,,1502.2163676847704,None,1.615873015873016,3.2149600498378277,1502.2163676847704,None,,,,,,,1500.1999152079225,None,1500.3832613127306,1500.400018347893,,,,,,,63,001,2023_Apr_05_1850,SpeechDraft1Carolyn_lessNoise_PlusLocalization,2021.2.3,59.95637147530804,
,,,,,,,,center,0.0,6,ch1Sound_localizationTask.wav,0.0,"(952, 878)","(-8,-202)",0,-338,,,,,,,,,,,,,1,2,9,3,,,,,,,,,,,,,,,,,,,,,,,,,,,,,,,,,,,,,,,,1505.4335484057665,None,,,1508.44982450502,None,1.5116402116402117,5.748736212030053,1508.44982450502,None,,,,,,,1506.433400300797,None,1506.6167783518322,1506.6333803390153,,,,,,,63,001,2023_Apr_05_1850,SpeechDraft1Carolyn_lessNoise_PlusLocalization,2021.2.3,59.95637147530804,
,,,,,,,,nearLeft,-6.5,1,ch1Sound_localizationTask.wav,-6.5,"(857, 878)","(-103,-202)",-95,-338,,,,,,,,,,,,,1,3,10,2,,,,,,,,,,,,,,,,,,,,,,,,,,,,,,,,,,,,,,,,1514.20033728797,None,,,1517.2163693490438,None,1.42010582010582,2.8667419319972396,1517.2163693490438,None,,,,,,,1515.2000966328196,None,1515.3833148269914,1515.4000071119517,,,,,,,63,001,2023_Apr_05_1850,SpeechDraft1Carolyn_lessNoise_PlusLocalization,2021.2.3,59.95637147530804,
,,,,,,,,center,0.0,6,ch1Sound_localizationTask.wav,0.0,"(952, 878)","(-8,-202)",0,-338,,,,,,,,,,,,,1,4,11,3,,,,,,,,,,,,,,,,,,,,,,,,,,,,,,,,,,,,,,,,1520.1000309279189,None,,,1523.1163940010592,None,1.5031746031746032,3.4497950826771557,1523.1163940010592,None,,,,,,,1521.0999653097242,None,1521.2833455838263,1521.2999720680527,,,,,,,63,001,2023_Apr_05_1850,SpeechDraft1Carolyn_lessNoise_PlusLocalization,2021.2.3,59.95637147530804,
,,,,,,,,farRight,19.1,4,ch1Sound_localizationTask.wav,19.1,"(1237, 878)","(277,-202)",285,-338,,,,,,,,,,,,,1,5,12,6,,,,,,,,,,,,,,,,,,,,,,,,,,,,,,,,,,,,,,,,1526.5672298697755,None,,,1529.5830605300143,None,1.6354497354497355,3.8674885109066963,1529.5830605300143,None,,,,,,,1527.5666157221422,None,1527.7500881557353,1527.7667362778448,,,,,,,63,001,2023_Apr_05_1850,SpeechDraft1Carolyn_lessNoise_PlusLocalization,2021.2.3,59.95637147530804,
,,,,,,,,midLeft,-13.0,2,ch1Sound_localizationTask.wav,-13.0,"(762, 878)","(-198,-202)",-190,-338,,,,,,,,,,,,,1,6,13,1,,,,,,,,,,,,,,,,,,,,,,,,,,,,,,,,,,,,,,,,1533.4668360287324,None,,,1536.4831779329106,None,1.4296296296296296,3.3497464740648866,1536.4831779329106,None,,,,,,,1534.4666765057482,None,1534.650022092741,1534.6666911840439,,,,,,,63,001,2023_Apr_05_1850,SpeechDraft1Carolyn_lessNoise_PlusLocalization,2021.2.3,59.95637147530804,
,,,,,,,,farRight,19.1,4,ch1Sound_localizationTask.wav,19.1,"(1237, 878)","(277,-202)",285,-338,,,,,,,,,,,,,2,0,14,6,,,,,,,,,,,,,,,,,,,,,,,,,,,,,,,,,,,,,,,,1539.8500804579817,None,,,1542.8666000748053,None,1.8322751322751323,5.350175867322832,1542.8666000748053,None,,,,,,,1540.8500563781708,None,1541.0333122359589,1541.0500348489732,,,,,,,63,001,2023_Apr_05_1850,SpeechDraft1Carolyn_lessNoise_PlusLocalization,2021.2.3,59.95637147530804,
,,,,,,,,nearRight,6.5,0,ch1Sound_localizationTask.wav,6.5,"(1047, 878)","(87, -202)",95,-338,,,,,,,,,,,,,2,1,15,4,,,,,,,,,,,,,,,,,,,,,,,,,,,,,,,,,,,,,,,,1548.2333474718034,None,,,1551.249669814948,None,1.5941798941798941,2.250355462078005,1551.249669814948,None,,,,,,,1549.2334589641541,None,1549.4168370109983,1549.433434308041,,,,,,,63,001,2023_Apr_05_1850,SpeechDraft1Carolyn_lessNoise_PlusLocalization,2021.2.3,59.95637147530804,
,,,,,,,,midRight,13.0,3,ch1Sound_localizationTask.wav,13.0,"(1142, 878)","(182, -202)",190,-338,,,,,,,,,,,,,2,2,16,5,,,,,,,,,,,,,,,,,,,,,,,,,,,,,,,,,,,,,,,,1553.5171272400767,None,,,1556.5331246838905,None,1.6597883597883598,3.7000038786791265,1556.5331246838905,None,,,,,,,1554.5166681930423,None,1554.7000672938302,1554.716676873155,,,,,,,63,001,2023_Apr_05_1850,SpeechDraft1Carolyn_lessNoise_PlusLocalization,2021.2.3,59.95637147530804,
,,,,,,,,midRight,13.0,3,ch1Sound_localizationTask.wav,13.0,"(1142, 878)","(182, -202)",190,-338,,,,,,,,,,,,,2,3,17,5,,,,,,,,,,,,,,,,,,,,,,,,,,,,,,,,,,,,,,,,1560.2502841078676,None,,,1563.266507575754,None,1.7052910052910053,2.150956202298403,1563.266507575754,None,,,,,,,1561.250071424991,None,1561.433362300042,1561.4500270718709,,,,,,,63,001,2023_Apr_05_1850,SpeechDraft1Carolyn_lessNoise_PlusLocalization,2021.2.3,59.95637147530804,
,,,,,,,,midLeft,-13.0,2,ch1Sound_localizationTask.wav,-13.0,"(762, 878)","(-198,-202)",-190,-338,,,,,,,,,,,,,2,4,18,1,,,,,,,,,,,,,,,,,,,,,,,,,,,,,,,,,,,,,,,,1565.4334442070685,None,,,1568.449785288889,None,1.3883597883597885,2.281953359954059,1568.449785288889,None,,,,,,,1566.4333837768063,None,1566.6166697628796,1566.633469373919,,,,,,,63,001,2023_Apr_05_1850,SpeechDraft1Carolyn_lessNoise_PlusLocalization,2021.2.3,59.95637147530804,
,,,,,,,,nearRight,6.5,0,ch1Sound_localizationTask.wav,6.5,"(1047, 878)","(87, -202)",95,-338,,,,,,,,,,,,,2,5,19,4,,,,,,,,,,,,,,,,,,,,,,,,,,,,,,,,,,,,,,,,1570.7346071549691,None,,,1573.7663815561682,None,1.5428571428571427,2.248738843947649,1573.7663815561682,None,,,,,,,1571.7500699460506,None,1571.9333946770057,1571.9500801679678,,,,,,,63,001,2023_Apr_05_1850,SpeechDraft1Carolyn_lessNoise_PlusLocalization,2021.2.3,59.95637147530804,
,,,,,,,,center,0.0,6,ch1Sound_localizationTask.wav,0.0,"(952, 878)","(-8,-202)",0,-338,,,,,,,,,,,,,2,6,20,3,,,,,,,,,,,,,,,,,,,,,,,,,,,,,,,,,,,,,,,,1576.017170404084,None,,,1579.0330595248379,None,1.5375661375661376,2.6661338000558317,1579.0330595248379,None,,,,,,,1577.0167479291558,None,1577.2000833707862,1577.2167528481223,,,,,,,63,001,2023_Apr_05_1850,SpeechDraft1Carolyn_lessNoise_PlusLocalization,2021.2.3,59.95637147530804,
,,,,,,,,midRight,13.0,3,ch1Sound_localizationTask.wav,13.0,"(1142, 878)","(182, -202)",190,-338,,,,,,,,,,,,,3,0,21,5,,,,,,,,,,,,,,,,,,,,,,,,,,,,,,,,,,,,,,,,1581.7014105129056,None,,,1584.733138205018,None,1.6428571428571428,3.233398996759206,1584.733138205018,None,,,,,,,1582.7167173698545,None,1582.900032913778,1582.9167323531583,,,,,,,63,001,2023_Apr_05_1850,SpeechDraft1Carolyn_lessNoise_PlusLocalization,2021.2.3,59.95637147530804,
,,,,,,,,farLeft,-19.1,5,ch1Sound_localizationTask.wav,-19.1,"(667, 878)","(-293,-202)",-285,-338,,,,,,,,,,,,,3,1,22,0,,,,,,,,,,,,,,,,,,,,,,,,,,,,,,,,,,,,,,,,1587.9833817840554,None,,,1590.999758773949,None,1.2941798941798943,2.532787790056318,1590.999758773949,None,,,,,,,1588.983559651766,None,1589.1667439057492,1589.183428878896,,,,,,,63,001,2023_Apr_05_1850,SpeechDraft1Carolyn_lessNoise_PlusLocalization,2021.2.3,59.95637147530804,
,,,,,,,,center,0.0,6,ch1Sound_localizationTask.wav,0.0,"(952, 878)","(-8,-202)",0,-338,,,,,,,,,,,,,3,2,23,3,,,,,,,,,,,,,,,,,,,,,,,,,,,,,,,,,,,,,,,,1593.5347108361311,None,,,1596.5665071220137,None,1.529100529100529,2.9505743347108364,1596.5665071220137,None,,,,,,,1594.550135285128,None,1594.7333588427864,1594.7501568859443,,,,,,,63,001,2023_Apr_05_1850,SpeechDraft1Carolyn_lessNoise_PlusLocalization,2021.2.3,59.95637147530804,
,,,,,,,,midLeft,-13.0,2,ch1Sound_localizationTask.wav,-13.0,"(762, 878)","(-198,-202)",-190,-338,,,,,,,,,,,,,3,3,24,1,,,,,,,,,,,,,,,,,,,,,,,,,,,,,,,,,,,,,,,,1599.533472979907,None,,,1602.549784429837,None,1.3957671957671958,2.864958545193076,1602.549784429837,None,,,,,,,1600.5333925951272,None,1600.7167665120214,1600.7334875850938,,,,,,,63,001,2023_Apr_05_1850,SpeechDraft1Carolyn_lessNoise_PlusLocalization,2021.2.3,59.95637147530804,
,,,,,,,,midLeft,-13.0,2,ch1Sound_localizationTask.wav,-13.0,"(762, 878)","(-198,-202)",-190,-338,,,,,,,,,,,,,3,4,25,1,,,,,,,,,,,,,,,,,,,,,,,,,,,,,,,,,,,,,,,,1605.4173025209457,None,,,1608.43321675295,None,1.361904761904762,2.7662969259545207,1608.43321675295,None,,,,,,,1606.416798924096,None,1606.600100577809,1606.6168021671474,,,,,,,63,001,2023_Apr_05_1850,SpeechDraft1Carolyn_lessNoise_PlusLocalization,2021.2.3,59.95637147530804,
,,,,,,,,nearRight,6.5,0,ch1Sound_localizationTask.wav,6.5,"(1047, 878)","(87, -202)",95,-338,,,,,,,,,,,,,3,5,26,4,,,,,,,,,,,,,,,,,,,,,,,,,,,,,,,,,,,,,,,,1611.2008924037218,None,,,1614.2165980041027,None,1.621164021164021,4.067191276233643,1614.2165980041027,None,,,,,,,1612.200159420725,None,1612.3835705430247,1612.4001487200148,,,,,,,63,001,2023_Apr_05_1850,SpeechDraft1Carolyn_lessNoise_PlusLocalization,2021.2.3,59.95637147530804,
,,,,,,,,nearLeft,-6.5,1,ch1Sound_localizationTask.wav,-6.5,"(857, 878)","(-103,-202)",-95,-338,,,,,,,,,,,,,3,6,27,2,,,,,,,,,,,,,,,,,,,,,,,,,,,,,,,,,,,,,,,,1618.300146968104,None,,,1621.3166020489298,None,1.4158730158730157,1.315648025367409,1621.3166020489298,None,,,,,,,1619.3000544379465,None,1619.483414765913,1619.500055864919,,,,,,,63,001,2023_Apr_05_1850,SpeechDraft1Carolyn_lessNoise_PlusLocalization,2021.2.3,59.95637147530804,
,,,,,,,,nearLeft,-6.5,1,ch1Sound_localizationTask.wav,-6.5,"(857, 878)","(-103,-202)",-95,-338,,,,,,,,,,,,,4,0,28,2,,,,,,,,,,,,,,,,,,,,,,,,,,,,,,,,,,,,,,,,1622.6349538578652,None,,,1625.666533682961,None,1.6142857142857143,6.483032786287367,1625.666533682961,None,,,,,,,1623.6502163917758,None,1623.8334474638104,1623.8500988190062,,,,,,,63,001,2023_Apr_05_1850,SpeechDraft1Carolyn_lessNoise_PlusLocalization,2021.2.3,59.95637147530804,
,,,,,,,,farRight,19.1,4,ch1Sound_localizationTask.wav,19.1,"(1237, 878)","(277,-202)",285,-338,,,,,,,,,,,,,4,1,29,6,,,,,,,,,,,,,,,,,,,,,,,,,,,,,,,,,,,,,,,,1632.1518095899373,None,,,1635.18316344684,None,1.6904761904761905,4.85167310712859,1635.18316344684,None,,,,,,,1633.1668532458134,None,1633.3502993867733,1633.3668649289757,,,,,,,63,001,2023_Apr_05_1850,SpeechDraft1Carolyn_lessNoise_PlusLocalization,2021.2.3,59.95637147530804,
,,,,,,,,nearLeft,-6.5,1,ch1Sound_localizationTask.wav,-6.5,"(857, 878)","(-103,-202)",-95,-338,,,,,,,,,,,,,4,2,30,2,,,,,,,,,,,,,,,,,,,,,,,,,,,,,,,,,,,,,,,,1640.0503079108894,None,,,1643.0665576118045,None,1.4074074074074074,2.782935998868197,1643.0665576118045,None,,,,,,,1641.0502486079931,None,1641.2336341249757,1641.2501554349437,,,,,,,63,001,2023_Apr_05_1850,SpeechDraft1Carolyn_lessNoise_PlusLocalization,2021.2.3,59.95637147530804,
,,,,,,,,center,0.0,6,ch1Sound_localizationTask.wav,0.0,"(952, 878)","(-8,-202)",0,-338,,,,,,,,,,,,,4,3,31,3,,,,,,,,,,,,,,,,,,,,,,,,,,,,,,,,,,,,,,,,1645.8506508050486,None,,,1648.8666542307474,None,1.5174603174603174,3.5652430620975792,1648.8666542307474,None,,,,,,,1646.8501648539677,None,1647.0334938759916,1647.050220795907,,,,,,,63,001,2023_Apr_05_1850,SpeechDraft1Carolyn_lessNoise_PlusLocalization,2021.2.3,59.95637147530804,
,,,,,,,,farRight,19.1,4,ch1Sound_localizationTask.wav,19.1,"(1237, 878)","(277,-202)",285,-338,,,,,,,,,,,,,4,4,32,6,,,,,,,,,,,,,,,,,,,,,,,,,,,,,,,,,,,,,,,,1652.4341562269256,None,,,1655.4499066439457,None,1.7391534391534391,4.59995109308511,1655.4499066439457,None,,,,,,,1653.4335408061743,None,1653.616796575021,1653.6335483887233,,,,,,,63,001,2023_Apr_05_1850,SpeechDraft1Carolyn_lessNoise_PlusLocalization,2021.2.3,59.95637147530804,
,,,,,,,,farLeft,-19.1,5,ch1Sound_localizationTask.wav,-19.1,"(667, 878)","(-293,-202)",-285,-338,,,,,,,,,,,,,4,5,33,0,,,,,,,,,,,,,,,,,,,,,,,,,,,,,,,,,,,,,,,,1660.051571297925,None,,,1663.0832860679366,None,1.3137566137566137,2.2678913990966976,1663.0832860679366,None,,,,,,,1661.0668140668422,None,1661.2502528671175,1661.2668610177934,,,,,,,63,001,2023_Apr_05_1850,SpeechDraft1Carolyn_lessNoise_PlusLocalization,2021.2.3,59.95637147530804,
,,,,,,,,farLeft,-19.1,5,ch1Sound_localizationTask.wav,-19.1,"(667, 878)","(-293,-202)",-285,-338,,,,,,,,,,,,,4,6,34,0,,,,,,,,,,,,,,,,,,,,,,,,,,,,,,,,,,,,,,,,1665.3668861039914,None,,,1668.383182013873,None,1.344973544973545,2.234209198039025,1668.383182013873,None,,,,,,,1666.3668471849523,None,1666.5502824489959,1666.5668293531053,,,,,,,63,001,2023_Apr_05_1850,SpeechDraft1Carolyn_lessNoise_PlusLocalization,2021.2.3,59.95637147530804,
,,,,,,,,farRight,19.1,4,ch1Sound_localizationTask.wav,19.1,"(1237, 878)","(277,-202)",285,-338,,,,,,,,,,,,,5,0,35,6,,,,,,,,,,,,,,,,,,,,,,,,,,,,,,,,,,,,,,,,1670.6335873641074,None,,,1673.6499595087953,None,1.7211640211640211,2.616258799098432,1673.6499595087953,None,,,,,,,1671.6335145947523,None,1671.816882851068,1671.8335568159819,,,,,,,63,001,2023_Apr_05_1850,SpeechDraft1Carolyn_lessNoise_PlusLocalization,2021.2.3,59.95637147530804,
,,,,,,,,farRight,19.1,4,ch1Sound_localizationTask.wav,19.1,"(1237, 878)","(277,-202)",285,-338,,,,,,,,,,,,,5,1,36,6,,,,,,,,,,,,,,,,,,,,,,,,,,,,,,,,,,,,,,,,1676.2836917079985,None,,,1679.2999902418815,None,1.7343915343915344,3.1336681535467505,1679.2999902418815,None,,,,,,,1677.2835357920267,None,1677.4668411039747,1677.48364127893,,,,,,,63,001,2023_Apr_05_1850,SpeechDraft1Carolyn_lessNoise_PlusLocalization,2021.2.3,59.95637147530804,
,,,,,,,,nearLeft,-6.5,1,ch1Sound_localizationTask.wav,-6.5,"(857, 878)","(-103,-202)",-95,-338,,,,,,,,,,,,,5,2,37,2,,,,,,,,,,,,,,,,,,,,,,,,,,,,,,,,,,,,,,,,1682.4502894748002,None,,,1685.4666605070233,None,1.4677248677248678,3.2331546558998525,1685.4666605070233,None,,,,,,,1683.4502026988193,None,1683.6335586928762,1683.65022353502,,,,,,,63,001,2023_Apr_05_1850,SpeechDraft1Carolyn_lessNoise_PlusLocalization,2021.2.3,59.95637147530804,
,,,,,,,,farLeft,-19.1,5,ch1Sound_localizationTask.wav,-19.1,"(667, 878)","(-293,-202)",-285,-338,,,,,,,,,,,,,5,3,38,0,,,,,,,,,,,,,,,,,,,,,,,,,,,,,,,,,,,,,,,,1688.7169740800746,None,,,1691.7332850438543,None,1.4158730158730157,2.150522539857775,1691.7332850438543,None,,,,,,,1689.716847253032,None,1689.90028063301,1689.916859043762,,,,,,,63,001,2023_Apr_05_1850,SpeechDraft1Carolyn_lessNoise_PlusLocalization,2021.2.3,59.95637147530804,
,,,,,,,,nearLeft,-6.5,1,ch1Sound_localizationTask.wav,-6.5,"(857, 878)","(-103,-202)",-95,-338,,,,,,,,,,,,,5,4,39,2,,,,,,,,,,,,,,,,,,,,,,,,,,,,,,,,,,,,,,,,1693.9002798227593,None,,,1696.9166450849734,None,1.453968253968254,2.265635220799595,1696.9166450849734,None,,,,,,,1694.9001977089792,None,1695.0835614311509,1695.1002482180484,,,,,,,63,001,2023_Apr_05_1850,SpeechDraft1Carolyn_lessNoise_PlusLocalization,2021.2.3,59.95637147530804,
,,,,,,,,center,0.0,6,ch1Sound_localizationTask.wav,0.0,"(952, 878)","(-8,-202)",0,-338,,,,,,,,,,,,,5,5,40,3,,,,,,,,,,,,,,,,,,,,,,,,,,,,,,,,,,,,,,,,1699.1849177461118,None,,,1702.216686157044,None,1.5074074074074075,2.0506863882765174,1702.216686157044,None,,,,,,,1700.200153269805,None,1700.3835137947462,1700.4002225068398,,,,,,,63,001,2023_Apr_05_1850,SpeechDraft1Carolyn_lessNoise_PlusLocalization,2021.2.3,59.95637147530804,
,,,,,,,,midLeft,-13.0,2,ch1Sound_localizationTask.wav,-13.0,"(762, 878)","(-198,-202)",-190,-338,,,,,,,,,,,,,5,6,41,1,,,,,,,,,,,,,,,,,,,,,,,,,,,,,,,,,,,,,,,,1704.2836464550346,None,,,1707.2999586821534,None,1.3936507936507936,2.265693773049861,1707.2999586821534,None,,,,,,,1705.283528309781,None,1705.4670372530818,1705.4835540829226,,,,,,,63,001,2023_Apr_05_1850,SpeechDraft1Carolyn_lessNoise_PlusLocalization,2021.2.3,59.95637147530804,
,,,,,,,,farLeft,-19.1,5,ch1Sound_localizationTask.wav,-19.1,"(667, 878)","(-293,-202)",-285,-338,,,,,,,,,,,,,6,0,42,0,,,,,,,,,,,,,,,,,,,,,,,,,,,,,,,,,,,,,,,,1709.567045466043,None,,,1712.5833698301576,None,1.9042328042328043,3.2179359421133995,1712.5833698301576,None,,,,,,,1710.566934003029,None,1710.750339166727,1710.7668640287593,,,,,,,63,001,2023_Apr_05_1850,SpeechDraft1Carolyn_lessNoise_PlusLocalization,2021.2.3,59.95637147530804,
,,,,,,,,midRight,13.0,3,ch1Sound_localizationTask.wav,13.0,"(1142, 878)","(182, -202)",190,-338,,,,,,,,,,,,,6,1,43,5,,,,,,,,,,,,,,,,,,,,,,,,,,,,,,,,,,,,,,,,1715.816971667111,None,,,1718.8332169558853,None,1.668783068783069,2.017046325840056,1718.8332169558853,None,,,,,,,1716.8168916828,None,1717.000249171164,1717.0170348510146,,,,,,,63,001,2023_Apr_05_1850,SpeechDraft1Carolyn_lessNoise_PlusLocalization,2021.2.3,59.95637147530804,
,,,,,,,,farRight,19.1,4,ch1Sound_localizationTask.wav,19.1,"(1237, 878)","(277,-202)",285,-338,,,,,,,,,,,,,6,2,44,6,,,,,,,,,,,,,,,,,,,,,,,,,,,,,,,,,,,,,,,,1720.866964831017,None,,,1723.8832370410673,None,1.6925925925925926,3.1828268840909004,1723.8832370410673,None,,,,,,,1721.8669073069468,None,1722.05022629397,1722.0668857567944,,,,,,,63,001,2023_Apr_05_1850,SpeechDraft1Carolyn_lessNoise_PlusLocalization,2021.2.3,59.95637147530804,
,,,,,,,,farLeft,-19.1,5,ch1Sound_localizationTask.wav,-19.1,"(667, 878)","(-293,-202)",-285,-338,,,,,,,,,,,,,6,3,45,0,,,,,,,,,,,,,,,,,,,,,,,,,,,,,,,,,,,,,,,,1727.0677348258905,None,,,1730.0833718860522,None,1.3417989417989418,2.8851103521883488,1730.0833718860522,None,,,,,,,1728.0669458899647,None,1728.2503073699772,1728.266916569788,,,,,,,63,001,2023_Apr_05_1850,SpeechDraft1Carolyn_lessNoise_PlusLocalization,2021.2.3,59.95637147530804,
,,,,,,,,midLeft,-13.0,2,ch1Sound_localizationTask.wav,-13.0,"(762, 878)","(-198,-202)",-190,-338,,,,,,,,,,,,,6,4,46,1,,,,,,,,,,,,,,,,,,,,,,,,,,,,,,,,,,,,,,,,1732.983561519999,None,,,1736.0000396487303,None,1.494179894179894,2.549968891777098,1736.0000396487303,None,,,,,,,1733.9836343298666,None,1734.1669652150013,1734.1836560880765,,,,,,,63,001,2023_Apr_05_1850,SpeechDraft1Carolyn_lessNoise_PlusLocalization,2021.2.3,59.95637147530804,
,,,,,,,,nearRight,6.5,0,ch1Sound_localizationTask.wav,6.5,"(1047, 878)","(87, -202)",95,-338,,,,,,,,,,,,,6,5,47,4,,,,,,,,,,,,,,,,,,,,,,,,,,,,,,,,,,,,,,,,1738.5522036198527,None,,,1741.5833842158318,None,1.5777777777777777,2.134021485224366,1741.5833842158318,None,,,,,,,1739.5669773248956,None,1739.7502987650223,1739.766956483014,,,,,,,63,001,2023_Apr_05_1850,SpeechDraft1Carolyn_lessNoise_PlusLocalization,2021.2.3,59.95637147530804,
,,,,,,,,midRight,13.0,3,ch1Sound_localizationTask.wav,13.0,"(1142, 878)","(182, -202)",190,-338,,,,,,,,,,,,,6,6,48,5,,,,,,,,,,,,,,,,,,,,,,,,,,,,,,,,,,,,,,,,1743.7336363978684,None,,,1746.7500724638812,None,1.6619047619047618,2.9167306730523705,1746.7500724638812,None,,,,,,,1744.733615318779,None,1744.9171106349677,1744.9338554297574,,,,,,,63,001,2023_Apr_05_1850,SpeechDraft1Carolyn_lessNoise_PlusLocalization,2021.2.3,59.95637147530804,
,,,,,,,,nearRight,6.5,0,ch1Sound_localizationTask.wav,6.5,"(1047, 878)","(87, -202)",95,-338,,,,,,,,,,,,,7,0,49,4,,,,,,,,,,,,,,,,,,,,,,,,,,,,,,,,,,,,,,,,1749.6837502769195,None,,,1752.7000385280699,None,1.5645502645502645,2.600576907861978,1752.7000385280699,None,,,,,,,1750.6836067428812,None,1750.866961881984,1750.8836987367831,,,,,,,63,001,2023_Apr_05_1850,SpeechDraft1Carolyn_lessNoise_PlusLocalization,2021.2.3,59.95637147530804,
,,,,,,,,farRight,19.1,4,ch1Sound_localizationTask.wav,19.1,"(1237, 878)","(277,-202)",285,-338,,,,,,,,,,,,,7,1,50,6,,,,,,,,,,,,,,,,,,,,,,,,,,,,,,,,,,,,,,,,1755.317050721962,None,,,1758.3333355798386,None,1.7185185185185186,3.766382794827223,1758.3333355798386,None,,,,,,,1756.3169118389487,None,1756.5003878520802,1756.517075789161,,,,,,,63,001,2023_Apr_05_1850,SpeechDraft1Carolyn_lessNoise_PlusLocalization,2021.2.3,59.95637147530804,
,,,,,,,,farLeft,-19.1,5,ch1Sound_localizationTask.wav,-19.1,"(667, 878)","(-293,-202)",-285,-338,,,,,,,,,,,,,7,2,51,0,,,,,,,,,,,,,,,,,,,,,,,,,,,,,,,,,,,,,,,,1762.1015441771597,None,,,1765.1333304680884,None,1.2671957671957672,1.783989460207522,1765.1333304680884,None,,,,,,,1763.1170154497959,None,1763.3003147048876,1763.3169747050852,,,,,,,63,001,2023_Apr_05_1850,SpeechDraft1Carolyn_lessNoise_PlusLocalization,2021.2.3,59.95637147530804,
,,,,,,,,nearLeft,-6.5,1,ch1Sound_localizationTask.wav,-6.5,"(857, 878)","(-103,-202)",-95,-338,,,,,,,,,,,,,7,3,52,2,,,,,,,,,,,,,,,,,,,,,,,,,,,,,,,,,,,,,,,,1766.9336717827246,None,,,1769.9500798718072,None,1.4814814814814814,2.117803345900029,1769.9500798718072,None,,,,,,,1767.9336289931089,None,1768.1170776030049,1768.1336430059746,,,,,,,63,001,2023_Apr_05_1850,SpeechDraft1Carolyn_lessNoise_PlusLocalization,2021.2.3,59.95637147530804,
,,,,,,,,center,0.0,6,ch1Sound_localizationTask.wav,0.0,"(952, 878)","(-8,-202)",0,-338,,,,,,,,,,,,,7,4,53,3,,,,,,,,,,,,,,,,,,,,,,,,,,,,,,,,,,,,,,,,1772.0838430179283,None,,,1775.100102534052,None,1.516931216931217,3.217155464924872,1775.100102534052,None,,,,,,,1773.0839345171116,None,1773.2670344207436,1773.283745274879,,,,,,,63,001,2023_Apr_05_1850,SpeechDraft1Carolyn_lessNoise_PlusLocalization,2021.2.3,59.95637147530804,
,,,,,,,,nearRight,6.5,0,ch1Sound_localizationTask.wav,6.5,"(1047, 878)","(87, -202)",95,-338,,,,,,,,,,,,,7,5,54,4,,,,,,,,,,,,,,,,,,,,,,,,,,,,,,,,,,,,,,,,1778.3337457291782,None,,,1781.34999470599,None,1.5941798941798941,2.8194126267917454,1781.34999470599,None,,,,,,,1779.3337105130777,None,1779.5170747130178,1779.5336807551794,,,,,,,63,001,2023_Apr_05_1850,SpeechDraft1Carolyn_lessNoise_PlusLocalization,2021.2.3,59.95637147530804,
,,,,,,,,midRight,13.0,3,ch1Sound_localizationTask.wav,13.0,"(1142, 878)","(182, -202)",190,-338,,,,,,,,,,,,,7,6,55,5,,,,,,,,,,,,,,,,,,,,,,,,,,,,,,,,,,,,,,,,1784.1837122910656,None,,,1787.2000264138915,None,1.6285714285714286,2.133841563947499,1787.2000264138915,None,,,,,,,1785.1836484149098,None,1785.3670434770174,1785.383624251932,,,,,,,63,001,2023_Apr_05_1850,SpeechDraft1Carolyn_lessNoise_PlusLocalization,2021.2.3,59.95637147530804,
,,,,,,,,,,,,,,,,,,,,,,,,,,,,,,,,,,,,,,,,,,,,,,,,,,,,,,,,,,,,,,,,,,,,,,,,,,,,,,,,,,,,,,,,,,,,1789.3504271521233,None,c,69.43553216615692,1790.3337336769328,None,63,001,2023_Apr_05_1850,SpeechDraft1Carolyn_lessNoise_PlusLocalization,2021.2.3,59.95637147530804,
