Audio_Only_Files,Video_Files,Original_Word_List,noiseLevelCode,conditionCodes,noiseLevelFile1,noiseLevelFile2,InstrTextVar,targetSpeakerName,targetSpeakerEccen,targetSpkrChannel,targetSpkrSound,targetVisualDegrees,visStimLoc,visStimLoc2,visStimW,visStimH,practiceTrials.thisRepN,practiceTrials.thisTrialN,practiceTrials.thisN,practiceTrials.thisIndex,trials.thisRepN,trials.thisTrialN,trials.thisN,trials.thisIndex,audLocalLoop.thisRepN,audLocalLoop.thisTrialN,audLocalLoop.thisN,audLocalLoop.thisIndex,visualLocalLoop.thisRepN,visualLocalLoop.thisTrialN,visualLocalLoop.thisN,visualLocalLoop.thisIndex,letsGoAlready.keys,letsGoAlready.rt,letsGoAlready.started,letsGoAlready.stopped,text_2.started,text_2.stopped,text_3.started,text_3.stopped,key_resp_2.keys,key_resp_2.rt,key_resp_2.started,key_resp_2.stopped,text_5.started,text_5.stopped,fixCross.started,fixCross.stopped,fixCross2.started,fixCross2.stopped,answerPrompt.started,answerPrompt.stopped,getAnswer.text,getAnswer.started,getAnswer.stopped,goToNext.keys,goToNext.rt,goToNext.started,goToNext.stopped,stretchBreakTxrt.started,stretchBreakTxrt.stopped,key_resp_3.keys,key_resp_3.rt,key_resp_3.started,key_resp_3.stopped,letsGoLocal.keys,letsGoLocal.rt,letsGoLocal.started,letsGoLocal.stopped,text_4.started,text_4.stopped,prepFixTxt.started,prepFixTxt.stopped,prepFixTxt_2.started,prepFixTxt_2.stopped,respPromptLocal.started,respPromptLocal.stopped,slider.response,slider.rt,slider.started,slider.stopped,letsGoLocal_2.keys,letsGoLocal_2.rt,letsGoLocal_2.started,letsGoLocal_2.stopped,text_7.started,text_7.stopped,prepFixTxt_3.started,prepFixTxt_3.stopped,grating.started,grating.stopped,participant,session,date,expName,psychopyVersion,frameRate,
,,,,,,,,,,,,,,,,,,,,,,,,,,,,,,,,,space,10.088637815788388,24.237014153972268,None,,,,,,,,,,,,,,,,,,,,,,,,,,,,,,,,,,,,,,,,,,,,,,,,,,,,,,,,64,001,2023_Apr_07_1801,SpeechDraft1Carolyn_lessNoise_PlusLocalization,2021.2.3,59.94321331699747,
,,,,,,,,,,,,,,,,,,,,,,,,,,,,,,,,,,,,,24.237014153972268,None,34.4530673911795,None,space,17.032966041006148,34.63677415903658,None,,,,,,,,,,,,,,,,,,,,,,,,,,,,,,,,,,,,,,,,,,,,,,,,64,001,2023_Apr_07_1801,SpeechDraft1Carolyn_lessNoise_PlusLocalization,2021.2.3,59.94321331699747,
ash.wav,ash.mpg,ash,1,A,Pink_Noise_1_1.wav,Pink_Noise_1_2.wav,"This is an example of an

AUDIO trial",,,,,,,,,,0,0,0,0,,,,,,,,,,,,,,,,,,,,,,,,,51.72003231011331,None,52.7035360718146,None,56.01999503513798,None,57.40369812678546,None,ash,57.40369812678546,None,return,11.29481197707355,57.48685071291402,None,,,,,,,,,,,,,,,,,,,,,,,,,,,,,,,,,64,001,2023_Apr_07_1801,SpeechDraft1Carolyn_lessNoise_PlusLocalization,2021.2.3,59.94321331699747,
ash.wav,ash.mpg,ash,1,AV,Pink_Noise_1_1.wav,Pink_Noise_1_2.wav,"This is an example of an

AUDIO + VIDEO  trial",,,,,,,,,,0,1,1,1,,,,,,,,,,,,,,,,,,,,,,,,,68.81981856003404,None,69.82010194705799,None,71.31999312806875,None,72.70345348678529,None,ash,72.70345348678529,None,return,3.490949788596481,72.7868173988536,None,,,,,,,,,,,,,,,,,,,,,,,,,,,,,,,,,64,001,2023_Apr_07_1801,SpeechDraft1Carolyn_lessNoise_PlusLocalization,2021.2.3,59.94321331699747,
,,,,,,,,,,,,,,,,,,,,,,,,,,,,,,,,,,,,,,,,,,,,,,,,,,,,,,,,,,,,76.33659539278597,None,space,51.6302102683112,76.50355052296072,None,,,,,,,,,,,,,,,,,,,,,,,,,,,64,001,2023_Apr_07_1801,SpeechDraft1Carolyn_lessNoise_PlusLocalization,2021.2.3,59.94321331699747,
fan.wav,fan.mpg,fan,4,AV,Pink_Noise_4_1.wav,Pink_Noise_4_2.wav,,,,,,,,,,,,,,,0,0,0,76,,,,,,,,,,,,,,,,,,,,,,,128.17112509394065,None,129.686523552984,None,131.07037225691602,None,"fae
",131.07037225691602,None,return,9.635975999291986,131.1537025431171,None,,,,,,,,,,,,,,,,,,,,,,,,,,,,,,,,,64,001,2023_Apr_07_1801,SpeechDraft1Carolyn_lessNoise_PlusLocalization,2021.2.3,59.94321331699747,
gross.wav,gross.mpg,gross,6,A,Pink_Noise_6_1.wav,Pink_Noise_6_2.wav,,,,,,,,,,,,,,,0,1,1,4,,,,,,,,,,,,,,,,,,,,,,,140.8203490898013,None,142.32027616584674,None,143.7036968669854,None,lisp,143.7036968669854,None,return,17.082801383920014,143.78696316992864,None,,,,,,,,,,,,,,,,,,,,,,,,,,,,,,,,,64,001,2023_Apr_07_1801,SpeechDraft1Carolyn_lessNoise_PlusLocalization,2021.2.3,59.94321331699747,
quit.wav,quit.mpg,quit,6,AV,Pink_Noise_6_1.wav,Pink_Noise_6_2.wav,,,,,,,,,,,,,,,0,2,2,113,,,,,,,,,,,,,,,,,,,,,,,160.88707957416773,None,162.38716737180948,None,163.77033001789823,None,quest,163.77033001789823,None,return,9.776133608072996,163.85352696385235,None,,,,,,,,,,,,,,,,,,,,,,,,,,,,,,,,,64,001,2023_Apr_07_1801,SpeechDraft1Carolyn_lessNoise_PlusLocalization,2021.2.3,59.94321331699747,
book.wav,book.mpg,book,2,AV,Pink_Noise_2_1.wav,Pink_Noise_2_2.wav,,,,,,,,,,,,,,,0,3,3,74,,,,,,,,,,,,,,,,,,,,,,,173.6537201339379,None,175.1533232908696,None,176.53699167491868,None,book,176.53699167491868,None,return,6.129531424026936,176.62012590793893,None,,,,,,,,,,,,,,,,,,,,,,,,,,,,,,,,,64,001,2023_Apr_07_1801,SpeechDraft1Carolyn_lessNoise_PlusLocalization,2021.2.3,59.94321331699747,
grail.wav,grail.mpg,grail,6,AV,Pink_Noise_6_1.wav,Pink_Noise_6_2.wav,,,,,,,,,,,,,,,0,4,4,101,,,,,,,,,,,,,,,,,,,,,,,182.77052819821984,None,184.2702652560547,None,185.6536141880788,None,"breath
",185.6536141880788,None,return,11.63656960381195,185.73708761902526,None,,,,,,,,,,,,,,,,,,,,,,,,,,,,,,,,,64,001,2023_Apr_07_1801,SpeechDraft1Carolyn_lessNoise_PlusLocalization,2021.2.3,59.94321331699747,
chop.wav,chop.mpg,chop,5,A,Pink_Noise_5_1.wav,Pink_Noise_5_2.wav,,,,,,,,,,,,,,,0,5,5,34,,,,,,,,,,,,,,,,,,,,,,,197.40360430907458,None,198.90348688699305,None,200.28709903685376,None,charge,200.28709903685376,None,return,11.37136950995773,200.37041709478945,None,,,,,,,,,,,,,,,,,,,,,,,,,,,,,,,,,64,001,2023_Apr_07_1801,SpeechDraft1Carolyn_lessNoise_PlusLocalization,2021.2.3,59.94321331699747,
chalk.wav,chalk.mpg,chalk,5,A,Pink_Noise_5_1.wav,Pink_Noise_5_2.wav,,,,,,,,,,,,,,,0,6,6,41,,,,,,,,,,,,,,,,,,,,,,,211.7705214289017,None,213.26993075106293,None,214.653786260169,None,"chunk
",214.653786260169,None,return,8.436516243964434,214.73715875903144,None,,,,,,,,,,,,,,,,,,,,,,,,,,,,,,,,,64,001,2023_Apr_07_1801,SpeechDraft1Carolyn_lessNoise_PlusLocalization,2021.2.3,59.94321331699747,
wear.wav,wear.mpg,wear,3,A,Pink_Noise_3_1.wav,Pink_Noise_3_2.wav,,,,,,,,,,,,,,,0,7,7,53,,,,,,,,,,,,,,,,,,,,,,,223.203940234147,None,224.7032346217893,None,226.08710191911086,None,"prayer
",226.08710191911086,None,return,8.46727372193709,226.17038906179368,None,,,,,,,,,,,,,,,,,,,,,,,,,,,,,,,,,64,001,2023_Apr_07_1801,SpeechDraft1Carolyn_lessNoise_PlusLocalization,2021.2.3,59.94321331699747,
blimp.wav,blimp.mpg,blimp,5,AV,Pink_Noise_5_1.wav,Pink_Noise_5_2.wav,,,,,,,,,,,,,,,0,8,8,72,,,,,,,,,,,,,,,,,,,,,,,234.6703836028464,None,236.1720347260125,None,237.5537272039801,None,"blip
",237.5537272039801,None,return,5.968695478048176,237.63697907701135,None,,,,,,,,,,,,,,,,,,,,,,,,,,,,,,,,,64,001,2023_Apr_07_1801,SpeechDraft1Carolyn_lessNoise_PlusLocalization,2021.2.3,59.94321331699747,
faint.wav,faint.mpg,faint,3,A,Pink_Noise_3_1.wav,Pink_Noise_3_2.wav,,,,,,,,,,,,,,,0,9,9,54,,,,,,,,,,,,,,,,,,,,,,,243.63712335610762,None,245.13817419391125,None,246.52044637920335,None,wait,246.52044637920335,None,return,4.97801066795364,246.60364081896842,None,,,,,,,,,,,,,,,,,,,,,,,,,,,,,,,,,64,001,2023_Apr_07_1801,SpeechDraft1Carolyn_lessNoise_PlusLocalization,2021.2.3,59.94321331699747,
grow.wav,grow.mpg,grow,6,AV,Pink_Noise_6_1.wav,Pink_Noise_6_2.wav,,,,,,,,,,,,,,,0,10,10,112,,,,,,,,,,,,,,,,,,,,,,,251.60382735496387,None,253.10369335813448,None,254.4871009788476,None,row,254.4871009788476,None,return,10.363208109047264,254.57053619110957,None,,,,,,,,,,,,,,,,,,,,,,,,,,,,,,,,,64,001,2023_Apr_07_1801,SpeechDraft1Carolyn_lessNoise_PlusLocalization,2021.2.3,59.94321331699747,
fuse.wav,fuse.mpg,fuse,3,AV,Pink_Noise_3_1.wav,Pink_Noise_3_2.wav,,,,,,,,,,,,,,,0,11,11,99,,,,,,,,,,,,,,,,,,,,,,,264.9536971440539,None,266.45344837615266,None,267.837111719884,None,fuse,267.837111719884,None,return,7.22914322745055,267.92049431521446,None,,,,,,,,,,,,,,,,,,,,,,,,,,,,,,,,,64,001,2023_Apr_07_1801,SpeechDraft1Carolyn_lessNoise_PlusLocalization,2021.2.3,59.94321331699747,
giant.wav,giant.mpg,giant,3,AV,Pink_Noise_3_1.wav,Pink_Noise_3_2.wav,,,,,,,,,,,,,,,0,12,12,67,,,,,,,,,,,,,,,,,,,,,,,275.1704184659757,None,276.6868447079323,None,278.0705948858522,None,giant,278.0705948858522,None,return,5.195776775013655,278.15391030488536,None,,,,,,,,,,,,,,,,,,,,,,,,,,,,,,,,,64,001,2023_Apr_07_1801,SpeechDraft1Carolyn_lessNoise_PlusLocalization,2021.2.3,59.94321331699747,
clash.wav,clash.mpg,clash,3,A,Pink_Noise_3_1.wav,Pink_Noise_3_2.wav,,,,,,,,,,,,,,,0,13,13,46,,,,,,,,,,,,,,,,,,,,,,,283.37055048299953,None,284.8701345808804,None,286.25463991984725,None,clash,286.25463991984725,None,return,5.44421178707853,286.33749101823196,None,,,,,,,,,,,,,,,,,,,,,,,,,,,,,,,,,64,001,2023_Apr_07_1801,SpeechDraft1Carolyn_lessNoise_PlusLocalization,2021.2.3,59.94321331699747,
curse.wav,curse.mpg,curse,6,A,Pink_Noise_6_1.wav,Pink_Noise_6_2.wav,,,,,,,,,,,,,,,0,14,14,0,,,,,,,,,,,,,,,,,,,,,,,291.8037801492028,None,293.30453361803666,None,294.68711421685293,None,rose,294.68711421685293,None,return,9.323316364083439,294.77046911790967,None,,,,,,,,,,,,,,,,,,,,,,,,,,,,,,,,,64,001,2023_Apr_07_1801,SpeechDraft1Carolyn_lessNoise_PlusLocalization,2021.2.3,59.94321331699747,
coin.wav,coin.mpg,coin,1,AV,Pink_Noise_1_1.wav,Pink_Noise_1_2.wav,,,,,,,,,,,,,,,0,15,15,79,,,,,,,,,,,,,,,,,,,,,,,304.1206030929461,None,305.6213497808203,None,307.0038578659296,None,coin,307.0038578659296,None,return,4.726484796963632,307.087170871906,None,,,,,,,,,,,,,,,,,,,,,,,,,,,,,,,,,64,001,2023_Apr_07_1801,SpeechDraft1Carolyn_lessNoise_PlusLocalization,2021.2.3,59.94321331699747,
bass.wav,bass.mpg,bass,2,A,Pink_Noise_2_1.wav,Pink_Noise_2_2.wav,,,,,,,,,,,,,,,0,16,16,24,,,,,,,,,,,,,,,,,,,,,,,311.8371354038827,None,313.35347793996334,None,314.7372268377803,None,base,314.7372268377803,None,return,5.849353861063719,314.82049697311595,None,,,,,,,,,,,,,,,,,,,,,,,,,,,,,,,,,64,001,2023_Apr_07_1801,SpeechDraft1Carolyn_lessNoise_PlusLocalization,2021.2.3,59.94321331699747,
dense.wav,dense.mpg,dense,1,A,Pink_Noise_1_1.wav,Pink_Noise_1_2.wav,,,,,,,,,,,,,,,0,17,17,51,,,,,,,,,,,,,,,,,,,,,,,320.687271961011,None,322.203578250017,None,323.5873484280892,None,dense,323.5873484280892,None,return,7.687125740107149,323.67051699385047,None,,,,,,,,,,,,,,,,,,,,,,,,,,,,,,,,,64,001,2023_Apr_07_1801,SpeechDraft1Carolyn_lessNoise_PlusLocalization,2021.2.3,59.94321331699747,
flair.wav,flair.mpg,flair,4,A,Pink_Noise_4_1.wav,Pink_Noise_4_2.wav,,,,,,,,,,,,,,,0,18,18,7,,,,,,,,,,,,,,,,,,,,,,,331.3872379232198,None,332.88857785379514,None,334.2702812352218,None,"plant
",334.2702812352218,None,return,7.483855737373233,334.3538173548877,None,,,,,,,,,,,,,,,,,,,,,,,,,,,,,,,,,64,001,2023_Apr_07_1801,SpeechDraft1Carolyn_lessNoise_PlusLocalization,2021.2.3,59.94321331699747,
pact.wav,pact.mpg,pact,1,A,Pink_Noise_1_1.wav,Pink_Noise_1_2.wav,,,,,,,,,,,,,,,0,19,19,49,,,,,,,,,,,,,,,,,,,,,,,341.8706604130566,None,343.38686233107,None,344.77067539282143,None,"packed
",344.77067539282143,None,return,14.935698510147631,344.85396788688377,None,,,,,,,,,,,,,,,,,,,,,,,,,,,,,,,,,64,001,2023_Apr_07_1801,SpeechDraft1Carolyn_lessNoise_PlusLocalization,2021.2.3,59.94321331699747,
blood.wav,blood.mpg,blood,4,AV,Pink_Noise_4_1.wav,Pink_Noise_4_2.wav,,,,,,,,,,,,,,,0,20,20,106,,,,,,,,,,,,,,,,,,,,,,,359.8205862711184,None,361.33716990891844,None,362.72051726887,None,"blood
",362.72051726887,None,return,17.401643499266356,362.8040198809467,None,,,,,,,,,,,,,,,,,,,,,,,,,,,,,,,,,64,001,2023_Apr_07_1801,SpeechDraft1Carolyn_lessNoise_PlusLocalization,2021.2.3,59.94321331699747,
gone.wav,gone.mpg,gone,1,AV,Pink_Noise_1_1.wav,Pink_Noise_1_2.wav,,,,,,,,,,,,,,,0,21,21,84,,,,,,,,,,,,,,,,,,,,,,,380.23723853519186,None,381.7391253048554,None,383.12061717081815,None,gone,383.12061717081815,None,return,8.625601937994361,383.20405188016593,None,,,,,,,,,,,,,,,,,,,,,,,,,,,,,,,,,64,001,2023_Apr_07_1801,SpeechDraft1Carolyn_lessNoise_PlusLocalization,2021.2.3,59.94321331699747,
dusk.wav,dusk.mpg,dusk,5,AV,Pink_Noise_5_1.wav,Pink_Noise_5_2.wav,,,,,,,,,,,,,,,0,22,22,111,,,,,,,,,,,,,,,,,,,,,,,391.8540753601119,None,393.3554527522065,None,394.73719976702705,None,risk,394.73719976702705,None,return,12.857167991809547,394.82059278711677,None,,,,,,,,,,,,,,,,,,,,,,,,,,,,,,,,,64,001,2023_Apr_07_1801,SpeechDraft1Carolyn_lessNoise_PlusLocalization,2021.2.3,59.94321331699747,
cruel.wav,cruel.mpg,cruel,5,A,Pink_Noise_5_1.wav,Pink_Noise_5_2.wav,,,,,,,,,,,,,,,0,23,23,13,,,,,,,,,,,,,,,,,,,,,,,407.7040514629334,None,409.220313266851,None,410.6039661318064,None,cool,410.6039661318064,None,return,5.510222821030766,410.6874288818799,None,,,,,,,,,,,,,,,,,,,,,,,,,,,,,,,,,64,001,2023_Apr_07_1801,SpeechDraft1Carolyn_lessNoise_PlusLocalization,2021.2.3,59.94321331699747,
crisp.wav,crisp.mpg,crisp,1,AV,Pink_Noise_1_1.wav,Pink_Noise_1_2.wav,,,,,,,,,,,,,,,0,24,24,64,,,,,,,,,,,,,,,,,,,,,,,416.2208057460375,None,417.72037034202367,None,419.1041153660044,None,"crisp
",419.1041153660044,None,return,9.618256910704076,419.1874015168287,None,,,,,,,,,,,,,,,,,,,,,,,,,,,,,,,,,64,001,2023_Apr_07_1801,SpeechDraft1Carolyn_lessNoise_PlusLocalization,2021.2.3,59.94321331699747,
dove.wav,dove.mpg,dove,2,AV,Pink_Noise_2_1.wav,Pink_Noise_2_2.wav,,,,,,,,,,,,,,,0,25,25,90,,,,,,,,,,,,,,,,,,,,,,,428.837540730834,None,430.35366113111377,None,431.73737315880135,None,dove,431.73737315880135,None,return,14.80889769596979,431.82075840607285,None,,,,,,,,,,,,,,,,,,,,,,,,,,,,,,,,,64,001,2023_Apr_07_1801,SpeechDraft1Carolyn_lessNoise_PlusLocalization,2021.2.3,59.94321331699747,
deed.wav,deed.mpg,deed,3,A,Pink_Noise_3_1.wav,Pink_Noise_3_2.wav,,,,,,,,,,,,,,,0,26,26,25,,,,,,,,,,,,,,,,,,,,,,,446.65427643293515,None,448.1543215001002,None,449.5374475941062,None,due,449.5374475941062,None,return,7.392853215802461,449.6208096072078,None,,,,,,,,,,,,,,,,,,,,,,,,,,,,,,,,,64,001,2023_Apr_07_1801,SpeechDraft1Carolyn_lessNoise_PlusLocalization,2021.2.3,59.94321331699747,
spire.wav,spire.mpg,spire,1,AV,Pink_Noise_1_1.wav,Pink_Noise_1_2.wav,,,,,,,,,,,,,,,0,27,27,78,,,,,,,,,,,,,,,,,,,,,,,457.0373576460406,None,458.55362866912037,None,459.937434011139,None,spire,459.937434011139,None,return,5.489078441634774,460.02074182918295,None,,,,,,,,,,,,,,,,,,,,,,,,,,,,,,,,,64,001,2023_Apr_07_1801,SpeechDraft1Carolyn_lessNoise_PlusLocalization,2021.2.3,59.94321331699747,
tart.wav,tart.mpg,tart,3,A,Pink_Noise_3_1.wav,Pink_Noise_3_2.wav,,,,,,,,,,,,,,,0,28,28,42,,,,,,,,,,,,,,,,,,,,,,,465.5376389310695,None,467.0535372220911,None,468.4374459339306,None,tart,468.4374459339306,None,return,4.333002585917711,468.52077368693426,None,,,,,,,,,,,,,,,,,,,,,,,,,,,,,,,,,64,001,2023_Apr_07_1801,SpeechDraft1Carolyn_lessNoise_PlusLocalization,2021.2.3,59.94321331699747,
please.wav,please.mpg,please,2,A,Pink_Noise_2_1.wav,Pink_Noise_2_2.wav,,,,,,,,,,,,,,,0,29,29,1,,,,,,,,,,,,,,,,,,,,,,,472.87075989693403,None,474.3701621899381,None,475.754178408999,None,leaves,475.754178408999,None,return,11.560300744138658,475.8373721851967,None,,,,,,,,,,,,,,,,,,,,,,,,,,,,,,,,,64,001,2023_Apr_07_1801,SpeechDraft1Carolyn_lessNoise_PlusLocalization,2021.2.3,59.94321331699747,
earn.wav,earn.mpg,earn,5,AV,Pink_Noise_5_1.wav,Pink_Noise_5_2.wav,,,,,,,,,,,,,,,0,30,30,114,,,,,,,,,,,,,,,,,,,,,,,487.4207796128467,None,488.9370428598486,None,490.32077177613974,None,"girl
",490.32077177613974,None,return,12.633669370785356,490.40399926388636,None,,,,,,,,,,,,,,,,,,,,,,,,,,,,,,,,,64,001,2023_Apr_07_1801,SpeechDraft1Carolyn_lessNoise_PlusLocalization,2021.2.3,59.94321331699747,
choke.wav,choke.mpg,choke,6,AV,Pink_Noise_6_1.wav,Pink_Noise_6_2.wav,,,,,,,,,,,,,,,0,31,31,115,,,,,,,,,,,,,,,,,,,,,,,503.07088229386136,None,504.586983777117,None,505.9708709581755,None,"joke
",505.9708709581755,None,return,5.935375725850463,506.0542940138839,None,,,,,,,,,,,,,,,,,,,,,,,,,,,,,,,,,64,001,2023_Apr_07_1801,SpeechDraft1Carolyn_lessNoise_PlusLocalization,2021.2.3,59.94321331699747,
toy.wav,toy.mpg,toy,5,A,Pink_Noise_5_1.wav,Pink_Noise_5_2.wav,,,,,,,,,,,,,,,0,32,32,19,,,,,,,,,,,,,,,,,,,,,,,512.0206560632214,None,513.5376270469278,None,514.9208809360862,None,voice,514.9208809360862,None,return,7.521606178022921,515.0041168439202,None,,,,,,,,,,,,,,,,,,,,,,,,,,,,,,,,,64,001,2023_Apr_07_1801,SpeechDraft1Carolyn_lessNoise_PlusLocalization,2021.2.3,59.94321331699747,
buff.wav,buff.mpg,buff,6,A,Pink_Noise_6_1.wav,Pink_Noise_6_2.wav,,,,,,,,,,,,,,,0,33,33,30,,,,,,,,,,,,,,,,,,,,,,,522.5543062170036,None,524.0704140770249,None,525.4542834120803,None,fox,525.4542834120803,None,return,5.308193066623062,525.5374952419661,None,,,,,,,,,,,,,,,,,,,,,,,,,,,,,,,,,64,001,2023_Apr_07_1801,SpeechDraft1Carolyn_lessNoise_PlusLocalization,2021.2.3,59.94321331699747,
blob.wav,blob.mpg,blob,5,AV,Pink_Noise_5_1.wav,Pink_Noise_5_2.wav,,,,,,,,,,,,,,,0,34,34,96,,,,,,,,,,,,,,,,,,,,,,,530.8709240350872,None,532.3871756847948,None,533.7708902698942,None,"blab
",533.7708902698942,None,return,8.351373236160725,533.8542926381342,None,,,,,,,,,,,,,,,,,,,,,,,,,,,,,,,,,64,001,2023_Apr_07_1801,SpeechDraft1Carolyn_lessNoise_PlusLocalization,2021.2.3,59.94321331699747,
fifth.wav,fifth.mpg,fifth,4,A,Pink_Noise_4_1.wav,Pink_Noise_4_2.wav,,,,,,,,,,,,,,,0,35,35,26,,,,,,,,,,,,,,,,,,,,,,,542.2376448251307,None,543.7535742009059,None,545.1376710860059,None,"church
",545.1376710860059,None,return,9.984733413904905,545.2209419962019,None,,,,,,,,,,,,,,,,,,,,,,,,,,,,,,,,,64,001,2023_Apr_07_1801,SpeechDraft1Carolyn_lessNoise_PlusLocalization,2021.2.3,59.94321331699747,
bush.wav,bush.mpg,bush,5,A,Pink_Noise_5_1.wav,Pink_Noise_5_2.wav,,,,,,,,,,,,,,,0,36,36,33,,,,,,,,,,,,,,,,,,,,,,,555.2376107741147,None,556.7374059208669,None,558.1209711888805,None,rush,558.1209711888805,None,return,6.689485304057598,558.2043256140314,None,,,,,,,,,,,,,,,,,,,,,,,,,,,,,,,,,64,001,2023_Apr_07_1801,SpeechDraft1Carolyn_lessNoise_PlusLocalization,2021.2.3,59.94321331699747,
bull.wav,bull.mpg,bull,1,A,Pink_Noise_1_1.wav,Pink_Noise_1_2.wav,,,,,,,,,,,,,,,0,37,37,35,,,,,,,,,,,,,,,,,,,,,,,564.9209350910969,None,566.4208066598512,None,567.8044360661879,None,bowl,567.8044360661879,None,return,5.213973064906895,567.887695225887,None,,,,,,,,,,,,,,,,,,,,,,,,,,,,,,,,,64,001,2023_Apr_07_1801,SpeechDraft1Carolyn_lessNoise_PlusLocalization,2021.2.3,59.94321331699747,
ghost.wav,ghost.mpg,ghost,1,AV,Pink_Noise_1_1.wav,Pink_Noise_1_2.wav,,,,,,,,,,,,,,,0,38,38,119,,,,,,,,,,,,,,,,,,,,,,,573.1209028391168,None,574.6371520441025,None,576.0205713980831,None,ghost,576.0205713980831,None,return,5.509392420295626,576.1042603808455,None,,,,,,,,,,,,,,,,,,,,,,,,,,,,,,,,,64,001,2023_Apr_07_1801,SpeechDraft1Carolyn_lessNoise_PlusLocalization,2021.2.3,59.94321331699747,
catch.wav,catch.mpg,catch,5,AV,Pink_Noise_5_1.wav,Pink_Noise_5_2.wav,,,,,,,,,,,,,,,0,39,39,95,,,,,,,,,,,,,,,,,,,,,,,581.637527314946,None,583.1382582159713,None,584.5209895838052,None,"lash
",584.5209895838052,None,return,8.601278318092227,584.6043944708072,None,,,,,,,,,,,,,,,,,,,,,,,,,,,,,,,,,64,001,2023_Apr_07_1801,SpeechDraft1Carolyn_lessNoise_PlusLocalization,2021.2.3,59.94321331699747,
foot.wav,foot.mpg,foot,1,A,Pink_Noise_1_1.wav,Pink_Noise_1_2.wav,,,,,,,,,,,,,,,0,40,40,20,,,,,,,,,,,,,,,,,,,,,,,593.2376704378985,None,594.7539707710966,None,596.137676589191,None,foot,596.137676589191,None,return,6.456832899246365,596.2209538551979,None,,,,,,,,,,,,,,,,,,,,,,,,,,,,,,,,,64,001,2023_Apr_07_1801,SpeechDraft1Carolyn_lessNoise_PlusLocalization,2021.2.3,59.94321331699747,
blond.wav,blond.mpg,blond,5,AV,Pink_Noise_5_1.wav,Pink_Noise_5_2.wav,,,,,,,,,,,,,,,0,41,41,93,,,,,,,,,,,,,,,,,,,,,,,602.7046049870551,None,604.2206770791672,None,605.6042128801346,None,"blind
",605.6042128801346,None,return,6.701936261262745,605.687735456042,None,,,,,,,,,,,,,,,,,,,,,,,,,,,,,,,,,64,001,2023_Apr_07_1801,SpeechDraft1Carolyn_lessNoise_PlusLocalization,2021.2.3,59.94321331699747,
bird.wav,bird.mpg,bird,6,A,Pink_Noise_6_1.wav,Pink_Noise_6_2.wav,,,,,,,,,,,,,,,0,42,42,55,,,,,,,,,,,,,,,,,,,,,,,612.4211366791278,None,613.920807749033,None,615.3043804881163,None,burn,615.3043804881163,None,return,7.242051261942834,615.3876073341817,None,,,,,,,,,,,,,,,,,,,,,,,,,,,,,,,,,64,001,2023_Apr_07_1801,SpeechDraft1Carolyn_lessNoise_PlusLocalization,2021.2.3,59.94321331699747,
foam.wav,foam.mpg,foam,2,AV,Pink_Noise_2_1.wav,Pink_Noise_2_2.wav,,,,,,,,,,,,,,,0,43,43,109,,,,,,,,,,,,,,,,,,,,,,,622.6544765587896,None,624.1706322678365,None,625.5541406250559,None,phone,625.5541406250559,None,return,7.960001185070723,625.6376641201787,None,,,,,,,,,,,,,,,,,,,,,,,,,,,,,,,,,64,001,2023_Apr_07_1801,SpeechDraft1Carolyn_lessNoise_PlusLocalization,2021.2.3,59.94321331699747,
bump.wav,bump.mpg,bump,5,A,Pink_Noise_5_1.wav,Pink_Noise_5_2.wav,,,,,,,,,,,,,,,0,44,44,58,,,,,,,,,,,,,,,,,,,,,,,633.6209344500676,None,635.1374367880635,None,636.5210412438028,None,moat,636.5210412438028,None,return,8.889541273005307,636.6042355438694,None,,,,,,,,,,,,,,,,,,,,,,,,,,,,,,,,,64,001,2023_Apr_07_1801,SpeechDraft1Carolyn_lessNoise_PlusLocalization,2021.2.3,59.94321331699747,
club.wav,club.mpg,club,5,AV,Pink_Noise_5_1.wav,Pink_Noise_5_2.wav,,,,,,,,,,,,,,,0,45,45,61,,,,,,,,,,,,,,,,,,,,,,,645.5208975160494,None,647.0376206981018,None,648.4209259240888,None,flub,648.4209259240888,None,return,19.165401397272944,648.504317348823,None,,,,,,,,,,,,,,,,,,,,,,,,,,,,,,,,,64,001,2023_Apr_07_1801,SpeechDraft1Carolyn_lessNoise_PlusLocalization,2021.2.3,59.94321331699747,
tense.wav,tense.mpg,tense,2,AV,Pink_Noise_2_1.wav,Pink_Noise_2_2.wav,,,,,,,,,,,,,,,0,46,46,92,,,,,,,,,,,,,,,,,,,,,,,667.6879023998044,None,669.20417433884,None,670.5877456720918,None,"tense
",670.5877456720918,None,return,5.102564319036901,670.6711233910173,None,,,,,,,,,,,,,,,,,,,,,,,,,,,,,,,,,64,001,2023_Apr_07_1801,SpeechDraft1Carolyn_lessNoise_PlusLocalization,2021.2.3,59.94321331699747,
roar.wav,roar.mpg,roar,3,AV,Pink_Noise_3_1.wav,Pink_Noise_3_2.wav,,,,,,,,,,,,,,,0,47,47,75,,,,,,,,,,,,,,,,,,,,,,,675.8045640960336,None,677.3209022767842,None,678.7041789591312,None,"drawer
",678.7041789591312,None,return,6.401944662909955,678.7877268609591,None,,,,,,,,,,,,,,,,,,,,,,,,,,,,,,,,,64,001,2023_Apr_07_1801,SpeechDraft1Carolyn_lessNoise_PlusLocalization,2021.2.3,59.94321331699747,
east.wav,east.mpg,east,2,A,Pink_Noise_2_1.wav,Pink_Noise_2_2.wav,,,,,,,,,,,,,,,0,48,48,29,,,,,,,,,,,,,,,,,,,,,,,685.221040036995,None,686.7209562822245,None,688.1046372801065,None,"beast
",688.1046372801065,None,return,4.833951521199197,688.1877161921002,None,,,,,,,,,,,,,,,,,,,,,,,,,,,,,,,,,64,001,2023_Apr_07_1801,SpeechDraft1Carolyn_lessNoise_PlusLocalization,2021.2.3,59.94321331699747,
curb.wav,curb.mpg,curb,2,AV,Pink_Noise_2_1.wav,Pink_Noise_2_2.wav,,,,,,,,,,,,,,,0,49,49,118,,,,,,,,,,,,,,,,,,,,,,,693.0544370352291,None,694.5708031770773,None,695.9542425489053,None,curb,695.9542425489053,None,return,5.695825183298439,696.0378295741975,None,,,,,,,,,,,,,,,,,,,,,,,,,,,,,,,,,64,001,2023_Apr_07_1801,SpeechDraft1Carolyn_lessNoise_PlusLocalization,2021.2.3,59.94321331699747,
bride.wav,bride.mpg,bride,4,AV,Pink_Noise_4_1.wav,Pink_Noise_4_2.wav,,,,,,,,,,,,,,,0,50,50,70,,,,,,,,,,,,,,,,,,,,,,,701.7543558450416,None,703.2555750790052,None,704.637897580862,None,pry,704.637897580862,None,return,12.940447319298983,704.7212859448045,None,,,,,,,,,,,,,,,,,,,,,,,,,,,,,,,,,64,001,2023_Apr_07_1801,SpeechDraft1Carolyn_lessNoise_PlusLocalization,2021.2.3,59.94321331699747,
brew.wav,brew.mpg,brew,2,A,Pink_Noise_2_1.wav,Pink_Noise_2_2.wav,,,,,,,,,,,,,,,0,51,51,12,,,,,,,,,,,,,,,,,,,,,,,717.6877085799351,None,719.1877712327987,None,720.5709624309093,None,"brew
",720.5709624309093,None,return,16.70330091007054,720.6543616428971,None,,,,,,,,,,,,,,,,,,,,,,,,,,,,,,,,,64,001,2023_Apr_07_1801,SpeechDraft1Carolyn_lessNoise_PlusLocalization,2021.2.3,59.94321331699747,
cloth.wav,cloth.mpg,cloth,4,AV,Pink_Noise_4_1.wav,Pink_Noise_4_2.wav,,,,,,,,,,,,,,,0,52,52,100,,,,,,,,,,,,,,,,,,,,,,,737.3877387419343,None,738.9043818879873,None,740.2877606451511,None,sloth,740.2877606451511,None,return,9.826565742958337,740.371089367196,None,,,,,,,,,,,,,,,,,,,,,,,,,,,,,,,,,64,001,2023_Apr_07_1801,SpeechDraft1Carolyn_lessNoise_PlusLocalization,2021.2.3,59.94321331699747,
brake.wav,brake.mpg,brake,3,AV,Pink_Noise_3_1.wav,Pink_Noise_3_2.wav,,,,,,,,,,,,,,,0,53,53,66,,,,,,,,,,,,,,,,,,,,,,,750.2212752820924,None,751.7374829291366,None,753.121204922907,None,break,753.121204922907,None,return,4.433326748665422,753.2044074870646,None,,,,,,,,,,,,,,,,,,,,,,,,,,,,,,,,,64,001,2023_Apr_07_1801,SpeechDraft1Carolyn_lessNoise_PlusLocalization,2021.2.3,59.94321331699747,
boot.wav,boot.mpg,boot,6,A,Pink_Noise_6_1.wav,Pink_Noise_6_2.wav,,,,,,,,,,,,,,,0,54,54,27,,,,,,,,,,,,,,,,,,,,,,,757.6543788849376,None,759.1711577977985,None,760.5545529671945,None,slip,760.5545529671945,None,return,5.079911909997463,760.6378088369966,None,,,,,,,,,,,,,,,,,,,,,,,,,,,,,,,,,64,001,2023_Apr_07_1801,SpeechDraft1Carolyn_lessNoise_PlusLocalization,2021.2.3,59.94321331699747,
nine.wav,nine.mpg,nine,2,A,Pink_Noise_2_1.wav,Pink_Noise_2_2.wav,,,,,,,,,,,,,,,0,55,55,9,,,,,,,,,,,,,,,,,,,,,,,765.7378604868427,None,767.2540617398918,None,768.6378346970305,None,nine,768.6378346970305,None,return,3.7244456042535603,768.7212403831072,None,,,,,,,,,,,,,,,,,,,,,,,,,,,,,,,,,64,001,2023_Apr_07_1801,SpeechDraft1Carolyn_lessNoise_PlusLocalization,2021.2.3,59.94321331699747,
cause.wav,cause.mpg,cause,4,A,Pink_Noise_4_1.wav,Pink_Noise_4_2.wav,,,,,,,,,,,,,,,0,56,56,50,,,,,,,,,,,,,,,,,,,,,,,772.4711491651833,None,773.9876351868734,None,775.371332291048,None,"cause
",775.371332291048,None,return,5.319102726876736,775.4545426121913,None,,,,,,,,,,,,,,,,,,,,,,,,,,,,,,,,,64,001,2023_Apr_07_1801,SpeechDraft1Carolyn_lessNoise_PlusLocalization,2021.2.3,59.94321331699747,
clown.wav,clown.mpg,clown,3,AV,Pink_Noise_3_1.wav,Pink_Noise_3_2.wav,,,,,,,,,,,,,,,0,57,57,91,,,,,,,,,,,,,,,,,,,,,,,780.8044597129337,None,782.3211341239512,None,783.7045075749047,None,glow,783.7045075749047,None,return,7.305756949819624,783.787990890909,None,,,,,,,,,,,,,,,,,,,,,,,,,,,,,,,,,64,001,2023_Apr_07_1801,SpeechDraft1Carolyn_lessNoise_PlusLocalization,2021.2.3,59.94321331699747,
flick.wav,flick.mpg,flick,6,A,Pink_Noise_6_1.wav,Pink_Noise_6_2.wav,,,,,,,,,,,,,,,0,58,58,52,,,,,,,,,,,,,,,,,,,,,,,791.1212504189461,None,792.6377861211076,None,794.0211409321055,None,look,794.0211409321055,None,return,17.789234864059836,794.1045745662414,None,,,,,,,,,,,,,,,,,,,,,,,,,,,,,,,,,64,001,2023_Apr_07_1801,SpeechDraft1Carolyn_lessNoise_PlusLocalization,2021.2.3,59.94321331699747,
dwell.wav,dwell.mpg,dwell,6,AV,Pink_Noise_6_1.wav,Pink_Noise_6_2.wav,,,,,,,,,,,,,,,0,59,59,108,,,,,,,,,,,,,,,,,,,,,,,811.9212358761579,None,813.437563710846,None,814.8211989570409,None,dwell,814.8211989570409,None,return,4.5570640987716615,814.9047285630368,None,,,,,,,,,,,,,,,,,,,,,,,,,,,,,,,,,64,001,2023_Apr_07_1801,SpeechDraft1Carolyn_lessNoise_PlusLocalization,2021.2.3,59.94321331699747,
pipe.wav,pipe.mpg,pipe,3,A,Pink_Noise_3_1.wav,Pink_Noise_3_2.wav,,,,,,,,,,,,,,,0,60,60,21,,,,,,,,,,,,,,,,,,,,,,,819.4878853778355,None,821.0042205732316,None,822.3877681419253,None,height,822.3877681419253,None,return,8.12645755102858,822.4712127791718,None,,,,,,,,,,,,,,,,,,,,,,,,,,,,,,,,,64,001,2023_Apr_07_1801,SpeechDraft1Carolyn_lessNoise_PlusLocalization,2021.2.3,59.94321331699747,
bloom.wav,bloom.mpg,bloom,2,AV,Pink_Noise_2_1.wav,Pink_Noise_2_2.wav,,,,,,,,,,,,,,,0,61,61,88,,,,,,,,,,,,,,,,,,,,,,,830.6213373388164,None,832.1398448101245,None,833.5212258570828,None,blue,833.5212258570828,None,return,8.897139187902212,833.6045743487775,None,,,,,,,,,,,,,,,,,,,,,,,,,,,,,,,,,64,001,2023_Apr_07_1801,SpeechDraft1Carolyn_lessNoise_PlusLocalization,2021.2.3,59.94321331699747,
cop.wav,cop.mpg,cop,1,AV,Pink_Noise_1_1.wav,Pink_Noise_1_2.wav,,,,,,,,,,,,,,,0,62,62,69,,,,,,,,,,,,,,,,,,,,,,,842.5214165751822,None,844.0376698030159,None,845.4212795579806,None,cop,845.4212795579806,None,return,4.3969443454407156,845.504778882023,None,,,,,,,,,,,,,,,,,,,,,,,,,,,,,,,,,64,001,2023_Apr_07_1801,SpeechDraft1Carolyn_lessNoise_PlusLocalization,2021.2.3,59.94321331699747,
bread.wav,bread.mpg,bread,2,A,Pink_Noise_2_1.wav,Pink_Noise_2_2.wav,,,,,,,,,,,,,,,0,63,63,47,,,,,,,,,,,,,,,,,,,,,,,849.9213297008537,None,851.4377204081975,None,852.8213928779587,None,red,852.8213928779587,None,return,4.03711230494082,852.9045526231639,None,,,,,,,,,,,,,,,,,,,,,,,,,,,,,,,,,64,001,2023_Apr_07_1801,SpeechDraft1Carolyn_lessNoise_PlusLocalization,2021.2.3,59.94321331699747,
bare.wav,bare.mpg,bare,4,A,Pink_Noise_4_1.wav,Pink_Noise_4_2.wav,,,,,,,,,,,,,,,0,64,64,18,,,,,,,,,,,,,,,,,,,,,,,856.9711139318533,None,858.4874690789729,None,859.8713247301057,None,mail,859.8713247301057,None,return,3.363045183941722,859.9546892400831,None,,,,,,,,,,,,,,,,,,,,,,,,,,,,,,,,,64,001,2023_Apr_07_1801,SpeechDraft1Carolyn_lessNoise_PlusLocalization,2021.2.3,59.94321331699747,
drug.wav,drug.mpg,drug,2,AV,Pink_Noise_2_1.wav,Pink_Noise_2_2.wav,,,,,,,,,,,,,,,0,65,65,77,,,,,,,,,,,,,,,,,,,,,,,863.3380979201756,None,864.854401241988,None,866.2380078821443,None,drug,866.2380078821443,None,return,11.228440206032246,866.3212291300297,None,,,,,,,,,,,,,,,,,,,,,,,,,,,,,,,,,64,001,2023_Apr_07_1801,SpeechDraft1Carolyn_lessNoise_PlusLocalization,2021.2.3,59.94321331699747,
slush.wav,slush.mpg,slush,5,A,Pink_Noise_5_1.wav,Pink_Noise_5_2.wav,,,,,,,,,,,,,,,0,66,66,31,,,,,,,,,,,,,,,,,,,,,,,877.5712415771559,None,879.1209277338348,None,880.5047223027796,None,slash,880.5047223027796,None,return,8.937623530626297,880.5880330018699,None,,,,,,,,,,,,,,,,,,,,,,,,,,,,,,,,,64,001,2023_Apr_07_1801,SpeechDraft1Carolyn_lessNoise_PlusLocalization,2021.2.3,59.94321331699747,
draw.wav,draw.mpg,draw,6,AV,Pink_Noise_6_1.wav,Pink_Noise_6_2.wav,,,,,,,,,,,,,,,0,67,67,73,,,,,,,,,,,,,,,,,,,,,,,889.5546281822026,None,891.087754608132,None,892.471267357003,None,draw,892.471267357003,None,return,7.4110069293528795,892.554653539788,None,,,,,,,,,,,,,,,,,,,,,,,,,,,,,,,,,64,001,2023_Apr_07_1801,SpeechDraft1Carolyn_lessNoise_PlusLocalization,2021.2.3,59.94321331699747,
belch.wav,belch.mpg,belch,3,AV,Pink_Noise_3_1.wav,Pink_Noise_3_2.wav,,,,,,,,,,,,,,,0,68,68,81,,,,,,,,,,,,,,,,,,,,,,,899.9878243422136,None,901.5045089861378,None,902.8879372859374,None,belch,902.8879372859374,None,return,7.626127506606281,902.9715349078178,None,,,,,,,,,,,,,,,,,,,,,,,,,,,,,,,,,64,001,2023_Apr_07_1801,SpeechDraft1Carolyn_lessNoise_PlusLocalization,2021.2.3,59.94321331699747,
cloud.wav,cloud.mpg,cloud,2,AV,Pink_Noise_2_1.wav,Pink_Noise_2_2.wav,,,,,,,,,,,,,,,0,69,69,104,,,,,,,,,,,,,,,,,,,,,,,910.6214045560919,None,912.1377075682394,None,913.5213999729604,None,cloud,913.5213999729604,None,return,4.328919231891632,913.6047304621898,None,,,,,,,,,,,,,,,,,,,,,,,,,,,,,,,,,64,001,2023_Apr_07_1801,SpeechDraft1Carolyn_lessNoise_PlusLocalization,2021.2.3,59.94321331699747,
crust.wav,crust.mpg,crust,4,A,Pink_Noise_4_1.wav,Pink_Noise_4_2.wav,,,,,,,,,,,,,,,0,70,70,45,,,,,,,,,,,,,,,,,,,,,,,917.9546623202041,None,919.487484687008,None,920.8714081621729,None,crust,920.8714081621729,None,return,3.9707395252771676,920.9549213708378,None,,,,,,,,,,,,,,,,,,,,,,,,,,,,,,,,,64,001,2023_Apr_07_1801,SpeechDraft1Carolyn_lessNoise_PlusLocalization,2021.2.3,59.94321331699747,
dice.wav,dice.mpg,dice,3,AV,Pink_Noise_3_1.wav,Pink_Noise_3_2.wav,,,,,,,,,,,,,,,0,71,71,117,,,,,,,,,,,,,,,,,,,,,,,924.9546382799745,None,926.4709417792037,None,927.8547511459328,None,dice,927.8547511459328,None,return,3.659642582759261,927.9380462910049,None,,,,,,,,,,,,,,,,,,,,,,,,,,,,,,,,,64,001,2023_Apr_07_1801,SpeechDraft1Carolyn_lessNoise_PlusLocalization,2021.2.3,59.94321331699747,
grab.wav,grab.mpg,grab,6,AV,Pink_Noise_6_1.wav,Pink_Noise_6_2.wav,,,,,,,,,,,,,,,0,72,72,105,,,,,,,,,,,,,,,,,,,,,,,931.6213778448291,None,933.1547490078956,None,934.5381847228855,None,drab,934.5381847228855,None,return,4.560264241881669,934.6214018729515,None,,,,,,,,,,,,,,,,,,,,,,,,,,,,,,,,,64,001,2023_Apr_07_1801,SpeechDraft1Carolyn_lessNoise_PlusLocalization,2021.2.3,59.94321331699747,
cross.wav,cross.mpg,cross,5,A,Pink_Noise_5_1.wav,Pink_Noise_5_2.wav,,,,,,,,,,,,,,,0,73,73,57,,,,,,,,,,,,,,,,,,,,,,,939.2048418498598,None,940.7209904808551,None,942.1047615362331,None,"cross
",942.1047615362331,None,return,3.833469246979803,942.1881906557828,None,,,,,,,,,,,,,,,,,,,,,,,,,,,,,,,,,64,001,2023_Apr_07_1801,SpeechDraft1Carolyn_lessNoise_PlusLocalization,2021.2.3,59.94321331699747,
flat.wav,flat.mpg,flat,3,AV,Pink_Noise_3_1.wav,Pink_Noise_3_2.wav,,,,,,,,,,,,,,,0,74,74,97,,,,,,,,,,,,,,,,,,,,,,,946.0547985248268,None,947.5712317391299,None,948.9548597871326,None,flat,948.9548597871326,None,return,9.81558394106105,949.0382496737875,None,,,,,,,,,,,,,,,,,,,,,,,,,,,,,,,,,64,001,2023_Apr_07_1801,SpeechDraft1Carolyn_lessNoise_PlusLocalization,2021.2.3,59.94321331699747,
count.wav,count.mpg,count,4,A,Pink_Noise_4_1.wav,Pink_Noise_4_2.wav,,,,,,,,,,,,,,,0,75,75,39,,,,,,,,,,,,,,,,,,,,,,,958.8714761519805,None,960.3878147602081,None,961.7714348081499,None,coat,961.7714348081499,None,return,4.614821137860417,961.8549473797902,None,,,,,,,,,,,,,,,,,,,,,,,,,,,,,,,,,64,001,2023_Apr_07_1801,SpeechDraft1Carolyn_lessNoise_PlusLocalization,2021.2.3,59.94321331699747,
bill.wav,bill.mpg,bill,1,A,Pink_Noise_1_1.wav,Pink_Noise_1_2.wav,,,,,,,,,,,,,,,0,76,76,22,,,,,,,,,,,,,,,,,,,,,,,966.4881851691753,None,968.0047710798681,None,969.3882022779435,None,bill,969.3882022779435,None,return,5.022075740620494,969.4716984592378,None,,,,,,,,,,,,,,,,,,,,,,,,,,,,,,,,,64,001,2023_Apr_07_1801,SpeechDraft1Carolyn_lessNoise_PlusLocalization,2021.2.3,59.94321331699747,
wet.wav,wet.mpg,wet,1,AV,Pink_Noise_1_1.wav,Pink_Noise_1_2.wav,,,,,,,,,,,,,,,0,77,77,94,,,,,,,,,,,,,,,,,,,,,,,974.5215858658776,None,976.0543896518648,None,977.4380379868671,None,wet,977.4380379868671,None,return,2.980340695939958,977.5214230059646,None,,,,,,,,,,,,,,,,,,,,,,,,,,,,,,,,,64,001,2023_Apr_07_1801,SpeechDraft1Carolyn_lessNoise_PlusLocalization,2021.2.3,59.94321331699747,
fruit.wav,fruit.mpg,fruit,4,A,Pink_Noise_4_1.wav,Pink_Noise_4_2.wav,,,,,,,,,,,,,,,0,78,78,28,,,,,,,,,,,,,,,,,,,,,,,980.5215119468048,None,982.054304425139,None,983.4382098698989,None,fruit,983.4382098698989,None,return,3.7243913281708956,983.5212863702327,None,,,,,,,,,,,,,,,,,,,,,,,,,,,,,,,,,64,001,2023_Apr_07_1801,SpeechDraft1Carolyn_lessNoise_PlusLocalization,2021.2.3,59.94321331699747,
wound.wav,wound.mpg,wound,1,AV,Pink_Noise_1_1.wav,Pink_Noise_1_2.wav,,,,,,,,,,,,,,,0,79,79,89,,,,,,,,,,,,,,,,,,,,,,,987.2713281428441,None,988.804613663815,None,990.1880394881591,None,wound,990.1880394881591,None,return,5.358202359173447,990.2714724037796,None,,,,,,,,,,,,,,,,,,,,,,,,,,,,,,,,,64,001,2023_Apr_07_1801,SpeechDraft1Carolyn_lessNoise_PlusLocalization,2021.2.3,59.94321331699747,
quart.wav,quart.mpg,quart,4,A,Pink_Noise_4_1.wav,Pink_Noise_4_2.wav,,,,,,,,,,,,,,,0,80,80,56,,,,,,,,,,,,,,,,,,,,,,,995.6547157550231,None,997.1714213411324,None,998.5549548747949,None,quote,998.5549548747949,None,return,8.223603959660977,998.6381461122073,None,,,,,,,,,,,,,,,,,,,,,,,,,,,,,,,,,64,001,2023_Apr_07_1801,SpeechDraft1Carolyn_lessNoise_PlusLocalization,2021.2.3,59.94321331699747,
boil.wav,boil.mpg,boil,3,AV,Pink_Noise_3_1.wav,Pink_Noise_3_2.wav,,,,,,,,,,,,,,,0,81,81,68,,,,,,,,,,,,,,,,,,,,,,,1006.8882147679105,None,1008.404576589819,None,1009.7880809879862,None,boiled,1009.7880809879862,None,return,5.590267010964453,1009.871491742786,None,,,,,,,,,,,,,,,,,,,,,,,,,,,,,,,,,64,001,2023_Apr_07_1801,SpeechDraft1Carolyn_lessNoise_PlusLocalization,2021.2.3,59.94321331699747,
fence.wav,fence.mpg,fence,6,A,Pink_Noise_6_1.wav,Pink_Noise_6_2.wav,,,,,,,,,,,,,,,0,82,82,16,,,,,,,,,,,,,,,,,,,,,,,1015.4881657920778,None,1017.0043219169602,None,1018.388390220236,None,lense,1018.388390220236,None,return,6.942030233796686,1018.471642057877,None,,,,,,,,,,,,,,,,,,,,,,,,,,,,,,,,,64,001,2023_Apr_07_1801,SpeechDraft1Carolyn_lessNoise_PlusLocalization,2021.2.3,59.94321331699747,
broom.wav,broom.mpg,broom,6,A,Pink_Noise_6_1.wav,Pink_Noise_6_2.wav,,,,,,,,,,,,,,,0,83,83,6,,,,,,,,,,,,,,,,,,,,,,,1025.4382514348254,None,1026.9550098371692,None,1028.338170075789,None,brute,1028.338170075789,None,return,10.61625410662964,1028.4214952839538,None,,,,,,,,,,,,,,,,,,,,,,,,,,,,,,,,,64,001,2023_Apr_07_1801,SpeechDraft1Carolyn_lessNoise_PlusLocalization,2021.2.3,59.94321331699747,
flush.wav,flush.mpg,flush,5,AV,Pink_Noise_5_1.wav,Pink_Noise_5_2.wav,,,,,,,,,,,,,,,0,84,84,62,,,,,,,,,,,,,,,,,,,,,,,1039.0550564168952,None,1040.5890253079124,None,1041.9714994202368,None,flush,1041.9714994202368,None,return,6.294669562019408,1042.0549997310154,None,,,,,,,,,,,,,,,,,,,,,,,,,,,,,,,,,64,001,2023_Apr_07_1801,SpeechDraft1Carolyn_lessNoise_PlusLocalization,2021.2.3,59.94321331699747,
crude.wav,crude.mpg,crude,4,AV,Pink_Noise_4_1.wav,Pink_Noise_4_2.wav,,,,,,,,,,,,,,,0,85,85,71,,,,,,,,,,,,,,,,,,,,,,,1048.3716327371076,None,1049.8879123721272,None,1051.2717596068978,None,crude,1051.2717596068978,None,return,7.498776410706341,1051.3549835542217,None,,,,,,,,,,,,,,,,,,,,,,,,,,,,,,,,,64,001,2023_Apr_07_1801,SpeechDraft1Carolyn_lessNoise_PlusLocalization,2021.2.3,59.94321331699747,
castle.wav,castle.mpg,castle,1,A,Pink_Noise_1_1.wav,Pink_Noise_1_2.wav,,,,,,,,,,,,,,,0,86,86,59,,,,,,,,,,,,,,,,,,,,,,,1058.8714514630847,None,1060.387868763879,None,1061.7714823940769,None,castle,1061.7714823940769,None,return,4.990790894255042,1061.854989444837,None,,,,,,,,,,,,,,,,,,,,,,,,,,,,,,,,,64,001,2023_Apr_07_1801,SpeechDraft1Carolyn_lessNoise_PlusLocalization,2021.2.3,59.94321331699747,
cab.wav,cab.mpg,cab,2,AV,Pink_Noise_2_1.wav,Pink_Noise_2_2.wav,,,,,,,,,,,,,,,0,87,87,116,,,,,,,,,,,,,,,,,,,,,,,1066.871850762982,None,1068.404475545045,None,1069.7882519089617,None,cab,1069.7882519089617,None,return,3.8379288529977202,1069.8718202379532,None,,,,,,,,,,,,,,,,,,,,,,,,,,,,,,,,,64,001,2023_Apr_07_1801,SpeechDraft1Carolyn_lessNoise_PlusLocalization,2021.2.3,59.94321331699747,
guess.wav,guess.mpg,guess,1,AV,Pink_Noise_1_1.wav,Pink_Noise_1_2.wav,,,,,,,,,,,,,,,0,88,88,86,,,,,,,,,,,,,,,,,,,,,,,1073.7384003601037,None,1075.271218702197,None,1076.6549358279444,None,guess,1076.6549358279444,None,return,7.7554167760536075,1076.7382418531924,None,,,,,,,,,,,,,,,,,,,,,,,,,,,,,,,,,64,001,2023_Apr_07_1801,SpeechDraft1Carolyn_lessNoise_PlusLocalization,2021.2.3,59.94321331699747,
birth.wav,birth.mpg,birth,2,A,Pink_Noise_2_1.wav,Pink_Noise_2_2.wav,,,,,,,,,,,,,,,0,89,89,2,,,,,,,,,,,,,,,,,,,,,,,1084.5214138198644,None,1086.0381190390326,None,1087.4214257989079,None,"bird
",1087.4214257989079,None,return,6.252841372974217,1087.504824180156,None,,,,,,,,,,,,,,,,,,,,,,,,,,,,,,,,,64,001,2023_Apr_07_1801,SpeechDraft1Carolyn_lessNoise_PlusLocalization,2021.2.3,59.94321331699747,
bow.wav,bow.mpg,bow,1,A,Pink_Noise_1_1.wav,Pink_Noise_1_2.wav,,,,,,,,,,,,,,,0,90,90,23,,,,,,,,,,,,,,,,,,,,,,,1093.788215842098,None,1095.3212845511734,None,1096.705191439949,None,bow,1096.705191439949,None,return,4.329319287091494,1096.7884592949413,None,,,,,,,,,,,,,,,,,,,,,,,,,,,,,,,,,64,001,2023_Apr_07_1801,SpeechDraft1Carolyn_lessNoise_PlusLocalization,2021.2.3,59.94321331699747,
style.wav,style.mpg,style,6,AV,Pink_Noise_6_1.wav,Pink_Noise_6_2.wav,,,,,,,,,,,,,,,0,91,91,107,,,,,,,,,,,,,,,,,,,,,,,1101.138467630837,None,1102.6546625960618,None,1104.0382064539008,None,sly,1104.0382064539008,None,return,6.276095214299858,1104.1216050102375,None,,,,,,,,,,,,,,,,,,,,,,,,,,,,,,,,,64,001,2023_Apr_07_1801,SpeechDraft1Carolyn_lessNoise_PlusLocalization,2021.2.3,59.94321331699747,
bulb.wav,bulb.mpg,bulb,2,A,Pink_Noise_2_1.wav,Pink_Noise_2_2.wav,,,,,,,,,,,,,,,0,92,92,36,,,,,,,,,,,,,,,,,,,,,,,1110.4217731901444,None,1111.9381282799877,None,1113.3216625167988,None,"bold
",1113.3216625167988,None,return,4.552535763941705,1113.4051283309236,None,,,,,,,,,,,,,,,,,,,,,,,,,,,,,,,,,64,001,2023_Apr_07_1801,SpeechDraft1Carolyn_lessNoise_PlusLocalization,2021.2.3,59.94321331699747,
cough.wav,cough.mpg,cough,1,A,Pink_Noise_1_1.wav,Pink_Noise_1_2.wav,,,,,,,,,,,,,,,0,93,93,44,,,,,,,,,,,,,,,,,,,,,,,1117.9882783880457,None,1119.5048858071677,None,1120.8881412111223,None,cough,1120.8881412111223,None,return,4.930131249129772,1120.971632940229,None,,,,,,,,,,,,,,,,,,,,,,,,,,,,,,,,,64,001,2023_Apr_07_1801,SpeechDraft1Carolyn_lessNoise_PlusLocalization,2021.2.3,59.94321331699747,
cry.wav,cry.mpg,cry,5,A,Pink_Noise_5_1.wav,Pink_Noise_5_2.wav,,,,,,,,,,,,,,,0,94,94,17,,,,,,,,,,,,,,,,,,,,,,,1125.9217396830209,None,1127.4548031222075,None,1128.8382978751324,None,"strut
",1128.8382978751324,None,return,6.420093241147697,1128.92157854978,None,,,,,,,,,,,,,,,,,,,,,,,,,,,,,,,,,64,001,2023_Apr_07_1801,SpeechDraft1Carolyn_lessNoise_PlusLocalization,2021.2.3,59.94321331699747,
film.wav,film.mpg,film,3,A,Pink_Noise_3_1.wav,Pink_Noise_3_2.wav,,,,,,,,,,,,,,,0,95,95,8,,,,,,,,,,,,,,,,,,,,,,,1135.3718207548372,None,1136.906286843121,None,1138.2882346599363,None,film,1138.2882346599363,None,return,11.121953559108078,1138.371787997894,None,,,,,,,,,,,,,,,,,,,,,,,,,,,,,,,,,64,001,2023_Apr_07_1801,SpeechDraft1Carolyn_lessNoise_PlusLocalization,2021.2.3,59.94321331699747,
beer.wav,beer.mpg,beer,6,AV,Pink_Noise_6_1.wav,Pink_Noise_6_2.wav,,,,,,,,,,,,,,,0,96,96,80,,,,,,,,,,,,,,,,,,,,,,,1149.5216336031444,None,1151.0384412230924,None,1152.4215647890233,None,"brick
",1152.4215647890233,None,return,10.300480135250837,1152.5051758661866,None,,,,,,,,,,,,,,,,,,,,,,,,,,,,,,,,,64,001,2023_Apr_07_1801,SpeechDraft1Carolyn_lessNoise_PlusLocalization,2021.2.3,59.94321331699747,
curl.wav,curl.mpg,curl,4,AV,Pink_Noise_4_1.wav,Pink_Noise_4_2.wav,,,,,,,,,,,,,,,0,97,97,63,,,,,,,,,,,,,,,,,,,,,,,1162.8383546620607,None,1164.3712692079134,None,1165.7385347732343,None,curl,1165.7385347732343,None,return,6.775971575174481,1165.8216574280523,None,,,,,,,,,,,,,,,,,,,,,,,,,,,,,,,,,64,001,2023_Apr_07_1801,SpeechDraft1Carolyn_lessNoise_PlusLocalization,2021.2.3,59.94321331699747,
earth.wav,earth.mpg,earth,5,A,Pink_Noise_5_1.wav,Pink_Noise_5_2.wav,,,,,,,,,,,,,,,0,98,98,3,,,,,,,,,,,,,,,,,,,,,,,1172.6216274579056,None,1174.154833340086,None,1175.5382252670825,None,curt,1175.5382252670825,None,return,8.056137507315725,1175.6216204180382,None,,,,,,,,,,,,,,,,,,,,,,,,,,,,,,,,,64,001,2023_Apr_07_1801,SpeechDraft1Carolyn_lessNoise_PlusLocalization,2021.2.3,59.94321331699747,
clue.wav,clue.mpg,clue,4,A,Pink_Noise_4_1.wav,Pink_Noise_4_2.wav,,,,,,,,,,,,,,,0,99,99,11,,,,,,,,,,,,,,,,,,,,,,,1183.7051019449718,None,1185.2380595551804,None,1186.6216856921092,None,cruise,1186.6216856921092,None,return,4.572569620795548,1186.705201889854,None,,,,,,,,,,,,,,,,,,,,,,,,,,,,,,,,,64,001,2023_Apr_07_1801,SpeechDraft1Carolyn_lessNoise_PlusLocalization,2021.2.3,59.94321331699747,
cart.wav,cart.mpg,cart,2,AV,Pink_Noise_2_1.wav,Pink_Noise_2_2.wav,,,,,,,,,,,,,,,0,100,100,87,,,,,,,,,,,,,,,,,,,,,,,1191.3052345439792,None,1192.8215885940008,None,1194.2051558648236,None,cart,1194.2051558648236,None,return,2.9971074019558728,1194.2885655961,None,,,,,,,,,,,,,,,,,,,,,,,,,,,,,,,,,64,001,2023_Apr_07_1801,SpeechDraft1Carolyn_lessNoise_PlusLocalization,2021.2.3,59.94321331699747,
clumps.wav,clumps.mpg,clumps,3,A,Pink_Noise_3_1.wav,Pink_Noise_3_2.wav,,,,,,,,,,,,,,,0,101,101,14,,,,,,,,,,,,,,,,,,,,,,,1197.3052116748877,None,1198.8215402048081,None,1200.2051463620737,None,"crumbs
",1200.2051463620737,None,return,5.085106311831623,1200.288571742829,None,,,,,,,,,,,,,,,,,,,,,,,,,,,,,,,,,64,001,2023_Apr_07_1801,SpeechDraft1Carolyn_lessNoise_PlusLocalization,2021.2.3,59.94321331699747,
clog.wav,clog.mpg,clog,3,A,Pink_Noise_3_1.wav,Pink_Noise_3_2.wav,,,,,,,,,,,,,,,0,102,102,38,,,,,,,,,,,,,,,,,,,,,,,1205.4050592738204,None,1206.9218178507872,None,1208.3050316069275,None,clog,1208.3050316069275,None,return,9.337209367658943,1208.3884469908662,None,,,,,,,,,,,,,,,,,,,,,,,,,,,,,,,,,64,001,2023_Apr_07_1801,SpeechDraft1Carolyn_lessNoise_PlusLocalization,2021.2.3,59.94321331699747,
clip.wav,clip.mpg,clip,2,A,Pink_Noise_2_1.wav,Pink_Noise_2_2.wav,,,,,,,,,,,,,,,0,103,103,10,,,,,,,,,,,,,,,,,,,,,,,1217.755136239808,None,1219.271688812878,None,1220.6551638520323,None,clip,1220.6551638520323,None,return,3.8432644181884825,1220.738411534112,None,,,,,,,,,,,,,,,,,,,,,,,,,,,,,,,,,64,001,2023_Apr_07_1801,SpeechDraft1Carolyn_lessNoise_PlusLocalization,2021.2.3,59.94321331699747,
chick.wav,chick.mpg,chick,1,A,Pink_Noise_1_1.wav,Pink_Noise_1_2.wav,,,,,,,,,,,,,,,0,104,104,37,,,,,,,,,,,,,,,,,,,,,,,1224.605331679806,None,1226.1548413569108,None,1227.538561902009,None,chick,1227.538561902009,None,return,6.879900684114546,1227.6218447559513,None,,,,,,,,,,,,,,,,,,,,,,,,,,,,,,,,,64,001,2023_Apr_07_1801,SpeechDraft1Carolyn_lessNoise_PlusLocalization,2021.2.3,59.94321331699747,
cup.wav,cup.mpg,cup,4,AV,Pink_Noise_4_1.wav,Pink_Noise_4_2.wav,,,,,,,,,,,,,,,0,105,105,60,,,,,,,,,,,,,,,,,,,,,,,1234.5219251201488,None,1236.0402563610114,None,1237.42191851791,None,cup,1237.42191851791,None,return,6.532513005193323,1237.5053588431329,None,,,,,,,,,,,,,,,,,,,,,,,,,,,,,,,,,64,001,2023_Apr_07_1801,SpeechDraft1Carolyn_lessNoise_PlusLocalization,2021.2.3,59.94321331699747,
beige.wav,beige.mpg,beige,6,A,Pink_Noise_6_1.wav,Pink_Noise_6_2.wav,,,,,,,,,,,,,,,0,106,106,43,,,,,,,,,,,,,,,,,,,,,,,1244.0552956447937,None,1245.5722990501672,None,1246.955304921139,None,beige,1246.955304921139,None,return,7.831133008934557,1247.0385667881928,None,,,,,,,,,,,,,,,,,,,,,,,,,,,,,,,,,64,001,2023_Apr_07_1801,SpeechDraft1Carolyn_lessNoise_PlusLocalization,2021.2.3,59.94321331699747,
cycle.wav,cycle.mpg,cycle,4,AV,Pink_Noise_4_1.wav,Pink_Noise_4_2.wav,,,,,,,,,,,,,,,0,107,107,103,,,,,,,,,,,,,,,,,,,,,,,1254.8886631950736,None,1256.4051074218005,None,1257.7884496878833,None,single,1257.7884496878833,None,return,12.141704236157238,1257.8719544499181,None,,,,,,,,,,,,,,,,,,,,,,,,,,,,,,,,,64,001,2023_Apr_07_1801,SpeechDraft1Carolyn_lessNoise_PlusLocalization,2021.2.3,59.94321331699747,
crash.wav,crash.mpg,crash,1,AV,Pink_Noise_1_1.wav,Pink_Noise_1_2.wav,,,,,,,,,,,,,,,0,108,108,82,,,,,,,,,,,,,,,,,,,,,,,1270.0387106048875,None,1271.5550028258003,None,1272.9386460147798,None,crash,1272.9386460147798,None,return,3.77568711200729,1273.0219780527987,None,,,,,,,,,,,,,,,,,,,,,,,,,,,,,,,,,64,001,2023_Apr_07_1801,SpeechDraft1Carolyn_lessNoise_PlusLocalization,2021.2.3,59.94321331699747,
vest.wav,vest.mpg,vest,2,A,Pink_Noise_2_1.wav,Pink_Noise_2_2.wav,,,,,,,,,,,,,,,0,109,109,40,,,,,,,,,,,,,,,,,,,,,,,1276.8218181440607,None,1278.3713579252362,None,1279.7551272339188,None,best,1279.7551272339188,None,return,3.479103078134358,1279.8385528628714,None,,,,,,,,,,,,,,,,,,,,,,,,,,,,,,,,,64,001,2023_Apr_07_1801,SpeechDraft1Carolyn_lessNoise_PlusLocalization,2021.2.3,59.94321331699747,
eye.wav,eye.mpg,eye,1,A,Pink_Noise_1_1.wav,Pink_Noise_1_2.wav,,,,,,,,,,,,,,,0,110,110,5,,,,,,,,,,,,,,,,,,,,,,,1283.3385523459874,None,1284.8881218591705,None,1286.271918227896,None,eye,1286.271918227896,None,return,2.778498539235443,1286.3551627569832,None,,,,,,,,,,,,,,,,,,,,,,,,,,,,,,,,,64,001,2023_Apr_07_1801,SpeechDraft1Carolyn_lessNoise_PlusLocalization,2021.2.3,59.94321331699747,
egg.wav,egg.mpg,egg,6,A,Pink_Noise_6_1.wav,Pink_Noise_6_2.wav,,,,,,,,,,,,,,,0,111,111,48,,,,,,,,,,,,,,,,,,,,,,,1289.1552772480063,None,1290.6884625391103,None,1292.0719635989517,None,ape,1292.0719635989517,None,return,4.1066087442450225,1292.155221037101,None,,,,,,,,,,,,,,,,,,,,,,,,,,,,,,,,,64,001,2023_Apr_07_1801,SpeechDraft1Carolyn_lessNoise_PlusLocalization,2021.2.3,59.94321331699747,
bait.wav,bait.mpg,bait,5,AV,Pink_Noise_5_1.wav,Pink_Noise_5_2.wav,,,,,,,,,,,,,,,0,112,112,85,,,,,,,,,,,,,,,,,,,,,,,1296.2885633171536,None,1297.8068652949296,None,1299.1886145710014,None,"bait
",1299.1886145710014,None,return,10.30163167975843,1299.271999385208,None,,,,,,,,,,,,,,,,,,,,,,,,,,,,,,,,,64,001,2023_Apr_07_1801,SpeechDraft1Carolyn_lessNoise_PlusLocalization,2021.2.3,59.94321331699747,
blink.wav,blink.mpg,blink,4,AV,Pink_Noise_4_1.wav,Pink_Noise_4_2.wav,,,,,,,,,,,,,,,0,113,113,98,,,,,,,,,,,,,,,,,,,,,,,1309.605358001776,None,1311.1216318700463,None,1312.5053480020724,None,blink,1312.5053480020724,None,return,15.065150222741067,1312.5886723590083,None,,,,,,,,,,,,,,,,,,,,,,,,,,,,,,,,,64,001,2023_Apr_07_1801,SpeechDraft1Carolyn_lessNoise_PlusLocalization,2021.2.3,59.94321331699747,
debt.wav,debt.mpg,debt,6,AV,Pink_Noise_6_1.wav,Pink_Noise_6_2.wav,,,,,,,,,,,,,,,0,114,114,83,,,,,,,,,,,,,,,,,,,,,,,1327.6719970391132,None,1329.1886986480094,None,1330.571979583241,None,jet,1330.571979583241,None,return,5.662401171866804,1330.6552930208854,None,,,,,,,,,,,,,,,,,,,,,,,,,,,,,,,,,64,001,2023_Apr_07_1801,SpeechDraft1Carolyn_lessNoise_PlusLocalization,2021.2.3,59.94321331699747,
beam.wav,beam.mpg,beam,5,AV,Pink_Noise_5_1.wav,Pink_Noise_5_2.wav,,,,,,,,,,,,,,,0,115,115,65,,,,,,,,,,,,,,,,,,,,,,,1336.3394859991968,None,1337.888652484864,None,1339.2720835232176,None,"blame
",1339.2720835232176,None,return,6.050402861088514,1339.3552640532143,None,,,,,,,,,,,,,,,,,,,,,,,,,,,,,,,,,64,001,2023_Apr_07_1801,SpeechDraft1Carolyn_lessNoise_PlusLocalization,2021.2.3,59.94321331699747,
blaze.wav,blaze.mpg,blaze,4,AV,Pink_Noise_4_1.wav,Pink_Noise_4_2.wav,,,,,,,,,,,,,,,0,116,116,102,,,,,,,,,,,,,,,,,,,,,,,1345.4387716809288,None,1346.9553100941703,None,1348.3385764588602,None,"praise
",1348.3385764588602,None,return,6.151724367402494,1348.4219384421594,None,,,,,,,,,,,,,,,,,,,,,,,,,,,,,,,,,64,001,2023_Apr_07_1801,SpeechDraft1Carolyn_lessNoise_PlusLocalization,2021.2.3,59.94321331699747,
bar.wav,bar.mpg,bar,3,AV,Pink_Noise_3_1.wav,Pink_Noise_3_2.wav,,,,,,,,,,,,,,,0,117,117,110,,,,,,,,,,,,,,,,,,,,,,,1354.6055432618596,None,1356.1234058309346,None,1357.505302160047,None,bar,1357.505302160047,None,return,5.161009224131703,1357.5886936238967,None,,,,,,,,,,,,,,,,,,,,,,,,,,,,,,,,,64,001,2023_Apr_07_1801,SpeechDraft1Carolyn_lessNoise_PlusLocalization,2021.2.3,59.94321331699747,
drop.wav,drop.mpg,drop,4,A,Pink_Noise_4_1.wav,Pink_Noise_4_2.wav,,,,,,,,,,,,,,,0,118,118,32,,,,,,,,,,,,,,,,,,,,,,,1362.7719172309153,None,1364.3382914559916,None,1365.7221749639139,None,"truck
",1365.7221749639139,None,return,9.000144254881889,1365.8055088152178,None,,,,,,,,,,,,,,,,,,,,,,,,,,,,,,,,,64,001,2023_Apr_07_1801,SpeechDraft1Carolyn_lessNoise_PlusLocalization,2021.2.3,59.94321331699747,
grief.wav,grief.mpg,grief,3,A,Pink_Noise_3_1.wav,Pink_Noise_3_2.wav,,,,,,,,,,,,,,,0,119,119,15,,,,,,,,,,,,,,,,,,,,,,,1374.838795658201,None,1376.3730712328106,None,1377.7553395740688,None,grim,1377.7553395740688,None,return,5.4949166011065245,1377.8387499121018,None,,,,,,,,,,,,,,,,,,,,,,,,,,,,,,,,,64,001,2023_Apr_07_1801,SpeechDraft1Carolyn_lessNoise_PlusLocalization,2021.2.3,59.94321331699747,
,,,,,,,,,,,,,,,,,,,,,,,,,,,,,,,,,,,,,,,,,,,,,,,,,,,,,,,,,,,,,,,,,,space,73.29430954996496,1383.4553754781373,None,,,,,,,,,,,,,,,,,,,,,,,64,001,2023_Apr_07_1801,SpeechDraft1Carolyn_lessNoise_PlusLocalization,2021.2.3,59.94321331699747,
,,,,,,,,midRight,13.0,3,ch1Sound_localizationTask.wav,13.0,"(1142, 878)","(182, -202)",190,-338,,,,,,,,,0,0,0,5,,,,,,,,,,,,,,,,,,,,,,,,,,,,,,,,,,,,,,,,,,1383.4553754781373,None,1456.7887948630378,None,1457.9051947831176,None,1458.8218890521675,None,1.3772486772486774,3.2021126761101186,1458.8218890521675,None,,,,,,,,,,,64,001,2023_Apr_07_1801,SpeechDraft1Carolyn_lessNoise_PlusLocalization,2021.2.3,59.94321331699747,
,,,,,,,,nearRight,6.5,0,ch1Sound_localizationTask.wav,6.5,"(1047, 878)","(87, -202)",95,-338,,,,,,,,,0,1,1,4,,,,,,,,,,,,,,,,,,,,,,,,,,,,,,,,,,,,,,,,,,,,1462.022266515065,None,1463.1220040000044,None,1464.055058658123,None,1.5703703703703704,1.751011781860143,1464.055058658123,None,,,,,,,,,,,64,001,2023_Apr_07_1801,SpeechDraft1Carolyn_lessNoise_PlusLocalization,2021.2.3,59.94321331699747,
,,,,,,,,midRight,13.0,3,ch1Sound_localizationTask.wav,13.0,"(1142, 878)","(182, -202)",190,-338,,,,,,,,,0,2,2,5,,,,,,,,,,,,,,,,,,,,,,,,,,,,,,,,,,,,,,,,,,,,1465.8221307401545,None,1466.921977655962,None,1467.8550944011658,None,1.6111111111111112,0.6828875388018787,1467.8550944011658,None,,,,,,,,,,,64,001,2023_Apr_07_1801,SpeechDraft1Carolyn_lessNoise_PlusLocalization,2021.2.3,59.94321331699747,
,,,,,,,,farLeft,-19.1,5,ch1Sound_localizationTask.wav,-19.1,"(667, 878)","(-293,-202)",-285,-338,,,,,,,,,0,3,3,0,,,,,,,,,,,,,,,,,,,,,,,,,,,,,,,,,,,,,,,,,,,,1468.539059093222,None,1469.6385396188125,None,1470.5718484460376,None,1.1576719576719576,1.5853234250098467,1470.5718484460376,None,,,,,,,,,,,64,001,2023_Apr_07_1801,SpeechDraft1Carolyn_lessNoise_PlusLocalization,2021.2.3,59.94321331699747,
,,,,,,,,farRight,19.1,4,ch1Sound_localizationTask.wav,19.1,"(1237, 878)","(277,-202)",285,-338,,,,,,,,,0,4,4,6,,,,,,,,,,,,,,,,,,,,,,,,,,,,,,,,,,,,,,,,,,,,1472.17211306002,None,1473.2716210358776,None,1474.2049586800858,None,1.7047619047619047,1.4005380463786423,1474.2049586800858,None,,,,,,,,,,,64,001,2023_Apr_07_1801,SpeechDraft1Carolyn_lessNoise_PlusLocalization,2021.2.3,59.94321331699747,
,,,,,,,,midLeft,-13.0,2,ch1Sound_localizationTask.wav,-13.0,"(762, 878)","(-198,-202)",-190,-338,,,,,,,,,0,5,5,1,,,,,,,,,,,,,,,,,,,,,,,,,,,,,,,,,,,,,,,,,,,,1475.6223822529428,None,1476.7215743372217,None,1477.6551056657918,None,1.2513227513227514,1.2676970609463751,1477.6551056657918,None,,,,,,,,,,,64,001,2023_Apr_07_1801,SpeechDraft1Carolyn_lessNoise_PlusLocalization,2021.2.3,59.94321331699747,
,,,,,,,,farLeft,-19.1,5,ch1Sound_localizationTask.wav,-19.1,"(667, 878)","(-293,-202)",-285,-338,,,,,,,,,0,6,6,0,,,,,,,,,,,,,,,,,,,,,,,,,,,,,,,,,,,,,,,,,,,,1478.9387533687986,None,1480.0384185439907,None,1480.9716203929856,None,1.1634920634920634,1.2169083915650845,1480.9716203929856,None,,,,,,,,,,,64,001,2023_Apr_07_1801,SpeechDraft1Carolyn_lessNoise_PlusLocalization,2021.2.3,59.94321331699747,
,,,,,,,,farLeft,-19.1,5,ch1Sound_localizationTask.wav,-19.1,"(667, 878)","(-293,-202)",-285,-338,,,,,,,,,1,0,7,0,,,,,,,,,,,,,,,,,,,,,,,,,,,,,,,,,,,,,,,,,,,,1482.205533088185,None,1483.305309813004,None,1484.2384782577865,None,1.143915343915344,0.9833154501393437,1484.2384782577865,None,,,,,,,,,,,64,001,2023_Apr_07_1801,SpeechDraft1Carolyn_lessNoise_PlusLocalization,2021.2.3,59.94321331699747,
,,,,,,,,nearLeft,-6.5,1,ch1Sound_localizationTask.wav,-6.5,"(857, 878)","(-103,-202)",-95,-338,,,,,,,,,1,1,8,2,,,,,,,,,,,,,,,,,,,,,,,,,,,,,,,,,,,,,,,,,,,,1485.222345983144,None,1486.3220702670515,None,1487.2552107269876,None,1.3814814814814815,1.0823271139524877,1487.2552107269876,None,,,,,,,,,,,64,001,2023_Apr_07_1801,SpeechDraft1Carolyn_lessNoise_PlusLocalization,2021.2.3,59.94321331699747,
,,,,,,,,midLeft,-13.0,2,ch1Sound_localizationTask.wav,-13.0,"(762, 878)","(-198,-202)",-190,-338,,,,,,,,,1,2,9,1,,,,,,,,,,,,,,,,,,,,,,,,,,,,,,,,,,,,,,,,,,,,1488.3389873728156,None,1489.438778127078,None,1490.3718807529658,None,1.2523809523809524,0.7325899237766862,1490.3718807529658,None,,,,,,,,,,,64,001,2023_Apr_07_1801,SpeechDraft1Carolyn_lessNoise_PlusLocalization,2021.2.3,59.94321331699747,
,,,,,,,,nearLeft,-6.5,1,ch1Sound_localizationTask.wav,-6.5,"(857, 878)","(-103,-202)",-95,-338,,,,,,,,,1,3,10,2,,,,,,,,,,,,,,,,,,,,,,,,,,,,,,,,,,,,,,,,,,,,1491.1057317932136,None,1492.205276264809,None,1493.1386008840054,None,1.470899470899471,1.2159267500974238,1493.1386008840054,None,,,,,,,,,,,64,001,2023_Apr_07_1801,SpeechDraft1Carolyn_lessNoise_PlusLocalization,2021.2.3,59.94321331699747,
,,,,,,,,center,0.0,6,ch1Sound_localizationTask.wav,0.0,"(952, 878)","(-8,-202)",0,-338,,,,,,,,,1,4,11,3,,,,,,,,,,,,,,,,,,,,,,,,,,,,,,,,,,,,,,,,,,,,1494.3556621009484,None,1495.4550464157946,None,1496.3885269691236,None,1.4968253968253968,0.8664403739385307,1496.3885269691236,None,,,,,,,,,,,64,001,2023_Apr_07_1801,SpeechDraft1Carolyn_lessNoise_PlusLocalization,2021.2.3,59.94321331699747,
,,,,,,,,farLeft,-19.1,5,ch1Sound_localizationTask.wav,-19.1,"(667, 878)","(-293,-202)",-285,-338,,,,,,,,,1,5,12,0,,,,,,,,,,,,,,,,,,,,,,,,,,,,,,,,,,,,,,,,,,,,1497.2556503368542,None,1498.3551682531834,None,1499.288745983038,None,1.2925925925925925,1.0826914398930967,1499.288745983038,None,,,,,,,,,,,64,001,2023_Apr_07_1801,SpeechDraft1Carolyn_lessNoise_PlusLocalization,2021.2.3,59.94321331699747,
,,,,,,,,nearRight,6.5,0,ch1Sound_localizationTask.wav,6.5,"(1047, 878)","(87, -202)",95,-338,,,,,,,,,1,6,13,4,,,,,,,,,,,,,,,,,,,,,,,,,,,,,,,,,,,,,,,,,,,,1500.3723448831588,None,1501.4719568281434,None,1502.407265021,None,1.5629629629629629,1.10998745681718,1502.407265021,None,,,,,,,,,,,64,001,2023_Apr_07_1801,SpeechDraft1Carolyn_lessNoise_PlusLocalization,2021.2.3,59.94321331699747,
,,,,,,,,center,0.0,6,ch1Sound_localizationTask.wav,0.0,"(952, 878)","(-8,-202)",0,-338,,,,,,,,,2,0,14,3,,,,,,,,,,,,,,,,,,,,,,,,,,,,,,,,,,,,,,,,,,,,1503.5389547040686,None,1504.638688070234,None,1505.5719102369621,None,1.4915343915343915,1.0353954411111772,1505.5719102369621,None,,,,,,,,,,,64,001,2023_Apr_07_1801,SpeechDraft1Carolyn_lessNoise_PlusLocalization,2021.2.3,59.94321331699747,
,,,,,,,,midRight,13.0,3,ch1Sound_localizationTask.wav,13.0,"(1142, 878)","(182, -202)",190,-338,,,,,,,,,2,1,15,5,,,,,,,,,,,,,,,,,,,,,,,,,,,,,,,,,,,,,,,,,,,,1506.622264646925,None,1507.721878258977,None,1508.6553221270442,None,1.6052910052910052,0.8148355158045888,1508.6553221270442,None,,,,,,,,,,,64,001,2023_Apr_07_1801,SpeechDraft1Carolyn_lessNoise_PlusLocalization,2021.2.3,59.94321331699747,
,,,,,,,,nearLeft,-6.5,1,ch1Sound_localizationTask.wav,-6.5,"(857, 878)","(-103,-202)",-95,-338,,,,,,,,,2,2,16,2,,,,,,,,,,,,,,,,,,,,,,,,,,,,,,,,,,,,,,,,,,,,1509.4889596598223,None,1510.5885472302325,None,1511.521900181193,None,1.3820105820105821,0.8313949699513614,1511.521900181193,None,,,,,,,,,,,64,001,2023_Apr_07_1801,SpeechDraft1Carolyn_lessNoise_PlusLocalization,2021.2.3,59.94321331699747,
,,,,,,,,center,0.0,6,ch1Sound_localizationTask.wav,0.0,"(952, 878)","(-8,-202)",0,-338,,,,,,,,,2,3,17,3,,,,,,,,,,,,,,,,,,,,,,,,,,,,,,,,,,,,,,,,,,,,1512.3731572842225,None,1513.4719602651894,None,1514.4053033739328,None,1.4756613756613757,0.5837167939171195,1514.4053033739328,None,,,,,,,,,,,64,001,2023_Apr_07_1801,SpeechDraft1Carolyn_lessNoise_PlusLocalization,2021.2.3,59.94321331699747,
,,,,,,,,nearRight,6.5,0,ch1Sound_localizationTask.wav,6.5,"(1047, 878)","(87, -202)",95,-338,,,,,,,,,2,4,18,4,,,,,,,,,,,,,,,,,,,,,,,,,,,,,,,,,,,,,,,,,,,,1515.0057183639146,None,1516.1053109709173,None,1517.0387166440487,None,1.5185185185185186,0.8028419190086424,1517.0387166440487,None,,,,,,,,,,,64,001,2023_Apr_07_1801,SpeechDraft1Carolyn_lessNoise_PlusLocalization,2021.2.3,59.94321331699747,
,,,,,,,,midRight,13.0,3,ch1Sound_localizationTask.wav,13.0,"(1142, 878)","(182, -202)",190,-338,,,,,,,,,2,5,19,5,,,,,,,,,,,,,,,,,,,,,,,,,,,,,,,,,,,,,,,,,,,,1517.8571668011136,None,1518.9718022518791,None,1519.8884689928964,None,1.5962962962962963,0.7302823760546744,1519.8884689928964,None,,,,,,,,,,,64,001,2023_Apr_07_1801,SpeechDraft1Carolyn_lessNoise_PlusLocalization,2021.2.3,59.94321331699747,
,,,,,,,,midLeft,-13.0,2,ch1Sound_localizationTask.wav,-13.0,"(762, 878)","(-198,-202)",-190,-338,,,,,,,,,2,6,20,1,,,,,,,,,,,,,,,,,,,,,,,,,,,,,,,,,,,,,,,,,,,,1520.622229686007,None,1521.7219158802181,None,1522.6551642860286,None,1.2894179894179894,0.7329931547865272,1522.6551642860286,None,,,,,,,,,,,64,001,2023_Apr_07_1801,SpeechDraft1Carolyn_lessNoise_PlusLocalization,2021.2.3,59.94321331699747,
,,,,,,,,midRight,13.0,3,ch1Sound_localizationTask.wav,13.0,"(1142, 878)","(182, -202)",190,-338,,,,,,,,,3,0,21,5,,,,,,,,,,,,,,,,,,,,,,,,,,,,,,,,,,,,,,,,,,,,1523.388907269109,None,1524.4886085060425,None,1525.42169159092,None,1.6349206349206349,1.166059129871428,1525.42169159092,None,,,,,,,,,,,64,001,2023_Apr_07_1801,SpeechDraft1Carolyn_lessNoise_PlusLocalization,2021.2.3,59.94321331699747,
,,,,,,,,nearRight,6.5,0,ch1Sound_localizationTask.wav,6.5,"(1047, 878)","(87, -202)",95,-338,,,,,,,,,3,1,22,4,,,,,,,,,,,,,,,,,,,,,,,,,,,,,,,,,,,,,,,,,,,,1526.5905096791685,None,1527.7051047100686,None,1528.6220541959628,None,1.452910052910053,0.9366366006433964,1528.6220541959628,None,,,,,,,,,,,64,001,2023_Apr_07_1801,SpeechDraft1Carolyn_lessNoise_PlusLocalization,2021.2.3,59.94321331699747,
,,,,,,,,nearLeft,-6.5,1,ch1Sound_localizationTask.wav,-6.5,"(857, 878)","(-103,-202)",-95,-338,,,,,,,,,3,2,23,2,,,,,,,,,,,,,,,,,,,,,,,,,,,,,,,,,,,,,,,,,,,,1529.57229150692,None,1530.6720028212294,None,1531.6051596798934,None,1.3767195767195768,0.6497060600668192,1531.6051596798934,None,,,,,,,,,,,64,001,2023_Apr_07_1801,SpeechDraft1Carolyn_lessNoise_PlusLocalization,2021.2.3,59.94321331699747,
,,,,,,,,farLeft,-19.1,5,ch1Sound_localizationTask.wav,-19.1,"(667, 878)","(-293,-202)",-285,-338,,,,,,,,,3,3,24,0,,,,,,,,,,,,,,,,,,,,,,,,,,,,,,,,,,,,,,,,,,,,1532.2563777649775,None,1533.355562997982,None,1534.2885654638521,None,1.2740740740740741,0.7670593769289553,1534.2885654638521,None,,,,,,,,,,,64,001,2023_Apr_07_1801,SpeechDraft1Carolyn_lessNoise_PlusLocalization,2021.2.3,59.94321331699747,
,,,,,,,,center,0.0,6,ch1Sound_localizationTask.wav,0.0,"(952, 878)","(-8,-202)",0,-338,,,,,,,,,3,4,25,3,,,,,,,,,,,,,,,,,,,,,,,,,,,,,,,,,,,,,,,,,,,,1535.072431174107,None,1536.1719766547903,None,1537.1054010991938,None,1.5047619047619047,0.8993035270832479,1537.1054010991938,None,,,,,,,,,,,64,001,2023_Apr_07_1801,SpeechDraft1Carolyn_lessNoise_PlusLocalization,2021.2.3,59.94321331699747,
,,,,,,,,center,0.0,6,ch1Sound_localizationTask.wav,0.0,"(952, 878)","(-8,-202)",0,-338,,,,,,,,,3,5,26,3,,,,,,,,,,,,,,,,,,,,,,,,,,,,,,,,,,,,,,,,,,,,1538.0057235090062,None,1539.1053263777867,None,1540.0385232730769,None,1.462962962962963,0.6489271009340882,1540.0385232730769,None,,,,,,,,,,,64,001,2023_Apr_07_1801,SpeechDraft1Carolyn_lessNoise_PlusLocalization,2021.2.3,59.94321331699747,
,,,,,,,,midRight,13.0,3,ch1Sound_localizationTask.wav,13.0,"(1142, 878)","(182, -202)",190,-338,,,,,,,,,3,6,27,5,,,,,,,,,,,,,,,,,,,,,,,,,,,,,,,,,,,,,,,,,,,,1540.6887425589375,None,1541.7885984717868,None,1542.7220923597924,None,1.6402116402116402,0.6837783120572567,1542.7220923597924,None,,,,,,,,,,,64,001,2023_Apr_07_1801,SpeechDraft1Carolyn_lessNoise_PlusLocalization,2021.2.3,59.94321331699747,
,,,,,,,,farRight,19.1,4,ch1Sound_localizationTask.wav,19.1,"(1237, 878)","(277,-202)",285,-338,,,,,,,,,4,0,28,6,,,,,,,,,,,,,,,,,,,,,,,,,,,,,,,,,,,,,,,,,,,,1543.4222573097795,None,1544.521975515876,None,1545.4551439099014,None,1.6708994708994709,1.3011309541761875,1545.4551439099014,None,,,,,,,,,,,64,001,2023_Apr_07_1801,SpeechDraft1Carolyn_lessNoise_PlusLocalization,2021.2.3,59.94321331699747,
,,,,,,,,midLeft,-13.0,2,ch1Sound_localizationTask.wav,-13.0,"(762, 878)","(-198,-202)",-190,-338,,,,,,,,,4,1,29,1,,,,,,,,,,,,,,,,,,,,,,,,,,,,,,,,,,,,,,,,,,,,1546.7722510108724,None,1547.8719377620146,None,1548.8052744991146,None,1.2550264550264552,1.7662922721356153,1548.8052744991146,None,,,,,,,,,,,64,001,2023_Apr_07_1801,SpeechDraft1Carolyn_lessNoise_PlusLocalization,2021.2.3,59.94321331699747,
,,,,,,,,farRight,19.1,4,ch1Sound_localizationTask.wav,19.1,"(1237, 878)","(277,-202)",285,-338,,,,,,,,,4,2,30,6,,,,,,,,,,,,,,,,,,,,,,,,,,,,,,,,,,,,,,,,,,,,1550.58886994794,None,1551.688778881915,None,1552.6219966630451,None,1.7126984126984128,0.6827650801278651,1552.6219966630451,None,,,,,,,,,,,64,001,2023_Apr_07_1801,SpeechDraft1Carolyn_lessNoise_PlusLocalization,2021.2.3,59.94321331699747,
,,,,,,,,nearLeft,-6.5,1,ch1Sound_localizationTask.wav,-6.5,"(857, 878)","(-103,-202)",-95,-338,,,,,,,,,4,3,31,2,,,,,,,,,,,,,,,,,,,,,,,,,,,,,,,,,,,,,,,,,,,,1553.305959966965,None,1554.405044695828,None,1555.3387719481252,None,1.362962962962963,0.7330287438817322,1555.3387719481252,None,,,,,,,,,,,64,001,2023_Apr_07_1801,SpeechDraft1Carolyn_lessNoise_PlusLocalization,2021.2.3,59.94321331699747,
,,,,,,,,farRight,19.1,4,ch1Sound_localizationTask.wav,19.1,"(1237, 878)","(277,-202)",285,-338,,,,,,,,,4,4,32,6,,,,,,,,,,,,,,,,,,,,,,,,,,,,,,,,,,,,,,,,,,,,1556.0725253610872,None,1557.1719262679107,None,1558.1053602849133,None,1.7174603174603176,1.2849902058951557,1558.1053602849133,None,,,,,,,,,,,64,001,2023_Apr_07_1801,SpeechDraft1Carolyn_lessNoise_PlusLocalization,2021.2.3,59.94321331699747,
,,,,,,,,center,0.0,6,ch1Sound_localizationTask.wav,0.0,"(952, 878)","(-8,-202)",0,-338,,,,,,,,,4,5,33,3,,,,,,,,,,,,,,,,,,,,,,,,,,,,,,,,,,,,,,,,,,,,1559.4055008259602,None,1560.5050752228126,None,1561.4386745519005,None,1.5,0.8834382300265133,1561.4386745519005,None,,,,,,,,,,,64,001,2023_Apr_07_1801,SpeechDraft1Carolyn_lessNoise_PlusLocalization,2021.2.3,59.94321331699747,
,,,,,,,,farRight,19.1,4,ch1Sound_localizationTask.wav,19.1,"(1237, 878)","(277,-202)",285,-338,,,,,,,,,4,6,34,6,,,,,,,,,,,,,,,,,,,,,,,,,,,,,,,,,,,,,,,,,,,,1562.322590992786,None,1563.4220526628196,None,1564.3555441340432,None,1.692063492063492,0.7825980898924172,1564.3555441340432,None,,,,,,,,,,,64,001,2023_Apr_07_1801,SpeechDraft1Carolyn_lessNoise_PlusLocalization,2021.2.3,59.94321331699747,
,,,,,,,,midLeft,-13.0,2,ch1Sound_localizationTask.wav,-13.0,"(762, 878)","(-198,-202)",-190,-338,,,,,,,,,5,0,35,1,,,,,,,,,,,,,,,,,,,,,,,,,,,,,,,,,,,,,,,,,,,,1565.139054052066,None,1566.2386090010405,None,1567.1718150838278,None,1.326984126984127,1.0497466158121824,1567.1718150838278,None,,,,,,,,,,,64,001,2023_Apr_07_1801,SpeechDraft1Carolyn_lessNoise_PlusLocalization,2021.2.3,59.94321331699747,
,,,,,,,,nearLeft,-6.5,1,ch1Sound_localizationTask.wav,-6.5,"(857, 878)","(-103,-202)",-95,-338,,,,,,,,,5,1,36,2,,,,,,,,,,,,,,,,,,,,,,,,,,,,,,,,,,,,,,,,,,,,1568.2390275318176,None,1569.3386434908025,None,1570.2721086810343,None,1.5216931216931218,1.4329642122611403,1570.2721086810343,None,,,,,,,,,,,64,001,2023_Apr_07_1801,SpeechDraft1Carolyn_lessNoise_PlusLocalization,2021.2.3,59.94321331699747,
,,,,,,,,center,0.0,6,ch1Sound_localizationTask.wav,0.0,"(952, 878)","(-8,-202)",0,-338,,,,,,,,,5,2,37,3,,,,,,,,,,,,,,,,,,,,,,,,,,,,,,,,,,,,,,,,,,,,1571.7060651709326,None,1572.8049985240214,None,1573.7386961639859,None,1.5005291005291004,0.7500216620974243,1573.7386961639859,None,,,,,,,,,,,64,001,2023_Apr_07_1801,SpeechDraft1Carolyn_lessNoise_PlusLocalization,2021.2.3,59.94321331699747,
,,,,,,,,center,0.0,6,ch1Sound_localizationTask.wav,0.0,"(952, 878)","(-8,-202)",0,-338,,,,,,,,,5,3,38,3,,,,,,,,,,,,,,,,,,,,,,,,,,,,,,,,,,,,,,,,,,,,1574.4889173721895,None,1575.5887086410075,None,1576.522112165112,None,1.4968253968253968,1.2302367589436471,1576.522112165112,None,,,,,,,,,,,64,001,2023_Apr_07_1801,SpeechDraft1Carolyn_lessNoise_PlusLocalization,2021.2.3,59.94321331699747,
,,,,,,,,midLeft,-13.0,2,ch1Sound_localizationTask.wav,-13.0,"(762, 878)","(-198,-202)",-190,-338,,,,,,,,,5,4,39,1,,,,,,,,,,,,,,,,,,,,,,,,,,,,,,,,,,,,,,,,,,,,1577.7558293309994,None,1578.8555032610893,None,1579.7887790282257,None,1.3873015873015873,0.8155014361254871,1579.7887790282257,None,,,,,,,,,,,64,001,2023_Apr_07_1801,SpeechDraft1Carolyn_lessNoise_PlusLocalization,2021.2.3,59.94321331699747,
,,,,,,,,midLeft,-13.0,2,ch1Sound_localizationTask.wav,-13.0,"(762, 878)","(-198,-202)",-190,-338,,,,,,,,,5,5,40,1,,,,,,,,,,,,,,,,,,,,,,,,,,,,,,,,,,,,,,,,,,,,1580.6057973951101,None,1581.7053951001726,None,1582.6386096552014,None,1.3396825396825398,0.7832969799637794,1582.6386096552014,None,,,,,,,,,,,64,001,2023_Apr_07_1801,SpeechDraft1Carolyn_lessNoise_PlusLocalization,2021.2.3,59.94321331699747,
,,,,,,,,nearRight,6.5,0,ch1Sound_localizationTask.wav,6.5,"(1047, 878)","(87, -202)",95,-338,,,,,,,,,5,6,41,4,,,,,,,,,,,,,,,,,,,,,,,,,,,,,,,,,,,,,,,,,,,,1583.4225337379612,None,1584.5219089901075,None,1585.4553278768435,None,1.5386243386243388,1.049130433704704,1585.4553278768435,None,,,,,,,,,,,64,001,2023_Apr_07_1801,SpeechDraft1Carolyn_lessNoise_PlusLocalization,2021.2.3,59.94321331699747,
,,,,,,,,midRight,13.0,3,ch1Sound_localizationTask.wav,13.0,"(1142, 878)","(182, -202)",190,-338,,,,,,,,,6,0,42,5,,,,,,,,,,,,,,,,,,,,,,,,,,,,,,,,,,,,,,,,,,,,1586.5058312569745,None,1587.6053192592226,None,1588.5385841149837,None,1.5624338624338625,1.232660649344325,1588.5385841149837,None,,,,,,,,,,,64,001,2023_Apr_07_1801,SpeechDraft1Carolyn_lessNoise_PlusLocalization,2021.2.3,59.94321331699747,
,,,,,,,,farRight,19.1,4,ch1Sound_localizationTask.wav,19.1,"(1237, 878)","(277,-202)",285,-338,,,,,,,,,6,1,43,6,,,,,,,,,,,,,,,,,,,,,,,,,,,,,,,,,,,,,,,,,,,,1589.772302296944,None,1590.8719337969087,None,1591.8053220282309,None,1.6793650793650794,0.9493760750629008,1591.8053220282309,None,,,,,,,,,,,64,001,2023_Apr_07_1801,SpeechDraft1Carolyn_lessNoise_PlusLocalization,2021.2.3,59.94321331699747,
,,,,,,,,nearLeft,-6.5,1,ch1Sound_localizationTask.wav,-6.5,"(857, 878)","(-103,-202)",-95,-338,,,,,,,,,6,2,44,2,,,,,,,,,,,,,,,,,,,,,,,,,,,,,,,,,,,,,,,,,,,,1592.7557057491504,None,1593.8554061357863,None,1594.7886772938073,None,1.342857142857143,0.8839706149883568,1594.7886772938073,None,,,,,,,,,,,64,001,2023_Apr_07_1801,SpeechDraft1Carolyn_lessNoise_PlusLocalization,2021.2.3,59.94321331699747,
,,,,,,,,farLeft,-19.1,5,ch1Sound_localizationTask.wav,-19.1,"(667, 878)","(-293,-202)",-285,-338,,,,,,,,,6,3,45,0,,,,,,,,,,,,,,,,,,,,,,,,,,,,,,,,,,,,,,,,,,,,1595.6891790609807,None,1596.7889342238195,None,1597.7221011188813,None,1.228042328042328,1.0174411595799029,1597.7221011188813,None,,,,,,,,,,,64,001,2023_Apr_07_1801,SpeechDraft1Carolyn_lessNoise_PlusLocalization,2021.2.3,59.94321331699747,
,,,,,,,,farRight,19.1,4,ch1Sound_localizationTask.wav,19.1,"(1237, 878)","(277,-202)",285,-338,,,,,,,,,6,4,46,6,,,,,,,,,,,,,,,,,,,,,,,,,,,,,,,,,,,,,,,,,,,,1598.7554051340558,None,1599.8553168438375,None,1600.7887662858702,None,1.6952380952380952,0.9510155450552702,1600.7887662858702,None,,,,,,,,,,,64,001,2023_Apr_07_1801,SpeechDraft1Carolyn_lessNoise_PlusLocalization,2021.2.3,59.94321331699747,
,,,,,,,,midRight,13.0,3,ch1Sound_localizationTask.wav,13.0,"(1142, 878)","(182, -202)",190,-338,,,,,,,,,6,5,47,5,,,,,,,,,,,,,,,,,,,,,,,,,,,,,,,,,,,,,,,,,,,,1601.7558279861696,None,1602.8553023040295,None,1603.7885804930702,None,1.5703703703703704,0.7163065057247877,1603.7885804930702,None,,,,,,,,,,,64,001,2023_Apr_07_1801,SpeechDraft1Carolyn_lessNoise_PlusLocalization,2021.2.3,59.94321331699747,
,,,,,,,,farRight,19.1,4,ch1Sound_localizationTask.wav,19.1,"(1237, 878)","(277,-202)",285,-338,,,,,,,,,6,6,48,6,,,,,,,,,,,,,,,,,,,,,,,,,,,,,,,,,,,,,,,,,,,,1604.5058422167785,None,1605.6052957801148,None,1606.5388294812292,None,1.6455026455026456,1.2476880275644362,1606.5388294812292,None,,,,,,,,,,,64,001,2023_Apr_07_1801,SpeechDraft1Carolyn_lessNoise_PlusLocalization,2021.2.3,59.94321331699747,
,,,,,,,,midLeft,-13.0,2,ch1Sound_localizationTask.wav,-13.0,"(762, 878)","(-198,-202)",-190,-338,,,,,,,,,7,0,49,1,,,,,,,,,,,,,,,,,,,,,,,,,,,,,,,,,,,,,,,,,,,,1607.7893201089464,None,1608.8890038621612,None,1609.8218628899194,None,1.2523809523809524,0.733772317878902,1609.8218628899194,None,,,,,,,,,,,64,001,2023_Apr_07_1801,SpeechDraft1Carolyn_lessNoise_PlusLocalization,2021.2.3,59.94321331699747,
,,,,,,,,farLeft,-19.1,5,ch1Sound_localizationTask.wav,-19.1,"(667, 878)","(-293,-202)",-285,-338,,,,,,,,,7,1,50,0,,,,,,,,,,,,,,,,,,,,,,,,,,,,,,,,,,,,,,,,,,,,1610.5564234200865,None,1611.6552406889386,None,1612.5886169420555,None,1.2185185185185186,0.6996956611983478,1612.5886169420555,None,,,,,,,,,,,64,001,2023_Apr_07_1801,SpeechDraft1Carolyn_lessNoise_PlusLocalization,2021.2.3,59.94321331699747,
,,,,,,,,nearRight,6.5,0,ch1Sound_localizationTask.wav,6.5,"(1047, 878)","(87, -202)",95,-338,,,,,,,,,7,2,51,4,,,,,,,,,,,,,,,,,,,,,,,,,,,,,,,,,,,,,,,,,,,,1613.289437150117,None,1614.3886608360335,None,1615.322053339798,None,1.5105820105820107,0.7493410920724273,1615.322053339798,None,,,,,,,,,,,64,001,2023_Apr_07_1801,SpeechDraft1Carolyn_lessNoise_PlusLocalization,2021.2.3,59.94321331699747,
,,,,,,,,farLeft,-19.1,5,ch1Sound_localizationTask.wav,-19.1,"(667, 878)","(-293,-202)",-285,-338,,,,,,,,,7,3,52,0,,,,,,,,,,,,,,,,,,,,,,,,,,,,,,,,,,,,,,,,,,,,1616.073186473921,None,1617.1721070469357,None,1618.1055220551789,None,1.3021164021164022,0.9501159354113042,1618.1055220551789,None,,,,,,,,,,,64,001,2023_Apr_07_1801,SpeechDraft1Carolyn_lessNoise_PlusLocalization,2021.2.3,59.94321331699747,
,,,,,,,,nearRight,6.5,0,ch1Sound_localizationTask.wav,6.5,"(1047, 878)","(87, -202)",95,-338,,,,,,,,,7,4,53,4,,,,,,,,,,,,,,,,,,,,,,,,,,,,,,,,,,,,,,,,,,,,1619.0561214168556,None,1620.1556248739362,None,1621.0886626639403,None,1.5105820105820107,1.1154051758348942,1621.0886626639403,None,,,,,,,,,,,64,001,2023_Apr_07_1801,SpeechDraft1Carolyn_lessNoise_PlusLocalization,2021.2.3,59.94321331699747,
,,,,,,,,nearRight,6.5,0,ch1Sound_localizationTask.wav,6.5,"(1047, 878)","(87, -202)",95,-338,,,,,,,,,7,5,54,4,,,,,,,,,,,,,,,,,,,,,,,,,,,,,,,,,,,,,,,,,,,,1622.206004308071,None,1623.305144908838,None,1624.2387008881196,None,1.4957671957671956,0.982957046944648,1624.2387008881196,None,,,,,,,,,,,64,001,2023_Apr_07_1801,SpeechDraft1Carolyn_lessNoise_PlusLocalization,2021.2.3,59.94321331699747,
,,,,,,,,nearLeft,-6.5,1,ch1Sound_localizationTask.wav,-6.5,"(857, 878)","(-103,-202)",-95,-338,,,,,,,,,7,6,55,2,,,,,,,,,,,,,,,,,,,,,,,,,,,,,,,,,,,,,,,,,,,,1625.222604655195,None,1626.3222513468936,None,1627.2555883079767,None,1.4402116402116403,0.799815678037703,1627.2555883079767,None,,,,,,,,,,,64,001,2023_Apr_07_1801,SpeechDraft1Carolyn_lessNoise_PlusLocalization,2021.2.3,59.94321331699747,
,,,,,,,,,,,,,,,,,,,,,,,,,,,,,,,,,,,,,,,,,,,,,,,,,,,,,,,,,,,,,,,,,,,,,,,,,,,,,,,,,,space,9.922502253204584,1628.1391460071318,None,,,,,,,64,001,2023_Apr_07_1801,SpeechDraft1Carolyn_lessNoise_PlusLocalization,2021.2.3,59.94321331699747,
,,,,,,,,nearRight,6.5,0,ch1Sound_localizationTask.wav,6.5,"(1047, 878)","(87, -202)",95,-338,,,,,,,,,,,,,0,0,0,4,,,,,,,,,,,,,,,,,,,,,,,,,,,,,,,,,,,,,,,,1638.1055441400968,None,,,1641.1220858041197,None,1.5566137566137566,1.0189295927993953,1641.1220858041197,None,,,,,1628.1391460071318,None,1639.1059635831043,None,1639.2890773331746,1639.305888272822,64,001,2023_Apr_07_1801,SpeechDraft1Carolyn_lessNoise_PlusLocalization,2021.2.3,59.94321331699747,
,,,,,,,,center,0.0,6,ch1Sound_localizationTask.wav,0.0,"(952, 878)","(-8,-202)",0,-338,,,,,,,,,,,,,0,1,1,3,,,,,,,,,,,,,,,,,,,,,,,,,,,,,,,,,,,,,,,,1642.1391035080887,None,,,1645.155559077859,None,1.4962962962962962,1.033070761244744,1645.155559077859,None,,,,,,,1643.139099386055,None,1643.3224345231429,1643.3391500432044,64,001,2023_Apr_07_1801,SpeechDraft1Carolyn_lessNoise_PlusLocalization,2021.2.3,59.94321331699747,
,,,,,,,,nearLeft,-6.5,1,ch1Sound_localizationTask.wav,-6.5,"(857, 878)","(-103,-202)",-95,-338,,,,,,,,,,,,,0,2,2,2,,,,,,,,,,,,,,,,,,,,,,,,,,,,,,,,,,,,,,,,1646.1894596391357,None,,,1649.2052861899137,None,1.4322751322751324,1.1330413059331477,1649.2052861899137,None,,,,,,,1647.1890942170285,None,1647.3723789900541,1647.3892316231504,64,001,2023_Apr_07_1801,SpeechDraft1Carolyn_lessNoise_PlusLocalization,2021.2.3,59.94321331699747,
,,,,,,,,farRight,19.1,4,ch1Sound_localizationTask.wav,19.1,"(1237, 878)","(277,-202)",285,-338,,,,,,,,,,,,,0,3,3,6,,,,,,,,,,,,,,,,,,,,,,,,,,,,,,,,,,,,,,,,1650.3392288088799,None,,,1653.3554455442354,None,1.6894179894179895,1.1497784806415439,1653.3554455442354,None,,,,,,,1651.3389660371467,None,1651.522416492924,1651.539155041799,64,001,2023_Apr_07_1801,SpeechDraft1Carolyn_lessNoise_PlusLocalization,2021.2.3,59.94321331699747,
,,,,,,,,farRight,19.1,4,ch1Sound_localizationTask.wav,19.1,"(1237, 878)","(277,-202)",285,-338,,,,,,,,,,,,,0,4,4,6,,,,,,,,,,,,,,,,,,,,,,,,,,,,,,,,,,,,,,,,1654.5224614688195,None,,,1657.5387145727873,None,1.662962962962963,1.1334524820558727,1657.5387145727873,None,,,,,,,1655.5223531811498,None,1655.7057920349762,1655.7223892281763,64,001,2023_Apr_07_1801,SpeechDraft1Carolyn_lessNoise_PlusLocalization,2021.2.3,59.94321331699747,
,,,,,,,,farLeft,-19.1,5,ch1Sound_localizationTask.wav,-19.1,"(667, 878)","(-293,-202)",-285,-338,,,,,,,,,,,,,0,5,5,0,,,,,,,,,,,,,,,,,,,,,,,,,,,,,,,,,,,,,,,,1658.6890334729105,None,,,1661.7056183759123,None,1.3253968253968254,1.1669332212768495,1661.7056183759123,None,,,,,,,1659.6892432668246,None,1659.8724481170066,1659.889074106235,64,001,2023_Apr_07_1801,SpeechDraft1Carolyn_lessNoise_PlusLocalization,2021.2.3,59.94321331699747,
,,,,,,,,nearRight,6.5,0,ch1Sound_localizationTask.wav,6.5,"(1047, 878)","(87, -202)",95,-338,,,,,,,,,,,,,0,6,6,4,,,,,,,,,,,,,,,,,,,,,,,,,,,,,,,,,,,,,,,,1662.8891444317997,None,,,1665.9055919228122,None,1.5656084656084657,1.5004969108849764,1665.9055919228122,None,,,,,,,1663.889058736153,None,1664.072405078914,1664.089077046141,64,001,2023_Apr_07_1801,SpeechDraft1Carolyn_lessNoise_PlusLocalization,2021.2.3,59.94321331699747,
,,,,,,,,nearRight,6.5,0,ch1Sound_localizationTask.wav,6.5,"(1047, 878)","(87, -202)",95,-338,,,,,,,,,,,,,1,0,7,4,,,,,,,,,,,,,,,,,,,,,,,,,,,,,,,,,,,,,,,,1667.4065524130128,None,,,1670.4220429798588,None,1.5502645502645502,1.0001183687709272,1670.4220429798588,None,,,,,,,1668.4058357221074,None,1668.589007618837,1668.6057318318635,64,001,2023_Apr_07_1801,SpeechDraft1Carolyn_lessNoise_PlusLocalization,2021.2.3,59.94321331699747,
,,,,,,,,center,0.0,6,ch1Sound_localizationTask.wav,0.0,"(952, 878)","(-8,-202)",0,-338,,,,,,,,,,,,,1,1,8,3,,,,,,,,,,,,,,,,,,,,,,,,,,,,,,,,,,,,,,,,1671.439052333124,None,,,1674.4554742542095,None,1.4957671957671956,1.2004844029434025,1674.4554742542095,None,,,,,,,1672.4391771061346,None,1672.6225069998764,1672.639008142054,64,001,2023_Apr_07_1801,SpeechDraft1Carolyn_lessNoise_PlusLocalization,2021.2.3,59.94321331699747,
,,,,,,,,farRight,19.1,4,ch1Sound_localizationTask.wav,19.1,"(1237, 878)","(277,-202)",285,-338,,,,,,,,,,,,,1,2,9,6,,,,,,,,,,,,,,,,,,,,,,,,,,,,,,,,,,,,,,,,1675.672347893007,None,,,1678.68884246191,None,1.664021164021164,1.2328620259650052,1678.68884246191,None,,,,,,,1676.6723244739696,None,1676.855650993064,1676.87266236078,64,001,2023_Apr_07_1801,SpeechDraft1Carolyn_lessNoise_PlusLocalization,2021.2.3,59.94321331699747,
,,,,,,,,midRight,13.0,3,ch1Sound_localizationTask.wav,13.0,"(1142, 878)","(182, -202)",190,-338,,,,,,,,,,,,,1,3,10,5,,,,,,,,,,,,,,,,,,,,,,,,,,,,,,,,,,,,,,,,1679.9230322251096,None,,,1682.9388184398413,None,1.619047619047619,0.9160657967440784,1682.9388184398413,None,,,,,,,1680.9223885261454,None,1681.105752822943,1681.1222749338485,64,001,2023_Apr_07_1801,SpeechDraft1Carolyn_lessNoise_PlusLocalization,2021.2.3,59.94321331699747,
,,,,,,,,midLeft,-13.0,2,ch1Sound_localizationTask.wav,-13.0,"(762, 878)","(-198,-202)",-190,-338,,,,,,,,,,,,,1,4,11,1,,,,,,,,,,,,,,,,,,,,,,,,,,,,,,,,,,,,,,,,1683.8563862931915,None,,,1686.8722330462188,None,1.391005291005291,0.8164715101011097,1686.8722330462188,None,,,,,,,1684.855747976806,None,1685.0389889478683,1685.0558448862284,64,001,2023_Apr_07_1801,SpeechDraft1Carolyn_lessNoise_PlusLocalization,2021.2.3,59.94321331699747,
,,,,,,,,nearRight,6.5,0,ch1Sound_localizationTask.wav,6.5,"(1047, 878)","(87, -202)",95,-338,,,,,,,,,,,,,1,5,12,4,,,,,,,,,,,,,,,,,,,,,,,,,,,,,,,,,,,,,,,,1687.6896478538401,None,,,1690.7053144299425,None,1.555026455026455,1.6496241320855916,1690.7053144299425,None,,,,,,,1688.6892282580957,None,1688.872599166818,1688.8892003931105,64,001,2023_Apr_07_1801,SpeechDraft1Carolyn_lessNoise_PlusLocalization,2021.2.3,59.94321331699747,
,,,,,,,,nearLeft,-6.5,1,ch1Sound_localizationTask.wav,-6.5,"(857, 878)","(-103,-202)",-95,-338,,,,,,,,,,,,,1,6,13,2,,,,,,,,,,,,,,,,,,,,,,,,,,,,,,,,,,,,,,,,1692.356184197124,None,,,1695.3723850278184,None,1.4365079365079365,1.1037931651808321,1695.3723850278184,None,,,,,,,1693.3558832951821,None,1693.5391215127893,1693.5558789568022,64,001,2023_Apr_07_1801,SpeechDraft1Carolyn_lessNoise_PlusLocalization,2021.2.3,59.94321331699747,
,,,,,,,,midLeft,-13.0,2,ch1Sound_localizationTask.wav,-13.0,"(762, 878)","(-198,-202)",-190,-338,,,,,,,,,,,,,2,0,14,1,,,,,,,,,,,,,,,,,,,,,,,,,,,,,,,,,,,,,,,,1696.4902403028682,None,,,1699.5220953230746,None,1.3825396825396825,1.4846488488838077,1699.5220953230746,None,,,,,,,1697.5059121460654,None,1697.689364491962,1697.7056910768151,64,001,2023_Apr_07_1801,SpeechDraft1Carolyn_lessNoise_PlusLocalization,2021.2.3,59.94321331699747,
,,,,,,,,midLeft,-13.0,2,ch1Sound_localizationTask.wav,-13.0,"(762, 878)","(-198,-202)",-190,-338,,,,,,,,,,,,,2,1,15,1,,,,,,,,,,,,,,,,,,,,,,,,,,,,,,,,,,,,,,,,1701.0225108941086,None,,,1704.0388170029037,None,1.3915343915343916,1.2171399691142142,1704.0388170029037,None,,,,,,,1702.0224544680677,None,1702.2056000470184,1702.2226317310706,64,001,2023_Apr_07_1801,SpeechDraft1Carolyn_lessNoise_PlusLocalization,2021.2.3,59.94321331699747,
,,,,,,,,farLeft,-19.1,5,ch1Sound_localizationTask.wav,-19.1,"(667, 878)","(-293,-202)",-285,-338,,,,,,,,,,,,,2,2,16,0,,,,,,,,,,,,,,,,,,,,,,,,,,,,,,,,,,,,,,,,1705.2569592618383,None,,,1708.2889203932136,None,1.3285714285714285,1.2323891739360988,1708.2889203932136,None,,,,,,,1706.2726313718595,None,1706.455848199781,1706.4725133250467,64,001,2023_Apr_07_1801,SpeechDraft1Carolyn_lessNoise_PlusLocalization,2021.2.3,59.94321331699747,
,,,,,,,,midRight,13.0,3,ch1Sound_localizationTask.wav,13.0,"(1142, 878)","(182, -202)",190,-338,,,,,,,,,,,,,2,3,17,5,,,,,,,,,,,,,,,,,,,,,,,,,,,,,,,,,,,,,,,,1709.5225618029945,None,,,1712.5389005602337,None,1.6470899470899472,1.2501563439145684,1712.5389005602337,None,,,,,,,1710.522482987959,None,1710.7058694269508,1710.7223250288516,64,001,2023_Apr_07_1801,SpeechDraft1Carolyn_lessNoise_PlusLocalization,2021.2.3,59.94321331699747,
,,,,,,,,midRight,13.0,3,ch1Sound_localizationTask.wav,13.0,"(1142, 878)","(182, -202)",190,-338,,,,,,,,,,,,,2,4,18,5,,,,,,,,,,,,,,,,,,,,,,,,,,,,,,,,,,,,,,,,1713.791123853065,None,,,1716.8220268678851,None,1.5645502645502645,0.8157360241748393,1716.8220268678851,None,,,,,,,1714.8056524409913,None,1714.989186107181,1715.0056535028853,64,001,2023_Apr_07_1801,SpeechDraft1Carolyn_lessNoise_PlusLocalization,2021.2.3,59.94321331699747,
,,,,,,,,center,0.0,6,ch1Sound_localizationTask.wav,0.0,"(952, 878)","(-8,-202)",0,-338,,,,,,,,,,,,,2,5,19,3,,,,,,,,,,,,,,,,,,,,,,,,,,,,,,,,,,,,,,,,1717.63958408311,None,,,1720.6555789709091,None,1.494179894179894,0.6328219557181001,1720.6555789709091,None,,,,,,,1718.6391909020022,None,1718.8224733611569,1718.8392106029205,64,001,2023_Apr_07_1801,SpeechDraft1Carolyn_lessNoise_PlusLocalization,2021.2.3,59.94321331699747,
,,,,,,,,farLeft,-19.1,5,ch1Sound_localizationTask.wav,-19.1,"(667, 878)","(-293,-202)",-285,-338,,,,,,,,,,,,,2,6,20,0,,,,,,,,,,,,,,,,,,,,,,,,,,,,,,,,,,,,,,,,1721.2891172710806,None,,,1724.3053193949163,None,1.2978835978835979,1.0183693296276033,1724.3053193949163,None,,,,,,,1722.2893234221265,None,1722.472632360179,1722.4892097548582,64,001,2023_Apr_07_1801,SpeechDraft1Carolyn_lessNoise_PlusLocalization,2021.2.3,59.94321331699747,
,,,,,,,,midLeft,-13.0,2,ch1Sound_localizationTask.wav,-13.0,"(762, 878)","(-198,-202)",-190,-338,,,,,,,,,,,,,3,0,21,1,,,,,,,,,,,,,,,,,,,,,,,,,,,,,,,,,,,,,,,,1725.339236735832,None,,,1728.3553996561095,None,1.3936507936507936,0.8995636808685958,1728.3553996561095,None,,,,,,,1726.3392912358977,None,1726.5226049409248,1726.5391459348612,64,001,2023_Apr_07_1801,SpeechDraft1Carolyn_lessNoise_PlusLocalization,2021.2.3,59.94321331699747,
,,,,,,,,farLeft,-19.1,5,ch1Sound_localizationTask.wav,-19.1,"(667, 878)","(-293,-202)",-285,-338,,,,,,,,,,,,,3,1,22,0,,,,,,,,,,,,,,,,,,,,,,,,,,,,,,,,,,,,,,,,1729.256601489149,None,,,1732.272157703992,None,1.2772486772486773,1.1502582211978734,1732.272157703992,None,,,,,,,1730.2558558671735,None,1730.4390691132285,1730.4556634430774,64,001,2023_Apr_07_1801,SpeechDraft1Carolyn_lessNoise_PlusLocalization,2021.2.3,59.94321331699747,
,,,,,,,,farRight,19.1,4,ch1Sound_localizationTask.wav,19.1,"(1237, 878)","(277,-202)",285,-338,,,,,,,,,,,,,3,2,23,6,,,,,,,,,,,,,,,,,,,,,,,,,,,,,,,,,,,,,,,,1733.424059358891,None,,,1736.4555178298615,None,1.6783068783068784,1.582853419240564,1736.4555178298615,None,,,,,,,1734.4389923592098,None,1734.622344376985,1734.6389256729744,64,001,2023_Apr_07_1801,SpeechDraft1Carolyn_lessNoise_PlusLocalization,2021.2.3,59.94321331699747,
,,,,,,,,center,0.0,6,ch1Sound_localizationTask.wav,0.0,"(952, 878)","(-8,-202)",0,-338,,,,,,,,,,,,,3,3,24,3,,,,,,,,,,,,,,,,,,,,,,,,,,,,,,,,,,,,,,,,1738.0395213891752,None,,,1741.0554868727922,None,1.4936507936507937,0.8329418879002333,1741.0554868727922,None,,,,,,,1739.0393477659672,None,1739.2223784271628,1739.2392996549606,64,001,2023_Apr_07_1801,SpeechDraft1Carolyn_lessNoise_PlusLocalization,2021.2.3,59.94321331699747,
,,,,,,,,nearLeft,-6.5,1,ch1Sound_localizationTask.wav,-6.5,"(857, 878)","(-103,-202)",-95,-338,,,,,,,,,,,,,3,4,25,2,,,,,,,,,,,,,,,,,,,,,,,,,,,,,,,,,,,,,,,,1741.8893507029861,None,,,1744.9055674220435,None,1.4428571428571428,0.5323565751314163,1744.9055674220435,None,,,,,,,1742.889016977977,None,1743.0726133571006,1743.0892457948066,64,001,2023_Apr_07_1801,SpeechDraft1Carolyn_lessNoise_PlusLocalization,2021.2.3,59.94321331699747,
,,,,,,,,nearRight,6.5,0,ch1Sound_localizationTask.wav,6.5,"(1047, 878)","(87, -202)",95,-338,,,,,,,,,,,,,3,5,26,4,,,,,,,,,,,,,,,,,,,,,,,,,,,,,,,,,,,,,,,,1745.439224393107,None,,,1748.4555267300457,None,1.561904761904762,0.9324920806102455,1748.4555267300457,None,,,,,,,1746.438977451995,None,1746.622646342963,1746.6391275902279,64,001,2023_Apr_07_1801,SpeechDraft1Carolyn_lessNoise_PlusLocalization,2021.2.3,59.94321331699747,
,,,,,,,,farLeft,-19.1,5,ch1Sound_localizationTask.wav,-19.1,"(667, 878)","(-293,-202)",-285,-338,,,,,,,,,,,,,3,6,27,0,,,,,,,,,,,,,,,,,,,,,,,,,,,,,,,,,,,,,,,,1749.3900584951043,None,,,1752.4058599979617,None,1.2798941798941799,1.2169777830131352,1752.4058599979617,None,,,,,,,1750.3890598821454,None,1750.5725946701132,1750.589134784881,64,001,2023_Apr_07_1801,SpeechDraft1Carolyn_lessNoise_PlusLocalization,2021.2.3,59.94321331699747,
,,,,,,,,midRight,13.0,3,ch1Sound_localizationTask.wav,13.0,"(1142, 878)","(182, -202)",190,-338,,,,,,,,,,,,,4,0,28,5,,,,,,,,,,,,,,,,,,,,,,,,,,,,,,,,,,,,,,,,1753.6239889981225,None,,,1756.6556585961953,None,1.6063492063492064,1.549504108261317,1756.6556585961953,None,,,,,,,1754.639117776882,None,1754.8226351798512,1754.8390678400174,64,001,2023_Apr_07_1801,SpeechDraft1Carolyn_lessNoise_PlusLocalization,2021.2.3,59.94321331699747,
,,,,,,,,midRight,13.0,3,ch1Sound_localizationTask.wav,13.0,"(1142, 878)","(182, -202)",190,-338,,,,,,,,,,,,,4,1,29,5,,,,,,,,,,,,,,,,,,,,,,,,,,,,,,,,,,,,,,,,1758.2068284279667,None,,,1761.2387361531146,None,1.6105820105820106,1.0973577871918678,1761.2387361531146,None,,,,,,,1759.2225481970236,None,1759.4059645268135,1759.422449779231,64,001,2023_Apr_07_1801,SpeechDraft1Carolyn_lessNoise_PlusLocalization,2021.2.3,59.94321331699747,
,,,,,,,,midLeft,-13.0,2,ch1Sound_localizationTask.wav,-13.0,"(762, 878)","(-198,-202)",-190,-338,,,,,,,,,,,,,4,2,30,1,,,,,,,,,,,,,,,,,,,,,,,,,,,,,,,,,,,,,,,,1762.3396236877888,None,,,1765.3555407170206,None,1.3714285714285714,1.0501001542434096,1765.3555407170206,None,,,,,,,1763.3391848760657,None,1763.5226108389907,1763.5390644147992,64,001,2023_Apr_07_1801,SpeechDraft1Carolyn_lessNoise_PlusLocalization,2021.2.3,59.94321331699747,
,,,,,,,,nearLeft,-6.5,1,ch1Sound_localizationTask.wav,-6.5,"(857, 878)","(-103,-202)",-95,-338,,,,,,,,,,,,,4,3,31,2,,,,,,,,,,,,,,,,,,,,,,,,,,,,,,,,,,,,,,,,1766.4226293968968,None,,,1769.4389100349508,None,1.434920634920635,0.782874294091016,1769.4389100349508,None,,,,,,,1767.4226829041727,None,1767.6059872349724,1767.6223830077797,64,001,2023_Apr_07_1801,SpeechDraft1Carolyn_lessNoise_PlusLocalization,2021.2.3,59.94321331699747,
,,,,,,,,farRight,19.1,4,ch1Sound_localizationTask.wav,19.1,"(1237, 878)","(277,-202)",285,-338,,,,,,,,,,,,,4,4,32,6,,,,,,,,,,,,,,,,,,,,,,,,,,,,,,,,,,,,,,,,1770.2227109130472,None,,,1773.2389198341407,None,1.6894179894179895,0.9657096802257001,1773.2389198341407,None,,,,,,,1771.2225836399011,None,1771.4059191900305,1771.4225428299978,64,001,2023_Apr_07_1801,SpeechDraft1Carolyn_lessNoise_PlusLocalization,2021.2.3,59.94321331699747,
,,,,,,,,farRight,19.1,4,ch1Sound_localizationTask.wav,19.1,"(1237, 878)","(277,-202)",285,-338,,,,,,,,,,,,,4,5,33,6,,,,,,,,,,,,,,,,,,,,,,,,,,,,,,,,,,,,,,,,1774.2067720969208,None,,,1777.238902070094,None,1.644973544973545,1.332839412149042,1777.238902070094,None,,,,,,,1775.222732488066,None,1775.406164104119,1775.4226667610928,64,001,2023_Apr_07_1801,SpeechDraft1Carolyn_lessNoise_PlusLocalization,2021.2.3,59.94321331699747,
,,,,,,,,nearRight,6.5,0,ch1Sound_localizationTask.wav,6.5,"(1047, 878)","(87, -202)",95,-338,,,,,,,,,,,,,4,6,34,4,,,,,,,,,,,,,,,,,,,,,,,,,,,,,,,,,,,,,,,,1778.5728041119874,None,,,1781.5886725881137,None,1.573015873015873,0.8830507104285061,1781.5886725881137,None,,,,,,,1779.57263473887,None,1779.7558950982057,1779.7725089229643,64,001,2023_Apr_07_1801,SpeechDraft1Carolyn_lessNoise_PlusLocalization,2021.2.3,59.94321331699747,
,,,,,,,,nearLeft,-6.5,1,ch1Sound_localizationTask.wav,-6.5,"(857, 878)","(-103,-202)",-95,-338,,,,,,,,,,,,,5,0,35,2,,,,,,,,,,,,,,,,,,,,,,,,,,,,,,,,,,,,,,,,1782.4726756829768,None,,,1785.488898045849,None,1.457142857142857,0.766831167973578,1785.488898045849,None,,,,,,,1783.472551878076,None,1783.65592826996,1783.6726139909588,64,001,2023_Apr_07_1801,SpeechDraft1Carolyn_lessNoise_PlusLocalization,2021.2.3,59.94321331699747,
,,,,,,,,midLeft,-13.0,2,ch1Sound_localizationTask.wav,-13.0,"(762, 878)","(-198,-202)",-190,-338,,,,,,,,,,,,,5,1,36,1,,,,,,,,,,,,,,,,,,,,,,,,,,,,,,,,,,,,,,,,1786.272664878983,None,,,1789.289032545872,None,1.3354497354497354,1.067278241738677,1789.289032545872,None,,,,,,,1787.2725563109852,None,1787.4559164950624,1787.4725546408445,64,001,2023_Apr_07_1801,SpeechDraft1Carolyn_lessNoise_PlusLocalization,2021.2.3,59.94321331699747,
,,,,,,,,center,0.0,6,ch1Sound_localizationTask.wav,0.0,"(952, 878)","(-8,-202)",0,-338,,,,,,,,,,,,,5,2,37,3,,,,,,,,,,,,,,,,,,,,,,,,,,,,,,,,,,,,,,,,1790.3726122202352,None,,,1793.3891758858226,None,1.4936507936507937,0.8164460952393711,1793.3891758858226,None,,,,,,,1791.3726632110775,None,1791.5559479589574,1791.5724203810096,64,001,2023_Apr_07_1801,SpeechDraft1Carolyn_lessNoise_PlusLocalization,2021.2.3,59.94321331699747,
,,,,,,,,midLeft,-13.0,2,ch1Sound_localizationTask.wav,-13.0,"(762, 878)","(-198,-202)",-190,-338,,,,,,,,,,,,,5,3,38,1,,,,,,,,,,,,,,,,,,,,,,,,,,,,,,,,,,,,,,,,1794.2064753267914,None,,,1797.2222774908878,None,1.3756613756613758,0.9511251603253186,1797.2222774908878,None,,,,,,,1795.2060507461429,None,1795.3894323031418,1795.4060144461691,64,001,2023_Apr_07_1801,SpeechDraft1Carolyn_lessNoise_PlusLocalization,2021.2.3,59.94321331699747,
,,,,,,,,midRight,13.0,3,ch1Sound_localizationTask.wav,13.0,"(1142, 878)","(182, -202)",190,-338,,,,,,,,,,,,,5,4,39,5,,,,,,,,,,,,,,,,,,,,,,,,,,,,,,,,,,,,,,,,1798.1891706739552,None,,,1801.2054770970717,None,1.5936507936507938,0.8495199857279658,1801.2054770970717,None,,,,,,,1799.1892996979877,None,1799.3727268967777,1799.3893462619744,64,001,2023_Apr_07_1801,SpeechDraft1Carolyn_lessNoise_PlusLocalization,2021.2.3,59.94321331699747,
,,,,,,,,midLeft,-13.0,2,ch1Sound_localizationTask.wav,-13.0,"(762, 878)","(-198,-202)",-190,-338,,,,,,,,,,,,,5,5,40,1,,,,,,,,,,,,,,,,,,,,,,,,,,,,,,,,,,,,,,,,1802.072858626023,None,,,1805.0889225262217,None,1.342857142857143,1.2333982079289854,1805.0889225262217,None,,,,,,,1803.0724569140002,None,1803.2558373189531,1803.272712888196,64,001,2023_Apr_07_1801,SpeechDraft1Carolyn_lessNoise_PlusLocalization,2021.2.3,59.94321331699747,
,,,,,,,,farRight,19.1,4,ch1Sound_localizationTask.wav,19.1,"(1237, 878)","(277,-202)",285,-338,,,,,,,,,,,,,5,6,41,6,,,,,,,,,,,,,,,,,,,,,,,,,,,,,,,,,,,,,,,,1806.3232182520442,None,,,1809.339009784162,None,1.6873015873015873,1.0323791489936411,1809.339009784162,None,,,,,,,1807.322711000219,None,1807.505972133018,1807.522678508889,64,001,2023_Apr_07_1801,SpeechDraft1Carolyn_lessNoise_PlusLocalization,2021.2.3,59.94321331699747,
,,,,,,,,midRight,13.0,3,ch1Sound_localizationTask.wav,13.0,"(1142, 878)","(182, -202)",190,-338,,,,,,,,,,,,,6,0,42,5,,,,,,,,,,,,,,,,,,,,,,,,,,,,,,,,,,,,,,,,1810.3729778109118,None,,,1813.3890067511238,None,1.6285714285714286,1.21635149884969,1813.3890067511238,None,,,,,,,1811.372795753181,None,1811.5557913281955,1811.5726272729225,64,001,2023_Apr_07_1801,SpeechDraft1Carolyn_lessNoise_PlusLocalization,2021.2.3,59.94321331699747,
,,,,,,,,nearLeft,-6.5,1,ch1Sound_localizationTask.wav,-6.5,"(857, 878)","(-103,-202)",-95,-338,,,,,,,,,,,,,6,1,43,2,,,,,,,,,,,,,,,,,,,,,,,,,,,,,,,,,,,,,,,,1814.6066782358103,None,,,1817.6224794690497,None,1.4354497354497355,1.2176687200553715,1817.6224794690497,None,,,,,,,1815.6059790351428,None,1815.7894018408842,1815.8059040359221,64,001,2023_Apr_07_1801,SpeechDraft1Carolyn_lessNoise_PlusLocalization,2021.2.3,59.94321331699747,
,,,,,,,,farLeft,-19.1,5,ch1Sound_localizationTask.wav,-19.1,"(667, 878)","(-293,-202)",-285,-338,,,,,,,,,,,,,6,2,44,0,,,,,,,,,,,,,,,,,,,,,,,,,,,,,,,,,,,,,,,,1818.8559906948358,None,,,1821.872493580915,None,1.2947089947089947,1.4323693001642823,1821.872493580915,None,,,,,,,1819.856000190135,None,1820.0391960511915,1820.0557959149592,64,001,2023_Apr_07_1801,SpeechDraft1Carolyn_lessNoise_PlusLocalization,2021.2.3,59.94321331699747,
,,,,,,,,nearLeft,-6.5,1,ch1Sound_localizationTask.wav,-6.5,"(857, 878)","(-103,-202)",-95,-338,,,,,,,,,,,,,6,3,45,2,,,,,,,,,,,,,,,,,,,,,,,,,,,,,,,,,,,,,,,,1823.307128928136,None,,,1826.3392266822048,None,1.4555555555555555,1.6163897067308426,1826.3392266822048,None,,,,,,,1824.3225375087932,None,1824.506188917905,1824.5228112172335,64,001,2023_Apr_07_1801,SpeechDraft1Carolyn_lessNoise_PlusLocalization,2021.2.3,59.94321331699747,
,,,,,,,,center,0.0,6,ch1Sound_localizationTask.wav,0.0,"(952, 878)","(-8,-202)",0,-338,,,,,,,,,,,,,6,4,46,3,,,,,,,,,,,,,,,,,,,,,,,,,,,,,,,,,,,,,,,,1827.9561760481447,None,,,1830.97239572322,None,1.5010582010582012,1.748330235015601,1830.97239572322,None,,,,,,,1828.9560409388505,None,1829.139141656924,1829.1561338920146,64,001,2023_Apr_07_1801,SpeechDraft1Carolyn_lessNoise_PlusLocalization,2021.2.3,59.94321331699747,
,,,,,,,,farLeft,-19.1,5,ch1Sound_localizationTask.wav,-19.1,"(667, 878)","(-293,-202)",-285,-338,,,,,,,,,,,,,6,5,47,0,,,,,,,,,,,,,,,,,,,,,,,,,,,,,,,,,,,,,,,,1832.722778310068,None,,,1835.7388343950734,None,1.2671957671957672,1.4336589179001749,1835.7388343950734,None,,,,,,,1833.7228247649036,None,1833.9059427441098,1833.9227333310992,64,001,2023_Apr_07_1801,SpeechDraft1Carolyn_lessNoise_PlusLocalization,2021.2.3,59.94321331699747,
,,,,,,,,center,0.0,6,ch1Sound_localizationTask.wav,0.0,"(952, 878)","(-8,-202)",0,-338,,,,,,,,,,,,,6,6,48,3,,,,,,,,,,,,,,,,,,,,,,,,,,,,,,,,,,,,,,,,1837.1740435347892,None,,,1840.2055869949982,None,1.502116402116402,1.2496445239521563,1840.2055869949982,None,,,,,,,1838.1893445909955,None,1838.3728128778748,1838.3894228488207,64,001,2023_Apr_07_1801,SpeechDraft1Carolyn_lessNoise_PlusLocalization,2021.2.3,59.94321331699747,
,,,,,,,,center,0.0,6,ch1Sound_localizationTask.wav,0.0,"(952, 878)","(-8,-202)",0,-338,,,,,,,,,,,,,7,0,49,3,,,,,,,,,,,,,,,,,,,,,,,,,,,,,,,,,,,,,,,,1841.4560399479233,None,,,1844.4724147100933,None,1.5042328042328044,0.5662574591115117,1844.4724147100933,None,,,,,,,1842.4560031420551,None,1842.6395011441782,1842.6558792837895,64,001,2023_Apr_07_1801,SpeechDraft1Carolyn_lessNoise_PlusLocalization,2021.2.3,59.94321331699747,
,,,,,,,,midRight,13.0,3,ch1Sound_localizationTask.wav,13.0,"(1142, 878)","(182, -202)",190,-338,,,,,,,,,,,,,7,1,50,5,,,,,,,,,,,,,,,,,,,,,,,,,,,,,,,,,,,,,,,,1845.0395050328225,None,,,1848.0557014602236,None,1.624867724867725,0.898904946167022,1848.0557014602236,None,,,,,,,1846.039138962049,None,1846.2227056701668,1846.239260877017,64,001,2023_Apr_07_1801,SpeechDraft1Carolyn_lessNoise_PlusLocalization,2021.2.3,59.94321331699747,
,,,,,,,,nearLeft,-6.5,1,ch1Sound_localizationTask.wav,-6.5,"(857, 878)","(-103,-202)",-95,-338,,,,,,,,,,,,,7,2,51,2,,,,,,,,,,,,,,,,,,,,,,,,,,,,,,,,,,,,,,,,1848.9561613039114,None,,,1851.9723681728356,None,1.4439153439153438,1.0990836708806455,1851.9723681728356,None,,,,,,,1849.9559236811474,None,1850.1391659858637,1850.1559521998279,64,001,2023_Apr_07_1801,SpeechDraft1Carolyn_lessNoise_PlusLocalization,2021.2.3,59.94321331699747,
,,,,,,,,nearRight,6.5,0,ch1Sound_localizationTask.wav,6.5,"(1047, 878)","(87, -202)",95,-338,,,,,,,,,,,,,7,3,52,4,,,,,,,,,,,,,,,,,,,,,,,,,,,,,,,,,,,,,,,,1853.0728578660637,None,,,1856.0892005087808,None,1.5751322751322752,1.265462429728359,1856.0892005087808,None,,,,,,,1854.0727021899074,None,1854.2558495132253,1854.2726234658621,64,001,2023_Apr_07_1801,SpeechDraft1Carolyn_lessNoise_PlusLocalization,2021.2.3,59.94321331699747,
,,,,,,,,nearRight,6.5,0,ch1Sound_localizationTask.wav,6.5,"(1047, 878)","(87, -202)",95,-338,,,,,,,,,,,,,7,4,53,4,,,,,,,,,,,,,,,,,,,,,,,,,,,,,,,,,,,,,,,,1857.3562669199891,None,,,1860.3723343648016,None,1.5592592592592593,0.9333884352818131,1860.3723343648016,None,,,,,,,1858.355962487869,None,1858.5393382180482,1858.5560392229818,64,001,2023_Apr_07_1801,SpeechDraft1Carolyn_lessNoise_PlusLocalization,2021.2.3,59.94321331699747,
,,,,,,,,farLeft,-19.1,5,ch1Sound_localizationTask.wav,-19.1,"(667, 878)","(-293,-202)",-285,-338,,,,,,,,,,,,,7,5,54,0,,,,,,,,,,,,,,,,,,,,,,,,,,,,,,,,,,,,,,,,1861.3063466609456,None,,,1864.322298297193,None,1.2947089947089947,1.1498640142381191,1864.322298297193,None,,,,,,,1862.306044626981,None,1862.489571291022,1862.5058737280779,64,001,2023_Apr_07_1801,SpeechDraft1Carolyn_lessNoise_PlusLocalization,2021.2.3,59.94321331699747,
,,,,,,,,farRight,19.1,4,ch1Sound_localizationTask.wav,19.1,"(1237, 878)","(277,-202)",285,-338,,,,,,,,,,,,,7,6,55,6,,,,,,,,,,,,,,,,,,,,,,,,,,,,,,,,,,,,,,,,1865.4727430008352,None,,,1868.4888767912053,None,1.6851851851851851,1.3835968929342926,1868.4888767912053,None,,,,,,,1866.472837605048,None,1866.6560680582188,1866.6728230458684,64,001,2023_Apr_07_1801,SpeechDraft1Carolyn_lessNoise_PlusLocalization,2021.2.3,59.94321331699747,
