Audio_Only_Files,Video_Files,Original_Word_List,noiseLevelCode,conditionCodes,noiseLevelFile1,noiseLevelFile2,InstrTextVar,targetSpeakerName,targetSpeakerEccen,targetSpkrChannel,targetSpkrSound,targetVisualDegrees,visStimLoc,visStimLoc2,visStimW,visStimH,practiceTrials.thisRepN,practiceTrials.thisTrialN,practiceTrials.thisN,practiceTrials.thisIndex,trials.thisRepN,trials.thisTrialN,trials.thisN,trials.thisIndex,audLocalLoop.thisRepN,audLocalLoop.thisTrialN,audLocalLoop.thisN,audLocalLoop.thisIndex,visualLocalLoop.thisRepN,visualLocalLoop.thisTrialN,visualLocalLoop.thisN,visualLocalLoop.thisIndex,letsGoAlready.keys,letsGoAlready.rt,letsGoAlready.started,letsGoAlready.stopped,text_2.started,text_2.stopped,text_3.started,text_3.stopped,key_resp_2.keys,key_resp_2.rt,key_resp_2.started,key_resp_2.stopped,text_5.started,text_5.stopped,fixCross.started,fixCross.stopped,fixCross2.started,fixCross2.stopped,answerPrompt.started,answerPrompt.stopped,getAnswer.text,getAnswer.started,getAnswer.stopped,goToNext.keys,goToNext.rt,goToNext.started,goToNext.stopped,stretchBreakTxrt.started,stretchBreakTxrt.stopped,key_resp_3.keys,key_resp_3.rt,key_resp_3.started,key_resp_3.stopped,letsGoLocal.keys,letsGoLocal.rt,letsGoLocal.started,letsGoLocal.stopped,text_4.started,text_4.stopped,prepFixTxt.started,prepFixTxt.stopped,prepFixTxt_2.started,prepFixTxt_2.stopped,respPromptLocal.started,respPromptLocal.stopped,slider.response,slider.rt,slider.started,slider.stopped,letsGoLocal_2.keys,letsGoLocal_2.rt,letsGoLocal_2.started,letsGoLocal_2.stopped,text_7.started,text_7.stopped,prepFixTxt_3.started,prepFixTxt_3.stopped,grating.started,grating.stopped,participant,session,date,expName,psychopyVersion,frameRate,
,,,,,,,,,,,,,,,,,,,,,,,,,,,,,,,,,space,10.722033335827291,13.24025289202109,None,,,,,,,,,,,,,,,,,,,,,,,,,,,,,,,,,,,,,,,,,,,,,,,,,,,,,,,,65,001,2023_Apr_10_1200,SpeechDraft1Carolyn_lessNoise_PlusLocalization,2021.2.3,59.88602477483771,
,,,,,,,,,,,,,,,,,,,,,,,,,,,,,,,,,,,,,13.24025289202109,None,24.089687012135983,None,space,15.20932636084035,24.272931371815503,None,,,,,,,,,,,,,,,,,,,,,,,,,,,,,,,,,,,,,,,,,,,,,,,,65,001,2023_Apr_10_1200,SpeechDraft1Carolyn_lessNoise_PlusLocalization,2021.2.3,59.88602477483771,
ash.wav,ash.mpg,ash,1,A,Pink_Noise_1_1.wav,Pink_Noise_1_2.wav,"This is an example of an

AUDIO trial",,,,,,,,,,0,0,0,0,,,,,,,,,,,,,,,,,,,,,,,,,39.53940049279481,None,40.522976560052484,None,43.85600408585742,None,45.239963490050286,None,"ash
",45.239963490050286,None,return,2.335177688859403,45.323048188816756,None,,,,,,,,,,,,,,,,,,,,,,,,,,,,,,,,,65,001,2023_Apr_10_1200,SpeechDraft1Carolyn_lessNoise_PlusLocalization,2021.2.3,59.88602477483771,
ash.wav,ash.mpg,ash,1,AV,Pink_Noise_1_1.wav,Pink_Noise_1_2.wav,"This is an example of an

AUDIO + VIDEO  trial",,,,,,,,,,0,1,1,1,,,,,,,,,,,,,,,,,,,,,,,,,47.706048553809524,None,48.70639587379992,None,50.18975872499868,None,51.57343435380608,None,"ash
",51.57343435380608,None,return,1.5700462209060788,51.65620510280132,None,,,,,,,,,,,,,,,,,,,,,,,,,,,,,,,,,65,001,2023_Apr_10_1200,SpeechDraft1Carolyn_lessNoise_PlusLocalization,2021.2.3,59.88602477483771,
,,,,,,,,,,,,,,,,,,,,,,,,,,,,,,,,,,,,,,,,,,,,,,,,,,,,,,,,,,,,53.27261299174279,None,space,14.945837812963873,53.456435677129775,None,,,,,,,,,,,,,,,,,,,,,,,,,,,65,001,2023_Apr_10_1200,SpeechDraft1Carolyn_lessNoise_PlusLocalization,2021.2.3,59.88602477483771,
brief.wav,brief.mpg,brief,5,AV,Pink_Noise_5_1.wav,Pink_Noise_5_2.wav,,,,,,,,,,,,,,,0,0,0,90,,,,,,,,,,,,,,,,,,,,,,,68.45625721802935,None,69.93940175604075,None,71.32337992591783,None,breath,71.32337992591783,None,return,3.172165780328214,71.40617325296625,None,,,,,,,,,,,,,,,,,,,,,,,,,,,,,,,,,65,001,2023_Apr_10_1200,SpeechDraft1Carolyn_lessNoise_PlusLocalization,2021.2.3,59.88602477483771,
leapt.wav,leapt.mpg,leapt,6,AV,Pink_Noise_6_1.wav,Pink_Noise_6_2.wav,,,,,,,,,,,,,,,0,1,1,106,,,,,,,,,,,,,,,,,,,,,,,74.60626968275756,None,76.10611891187727,None,77.48955073673278,None,lemur,77.48955073673278,None,return,13.18940469995141,77.5729481051676,None,,,,,,,,,,,,,,,,,,,,,,,,,,,,,,,,,65,001,2023_Apr_10_1200,SpeechDraft1Carolyn_lessNoise_PlusLocalization,2021.2.3,59.88602477483771,
boost.wav,boost.mpg,boost,3,AV,Pink_Noise_3_1.wav,Pink_Noise_3_2.wav,,,,,,,,,,,,,,,0,2,2,69,,,,,,,,,,,,,,,,,,,,,,,90.78973339078948,None,92.28954545781016,None,93.67307040188462,None,boost,93.67307040188462,None,return,1.8218239382840693,93.75650312099606,None,,,,,,,,,,,,,,,,,,,,,,,,,,,,,,,,,65,001,2023_Apr_10_1200,SpeechDraft1Carolyn_lessNoise_PlusLocalization,2021.2.3,59.88602477483771,
drive.wav,drive.mpg,drive,5,AV,Pink_Noise_5_1.wav,Pink_Noise_5_2.wav,,,,,,,,,,,,,,,0,3,3,96,,,,,,,,,,,,,,,,,,,,,,,95.60638747178018,None,97.10641527408734,None,98.48954058717936,None,druve,98.48954058717936,None,return,1.3812260469421744,98.57307177688926,None,,,,,,,,,,,,,,,,,,,,,,,,,,,,,,,,,65,001,2023_Apr_10_1200,SpeechDraft1Carolyn_lessNoise_PlusLocalization,2021.2.3,59.88602477483771,
bunch.wav,bunch.mpg,bunch,6,AV,Pink_Noise_6_1.wav,Pink_Noise_6_2.wav,,,,,,,,,,,,,,,0,4,4,110,,,,,,,,,,,,,,,,,,,,,,,99.97310253698379,None,101.45726275304332,None,102.83947407081723,None,punch,102.83947407081723,None,return,4.263419268652797,102.92294098995626,None,,,,,,,,,,,,,,,,,,,,,,,,,,,,,,,,,65,001,2023_Apr_10_1200,SpeechDraft1Carolyn_lessNoise_PlusLocalization,2021.2.3,59.88602477483771,
beat.wav,beat.mpg,beat,5,A,Pink_Noise_5_1.wav,Pink_Noise_5_2.wav,,,,,,,,,,,,,,,0,5,5,55,,,,,,,,,,,,,,,,,,,,,,,107.20652213599533,None,108.70602794084698,None,110.08977129776031,None,beat,110.08977129776031,None,return,1.7572790826670825,110.17302926210687,None,,,,,,,,,,,,,,,,,,,,,,,,,,,,,,,,,65,001,2023_Apr_10_1200,SpeechDraft1Carolyn_lessNoise_PlusLocalization,2021.2.3,59.88602477483771,
gum.wav,gum.mpg,gum,6,AV,Pink_Noise_6_1.wav,Pink_Noise_6_2.wav,,,,,,,,,,,,,,,0,6,6,89,,,,,,,,,,,,,,,,,,,,,,,111.9562496538274,None,113.45624112617224,None,114.83952099410817,None,gum,114.83952099410817,None,return,2.015480536967516,114.9228879911825,None,,,,,,,,,,,,,,,,,,,,,,,,,,,,,,,,,65,001,2023_Apr_10_1200,SpeechDraft1Carolyn_lessNoise_PlusLocalization,2021.2.3,59.88602477483771,
crook.wav,crook.mpg,crook,3,A,Pink_Noise_3_1.wav,Pink_Noise_3_2.wav,,,,,,,,,,,,,,,0,7,7,28,,,,,,,,,,,,,,,,,,,,,,,116.9565617768094,None,118.44145881384611,None,119.82318787788972,None,crook,119.82318787788972,None,return,1.4398689130321145,119.90646710107103,None,,,,,,,,,,,,,,,,,,,,,,,,,,,,,,,,,65,001,2023_Apr_10_1200,SpeechDraft1Carolyn_lessNoise_PlusLocalization,2021.2.3,59.88602477483771,
cash.wav,cash.mpg,cash,2,AV,Pink_Noise_2_1.wav,Pink_Noise_2_2.wav,,,,,,,,,,,,,,,0,8,8,95,,,,,,,,,,,,,,,,,,,,,,,121.37321581318974,None,122.90619490807876,None,124.28958591306582,None,cash,124.28958591306582,None,return,0.9330786420032382,124.3732252297923,None,,,,,,,,,,,,,,,,,,,,,,,,,,,,,,,,,65,001,2023_Apr_10_1200,SpeechDraft1Carolyn_lessNoise_PlusLocalization,2021.2.3,59.88602477483771,
check.wav,check.mpg,check,3,A,Pink_Noise_3_1.wav,Pink_Noise_3_2.wav,,,,,,,,,,,,,,,0,9,9,50,,,,,,,,,,,,,,,,,,,,,,,125.32332811085507,None,126.82263554586098,None,128.20631322916597,None,check,128.20631322916597,None,return,2.680309741292149,128.28992057219148,None,,,,,,,,,,,,,,,,,,,,,,,,,,,,,,,,,65,001,2023_Apr_10_1200,SpeechDraft1Carolyn_lessNoise_PlusLocalization,2021.2.3,59.88602477483771,
flip.wav,flip.mpg,flip,2,A,Pink_Noise_2_1.wav,Pink_Noise_2_2.wav,,,,,,,,,,,,,,,0,10,10,51,,,,,,,,,,,,,,,,,,,,,,,130.989775150083,None,132.48954953905195,None,133.87316430173814,None,lift,133.87316430173814,None,return,1.3817623937502503,133.95657719811425,None,,,,,,,,,,,,,,,,,,,,,,,,,,,,,,,,,65,001,2023_Apr_10_1200,SpeechDraft1Carolyn_lessNoise_PlusLocalization,2021.2.3,59.88602477483771,
flea.wav,flea.mpg,flea,5,AV,Pink_Noise_5_1.wav,Pink_Noise_5_2.wav,,,,,,,,,,,,,,,0,11,11,76,,,,,,,,,,,,,,,,,,,,,,,135.35656320815906,None,136.85621819319203,None,138.23987323697656,None,flee,138.23987323697656,None,return,1.2312518102116883,138.32300670584664,None,,,,,,,,,,,,,,,,,,,,,,,,,,,,,,,,,65,001,2023_Apr_10_1200,SpeechDraft1Carolyn_lessNoise_PlusLocalization,2021.2.3,59.88602477483771,
pike.wav,pike.mpg,pike,1,A,Pink_Noise_1_1.wav,Pink_Noise_1_2.wav,,,,,,,,,,,,,,,0,12,12,35,,,,,,,,,,,,,,,,,,,,,,,139.5731093129143,None,141.07276384392753,None,142.45663576899096,None,pike,142.45663576899096,None,return,1.0226316573098302,142.5396874351427,None,,,,,,,,,,,,,,,,,,,,,,,,,,,,,,,,,65,001,2023_Apr_10_1200,SpeechDraft1Carolyn_lessNoise_PlusLocalization,2021.2.3,59.88602477483771,
crop.wav,crop.mpg,crop,5,A,Pink_Noise_5_1.wav,Pink_Noise_5_2.wav,,,,,,,,,,,,,,,0,13,13,42,,,,,,,,,,,,,,,,,,,,,,,143.58968370500952,None,145.08945979597047,None,146.47308894479647,None,mice,146.47308894479647,None,return,4.125774294603616,146.5566911008209,None,,,,,,,,,,,,,,,,,,,,,,,,,,,,,,,,,65,001,2023_Apr_10_1200,SpeechDraft1Carolyn_lessNoise_PlusLocalization,2021.2.3,59.88602477483771,
clot.wav,clot.mpg,clot,3,A,Pink_Noise_3_1.wav,Pink_Noise_3_2.wav,,,,,,,,,,,,,,,0,14,14,59,,,,,,,,,,,,,,,,,,,,,,,150.70658913999796,None,152.20609532296658,None,153.59000514773652,None,cracked,153.59000514773652,None,return,6.30510912835598,153.67325429013,None,,,,,,,,,,,,,,,,,,,,,,,,,,,,,,,,,65,001,2023_Apr_10_1200,SpeechDraft1Carolyn_lessNoise_PlusLocalization,2021.2.3,59.88602477483771,
farm.wav,farm.mpg,farm,3,A,Pink_Noise_3_1.wav,Pink_Noise_3_2.wav,,,,,,,,,,,,,,,0,15,15,41,,,,,,,,,,,,,,,,,,,,,,,160.00665993709117,None,161.50610023597255,None,162.889951556921,None,farm,162.889951556921,None,return,2.493063381873071,162.97320457408205,None,,,,,,,,,,,,,,,,,,,,,,,,,,,,,,,,,65,001,2023_Apr_10_1200,SpeechDraft1Carolyn_lessNoise_PlusLocalization,2021.2.3,59.88602477483771,
smack.wav,smack.mpg,smack,5,A,Pink_Noise_5_1.wav,Pink_Noise_5_2.wav,,,,,,,,,,,,,,,0,16,16,21,,,,,,,,,,,,,,,,,,,,,,,165.49004758615047,None,166.99004414118826,None,168.3730101538822,None,tent,168.3730101538822,None,return,0.9376709582284093,168.45659334491938,None,,,,,,,,,,,,,,,,,,,,,,,,,,,,,,,,,65,001,2023_Apr_10_1200,SpeechDraft1Carolyn_lessNoise_PlusLocalization,2021.2.3,59.88602477483771,
cape.wav,cape.mpg,cape,3,AV,Pink_Noise_3_1.wav,Pink_Noise_3_2.wav,,,,,,,,,,,,,,,0,17,17,111,,,,,,,,,,,,,,,,,,,,,,,169.42318829800934,None,170.9227829570882,None,172.30638088984415,None,cape,172.30638088984415,None,return,4.892346479929984,172.3898942968808,None,,,,,,,,,,,,,,,,,,,,,,,,,,,,,,,,,65,001,2023_Apr_10_1200,SpeechDraft1Carolyn_lessNoise_PlusLocalization,2021.2.3,59.88602477483771,
dot.wav,dot.mpg,dot,3,AV,Pink_Noise_3_1.wav,Pink_Noise_3_2.wav,,,,,,,,,,,,,,,0,18,18,105,,,,,,,,,,,,,,,,,,,,,,,177.30662991618738,None,178.80654871510342,None,180.18985644774511,None,"dot
",180.18985644774511,None,return,2.5530277979560196,180.27321374509484,None,,,,,,,,,,,,,,,,,,,,,,,,,,,,,,,,,65,001,2023_Apr_10_1200,SpeechDraft1Carolyn_lessNoise_PlusLocalization,2021.2.3,59.88602477483771,
bed.wav,bed.mpg,bed,6,A,Pink_Noise_6_1.wav,Pink_Noise_6_2.wav,,,,,,,,,,,,,,,0,19,19,20,,,,,,,,,,,,,,,,,,,,,,,182.8565698810853,None,184.35615731403232,None,185.739931514021,None,push,185.739931514021,None,return,1.5469487309455872,185.82337360596284,None,,,,,,,,,,,,,,,,,,,,,,,,,,,,,,,,,65,001,2023_Apr_10_1200,SpeechDraft1Carolyn_lessNoise_PlusLocalization,2021.2.3,59.88602477483771,
bland.wav,bland.mpg,bland,1,AV,Pink_Noise_1_1.wav,Pink_Noise_1_2.wav,,,,,,,,,,,,,,,0,20,20,107,,,,,,,,,,,,,,,,,,,,,,,187.38992172293365,None,188.88964597182348,None,190.2734092590399,None,bland,190.2734092590399,None,return,6.045661095995456,190.35657749604434,None,,,,,,,,,,,,,,,,,,,,,,,,,,,,,,,,,65,001,2023_Apr_10_1200,SpeechDraft1Carolyn_lessNoise_PlusLocalization,2021.2.3,59.88602477483771,
frame.wav,frame.mpg,frame,2,A,Pink_Noise_2_1.wav,Pink_Noise_2_2.wav,,,,,,,,,,,,,,,0,21,21,16,,,,,,,,,,,,,,,,,,,,,,,196.4232962038368,None,197.92306741373613,None,199.30649080779403,None,"drain
",199.30649080779403,None,return,1.2683049566112459,199.38994153495878,None,,,,,,,,,,,,,,,,,,,,,,,,,,,,,,,,,65,001,2023_Apr_10_1200,SpeechDraft1Carolyn_lessNoise_PlusLocalization,2021.2.3,59.88602477483771,
snake.wav,snake.mpg,snake,1,AV,Pink_Noise_1_1.wav,Pink_Noise_1_2.wav,,,,,,,,,,,,,,,0,22,22,64,,,,,,,,,,,,,,,,,,,,,,,200.6899386011064,None,202.18955699075013,None,203.57334672100842,None,snake,203.57334672100842,None,return,2.3057923037558794,203.65656200703233,None,,,,,,,,,,,,,,,,,,,,,,,,,,,,,,,,,65,001,2023_Apr_10_1200,SpeechDraft1Carolyn_lessNoise_PlusLocalization,2021.2.3,59.88602477483771,
fame.wav,fame.mpg,fame,1,AV,Pink_Noise_1_1.wav,Pink_Noise_1_2.wav,,,,,,,,,,,,,,,0,23,23,80,,,,,,,,,,,,,,,,,,,,,,,205.98970457492396,None,207.48978554597124,None,208.87332332273945,None,fame,208.87332332273945,None,return,2.541688291821629,208.95658988598734,None,,,,,,,,,,,,,,,,,,,,,,,,,,,,,,,,,65,001,2023_Apr_10_1200,SpeechDraft1Carolyn_lessNoise_PlusLocalization,2021.2.3,59.88602477483771,
poll.wav,poll.mpg,poll,6,AV,Pink_Noise_6_1.wav,Pink_Noise_6_2.wav,,,,,,,,,,,,,,,0,24,24,119,,,,,,,,,,,,,,,,,,,,,,,211.5234349151142,None,213.02310583507642,None,214.40673984307796,None,"poor
",214.40673984307796,None,return,1.6004024990834296,214.48985176580027,None,,,,,,,,,,,,,,,,,,,,,,,,,,,,,,,,,65,001,2023_Apr_10_1200,SpeechDraft1Carolyn_lessNoise_PlusLocalization,2021.2.3,59.88602477483771,
deem.wav,deem.mpg,deem,5,A,Pink_Noise_5_1.wav,Pink_Noise_5_2.wav,,,,,,,,,,,,,,,0,25,25,44,,,,,,,,,,,,,,,,,,,,,,,216.12326364591718,None,217.62324834475294,None,219.0067334268242,None,date,219.0067334268242,None,return,1.9604000062681735,219.0898383348249,None,,,,,,,,,,,,,,,,,,,,,,,,,,,,,,,,,65,001,2023_Apr_10_1200,SpeechDraft1Carolyn_lessNoise_PlusLocalization,2021.2.3,59.88602477483771,
guard.wav,guard.mpg,guard,2,AV,Pink_Noise_2_1.wav,Pink_Noise_2_2.wav,,,,,,,,,,,,,,,0,26,26,66,,,,,,,,,,,,,,,,,,,,,,,221.07333516608924,None,222.5730378231965,None,223.95661319699138,None,guard,223.95661319699138,None,return,1.4743639179505408,224.04000531788915,None,,,,,,,,,,,,,,,,,,,,,,,,,,,,,,,,,65,001,2023_Apr_10_1200,SpeechDraft1Carolyn_lessNoise_PlusLocalization,2021.2.3,59.88602477483771,
deed.wav,deed.mpg,deed,5,A,Pink_Noise_5_1.wav,Pink_Noise_5_2.wav,,,,,,,,,,,,,,,0,27,27,9,,,,,,,,,,,,,,,,,,,,,,,225.53997088503093,None,227.03965255711228,None,228.42334346985444,None,leave,228.42334346985444,None,return,1.6156020490452647,228.50675794109702,None,,,,,,,,,,,,,,,,,,,,,,,,,,,,,,,,,65,001,2023_Apr_10_1200,SpeechDraft1Carolyn_lessNoise_PlusLocalization,2021.2.3,59.88602477483771,
fluent.wav,fluent.mpg,fluent,3,AV,Pink_Noise_3_1.wav,Pink_Noise_3_2.wav,,,,,,,,,,,,,,,0,28,28,93,,,,,,,,,,,,,,,,,,,,,,,230.14003852615133,None,231.63983587594703,None,233.02332261577249,None,fluent,233.02332261577249,None,return,5.791755674406886,233.10652347980067,None,,,,,,,,,,,,,,,,,,,,,,,,,,,,,,,,,65,001,2023_Apr_10_1200,SpeechDraft1Carolyn_lessNoise_PlusLocalization,2021.2.3,59.88602477483771,
curb.wav,curb.mpg,curb,6,A,Pink_Noise_6_1.wav,Pink_Noise_6_2.wav,,,,,,,,,,,,,,,0,29,29,52,,,,,,,,,,,,,,,,,,,,,,,238.92330479295924,None,240.42311088275164,None,241.80662977788597,None,rose,241.80662977788597,None,return,2.3921576500870287,241.89008627599105,None,,,,,,,,,,,,,,,,,,,,,,,,,,,,,,,,,65,001,2023_Apr_10_1200,SpeechDraft1Carolyn_lessNoise_PlusLocalization,2021.2.3,59.88602477483771,
axe.wav,axe.mpg,axe,1,A,Pink_Noise_1_1.wav,Pink_Noise_1_2.wav,,,,,,,,,,,,,,,0,30,30,12,,,,,,,,,,,,,,,,,,,,,,,244.30678300186992,None,245.80630420381203,None,247.18996175704524,None,"axe
",247.18996175704524,None,return,2.400868650060147,247.2733834227547,None,,,,,,,,,,,,,,,,,,,,,,,,,,,,,,,,,65,001,2023_Apr_10_1200,SpeechDraft1Carolyn_lessNoise_PlusLocalization,2021.2.3,59.88602477483771,
blue.wav,blue.mpg,blue,6,A,Pink_Noise_6_1.wav,Pink_Noise_6_2.wav,,,,,,,,,,,,,,,0,31,31,30,,,,,,,,,,,,,,,,,,,,,,,249.70659783901647,None,251.206357171759,None,252.5900124218315,None,flee,252.5900124218315,None,return,4.13696304615587,252.67333084205166,None,,,,,,,,,,,,,,,,,,,,,,,,,,,,,,,,,65,001,2023_Apr_10_1200,SpeechDraft1Carolyn_lessNoise_PlusLocalization,2021.2.3,59.88602477483771,
blimp.wav,blimp.mpg,blimp,1,AV,Pink_Noise_1_1.wav,Pink_Noise_1_2.wav,,,,,,,,,,,,,,,0,32,32,84,,,,,,,,,,,,,,,,,,,,,,,256.84007246792316,None,258.3409244790673,None,259.7233313987963,None,blimp,259.7233313987963,None,return,8.363667794968933,259.80672420887277,None,,,,,,,,,,,,,,,,,,,,,,,,,,,,,,,,,65,001,2023_Apr_10_1200,SpeechDraft1Carolyn_lessNoise_PlusLocalization,2021.2.3,59.88602477483771,
cuff.wav,cuff.mpg,cuff,5,A,Pink_Noise_5_1.wav,Pink_Noise_5_2.wav,,,,,,,,,,,,,,,0,33,33,3,,,,,,,,,,,,,,,,,,,,,,,268.1898990259506,None,269.6898677959107,None,271.0733411847614,None,hush,271.0733411847614,None,return,12.989590622950345,271.1567722391337,None,,,,,,,,,,,,,,,,,,,,,,,,,,,,,,,,,65,001,2023_Apr_10_1200,SpeechDraft1Carolyn_lessNoise_PlusLocalization,2021.2.3,59.88602477483771,
dream.wav,dream.mpg,dream,6,AV,Pink_Noise_6_1.wav,Pink_Noise_6_2.wav,,,,,,,,,,,,,,,0,34,34,100,,,,,,,,,,,,,,,,,,,,,,,284.1734063741751,None,285.67304410785437,None,287.0565230981447,None,dream,287.0565230981447,None,return,1.462197463028133,287.14007662795484,None,,,,,,,,,,,,,,,,,,,,,,,,,,,,,,,,,65,001,2023_Apr_10_1200,SpeechDraft1Carolyn_lessNoise_PlusLocalization,2021.2.3,59.88602477483771,
bug.wav,bug.mpg,bug,3,A,Pink_Noise_3_1.wav,Pink_Noise_3_2.wav,,,,,,,,,,,,,,,0,35,35,37,,,,,,,,,,,,,,,,,,,,,,,288.62342446902767,None,290.1230127681047,None,291.50669944798574,None,bug,291.50669944798574,None,return,0.9402887965552509,291.5900698611513,None,,,,,,,,,,,,,,,,,,,,,,,,,,,,,,,,,65,001,2023_Apr_10_1200,SpeechDraft1Carolyn_lessNoise_PlusLocalization,2021.2.3,59.88602477483771,
bail.wav,bail.mpg,bail,4,A,Pink_Noise_4_1.wav,Pink_Noise_4_2.wav,,,,,,,,,,,,,,,0,36,36,7,,,,,,,,,,,,,,,,,,,,,,,292.55697542009875,None,294.0565858199261,None,295.4400441609323,None,fail,295.4400441609323,None,return,1.0788408815860748,295.5233920630999,None,,,,,,,,,,,,,,,,,,,,,,,,,,,,,,,,,65,001,2023_Apr_10_1200,SpeechDraft1Carolyn_lessNoise_PlusLocalization,2021.2.3,59.88602477483771,
earn.wav,earn.mpg,earn,3,A,Pink_Noise_3_1.wav,Pink_Noise_3_2.wav,,,,,,,,,,,,,,,0,37,37,49,,,,,,,,,,,,,,,,,,,,,,,296.6232024799101,None,298.12298063980415,None,299.50684762373567,None,earth,299.50684762373567,None,return,1.2279893886297941,299.5902634197846,None,,,,,,,,,,,,,,,,,,,,,,,,,,,,,,,,,65,001,2023_Apr_10_1200,SpeechDraft1Carolyn_lessNoise_PlusLocalization,2021.2.3,59.88602477483771,
brag.wav,brag.mpg,brag,1,A,Pink_Noise_1_1.wav,Pink_Noise_1_2.wav,,,,,,,,,,,,,,,0,38,38,14,,,,,,,,,,,,,,,,,,,,,,,300.84007221693173,None,302.3413005080074,None,303.7234566370025,None,brag,303.7234566370025,None,return,0.9236807092092931,303.80667190719396,None,,,,,,,,,,,,,,,,,,,,,,,,,,,,,,,,,65,001,2023_Apr_10_1200,SpeechDraft1Carolyn_lessNoise_PlusLocalization,2021.2.3,59.88602477483771,
cloud.wav,cloud.mpg,cloud,2,AV,Pink_Noise_2_1.wav,Pink_Noise_2_2.wav,,,,,,,,,,,,,,,0,39,39,87,,,,,,,,,,,,,,,,,,,,,,,304.7568276729435,None,306.25621232483536,None,307.64023890392855,None,cloud,307.64023890392855,None,return,1.4548540017567575,307.72339941514656,None,,,,,,,,,,,,,,,,,,,,,,,,,,,,,,,,,65,001,2023_Apr_10_1200,SpeechDraft1Carolyn_lessNoise_PlusLocalization,2021.2.3,59.88602477483771,
slush.wav,slush.mpg,slush,2,A,Pink_Noise_2_1.wav,Pink_Noise_2_2.wav,,,,,,,,,,,,,,,0,40,40,4,,,,,,,,,,,,,,,,,,,,,,,309.2068078410812,None,310.70657337177545,None,312.0900512379594,None,slush,312.0900512379594,None,return,0.9809261769987643,312.1733449790627,None,,,,,,,,,,,,,,,,,,,,,,,,,,,,,,,,,65,001,2023_Apr_10_1200,SpeechDraft1Carolyn_lessNoise_PlusLocalization,2021.2.3,59.88602477483771,
book.wav,book.mpg,book,2,AV,Pink_Noise_2_1.wav,Pink_Noise_2_2.wav,,,,,,,,,,,,,,,0,41,41,63,,,,,,,,,,,,,,,,,,,,,,,313.1735593401827,None,314.6731220027432,None,316.05667708674446,None,book,316.05667708674446,None,return,1.1742072622291744,316.1402436029166,None,,,,,,,,,,,,,,,,,,,,,,,,,,,,,,,,,65,001,2023_Apr_10_1200,SpeechDraft1Carolyn_lessNoise_PlusLocalization,2021.2.3,59.88602477483771,
mass.wav,mass.mpg,mass,4,AV,Pink_Noise_4_1.wav,Pink_Noise_4_2.wav,,,,,,,,,,,,,,,0,42,42,112,,,,,,,,,,,,,,,,,,,,,,,317.340156420134,None,318.8567687748,None,320.23991141980514,None,mass,320.23991141980514,None,return,1.710670383181423,320.3235835810192,None,,,,,,,,,,,,,,,,,,,,,,,,,,,,,,,,,65,001,2023_Apr_10_1200,SpeechDraft1Carolyn_lessNoise_PlusLocalization,2021.2.3,59.88602477483771,
hug.wav,hug.mpg,hug,6,AV,Pink_Noise_6_1.wav,Pink_Noise_6_2.wav,,,,,,,,,,,,,,,0,43,43,61,,,,,,,,,,,,,,,,,,,,,,,322.0566882160492,None,323.556328673847,None,324.9399356227368,None,"heart
",324.9399356227368,None,return,0.8508144179359078,325.0234222719446,None,,,,,,,,,,,,,,,,,,,,,,,,,,,,,,,,,65,001,2023_Apr_10_1200,SpeechDraft1Carolyn_lessNoise_PlusLocalization,2021.2.3,59.88602477483771,
depth.wav,depth.mpg,depth,4,A,Pink_Noise_4_1.wav,Pink_Noise_4_2.wav,,,,,,,,,,,,,,,0,44,44,0,,,,,,,,,,,,,,,,,,,,,,,325.9066544068046,None,327.4063310371712,None,328.79175315611064,None,death,328.79175315611064,None,return,1.0249084788374603,328.8733515921049,None,,,,,,,,,,,,,,,,,,,,,,,,,,,,,,,,,65,001,2023_Apr_10_1200,SpeechDraft1Carolyn_lessNoise_PlusLocalization,2021.2.3,59.88602477483771,
carve.wav,carve.mpg,carve,3,AV,Pink_Noise_3_1.wav,Pink_Noise_3_2.wav,,,,,,,,,,,,,,,0,45,45,85,,,,,,,,,,,,,,,,,,,,,,,329.92346152709797,None,331.42306115012616,None,332.8067948180251,None,"carve
",332.8067948180251,None,return,1.9840611252002418,332.8901455248706,None,,,,,,,,,,,,,,,,,,,,,,,,,,,,,,,,,65,001,2023_Apr_10_1200,SpeechDraft1Carolyn_lessNoise_PlusLocalization,2021.2.3,59.88602477483771,
pride.wav,pride.mpg,pride,3,AV,Pink_Noise_3_1.wav,Pink_Noise_3_2.wav,,,,,,,,,,,,,,,0,46,46,117,,,,,,,,,,,,,,,,,,,,,,,334.90685926098377,None,336.4064749139361,None,337.7899804171175,None,"pride
",337.7899804171175,None,return,0.9847102300263941,337.87353501375765,None,,,,,,,,,,,,,,,,,,,,,,,,,,,,,,,,,65,001,2023_Apr_10_1200,SpeechDraft1Carolyn_lessNoise_PlusLocalization,2021.2.3,59.88602477483771,
gross.wav,gross.mpg,gross,4,A,Pink_Noise_4_1.wav,Pink_Noise_4_2.wav,,,,,,,,,,,,,,,0,47,47,10,,,,,,,,,,,,,,,,,,,,,,,338.89010178204626,None,340.3898466140963,None,341.7735906080343,None,gross,341.7735906080343,None,return,2.7374695166945457,341.856777836103,None,,,,,,,,,,,,,,,,,,,,,,,,,,,,,,,,,65,001,2023_Apr_10_1200,SpeechDraft1Carolyn_lessNoise_PlusLocalization,2021.2.3,59.88602477483771,
pop.wav,pop.mpg,pop,4,A,Pink_Noise_4_1.wav,Pink_Noise_4_2.wav,,,,,,,,,,,,,,,0,48,48,26,,,,,,,,,,,,,,,,,,,,,,,344.6233940720558,None,346.12294442392886,None,347.50655991910025,None,"hot
",347.50655991910025,None,return,1.2840701709501445,347.5901857619174,None,,,,,,,,,,,,,,,,,,,,,,,,,,,,,,,,,65,001,2023_Apr_10_1200,SpeechDraft1Carolyn_lessNoise_PlusLocalization,2021.2.3,59.88602477483771,
chart.wav,chart.mpg,chart,5,AV,Pink_Noise_5_1.wav,Pink_Noise_5_2.wav,,,,,,,,,,,,,,,0,49,49,103,,,,,,,,,,,,,,,,,,,,,,,348.9067313307896,None,350.4065155959688,None,351.7902049301192,None,charge,351.7902049301192,None,return,3.5768936960957944,351.8733833851293,None,,,,,,,,,,,,,,,,,,,,,,,,,,,,,,,,,65,001,2023_Apr_10_1200,SpeechDraft1Carolyn_lessNoise_PlusLocalization,2021.2.3,59.88602477483771,
bat.wav,bat.mpg,bat,1,AV,Pink_Noise_1_1.wav,Pink_Noise_1_2.wav,,,,,,,,,,,,,,,0,50,50,73,,,,,,,,,,,,,,,,,,,,,,,355.47348257899284,None,356.97339083906263,None,358.35689106583595,None,bat,358.35689106583595,None,return,0.7463056962005794,358.44005824811757,None,,,,,,,,,,,,,,,,,,,,,,,,,,,,,,,,,65,001,2023_Apr_10_1200,SpeechDraft1Carolyn_lessNoise_PlusLocalization,2021.2.3,59.88602477483771,
script.wav,script.mpg,script,1,AV,Pink_Noise_1_1.wav,Pink_Noise_1_2.wav,,,,,,,,,,,,,,,0,51,51,77,,,,,,,,,,,,,,,,,,,,,,,359.20697733573616,None,360.7071284689009,None,362.0898542087525,None,"script
",362.0898542087525,None,return,1.2526755761355162,362.1735611478798,None,,,,,,,,,,,,,,,,,,,,,,,,,,,,,,,,,65,001,2023_Apr_10_1200,SpeechDraft1Carolyn_lessNoise_PlusLocalization,2021.2.3,59.88602477483771,
bible.wav,bible.mpg,bible,5,A,Pink_Noise_5_1.wav,Pink_Noise_5_2.wav,,,,,,,,,,,,,,,0,52,52,15,,,,,,,,,,,,,,,,,,,,,,,363.4568141759373,None,364.95657477900386,None,366.3401711890474,None,bible,366.3401711890474,None,return,4.29069442441687,366.42356314416975,None,,,,,,,,,,,,,,,,,,,,,,,,,,,,,,,,,65,001,2023_Apr_10_1200,SpeechDraft1Carolyn_lessNoise_PlusLocalization,2021.2.3,59.88602477483771,
blame.wav,blame.mpg,blame,5,AV,Pink_Noise_5_1.wav,Pink_Noise_5_2.wav,,,,,,,,,,,,,,,0,53,53,99,,,,,,,,,,,,,,,,,,,,,,,370.74028175184503,None,372.2566147618927,None,373.6399544267915,None,blame,373.6399544267915,None,return,1.3747037169523537,373.7235595989041,None,,,,,,,,,,,,,,,,,,,,,,,,,,,,,,,,,65,001,2023_Apr_10_1200,SpeechDraft1Carolyn_lessNoise_PlusLocalization,2021.2.3,59.88602477483771,
draft.wav,draft.mpg,draft,2,AV,Pink_Noise_2_1.wav,Pink_Noise_2_2.wav,,,,,,,,,,,,,,,0,54,54,113,,,,,,,,,,,,,,,,,,,,,,,375.12344369478524,None,376.6233691559173,None,378.00707121612504,None,draft,378.00707121612504,None,return,1.264009186066687,378.09023822518066,None,,,,,,,,,,,,,,,,,,,,,,,,,,,,,,,,,65,001,2023_Apr_10_1200,SpeechDraft1Carolyn_lessNoise_PlusLocalization,2021.2.3,59.88602477483771,
crypt.wav,crypt.mpg,crypt,2,AV,Pink_Noise_2_1.wav,Pink_Noise_2_2.wav,,,,,,,,,,,,,,,0,55,55,75,,,,,,,,,,,,,,,,,,,,,,,379.3737195180729,None,380.88971867086366,None,382.2737994417548,None,crypt,382.2737994417548,None,return,1.3254206557758152,382.35683394083753,None,,,,,,,,,,,,,,,,,,,,,,,,,,,,,,,,,65,001,2023_Apr_10_1200,SpeechDraft1Carolyn_lessNoise_PlusLocalization,2021.2.3,59.88602477483771,
barge.wav,barge.mpg,barge,2,AV,Pink_Noise_2_1.wav,Pink_Noise_2_2.wav,,,,,,,,,,,,,,,0,56,56,72,,,,,,,,,,,,,,,,,,,,,,,383.7070499411784,None,385.2231688438915,None,386.60663483291864,None,barge,386.60663483291864,None,return,1.024260233156383,386.6901464248076,None,,,,,,,,,,,,,,,,,,,,,,,,,,,,,,,,,65,001,2023_Apr_10_1200,SpeechDraft1Carolyn_lessNoise_PlusLocalization,2021.2.3,59.88602477483771,
cleft.wav,cleft.mpg,cleft,3,AV,Pink_Noise_3_1.wav,Pink_Noise_3_2.wav,,,,,,,,,,,,,,,0,57,57,109,,,,,,,,,,,,,,,,,,,,,,,387.7402101960033,None,389.24053142778575,None,390.6236006980762,None,cleft,390.6236006980762,None,return,2.6712411609478295,390.7069803420454,None,,,,,,,,,,,,,,,,,,,,,,,,,,,,,,,,,65,001,2023_Apr_10_1200,SpeechDraft1Carolyn_lessNoise_PlusLocalization,2021.2.3,59.88602477483771,
oats.wav,oats.mpg,oats,4,A,Pink_Noise_4_1.wav,Pink_Noise_4_2.wav,,,,,,,,,,,,,,,0,58,58,47,,,,,,,,,,,,,,,,,,,,,,,393.4070167359896,None,394.9065290791914,None,396.2901703398675,None,once,396.2901703398675,None,return,6.692661621142179,396.373598522041,None,,,,,,,,,,,,,,,,,,,,,,,,,,,,,,,,,65,001,2023_Apr_10_1200,SpeechDraft1Carolyn_lessNoise_PlusLocalization,2021.2.3,59.88602477483771,
croak.wav,croak.mpg,croak,6,A,Pink_Noise_6_1.wav,Pink_Noise_6_2.wav,,,,,,,,,,,,,,,0,59,59,33,,,,,,,,,,,,,,,,,,,,,,,403.0902585517615,None,404.60656371712685,None,405.9901929530315,None,push,405.9901929530315,None,return,1.3608308746479452,406.0733961169608,None,,,,,,,,,,,,,,,,,,,,,,,,,,,,,,,,,65,001,2023_Apr_10_1200,SpeechDraft1Carolyn_lessNoise_PlusLocalization,2021.2.3,59.88602477483771,
fold.wav,fold.mpg,fold,4,AV,Pink_Noise_4_1.wav,Pink_Noise_4_2.wav,,,,,,,,,,,,,,,0,60,60,104,,,,,,,,,,,,,,,,,,,,,,,407.4570058067329,None,408.958229906857,None,410.3400128050707,None,fold,410.3400128050707,None,return,2.162840107921511,410.4234903170727,None,,,,,,,,,,,,,,,,,,,,,,,,,,,,,,,,,65,001,2023_Apr_10_1200,SpeechDraft1Carolyn_lessNoise_PlusLocalization,2021.2.3,59.88602477483771,
brash.wav,brash.mpg,brash,1,AV,Pink_Noise_1_1.wav,Pink_Noise_1_2.wav,,,,,,,,,,,,,,,0,61,61,62,,,,,,,,,,,,,,,,,,,,,,,412.6069988431409,None,414.1073935138993,None,415.4903974640183,None,brash,415.4903974640183,None,return,3.444807260297239,415.573458482977,None,,,,,,,,,,,,,,,,,,,,,,,,,,,,,,,,,65,001,2023_Apr_10_1200,SpeechDraft1Carolyn_lessNoise_PlusLocalization,2021.2.3,59.88602477483771,
ham.wav,ham.mpg,ham,2,A,Pink_Noise_2_1.wav,Pink_Noise_2_2.wav,,,,,,,,,,,,,,,0,62,62,45,,,,,,,,,,,,,,,,,,,,,,,419.0403563720174,None,420.54209556709975,None,421.9236674187705,None,him,421.9236674187705,None,return,1.7075038249604404,422.00688590994105,None,,,,,,,,,,,,,,,,,,,,,,,,,,,,,,,,,65,001,2023_Apr_10_1200,SpeechDraft1Carolyn_lessNoise_PlusLocalization,2021.2.3,59.88602477483771,
dance.wav,dance.mpg,dance,6,A,Pink_Noise_6_1.wav,Pink_Noise_6_2.wav,,,,,,,,,,,,,,,0,63,63,29,,,,,,,,,,,,,,,,,,,,,,,423.75662543298677,None,425.25666196178645,None,426.64010463794693,None,,426.64010463794693,None,return,6.038737700786442,426.72365115210414,None,,,,,,,,,,,,,,,,,,,,,,,,,,,,,,,,,65,001,2023_Apr_10_1200,SpeechDraft1Carolyn_lessNoise_PlusLocalization,2021.2.3,59.88602477483771,
fault.wav,fault.mpg,fault,4,A,Pink_Noise_4_1.wav,Pink_Noise_4_2.wav,,,,,,,,,,,,,,,0,64,64,11,,,,,,,,,,,,,,,,,,,,,,,432.79110217792913,None,434.2899581901729,None,435.67408814886585,None,heart,435.67408814886585,None,return,3.39731975691393,435.7569306669757,None,,,,,,,,,,,,,,,,,,,,,,,,,,,,,,,,,65,001,2023_Apr_10_1200,SpeechDraft1Carolyn_lessNoise_PlusLocalization,2021.2.3,59.88602477483771,
ton.wav,ton.mpg,ton,4,A,Pink_Noise_4_1.wav,Pink_Noise_4_2.wav,,,,,,,,,,,,,,,0,65,65,1,,,,,,,,,,,,,,,,,,,,,,,439.1736204861663,None,440.67417550692335,None,442.0569840078242,None,time,442.0569840078242,None,return,1.430244805291295,442.1400818019174,None,,,,,,,,,,,,,,,,,,,,,,,,,,,,,,,,,65,001,2023_Apr_10_1200,SpeechDraft1Carolyn_lessNoise_PlusLocalization,2021.2.3,59.88602477483771,
bear.wav,bear.mpg,bear,4,AV,Pink_Noise_4_1.wav,Pink_Noise_4_2.wav,,,,,,,,,,,,,,,0,66,66,94,,,,,,,,,,,,,,,,,,,,,,,443.5902699008584,None,445.0901888520457,None,446.47374006174505,None,bear,446.47374006174505,None,return,0.8933019316755235,446.55693767406046,None,,,,,,,,,,,,,,,,,,,,,,,,,,,,,,,,,65,001,2023_Apr_10_1200,SpeechDraft1Carolyn_lessNoise_PlusLocalization,2021.2.3,59.88602477483771,
ditch.wav,ditch.mpg,ditch,1,A,Pink_Noise_1_1.wav,Pink_Noise_1_2.wav,,,,,,,,,,,,,,,0,67,67,53,,,,,,,,,,,,,,,,,,,,,,,447.4736027661711,None,448.989729128778,None,450.3737029521726,None,ditch,450.3737029521726,None,return,1.9773009847849607,450.45691565284505,None,,,,,,,,,,,,,,,,,,,,,,,,,,,,,,,,,65,001,2023_Apr_10_1200,SpeechDraft1Carolyn_lessNoise_PlusLocalization,2021.2.3,59.88602477483771,
blank.wav,blank.mpg,blank,4,A,Pink_Noise_4_1.wav,Pink_Noise_4_2.wav,,,,,,,,,,,,,,,0,68,68,13,,,,,,,,,,,,,,,,,,,,,,,452.45693055400625,None,453.97430180199444,None,455.3569660461508,None,like,455.3569660461508,None,return,3.13797633908689,455.44027768215165,None,,,,,,,,,,,,,,,,,,,,,,,,,,,,,,,,,65,001,2023_Apr_10_1200,SpeechDraft1Carolyn_lessNoise_PlusLocalization,2021.2.3,59.88602477483771,
goat.wav,goat.mpg,goat,4,AV,Pink_Noise_4_1.wav,Pink_Noise_4_2.wav,,,,,,,,,,,,,,,0,69,69,70,,,,,,,,,,,,,,,,,,,,,,,458.6068601598963,None,460.12366060586646,None,461.50667257606983,None,ghost,461.50667257606983,None,return,1.003983675967902,461.59026886196807,None,,,,,,,,,,,,,,,,,,,,,,,,,,,,,,,,,65,001,2023_Apr_10_1200,SpeechDraft1Carolyn_lessNoise_PlusLocalization,2021.2.3,59.88602477483771,
friend.wav,friend.mpg,friend,6,AV,Pink_Noise_6_1.wav,Pink_Noise_6_2.wav,,,,,,,,,,,,,,,0,70,70,68,,,,,,,,,,,,,,,,,,,,,,,462.623619788792,None,464.1565712960437,None,465.54037844901904,None,friend,465.54037844901904,None,return,1.7627494311891496,465.6236071800813,None,,,,,,,,,,,,,,,,,,,,,,,,,,,,,,,,,65,001,2023_Apr_10_1200,SpeechDraft1Carolyn_lessNoise_PlusLocalization,2021.2.3,59.88602477483771,
belt.wav,belt.mpg,belt,5,A,Pink_Noise_5_1.wav,Pink_Noise_5_2.wav,,,,,,,,,,,,,,,0,71,71,36,,,,,,,,,,,,,,,,,,,,,,,467.40682819718495,None,468.940068599768,None,470.3234120369889,None,house,470.3234120369889,None,return,1.5553369242697954,470.40703275287524,None,,,,,,,,,,,,,,,,,,,,,,,,,,,,,,,,,65,001,2023_Apr_10_1200,SpeechDraft1Carolyn_lessNoise_PlusLocalization,2021.2.3,59.88602477483771,
cliff.wav,cliff.mpg,cliff,3,A,Pink_Noise_3_1.wav,Pink_Noise_3_2.wav,,,,,,,,,,,,,,,0,72,72,5,,,,,,,,,,,,,,,,,,,,,,,471.9902831497602,None,473.5064358380623,None,474.89037648774683,None,"cliff
",474.89037648774683,None,return,1.1165511272847652,474.9737034398131,None,,,,,,,,,,,,,,,,,,,,,,,,,,,,,,,,,65,001,2023_Apr_10_1200,SpeechDraft1Carolyn_lessNoise_PlusLocalization,2021.2.3,59.88602477483771,
flood.wav,flood.mpg,flood,4,AV,Pink_Noise_4_1.wav,Pink_Noise_4_2.wav,,,,,,,,,,,,,,,0,73,73,92,,,,,,,,,,,,,,,,,,,,,,,476.1237062998116,None,477.64008809812367,None,479.0237543741241,None,flood,479.0237543741241,None,return,2.9272288661450148,479.10700453817844,None,,,,,,,,,,,,,,,,,,,,,,,,,,,,,,,,,65,001,2023_Apr_10_1200,SpeechDraft1Carolyn_lessNoise_PlusLocalization,2021.2.3,59.88602477483771,
druid.wav,druid.mpg,druid,3,A,Pink_Noise_3_1.wav,Pink_Noise_3_2.wav,,,,,,,,,,,,,,,0,74,74,19,,,,,,,,,,,,,,,,,,,,,,,482.0569738750346,None,483.57321502501145,None,484.95727191399783,None,dream,484.95727191399783,None,return,2.5619223839603364,485.04037523595616,None,,,,,,,,,,,,,,,,,,,,,,,,,,,,,,,,,65,001,2023_Apr_10_1200,SpeechDraft1Carolyn_lessNoise_PlusLocalization,2021.2.3,59.88602477483771,
fix.wav,fix.mpg,fix,4,AV,Pink_Noise_4_1.wav,Pink_Noise_4_2.wav,,,,,,,,,,,,,,,0,75,75,74,,,,,,,,,,,,,,,,,,,,,,,487.62362971995026,None,489.14003446977586,None,490.52370020002127,None,"fix
",490.52370020002127,None,return,1.6512271561659873,490.60702029103413,None,,,,,,,,,,,,,,,,,,,,,,,,,,,,,,,,,65,001,2023_Apr_10_1200,SpeechDraft1Carolyn_lessNoise_PlusLocalization,2021.2.3,59.88602477483771,
sake.wav,sake.mpg,sake,1,A,Pink_Noise_1_1.wav,Pink_Noise_1_2.wav,,,,,,,,,,,,,,,0,76,76,32,,,,,,,,,,,,,,,,,,,,,,,492.2904633949511,None,493.8065179637633,None,495.1902330801822,None,sick,495.1902330801822,None,return,0.9045722610317171,495.27378088608384,None,,,,,,,,,,,,,,,,,,,,,,,,,,,,,,,,,65,001,2023_Apr_10_1200,SpeechDraft1Carolyn_lessNoise_PlusLocalization,2021.2.3,59.88602477483771,
crude.wav,crude.mpg,crude,6,AV,Pink_Noise_6_1.wav,Pink_Noise_6_2.wav,,,,,,,,,,,,,,,0,77,77,114,,,,,,,,,,,,,,,,,,,,,,,496.2070270041004,None,497.74011461576447,None,499.1237174179405,None,gooey,499.1237174179405,None,return,3.315000044181943,499.207360023167,None,,,,,,,,,,,,,,,,,,,,,,,,,,,,,,,,,65,001,2023_Apr_10_1200,SpeechDraft1Carolyn_lessNoise_PlusLocalization,2021.2.3,59.88602477483771,
swan.wav,swan.mpg,swan,1,A,Pink_Noise_1_1.wav,Pink_Noise_1_2.wav,,,,,,,,,,,,,,,0,78,78,24,,,,,,,,,,,,,,,,,,,,,,,502.5403597471304,None,504.05684883799404,None,505.4405094818212,None,swallow,505.4405094818212,None,return,1.8387650712393224,505.52353632776067,None,,,,,,,,,,,,,,,,,,,,,,,,,,,,,,,,,65,001,2023_Apr_10_1200,SpeechDraft1Carolyn_lessNoise_PlusLocalization,2021.2.3,59.88602477483771,
bass.wav,bass.mpg,bass,2,A,Pink_Noise_2_1.wav,Pink_Noise_2_2.wav,,,,,,,,,,,,,,,0,79,79,17,,,,,,,,,,,,,,,,,,,,,,,507.3901820881292,None,508.9232465531677,None,510.3068122859113,None,base,510.3068122859113,None,return,2.5559270516969264,510.3904515709728,None,,,,,,,,,,,,,,,,,,,,,,,,,,,,,,,,,65,001,2023_Apr_10_1200,SpeechDraft1Carolyn_lessNoise_PlusLocalization,2021.2.3,59.88602477483771,
clash.wav,clash.mpg,clash,1,AV,Pink_Noise_1_1.wav,Pink_Noise_1_2.wav,,,,,,,,,,,,,,,0,80,80,98,,,,,,,,,,,,,,,,,,,,,,,512.9738877248019,None,514.490006445907,None,515.873716076836,None,clash,515.873716076836,None,return,0.9811223959550261,515.957134862896,None,,,,,,,,,,,,,,,,,,,,,,,,,,,,,,,,,65,001,2023_Apr_10_1200,SpeechDraft1Carolyn_lessNoise_PlusLocalization,2021.2.3,59.88602477483771,
fun.wav,fun.mpg,fun,4,AV,Pink_Noise_4_1.wav,Pink_Noise_4_2.wav,,,,,,,,,,,,,,,0,81,81,83,,,,,,,,,,,,,,,,,,,,,,,516.9570872830227,None,518.4901886270382,None,519.8740515429527,None,far,519.8740515429527,None,return,1.1251167519949377,519.9571785680018,None,,,,,,,,,,,,,,,,,,,,,,,,,,,,,,,,,65,001,2023_Apr_10_1200,SpeechDraft1Carolyn_lessNoise_PlusLocalization,2021.2.3,59.88602477483771,
bound.wav,bound.mpg,bound,2,AV,Pink_Noise_2_1.wav,Pink_Noise_2_2.wav,,,,,,,,,,,,,,,0,82,82,60,,,,,,,,,,,,,,,,,,,,,,,521.1070078429766,None,522.6233245609328,None,524.006799152121,None,"browned
",524.006799152121,None,return,1.5678943498060107,524.0903680771589,None,,,,,,,,,,,,,,,,,,,,,,,,,,,,,,,,,65,001,2023_Apr_10_1200,SpeechDraft1Carolyn_lessNoise_PlusLocalization,2021.2.3,59.88602477483771,
green.wav,green.mpg,green,5,A,Pink_Noise_5_1.wav,Pink_Noise_5_2.wav,,,,,,,,,,,,,,,0,83,83,6,,,,,,,,,,,,,,,,,,,,,,,525.6903686719015,None,527.2068048589863,None,528.5904484959319,None,"
",528.5904484959319,None,return,8.800453139934689,528.67378882505,None,,,,,,,,,,,,,,,,,,,,,,,,,,,,,,,,,65,001,2023_Apr_10_1200,SpeechDraft1Carolyn_lessNoise_PlusLocalization,2021.2.3,59.88602477483771,
fraud.wav,fraud.mpg,fraud,4,AV,Pink_Noise_4_1.wav,Pink_Noise_4_2.wav,,,,,,,,,,,,,,,0,84,84,67,,,,,,,,,,,,,,,,,,,,,,,537.523861721158,None,539.1066145817749,None,540.4903782228939,None,"far
",540.4903782228939,None,return,6.500458776019514,540.5737696508877,None,,,,,,,,,,,,,,,,,,,,,,,,,,,,,,,,,65,001,2023_Apr_10_1200,SpeechDraft1Carolyn_lessNoise_PlusLocalization,2021.2.3,59.88602477483771,
skull.wav,skull.mpg,skull,2,A,Pink_Noise_2_1.wav,Pink_Noise_2_2.wav,,,,,,,,,,,,,,,0,85,85,56,,,,,,,,,,,,,,,,,,,,,,,547.1072771148756,None,548.623340788763,None,550.0072608957998,None,skull,550.0072608957998,None,return,3.431929374113679,550.0904723000713,None,,,,,,,,,,,,,,,,,,,,,,,,,,,,,,,,,65,001,2023_Apr_10_1200,SpeechDraft1Carolyn_lessNoise_PlusLocalization,2021.2.3,59.88602477483771,
gab.wav,gab.mpg,gab,2,A,Pink_Noise_2_1.wav,Pink_Noise_2_2.wav,,,,,,,,,,,,,,,0,86,86,31,,,,,,,,,,,,,,,,,,,,,,,553.54047935782,None,555.0565942069516,None,556.4406140469946,None,"gamb
",556.4406140469946,None,return,7.750514755025506,556.523731732741,None,,,,,,,,,,,,,,,,,,,,,,,,,,,,,,,,,65,001,2023_Apr_10_1200,SpeechDraft1Carolyn_lessNoise_PlusLocalization,2021.2.3,59.88602477483771,
bridge.wav,bridge.mpg,bridge,1,A,Pink_Noise_1_1.wav,Pink_Noise_1_2.wav,,,,,,,,,,,,,,,0,87,87,25,,,,,,,,,,,,,,,,,,,,,,,564.3071630550548,None,565.8235828299075,None,567.207253952045,None,bridge,567.207253952045,None,return,1.3037429228425026,567.2904833988287,None,,,,,,,,,,,,,,,,,,,,,,,,,,,,,,,,,65,001,2023_Apr_10_1200,SpeechDraft1Carolyn_lessNoise_PlusLocalization,2021.2.3,59.88602477483771,
dive.wav,dive.mpg,dive,2,A,Pink_Noise_2_1.wav,Pink_Noise_2_2.wav,,,,,,,,,,,,,,,0,88,88,8,,,,,,,,,,,,,,,,,,,,,,,568.6237876219675,None,570.1250412859954,None,571.5071385507472,None,"dive
",571.5071385507472,None,return,1.2197699220851064,571.5904751219787,None,,,,,,,,,,,,,,,,,,,,,,,,,,,,,,,,,65,001,2023_Apr_10_1200,SpeechDraft1Carolyn_lessNoise_PlusLocalization,2021.2.3,59.88602477483771,
gas.wav,gas.mpg,gas,1,A,Pink_Noise_1_1.wav,Pink_Noise_1_2.wav,,,,,,,,,,,,,,,0,89,89,54,,,,,,,,,,,,,,,,,,,,,,,572.8406088859774,None,574.3738174247555,None,575.7571313111112,None,gas,575.7571313111112,None,return,0.8257002159953117,575.8405238948762,None,,,,,,,,,,,,,,,,,,,,,,,,,,,,,,,,,65,001,2023_Apr_10_1200,SpeechDraft1Carolyn_lessNoise_PlusLocalization,2021.2.3,59.88602477483771,
fog.wav,fog.mpg,fog,6,AV,Pink_Noise_6_1.wav,Pink_Noise_6_2.wav,,,,,,,,,,,,,,,0,90,90,97,,,,,,,,,,,,,,,,,,,,,,,576.6902792868204,None,578.2070226711221,None,579.5905949701555,None,"far
",579.5905949701555,None,return,3.1363090611994267,579.6739145768806,None,,,,,,,,,,,,,,,,,,,,,,,,,,,,,,,,,65,001,2023_Apr_10_1200,SpeechDraft1Carolyn_lessNoise_PlusLocalization,2021.2.3,59.88602477483771,
beige.wav,beige.mpg,beige,5,A,Pink_Noise_5_1.wav,Pink_Noise_5_2.wav,,,,,,,,,,,,,,,0,91,91,40,,,,,,,,,,,,,,,,,,,,,,,582.8403026899323,None,584.3568223821931,None,585.740604462102,None,beige,585.740604462102,None,return,0.9702897202223539,585.8239526781254,None,,,,,,,,,,,,,,,,,,,,,,,,,,,,,,,,,65,001,2023_Apr_10_1200,SpeechDraft1Carolyn_lessNoise_PlusLocalization,2021.2.3,59.88602477483771,
wine.wav,wine.mpg,wine,4,A,Pink_Noise_4_1.wav,Pink_Noise_4_2.wav,,,,,,,,,,,,,,,0,92,92,39,,,,,,,,,,,,,,,,,,,,,,,586.8239102959633,None,588.340045414865,None,589.7238222090527,None,wide,589.7238222090527,None,return,0.8590584518387914,589.8071738900617,None,,,,,,,,,,,,,,,,,,,,,,,,,,,,,,,,,65,001,2023_Apr_10_1200,SpeechDraft1Carolyn_lessNoise_PlusLocalization,2021.2.3,59.88602477483771,
clog.wav,clog.mpg,clog,5,AV,Pink_Noise_5_1.wav,Pink_Noise_5_2.wav,,,,,,,,,,,,,,,0,93,93,91,,,,,,,,,,,,,,,,,,,,,,,590.6904998188838,None,592.2070010518655,None,593.5904476307333,None,"line
",593.5904476307333,None,return,15.752475483343005,593.6737696318887,None,,,,,,,,,,,,,,,,,,,,,,,,,,,,,,,,,65,001,2023_Apr_10_1200,SpeechDraft1Carolyn_lessNoise_PlusLocalization,2021.2.3,59.88602477483771,
badge.wav,badge.mpg,badge,5,AV,Pink_Noise_5_1.wav,Pink_Noise_5_2.wav,,,,,,,,,,,,,,,0,94,94,116,,,,,,,,,,,,,,,,,,,,,,,609.4573640068993,None,610.9734337381087,None,612.3570252461359,None,bash,612.3570252461359,None,return,0.8897426780313253,612.4405845771544,None,,,,,,,,,,,,,,,,,,,,,,,,,,,,,,,,,65,001,2023_Apr_10_1200,SpeechDraft1Carolyn_lessNoise_PlusLocalization,2021.2.3,59.88602477483771,
grow.wav,grow.mpg,grow,5,AV,Pink_Noise_5_1.wav,Pink_Noise_5_2.wav,,,,,,,,,,,,,,,0,95,95,101,,,,,,,,,,,,,,,,,,,,,,,613.3573985290714,None,614.8903589611873,None,616.2738188398071,None,throw,616.2738188398071,None,return,0.93312664097175,616.3572398908436,None,,,,,,,,,,,,,,,,,,,,,,,,,,,,,,,,,65,001,2023_Apr_10_1200,SpeechDraft1Carolyn_lessNoise_PlusLocalization,2021.2.3,59.88602477483771,
boat.wav,boat.mpg,boat,2,AV,Pink_Noise_2_1.wav,Pink_Noise_2_2.wav,,,,,,,,,,,,,,,0,96,96,108,,,,,,,,,,,,,,,,,,,,,,,617.3073305091821,None,618.8401359389536,None,620.2237089448608,None,boat,620.2237089448608,None,return,0.9751306641846895,620.3071386190131,None,,,,,,,,,,,,,,,,,,,,,,,,,,,,,,,,,65,001,2023_Apr_10_1200,SpeechDraft1Carolyn_lessNoise_PlusLocalization,2021.2.3,59.88602477483771,
duck.wav,duck.mpg,duck,1,A,Pink_Noise_1_1.wav,Pink_Noise_1_2.wav,,,,,,,,,,,,,,,0,97,97,23,,,,,,,,,,,,,,,,,,,,,,,621.3072783187963,None,622.8404309139587,None,624.2241890989244,None,duck,624.2241890989244,None,return,1.383325268048793,624.3070313818753,None,,,,,,,,,,,,,,,,,,,,,,,,,,,,,,,,,65,001,2023_Apr_10_1200,SpeechDraft1Carolyn_lessNoise_PlusLocalization,2021.2.3,59.88602477483771,
faint.wav,faint.mpg,faint,6,AV,Pink_Noise_6_1.wav,Pink_Noise_6_2.wav,,,,,,,,,,,,,,,0,98,98,65,,,,,,,,,,,,,,,,,,,,,,,625.7072872440331,None,627.2403367431834,None,628.6239068517461,None,fix,628.6239068517461,None,return,0.9828843139111996,628.7074307678267,None,,,,,,,,,,,,,,,,,,,,,,,,,,,,,,,,,65,001,2023_Apr_10_1200,SpeechDraft1Carolyn_lessNoise_PlusLocalization,2021.2.3,59.88602477483771,
fetch.wav,fetch.mpg,fetch,6,A,Pink_Noise_6_1.wav,Pink_Noise_6_2.wav,,,,,,,,,,,,,,,0,99,99,27,,,,,,,,,,,,,,,,,,,,,,,629.7072735070251,None,631.2234381278977,None,632.6072483407333,None,"bash
",632.6072483407333,None,return,4.751704889815301,632.6905541028827,None,,,,,,,,,,,,,,,,,,,,,,,,,,,,,,,,,65,001,2023_Apr_10_1200,SpeechDraft1Carolyn_lessNoise_PlusLocalization,2021.2.3,59.88602477483771,
build.wav,build.mpg,build,6,A,Pink_Noise_6_1.wav,Pink_Noise_6_2.wav,,,,,,,,,,,,,,,0,100,100,2,,,,,,,,,,,,,,,,,,,,,,,637.473820343148,None,638.9902378320694,None,640.3740246267989,None,builf,640.3740246267989,None,return,1.2250492069870234,640.45719913207,None,,,,,,,,,,,,,,,,,,,,,,,,,,,,,,,,,65,001,2023_Apr_10_1200,SpeechDraft1Carolyn_lessNoise_PlusLocalization,2021.2.3,59.88602477483771,
gown.wav,gown.mpg,gown,4,AV,Pink_Noise_4_1.wav,Pink_Noise_4_2.wav,,,,,,,,,,,,,,,0,101,101,115,,,,,,,,,,,,,,,,,,,,,,,641.7071061511524,None,643.2400820800103,None,644.6237644357607,None,"now
",644.6237644357607,None,return,1.1031448519788682,644.7071013641544,None,,,,,,,,,,,,,,,,,,,,,,,,,,,,,,,,,65,001,2023_Apr_10_1200,SpeechDraft1Carolyn_lessNoise_PlusLocalization,2021.2.3,59.88602477483771,
doll.wav,doll.mpg,doll,2,A,Pink_Noise_2_1.wav,Pink_Noise_2_2.wav,,,,,,,,,,,,,,,0,102,102,38,,,,,,,,,,,,,,,,,,,,,,,645.8406236469746,None,647.356782861054,None,648.7405595821328,None,"dog
",648.7405595821328,None,return,5.250435964670032,648.8238098197617,None,,,,,,,,,,,,,,,,,,,,,,,,,,,,,,,,,65,001,2023_Apr_10_1200,SpeechDraft1Carolyn_lessNoise_PlusLocalization,2021.2.3,59.88602477483771,
paid.wav,paid.mpg,paid,1,A,Pink_Noise_1_1.wav,Pink_Noise_1_2.wav,,,,,,,,,,,,,,,0,103,103,57,,,,,,,,,,,,,,,,,,,,,,,654.1072454690002,None,655.6233773180284,None,657.0072900410742,None,"paid
",657.0072900410742,None,return,1.3356365929357708,657.0906095490791,None,,,,,,,,,,,,,,,,,,,,,,,,,,,,,,,,,65,001,2023_Apr_10_1200,SpeechDraft1Carolyn_lessNoise_PlusLocalization,2021.2.3,59.88602477483771,
golf.wav,golf.mpg,golf,3,AV,Pink_Noise_3_1.wav,Pink_Noise_3_2.wav,,,,,,,,,,,,,,,0,104,104,79,,,,,,,,,,,,,,,,,,,,,,,658.4572862950154,None,659.9904815549962,None,661.3740123887546,None,golf,661.3740123887546,None,return,3.889054180122912,661.4572971160524,None,,,,,,,,,,,,,,,,,,,,,,,,,,,,,,,,,65,001,2023_Apr_10_1200,SpeechDraft1Carolyn_lessNoise_PlusLocalization,2021.2.3,59.88602477483771,
ease.wav,ease.mpg,ease,4,AV,Pink_Noise_4_1.wav,Pink_Noise_4_2.wav,,,,,,,,,,,,,,,0,105,105,88,,,,,,,,,,,,,,,,,,,,,,,665.3741157921031,None,666.8902171170339,None,668.2739066998474,None,eat,668.2739066998474,None,return,1.005049749277532,668.3572561540641,None,,,,,,,,,,,,,,,,,,,,,,,,,,,,,,,,,65,001,2023_Apr_10_1200,SpeechDraft1Carolyn_lessNoise_PlusLocalization,2021.2.3,59.88602477483771,
cake.wav,cake.mpg,cake,6,A,Pink_Noise_6_1.wav,Pink_Noise_6_2.wav,,,,,,,,,,,,,,,0,106,106,43,,,,,,,,,,,,,,,,,,,,,,,669.3905788538978,None,670.9069127049297,None,672.2907918770798,None,pick,672.2907918770798,None,return,1.3726393259130418,672.373730360996,None,,,,,,,,,,,,,,,,,,,,,,,,,,,,,,,,,65,001,2023_Apr_10_1200,SpeechDraft1Carolyn_lessNoise_PlusLocalization,2021.2.3,59.88602477483771,
flirt.wav,flirt.mpg,flirt,3,AV,Pink_Noise_3_1.wav,Pink_Noise_3_2.wav,,,,,,,,,,,,,,,0,107,107,86,,,,,,,,,,,,,,,,,,,,,,,673.7742456928827,None,675.3068049447611,None,676.6905449121259,None,"flirt
",676.6905449121259,None,return,2.4363929089158773,676.773853671737,None,,,,,,,,,,,,,,,,,,,,,,,,,,,,,,,,,65,001,2023_Apr_10_1200,SpeechDraft1Carolyn_lessNoise_PlusLocalization,2021.2.3,59.88602477483771,
coat.wav,coat.mpg,coat,3,AV,Pink_Noise_3_1.wav,Pink_Noise_3_2.wav,,,,,,,,,,,,,,,0,108,108,82,,,,,,,,,,,,,,,,,,,,,,,679.2405482470058,None,680.7568611078896,None,682.1407651351765,None,coat,682.1407651351765,None,return,2.2263171738013625,682.2239169450477,None,,,,,,,,,,,,,,,,,,,,,,,,,,,,,,,,,65,001,2023_Apr_10_1200,SpeechDraft1Carolyn_lessNoise_PlusLocalization,2021.2.3,59.88602477483771,
beef.wav,beef.mpg,beef,2,A,Pink_Noise_2_1.wav,Pink_Noise_2_2.wav,,,,,,,,,,,,,,,0,109,109,48,,,,,,,,,,,,,,,,,,,,,,,684.4739550887607,None,685.9904878190719,None,687.3740051351488,None,"beef
",687.3740051351488,None,return,3.2010247530415654,687.457241136115,None,,,,,,,,,,,,,,,,,,,,,,,,,,,,,,,,,65,001,2023_Apr_10_1200,SpeechDraft1Carolyn_lessNoise_PlusLocalization,2021.2.3,59.88602477483771,
cop.wav,cop.mpg,cop,3,A,Pink_Noise_3_1.wav,Pink_Noise_3_2.wav,,,,,,,,,,,,,,,0,110,110,34,,,,,,,,,,,,,,,,,,,,,,,690.6905324198306,None,692.2070464310236,None,693.5907185650431,None,cot,693.5907185650431,None,return,3.0323601299896836,693.6739386529662,None,,,,,,,,,,,,,,,,,,,,,,,,,,,,,,,,,65,001,2023_Apr_10_1200,SpeechDraft1Carolyn_lessNoise_PlusLocalization,2021.2.3,59.88602477483771,
chant.wav,chant.mpg,chant,6,A,Pink_Noise_6_1.wav,Pink_Noise_6_2.wav,,,,,,,,,,,,,,,0,111,111,58,,,,,,,,,,,,,,,,,,,,,,,696.7239324967377,None,698.2569189309143,None,699.6407870640978,None,trash,699.6407870640978,None,return,2.7263396508060396,699.723891985137,None,,,,,,,,,,,,,,,,,,,,,,,,,,,,,,,,,65,001,2023_Apr_10_1200,SpeechDraft1Carolyn_lessNoise_PlusLocalization,2021.2.3,59.88602477483771,
fifth.wav,fifth.mpg,fifth,3,A,Pink_Noise_3_1.wav,Pink_Noise_3_2.wav,,,,,,,,,,,,,,,0,112,112,22,,,,,,,,,,,,,,,,,,,,,,,702.4739273157902,None,703.9907518848777,None,705.3740155058913,None,filth,705.3740155058913,None,return,2.328796594403684,705.4574396680109,None,,,,,,,,,,,,,,,,,,,,,,,,,,,,,,,,,65,001,2023_Apr_10_1200,SpeechDraft1Carolyn_lessNoise_PlusLocalization,2021.2.3,59.88602477483771,
strike.wav,strike.mpg,strike,6,A,Pink_Noise_6_1.wav,Pink_Noise_6_2.wav,,,,,,,,,,,,,,,0,113,113,46,,,,,,,,,,,,,,,,,,,,,,,707.8072670591064,None,709.3567736227997,None,710.7407543729059,None,"trash
",710.7407543729059,None,return,4.818256751168519,710.8239820320159,None,,,,,,,,,,,,,,,,,,,,,,,,,,,,,,,,,65,001,2023_Apr_10_1200,SpeechDraft1Carolyn_lessNoise_PlusLocalization,2021.2.3,59.88602477483771,
blush.wav,blush.mpg,blush,5,AV,Pink_Noise_5_1.wav,Pink_Noise_5_2.wav,,,,,,,,,,,,,,,0,114,114,118,,,,,,,,,,,,,,,,,,,,,,,715.6740275081247,None,717.1908180969767,None,718.5739807677455,None,blush,718.5739807677455,None,return,1.4409751249477267,718.6574104689062,None,,,,,,,,,,,,,,,,,,,,,,,,,,,,,,,,,65,001,2023_Apr_10_1200,SpeechDraft1Carolyn_lessNoise_PlusLocalization,2021.2.3,59.88602477483771,
lie.wav,lie.mpg,lie,1,AV,Pink_Noise_1_1.wav,Pink_Noise_1_2.wav,,,,,,,,,,,,,,,0,115,115,78,,,,,,,,,,,,,,,,,,,,,,,720.1240780227818,None,721.6402851641178,None,723.024112269748,None,lie,723.024112269748,None,return,0.8231668979860842,723.1071879588999,None,,,,,,,,,,,,,,,,,,,,,,,,,,,,,,,,,65,001,2023_Apr_10_1200,SpeechDraft1Carolyn_lessNoise_PlusLocalization,2021.2.3,59.88602477483771,
ball.wav,ball.mpg,ball,4,A,Pink_Noise_4_1.wav,Pink_Noise_4_2.wav,,,,,,,,,,,,,,,0,116,116,18,,,,,,,,,,,,,,,,,,,,,,,723.9572530789301,None,725.4737305329181,None,726.8573219850659,None,bow,726.8573219850659,None,return,1.6775844967924058,726.9406508901156,None,,,,,,,,,,,,,,,,,,,,,,,,,,,,,,,,,65,001,2023_Apr_10_1200,SpeechDraft1Carolyn_lessNoise_PlusLocalization,2021.2.3,59.88602477483771,
weep.wav,weep.mpg,weep,5,AV,Pink_Noise_5_1.wav,Pink_Noise_5_2.wav,,,,,,,,,,,,,,,0,117,117,71,,,,,,,,,,,,,,,,,,,,,,,728.6406844300218,None,730.156956223771,None,731.540688441135,None,weep,731.540688441135,None,return,0.906219454947859,731.6241308110766,None,,,,,,,,,,,,,,,,,,,,,,,,,,,,,,,,,65,001,2023_Apr_10_1200,SpeechDraft1Carolyn_lessNoise_PlusLocalization,2021.2.3,59.88602477483771,
gate.wav,gate.mpg,gate,1,AV,Pink_Noise_1_1.wav,Pink_Noise_1_2.wav,,,,,,,,,,,,,,,0,118,118,81,,,,,,,,,,,,,,,,,,,,,,,732.5576350861229,None,734.0902413879521,None,735.4737931219861,None,gate,735.4737931219861,None,return,0.8769902177155018,735.5572431338951,None,,,,,,,,,,,,,,,,,,,,,,,,,,,,,,,,,65,001,2023_Apr_10_1200,SpeechDraft1Carolyn_lessNoise_PlusLocalization,2021.2.3,59.88602477483771,
bird.wav,bird.mpg,bird,2,AV,Pink_Noise_2_1.wav,Pink_Noise_2_2.wav,,,,,,,,,,,,,,,0,119,119,102,,,,,,,,,,,,,,,,,,,,,,,736.4573846631683,None,737.9735393421724,None,739.3571474468336,None,"bird
",739.3571474468336,None,return,1.0015658298507333,739.4406765387394,None,,,,,,,,,,,,,,,,,,,,,,,,,,,,,,,,,65,001,2023_Apr_10_1200,SpeechDraft1Carolyn_lessNoise_PlusLocalization,2021.2.3,59.88602477483771,
,,,,,,,,,,,,,,,,,,,,,,,,,,,,,,,,,,,,,,,,,,,,,,,,,,,,,,,,,,,,,,,,,,space,16.692117266822606,740.5741174649447,None,,,,,,,,,,,,,,,,,,,,,,,65,001,2023_Apr_10_1200,SpeechDraft1Carolyn_lessNoise_PlusLocalization,2021.2.3,59.88602477483771,
,,,,,,,,nearRight,6.5,0,ch1Sound_localizationTask.wav,6.5,"(1047, 878)","(87, -202)",95,-338,,,,,,,,,0,0,0,4,,,,,,,,,,,,,,,,,,,,,,,,,,,,,,,,,,,,,,,,,,740.5741174649447,None,757.3070260360837,None,758.4249265599065,None,759.3404337940738,None,1.3968253968253967,1.8039835561066866,759.3404337940738,None,,,,,,,,,,,65,001,2023_Apr_10_1200,SpeechDraft1Carolyn_lessNoise_PlusLocalization,2021.2.3,59.88602477483771,
,,,,,,,,center,0.0,6,ch1Sound_localizationTask.wav,0.0,"(952, 878)","(-8,-202)",0,-338,,,,,,,,,0,1,1,3,,,,,,,,,,,,,,,,,,,,,,,,,,,,,,,,,,,,,,,,,,,,761.1575683648698,None,762.2569633368403,None,763.1905035171658,None,1.4936507936507937,1.516945093870163,763.1905035171658,None,,,,,,,,,,,65,001,2023_Apr_10_1200,SpeechDraft1Carolyn_lessNoise_PlusLocalization,2021.2.3,59.88602477483771,
,,,,,,,,midLeft,-13.0,2,ch1Sound_localizationTask.wav,-13.0,"(762, 878)","(-198,-202)",-190,-338,,,,,,,,,0,2,2,1,,,,,,,,,,,,,,,,,,,,,,,,,,,,,,,,,,,,,,,,,,,,764.7090915879235,None,765.8238532408141,None,766.7404238139279,None,1.2619047619047619,1.3676536390557885,766.7404238139279,None,,,,,,,,,,,65,001,2023_Apr_10_1200,SpeechDraft1Carolyn_lessNoise_PlusLocalization,2021.2.3,59.88602477483771,
,,,,,,,,farRight,19.1,4,ch1Sound_localizationTask.wav,19.1,"(1237, 878)","(277,-202)",285,-338,,,,,,,,,0,3,3,6,,,,,,,,,,,,,,,,,,,,,,,,,,,,,,,,,,,,,,,,,,,,768.1240898100659,None,769.2237241719849,None,770.1570770759135,None,1.8211640211640212,1.519491737242788,770.1570770759135,None,,,,,,,,,,,65,001,2023_Apr_10_1200,SpeechDraft1Carolyn_lessNoise_PlusLocalization,2021.2.3,59.88602477483771,
,,,,,,,,farRight,19.1,4,ch1Sound_localizationTask.wav,19.1,"(1237, 878)","(277,-202)",285,-338,,,,,,,,,0,4,4,6,,,,,,,,,,,,,,,,,,,,,,,,,,,,,,,,,,,,,,,,,,,,771.6906916270964,None,772.7902935710736,None,773.7237384859473,None,1.8402116402116402,0.6506361979991198,773.7237384859473,None,,,,,,,,,,,65,001,2023_Apr_10_1200,SpeechDraft1Carolyn_lessNoise_PlusLocalization,2021.2.3,59.88602477483771,
,,,,,,,,center,0.0,6,ch1Sound_localizationTask.wav,0.0,"(952, 878)","(-8,-202)",0,-338,,,,,,,,,0,5,5,3,,,,,,,,,,,,,,,,,,,,,,,,,,,,,,,,,,,,,,,,,,,,774.3905701618642,None,775.4903539400548,None,776.4236334417947,None,1.438095238095238,0.9838544139638543,776.4236334417947,None,,,,,,,,,,,65,001,2023_Apr_10_1200,SpeechDraft1Carolyn_lessNoise_PlusLocalization,2021.2.3,59.88602477483771,
,,,,,,,,farLeft,-19.1,5,ch1Sound_localizationTask.wav,-19.1,"(667, 878)","(-293,-202)",-285,-338,,,,,,,,,0,6,6,0,,,,,,,,,,,,,,,,,,,,,,,,,,,,,,,,,,,,,,,,,,,,777.4242096329108,None,778.5239269589074,None,779.4570412188768,None,1.2068783068783069,0.8834800119511783,779.4570412188768,None,,,,,,,,,,,65,001,2023_Apr_10_1200,SpeechDraft1Carolyn_lessNoise_PlusLocalization,2021.2.3,59.88602477483771,
,,,,,,,,midRight,13.0,3,ch1Sound_localizationTask.wav,13.0,"(1142, 878)","(182, -202)",190,-338,,,,,,,,,1,0,7,5,,,,,,,,,,,,,,,,,,,,,,,,,,,,,,,,,,,,,,,,,,,,780.357573301997,None,781.4573300038464,None,782.3903592741117,None,1.6116402116402115,1.2181931911036372,782.3903592741117,None,,,,,,,,,,,65,001,2023_Apr_10_1200,SpeechDraft1Carolyn_lessNoise_PlusLocalization,2021.2.3,59.88602477483771,
,,,,,,,,center,0.0,6,ch1Sound_localizationTask.wav,0.0,"(952, 878)","(-8,-202)",0,-338,,,,,,,,,1,1,8,3,,,,,,,,,,,,,,,,,,,,,,,,,,,,,,,,,,,,,,,,,,,,783.624124980066,None,784.7239587041549,None,785.6570006608963,None,1.4222222222222223,0.7836969918571413,785.6570006608963,None,,,,,,,,,,,65,001,2023_Apr_10_1200,SpeechDraft1Carolyn_lessNoise_PlusLocalization,2021.2.3,59.88602477483771,
,,,,,,,,farRight,19.1,4,ch1Sound_localizationTask.wav,19.1,"(1237, 878)","(277,-202)",285,-338,,,,,,,,,1,2,9,6,,,,,,,,,,,,,,,,,,,,,,,,,,,,,,,,,,,,,,,,,,,,786.4421898177825,None,787.5569420019165,None,788.4737007450312,None,1.693121693121693,0.7327255639247596,788.4737007450312,None,,,,,,,,,,,65,001,2023_Apr_10_1200,SpeechDraft1Carolyn_lessNoise_PlusLocalization,2021.2.3,59.88602477483771,
,,,,,,,,midLeft,-13.0,2,ch1Sound_localizationTask.wav,-13.0,"(762, 878)","(-198,-202)",-190,-338,,,,,,,,,1,3,10,1,,,,,,,,,,,,,,,,,,,,,,,,,,,,,,,,,,,,,,,,,,,,789.208355863113,None,790.3236078731716,None,791.2404089397751,None,1.273015873015873,0.7834077747538686,791.2404089397751,None,,,,,,,,,,,65,001,2023_Apr_10_1200,SpeechDraft1Carolyn_lessNoise_PlusLocalization,2021.2.3,59.88602477483771,
,,,,,,,,nearRight,6.5,0,ch1Sound_localizationTask.wav,6.5,"(1047, 878)","(87, -202)",95,-338,,,,,,,,,1,4,11,4,,,,,,,,,,,,,,,,,,,,,,,,,,,,,,,,,,,,,,,,,,,,792.0407576449215,None,793.1403787899762,None,794.0737025667913,None,1.4973544973544972,0.849535146728158,794.0737025667913,None,,,,,,,,,,,65,001,2023_Apr_10_1200,SpeechDraft1Carolyn_lessNoise_PlusLocalization,2021.2.3,59.88602477483771,
,,,,,,,,midRight,13.0,3,ch1Sound_localizationTask.wav,13.0,"(1142, 878)","(182, -202)",190,-338,,,,,,,,,1,5,12,5,,,,,,,,,,,,,,,,,,,,,,,,,,,,,,,,,,,,,,,,,,,,794.9250616449863,None,796.0239395159297,None,796.9571246239357,None,1.5693121693121692,0.550122831016779,796.9571246239357,None,,,,,,,,,,,65,001,2023_Apr_10_1200,SpeechDraft1Carolyn_lessNoise_PlusLocalization,2021.2.3,59.88602477483771,
,,,,,,,,nearRight,6.5,0,ch1Sound_localizationTask.wav,6.5,"(1047, 878)","(87, -202)",95,-338,,,,,,,,,1,6,13,4,,,,,,,,,,,,,,,,,,,,,,,,,,,,,,,,,,,,,,,,,,,,797.5090914759785,None,798.623833107762,None,799.5405570399016,None,1.4714285714285715,0.6167356632649899,799.5405570399016,None,,,,,,,,,,,65,001,2023_Apr_10_1200,SpeechDraft1Carolyn_lessNoise_PlusLocalization,2021.2.3,59.88602477483771,
,,,,,,,,farLeft,-19.1,5,ch1Sound_localizationTask.wav,-19.1,"(667, 878)","(-293,-202)",-285,-338,,,,,,,,,2,0,14,0,,,,,,,,,,,,,,,,,,,,,,,,,,,,,,,,,,,,,,,,,,,,800.1585585209541,None,801.2571769570932,None,802.1904548867606,None,1.319047619047619,1.0016217613592744,802.1904548867606,None,,,,,,,,,,,65,001,2023_Apr_10_1200,SpeechDraft1Carolyn_lessNoise_PlusLocalization,2021.2.3,59.88602477483771,
,,,,,,,,farLeft,-19.1,5,ch1Sound_localizationTask.wav,-19.1,"(667, 878)","(-293,-202)",-285,-338,,,,,,,,,2,1,15,0,,,,,,,,,,,,,,,,,,,,,,,,,,,,,,,,,,,,,,,,,,,,803.207534537185,None,804.3071980141103,None,805.2403226811439,None,1.1888888888888889,0.6493410519324243,805.2403226811439,None,,,,,,,,,,,65,001,2023_Apr_10_1200,SpeechDraft1Carolyn_lessNoise_PlusLocalization,2021.2.3,59.88602477483771,
,,,,,,,,midLeft,-13.0,2,ch1Sound_localizationTask.wav,-13.0,"(762, 878)","(-198,-202)",-190,-338,,,,,,,,,2,2,16,1,,,,,,,,,,,,,,,,,,,,,,,,,,,,,,,,,,,,,,,,,,,,805.8920498709194,None,807.0072833499871,None,807.9242095919326,None,1.1851851851851851,0.4828380411490798,807.9242095919326,None,,,,,,,,,,,65,001,2023_Apr_10_1200,SpeechDraft1Carolyn_lessNoise_PlusLocalization,2021.2.3,59.88602477483771,
,,,,,,,,center,0.0,6,ch1Sound_localizationTask.wav,0.0,"(952, 878)","(-8,-202)",0,-338,,,,,,,,,2,3,17,3,,,,,,,,,,,,,,,,,,,,,,,,,,,,,,,,,,,,,,,,,,,,808.4079104019329,None,809.5071304640733,None,810.440229064785,None,1.2920634920634921,0.7158276457339525,810.440229064785,None,,,,,,,,,,,65,001,2023_Apr_10_1200,SpeechDraft1Carolyn_lessNoise_PlusLocalization,2021.2.3,59.88602477483771,
,,,,,,,,center,0.0,6,ch1Sound_localizationTask.wav,0.0,"(952, 878)","(-8,-202)",0,-338,,,,,,,,,2,4,18,3,,,,,,,,,,,,,,,,,,,,,,,,,,,,,,,,,,,,,,,,,,,,811.1582392980345,None,812.2571563008241,None,813.1904998738319,None,1.367195767195767,0.5170391676947474,813.1904998738319,None,,,,,,,,,,,65,001,2023_Apr_10_1200,SpeechDraft1Carolyn_lessNoise_PlusLocalization,2021.2.3,59.88602477483771,
,,,,,,,,nearLeft,-6.5,1,ch1Sound_localizationTask.wav,-6.5,"(857, 878)","(-103,-202)",-95,-338,,,,,,,,,2,5,19,2,,,,,,,,,,,,,,,,,,,,,,,,,,,,,,,,,,,,,,,,,,,,813.7241839980707,None,814.8237995831296,None,815.7569716619328,None,1.367195767195767,0.5334244738332927,815.7569716619328,None,,,,,,,,,,,65,001,2023_Apr_10_1200,SpeechDraft1Carolyn_lessNoise_PlusLocalization,2021.2.3,59.88602477483771,
,,,,,,,,midLeft,-13.0,2,ch1Sound_localizationTask.wav,-13.0,"(762, 878)","(-198,-202)",-190,-338,,,,,,,,,2,6,20,1,,,,,,,,,,,,,,,,,,,,,,,,,,,,,,,,,,,,,,,,,,,,816.292596582789,None,817.4069206821732,None,818.3236467749812,None,1.33015873015873,0.4823699579574168,818.3236467749812,None,,,,,,,,,,,65,001,2023_Apr_10_1200,SpeechDraft1Carolyn_lessNoise_PlusLocalization,2021.2.3,59.88602477483771,
,,,,,,,,midLeft,-13.0,2,ch1Sound_localizationTask.wav,-13.0,"(762, 878)","(-198,-202)",-190,-338,,,,,,,,,3,0,21,1,,,,,,,,,,,,,,,,,,,,,,,,,,,,,,,,,,,,,,,,,,,,818.8082418427803,None,819.9071517880075,None,820.8406459069811,None,1.3058201058201058,0.7496804753318429,820.8406459069811,None,,,,,,,,,,,65,001,2023_Apr_10_1200,SpeechDraft1Carolyn_lessNoise_PlusLocalization,2021.2.3,59.88602477483771,
,,,,,,,,farRight,19.1,4,ch1Sound_localizationTask.wav,19.1,"(1237, 878)","(277,-202)",285,-338,,,,,,,,,3,1,22,6,,,,,,,,,,,,,,,,,,,,,,,,,,,,,,,,,,,,,,,,,,,,821.6075458601117,None,822.7071600370109,None,823.6403961479664,None,1.7164021164021164,1.382096791639924,823.6403961479664,None,,,,,,,,,,,65,001,2023_Apr_10_1200,SpeechDraft1Carolyn_lessNoise_PlusLocalization,2021.2.3,59.88602477483771,
,,,,,,,,farRight,19.1,4,ch1Sound_localizationTask.wav,19.1,"(1237, 878)","(277,-202)",285,-338,,,,,,,,,3,2,23,6,,,,,,,,,,,,,,,,,,,,,,,,,,,,,,,,,,,,,,,,,,,,825.0250676367432,None,826.1236921711825,None,827.0570086329244,None,1.6804232804232804,0.5829529110342264,827.0570086329244,None,,,,,,,,,,,65,001,2023_Apr_10_1200,SpeechDraft1Carolyn_lessNoise_PlusLocalization,2021.2.3,59.88602477483771,
,,,,,,,,midRight,13.0,3,ch1Sound_localizationTask.wav,13.0,"(1142, 878)","(182, -202)",190,-338,,,,,,,,,3,3,24,5,,,,,,,,,,,,,,,,,,,,,,,,,,,,,,,,,,,,,,,,,,,,827.6413337020203,None,828.7405952308327,None,829.6735851881094,None,1.6111111111111112,0.5159810069017112,829.6735851881094,None,,,,,,,,,,,65,001,2023_Apr_10_1200,SpeechDraft1Carolyn_lessNoise_PlusLocalization,2021.2.3,59.88602477483771,
,,,,,,,,midRight,13.0,3,ch1Sound_localizationTask.wav,13.0,"(1142, 878)","(182, -202)",190,-338,,,,,,,,,3,4,25,5,,,,,,,,,,,,,,,,,,,,,,,,,,,,,,,,,,,,,,,,,,,,830.1920116660185,None,831.3072261200286,None,832.2239188719541,None,1.5894179894179894,1.1005001901648939,832.2239188719541,None,,,,,,,,,,,65,001,2023_Apr_10_1200,SpeechDraft1Carolyn_lessNoise_PlusLocalization,2021.2.3,59.88602477483771,
,,,,,,,,farLeft,-19.1,5,ch1Sound_localizationTask.wav,-19.1,"(667, 878)","(-293,-202)",-285,-338,,,,,,,,,3,5,26,0,,,,,,,,,,,,,,,,,,,,,,,,,,,,,,,,,,,,,,,,,,,,833.3410012791865,None,834.4405806381255,None,835.3740465380251,None,1.215873015873016,1.2666935571469367,835.3740465380251,None,,,,,,,,,,,65,001,2023_Apr_10_1200,SpeechDraft1Carolyn_lessNoise_PlusLocalization,2021.2.3,59.88602477483771,
,,,,,,,,midRight,13.0,3,ch1Sound_localizationTask.wav,13.0,"(1142, 878)","(182, -202)",190,-338,,,,,,,,,3,6,27,5,,,,,,,,,,,,,,,,,,,,,,,,,,,,,,,,,,,,,,,,,,,,836.6572755081579,None,837.7569688470103,None,838.690670022741,None,1.6936507936507936,2.366867112927139,838.690670022741,None,,,,,,,,,,,65,001,2023_Apr_10_1200,SpeechDraft1Carolyn_lessNoise_PlusLocalization,2021.2.3,59.88602477483771,
,,,,,,,,nearLeft,-6.5,1,ch1Sound_localizationTask.wav,-6.5,"(857, 878)","(-103,-202)",-95,-338,,,,,,,,,4,0,28,2,,,,,,,,,,,,,,,,,,,,,,,,,,,,,,,,,,,,,,,,,,,,841.0586486691609,None,842.1738026081584,None,843.0907066450454,None,1.3846560846560847,1.1504092398099601,843.0907066450454,None,,,,,,,,,,,65,001,2023_Apr_10_1200,SpeechDraft1Carolyn_lessNoise_PlusLocalization,2021.2.3,59.88602477483771,
,,,,,,,,center,0.0,6,ch1Sound_localizationTask.wav,0.0,"(952, 878)","(-8,-202)",0,-338,,,,,,,,,4,1,29,3,,,,,,,,,,,,,,,,,,,,,,,,,,,,,,,,,,,,,,,,,,,,844.2576754419133,None,845.357332456857,None,846.290689541027,None,1.4634920634920636,0.9829709641635418,846.290689541027,None,,,,,,,,,,,65,001,2023_Apr_10_1200,SpeechDraft1Carolyn_lessNoise_PlusLocalization,2021.2.3,59.88602477483771,
,,,,,,,,nearRight,6.5,0,ch1Sound_localizationTask.wav,6.5,"(1047, 878)","(87, -202)",95,-338,,,,,,,,,4,2,30,4,,,,,,,,,,,,,,,,,,,,,,,,,,,,,,,,,,,,,,,,,,,,847.2752223871648,None,848.390607480891,None,849.3073358051479,None,1.4613756613756614,0.466165266931057,849.3073358051479,None,,,,,,,,,,,65,001,2023_Apr_10_1200,SpeechDraft1Carolyn_lessNoise_PlusLocalization,2021.2.3,59.88602477483771,
,,,,,,,,nearLeft,-6.5,1,ch1Sound_localizationTask.wav,-6.5,"(857, 878)","(-103,-202)",-95,-338,,,,,,,,,4,3,31,2,,,,,,,,,,,,,,,,,,,,,,,,,,,,,,,,,,,,,,,,,,,,849.7758404868655,None,850.8904571561143,None,851.8072659247555,None,1.3587301587301588,0.6823979429900646,851.8072659247555,None,,,,,,,,,,,65,001,2023_Apr_10_1200,SpeechDraft1Carolyn_lessNoise_PlusLocalization,2021.2.3,59.88602477483771,
,,,,,,,,nearLeft,-6.5,1,ch1Sound_localizationTask.wav,-6.5,"(857, 878)","(-103,-202)",-95,-338,,,,,,,,,4,4,32,2,,,,,,,,,,,,,,,,,,,,,,,,,,,,,,,,,,,,,,,,,,,,852.4915840500034,None,853.5904434518889,None,854.5239697438665,None,1.3608465608465607,0.516311445273459,854.5239697438665,None,,,,,,,,,,,65,001,2023_Apr_10_1200,SpeechDraft1Carolyn_lessNoise_PlusLocalization,2021.2.3,59.88602477483771,
,,,,,,,,midLeft,-13.0,2,ch1Sound_localizationTask.wav,-13.0,"(762, 878)","(-198,-202)",-190,-338,,,,,,,,,4,5,33,1,,,,,,,,,,,,,,,,,,,,,,,,,,,,,,,,,,,,,,,,,,,,855.0415852940641,None,856.1405685790814,None,857.0737162297592,None,1.247089947089947,0.8001463958062232,857.0737162297592,None,,,,,,,,,,,65,001,2023_Apr_10_1200,SpeechDraft1Carolyn_lessNoise_PlusLocalization,2021.2.3,59.88602477483771,
,,,,,,,,farLeft,-19.1,5,ch1Sound_localizationTask.wav,-19.1,"(667, 878)","(-293,-202)",-285,-338,,,,,,,,,4,6,34,0,,,,,,,,,,,,,,,,,,,,,,,,,,,,,,,,,,,,,,,,,,,,857.875426761806,None,858.9905159668997,None,859.9071760601364,None,1.2058201058201057,0.8342434260994196,859.9071760601364,None,,,,,,,,,,,65,001,2023_Apr_10_1200,SpeechDraft1Carolyn_lessNoise_PlusLocalization,2021.2.3,59.88602477483771,
,,,,,,,,farRight,19.1,4,ch1Sound_localizationTask.wav,19.1,"(1237, 878)","(277,-202)",285,-338,,,,,,,,,5,0,35,6,,,,,,,,,,,,,,,,,,,,,,,,,,,,,,,,,,,,,,,,,,,,860.7575319288298,None,861.8570977780037,None,862.7905857707374,None,1.7502645502645502,1.1663051191717386,862.7905857707374,None,,,,,,,,,,,65,001,2023_Apr_10_1200,SpeechDraft1Carolyn_lessNoise_PlusLocalization,2021.2.3,59.88602477483771,
,,,,,,,,nearLeft,-6.5,1,ch1Sound_localizationTask.wav,-6.5,"(857, 878)","(-103,-202)",-95,-338,,,,,,,,,5,1,36,2,,,,,,,,,,,,,,,,,,,,,,,,,,,,,,,,,,,,,,,,,,,,863.9578473609872,None,865.0572493690997,None,865.9905297481455,None,1.4058201058201059,0.8163887998089194,865.9905297481455,None,,,,,,,,,,,65,001,2023_Apr_10_1200,SpeechDraft1Carolyn_lessNoise_PlusLocalization,2021.2.3,59.88602477483771,
,,,,,,,,farLeft,-19.1,5,ch1Sound_localizationTask.wav,-19.1,"(667, 878)","(-293,-202)",-285,-338,,,,,,,,,5,2,37,0,,,,,,,,,,,,,,,,,,,,,,,,,,,,,,,,,,,,,,,,,,,,866.8089681440033,None,867.9238202017732,None,868.8406735588796,None,1.301058201058201,0.6464180531911552,868.8406735588796,None,,,,,,,,,,,65,001,2023_Apr_10_1200,SpeechDraft1Carolyn_lessNoise_PlusLocalization,2021.2.3,59.88602477483771,
,,,,,,,,midRight,13.0,3,ch1Sound_localizationTask.wav,13.0,"(1142, 878)","(182, -202)",190,-338,,,,,,,,,5,3,38,5,,,,,,,,,,,,,,,,,,,,,,,,,,,,,,,,,,,,,,,,,,,,869.5075083067641,None,870.6072978968732,None,871.5406347890384,None,1.5714285714285714,0.649669174104929,871.5406347890384,None,,,,,,,,,,,65,001,2023_Apr_10_1200,SpeechDraft1Carolyn_lessNoise_PlusLocalization,2021.2.3,59.88602477483771,
,,,,,,,,midRight,13.0,3,ch1Sound_localizationTask.wav,13.0,"(1142, 878)","(182, -202)",190,-338,,,,,,,,,5,4,39,5,,,,,,,,,,,,,,,,,,,,,,,,,,,,,,,,,,,,,,,,,,,,872.1930290628225,None,873.3072691587731,None,874.2237127539702,None,1.5708994708994708,0.41662604734301567,874.2237127539702,None,,,,,,,,,,,65,001,2023_Apr_10_1200,SpeechDraft1Carolyn_lessNoise_PlusLocalization,2021.2.3,59.88602477483771,
,,,,,,,,midLeft,-13.0,2,ch1Sound_localizationTask.wav,-13.0,"(762, 878)","(-198,-202)",-190,-338,,,,,,,,,5,5,40,1,,,,,,,,,,,,,,,,,,,,,,,,,,,,,,,,,,,,,,,,,,,,874.6425279248506,None,875.7572828391567,None,876.6738021951169,None,1.343915343915344,0.9333820771425962,876.6738021951169,None,,,,,,,,,,,65,001,2023_Apr_10_1200,SpeechDraft1Carolyn_lessNoise_PlusLocalization,2021.2.3,59.88602477483771,
,,,,,,,,farLeft,-19.1,5,ch1Sound_localizationTask.wav,-19.1,"(667, 878)","(-293,-202)",-285,-338,,,,,,,,,5,6,41,0,,,,,,,,,,,,,,,,,,,,,,,,,,,,,,,,,,,,,,,,,,,,877.6088596759364,None,878.7238210239448,None,879.6406177389435,None,1.3460317460317461,0.48375811195001006,879.6406177389435,None,,,,,,,,,,,65,001,2023_Apr_10_1200,SpeechDraft1Carolyn_lessNoise_PlusLocalization,2021.2.3,59.88602477483771,
,,,,,,,,nearRight,6.5,0,ch1Sound_localizationTask.wav,6.5,"(1047, 878)","(87, -202)",95,-338,,,,,,,,,6,0,42,4,,,,,,,,,,,,,,,,,,,,,,,,,,,,,,,,,,,,,,,,,,,,880.1408098670654,None,881.2407583659515,None,882.1737026567571,None,1.4010582010582011,0.5494214310310781,882.1737026567571,None,,,,,,,,,,,65,001,2023_Apr_10_1200,SpeechDraft1Carolyn_lessNoise_PlusLocalization,2021.2.3,59.88602477483771,
,,,,,,,,nearLeft,-6.5,1,ch1Sound_localizationTask.wav,-6.5,"(857, 878)","(-103,-202)",-95,-338,,,,,,,,,6,1,43,2,,,,,,,,,,,,,,,,,,,,,,,,,,,,,,,,,,,,,,,,,,,,882.7254352178425,None,883.8403215198778,None,884.7572790510021,None,1.3973544973544973,0.4993550698272884,884.7572790510021,None,,,,,,,,,,,65,001,2023_Apr_10_1200,SpeechDraft1Carolyn_lessNoise_PlusLocalization,2021.2.3,59.88602477483771,
,,,,,,,,nearLeft,-6.5,1,ch1Sound_localizationTask.wav,-6.5,"(857, 878)","(-103,-202)",-95,-338,,,,,,,,,6,2,44,2,,,,,,,,,,,,,,,,,,,,,,,,,,,,,,,,,,,,,,,,,,,,885.2585061737336,None,886.3737647151574,None,887.2906335997395,None,1.3968253968253967,0.1333982963114977,887.2906335997395,None,,,,,,,,,,,65,001,2023_Apr_10_1200,SpeechDraft1Carolyn_lessNoise_PlusLocalization,2021.2.3,59.88602477483771,
,,,,,,,,nearRight,6.5,0,ch1Sound_localizationTask.wav,6.5,"(1047, 878)","(87, -202)",95,-338,,,,,,,,,6,3,45,4,,,,,,,,,,,,,,,,,,,,,,,,,,,,,,,,,,,,,,,,,,,,887.4408864239231,None,888.5405648341402,None,889.4737247591838,None,1.4661375661375662,1.6001383741386235,889.4737247591838,None,,,,,,,,,,,65,001,2023_Apr_10_1200,SpeechDraft1Carolyn_lessNoise_PlusLocalization,2021.2.3,59.88602477483771,
,,,,,,,,nearRight,6.5,0,ch1Sound_localizationTask.wav,6.5,"(1047, 878)","(87, -202)",95,-338,,,,,,,,,6,4,46,4,,,,,,,,,,,,,,,,,,,,,,,,,,,,,,,,,,,,,,,,,,,,891.0910364571027,None,892.190465613734,None,893.1242347229272,None,1.4962962962962962,0.7165001737885177,893.1242347229272,None,,,,,,,,,,,65,001,2023_Apr_10_1200,SpeechDraft1Carolyn_lessNoise_PlusLocalization,2021.2.3,59.88602477483771,
,,,,,,,,center,0.0,6,ch1Sound_localizationTask.wav,0.0,"(952, 878)","(-8,-202)",0,-338,,,,,,,,,6,5,47,3,,,,,,,,,,,,,,,,,,,,,,,,,,,,,,,,,,,,,,,,,,,,893.8419674038887,None,894.9571802178398,None,895.8740120111033,None,1.4904761904761905,0.9328919239342213,895.8740120111033,None,,,,,,,,,,,65,001,2023_Apr_10_1200,SpeechDraft1Carolyn_lessNoise_PlusLocalization,2021.2.3,59.88602477483771,
,,,,,,,,farLeft,-19.1,5,ch1Sound_localizationTask.wav,-19.1,"(667, 878)","(-293,-202)",-285,-338,,,,,,,,,6,6,48,0,,,,,,,,,,,,,,,,,,,,,,,,,,,,,,,,,,,,,,,,,,,,896.808428093791,None,897.9072053390555,None,898.8406240497716,None,1.2492063492063492,0.6627129088155925,898.8406240497716,None,,,,,,,,,,,65,001,2023_Apr_10_1200,SpeechDraft1Carolyn_lessNoise_PlusLocalization,2021.2.3,59.88602477483771,
,,,,,,,,midLeft,-13.0,2,ch1Sound_localizationTask.wav,-13.0,"(762, 878)","(-198,-202)",-190,-338,,,,,,,,,7,0,49,1,,,,,,,,,,,,,,,,,,,,,,,,,,,,,,,,,,,,,,,,,,,,899.525012218859,None,900.6236576009542,None,901.5570622668602,None,1.2645502645502646,0.4834112860262394,901.5570622668602,None,,,,,,,,,,,65,001,2023_Apr_10_1200,SpeechDraft1Carolyn_lessNoise_PlusLocalization,2021.2.3,59.88602477483771,
,,,,,,,,farRight,19.1,4,ch1Sound_localizationTask.wav,19.1,"(1237, 878)","(277,-202)",285,-338,,,,,,,,,7,1,50,6,,,,,,,,,,,,,,,,,,,,,,,,,,,,,,,,,,,,,,,,,,,,902.0416199387982,None,903.1407779147848,None,904.0737401931547,None,1.7216931216931217,0.9680415960028768,904.0737401931547,None,,,,,,,,,,,65,001,2023_Apr_10_1200,SpeechDraft1Carolyn_lessNoise_PlusLocalization,2021.2.3,59.88602477483771,
,,,,,,,,farRight,19.1,4,ch1Sound_localizationTask.wav,19.1,"(1237, 878)","(277,-202)",285,-338,,,,,,,,,7,2,51,6,,,,,,,,,,,,,,,,,,,,,,,,,,,,,,,,,,,,,,,,,,,,905.0575347109698,None,906.1574520478025,None,907.0903956168331,None,1.7328042328042328,0.4501191582530737,907.0903956168331,None,,,,,,,,,,,65,001,2023_Apr_10_1200,SpeechDraft1Carolyn_lessNoise_PlusLocalization,2021.2.3,59.88602477483771,
,,,,,,,,nearRight,6.5,0,ch1Sound_localizationTask.wav,6.5,"(1047, 878)","(87, -202)",95,-338,,,,,,,,,7,3,52,4,,,,,,,,,,,,,,,,,,,,,,,,,,,,,,,,,,,,,,,,,,,,907.5426408019848,None,908.6573977111839,None,909.5740011897869,None,1.5984126984126985,0.9171119630336761,909.5740011897869,None,,,,,,,,,,,65,001,2023_Apr_10_1200,SpeechDraft1Carolyn_lessNoise_PlusLocalization,2021.2.3,59.88602477483771,
,,,,,,,,midRight,13.0,3,ch1Sound_localizationTask.wav,13.0,"(1142, 878)","(182, -202)",190,-338,,,,,,,,,7,4,53,5,,,,,,,,,,,,,,,,,,,,,,,,,,,,,,,,,,,,,,,,,,,,910.507534368895,None,911.6072345981374,None,912.5404036040418,None,1.535978835978836,0.5003216420300305,912.5404036040418,None,,,,,,,,,,,65,001,2023_Apr_10_1200,SpeechDraft1Carolyn_lessNoise_PlusLocalization,2021.2.3,59.88602477483771,
,,,,,,,,center,0.0,6,ch1Sound_localizationTask.wav,0.0,"(952, 878)","(-8,-202)",0,-338,,,,,,,,,7,5,54,3,,,,,,,,,,,,,,,,,,,,,,,,,,,,,,,,,,,,,,,,,,,,913.0424129669555,None,914.1572221461684,None,915.0737508288585,None,1.493121693121693,0.5836637644097209,915.0737508288585,None,,,,,,,,,,,65,001,2023_Apr_10_1200,SpeechDraft1Carolyn_lessNoise_PlusLocalization,2021.2.3,59.88602477483771,
,,,,,,,,nearLeft,-6.5,1,ch1Sound_localizationTask.wav,-6.5,"(857, 878)","(-103,-202)",-95,-338,,,,,,,,,7,6,55,2,,,,,,,,,,,,,,,,,,,,,,,,,,,,,,,,,,,,,,,,,,,,915.6741931028664,None,916.774085951969,None,917.707169694826,None,1.4624338624338624,0.7176481252536178,917.707169694826,None,,,,,,,,,,,65,001,2023_Apr_10_1200,SpeechDraft1Carolyn_lessNoise_PlusLocalization,2021.2.3,59.88602477483771,
,,,,,,,,,,,,,,,,,,,,,,,,,,,,,,,,,,,,,,,,,,,,,,,,,,,,,,,,,,,,,,,,,,,,,,,,,,,,,,,,,,space,79.74990715878084,918.5243604611605,None,,,,,,,65,001,2023_Apr_10_1200,SpeechDraft1Carolyn_lessNoise_PlusLocalization,2021.2.3,59.88602477483771,
,,,,,,,,nearRight,6.5,0,ch1Sound_localizationTask.wav,6.5,"(1047, 878)","(87, -202)",95,-338,,,,,,,,,,,,,0,0,0,4,,,,,,,,,,,,,,,,,,,,,,,,,,,,,,,,,,,,,,,,998.3072739038616,None,,,1001.3407583618537,None,1.574074074074074,1.0545519120059907,1001.3407583618537,None,,,,,918.5243604611605,None,999.3078152909875,None,999.4911377760582,999.507722560782,65,001,2023_Apr_10_1200,SpeechDraft1Carolyn_lessNoise_PlusLocalization,2021.2.3,59.88602477483771,
,,,,,,,,nearLeft,-6.5,1,ch1Sound_localizationTask.wav,-6.5,"(857, 878)","(-103,-202)",-95,-338,,,,,,,,,,,,,0,1,1,2,,,,,,,,,,,,,,,,,,,,,,,,,,,,,,,,,,,,,,,,1002.393233187031,None,,,1005.4239930878393,None,1.4285714285714286,0.8323837323114276,1005.4239930878393,None,,,,,,,1003.4077738001943,None,1003.5912091690116,1003.607733502984,65,001,2023_Apr_10_1200,SpeechDraft1Carolyn_lessNoise_PlusLocalization,2021.2.3,59.88602477483771,
,,,,,,,,farLeft,-19.1,5,ch1Sound_localizationTask.wav,-19.1,"(667, 878)","(-293,-202)",-285,-338,,,,,,,,,,,,,0,2,2,0,,,,,,,,,,,,,,,,,,,,,,,,,,,,,,,,,,,,,,,,1006.2588374339975,None,,,1009.2905635139905,None,1.3518518518518519,0.7001115339808166,1009.2905635139905,None,,,,,,,1007.274419893045,None,1007.4577978178859,1007.4744970398024,65,001,2023_Apr_10_1200,SpeechDraft1Carolyn_lessNoise_PlusLocalization,2021.2.3,59.88602477483771,
,,,,,,,,center,0.0,6,ch1Sound_localizationTask.wav,0.0,"(952, 878)","(-8,-202)",0,-338,,,,,,,,,,,,,0,3,3,3,,,,,,,,,,,,,,,,,,,,,,,,,,,,,,,,,,,,,,,,1010.0078136511147,None,,,1013.0238590077497,None,1.5084656084656085,1.032544385176152,1013.0238590077497,None,,,,,,,1011.0075908829458,None,1011.1910457089543,1011.207842016127,65,001,2023_Apr_10_1200,SpeechDraft1Carolyn_lessNoise_PlusLocalization,2021.2.3,59.88602477483771,
,,,,,,,,nearLeft,-6.5,1,ch1Sound_localizationTask.wav,-6.5,"(857, 878)","(-103,-202)",-95,-338,,,,,,,,,,,,,0,4,4,2,,,,,,,,,,,,,,,,,,,,,,,,,,,,,,,,,,,,,,,,1014.059222701937,None,,,1017.0905781970359,None,1.4417989417989419,0.8495731577277184,1017.0905781970359,None,,,,,,,1015.074541341979,None,1015.2576200771146,1015.2744769221172,65,001,2023_Apr_10_1200,SpeechDraft1Carolyn_lessNoise_PlusLocalization,2021.2.3,59.88602477483771,
,,,,,,,,center,0.0,6,ch1Sound_localizationTask.wav,0.0,"(952, 878)","(-8,-202)",0,-338,,,,,,,,,,,,,0,5,5,3,,,,,,,,,,,,,,,,,,,,,,,,,,,,,,,,,,,,,,,,1017.9427397148684,None,,,1020.9741033008322,None,1.5269841269841269,0.5334434006363153,1020.9741033008322,None,,,,,,,1018.9577150200494,None,1019.14103092812,1019.1574937878177,65,001,2023_Apr_10_1200,SpeechDraft1Carolyn_lessNoise_PlusLocalization,2021.2.3,59.88602477483771,
,,,,,,,,nearLeft,-6.5,1,ch1Sound_localizationTask.wav,-6.5,"(857, 878)","(-103,-202)",-95,-338,,,,,,,,,,,,,0,6,6,2,,,,,,,,,,,,,,,,,,,,,,,,,,,,,,,,,,,,,,,,1021.509994873777,None,,,1024.5409245607443,None,1.4587301587301587,0.5162778492085636,1024.5409245607443,None,,,,,,,1022.524509718176,None,1022.7077238168567,1022.724329684861,65,001,2023_Apr_10_1200,SpeechDraft1Carolyn_lessNoise_PlusLocalization,2021.2.3,59.88602477483771,
,,,,,,,,center,0.0,6,ch1Sound_localizationTask.wav,0.0,"(952, 878)","(-8,-202)",0,-338,,,,,,,,,,,,,1,0,7,3,,,,,,,,,,,,,,,,,,,,,,,,,,,,,,,,,,,,,,,,1025.0595055161975,None,,,1028.0906159929,None,1.505820105820106,0.5994841330684721,1028.0906159929,None,,,,,,,1026.0743991117924,None,1026.2577184950933,1026.2741977227852,65,001,2023_Apr_10_1200,SpeechDraft1Carolyn_lessNoise_PlusLocalization,2021.2.3,59.88602477483771,
,,,,,,,,midLeft,-13.0,2,ch1Sound_localizationTask.wav,-13.0,"(762, 878)","(-198,-202)",-190,-338,,,,,,,,,,,,,1,1,8,1,,,,,,,,,,,,,,,,,,,,,,,,,,,,,,,,,,,,,,,,1028.692371442914,None,,,1031.7241596588865,None,1.38994708994709,0.8671260261908174,1031.7241596588865,None,,,,,,,1029.707796311006,None,1029.8910979321226,1029.9075830820948,65,001,2023_Apr_10_1200,SpeechDraft1Carolyn_lessNoise_PlusLocalization,2021.2.3,59.88602477483771,
,,,,,,,,midLeft,-13.0,2,ch1Sound_localizationTask.wav,-13.0,"(762, 878)","(-198,-202)",-190,-338,,,,,,,,,,,,,1,2,9,1,,,,,,,,,,,,,,,,,,,,,,,,,,,,,,,,,,,,,,,,1032.6077793138102,None,,,1035.6240623788908,None,1.4238095238095239,0.5661697690375149,1035.6240623788908,None,,,,,,,1033.6075542331673,None,1033.7913335389458,1033.8077182820998,65,001,2023_Apr_10_1200,SpeechDraft1Carolyn_lessNoise_PlusLocalization,2021.2.3,59.88602477483771,
,,,,,,,,nearRight,6.5,0,ch1Sound_localizationTask.wav,6.5,"(1047, 878)","(87, -202)",95,-338,,,,,,,,,,,,,1,3,10,4,,,,,,,,,,,,,,,,,,,,,,,,,,,,,,,,,,,,,,,,1036.1927800141275,None,,,1039.2240323238075,None,1.5735449735449736,0.7660273830406368,1039.2240323238075,None,,,,,,,1037.20784446178,None,1037.3911710567772,1037.4079209151678,65,001,2023_Apr_10_1200,SpeechDraft1Carolyn_lessNoise_PlusLocalization,2021.2.3,59.88602477483771,
,,,,,,,,nearLeft,-6.5,1,ch1Sound_localizationTask.wav,-6.5,"(857, 878)","(-103,-202)",-95,-338,,,,,,,,,,,,,1,4,11,2,,,,,,,,,,,,,,,,,,,,,,,,,,,,,,,,,,,,,,,,1039.9923490327783,None,,,1043.0238913567737,None,1.4608465608465608,0.6333857383579016,1043.0238913567737,None,,,,,,,1041.0077043930069,None,1041.1911009550095,1041.207815927919,65,001,2023_Apr_10_1200,SpeechDraft1Carolyn_lessNoise_PlusLocalization,2021.2.3,59.88602477483771,
,,,,,,,,nearLeft,-6.5,1,ch1Sound_localizationTask.wav,-6.5,"(857, 878)","(-103,-202)",-95,-338,,,,,,,,,,,,,1,5,12,2,,,,,,,,,,,,,,,,,,,,,,,,,,,,,,,,,,,,,,,,1043.6591204400174,None,,,1046.6906295199879,None,1.452910052910053,0.5324325077235699,1046.6906295199879,None,,,,,,,1044.6745747807436,None,1044.8577631269582,1044.8745703371242,65,001,2023_Apr_10_1200,SpeechDraft1Carolyn_lessNoise_PlusLocalization,2021.2.3,59.88602477483771,
,,,,,,,,farLeft,-19.1,5,ch1Sound_localizationTask.wav,-19.1,"(667, 878)","(-293,-202)",-285,-338,,,,,,,,,,,,,1,6,13,0,,,,,,,,,,,,,,,,,,,,,,,,,,,,,,,,,,,,,,,,1047.225410955958,None,,,1050.2574952538125,None,1.3253968253968254,1.4177503562532365,1050.2574952538125,None,,,,,,,1048.2411169679835,None,1048.4245577137917,1048.441067374777,65,001,2023_Apr_10_1200,SpeechDraft1Carolyn_lessNoise_PlusLocalization,2021.2.3,59.88602477483771,
,,,,,,,,farRight,19.1,4,ch1Sound_localizationTask.wav,19.1,"(1237, 878)","(277,-202)",285,-338,,,,,,,,,,,,,2,0,14,6,,,,,,,,,,,,,,,,,,,,,,,,,,,,,,,,,,,,,,,,1051.6912855687551,None,,,1054.7073948937468,None,1.6375661375661377,0.8996276562102139,1054.7073948937468,None,,,,,,,1052.6910137580708,None,1052.8742832597345,1052.891138175968,65,001,2023_Apr_10_1200,SpeechDraft1Carolyn_lessNoise_PlusLocalization,2021.2.3,59.88602477483771,
,,,,,,,,midLeft,-13.0,2,ch1Sound_localizationTask.wav,-13.0,"(762, 878)","(-198,-202)",-190,-338,,,,,,,,,,,,,2,1,15,1,,,,,,,,,,,,,,,,,,,,,,,,,,,,,,,,,,,,,,,,1055.6092563099228,None,,,1058.64079192793,None,1.3862433862433863,0.9996731020510197,1058.64079192793,None,,,,,,,1056.6244954820722,None,1056.8078181738965,1056.82444373006,65,001,2023_Apr_10_1200,SpeechDraft1Carolyn_lessNoise_PlusLocalization,2021.2.3,59.88602477483771,
,,,,,,,,farLeft,-19.1,5,ch1Sound_localizationTask.wav,-19.1,"(667, 878)","(-293,-202)",-285,-338,,,,,,,,,,,,,2,2,16,0,,,,,,,,,,,,,,,,,,,,,,,,,,,,,,,,,,,,,,,,1059.65795532614,None,,,1062.6741197700612,None,1.3608465608465607,0.5161607880145311,1062.6741197700612,None,,,,,,,1060.6578376851976,None,1060.8411324000917,1060.857735014055,65,001,2023_Apr_10_1200,SpeechDraft1Carolyn_lessNoise_PlusLocalization,2021.2.3,59.88602477483771,
,,,,,,,,farLeft,-19.1,5,ch1Sound_localizationTask.wav,-19.1,"(667, 878)","(-293,-202)",-285,-338,,,,,,,,,,,,,2,3,17,0,,,,,,,,,,,,,,,,,,,,,,,,,,,,,,,,,,,,,,,,1063.1929825418629,None,,,1066.2241694498807,None,1.348148148148148,0.4998998730443418,1066.2241694498807,None,,,,,,,1064.2080716490746,None,1064.3910851958208,1064.4076319048181,65,001,2023_Apr_10_1200,SpeechDraft1Carolyn_lessNoise_PlusLocalization,2021.2.3,59.88602477483771,
,,,,,,,,center,0.0,6,ch1Sound_localizationTask.wav,0.0,"(952, 878)","(-8,-202)",0,-338,,,,,,,,,,,,,2,4,18,3,,,,,,,,,,,,,,,,,,,,,,,,,,,,,,,,,,,,,,,,1066.7256293608807,None,,,1069.7574668019079,None,1.4904761904761905,0.6665118238888681,1069.7574668019079,None,,,,,,,1067.740991264116,None,1067.924224929884,1067.9410848408006,65,001,2023_Apr_10_1200,SpeechDraft1Carolyn_lessNoise_PlusLocalization,2021.2.3,59.88602477483771,
,,,,,,,,farLeft,-19.1,5,ch1Sound_localizationTask.wav,-19.1,"(667, 878)","(-293,-202)",-285,-338,,,,,,,,,,,,,2,5,19,0,,,,,,,,,,,,,,,,,,,,,,,,,,,,,,,,,,,,,,,,1070.4256524010561,None,,,1073.457764100749,None,1.3248677248677247,0.9663939788006246,1073.457764100749,None,,,,,,,1071.4408378959633,None,1071.6246368070133,1071.6413055998273,65,001,2023_Apr_10_1200,SpeechDraft1Carolyn_lessNoise_PlusLocalization,2021.2.3,59.88602477483771,
,,,,,,,,nearRight,6.5,0,ch1Sound_localizationTask.wav,6.5,"(1047, 878)","(87, -202)",95,-338,,,,,,,,,,,,,2,6,20,4,,,,,,,,,,,,,,,,,,,,,,,,,,,,,,,,,,,,,,,,1074.425533220172,None,,,1077.4574475581758,None,1.5772486772486771,0.8332687928341329,1077.4574475581758,None,,,,,,,1075.4411553740501,None,1075.6244675111957,1075.6412937268615,65,001,2023_Apr_10_1200,SpeechDraft1Carolyn_lessNoise_PlusLocalization,2021.2.3,59.88602477483771,
,,,,,,,,farRight,19.1,4,ch1Sound_localizationTask.wav,19.1,"(1237, 878)","(277,-202)",285,-338,,,,,,,,,,,,,3,0,21,6,,,,,,,,,,,,,,,,,,,,,,,,,,,,,,,,,,,,,,,,1078.2921730191447,None,,,1081.3242437019944,None,1.6656084656084655,0.9333040378987789,1081.3242437019944,None,,,,,,,1079.307964303065,None,1079.4912325101905,1079.5078307390213,65,001,2023_Apr_10_1200,SpeechDraft1Carolyn_lessNoise_PlusLocalization,2021.2.3,59.88602477483771,
,,,,,,,,nearRight,6.5,0,ch1Sound_localizationTask.wav,6.5,"(1047, 878)","(87, -202)",95,-338,,,,,,,,,,,,,3,1,22,4,,,,,,,,,,,,,,,,,,,,,,,,,,,,,,,,,,,,,,,,1082.2589746611193,None,,,1085.2908612480387,None,1.6037037037037036,1.133012926671654,1085.2908612480387,None,,,,,,,1083.274363883771,None,1083.4579140208662,1083.4743731548078,65,001,2023_Apr_10_1200,SpeechDraft1Carolyn_lessNoise_PlusLocalization,2021.2.3,59.88602477483771,
,,,,,,,,nearLeft,-6.5,1,ch1Sound_localizationTask.wav,-6.5,"(857, 878)","(-103,-202)",-95,-338,,,,,,,,,,,,,3,2,23,2,,,,,,,,,,,,,,,,,,,,,,,,,,,,,,,,,,,,,,,,1086.4408597759902,None,,,1089.4575364599004,None,1.453968253968254,0.9830525550059974,1089.4575364599004,None,,,,,,,1087.4410149040632,None,1087.6246116408147,1087.64117222419,65,001,2023_Apr_10_1200,SpeechDraft1Carolyn_lessNoise_PlusLocalization,2021.2.3,59.88602477483771,
,,,,,,,,midRight,13.0,3,ch1Sound_localizationTask.wav,13.0,"(1142, 878)","(182, -202)",190,-338,,,,,,,,,,,,,3,3,24,5,,,,,,,,,,,,,,,,,,,,,,,,,,,,,,,,,,,,,,,,1090.4575400929898,None,,,1093.4740485139191,None,1.6126984126984127,0.9994872529059649,1093.4740485139191,None,,,,,,,1091.4580208999105,None,1091.641228615772,1091.657808762975,65,001,2023_Apr_10_1200,SpeechDraft1Carolyn_lessNoise_PlusLocalization,2021.2.3,59.88602477483771,
,,,,,,,,farRight,19.1,4,ch1Sound_localizationTask.wav,19.1,"(1237, 878)","(277,-202)",285,-338,,,,,,,,,,,,,3,4,25,6,,,,,,,,,,,,,,,,,,,,,,,,,,,,,,,,,,,,,,,,1094.475177389104,None,,,1097.490708867088,None,1.6587301587301586,0.7825894099660218,1097.490708867088,None,,,,,,,1095.4745887829922,None,1095.6578242839314,1095.6744086341932,65,001,2023_Apr_10_1200,SpeechDraft1Carolyn_lessNoise_PlusLocalization,2021.2.3,59.88602477483771,
,,,,,,,,nearRight,6.5,0,ch1Sound_localizationTask.wav,6.5,"(1047, 878)","(87, -202)",95,-338,,,,,,,,,,,,,3,5,26,4,,,,,,,,,,,,,,,,,,,,,,,,,,,,,,,,,,,,,,,,1098.2766015720554,None,,,1101.3076188778505,None,1.5592592592592593,0.9499842938967049,1101.3076188778505,None,,,,,,,1099.291156894993,None,1099.4746193997562,1099.4911839948036,65,001,2023_Apr_10_1200,SpeechDraft1Carolyn_lessNoise_PlusLocalization,2021.2.3,59.88602477483771,
,,,,,,,,nearRight,6.5,0,ch1Sound_localizationTask.wav,6.5,"(1047, 878)","(87, -202)",95,-338,,,,,,,,,,,,,3,6,27,4,,,,,,,,,,,,,,,,,,,,,,,,,,,,,,,,,,,,,,,,1102.2586054997519,None,,,1105.2745305639692,None,1.5603174603174603,0.765788780990988,1105.2745305639692,None,,,,,,,1103.2577250837348,None,1103.4410842251964,1103.4576430418529,65,001,2023_Apr_10_1200,SpeechDraft1Carolyn_lessNoise_PlusLocalization,2021.2.3,59.88602477483771,
,,,,,,,,farRight,19.1,4,ch1Sound_localizationTask.wav,19.1,"(1237, 878)","(277,-202)",285,-338,,,,,,,,,,,,,4,0,28,6,,,,,,,,,,,,,,,,,,,,,,,,,,,,,,,,,,,,,,,,1106.0423776800744,None,,,1109.0741142071784,None,1.6788359788359788,0.7989250500686467,1109.0741142071784,None,,,,,,,1107.057966907043,None,1107.2412484809756,1107.2578828390688,65,001,2023_Apr_10_1200,SpeechDraft1Carolyn_lessNoise_PlusLocalization,2021.2.3,59.88602477483771,
,,,,,,,,farRight,19.1,4,ch1Sound_localizationTask.wav,19.1,"(1237, 878)","(277,-202)",285,-338,,,,,,,,,,,,,4,1,29,6,,,,,,,,,,,,,,,,,,,,,,,,,,,,,,,,,,,,,,,,1109.8907804959454,None,,,1112.9077234617434,None,1.6417989417989418,1.0497245602309704,1112.9077234617434,None,,,,,,,1110.8912363788113,None,1111.074438336771,1111.0911283511668,65,001,2023_Apr_10_1200,SpeechDraft1Carolyn_lessNoise_PlusLocalization,2021.2.3,59.88602477483771,
,,,,,,,,farRight,19.1,4,ch1Sound_localizationTask.wav,19.1,"(1237, 878)","(277,-202)",285,-338,,,,,,,,,,,,,4,2,30,6,,,,,,,,,,,,,,,,,,,,,,,,,,,,,,,,,,,,,,,,1113.9591690469533,None,,,1116.9907670561224,None,1.6788359788359788,0.7658567931503057,1116.9907670561224,None,,,,,,,1114.9745715591125,None,1115.1579137938097,1115.1744576380588,65,001,2023_Apr_10_1200,SpeechDraft1Carolyn_lessNoise_PlusLocalization,2021.2.3,59.88602477483771,
,,,,,,,,midLeft,-13.0,2,ch1Sound_localizationTask.wav,-13.0,"(762, 878)","(-198,-202)",-190,-338,,,,,,,,,,,,,4,3,31,1,,,,,,,,,,,,,,,,,,,,,,,,,,,,,,,,,,,,,,,,1117.7588170538656,None,,,1120.791174159851,None,1.4084656084656084,0.8499645120464265,1120.791174159851,None,,,,,,,1118.7746402500197,None,1118.9579586707987,1118.9744690400548,65,001,2023_Apr_10_1200,SpeechDraft1Carolyn_lessNoise_PlusLocalization,2021.2.3,59.88602477483771,
,,,,,,,,farRight,19.1,4,ch1Sound_localizationTask.wav,19.1,"(1237, 878)","(277,-202)",285,-338,,,,,,,,,,,,,4,4,32,6,,,,,,,,,,,,,,,,,,,,,,,,,,,,,,,,,,,,,,,,1121.6576944780536,None,,,1124.6742555969395,None,1.6677248677248677,0.9500785782001913,1124.6742555969395,None,,,,,,,1122.6579068969004,None,1122.8412073380314,1122.8578200279735,65,001,2023_Apr_10_1200,SpeechDraft1Carolyn_lessNoise_PlusLocalization,2021.2.3,59.88602477483771,
,,,,,,,,farLeft,-19.1,5,ch1Sound_localizationTask.wav,-19.1,"(667, 878)","(-293,-202)",-285,-338,,,,,,,,,,,,,4,5,33,0,,,,,,,,,,,,,,,,,,,,,,,,,,,,,,,,,,,,,,,,1125.6413051211275,None,,,1128.6575365928002,None,1.3264550264550263,0.6163248564116657,1128.6575365928002,None,,,,,,,1126.6413865438662,None,1126.824647363741,1126.8413436231203,65,001,2023_Apr_10_1200,SpeechDraft1Carolyn_lessNoise_PlusLocalization,2021.2.3,59.88602477483771,
,,,,,,,,midRight,13.0,3,ch1Sound_localizationTask.wav,13.0,"(1142, 878)","(182, -202)",190,-338,,,,,,,,,,,,,4,6,34,5,,,,,,,,,,,,,,,,,,,,,,,,,,,,,,,,,,,,,,,,1129.2913560150191,None,,,1132.3075867281295,None,1.6354497354497355,0.9500886332243681,1132.3075867281295,None,,,,,,,1130.2913267971016,None,1130.4744195630774,1130.4911131318659,65,001,2023_Apr_10_1200,SpeechDraft1Carolyn_lessNoise_PlusLocalization,2021.2.3,59.88602477483771,
,,,,,,,,farRight,19.1,4,ch1Sound_localizationTask.wav,19.1,"(1237, 878)","(277,-202)",285,-338,,,,,,,,,,,,,5,0,35,6,,,,,,,,,,,,,,,,,,,,,,,,,,,,,,,,,,,,,,,,1133.2746897251345,None,,,1136.2908191061579,None,1.6534391534391535,0.6661402038298547,1136.2908191061579,None,,,,,,,1134.2743500540964,None,1134.4579976811074,1134.4745626589283,65,001,2023_Apr_10_1200,SpeechDraft1Carolyn_lessNoise_PlusLocalization,2021.2.3,59.88602477483771,
,,,,,,,,center,0.0,6,ch1Sound_localizationTask.wav,0.0,"(952, 878)","(-8,-202)",0,-338,,,,,,,,,,,,,5,1,36,3,,,,,,,,,,,,,,,,,,,,,,,,,,,,,,,,,,,,,,,,1136.9594008908607,None,,,1139.9909647321329,None,1.502116402116402,1.1347874752245843,1139.9909647321329,None,,,,,,,1137.9746027011424,None,1138.1578016299754,1138.1745410538279,65,001,2023_Apr_10_1200,SpeechDraft1Carolyn_lessNoise_PlusLocalization,2021.2.3,59.88602477483771,
,,,,,,,,midLeft,-13.0,2,ch1Sound_localizationTask.wav,-13.0,"(762, 878)","(-198,-202)",-190,-338,,,,,,,,,,,,,5,2,37,1,,,,,,,,,,,,,,,,,,,,,,,,,,,,,,,,,,,,,,,,1141.1410496328026,None,,,1144.1576998578385,None,1.4121693121693122,0.5176188773475587,1144.1576998578385,None,,,,,,,1142.1411252408288,None,1142.3247629920952,1142.3410570658743,65,001,2023_Apr_10_1200,SpeechDraft1Carolyn_lessNoise_PlusLocalization,2021.2.3,59.88602477483771,
,,,,,,,,midRight,13.0,3,ch1Sound_localizationTask.wav,13.0,"(1142, 878)","(182, -202)",190,-338,,,,,,,,,,,,,5,3,38,5,,,,,,,,,,,,,,,,,,,,,,,,,,,,,,,,,,,,,,,,1144.6912593068555,None,,,1147.7075177580118,None,1.6174603174603175,0.8828269969671965,1147.7075177580118,None,,,,,,,1145.691187004093,None,1145.8745335428976,1145.8911796999164,65,001,2023_Apr_10_1200,SpeechDraft1Carolyn_lessNoise_PlusLocalization,2021.2.3,59.88602477483771,
,,,,,,,,nearRight,6.5,0,ch1Sound_localizationTask.wav,6.5,"(1047, 878)","(87, -202)",95,-338,,,,,,,,,,,,,5,4,39,4,,,,,,,,,,,,,,,,,,,,,,,,,,,,,,,,,,,,,,,,1148.5926892720163,None,,,1151.6243823589757,None,1.541798941798942,0.8014526413753629,1151.6243823589757,None,,,,,,,1149.6078090998344,None,1149.791135552805,1149.8078850368038,65,001,2023_Apr_10_1200,SpeechDraft1Carolyn_lessNoise_PlusLocalization,2021.2.3,59.88602477483771,
,,,,,,,,center,0.0,6,ch1Sound_localizationTask.wav,0.0,"(952, 878)","(-8,-202)",0,-338,,,,,,,,,,,,,5,5,40,3,,,,,,,,,,,,,,,,,,,,,,,,,,,,,,,,,,,,,,,,1152.4412600258365,None,,,1155.457629578188,None,1.4952380952380953,0.5498264660127461,1155.457629578188,None,,,,,,,1153.4413626608439,None,1153.6246278481558,1153.6410015737638,65,001,2023_Apr_10_1200,SpeechDraft1Carolyn_lessNoise_PlusLocalization,2021.2.3,59.88602477483771,
,,,,,,,,center,0.0,6,ch1Sound_localizationTask.wav,0.0,"(952, 878)","(-8,-202)",0,-338,,,,,,,,,,,,,5,6,41,3,,,,,,,,,,,,,,,,,,,,,,,,,,,,,,,,,,,,,,,,1156.024684087839,None,,,1159.0409100367688,None,1.5010582010582012,0.6503125177696347,1159.0409100367688,None,,,,,,,1157.024504810106,None,1157.2077956981957,1157.224565571174,65,001,2023_Apr_10_1200,SpeechDraft1Carolyn_lessNoise_PlusLocalization,2021.2.3,59.88602477483771,
,,,,,,,,nearRight,6.5,0,ch1Sound_localizationTask.wav,6.5,"(1047, 878)","(87, -202)",95,-338,,,,,,,,,,,,,6,0,42,4,,,,,,,,,,,,,,,,,,,,,,,,,,,,,,,,,,,,,,,,1159.7081643198617,None,,,1162.7242831499316,None,1.5592592592592593,0.4827395207248628,1162.7242831499316,None,,,,,,,1160.7080629449338,None,1160.8913525710814,1160.9079417381436,65,001,2023_Apr_10_1200,SpeechDraft1Carolyn_lessNoise_PlusLocalization,2021.2.3,59.88602477483771,
,,,,,,,,center,0.0,6,ch1Sound_localizationTask.wav,0.0,"(952, 878)","(-8,-202)",0,-338,,,,,,,,,,,,,6,1,43,3,,,,,,,,,,,,,,,,,,,,,,,,,,,,,,,,,,,,,,,,1163.20923093101,None,,,1166.2410803120583,None,1.5052910052910053,0.81608891999349,1166.2410803120583,None,,,,,,,1164.224527283106,None,1164.407896334771,1164.4247112949379,65,001,2023_Apr_10_1200,SpeechDraft1Carolyn_lessNoise_PlusLocalization,2021.2.3,59.88602477483771,
,,,,,,,,farLeft,-19.1,5,ch1Sound_localizationTask.wav,-19.1,"(667, 878)","(-293,-202)",-285,-338,,,,,,,,,,,,,6,2,44,0,,,,,,,,,,,,,,,,,,,,,,,,,,,,,,,,,,,,,,,,1167.0596429118887,None,,,1170.0910664908588,None,1.337037037037037,0.7512231431901455,1170.0910664908588,None,,,,,,,1168.0747680617496,None,1168.2579797059298,1168.2746286769398,65,001,2023_Apr_10_1200,SpeechDraft1Carolyn_lessNoise_PlusLocalization,2021.2.3,59.88602477483771,
,,,,,,,,midRight,13.0,3,ch1Sound_localizationTask.wav,13.0,"(1142, 878)","(182, -202)",190,-338,,,,,,,,,,,,,6,3,45,5,,,,,,,,,,,,,,,,,,,,,,,,,,,,,,,,,,,,,,,,1170.858122725971,None,,,1173.8742025918327,None,1.6095238095238096,0.7330433051101863,1173.8742025918327,None,,,,,,,1171.8581050881185,None,1172.0411444967613,1172.0578861138783,65,001,2023_Apr_10_1200,SpeechDraft1Carolyn_lessNoise_PlusLocalization,2021.2.3,59.88602477483771,
,,,,,,,,midRight,13.0,3,ch1Sound_localizationTask.wav,13.0,"(1142, 878)","(182, -202)",190,-338,,,,,,,,,,,,,6,4,46,5,,,,,,,,,,,,,,,,,,,,,,,,,,,,,,,,,,,,,,,,1174.6099004219286,None,,,1177.6408302318305,None,1.6,0.4501642999239266,1177.6408302318305,None,,,,,,,1175.624625235796,None,1175.807927414775,1175.8244964061305,65,001,2023_Apr_10_1200,SpeechDraft1Carolyn_lessNoise_PlusLocalization,2021.2.3,59.88602477483771,
,,,,,,,,midRight,13.0,3,ch1Sound_localizationTask.wav,13.0,"(1142, 878)","(182, -202)",190,-338,,,,,,,,,,,,,6,5,47,5,,,,,,,,,,,,,,,,,,,,,,,,,,,,,,,,,,,,,,,,1178.1080862120725,None,,,1181.1244062129408,None,1.5878306878306878,0.533377309795469,1181.1244062129408,None,,,,,,,1179.1080075171776,None,1179.2912649298087,1179.3078953810036,65,001,2023_Apr_10_1200,SpeechDraft1Carolyn_lessNoise_PlusLocalization,2021.2.3,59.88602477483771,
,,,,,,,,midRight,13.0,3,ch1Sound_localizationTask.wav,13.0,"(1142, 878)","(182, -202)",190,-338,,,,,,,,,,,,,6,6,48,5,,,,,,,,,,,,,,,,,,,,,,,,,,,,,,,,,,,,,,,,1181.6747122551315,None,,,1184.6910574077629,None,1.6058201058201058,0.7824935098178685,1184.6910574077629,None,,,,,,,1182.6746559287421,None,1182.8578540668823,1182.8746417751536,65,001,2023_Apr_10_1200,SpeechDraft1Carolyn_lessNoise_PlusLocalization,2021.2.3,59.88602477483771,
,,,,,,,,nearLeft,-6.5,1,ch1Sound_localizationTask.wav,-6.5,"(857, 878)","(-103,-202)",-95,-338,,,,,,,,,,,,,7,0,49,2,,,,,,,,,,,,,,,,,,,,,,,,,,,,,,,,,,,,,,,,1185.4755796319805,None,,,1188.507599816192,None,1.4296296296296296,0.749235044233501,1188.507599816192,None,,,,,,,1186.4913598471321,None,1186.6745007587597,1186.6913653011434,65,001,2023_Apr_10_1200,SpeechDraft1Carolyn_lessNoise_PlusLocalization,2021.2.3,59.88602477483771,
,,,,,,,,midLeft,-13.0,2,ch1Sound_localizationTask.wav,-13.0,"(762, 878)","(-198,-202)",-190,-338,,,,,,,,,,,,,7,1,50,1,,,,,,,,,,,,,,,,,,,,,,,,,,,,,,,,,,,,,,,,1189.2746994988993,None,,,1192.2910679169,None,1.374074074074074,0.9324786351062357,1192.2910679169,None,,,,,,,1190.2745451899245,None,1190.4578755670227,1190.4745223857462,65,001,2023_Apr_10_1200,SpeechDraft1Carolyn_lessNoise_PlusLocalization,2021.2.3,59.88602477483771,
,,,,,,,,midLeft,-13.0,2,ch1Sound_localizationTask.wav,-13.0,"(762, 878)","(-198,-202)",-190,-338,,,,,,,,,,,,,7,2,51,1,,,,,,,,,,,,,,,,,,,,,,,,,,,,,,,,,,,,,,,,1193.2263038130477,None,,,1196.2574993497692,None,1.3650793650793651,0.6996917529031634,1196.2574993497692,None,,,,,,,1194.2413524640724,None,1194.4246854661033,1194.4412694368511,65,001,2023_Apr_10_1200,SpeechDraft1Carolyn_lessNoise_PlusLocalization,2021.2.3,59.88602477483771,
,,,,,,,,nearLeft,-6.5,1,ch1Sound_localizationTask.wav,-6.5,"(857, 878)","(-103,-202)",-95,-338,,,,,,,,,,,,,7,3,52,2,,,,,,,,,,,,,,,,,,,,,,,,,,,,,,,,,,,,,,,,1196.9746580119245,None,,,1199.9910001228563,None,1.461904761904762,0.8327238159254193,1199.9910001228563,None,,,,,,,1197.9747880268842,None,1198.1580553501844,1198.1745918449014,65,001,2023_Apr_10_1200,SpeechDraft1Carolyn_lessNoise_PlusLocalization,2021.2.3,59.88602477483771,
,,,,,,,,farLeft,-19.1,5,ch1Sound_localizationTask.wav,-19.1,"(667, 878)","(-293,-202)",-285,-338,,,,,,,,,,,,,7,4,53,0,,,,,,,,,,,,,,,,,,,,,,,,,,,,,,,,,,,,,,,,1200.8413378661498,None,,,1203.857741503045,None,1.3264550264550263,0.9169431230984628,1203.857741503045,None,,,,,,,1201.841210743878,None,1202.0247943787836,1202.0412387331016,65,001,2023_Apr_10_1200,SpeechDraft1Carolyn_lessNoise_PlusLocalization,2021.2.3,59.88602477483771,
,,,,,,,,midRight,13.0,3,ch1Sound_localizationTask.wav,13.0,"(1142, 878)","(182, -202)",190,-338,,,,,,,,,,,,,7,5,54,5,,,,,,,,,,,,,,,,,,,,,,,,,,,,,,,,,,,,,,,,1204.791430710815,None,,,1207.807698064018,None,1.621164021164021,0.9832484517246485,1207.807698064018,None,,,,,,,1205.7913603559136,None,1205.974785793107,1205.991438111756,65,001,2023_Apr_10_1200,SpeechDraft1Carolyn_lessNoise_PlusLocalization,2021.2.3,59.88602477483771,
,,,,,,,,midLeft,-13.0,2,ch1Sound_localizationTask.wav,-13.0,"(762, 878)","(-198,-202)",-190,-338,,,,,,,,,,,,,7,6,55,1,,,,,,,,,,,,,,,,,,,,,,,,,,,,,,,,,,,,,,,,1208.792945079971,None,,,1211.8243800257333,None,1.3714285714285714,0.8838255642913282,1211.8243800257333,None,,,,,,,1209.8081223657355,None,1209.9915079539642,1210.0079077337869,65,001,2023_Apr_10_1200,SpeechDraft1Carolyn_lessNoise_PlusLocalization,2021.2.3,59.88602477483771,
