Audio_Only_Files,Video_Files,Original_Word_List,noiseLevelCode,conditionCodes,noiseLevelFile1,noiseLevelFile2,InstrTextVar,targetSpeakerName,targetSpeakerEccen,targetSpkrChannel,targetSpkrSound,targetVisualDegrees,visStimLoc,visStimLoc2,visStimW,visStimH,practiceTrials.thisRepN,practiceTrials.thisTrialN,practiceTrials.thisN,practiceTrials.thisIndex,trials.thisRepN,trials.thisTrialN,trials.thisN,trials.thisIndex,audLocalLoop.thisRepN,audLocalLoop.thisTrialN,audLocalLoop.thisN,audLocalLoop.thisIndex,visualLocalLoop.thisRepN,visualLocalLoop.thisTrialN,visualLocalLoop.thisN,visualLocalLoop.thisIndex,letsGoAlready.keys,letsGoAlready.rt,letsGoAlready.started,letsGoAlready.stopped,text_2.started,text_2.stopped,text_3.started,text_3.stopped,key_resp_2.keys,key_resp_2.rt,key_resp_2.started,key_resp_2.stopped,text_5.started,text_5.stopped,fixCross.started,fixCross.stopped,fixCross2.started,fixCross2.stopped,answerPrompt.started,answerPrompt.stopped,getAnswer.text,getAnswer.started,getAnswer.stopped,goToNext.keys,goToNext.rt,goToNext.started,goToNext.stopped,stretchBreakTxrt.started,stretchBreakTxrt.stopped,key_resp_3.keys,key_resp_3.rt,key_resp_3.started,key_resp_3.stopped,letsGoLocal.keys,letsGoLocal.rt,letsGoLocal.started,letsGoLocal.stopped,text_4.started,text_4.stopped,prepFixTxt.started,prepFixTxt.stopped,prepFixTxt_2.started,prepFixTxt_2.stopped,respPromptLocal.started,respPromptLocal.stopped,slider.response,slider.rt,slider.started,slider.stopped,letsGoLocal_2.keys,letsGoLocal_2.rt,letsGoLocal_2.started,letsGoLocal_2.stopped,text_7.started,text_7.stopped,prepFixTxt_3.started,prepFixTxt_3.stopped,grating.started,grating.stopped,exitTxt.started,exitTxt.stopped,key_resp.keys,key_resp.rt,key_resp.started,key_resp.stopped,participant,session,date,expName,psychopyVersion,frameRate,
,,,,,,,,,,,,,,,,,,,,,,,,,,,,,,,,,space,9.04573922092095,12.251727340277284,None,,,,,,,,,,,,,,,,,,,,,,,,,,,,,,,,,,,,,,,,,,,,,,,,,,,,,,,,,,,,,,66,001,2023_Apr_10_1749,SpeechDraft1Carolyn_lessNoise_PlusLocalization,2021.2.3,59.94542605016756,
,,,,,,,,,,,,,,,,,,,,,,,,,,,,,,,,,,,,,12.251727340277284,None,21.418310716282576,None,space,6.968287745025009,21.601129652000964,None,,,,,,,,,,,,,,,,,,,,,,,,,,,,,,,,,,,,,,,,,,,,,,,,,,,,,,66,001,2023_Apr_10_1749,SpeechDraft1Carolyn_lessNoise_PlusLocalization,2021.2.3,59.94542605016756,
ash.wav,ash.mpg,ash,1,A,Pink_Noise_1_1.wav,Pink_Noise_1_2.wav,"This is an example of an

AUDIO trial",,,,,,,,,,0,0,0,0,,,,,,,,,,,,,,,,,,,,,,,,,28.618131806142628,None,29.618150518275797,None,32.83469281112775,None,34.234087377320975,None,ash,34.234087377320975,None,return,3.5482821981422603,34.3012222032994,None,,,,,,,,,,,,,,,,,,,,,,,,,,,,,,,,,,,,,,,66,001,2023_Apr_10_1749,SpeechDraft1Carolyn_lessNoise_PlusLocalization,2021.2.3,59.94542605016756,
ash.wav,ash.mpg,ash,1,AV,Pink_Noise_1_1.wav,Pink_Noise_1_2.wav,"This is an example of an

AUDIO + VIDEO  trial",,,,,,,,,,0,1,1,1,,,,,,,,,,,,,,,,,,,,,,,,,37.88413193402812,None,38.8846533363685,None,40.36851540626958,None,41.75113473832607,None,"ash
",41.75113473832607,None,return,2.7188717210665345,41.83455153927207,None,,,,,,,,,,,,,,,,,,,,,,,,,,,,,,,,,,,,,,,66,001,2023_Apr_10_1749,SpeechDraft1Carolyn_lessNoise_PlusLocalization,2021.2.3,59.94542605016756,
,,,,,,,,,,,,,,,,,,,,,,,,,,,,,,,,,,,,,,,,,,,,,,,,,,,,,,,,,,,,44.600884195417166,None,space,10.928682643920183,44.78474525734782,None,,,,,,,,,,,,,,,,,,,,,,,,,,,,,,,,,66,001,2023_Apr_10_1749,SpeechDraft1Carolyn_lessNoise_PlusLocalization,2021.2.3,59.94542605016756,
beat.wav,beat.mpg,beat,3,A,Pink_Noise_3_1.wav,Pink_Noise_3_2.wav,,,,,,,,,,,,,,,0,0,0,6,,,,,,,,,,,,,,,,,,,,,,,55.767620102036744,None,57.250946168322116,None,58.63454411318526,None,"feet
",58.63454411318526,None,return,3.4672847911715508,58.718144986312836,None,,,,,,,,,,,,,,,,,,,,,,,,,,,,,,,,,,,,,,,66,001,2023_Apr_10_1749,SpeechDraft1Carolyn_lessNoise_PlusLocalization,2021.2.3,59.94542605016756,
bail.wav,bail.mpg,bail,5,AV,Pink_Noise_5_1.wav,Pink_Noise_5_2.wav,,,,,,,,,,,,,,,0,1,1,84,,,,,,,,,,,,,,,,,,,,,,,62.218063668347895,None,63.71782585140318,None,65.10130003420636,None,bail,65.10130003420636,None,return,5.704857625998557,65.18462636228651,None,,,,,,,,,,,,,,,,,,,,,,,,,,,,,,,,,,,,,,,66,001,2023_Apr_10_1749,SpeechDraft1Carolyn_lessNoise_PlusLocalization,2021.2.3,59.94542605016756,
dust.wav,dust.mpg,dust,1,A,Pink_Noise_1_1.wav,Pink_Noise_1_2.wav,,,,,,,,,,,,,,,0,2,2,54,,,,,,,,,,,,,,,,,,,,,,,70.9181796843186,None,72.41776692913845,None,73.80132129229605,None,dust,73.80132129229605,None,return,0.9967306572943926,73.88477595103905,None,,,,,,,,,,,,,,,,,,,,,,,,,,,,,,,,,,,,,,,66,001,2023_Apr_10_1749,SpeechDraft1Carolyn_lessNoise_PlusLocalization,2021.2.3,59.94542605016756,
fowl.wav,fowl.mpg,fowl,2,A,Pink_Noise_2_1.wav,Pink_Noise_2_2.wav,,,,,,,,,,,,,,,0,3,3,59,,,,,,,,,,,,,,,,,,,,,,,74.90132902003825,None,76.40102361608297,None,77.78483614837751,None,foul,77.78483614837751,None,return,5.845342223066837,77.86807329207659,None,,,,,,,,,,,,,,,,,,,,,,,,,,,,,,,,,,,,,,,66,001,2023_Apr_10_1749,SpeechDraft1Carolyn_lessNoise_PlusLocalization,2021.2.3,59.94542605016756,
card.wav,card.mpg,card,4,A,Pink_Noise_4_1.wav,Pink_Noise_4_2.wav,,,,,,,,,,,,,,,0,4,4,45,,,,,,,,,,,,,,,,,,,,,,,83.73468980519101,None,85.23469538614154,None,86.61803363543004,None,card,86.61803363543004,None,return,0.9961747298948467,86.70131292426959,None,,,,,,,,,,,,,,,,,,,,,,,,,,,,,,,,,,,,,,,66,001,2023_Apr_10_1749,SpeechDraft1Carolyn_lessNoise_PlusLocalization,2021.2.3,59.94542605016756,
chump.wav,chump.mpg,chump,6,A,Pink_Noise_6_1.wav,Pink_Noise_6_2.wav,,,,,,,,,,,,,,,0,5,5,38,,,,,,,,,,,,,,,,,,,,,,,87.71816750708967,None,89.21770063135773,None,90.60149207012728,None,church,90.60149207012728,None,return,13.444721619132906,90.68471368402243,None,,,,,,,,,,,,,,,,,,,,,,,,,,,,,,,,,,,,,,,66,001,2023_Apr_10_1749,SpeechDraft1Carolyn_lessNoise_PlusLocalization,2021.2.3,59.94542605016756,
cliff.wav,cliff.mpg,cliff,6,A,Pink_Noise_6_1.wav,Pink_Noise_6_2.wav,,,,,,,,,,,,,,,0,6,6,10,,,,,,,,,,,,,,,,,,,,,,,104.15149322198704,None,105.6344360881485,None,107.01808690931648,None,dip,107.01808690931648,None,return,2.524285457096994,107.10123320110142,None,,,,,,,,,,,,,,,,,,,,,,,,,,,,,,,,,,,,,,,66,001,2023_Apr_10_1749,SpeechDraft1Carolyn_lessNoise_PlusLocalization,2021.2.3,59.94542605016756,
barn.wav,barn.mpg,barn,6,AV,Pink_Noise_6_1.wav,Pink_Noise_6_2.wav,,,,,,,,,,,,,,,0,7,7,82,,,,,,,,,,,,,,,,,,,,,,,109.65133587829769,None,111.16792841115966,None,112.55139659624547,None,bard,112.55139659624547,None,return,10.830833625979722,112.63460004329681,None,,,,,,,,,,,,,,,,,,,,,,,,,,,,,,,,,,,,,,,66,001,2023_Apr_10_1749,SpeechDraft1Carolyn_lessNoise_PlusLocalization,2021.2.3,59.94542605016756,
sake.wav,sake.mpg,sake,3,A,Pink_Noise_3_1.wav,Pink_Noise_3_2.wav,,,,,,,,,,,,,,,0,8,8,55,,,,,,,,,,,,,,,,,,,,,,,123.4847609451972,None,124.96803828328848,None,126.35159062314779,None,sink,126.35159062314779,None,return,1.838771556969732,126.4347532140091,None,,,,,,,,,,,,,,,,,,,,,,,,,,,,,,,,,,,,,,,66,001,2023_Apr_10_1749,SpeechDraft1Carolyn_lessNoise_PlusLocalization,2021.2.3,59.94542605016756,
clutch.wav,clutch.mpg,clutch,3,A,Pink_Noise_3_1.wav,Pink_Noise_3_2.wav,,,,,,,,,,,,,,,0,9,9,9,,,,,,,,,,,,,,,,,,,,,,,128.30126731842756,None,129.80122933303937,None,131.18473778339103,None,clutc,131.18473778339103,None,return,1.1895873728208244,131.26796454098076,None,,,,,,,,,,,,,,,,,,,,,,,,,,,,,,,,,,,,,,,66,001,2023_Apr_10_1749,SpeechDraft1Carolyn_lessNoise_PlusLocalization,2021.2.3,59.94542605016756,
drum.wav,drum.mpg,drum,4,AV,Pink_Noise_4_1.wav,Pink_Noise_4_2.wav,,,,,,,,,,,,,,,0,10,10,114,,,,,,,,,,,,,,,,,,,,,,,132.4847240173258,None,133.98431263538077,None,135.36789317103103,None,drum,135.36789317103103,None,return,1.0061787879094481,135.4513246663846,None,,,,,,,,,,,,,,,,,,,,,,,,,,,,,,,,,,,,,,,66,001,2023_Apr_10_1749,SpeechDraft1Carolyn_lessNoise_PlusLocalization,2021.2.3,59.94542605016756,
grab.wav,grab.mpg,grab,2,A,Pink_Noise_2_1.wav,Pink_Noise_2_2.wav,,,,,,,,,,,,,,,0,11,11,35,,,,,,,,,,,,,,,,,,,,,,,136.484728240408,None,137.98474291013554,None,139.36839511897415,None,"gram
",139.36839511897415,None,return,0.8860651347786188,139.45136824343354,None,,,,,,,,,,,,,,,,,,,,,,,,,,,,,,,,,,,,,,,66,001,2023_Apr_10_1749,SpeechDraft1Carolyn_lessNoise_PlusLocalization,2021.2.3,59.94542605016756,
fish.wav,fish.mpg,fish,4,AV,Pink_Noise_4_1.wav,Pink_Noise_4_2.wav,,,,,,,,,,,,,,,0,12,12,81,,,,,,,,,,,,,,,,,,,,,,,140.36816863529384,None,141.8678874420002,None,143.25123383803293,None,fish,143.25123383803293,None,return,3.770579073112458,143.33482459234074,None,,,,,,,,,,,,,,,,,,,,,,,,,,,,,,,,,,,,,,,66,001,2023_Apr_10_1749,SpeechDraft1Carolyn_lessNoise_PlusLocalization,2021.2.3,59.94542605016756,
check.wav,check.mpg,check,3,A,Pink_Noise_3_1.wav,Pink_Noise_3_2.wav,,,,,,,,,,,,,,,0,13,13,29,,,,,,,,,,,,,,,,,,,,,,,147.13487365934998,None,148.63439887901768,None,150.01818611938506,None,check,150.01818611938506,None,return,0.876132455188781,150.1013318472542,None,,,,,,,,,,,,,,,,,,,,,,,,,,,,,,,,,,,,,,,66,001,2023_Apr_10_1749,SpeechDraft1Carolyn_lessNoise_PlusLocalization,2021.2.3,59.94542605016756,
beg.wav,beg.mpg,beg,6,AV,Pink_Noise_6_1.wav,Pink_Noise_6_2.wav,,,,,,,,,,,,,,,0,14,14,97,,,,,,,,,,,,,,,,,,,,,,,151.0014043841511,None,152.50109954504296,None,153.8845811523497,None,bake,153.8845811523497,None,return,6.393187834881246,153.96821020916104,None,,,,,,,,,,,,,,,,,,,,,,,,,,,,,,,,,,,,,,,66,001,2023_Apr_10_1749,SpeechDraft1Carolyn_lessNoise_PlusLocalization,2021.2.3,59.94542605016756,
budge.wav,budge.mpg,budge,1,A,Pink_Noise_1_1.wav,Pink_Noise_1_2.wav,,,,,,,,,,,,,,,0,15,15,52,,,,,,,,,,,,,,,,,,,,,,,160.38488186942413,None,161.8844978660345,None,163.26818251842633,None,"fudge
",163.26818251842633,None,return,4.569836996961385,163.3515847143717,None,,,,,,,,,,,,,,,,,,,,,,,,,,,,,,,,,,,,,,,66,001,2023_Apr_10_1749,SpeechDraft1Carolyn_lessNoise_PlusLocalization,2021.2.3,59.94542605016756,
gone.wav,gone.mpg,gone,6,A,Pink_Noise_6_1.wav,Pink_Noise_6_2.wav,,,,,,,,,,,,,,,0,16,16,37,,,,,,,,,,,,,,,,,,,,,,,167.9514150111936,None,169.45101037528366,None,170.83470312226564,None,drone,170.83470312226564,None,return,2.515196905937046,170.91829722514376,None,,,,,,,,,,,,,,,,,,,,,,,,,,,,,,,,,,,,,,,66,001,2023_Apr_10_1749,SpeechDraft1Carolyn_lessNoise_PlusLocalization,2021.2.3,59.94542605016756,
chief.wav,chief.mpg,chief,4,A,Pink_Noise_4_1.wav,Pink_Noise_4_2.wav,,,,,,,,,,,,,,,0,17,17,51,,,,,,,,,,,,,,,,,,,,,,,173.4516683141701,None,174.9510335093364,None,176.3349528843537,None,chief,176.3349528843537,None,return,0.9833598886616528,176.41812563221902,None,,,,,,,,,,,,,,,,,,,,,,,,,,,,,,,,,,,,,,,66,001,2023_Apr_10_1749,SpeechDraft1Carolyn_lessNoise_PlusLocalization,2021.2.3,59.94542605016756,
nine.wav,nine.mpg,nine,1,AV,Pink_Noise_1_1.wav,Pink_Noise_1_2.wav,,,,,,,,,,,,,,,0,18,18,108,,,,,,,,,,,,,,,,,,,,,,,177.41808129940182,None,178.9180296701379,None,180.30147734330967,None,nine,180.30147734330967,None,return,1.7205413677729666,180.38488020235673,None,,,,,,,,,,,,,,,,,,,,,,,,,,,,,,,,,,,,,,,66,001,2023_Apr_10_1749,SpeechDraft1Carolyn_lessNoise_PlusLocalization,2021.2.3,59.94542605016756,
food.wav,food.mpg,food,2,A,Pink_Noise_2_1.wav,Pink_Noise_2_2.wav,,,,,,,,,,,,,,,0,19,19,17,,,,,,,,,,,,,,,,,,,,,,,182.13493045140058,None,183.63440826022997,None,185.01809437200427,None,food,185.01809437200427,None,return,0.772004425060004,185.10149253718555,None,,,,,,,,,,,,,,,,,,,,,,,,,,,,,,,,,,,,,,,66,001,2023_Apr_10_1749,SpeechDraft1Carolyn_lessNoise_PlusLocalization,2021.2.3,59.94542605016756,
grown.wav,grown.mpg,grown,5,A,Pink_Noise_5_1.wav,Pink_Noise_5_2.wav,,,,,,,,,,,,,,,0,20,20,7,,,,,,,,,,,,,,,,,,,,,,,185.9015599573031,None,187.40104058105499,None,188.78498480515555,None,drove,188.78498480515555,None,return,1.4133613919839263,188.86816373141482,None,,,,,,,,,,,,,,,,,,,,,,,,,,,,,,,,,,,,,,,66,001,2023_Apr_10_1749,SpeechDraft1Carolyn_lessNoise_PlusLocalization,2021.2.3,59.94542605016756,
bleed.wav,bleed.mpg,bleed,2,A,Pink_Noise_2_1.wav,Pink_Noise_2_2.wav,,,,,,,,,,,,,,,0,21,21,39,,,,,,,,,,,,,,,,,,,,,,,190.30157526303083,None,191.80119055742398,None,193.18495373241603,None,lead,193.18495373241603,None,return,0.8213040940463543,193.26810856629163,None,,,,,,,,,,,,,,,,,,,,,,,,,,,,,,,,,,,,,,,66,001,2023_Apr_10_1749,SpeechDraft1Carolyn_lessNoise_PlusLocalization,2021.2.3,59.94542605016756,
shed.wav,shed.mpg,shed,2,AV,Pink_Noise_2_1.wav,Pink_Noise_2_2.wav,,,,,,,,,,,,,,,0,22,22,113,,,,,,,,,,,,,,,,,,,,,,,194.1183578041382,None,195.61770207434893,None,197.00144445011392,None,shed,197.00144445011392,None,return,0.7885904908180237,197.08492613537237,None,,,,,,,,,,,,,,,,,,,,,,,,,,,,,,,,,,,,,,,66,001,2023_Apr_10_1749,SpeechDraft1Carolyn_lessNoise_PlusLocalization,2021.2.3,59.94542605016756,
awe.wav,awe.mpg,awe,6,A,Pink_Noise_6_1.wav,Pink_Noise_6_2.wav,,,,,,,,,,,,,,,0,23,23,19,,,,,,,,,,,,,,,,,,,,,,,197.90148923825473,None,199.40130004798993,None,200.784860949032,None,pull,200.784860949032,None,return,3.3253810019232333,200.86804621713236,None,,,,,,,,,,,,,,,,,,,,,,,,,,,,,,,,,,,,,,,66,001,2023_Apr_10_1749,SpeechDraft1Carolyn_lessNoise_PlusLocalization,2021.2.3,59.94542605016756,
grunt.wav,grunt.mpg,grunt,2,AV,Pink_Noise_2_1.wav,Pink_Noise_2_2.wav,,,,,,,,,,,,,,,0,24,24,107,,,,,,,,,,,,,,,,,,,,,,,204.218289939221,None,205.7179536120966,None,207.10150036821142,None,grunt,207.10150036821142,None,return,1.3926582029089332,207.18479324597865,None,,,,,,,,,,,,,,,,,,,,,,,,,,,,,,,,,,,,,,,66,001,2023_Apr_10_1749,SpeechDraft1Carolyn_lessNoise_PlusLocalization,2021.2.3,59.94542605016756,
buy.wav,buy.mpg,buy,3,AV,Pink_Noise_3_1.wav,Pink_Noise_3_2.wav,,,,,,,,,,,,,,,0,25,25,69,,,,,,,,,,,,,,,,,,,,,,,208.6014301823452,None,210.1013581319712,None,211.48493648134172,None,"by
",211.48493648134172,None,return,0.985153925139457,211.56826633913442,None,,,,,,,,,,,,,,,,,,,,,,,,,,,,,,,,,,,,,,,66,001,2023_Apr_10_1749,SpeechDraft1Carolyn_lessNoise_PlusLocalization,2021.2.3,59.94542605016756,
cruel.wav,cruel.mpg,cruel,5,A,Pink_Noise_5_1.wav,Pink_Noise_5_2.wav,,,,,,,,,,,,,,,0,26,26,43,,,,,,,,,,,,,,,,,,,,,,,212.58503601932898,None,214.0846630912274,None,215.46826670039445,None,cool,215.46826670039445,None,return,0.7300575827248394,215.5514767523855,None,,,,,,,,,,,,,,,,,,,,,,,,,,,,,,,,,,,,,,,66,001,2023_Apr_10_1749,SpeechDraft1Carolyn_lessNoise_PlusLocalization,2021.2.3,59.94542605016756,
dad.wav,dad.mpg,dad,4,A,Pink_Noise_4_1.wav,Pink_Noise_4_2.wav,,,,,,,,,,,,,,,0,27,27,15,,,,,,,,,,,,,,,,,,,,,,,216.30151818320155,None,217.8011295311153,None,219.1850153231062,None,there,219.1850153231062,None,return,1.3652369361370802,219.26826301636174,None,,,,,,,,,,,,,,,,,,,,,,,,,,,,,,,,,,,,,,,66,001,2023_Apr_10_1749,SpeechDraft1Carolyn_lessNoise_PlusLocalization,2021.2.3,59.94542605016756,
beef.wav,beef.mpg,beef,4,A,Pink_Noise_4_1.wav,Pink_Noise_4_2.wav,,,,,,,,,,,,,,,0,28,28,14,,,,,,,,,,,,,,,,,,,,,,,220.65173083730042,None,222.15128793939948,None,223.53483659308404,None,eat,223.53483659308404,None,return,1.2631189608946443,223.61836971901357,None,,,,,,,,,,,,,,,,,,,,,,,,,,,,,,,,,,,,,,,66,001,2023_Apr_10_1749,SpeechDraft1Carolyn_lessNoise_PlusLocalization,2021.2.3,59.94542605016756,
choke.wav,choke.mpg,choke,5,AV,Pink_Noise_5_1.wav,Pink_Noise_5_2.wav,,,,,,,,,,,,,,,0,29,29,79,,,,,,,,,,,,,,,,,,,,,,,224.90154349524528,None,226.4013831061311,None,227.78479544911534,None,choke,227.78479544911534,None,return,2.9411111059598625,227.86832299921662,None,,,,,,,,,,,,,,,,,,,,,,,,,,,,,,,,,,,,,,,66,001,2023_Apr_10_1749,SpeechDraft1Carolyn_lessNoise_PlusLocalization,2021.2.3,59.94542605016756,
duet.wav,duet.mpg,duet,6,AV,Pink_Noise_6_1.wav,Pink_Noise_6_2.wav,,,,,,,,,,,,,,,0,30,30,76,,,,,,,,,,,,,,,,,,,,,,,230.8348466050811,None,232.33456750540063,None,233.71826144400984,None,drone,233.71826144400984,None,return,12.695982640143484,233.8014103481546,None,,,,,,,,,,,,,,,,,,,,,,,,,,,,,,,,,,,,,,,66,001,2023_Apr_10_1749,SpeechDraft1Carolyn_lessNoise_PlusLocalization,2021.2.3,59.94542605016756,
wine.wav,wine.mpg,wine,6,AV,Pink_Noise_6_1.wav,Pink_Noise_6_2.wav,,,,,,,,,,,,,,,0,31,31,103,,,,,,,,,,,,,,,,,,,,,,,246.51831196527928,None,248.01776575529948,None,249.4016719199717,None,why,249.4016719199717,None,return,2.9165428071282804,249.48495616810396,None,,,,,,,,,,,,,,,,,,,,,,,,,,,,,,,,,,,,,,,66,001,2023_Apr_10_1749,SpeechDraft1Carolyn_lessNoise_PlusLocalization,2021.2.3,59.94542605016756,
clash.wav,clash.mpg,clash,5,A,Pink_Noise_5_1.wav,Pink_Noise_5_2.wav,,,,,,,,,,,,,,,0,32,32,57,,,,,,,,,,,,,,,,,,,,,,,252.41815636632964,None,253.91782533098012,None,255.30165564035997,None,lash,255.30165564035997,None,return,2.1284079840406775,255.38500540936366,None,,,,,,,,,,,,,,,,,,,,,,,,,,,,,,,,,,,,,,,66,001,2023_Apr_10_1749,SpeechDraft1Carolyn_lessNoise_PlusLocalization,2021.2.3,59.94542605016756,
ghost.wav,ghost.mpg,ghost,2,AV,Pink_Noise_2_1.wav,Pink_Noise_2_2.wav,,,,,,,,,,,,,,,0,33,33,102,,,,,,,,,,,,,,,,,,,,,,,257.53516853414476,None,259.0344772064127,None,260.41824723314494,None,ghost,260.41824723314494,None,return,1.428017305675894,260.50144616607577,None,,,,,,,,,,,,,,,,,,,,,,,,,,,,,,,,,,,,,,,66,001,2023_Apr_10_1749,SpeechDraft1Carolyn_lessNoise_PlusLocalization,2021.2.3,59.94542605016756,
mars.wav,mars.mpg,mars,1,AV,Pink_Noise_1_1.wav,Pink_Noise_1_2.wav,,,,,,,,,,,,,,,0,34,34,72,,,,,,,,,,,,,,,,,,,,,,,261.9516507233493,None,263.45135377626866,None,264.8348345141858,None,mars,264.8348345141858,None,return,1.7791262781247497,264.91828706720844,None,,,,,,,,,,,,,,,,,,,,,,,,,,,,,,,,,,,,,,,66,001,2023_Apr_10_1749,SpeechDraft1Carolyn_lessNoise_PlusLocalization,2021.2.3,59.94542605016756,
brain.wav,brain.mpg,brain,4,AV,Pink_Noise_4_1.wav,Pink_Noise_4_2.wav,,,,,,,,,,,,,,,0,35,35,77,,,,,,,,,,,,,,,,,,,,,,,266.71818122221157,None,268.21811776515096,None,269.60173403006047,None,brave,269.60173403006047,None,return,2.580550789833069,269.684930938296,None,,,,,,,,,,,,,,,,,,,,,,,,,,,,,,,,,,,,,,,66,001,2023_Apr_10_1749,SpeechDraft1Carolyn_lessNoise_PlusLocalization,2021.2.3,59.94542605016756,
gloom.wav,gloom.mpg,gloom,3,A,Pink_Noise_3_1.wav,Pink_Noise_3_2.wav,,,,,,,,,,,,,,,0,36,36,56,,,,,,,,,,,,,,,,,,,,,,,272.28500925237313,None,273.78477120539173,None,275.16838148841634,None,"glue
",275.16838148841634,None,return,0.5177112049423158,275.2517128381878,None,,,,,,,,,,,,,,,,,,,,,,,,,,,,,,,,,,,,,,,66,001,2023_Apr_10_1749,SpeechDraft1Carolyn_lessNoise_PlusLocalization,2021.2.3,59.94542605016756,
glove.wav,glove.mpg,glove,4,A,Pink_Noise_4_1.wav,Pink_Noise_4_2.wav,,,,,,,,,,,,,,,0,37,37,26,,,,,,,,,,,,,,,,,,,,,,,275.80155802704394,None,277.3013999592513,None,278.6849671723321,None,glove,278.6849671723321,None,return,1.4971061279065907,278.7683561742306,None,,,,,,,,,,,,,,,,,,,,,,,,,,,,,,,,,,,,,,,66,001,2023_Apr_10_1749,SpeechDraft1Carolyn_lessNoise_PlusLocalization,2021.2.3,59.94542605016756,
cry.wav,cry.mpg,cry,1,AV,Pink_Noise_1_1.wav,Pink_Noise_1_2.wav,,,,,,,,,,,,,,,0,38,38,78,,,,,,,,,,,,,,,,,,,,,,,280.2850815691054,None,281.78474662732333,None,283.16828511003405,None,cry,283.16828511003405,None,return,0.9658445692621171,283.25163898430765,None,,,,,,,,,,,,,,,,,,,,,,,,,,,,,,,,,,,,,,,66,001,2023_Apr_10_1749,SpeechDraft1Carolyn_lessNoise_PlusLocalization,2021.2.3,59.94542605016756,
dog.wav,dog.mpg,dog,3,AV,Pink_Noise_3_1.wav,Pink_Noise_3_2.wav,,,,,,,,,,,,,,,0,39,39,105,,,,,,,,,,,,,,,,,,,,,,,284.2348831263371,None,285.73467810917646,None,287.1182018662803,None,dog,287.1182018662803,None,return,4.69574998319149,287.20168281905353,None,,,,,,,,,,,,,,,,,,,,,,,,,,,,,,,,,,,,,,,66,001,2023_Apr_10_1749,SpeechDraft1Carolyn_lessNoise_PlusLocalization,2021.2.3,59.94542605016756,
draw.wav,draw.mpg,draw,2,A,Pink_Noise_2_1.wav,Pink_Noise_2_2.wav,,,,,,,,,,,,,,,0,40,40,12,,,,,,,,,,,,,,,,,,,,,,,291.9184147519991,None,293.41800643038005,None,294.8016710099764,None,draw,294.8016710099764,None,return,1.0124112577177584,294.8850010652095,None,,,,,,,,,,,,,,,,,,,,,,,,,,,,,,,,,,,,,,,66,001,2023_Apr_10_1749,SpeechDraft1Carolyn_lessNoise_PlusLocalization,2021.2.3,59.94542605016756,
dull.wav,dull.mpg,dull,4,A,Pink_Noise_4_1.wav,Pink_Noise_4_2.wav,,,,,,,,,,,,,,,0,41,41,31,,,,,,,,,,,,,,,,,,,,,,,295.9183534909971,None,297.4179913662374,None,298.80171067640185,None,dull,298.80171067640185,None,return,6.316316113807261,298.8852310781367,None,,,,,,,,,,,,,,,,,,,,,,,,,,,,,,,,,,,,,,,66,001,2023_Apr_10_1749,SpeechDraft1Carolyn_lessNoise_PlusLocalization,2021.2.3,59.94542605016756,
cough.wav,cough.mpg,cough,3,AV,Pink_Noise_3_1.wav,Pink_Noise_3_2.wav,,,,,,,,,,,,,,,0,42,42,85,,,,,,,,,,,,,,,,,,,,,,,305.2182739232667,None,306.7179861953482,None,308.10180374607444,None,cough,308.10180374607444,None,return,5.3925376096740365,308.184863910079,None,,,,,,,,,,,,,,,,,,,,,,,,,,,,,,,,,,,,,,,66,001,2023_Apr_10_1749,SpeechDraft1Carolyn_lessNoise_PlusLocalization,2021.2.3,59.94542605016756,
flaw.wav,flaw.mpg,flaw,2,AV,Pink_Noise_2_1.wav,Pink_Noise_2_2.wav,,,,,,,,,,,,,,,0,43,43,101,,,,,,,,,,,,,,,,,,,,,,,313.6018056492321,None,315.1016803099774,None,316.4850365850143,None,flaw,316.4850365850143,None,return,0.7210499770008028,316.5683592632413,None,,,,,,,,,,,,,,,,,,,,,,,,,,,,,,,,,,,,,,,66,001,2023_Apr_10_1749,SpeechDraft1Carolyn_lessNoise_PlusLocalization,2021.2.3,59.94542605016756,
bend.wav,bend.mpg,bend,6,AV,Pink_Noise_6_1.wav,Pink_Noise_6_2.wav,,,,,,,,,,,,,,,0,44,44,92,,,,,,,,,,,,,,,,,,,,,,,317.31854077242315,None,318.8180464031175,None,320.2017404092476,None,bake,320.2017404092476,None,return,8.444543722551316,320.2848732434213,None,,,,,,,,,,,,,,,,,,,,,,,,,,,,,,,,,,,,,,,66,001,2023_Apr_10_1749,SpeechDraft1Carolyn_lessNoise_PlusLocalization,2021.2.3,59.94542605016756,
guilt.wav,guilt.mpg,guilt,2,AV,Pink_Noise_2_1.wav,Pink_Noise_2_2.wav,,,,,,,,,,,,,,,0,45,45,60,,,,,,,,,,,,,,,,,,,,,,,328.75162352621555,None,330.25125164119527,None,331.6349986894056,None,guilt,331.6349986894056,None,return,0.8269552108831704,331.7184440130368,None,,,,,,,,,,,,,,,,,,,,,,,,,,,,,,,,,,,,,,,66,001,2023_Apr_10_1749,SpeechDraft1Carolyn_lessNoise_PlusLocalization,2021.2.3,59.94542605016756,
gaze.wav,gaze.mpg,gaze,3,AV,Pink_Noise_3_1.wav,Pink_Noise_3_2.wav,,,,,,,,,,,,,,,0,46,46,100,,,,,,,,,,,,,,,,,,,,,,,332.5683277309872,None,334.0680281743407,None,335.4515037550591,None,"gaze
",335.4515037550591,None,return,1.234435176011175,335.5349870622158,None,,,,,,,,,,,,,,,,,,,,,,,,,,,,,,,,,,,,,,,66,001,2023_Apr_10_1749,SpeechDraft1Carolyn_lessNoise_PlusLocalization,2021.2.3,59.94542605016756,
clean.wav,clean.mpg,clean,3,A,Pink_Noise_3_1.wav,Pink_Noise_3_2.wav,,,,,,,,,,,,,,,0,47,47,18,,,,,,,,,,,,,,,,,,,,,,,336.8015027772635,None,338.3015316450037,None,339.68524007638916,None,"feel
",339.68524007638916,None,return,4.168924578931183,339.7684950553812,None,,,,,,,,,,,,,,,,,,,,,,,,,,,,,,,,,,,,,,,66,001,2023_Apr_10_1749,SpeechDraft1Carolyn_lessNoise_PlusLocalization,2021.2.3,59.94542605016756,
stain.wav,stain.mpg,stain,4,AV,Pink_Noise_4_1.wav,Pink_Noise_4_2.wav,,,,,,,,,,,,,,,0,48,48,88,,,,,,,,,,,,,,,,,,,,,,,343.96849597338587,None,345.468078806065,None,346.8516846932471,None,stain,346.8516846932471,None,return,1.6903398525901139,346.93519386136904,None,,,,,,,,,,,,,,,,,,,,,,,,,,,,,,,,,,,,,,,66,001,2023_Apr_10_1749,SpeechDraft1Carolyn_lessNoise_PlusLocalization,2021.2.3,59.94542605016756,
toy.wav,toy.mpg,toy,5,AV,Pink_Noise_5_1.wav,Pink_Noise_5_2.wav,,,,,,,,,,,,,,,0,49,49,75,,,,,,,,,,,,,,,,,,,,,,,348.65167593816295,None,350.15145943313837,None,351.534898636397,None,short,351.534898636397,None,return,0.8472870150581002,351.61821739934385,None,,,,,,,,,,,,,,,,,,,,,,,,,,,,,,,,,,,,,,,66,001,2023_Apr_10_1749,SpeechDraft1Carolyn_lessNoise_PlusLocalization,2021.2.3,59.94542605016756,
chat.wav,chat.mpg,chat,2,A,Pink_Noise_2_1.wav,Pink_Noise_2_2.wav,,,,,,,,,,,,,,,0,50,50,48,,,,,,,,,,,,,,,,,,,,,,,352.4851496843621,None,353.9852578160353,None,355.36840469110757,None,"chant
",355.36840469110757,None,return,0.7336500091478229,355.45177354104817,None,,,,,,,,,,,,,,,,,,,,,,,,,,,,,,,,,,,,,,,66,001,2023_Apr_10_1749,SpeechDraft1Carolyn_lessNoise_PlusLocalization,2021.2.3,59.94542605016756,
glow.wav,glow.mpg,glow,2,AV,Pink_Noise_2_1.wav,Pink_Noise_2_2.wav,,,,,,,,,,,,,,,0,51,51,95,,,,,,,,,,,,,,,,,,,,,,,356.21835687942803,None,357.7181783770211,None,359.101785430219,None,"glow
",359.101785430219,None,return,0.752330033108592,359.1850995263085,None,,,,,,,,,,,,,,,,,,,,,,,,,,,,,,,,,,,,,,,66,001,2023_Apr_10_1749,SpeechDraft1Carolyn_lessNoise_PlusLocalization,2021.2.3,59.94542605016756,
game.wav,game.mpg,game,5,AV,Pink_Noise_5_1.wav,Pink_Noise_5_2.wav,,,,,,,,,,,,,,,0,52,52,91,,,,,,,,,,,,,,,,,,,,,,,359.96848237514496,None,361.4679794861004,None,362.85192128736526,None,game,362.85192128736526,None,return,0.5465925796888769,362.9349135123193,None,,,,,,,,,,,,,,,,,,,,,,,,,,,,,,,,,,,,,,,66,001,2023_Apr_10_1749,SpeechDraft1Carolyn_lessNoise_PlusLocalization,2021.2.3,59.94542605016756,
belt.wav,belt.mpg,belt,5,AV,Pink_Noise_5_1.wav,Pink_Noise_5_2.wav,,,,,,,,,,,,,,,0,53,53,74,,,,,,,,,,,,,,,,,,,,,,,363.5019697593525,None,365.0013270829804,None,366.385097050108,None,belt,366.385097050108,None,return,0.7490474390797317,366.4684756183997,None,,,,,,,,,,,,,,,,,,,,,,,,,,,,,,,,,,,,,,,66,001,2023_Apr_10_1749,SpeechDraft1Carolyn_lessNoise_PlusLocalization,2021.2.3,59.94542605016756,
blot.wav,blot.mpg,blot,3,AV,Pink_Noise_3_1.wav,Pink_Noise_3_2.wav,,,,,,,,,,,,,,,0,54,54,87,,,,,,,,,,,,,,,,,,,,,,,367.2351016760804,None,368.73486061021686,None,370.11857272312045,None,brunt,370.11857272312045,None,return,5.487817521207035,370.20158940413967,None,,,,,,,,,,,,,,,,,,,,,,,,,,,,,,,,,,,,,,,66,001,2023_Apr_10_1749,SpeechDraft1Carolyn_lessNoise_PlusLocalization,2021.2.3,59.94542605016756,
wet.wav,wet.mpg,wet,6,A,Pink_Noise_6_1.wav,Pink_Noise_6_2.wav,,,,,,,,,,,,,,,0,55,55,42,,,,,,,,,,,,,,,,,,,,,,,375.71839836612344,None,377.2349069551565,None,378.6018810472451,None,drone,378.6018810472451,None,return,4.1484471331350505,378.68507981533185,None,,,,,,,,,,,,,,,,,,,,,,,,,,,,,,,,,,,,,,,66,001,2023_Apr_10_1749,SpeechDraft1Carolyn_lessNoise_PlusLocalization,2021.2.3,59.94542605016756,
faint.wav,faint.mpg,faint,3,A,Pink_Noise_3_1.wav,Pink_Noise_3_2.wav,,,,,,,,,,,,,,,0,56,56,36,,,,,,,,,,,,,,,,,,,,,,,382.85173166403547,None,384.3514889520593,None,385.7351533980109,None,faint,385.7351533980109,None,return,0.49476118804886937,385.81867426633835,None,,,,,,,,,,,,,,,,,,,,,,,,,,,,,,,,,,,,,,,66,001,2023_Apr_10_1749,SpeechDraft1Carolyn_lessNoise_PlusLocalization,2021.2.3,59.94542605016756,
flirt.wav,flirt.mpg,flirt,1,AV,Pink_Noise_1_1.wav,Pink_Noise_1_2.wav,,,,,,,,,,,,,,,0,57,57,61,,,,,,,,,,,,,,,,,,,,,,,386.3351507303305,None,387.8347492250614,None,389.2185501283966,None,"flirt
",389.2185501283966,None,return,0.803726548794657,389.3016839250922,None,,,,,,,,,,,,,,,,,,,,,,,,,,,,,,,,,,,,,,,66,001,2023_Apr_10_1749,SpeechDraft1Carolyn_lessNoise_PlusLocalization,2021.2.3,59.94542605016756,
greek.wav,greek.mpg,greek,5,A,Pink_Noise_5_1.wav,Pink_Noise_5_2.wav,,,,,,,,,,,,,,,0,58,58,49,,,,,,,,,,,,,,,,,,,,,,,390.1351696900092,None,391.63636992825195,None,393.0184384114109,None,preach,393.0184384114109,None,return,1.4434850476682186,393.1019316073507,None,,,,,,,,,,,,,,,,,,,,,,,,,,,,,,,,,,,,,,,66,001,2023_Apr_10_1749,SpeechDraft1Carolyn_lessNoise_PlusLocalization,2021.2.3,59.94542605016756,
fine.wav,fine.mpg,fine,1,AV,Pink_Noise_1_1.wav,Pink_Noise_1_2.wav,,,,,,,,,,,,,,,0,59,59,80,,,,,,,,,,,,,,,,,,,,,,,394.5684349471703,None,396.06805395241827,None,397.4516497841105,None,fine,397.4516497841105,None,return,0.5304012657143176,397.5351408822462,None,,,,,,,,,,,,,,,,,,,,,,,,,,,,,,,,,,,,,,,66,001,2023_Apr_10_1749,SpeechDraft1Carolyn_lessNoise_PlusLocalization,2021.2.3,59.94542605016756,
cheat.wav,cheat.mpg,cheat,2,AV,Pink_Noise_2_1.wav,Pink_Noise_2_2.wav,,,,,,,,,,,,,,,0,60,60,66,,,,,,,,,,,,,,,,,,,,,,,398.08524869242683,None,399.58486040029675,None,400.9683928503655,None,cheat,400.9683928503655,None,return,1.061783874873072,401.05165680125356,None,,,,,,,,,,,,,,,,,,,,,,,,,,,,,,,,,,,,,,,66,001,2023_Apr_10_1749,SpeechDraft1Carolyn_lessNoise_PlusLocalization,2021.2.3,59.94542605016756,
build.wav,build.mpg,build,1,A,Pink_Noise_1_1.wav,Pink_Noise_1_2.wav,,,,,,,,,,,,,,,0,61,61,5,,,,,,,,,,,,,,,,,,,,,,,402.13526861928403,None,403.63486874336377,None,405.01834682608023,None,"built
",405.01834682608023,None,return,0.8835440217517316,405.1018819641322,None,,,,,,,,,,,,,,,,,,,,,,,,,,,,,,,,,,,,,,,66,001,2023_Apr_10_1749,SpeechDraft1Carolyn_lessNoise_PlusLocalization,2021.2.3,59.94542605016756,
eat.wav,eat.mpg,eat,3,AV,Pink_Noise_3_1.wav,Pink_Noise_3_2.wav,,,,,,,,,,,,,,,0,62,62,116,,,,,,,,,,,,,,,,,,,,,,,406.01854904042557,None,407.51876921998337,None,408.9018632150255,None,eat,408.9018632150255,None,return,0.5763600519858301,408.9850530200638,None,,,,,,,,,,,,,,,,,,,,,,,,,,,,,,,,,,,,,,,66,001,2023_Apr_10_1749,SpeechDraft1Carolyn_lessNoise_PlusLocalization,2021.2.3,59.94542605016756,
glad.wav,glad.mpg,glad,5,A,Pink_Noise_5_1.wav,Pink_Noise_5_2.wav,,,,,,,,,,,,,,,0,63,63,23,,,,,,,,,,,,,,,,,,,,,,,409.58505949610844,None,411.10166993830353,None,412.4853098881431,None,flag,412.4853098881431,None,return,0.7929045390337706,412.568504574243,None,,,,,,,,,,,,,,,,,,,,,,,,,,,,,,,,,,,,,,,66,001,2023_Apr_10_1749,SpeechDraft1Carolyn_lessNoise_PlusLocalization,2021.2.3,59.94542605016756,
boost.wav,boost.mpg,boost,4,AV,Pink_Noise_4_1.wav,Pink_Noise_4_2.wav,,,,,,,,,,,,,,,0,64,64,93,,,,,,,,,,,,,,,,,,,,,,,413.3850698741153,None,414.8852248233743,None,416.2685997639783,None,boost,416.2685997639783,None,return,0.8096676720306277,416.3517452874221,None,,,,,,,,,,,,,,,,,,,,,,,,,,,,,,,,,,,,,,,66,001,2023_Apr_10_1749,SpeechDraft1Carolyn_lessNoise_PlusLocalization,2021.2.3,59.94542605016756,
two.wav,two.mpg,two,6,AV,Pink_Noise_6_1.wav,Pink_Noise_6_2.wav,,,,,,,,,,,,,,,0,65,65,65,,,,,,,,,,,,,,,,,,,,,,,417.18508132733405,None,418.68691630940884,None,420.06844272324815,None,to,420.06844272324815,None,return,0.8255979348905385,420.15180766535923,None,,,,,,,,,,,,,,,,,,,,,,,,,,,,,,,,,,,,,,,66,001,2023_Apr_10_1749,SpeechDraft1Carolyn_lessNoise_PlusLocalization,2021.2.3,59.94542605016756,
dark.wav,dark.mpg,dark,2,A,Pink_Noise_2_1.wav,Pink_Noise_2_2.wav,,,,,,,,,,,,,,,0,66,66,46,,,,,,,,,,,,,,,,,,,,,,,421.00166139239445,None,422.50186012499034,None,423.8860873701051,None,dark,423.8860873701051,None,return,0.6487989951856434,423.96879268204793,None,,,,,,,,,,,,,,,,,,,,,,,,,,,,,,,,,,,,,,,66,001,2023_Apr_10_1749,SpeechDraft1Carolyn_lessNoise_PlusLocalization,2021.2.3,59.94542605016756,
base.wav,base.mpg,base,2,AV,Pink_Noise_2_1.wav,Pink_Noise_2_2.wav,,,,,,,,,,,,,,,0,67,67,111,,,,,,,,,,,,,,,,,,,,,,,424.63546032924205,None,426.1515783900395,None,427.5353588433936,None,base,427.5353588433936,None,return,0.9908203659579158,427.6187710352242,None,,,,,,,,,,,,,,,,,,,,,,,,,,,,,,,,,,,,,,,66,001,2023_Apr_10_1749,SpeechDraft1Carolyn_lessNoise_PlusLocalization,2021.2.3,59.94542605016756,
tart.wav,tart.mpg,tart,1,AV,Pink_Noise_1_1.wav,Pink_Noise_1_2.wav,,,,,,,,,,,,,,,0,68,68,63,,,,,,,,,,,,,,,,,,,,,,,428.63537748297676,None,430.2018610313535,None,431.5849311281927,None,tart,431.5849311281927,None,return,1.0209131049923599,431.6685335803777,None,,,,,,,,,,,,,,,,,,,,,,,,,,,,,,,,,,,,,,,66,001,2023_Apr_10_1749,SpeechDraft1Carolyn_lessNoise_PlusLocalization,2021.2.3,59.94542605016756,
burn.wav,burn.mpg,burn,5,A,Pink_Noise_5_1.wav,Pink_Noise_5_2.wav,,,,,,,,,,,,,,,0,69,69,50,,,,,,,,,,,,,,,,,,,,,,,432.71864023897797,None,434.2351734084077,None,435.61856539035216,None,burn,435.61856539035216,None,return,0.7716907137073576,435.7017180672847,None,,,,,,,,,,,,,,,,,,,,,,,,,,,,,,,,,,,,,,,66,001,2023_Apr_10_1749,SpeechDraft1Carolyn_lessNoise_PlusLocalization,2021.2.3,59.94542605016756,
swamp.wav,swamp.mpg,swamp,1,A,Pink_Noise_1_1.wav,Pink_Noise_1_2.wav,,,,,,,,,,,,,,,0,70,70,32,,,,,,,,,,,,,,,,,,,,,,,436.5018090493977,None,438.01889736624435,None,439.40222503524274,None,"swamp
",439.40222503524274,None,return,1.468095816206187,439.48531626397744,None,,,,,,,,,,,,,,,,,,,,,,,,,,,,,,,,,,,,,,,66,001,2023_Apr_10_1749,SpeechDraft1Carolyn_lessNoise_PlusLocalization,2021.2.3,59.94542605016756,
drip.wav,drip.mpg,drip,5,AV,Pink_Noise_5_1.wav,Pink_Noise_5_2.wav,,,,,,,,,,,,,,,0,71,71,71,,,,,,,,,,,,,,,,,,,,,,,441.0023647081107,None,442.51818654406816,None,443.90192987723276,None,"drip
",443.90192987723276,None,return,0.736401594709605,443.9850154160522,None,,,,,,,,,,,,,,,,,,,,,,,,,,,,,,,,,,,,,,,66,001,2023_Apr_10_1749,SpeechDraft1Carolyn_lessNoise_PlusLocalization,2021.2.3,59.94542605016756,
gym.wav,gym.mpg,gym,2,A,Pink_Noise_2_1.wav,Pink_Noise_2_2.wav,,,,,,,,,,,,,,,0,72,72,2,,,,,,,,,,,,,,,,,,,,,,,444.75197162805125,None,446.26828319812194,None,447.65394534822553,None,gym,447.65394534822553,None,return,0.6985602327622473,447.73546210536733,None,,,,,,,,,,,,,,,,,,,,,,,,,,,,,,,,,,,,,,,66,001,2023_Apr_10_1749,SpeechDraft1Carolyn_lessNoise_PlusLocalization,2021.2.3,59.94542605016756,
grail.wav,grail.mpg,grail,5,A,Pink_Noise_5_1.wav,Pink_Noise_5_2.wav,,,,,,,,,,,,,,,0,73,73,22,,,,,,,,,,,,,,,,,,,,,,,448.4685805682093,None,450.0017614159733,None,451.38521997630596,None,dram,451.38521997630596,None,return,2.324932566843927,451.4685630891472,None,,,,,,,,,,,,,,,,,,,,,,,,,,,,,,,,,,,,,,,66,001,2023_Apr_10_1749,SpeechDraft1Carolyn_lessNoise_PlusLocalization,2021.2.3,59.94542605016756,
curl.wav,curl.mpg,curl,1,AV,Pink_Noise_1_1.wav,Pink_Noise_1_2.wav,,,,,,,,,,,,,,,0,74,74,104,,,,,,,,,,,,,,,,,,,,,,,453.818382833153,None,455.3515683612786,None,456.73506562318653,None,curl,456.73506562318653,None,return,1.542817858979106,456.81863061198965,None,,,,,,,,,,,,,,,,,,,,,,,,,,,,,,,,,,,,,,,66,001,2023_Apr_10_1749,SpeechDraft1Carolyn_lessNoise_PlusLocalization,2021.2.3,59.94542605016756,
choir.wav,choir.mpg,choir,2,A,Pink_Noise_2_1.wav,Pink_Noise_2_2.wav,,,,,,,,,,,,,,,0,75,75,4,,,,,,,,,,,,,,,,,,,,,,,458.38524250732735,None,459.903152954299,None,461.2856129873544,None,choir,461.2856129873544,None,return,1.2243219297379255,461.36913663707674,None,,,,,,,,,,,,,,,,,,,,,,,,,,,,,,,,,,,,,,,66,001,2023_Apr_10_1749,SpeechDraft1Carolyn_lessNoise_PlusLocalization,2021.2.3,59.94542605016756,
blast.wav,blast.mpg,blast,4,AV,Pink_Noise_4_1.wav,Pink_Noise_4_2.wav,,,,,,,,,,,,,,,0,76,76,118,,,,,,,,,,,,,,,,,,,,,,,462.6188111072406,None,464.13504545297474,None,465.5188182289712,None,blast,465.5188182289712,None,return,0.7981289094313979,465.6033465382643,None,,,,,,,,,,,,,,,,,,,,,,,,,,,,,,,,,,,,,,,66,001,2023_Apr_10_1749,SpeechDraft1Carolyn_lessNoise_PlusLocalization,2021.2.3,59.94542605016756,
creep.wav,creep.mpg,creep,6,A,Pink_Noise_6_1.wav,Pink_Noise_6_2.wav,,,,,,,,,,,,,,,0,77,77,3,,,,,,,,,,,,,,,,,,,,,,,466.41909204097465,None,467.9350052452646,None,469.33515959139913,None,,469.33515959139913,None,return,3.111290897708386,469.4021176621318,None,,,,,,,,,,,,,,,,,,,,,,,,,,,,,,,,,,,,,,,66,001,2023_Apr_10_1749,SpeechDraft1Carolyn_lessNoise_PlusLocalization,2021.2.3,59.94542605016756,
cling.wav,cling.mpg,cling,3,A,Pink_Noise_3_1.wav,Pink_Noise_3_2.wav,,,,,,,,,,,,,,,0,78,78,33,,,,,,,,,,,,,,,,,,,,,,,472.5516877733171,None,474.08490119921044,None,475.4684702991508,None,"cling
",475.4684702991508,None,return,1.0335092972964048,475.55189582007006,None,,,,,,,,,,,,,,,,,,,,,,,,,,,,,,,,,,,,,,,66,001,2023_Apr_10_1749,SpeechDraft1Carolyn_lessNoise_PlusLocalization,2021.2.3,59.94542605016756,
guest.wav,guest.mpg,guest,4,A,Pink_Noise_4_1.wav,Pink_Noise_4_2.wav,,,,,,,,,,,,,,,0,79,79,34,,,,,,,,,,,,,,,,,,,,,,,476.61844223132357,None,478.1348570813425,None,479.50233227713034,None,"guest
",479.50233227713034,None,return,0.7200143998488784,479.585404145997,None,,,,,,,,,,,,,,,,,,,,,,,,,,,,,,,,,,,,,,,66,001,2023_Apr_10_1749,SpeechDraft1Carolyn_lessNoise_PlusLocalization,2021.2.3,59.94542605016756,
ball.wav,ball.mpg,ball,3,AV,Pink_Noise_3_1.wav,Pink_Noise_3_2.wav,,,,,,,,,,,,,,,0,80,80,110,,,,,,,,,,,,,,,,,,,,,,,480.3353323601186,None,481.8351961229928,None,483.21858664415777,None,"ball
",483.21858664415777,None,return,0.8835427733138204,483.30186051502824,None,,,,,,,,,,,,,,,,,,,,,,,,,,,,,,,,,,,,,,,66,001,2023_Apr_10_1749,SpeechDraft1Carolyn_lessNoise_PlusLocalization,2021.2.3,59.94542605016756,
groan.wav,groan.mpg,groan,6,AV,Pink_Noise_6_1.wav,Pink_Noise_6_2.wav,,,,,,,,,,,,,,,0,81,81,115,,,,,,,,,,,,,,,,,,,,,,,484.21846115915105,None,485.7348999720998,None,487.1186645803973,None,"road
",487.1186645803973,None,return,3.5832333900034428,487.20218529412523,None,,,,,,,,,,,,,,,,,,,,,,,,,,,,,,,,,,,,,,,66,001,2023_Apr_10_1749,SpeechDraft1Carolyn_lessNoise_PlusLocalization,2021.2.3,59.94542605016756,
fade.wav,fade.mpg,fade,4,AV,Pink_Noise_4_1.wav,Pink_Noise_4_2.wav,,,,,,,,,,,,,,,0,82,82,106,,,,,,,,,,,,,,,,,,,,,,,490.8188438070938,None,492.3351235720329,None,493.70190061815083,None,fade,493.70190061815083,None,return,2.9923447179608047,493.7851449921727,None,,,,,,,,,,,,,,,,,,,,,,,,,,,,,,,,,,,,,,,66,001,2023_Apr_10_1749,SpeechDraft1Carolyn_lessNoise_PlusLocalization,2021.2.3,59.94542605016756,
smack.wav,smack.mpg,smack,6,AV,Pink_Noise_6_1.wav,Pink_Noise_6_2.wav,,,,,,,,,,,,,,,0,83,83,86,,,,,,,,,,,,,,,,,,,,,,,496.80209867609665,None,498.36935215396807,None,499.7517198510468,None,respect,499.7517198510468,None,return,2.5663632582873106,499.8351633413695,None,,,,,,,,,,,,,,,,,,,,,,,,,,,,,,,,,,,,,,,66,001,2023_Apr_10_1749,SpeechDraft1Carolyn_lessNoise_PlusLocalization,2021.2.3,59.94542605016756,
cross.wav,cross.mpg,cross,1,A,Pink_Noise_1_1.wav,Pink_Noise_1_2.wav,,,,,,,,,,,,,,,0,84,84,1,,,,,,,,,,,,,,,,,,,,,,,502.41865924326703,None,503.9349036202766,None,505.31893067015335,None,"cross
",505.31893067015335,None,return,1.151472865138203,505.4019455211237,None,,,,,,,,,,,,,,,,,,,,,,,,,,,,,,,,,,,,,,,66,001,2023_Apr_10_1749,SpeechDraft1Carolyn_lessNoise_PlusLocalization,2021.2.3,59.94542605016756,
four.wav,four.mpg,four,6,A,Pink_Noise_6_1.wav,Pink_Noise_6_2.wav,,,,,,,,,,,,,,,0,85,85,13,,,,,,,,,,,,,,,,,,,,,,,506.5854412303306,None,508.10155723942444,None,509.4854002064094,None,,509.4854002064094,None,return,4.488874353934079,509.56867815507576,None,,,,,,,,,,,,,,,,,,,,,,,,,,,,,,,,,,,,,,,66,001,2023_Apr_10_1749,SpeechDraft1Carolyn_lessNoise_PlusLocalization,2021.2.3,59.94542605016756,
chomp.wav,chomp.mpg,chomp,4,A,Pink_Noise_4_1.wav,Pink_Noise_4_2.wav,,,,,,,,,,,,,,,0,86,86,40,,,,,,,,,,,,,,,,,,,,,,,514.085337757133,None,515.5867906692438,None,516.968526083976,None,"chum
",516.968526083976,None,return,4.269205281045288,517.052213636227,None,,,,,,,,,,,,,,,,,,,,,,,,,,,,,,,,,,,,,,,66,001,2023_Apr_10_1749,SpeechDraft1Carolyn_lessNoise_PlusLocalization,2021.2.3,59.94542605016756,
born.wav,born.mpg,born,6,A,Pink_Noise_6_1.wav,Pink_Noise_6_2.wav,,,,,,,,,,,,,,,0,87,87,58,,,,,,,,,,,,,,,,,,,,,,,521.3520479979925,None,522.8683097562753,None,524.2519736210816,None,board,524.2519736210816,None,return,2.314167439006269,524.335247815121,None,,,,,,,,,,,,,,,,,,,,,,,,,,,,,,,,,,,,,,,66,001,2023_Apr_10_1749,SpeechDraft1Carolyn_lessNoise_PlusLocalization,2021.2.3,59.94542605016756,
blob.wav,blob.mpg,blob,2,AV,Pink_Noise_2_1.wav,Pink_Noise_2_2.wav,,,,,,,,,,,,,,,0,88,88,99,,,,,,,,,,,,,,,,,,,,,,,526.6686755642295,None,528.1849751072004,None,529.5517011331394,None,blob,529.5517011331394,None,return,1.5582586033269763,529.6351816654205,None,,,,,,,,,,,,,,,,,,,,,,,,,,,,,,,,,,,,,,,66,001,2023_Apr_10_1749,SpeechDraft1Carolyn_lessNoise_PlusLocalization,2021.2.3,59.94542605016756,
dash.wav,dash.mpg,dash,1,AV,Pink_Noise_1_1.wav,Pink_Noise_1_2.wav,,,,,,,,,,,,,,,0,89,89,64,,,,,,,,,,,,,,,,,,,,,,,531.2187477243133,None,532.7349246032536,None,534.1186829661019,None,"dash
",534.1186829661019,None,return,0.7836125269532204,534.2018165271729,None,,,,,,,,,,,,,,,,,,,,,,,,,,,,,,,,,,,,,,,66,001,2023_Apr_10_1749,SpeechDraft1Carolyn_lessNoise_PlusLocalization,2021.2.3,59.94542605016756,
flash.wav,flash.mpg,flash,5,A,Pink_Noise_5_1.wav,Pink_Noise_5_2.wav,,,,,,,,,,,,,,,0,90,90,8,,,,,,,,,,,,,,,,,,,,,,,535.0185607532039,None,536.5183940744027,None,537.9021636582911,None,dash,537.9021636582911,None,return,1.816276135854423,537.9852091292851,None,,,,,,,,,,,,,,,,,,,,,,,,,,,,,,,,,,,,,,,66,001,2023_Apr_10_1749,SpeechDraft1Carolyn_lessNoise_PlusLocalization,2021.2.3,59.94542605016756,
chef.wav,chef.mpg,chef,1,AV,Pink_Noise_1_1.wav,Pink_Noise_1_2.wav,,,,,,,,,,,,,,,0,91,91,83,,,,,,,,,,,,,,,,,,,,,,,539.818459500093,None,541.3350390880369,None,542.718610576354,None,"chef
",542.718610576354,None,return,0.9832909959368408,542.8021452683024,None,,,,,,,,,,,,,,,,,,,,,,,,,,,,,,,,,,,,,,,66,001,2023_Apr_10_1749,SpeechDraft1Carolyn_lessNoise_PlusLocalization,2021.2.3,59.94542605016756,
jam.wav,jam.mpg,jam,2,A,Pink_Noise_2_1.wav,Pink_Noise_2_2.wav,,,,,,,,,,,,,,,0,92,92,11,,,,,,,,,,,,,,,,,,,,,,,543.8191900569946,None,545.3184798914008,None,546.70231685834,None,jam,546.70231685834,None,return,0.8642272693105042,546.7851934242062,None,,,,,,,,,,,,,,,,,,,,,,,,,,,,,,,,,,,,,,,66,001,2023_Apr_10_1749,SpeechDraft1Carolyn_lessNoise_PlusLocalization,2021.2.3,59.94542605016756,
crawl.wav,crawl.mpg,crawl,4,AV,Pink_Noise_4_1.wav,Pink_Noise_4_2.wav,,,,,,,,,,,,,,,0,93,93,119,,,,,,,,,,,,,,,,,,,,,,,547.6687898873352,None,549.168664408382,None,550.5521662333049,None,troll,550.5521662333049,None,return,1.238176940008998,550.6353192161769,None,,,,,,,,,,,,,,,,,,,,,,,,,,,,,,,,,,,,,,,66,001,2023_Apr_10_1749,SpeechDraft1Carolyn_lessNoise_PlusLocalization,2021.2.3,59.94542605016756,
barge.wav,barge.mpg,barge,3,A,Pink_Noise_3_1.wav,Pink_Noise_3_2.wav,,,,,,,,,,,,,,,0,94,94,20,,,,,,,,,,,,,,,,,,,,,,,551.9019340332597,None,553.4016989651136,None,554.7853779201396,None,"barge
",554.7853779201396,None,return,1.9006756441667676,554.8687465894036,None,,,,,,,,,,,,,,,,,,,,,,,,,,,,,,,,,,,,,,,66,001,2023_Apr_10_1749,SpeechDraft1Carolyn_lessNoise_PlusLocalization,2021.2.3,59.94542605016756,
stuck.wav,stuck.mpg,stuck,5,AV,Pink_Noise_5_1.wav,Pink_Noise_5_2.wav,,,,,,,,,,,,,,,0,95,95,96,,,,,,,,,,,,,,,,,,,,,,,556.801866046153,None,558.3184789642692,None,559.7019074801356,None,"mistake
",559.7019074801356,None,return,5.384079791139811,559.785349087324,None,,,,,,,,,,,,,,,,,,,,,,,,,,,,,,,,,,,,,,,66,001,2023_Apr_10_1749,SpeechDraft1Carolyn_lessNoise_PlusLocalization,2021.2.3,59.94542605016756,
cried.wav,cried.mpg,cried,3,AV,Pink_Noise_3_1.wav,Pink_Noise_3_2.wav,,,,,,,,,,,,,,,0,96,96,73,,,,,,,,,,,,,,,,,,,,,,,565.2019392633811,None,566.718365161214,None,568.1019856370986,None,cried,568.1019856370986,None,return,0.8562213820405304,568.185392470099,None,,,,,,,,,,,,,,,,,,,,,,,,,,,,,,,,,,,,,,,66,001,2023_Apr_10_1749,SpeechDraft1Carolyn_lessNoise_PlusLocalization,2021.2.3,59.94542605016756,
calm.wav,calm.mpg,calm,5,AV,Pink_Noise_5_1.wav,Pink_Noise_5_2.wav,,,,,,,,,,,,,,,0,97,97,70,,,,,,,,,,,,,,,,,,,,,,,569.0685713114217,None,570.5698602623306,None,571.9521079962142,None,"calm
",571.9521079962142,None,return,0.7020845687948167,572.0353197762743,None,,,,,,,,,,,,,,,,,,,,,,,,,,,,,,,,,,,,,,,66,001,2023_Apr_10_1749,SpeechDraft1Carolyn_lessNoise_PlusLocalization,2021.2.3,59.94542605016756,
doom.wav,doom.mpg,doom,6,AV,Pink_Noise_6_1.wav,Pink_Noise_6_2.wav,,,,,,,,,,,,,,,0,98,98,109,,,,,,,,,,,,,,,,,,,,,,,572.7687370101921,None,574.2853560941294,None,575.6687373924069,None,do,575.6687373924069,None,return,0.5051575172692537,575.7523468090221,None,,,,,,,,,,,,,,,,,,,,,,,,,,,,,,,,,,,,,,,66,001,2023_Apr_10_1749,SpeechDraft1Carolyn_lessNoise_PlusLocalization,2021.2.3,59.94542605016756,
coast.wav,coast.mpg,coast,5,A,Pink_Noise_5_1.wav,Pink_Noise_5_2.wav,,,,,,,,,,,,,,,0,99,99,47,,,,,,,,,,,,,,,,,,,,,,,576.2851948183961,None,577.7854552990757,None,579.1687619532458,None,"coast
",579.1687619532458,None,return,0.6534035028889775,579.2520090034232,None,,,,,,,,,,,,,,,,,,,,,,,,,,,,,,,,,,,,,,,66,001,2023_Apr_10_1749,SpeechDraft1Carolyn_lessNoise_PlusLocalization,2021.2.3,59.94542605016756,
drab.wav,drab.mpg,drab,1,AV,Pink_Noise_1_1.wav,Pink_Noise_1_2.wav,,,,,,,,,,,,,,,0,100,100,67,,,,,,,,,,,,,,,,,,,,,,,579.9353656242602,None,581.452073156368,None,582.8355327062309,None,drab,582.8355327062309,None,return,0.8107451759278774,582.9186705872416,None,,,,,,,,,,,,,,,,,,,,,,,,,,,,,,,,,,,,,,,66,001,2023_Apr_10_1749,SpeechDraft1Carolyn_lessNoise_PlusLocalization,2021.2.3,59.94542605016756,
chore.wav,chore.mpg,chore,5,AV,Pink_Noise_5_1.wav,Pink_Noise_5_2.wav,,,,,,,,,,,,,,,0,101,101,94,,,,,,,,,,,,,,,,,,,,,,,583.7520589451306,None,585.2685107453726,None,586.6353753390722,None,"chore
",586.6353753390722,None,return,0.650786317884922,586.7186346701346,None,,,,,,,,,,,,,,,,,,,,,,,,,,,,,,,,,,,,,,,66,001,2023_Apr_10_1749,SpeechDraft1Carolyn_lessNoise_PlusLocalization,2021.2.3,59.94542605016756,
crude.wav,crude.mpg,crude,2,AV,Pink_Noise_2_1.wav,Pink_Noise_2_2.wav,,,,,,,,,,,,,,,0,102,102,68,,,,,,,,,,,,,,,,,,,,,,,587.4020691839978,None,588.9017510060221,None,590.2855113111436,None,crude,590.2855113111436,None,return,2.0486802640371025,590.3688028533943,None,,,,,,,,,,,,,,,,,,,,,,,,,,,,,,,,,,,,,,,66,001,2023_Apr_10_1749,SpeechDraft1Carolyn_lessNoise_PlusLocalization,2021.2.3,59.94542605016756,
bottle.wav,bottle.mpg,bottle,5,A,Pink_Noise_5_1.wav,Pink_Noise_5_2.wav,,,,,,,,,,,,,,,0,103,103,21,,,,,,,,,,,,,,,,,,,,,,,592.435356428381,None,593.9517271951772,None,595.3353424384259,None,bottle,595.3353424384259,None,return,0.8706977097317576,595.4187241140753,None,,,,,,,,,,,,,,,,,,,,,,,,,,,,,,,,,,,,,,,66,001,2023_Apr_10_1749,SpeechDraft1Carolyn_lessNoise_PlusLocalization,2021.2.3,59.94542605016756,
blimp.wav,blimp.mpg,blimp,1,A,Pink_Noise_1_1.wav,Pink_Noise_1_2.wav,,,,,,,,,,,,,,,0,104,104,24,,,,,,,,,,,,,,,,,,,,,,,596.3186621679924,None,597.8352744909935,None,599.2022235579789,None,blimp,599.2022235579789,None,return,1.156282267998904,599.2852522362955,None,,,,,,,,,,,,,,,,,,,,,,,,,,,,,,,,,,,,,,,66,001,2023_Apr_10_1749,SpeechDraft1Carolyn_lessNoise_PlusLocalization,2021.2.3,59.94542605016756,
dive.wav,dive.mpg,dive,5,AV,Pink_Noise_5_1.wav,Pink_Noise_5_2.wav,,,,,,,,,,,,,,,0,105,105,89,,,,,,,,,,,,,,,,,,,,,,,600.4687831480987,None,601.9692352353595,None,603.3522568154149,None,dive,603.3522568154149,None,return,0.7581672319211066,603.4352235114202,None,,,,,,,,,,,,,,,,,,,,,,,,,,,,,,,,,,,,,,,66,001,2023_Apr_10_1749,SpeechDraft1Carolyn_lessNoise_PlusLocalization,2021.2.3,59.94542605016756,
box.wav,box.mpg,box,3,AV,Pink_Noise_3_1.wav,Pink_Noise_3_2.wav,,,,,,,,,,,,,,,0,106,106,117,,,,,,,,,,,,,,,,,,,,,,,604.2187295202166,None,605.7352264123037,None,607.1022945372388,None,box,607.1022945372388,None,return,2.664155717007816,607.1852669143118,None,,,,,,,,,,,,,,,,,,,,,,,,,,,,,,,,,,,,,,,66,001,2023_Apr_10_1749,SpeechDraft1Carolyn_lessNoise_PlusLocalization,2021.2.3,59.94542605016756,
bare.wav,bare.mpg,bare,4,A,Pink_Noise_4_1.wav,Pink_Noise_4_2.wav,,,,,,,,,,,,,,,0,107,107,41,,,,,,,,,,,,,,,,,,,,,,,609.8687411132269,None,611.3850973383524,None,612.7689448003657,None,"bera
",612.7689448003657,None,return,4.501338077709079,612.8520802063867,None,,,,,,,,,,,,,,,,,,,,,,,,,,,,,,,,,,,,,,,66,001,2023_Apr_10_1749,SpeechDraft1Carolyn_lessNoise_PlusLocalization,2021.2.3,59.94542605016756,
dune.wav,dune.mpg,dune,1,A,Pink_Noise_1_1.wav,Pink_Noise_1_2.wav,,,,,,,,,,,,,,,0,108,108,27,,,,,,,,,,,,,,,,,,,,,,,617.3853586800396,None,618.9018083731644,None,620.2855383511633,None,dune,620.2855383511633,None,return,0.5445080334320664,620.3689015624113,None,,,,,,,,,,,,,,,,,,,,,,,,,,,,,,,,,,,,,,,66,001,2023_Apr_10_1749,SpeechDraft1Carolyn_lessNoise_PlusLocalization,2021.2.3,59.94542605016756,
desk.wav,desk.mpg,desk,4,AV,Pink_Noise_4_1.wav,Pink_Noise_4_2.wav,,,,,,,,,,,,,,,0,109,109,98,,,,,,,,,,,,,,,,,,,,,,,620.9355251993984,None,622.4517671293579,None,623.8356395983137,None,desk,623.8356395983137,None,return,0.7066602851264179,623.9188612289727,None,,,,,,,,,,,,,,,,,,,,,,,,,,,,,,,,,,,,,,,66,001,2023_Apr_10_1749,SpeechDraft1Carolyn_lessNoise_PlusLocalization,2021.2.3,59.94542605016756,
tool.wav,tool.mpg,tool,1,A,Pink_Noise_1_1.wav,Pink_Noise_1_2.wav,,,,,,,,,,,,,,,0,110,110,44,,,,,,,,,,,,,,,,,,,,,,,624.6521480362862,None,626.1682660412043,None,627.5522665414028,None,"tool
",627.5522665414028,None,return,0.8539040680043399,627.6355338874273,None,,,,,,,,,,,,,,,,,,,,,,,,,,,,,,,,,,,,,,,66,001,2023_Apr_10_1749,SpeechDraft1Carolyn_lessNoise_PlusLocalization,2021.2.3,59.94542605016756,
cord.wav,cord.mpg,cord,6,AV,Pink_Noise_6_1.wav,Pink_Noise_6_2.wav,,,,,,,,,,,,,,,0,111,111,112,,,,,,,,,,,,,,,,,,,,,,,628.5187701531686,None,630.0352097973228,None,631.4020898779854,None,"juuk
",631.4020898779854,None,return,2.0680582555942237,631.4853643942624,None,,,,,,,,,,,,,,,,,,,,,,,,,,,,,,,,,,,,,,,66,001,2023_Apr_10_1749,SpeechDraft1Carolyn_lessNoise_PlusLocalization,2021.2.3,59.94542605016756,
jeep.wav,jeep.mpg,jeep,6,A,Pink_Noise_6_1.wav,Pink_Noise_6_2.wav,,,,,,,,,,,,,,,0,112,112,28,,,,,,,,,,,,,,,,,,,,,,,633.5855446290225,None,635.1018069339916,None,636.4689351762645,None,juice,636.4689351762645,None,return,0.8735786429606378,636.5519343833439,None,,,,,,,,,,,,,,,,,,,,,,,,,,,,,,,,,,,,,,,66,001,2023_Apr_10_1749,SpeechDraft1Carolyn_lessNoise_PlusLocalization,2021.2.3,59.94542605016756,
your.wav,your.mpg,your,4,AV,Pink_Noise_4_1.wav,Pink_Noise_4_2.wav,,,,,,,,,,,,,,,0,113,113,90,,,,,,,,,,,,,,,,,,,,,,,637.4520487762056,None,638.9685355201364,None,640.3521590051241,None,your,640.3521590051241,None,return,0.8218187629245222,640.4356790781021,None,,,,,,,,,,,,,,,,,,,,,,,,,,,,,,,,,,,,,,,66,001,2023_Apr_10_1749,SpeechDraft1Carolyn_lessNoise_PlusLocalization,2021.2.3,59.94542605016756,
roast.wav,roast.mpg,roast,6,A,Pink_Noise_6_1.wav,Pink_Noise_6_2.wav,,,,,,,,,,,,,,,0,114,114,30,,,,,,,,,,,,,,,,,,,,,,,641.2853672429919,None,642.8017601622269,None,644.1855861353688,None,ghost,644.1855861353688,None,return,0.7408277499489486,644.2686518710107,None,,,,,,,,,,,,,,,,,,,,,,,,,,,,,,,,,,,,,,,66,001,2023_Apr_10_1749,SpeechDraft1Carolyn_lessNoise_PlusLocalization,2021.2.3,59.94542605016756,
crust.wav,crust.mpg,crust,1,A,Pink_Noise_1_1.wav,Pink_Noise_1_2.wav,,,,,,,,,,,,,,,0,115,115,16,,,,,,,,,,,,,,,,,,,,,,,645.0354019012302,None,646.5518419560976,None,647.9355628769845,None,crust,647.9355628769845,None,return,0.8626020159572363,648.0188219342381,None,,,,,,,,,,,,,,,,,,,,,,,,,,,,,,,,,,,,,,,66,001,2023_Apr_10_1749,SpeechDraft1Carolyn_lessNoise_PlusLocalization,2021.2.3,59.94542605016756,
dumb.wav,dumb.mpg,dumb,1,A,Pink_Noise_1_1.wav,Pink_Noise_1_2.wav,,,,,,,,,,,,,,,0,116,116,53,,,,,,,,,,,,,,,,,,,,,,,648.9022150123492,None,650.4187364461832,None,651.7855048002675,None,dumb,651.7855048002675,None,return,1.4607369010336697,651.8686704761349,None,,,,,,,,,,,,,,,,,,,,,,,,,,,,,,,,,,,,,,,66,001,2023_Apr_10_1749,SpeechDraft1Carolyn_lessNoise_PlusLocalization,2021.2.3,59.94542605016756,
fit.wav,fit.mpg,fit,3,AV,Pink_Noise_3_1.wav,Pink_Noise_3_2.wav,,,,,,,,,,,,,,,0,117,117,62,,,,,,,,,,,,,,,,,,,,,,,653.3521595322527,None,654.8686383343302,None,656.2522815340199,None,"fit
",656.2522815340199,None,return,0.569987092167139,656.3354297941551,None,,,,,,,,,,,,,,,,,,,,,,,,,,,,,,,,,,,,,,,66,001,2023_Apr_10_1749,SpeechDraft1Carolyn_lessNoise_PlusLocalization,2021.2.3,59.94542605016756,
dine.wav,dine.mpg,dine,3,A,Pink_Noise_3_1.wav,Pink_Noise_3_2.wav,,,,,,,,,,,,,,,0,118,118,25,,,,,,,,,,,,,,,,,,,,,,,656.9354695691727,None,658.4520047050901,None,659.835567729082,None,dine,659.835567729082,None,return,1.106558087747544,659.9189834431745,None,,,,,,,,,,,,,,,,,,,,,,,,,,,,,,,,,,,,,,,66,001,2023_Apr_10_1749,SpeechDraft1Carolyn_lessNoise_PlusLocalization,2021.2.3,59.94542605016756,
depth.wav,depth.mpg,depth,4,A,Pink_Noise_4_1.wav,Pink_Noise_4_2.wav,,,,,,,,,,,,,,,0,119,119,0,,,,,,,,,,,,,,,,,,,,,,,661.0520657030866,None,662.5536221479997,None,663.9356163493358,None,"depth
",663.9356163493358,None,return,1.5343980249017477,664.0190336881205,None,,,,,,,,,,,,,,,,,,,,,,,,,,,,,,,,,,,,,,,66,001,2023_Apr_10_1749,SpeechDraft1Carolyn_lessNoise_PlusLocalization,2021.2.3,59.94542605016756,
,,,,,,,,,,,,,,,,,,,,,,,,,,,,,,,,,,,,,,,,,,,,,,,,,,,,,,,,,,,,,,,,,,space,13.323991713114083,665.6854209653102,None,,,,,,,,,,,,,,,,,,,,,,,,,,,,,66,001,2023_Apr_10_1749,SpeechDraft1Carolyn_lessNoise_PlusLocalization,2021.2.3,59.94542605016756,
,,,,,,,,nearRight,6.5,0,ch1Sound_localizationTask.wav,6.5,"(1047, 878)","(87, -202)",95,-338,,,,,,,,,0,0,0,4,,,,,,,,,,,,,,,,,,,,,,,,,,,,,,,,,,,,,,,,,,665.6854209653102,None,679.0519152483903,None,680.1519222604111,None,681.1020411592908,None,1.57989417989418,5.594483239110559,681.1020411592908,None,,,,,,,,,,,,,,,,,66,001,2023_Apr_10_1749,SpeechDraft1Carolyn_lessNoise_PlusLocalization,2021.2.3,59.94542605016756,
,,,,,,,,nearLeft,-6.5,1,ch1Sound_localizationTask.wav,-6.5,"(857, 878)","(-103,-202)",-95,-338,,,,,,,,,0,1,1,2,,,,,,,,,,,,,,,,,,,,,,,,,,,,,,,,,,,,,,,,,,,,686.7023051860742,None,687.8019566591829,None,688.7352323234081,None,1.8698412698412699,4.816164107993245,688.7352323234081,None,,,,,,,,,,,,,,,,,66,001,2023_Apr_10_1749,SpeechDraft1Carolyn_lessNoise_PlusLocalization,2021.2.3,59.94542605016756,
,,,,,,,,nearRight,6.5,0,ch1Sound_localizationTask.wav,6.5,"(1047, 878)","(87, -202)",95,-338,,,,,,,,,0,2,2,4,,,,,,,,,,,,,,,,,,,,,,,,,,,,,,,,,,,,,,,,,,,,693.5522095761262,None,694.6517653870396,None,695.5852771392092,None,1.8761904761904762,1.899799578357488,695.5852771392092,None,,,,,,,,,,,,,,,,,66,001,2023_Apr_10_1749,SpeechDraft1Carolyn_lessNoise_PlusLocalization,2021.2.3,59.94542605016756,
,,,,,,,,midRight,13.0,3,ch1Sound_localizationTask.wav,13.0,"(1142, 878)","(182, -202)",190,-338,,,,,,,,,0,3,3,5,,,,,,,,,,,,,,,,,,,,,,,,,,,,,,,,,,,,,,,,,,,,697.4867256581783,None,698.601926854346,None,699.5185816502199,None,2,2.8497654581442475,699.5185816502199,None,,,,,,,,,,,,,,,,,66,001,2023_Apr_10_1749,SpeechDraft1Carolyn_lessNoise_PlusLocalization,2021.2.3,59.94542605016756,
,,,,,,,,midRight,13.0,3,ch1Sound_localizationTask.wav,13.0,"(1142, 878)","(182, -202)",190,-338,,,,,,,,,0,4,4,5,,,,,,,,,,,,,,,,,,,,,,,,,,,,,,,,,,,,,,,,,,,,702.3696544934064,None,703.4684918629937,None,704.4017970352434,None,1.8968253968253967,1.4338960200548172,704.4017970352434,None,,,,,,,,,,,,,,,,,66,001,2023_Apr_10_1749,SpeechDraft1Carolyn_lessNoise_PlusLocalization,2021.2.3,59.94542605016756,
,,,,,,,,center,0.0,6,ch1Sound_localizationTask.wav,0.0,"(952, 878)","(-8,-202)",0,-338,,,,,,,,,0,5,5,3,,,,,,,,,,,,,,,,,,,,,,,,,,,,,,,,,,,,,,,,,,,,705.8523235581815,None,706.9519469672814,None,707.8853092682548,None,1.4994708994708994,1.5020781168714166,707.8853092682548,None,,,,,,,,,,,,,,,,,66,001,2023_Apr_10_1749,SpeechDraft1Carolyn_lessNoise_PlusLocalization,2021.2.3,59.94542605016756,
,,,,,,,,midRight,13.0,3,ch1Sound_localizationTask.wav,13.0,"(1142, 878)","(182, -202)",190,-338,,,,,,,,,0,6,6,5,,,,,,,,,,,,,,,,,,,,,,,,,,,,,,,,,,,,,,,,,,,,709.4024292742833,None,710.5017920034006,None,711.4352739444003,None,1.7703703703703704,1.2848929860629141,711.4352739444003,None,,,,,,,,,,,,,,,,,66,001,2023_Apr_10_1749,SpeechDraft1Carolyn_lessNoise_PlusLocalization,2021.2.3,59.94542605016756,
,,,,,,,,midLeft,-13.0,2,ch1Sound_localizationTask.wav,-13.0,"(762, 878)","(-198,-202)",-190,-338,,,,,,,,,1,0,7,1,,,,,,,,,,,,,,,,,,,,,,,,,,,,,,,,,,,,,,,,,,,,712.7359595540911,None,713.8351078024134,None,714.7686549089849,None,1.2375661375661375,1.8164248098619282,714.7686549089849,None,,,,,,,,,,,,,,,,,66,001,2023_Apr_10_1749,SpeechDraft1Carolyn_lessNoise_PlusLocalization,2021.2.3,59.94542605016756,
,,,,,,,,nearLeft,-6.5,1,ch1Sound_localizationTask.wav,-6.5,"(857, 878)","(-103,-202)",-95,-338,,,,,,,,,1,1,8,2,,,,,,,,,,,,,,,,,,,,,,,,,,,,,,,,,,,,,,,,,,,,716.5861800462008,None,717.685204340145,None,718.618598439265,None,1.3264550264550263,0.8499899539165199,718.618598439265,None,,,,,,,,,,,,,,,,,66,001,2023_Apr_10_1749,SpeechDraft1Carolyn_lessNoise_PlusLocalization,2021.2.3,59.94542605016756,
,,,,,,,,farLeft,-19.1,5,ch1Sound_localizationTask.wav,-19.1,"(667, 878)","(-293,-202)",-285,-338,,,,,,,,,1,2,9,0,,,,,,,,,,,,,,,,,,,,,,,,,,,,,,,,,,,,,,,,,,,,719.4692184361629,None,720.5687004961073,None,721.502130442299,None,1.2148148148148148,4.716560028027743,721.502130442299,None,,,,,,,,,,,,,,,,,66,001,2023_Apr_10_1749,SpeechDraft1Carolyn_lessNoise_PlusLocalization,2021.2.3,59.94542605016756,
,,,,,,,,center,0.0,6,ch1Sound_localizationTask.wav,0.0,"(952, 878)","(-8,-202)",0,-338,,,,,,,,,1,3,10,3,,,,,,,,,,,,,,,,,,,,,,,,,,,,,,,,,,,,,,,,,,,,726.2199631193653,None,727.3351497510448,None,728.2519736234099,None,1.511111111111111,1.2186518139205873,728.2519736234099,None,,,,,,,,,,,,,,,,,66,001,2023_Apr_10_1749,SpeechDraft1Carolyn_lessNoise_PlusLocalization,2021.2.3,59.94542605016756,
,,,,,,,,nearRight,6.5,0,ch1Sound_localizationTask.wav,6.5,"(1047, 878)","(87, -202)",95,-338,,,,,,,,,1,4,11,4,,,,,,,,,,,,,,,,,,,,,,,,,,,,,,,,,,,,,,,,,,,,729.4858983401209,None,730.5851303953677,None,731.5186164760962,None,1.6047619047619048,0.7684120400808752,731.5186164760962,None,,,,,,,,,,,,,,,,,66,001,2023_Apr_10_1749,SpeechDraft1Carolyn_lessNoise_PlusLocalization,2021.2.3,59.94542605016756,
,,,,,,,,nearLeft,-6.5,1,ch1Sound_localizationTask.wav,-6.5,"(857, 878)","(-103,-202)",-95,-338,,,,,,,,,1,5,12,2,,,,,,,,,,,,,,,,,,,,,,,,,,,,,,,,,,,,,,,,,,,,732.3023974173702,None,733.4017745391466,None,734.3352224403061,None,1.3682539682539683,0.6670900462195277,734.3352224403061,None,,,,,,,,,,,,,,,,,66,001,2023_Apr_10_1749,SpeechDraft1Carolyn_lessNoise_PlusLocalization,2021.2.3,59.94542605016756,
,,,,,,,,nearRight,6.5,0,ch1Sound_localizationTask.wav,6.5,"(1047, 878)","(87, -202)",95,-338,,,,,,,,,1,6,13,4,,,,,,,,,,,,,,,,,,,,,,,,,,,,,,,,,,,,,,,,,,,,735.0188825251535,None,736.1183881801553,None,737.0518690361641,None,1.6306878306878307,0.6010869820602238,737.0518690361641,None,,,,,,,,,,,,,,,,,66,001,2023_Apr_10_1749,SpeechDraft1Carolyn_lessNoise_PlusLocalization,2021.2.3,59.94542605016756,
,,,,,,,,nearRight,6.5,0,ch1Sound_localizationTask.wav,6.5,"(1047, 878)","(87, -202)",95,-338,,,,,,,,,2,0,14,4,,,,,,,,,,,,,,,,,,,,,,,,,,,,,,,,,,,,,,,,,,,,737.6691387640312,None,738.7685743272305,None,739.7019136631861,None,1.6153439153439153,0.7665366213768721,739.7019136631861,None,,,,,,,,,,,,,,,,,66,001,2023_Apr_10_1749,SpeechDraft1Carolyn_lessNoise_PlusLocalization,2021.2.3,59.94542605016756,
,,,,,,,,farRight,19.1,4,ch1Sound_localizationTask.wav,19.1,"(1237, 878)","(277,-202)",285,-338,,,,,,,,,2,1,15,6,,,,,,,,,,,,,,,,,,,,,,,,,,,,,,,,,,,,,,,,,,,,740.4693056633696,None,741.5686163092032,None,742.5020706150681,None,1.765079365079365,0.6833705799654126,742.5020706150681,None,,,,,,,,,,,,,,,,,66,001,2023_Apr_10_1749,SpeechDraft1Carolyn_lessNoise_PlusLocalization,2021.2.3,59.94542605016756,
,,,,,,,,farLeft,-19.1,5,ch1Sound_localizationTask.wav,-19.1,"(667, 878)","(-293,-202)",-285,-338,,,,,,,,,2,2,16,0,,,,,,,,,,,,,,,,,,,,,,,,,,,,,,,,,,,,,,,,,,,,743.2024453449994,None,744.3018859140575,None,745.2353246542625,None,1.2772486772486773,1.0001934510655701,745.2353246542625,None,,,,,,,,,,,,,,,,,66,001,2023_Apr_10_1749,SpeechDraft1Carolyn_lessNoise_PlusLocalization,2021.2.3,59.94542605016756,
,,,,,,,,farRight,19.1,4,ch1Sound_localizationTask.wav,19.1,"(1237, 878)","(277,-202)",285,-338,,,,,,,,,2,3,17,6,,,,,,,,,,,,,,,,,,,,,,,,,,,,,,,,,,,,,,,,,,,,746.2525432733819,None,747.3520354214124,None,748.285278017167,None,1.8666666666666667,2.2162155248224735,748.285278017167,None,,,,,,,,,,,,,,,,,66,001,2023_Apr_10_1749,SpeechDraft1Carolyn_lessNoise_PlusLocalization,2021.2.3,59.94542605016756,
,,,,,,,,nearRight,6.5,0,ch1Sound_localizationTask.wav,6.5,"(1047, 878)","(87, -202)",95,-338,,,,,,,,,2,4,18,4,,,,,,,,,,,,,,,,,,,,,,,,,,,,,,,,,,,,,,,,,,,,750.5031372481026,None,751.6019090921618,None,752.5353670790792,None,1.552910052910053,1.6369845350272954,752.5353670790792,None,,,,,,,,,,,,,,,,,66,001,2023_Apr_10_1749,SpeechDraft1Carolyn_lessNoise_PlusLocalization,2021.2.3,59.94542605016756,
,,,,,,,,midLeft,-13.0,2,ch1Sound_localizationTask.wav,-13.0,"(762, 878)","(-198,-202)",-190,-338,,,,,,,,,2,5,19,1,,,,,,,,,,,,,,,,,,,,,,,,,,,,,,,,,,,,,,,,,,,,754.185776822269,None,755.2854538662359,None,756.2186660440639,None,1.2973544973544975,1.5150569933466613,756.2186660440639,None,,,,,,,,,,,,,,,,,66,001,2023_Apr_10_1749,SpeechDraft1Carolyn_lessNoise_PlusLocalization,2021.2.3,59.94542605016756,
,,,,,,,,farLeft,-19.1,5,ch1Sound_localizationTask.wav,-19.1,"(667, 878)","(-293,-202)",-285,-338,,,,,,,,,2,6,20,0,,,,,,,,,,,,,,,,,,,,,,,,,,,,,,,,,,,,,,,,,,,,757.7358821313828,None,758.8352773040533,None,759.7689674701542,None,1.2809523809523808,0.968167366925627,759.7689674701542,None,,,,,,,,,,,,,,,,,66,001,2023_Apr_10_1749,SpeechDraft1Carolyn_lessNoise_PlusLocalization,2021.2.3,59.94542605016756,
,,,,,,,,center,0.0,6,ch1Sound_localizationTask.wav,0.0,"(952, 878)","(-8,-202)",0,-338,,,,,,,,,3,0,21,3,,,,,,,,,,,,,,,,,,,,,,,,,,,,,,,,,,,,,,,,,,,,760.7530993083492,None,761.8521617162041,None,762.7852617790923,None,1.4603174603174602,1.0179385989904404,762.7852617790923,None,,,,,,,,,,,,,,,,,66,001,2023_Apr_10_1749,SpeechDraft1Carolyn_lessNoise_PlusLocalization,2021.2.3,59.94542605016756,
,,,,,,,,farRight,19.1,4,ch1Sound_localizationTask.wav,19.1,"(1237, 878)","(277,-202)",285,-338,,,,,,,,,3,1,22,6,,,,,,,,,,,,,,,,,,,,,,,,,,,,,,,,,,,,,,,,,,,,763.8188623073511,None,764.9186328900978,None,765.8520169961266,None,1.8037037037037038,0.9495824230834842,765.8520169961266,None,,,,,,,,,,,,,,,,,66,001,2023_Apr_10_1749,SpeechDraft1Carolyn_lessNoise_PlusLocalization,2021.2.3,59.94542605016756,
,,,,,,,,farLeft,-19.1,5,ch1Sound_localizationTask.wav,-19.1,"(667, 878)","(-293,-202)",-285,-338,,,,,,,,,3,2,23,0,,,,,,,,,,,,,,,,,,,,,,,,,,,,,,,,,,,,,,,,,,,,766.8031624001451,None,767.9022415671498,None,768.8354520360008,None,1.2608465608465609,0.9996045590378344,768.8354520360008,None,,,,,,,,,,,,,,,,,66,001,2023_Apr_10_1749,SpeechDraft1Carolyn_lessNoise_PlusLocalization,2021.2.3,59.94542605016756,
,,,,,,,,midLeft,-13.0,2,ch1Sound_localizationTask.wav,-13.0,"(762, 878)","(-198,-202)",-190,-338,,,,,,,,,3,3,24,1,,,,,,,,,,,,,,,,,,,,,,,,,,,,,,,,,,,,,,,,,,,,769.8364513362758,None,770.9353373660706,None,771.8687186962925,None,1.3185185185185184,0.7343395571224391,771.8687186962925,None,,,,,,,,,,,,,,,,,66,001,2023_Apr_10_1749,SpeechDraft1Carolyn_lessNoise_PlusLocalization,2021.2.3,59.94542605016756,
,,,,,,,,farRight,19.1,4,ch1Sound_localizationTask.wav,19.1,"(1237, 878)","(277,-202)",285,-338,,,,,,,,,3,4,25,6,,,,,,,,,,,,,,,,,,,,,,,,,,,,,,,,,,,,,,,,,,,,772.6193168233149,None,773.7186157973483,None,774.6523487861268,None,1.8174603174603174,0.9335154378786683,774.6523487861268,None,,,,,,,,,,,,,,,,,66,001,2023_Apr_10_1749,SpeechDraft1Carolyn_lessNoise_PlusLocalization,2021.2.3,59.94542605016756,
,,,,,,,,farRight,19.1,4,ch1Sound_localizationTask.wav,19.1,"(1237, 878)","(277,-202)",285,-338,,,,,,,,,3,5,26,6,,,,,,,,,,,,,,,,,,,,,,,,,,,,,,,,,,,,,,,,,,,,775.6022162623703,None,776.7019250229932,None,777.6353585151955,None,1.701058201058201,0.848678638227284,777.6353585151955,None,,,,,,,,,,,,,,,,,66,001,2023_Apr_10_1749,SpeechDraft1Carolyn_lessNoise_PlusLocalization,2021.2.3,59.94542605016756,
,,,,,,,,farLeft,-19.1,5,ch1Sound_localizationTask.wav,-19.1,"(667, 878)","(-293,-202)",-285,-338,,,,,,,,,3,6,27,0,,,,,,,,,,,,,,,,,,,,,,,,,,,,,,,,,,,,,,,,,,,,778.4864372801967,None,779.5853304341435,None,780.518767612055,None,1.2867724867724868,0.9998517092317343,780.518767612055,None,,,,,,,,,,,,,,,,,66,001,2023_Apr_10_1749,SpeechDraft1Carolyn_lessNoise_PlusLocalization,2021.2.3,59.94542605016756,
,,,,,,,,midRight,13.0,3,ch1Sound_localizationTask.wav,13.0,"(1142, 878)","(182, -202)",190,-338,,,,,,,,,4,0,28,5,,,,,,,,,,,,,,,,,,,,,,,,,,,,,,,,,,,,,,,,,,,,781.5198857383803,None,782.6354799652472,None,783.5519864941016,None,1.7058201058201057,1.1999126551672816,783.5519864941016,None,,,,,,,,,,,,,,,,,66,001,2023_Apr_10_1749,SpeechDraft1Carolyn_lessNoise_PlusLocalization,2021.2.3,59.94542605016756,
,,,,,,,,center,0.0,6,ch1Sound_localizationTask.wav,0.0,"(952, 878)","(-8,-202)",0,-338,,,,,,,,,4,1,29,3,,,,,,,,,,,,,,,,,,,,,,,,,,,,,,,,,,,,,,,,,,,,784.7533232322894,None,785.8687486732379,None,786.7853259420954,None,1.4074074074074074,0.8162819086574018,786.7853259420954,None,,,,,,,,,,,,,,,,,66,001,2023_Apr_10_1749,SpeechDraft1Carolyn_lessNoise_PlusLocalization,2021.2.3,59.94542605016756,
,,,,,,,,center,0.0,6,ch1Sound_localizationTask.wav,0.0,"(952, 878)","(-8,-202)",0,-338,,,,,,,,,4,2,30,3,,,,,,,,,,,,,,,,,,,,,,,,,,,,,,,,,,,,,,,,,,,,787.604213304352,None,788.7185961944051,None,789.6354805710725,None,1.4507936507936507,0.5324595486745238,789.6354805710725,None,,,,,,,,,,,,,,,,,66,001,2023_Apr_10_1749,SpeechDraft1Carolyn_lessNoise_PlusLocalization,2021.2.3,59.94542605016756,
,,,,,,,,midLeft,-13.0,2,ch1Sound_localizationTask.wav,-13.0,"(762, 878)","(-198,-202)",-190,-338,,,,,,,,,4,3,31,1,,,,,,,,,,,,,,,,,,,,,,,,,,,,,,,,,,,,,,,,,,,,790.1693530604243,None,791.2686012689956,None,792.2019598772749,None,1.3105820105820105,0.983377075754106,792.2019598772749,None,,,,,,,,,,,,,,,,,66,001,2023_Apr_10_1749,SpeechDraft1Carolyn_lessNoise_PlusLocalization,2021.2.3,59.94542605016756,
,,,,,,,,nearRight,6.5,0,ch1Sound_localizationTask.wav,6.5,"(1047, 878)","(87, -202)",95,-338,,,,,,,,,4,4,32,4,,,,,,,,,,,,,,,,,,,,,,,,,,,,,,,,,,,,,,,,,,,,793.1862353580073,None,794.2853096029721,None,795.2188837314025,None,1.5767195767195767,0.8498152489773929,795.2188837314025,None,,,,,,,,,,,,,,,,,66,001,2023_Apr_10_1749,SpeechDraft1Carolyn_lessNoise_PlusLocalization,2021.2.3,59.94542605016756,
,,,,,,,,center,0.0,6,ch1Sound_localizationTask.wav,0.0,"(952, 878)","(-8,-202)",0,-338,,,,,,,,,4,5,33,3,,,,,,,,,,,,,,,,,,,,,,,,,,,,,,,,,,,,,,,,,,,,796.0694616883993,None,797.1687495750375,None,798.102092333138,None,1.438095238095238,0.882603548001498,798.102092333138,None,,,,,,,,,,,,,,,,,66,001,2023_Apr_10_1749,SpeechDraft1Carolyn_lessNoise_PlusLocalization,2021.2.3,59.94542605016756,
,,,,,,,,midLeft,-13.0,2,ch1Sound_localizationTask.wav,-13.0,"(762, 878)","(-198,-202)",-190,-338,,,,,,,,,4,6,34,1,,,,,,,,,,,,,,,,,,,,,,,,,,,,,,,,,,,,,,,,,,,,798.9863113570027,None,800.0853391122073,None,801.0190521981567,None,1.3015873015873016,0.9330159542150795,801.0190521981567,None,,,,,,,,,,,,,,,,,66,001,2023_Apr_10_1749,SpeechDraft1Carolyn_lessNoise_PlusLocalization,2021.2.3,59.94542605016756,
,,,,,,,,nearLeft,-6.5,1,ch1Sound_localizationTask.wav,-6.5,"(857, 878)","(-103,-202)",-95,-338,,,,,,,,,5,0,35,2,,,,,,,,,,,,,,,,,,,,,,,,,,,,,,,,,,,,,,,,,,,,801.9538835161366,None,803.0687713753432,None,803.9853198593482,None,1.4015873015873015,0.8161750719882548,803.9853198593482,None,,,,,,,,,,,,,,,,,66,001,2023_Apr_10_1749,SpeechDraft1Carolyn_lessNoise_PlusLocalization,2021.2.3,59.94542605016756,
,,,,,,,,nearRight,6.5,0,ch1Sound_localizationTask.wav,6.5,"(1047, 878)","(87, -202)",95,-338,,,,,,,,,5,1,36,4,,,,,,,,,,,,,,,,,,,,,,,,,,,,,,,,,,,,,,,,,,,,804.8036254942417,None,805.9188893982209,None,806.8353436132893,None,1.583068783068783,0.7667065318673849,806.8353436132893,None,,,,,,,,,,,,,,,,,66,001,2023_Apr_10_1749,SpeechDraft1Carolyn_lessNoise_PlusLocalization,2021.2.3,59.94542605016756,
,,,,,,,,farLeft,-19.1,5,ch1Sound_localizationTask.wav,-19.1,"(667, 878)","(-293,-202)",-285,-338,,,,,,,,,5,2,37,0,,,,,,,,,,,,,,,,,,,,,,,,,,,,,,,,,,,,,,,,,,,,807.6033972501755,None,808.7019436680712,None,809.6353683089837,None,1.2582010582010583,1.432872749865055,809.6353683089837,None,,,,,,,,,,,,,,,,,66,001,2023_Apr_10_1749,SpeechDraft1Carolyn_lessNoise_PlusLocalization,2021.2.3,59.94542605016756,
,,,,,,,,midLeft,-13.0,2,ch1Sound_localizationTask.wav,-13.0,"(762, 878)","(-198,-202)",-190,-338,,,,,,,,,5,3,38,1,,,,,,,,,,,,,,,,,,,,,,,,,,,,,,,,,,,,,,,,,,,,811.069979953114,None,812.185408166144,None,813.1020085243508,None,1.3624338624338623,0.7664429009892046,813.1020085243508,None,,,,,,,,,,,,,,,,,66,001,2023_Apr_10_1749,SpeechDraft1Carolyn_lessNoise_PlusLocalization,2021.2.3,59.94542605016756,
,,,,,,,,nearLeft,-6.5,1,ch1Sound_localizationTask.wav,-6.5,"(857, 878)","(-103,-202)",-95,-338,,,,,,,,,5,4,39,2,,,,,,,,,,,,,,,,,,,,,,,,,,,,,,,,,,,,,,,,,,,,813.869843006134,None,814.9689763262868,None,815.9019872150384,None,1.3835978835978837,0.682285884860903,815.9019872150384,None,,,,,,,,,,,,,,,,,66,001,2023_Apr_10_1749,SpeechDraft1Carolyn_lessNoise_PlusLocalization,2021.2.3,59.94542605016756,
,,,,,,,,nearLeft,-6.5,1,ch1Sound_localizationTask.wav,-6.5,"(857, 878)","(-103,-202)",-95,-338,,,,,,,,,5,5,40,2,,,,,,,,,,,,,,,,,,,,,,,,,,,,,,,,,,,,,,,,,,,,816.585979941301,None,817.6857262933627,None,818.6187017210759,None,1.367195767195767,0.8828571741469204,818.6187017210759,None,,,,,,,,,,,,,,,,,66,001,2023_Apr_10_1749,SpeechDraft1Carolyn_lessNoise_PlusLocalization,2021.2.3,59.94542605016756,
,,,,,,,,farRight,19.1,4,ch1Sound_localizationTask.wav,19.1,"(1237, 878)","(277,-202)",285,-338,,,,,,,,,5,6,41,6,,,,,,,,,,,,,,,,,,,,,,,,,,,,,,,,,,,,,,,,,,,,819.5026259212755,None,820.6020445432514,None,821.5354763553478,None,1.7380952380952381,1.0995892616920173,821.5354763553478,None,,,,,,,,,,,,,,,,,66,001,2023_Apr_10_1749,SpeechDraft1Carolyn_lessNoise_PlusLocalization,2021.2.3,59.94542605016756,
,,,,,,,,midRight,13.0,3,ch1Sound_localizationTask.wav,13.0,"(1142, 878)","(182, -202)",190,-338,,,,,,,,,6,0,42,5,,,,,,,,,,,,,,,,,,,,,,,,,,,,,,,,,,,,,,,,,,,,822.6363589721732,None,823.7352075092494,None,824.6687931022607,None,1.6835978835978835,0.6161931212991476,824.6687931022607,None,,,,,,,,,,,,,,,,,66,001,2023_Apr_10_1749,SpeechDraft1Carolyn_lessNoise_PlusLocalization,2021.2.3,59.94542605016756,
,,,,,,,,farRight,19.1,4,ch1Sound_localizationTask.wav,19.1,"(1237, 878)","(277,-202)",285,-338,,,,,,,,,6,1,43,6,,,,,,,,,,,,,,,,,,,,,,,,,,,,,,,,,,,,,,,,,,,,825.2865043249913,None,826.385423373431,None,827.3189025782049,None,1.8,1.0992907900363207,827.3189025782049,None,,,,,,,,,,,,,,,,,66,001,2023_Apr_10_1749,SpeechDraft1Carolyn_lessNoise_PlusLocalization,2021.2.3,59.94542605016756,
,,,,,,,,midRight,13.0,3,ch1Sound_localizationTask.wav,13.0,"(1142, 878)","(182, -202)",190,-338,,,,,,,,,6,2,44,5,,,,,,,,,,,,,,,,,,,,,,,,,,,,,,,,,,,,,,,,,,,,828.4198372634128,None,829.5189950251952,None,830.4520033011213,None,1.7190476190476192,0.8315178477205336,830.4520033011213,None,,,,,,,,,,,,,,,,,66,001,2023_Apr_10_1749,SpeechDraft1Carolyn_lessNoise_PlusLocalization,2021.2.3,59.94542605016756,
,,,,,,,,farLeft,-19.1,5,ch1Sound_localizationTask.wav,-19.1,"(667, 878)","(-293,-202)",-285,-338,,,,,,,,,6,3,45,0,,,,,,,,,,,,,,,,,,,,,,,,,,,,,,,,,,,,,,,,,,,,831.2859330442734,None,832.3856654469855,None,833.3190499693155,None,1.2608465608465609,1.5825739200226963,833.3190499693155,None,,,,,,,,,,,,,,,,,66,001,2023_Apr_10_1749,SpeechDraft1Carolyn_lessNoise_PlusLocalization,2021.2.3,59.94542605016756,
,,,,,,,,nearLeft,-6.5,1,ch1Sound_localizationTask.wav,-6.5,"(857, 878)","(-103,-202)",-95,-338,,,,,,,,,6,4,46,2,,,,,,,,,,,,,,,,,,,,,,,,,,,,,,,,,,,,,,,,,,,,834.9029087782837,None,836.0021593151614,None,836.9353324202821,None,1.3719576719576718,0.7494965130463243,836.9353324202821,None,,,,,,,,,,,,,,,,,66,001,2023_Apr_10_1749,SpeechDraft1Carolyn_lessNoise_PlusLocalization,2021.2.3,59.94542605016756,
,,,,,,,,center,0.0,6,ch1Sound_localizationTask.wav,0.0,"(952, 878)","(-8,-202)",0,-338,,,,,,,,,6,5,47,3,,,,,,,,,,,,,,,,,,,,,,,,,,,,,,,,,,,,,,,,,,,,837.6865960792638,None,838.785583736375,None,839.7186171263456,None,1.4936507936507937,0.8995926398783922,839.7186171263456,None,,,,,,,,,,,,,,,,,66,001,2023_Apr_10_1749,SpeechDraft1Carolyn_lessNoise_PlusLocalization,2021.2.3,59.94542605016756,
,,,,,,,,midLeft,-13.0,2,ch1Sound_localizationTask.wav,-13.0,"(762, 878)","(-198,-202)",-190,-338,,,,,,,,,6,6,48,1,,,,,,,,,,,,,,,,,,,,,,,,,,,,,,,,,,,,,,,,,,,,840.6199287939817,None,841.7186717530712,None,842.6520238281228,None,1.3095238095238095,1.1000254349783063,842.6520238281228,None,,,,,,,,,,,,,,,,,66,001,2023_Apr_10_1749,SpeechDraft1Carolyn_lessNoise_PlusLocalization,2021.2.3,59.94542605016756,
,,,,,,,,farLeft,-19.1,5,ch1Sound_localizationTask.wav,-19.1,"(667, 878)","(-293,-202)",-285,-338,,,,,,,,,7,0,49,0,,,,,,,,,,,,,,,,,,,,,,,,,,,,,,,,,,,,,,,,,,,,843.7537586740218,None,844.8686987012625,None,845.7854991080239,None,1.3052910052910054,0.7828368740156293,845.7854991080239,None,,,,,,,,,,,,,,,,,66,001,2023_Apr_10_1749,SpeechDraft1Carolyn_lessNoise_PlusLocalization,2021.2.3,59.94542605016756,
,,,,,,,,nearLeft,-6.5,1,ch1Sound_localizationTask.wav,-6.5,"(857, 878)","(-103,-202)",-95,-338,,,,,,,,,7,1,50,2,,,,,,,,,,,,,,,,,,,,,,,,,,,,,,,,,,,,,,,,,,,,846.5693745482713,None,847.6686075800098,None,848.6019844962284,None,1.4084656084656084,0.9515493870712817,848.6019844962284,None,,,,,,,,,,,,,,,,,66,001,2023_Apr_10_1749,SpeechDraft1Carolyn_lessNoise_PlusLocalization,2021.2.3,59.94542605016756,
,,,,,,,,midRight,13.0,3,ch1Sound_localizationTask.wav,13.0,"(1142, 878)","(182, -202)",190,-338,,,,,,,,,7,2,51,5,,,,,,,,,,,,,,,,,,,,,,,,,,,,,,,,,,,,,,,,,,,,849.5694331773557,None,850.6687620151788,None,851.6019964320585,None,1.7365079365079366,1.0656140800565481,851.6019964320585,None,,,,,,,,,,,,,,,,,66,001,2023_Apr_10_1749,SpeechDraft1Carolyn_lessNoise_PlusLocalization,2021.2.3,59.94542605016756,
,,,,,,,,midRight,13.0,3,ch1Sound_localizationTask.wav,13.0,"(1142, 878)","(182, -202)",190,-338,,,,,,,,,7,3,52,5,,,,,,,,,,,,,,,,,,,,,,,,,,,,,,,,,,,,,,,,,,,,852.6693176943809,None,853.7689069923945,None,854.7023740150034,None,1.783068783068783,0.5661477609537542,854.7023740150034,None,,,,,,,,,,,,,,,,,66,001,2023_Apr_10_1749,SpeechDraft1Carolyn_lessNoise_PlusLocalization,2021.2.3,59.94542605016756,
,,,,,,,,midLeft,-13.0,2,ch1Sound_localizationTask.wav,-13.0,"(762, 878)","(-198,-202)",-190,-338,,,,,,,,,7,4,53,1,,,,,,,,,,,,,,,,,,,,,,,,,,,,,,,,,,,,,,,,,,,,855.2857639840804,None,856.3853178434074,None,857.3189422320575,None,1.3206349206349206,0.9497717968188226,857.3189422320575,None,,,,,,,,,,,,,,,,,66,001,2023_Apr_10_1749,SpeechDraft1Carolyn_lessNoise_PlusLocalization,2021.2.3,59.94542605016756,
,,,,,,,,farRight,19.1,4,ch1Sound_localizationTask.wav,19.1,"(1237, 878)","(277,-202)",285,-338,,,,,,,,,7,5,54,6,,,,,,,,,,,,,,,,,,,,,,,,,,,,,,,,,,,,,,,,,,,,858.2697469773702,None,859.3692311923951,None,860.3021930041723,None,1.7534391534391536,0.6155840968713164,860.3021930041723,None,,,,,,,,,,,,,,,,,66,001,2023_Apr_10_1749,SpeechDraft1Carolyn_lessNoise_PlusLocalization,2021.2.3,59.94542605016756,
,,,,,,,,center,0.0,6,ch1Sound_localizationTask.wav,0.0,"(952, 878)","(-8,-202)",0,-338,,,,,,,,,7,6,55,3,,,,,,,,,,,,,,,,,,,,,,,,,,,,,,,,,,,,,,,,,,,,860.9190344139934,None,862.0190123091452,None,862.9521020334214,None,1.3931216931216932,1.0493561048060656,862.9521020334214,None,,,,,,,,,,,,,,,,,66,001,2023_Apr_10_1749,SpeechDraft1Carolyn_lessNoise_PlusLocalization,2021.2.3,59.94542605016756,
,,,,,,,,,,,,,,,,,,,,,,,,,,,,,,,,,,,,,,,,,,,,,,,,,,,,,,,,,,,,,,,,,,,,,,,,,,,,,,,,,,space,12.035677436739206,864.0857469001785,None,,,,,,,,,,,,,66,001,2023_Apr_10_1749,SpeechDraft1Carolyn_lessNoise_PlusLocalization,2021.2.3,59.94542605016756,
,,,,,,,,farRight,19.1,4,ch1Sound_localizationTask.wav,19.1,"(1237, 878)","(277,-202)",285,-338,,,,,,,,,,,,,0,0,0,6,,,,,,,,,,,,,,,,,,,,,,,,,,,,,,,,,,,,,,,,876.1686802562326,None,,,879.2020566323772,None,1.656084656084656,1.987287389114499,879.2020566323772,None,,,,,864.0857469001785,None,877.1689883763902,None,877.3525298302993,877.3690559542738,,,,,,,66,001,2023_Apr_10_1749,SpeechDraft1Carolyn_lessNoise_PlusLocalization,2021.2.3,59.94542605016756,
,,,,,,,,midRight,13.0,3,ch1Sound_localizationTask.wav,13.0,"(1142, 878)","(182, -202)",190,-338,,,,,,,,,,,,,0,1,1,5,,,,,,,,,,,,,,,,,,,,,,,,,,,,,,,,,,,,,,,,881.1871696449816,None,,,884.2188896420412,None,1.6068783068783068,0.9665121431462467,884.2188896420412,None,,,,,,,882.202302027028,None,882.3858975013718,882.4024457409978,,,,,,,66,001,2023_Apr_10_1749,SpeechDraft1Carolyn_lessNoise_PlusLocalization,2021.2.3,59.94542605016756,
,,,,,,,,center,0.0,6,ch1Sound_localizationTask.wav,0.0,"(952, 878)","(-8,-202)",0,-338,,,,,,,,,,,,,0,2,2,3,,,,,,,,,,,,,,,,,,,,,,,,,,,,,,,,,,,,,,,,885.1869187061675,None,,,888.2188921743073,None,1.4925925925925925,1.0158633240498602,888.2188921743073,None,,,,,,,886.2024976783432,None,886.385931563098,886.4025347852148,,,,,,,66,001,2023_Apr_10_1749,SpeechDraft1Carolyn_lessNoise_PlusLocalization,2021.2.3,59.94542605016756,
,,,,,,,,midLeft,-13.0,2,ch1Sound_localizationTask.wav,-13.0,"(762, 878)","(-198,-202)",-190,-338,,,,,,,,,,,,,0,3,3,1,,,,,,,,,,,,,,,,,,,,,,,,,,,,,,,,,,,,,,,,889.2364135002717,None,,,892.2520236172713,None,1.3873015873015873,0.9170736940577626,892.2520236172713,None,,,,,,,890.2359027080238,None,890.4192720940337,890.4357569050044,,,,,,,66,001,2023_Apr_10_1749,SpeechDraft1Carolyn_lessNoise_PlusLocalization,2021.2.3,59.94542605016756,
,,,,,,,,center,0.0,6,ch1Sound_localizationTask.wav,0.0,"(952, 878)","(-8,-202)",0,-338,,,,,,,,,,,,,0,4,4,3,,,,,,,,,,,,,,,,,,,,,,,,,,,,,,,,,,,,,,,,893.185961691197,None,,,896.2021557120606,None,1.5015873015873016,0.6819389993324876,896.2021557120606,None,,,,,,,894.1857853489928,None,894.3691960051656,894.3858426450752,,,,,,,66,001,2023_Apr_10_1749,SpeechDraft1Carolyn_lessNoise_PlusLocalization,2021.2.3,59.94542605016756,
,,,,,,,,nearRight,6.5,0,ch1Sound_localizationTask.wav,6.5,"(1047, 878)","(87, -202)",95,-338,,,,,,,,,,,,,0,5,5,4,,,,,,,,,,,,,,,,,,,,,,,,,,,,,,,,,,,,,,,,896.8869557790458,None,,,899.918820808176,None,1.565079365079365,0.8669663569889963,899.918820808176,None,,,,,,,897.9026026702486,None,898.0857905913144,898.1023216000758,,,,,,,66,001,2023_Apr_10_1749,SpeechDraft1Carolyn_lessNoise_PlusLocalization,2021.2.3,59.94542605016756,
,,,,,,,,nearRight,6.5,0,ch1Sound_localizationTask.wav,6.5,"(1047, 878)","(87, -202)",95,-338,,,,,,,,,,,,,0,6,6,4,,,,,,,,,,,,,,,,,,,,,,,,,,,,,,,,,,,,,,,,900.8027067082003,None,,,903.8192836372182,None,1.566137566137566,0.9163711536675692,903.8192836372182,None,,,,,,,901.8024260411039,None,901.985897295177,902.0024664751254,,,,,,,66,001,2023_Apr_10_1749,SpeechDraft1Carolyn_lessNoise_PlusLocalization,2021.2.3,59.94542605016756,
,,,,,,,,farLeft,-19.1,5,ch1Sound_localizationTask.wav,-19.1,"(667, 878)","(-293,-202)",-285,-338,,,,,,,,,,,,,1,0,7,0,,,,,,,,,,,,,,,,,,,,,,,,,,,,,,,,,,,,,,,,904.7366670062765,None,,,907.752408195287,None,1.3063492063492064,0.9990112134255469,907.752408195287,None,,,,,,,905.7358875190839,None,905.9190434790216,905.9356249063276,,,,,,,66,001,2023_Apr_10_1749,SpeechDraft1Carolyn_lessNoise_PlusLocalization,2021.2.3,59.94542605016756,
,,,,,,,,farRight,19.1,4,ch1Sound_localizationTask.wav,19.1,"(1237, 878)","(277,-202)",285,-338,,,,,,,,,,,,,1,1,8,6,,,,,,,,,,,,,,,,,,,,,,,,,,,,,,,,,,,,,,,,908.7538258121349,None,,,911.7854440603405,None,1.6714285714285715,1.0826461180113256,911.7854440603405,None,,,,,,,909.7691619913094,None,909.9523673714139,909.9692197800614,,,,,,,66,001,2023_Apr_10_1749,SpeechDraft1Carolyn_lessNoise_PlusLocalization,2021.2.3,59.94542605016756,
,,,,,,,,midLeft,-13.0,2,ch1Sound_localizationTask.wav,-13.0,"(762, 878)","(-198,-202)",-190,-338,,,,,,,,,,,,,1,2,9,1,,,,,,,,,,,,,,,,,,,,,,,,,,,,,,,,,,,,,,,,912.8698471062817,None,,,915.8854795182124,None,1.3915343915343916,2.716771657112986,915.8854795182124,None,,,,,,,913.869066840969,None,914.0527258431539,914.0690993960015,,,,,,,66,001,2023_Apr_10_1749,SpeechDraft1Carolyn_lessNoise_PlusLocalization,2021.2.3,59.94542605016756,
,,,,,,,,midLeft,-13.0,2,ch1Sound_localizationTask.wav,-13.0,"(762, 878)","(-198,-202)",-190,-338,,,,,,,,,,,,,1,3,10,1,,,,,,,,,,,,,,,,,,,,,,,,,,,,,,,,,,,,,,,,918.6191425384022,None,,,921.6355791459791,None,1.391005291005291,0.8490555607713759,921.6355791459791,None,,,,,,,919.6191605632193,None,919.8026708969846,919.8189681121148,,,,,,,66,001,2023_Apr_10_1749,SpeechDraft1Carolyn_lessNoise_PlusLocalization,2021.2.3,59.94542605016756,
,,,,,,,,farRight,19.1,4,ch1Sound_localizationTask.wav,19.1,"(1237, 878)","(277,-202)",285,-338,,,,,,,,,,,,,1,4,11,6,,,,,,,,,,,,,,,,,,,,,,,,,,,,,,,,,,,,,,,,922.4865326373838,None,,,925.5023944983259,None,1.6714285714285715,0.9817092721350491,925.5023944983259,None,,,,,,,923.4859639210626,None,923.669203212019,923.6859106351621,,,,,,,66,001,2023_Apr_10_1749,SpeechDraft1Carolyn_lessNoise_PlusLocalization,2021.2.3,59.94542605016756,
,,,,,,,,farRight,19.1,4,ch1Sound_localizationTask.wav,19.1,"(1237, 878)","(277,-202)",285,-338,,,,,,,,,,,,,1,5,12,6,,,,,,,,,,,,,,,,,,,,,,,,,,,,,,,,,,,,,,,,926.4860375933349,None,,,929.5024155583233,None,1.6714285714285715,0.4657836612313986,929.5024155583233,None,,,,,,,927.4857445801608,None,927.6691068522632,927.6859653610736,,,,,,,66,001,2023_Apr_10_1749,SpeechDraft1Carolyn_lessNoise_PlusLocalization,2021.2.3,59.94542605016756,
,,,,,,,,midLeft,-13.0,2,ch1Sound_localizationTask.wav,-13.0,"(762, 878)","(-198,-202)",-190,-338,,,,,,,,,,,,,1,6,13,1,,,,,,,,,,,,,,,,,,,,,,,,,,,,,,,,,,,,,,,,929.9694897360168,None,,,932.9856316740625,None,1.384126984126984,0.9327589860185981,932.9856316740625,None,,,,,,,930.9692025110126,None,931.152641128283,931.1694043013267,,,,,,,66,001,2023_Apr_10_1749,SpeechDraft1Carolyn_lessNoise_PlusLocalization,2021.2.3,59.94542605016756,
,,,,,,,,center,0.0,6,ch1Sound_localizationTask.wav,0.0,"(952, 878)","(-8,-202)",0,-338,,,,,,,,,,,,,2,0,14,3,,,,,,,,,,,,,,,,,,,,,,,,,,,,,,,,,,,,,,,,933.9202221832238,None,,,936.9352515670471,None,1.5047619047619047,0.5662019862793386,936.9352515670471,None,,,,,,,934.9193279123865,None,935.1025184160098,935.1190307904035,,,,,,,66,001,2023_Apr_10_1749,SpeechDraft1Carolyn_lessNoise_PlusLocalization,2021.2.3,59.94542605016756,
,,,,,,,,farRight,19.1,4,ch1Sound_localizationTask.wav,19.1,"(1237, 878)","(277,-202)",285,-338,,,,,,,,,,,,,2,1,15,6,,,,,,,,,,,,,,,,,,,,,,,,,,,,,,,,,,,,,,,,937.5034728883766,None,,,940.5188597883098,None,1.6751322751322753,0.848236549180001,940.5188597883098,None,,,,,,,938.5027563869953,None,938.6859242031351,938.7026358372532,,,,,,,66,001,2023_Apr_10_1749,SpeechDraft1Carolyn_lessNoise_PlusLocalization,2021.2.3,59.94542605016756,
,,,,,,,,midRight,13.0,3,ch1Sound_localizationTask.wav,13.0,"(1142, 878)","(182, -202)",190,-338,,,,,,,,,,,,,2,2,16,5,,,,,,,,,,,,,,,,,,,,,,,,,,,,,,,,,,,,,,,,941.3695527943783,None,,,944.3856111550704,None,1.5957671957671957,0.6661357702687383,944.3856111550704,None,,,,,,,942.3692871341482,None,942.552563955076,942.5692439111881,,,,,,,66,001,2023_Apr_10_1749,SpeechDraft1Carolyn_lessNoise_PlusLocalization,2021.2.3,59.94542605016756,
,,,,,,,,midRight,13.0,3,ch1Sound_localizationTask.wav,13.0,"(1142, 878)","(182, -202)",190,-338,,,,,,,,,,,,,2,3,17,5,,,,,,,,,,,,,,,,,,,,,,,,,,,,,,,,,,,,,,,,945.0535008800216,None,,,948.0689191310667,None,1.6132275132275131,0.6512504541315138,948.0689191310667,None,,,,,,,946.0526190963574,None,946.2360698892735,946.2526105302386,,,,,,,66,001,2023_Apr_10_1749,SpeechDraft1Carolyn_lessNoise_PlusLocalization,2021.2.3,59.94542605016756,
,,,,,,,,nearLeft,-6.5,1,ch1Sound_localizationTask.wav,-6.5,"(857, 878)","(-103,-202)",-95,-338,,,,,,,,,,,,,2,4,18,2,,,,,,,,,,,,,,,,,,,,,,,,,,,,,,,,,,,,,,,,948.7358064791188,None,,,951.7523597180843,None,1.446031746031746,0.831958785187453,951.7523597180843,None,,,,,,,949.7357039591298,None,949.9192767799832,949.9359665163793,,,,,,,66,001,2023_Apr_10_1749,SpeechDraft1Carolyn_lessNoise_PlusLocalization,2021.2.3,59.94542605016756,
,,,,,,,,nearRight,6.5,0,ch1Sound_localizationTask.wav,6.5,"(1047, 878)","(87, -202)",95,-338,,,,,,,,,,,,,2,5,19,4,,,,,,,,,,,,,,,,,,,,,,,,,,,,,,,,,,,,,,,,952.5860439683311,None,,,955.6022052550688,None,1.5582010582010581,0.5832473360933363,955.6022052550688,None,,,,,,,953.5858479472809,None,953.7691113073379,953.7857252461836,,,,,,,66,001,2023_Apr_10_1749,SpeechDraft1Carolyn_lessNoise_PlusLocalization,2021.2.3,59.94542605016756,
,,,,,,,,nearLeft,-6.5,1,ch1Sound_localizationTask.wav,-6.5,"(857, 878)","(-103,-202)",-95,-338,,,,,,,,,,,,,2,6,20,2,,,,,,,,,,,,,,,,,,,,,,,,,,,,,,,,,,,,,,,,956.20259571122,None,,,959.2188213500194,None,1.4465608465608466,0.7999207247048616,959.2188213500194,None,,,,,,,957.2025116560981,None,957.3859353512526,957.402618905995,,,,,,,66,001,2023_Apr_10_1749,SpeechDraft1Carolyn_lessNoise_PlusLocalization,2021.2.3,59.94542605016756,
,,,,,,,,midLeft,-13.0,2,ch1Sound_localizationTask.wav,-13.0,"(762, 878)","(-198,-202)",-190,-338,,,,,,,,,,,,,3,0,21,1,,,,,,,,,,,,,,,,,,,,,,,,,,,,,,,,,,,,,,,,960.0359088312835,None,,,963.0522435493767,None,1.3883597883597885,0.6822237120941281,963.0522435493767,None,,,,,,,961.0360165680759,None,961.2194323344156,961.2357394513674,,,,,,,66,001,2023_Apr_10_1749,SpeechDraft1Carolyn_lessNoise_PlusLocalization,2021.2.3,59.94542605016756,
,,,,,,,,midRight,13.0,3,ch1Sound_localizationTask.wav,13.0,"(1142, 878)","(182, -202)",190,-338,,,,,,,,,,,,,3,1,22,5,,,,,,,,,,,,,,,,,,,,,,,,,,,,,,,,,,,,,,,,963.736004492268,None,,,966.7522028563544,None,1.6121693121693121,0.8339535221457481,966.7522028563544,None,,,,,,,964.7360047372058,None,964.9192267502658,964.9359635030851,,,,,,,66,001,2023_Apr_10_1749,SpeechDraft1Carolyn_lessNoise_PlusLocalization,2021.2.3,59.94542605016756,
,,,,,,,,nearLeft,-6.5,1,ch1Sound_localizationTask.wav,-6.5,"(857, 878)","(-103,-202)",-95,-338,,,,,,,,,,,,,3,2,23,2,,,,,,,,,,,,,,,,,,,,,,,,,,,,,,,,,,,,,,,,967.6025696042925,None,,,970.6190066002309,None,1.438095238095238,0.7323318249545991,970.6190066002309,None,,,,,,,968.602588173002,None,968.7858685823157,968.8023267192766,,,,,,,66,001,2023_Apr_10_1749,SpeechDraft1Carolyn_lessNoise_PlusLocalization,2021.2.3,59.94542605016756,
,,,,,,,,farLeft,-19.1,5,ch1Sound_localizationTask.wav,-19.1,"(667, 878)","(-293,-202)",-285,-338,,,,,,,,,,,,,3,3,24,0,,,,,,,,,,,,,,,,,,,,,,,,,,,,,,,,,,,,,,,,971.3534630089998,None,,,974.3854560172185,None,1.3222222222222222,0.7999432338401675,974.3854560172185,None,,,,,,,972.3693106723949,None,972.5526835112832,972.5691847191192,,,,,,,66,001,2023_Apr_10_1749,SpeechDraft1Carolyn_lessNoise_PlusLocalization,2021.2.3,59.94542605016756,
,,,,,,,,farRight,19.1,4,ch1Sound_localizationTask.wav,19.1,"(1237, 878)","(277,-202)",285,-338,,,,,,,,,,,,,3,4,25,6,,,,,,,,,,,,,,,,,,,,,,,,,,,,,,,,,,,,,,,,975.2026901380159,None,,,978.2189848292619,None,1.6544973544973545,1.1149374973028898,978.2189848292619,None,,,,,,,976.2025838494301,None,976.3857769351453,976.4025617712177,,,,,,,66,001,2023_Apr_10_1749,SpeechDraft1Carolyn_lessNoise_PlusLocalization,2021.2.3,59.94542605016756,
,,,,,,,,midRight,13.0,3,ch1Sound_localizationTask.wav,13.0,"(1142, 878)","(182, -202)",190,-338,,,,,,,,,,,,,3,5,26,5,,,,,,,,,,,,,,,,,,,,,,,,,,,,,,,,,,,,,,,,979.3364115031436,None,,,982.3522561392747,None,1.596825396825397,0.8318248549476266,982.3522561392747,None,,,,,,,980.3357574213296,None,980.5193397193216,980.5358224892989,,,,,,,66,001,2023_Apr_10_1749,SpeechDraft1Carolyn_lessNoise_PlusLocalization,2021.2.3,59.94542605016756,
,,,,,,,,center,0.0,6,ch1Sound_localizationTask.wav,0.0,"(952, 878)","(-8,-202)",0,-338,,,,,,,,,,,,,3,6,27,3,,,,,,,,,,,,,,,,,,,,,,,,,,,,,,,,,,,,,,,,983.1860028230585,None,,,986.202414679341,None,1.507936507936508,0.8986801137216389,986.202414679341,None,,,,,,,984.1860292861238,None,984.3693161671981,984.385979722254,,,,,,,66,001,2023_Apr_10_1749,SpeechDraft1Carolyn_lessNoise_PlusLocalization,2021.2.3,59.94542605016756,
,,,,,,,,farRight,19.1,4,ch1Sound_localizationTask.wav,19.1,"(1237, 878)","(277,-202)",285,-338,,,,,,,,,,,,,4,0,28,6,,,,,,,,,,,,,,,,,,,,,,,,,,,,,,,,,,,,,,,,987.1030914480798,None,,,990.1188793741167,None,1.6634920634920634,0.866277621127665,990.1188793741167,None,,,,,,,988.1024400470778,None,988.2858788450249,988.3026881120168,,,,,,,66,001,2023_Apr_10_1749,SpeechDraft1Carolyn_lessNoise_PlusLocalization,2021.2.3,59.94542605016756,
,,,,,,,,nearLeft,-6.5,1,ch1Sound_localizationTask.wav,-6.5,"(857, 878)","(-103,-202)",-95,-338,,,,,,,,,,,,,4,1,29,2,,,,,,,,,,,,,,,,,,,,,,,,,,,,,,,,,,,,,,,,990.9870139351115,None,,,994.0021189153194,None,1.4306878306878308,0.8658335469663143,994.0021189153194,None,,,,,,,991.9860710264184,None,992.1692786542699,992.1860173600726,,,,,,,66,001,2023_Apr_10_1749,SpeechDraft1Carolyn_lessNoise_PlusLocalization,2021.2.3,59.94542605016756,
,,,,,,,,farLeft,-19.1,5,ch1Sound_localizationTask.wav,-19.1,"(667, 878)","(-293,-202)",-285,-338,,,,,,,,,,,,,4,2,30,0,,,,,,,,,,,,,,,,,,,,,,,,,,,,,,,,,,,,,,,,994.8699500709772,None,,,997.8858748283237,None,1.3253968253968254,1.632911848835647,997.8858748283237,None,,,,,,,995.8691542311572,None,996.0523891160265,996.0692971250974,,,,,,,66,001,2023_Apr_10_1749,SpeechDraft1Carolyn_lessNoise_PlusLocalization,2021.2.3,59.94542605016756,
,,,,,,,,midRight,13.0,3,ch1Sound_localizationTask.wav,13.0,"(1142, 878)","(182, -202)",190,-338,,,,,,,,,,,,,4,3,31,5,,,,,,,,,,,,,,,,,,,,,,,,,,,,,,,,,,,,,,,,999.5205390132032,None,,,1002.5521663529798,None,1.597883597883598,0.6664651841856539,1002.5521663529798,None,,,,,,,1000.5362375383265,None,1000.7193738622591,1000.7358553092927,,,,,,,66,001,2023_Apr_10_1749,SpeechDraft1Carolyn_lessNoise_PlusLocalization,2021.2.3,59.94542605016756,
,,,,,,,,farRight,19.1,4,ch1Sound_localizationTask.wav,19.1,"(1237, 878)","(277,-202)",285,-338,,,,,,,,,,,,,4,4,32,6,,,,,,,,,,,,,,,,,,,,,,,,,,,,,,,,,,,,,,,,1003.2205402674153,None,,,1006.2522082841024,None,1.6661375661375661,0.8159896722063422,1006.2522082841024,None,,,,,,,1004.235997999087,None,1004.4193516601808,1004.436043435242,,,,,,,66,001,2023_Apr_10_1749,SpeechDraft1Carolyn_lessNoise_PlusLocalization,2021.2.3,59.94542605016756,
,,,,,,,,farLeft,-19.1,5,ch1Sound_localizationTask.wav,-19.1,"(667, 878)","(-293,-202)",-285,-338,,,,,,,,,,,,,4,5,33,0,,,,,,,,,,,,,,,,,,,,,,,,,,,,,,,,,,,,,,,,1007.0698393010534,None,,,1010.0857133870013,None,1.326984126984127,0.9822119819000363,1010.0857133870013,None,,,,,,,1008.0692005343735,None,1008.2528062132187,1008.2694371552207,,,,,,,66,001,2023_Apr_10_1749,SpeechDraft1Carolyn_lessNoise_PlusLocalization,2021.2.3,59.94542605016756,
,,,,,,,,nearRight,6.5,0,ch1Sound_localizationTask.wav,6.5,"(1047, 878)","(87, -202)",95,-338,,,,,,,,,,,,,4,6,34,4,,,,,,,,,,,,,,,,,,,,,,,,,,,,,,,,,,,,,,,,1011.0703687123023,None,,,1014.0857324963436,None,1.5587301587301587,0.9824109110049903,1014.0857324963436,None,,,,,,,1012.0694394521415,None,1012.2525021871552,1012.2691752412356,,,,,,,66,001,2023_Apr_10_1749,SpeechDraft1Carolyn_lessNoise_PlusLocalization,2021.2.3,59.94542605016756,
,,,,,,,,midLeft,-13.0,2,ch1Sound_localizationTask.wav,-13.0,"(762, 878)","(-198,-202)",-190,-338,,,,,,,,,,,,,5,0,35,1,,,,,,,,,,,,,,,,,,,,,,,,,,,,,,,,,,,,,,,,1015.0703524011187,None,,,1018.1024244683795,None,1.384126984126984,1.1834367467090487,1018.1024244683795,None,,,,,,,1016.086027035024,None,1016.269318731036,1016.2861495460384,,,,,,,66,001,2023_Apr_10_1749,SpeechDraft1Carolyn_lessNoise_PlusLocalization,2021.2.3,59.94542605016756,
,,,,,,,,midRight,13.0,3,ch1Sound_localizationTask.wav,13.0,"(1142, 878)","(182, -202)",190,-338,,,,,,,,,,,,,5,1,36,5,,,,,,,,,,,,,,,,,,,,,,,,,,,,,,,,,,,,,,,,1019.2869711159728,None,,,1022.3190472372808,None,1.632804232804233,0.8001171788200736,1022.3190472372808,None,,,,,,,1020.3028655131347,None,1020.4860776262358,1020.5025270930491,,,,,,,66,001,2023_Apr_10_1749,SpeechDraft1Carolyn_lessNoise_PlusLocalization,2021.2.3,59.94542605016756,
,,,,,,,,center,0.0,6,ch1Sound_localizationTask.wav,0.0,"(952, 878)","(-8,-202)",0,-338,,,,,,,,,,,,,5,2,37,3,,,,,,,,,,,,,,,,,,,,,,,,,,,,,,,,,,,,,,,,1023.1360631249845,None,,,1026.152135970071,None,1.498941798941799,1.315556709188968,1026.152135970071,None,,,,,,,1024.1358391861431,None,1024.3194310711697,1024.3359028613195,,,,,,,66,001,2023_Apr_10_1749,SpeechDraft1Carolyn_lessNoise_PlusLocalization,2021.2.3,59.94542605016756,
,,,,,,,,nearRight,6.5,0,ch1Sound_localizationTask.wav,6.5,"(1047, 878)","(87, -202)",95,-338,,,,,,,,,,,,,5,3,38,4,,,,,,,,,,,,,,,,,,,,,,,,,,,,,,,,,,,,,,,,1027.4702205141075,None,,,1030.485807789024,None,1.5629629629629629,0.699424508959055,1030.485807789024,None,,,,,,,1028.4692183253355,None,1028.6527705430053,1028.6694102464244,,,,,,,66,001,2023_Apr_10_1749,SpeechDraft1Carolyn_lessNoise_PlusLocalization,2021.2.3,59.94542605016756,
,,,,,,,,nearRight,6.5,0,ch1Sound_localizationTask.wav,6.5,"(1047, 878)","(87, -202)",95,-338,,,,,,,,,,,,,5,4,39,4,,,,,,,,,,,,,,,,,,,,,,,,,,,,,,,,,,,,,,,,1031.1874317321926,None,,,1034.2189076831564,None,1.57989417989418,0.5494475769810379,1034.2189076831564,None,,,,,,,1032.2027848754078,None,1032.3859314629808,1032.4025067752227,,,,,,,66,001,2023_Apr_10_1749,SpeechDraft1Carolyn_lessNoise_PlusLocalization,2021.2.3,59.94542605016756,
,,,,,,,,nearLeft,-6.5,1,ch1Sound_localizationTask.wav,-6.5,"(857, 878)","(-103,-202)",-95,-338,,,,,,,,,,,,,5,5,40,2,,,,,,,,,,,,,,,,,,,,,,,,,,,,,,,,,,,,,,,,1034.770319303032,None,,,1037.8023282331415,None,1.4513227513227513,0.8984205103479326,1037.8023282331415,None,,,,,,,1035.7862188662402,None,1035.9692995841615,1035.9858913053758,,,,,,,66,001,2023_Apr_10_1749,SpeechDraft1Carolyn_lessNoise_PlusLocalization,2021.2.3,59.94542605016756,
,,,,,,,,nearRight,6.5,0,ch1Sound_localizationTask.wav,6.5,"(1047, 878)","(87, -202)",95,-338,,,,,,,,,,,,,5,6,41,4,,,,,,,,,,,,,,,,,,,,,,,,,,,,,,,,,,,,,,,,1038.7035038601607,None,,,1041.7192219099961,None,1.5476190476190477,0.8662220723927021,1041.7192219099961,None,,,,,,,1039.7025980860926,None,1039.886071124114,1039.90253967233,,,,,,,66,001,2023_Apr_10_1749,SpeechDraft1Carolyn_lessNoise_PlusLocalization,2021.2.3,59.94542605016756,
,,,,,,,,nearLeft,-6.5,1,ch1Sound_localizationTask.wav,-6.5,"(857, 878)","(-103,-202)",-95,-338,,,,,,,,,,,,,6,0,42,2,,,,,,,,,,,,,,,,,,,,,,,,,,,,,,,,,,,,,,,,1042.5869314842857,None,,,1045.602378567215,None,1.4195767195767197,1.0989199951291084,1045.602378567215,None,,,,,,,1043.586080109235,None,1043.7692891820334,1043.7861190461554,,,,,,,66,001,2023_Apr_10_1749,SpeechDraft1Carolyn_lessNoise_PlusLocalization,2021.2.3,59.94542605016756,
,,,,,,,,farLeft,-19.1,5,ch1Sound_localizationTask.wav,-19.1,"(667, 878)","(-293,-202)",-285,-338,,,,,,,,,,,,,6,1,43,0,,,,,,,,,,,,,,,,,,,,,,,,,,,,,,,,,,,,,,,,1046.7031523683108,None,,,1049.71921794815,None,1.3354497354497354,0.9492604350671172,1049.71921794815,None,,,,,,,1047.7027097293176,None,1047.8860189900734,1047.9026660784148,,,,,,,66,001,2023_Apr_10_1749,SpeechDraft1Carolyn_lessNoise_PlusLocalization,2021.2.3,59.94542605016756,
,,,,,,,,midLeft,-13.0,2,ch1Sound_localizationTask.wav,-13.0,"(762, 878)","(-198,-202)",-190,-338,,,,,,,,,,,,,6,2,44,1,,,,,,,,,,,,,,,,,,,,,,,,,,,,,,,,,,,,,,,,1050.670228001196,None,,,1053.685924467165,None,1.3851851851851853,0.6815354940481484,1053.685924467165,None,,,,,,,1051.669243903365,None,1051.852874794975,1051.8693902972154,,,,,,,66,001,2023_Apr_10_1749,SpeechDraft1Carolyn_lessNoise_PlusLocalization,2021.2.3,59.94542605016756,
,,,,,,,,center,0.0,6,ch1Sound_localizationTask.wav,0.0,"(952, 878)","(-8,-202)",0,-338,,,,,,,,,,,,,6,3,45,3,,,,,,,,,,,,,,,,,,,,,,,,,,,,,,,,,,,,,,,,1054.3697982011363,None,,,1057.3855670983903,None,1.5005291005291004,0.8326613372191787,1057.3855670983903,None,,,,,,,1055.3693350399844,None,1055.5525550399907,1055.5692659639753,,,,,,,66,001,2023_Apr_10_1749,SpeechDraft1Carolyn_lessNoise_PlusLocalization,2021.2.3,59.94542605016756,
,,,,,,,,nearRight,6.5,0,ch1Sound_localizationTask.wav,6.5,"(1047, 878)","(87, -202)",95,-338,,,,,,,,,,,,,6,4,46,4,,,,,,,,,,,,,,,,,,,,,,,,,,,,,,,,,,,,,,,,1058.2198743773624,None,,,1061.2356978403404,None,1.5624338624338625,0.6314125568605959,1061.2356978403404,None,,,,,,,1059.2195097943768,None,1059.402625582181,1059.4191484740004,,,,,,,66,001,2023_Apr_10_1749,SpeechDraft1Carolyn_lessNoise_PlusLocalization,2021.2.3,59.94542605016756,
,,,,,,,,nearLeft,-6.5,1,ch1Sound_localizationTask.wav,-6.5,"(857, 878)","(-103,-202)",-95,-338,,,,,,,,,,,,,6,5,47,2,,,,,,,,,,,,,,,,,,,,,,,,,,,,,,,,,,,,,,,,1061.869503798429,None,,,1064.8857833552174,None,1.5624338624338625,3.899569910019636,1064.8857833552174,None,,,,,,,1062.8692907714285,None,1063.0527711291797,1063.0693034892902,,,,,,,66,001,2023_Apr_10_1749,SpeechDraft1Carolyn_lessNoise_PlusLocalization,2021.2.3,59.94542605016756,
,,,,,,,,center,0.0,6,ch1Sound_localizationTask.wav,0.0,"(952, 878)","(-8,-202)",0,-338,,,,,,,,,,,,,6,6,48,3,,,,,,,,,,,,,,,,,,,,,,,,,,,,,,,,,,,,,,,,1068.7872374700382,None,,,1071.819047223311,None,1.4936507936507937,1.1155359181575477,1071.819047223311,None,,,,,,,1069.802516871132,None,1069.986086060293,1070.002740287222,,,,,,,66,001,2023_Apr_10_1749,SpeechDraft1Carolyn_lessNoise_PlusLocalization,2021.2.3,59.94542605016756,
,,,,,,,,farLeft,-19.1,5,ch1Sound_localizationTask.wav,-19.1,"(667, 878)","(-293,-202)",-285,-338,,,,,,,,,,,,,7,0,49,0,,,,,,,,,,,,,,,,,,,,,,,,,,,,,,,,,,,,,,,,1072.9360797591507,None,,,1075.952240996994,None,1.3306878306878307,0.8495601289905608,1075.952240996994,None,,,,,,,1073.9359591961838,None,1074.1194838532247,1074.1360148573294,,,,,,,66,001,2023_Apr_10_1749,SpeechDraft1Carolyn_lessNoise_PlusLocalization,2021.2.3,59.94542605016756,
,,,,,,,,farLeft,-19.1,5,ch1Sound_localizationTask.wav,-19.1,"(667, 878)","(-293,-202)",-285,-338,,,,,,,,,,,,,7,1,50,0,,,,,,,,,,,,,,,,,,,,,,,,,,,,,,,,,,,,,,,,1076.8034459389746,None,,,1079.8190701380372,None,1.3608465608465607,0.6158892209641635,1079.8190701380372,None,,,,,,,1077.8029007450677,None,1077.9861902962439,1078.0027044573799,,,,,,,66,001,2023_Apr_10_1749,SpeechDraft1Carolyn_lessNoise_PlusLocalization,2021.2.3,59.94542605016756,
,,,,,,,,midRight,13.0,3,ch1Sound_localizationTask.wav,13.0,"(1142, 878)","(182, -202)",190,-338,,,,,,,,,,,,,7,2,51,5,,,,,,,,,,,,,,,,,,,,,,,,,,,,,,,,,,,,,,,,1080.4368071472272,None,,,1083.4522225949913,None,1.6174603174603175,1.2824566457420588,1083.4522225949913,None,,,,,,,1081.4358943169937,None,1081.6192449182272,1081.6359730921686,,,,,,,66,001,2023_Apr_10_1749,SpeechDraft1Carolyn_lessNoise_PlusLocalization,2021.2.3,59.94542605016756,
,,,,,,,,nearLeft,-6.5,1,ch1Sound_localizationTask.wav,-6.5,"(857, 878)","(-103,-202)",-95,-338,,,,,,,,,,,,,7,3,52,2,,,,,,,,,,,,,,,,,,,,,,,,,,,,,,,,,,,,,,,,1084.7362134330906,None,,,1087.7523252712563,None,1.4486772486772486,1.2163326381705701,1087.7523252712563,None,,,,,,,1085.7359382272698,None,1085.9193369741552,1085.9359656320885,,,,,,,66,001,2023_Apr_10_1749,SpeechDraft1Carolyn_lessNoise_PlusLocalization,2021.2.3,59.94542605016756,
,,,,,,,,farLeft,-19.1,5,ch1Sound_localizationTask.wav,-19.1,"(667, 878)","(-293,-202)",-285,-338,,,,,,,,,,,,,7,4,53,0,,,,,,,,,,,,,,,,,,,,,,,,,,,,,,,,,,,,,,,,1088.9859340093099,None,,,1092.0024680080824,None,1.3322751322751323,0.9831001050770283,1092.0024680080824,None,,,,,,,1089.986100611277,None,1090.1695231869817,1090.1863596760668,,,,,,,66,001,2023_Apr_10_1749,SpeechDraft1Carolyn_lessNoise_PlusLocalization,2021.2.3,59.94542605016756,
,,,,,,,,center,0.0,6,ch1Sound_localizationTask.wav,0.0,"(952, 878)","(-8,-202)",0,-338,,,,,,,,,,,,,7,5,54,3,,,,,,,,,,,,,,,,,,,,,,,,,,,,,,,,,,,,,,,,1093.0027457810938,None,,,1096.0190687882714,None,1.5026455026455028,0.9157036091201007,1096.0190687882714,None,,,,,,,1094.002627467271,None,1094.186151175294,1094.2026246353053,,,,,,,66,001,2023_Apr_10_1749,SpeechDraft1Carolyn_lessNoise_PlusLocalization,2021.2.3,59.94542605016756,
,,,,,,,,midLeft,-13.0,2,ch1Sound_localizationTask.wav,-13.0,"(762, 878)","(-198,-202)",-190,-338,,,,,,,,,,,,,7,6,55,1,,,,,,,,,,,,,,,,,,,,,,,,,,,,,,,,,,,,,,,,1096.9366025142372,None,,,1099.9524326482788,None,1.38994708994709,0.9320249450393021,1099.9524326482788,None,,,,,,,1097.9361268160865,None,1098.1194306630641,1098.1361362789758,,,,,,,66,001,2023_Apr_10_1749,SpeechDraft1Carolyn_lessNoise_PlusLocalization,2021.2.3,59.94542605016756,
,,,,,,,,,,,,,,,,,,,,,,,,,,,,,,,,,,,,,,,,,,,,,,,,,,,,,,,,,,,,,,,,,,,,,,,,,,,,,,,,,,,,,,,,,,,,1100.8870460642502,None,c,1827.0120838298462,1101.869330770336,None,66,001,2023_Apr_10_1749,SpeechDraft1Carolyn_lessNoise_PlusLocalization,2021.2.3,59.94542605016756,
