Audio_Only_Files,Video_Files,Original_Word_List,noiseLevelCode,conditionCodes,noiseLevelFile1,noiseLevelFile2,InstrTextVar,targetSpeakerName,targetSpeakerEccen,targetSpkrChannel,targetSpkrSound,targetVisualDegrees,visStimLoc,visStimLoc2,visStimW,visStimH,practiceTrials.thisRepN,practiceTrials.thisTrialN,practiceTrials.thisN,practiceTrials.thisIndex,trials.thisRepN,trials.thisTrialN,trials.thisN,trials.thisIndex,audLocalLoop.thisRepN,audLocalLoop.thisTrialN,audLocalLoop.thisN,audLocalLoop.thisIndex,visualLocalLoop.thisRepN,visualLocalLoop.thisTrialN,visualLocalLoop.thisN,visualLocalLoop.thisIndex,letsGoAlready.keys,letsGoAlready.rt,letsGoAlready.started,letsGoAlready.stopped,text_2.started,text_2.stopped,text_3.started,text_3.stopped,key_resp_2.keys,key_resp_2.rt,key_resp_2.started,key_resp_2.stopped,text_5.started,text_5.stopped,fixCross.started,fixCross.stopped,fixCross2.started,fixCross2.stopped,answerPrompt.started,answerPrompt.stopped,getAnswer.text,getAnswer.started,getAnswer.stopped,goToNext.keys,goToNext.rt,goToNext.started,goToNext.stopped,stretchBreakTxrt.started,stretchBreakTxrt.stopped,key_resp_3.keys,key_resp_3.rt,key_resp_3.started,key_resp_3.stopped,letsGoLocal.keys,letsGoLocal.rt,letsGoLocal.started,letsGoLocal.stopped,text_4.started,text_4.stopped,prepFixTxt.started,prepFixTxt.stopped,prepFixTxt_2.started,prepFixTxt_2.stopped,respPromptLocal.started,respPromptLocal.stopped,slider.response,slider.rt,slider.started,slider.stopped,letsGoLocal_2.keys,letsGoLocal_2.rt,letsGoLocal_2.started,letsGoLocal_2.stopped,text_7.started,text_7.stopped,prepFixTxt_3.started,prepFixTxt_3.stopped,grating.started,grating.stopped,exitTxt.started,exitTxt.stopped,key_resp.keys,key_resp.rt,key_resp.started,key_resp.stopped,participant,session,date,expName,psychopyVersion,frameRate,
,,,,,,,,,,,,,,,,,,,,,,,,,,,,,,,,,space,32.7187881488353,21.26889871712774,None,,,,,,,,,,,,,,,,,,,,,,,,,,,,,,,,,,,,,,,,,,,,,,,,,,,,,,,,,,,,,,67,001,2023_Apr_11_1455,SpeechDraft1Carolyn_lessNoise_PlusLocalization,2021.2.3,60.02741704317607,
,,,,,,,,,,,,,,,,,,,,,,,,,,,,,,,,,,,,,21.26889871712774,None,54.118702427949756,None,space,3.349657049868256,54.30203182902187,None,,,,,,,,,,,,,,,,,,,,,,,,,,,,,,,,,,,,,,,,,,,,,,,,,,,,,,67,001,2023_Apr_11_1455,SpeechDraft1Carolyn_lessNoise_PlusLocalization,2021.2.3,60.02741704317607,
ash.wav,ash.mpg,ash,1,A,Pink_Noise_1_1.wav,Pink_Noise_1_2.wav,"This is an example of an

AUDIO trial",,,,,,,,,,0,0,0,0,,,,,,,,,,,,,,,,,,,,,,,,,57.68621938303113,None,58.68531962390989,None,61.81876144511625,None,63.20368916913867,None,ash ,63.20368916913867,None,return,9.582380739040673,63.28536638012156,None,,,,,,,,,,,,,,,,,,,,,,,,,,,,,,,,,,,,,,,67,001,2023_Apr_11_1455,SpeechDraft1Carolyn_lessNoise_PlusLocalization,2021.2.3,60.02741704317607,
ash.wav,ash.mpg,ash,1,AV,Pink_Noise_1_1.wav,Pink_Noise_1_2.wav,"This is an example of an

AUDIO + VIDEO  trial",,,,,,,,,,0,1,1,1,,,,,,,,,,,,,,,,,,,,,,,,,72.90175183489919,None,73.9020234090276,None,75.38597224280238,None,76.76871941098943,None,"ash
",76.76871941098943,None,return,2.5835934607312083,76.85204621218145,None,,,,,,,,,,,,,,,,,,,,,,,,,,,,,,,,,,,,,,,67,001,2023_Apr_11_1455,SpeechDraft1Carolyn_lessNoise_PlusLocalization,2021.2.3,60.02741704317607,
,,,,,,,,,,,,,,,,,,,,,,,,,,,,,,,,,,,,,,,,,,,,,,,,,,,,,,,,,,,,79.48508921498433,None,space,12.03090439317748,79.66873601777479,None,,,,,,,,,,,,,,,,,,,,,,,,,,,,,,,,,67,001,2023_Apr_11_1455,SpeechDraft1Carolyn_lessNoise_PlusLocalization,2021.2.3,60.02741704317607,
bail.wav,bail.mpg,bail,6,AV,Pink_Noise_6_1.wav,Pink_Noise_6_2.wav,,,,,,,,,,,,,,,0,0,0,67,,,,,,,,,,,,,,,,,,,,,,,91.73677487485111,None,93.21903955796733,None,94.60204115184024,None,mail,94.60204115184024,None,return,4.430243867915124,94.6854620971717,None,,,,,,,,,,,,,,,,,,,,,,,,,,,,,,,,,,,,,,,67,001,2023_Apr_11_1455,SpeechDraft1Carolyn_lessNoise_PlusLocalization,2021.2.3,60.02741704317607,
gum.wav,gum.mpg,gum,1,A,Pink_Noise_1_1.wav,Pink_Noise_1_2.wav,,,,,,,,,,,,,,,0,1,1,6,,,,,,,,,,,,,,,,,,,,,,,99.13539358694106,None,100.61852220399305,None,102.00201517995447,None,gun,102.00201517995447,None,return,6.046217578928918,102.08542218105868,None,,,,,,,,,,,,,,,,,,,,,,,,,,,,,,,,,,,,,,,67,001,2023_Apr_11_1455,SpeechDraft1Carolyn_lessNoise_PlusLocalization,2021.2.3,60.02741704317607,
cheat.wav,cheat.mpg,cheat,5,AV,Pink_Noise_5_1.wav,Pink_Noise_5_2.wav,,,,,,,,,,,,,,,0,2,2,93,,,,,,,,,,,,,,,,,,,,,,,108.15228499099612,None,109.63535355078056,None,111.0187964560464,None,chixk,111.0187964560464,None,return,33.75749286916107,111.10212582582608,None,,,,,,,,,,,,,,,,,,,,,,,,,,,,,,,,,,,,,,,67,001,2023_Apr_11_1455,SpeechDraft1Carolyn_lessNoise_PlusLocalization,2021.2.3,60.02741704317607,
cloud.wav,cloud.mpg,cloud,5,A,Pink_Noise_5_1.wav,Pink_Noise_5_2.wav,,,,,,,,,,,,,,,0,3,3,31,,,,,,,,,,,,,,,,,,,,,,,144.88552186777815,None,146.3684924468398,None,147.75217821495607,None,"vile
",147.75217821495607,None,return,18.335948000196368,147.8357190177776,None,,,,,,,,,,,,,,,,,,,,,,,,,,,,,,,,,,,,,,,67,001,2023_Apr_11_1455,SpeechDraft1Carolyn_lessNoise_PlusLocalization,2021.2.3,60.02741704317607,
bloat.wav,bloat.mpg,bloat,6,A,Pink_Noise_6_1.wav,Pink_Noise_6_2.wav,,,,,,,,,,,,,,,0,4,4,26,,,,,,,,,,,,,,,,,,,,,,,166.2021622080356,None,167.70186242973432,None,169.0854693907313,None,ditch,169.0854693907313,None,return,5.346850900910795,169.16883418289945,None,,,,,,,,,,,,,,,,,,,,,,,,,,,,,,,,,,,,,,,67,001,2023_Apr_11_1455,SpeechDraft1Carolyn_lessNoise_PlusLocalization,2021.2.3,60.02741704317607,
clutch.wav,clutch.mpg,clutch,4,A,Pink_Noise_4_1.wav,Pink_Noise_4_2.wav,,,,,,,,,,,,,,,0,5,5,41,,,,,,,,,,,,,,,,,,,,,,,174.5355304707773,None,176.01863595005125,None,177.40218379208818,None,clutch,177.40218379208818,None,return,4.678102618083358,177.485529624857,None,,,,,,,,,,,,,,,,,,,,,,,,,,,,,,,,,,,,,,,67,001,2023_Apr_11_1455,SpeechDraft1Carolyn_lessNoise_PlusLocalization,2021.2.3,60.02741704317607,
bath.wav,bath.mpg,bath,2,A,Pink_Noise_2_1.wav,Pink_Noise_2_2.wav,,,,,,,,,,,,,,,0,6,6,52,,,,,,,,,,,,,,,,,,,,,,,182.18552394397557,None,183.7018015841022,None,185.08546183397993,None,bask,185.08546183397993,None,return,12.778759859967977,185.16889847815037,None,,,,,,,,,,,,,,,,,,,,,,,,,,,,,,,,,,,,,,,67,001,2023_Apr_11_1455,SpeechDraft1Carolyn_lessNoise_PlusLocalization,2021.2.3,60.02741704317607,
claim.wav,claim.mpg,claim,4,A,Pink_Noise_4_1.wav,Pink_Noise_4_2.wav,,,,,,,,,,,,,,,0,7,7,57,,,,,,,,,,,,,,,,,,,,,,,197.96892117895186,None,199.46859419997782,None,200.85219178488478,None,claim,200.85219178488478,None,return,5.1480925446376204,200.935546644032,None,,,,,,,,,,,,,,,,,,,,,,,,,,,,,,,,,,,,,,,67,001,2023_Apr_11_1455,SpeechDraft1Carolyn_lessNoise_PlusLocalization,2021.2.3,60.02741704317607,
greek.wav,greek.mpg,greek,3,A,Pink_Noise_3_1.wav,Pink_Noise_3_2.wav,,,,,,,,,,,,,,,0,8,8,14,,,,,,,,,,,,,,,,,,,,,,,206.10224383091554,None,207.58519340585917,None,208.96891853306442,None,screech,208.96891853306442,None,return,5.079429253935814,209.0522673507221,None,,,,,,,,,,,,,,,,,,,,,,,,,,,,,,,,,,,,,,,67,001,2023_Apr_11_1455,SpeechDraft1Carolyn_lessNoise_PlusLocalization,2021.2.3,60.02741704317607,
toy.wav,toy.mpg,toy,3,A,Pink_Noise_3_1.wav,Pink_Noise_3_2.wav,,,,,,,,,,,,,,,0,9,9,5,,,,,,,,,,,,,,,,,,,,,,,214.15225854888558,None,215.63651774590835,None,217.01890532579273,None,toy,217.01890532579273,None,return,3.197371236048639,217.10225519910455,None,,,,,,,,,,,,,,,,,,,,,,,,,,,,,,,,,,,,,,,67,001,2023_Apr_11_1455,SpeechDraft1Carolyn_lessNoise_PlusLocalization,2021.2.3,60.02741704317607,
giant.wav,giant.mpg,giant,5,AV,Pink_Noise_5_1.wav,Pink_Noise_5_2.wav,,,,,,,,,,,,,,,0,10,10,79,,,,,,,,,,,,,,,,,,,,,,,220.3189576268196,None,221.8185600838624,None,223.20217669103295,None,giant,223.20217669103295,None,return,5.046084001194686,223.28555068094283,None,,,,,,,,,,,,,,,,,,,,,,,,,,,,,,,,,,,,,,,67,001,2023_Apr_11_1455,SpeechDraft1Carolyn_lessNoise_PlusLocalization,2021.2.3,60.02741704317607,
ditch.wav,ditch.mpg,ditch,6,A,Pink_Noise_6_1.wav,Pink_Noise_6_2.wav,,,,,,,,,,,,,,,0,11,11,45,,,,,,,,,,,,,,,,,,,,,,,228.35231487173587,None,229.83531694486737,None,231.2188989627175,None,stich,231.2188989627175,None,return,3.565458402968943,231.30227633193135,None,,,,,,,,,,,,,,,,,,,,,,,,,,,,,,,,,,,,,,,67,001,2023_Apr_11_1455,SpeechDraft1Carolyn_lessNoise_PlusLocalization,2021.2.3,60.02741704317607,
earth.wav,earth.mpg,earth,5,A,Pink_Noise_5_1.wav,Pink_Noise_5_2.wav,,,,,,,,,,,,,,,0,12,12,56,,,,,,,,,,,,,,,,,,,,,,,234.88561952998862,None,236.3852696660906,None,237.76904206816107,None,click,237.76904206816107,None,return,6.415443223435432,237.85227281181142,None,,,,,,,,,,,,,,,,,,,,,,,,,,,,,,,,,,,,,,,67,001,2023_Apr_11_1455,SpeechDraft1Carolyn_lessNoise_PlusLocalization,2021.2.3,60.02741704317607,
deem.wav,deem.mpg,deem,5,A,Pink_Noise_5_1.wav,Pink_Noise_5_2.wav,,,,,,,,,,,,,,,0,13,13,12,,,,,,,,,,,,,,,,,,,,,,,244.2856436870061,None,245.7689697141759,None,247.15230870898813,None,leaf,247.15230870898813,None,return,21.28794358903542,247.23568759998307,None,,,,,,,,,,,,,,,,,,,,,,,,,,,,,,,,,,,,,,,67,001,2023_Apr_11_1455,SpeechDraft1Carolyn_lessNoise_PlusLocalization,2021.2.3,60.02741704317607,
faint.wav,faint.mpg,faint,1,A,Pink_Noise_1_1.wav,Pink_Noise_1_2.wav,,,,,,,,,,,,,,,0,14,14,33,,,,,,,,,,,,,,,,,,,,,,,268.5522988829762,None,270.03585116099566,None,271.4190292651765,None,faint,271.4190292651765,None,return,3.4932909780181944,271.50234892079607,None,,,,,,,,,,,,,,,,,,,,,,,,,,,,,,,,,,,,,,,67,001,2023_Apr_11_1455,SpeechDraft1Carolyn_lessNoise_PlusLocalization,2021.2.3,60.02741704317607,
row.wav,row.mpg,row,2,A,Pink_Noise_2_1.wav,Pink_Noise_2_2.wav,,,,,,,,,,,,,,,0,15,15,16,,,,,,,,,,,,,,,,,,,,,,,275.0190253998153,None,276.51862088916823,None,277.9025993878022,None,row,277.9025993878022,None,return,2.073974799364805,277.98575554881245,None,,,,,,,,,,,,,,,,,,,,,,,,,,,,,,,,,,,,,,,67,001,2023_Apr_11_1455,SpeechDraft1Carolyn_lessNoise_PlusLocalization,2021.2.3,60.02741704317607,
awe.wav,awe.mpg,awe,3,A,Pink_Noise_3_1.wav,Pink_Noise_3_2.wav,,,,,,,,,,,,,,,0,16,16,32,,,,,,,,,,,,,,,,,,,,,,,280.08567440882325,None,281.5691110608168,None,282.95238112611696,None,awe,282.95238112611696,None,return,4.8079784153960645,283.03565767686814,None,,,,,,,,,,,,,,,,,,,,,,,,,,,,,,,,,,,,,,,67,001,2023_Apr_11_1455,SpeechDraft1Carolyn_lessNoise_PlusLocalization,2021.2.3,60.02741704317607,
cruel.wav,cruel.mpg,cruel,1,AV,Pink_Noise_1_1.wav,Pink_Noise_1_2.wav,,,,,,,,,,,,,,,0,17,17,106,,,,,,,,,,,,,,,,,,,,,,,287.8690502727404,None,289.35371302906424,None,290.735714871902,None,cruel,290.735714871902,None,return,4.232639485038817,290.81903823977336,None,,,,,,,,,,,,,,,,,,,,,,,,,,,,,,,,,,,,,,,67,001,2023_Apr_11_1455,SpeechDraft1Carolyn_lessNoise_PlusLocalization,2021.2.3,60.02741704317607,
built.wav,built.mpg,built,3,AV,Pink_Noise_3_1.wav,Pink_Noise_3_2.wav,,,,,,,,,,,,,,,0,18,18,84,,,,,,,,,,,,,,,,,,,,,,,295.06897499086335,None,296.5687448759563,None,297.95233386708423,None,buildt,297.95233386708423,None,return,20.54392259893939,298.0357065051794,None,,,,,,,,,,,,,,,,,,,,,,,,,,,,,,,,,,,,,,,67,001,2023_Apr_11_1455,SpeechDraft1Carolyn_lessNoise_PlusLocalization,2021.2.3,60.02741704317607,
stove.wav,stove.mpg,stove,4,A,Pink_Noise_4_1.wav,Pink_Noise_4_2.wav,,,,,,,,,,,,,,,0,19,19,7,,,,,,,,,,,,,,,,,,,,,,,318.6023733327165,None,320.1020304649137,None,321.4858179651201,None,skill,321.4858179651201,None,return,6.0425690351985395,321.56905651884153,None,,,,,,,,,,,,,,,,,,,,,,,,,,,,,,,,,,,,,,,67,001,2023_Apr_11_1455,SpeechDraft1Carolyn_lessNoise_PlusLocalization,2021.2.3,60.02741704317607,
draft.wav,draft.mpg,draft,6,AV,Pink_Noise_6_1.wav,Pink_Noise_6_2.wav,,,,,,,,,,,,,,,0,20,20,97,,,,,,,,,,,,,,,,,,,,,,,327.63575943093747,None,329.1205265247263,None,330.5023360438645,None,"draft
",330.5023360438645,None,return,2.953898839186877,330.5857447627932,None,,,,,,,,,,,,,,,,,,,,,,,,,,,,,,,,,,,,,,,67,001,2023_Apr_11_1455,SpeechDraft1Carolyn_lessNoise_PlusLocalization,2021.2.3,60.02741704317607,
chalk.wav,chalk.mpg,chalk,1,AV,Pink_Noise_1_1.wav,Pink_Noise_1_2.wav,,,,,,,,,,,,,,,0,21,21,83,,,,,,,,,,,,,,,,,,,,,,,333.56938564172015,None,335.068776729051,None,336.4523604689166,None,chalk,336.4523604689166,None,return,3.507730318233371,336.5359059870243,None,,,,,,,,,,,,,,,,,,,,,,,,,,,,,,,,,,,,,,,67,001,2023_Apr_11_1455,SpeechDraft1Carolyn_lessNoise_PlusLocalization,2021.2.3,60.02741704317607,
druid.wav,druid.mpg,druid,5,AV,Pink_Noise_5_1.wav,Pink_Noise_5_2.wav,,,,,,,,,,,,,,,0,22,22,112,,,,,,,,,,,,,,,,,,,,,,,340.06906960112974,None,341.5688484539278,None,342.95261084102094,None,dewy,342.95261084102094,None,return,7.255944684147835,343.03581047896296,None,,,,,,,,,,,,,,,,,,,,,,,,,,,,,,,,,,,,,,,67,001,2023_Apr_11_1455,SpeechDraft1Carolyn_lessNoise_PlusLocalization,2021.2.3,60.02741704317607,
roar.wav,roar.mpg,roar,3,A,Pink_Noise_3_1.wav,Pink_Noise_3_2.wav,,,,,,,,,,,,,,,0,23,23,49,,,,,,,,,,,,,,,,,,,,,,,350.3191145421006,None,351.81868528202176,None,353.2024223189801,None,horror,353.2024223189801,None,return,4.381881691981107,353.2858415269293,None,,,,,,,,,,,,,,,,,,,,,,,,,,,,,,,,,,,,,,,67,001,2023_Apr_11_1455,SpeechDraft1Carolyn_lessNoise_PlusLocalization,2021.2.3,60.02741704317607,
buff.wav,buff.mpg,buff,3,AV,Pink_Noise_3_1.wav,Pink_Noise_3_2.wav,,,,,,,,,,,,,,,0,24,24,117,,,,,,,,,,,,,,,,,,,,,,,357.6860096240416,None,359.1855682148598,None,360.5690273279324,None,"buff
",360.5690273279324,None,return,3.3670972581021488,360.65254424512386,None,,,,,,,,,,,,,,,,,,,,,,,,,,,,,,,,,,,,,,,67,001,2023_Apr_11_1455,SpeechDraft1Carolyn_lessNoise_PlusLocalization,2021.2.3,60.02741704317607,
fun.wav,fun.mpg,fun,2,A,Pink_Noise_2_1.wav,Pink_Noise_2_2.wav,,,,,,,,,,,,,,,0,25,25,4,,,,,,,,,,,,,,,,,,,,,,,364.0524777537212,None,365.55218160618097,None,366.9359261118807,None,fun,366.9359261118807,None,return,2.8485222957096994,367.01917674485594,None,,,,,,,,,,,,,,,,,,,,,,,,,,,,,,,,,,,,,,,67,001,2023_Apr_11_1455,SpeechDraft1Carolyn_lessNoise_PlusLocalization,2021.2.3,60.02741704317607,
foam.wav,foam.mpg,foam,5,AV,Pink_Noise_5_1.wav,Pink_Noise_5_2.wav,,,,,,,,,,,,,,,0,26,26,75,,,,,,,,,,,,,,,,,,,,,,,369.8858548360877,None,371.3855575029738,None,372.7690766239539,None,"foam
",372.7690766239539,None,return,6.734931766986847,372.8526969300583,None,,,,,,,,,,,,,,,,,,,,,,,,,,,,,,,,,,,,,,,67,001,2023_Apr_11_1455,SpeechDraft1Carolyn_lessNoise_PlusLocalization,2021.2.3,60.02741704317607,
crust.wav,crust.mpg,crust,4,A,Pink_Noise_4_1.wav,Pink_Noise_4_2.wav,,,,,,,,,,,,,,,0,27,27,17,,,,,,,,,,,,,,,,,,,,,,,379.61919530294836,None,381.11881947377697,None,382.50251284986734,None,crust,382.50251284986734,None,return,2.7138613159768283,382.5858513787389,None,,,,,,,,,,,,,,,,,,,,,,,,,,,,,,,,,,,,,,,67,001,2023_Apr_11_1455,SpeechDraft1Carolyn_lessNoise_PlusLocalization,2021.2.3,60.02741704317607,
cow.wav,cow.mpg,cow,6,A,Pink_Noise_6_1.wav,Pink_Noise_6_2.wav,,,,,,,,,,,,,,,0,28,28,38,,,,,,,,,,,,,,,,,,,,,,,385.31914995377883,None,386.8192199380137,None,388.2025167327374,None,talk,388.2025167327374,None,return,4.261776463128626,388.28586605377495,None,,,,,,,,,,,,,,,,,,,,,,,,,,,,,,,,,,,,,,,67,001,2023_Apr_11_1455,SpeechDraft1Carolyn_lessNoise_PlusLocalization,2021.2.3,60.02741704317607,
dream.wav,dream.mpg,dream,2,AV,Pink_Noise_2_1.wav,Pink_Noise_2_2.wav,,,,,,,,,,,,,,,0,29,29,71,,,,,,,,,,,,,,,,,,,,,,,392.56917866598815,None,394.06889396579936,None,395.4523740699515,None,dream,395.4523740699515,None,return,3.3558980240486562,395.53585764579475,None,,,,,,,,,,,,,,,,,,,,,,,,,,,,,,,,,,,,,,,67,001,2023_Apr_11_1455,SpeechDraft1Carolyn_lessNoise_PlusLocalization,2021.2.3,60.02741704317607,
card.wav,card.mpg,card,5,AV,Pink_Noise_5_1.wav,Pink_Noise_5_2.wav,,,,,,,,,,,,,,,0,30,30,107,,,,,,,,,,,,,,,,,,,,,,,398.91914860811085,None,400.418924366124,None,401.8025730829686,None,card,401.8025730829686,None,return,2.6057896497659385,401.8859258708544,None,,,,,,,,,,,,,,,,,,,,,,,,,,,,,,,,,,,,,,,67,001,2023_Apr_11_1455,SpeechDraft1Carolyn_lessNoise_PlusLocalization,2021.2.3,60.02741704317607,
chomp.wav,chomp.mpg,chomp,1,AV,Pink_Noise_1_1.wav,Pink_Noise_1_2.wav,,,,,,,,,,,,,,,0,31,31,111,,,,,,,,,,,,,,,,,,,,,,,404.5192121230066,None,406.0189049509354,None,407.40250866208225,None,chomp,407.40250866208225,None,return,4.789894989226013,407.4858484817669,None,,,,,,,,,,,,,,,,,,,,,,,,,,,,,,,,,,,,,,,67,001,2023_Apr_11_1455,SpeechDraft1Carolyn_lessNoise_PlusLocalization,2021.2.3,60.02741704317607,
beige.wav,beige.mpg,beige,5,AV,Pink_Noise_5_1.wav,Pink_Noise_5_2.wav,,,,,,,,,,,,,,,0,32,32,94,,,,,,,,,,,,,,,,,,,,,,,412.30253123817965,None,413.80224017892033,None,415.16914652474225,None,beige,415.16914652474225,None,return,14.671105237212032,415.25253518717363,None,,,,,,,,,,,,,,,,,,,,,,,,,,,,,,,,,,,,,,,67,001,2023_Apr_11_1455,SpeechDraft1Carolyn_lessNoise_PlusLocalization,2021.2.3,60.02741704317607,
care.wav,care.mpg,care,2,A,Pink_Noise_2_1.wav,Pink_Noise_2_2.wav,,,,,,,,,,,,,,,0,33,33,42,,,,,,,,,,,,,,,,,,,,,,,429.9525769650936,None,431.48560734605417,None,432.8692891797982,None,"care
",432.8692891797982,None,return,2.2190966489724815,432.95254293782637,None,,,,,,,,,,,,,,,,,,,,,,,,,,,,,,,,,,,,,,,67,001,2023_Apr_11_1455,SpeechDraft1Carolyn_lessNoise_PlusLocalization,2021.2.3,60.02741704317607,
gift.wav,gift.mpg,gift,2,AV,Pink_Noise_2_1.wav,Pink_Noise_2_2.wav,,,,,,,,,,,,,,,0,34,34,82,,,,,,,,,,,,,,,,,,,,,,,435.2026667119935,None,436.70225899107754,None,438.08587509486824,None,gift,438.08587509486824,None,return,3.4825044008903205,438.16920126695186,None,,,,,,,,,,,,,,,,,,,,,,,,,,,,,,,,,,,,,,,67,001,2023_Apr_11_1455,SpeechDraft1Carolyn_lessNoise_PlusLocalization,2021.2.3,60.02741704317607,
chin.wav,chin.mpg,chin,3,A,Pink_Noise_3_1.wav,Pink_Noise_3_2.wav,,,,,,,,,,,,,,,0,35,35,51,,,,,,,,,,,,,,,,,,,,,,,441.6692258231342,None,443.16897224308923,None,444.5525992028415,None,"chin
",444.5525992028415,None,return,2.119625091087073,444.6360147939995,None,,,,,,,,,,,,,,,,,,,,,,,,,,,,,,,,,,,,,,,67,001,2023_Apr_11_1455,SpeechDraft1Carolyn_lessNoise_PlusLocalization,2021.2.3,60.02741704317607,
chump.wav,chump.mpg,chump,2,AV,Pink_Noise_2_1.wav,Pink_Noise_2_2.wav,,,,,,,,,,,,,,,0,36,36,65,,,,,,,,,,,,,,,,,,,,,,,446.7859479938634,None,448.2856773347594,None,449.66917819017544,None,chump,449.66917819017544,None,return,5.731021582148969,449.75263724382967,None,,,,,,,,,,,,,,,,,,,,,,,,,,,,,,,,,,,,,,,67,001,2023_Apr_11_1455,SpeechDraft1Carolyn_lessNoise_PlusLocalization,2021.2.3,60.02741704317607,
clock.wav,clock.mpg,clock,4,A,Pink_Noise_4_1.wav,Pink_Noise_4_2.wav,,,,,,,,,,,,,,,0,37,37,0,,,,,,,,,,,,,,,,,,,,,,,455.50268465606496,None,457.0028382348828,None,458.385938080959,None,clock,458.385938080959,None,return,12.77452244097367,458.4692185111344,None,,,,,,,,,,,,,,,,,,,,,,,,,,,,,,,,,,,,,,,67,001,2023_Apr_11_1455,SpeechDraft1Carolyn_lessNoise_PlusLocalization,2021.2.3,60.02741704317607,
flirt.wav,flirt.mpg,flirt,4,A,Pink_Noise_4_1.wav,Pink_Noise_4_2.wav,,,,,,,,,,,,,,,0,38,38,48,,,,,,,,,,,,,,,,,,,,,,,471.26926088379696,None,472.7689082999714,None,474.1527097960934,None,silt,474.1527097960934,None,return,11.023785192053765,474.2359448419884,None,,,,,,,,,,,,,,,,,,,,,,,,,,,,,,,,,,,,,,,67,001,2023_Apr_11_1455,SpeechDraft1Carolyn_lessNoise_PlusLocalization,2021.2.3,60.02741704317607,
grass.wav,grass.mpg,grass,2,A,Pink_Noise_2_1.wav,Pink_Noise_2_2.wav,,,,,,,,,,,,,,,0,39,39,35,,,,,,,,,,,,,,,,,,,,,,,485.2859941450879,None,486.78575608693063,None,488.16945205582306,None,grass,488.16945205582306,None,return,2.8550962498411536,488.2526138648391,None,,,,,,,,,,,,,,,,,,,,,,,,,,,,,,,,,,,,,,,67,001,2023_Apr_11_1455,SpeechDraft1Carolyn_lessNoise_PlusLocalization,2021.2.3,60.02741704317607,
blot.wav,blot.mpg,blot,6,AV,Pink_Noise_6_1.wav,Pink_Noise_6_2.wav,,,,,,,,,,,,,,,0,40,40,70,,,,,,,,,,,,,,,,,,,,,,,491.1359902857803,None,492.63567606778815,None,494.01931498991325,None,blocked,494.01931498991325,None,return,3.8769450644031167,494.1027077678591,None,,,,,,,,,,,,,,,,,,,,,,,,,,,,,,,,,,,,,,,67,001,2023_Apr_11_1455,SpeechDraft1Carolyn_lessNoise_PlusLocalization,2021.2.3,60.02741704317607,
bird.wav,bird.mpg,bird,4,AV,Pink_Noise_4_1.wav,Pink_Noise_4_2.wav,,,,,,,,,,,,,,,0,41,41,114,,,,,,,,,,,,,,,,,,,,,,,498.00258166808635,None,499.50246209977195,None,500.8858923660591,None,bird,500.8858923660591,None,return,1.9783166754059494,500.96931977104396,None,,,,,,,,,,,,,,,,,,,,,,,,,,,,,,,,,,,,,,,67,001,2023_Apr_11_1455,SpeechDraft1Carolyn_lessNoise_PlusLocalization,2021.2.3,60.02741704317607,
droop.wav,droop.mpg,droop,6,AV,Pink_Noise_6_1.wav,Pink_Noise_6_2.wav,,,,,,,,,,,,,,,0,42,42,100,,,,,,,,,,,,,,,,,,,,,,,502.9693350591697,None,504.4689981970005,None,505.8525348347612,None,droop,505.8525348347612,None,return,5.347660834901035,505.93599592195824,None,,,,,,,,,,,,,,,,,,,,,,,,,,,,,,,,,,,,,,,67,001,2023_Apr_11_1455,SpeechDraft1Carolyn_lessNoise_PlusLocalization,2021.2.3,60.02741704317607,
coal.wav,coal.mpg,coal,3,A,Pink_Noise_3_1.wav,Pink_Noise_3_2.wav,,,,,,,,,,,,,,,0,43,43,39,,,,,,,,,,,,,,,,,,,,,,,511.30273561598733,None,512.8025447940454,None,514.1859850590117,None,cold,514.1859850590117,None,return,2.45424040267244,514.269399411045,None,,,,,,,,,,,,,,,,,,,,,,,,,,,,,,,,,,,,,,,67,001,2023_Apr_11_1455,SpeechDraft1Carolyn_lessNoise_PlusLocalization,2021.2.3,60.02741704317607,
golf.wav,golf.mpg,golf,1,AV,Pink_Noise_1_1.wav,Pink_Noise_1_2.wav,,,,,,,,,,,,,,,0,44,44,62,,,,,,,,,,,,,,,,,,,,,,,516.7526509379968,None,518.2525762361474,None,519.6359068779275,None,"golf
",519.6359068779275,None,return,3.236297708004713,519.7193470750935,None,,,,,,,,,,,,,,,,,,,,,,,,,,,,,,,,,,,,,,,67,001,2023_Apr_11_1455,SpeechDraft1Carolyn_lessNoise_PlusLocalization,2021.2.3,60.02741704317607,
lead.wav,lead.mpg,lead,6,AV,Pink_Noise_6_1.wav,Pink_Noise_6_2.wav,,,,,,,,,,,,,,,0,45,45,113,,,,,,,,,,,,,,,,,,,,,,,522.986062657088,None,524.4857626738958,None,525.8692352031358,None,lake,525.8692352031358,None,return,2.1389679186977446,525.9527361579239,None,,,,,,,,,,,,,,,,,,,,,,,,,,,,,,,,,,,,,,,67,001,2023_Apr_11_1455,SpeechDraft1Carolyn_lessNoise_PlusLocalization,2021.2.3,60.02741704317607,
four.wav,four.mpg,four,4,A,Pink_Noise_4_1.wav,Pink_Noise_4_2.wav,,,,,,,,,,,,,,,0,46,46,59,,,,,,,,,,,,,,,,,,,,,,,528.1194690149277,None,529.6191530511715,None,531.0025969468988,None,"sport
",531.0025969468988,None,return,5.885618619155139,531.0860179238953,None,,,,,,,,,,,,,,,,,,,,,,,,,,,,,,,,,,,,,,,67,001,2023_Apr_11_1455,SpeechDraft1Carolyn_lessNoise_PlusLocalization,2021.2.3,60.02741704317607,
funk.wav,funk.mpg,funk,1,A,Pink_Noise_1_1.wav,Pink_Noise_1_2.wav,,,,,,,,,,,,,,,0,47,47,28,,,,,,,,,,,,,,,,,,,,,,,537.0026058638468,None,538.5023279287852,None,539.8860713611357,None,funk,539.8860713611357,None,return,3.3224289789795876,539.9693167391233,None,,,,,,,,,,,,,,,,,,,,,,,,,,,,,,,,,,,,,,,67,001,2023_Apr_11_1455,SpeechDraft1Carolyn_lessNoise_PlusLocalization,2021.2.3,60.02741704317607,
roast.wav,roast.mpg,roast,4,AV,Pink_Noise_4_1.wav,Pink_Noise_4_2.wav,,,,,,,,,,,,,,,0,48,48,90,,,,,,,,,,,,,,,,,,,,,,,543.3194956509396,None,544.8190383589827,None,546.2027536770329,None,roast,546.2027536770329,None,return,2.477290716022253,546.2863339968026,None,,,,,,,,,,,,,,,,,,,,,,,,,,,,,,,,,,,,,,,67,001,2023_Apr_11_1455,SpeechDraft1Carolyn_lessNoise_PlusLocalization,2021.2.3,60.02741704317607,
crime.wav,crime.mpg,crime,1,AV,Pink_Noise_1_1.wav,Pink_Noise_1_2.wav,,,,,,,,,,,,,,,0,49,49,95,,,,,,,,,,,,,,,,,,,,,,,548.7861417499371,None,550.2858035047539,None,551.6693077157252,None,crime,551.6693077157252,None,return,3.074852537829429,551.7527934480458,None,,,,,,,,,,,,,,,,,,,,,,,,,,,,,,,,,,,,,,,67,001,2023_Apr_11_1455,SpeechDraft1Carolyn_lessNoise_PlusLocalization,2021.2.3,60.02741704317607,
chew.wav,chew.mpg,chew,5,A,Pink_Noise_5_1.wav,Pink_Noise_5_2.wav,,,,,,,,,,,,,,,0,50,50,43,,,,,,,,,,,,,,,,,,,,,,,554.85274347011,None,556.3524304628372,None,557.7360596088693,None,chill,557.7360596088693,None,return,2.472348769661039,557.8194052111357,None,,,,,,,,,,,,,,,,,,,,,,,,,,,,,,,,,,,,,,,67,001,2023_Apr_11_1455,SpeechDraft1Carolyn_lessNoise_PlusLocalization,2021.2.3,60.02741704317607,
swayed.wav,swayed.mpg,swayed,4,A,Pink_Noise_4_1.wav,Pink_Noise_4_2.wav,,,,,,,,,,,,,,,0,51,51,36,,,,,,,,,,,,,,,,,,,,,,,560.3195062689483,None,561.819159982726,None,563.2027687299997,None,sway,563.2027687299997,None,return,3.3975763097405434,563.2860628790222,None,,,,,,,,,,,,,,,,,,,,,,,,,,,,,,,,,,,,,,,67,001,2023_Apr_11_1455,SpeechDraft1Carolyn_lessNoise_PlusLocalization,2021.2.3,60.02741704317607,
gram.wav,gram.mpg,gram,6,A,Pink_Noise_6_1.wav,Pink_Noise_6_2.wav,,,,,,,,,,,,,,,0,52,52,3,,,,,,,,,,,,,,,,,,,,,,,566.7028986848891,None,568.2024014308117,None,569.586210637819,None,"rain
",569.586210637819,None,return,1.7502463310956955,569.6693935869262,None,,,,,,,,,,,,,,,,,,,,,,,,,,,,,,,,,,,,,,,67,001,2023_Apr_11_1455,SpeechDraft1Carolyn_lessNoise_PlusLocalization,2021.2.3,60.02741704317607,
bar.wav,bar.mpg,bar,1,AV,Pink_Noise_1_1.wav,Pink_Noise_1_2.wav,,,,,,,,,,,,,,,0,53,53,72,,,,,,,,,,,,,,,,,,,,,,,571.452883859165,None,572.952466441784,None,574.3360244431533,None,"bar
",574.3360244431533,None,return,1.5521012311801314,574.4195382390171,None,,,,,,,,,,,,,,,,,,,,,,,,,,,,,,,,,,,,,,,67,001,2023_Apr_11_1455,SpeechDraft1Carolyn_lessNoise_PlusLocalization,2021.2.3,60.02741704317607,
bland.wav,bland.mpg,bland,2,AV,Pink_Noise_2_1.wav,Pink_Noise_2_2.wav,,,,,,,,,,,,,,,0,54,54,105,,,,,,,,,,,,,,,,,,,,,,,576.0027445638552,None,577.5025072158314,None,578.885874486994,None,"bland
",578.885874486994,None,return,2.434190424159169,578.9694694359787,None,,,,,,,,,,,,,,,,,,,,,,,,,,,,,,,,,,,,,,,67,001,2023_Apr_11_1455,SpeechDraft1Carolyn_lessNoise_PlusLocalization,2021.2.3,60.02741704317607,
dive.wav,dive.mpg,dive,1,AV,Pink_Noise_1_1.wav,Pink_Noise_1_2.wav,,,,,,,,,,,,,,,0,55,55,64,,,,,,,,,,,,,,,,,,,,,,,581.4361139428802,None,582.9358884738758,None,584.3194464799017,None,dive,584.3194464799017,None,return,1.7929424443282187,584.4027115739882,None,,,,,,,,,,,,,,,,,,,,,,,,,,,,,,,,,,,,,,,67,001,2023_Apr_11_1455,SpeechDraft1Carolyn_lessNoise_PlusLocalization,2021.2.3,60.02741704317607,
badge.wav,badge.mpg,badge,2,AV,Pink_Noise_2_1.wav,Pink_Noise_2_2.wav,,,,,,,,,,,,,,,0,56,56,78,,,,,,,,,,,,,,,,,,,,,,,586.2194504318759,None,587.7192346248776,None,589.1027251901105,None,badge,589.1027251901105,None,return,6.193325654603541,589.1863032011315,None,,,,,,,,,,,,,,,,,,,,,,,,,,,,,,,,,,,,,,,67,001,2023_Apr_11_1455,SpeechDraft1Carolyn_lessNoise_PlusLocalization,2021.2.3,60.02741704317607,
clash.wav,clash.mpg,clash,6,A,Pink_Noise_6_1.wav,Pink_Noise_6_2.wav,,,,,,,,,,,,,,,0,57,57,53,,,,,,,,,,,,,,,,,,,,,,,595.4028194397688,None,596.9024094217457,None,598.2861163769849,None,"slash
",598.2861163769849,None,return,2.5860980339348316,598.3695501121692,None,,,,,,,,,,,,,,,,,,,,,,,,,,,,,,,,,,,,,,,67,001,2023_Apr_11_1455,SpeechDraft1Carolyn_lessNoise_PlusLocalization,2021.2.3,60.02741704317607,
barge.wav,barge.mpg,barge,4,AV,Pink_Noise_4_1.wav,Pink_Noise_4_2.wav,,,,,,,,,,,,,,,0,58,58,66,,,,,,,,,,,,,,,,,,,,,,,600.9860928319395,None,602.4858270557597,None,603.8693811157718,None,barge,603.8693811157718,None,return,9.026803305838257,603.9528281027451,None,,,,,,,,,,,,,,,,,,,,,,,,,,,,,,,,,,,,,,,67,001,2023_Apr_11_1455,SpeechDraft1Carolyn_lessNoise_PlusLocalization,2021.2.3,60.02741704317607,
fail.wav,fail.mpg,fail,6,AV,Pink_Noise_6_1.wav,Pink_Noise_6_2.wav,,,,,,,,,,,,,,,0,59,59,119,,,,,,,,,,,,,,,,,,,,,,,613.0028149741702,None,614.5192274111323,None,615.9027360640466,None,fail,615.9027360640466,None,return,4.473615828901529,615.9861283660866,None,,,,,,,,,,,,,,,,,,,,,,,,,,,,,,,,,,,,,,,67,001,2023_Apr_11_1455,SpeechDraft1Carolyn_lessNoise_PlusLocalization,2021.2.3,60.02741704317607,
bank.wav,bank.mpg,bank,4,AV,Pink_Noise_4_1.wav,Pink_Noise_4_2.wav,,,,,,,,,,,,,,,0,60,60,88,,,,,,,,,,,,,,,,,,,,,,,620.4861000501551,None,621.9858749001287,None,623.3694474198855,None,bank,623.3694474198855,None,return,2.198712273966521,623.4529847730882,None,,,,,,,,,,,,,,,,,,,,,,,,,,,,,,,,,,,,,,,67,001,2023_Apr_11_1455,SpeechDraft1Carolyn_lessNoise_PlusLocalization,2021.2.3,60.02741704317607,
blade.wav,blade.mpg,blade,1,A,Pink_Noise_1_1.wav,Pink_Noise_1_2.wav,,,,,,,,,,,,,,,0,61,61,54,,,,,,,,,,,,,,,,,,,,,,,625.6694161561318,None,627.1691107689403,None,628.5529016600922,None,blade,628.5529016600922,None,return,2.191549635026604,628.6360799791291,None,,,,,,,,,,,,,,,,,,,,,,,,,,,,,,,,,,,,,,,67,001,2023_Apr_11_1455,SpeechDraft1Carolyn_lessNoise_PlusLocalization,2021.2.3,60.02741704317607,
faith.wav,faith.mpg,faith,3,AV,Pink_Noise_3_1.wav,Pink_Noise_3_2.wav,,,,,,,,,,,,,,,0,62,62,102,,,,,,,,,,,,,,,,,,,,,,,630.8527891119011,None,632.3526170309633,None,633.7361966790631,None,faith,633.7361966790631,None,return,2.4162605768069625,633.8194500589743,None,,,,,,,,,,,,,,,,,,,,,,,,,,,,,,,,,,,,,,,67,001,2023_Apr_11_1455,SpeechDraft1Carolyn_lessNoise_PlusLocalization,2021.2.3,60.02741704317607,
feud.wav,feud.mpg,feud,3,AV,Pink_Noise_3_1.wav,Pink_Noise_3_2.wav,,,,,,,,,,,,,,,0,63,63,63,,,,,,,,,,,,,,,,,,,,,,,636.2528628967702,None,637.7525804489851,None,639.1361339171417,None,feude,639.1361339171417,None,return,6.560167970135808,639.2194777168334,None,,,,,,,,,,,,,,,,,,,,,,,,,,,,,,,,,,,,,,,67,001,2023_Apr_11_1455,SpeechDraft1Carolyn_lessNoise_PlusLocalization,2021.2.3,60.02741704317607,
fish.wav,fish.mpg,fish,2,A,Pink_Noise_2_1.wav,Pink_Noise_2_2.wav,,,,,,,,,,,,,,,0,64,64,2,,,,,,,,,,,,,,,,,,,,,,,645.8028902807273,None,647.3024897319265,None,648.6861989018507,None,fish,648.6861989018507,None,return,1.5301585192792118,648.7695390097797,None,,,,,,,,,,,,,,,,,,,,,,,,,,,,,,,,,,,,,,,67,001,2023_Apr_11_1455,SpeechDraft1Carolyn_lessNoise_PlusLocalization,2021.2.3,60.02741704317607,
fluent.wav,fluent.mpg,fluent,5,A,Pink_Noise_5_1.wav,Pink_Noise_5_2.wav,,,,,,,,,,,,,,,0,65,65,20,,,,,,,,,,,,,,,,,,,,,,,650.3195403069258,None,651.8191194161773,None,653.2028805450536,None,field,653.2028805450536,None,return,1.6294516581110656,653.2862130757421,None,,,,,,,,,,,,,,,,,,,,,,,,,,,,,,,,,,,,,,,67,001,2023_Apr_11_1455,SpeechDraft1Carolyn_lessNoise_PlusLocalization,2021.2.3,60.02741704317607,
fault.wav,fault.mpg,fault,1,A,Pink_Noise_1_1.wav,Pink_Noise_1_2.wav,,,,,,,,,,,,,,,0,66,66,15,,,,,,,,,,,,,,,,,,,,,,,654.9362086839974,None,656.4358540549874,None,657.8197031207383,None,fault,657.8197031207383,None,return,8.004911457188427,657.9028578130528,None,,,,,,,,,,,,,,,,,,,,,,,,,,,,,,,,,,,,,,,67,001,2023_Apr_11_1455,SpeechDraft1Carolyn_lessNoise_PlusLocalization,2021.2.3,60.02741704317607,
burn.wav,burn.mpg,burn,1,AV,Pink_Noise_1_1.wav,Pink_Noise_1_2.wav,,,,,,,,,,,,,,,0,67,67,104,,,,,,,,,,,,,,,,,,,,,,,665.9362200461328,None,667.4361035698093,None,668.819491926115,None,burn,668.819491926115,None,return,2.740595682989806,668.9030656949617,None,,,,,,,,,,,,,,,,,,,,,,,,,,,,,,,,,,,,,,,67,001,2023_Apr_11_1455,SpeechDraft1Carolyn_lessNoise_PlusLocalization,2021.2.3,60.02741704317607,
fraud.wav,fraud.mpg,fraud,3,A,Pink_Noise_3_1.wav,Pink_Noise_3_2.wav,,,,,,,,,,,,,,,0,68,68,21,,,,,,,,,,,,,,,,,,,,,,,671.6695798491128,None,673.1692575728521,None,674.5529272491112,None,fraud,674.5529272491112,None,return,2.5593913588672876,674.6362368087284,None,,,,,,,,,,,,,,,,,,,,,,,,,,,,,,,,,,,,,,,67,001,2023_Apr_11_1455,SpeechDraft1Carolyn_lessNoise_PlusLocalization,2021.2.3,60.02741704317607,
dense.wav,dense.mpg,dense,5,AV,Pink_Noise_5_1.wav,Pink_Noise_5_2.wav,,,,,,,,,,,,,,,0,69,69,99,,,,,,,,,,,,,,,,,,,,,,,677.2197309071198,None,678.7193506299518,None,680.1028326400556,None,nights,680.1028326400556,None,return,6.42538575315848,680.1862367880531,None,,,,,,,,,,,,,,,,,,,,,,,,,,,,,,,,,,,,,,,67,001,2023_Apr_11_1455,SpeechDraft1Carolyn_lessNoise_PlusLocalization,2021.2.3,60.02741704317607,
fence.wav,fence.mpg,fence,6,A,Pink_Noise_6_1.wav,Pink_Noise_6_2.wav,,,,,,,,,,,,,,,0,70,70,18,,,,,,,,,,,,,,,,,,,,,,,686.6362237581052,None,688.1358753298409,None,689.5196580360644,None,faked,689.5196580360644,None,return,8.104873694013804,689.6028910400346,None,,,,,,,,,,,,,,,,,,,,,,,,,,,,,,,,,,,,,,,67,001,2023_Apr_11_1455,SpeechDraft1Carolyn_lessNoise_PlusLocalization,2021.2.3,60.02741704317607,
fetch.wav,fetch.mpg,fetch,3,AV,Pink_Noise_3_1.wav,Pink_Noise_3_2.wav,,,,,,,,,,,,,,,0,71,71,110,,,,,,,,,,,,,,,,,,,,,,,697.7362844268791,None,699.2359540429898,None,700.6197517151013,None,fetch,700.6197517151013,None,return,2.7967871320433915,700.7029209560715,None,,,,,,,,,,,,,,,,,,,,,,,,,,,,,,,,,,,,,,,67,001,2023_Apr_11_1455,SpeechDraft1Carolyn_lessNoise_PlusLocalization,2021.2.3,60.02741704317607,
clumps.wav,clumps.mpg,clumps,6,A,Pink_Noise_6_1.wav,Pink_Noise_6_2.wav,,,,,,,,,,,,,,,0,72,72,30,,,,,,,,,,,,,,,,,,,,,,,703.5196295371279,None,705.036047542002,None,706.4196440209635,None,close,706.4196440209635,None,return,7.220703907776624,706.5029277987778,None,,,,,,,,,,,,,,,,,,,,,,,,,,,,,,,,,,,,,,,67,001,2023_Apr_11_1455,SpeechDraft1Carolyn_lessNoise_PlusLocalization,2021.2.3,60.02741704317607,
glide.wav,glide.mpg,glide,5,A,Pink_Noise_5_1.wav,Pink_Noise_5_2.wav,,,,,,,,,,,,,,,0,73,73,24,,,,,,,,,,,,,,,,,,,,,,,713.7529574870132,None,715.2526516658254,None,716.6362901357934,None,"glide
",716.6362901357934,None,return,4.067899057175964,716.7197439707816,None,,,,,,,,,,,,,,,,,,,,,,,,,,,,,,,,,,,,,,,67,001,2023_Apr_11_1455,SpeechDraft1Carolyn_lessNoise_PlusLocalization,2021.2.3,60.02741704317607,
creep.wav,creep.mpg,creep,5,AV,Pink_Noise_5_1.wav,Pink_Noise_5_2.wav,,,,,,,,,,,,,,,0,74,74,118,,,,,,,,,,,,,,,,,,,,,,,720.8196073230356,None,722.3193056210876,None,723.703115245793,None,drape,723.703115245793,None,return,3.177398298867047,723.7862738021649,None,,,,,,,,,,,,,,,,,,,,,,,,,,,,,,,,,,,,,,,67,001,2023_Apr_11_1455,SpeechDraft1Carolyn_lessNoise_PlusLocalization,2021.2.3,60.02741704317607,
boss.wav,boss.mpg,boss,1,A,Pink_Noise_1_1.wav,Pink_Noise_1_2.wav,,,,,,,,,,,,,,,0,75,75,10,,,,,,,,,,,,,,,,,,,,,,,726.986340302974,None,728.5026388741098,None,729.8697766941041,None,gloss,729.8697766941041,None,return,2.3066508881747723,729.9530952349305,None,,,,,,,,,,,,,,,,,,,,,,,,,,,,,,,,,,,,,,,67,001,2023_Apr_11_1455,SpeechDraft1Carolyn_lessNoise_PlusLocalization,2021.2.3,60.02741704317607,
ask.wav,ask.mpg,ask,5,AV,Pink_Noise_5_1.wav,Pink_Noise_5_2.wav,,,,,,,,,,,,,,,0,76,76,61,,,,,,,,,,,,,,,,,,,,,,,732.2863432578743,None,733.786035113968,None,735.1695946459658,None,ask,735.1695946459658,None,return,1.6466562119312584,735.2530041621067,None,,,,,,,,,,,,,,,,,,,,,,,,,,,,,,,,,,,,,,,67,001,2023_Apr_11_1455,SpeechDraft1Carolyn_lessNoise_PlusLocalization,2021.2.3,60.02741704317607,
beg.wav,beg.mpg,beg,3,A,Pink_Noise_3_1.wav,Pink_Noise_3_2.wav,,,,,,,,,,,,,,,0,77,77,25,,,,,,,,,,,,,,,,,,,,,,,736.9199324171059,None,738.4193708421662,None,739.8029305017553,None,"leg
",739.8029305017553,None,return,1.9332754067145288,739.8863665740937,None,,,,,,,,,,,,,,,,,,,,,,,,,,,,,,,,,,,,,,,67,001,2023_Apr_11_1455,SpeechDraft1Carolyn_lessNoise_PlusLocalization,2021.2.3,60.02741704317607,
crowd.wav,crowd.mpg,crowd,5,A,Pink_Noise_5_1.wav,Pink_Noise_5_2.wav,,,,,,,,,,,,,,,0,78,78,1,,,,,,,,,,,,,,,,,,,,,,,741.8530600648373,None,743.3526437100954,None,744.7363242930733,None,crown,744.7363242930733,None,return,6.919953792821616,744.8196874619462,None,,,,,,,,,,,,,,,,,,,,,,,,,,,,,,,,,,,,,,,67,001,2023_Apr_11_1455,SpeechDraft1Carolyn_lessNoise_PlusLocalization,2021.2.3,60.02741704317607,
thief.wav,thief.mpg,thief,1,AV,Pink_Noise_1_1.wav,Pink_Noise_1_2.wav,,,,,,,,,,,,,,,0,79,79,86,,,,,,,,,,,,,,,,,,,,,,,751.7696782858111,None,753.2860767259263,None,754.6528909141198,None,"thief
",754.6528909141198,None,return,4.419240563642234,754.7363990987651,None,,,,,,,,,,,,,,,,,,,,,,,,,,,,,,,,,,,,,,,67,001,2023_Apr_11_1455,SpeechDraft1Carolyn_lessNoise_PlusLocalization,2021.2.3,60.02741704317607,
fruit.wav,fruit.mpg,fruit,3,AV,Pink_Noise_3_1.wav,Pink_Noise_3_2.wav,,,,,,,,,,,,,,,0,80,80,81,,,,,,,,,,,,,,,,,,,,,,,759.1864353287965,None,760.6880193869583,None,762.0695547917858,None,fruit,762.0695547917858,None,return,11.394637775607407,762.1529988767579,None,,,,,,,,,,,,,,,,,,,,,,,,,,,,,,,,,,,,,,,67,001,2023_Apr_11_1455,SpeechDraft1Carolyn_lessNoise_PlusLocalization,2021.2.3,60.02741704317607,
flat.wav,flat.mpg,flat,2,AV,Pink_Noise_2_1.wav,Pink_Noise_2_2.wav,,,,,,,,,,,,,,,0,81,81,89,,,,,,,,,,,,,,,,,,,,,,,773.5697815530002,None,775.0693967230618,None,776.4529537637718,None,flat,776.4529537637718,None,return,2.123358361888677,776.5363905290142,None,,,,,,,,,,,,,,,,,,,,,,,,,,,,,,,,,,,,,,,67,001,2023_Apr_11_1455,SpeechDraft1Carolyn_lessNoise_PlusLocalization,2021.2.3,60.02741704317607,
fly.wav,fly.mpg,fly,6,AV,Pink_Noise_6_1.wav,Pink_Noise_6_2.wav,,,,,,,,,,,,,,,0,82,82,73,,,,,,,,,,,,,,,,,,,,,,,778.6863965280354,None,780.1869513317943,None,781.5698743569665,None,flat,781.5698743569665,None,return,4.510536418296397,781.6530797351152,None,,,,,,,,,,,,,,,,,,,,,,,,,,,,,,,,,,,,,,,67,001,2023_Apr_11_1455,SpeechDraft1Carolyn_lessNoise_PlusLocalization,2021.2.3,60.02741704317607,
den.wav,den.mpg,den,3,AV,Pink_Noise_3_1.wav,Pink_Noise_3_2.wav,,,,,,,,,,,,,,,0,83,83,91,,,,,,,,,,,,,,,,,,,,,,,786.1863894038834,None,787.8693890217692,None,789.253206891939,None,dead,789.253206891939,None,return,2.499375062994659,789.3363189371303,None,,,,,,,,,,,,,,,,,,,,,,,,,,,,,,,,,,,,,,,67,001,2023_Apr_11_1455,SpeechDraft1Carolyn_lessNoise_PlusLocalization,2021.2.3,60.02741704317607,
fade.wav,fade.mpg,fade,3,AV,Pink_Noise_3_1.wav,Pink_Noise_3_2.wav,,,,,,,,,,,,,,,0,84,84,68,,,,,,,,,,,,,,,,,,,,,,,791.853046500124,None,793.3528202017769,None,794.7363004400395,None,fade,794.7363004400395,None,return,2.327817856799811,794.8198028057814,None,,,,,,,,,,,,,,,,,,,,,,,,,,,,,,,,,,,,,,,67,001,2023_Apr_11_1455,SpeechDraft1Carolyn_lessNoise_PlusLocalization,2021.2.3,60.02741704317607,
cheap.wav,cheap.mpg,cheap,3,AV,Pink_Noise_3_1.wav,Pink_Noise_3_2.wav,,,,,,,,,,,,,,,0,85,85,96,,,,,,,,,,,,,,,,,,,,,,,797.1698441128246,None,798.6695212027989,None,800.0529025257565,None,cheap,800.0529025257565,None,return,3.315354398917407,800.1364052859135,None,,,,,,,,,,,,,,,,,,,,,,,,,,,,,,,,,,,,,,,67,001,2023_Apr_11_1455,SpeechDraft1Carolyn_lessNoise_PlusLocalization,2021.2.3,60.02741704317607,
carve.wav,carve.mpg,carve,5,A,Pink_Noise_5_1.wav,Pink_Noise_5_2.wav,,,,,,,,,,,,,,,0,86,86,46,,,,,,,,,,,,,,,,,,,,,,,803.4698377251625,None,804.9694839180447,None,806.3531730370596,None,card,806.3531730370596,None,return,1.7591621680185199,806.4364810967818,None,,,,,,,,,,,,,,,,,,,,,,,,,,,,,,,,,,,,,,,67,001,2023_Apr_11_1455,SpeechDraft1Carolyn_lessNoise_PlusLocalization,2021.2.3,60.02741704317607,
core.wav,core.mpg,core,5,A,Pink_Noise_5_1.wav,Pink_Noise_5_2.wav,,,,,,,,,,,,,,,0,87,87,13,,,,,,,,,,,,,,,,,,,,,,,808.2196566769853,None,809.7204080768861,None,811.103127615992,None,"thorough 
",811.103127615992,None,return,5.385218995157629,811.1864226409234,None,,,,,,,,,,,,,,,,,,,,,,,,,,,,,,,,,,,,,,,67,001,2023_Apr_11_1455,SpeechDraft1Carolyn_lessNoise_PlusLocalization,2021.2.3,60.02741704317607,
mold.wav,mold.mpg,mold,2,A,Pink_Noise_2_1.wav,Pink_Noise_2_2.wav,,,,,,,,,,,,,,,0,88,88,58,,,,,,,,,,,,,,,,,,,,,,,816.6031223121099,None,818.1193306548521,None,819.503116406966,None,"old'
",819.503116406966,None,return,2.601225895807147,819.586415246129,None,,,,,,,,,,,,,,,,,,,,,,,,,,,,,,,,,,,,,,,67,001,2023_Apr_11_1455,SpeechDraft1Carolyn_lessNoise_PlusLocalization,2021.2.3,60.02741704317607,
guilt.wav,guilt.mpg,guilt,2,AV,Pink_Noise_2_1.wav,Pink_Noise_2_2.wav,,,,,,,,,,,,,,,0,89,89,85,,,,,,,,,,,,,,,,,,,,,,,822.219778729137,None,823.7195234317333,None,825.1030862117186,None,"guilt 
",825.1030862117186,None,return,2.8172066886909306,825.1864353478886,None,,,,,,,,,,,,,,,,,,,,,,,,,,,,,,,,,,,,,,,67,001,2023_Apr_11_1455,SpeechDraft1Carolyn_lessNoise_PlusLocalization,2021.2.3,60.02741704317607,
base.wav,base.mpg,base,4,AV,Pink_Noise_4_1.wav,Pink_Noise_4_2.wav,,,,,,,,,,,,,,,0,90,90,74,,,,,,,,,,,,,,,,,,,,,,,828.036424156744,None,829.5361067377962,None,830.9196528950706,None,face,830.9196528950706,None,return,1.7044293181970716,831.0032157069072,None,,,,,,,,,,,,,,,,,,,,,,,,,,,,,,,,,,,,,,,67,001,2023_Apr_11_1455,SpeechDraft1Carolyn_lessNoise_PlusLocalization,2021.2.3,60.02741704317607,
fist.wav,fist.mpg,fist,4,A,Pink_Noise_4_1.wav,Pink_Noise_4_2.wav,,,,,,,,,,,,,,,0,91,91,23,,,,,,,,,,,,,,,,,,,,,,,832.7364709428512,None,834.2361658071168,None,835.6198614719324,None,fist,835.6198614719324,None,return,1.4204978020861745,835.7031341609545,None,,,,,,,,,,,,,,,,,,,,,,,,,,,,,,,,,,,,,,,67,001,2023_Apr_11_1455,SpeechDraft1Carolyn_lessNoise_PlusLocalization,2021.2.3,60.02741704317607,
camp.wav,camp.mpg,camp,4,A,Pink_Noise_4_1.wav,Pink_Noise_4_2.wav,,,,,,,,,,,,,,,0,92,92,44,,,,,,,,,,,,,,,,,,,,,,,837.1532291527838,None,838.65401908895,None,840.0364893549122,None,count,840.0364893549122,None,return,3.347873858176172,840.1197835868225,None,,,,,,,,,,,,,,,,,,,,,,,,,,,,,,,,,,,,,,,67,001,2023_Apr_11_1455,SpeechDraft1Carolyn_lessNoise_PlusLocalization,2021.2.3,60.02741704317607,
cup.wav,cup.mpg,cup,1,A,Pink_Noise_1_1.wav,Pink_Noise_1_2.wav,,,,,,,,,,,,,,,0,93,93,47,,,,,,,,,,,,,,,,,,,,,,,843.4864312261343,None,845.0028285938315,None,846.3865518467501,None,cut,846.3865518467501,None,return,2.589885601773858,846.4698555031791,None,,,,,,,,,,,,,,,,,,,,,,,,,,,,,,,,,,,,,,,67,001,2023_Apr_11_1455,SpeechDraft1Carolyn_lessNoise_PlusLocalization,2021.2.3,60.02741704317607,
eye.wav,eye.mpg,eye,2,A,Pink_Noise_2_1.wav,Pink_Noise_2_2.wav,,,,,,,,,,,,,,,0,94,94,9,,,,,,,,,,,,,,,,,,,,,,,849.0866666487418,None,850.602892357856,None,851.9864374119788,None,eye,851.9864374119788,None,return,1.0138624692335725,852.0698681408539,None,,,,,,,,,,,,,,,,,,,,,,,,,,,,,,,,,,,,,,,67,001,2023_Apr_11_1455,SpeechDraft1Carolyn_lessNoise_PlusLocalization,2021.2.3,60.02741704317607,
flip.wav,flip.mpg,flip,4,AV,Pink_Noise_4_1.wav,Pink_Noise_4_2.wav,,,,,,,,,,,,,,,0,95,95,109,,,,,,,,,,,,,,,,,,,,,,,853.1031411890872,None,854.6030124779791,None,855.9864703458734,None,"flip
",855.9864703458734,None,return,2.101823750883341,856.0698083830066,None,,,,,,,,,,,,,,,,,,,,,,,,,,,,,,,,,,,,,,,67,001,2023_Apr_11_1455,SpeechDraft1Carolyn_lessNoise_PlusLocalization,2021.2.3,60.02741704317607,
depth.wav,depth.mpg,depth,6,A,Pink_Noise_6_1.wav,Pink_Noise_6_2.wav,,,,,,,,,,,,,,,0,96,96,37,,,,,,,,,,,,,,,,,,,,,,,858.203333855141,None,859.7028683098033,None,861.0865562860854,None,cat,861.0865562860854,None,return,2.7537229410372674,861.169912008103,None,,,,,,,,,,,,,,,,,,,,,,,,,,,,,,,,,,,,,,,67,001,2023_Apr_11_1455,SpeechDraft1Carolyn_lessNoise_PlusLocalization,2021.2.3,60.02741704317607,
cone.wav,cone.mpg,cone,4,AV,Pink_Noise_4_1.wav,Pink_Noise_4_2.wav,,,,,,,,,,,,,,,0,97,97,98,,,,,,,,,,,,,,,,,,,,,,,863.9531223978847,None,865.4529773788527,None,866.8369092368521,None,cone,866.8369092368521,None,return,3.723848210182041,866.9198199547827,None,,,,,,,,,,,,,,,,,,,,,,,,,,,,,,,,,,,,,,,67,001,2023_Apr_11_1455,SpeechDraft1Carolyn_lessNoise_PlusLocalization,2021.2.3,60.02741704317607,
dot.wav,dot.mpg,dot,1,A,Pink_Noise_1_1.wav,Pink_Noise_1_2.wav,,,,,,,,,,,,,,,0,98,98,27,,,,,,,,,,,,,,,,,,,,,,,870.6698673139326,None,872.169697330799,None,873.5540511198342,None,dot,873.5540511198342,None,return,3.4068360226228833,873.6368955727667,None,,,,,,,,,,,,,,,,,,,,,,,,,,,,,,,,,,,,,,,67,001,2023_Apr_11_1455,SpeechDraft1Carolyn_lessNoise_PlusLocalization,2021.2.3,60.02741704317607,
game.wav,game.mpg,game,1,AV,Pink_Noise_1_1.wav,Pink_Noise_1_2.wav,,,,,,,,,,,,,,,0,99,99,115,,,,,,,,,,,,,,,,,,,,,,,877.069828053005,None,878.5695892479271,None,879.9530979059637,None,game,879.9530979059637,None,return,1.791065877303481,880.0365641009994,None,,,,,,,,,,,,,,,,,,,,,,,,,,,,,,,,,,,,,,,67,001,2023_Apr_11_1455,SpeechDraft1Carolyn_lessNoise_PlusLocalization,2021.2.3,60.02741704317607,
firm.wav,firm.mpg,firm,1,A,Pink_Noise_1_1.wav,Pink_Noise_1_2.wav,,,,,,,,,,,,,,,0,100,100,19,,,,,,,,,,,,,,,,,,,,,,,881.8532253010198,None,883.3695849888027,None,884.753141367808,None,"firm
",884.753141367808,None,return,19.719098494853824,884.8365274518728,None,,,,,,,,,,,,,,,,,,,,,,,,,,,,,,,,,,,,,,,67,001,2023_Apr_11_1455,SpeechDraft1Carolyn_lessNoise_PlusLocalization,2021.2.3,60.02741704317607,
fast.wav,fast.mpg,fast,6,AV,Pink_Noise_6_1.wav,Pink_Noise_6_2.wav,,,,,,,,,,,,,,,0,101,101,92,,,,,,,,,,,,,,,,,,,,,,,904.586526628118,None,906.1029353109188,None,907.4698876710609,None,gast,907.4698876710609,None,return,4.466520664747804,907.5531715741381,None,,,,,,,,,,,,,,,,,,,,,,,,,,,,,,,,,,,,,,,67,001,2023_Apr_11_1455,SpeechDraft1Carolyn_lessNoise_PlusLocalization,2021.2.3,60.02741704317607,
clad.wav,clad.mpg,clad,4,AV,Pink_Noise_4_1.wav,Pink_Noise_4_2.wav,,,,,,,,,,,,,,,0,102,102,60,,,,,,,,,,,,,,,,,,,,,,,912.0365980239585,None,913.552917634137,None,914.9365617339499,None,"clad
",914.9365617339499,None,return,5.56773317605257,915.0199090698734,None,,,,,,,,,,,,,,,,,,,,,,,,,,,,,,,,,,,,,,,67,001,2023_Apr_11_1455,SpeechDraft1Carolyn_lessNoise_PlusLocalization,2021.2.3,60.02741704317607,
tomb.wav,tomb.mpg,tomb,1,A,Pink_Noise_1_1.wav,Pink_Noise_1_2.wav,,,,,,,,,,,,,,,0,103,103,34,,,,,,,,,,,,,,,,,,,,,,,920.6198645168915,None,922.1195606407709,None,923.5036821500398,None,tomb,923.5036821500398,None,return,3.2651344891637564,923.5865784287453,None,,,,,,,,,,,,,,,,,,,,,,,,,,,,,,,,,,,,,,,67,001,2023_Apr_11_1455,SpeechDraft1Carolyn_lessNoise_PlusLocalization,2021.2.3,60.02741704317607,
paid.wav,paid.mpg,paid,5,AV,Pink_Noise_5_1.wav,Pink_Noise_5_2.wav,,,,,,,,,,,,,,,0,104,104,69,,,,,,,,,,,,,,,,,,,,,,,926.8698732480407,None,928.3713666298427,None,929.7532085999846,None,paid,929.7532085999846,None,return,3.7591359918005764,929.8365920200013,None,,,,,,,,,,,,,,,,,,,,,,,,,,,,,,,,,,,,,,,67,001,2023_Apr_11_1455,SpeechDraft1Carolyn_lessNoise_PlusLocalization,2021.2.3,60.02741704317607,
gem.wav,gem.mpg,gem,4,AV,Pink_Noise_4_1.wav,Pink_Noise_4_2.wav,,,,,,,,,,,,,,,0,105,105,87,,,,,,,,,,,,,,,,,,,,,,,933.6202083011158,None,935.1362698068842,None,936.5197773370892,None,"gem
",936.5197773370892,None,return,2.368363614194095,936.6032815580256,None,,,,,,,,,,,,,,,,,,,,,,,,,,,,,,,,,,,,,,,67,001,2023_Apr_11_1455,SpeechDraft1Carolyn_lessNoise_PlusLocalization,2021.2.3,60.02741704317607,
bloom.wav,bloom.mpg,bloom,6,AV,Pink_Noise_6_1.wav,Pink_Noise_6_2.wav,,,,,,,,,,,,,,,0,106,106,108,,,,,,,,,,,,,,,,,,,,,,,939.0032164617442,None,940.5042750090361,None,941.88654420292,None,blue,941.88654420292,None,return,2.48978681769222,941.9698660001159,None,,,,,,,,,,,,,,,,,,,,,,,,,,,,,,,,,,,,,,,67,001,2023_Apr_11_1455,SpeechDraft1Carolyn_lessNoise_PlusLocalization,2021.2.3,60.02741704317607,
fried.wav,fried.mpg,fried,6,A,Pink_Noise_6_1.wav,Pink_Noise_6_2.wav,,,,,,,,,,,,,,,0,107,107,8,,,,,,,,,,,,,,,,,,,,,,,944.4865864990279,None,945.9863381991163,None,947.3700709799305,None,drag,947.3700709799305,None,return,1.958413617219776,947.4532465627417,None,,,,,,,,,,,,,,,,,,,,,,,,,,,,,,,,,,,,,,,67,001,2023_Apr_11_1455,SpeechDraft1Carolyn_lessNoise_PlusLocalization,2021.2.3,60.02741704317607,
brisk.wav,brisk.mpg,brisk,3,A,Pink_Noise_3_1.wav,Pink_Noise_3_2.wav,,,,,,,,,,,,,,,0,108,108,11,,,,,,,,,,,,,,,,,,,,,,,949.4365940927528,None,950.9363375557587,None,952.3199838348664,None,risk,952.3199838348664,None,return,3.448420574888587,952.4032875229605,None,,,,,,,,,,,,,,,,,,,,,,,,,,,,,,,,,,,,,,,67,001,2023_Apr_11_1455,SpeechDraft1Carolyn_lessNoise_PlusLocalization,2021.2.3,60.02741704317607,
toast.wav,toast.mpg,toast,2,A,Pink_Noise_2_1.wav,Pink_Noise_2_2.wav,,,,,,,,,,,,,,,0,109,109,55,,,,,,,,,,,,,,,,,,,,,,,955.8700262387283,None,957.3862726441585,None,958.7699129120447,None,toast,958.7699129120447,None,return,2.814391592051834,958.8532463870943,None,,,,,,,,,,,,,,,,,,,,,,,,,,,,,,,,,,,,,,,67,001,2023_Apr_11_1455,SpeechDraft1Carolyn_lessNoise_PlusLocalization,2021.2.3,60.02741704317607,
clothe.wav,clothe.mpg,clothe,2,AV,Pink_Noise_2_1.wav,Pink_Noise_2_2.wav,,,,,,,,,,,,,,,0,110,110,101,,,,,,,,,,,,,,,,,,,,,,,961.6866087648086,None,963.2030576467514,None,964.5865179388784,None,clothe,964.5865179388784,None,return,2.341743899974972,964.6698992880993,None,,,,,,,,,,,,,,,,,,,,,,,,,,,,,,,,,,,,,,,67,001,2023_Apr_11_1455,SpeechDraft1Carolyn_lessNoise_PlusLocalization,2021.2.3,60.02741704317607,
chain.wav,chain.mpg,chain,2,AV,Pink_Noise_2_1.wav,Pink_Noise_2_2.wav,,,,,,,,,,,,,,,0,111,111,103,,,,,,,,,,,,,,,,,,,,,,,967.0366974407807,None,968.5529348119162,None,969.9366831691004,None,chain,969.9366831691004,None,return,1.5756874880753458,970.0199405318126,None,,,,,,,,,,,,,,,,,,,,,,,,,,,,,,,,,,,,,,,67,001,2023_Apr_11_1455,SpeechDraft1Carolyn_lessNoise_PlusLocalization,2021.2.3,60.02741704317607,
gang.wav,gang.mpg,gang,3,AV,Pink_Noise_3_1.wav,Pink_Noise_3_2.wav,,,,,,,,,,,,,,,0,112,112,80,,,,,,,,,,,,,,,,,,,,,,,971.6199688580818,None,973.1200333307497,None,974.5032228701748,None,"gang
",974.5032228701748,None,return,1.3689401312731206,974.5866966038011,None,,,,,,,,,,,,,,,,,,,,,,,,,,,,,,,,,,,,,,,67,001,2023_Apr_11_1455,SpeechDraft1Carolyn_lessNoise_PlusLocalization,2021.2.3,60.02741704317607,
mars.wav,mars.mpg,mars,4,AV,Pink_Noise_4_1.wav,Pink_Noise_4_2.wav,,,,,,,,,,,,,,,0,113,113,77,,,,,,,,,,,,,,,,,,,,,,,975.9866612018086,None,977.4864572691731,None,978.8699172097258,None,mars,978.8699172097258,None,return,2.0583342406898737,978.953290075995,None,,,,,,,,,,,,,,,,,,,,,,,,,,,,,,,,,,,,,,,67,001,2023_Apr_11_1455,SpeechDraft1Carolyn_lessNoise_PlusLocalization,2021.2.3,60.02741704317607,
client.wav,client.mpg,client,6,A,Pink_Noise_6_1.wav,Pink_Noise_6_2.wav,,,,,,,,,,,,,,,0,114,114,40,,,,,,,,,,,,,,,,,,,,,,,981.0367113100365,None,982.5531319919974,None,983.9367282488383,None,rile,983.9367282488383,None,return,2.143609704915434,984.0200197598897,None,,,,,,,,,,,,,,,,,,,,,,,,,,,,,,,,,,,,,,,67,001,2023_Apr_11_1455,SpeechDraft1Carolyn_lessNoise_PlusLocalization,2021.2.3,60.02741704317607,
club.wav,club.mpg,club,2,AV,Pink_Noise_2_1.wav,Pink_Noise_2_2.wav,,,,,,,,,,,,,,,0,115,115,76,,,,,,,,,,,,,,,,,,,,,,,986.1866806410253,None,987.7030941611156,None,989.0866290419362,None,club,989.0866290419362,None,return,2.921714127995074,989.1699957437813,None,,,,,,,,,,,,,,,,,,,,,,,,,,,,,,,,,,,,,,,67,001,2023_Apr_11_1455,SpeechDraft1Carolyn_lessNoise_PlusLocalization,2021.2.3,60.02741704317607,
born.wav,born.mpg,born,5,A,Pink_Noise_5_1.wav,Pink_Noise_5_2.wav,,,,,,,,,,,,,,,0,116,116,29,,,,,,,,,,,,,,,,,,,,,,,992.1200933097862,None,993.6364236408845,None,995.0200153961778,None,bored,995.0200153961778,None,return,7.124317101202905,995.1033286228776,None,,,,,,,,,,,,,,,,,,,,,,,,,,,,,,,,,,,,,,,67,001,2023_Apr_11_1455,SpeechDraft1Carolyn_lessNoise_PlusLocalization,2021.2.3,60.02741704317607,
hug.wav,hug.mpg,hug,2,A,Pink_Noise_2_1.wav,Pink_Noise_2_2.wav,,,,,,,,,,,,,,,0,117,117,50,,,,,,,,,,,,,,,,,,,,,,,1002.2533237230964,None,1003.7549890219234,None,1005.1366591681726,None,hug,1005.1366591681726,None,return,3.7434617010876536,1005.220182843972,None,,,,,,,,,,,,,,,,,,,,,,,,,,,,,,,,,,,,,,,67,001,2023_Apr_11_1455,SpeechDraft1Carolyn_lessNoise_PlusLocalization,2021.2.3,60.02741704317607,
bowl.wav,bowl.mpg,bowl,6,AV,Pink_Noise_6_1.wav,Pink_Noise_6_2.wav,,,,,,,,,,,,,,,0,118,118,116,,,,,,,,,,,,,,,,,,,,,,,1008.9867645800114,None,1010.5030921828002,None,1011.8868669047952,None,bull,1011.8868669047952,None,return,3.665670240763575,1011.9700448531657,None,,,,,,,,,,,,,,,,,,,,,,,,,,,,,,,,,,,,,,,67,001,2023_Apr_11_1455,SpeechDraft1Carolyn_lessNoise_PlusLocalization,2021.2.3,60.02741704317607,
wound.wav,wound.mpg,wound,3,A,Pink_Noise_3_1.wav,Pink_Noise_3_2.wav,,,,,,,,,,,,,,,0,119,119,22,,,,,,,,,,,,,,,,,,,,,,,1015.6533095757477,None,1017.1697955769487,None,1018.5533501771279,None,rude,1018.5533501771279,None,return,2.607022079639137,1018.6367206987925,None,,,,,,,,,,,,,,,,,,,,,,,,,,,,,,,,,,,,,,,67,001,2023_Apr_11_1455,SpeechDraft1Carolyn_lessNoise_PlusLocalization,2021.2.3,60.02741704317607,
,,,,,,,,,,,,,,,,,,,,,,,,,,,,,,,,,,,,,,,,,,,,,,,,,,,,,,,,,,,,,,,,,,space,27.202163632027805,1021.3534766240045,None,,,,,,,,,,,,,,,,,,,,,,,,,,,,,67,001,2023_Apr_11_1455,SpeechDraft1Carolyn_lessNoise_PlusLocalization,2021.2.3,60.02741704317607,
,,,,,,,,farRight,19.1,4,ch1Sound_localizationTask.wav,19.1,"(1237, 878)","(277,-202)",285,-338,,,,,,,,,0,0,0,6,,,,,,,,,,,,,,,,,,,,,,,,,,,,,,,,,,,,,,,,,,1021.3534766240045,None,1048.603059656918,None,1049.7031175689772,None,1050.6366331418976,None,1.455026455026455,5.136486930307001,1050.6366331418976,None,,,,,,,,,,,,,,,,,67,001,2023_Apr_11_1455,SpeechDraft1Carolyn_lessNoise_PlusLocalization,2021.2.3,60.02741704317607,
,,,,,,,,midLeft,-13.0,2,ch1Sound_localizationTask.wav,-13.0,"(762, 878)","(-198,-202)",-190,-338,,,,,,,,,0,1,1,1,,,,,,,,,,,,,,,,,,,,,,,,,,,,,,,,,,,,,,,,,,,,1055.7706621950492,None,1056.869748489,None,1057.8031167630106,None,1.2148148148148148,4.033949484117329,1057.8031167630106,None,,,,,,,,,,,,,,,,,67,001,2023_Apr_11_1455,SpeechDraft1Carolyn_lessNoise_PlusLocalization,2021.2.3,60.02741704317607,
,,,,,,,,nearLeft,-6.5,1,ch1Sound_localizationTask.wav,-6.5,"(857, 878)","(-103,-202)",-95,-338,,,,,,,,,0,2,2,2,,,,,,,,,,,,,,,,,,,,,,,,,,,,,,,,,,,,,,,,,,,,1061.8537285071798,None,1062.9531052969396,None,1063.886439064052,None,1.2978835978835979,2.714990866370499,1063.886439064052,None,,,,,,,,,,,,,,,,,67,001,2023_Apr_11_1455,SpeechDraft1Carolyn_lessNoise_PlusLocalization,2021.2.3,60.02741704317607,
,,,,,,,,farLeft,-19.1,5,ch1Sound_localizationTask.wav,-19.1,"(667, 878)","(-293,-202)",-285,-338,,,,,,,,,0,3,3,0,,,,,,,,,,,,,,,,,,,,,,,,,,,,,,,,,,,,,,,,,,,,1066.6035279571079,None,1067.7031042650342,None,1068.6386650968343,None,1.119047619047619,0.7092113108374178,1068.6386650968343,None,,,,,,,,,,,,,,,,,67,001,2023_Apr_11_1455,SpeechDraft1Carolyn_lessNoise_PlusLocalization,2021.2.3,60.02741704317607,
,,,,,,,,midRight,13.0,3,ch1Sound_localizationTask.wav,13.0,"(1142, 878)","(182, -202)",190,-338,,,,,,,,,0,4,4,5,,,,,,,,,,,,,,,,,,,,,,,,,,,,,,,,,,,,,,,,,,,,1069.3539369241334,None,1070.453139339108,None,1071.386547056958,None,1.6788359788359788,2.500408077146858,1071.386547056958,None,,,,,,,,,,,,,,,,,67,001,2023_Apr_11_1455,SpeechDraft1Carolyn_lessNoise_PlusLocalization,2021.2.3,60.02741704317607,
,,,,,,,,farRight,19.1,4,ch1Sound_localizationTask.wav,19.1,"(1237, 878)","(277,-202)",285,-338,,,,,,,,,0,5,5,6,,,,,,,,,,,,,,,,,,,,,,,,,,,,,,,,,,,,,,,,,,,,1073.9035814460367,None,1075.0029972479679,None,1075.9366144649684,None,1.7306878306878306,0.9674799512140453,1075.9366144649684,None,,,,,,,,,,,,,,,,,67,001,2023_Apr_11_1455,SpeechDraft1Carolyn_lessNoise_PlusLocalization,2021.2.3,60.02741704317607,
,,,,,,,,center,0.0,6,ch1Sound_localizationTask.wav,0.0,"(952, 878)","(-8,-202)",0,-338,,,,,,,,,0,6,6,3,,,,,,,,,,,,,,,,,,,,,,,,,,,,,,,,,,,,,,,,,,,,1076.920172717888,None,1078.0198972187936,None,1078.9531073020771,None,1.6222222222222222,1.0340132149867713,1078.9531073020771,None,,,,,,,,,,,,,,,,,67,001,2023_Apr_11_1455,SpeechDraft1Carolyn_lessNoise_PlusLocalization,2021.2.3,60.02741704317607,
,,,,,,,,nearLeft,-6.5,1,ch1Sound_localizationTask.wav,-6.5,"(857, 878)","(-103,-202)",-95,-338,,,,,,,,,1,0,7,2,,,,,,,,,,,,,,,,,,,,,,,,,,,,,,,,,,,,,,,,,,,,1079.9879454220645,None,1081.103304722812,None,1082.01971508516,None,1.4079365079365078,0.7008225698955357,1082.01971508516,None,,,,,,,,,,,,,,,,,67,001,2023_Apr_11_1455,SpeechDraft1Carolyn_lessNoise_PlusLocalization,2021.2.3,60.02741704317607,
,,,,,,,,nearRight,6.5,0,ch1Sound_localizationTask.wav,6.5,"(1047, 878)","(87, -202)",95,-338,,,,,,,,,1,1,8,4,,,,,,,,,,,,,,,,,,,,,,,,,,,,,,,,,,,,,,,,,,,,1082.7370574749075,None,1083.836619446054,None,1084.7702789148316,None,1.5343915343915344,0.9183318261057138,1084.7702789148316,None,,,,,,,,,,,,,,,,,67,001,2023_Apr_11_1455,SpeechDraft1Carolyn_lessNoise_PlusLocalization,2021.2.3,60.02741704317607,
,,,,,,,,nearLeft,-6.5,1,ch1Sound_localizationTask.wav,-6.5,"(857, 878)","(-103,-202)",-95,-338,,,,,,,,,1,2,9,2,,,,,,,,,,,,,,,,,,,,,,,,,,,,,,,,,,,,,,,,,,,,1085.7197612300515,None,1086.819918956142,None,1087.7365296850912,None,1.3746031746031746,1.4998962986283004,1087.7365296850912,None,,,,,,,,,,,,,,,,,67,001,2023_Apr_11_1455,SpeechDraft1Carolyn_lessNoise_PlusLocalization,2021.2.3,60.02741704317607,
,,,,,,,,midRight,13.0,3,ch1Sound_localizationTask.wav,13.0,"(1142, 878)","(182, -202)",190,-338,,,,,,,,,1,3,10,5,,,,,,,,,,,,,,,,,,,,,,,,,,,,,,,,,,,,,,,,,,,,1089.238066031132,None,1090.3532262430526,None,1091.2700116271153,None,1.698941798941799,1.0171875371597707,1091.2700116271153,None,,,,,,,,,,,,,,,,,67,001,2023_Apr_11_1455,SpeechDraft1Carolyn_lessNoise_PlusLocalization,2021.2.3,60.02741704317607,
,,,,,,,,nearRight,6.5,0,ch1Sound_localizationTask.wav,6.5,"(1047, 878)","(87, -202)",95,-338,,,,,,,,,1,4,11,4,,,,,,,,,,,,,,,,,,,,,,,,,,,,,,,,,,,,,,,,,,,,1092.3035331917927,None,1093.4032129268162,None,1094.336521876976,None,1.553968253968254,0.9501103260554373,1094.336521876976,None,,,,,,,,,,,,,,,,,67,001,2023_Apr_11_1455,SpeechDraft1Carolyn_lessNoise_PlusLocalization,2021.2.3,60.02741704317607,
,,,,,,,,farLeft,-19.1,5,ch1Sound_localizationTask.wav,-19.1,"(667, 878)","(-293,-202)",-285,-338,,,,,,,,,1,5,12,0,,,,,,,,,,,,,,,,,,,,,,,,,,,,,,,,,,,,,,,,,,,,1095.3036059928127,None,1096.403197815176,None,1097.3365497491322,None,1.1232804232804234,0.9341090661473572,1097.3365497491322,None,,,,,,,,,,,,,,,,,67,001,2023_Apr_11_1455,SpeechDraft1Carolyn_lessNoise_PlusLocalization,2021.2.3,60.02741704317607,
,,,,,,,,midRight,13.0,3,ch1Sound_localizationTask.wav,13.0,"(1142, 878)","(182, -202)",190,-338,,,,,,,,,1,6,13,5,,,,,,,,,,,,,,,,,,,,,,,,,,,,,,,,,,,,,,,,,,,,1098.28691938892,None,1099.3865166031756,None,1100.3198365489952,None,1.6968253968253968,1.1169329108670354,1100.3198365489952,None,,,,,,,,,,,,,,,,,67,001,2023_Apr_11_1455,SpeechDraft1Carolyn_lessNoise_PlusLocalization,2021.2.3,60.02741704317607,
,,,,,,,,nearRight,6.5,0,ch1Sound_localizationTask.wav,6.5,"(1047, 878)","(87, -202)",95,-338,,,,,,,,,2,0,14,4,,,,,,,,,,,,,,,,,,,,,,,,,,,,,,,,,,,,,,,,,,,,1101.4537191670388,None,1102.5531205381267,None,1103.4867486990988,None,1.3534391534391534,0.6506391740404069,1103.4867486990988,None,,,,,,,,,,,,,,,,,67,001,2023_Apr_11_1455,SpeechDraft1Carolyn_lessNoise_PlusLocalization,2021.2.3,60.02741704317607,
,,,,,,,,farLeft,-19.1,5,ch1Sound_localizationTask.wav,-19.1,"(667, 878)","(-293,-202)",-285,-338,,,,,,,,,2,1,15,0,,,,,,,,,,,,,,,,,,,,,,,,,,,,,,,,,,,,,,,,,,,,1104.1534490687773,None,1105.2532686349005,None,1106.186568018049,None,1.133862433862434,0.9506814549677074,1106.186568018049,None,,,,,,,,,,,,,,,,,67,001,2023_Apr_11_1455,SpeechDraft1Carolyn_lessNoise_PlusLocalization,2021.2.3,60.02741704317607,
,,,,,,,,midRight,13.0,3,ch1Sound_localizationTask.wav,13.0,"(1142, 878)","(182, -202)",190,-338,,,,,,,,,2,2,16,5,,,,,,,,,,,,,,,,,,,,,,,,,,,,,,,,,,,,,,,,,,,,1107.1535186138935,None,1108.2532249777578,None,1109.1866720067337,None,1.6470899470899472,1.3672589207999408,1109.1866720067337,None,,,,,,,,,,,,,,,,,67,001,2023_Apr_11_1455,SpeechDraft1Carolyn_lessNoise_PlusLocalization,2021.2.3,60.02741704317607,
,,,,,,,,farRight,19.1,4,ch1Sound_localizationTask.wav,19.1,"(1237, 878)","(277,-202)",285,-338,,,,,,,,,2,3,17,6,,,,,,,,,,,,,,,,,,,,,,,,,,,,,,,,,,,,,,,,,,,,1110.5701600578614,None,1111.6697657881305,None,1112.6031562848948,None,1.751851851851852,1.4853449710644782,1112.6031562848948,None,,,,,,,,,,,,,,,,,67,001,2023_Apr_11_1455,SpeechDraft1Carolyn_lessNoise_PlusLocalization,2021.2.3,60.02741704317607,
,,,,,,,,midLeft,-13.0,2,ch1Sound_localizationTask.wav,-13.0,"(762, 878)","(-198,-202)",-190,-338,,,,,,,,,2,4,18,1,,,,,,,,,,,,,,,,,,,,,,,,,,,,,,,,,,,,,,,,,,,,1114.1034988760948,None,1115.2033002460375,None,1116.1366016129032,None,1.3513227513227513,1.033472360111773,1116.1366016129032,None,,,,,,,,,,,,,,,,,67,001,2023_Apr_11_1455,SpeechDraft1Carolyn_lessNoise_PlusLocalization,2021.2.3,60.02741704317607,
,,,,,,,,nearRight,6.5,0,ch1Sound_localizationTask.wav,6.5,"(1047, 878)","(87, -202)",95,-338,,,,,,,,,2,5,19,4,,,,,,,,,,,,,,,,,,,,,,,,,,,,,,,,,,,,,,,,,,,,1117.1708113257773,None,1118.269836098887,None,1119.2033177721314,None,1.5613756613756613,0.7496379222720861,1119.2033177721314,None,,,,,,,,,,,,,,,,,67,001,2023_Apr_11_1455,SpeechDraft1Carolyn_lessNoise_PlusLocalization,2021.2.3,60.02741704317607,
,,,,,,,,midRight,13.0,3,ch1Sound_localizationTask.wav,13.0,"(1142, 878)","(182, -202)",190,-338,,,,,,,,,2,6,20,5,,,,,,,,,,,,,,,,,,,,,,,,,,,,,,,,,,,,,,,,,,,,1119.9542996548116,None,1121.053235030733,None,1121.986479816027,None,1.692063492063492,0.7669794070534408,1121.986479816027,None,,,,,,,,,,,,,,,,,67,001,2023_Apr_11_1455,SpeechDraft1Carolyn_lessNoise_PlusLocalization,2021.2.3,60.02741704317607,
,,,,,,,,midLeft,-13.0,2,ch1Sound_localizationTask.wav,-13.0,"(762, 878)","(-198,-202)",-190,-338,,,,,,,,,3,0,21,1,,,,,,,,,,,,,,,,,,,,,,,,,,,,,,,,,,,,,,,,,,,,1122.7544318949804,None,1123.8531886120327,None,1124.7863680091687,None,1.2550264550264552,0.7003833809867501,1124.7863680091687,None,,,,,,,,,,,,,,,,,67,001,2023_Apr_11_1455,SpeechDraft1Carolyn_lessNoise_PlusLocalization,2021.2.3,60.02741704317607,
,,,,,,,,farRight,19.1,4,ch1Sound_localizationTask.wav,19.1,"(1237, 878)","(277,-202)",285,-338,,,,,,,,,3,1,22,6,,,,,,,,,,,,,,,,,,,,,,,,,,,,,,,,,,,,,,,,,,,,1125.5035354550928,None,1126.6032670820132,None,1127.536639276892,None,1.7407407407407407,1.0003504296764731,1127.536639276892,None,,,,,,,,,,,,,,,,,67,001,2023_Apr_11_1455,SpeechDraft1Carolyn_lessNoise_PlusLocalization,2021.2.3,60.02741704317607,
,,,,,,,,nearLeft,-6.5,1,ch1Sound_localizationTask.wav,-6.5,"(857, 878)","(-103,-202)",-95,-338,,,,,,,,,3,2,23,2,,,,,,,,,,,,,,,,,,,,,,,,,,,,,,,,,,,,,,,,,,,,1128.5535654788837,None,1129.6532445331104,None,1130.5865599988028,None,1.3291005291005291,1.0009053102694452,1130.5865599988028,None,,,,,,,,,,,,,,,,,67,001,2023_Apr_11_1455,SpeechDraft1Carolyn_lessNoise_PlusLocalization,2021.2.3,60.02741704317607,
,,,,,,,,center,0.0,6,ch1Sound_localizationTask.wav,0.0,"(952, 878)","(-8,-202)",0,-338,,,,,,,,,3,3,24,3,,,,,,,,,,,,,,,,,,,,,,,,,,,,,,,,,,,,,,,,,,,,1131.6035203398205,None,1132.7032098197378,None,1133.6367311137728,None,1.4502645502645501,0.716632901225239,1133.6367311137728,None,,,,,,,,,,,,,,,,,67,001,2023_Apr_11_1455,SpeechDraft1Carolyn_lessNoise_PlusLocalization,2021.2.3,60.02741704317607,
,,,,,,,,nearLeft,-6.5,1,ch1Sound_localizationTask.wav,-6.5,"(857, 878)","(-103,-202)",-95,-338,,,,,,,,,3,4,25,2,,,,,,,,,,,,,,,,,,,,,,,,,,,,,,,,,,,,,,,,,,,,1134.3543497328646,None,1135.4532503420487,None,1136.3865547371097,None,1.4185185185185185,0.8173778387717903,1136.3865547371097,None,,,,,,,,,,,,,,,,,67,001,2023_Apr_11_1455,SpeechDraft1Carolyn_lessNoise_PlusLocalization,2021.2.3,60.02741704317607,
,,,,,,,,farLeft,-19.1,5,ch1Sound_localizationTask.wav,-19.1,"(667, 878)","(-293,-202)",-285,-338,,,,,,,,,3,5,26,0,,,,,,,,,,,,,,,,,,,,,,,,,,,,,,,,,,,,,,,,,,,,1137.2202601889148,None,1138.319903827738,None,1139.2532245730981,None,1.2365079365079366,0.9505708641372621,1139.2532245730981,None,,,,,,,,,,,,,,,,,67,001,2023_Apr_11_1455,SpeechDraft1Carolyn_lessNoise_PlusLocalization,2021.2.3,60.02741704317607,
,,,,,,,,farLeft,-19.1,5,ch1Sound_localizationTask.wav,-19.1,"(667, 878)","(-293,-202)",-285,-338,,,,,,,,,3,6,27,0,,,,,,,,,,,,,,,,,,,,,,,,,,,,,,,,,,,,,,,,,,,,1140.2202331810258,None,1141.3200463177636,None,1142.2534061847255,None,1.137037037037037,0.5499290372245014,1142.2534061847255,None,,,,,,,,,,,,,,,,,67,001,2023_Apr_11_1455,SpeechDraft1Carolyn_lessNoise_PlusLocalization,2021.2.3,60.02741704317607,
,,,,,,,,nearLeft,-6.5,1,ch1Sound_localizationTask.wav,-6.5,"(857, 878)","(-103,-202)",-95,-338,,,,,,,,,4,0,28,2,,,,,,,,,,,,,,,,,,,,,,,,,,,,,,,,,,,,,,,,,,,,1142.8039888078347,None,1143.9032970680855,None,1144.8366362759843,None,1.342857142857143,1.2167065707035363,1144.8366362759843,None,,,,,,,,,,,,,,,,,67,001,2023_Apr_11_1455,SpeechDraft1Carolyn_lessNoise_PlusLocalization,2021.2.3,60.02741704317607,
,,,,,,,,midLeft,-13.0,2,ch1Sound_localizationTask.wav,-13.0,"(762, 878)","(-198,-202)",-190,-338,,,,,,,,,4,1,29,1,,,,,,,,,,,,,,,,,,,,,,,,,,,,,,,,,,,,,,,,,,,,1146.0541553120129,None,1147.1532596279867,None,1148.0864891060628,None,1.3391534391534392,0.7327695703133941,1148.0864891060628,None,,,,,,,,,,,,,,,,,67,001,2023_Apr_11_1455,SpeechDraft1Carolyn_lessNoise_PlusLocalization,2021.2.3,60.02741704317607,
,,,,,,,,midLeft,-13.0,2,ch1Sound_localizationTask.wav,-13.0,"(762, 878)","(-198,-202)",-190,-338,,,,,,,,,4,2,30,1,,,,,,,,,,,,,,,,,,,,,,,,,,,,,,,,,,,,,,,,,,,,1148.8369268388487,None,1149.9365184530616,None,1150.8700890187174,None,1.2412698412698413,0.5656581302173436,1150.8700890187174,None,,,,,,,,,,,,,,,,,67,001,2023_Apr_11_1455,SpeechDraft1Carolyn_lessNoise_PlusLocalization,2021.2.3,60.02741704317607,
,,,,,,,,center,0.0,6,ch1Sound_localizationTask.wav,0.0,"(952, 878)","(-8,-202)",0,-338,,,,,,,,,4,3,31,3,,,,,,,,,,,,,,,,,,,,,,,,,,,,,,,,,,,,,,,,,,,,1151.4537940928712,None,1152.5533470958471,None,1153.4868799359538,None,1.3957671957671958,1.1834013438783586,1153.4868799359538,None,,,,,,,,,,,,,,,,,67,001,2023_Apr_11_1455,SpeechDraft1Carolyn_lessNoise_PlusLocalization,2021.2.3,60.02741704317607,
,,,,,,,,center,0.0,6,ch1Sound_localizationTask.wav,0.0,"(952, 878)","(-8,-202)",0,-338,,,,,,,,,4,4,32,3,,,,,,,,,,,,,,,,,,,,,,,,,,,,,,,,,,,,,,,,,,,,1154.671023522038,None,1155.7699673967436,None,1156.703430119902,None,1.5931216931216932,0.7835319410078228,1156.703430119902,None,,,,,,,,,,,,,,,,,67,001,2023_Apr_11_1455,SpeechDraft1Carolyn_lessNoise_PlusLocalization,2021.2.3,60.02741704317607,
,,,,,,,,midLeft,-13.0,2,ch1Sound_localizationTask.wav,-13.0,"(762, 878)","(-198,-202)",-190,-338,,,,,,,,,4,5,33,1,,,,,,,,,,,,,,,,,,,,,,,,,,,,,,,,,,,,,,,,,,,,1157.503661360126,None,1158.603178891819,None,1159.536665001884,None,1.2560846560846561,0.766805109102279,1159.536665001884,None,,,,,,,,,,,,,,,,,67,001,2023_Apr_11_1455,SpeechDraft1Carolyn_lessNoise_PlusLocalization,2021.2.3,60.02741704317607,
,,,,,,,,farRight,19.1,4,ch1Sound_localizationTask.wav,19.1,"(1237, 878)","(277,-202)",285,-338,,,,,,,,,4,6,34,6,,,,,,,,,,,,,,,,,,,,,,,,,,,,,,,,,,,,,,,,,,,,1160.3042536177672,None,1161.403156068176,None,1162.3367047980428,None,1.624867724867725,0.6335853841155767,1162.3367047980428,None,,,,,,,,,,,,,,,,,67,001,2023_Apr_11_1455,SpeechDraft1Carolyn_lessNoise_PlusLocalization,2021.2.3,60.02741704317607,
,,,,,,,,midLeft,-13.0,2,ch1Sound_localizationTask.wav,-13.0,"(762, 878)","(-198,-202)",-190,-338,,,,,,,,,5,0,35,1,,,,,,,,,,,,,,,,,,,,,,,,,,,,,,,,,,,,,,,,,,,,1162.9713884810917,None,1164.0867920750752,None,1165.0032430379651,None,1.2375661375661375,0.7502261172048748,1165.0032430379651,None,,,,,,,,,,,,,,,,,67,001,2023_Apr_11_1455,SpeechDraft1Carolyn_lessNoise_PlusLocalization,2021.2.3,60.02741704317607,
,,,,,,,,farRight,19.1,4,ch1Sound_localizationTask.wav,19.1,"(1237, 878)","(277,-202)",285,-338,,,,,,,,,5,1,36,6,,,,,,,,,,,,,,,,,,,,,,,,,,,,,,,,,,,,,,,,,,,,1165.75459189713,None,1166.8698564330116,None,1167.786615987774,None,1.6037037037037036,0.6999766416847706,1167.786615987774,None,,,,,,,,,,,,,,,,,67,001,2023_Apr_11_1455,SpeechDraft1Carolyn_lessNoise_PlusLocalization,2021.2.3,60.02741704317607,
,,,,,,,,nearRight,6.5,0,ch1Sound_localizationTask.wav,6.5,"(1047, 878)","(87, -202)",95,-338,,,,,,,,,5,2,37,4,,,,,,,,,,,,,,,,,,,,,,,,,,,,,,,,,,,,,,,,,,,,1168.4874964929186,None,1169.586621709168,None,1170.519912777003,None,1.511111111111111,0.7833734401501715,1170.519912777003,None,,,,,,,,,,,,,,,,,67,001,2023_Apr_11_1455,SpeechDraft1Carolyn_lessNoise_PlusLocalization,2021.2.3,60.02741704317607,
,,,,,,,,midRight,13.0,3,ch1Sound_localizationTask.wav,13.0,"(1142, 878)","(182, -202)",190,-338,,,,,,,,,5,3,38,5,,,,,,,,,,,,,,,,,,,,,,,,,,,,,,,,,,,,,,,,,,,,1171.30442402279,None,1172.4033106877469,None,1173.336629198864,None,1.588888888888889,0.6672547617927194,1173.336629198864,None,,,,,,,,,,,,,,,,,67,001,2023_Apr_11_1455,SpeechDraft1Carolyn_lessNoise_PlusLocalization,2021.2.3,60.02741704317607,
,,,,,,,,nearRight,6.5,0,ch1Sound_localizationTask.wav,6.5,"(1047, 878)","(87, -202)",95,-338,,,,,,,,,5,4,39,4,,,,,,,,,,,,,,,,,,,,,,,,,,,,,,,,,,,,,,,,,,,,1174.020603925921,None,1175.1199714639224,None,1176.0534488288686,None,1.4185185185185185,0.5674392278306186,1176.0534488288686,None,,,,,,,,,,,,,,,,,67,001,2023_Apr_11_1455,SpeechDraft1Carolyn_lessNoise_PlusLocalization,2021.2.3,60.02741704317607,
,,,,,,,,center,0.0,6,ch1Sound_localizationTask.wav,0.0,"(952, 878)","(-8,-202)",0,-338,,,,,,,,,5,5,40,3,,,,,,,,,,,,,,,,,,,,,,,,,,,,,,,,,,,,,,,,,,,,1176.6370852459222,None,1177.7366080558859,None,1178.670099216979,None,1.5576719576719578,1.2669563749805093,1178.670099216979,None,,,,,,,,,,,,,,,,,67,001,2023_Apr_11_1455,SpeechDraft1Carolyn_lessNoise_PlusLocalization,2021.2.3,60.02741704317607,
,,,,,,,,farLeft,-19.1,5,ch1Sound_localizationTask.wav,-19.1,"(667, 878)","(-293,-202)",-285,-338,,,,,,,,,5,6,41,0,,,,,,,,,,,,,,,,,,,,,,,,,,,,,,,,,,,,,,,,,,,,1179.9379183291458,None,1181.0531747201458,None,1181.969982916955,None,1.3523809523809525,0.7335614967159927,1181.969982916955,None,,,,,,,,,,,,,,,,,67,001,2023_Apr_11_1455,SpeechDraft1Carolyn_lessNoise_PlusLocalization,2021.2.3,60.02741704317607,
,,,,,,,,center,0.0,6,ch1Sound_localizationTask.wav,0.0,"(952, 878)","(-8,-202)",0,-338,,,,,,,,,6,0,42,3,,,,,,,,,,,,,,,,,,,,,,,,,,,,,,,,,,,,,,,,,,,,1182.704498375766,None,1183.8032372859307,None,1184.7366776838899,None,1.5682539682539682,0.7829539342783391,1184.7366776838899,None,,,,,,,,,,,,,,,,,67,001,2023_Apr_11_1455,SpeechDraft1Carolyn_lessNoise_PlusLocalization,2021.2.3,60.02741704317607,
,,,,,,,,nearRight,6.5,0,ch1Sound_localizationTask.wav,6.5,"(1047, 878)","(87, -202)",95,-338,,,,,,,,,6,1,43,4,,,,,,,,,,,,,,,,,,,,,,,,,,,,,,,,,,,,,,,,,,,,1185.5213158191182,None,1186.6366590377875,None,1187.5533341667615,None,1.5164021164021164,0.6505914670415223,1187.5533341667615,None,,,,,,,,,,,,,,,,,67,001,2023_Apr_11_1455,SpeechDraft1Carolyn_lessNoise_PlusLocalization,2021.2.3,60.02741704317607,
,,,,,,,,center,0.0,6,ch1Sound_localizationTask.wav,0.0,"(952, 878)","(-8,-202)",0,-338,,,,,,,,,6,2,44,3,,,,,,,,,,,,,,,,,,,,,,,,,,,,,,,,,,,,,,,,,,,,1188.2202906138264,None,1189.3200096371584,None,1190.2533440771513,None,1.507936507936508,0.5343352346681058,1190.2533440771513,None,,,,,,,,,,,,,,,,,67,001,2023_Apr_11_1455,SpeechDraft1Carolyn_lessNoise_PlusLocalization,2021.2.3,60.02741704317607,
,,,,,,,,center,0.0,6,ch1Sound_localizationTask.wav,0.0,"(952, 878)","(-8,-202)",0,-338,,,,,,,,,6,3,45,3,,,,,,,,,,,,,,,,,,,,,,,,,,,,,,,,,,,,,,,,,,,,1190.8035956439562,None,1191.903303510975,None,1192.8367586531676,None,1.502116402116402,0.5004349062219262,1192.8367586531676,None,,,,,,,,,,,,,,,,,67,001,2023_Apr_11_1455,SpeechDraft1Carolyn_lessNoise_PlusLocalization,2021.2.3,60.02741704317607,
,,,,,,,,nearLeft,-6.5,1,ch1Sound_localizationTask.wav,-6.5,"(857, 878)","(-103,-202)",-95,-338,,,,,,,,,6,4,46,2,,,,,,,,,,,,,,,,,,,,,,,,,,,,,,,,,,,,,,,,,,,,1193.3536044759676,None,1194.4533006269485,None,1195.3865572409704,None,1.492063492063492,0.5671280431561172,1195.3865572409704,None,,,,,,,,,,,,,,,,,67,001,2023_Apr_11_1455,SpeechDraft1Carolyn_lessNoise_PlusLocalization,2021.2.3,60.02741704317607,
,,,,,,,,farLeft,-19.1,5,ch1Sound_localizationTask.wav,-19.1,"(667, 878)","(-293,-202)",-285,-338,,,,,,,,,6,5,47,0,,,,,,,,,,,,,,,,,,,,,,,,,,,,,,,,,,,,,,,,,,,,1195.9701837240718,None,1197.069994369056,None,1198.0034354887903,None,1.3148148148148149,0.5998775130137801,1198.0034354887903,None,,,,,,,,,,,,,,,,,67,001,2023_Apr_11_1455,SpeechDraft1Carolyn_lessNoise_PlusLocalization,2021.2.3,60.02741704317607,
,,,,,,,,nearRight,6.5,0,ch1Sound_localizationTask.wav,6.5,"(1047, 878)","(87, -202)",95,-338,,,,,,,,,6,6,48,4,,,,,,,,,,,,,,,,,,,,,,,,,,,,,,,,,,,,,,,,,,,,1198.605083628092,None,1199.7199979107827,None,1200.6368114487268,None,1.4777777777777779,0.600110569037497,1200.6368114487268,None,,,,,,,,,,,,,,,,,67,001,2023_Apr_11_1455,SpeechDraft1Carolyn_lessNoise_PlusLocalization,2021.2.3,60.02741704317607,
,,,,,,,,farLeft,-19.1,5,ch1Sound_localizationTask.wav,-19.1,"(667, 878)","(-293,-202)",-285,-338,,,,,,,,,7,0,49,0,,,,,,,,,,,,,,,,,,,,,,,,,,,,,,,,,,,,,,,,,,,,1201.2538375598378,None,1202.3534036320634,None,1203.2865697811358,None,1.3507936507936509,0.5163034349679947,1203.2865697811358,None,,,,,,,,,,,,,,,,,67,001,2023_Apr_11_1455,SpeechDraft1Carolyn_lessNoise_PlusLocalization,2021.2.3,60.02741704317607,
,,,,,,,,midRight,13.0,3,ch1Sound_localizationTask.wav,13.0,"(1142, 878)","(182, -202)",190,-338,,,,,,,,,7,1,50,5,,,,,,,,,,,,,,,,,,,,,,,,,,,,,,,,,,,,,,,,,,,,1203.8205638667569,None,1204.9200607640669,None,1205.8535538981669,None,1.6111111111111112,0.6501241698861122,1205.8535538981669,None,,,,,,,,,,,,,,,,,67,001,2023_Apr_11_1455,SpeechDraft1Carolyn_lessNoise_PlusLocalization,2021.2.3,60.02741704317607,
,,,,,,,,nearLeft,-6.5,1,ch1Sound_localizationTask.wav,-6.5,"(857, 878)","(-103,-202)",-95,-338,,,,,,,,,7,2,51,2,,,,,,,,,,,,,,,,,,,,,,,,,,,,,,,,,,,,,,,,,,,,1206.5047076498158,None,1207.6200424958952,None,1208.5366756129079,None,1.6132275132275131,0.583527710288763,1208.5366756129079,None,,,,,,,,,,,,,,,,,67,001,2023_Apr_11_1455,SpeechDraft1Carolyn_lessNoise_PlusLocalization,2021.2.3,60.02741704317607,
,,,,,,,,midLeft,-13.0,2,ch1Sound_localizationTask.wav,-13.0,"(762, 878)","(-198,-202)",-190,-338,,,,,,,,,7,3,52,1,,,,,,,,,,,,,,,,,,,,,,,,,,,,,,,,,,,,,,,,,,,,1209.1213231710717,None,1210.2199651729316,None,1211.15320749674,None,1.42010582010582,0.666574141010642,1211.15320749674,None,,,,,,,,,,,,,,,,,67,001,2023_Apr_11_1455,SpeechDraft1Carolyn_lessNoise_PlusLocalization,2021.2.3,60.02741704317607,
,,,,,,,,farRight,19.1,4,ch1Sound_localizationTask.wav,19.1,"(1237, 878)","(277,-202)",285,-338,,,,,,,,,7,4,53,6,,,,,,,,,,,,,,,,,,,,,,,,,,,,,,,,,,,,,,,,,,,,1211.820999849122,None,1212.919988413807,None,1213.853448424954,None,1.6603174603174602,0.5334945870563388,1213.853448424954,None,,,,,,,,,,,,,,,,,67,001,2023_Apr_11_1455,SpeechDraft1Carolyn_lessNoise_PlusLocalization,2021.2.3,60.02741704317607,
,,,,,,,,midRight,13.0,3,ch1Sound_localizationTask.wav,13.0,"(1142, 878)","(182, -202)",190,-338,,,,,,,,,7,5,54,5,,,,,,,,,,,,,,,,,,,,,,,,,,,,,,,,,,,,,,,,,,,,1214.3881522589363,None,1215.503357740119,None,1216.4200081168674,None,1.5703703703703704,0.5673502730205655,1216.4200081168674,None,,,,,,,,,,,,,,,,,67,001,2023_Apr_11_1455,SpeechDraft1Carolyn_lessNoise_PlusLocalization,2021.2.3,60.02741704317607,
,,,,,,,,farRight,19.1,4,ch1Sound_localizationTask.wav,19.1,"(1237, 878)","(277,-202)",285,-338,,,,,,,,,7,6,55,6,,,,,,,,,,,,,,,,,,,,,,,,,,,,,,,,,,,,,,,,,,,,1216.9876804421656,None,1218.086727045942,None,1219.0200229939073,None,1.6566137566137566,0.7661491478793323,1219.0200229939073,None,,,,,,,,,,,,,,,,,67,001,2023_Apr_11_1455,SpeechDraft1Carolyn_lessNoise_PlusLocalization,2021.2.3,60.02741704317607,
,,,,,,,,,,,,,,,,,,,,,,,,,,,,,,,,,,,,,,,,,,,,,,,,,,,,,,,,,,,,,,,,,,,,,,,,,,,,,,,,,,space,29.04525667289272,1219.8703828467987,None,,,,,,,,,,,,,67,001,2023_Apr_11_1455,SpeechDraft1Carolyn_lessNoise_PlusLocalization,2021.2.3,60.02741704317607,
,,,,,,,,nearLeft,-6.5,1,ch1Sound_localizationTask.wav,-6.5,"(857, 878)","(-103,-202)",-95,-338,,,,,,,,,,,,,0,0,0,2,,,,,,,,,,,,,,,,,,,,,,,,,,,,,,,,,,,,,,,,1248.9534466019832,None,,,1251.9716502069496,None,1.4291005291005292,1.4049798352643847,1251.9716502069496,None,,,,,1219.8703828467987,None,1249.9537162291817,None,1250.137069027871,1250.1536992727779,,,,,,,67,001,2023_Apr_11_1455,SpeechDraft1Carolyn_lessNoise_PlusLocalization,2021.2.3,60.02741704317607,
,,,,,,,,midLeft,-13.0,2,ch1Sound_localizationTask.wav,-13.0,"(762, 878)","(-198,-202)",-190,-338,,,,,,,,,,,,,0,1,1,1,,,,,,,,,,,,,,,,,,,,,,,,,,,,,,,,,,,,,,,,1253.3888215799816,None,,,1256.4203870599158,None,1.3931216931216932,1.1337792281992733,1256.4203870599158,None,,,,,,,1254.4037450738251,None,1254.586961611174,1254.603686363902,,,,,,,67,001,2023_Apr_11_1455,SpeechDraft1Carolyn_lessNoise_PlusLocalization,2021.2.3,60.02741704317607,
,,,,,,,,farLeft,-19.1,5,ch1Sound_localizationTask.wav,-19.1,"(667, 878)","(-293,-202)",-285,-338,,,,,,,,,,,,,0,2,2,0,,,,,,,,,,,,,,,,,,,,,,,,,,,,,,,,,,,,,,,,1257.57031512307,None,,,1260.5867066420615,None,1.335978835978836,0.7498551639728248,1260.5867066420615,None,,,,,,,1258.5704116350971,None,1258.753633983899,1258.7703908840194,,,,,,,67,001,2023_Apr_11_1455,SpeechDraft1Carolyn_lessNoise_PlusLocalization,2021.2.3,60.02741704317607,
,,,,,,,,midRight,13.0,3,ch1Sound_localizationTask.wav,13.0,"(1142, 878)","(182, -202)",190,-338,,,,,,,,,,,,,0,3,3,5,,,,,,,,,,,,,,,,,,,,,,,,,,,,,,,,,,,,,,,,1261.353784665931,None,,,1264.3701720871031,None,1.6068783068783068,0.7166239898651838,1264.3701720871031,None,,,,,,,1262.3537180330604,None,1262.5370405227877,1262.5536551368423,,,,,,,67,001,2023_Apr_11_1455,SpeechDraft1Carolyn_lessNoise_PlusLocalization,2021.2.3,60.02741704317607,
,,,,,,,,nearLeft,-6.5,1,ch1Sound_localizationTask.wav,-6.5,"(857, 878)","(-103,-202)",-95,-338,,,,,,,,,,,,,0,4,4,2,,,,,,,,,,,,,,,,,,,,,,,,,,,,,,,,,,,,,,,,1265.0871927677654,None,,,1268.1033777971752,None,1.456084656084656,0.8174966569058597,1268.1033777971752,None,,,,,,,1266.0870340047404,None,1266.2704463889822,1266.2871423019096,,,,,,,67,001,2023_Apr_11_1455,SpeechDraft1Carolyn_lessNoise_PlusLocalization,2021.2.3,60.02741704317607,
,,,,,,,,nearRight,6.5,0,ch1Sound_localizationTask.wav,6.5,"(1047, 878)","(87, -202)",95,-338,,,,,,,,,,,,,0,5,5,4,,,,,,,,,,,,,,,,,,,,,,,,,,,,,,,,,,,,,,,,1268.9370351531543,None,,,1271.9534750799648,None,1.5835978835978834,0.6994600589387119,1271.9534750799648,None,,,,,,,1269.937099760864,None,1270.1204685159028,1270.1370174488984,,,,,,,67,001,2023_Apr_11_1455,SpeechDraft1Carolyn_lessNoise_PlusLocalization,2021.2.3,60.02741704317607,
,,,,,,,,nearRight,6.5,0,ch1Sound_localizationTask.wav,6.5,"(1047, 878)","(87, -202)",95,-338,,,,,,,,,,,,,0,6,6,4,,,,,,,,,,,,,,,,,,,,,,,,,,,,,,,,,,,,,,,,1272.6536766239442,None,,,1275.6701640039682,None,1.5328042328042328,1.0165761900134385,1275.6701640039682,None,,,,,,,1273.6537410509773,None,1273.8370369221084,1273.853760723956,,,,,,,67,001,2023_Apr_11_1455,SpeechDraft1Carolyn_lessNoise_PlusLocalization,2021.2.3,60.02741704317607,
,,,,,,,,farLeft,-19.1,5,ch1Sound_localizationTask.wav,-19.1,"(667, 878)","(-293,-202)",-285,-338,,,,,,,,,,,,,1,0,7,0,,,,,,,,,,,,,,,,,,,,,,,,,,,,,,,,,,,,,,,,1276.687746486161,None,,,1279.703434404917,None,1.3285714285714285,0.8172604008577764,1279.703434404917,None,,,,,,,1277.6870824689977,None,1277.8705132808536,1277.8873016880825,,,,,,,67,001,2023_Apr_11_1455,SpeechDraft1Carolyn_lessNoise_PlusLocalization,2021.2.3,60.02741704317607,
,,,,,,,,farRight,19.1,4,ch1Sound_localizationTask.wav,19.1,"(1237, 878)","(277,-202)",285,-338,,,,,,,,,,,,,1,1,8,6,,,,,,,,,,,,,,,,,,,,,,,,,,,,,,,,,,,,,,,,1280.537006417755,None,,,1283.553446082864,None,1.651851851851852,0.7499716668389738,1283.553446082864,None,,,,,,,1281.5370170511305,None,1281.7204677807167,1281.7370721637271,,,,,,,67,001,2023_Apr_11_1455,SpeechDraft1Carolyn_lessNoise_PlusLocalization,2021.2.3,60.02741704317607,
,,,,,,,,farLeft,-19.1,5,ch1Sound_localizationTask.wav,-19.1,"(667, 878)","(-293,-202)",-285,-338,,,,,,,,,,,,,1,2,9,0,,,,,,,,,,,,,,,,,,,,,,,,,,,,,,,,,,,,,,,,1284.3049959698692,None,,,1287.3369384887628,None,1.3164021164021165,1.2659905110485852,1287.3369384887628,None,,,,,,,1285.3204211578704,None,1285.503843863029,1285.5204213201068,,,,,,,67,001,2023_Apr_11_1455,SpeechDraft1Carolyn_lessNoise_PlusLocalization,2021.2.3,60.02741704317607,
,,,,,,,,center,0.0,6,ch1Sound_localizationTask.wav,0.0,"(952, 878)","(-8,-202)",0,-338,,,,,,,,,,,,,1,3,10,3,,,,,,,,,,,,,,,,,,,,,,,,,,,,,,,,,,,,,,,,1288.6051452150568,None,,,1291.6369032920338,None,1.511111111111111,0.866352560929954,1291.6369032920338,None,,,,,,,1289.6204487690702,None,1289.8037841198966,1289.8204241828062,,,,,,,67,001,2023_Apr_11_1455,SpeechDraft1Carolyn_lessNoise_PlusLocalization,2021.2.3,60.02741704317607,
,,,,,,,,farLeft,-19.1,5,ch1Sound_localizationTask.wav,-19.1,"(667, 878)","(-293,-202)",-285,-338,,,,,,,,,,,,,1,4,11,0,,,,,,,,,,,,,,,,,,,,,,,,,,,,,,,,,,,,,,,,1292.5043450878002,None,,,1295.520412039943,None,1.3185185185185184,0.9831236037425697,1295.520412039943,None,,,,,,,1293.5037425798364,None,1293.6873407769017,1293.7040629191324,,,,,,,67,001,2023_Apr_11_1455,SpeechDraft1Carolyn_lessNoise_PlusLocalization,2021.2.3,60.02741704317607,
,,,,,,,,midRight,13.0,3,ch1Sound_localizationTask.wav,13.0,"(1142, 878)","(182, -202)",190,-338,,,,,,,,,,,,,1,5,12,5,,,,,,,,,,,,,,,,,,,,,,,,,,,,,,,,,,,,,,,,1296.5044178441167,None,,,1299.5201162789017,None,1.601058201058201,1.133299520239234,1299.5201162789017,None,,,,,,,1297.5037368987687,None,1297.6872077947482,1297.703729705885,,,,,,,67,001,2023_Apr_11_1455,SpeechDraft1Carolyn_lessNoise_PlusLocalization,2021.2.3,60.02741704317607,
,,,,,,,,farLeft,-19.1,5,ch1Sound_localizationTask.wav,-19.1,"(667, 878)","(-293,-202)",-285,-338,,,,,,,,,,,,,1,6,13,0,,,,,,,,,,,,,,,,,,,,,,,,,,,,,,,,,,,,,,,,1300.6545376507565,None,,,1303.6702381349169,None,1.32010582010582,0.767929382622242,1303.6702381349169,None,,,,,,,1301.6538126720116,None,1301.8370472458191,1301.8537394511513,,,,,,,67,001,2023_Apr_11_1455,SpeechDraft1Carolyn_lessNoise_PlusLocalization,2021.2.3,60.02741704317607,
,,,,,,,,farRight,19.1,4,ch1Sound_localizationTask.wav,19.1,"(1237, 878)","(277,-202)",285,-338,,,,,,,,,,,,,2,0,14,6,,,,,,,,,,,,,,,,,,,,,,,,,,,,,,,,,,,,,,,,1304.454045015853,None,,,1307.4702364108525,None,1.6857142857142857,0.8332042922265828,1307.4702364108525,None,,,,,,,1305.453754670918,None,1305.637111064978,1305.653841577936,,,,,,,67,001,2023_Apr_11_1455,SpeechDraft1Carolyn_lessNoise_PlusLocalization,2021.2.3,60.02741704317607,
,,,,,,,,midLeft,-13.0,2,ch1Sound_localizationTask.wav,-13.0,"(762, 878)","(-198,-202)",-190,-338,,,,,,,,,,,,,2,1,15,1,,,,,,,,,,,,,,,,,,,,,,,,,,,,,,,,,,,,,,,,1308.3204559027217,None,,,1311.3369907909073,None,1.3825396825396825,0.9504275787621737,1311.3369907909073,None,,,,,,,1309.3204382890835,None,1309.5037582837977,1309.5204120301642,,,,,,,67,001,2023_Apr_11_1455,SpeechDraft1Carolyn_lessNoise_PlusLocalization,2021.2.3,60.02741704317607,
,,,,,,,,nearRight,6.5,0,ch1Sound_localizationTask.wav,6.5,"(1047, 878)","(87, -202)",95,-338,,,,,,,,,,,,,2,2,16,4,,,,,,,,,,,,,,,,,,,,,,,,,,,,,,,,,,,,,,,,1312.3038725988008,None,,,1315.3201269139536,None,1.5746031746031746,0.6833513411693275,1315.3201269139536,None,,,,,,,1313.3037735908292,None,1313.4871730101295,1313.5039288569242,,,,,,,67,001,2023_Apr_11_1455,SpeechDraft1Carolyn_lessNoise_PlusLocalization,2021.2.3,60.02741704317607,
,,,,,,,,midLeft,-13.0,2,ch1Sound_localizationTask.wav,-13.0,"(762, 878)","(-198,-202)",-190,-338,,,,,,,,,,,,,2,3,17,1,,,,,,,,,,,,,,,,,,,,,,,,,,,,,,,,,,,,,,,,1316.0206861267798,None,,,1319.0369340558536,None,1.3624338624338623,0.7834632289595902,1319.0369340558536,None,,,,,,,1317.0205093980767,None,1317.2038490339182,1317.2205797978677,,,,,,,67,001,2023_Apr_11_1455,SpeechDraft1Carolyn_lessNoise_PlusLocalization,2021.2.3,60.02741704317607,
,,,,,,,,center,0.0,6,ch1Sound_localizationTask.wav,0.0,"(952, 878)","(-8,-202)",0,-338,,,,,,,,,,,,,2,4,18,3,,,,,,,,,,,,,,,,,,,,,,,,,,,,,,,,,,,,,,,,1319.8373765191063,None,,,1322.8536543371156,None,1.502116402116402,0.5836481302976608,1322.8536543371156,None,,,,,,,1320.8371477350593,None,1321.0203795158304,1321.0373184131458,,,,,,,67,001,2023_Apr_11_1455,SpeechDraft1Carolyn_lessNoise_PlusLocalization,2021.2.3,60.02741704317607,
,,,,,,,,nearLeft,-6.5,1,ch1Sound_localizationTask.wav,-6.5,"(857, 878)","(-103,-202)",-95,-338,,,,,,,,,,,,,2,5,19,2,,,,,,,,,,,,,,,,,,,,,,,,,,,,,,,,,,,,,,,,1323.4539136141539,None,,,1326.470382052008,None,1.447089947089947,0.6830974500626326,1326.470382052008,None,,,,,,,1324.4538302691653,None,1324.6372241880745,1324.6538137020543,,,,,,,67,001,2023_Apr_11_1455,SpeechDraft1Carolyn_lessNoise_PlusLocalization,2021.2.3,60.02741704317607,
,,,,,,,,farRight,19.1,4,ch1Sound_localizationTask.wav,19.1,"(1237, 878)","(277,-202)",285,-338,,,,,,,,,,,,,2,6,20,6,,,,,,,,,,,,,,,,,,,,,,,,,,,,,,,,,,,,,,,,1327.170660497155,None,,,1330.18679818511,None,1.6793650793650794,0.6324703227728605,1330.18679818511,None,,,,,,,1328.1704438040033,None,1328.3538595391437,1328.3704059701413,,,,,,,67,001,2023_Apr_11_1455,SpeechDraft1Carolyn_lessNoise_PlusLocalization,2021.2.3,60.02741704317607,
,,,,,,,,midRight,13.0,3,ch1Sound_localizationTask.wav,13.0,"(1142, 878)","(182, -202)",190,-338,,,,,,,,,,,,,3,0,21,5,,,,,,,,,,,,,,,,,,,,,,,,,,,,,,,,,,,,,,,,1330.8373434511013,None,,,1333.8534700637683,None,1.6142857142857143,0.7505013961344957,1333.8534700637683,None,,,,,,,1331.8371964851394,None,1332.0206292658113,1332.03716928605,,,,,,,67,001,2023_Apr_11_1455,SpeechDraft1Carolyn_lessNoise_PlusLocalization,2021.2.3,60.02741704317607,
,,,,,,,,center,0.0,6,ch1Sound_localizationTask.wav,0.0,"(952, 878)","(-8,-202)",0,-338,,,,,,,,,,,,,3,1,22,3,,,,,,,,,,,,,,,,,,,,,,,,,,,,,,,,,,,,,,,,1334.6205507707782,None,,,1337.6367966481484,None,1.5142857142857142,0.766017509624362,1337.6367966481484,None,,,,,,,1335.620548834093,None,1335.8038446968421,1335.8204279090278,,,,,,,67,001,2023_Apr_11_1455,SpeechDraft1Carolyn_lessNoise_PlusLocalization,2021.2.3,60.02741704317607,
,,,,,,,,midRight,13.0,3,ch1Sound_localizationTask.wav,13.0,"(1142, 878)","(182, -202)",190,-338,,,,,,,,,,,,,3,2,23,5,,,,,,,,,,,,,,,,,,,,,,,,,,,,,,,,,,,,,,,,1338.4206981491297,None,,,1341.4368464038707,None,1.6179894179894179,0.6163832037709653,1341.4368464038707,None,,,,,,,1339.4205090827309,None,1339.6037585120648,1339.6205712920055,,,,,,,67,001,2023_Apr_11_1455,SpeechDraft1Carolyn_lessNoise_PlusLocalization,2021.2.3,60.02741704317607,
,,,,,,,,farRight,19.1,4,ch1Sound_localizationTask.wav,19.1,"(1237, 878)","(277,-202)",285,-338,,,,,,,,,,,,,3,3,24,6,,,,,,,,,,,,,,,,,,,,,,,,,,,,,,,,,,,,,,,,1342.055095796939,None,,,1345.0869314051233,None,1.67989417989418,0.632576365955174,1345.0869314051233,None,,,,,,,1343.0704868249595,None,1343.2537747099996,1343.2704945229925,,,,,,,67,001,2023_Apr_11_1455,SpeechDraft1Carolyn_lessNoise_PlusLocalization,2021.2.3,60.02741704317607,
,,,,,,,,midRight,13.0,3,ch1Sound_localizationTask.wav,13.0,"(1142, 878)","(182, -202)",190,-338,,,,,,,,,,,,,3,4,25,5,,,,,,,,,,,,,,,,,,,,,,,,,,,,,,,,,,,,,,,,1345.7211657310836,None,,,1348.7369702821597,None,1.6116402116402115,0.6821724977344275,1348.7369702821597,None,,,,,,,1346.7205783259124,None,1346.903773792088,1346.9204499269836,,,,,,,67,001,2023_Apr_11_1455,SpeechDraft1Carolyn_lessNoise_PlusLocalization,2021.2.3,60.02741704317607,
,,,,,,,,center,0.0,6,ch1Sound_localizationTask.wav,0.0,"(952, 878)","(-8,-202)",0,-338,,,,,,,,,,,,,3,5,26,3,,,,,,,,,,,,,,,,,,,,,,,,,,,,,,,,,,,,,,,,1349.4373590401374,None,,,1352.4536655968986,None,1.5042328042328044,0.7830967451445758,1352.4536655968986,None,,,,,,,1350.4371387711726,None,1350.6205175770447,1350.6372648151591,,,,,,,67,001,2023_Apr_11_1455,SpeechDraft1Carolyn_lessNoise_PlusLocalization,2021.2.3,60.02741704317607,
,,,,,,,,midLeft,-13.0,2,ch1Sound_localizationTask.wav,-13.0,"(762, 878)","(-198,-202)",-190,-338,,,,,,,,,,,,,3,6,27,1,,,,,,,,,,,,,,,,,,,,,,,,,,,,,,,,,,,,,,,,1353.2385488068685,None,,,1356.2701048920862,None,1.355026455026455,0.7330691129900515,1356.2701048920862,None,,,,,,,1354.253837681841,None,1354.4372021290474,1354.4538289248012,,,,,,,67,001,2023_Apr_11_1455,SpeechDraft1Carolyn_lessNoise_PlusLocalization,2021.2.3,60.02741704317607,
,,,,,,,,center,0.0,6,ch1Sound_localizationTask.wav,0.0,"(952, 878)","(-8,-202)",0,-338,,,,,,,,,,,,,4,0,28,3,,,,,,,,,,,,,,,,,,,,,,,,,,,,,,,,,,,,,,,,1357.005250775721,None,,,1360.0369400600903,None,1.5116402116402117,1.1001906930468976,1360.0369400600903,None,,,,,,,1358.0205533397384,None,1358.2039154367521,1358.2205000580288,,,,,,,67,001,2023_Apr_11_1455,SpeechDraft1Carolyn_lessNoise_PlusLocalization,2021.2.3,60.02741704317607,
,,,,,,,,midLeft,-13.0,2,ch1Sound_localizationTask.wav,-13.0,"(762, 878)","(-198,-202)",-190,-338,,,,,,,,,,,,,4,1,29,1,,,,,,,,,,,,,,,,,,,,,,,,,,,,,,,,,,,,,,,,1361.1382512510754,None,,,1364.170252660755,None,1.348148148148148,0.7000244432128966,1364.170252660755,None,,,,,,,1362.1538790501654,None,1362.33719277801,1362.3538885838352,,,,,,,67,001,2023_Apr_11_1455,SpeechDraft1Carolyn_lessNoise_PlusLocalization,2021.2.3,60.02741704317607,
,,,,,,,,midRight,13.0,3,ch1Sound_localizationTask.wav,13.0,"(1142, 878)","(182, -202)",190,-338,,,,,,,,,,,,,4,2,30,5,,,,,,,,,,,,,,,,,,,,,,,,,,,,,,,,,,,,,,,,1364.8717128550634,None,,,1367.9036243981682,None,1.6275132275132276,0.9160379287786782,1367.9036243981682,None,,,,,,,1365.887236403767,None,1366.0705501060002,1366.0871991738677,,,,,,,67,001,2023_Apr_11_1455,SpeechDraft1Carolyn_lessNoise_PlusLocalization,2021.2.3,60.02741704317607,
,,,,,,,,nearLeft,-6.5,1,ch1Sound_localizationTask.wav,-6.5,"(857, 878)","(-103,-202)",-95,-338,,,,,,,,,,,,,4,3,31,2,,,,,,,,,,,,,,,,,,,,,,,,,,,,,,,,,,,,,,,,1368.8213909189217,None,,,1371.8370575620793,None,1.4544973544973545,0.7665597056038678,1371.8370575620793,None,,,,,,,1369.8205780000426,None,1370.0038259020075,1370.0206024567597,,,,,,,67,001,2023_Apr_11_1455,SpeechDraft1Carolyn_lessNoise_PlusLocalization,2021.2.3,60.02741704317607,
,,,,,,,,center,0.0,6,ch1Sound_localizationTask.wav,0.0,"(952, 878)","(-8,-202)",0,-338,,,,,,,,,,,,,4,4,32,3,,,,,,,,,,,,,,,,,,,,,,,,,,,,,,,,,,,,,,,,1372.6206461130641,None,,,1375.6370857958682,None,1.4994708994708994,0.716849425341934,1375.6370857958682,None,,,,,,,1373.6204778789543,None,1373.8038758798502,1373.820486376062,,,,,,,67,001,2023_Apr_11_1455,SpeechDraft1Carolyn_lessNoise_PlusLocalization,2021.2.3,60.02741704317607,
,,,,,,,,midLeft,-13.0,2,ch1Sound_localizationTask.wav,-13.0,"(762, 878)","(-198,-202)",-190,-338,,,,,,,,,,,,,4,5,33,1,,,,,,,,,,,,,,,,,,,,,,,,,,,,,,,,,,,,,,,,1376.3545958478935,None,,,1379.3702094741166,None,1.3835978835978837,0.6324612358585,1379.3702094741166,None,,,,,,,1377.3538608867675,None,1377.5372300609015,1377.5539166820236,,,,,,,67,001,2023_Apr_11_1455,SpeechDraft1Carolyn_lessNoise_PlusLocalization,2021.2.3,60.02741704317607,
,,,,,,,,midLeft,-13.0,2,ch1Sound_localizationTask.wav,-13.0,"(762, 878)","(-198,-202)",-190,-338,,,,,,,,,,,,,4,6,34,1,,,,,,,,,,,,,,,,,,,,,,,,,,,,,,,,,,,,,,,,1380.0206506638788,None,,,1383.0369573729113,None,1.3687830687830687,0.7382047087885439,1383.0369573729113,None,,,,,,,1381.0205141990446,None,1381.2039260747842,1381.2205352089368,,,,,,,67,001,2023_Apr_11_1455,SpeechDraft1Carolyn_lessNoise_PlusLocalization,2021.2.3,60.02741704317607,
,,,,,,,,nearRight,6.5,0,ch1Sound_localizationTask.wav,6.5,"(1047, 878)","(87, -202)",95,-338,,,,,,,,,,,,,5,0,35,4,,,,,,,,,,,,,,,,,,,,,,,,,,,,,,,,,,,,,,,,1383.7872534310445,None,,,1386.8036394841038,None,1.5481481481481483,1.050234424881637,1386.8036394841038,None,,,,,,,1384.7872180398554,None,1384.970515388064,1384.9872370609082,,,,,,,67,001,2023_Apr_11_1455,SpeechDraft1Carolyn_lessNoise_PlusLocalization,2021.2.3,60.02741704317607,
,,,,,,,,midLeft,-13.0,2,ch1Sound_localizationTask.wav,-13.0,"(762, 878)","(-198,-202)",-190,-338,,,,,,,,,,,,,5,1,36,1,,,,,,,,,,,,,,,,,,,,,,,,,,,,,,,,,,,,,,,,1387.8705841931514,None,,,1390.8872140641324,None,1.3830687830687831,0.9836764722131193,1390.8872140641324,None,,,,,,,1388.8705457178876,None,1389.0539062861353,1389.0705762668513,,,,,,,67,001,2023_Apr_11_1455,SpeechDraft1Carolyn_lessNoise_PlusLocalization,2021.2.3,60.02741704317607,
,,,,,,,,nearLeft,-6.5,1,ch1Sound_localizationTask.wav,-6.5,"(857, 878)","(-103,-202)",-95,-338,,,,,,,,,,,,,5,2,37,2,,,,,,,,,,,,,,,,,,,,,,,,,,,,,,,,,,,,,,,,1391.887372105848,None,,,1394.9035527538508,None,1.4444444444444444,1.0663306890055537,1394.9035527538508,None,,,,,,,1392.8872373369522,None,1393.070593602024,1393.08720849175,,,,,,,67,001,2023_Apr_11_1455,SpeechDraft1Carolyn_lessNoise_PlusLocalization,2021.2.3,60.02741704317607,
,,,,,,,,farLeft,-19.1,5,ch1Sound_localizationTask.wav,-19.1,"(667, 878)","(-293,-202)",-285,-338,,,,,,,,,,,,,5,3,38,0,,,,,,,,,,,,,,,,,,,,,,,,,,,,,,,,,,,,,,,,1395.9715963178314,None,,,1399.0035751559772,None,1.3343915343915345,1.184067609719932,1399.0035751559772,None,,,,,,,1396.9872641959228,None,1397.1705289697275,1397.1873824270442,,,,,,,67,001,2023_Apr_11_1455,SpeechDraft1Carolyn_lessNoise_PlusLocalization,2021.2.3,60.02741704317607,
,,,,,,,,center,0.0,6,ch1Sound_localizationTask.wav,0.0,"(952, 878)","(-8,-202)",0,-338,,,,,,,,,,,,,5,4,39,3,,,,,,,,,,,,,,,,,,,,,,,,,,,,,,,,,,,,,,,,1400.2039340417832,None,,,1403.2203261367977,None,1.4978835978835978,1.1168327000923455,1403.2203261367977,None,,,,,,,1401.2039186847396,None,1401.3871888350695,1401.403921762947,,,,,,,67,001,2023_Apr_11_1455,SpeechDraft1Carolyn_lessNoise_PlusLocalization,2021.2.3,60.02741704317607,
,,,,,,,,nearLeft,-6.5,1,ch1Sound_localizationTask.wav,-6.5,"(857, 878)","(-103,-202)",-95,-338,,,,,,,,,,,,,5,5,40,2,,,,,,,,,,,,,,,,,,,,,,,,,,,,,,,,,,,,,,,,1404.338055158034,None,,,1407.3535943869501,None,1.4343915343915343,2.550374992657453,1407.3535943869501,None,,,,,,,1405.3373015928082,None,1405.5206033959985,1405.5372594157234,,,,,,,67,001,2023_Apr_11_1455,SpeechDraft1Carolyn_lessNoise_PlusLocalization,2021.2.3,60.02741704317607,
,,,,,,,,farRight,19.1,4,ch1Sound_localizationTask.wav,19.1,"(1237, 878)","(277,-202)",285,-338,,,,,,,,,,,,,5,6,41,6,,,,,,,,,,,,,,,,,,,,,,,,,,,,,,,,,,,,,,,,1409.9206019728445,None,,,1412.9368994021788,None,1.6476190476190475,0.8687504041008651,1412.9368994021788,None,,,,,,,1410.9206017050892,None,1411.1039400058798,1411.1205661930144,,,,,,,67,001,2023_Apr_11_1455,SpeechDraft1Carolyn_lessNoise_PlusLocalization,2021.2.3,60.02741704317607,
,,,,,,,,midRight,13.0,3,ch1Sound_localizationTask.wav,13.0,"(1142, 878)","(182, -202)",190,-338,,,,,,,,,,,,,6,0,42,5,,,,,,,,,,,,,,,,,,,,,,,,,,,,,,,,,,,,,,,,1413.8206829931587,None,,,1416.8369601340964,None,1.6121693121693121,0.9832759192213416,1416.8369601340964,None,,,,,,,1414.8206028691493,None,1415.0039597051218,1415.0206379089504,,,,,,,67,001,2023_Apr_11_1455,SpeechDraft1Carolyn_lessNoise_PlusLocalization,2021.2.3,60.02741704317607,
,,,,,,,,nearRight,6.5,0,ch1Sound_localizationTask.wav,6.5,"(1047, 878)","(87, -202)",95,-338,,,,,,,,,,,,,6,1,43,4,,,,,,,,,,,,,,,,,,,,,,,,,,,,,,,,,,,,,,,,1417.8375813118182,None,,,1420.853936361149,None,1.566137566137566,0.8167238929308951,1420.853936361149,None,,,,,,,1418.8372727949172,None,1419.020655260887,1419.0372987049632,,,,,,,67,001,2023_Apr_11_1455,SpeechDraft1Carolyn_lessNoise_PlusLocalization,2021.2.3,60.02741704317607,
,,,,,,,,nearRight,6.5,0,ch1Sound_localizationTask.wav,6.5,"(1047, 878)","(87, -202)",95,-338,,,,,,,,,,,,,6,2,44,4,,,,,,,,,,,,,,,,,,,,,,,,,,,,,,,,,,,,,,,,1421.6873772670515,None,,,1424.7038667248562,None,1.565079365079365,0.7664335770532489,1424.7038667248562,None,,,,,,,1422.6872574971057,None,1422.8705366021022,1422.887264922727,,,,,,,67,001,2023_Apr_11_1455,SpeechDraft1Carolyn_lessNoise_PlusLocalization,2021.2.3,60.02741704317607,
,,,,,,,,nearLeft,-6.5,1,ch1Sound_localizationTask.wav,-6.5,"(857, 878)","(-103,-202)",-95,-338,,,,,,,,,,,,,6,3,45,2,,,,,,,,,,,,,,,,,,,,,,,,,,,,,,,,,,,,,,,,1425.4873696598224,None,,,1428.5035822577775,None,1.4455026455026454,0.7165297036990523,1428.5035822577775,None,,,,,,,1426.4873577291146,None,1426.6705869627185,1426.687286074739,,,,,,,67,001,2023_Apr_11_1455,SpeechDraft1Carolyn_lessNoise_PlusLocalization,2021.2.3,60.02741704317607,
,,,,,,,,midRight,13.0,3,ch1Sound_localizationTask.wav,13.0,"(1142, 878)","(182, -202)",190,-338,,,,,,,,,,,,,6,4,46,5,,,,,,,,,,,,,,,,,,,,,,,,,,,,,,,,,,,,,,,,1429.2373966570012,None,,,1432.253753656987,None,1.632804232804233,0.7657007072120905,1432.253753656987,None,,,,,,,1430.2372980951332,None,1430.420658919029,1430.43725020485,,,,,,,67,001,2023_Apr_11_1455,SpeechDraft1Carolyn_lessNoise_PlusLocalization,2021.2.3,60.02741704317607,
,,,,,,,,nearRight,6.5,0,ch1Sound_localizationTask.wav,6.5,"(1047, 878)","(87, -202)",95,-338,,,,,,,,,,,,,6,5,47,4,,,,,,,,,,,,,,,,,,,,,,,,,,,,,,,,,,,,,,,,1433.0212311199866,None,,,1436.0369760328904,None,1.564021164021164,1.050309871789068,1436.0369760328904,None,,,,,,,1434.0206157169305,None,1434.2039173860103,1434.2205766197294,,,,,,,67,001,2023_Apr_11_1455,SpeechDraft1Carolyn_lessNoise_PlusLocalization,2021.2.3,60.02741704317607,
,,,,,,,,nearRight,6.5,0,ch1Sound_localizationTask.wav,6.5,"(1047, 878)","(87, -202)",95,-338,,,,,,,,,,,,,6,6,48,4,,,,,,,,,,,,,,,,,,,,,,,,,,,,,,,,,,,,,,,,1437.0882350998,None,,,1440.1037436318584,None,1.5465608465608467,0.8499228940345347,1440.1037436318584,None,,,,,,,1438.0873718848452,None,1438.2706674877554,1438.2872590580955,,,,,,,67,001,2023_Apr_11_1455,SpeechDraft1Carolyn_lessNoise_PlusLocalization,2021.2.3,60.02741704317607,
,,,,,,,,farLeft,-19.1,5,ch1Sound_localizationTask.wav,-19.1,"(667, 878)","(-293,-202)",-285,-338,,,,,,,,,,,,,7,0,49,0,,,,,,,,,,,,,,,,,,,,,,,,,,,,,,,,,,,,,,,,1440.9547903151251,None,,,1443.9704909357242,None,1.284126984126984,0.9337493712082505,1443.9704909357242,None,,,,,,,1441.9540195749141,None,1442.1373293530196,1442.15399242891,,,,,,,67,001,2023_Apr_11_1455,SpeechDraft1Carolyn_lessNoise_PlusLocalization,2021.2.3,60.02741704317607,
,,,,,,,,farLeft,-19.1,5,ch1Sound_localizationTask.wav,-19.1,"(667, 878)","(-293,-202)",-285,-338,,,,,,,,,,,,,7,1,50,0,,,,,,,,,,,,,,,,,,,,,,,,,,,,,,,,,,,,,,,,1444.9207637440413,None,,,1447.9369020308368,None,1.3354497354497354,0.7495605950243771,1447.9369020308368,None,,,,,,,1445.9206162607297,None,1446.1042646439746,1446.1208071471192,,,,,,,67,001,2023_Apr_11_1455,SpeechDraft1Carolyn_lessNoise_PlusLocalization,2021.2.3,60.02741704317607,
,,,,,,,,farRight,19.1,4,ch1Sound_localizationTask.wav,19.1,"(1237, 878)","(277,-202)",285,-338,,,,,,,,,,,,,7,2,51,6,,,,,,,,,,,,,,,,,,,,,,,,,,,,,,,,,,,,,,,,1448.688018598128,None,,,1451.703660232015,None,1.6830687830687832,1.0983940451405942,1451.703660232015,None,,,,,,,1449.687290104106,None,1449.8707387899049,1449.8873611669987,,,,,,,67,001,2023_Apr_11_1455,SpeechDraft1Carolyn_lessNoise_PlusLocalization,2021.2.3,60.02741704317607,
,,,,,,,,farRight,19.1,4,ch1Sound_localizationTask.wav,19.1,"(1237, 878)","(277,-202)",285,-338,,,,,,,,,,,,,7,3,52,6,,,,,,,,,,,,,,,,,,,,,,,,,,,,,,,,,,,,,,,,1452.8042357377708,None,,,1455.8204586687498,None,1.6645502645502646,0.7342834286391735,1455.8204586687498,None,,,,,,,1453.803990338929,None,1453.9872306818143,1454.003971572034,,,,,,,67,001,2023_Apr_11_1455,SpeechDraft1Carolyn_lessNoise_PlusLocalization,2021.2.3,60.02741704317607,
,,,,,,,,nearLeft,-6.5,1,ch1Sound_localizationTask.wav,-6.5,"(857, 878)","(-103,-202)",-95,-338,,,,,,,,,,,,,7,4,53,2,,,,,,,,,,,,,,,,,,,,,,,,,,,,,,,,,,,,,,,,1456.570565275848,None,,,1459.58699559886,None,1.4370370370370371,0.883397962898016,1459.58699559886,None,,,,,,,1457.5706982719712,None,1457.7539751441218,1457.7706655720249,,,,,,,67,001,2023_Apr_11_1455,SpeechDraft1Carolyn_lessNoise_PlusLocalization,2021.2.3,60.02741704317607,
,,,,,,,,center,0.0,6,ch1Sound_localizationTask.wav,0.0,"(952, 878)","(-8,-202)",0,-338,,,,,,,,,,,,,7,5,54,3,,,,,,,,,,,,,,,,,,,,,,,,,,,,,,,,,,,,,,,,1460.4718663771637,None,,,1463.5037019341253,None,1.5031746031746032,0.7326722000725567,1463.5037019341253,None,,,,,,,1461.4872938990593,None,1461.670686062891,1461.6873392197303,,,,,,,67,001,2023_Apr_11_1455,SpeechDraft1Carolyn_lessNoise_PlusLocalization,2021.2.3,60.02741704317607,
,,,,,,,,farRight,19.1,4,ch1Sound_localizationTask.wav,19.1,"(1237, 878)","(277,-202)",285,-338,,,,,,,,,,,,,7,6,55,6,,,,,,,,,,,,,,,,,,,,,,,,,,,,,,,,,,,,,,,,1464.2379937637597,None,,,1467.2537654559128,None,1.6703703703703705,1.2494260701350868,1467.2537654559128,None,,,,,,,1465.2372377887368,None,1465.4206529799849,1465.4373576580547,,,,,,,67,001,2023_Apr_11_1455,SpeechDraft1Carolyn_lessNoise_PlusLocalization,2021.2.3,60.02741704317607,
,,,,,,,,,,,,,,,,,,,,,,,,,,,,,,,,,,,,,,,,,,,,,,,,,,,,,,,,,,,,,,,,,,,,,,,,,,,,,,,,,,,,,,,,,,,,1468.5054938229732,None,c,226.0203566341661,1469.4873802191578,None,67,001,2023_Apr_11_1455,SpeechDraft1Carolyn_lessNoise_PlusLocalization,2021.2.3,60.02741704317607,
