Audio_Only_Files,Video_Files,Original_Word_List,noiseLevelCode,conditionCodes,noiseLevelFile1,noiseLevelFile2,InstrTextVar,targetSpeakerName,targetSpeakerEccen,targetSpkrChannel,targetSpkrSound,targetVisualDegrees,visStimLoc,visStimLoc2,visStimW,visStimH,practiceTrials.thisRepN,practiceTrials.thisTrialN,practiceTrials.thisN,practiceTrials.thisIndex,trials.thisRepN,trials.thisTrialN,trials.thisN,trials.thisIndex,audLocalLoop.thisRepN,audLocalLoop.thisTrialN,audLocalLoop.thisN,audLocalLoop.thisIndex,visualLocalLoop.thisRepN,visualLocalLoop.thisTrialN,visualLocalLoop.thisN,visualLocalLoop.thisIndex,letsGoAlready.keys,letsGoAlready.rt,letsGoAlready.started,letsGoAlready.stopped,text_2.started,text_2.stopped,text_3.started,text_3.stopped,key_resp_2.keys,key_resp_2.rt,key_resp_2.started,key_resp_2.stopped,text_5.started,text_5.stopped,fixCross.started,fixCross.stopped,fixCross2.started,fixCross2.stopped,answerPrompt.started,answerPrompt.stopped,getAnswer.text,getAnswer.started,getAnswer.stopped,goToNext.keys,goToNext.rt,goToNext.started,goToNext.stopped,stretchBreakTxrt.started,stretchBreakTxrt.stopped,key_resp_3.keys,key_resp_3.rt,key_resp_3.started,key_resp_3.stopped,letsGoLocal.keys,letsGoLocal.rt,letsGoLocal.started,letsGoLocal.stopped,text_4.started,text_4.stopped,prepFixTxt.started,prepFixTxt.stopped,prepFixTxt_2.started,prepFixTxt_2.stopped,respPromptLocal.started,respPromptLocal.stopped,slider.response,slider.rt,slider.started,slider.stopped,letsGoLocal_2.keys,letsGoLocal_2.rt,letsGoLocal_2.started,letsGoLocal_2.stopped,text_7.started,text_7.stopped,prepFixTxt_3.started,prepFixTxt_3.stopped,grating.started,grating.stopped,exitTxt.started,exitTxt.stopped,key_resp.keys,key_resp.rt,key_resp.started,key_resp.stopped,participant,session,date,expName,psychopyVersion,frameRate,
,,,,,,,,,,,,,,,,,,,,,,,,,,,,,,,,,space,32.02623342582956,22.781846062280238,None,,,,,,,,,,,,,,,,,,,,,,,,,,,,,,,,,,,,,,,,,,,,,,,,,,,,,,,,,,,,,,68,001,2023_Apr_12_1155,SpeechDraft1Carolyn_lessNoise_PlusLocalization,2021.2.3,59.984711337893685,
,,,,,,,,,,,,,,,,,,,,,,,,,,,,,,,,,,,,,22.781846062280238,None,54.93222669092938,None,space,21.47708801412955,55.11497538629919,None,,,,,,,,,,,,,,,,,,,,,,,,,,,,,,,,,,,,,,,,,,,,,,,,,,,,,,68,001,2023_Apr_12_1155,SpeechDraft1Carolyn_lessNoise_PlusLocalization,2021.2.3,59.984711337893685,
ash.wav,ash.mpg,ash,1,A,Pink_Noise_1_1.wav,Pink_Noise_1_2.wav,"This is an example of an

AUDIO trial",,,,,,,,,,0,0,0,0,,,,,,,,,,,,,,,,,,,,,,,,,76.64810525812209,None,77.63159582391381,None,80.7981223189272,None,82.18164678616449,None,"ash
",82.18164678616449,None,return,5.567101943772286,82.2649511070922,None,,,,,,,,,,,,,,,,,,,,,,,,,,,,,,,,,,,,,,,68,001,2023_Apr_12_1155,SpeechDraft1Carolyn_lessNoise_PlusLocalization,2021.2.3,59.984711337893685,
ash.wav,ash.mpg,ash,1,AV,Pink_Noise_1_1.wav,Pink_Noise_1_2.wav,"This is an example of an

AUDIO + VIDEO  trial",,,,,,,,,,0,1,1,1,,,,,,,,,,,,,,,,,,,,,,,,,87.88140937313437,None,88.88165263924748,None,90.3647693162784,None,91.74833534611389,None,ash,91.74833534611389,None,return,2.7283778553828597,91.83165859617293,None,,,,,,,,,,,,,,,,,,,,,,,,,,,,,,,,,,,,,,,68,001,2023_Apr_12_1155,SpeechDraft1Carolyn_lessNoise_PlusLocalization,2021.2.3,59.984711337893685,
,,,,,,,,,,,,,,,,,,,,,,,,,,,,,,,,,,,,,,,,,,,,,,,,,,,,,,,,,,,,94.59807213395834,None,space,18.05845186812803,94.78159966412932,None,,,,,,,,,,,,,,,,,,,,,,,,,,,,,,,,,68,001,2023_Apr_12_1155,SpeechDraft1Carolyn_lessNoise_PlusLocalization,2021.2.3,59.984711337893685,
flock.wav,flock.mpg,flock,2,A,Pink_Noise_2_1.wav,Pink_Noise_2_2.wav,,,,,,,,,,,,,,,0,0,0,34,,,,,,,,,,,,,,,,,,,,,,,112.89825442014262,None,114.3814429459162,None,115.7649773512967,None,clock,115.7649773512967,None,return,2.2157408567145467,115.84838895918801,None,,,,,,,,,,,,,,,,,,,,,,,,,,,,,,,,,,,,,,,68,001,2023_Apr_12_1155,SpeechDraft1Carolyn_lessNoise_PlusLocalization,2021.2.3,59.984711337893685,
cone.wav,cone.mpg,cone,4,AV,Pink_Noise_4_1.wav,Pink_Noise_4_2.wav,,,,,,,,,,,,,,,0,1,1,60,,,,,,,,,,,,,,,,,,,,,,,118.08172900509089,None,119.5647889119573,None,120.94832984823734,None,o,120.94832984823734,None,return,3.064335851930082,121.03170230612159,None,,,,,,,,,,,,,,,,,,,,,,,,,,,,,,,,,,,,,,,68,001,2023_Apr_12_1155,SpeechDraft1Carolyn_lessNoise_PlusLocalization,2021.2.3,59.984711337893685,
fat.wav,fat.mpg,fat,1,A,Pink_Noise_1_1.wav,Pink_Noise_1_2.wav,,,,,,,,,,,,,,,0,2,2,41,,,,,,,,,,,,,,,,,,,,,,,124.11497275205329,None,125.61457952391356,None,126.99851028807461,None,fat,126.99851028807461,None,return,2.110352418385446,127.08168074907735,None,,,,,,,,,,,,,,,,,,,,,,,,,,,,,,,,,,,,,,,68,001,2023_Apr_12_1155,SpeechDraft1Carolyn_lessNoise_PlusLocalization,2021.2.3,59.984711337893685,
flash.wav,flash.mpg,flash,3,A,Pink_Noise_3_1.wav,Pink_Noise_3_2.wav,,,,,,,,,,,,,,,0,3,3,48,,,,,,,,,,,,,,,,,,,,,,,129.21511475695297,None,130.69813503092155,None,132.0817934218794,None,flash,132.0817934218794,None,return,9.331052399240434,132.16501052724198,None,,,,,,,,,,,,,,,,,,,,,,,,,,,,,,,,,,,,,,,68,001,2023_Apr_12_1155,SpeechDraft1Carolyn_lessNoise_PlusLocalization,2021.2.3,59.984711337893685,
brand.wav,brand.mpg,brand,6,A,Pink_Noise_6_1.wav,Pink_Noise_6_2.wav,,,,,,,,,,,,,,,0,4,4,18,,,,,,,,,,,,,,,,,,,,,,,141.51504902215675,None,143.01475369231775,None,144.3984665973112,None,,144.3984665973112,None,return,4.494308621156961,144.48172452719882,None,,,,,,,,,,,,,,,,,,,,,,,,,,,,,,,,,,,,,,,68,001,2023_Apr_12_1155,SpeechDraft1Carolyn_lessNoise_PlusLocalization,2021.2.3,59.984711337893685,
fear.wav,fear.mpg,fear,1,A,Pink_Noise_1_1.wav,Pink_Noise_1_2.wav,,,,,,,,,,,,,,,0,5,5,45,,,,,,,,,,,,,,,,,,,,,,,148.99902116227895,None,150.49822394223884,None,151.88168792705983,None,fear,151.88168792705983,None,return,1.1550218448974192,151.96501764003187,None,,,,,,,,,,,,,,,,,,,,,,,,,,,,,,,,,,,,,,,68,001,2023_Apr_12_1155,SpeechDraft1Carolyn_lessNoise_PlusLocalization,2021.2.3,59.984711337893685,
bay.wav,bay.mpg,bay,4,A,Pink_Noise_4_1.wav,Pink_Noise_4_2.wav,,,,,,,,,,,,,,,0,6,6,21,,,,,,,,,,,,,,,,,,,,,,,153.1485567530617,None,154.6314592231065,None,156.0150563372299,None,bed,156.0150563372299,None,return,3.589725641068071,156.09836772596464,None,,,,,,,,,,,,,,,,,,,,,,,,,,,,,,,,,,,,,,,68,001,2023_Apr_12_1155,SpeechDraft1Carolyn_lessNoise_PlusLocalization,2021.2.3,59.984711337893685,
chomp.wav,chomp.mpg,chomp,6,AV,Pink_Noise_6_1.wav,Pink_Noise_6_2.wav,,,,,,,,,,,,,,,0,7,7,106,,,,,,,,,,,,,,,,,,,,,,,159.7150080408901,None,161.19869529409334,None,162.58171438332647,None,jump,162.58171438332647,None,return,1.1428860765881836,162.6651367531158,None,,,,,,,,,,,,,,,,,,,,,,,,,,,,,,,,,,,,,,,68,001,2023_Apr_12_1155,SpeechDraft1Carolyn_lessNoise_PlusLocalization,2021.2.3,59.984711337893685,
hug.wav,hug.mpg,hug,1,AV,Pink_Noise_1_1.wav,Pink_Noise_1_2.wav,,,,,,,,,,,,,,,0,8,8,107,,,,,,,,,,,,,,,,,,,,,,,163.83167098788545,None,165.3149980949238,None,166.69839268224314,None,hug,166.69839268224314,None,return,0.906448507681489,166.78168954327703,None,,,,,,,,,,,,,,,,,,,,,,,,,,,,,,,,,,,,,,,68,001,2023_Apr_12_1155,SpeechDraft1Carolyn_lessNoise_PlusLocalization,2021.2.3,59.984711337893685,
cure.wav,cure.mpg,cure,2,AV,Pink_Noise_2_1.wav,Pink_Noise_2_2.wav,,,,,,,,,,,,,,,0,9,9,94,,,,,,,,,,,,,,,,,,,,,,,167.71507001388818,None,169.21495129493997,None,170.5983426840976,None,cure,170.5983426840976,None,return,1.1823286730796099,170.68179703503847,None,,,,,,,,,,,,,,,,,,,,,,,,,,,,,,,,,,,,,,,68,001,2023_Apr_12_1155,SpeechDraft1Carolyn_lessNoise_PlusLocalization,2021.2.3,59.984711337893685,
club.wav,club.mpg,club,2,AV,Pink_Noise_2_1.wav,Pink_Noise_2_2.wav,,,,,,,,,,,,,,,0,10,10,100,,,,,,,,,,,,,,,,,,,,,,,171.88177721993998,None,173.3656949941069,None,174.74826927203685,None,club,174.74826927203685,None,return,1.1923659178428352,174.8317064959556,None,,,,,,,,,,,,,,,,,,,,,,,,,,,,,,,,,,,,,,,68,001,2023_Apr_12_1155,SpeechDraft1Carolyn_lessNoise_PlusLocalization,2021.2.3,59.984711337893685,
flop.wav,flop.mpg,flop,5,AV,Pink_Noise_5_1.wav,Pink_Noise_5_2.wav,,,,,,,,,,,,,,,0,11,11,109,,,,,,,,,,,,,,,,,,,,,,,176.04842307092622,None,177.54826088016853,None,178.93172982893884,None,flamp,178.93172982893884,None,return,4.192841858137399,179.01519195409492,None,,,,,,,,,,,,,,,,,,,,,,,,,,,,,,,,,,,,,,,68,001,2023_Apr_12_1155,SpeechDraft1Carolyn_lessNoise_PlusLocalization,2021.2.3,59.984711337893685,
grape.wav,grape.mpg,grape,5,AV,Pink_Noise_5_1.wav,Pink_Noise_5_2.wav,,,,,,,,,,,,,,,0,12,12,67,,,,,,,,,,,,,,,,,,,,,,,183.2316623320803,None,184.71597836492583,None,186.09832359710708,None,grape,186.09832359710708,None,return,1.330208154860884,186.18187464307994,None,,,,,,,,,,,,,,,,,,,,,,,,,,,,,,,,,,,,,,,68,001,2023_Apr_12_1155,SpeechDraft1Carolyn_lessNoise_PlusLocalization,2021.2.3,59.984711337893685,
swayed.wav,swayed.mpg,swayed,6,AV,Pink_Noise_6_1.wav,Pink_Noise_6_2.wav,,,,,,,,,,,,,,,0,13,13,118,,,,,,,,,,,,,,,,,,,,,,,187.5317317871377,None,189.01619771821424,None,190.39837005594745,None,grape,190.39837005594745,None,return,8.174287817906588,190.48176479525864,None,,,,,,,,,,,,,,,,,,,,,,,,,,,,,,,,,,,,,,,68,001,2023_Apr_12_1155,SpeechDraft1Carolyn_lessNoise_PlusLocalization,2021.2.3,59.984711337893685,
glow.wav,glow.mpg,glow,1,A,Pink_Noise_1_1.wav,Pink_Noise_1_2.wav,,,,,,,,,,,,,,,0,14,14,9,,,,,,,,,,,,,,,,,,,,,,,198.68181622726843,None,200.19807620998472,None,201.5817803409882,None,glow,201.5817803409882,None,return,1.030883451923728,201.66515312716365,None,,,,,,,,,,,,,,,,,,,,,,,,,,,,,,,,,,,,,,,68,001,2023_Apr_12_1155,SpeechDraft1Carolyn_lessNoise_PlusLocalization,2021.2.3,59.984711337893685,
wound.wav,wound.mpg,wound,3,A,Pink_Noise_3_1.wav,Pink_Noise_3_2.wav,,,,,,,,,,,,,,,0,15,15,8,,,,,,,,,,,,,,,,,,,,,,,202.71518617402762,None,204.1985291573219,None,205.58183857798576,None,wound,205.58183857798576,None,return,2.230935054831207,205.66512202331796,None,,,,,,,,,,,,,,,,,,,,,,,,,,,,,,,,,,,,,,,68,001,2023_Apr_12_1155,SpeechDraft1Carolyn_lessNoise_PlusLocalization,2021.2.3,59.984711337893685,
dive.wav,dive.mpg,dive,2,A,Pink_Noise_2_1.wav,Pink_Noise_2_2.wav,,,,,,,,,,,,,,,0,16,16,31,,,,,,,,,,,,,,,,,,,,,,,207.9151514871046,None,209.3986348011531,None,210.781862358097,None,"die
",210.781862358097,None,return,1.1349277556873858,210.86512162908912,None,,,,,,,,,,,,,,,,,,,,,,,,,,,,,,,,,,,,,,,68,001,2023_Apr_12_1155,SpeechDraft1Carolyn_lessNoise_PlusLocalization,2021.2.3,59.984711337893685,
fit.wav,fit.mpg,fit,6,AV,Pink_Noise_6_1.wav,Pink_Noise_6_2.wav,,,,,,,,,,,,,,,0,17,17,66,,,,,,,,,,,,,,,,,,,,,,,212.03178712818772,None,213.51590369222686,None,214.8984935702756,None,flash,214.8984935702756,None,return,1.514168618246913,214.98186655109748,None,,,,,,,,,,,,,,,,,,,,,,,,,,,,,,,,,,,,,,,68,001,2023_Apr_12_1155,SpeechDraft1Carolyn_lessNoise_PlusLocalization,2021.2.3,59.984711337893685,
gash.wav,gash.mpg,gash,4,A,Pink_Noise_4_1.wav,Pink_Noise_4_2.wav,,,,,,,,,,,,,,,0,18,18,0,,,,,,,,,,,,,,,,,,,,,,,216.51513399928808,None,218.0147986980155,None,219.39850395731628,None,dash,219.39850395731628,None,return,0.9902984891086817,219.48179776407778,None,,,,,,,,,,,,,,,,,,,,,,,,,,,,,,,,,,,,,,,68,001,2023_Apr_12_1155,SpeechDraft1Carolyn_lessNoise_PlusLocalization,2021.2.3,59.984711337893685,
groom.wav,groom.mpg,groom,1,A,Pink_Noise_1_1.wav,Pink_Noise_1_2.wav,,,,,,,,,,,,,,,0,19,19,25,,,,,,,,,,,,,,,,,,,,,,,220.49852473614737,None,221.9829619443044,None,223.3651431822218,None,"grow
",223.3651431822218,None,return,1.135538833681494,223.44849242223427,None,,,,,,,,,,,,,,,,,,,,,,,,,,,,,,,,,,,,,,,68,001,2023_Apr_12_1155,SpeechDraft1Carolyn_lessNoise_PlusLocalization,2021.2.3,59.984711337893685,
bribe.wav,bribe.mpg,bribe,5,A,Pink_Noise_5_1.wav,Pink_Noise_5_2.wav,,,,,,,,,,,,,,,0,20,20,12,,,,,,,,,,,,,,,,,,,,,,,224.61517430003732,None,226.11495132697746,None,227.4985627462156,None,drive,227.4985627462156,None,return,0.8821308459155262,227.58198984526098,None,,,,,,,,,,,,,,,,,,,,,,,,,,,,,,,,,,,,,,,68,001,2023_Apr_12_1155,SpeechDraft1Carolyn_lessNoise_PlusLocalization,2021.2.3,59.984711337893685,
fried.wav,fried.mpg,fried,6,AV,Pink_Noise_6_1.wav,Pink_Noise_6_2.wav,,,,,,,,,,,,,,,0,21,21,73,,,,,,,,,,,,,,,,,,,,,,,228.48179102502763,None,229.9818986481987,None,231.3485092963092,None,ride,231.3485092963092,None,return,0.848357227165252,231.43179906718433,None,,,,,,,,,,,,,,,,,,,,,,,,,,,,,,,,,,,,,,,68,001,2023_Apr_12_1155,SpeechDraft1Carolyn_lessNoise_PlusLocalization,2021.2.3,59.984711337893685,
duet.wav,duet.mpg,duet,4,AV,Pink_Noise_4_1.wav,Pink_Noise_4_2.wav,,,,,,,,,,,,,,,0,22,22,72,,,,,,,,,,,,,,,,,,,,,,,232.29842475708574,None,233.78324773628265,None,235.16524959309027,None,do it,235.16524959309027,None,return,1.6715840962715447,235.2485309089534,None,,,,,,,,,,,,,,,,,,,,,,,,,,,,,,,,,,,,,,,68,001,2023_Apr_12_1155,SpeechDraft1Carolyn_lessNoise_PlusLocalization,2021.2.3,59.984711337893685,
solve.wav,solve.mpg,solve,2,A,Pink_Noise_2_1.wav,Pink_Noise_2_2.wav,,,,,,,,,,,,,,,0,23,23,33,,,,,,,,,,,,,,,,,,,,,,,236.94853815017268,None,238.44820117903873,None,239.83183197118342,None,solve,239.83183197118342,None,return,1.1248820386826992,239.91514921514317,None,,,,,,,,,,,,,,,,,,,,,,,,,,,,,,,,,,,,,,,68,001,2023_Apr_12_1155,SpeechDraft1Carolyn_lessNoise_PlusLocalization,2021.2.3,59.984711337893685,
awe.wav,awe.mpg,awe,6,A,Pink_Noise_6_1.wav,Pink_Noise_6_2.wav,,,,,,,,,,,,,,,0,24,24,15,,,,,,,,,,,,,,,,,,,,,,,241.065166444052,None,242.5648427172564,None,243.9484737003222,None,palm,243.9484737003222,None,return,2.432262090034783,244.03183594113216,None,,,,,,,,,,,,,,,,,,,,,,,,,,,,,,,,,,,,,,,68,001,2023_Apr_12_1155,SpeechDraft1Carolyn_lessNoise_PlusLocalization,2021.2.3,59.984711337893685,
egg.wav,egg.mpg,egg,5,A,Pink_Noise_5_1.wav,Pink_Noise_5_2.wav,,,,,,,,,,,,,,,0,25,25,2,,,,,,,,,,,,,,,,,,,,,,,246.48187718586996,None,247.9817318022251,None,249.36518658325076,None,"edge
",249.36518658325076,None,return,2.351491085253656,249.4485647128895,None,,,,,,,,,,,,,,,,,,,,,,,,,,,,,,,,,,,,,,,68,001,2023_Apr_12_1155,SpeechDraft1Carolyn_lessNoise_PlusLocalization,2021.2.3,59.984711337893685,
fresh.wav,fresh.mpg,fresh,4,AV,Pink_Noise_4_1.wav,Pink_Noise_4_2.wav,,,,,,,,,,,,,,,0,26,26,117,,,,,,,,,,,,,,,,,,,,,,,251.8319306122139,None,253.3317393749021,None,254.7152222301811,None,"flash
",254.7152222301811,None,return,5.753503789193928,254.79854183504358,None,,,,,,,,,,,,,,,,,,,,,,,,,,,,,,,,,,,,,,,68,001,2023_Apr_12_1155,SpeechDraft1Carolyn_lessNoise_PlusLocalization,2021.2.3,59.984711337893685,
traps.wav,traps.mpg,traps,4,AV,Pink_Noise_4_1.wav,Pink_Noise_4_2.wav,,,,,,,,,,,,,,,0,27,27,97,,,,,,,,,,,,,,,,,,,,,,,260.5818311800249,None,262.0815937621519,None,263.4651337591931,None,trapes,263.4651337591931,None,return,2.1715001962147653,263.54857456311584,None,,,,,,,,,,,,,,,,,,,,,,,,,,,,,,,,,,,,,,,68,001,2023_Apr_12_1155,SpeechDraft1Carolyn_lessNoise_PlusLocalization,2021.2.3,59.984711337893685,
brew.wav,brew.mpg,brew,6,AV,Pink_Noise_6_1.wav,Pink_Noise_6_2.wav,,,,,,,,,,,,,,,0,28,28,71,,,,,,,,,,,,,,,,,,,,,,,265.7486234479584,None,267.24838110711426,None,268.6318726958707,None,room,268.6318726958707,None,return,1.2288455599918962,268.7151879859157,None,,,,,,,,,,,,,,,,,,,,,,,,,,,,,,,,,,,,,,,68,001,2023_Apr_12_1155,SpeechDraft1Carolyn_lessNoise_PlusLocalization,2021.2.3,59.984711337893685,
forth.wav,forth.mpg,forth,4,A,Pink_Noise_4_1.wav,Pink_Noise_4_2.wav,,,,,,,,,,,,,,,0,29,29,43,,,,,,,,,,,,,,,,,,,,,,,269.96518973307684,None,271.4648532383144,None,272.84850862110034,None,fork,272.84850862110034,None,return,1.1403065179474652,272.93186442600563,None,,,,,,,,,,,,,,,,,,,,,,,,,,,,,,,,,,,,,,,68,001,2023_Apr_12_1155,SpeechDraft1Carolyn_lessNoise_PlusLocalization,2021.2.3,59.984711337893685,
deed.wav,deed.mpg,deed,5,AV,Pink_Noise_5_1.wav,Pink_Noise_5_2.wav,,,,,,,,,,,,,,,0,30,30,83,,,,,,,,,,,,,,,,,,,,,,,274.0986724998802,None,275.5982999522239,None,276.9820790430531,None,knee,276.9820790430531,None,return,0.9828695533797145,277.06524840416387,None,,,,,,,,,,,,,,,,,,,,,,,,,,,,,,,,,,,,,,,68,001,2023_Apr_12_1155,SpeechDraft1Carolyn_lessNoise_PlusLocalization,2021.2.3,59.984711337893685,
blunt.wav,blunt.mpg,blunt,4,AV,Pink_Noise_4_1.wav,Pink_Noise_4_2.wav,,,,,,,,,,,,,,,0,31,31,104,,,,,,,,,,,,,,,,,,,,,,,278.0652237832546,None,279.56500188820064,None,280.94846617616713,None,blood,280.94846617616713,None,return,0.8640952352434397,281.0319349090569,None,,,,,,,,,,,,,,,,,,,,,,,,,,,,,,,,,,,,,,,68,001,2023_Apr_12_1155,SpeechDraft1Carolyn_lessNoise_PlusLocalization,2021.2.3,59.984711337893685,
grown.wav,grown.mpg,grown,3,A,Pink_Noise_3_1.wav,Pink_Noise_3_2.wav,,,,,,,,,,,,,,,0,32,32,10,,,,,,,,,,,,,,,,,,,,,,,281.9151801681146,None,283.41486247302964,None,284.7985793291591,None,grow,284.7985793291591,None,return,0.8620844692923129,284.88194948388264,None,,,,,,,,,,,,,,,,,,,,,,,,,,,,,,,,,,,,,,,68,001,2023_Apr_12_1155,SpeechDraft1Carolyn_lessNoise_PlusLocalization,2021.2.3,59.984711337893685,
clot.wav,clot.mpg,clot,5,AV,Pink_Noise_5_1.wav,Pink_Noise_5_2.wav,,,,,,,,,,,,,,,0,33,33,81,,,,,,,,,,,,,,,,,,,,,,,285.7652392652817,None,287.26492288010195,None,288.6485933009535,None,"lust
",288.6485933009535,None,return,2.884227846749127,288.731810702011,None,,,,,,,,,,,,,,,,,,,,,,,,,,,,,,,,,,,,,,,68,001,2023_Apr_12_1155,SpeechDraft1Carolyn_lessNoise_PlusLocalization,2021.2.3,59.984711337893685,
flake.wav,flake.mpg,flake,6,AV,Pink_Noise_6_1.wav,Pink_Noise_6_2.wav,,,,,,,,,,,,,,,0,34,34,114,,,,,,,,,,,,,,,,,,,,,,,291.6486068931408,None,293.14837297191843,None,294.5319106611423,None,fake,294.5319106611423,None,return,1.2328121233731508,294.6152872261591,None,,,,,,,,,,,,,,,,,,,,,,,,,,,,,,,,,,,,,,,68,001,2023_Apr_12_1155,SpeechDraft1Carolyn_lessNoise_PlusLocalization,2021.2.3,59.984711337893685,
giant.wav,giant.mpg,giant,6,AV,Pink_Noise_6_1.wav,Pink_Noise_6_2.wav,,,,,,,,,,,,,,,0,35,35,95,,,,,,,,,,,,,,,,,,,,,,,295.8652862939052,None,297.3826547442004,None,298.76520967297256,None,light,298.76520967297256,None,return,1.0396570577286184,298.8485028659925,None,,,,,,,,,,,,,,,,,,,,,,,,,,,,,,,,,,,,,,,68,001,2023_Apr_12_1155,SpeechDraft1Carolyn_lessNoise_PlusLocalization,2021.2.3,59.984711337893685,
layer.wav,layer.mpg,layer,1,AV,Pink_Noise_1_1.wav,Pink_Noise_1_2.wav,,,,,,,,,,,,,,,0,36,36,93,,,,,,,,,,,,,,,,,,,,,,,299.9152663461864,None,301.41500936215743,None,302.7988321390003,None,layer,302.7988321390003,None,return,0.9662404558621347,302.8818979682401,None,,,,,,,,,,,,,,,,,,,,,,,,,,,,,,,,,,,,,,,68,001,2023_Apr_12_1155,SpeechDraft1Carolyn_lessNoise_PlusLocalization,2021.2.3,59.984711337893685,
gaze.wav,gaze.mpg,gaze,3,A,Pink_Noise_3_1.wav,Pink_Noise_3_2.wav,,,,,,,,,,,,,,,0,37,37,54,,,,,,,,,,,,,,,,,,,,,,,303.86524001229554,None,305.3649058821611,None,306.74869947414845,None,gays,306.74869947414845,None,return,4.296064483933151,306.83203396108,None,,,,,,,,,,,,,,,,,,,,,,,,,,,,,,,,,,,,,,,68,001,2023_Apr_12_1155,SpeechDraft1Carolyn_lessNoise_PlusLocalization,2021.2.3,59.984711337893685,
drum.wav,drum.mpg,drum,1,A,Pink_Noise_1_1.wav,Pink_Noise_1_2.wav,,,,,,,,,,,,,,,0,38,38,17,,,,,,,,,,,,,,,,,,,,,,,311.1485964371823,None,312.64827784197405,None,314.03203489398584,None,drum,314.03203489398584,None,return,4.548805024009198,314.1153305983171,None,,,,,,,,,,,,,,,,,,,,,,,,,,,,,,,,,,,,,,,68,001,2023_Apr_12_1155,SpeechDraft1Carolyn_lessNoise_PlusLocalization,2021.2.3,59.984711337893685,
bias.wav,bias.mpg,bias,2,AV,Pink_Noise_2_1.wav,Pink_Noise_2_2.wav,,,,,,,,,,,,,,,0,39,39,115,,,,,,,,,,,,,,,,,,,,,,,318.6820826740004,None,320.1983589939773,None,321.5819442179054,None,bias,321.5819442179054,None,return,1.0947485379874706,321.6652623950504,None,,,,,,,,,,,,,,,,,,,,,,,,,,,,,,,,,,,,,,,68,001,2023_Apr_12_1155,SpeechDraft1Carolyn_lessNoise_PlusLocalization,2021.2.3,59.984711337893685,
fluent.wav,fluent.mpg,fluent,4,AV,Pink_Noise_4_1.wav,Pink_Noise_4_2.wav,,,,,,,,,,,,,,,0,40,40,101,,,,,,,,,,,,,,,,,,,,,,,322.78196124592796,None,324.2816695938818,None,325.66538486490026,None,"ruined it
",325.66538486490026,None,return,2.06742681004107,325.74859970388934,None,,,,,,,,,,,,,,,,,,,,,,,,,,,,,,,,,,,,,,,68,001,2023_Apr_12_1155,SpeechDraft1Carolyn_lessNoise_PlusLocalization,2021.2.3,59.984711337893685,
fail.wav,fail.mpg,fail,3,A,Pink_Noise_3_1.wav,Pink_Noise_3_2.wav,,,,,,,,,,,,,,,0,41,41,19,,,,,,,,,,,,,,,,,,,,,,,327.84859676193446,None,329.34824991226196,None,330.73200667323545,None,"failed
",330.73200667323545,None,return,1.4007748011499643,330.8152346382849,None,,,,,,,,,,,,,,,,,,,,,,,,,,,,,,,,,,,,,,,68,001,2023_Apr_12_1155,SpeechDraft1Carolyn_lessNoise_PlusLocalization,2021.2.3,59.984711337893685,
hike.wav,hike.mpg,hike,4,A,Pink_Noise_4_1.wav,Pink_Noise_4_2.wav,,,,,,,,,,,,,,,0,42,42,35,,,,,,,,,,,,,,,,,,,,,,,332.24867779389024,None,333.74824143294245,None,335.1320691462606,None,hunt,335.1320691462606,None,return,0.8487699469551444,335.2153465063311,None,,,,,,,,,,,,,,,,,,,,,,,,,,,,,,,,,,,,,,,68,001,2023_Apr_12_1155,SpeechDraft1Carolyn_lessNoise_PlusLocalization,2021.2.3,59.984711337893685,
three.wav,three.mpg,three,1,AV,Pink_Noise_1_1.wav,Pink_Noise_1_2.wav,,,,,,,,,,,,,,,0,43,43,98,,,,,,,,,,,,,,,,,,,,,,,336.08199299126863,None,337.58170444192365,None,338.96525460807607,None,"three
",338.96525460807607,None,return,1.1354071702808142,339.0486292121932,None,,,,,,,,,,,,,,,,,,,,,,,,,,,,,,,,,,,,,,,68,001,2023_Apr_12_1155,SpeechDraft1Carolyn_lessNoise_PlusLocalization,2021.2.3,59.984711337893685,
chord.wav,chord.mpg,chord,2,A,Pink_Noise_2_1.wav,Pink_Noise_2_2.wav,,,,,,,,,,,,,,,0,44,44,39,,,,,,,,,,,,,,,,,,,,,,,340.2153407121077,None,341.71506325295195,None,343.0987116280012,None,cord,343.0987116280012,None,return,0.8581411051563919,343.1819134373218,None,,,,,,,,,,,,,,,,,,,,,,,,,,,,,,,,,,,,,,,68,001,2023_Apr_12_1155,SpeechDraft1Carolyn_lessNoise_PlusLocalization,2021.2.3,59.984711337893685,
gown.wav,gown.mpg,gown,1,A,Pink_Noise_1_1.wav,Pink_Noise_1_2.wav,,,,,,,,,,,,,,,0,45,45,6,,,,,,,,,,,,,,,,,,,,,,,344.0653049121611,None,345.56493320921436,None,346.9487851522863,None,gal ,346.9487851522863,None,return,5.855965635739267,347.03223096532747,None,,,,,,,,,,,,,,,,,,,,,,,,,,,,,,,,,,,,,,,68,001,2023_Apr_12_1155,SpeechDraft1Carolyn_lessNoise_PlusLocalization,2021.2.3,59.984711337893685,
faint.wav,faint.mpg,faint,3,AV,Pink_Noise_3_1.wav,Pink_Noise_3_2.wav,,,,,,,,,,,,,,,0,46,46,111,,,,,,,,,,,,,,,,,,,,,,,352.91532083414495,None,354.4151592273265,None,355.7986056031659,None,"faint
",355.7986056031659,None,return,2.08592392411083,355.88211315730587,None,,,,,,,,,,,,,,,,,,,,,,,,,,,,,,,,,,,,,,,68,001,2023_Apr_12_1155,SpeechDraft1Carolyn_lessNoise_PlusLocalization,2021.2.3,59.984711337893685,
cease.wav,cease.mpg,cease,3,AV,Pink_Noise_3_1.wav,Pink_Noise_3_2.wav,,,,,,,,,,,,,,,0,47,47,86,,,,,,,,,,,,,,,,,,,,,,,357.99877884890884,None,359.4986059111543,None,360.8819474801421,None,sees,360.8819474801421,None,return,3.290947524830699,360.9652372132987,None,,,,,,,,,,,,,,,,,,,,,,,,,,,,,,,,,,,,,,,68,001,2023_Apr_12_1155,SpeechDraft1Carolyn_lessNoise_PlusLocalization,2021.2.3,59.984711337893685,
flow.wav,flow.mpg,flow,3,A,Pink_Noise_3_1.wav,Pink_Noise_3_2.wav,,,,,,,,,,,,,,,0,48,48,1,,,,,,,,,,,,,,,,,,,,,,,364.28201737906784,None,365.78167962422594,None,367.1654071873054,None,flow,367.1654071873054,None,return,1.4313506851904094,367.2486873790622,None,,,,,,,,,,,,,,,,,,,,,,,,,,,,,,,,,,,,,,,68,001,2023_Apr_12_1155,SpeechDraft1Carolyn_lessNoise_PlusLocalization,2021.2.3,59.984711337893685,
flood.wav,flood.mpg,flood,5,AV,Pink_Noise_5_1.wav,Pink_Noise_5_2.wav,,,,,,,,,,,,,,,0,49,49,108,,,,,,,,,,,,,,,,,,,,,,,368.698702739086,None,370.1983733852394,None,371.5819440293126,None,flash,371.5819440293126,None,return,1.8946682019159198,371.66535887215286,None,,,,,,,,,,,,,,,,,,,,,,,,,,,,,,,,,,,,,,,68,001,2023_Apr_12_1155,SpeechDraft1Carolyn_lessNoise_PlusLocalization,2021.2.3,59.984711337893685,
gate.wav,gate.mpg,gate,3,AV,Pink_Noise_3_1.wav,Pink_Noise_3_2.wav,,,,,,,,,,,,,,,0,50,50,79,,,,,,,,,,,,,,,,,,,,,,,373.58195212110877,None,375.08183393487707,None,376.46532063419,None,gate,376.46532063419,None,return,2.7074259780347347,376.54873580113053,None,,,,,,,,,,,,,,,,,,,,,,,,,,,,,,,,,,,,,,,68,001,2023_Apr_12_1155,SpeechDraft1Carolyn_lessNoise_PlusLocalization,2021.2.3,59.984711337893685,
freak.wav,freak.mpg,freak,6,A,Pink_Noise_6_1.wav,Pink_Noise_6_2.wav,,,,,,,,,,,,,,,0,51,51,29,,,,,,,,,,,,,,,,,,,,,,,379.2820472102612,None,380.78158420231193,None,382.1654778532684,None,gate,382.1654778532684,None,return,1.4153174990788102,382.2488035261631,None,,,,,,,,,,,,,,,,,,,,,,,,,,,,,,,,,,,,,,,68,001,2023_Apr_12_1155,SpeechDraft1Carolyn_lessNoise_PlusLocalization,2021.2.3,59.984711337893685,
guess.wav,guess.mpg,guess,5,A,Pink_Noise_5_1.wav,Pink_Noise_5_2.wav,,,,,,,,,,,,,,,0,52,52,26,,,,,,,,,,,,,,,,,,,,,,,383.68201030930504,None,385.18168357014656,None,386.5653754812665,None,gets,386.5653754812665,None,return,1.295226784888655,386.6488215341233,None,,,,,,,,,,,,,,,,,,,,,,,,,,,,,,,,,,,,,,,68,001,2023_Apr_12_1155,SpeechDraft1Carolyn_lessNoise_PlusLocalization,2021.2.3,59.984711337893685,
creep.wav,creep.mpg,creep,1,AV,Pink_Noise_1_1.wav,Pink_Noise_1_2.wav,,,,,,,,,,,,,,,0,53,53,113,,,,,,,,,,,,,,,,,,,,,,,387.96530817402527,None,389.4650900783017,None,390.84881617408246,None,creepy,390.84881617408246,None,return,1.6118403868749738,390.93223077012226,None,,,,,,,,,,,,,,,,,,,,,,,,,,,,,,,,,,,,,,,68,001,2023_Apr_12_1155,SpeechDraft1Carolyn_lessNoise_PlusLocalization,2021.2.3,59.984711337893685,
clam.wav,clam.mpg,clam,1,A,Pink_Noise_1_1.wav,Pink_Noise_1_2.wav,,,,,,,,,,,,,,,0,54,54,52,,,,,,,,,,,,,,,,,,,,,,,392.5654121050611,None,394.06505999108776,None,395.44871540088207,None,claim,395.44871540088207,None,return,6.388140305411071,395.53205018816516,None,,,,,,,,,,,,,,,,,,,,,,,,,,,,,,,,,,,,,,,68,001,2023_Apr_12_1155,SpeechDraft1Carolyn_lessNoise_PlusLocalization,2021.2.3,59.984711337893685,
quart.wav,quart.mpg,quart,6,A,Pink_Noise_6_1.wav,Pink_Noise_6_2.wav,,,,,,,,,,,,,,,0,55,55,11,,,,,,,,,,,,,,,,,,,,,,,401.94874395709485,None,403.44929954688996,None,404.83205059496686,None,"short
",404.83205059496686,None,return,0.8206548299640417,404.9153722701594,None,,,,,,,,,,,,,,,,,,,,,,,,,,,,,,,,,,,,,,,68,001,2023_Apr_12_1155,SpeechDraft1Carolyn_lessNoise_PlusLocalization,2021.2.3,59.984711337893685,
bump.wav,bump.mpg,bump,4,AV,Pink_Noise_4_1.wav,Pink_Noise_4_2.wav,,,,,,,,,,,,,,,0,56,56,85,,,,,,,,,,,,,,,,,,,,,,,405.765360517893,None,407.2659322931431,None,408.64863435318694,None,"boat
",408.64863435318694,None,return,1.4679156001657248,408.73211765894666,None,,,,,,,,,,,,,,,,,,,,,,,,,,,,,,,,,,,,,,,68,001,2023_Apr_12_1155,SpeechDraft1Carolyn_lessNoise_PlusLocalization,2021.2.3,59.984711337893685,
crow.wav,crow.mpg,crow,3,A,Pink_Noise_3_1.wav,Pink_Noise_3_2.wav,,,,,,,,,,,,,,,0,57,57,56,,,,,,,,,,,,,,,,,,,,,,,410.232003597077,None,411.73186272988096,None,413.1154473950155,None,crow,413.1154473950155,None,return,5.945139385294169,413.19888164894655,None,,,,,,,,,,,,,,,,,,,,,,,,,,,,,,,,,,,,,,,68,001,2023_Apr_12_1155,SpeechDraft1Carolyn_lessNoise_PlusLocalization,2021.2.3,59.984711337893685,
crew.wav,crew.mpg,crew,6,AV,Pink_Noise_6_1.wav,Pink_Noise_6_2.wav,,,,,,,,,,,,,,,0,58,58,84,,,,,,,,,,,,,,,,,,,,,,,419.1653613313101,None,420.66505856392905,None,422.0487983501516,None,groom,422.0487983501516,None,return,2.4598977463319898,422.1321399472654,None,,,,,,,,,,,,,,,,,,,,,,,,,,,,,,,,,,,,,,,68,001,2023_Apr_12_1155,SpeechDraft1Carolyn_lessNoise_PlusLocalization,2021.2.3,59.984711337893685,
pop.wav,pop.mpg,pop,5,A,Pink_Noise_5_1.wav,Pink_Noise_5_2.wav,,,,,,,,,,,,,,,0,59,59,24,,,,,,,,,,,,,,,,,,,,,,,424.6154366610572,None,426.1151371533051,None,427.4987657861784,None,clamp,427.4987657861784,None,return,2.209907725919038,427.58216839889064,None,,,,,,,,,,,,,,,,,,,,,,,,,,,,,,,,,,,,,,,68,001,2023_Apr_12_1155,SpeechDraft1Carolyn_lessNoise_PlusLocalization,2021.2.3,59.984711337893685,
fine.wav,fine.mpg,fine,3,AV,Pink_Noise_3_1.wav,Pink_Noise_3_2.wav,,,,,,,,,,,,,,,0,60,60,76,,,,,,,,,,,,,,,,,,,,,,,429.8154467502609,None,431.31515080993995,None,432.69873834215105,None,fine,432.69873834215105,None,return,0.6819705632515252,432.7821649382822,None,,,,,,,,,,,,,,,,,,,,,,,,,,,,,,,,,,,,,,,68,001,2023_Apr_12_1155,SpeechDraft1Carolyn_lessNoise_PlusLocalization,2021.2.3,59.984711337893685,
druid.wav,druid.mpg,druid,2,AV,Pink_Noise_2_1.wav,Pink_Noise_2_2.wav,,,,,,,,,,,,,,,0,61,61,82,,,,,,,,,,,,,,,,,,,,,,,433.4821950532496,None,434.98175259213895,None,436.3654848402366,None,drew it,436.3654848402366,None,return,6.2633196180686355,436.4488195022568,None,,,,,,,,,,,,,,,,,,,,,,,,,,,,,,,,,,,,,,,68,001,2023_Apr_12_1155,SpeechDraft1Carolyn_lessNoise_PlusLocalization,2021.2.3,59.984711337893685,
bite.wav,bite.mpg,bite,1,AV,Pink_Noise_1_1.wav,Pink_Noise_1_2.wav,,,,,,,,,,,,,,,0,62,62,110,,,,,,,,,,,,,,,,,,,,,,,442.7321826890111,None,444.23208927502856,None,445.6153734489344,None,bite,445.6153734489344,None,return,0.9810620816424489,445.6989664840512,None,,,,,,,,,,,,,,,,,,,,,,,,,,,,,,,,,,,,,,,68,001,2023_Apr_12_1155,SpeechDraft1Carolyn_lessNoise_PlusLocalization,2021.2.3,59.984711337893685,
bleed.wav,bleed.mpg,bleed,3,AV,Pink_Noise_3_1.wav,Pink_Noise_3_2.wav,,,,,,,,,,,,,,,0,63,63,102,,,,,,,,,,,,,,,,,,,,,,,446.6987572843209,None,448.19867525296286,None,449.582137292251,None,"bleed
",449.582137292251,None,return,1.1185875409282744,449.66544908098876,None,,,,,,,,,,,,,,,,,,,,,,,,,,,,,,,,,,,,,,,68,001,2023_Apr_12_1155,SpeechDraft1Carolyn_lessNoise_PlusLocalization,2021.2.3,59.984711337893685,
dual.wav,dual.mpg,dual,2,A,Pink_Noise_2_1.wav,Pink_Noise_2_2.wav,,,,,,,,,,,,,,,0,64,64,47,,,,,,,,,,,,,,,,,,,,,,,450.8155092759989,None,452.3151410128921,None,453.69880377314985,None,"doal 
",453.69880377314985,None,return,1.8018618957139552,453.78215075610206,None,,,,,,,,,,,,,,,,,,,,,,,,,,,,,,,,,,,,,,,68,001,2023_Apr_12_1155,SpeechDraft1Carolyn_lessNoise_PlusLocalization,2021.2.3,59.984711337893685,
route.wav,route.mpg,route,1,AV,Pink_Noise_1_1.wav,Pink_Noise_1_2.wav,,,,,,,,,,,,,,,0,65,65,88,,,,,,,,,,,,,,,,,,,,,,,455.61545484000817,None,457.1152961109765,None,458.4987209038809,None,rude,458.4987209038809,None,return,2.4659767700359225,458.582127480302,None,,,,,,,,,,,,,,,,,,,,,,,,,,,,,,,,,,,,,,,68,001,2023_Apr_12_1155,SpeechDraft1Carolyn_lessNoise_PlusLocalization,2021.2.3,59.984711337893685,
blade.wav,blade.mpg,blade,4,AV,Pink_Noise_4_1.wav,Pink_Noise_4_2.wav,,,,,,,,,,,,,,,0,66,66,74,,,,,,,,,,,,,,,,,,,,,,,461.0654916493222,None,462.56531474692747,None,463.9486890733242,None,"blame
",463.9486890733242,None,return,1.1199304671026766,464.03211421426386,None,,,,,,,,,,,,,,,,,,,,,,,,,,,,,,,,,,,,,,,68,001,2023_Apr_12_1155,SpeechDraft1Carolyn_lessNoise_PlusLocalization,2021.2.3,59.984711337893685,
fifth.wav,fifth.mpg,fifth,1,AV,Pink_Noise_1_1.wav,Pink_Noise_1_2.wav,,,,,,,,,,,,,,,0,67,67,78,,,,,,,,,,,,,,,,,,,,,,,465.1822414151393,None,466.6819574581459,None,468.0655194041319,None,fifth,468.0655194041319,None,return,1.6591057986952364,468.14892735518515,None,,,,,,,,,,,,,,,,,,,,,,,,,,,,,,,,,,,,,,,68,001,2023_Apr_12_1155,SpeechDraft1Carolyn_lessNoise_PlusLocalization,2021.2.3,59.984711337893685,
droop.wav,droop.mpg,droop,5,A,Pink_Noise_5_1.wav,Pink_Noise_5_2.wav,,,,,,,,,,,,,,,0,68,68,30,,,,,,,,,,,,,,,,,,,,,,,469.83211797615513,None,471.33192858612165,None,472.7154329959303,None,rude,472.7154329959303,None,return,1.2653170060366392,472.7987928772345,None,,,,,,,,,,,,,,,,,,,,,,,,,,,,,,,,,,,,,,,68,001,2023_Apr_12_1155,SpeechDraft1Carolyn_lessNoise_PlusLocalization,2021.2.3,59.984711337893685,
grain.wav,grain.mpg,grain,6,AV,Pink_Noise_6_1.wav,Pink_Noise_6_2.wav,,,,,,,,,,,,,,,0,69,69,90,,,,,,,,,,,,,,,,,,,,,,,474.0820806468837,None,475.58296910393983,None,476.96564159030095,None,drain,476.96564159030095,None,return,1.255186218302697,477.04889570130035,None,,,,,,,,,,,,,,,,,,,,,,,,,,,,,,,,,,,,,,,68,001,2023_Apr_12_1155,SpeechDraft1Carolyn_lessNoise_PlusLocalization,2021.2.3,59.984711337893685,
fierce.wav,fierce.mpg,fierce,2,AV,Pink_Noise_2_1.wav,Pink_Noise_2_2.wav,,,,,,,,,,,,,,,0,70,70,75,,,,,,,,,,,,,,,,,,,,,,,478.3321954482235,None,479.8319636262022,None,481.2154262489639,None,fears,481.2154262489639,None,return,1.1411645440384746,481.2988834059797,None,,,,,,,,,,,,,,,,,,,,,,,,,,,,,,,,,,,,,,,68,001,2023_Apr_12_1155,SpeechDraft1Carolyn_lessNoise_PlusLocalization,2021.2.3,59.984711337893685,
gloom.wav,gloom.mpg,gloom,1,AV,Pink_Noise_1_1.wav,Pink_Noise_1_2.wav,,,,,,,,,,,,,,,0,71,71,92,,,,,,,,,,,,,,,,,,,,,,,482.46563448710367,None,483.96527978917584,None,485.3488129773177,None,glue,485.3488129773177,None,return,2.4957870761863887,485.43224352411926,None,,,,,,,,,,,,,,,,,,,,,,,,,,,,,,,,,,,,,,,68,001,2023_Apr_12_1155,SpeechDraft1Carolyn_lessNoise_PlusLocalization,2021.2.3,59.984711337893685,
bare.wav,bare.mpg,bare,5,A,Pink_Noise_5_1.wav,Pink_Noise_5_2.wav,,,,,,,,,,,,,,,0,72,72,58,,,,,,,,,,,,,,,,,,,,,,,487.94885702989995,None,489.44845610810444,None,490.8332677022554,None,fail,490.8332677022554,None,return,0.6764197037555277,490.9156045312993,None,,,,,,,,,,,,,,,,,,,,,,,,,,,,,,,,,,,,,,,68,001,2023_Apr_12_1155,SpeechDraft1Carolyn_lessNoise_PlusLocalization,2021.2.3,59.984711337893685,
earn.wav,earn.mpg,earn,2,A,Pink_Noise_2_1.wav,Pink_Noise_2_2.wav,,,,,,,,,,,,,,,0,73,73,53,,,,,,,,,,,,,,,,,,,,,,,491.61550455214456,None,493.11518021998927,None,494.499070905149,None,"earth
",494.499070905149,None,return,0.9858167576603591,494.58221459016204,None,,,,,,,,,,,,,,,,,,,,,,,,,,,,,,,,,,,,,,,68,001,2023_Apr_12_1155,SpeechDraft1Carolyn_lessNoise_PlusLocalization,2021.2.3,59.984711337893685,
drive.wav,drive.mpg,drive,6,A,Pink_Noise_6_1.wav,Pink_Noise_6_2.wav,,,,,,,,,,,,,,,0,74,74,40,,,,,,,,,,,,,,,,,,,,,,,495.5990113238804,None,497.09857192309573,None,498.4822926642373,None,fly,498.4822926642373,None,return,1.6264372770674527,498.565572517924,None,,,,,,,,,,,,,,,,,,,,,,,,,,,,,,,,,,,,,,,68,001,2023_Apr_12_1155,SpeechDraft1Carolyn_lessNoise_PlusLocalization,2021.2.3,59.984711337893685,
grin.wav,grin.mpg,grin,1,AV,Pink_Noise_1_1.wav,Pink_Noise_1_2.wav,,,,,,,,,,,,,,,0,75,75,103,,,,,,,,,,,,,,,,,,,,,,,500.21559204207733,None,501.7161964629777,None,503.0989060238935,None,grin,503.0989060238935,None,return,4.449709423817694,503.1823555850424,None,,,,,,,,,,,,,,,,,,,,,,,,,,,,,,,,,,,,,,,68,001,2023_Apr_12_1155,SpeechDraft1Carolyn_lessNoise_PlusLocalization,2021.2.3,59.984711337893685,
bath.wav,bath.mpg,bath,3,AV,Pink_Noise_3_1.wav,Pink_Noise_3_2.wav,,,,,,,,,,,,,,,0,76,76,68,,,,,,,,,,,,,,,,,,,,,,,507.64897267799824,None,509.1486348602921,None,510.53209950588644,None,bath,510.53209950588644,None,return,0.9765099762007594,510.61551556922495,None,,,,,,,,,,,,,,,,,,,,,,,,,,,,,,,,,,,,,,,68,001,2023_Apr_12_1155,SpeechDraft1Carolyn_lessNoise_PlusLocalization,2021.2.3,59.984711337893685,
cloth.wav,cloth.mpg,cloth,5,AV,Pink_Noise_5_1.wav,Pink_Noise_5_2.wav,,,,,,,,,,,,,,,0,77,77,116,,,,,,,,,,,,,,,,,,,,,,,511.6154975472018,None,513.1152589712292,None,514.498771824874,None,"cloth
",514.498771824874,None,return,3.8176842438988388,514.5823553479277,None,,,,,,,,,,,,,,,,,,,,,,,,,,,,,,,,,,,,,,,68,001,2023_Apr_12_1155,SpeechDraft1Carolyn_lessNoise_PlusLocalization,2021.2.3,59.984711337893685,
cleft.wav,cleft.mpg,cleft,5,A,Pink_Noise_5_1.wav,Pink_Noise_5_2.wav,,,,,,,,,,,,,,,0,78,78,50,,,,,,,,,,,,,,,,,,,,,,,518.4322145790793,None,519.9319207211956,None,521.3155038570985,None,flash,521.3155038570985,None,return,2.2652299059554935,521.3988915369846,None,,,,,,,,,,,,,,,,,,,,,,,,,,,,,,,,,,,,,,,68,001,2023_Apr_12_1155,SpeechDraft1Carolyn_lessNoise_PlusLocalization,2021.2.3,59.984711337893685,
cloud.wav,cloud.mpg,cloud,2,A,Pink_Noise_2_1.wav,Pink_Noise_2_2.wav,,,,,,,,,,,,,,,0,79,79,36,,,,,,,,,,,,,,,,,,,,,,,523.6822290192358,None,525.1819414459169,None,526.5655200718902,None,cloud,526.5655200718902,None,return,1.0392362158745527,526.6488987789489,None,,,,,,,,,,,,,,,,,,,,,,,,,,,,,,,,,,,,,,,68,001,2023_Apr_12_1155,SpeechDraft1Carolyn_lessNoise_PlusLocalization,2021.2.3,59.984711337893685,
cow.wav,cow.mpg,cow,4,A,Pink_Noise_4_1.wav,Pink_Noise_4_2.wav,,,,,,,,,,,,,,,0,80,80,7,,,,,,,,,,,,,,,,,,,,,,,527.7156548141502,None,529.215248642955,None,530.5988836009055,None,"cow
",530.5988836009055,None,return,0.5018657599575818,530.6821714532562,None,,,,,,,,,,,,,,,,,,,,,,,,,,,,,,,,,,,,,,,68,001,2023_Apr_12_1155,SpeechDraft1Carolyn_lessNoise_PlusLocalization,2021.2.3,59.984711337893685,
bunch.wav,bunch.mpg,bunch,6,AV,Pink_Noise_6_1.wav,Pink_Noise_6_2.wav,,,,,,,,,,,,,,,0,81,81,99,,,,,,,,,,,,,,,,,,,,,,,531.2156972051598,None,532.7153245732188,None,534.0988481719978,None,punch,534.0988481719978,None,return,1.7538002580404282,534.182238582056,None,,,,,,,,,,,,,,,,,,,,,,,,,,,,,,,,,,,,,,,68,001,2023_Apr_12_1155,SpeechDraft1Carolyn_lessNoise_PlusLocalization,2021.2.3,59.984711337893685,
truck.wav,truck.mpg,truck,6,A,Pink_Noise_6_1.wav,Pink_Noise_6_2.wav,,,,,,,,,,,,,,,0,82,82,22,,,,,,,,,,,,,,,,,,,,,,,535.9655710319057,None,537.4667966882698,None,538.8489401582628,None,"tough
",538.8489401582628,None,return,1.683753325138241,538.9322766358964,None,,,,,,,,,,,,,,,,,,,,,,,,,,,,,,,,,,,,,,,68,001,2023_Apr_12_1155,SpeechDraft1Carolyn_lessNoise_PlusLocalization,2021.2.3,59.984711337893685,
glue.wav,glue.mpg,glue,6,A,Pink_Noise_6_1.wav,Pink_Noise_6_2.wav,,,,,,,,,,,,,,,0,83,83,42,,,,,,,,,,,,,,,,,,,,,,,540.6489735199139,None,542.1486626942642,None,543.532221776899,None,bleed,543.532221776899,None,return,0.9124411190859973,543.615588427987,None,,,,,,,,,,,,,,,,,,,,,,,,,,,,,,,,,,,,,,,68,001,2023_Apr_12_1155,SpeechDraft1Carolyn_lessNoise_PlusLocalization,2021.2.3,59.984711337893685,
dusk.wav,dusk.mpg,dusk,2,A,Pink_Noise_2_1.wav,Pink_Noise_2_2.wav,,,,,,,,,,,,,,,0,84,84,46,,,,,,,,,,,,,,,,,,,,,,,544.5489808148704,None,546.0486396290362,None,547.4322331100702,None,"dust
",547.4322331100702,None,return,1.6684916447848082,547.5155432699248,None,,,,,,,,,,,,,,,,,,,,,,,,,,,,,,,,,,,,,,,68,001,2023_Apr_12_1155,SpeechDraft1Carolyn_lessNoise_PlusLocalization,2021.2.3,59.984711337893685,
glove.wav,glove.mpg,glove,4,AV,Pink_Noise_4_1.wav,Pink_Noise_4_2.wav,,,,,,,,,,,,,,,0,85,85,65,,,,,,,,,,,,,,,,,,,,,,,549.2155731329694,None,550.7153386380523,None,552.0988949500024,None,glove,552.0988949500024,None,return,1.6976573038846254,552.1823763041757,None,,,,,,,,,,,,,,,,,,,,,,,,,,,,,,,,,,,,,,,68,001,2023_Apr_12_1155,SpeechDraft1Carolyn_lessNoise_PlusLocalization,2021.2.3,59.984711337893685,
gross.wav,gross.mpg,gross,2,A,Pink_Noise_2_1.wav,Pink_Noise_2_2.wav,,,,,,,,,,,,,,,0,86,86,28,,,,,,,,,,,,,,,,,,,,,,,553.8990773181431,None,555.3985302168876,None,556.7823809580877,None,gross,556.7823809580877,None,return,3.358404808677733,556.8656178442761,None,,,,,,,,,,,,,,,,,,,,,,,,,,,,,,,,,,,,,,,68,001,2023_Apr_12_1155,SpeechDraft1Carolyn_lessNoise_PlusLocalization,2021.2.3,59.984711337893685,
cute.wav,cute.mpg,cute,4,A,Pink_Noise_4_1.wav,Pink_Noise_4_2.wav,,,,,,,,,,,,,,,0,87,87,3,,,,,,,,,,,,,,,,,,,,,,,560.2491205451079,None,561.7653789110482,None,563.1489215618931,None,cute,563.1489215618931,None,return,1.2319838916882873,563.2321924902499,None,,,,,,,,,,,,,,,,,,,,,,,,,,,,,,,,,,,,,,,68,001,2023_Apr_12_1155,SpeechDraft1Carolyn_lessNoise_PlusLocalization,2021.2.3,59.984711337893685,
edge.wav,edge.mpg,edge,2,AV,Pink_Noise_2_1.wav,Pink_Noise_2_2.wav,,,,,,,,,,,,,,,0,88,88,63,,,,,,,,,,,,,,,,,,,,,,,564.482331097126,None,565.9819298302755,None,567.365565947257,None,"edge
",567.365565947257,None,return,1.0871285237371922,567.4489096119069,None,,,,,,,,,,,,,,,,,,,,,,,,,,,,,,,,,,,,,,,68,001,2023_Apr_12_1155,SpeechDraft1Carolyn_lessNoise_PlusLocalization,2021.2.3,59.984711337893685,
dance.wav,dance.mpg,dance,4,A,Pink_Noise_4_1.wav,Pink_Noise_4_2.wav,,,,,,,,,,,,,,,0,89,89,4,,,,,,,,,,,,,,,,,,,,,,,568.5657264790498,None,570.0653626560234,None,571.4490183531307,None,bills,571.4490183531307,None,return,1.443737090099603,571.5322898859158,None,,,,,,,,,,,,,,,,,,,,,,,,,,,,,,,,,,,,,,,68,001,2023_Apr_12_1155,SpeechDraft1Carolyn_lessNoise_PlusLocalization,2021.2.3,59.984711337893685,
born.wav,born.mpg,born,5,A,Pink_Noise_5_1.wav,Pink_Noise_5_2.wav,,,,,,,,,,,,,,,0,90,90,44,,,,,,,,,,,,,,,,,,,,,,,572.9990559150465,None,574.4986166311428,None,575.8822879572399,None,for,575.8822879572399,None,return,1.8985191099345684,575.965608370956,None,,,,,,,,,,,,,,,,,,,,,,,,,,,,,,,,,,,,,,,68,001,2023_Apr_12_1155,SpeechDraft1Carolyn_lessNoise_PlusLocalization,2021.2.3,59.984711337893685,
two.wav,two.mpg,two,4,A,Pink_Noise_4_1.wav,Pink_Noise_4_2.wav,,,,,,,,,,,,,,,0,91,91,20,,,,,,,,,,,,,,,,,,,,,,,577.8823588201776,None,579.3820529072545,None,580.7655850732699,None,"two 
",580.7655850732699,None,return,4.1189378737472,580.8490959289484,None,,,,,,,,,,,,,,,,,,,,,,,,,,,,,,,,,,,,,,,68,001,2023_Apr_12_1155,SpeechDraft1Carolyn_lessNoise_PlusLocalization,2021.2.3,59.984711337893685,
shut.wav,shut.mpg,shut,5,A,Pink_Noise_5_1.wav,Pink_Noise_5_2.wav,,,,,,,,,,,,,,,0,92,92,23,,,,,,,,,,,,,,,,,,,,,,,584.9990374213085,None,586.5152696422301,None,587.8990107201971,None,shots,587.8990107201971,None,return,1.1457987898029387,587.982282828074,None,,,,,,,,,,,,,,,,,,,,,,,,,,,,,,,,,,,,,,,68,001,2023_Apr_12_1155,SpeechDraft1Carolyn_lessNoise_PlusLocalization,2021.2.3,59.984711337893685,
float.wav,float.mpg,float,3,A,Pink_Noise_3_1.wav,Pink_Noise_3_2.wav,,,,,,,,,,,,,,,0,93,93,13,,,,,,,,,,,,,,,,,,,,,,,589.1490097749047,None,590.6652663452551,None,592.0490632499568,None,float,592.0490632499568,None,return,1.8915807059966028,592.1324455179274,None,,,,,,,,,,,,,,,,,,,,,,,,,,,,,,,,,,,,,,,68,001,2023_Apr_12_1155,SpeechDraft1Carolyn_lessNoise_PlusLocalization,2021.2.3,59.984711337893685,
bet.wav,bet.mpg,bet,1,A,Pink_Noise_1_1.wav,Pink_Noise_1_2.wav,,,,,,,,,,,,,,,0,94,94,5,,,,,,,,,,,,,,,,,,,,,,,594.0489351660945,None,595.5487404260784,None,596.9324131389149,None,bat,596.9324131389149,None,return,1.448425909038633,597.0156958959997,None,,,,,,,,,,,,,,,,,,,,,,,,,,,,,,,,,,,,,,,68,001,2023_Apr_12_1155,SpeechDraft1Carolyn_lessNoise_PlusLocalization,2021.2.3,59.984711337893685,
gray.wav,gray.mpg,gray,1,AV,Pink_Noise_1_1.wav,Pink_Noise_1_2.wav,,,,,,,,,,,,,,,0,95,95,112,,,,,,,,,,,,,,,,,,,,,,,598.4823439312167,None,599.9818974849768,None,601.3656139811501,None,"grey
",601.3656139811501,None,return,1.9029998159967363,601.4490368589759,None,,,,,,,,,,,,,,,,,,,,,,,,,,,,,,,,,,,,,,,68,001,2023_Apr_12_1155,SpeechDraft1Carolyn_lessNoise_PlusLocalization,2021.2.3,59.984711337893685,
swan.wav,swan.mpg,swan,3,AV,Pink_Noise_3_1.wav,Pink_Noise_3_2.wav,,,,,,,,,,,,,,,0,96,96,70,,,,,,,,,,,,,,,,,,,,,,,603.3823591629043,None,604.8820441020653,None,606.2655167351477,None,swam,606.2655167351477,None,return,2.2751057571731508,606.3489621151239,None,,,,,,,,,,,,,,,,,,,,,,,,,,,,,,,,,,,,,,,68,001,2023_Apr_12_1155,SpeechDraft1Carolyn_lessNoise_PlusLocalization,2021.2.3,59.984711337893685,
gas.wav,gas.mpg,gas,2,AV,Pink_Noise_2_1.wav,Pink_Noise_2_2.wav,,,,,,,,,,,,,,,0,97,97,87,,,,,,,,,,,,,,,,,,,,,,,608.6490055993199,None,610.14881985588,None,611.5323218242265,None,guess,611.5323218242265,None,return,1.512435563839972,611.6156186843291,None,,,,,,,,,,,,,,,,,,,,,,,,,,,,,,,,,,,,,,,68,001,2023_Apr_12_1155,SpeechDraft1Carolyn_lessNoise_PlusLocalization,2021.2.3,59.984711337893685,
bend.wav,bend.mpg,bend,1,A,Pink_Noise_1_1.wav,Pink_Noise_1_2.wav,,,,,,,,,,,,,,,0,98,98,37,,,,,,,,,,,,,,,,,,,,,,,613.1490794681013,None,614.6487128539011,None,616.032352230046,None,"bent
",616.032352230046,None,return,1.0683828452602029,616.1156722973101,None,,,,,,,,,,,,,,,,,,,,,,,,,,,,,,,,,,,,,,,68,001,2023_Apr_12_1155,SpeechDraft1Carolyn_lessNoise_PlusLocalization,2021.2.3,59.984711337893685,
east.wav,east.mpg,east,3,AV,Pink_Noise_3_1.wav,Pink_Noise_3_2.wav,,,,,,,,,,,,,,,0,99,99,80,,,,,,,,,,,,,,,,,,,,,,,617.2156509170309,None,618.7321894280612,None,620.115655682981,None,east,620.115655682981,None,return,1.0410730801522732,620.1990231550299,None,,,,,,,,,,,,,,,,,,,,,,,,,,,,,,,,,,,,,,,68,001,2023_Apr_12_1155,SpeechDraft1Carolyn_lessNoise_PlusLocalization,2021.2.3,59.984711337893685,
live.wav,live.mpg,live,2,AV,Pink_Noise_2_1.wav,Pink_Noise_2_2.wav,,,,,,,,,,,,,,,0,100,100,91,,,,,,,,,,,,,,,,,,,,,,,621.2657222100534,None,622.7820807150565,None,624.1656666840427,None,live,624.1656666840427,None,return,0.6870249980129302,624.2489981059916,None,,,,,,,,,,,,,,,,,,,,,,,,,,,,,,,,,,,,,,,68,001,2023_Apr_12_1155,SpeechDraft1Carolyn_lessNoise_PlusLocalization,2021.2.3,59.984711337893685,
deem.wav,deem.mpg,deem,4,A,Pink_Noise_4_1.wav,Pink_Noise_4_2.wav,,,,,,,,,,,,,,,0,101,101,49,,,,,,,,,,,,,,,,,,,,,,,624.9656926458701,None,626.4654076751322,None,627.8491555699147,None,deam,627.8491555699147,None,return,1.2756702052429318,627.9323482499458,None,,,,,,,,,,,,,,,,,,,,,,,,,,,,,,,,,,,,,,,68,001,2023_Apr_12_1155,SpeechDraft1Carolyn_lessNoise_PlusLocalization,2021.2.3,59.984711337893685,
axe.wav,axe.mpg,axe,6,A,Pink_Noise_6_1.wav,Pink_Noise_6_2.wav,,,,,,,,,,,,,,,0,102,102,59,,,,,,,,,,,,,,,,,,,,,,,629.2323660501279,None,630.7321151080541,None,632.1157198622823,None,"x 
",632.1157198622823,None,return,1.3369867582805455,632.1990393260494,None,,,,,,,,,,,,,,,,,,,,,,,,,,,,,,,,,,,,,,,68,001,2023_Apr_12_1155,SpeechDraft1Carolyn_lessNoise_PlusLocalization,2021.2.3,59.984711337893685,
bloom.wav,bloom.mpg,bloom,4,A,Pink_Noise_4_1.wav,Pink_Noise_4_2.wav,,,,,,,,,,,,,,,0,103,103,27,,,,,,,,,,,,,,,,,,,,,,,633.565701123327,None,635.065452454146,None,636.4490426853299,None,blue,636.4490426853299,None,return,0.7317708292976022,636.5323795992881,None,,,,,,,,,,,,,,,,,,,,,,,,,,,,,,,,,,,,,,,68,001,2023_Apr_12_1155,SpeechDraft1Carolyn_lessNoise_PlusLocalization,2021.2.3,59.984711337893685,
block.wav,block.mpg,block,6,A,Pink_Noise_6_1.wav,Pink_Noise_6_2.wav,,,,,,,,,,,,,,,0,104,104,16,,,,,,,,,,,,,,,,,,,,,,,637.2823507189751,None,638.7820656099357,None,640.1657731961459,None,"flush
",640.1657731961459,None,return,3.5028227479197085,640.2491945852526,None,,,,,,,,,,,,,,,,,,,,,,,,,,,,,,,,,,,,,,,68,001,2023_Apr_12_1155,SpeechDraft1Carolyn_lessNoise_PlusLocalization,2021.2.3,59.984711337893685,
chief.wav,chief.mpg,chief,5,AV,Pink_Noise_5_1.wav,Pink_Noise_5_2.wav,,,,,,,,,,,,,,,0,105,105,77,,,,,,,,,,,,,,,,,,,,,,,643.7823169599287,None,645.2821162189357,None,646.6657917052507,None,tooth,646.6657917052507,None,return,1.955070162191987,646.7490700329654,None,,,,,,,,,,,,,,,,,,,,,,,,,,,,,,,,,,,,,,,68,001,2023_Apr_12_1155,SpeechDraft1Carolyn_lessNoise_PlusLocalization,2021.2.3,59.984711337893685,
bean.wav,bean.mpg,bean,2,AV,Pink_Noise_2_1.wav,Pink_Noise_2_2.wav,,,,,,,,,,,,,,,0,106,106,69,,,,,,,,,,,,,,,,,,,,,,,648.7324321661144,None,650.2490158812143,None,651.6323023899458,None,beam,651.6323023899458,None,return,1.324331795796752,651.7158103422262,None,,,,,,,,,,,,,,,,,,,,,,,,,,,,,,,,,,,,,,,68,001,2023_Apr_12_1155,SpeechDraft1Carolyn_lessNoise_PlusLocalization,2021.2.3,59.984711337893685,
glare.wav,glare.mpg,glare,6,A,Pink_Noise_6_1.wav,Pink_Noise_6_2.wav,,,,,,,,,,,,,,,0,107,107,55,,,,,,,,,,,,,,,,,,,,,,,653.0657947170548,None,654.5821030559018,None,655.9657222870737,None,"beam
",655.9657222870737,None,return,3.5509356260299683,656.0490937419236,None,,,,,,,,,,,,,,,,,,,,,,,,,,,,,,,,,,,,,,,68,001,2023_Apr_12_1155,SpeechDraft1Carolyn_lessNoise_PlusLocalization,2021.2.3,59.984711337893685,
grave.wav,grave.mpg,grave,5,A,Pink_Noise_5_1.wav,Pink_Noise_5_2.wav,,,,,,,,,,,,,,,0,108,108,51,,,,,,,,,,,,,,,,,,,,,,,659.6324064442888,None,661.132121249102,None,662.5156799601391,None,"grey
",662.5156799601391,None,return,1.1685239276848733,662.5995166562498,None,,,,,,,,,,,,,,,,,,,,,,,,,,,,,,,,,,,,,,,68,001,2023_Apr_12_1155,SpeechDraft1Carolyn_lessNoise_PlusLocalization,2021.2.3,59.984711337893685,
drain.wav,drain.mpg,drain,2,AV,Pink_Noise_2_1.wav,Pink_Noise_2_2.wav,,,,,,,,,,,,,,,0,109,109,64,,,,,,,,,,,,,,,,,,,,,,,663.7990667899139,None,665.2989994939417,None,666.6823644363321,None,drain,666.6823644363321,None,return,1.0102830999530852,666.7657415242866,None,,,,,,,,,,,,,,,,,,,,,,,,,,,,,,,,,,,,,,,68,001,2023_Apr_12_1155,SpeechDraft1Carolyn_lessNoise_PlusLocalization,2021.2.3,59.984711337893685,
folk.wav,folk.mpg,folk,3,AV,Pink_Noise_3_1.wav,Pink_Noise_3_2.wav,,,,,,,,,,,,,,,0,110,110,105,,,,,,,,,,,,,,,,,,,,,,,667.799104616046,None,669.2999313301407,None,670.6824087169953,None,book,670.6824087169953,None,return,1.0823429580777884,670.7657761783339,None,,,,,,,,,,,,,,,,,,,,,,,,,,,,,,,,,,,,,,,68,001,2023_Apr_12_1155,SpeechDraft1Carolyn_lessNoise_PlusLocalization,2021.2.3,59.984711337893685,
blimp.wav,blimp.mpg,blimp,5,AV,Pink_Noise_5_1.wav,Pink_Noise_5_2.wav,,,,,,,,,,,,,,,0,111,111,96,,,,,,,,,,,,,,,,,,,,,,,671.8657293850556,None,673.3820863161236,None,674.7658007959835,None,flip,674.7658007959835,None,return,5.294918761122972,674.8491246169433,None,,,,,,,,,,,,,,,,,,,,,,,,,,,,,,,,,,,,,,,68,001,2023_Apr_12_1155,SpeechDraft1Carolyn_lessNoise_PlusLocalization,2021.2.3,59.984711337893685,
gum.wav,gum.mpg,gum,3,A,Pink_Noise_3_1.wav,Pink_Noise_3_2.wav,,,,,,,,,,,,,,,0,112,112,14,,,,,,,,,,,,,,,,,,,,,,,680.1657899320126,None,681.6655007801019,None,683.0491205411963,None,gum,683.0491205411963,None,return,1.11561370594427,683.13249301631,None,,,,,,,,,,,,,,,,,,,,,,,,,,,,,,,,,,,,,,,68,001,2023_Apr_12_1155,SpeechDraft1Carolyn_lessNoise_PlusLocalization,2021.2.3,59.984711337893685,
glass.wav,glass.mpg,glass,3,A,Pink_Noise_3_1.wav,Pink_Noise_3_2.wav,,,,,,,,,,,,,,,0,113,113,57,,,,,,,,,,,,,,,,,,,,,,,684.2658082009293,None,685.7821529670618,None,687.1657992568798,None,glass,687.1657992568798,None,return,1.3429008298553526,687.2491156500764,None,,,,,,,,,,,,,,,,,,,,,,,,,,,,,,,,,,,,,,,68,001,2023_Apr_12_1155,SpeechDraft1Carolyn_lessNoise_PlusLocalization,2021.2.3,59.984711337893685,
news.wav,news.mpg,news,5,AV,Pink_Noise_5_1.wav,Pink_Noise_5_2.wav,,,,,,,,,,,,,,,0,114,114,61,,,,,,,,,,,,,,,,,,,,,,,688.6157443611883,None,690.1155500509776,None,691.4992091921158,None,clues,691.4992091921158,None,return,1.8095885734073818,691.5824437560514,None,,,,,,,,,,,,,,,,,,,,,,,,,,,,,,,,,,,,,,,68,001,2023_Apr_12_1155,SpeechDraft1Carolyn_lessNoise_PlusLocalization,2021.2.3,59.984711337893685,
sue.wav,sue.mpg,sue,2,A,Pink_Noise_2_1.wav,Pink_Noise_2_2.wav,,,,,,,,,,,,,,,0,115,115,38,,,,,,,,,,,,,,,,,,,,,,,693.4158207159489,None,694.9322313931771,None,696.2991368141957,None,"suit
",696.2991368141957,None,return,0.9695569379255176,696.3824772532098,None,,,,,,,,,,,,,,,,,,,,,,,,,,,,,,,,,,,,,,,68,001,2023_Apr_12_1155,SpeechDraft1Carolyn_lessNoise_PlusLocalization,2021.2.3,59.984711337893685,
drop.wav,drop.mpg,drop,4,AV,Pink_Noise_4_1.wav,Pink_Noise_4_2.wav,,,,,,,,,,,,,,,0,116,116,62,,,,,,,,,,,,,,,,,,,,,,,697.3824041592889,None,698.898868624121,None,700.2827010881156,None,drop,700.2827010881156,None,return,1.5622822628356516,700.3657813109457,None,,,,,,,,,,,,,,,,,,,,,,,,,,,,,,,,,,,,,,,68,001,2023_Apr_12_1155,SpeechDraft1Carolyn_lessNoise_PlusLocalization,2021.2.3,59.984711337893685,
chart.wav,chart.mpg,chart,3,AV,Pink_Noise_3_1.wav,Pink_Noise_3_2.wav,,,,,,,,,,,,,,,0,117,117,119,,,,,,,,,,,,,,,,,,,,,,,701.9490955541842,None,703.4496848252602,None,704.8323404621333,None,"chart
",704.8323404621333,None,return,0.9002089872956276,704.9158296580426,None,,,,,,,,,,,,,,,,,,,,,,,,,,,,,,,,,,,,,,,68,001,2023_Apr_12_1155,SpeechDraft1Carolyn_lessNoise_PlusLocalization,2021.2.3,59.984711337893685,
deck.wav,deck.mpg,deck,5,AV,Pink_Noise_5_1.wav,Pink_Noise_5_2.wav,,,,,,,,,,,,,,,0,118,118,89,,,,,,,,,,,,,,,,,,,,,,,705.8491351371631,None,707.3655525729991,None,708.7492145481519,None,neck,708.7492145481519,None,return,0.8397373189218342,708.8324552848935,None,,,,,,,,,,,,,,,,,,,,,,,,,,,,,,,,,,,,,,,68,001,2023_Apr_12_1155,SpeechDraft1Carolyn_lessNoise_PlusLocalization,2021.2.3,59.984711337893685,
fed.wav,fed.mpg,fed,1,A,Pink_Noise_1_1.wav,Pink_Noise_1_2.wav,,,,,,,,,,,,,,,0,119,119,32,,,,,,,,,,,,,,,,,,,,,,,709.6992441872135,None,711.2156304921955,None,712.5992288659327,None,fed,712.5992288659327,None,return,0.6775101190432906,712.6825207341462,None,,,,,,,,,,,,,,,,,,,,,,,,,,,,,,,,,,,,,,,68,001,2023_Apr_12_1155,SpeechDraft1Carolyn_lessNoise_PlusLocalization,2021.2.3,59.984711337893685,
,,,,,,,,,,,,,,,,,,,,,,,,,,,,,,,,,,,,,,,,,,,,,,,,,,,,,,,,,,,,,,,,,,space,22.709452339913696,713.4825943759643,None,,,,,,,,,,,,,,,,,,,,,,,,,,,,,68,001,2023_Apr_12_1155,SpeechDraft1Carolyn_lessNoise_PlusLocalization,2021.2.3,59.984711337893685,
,,,,,,,,farLeft,-19.1,5,ch1Sound_localizationTask.wav,-19.1,"(667, 878)","(-293,-202)",-285,-338,,,,,,,,,0,0,0,0,,,,,,,,,,,,,,,,,,,,,,,,,,,,,,,,,,,,,,,,,,713.4825943759643,None,736.2322005070746,None,737.3321633138694,None,738.2655597981066,None,1.0222222222222221,4.85330835590139,738.2655597981066,None,,,,,,,,,,,,,,,,,68,001,2023_Apr_12_1155,SpeechDraft1Carolyn_lessNoise_PlusLocalization,2021.2.3,59.984711337893685,
,,,,,,,,center,0.0,6,ch1Sound_localizationTask.wav,0.0,"(952, 878)","(-8,-202)",0,-338,,,,,,,,,0,1,1,3,,,,,,,,,,,,,,,,,,,,,,,,,,,,,,,,,,,,,,,,,,,,743.1325403009541,None,744.2322878520936,None,745.1654878309928,None,1.4962962962962962,1.5492582372389734,745.1654878309928,None,,,,,,,,,,,,,,,,,68,001,2023_Apr_12_1155,SpeechDraft1Carolyn_lessNoise_PlusLocalization,2021.2.3,59.984711337893685,
,,,,,,,,nearRight,6.5,0,ch1Sound_localizationTask.wav,6.5,"(1047, 878)","(87, -202)",95,-338,,,,,,,,,0,2,2,4,,,,,,,,,,,,,,,,,,,,,,,,,,,,,,,,,,,,,,,,,,,,746.715987931937,None,747.8154774978757,None,748.7489282391034,None,1.6968253968253968,0.6995174358598888,748.7489282391034,None,,,,,,,,,,,,,,,,,68,001,2023_Apr_12_1155,SpeechDraft1Carolyn_lessNoise_PlusLocalization,2021.2.3,59.984711337893685,
,,,,,,,,farRight,19.1,4,ch1Sound_localizationTask.wav,19.1,"(1237, 878)","(277,-202)",285,-338,,,,,,,,,0,3,3,6,,,,,,,,,,,,,,,,,,,,,,,,,,,,,,,,,,,,,,,,,,,,749.4495828840882,None,750.548936705105,None,751.4823556779884,None,1.783068783068783,0.7332642148248851,751.4823556779884,None,,,,,,,,,,,,,,,,,68,001,2023_Apr_12_1155,SpeechDraft1Carolyn_lessNoise_PlusLocalization,2021.2.3,59.984711337893685,
,,,,,,,,midLeft,-13.0,2,ch1Sound_localizationTask.wav,-13.0,"(762, 878)","(-198,-202)",-190,-338,,,,,,,,,0,4,4,1,,,,,,,,,,,,,,,,,,,,,,,,,,,,,,,,,,,,,,,,,,,,752.2326134592295,None,753.3322606049478,None,754.2656798562966,None,1.0481481481481483,0.8334145089611411,754.2656798562966,None,,,,,,,,,,,,,,,,,68,001,2023_Apr_12_1155,SpeechDraft1Carolyn_lessNoise_PlusLocalization,2021.2.3,59.984711337893685,
,,,,,,,,nearLeft,-6.5,1,ch1Sound_localizationTask.wav,-6.5,"(857, 878)","(-103,-202)",-95,-338,,,,,,,,,0,5,5,2,,,,,,,,,,,,,,,,,,,,,,,,,,,,,,,,,,,,,,,,,,,,755.100228162948,None,756.1988425240852,None,757.1322269411758,None,1.3703703703703702,1.1165763288736343,757.1322269411758,None,,,,,,,,,,,,,,,,,68,001,2023_Apr_12_1155,SpeechDraft1Carolyn_lessNoise_PlusLocalization,2021.2.3,59.984711337893685,
,,,,,,,,farLeft,-19.1,5,ch1Sound_localizationTask.wav,-19.1,"(667, 878)","(-293,-202)",-285,-338,,,,,,,,,0,6,6,0,,,,,,,,,,,,,,,,,,,,,,,,,,,,,,,,,,,,,,,,,,,,758.2498718770221,None,759.3490345249884,None,760.2823207960464,None,1.1195767195767194,0.915211140178144,760.2823207960464,None,,,,,,,,,,,,,,,,,68,001,2023_Apr_12_1155,SpeechDraft1Carolyn_lessNoise_PlusLocalization,2021.2.3,59.984711337893685,
,,,,,,,,nearLeft,-6.5,1,ch1Sound_localizationTask.wav,-6.5,"(857, 878)","(-103,-202)",-95,-338,,,,,,,,,1,0,7,2,,,,,,,,,,,,,,,,,,,,,,,,,,,,,,,,,,,,,,,,,,,,761.1993166371249,None,762.298893682193,None,763.2321664742194,None,1.3571428571428572,0.6988873118534684,763.2321664742194,None,,,,,,,,,,,,,,,,,68,001,2023_Apr_12_1155,SpeechDraft1Carolyn_lessNoise_PlusLocalization,2021.2.3,59.984711337893685,
,,,,,,,,nearLeft,-6.5,1,ch1Sound_localizationTask.wav,-6.5,"(857, 878)","(-103,-202)",-95,-338,,,,,,,,,1,1,8,2,,,,,,,,,,,,,,,,,,,,,,,,,,,,,,,,,,,,,,,,,,,,763.932574108243,None,765.0323998662643,None,765.9655774389394,None,1.3656084656084655,0.482742584310472,765.9655774389394,None,,,,,,,,,,,,,,,,,68,001,2023_Apr_12_1155,SpeechDraft1Carolyn_lessNoise_PlusLocalization,2021.2.3,59.984711337893685,
,,,,,,,,center,0.0,6,ch1Sound_localizationTask.wav,0.0,"(952, 878)","(-8,-202)",0,-338,,,,,,,,,1,2,9,3,,,,,,,,,,,,,,,,,,,,,,,,,,,,,,,,,,,,,,,,,,,,766.4496506243013,None,767.5488500641659,None,768.4823245862499,None,1.4962962962962962,0.9165615318343043,768.4823245862499,None,,,,,,,,,,,,,,,,,68,001,2023_Apr_12_1155,SpeechDraft1Carolyn_lessNoise_PlusLocalization,2021.2.3,59.984711337893685,
,,,,,,,,midLeft,-13.0,2,ch1Sound_localizationTask.wav,-13.0,"(762, 878)","(-198,-202)",-190,-338,,,,,,,,,1,3,10,1,,,,,,,,,,,,,,,,,,,,,,,,,,,,,,,,,,,,,,,,,,,,769.3996325461194,None,770.4990599001758,None,771.4322741553187,None,1.0338624338624338,0.966490610036999,771.4322741553187,None,,,,,,,,,,,,,,,,,68,001,2023_Apr_12_1155,SpeechDraft1Carolyn_lessNoise_PlusLocalization,2021.2.3,59.984711337893685,
,,,,,,,,farLeft,-19.1,5,ch1Sound_localizationTask.wav,-19.1,"(667, 878)","(-293,-202)",-285,-338,,,,,,,,,1,4,11,0,,,,,,,,,,,,,,,,,,,,,,,,,,,,,,,,,,,,,,,,,,,,772.39957908215,None,773.498894572258,None,774.4322639531456,None,1.2698412698412698,0.6818239260464907,774.4322639531456,None,,,,,,,,,,,,,,,,,68,001,2023_Apr_12_1155,SpeechDraft1Carolyn_lessNoise_PlusLocalization,2021.2.3,59.984711337893685,
,,,,,,,,nearRight,6.5,0,ch1Sound_localizationTask.wav,6.5,"(1047, 878)","(87, -202)",95,-338,,,,,,,,,1,5,12,4,,,,,,,,,,,,,,,,,,,,,,,,,,,,,,,,,,,,,,,,,,,,775.1159504530951,None,776.215608313214,None,777.1489520091563,None,1.564021164021164,0.7001005839556456,777.1489520091563,None,,,,,,,,,,,,,,,,,68,001,2023_Apr_12_1155,SpeechDraft1Carolyn_lessNoise_PlusLocalization,2021.2.3,59.984711337893685,
,,,,,,,,nearLeft,-6.5,1,ch1Sound_localizationTask.wav,-6.5,"(857, 878)","(-103,-202)",-95,-338,,,,,,,,,1,6,13,2,,,,,,,,,,,,,,,,,,,,,,,,,,,,,,,,,,,,,,,,,,,,777.850937501993,None,778.9657004512846,None,779.8822766742669,None,1.1962962962962962,0.5993826566264033,779.8822766742669,None,,,,,,,,,,,,,,,,,68,001,2023_Apr_12_1155,SpeechDraft1Carolyn_lessNoise_PlusLocalization,2021.2.3,59.984711337893685,
,,,,,,,,nearRight,6.5,0,ch1Sound_localizationTask.wav,6.5,"(1047, 878)","(87, -202)",95,-338,,,,,,,,,2,0,14,4,,,,,,,,,,,,,,,,,,,,,,,,,,,,,,,,,,,,,,,,,,,,780.4827606021427,None,781.5822789669037,None,782.5156107009389,None,1.5206349206349206,0.7828328548930585,782.5156107009389,None,,,,,,,,,,,,,,,,,68,001,2023_Apr_12_1155,SpeechDraft1Carolyn_lessNoise_PlusLocalization,2021.2.3,59.984711337893685,
,,,,,,,,nearRight,6.5,0,ch1Sound_localizationTask.wav,6.5,"(1047, 878)","(87, -202)",95,-338,,,,,,,,,2,1,15,4,,,,,,,,,,,,,,,,,,,,,,,,,,,,,,,,,,,,,,,,,,,,783.2996030859649,None,784.3990148101002,None,785.3323753280565,None,1.5349206349206348,0.5166983655653894,785.3323753280565,None,,,,,,,,,,,,,,,,,68,001,2023_Apr_12_1155,SpeechDraft1Carolyn_lessNoise_PlusLocalization,2021.2.3,59.984711337893685,
,,,,,,,,farLeft,-19.1,5,ch1Sound_localizationTask.wav,-19.1,"(667, 878)","(-293,-202)",-285,-338,,,,,,,,,2,2,16,0,,,,,,,,,,,,,,,,,,,,,,,,,,,,,,,,,,,,,,,,,,,,785.849563693162,None,786.9489017161541,None,787.8824262209237,None,1.143915343915344,0.6160081531852484,787.8824262209237,None,,,,,,,,,,,,,,,,,68,001,2023_Apr_12_1155,SpeechDraft1Carolyn_lessNoise_PlusLocalization,2021.2.3,59.984711337893685,
,,,,,,,,farLeft,-19.1,5,ch1Sound_localizationTask.wav,-19.1,"(667, 878)","(-293,-202)",-285,-338,,,,,,,,,2,3,17,0,,,,,,,,,,,,,,,,,,,,,,,,,,,,,,,,,,,,,,,,,,,,788.4994662120007,None,789.5989702269435,None,790.5322652501054,None,1.1132275132275131,0.849786025006324,790.5322652501054,None,,,,,,,,,,,,,,,,,68,001,2023_Apr_12_1155,SpeechDraft1Carolyn_lessNoise_PlusLocalization,2021.2.3,59.984711337893685,
,,,,,,,,nearLeft,-6.5,1,ch1Sound_localizationTask.wav,-6.5,"(857, 878)","(-103,-202)",-95,-338,,,,,,,,,2,4,18,2,,,,,,,,,,,,,,,,,,,,,,,,,,,,,,,,,,,,,,,,,,,,791.3832561229356,None,792.4824321558699,None,793.4156560213305,None,1.3915343915343916,0.6161375748924911,793.4156560213305,None,,,,,,,,,,,,,,,,,68,001,2023_Apr_12_1155,SpeechDraft1Carolyn_lessNoise_PlusLocalization,2021.2.3,59.984711337893685,
,,,,,,,,center,0.0,6,ch1Sound_localizationTask.wav,0.0,"(952, 878)","(-8,-202)",0,-338,,,,,,,,,2,5,19,3,,,,,,,,,,,,,,,,,,,,,,,,,,,,,,,,,,,,,,,,,,,,794.033403577283,None,795.1323326611891,None,796.065702138003,None,1.5084656084656085,0.5159541857428849,796.065702138003,None,,,,,,,,,,,,,,,,,68,001,2023_Apr_12_1155,SpeechDraft1Carolyn_lessNoise_PlusLocalization,2021.2.3,59.984711337893685,
,,,,,,,,midRight,13.0,3,ch1Sound_localizationTask.wav,13.0,"(1142, 878)","(182, -202)",190,-338,,,,,,,,,2,6,20,5,,,,,,,,,,,,,,,,,,,,,,,,,,,,,,,,,,,,,,,,,,,,796.5827200380154,None,797.6823728019372,None,798.6155680641532,None,1.6179894179894179,0.44939053524285555,798.6155680641532,None,,,,,,,,,,,,,,,,,68,001,2023_Apr_12_1155,SpeechDraft1Carolyn_lessNoise_PlusLocalization,2021.2.3,59.984711337893685,
,,,,,,,,midRight,13.0,3,ch1Sound_localizationTask.wav,13.0,"(1142, 878)","(182, -202)",190,-338,,,,,,,,,3,0,21,5,,,,,,,,,,,,,,,,,,,,,,,,,,,,,,,,,,,,,,,,,,,,799.0662957523018,None,800.1655941051431,None,801.0989860002883,None,1.6608465608465608,0.5151922688819468,801.0989860002883,None,,,,,,,,,,,,,,,,,68,001,2023_Apr_12_1155,SpeechDraft1Carolyn_lessNoise_PlusLocalization,2021.2.3,59.984711337893685,
,,,,,,,,farLeft,-19.1,5,ch1Sound_localizationTask.wav,-19.1,"(667, 878)","(-293,-202)",-285,-338,,,,,,,,,3,1,22,0,,,,,,,,,,,,,,,,,,,,,,,,,,,,,,,,,,,,,,,,,,,,801.6164046949707,None,802.7156266933307,None,803.6489459383301,None,1.1185185185185185,0.5509042199701071,803.6489459383301,None,,,,,,,,,,,,,,,,,68,001,2023_Apr_12_1155,SpeechDraft1Carolyn_lessNoise_PlusLocalization,2021.2.3,59.984711337893685,
,,,,,,,,midLeft,-13.0,2,ch1Sound_localizationTask.wav,-13.0,"(762, 878)","(-198,-202)",-190,-338,,,,,,,,,3,2,23,1,,,,,,,,,,,,,,,,,,,,,,,,,,,,,,,,,,,,,,,,,,,,804.2159201279283,None,805.3155510602519,None,806.2489449470304,None,1.2962962962962963,0.5499236900359392,806.2489449470304,None,,,,,,,,,,,,,,,,,68,001,2023_Apr_12_1155,SpeechDraft1Carolyn_lessNoise_PlusLocalization,2021.2.3,59.984711337893685,
,,,,,,,,center,0.0,6,ch1Sound_localizationTask.wav,0.0,"(952, 878)","(-8,-202)",0,-338,,,,,,,,,3,3,24,3,,,,,,,,,,,,,,,,,,,,,,,,,,,,,,,,,,,,,,,,,,,,806.800609937869,None,807.9156179879792,None,808.8323058621027,None,1.5142857142857142,0.8001899453811347,808.8323058621027,None,,,,,,,,,,,,,,,,,68,001,2023_Apr_12_1155,SpeechDraft1Carolyn_lessNoise_PlusLocalization,2021.2.3,59.984711337893685,
,,,,,,,,nearRight,6.5,0,ch1Sound_localizationTask.wav,6.5,"(1047, 878)","(87, -202)",95,-338,,,,,,,,,3,4,25,4,,,,,,,,,,,,,,,,,,,,,,,,,,,,,,,,,,,,,,,,,,,,809.63313229708,None,810.7325556781143,None,811.6657742979005,None,1.5841269841269843,0.3817407339811325,811.6657742979005,None,,,,,,,,,,,,,,,,,68,001,2023_Apr_12_1155,SpeechDraft1Carolyn_lessNoise_PlusLocalization,2021.2.3,59.984711337893685,
,,,,,,,,nearRight,6.5,0,ch1Sound_localizationTask.wav,6.5,"(1047, 878)","(87, -202)",95,-338,,,,,,,,,3,5,26,4,,,,,,,,,,,,,,,,,,,,,,,,,,,,,,,,,,,,,,,,,,,,812.049753732048,None,813.1489933598787,None,814.0823475453071,None,1.571957671957672,0.46519619273021817,814.0823475453071,None,,,,,,,,,,,,,,,,,68,001,2023_Apr_12_1155,SpeechDraft1Carolyn_lessNoise_PlusLocalization,2021.2.3,59.984711337893685,
,,,,,,,,midRight,13.0,3,ch1Sound_localizationTask.wav,13.0,"(1142, 878)","(182, -202)",190,-338,,,,,,,,,3,6,27,5,,,,,,,,,,,,,,,,,,,,,,,,,,,,,,,,,,,,,,,,,,,,814.5493402169086,None,815.6489892438985,None,816.5824412913062,None,1.566137566137566,0.516964403912425,816.5824412913062,None,,,,,,,,,,,,,,,,,68,001,2023_Apr_12_1155,SpeechDraft1Carolyn_lessNoise_PlusLocalization,2021.2.3,59.984711337893685,
,,,,,,,,farRight,19.1,4,ch1Sound_localizationTask.wav,19.1,"(1237, 878)","(277,-202)",285,-338,,,,,,,,,4,0,28,6,,,,,,,,,,,,,,,,,,,,,,,,,,,,,,,,,,,,,,,,,,,,817.115948362276,None,818.2157295080833,None,819.148966088891,None,1.6121693121693121,0.5163214919157326,819.148966088891,None,,,,,,,,,,,,,,,,,68,001,2023_Apr_12_1155,SpeechDraft1Carolyn_lessNoise_PlusLocalization,2021.2.3,59.984711337893685,
,,,,,,,,midLeft,-13.0,2,ch1Sound_localizationTask.wav,-13.0,"(762, 878)","(-198,-202)",-190,-338,,,,,,,,,4,1,29,1,,,,,,,,,,,,,,,,,,,,,,,,,,,,,,,,,,,,,,,,,,,,819.6664680289105,None,820.7656516148709,None,821.6990019711666,None,1.0894179894179894,0.516443382948637,821.6990019711666,None,,,,,,,,,,,,,,,,,68,001,2023_Apr_12_1155,SpeechDraft1Carolyn_lessNoise_PlusLocalization,2021.2.3,59.984711337893685,
,,,,,,,,center,0.0,6,ch1Sound_localizationTask.wav,0.0,"(952, 878)","(-8,-202)",0,-338,,,,,,,,,4,2,30,3,,,,,,,,,,,,,,,,,,,,,,,,,,,,,,,,,,,,,,,,,,,,822.2164631681517,None,823.3157619312406,None,824.2490507741459,None,1.4693121693121693,0.9511141120456159,824.2490507741459,None,,,,,,,,,,,,,,,,,68,001,2023_Apr_12_1155,SpeechDraft1Carolyn_lessNoise_PlusLocalization,2021.2.3,59.984711337893685,
,,,,,,,,midRight,13.0,3,ch1Sound_localizationTask.wav,13.0,"(1142, 878)","(182, -202)",190,-338,,,,,,,,,4,3,31,5,,,,,,,,,,,,,,,,,,,,,,,,,,,,,,,,,,,,,,,,,,,,825.2160269753076,None,826.315821480006,None,827.2490061023273,None,1.6132275132275131,0.7999518746510148,827.2490061023273,None,,,,,,,,,,,,,,,,,68,001,2023_Apr_12_1155,SpeechDraft1Carolyn_lessNoise_PlusLocalization,2021.2.3,59.984711337893685,
,,,,,,,,nearLeft,-6.5,1,ch1Sound_localizationTask.wav,-6.5,"(857, 878)","(-103,-202)",-95,-338,,,,,,,,,4,4,32,2,,,,,,,,,,,,,,,,,,,,,,,,,,,,,,,,,,,,,,,,,,,,828.0497562652454,None,829.1490761600435,None,830.082709970884,None,1.2031746031746031,0.4618583736009896,830.082709970884,None,,,,,,,,,,,,,,,,,68,001,2023_Apr_12_1155,SpeechDraft1Carolyn_lessNoise_PlusLocalization,2021.2.3,59.984711337893685,
,,,,,,,,nearRight,6.5,0,ch1Sound_localizationTask.wav,6.5,"(1047, 878)","(87, -202)",95,-338,,,,,,,,,4,5,33,4,,,,,,,,,,,,,,,,,,,,,,,,,,,,,,,,,,,,,,,,,,,,830.5494538373314,None,831.6491272500716,None,832.5822561350651,None,1.5211640211640212,0.8498001131229103,832.5822561350651,None,,,,,,,,,,,,,,,,,68,001,2023_Apr_12_1155,SpeechDraft1Carolyn_lessNoise_PlusLocalization,2021.2.3,59.984711337893685,
,,,,,,,,midRight,13.0,3,ch1Sound_localizationTask.wav,13.0,"(1142, 878)","(182, -202)",190,-338,,,,,,,,,4,6,34,5,,,,,,,,,,,,,,,,,,,,,,,,,,,,,,,,,,,,,,,,,,,,833.433518587146,None,834.532557436265,None,835.4656718270853,None,1.6402116402116402,0.5331697487272322,835.4656718270853,None,,,,,,,,,,,,,,,,,68,001,2023_Apr_12_1155,SpeechDraft1Carolyn_lessNoise_PlusLocalization,2021.2.3,59.984711337893685,
,,,,,,,,center,0.0,6,ch1Sound_localizationTask.wav,0.0,"(952, 878)","(-8,-202)",0,-338,,,,,,,,,5,0,35,3,,,,,,,,,,,,,,,,,,,,,,,,,,,,,,,,,,,,,,,,,,,,835.9999650758691,None,837.0990792922676,None,838.0323598240502,None,1.4804232804232804,0.832625116687268,838.0323598240502,None,,,,,,,,,,,,,,,,,68,001,2023_Apr_12_1155,SpeechDraft1Carolyn_lessNoise_PlusLocalization,2021.2.3,59.984711337893685,
,,,,,,,,midRight,13.0,3,ch1Sound_localizationTask.wav,13.0,"(1142, 878)","(182, -202)",190,-338,,,,,,,,,5,1,36,5,,,,,,,,,,,,,,,,,,,,,,,,,,,,,,,,,,,,,,,,,,,,838.8661815971136,None,839.965645913966,None,840.8989154291339,None,1.6677248677248677,0.4991523679345846,840.8989154291339,None,,,,,,,,,,,,,,,,,68,001,2023_Apr_12_1155,SpeechDraft1Carolyn_lessNoise_PlusLocalization,2021.2.3,59.984711337893685,
,,,,,,,,farRight,19.1,4,ch1Sound_localizationTask.wav,19.1,"(1237, 878)","(277,-202)",285,-338,,,,,,,,,5,2,37,6,,,,,,,,,,,,,,,,,,,,,,,,,,,,,,,,,,,,,,,,,,,,841.399405756034,None,842.4989896998741,None,843.432354836259,None,1.7465608465608464,0.4666532753035426,843.432354836259,None,,,,,,,,,,,,,,,,,68,001,2023_Apr_12_1155,SpeechDraft1Carolyn_lessNoise_PlusLocalization,2021.2.3,59.984711337893685,
,,,,,,,,farRight,19.1,4,ch1Sound_localizationTask.wav,19.1,"(1237, 878)","(277,-202)",285,-338,,,,,,,,,5,3,38,6,,,,,,,,,,,,,,,,,,,,,,,,,,,,,,,,,,,,,,,,,,,,843.8996152509935,None,844.9990793219768,None,845.9324374990538,None,1.6925925925925926,0.43404383212327957,845.9324374990538,None,,,,,,,,,,,,,,,,,68,001,2023_Apr_12_1155,SpeechDraft1Carolyn_lessNoise_PlusLocalization,2021.2.3,59.984711337893685,
,,,,,,,,nearLeft,-6.5,1,ch1Sound_localizationTask.wav,-6.5,"(857, 878)","(-103,-202)",-95,-338,,,,,,,,,5,4,39,2,,,,,,,,,,,,,,,,,,,,,,,,,,,,,,,,,,,,,,,,,,,,846.382741574198,None,847.4823225811124,None,848.415618146304,None,1.306878306878307,0.6504378211684525,848.415618146304,None,,,,,,,,,,,,,,,,,68,001,2023_Apr_12_1155,SpeechDraft1Carolyn_lessNoise_PlusLocalization,2021.2.3,59.984711337893685,
,,,,,,,,nearLeft,-6.5,1,ch1Sound_localizationTask.wav,-6.5,"(857, 878)","(-103,-202)",-95,-338,,,,,,,,,5,5,40,2,,,,,,,,,,,,,,,,,,,,,,,,,,,,,,,,,,,,,,,,,,,,849.0827832240611,None,850.1824785401113,None,851.1157885259017,None,1.384126984126984,0.6333441659808159,851.1157885259017,None,,,,,,,,,,,,,,,,,68,001,2023_Apr_12_1155,SpeechDraft1Carolyn_lessNoise_PlusLocalization,2021.2.3,59.984711337893685,
,,,,,,,,farRight,19.1,4,ch1Sound_localizationTask.wav,19.1,"(1237, 878)","(277,-202)",285,-338,,,,,,,,,5,6,41,6,,,,,,,,,,,,,,,,,,,,,,,,,,,,,,,,,,,,,,,,,,,,851.7497761542909,None,852.8490215730853,None,853.7823439380154,None,1.723809523809524,0.6499340049922466,853.7823439380154,None,,,,,,,,,,,,,,,,,68,001,2023_Apr_12_1155,SpeechDraft1Carolyn_lessNoise_PlusLocalization,2021.2.3,59.984711337893685,
,,,,,,,,farLeft,-19.1,5,ch1Sound_localizationTask.wav,-19.1,"(667, 878)","(-293,-202)",-285,-338,,,,,,,,,6,0,42,0,,,,,,,,,,,,,,,,,,,,,,,,,,,,,,,,,,,,,,,,,,,,854.4341562110931,None,855.5490922019817,None,856.4657625830732,None,1.1756613756613756,0.8328755372203887,856.4657625830732,None,,,,,,,,,,,,,,,,,68,001,2023_Apr_12_1155,SpeechDraft1Carolyn_lessNoise_PlusLocalization,2021.2.3,59.984711337893685,
,,,,,,,,midLeft,-13.0,2,ch1Sound_localizationTask.wav,-13.0,"(762, 878)","(-198,-202)",-190,-338,,,,,,,,,6,1,43,1,,,,,,,,,,,,,,,,,,,,,,,,,,,,,,,,,,,,,,,,,,,,857.299503901042,None,858.3992519462481,None,859.3324534539133,None,1.2095238095238097,0.8039965778589249,859.3324534539133,None,,,,,,,,,,,,,,,,,68,001,2023_Apr_12_1155,SpeechDraft1Carolyn_lessNoise_PlusLocalization,2021.2.3,59.984711337893685,
,,,,,,,,center,0.0,6,ch1Sound_localizationTask.wav,0.0,"(952, 878)","(-8,-202)",0,-338,,,,,,,,,6,2,44,3,,,,,,,,,,,,,,,,,,,,,,,,,,,,,,,,,,,,,,,,,,,,860.1657832711935,None,861.2656655609608,None,862.1826653070748,None,1.4994708994708994,0.7839628178626299,862.1826653070748,None,,,,,,,,,,,,,,,,,68,001,2023_Apr_12_1155,SpeechDraft1Carolyn_lessNoise_PlusLocalization,2021.2.3,59.984711337893685,
,,,,,,,,center,0.0,6,ch1Sound_localizationTask.wav,0.0,"(952, 878)","(-8,-202)",0,-338,,,,,,,,,6,3,45,3,,,,,,,,,,,,,,,,,,,,,,,,,,,,,,,,,,,,,,,,,,,,862.9827709672973,None,864.0823475671932,None,865.0157177909277,None,1.4656084656084656,0.4160221000202,865.0157177909277,None,,,,,,,,,,,,,,,,,68,001,2023_Apr_12_1155,SpeechDraft1Carolyn_lessNoise_PlusLocalization,2021.2.3,59.984711337893685,
,,,,,,,,farRight,19.1,4,ch1Sound_localizationTask.wav,19.1,"(1237, 878)","(277,-202)",285,-338,,,,,,,,,6,4,46,6,,,,,,,,,,,,,,,,,,,,,,,,,,,,,,,,,,,,,,,,,,,,865.4329827390611,None,866.5324082011357,None,867.4658059859648,None,1.693121693121693,0.6676032668910921,867.4658059859648,None,,,,,,,,,,,,,,,,,68,001,2023_Apr_12_1155,SpeechDraft1Carolyn_lessNoise_PlusLocalization,2021.2.3,59.984711337893685,
,,,,,,,,midLeft,-13.0,2,ch1Sound_localizationTask.wav,-13.0,"(762, 878)","(-198,-202)",-190,-338,,,,,,,,,6,5,47,1,,,,,,,,,,,,,,,,,,,,,,,,,,,,,,,,,,,,,,,,,,,,868.1493884511292,None,869.2490732539445,None,870.1822655750439,None,1.2095238095238097,0.6832575956359506,870.1822655750439,None,,,,,,,,,,,,,,,,,68,001,2023_Apr_12_1155,SpeechDraft1Carolyn_lessNoise_PlusLocalization,2021.2.3,59.984711337893685,
,,,,,,,,midLeft,-13.0,2,ch1Sound_localizationTask.wav,-13.0,"(762, 878)","(-198,-202)",-190,-338,,,,,,,,,6,6,48,1,,,,,,,,,,,,,,,,,,,,,,,,,,,,,,,,,,,,,,,,,,,,870.8676991821267,None,871.9824721869081,None,872.8990634540096,None,1.198941798941799,0.6158237592317164,872.8990634540096,None,,,,,,,,,,,,,,,,,68,001,2023_Apr_12_1155,SpeechDraft1Carolyn_lessNoise_PlusLocalization,2021.2.3,59.984711337893685,
,,,,,,,,midRight,13.0,3,ch1Sound_localizationTask.wav,13.0,"(1142, 878)","(182, -202)",190,-338,,,,,,,,,7,0,49,5,,,,,,,,,,,,,,,,,,,,,,,,,,,,,,,,,,,,,,,,,,,,873.5166681110859,None,874.6157067432068,None,875.5492501989938,None,1.6058201058201058,0.6663502347655594,875.5492501989938,None,,,,,,,,,,,,,,,,,68,001,2023_Apr_12_1155,SpeechDraft1Carolyn_lessNoise_PlusLocalization,2021.2.3,59.984711337893685,
,,,,,,,,farRight,19.1,4,ch1Sound_localizationTask.wav,19.1,"(1237, 878)","(277,-202)",285,-338,,,,,,,,,7,1,50,6,,,,,,,,,,,,,,,,,,,,,,,,,,,,,,,,,,,,,,,,,,,,876.2164131682366,None,877.3158001620322,None,878.2490462651476,None,1.6793650793650794,0.5509981368668377,878.2490462651476,None,,,,,,,,,,,,,,,,,68,001,2023_Apr_12_1155,SpeechDraft1Carolyn_lessNoise_PlusLocalization,2021.2.3,59.984711337893685,
,,,,,,,,farRight,19.1,4,ch1Sound_localizationTask.wav,19.1,"(1237, 878)","(277,-202)",285,-338,,,,,,,,,7,2,51,6,,,,,,,,,,,,,,,,,,,,,,,,,,,,,,,,,,,,,,,,,,,,878.8161994758993,None,879.9157427651808,None,880.8490511151031,None,1.7126984126984128,1.0172605440020561,880.8490511151031,None,,,,,,,,,,,,,,,,,68,001,2023_Apr_12_1155,SpeechDraft1Carolyn_lessNoise_PlusLocalization,2021.2.3,59.984711337893685,
,,,,,,,,farLeft,-19.1,5,ch1Sound_localizationTask.wav,-19.1,"(667, 878)","(-293,-202)",-285,-338,,,,,,,,,7,3,52,0,,,,,,,,,,,,,,,,,,,,,,,,,,,,,,,,,,,,,,,,,,,,881.8827021401376,None,882.98238442,None,883.9160853200592,None,1.0560846560846562,0.9659366230480373,883.9160853200592,None,,,,,,,,,,,,,,,,,68,001,2023_Apr_12_1155,SpeechDraft1Carolyn_lessNoise_PlusLocalization,2021.2.3,59.984711337893685,
,,,,,,,,midLeft,-13.0,2,ch1Sound_localizationTask.wav,-13.0,"(762, 878)","(-198,-202)",-190,-338,,,,,,,,,7,4,53,1,,,,,,,,,,,,,,,,,,,,,,,,,,,,,,,,,,,,,,,,,,,,884.8828653763048,None,885.9823997719213,None,886.9157814038917,None,1.237037037037037,0.5660967607982457,886.9157814038917,None,,,,,,,,,,,,,,,,,68,001,2023_Apr_12_1155,SpeechDraft1Carolyn_lessNoise_PlusLocalization,2021.2.3,59.984711337893685,
,,,,,,,,nearRight,6.5,0,ch1Sound_localizationTask.wav,6.5,"(1047, 878)","(87, -202)",95,-338,,,,,,,,,7,5,54,4,,,,,,,,,,,,,,,,,,,,,,,,,,,,,,,,,,,,,,,,,,,,887.4828390348703,None,888.5823830002919,None,889.5157392523251,None,1.6084656084656084,0.9334255717694759,889.5157392523251,None,,,,,,,,,,,,,,,,,68,001,2023_Apr_12_1155,SpeechDraft1Carolyn_lessNoise_PlusLocalization,2021.2.3,59.984711337893685,
,,,,,,,,midRight,13.0,3,ch1Sound_localizationTask.wav,13.0,"(1142, 878)","(182, -202)",190,-338,,,,,,,,,7,6,55,5,,,,,,,,,,,,,,,,,,,,,,,,,,,,,,,,,,,,,,,,,,,,890.4514990001917,None,891.5658456953242,None,892.4824857092462,None,1.5724867724867724,0.6829845970496535,892.4824857092462,None,,,,,,,,,,,,,,,,,68,001,2023_Apr_12_1155,SpeechDraft1Carolyn_lessNoise_PlusLocalization,2021.2.3,59.984711337893685,
,,,,,,,,,,,,,,,,,,,,,,,,,,,,,,,,,,,,,,,,,,,,,,,,,,,,,,,,,,,,,,,,,,,,,,,,,,,,,,,,,,space,13.398660650011152,893.2494386900216,None,,,,,,,,,,,,,68,001,2023_Apr_12_1155,SpeechDraft1Carolyn_lessNoise_PlusLocalization,2021.2.3,59.984711337893685,
,,,,,,,,center,0.0,6,ch1Sound_localizationTask.wav,0.0,"(952, 878)","(-8,-202)",0,-338,,,,,,,,,,,,,0,0,0,3,,,,,,,,,,,,,,,,,,,,,,,,,,,,,,,,,,,,,,,,906.6825151462108,None,,,909.7002679281868,None,1.5026455026455028,0.8387937727384269,909.7002679281868,None,,,,,893.2494386900216,None,907.6827219482511,None,907.8661590642296,907.8827211349271,,,,,,,68,001,2023_Apr_12_1155,SpeechDraft1Carolyn_lessNoise_PlusLocalization,2021.2.3,59.984711337893685,
,,,,,,,,nearLeft,-6.5,1,ch1Sound_localizationTask.wav,-6.5,"(857, 878)","(-103,-202)",-95,-338,,,,,,,,,,,,,0,1,1,2,,,,,,,,,,,,,,,,,,,,,,,,,,,,,,,,,,,,,,,,910.5504751009867,None,,,913.5823624553159,None,1.4148148148148147,0.6207613139413297,913.5823624553159,None,,,,,,,911.5662074442953,None,911.7495087259449,911.7660619919188,,,,,,,68,001,2023_Apr_12_1155,SpeechDraft1Carolyn_lessNoise_PlusLocalization,2021.2.3,59.984711337893685,
,,,,,,,,farRight,19.1,4,ch1Sound_localizationTask.wav,19.1,"(1237, 878)","(277,-202)",285,-338,,,,,,,,,,,,,0,2,2,6,,,,,,,,,,,,,,,,,,,,,,,,,,,,,,,,,,,,,,,,914.2161745452322,None,,,917.2324845469557,None,1.692063492063492,0.8839301411062479,917.2324845469557,None,,,,,,,915.2161008273251,None,915.399428314995,915.4160596071742,,,,,,,68,001,2023_Apr_12_1155,SpeechDraft1Carolyn_lessNoise_PlusLocalization,2021.2.3,59.984711337893685,
,,,,,,,,farRight,19.1,4,ch1Sound_localizationTask.wav,19.1,"(1237, 878)","(277,-202)",285,-338,,,,,,,,,,,,,0,3,3,6,,,,,,,,,,,,,,,,,,,,,,,,,,,,,,,,,,,,,,,,918.1328308018856,None,,,921.1490527070127,None,1.6693121693121693,0.8156849900260568,921.1490527070127,None,,,,,,,919.1327726910822,None,919.3162067900412,919.3328089639544,,,,,,,68,001,2023_Apr_12_1155,SpeechDraft1Carolyn_lessNoise_PlusLocalization,2021.2.3,59.984711337893685,
,,,,,,,,farLeft,-19.1,5,ch1Sound_localizationTask.wav,-19.1,"(667, 878)","(-293,-202)",-285,-338,,,,,,,,,,,,,0,4,4,0,,,,,,,,,,,,,,,,,,,,,,,,,,,,,,,,,,,,,,,,921.9662509681657,None,,,924.9824839471839,None,1.3317460317460317,0.6154312221333385,924.9824839471839,None,,,,,,,922.966058052145,None,923.1494514131919,923.1661050510593,,,,,,,68,001,2023_Apr_12_1155,SpeechDraft1Carolyn_lessNoise_PlusLocalization,2021.2.3,59.984711337893685,
,,,,,,,,farLeft,-19.1,5,ch1Sound_localizationTask.wav,-19.1,"(667, 878)","(-293,-202)",-285,-338,,,,,,,,,,,,,0,5,5,0,,,,,,,,,,,,,,,,,,,,,,,,,,,,,,,,,,,,,,,,925.5994724710472,None,,,928.6159620000981,None,1.3391534391534392,0.6166579681448638,928.6159620000981,None,,,,,,,926.5994863482192,None,926.782774547115,926.799496429041,,,,,,,68,001,2023_Apr_12_1155,SpeechDraft1Carolyn_lessNoise_PlusLocalization,2021.2.3,59.984711337893685,
,,,,,,,,nearRight,6.5,0,ch1Sound_localizationTask.wav,6.5,"(1047, 878)","(87, -202)",95,-338,,,,,,,,,,,,,0,6,6,4,,,,,,,,,,,,,,,,,,,,,,,,,,,,,,,,,,,,,,,,929.2336085289717,None,,,932.2491956083104,None,1.5687830687830688,0.8327301917597651,932.2491956083104,None,,,,,,,930.2327761650085,None,930.4160507880151,930.4327807640657,,,,,,,68,001,2023_Apr_12_1155,SpeechDraft1Carolyn_lessNoise_PlusLocalization,2021.2.3,59.984711337893685,
,,,,,,,,farLeft,-19.1,5,ch1Sound_localizationTask.wav,-19.1,"(667, 878)","(-293,-202)",-285,-338,,,,,,,,,,,,,1,0,7,0,,,,,,,,,,,,,,,,,,,,,,,,,,,,,,,,,,,,,,,,933.0831579971127,None,,,936.0992076252587,None,1.3264550264550263,0.6506038960069418,936.0992076252587,None,,,,,,,934.0827901540324,None,934.2663367469795,934.2829567682929,,,,,,,68,001,2023_Apr_12_1155,SpeechDraft1Carolyn_lessNoise_PlusLocalization,2021.2.3,59.984711337893685,
,,,,,,,,nearRight,6.5,0,ch1Sound_localizationTask.wav,6.5,"(1047, 878)","(87, -202)",95,-338,,,,,,,,,,,,,1,1,8,4,,,,,,,,,,,,,,,,,,,,,,,,,,,,,,,,,,,,,,,,936.7661603032611,None,,,939.7824422759004,None,1.5587301587301587,0.7990209083072841,939.7824422759004,None,,,,,,,937.7661683871411,None,937.9495225991122,937.9661400420591,,,,,,,68,001,2023_Apr_12_1155,SpeechDraft1Carolyn_lessNoise_PlusLocalization,2021.2.3,59.984711337893685,
,,,,,,,,center,0.0,6,ch1Sound_localizationTask.wav,0.0,"(952, 878)","(-8,-202)",0,-338,,,,,,,,,,,,,1,2,9,3,,,,,,,,,,,,,,,,,,,,,,,,,,,,,,,,,,,,,,,,940.5829793382436,None,,,943.5991714880802,None,1.5084656084656085,0.6663398761302233,943.5991714880802,None,,,,,,,941.5827804561704,None,941.7661637798883,941.7827529502101,,,,,,,68,001,2023_Apr_12_1155,SpeechDraft1Carolyn_lessNoise_PlusLocalization,2021.2.3,59.984711337893685,
,,,,,,,,midRight,13.0,3,ch1Sound_localizationTask.wav,13.0,"(1142, 878)","(182, -202)",190,-338,,,,,,,,,,,,,1,3,10,5,,,,,,,,,,,,,,,,,,,,,,,,,,,,,,,,,,,,,,,,944.2663132362068,None,,,947.2825019541197,None,1.6201058201058203,0.7313941540196538,947.2825019541197,None,,,,,,,945.2661479739472,None,945.4494518642314,945.4661483359523,,,,,,,68,001,2023_Apr_12_1155,SpeechDraft1Carolyn_lessNoise_PlusLocalization,2021.2.3,59.984711337893685,
,,,,,,,,nearRight,6.5,0,ch1Sound_localizationTask.wav,6.5,"(1047, 878)","(87, -202)",95,-338,,,,,,,,,,,,,1,4,11,4,,,,,,,,,,,,,,,,,,,,,,,,,,,,,,,,,,,,,,,,948.0162386721931,None,,,951.0326437759213,None,1.5724867724867724,0.6821875991299748,951.0326437759213,None,,,,,,,949.0162530429661,None,949.1995249562897,949.2161784390919,,,,,,,68,001,2023_Apr_12_1155,SpeechDraft1Carolyn_lessNoise_PlusLocalization,2021.2.3,59.984711337893685,
,,,,,,,,midLeft,-13.0,2,ch1Sound_localizationTask.wav,-13.0,"(762, 878)","(-198,-202)",-190,-338,,,,,,,,,,,,,1,5,12,1,,,,,,,,,,,,,,,,,,,,,,,,,,,,,,,,,,,,,,,,951.7161633688956,None,,,954.7325809551403,None,1.3888888888888888,0.8321890509687364,954.7325809551403,None,,,,,,,952.7161075850017,None,952.8995533799753,952.9161318931729,,,,,,,68,001,2023_Apr_12_1155,SpeechDraft1Carolyn_lessNoise_PlusLocalization,2021.2.3,59.984711337893685,
,,,,,,,,center,0.0,6,ch1Sound_localizationTask.wav,0.0,"(952, 878)","(-8,-202)",0,-338,,,,,,,,,,,,,1,6,13,3,,,,,,,,,,,,,,,,,,,,,,,,,,,,,,,,,,,,,,,,955.5661775581539,None,,,958.5827673128806,None,1.5132275132275133,0.699505627155304,958.5827673128806,None,,,,,,,956.566141072195,None,956.7495198450051,956.7660678131506,,,,,,,68,001,2023_Apr_12_1155,SpeechDraft1Carolyn_lessNoise_PlusLocalization,2021.2.3,59.984711337893685,
,,,,,,,,nearRight,6.5,0,ch1Sound_localizationTask.wav,6.5,"(1047, 878)","(87, -202)",95,-338,,,,,,,,,,,,,2,0,14,4,,,,,,,,,,,,,,,,,,,,,,,,,,,,,,,,,,,,,,,,959.2834400502034,None,,,962.2991447900422,None,1.5666666666666667,0.9156717709265649,962.2991447900422,None,,,,,,,960.282838343177,None,960.4661931549199,960.4828557702713,,,,,,,68,001,2023_Apr_12_1155,SpeechDraft1Carolyn_lessNoise_PlusLocalization,2021.2.3,59.984711337893685,
,,,,,,,,midRight,13.0,3,ch1Sound_localizationTask.wav,13.0,"(1142, 878)","(182, -202)",190,-338,,,,,,,,,,,,,2,1,15,5,,,,,,,,,,,,,,,,,,,,,,,,,,,,,,,,,,,,,,,,963.2163449730724,None,,,966.2325029489584,None,1.6052910052910052,0.7818110939115286,966.2325029489584,None,,,,,,,964.2161531872116,None,964.399525616318,964.4161674152128,,,,,,,68,001,2023_Apr_12_1155,SpeechDraft1Carolyn_lessNoise_PlusLocalization,2021.2.3,59.984711337893685,
,,,,,,,,center,0.0,6,ch1Sound_localizationTask.wav,0.0,"(952, 878)","(-8,-202)",0,-338,,,,,,,,,,,,,2,2,16,3,,,,,,,,,,,,,,,,,,,,,,,,,,,,,,,,,,,,,,,,967.0163393132389,None,,,970.0326642352156,None,1.505820105820106,0.8333120699971914,970.0326642352156,None,,,,,,,968.0162120610476,None,968.1994923879392,968.2161882403307,,,,,,,68,001,2023_Apr_12_1155,SpeechDraft1Carolyn_lessNoise_PlusLocalization,2021.2.3,59.984711337893685,
,,,,,,,,nearLeft,-6.5,1,ch1Sound_localizationTask.wav,-6.5,"(857, 878)","(-103,-202)",-95,-338,,,,,,,,,,,,,2,3,17,2,,,,,,,,,,,,,,,,,,,,,,,,,,,,,,,,,,,,,,,,970.8668284462765,None,,,973.8825377631001,None,1.4296296296296296,0.5825423179194331,973.8825377631001,None,,,,,,,971.8661608351395,None,972.0494340620935,972.0663716760464,,,,,,,68,001,2023_Apr_12_1155,SpeechDraft1Carolyn_lessNoise_PlusLocalization,2021.2.3,59.984711337893685,
,,,,,,,,farRight,19.1,4,ch1Sound_localizationTask.wav,19.1,"(1237, 878)","(277,-202)",285,-338,,,,,,,,,,,,,2,4,18,6,,,,,,,,,,,,,,,,,,,,,,,,,,,,,,,,,,,,,,,,974.4666629820131,None,,,977.4826477440074,None,1.6666666666666667,0.5319889271631837,977.4826477440074,None,,,,,,,975.4661650802009,None,975.6495318529196,975.666184861213,,,,,,,68,001,2023_Apr_12_1155,SpeechDraft1Carolyn_lessNoise_PlusLocalization,2021.2.3,59.984711337893685,
,,,,,,,,farLeft,-19.1,5,ch1Sound_localizationTask.wav,-19.1,"(667, 878)","(-293,-202)",-285,-338,,,,,,,,,,,,,2,5,19,0,,,,,,,,,,,,,,,,,,,,,,,,,,,,,,,,,,,,,,,,978.0164785110392,None,,,981.0326241469011,None,1.3238095238095238,0.7654499327763915,981.0326241469011,None,,,,,,,979.0162707720883,None,979.1995830992237,979.2161740781739,,,,,,,68,001,2023_Apr_12_1155,SpeechDraft1Carolyn_lessNoise_PlusLocalization,2021.2.3,59.984711337893685,
,,,,,,,,midRight,13.0,3,ch1Sound_localizationTask.wav,13.0,"(1142, 878)","(182, -202)",190,-338,,,,,,,,,,,,,2,6,20,5,,,,,,,,,,,,,,,,,,,,,,,,,,,,,,,,,,,,,,,,981.7996625453234,None,,,984.8159364620224,None,1.6291005291005292,0.632877151016146,984.8159364620224,None,,,,,,,982.799535124097,None,982.9829211290926,982.9995257020928,,,,,,,68,001,2023_Apr_12_1155,SpeechDraft1Carolyn_lessNoise_PlusLocalization,2021.2.3,59.984711337893685,
,,,,,,,,nearRight,6.5,0,ch1Sound_localizationTask.wav,6.5,"(1047, 878)","(87, -202)",95,-338,,,,,,,,,,,,,3,0,21,4,,,,,,,,,,,,,,,,,,,,,,,,,,,,,,,,,,,,,,,,985.4508763370104,None,,,988.4825189751573,None,1.5656084656084657,0.5326750483363867,988.4825189751573,None,,,,,,,986.4663303671405,None,986.6496377019212,986.6663266080432,,,,,,,68,001,2023_Apr_12_1155,SpeechDraft1Carolyn_lessNoise_PlusLocalization,2021.2.3,59.984711337893685,
,,,,,,,,nearLeft,-6.5,1,ch1Sound_localizationTask.wav,-6.5,"(857, 878)","(-103,-202)",-95,-338,,,,,,,,,,,,,3,1,22,2,,,,,,,,,,,,,,,,,,,,,,,,,,,,,,,,,,,,,,,,989.0164541262202,None,,,992.0326310112141,None,1.438095238095238,0.833326973952353,992.0326310112141,None,,,,,,,990.0162664232776,None,990.1995773059316,990.2162263048813,,,,,,,68,001,2023_Apr_12_1155,SpeechDraft1Carolyn_lessNoise_PlusLocalization,2021.2.3,59.984711337893685,
,,,,,,,,farRight,19.1,4,ch1Sound_localizationTask.wav,19.1,"(1237, 878)","(277,-202)",285,-338,,,,,,,,,,,,,3,2,23,6,,,,,,,,,,,,,,,,,,,,,,,,,,,,,,,,,,,,,,,,992.8666582619771,None,,,995.882570845075,None,1.6899470899470899,0.6989544532261789,995.882570845075,None,,,,,,,993.8662430732511,None,994.0496637029573,994.0662135472521,,,,,,,68,001,2023_Apr_12_1155,SpeechDraft1Carolyn_lessNoise_PlusLocalization,2021.2.3,59.984711337893685,
,,,,,,,,nearLeft,-6.5,1,ch1Sound_localizationTask.wav,-6.5,"(857, 878)","(-103,-202)",-95,-338,,,,,,,,,,,,,3,3,24,2,,,,,,,,,,,,,,,,,,,,,,,,,,,,,,,,,,,,,,,,996.5838572951034,None,,,999.5993970548734,None,1.4455026455026454,0.6490684151649475,999.5993970548734,None,,,,,,,997.5830338341184,None,997.7663186341524,997.7829566462897,,,,,,,68,001,2023_Apr_12_1155,SpeechDraft1Carolyn_lessNoise_PlusLocalization,2021.2.3,59.984711337893685,
,,,,,,,,midLeft,-13.0,2,ch1Sound_localizationTask.wav,-13.0,"(762, 878)","(-198,-202)",-190,-338,,,,,,,,,,,,,3,4,25,1,,,,,,,,,,,,,,,,,,,,,,,,,,,,,,,,,,,,,,,,1000.2495884699747,None,,,1003.2659536339343,None,1.367195767195767,0.582505420781672,1003.2659536339343,None,,,,,,,1001.2497295229696,None,1001.4329282110557,1001.4495526361279,,,,,,,68,001,2023_Apr_12_1155,SpeechDraft1Carolyn_lessNoise_PlusLocalization,2021.2.3,59.984711337893685,
,,,,,,,,midLeft,-13.0,2,ch1Sound_localizationTask.wav,-13.0,"(762, 878)","(-198,-202)",-190,-338,,,,,,,,,,,,,3,5,26,1,,,,,,,,,,,,,,,,,,,,,,,,,,,,,,,,,,,,,,,,1003.8500173622742,None,,,1006.8660251009278,None,1.3851851851851853,0.849443803075701,1006.8660251009278,None,,,,,,,1004.8495736699551,None,1005.0328937340528,1005.0498225833289,,,,,,,68,001,2023_Apr_12_1155,SpeechDraft1Carolyn_lessNoise_PlusLocalization,2021.2.3,59.984711337893685,
,,,,,,,,farRight,19.1,4,ch1Sound_localizationTask.wav,19.1,"(1237, 878)","(277,-202)",285,-338,,,,,,,,,,,,,3,6,27,6,,,,,,,,,,,,,,,,,,,,,,,,,,,,,,,,,,,,,,,,1007.7166357510723,None,,,1010.7327153482474,None,1.7037037037037037,0.882933596149087,1010.7327153482474,None,,,,,,,1008.7162548173219,None,1008.899637720082,1008.9163771602325,,,,,,,68,001,2023_Apr_12_1155,SpeechDraft1Carolyn_lessNoise_PlusLocalization,2021.2.3,59.984711337893685,
,,,,,,,,nearRight,6.5,0,ch1Sound_localizationTask.wav,6.5,"(1047, 878)","(87, -202)",95,-338,,,,,,,,,,,,,4,0,28,4,,,,,,,,,,,,,,,,,,,,,,,,,,,,,,,,,,,,,,,,1011.6330357571132,None,,,1014.6491998583078,None,1.5666666666666667,0.7322956449352205,1014.6491998583078,None,,,,,,,1012.6329461461864,None,1012.8161436230876,1012.8329891748726,,,,,,,68,001,2023_Apr_12_1155,SpeechDraft1Carolyn_lessNoise_PlusLocalization,2021.2.3,59.984711337893685,
,,,,,,,,farLeft,-19.1,5,ch1Sound_localizationTask.wav,-19.1,"(667, 878)","(-293,-202)",-285,-338,,,,,,,,,,,,,4,1,29,0,,,,,,,,,,,,,,,,,,,,,,,,,,,,,,,,,,,,,,,,1015.3833704069257,None,,,1018.3993194252253,None,1.3253968253968254,0.8326844722032547,1018.3993194252253,None,,,,,,,1016.3829103251919,None,1016.56627668906,1016.5828323960304,,,,,,,68,001,2023_Apr_12_1155,SpeechDraft1Carolyn_lessNoise_PlusLocalization,2021.2.3,59.984711337893685,
,,,,,,,,midLeft,-13.0,2,ch1Sound_localizationTask.wav,-13.0,"(762, 878)","(-198,-202)",-190,-338,,,,,,,,,,,,,4,2,30,1,,,,,,,,,,,,,,,,,,,,,,,,,,,,,,,,,,,,,,,,1019.2497462830506,None,,,1022.2659887592308,None,1.398941798941799,0.6995249628089368,1022.2659887592308,None,,,,,,,1020.2497736639343,None,1020.4329711352475,1020.4495561029762,,,,,,,68,001,2023_Apr_12_1155,SpeechDraft1Carolyn_lessNoise_PlusLocalization,2021.2.3,59.984711337893685,
,,,,,,,,midLeft,-13.0,2,ch1Sound_localizationTask.wav,-13.0,"(762, 878)","(-198,-202)",-190,-338,,,,,,,,,,,,,4,3,31,1,,,,,,,,,,,,,,,,,,,,,,,,,,,,,,,,,,,,,,,,1022.9665422672406,None,,,1025.9826733712107,None,1.384126984126984,0.5662259333766997,1025.9826733712107,None,,,,,,,1023.9662849162705,None,1024.1495614629239,1024.1662704222836,,,,,,,68,001,2023_Apr_12_1155,SpeechDraft1Carolyn_lessNoise_PlusLocalization,2021.2.3,59.984711337893685,
,,,,,,,,midRight,13.0,3,ch1Sound_localizationTask.wav,13.0,"(1142, 878)","(182, -202)",190,-338,,,,,,,,,,,,,4,4,32,5,,,,,,,,,,,,,,,,,,,,,,,,,,,,,,,,,,,,,,,,1026.549964927137,None,,,1029.5660240910947,None,1.6216931216931219,0.9163285149261355,1029.5660240910947,None,,,,,,,1027.5497241429985,None,1027.732876129914,1027.7495484310202,,,,,,,68,001,2023_Apr_12_1155,SpeechDraft1Carolyn_lessNoise_PlusLocalization,2021.2.3,59.984711337893685,
,,,,,,,,midLeft,-13.0,2,ch1Sound_localizationTask.wav,-13.0,"(762, 878)","(-198,-202)",-190,-338,,,,,,,,,,,,,4,5,33,1,,,,,,,,,,,,,,,,,,,,,,,,,,,,,,,,,,,,,,,,1030.4834815221839,None,,,1033.4993860572577,None,1.4047619047619047,0.865672490093857,1033.4993860572577,None,,,,,,,1031.4829047992826,None,1031.666243368294,1031.6829646751285,,,,,,,68,001,2023_Apr_12_1155,SpeechDraft1Carolyn_lessNoise_PlusLocalization,2021.2.3,59.984711337893685,
,,,,,,,,farLeft,-19.1,5,ch1Sound_localizationTask.wav,-19.1,"(667, 878)","(-293,-202)",-285,-338,,,,,,,,,,,,,4,6,34,0,,,,,,,,,,,,,,,,,,,,,,,,,,,,,,,,,,,,,,,,1034.3665093891323,None,,,1037.3826955799013,None,1.307936507936508,0.8818519599735737,1037.3826955799013,None,,,,,,,1035.3662412171252,None,1035.5496080410667,1035.5662544700317,,,,,,,68,001,2023_Apr_12_1155,SpeechDraft1Carolyn_lessNoise_PlusLocalization,2021.2.3,59.984711337893685,
,,,,,,,,midLeft,-13.0,2,ch1Sound_localizationTask.wav,-13.0,"(762, 878)","(-198,-202)",-190,-338,,,,,,,,,,,,,5,0,35,1,,,,,,,,,,,,,,,,,,,,,,,,,,,,,,,,,,,,,,,,1038.266851389315,None,,,1041.2826672699302,None,1.3846560846560847,0.5675306329503655,1041.2826672699302,None,,,,,,,1039.2662916718982,None,1039.4496534769423,1039.4663065252826,,,,,,,68,001,2023_Apr_12_1155,SpeechDraft1Carolyn_lessNoise_PlusLocalization,2021.2.3,59.984711337893685,
,,,,,,,,nearLeft,-6.5,1,ch1Sound_localizationTask.wav,-6.5,"(857, 878)","(-103,-202)",-95,-338,,,,,,,,,,,,,5,1,36,2,,,,,,,,,,,,,,,,,,,,,,,,,,,,,,,,,,,,,,,,1041.8662776169367,None,,,1044.8828269462101,None,1.462962962962963,0.5326312989927828,1044.8828269462101,None,,,,,,,1042.8662440739572,None,1043.0495456489734,1043.0662600318901,,,,,,,68,001,2023_Apr_12_1155,SpeechDraft1Carolyn_lessNoise_PlusLocalization,2021.2.3,59.984711337893685,
,,,,,,,,nearRight,6.5,0,ch1Sound_localizationTask.wav,6.5,"(1047, 878)","(87, -202)",95,-338,,,,,,,,,,,,,5,2,37,4,,,,,,,,,,,,,,,,,,,,,,,,,,,,,,,,,,,,,,,,1045.4170880028978,None,,,1048.4327013380826,None,1.5793650793650795,0.6988293584436178,1048.4327013380826,None,,,,,,,1046.416246958077,None,1046.5996138053015,1046.6162772132084,,,,,,,68,001,2023_Apr_12_1155,SpeechDraft1Carolyn_lessNoise_PlusLocalization,2021.2.3,59.984711337893685,
,,,,,,,,center,0.0,6,ch1Sound_localizationTask.wav,0.0,"(952, 878)","(-8,-202)",0,-338,,,,,,,,,,,,,5,3,38,3,,,,,,,,,,,,,,,,,,,,,,,,,,,,,,,,,,,,,,,,1049.1334028271958,None,,,1052.149438566994,None,1.5222222222222221,0.981999984011054,1052.149438566994,None,,,,,,,1050.133171520196,None,1050.3163341889158,1050.3330073528923,,,,,,,68,001,2023_Apr_12_1155,SpeechDraft1Carolyn_lessNoise_PlusLocalization,2021.2.3,59.984711337893685,
,,,,,,,,farLeft,-19.1,5,ch1Sound_localizationTask.wav,-19.1,"(667, 878)","(-293,-202)",-285,-338,,,,,,,,,,,,,5,4,39,0,,,,,,,,,,,,,,,,,,,,,,,,,,,,,,,,,,,,,,,,1053.1330027040094,None,,,1056.149400590919,None,1.291005291005291,0.8320659548044205,1056.149400590919,None,,,,,,,1054.1330208280124,None,1054.3164111492224,1054.332957671024,,,,,,,68,001,2023_Apr_12_1155,SpeechDraft1Carolyn_lessNoise_PlusLocalization,2021.2.3,59.984711337893685,
,,,,,,,,center,0.0,6,ch1Sound_localizationTask.wav,0.0,"(952, 878)","(-8,-202)",0,-338,,,,,,,,,,,,,5,5,40,3,,,,,,,,,,,,,,,,,,,,,,,,,,,,,,,,,,,,,,,,1056.9832792188972,None,,,1059.9993263483047,None,1.5142857142857142,0.7662429120391607,1059.9993263483047,None,,,,,,,1057.982959521003,None,1058.1663669142872,1058.1829474628903,,,,,,,68,001,2023_Apr_12_1155,SpeechDraft1Carolyn_lessNoise_PlusLocalization,2021.2.3,59.984711337893685,
,,,,,,,,midLeft,-13.0,2,ch1Sound_localizationTask.wav,-13.0,"(762, 878)","(-198,-202)",-190,-338,,,,,,,,,,,,,5,6,41,1,,,,,,,,,,,,,,,,,,,,,,,,,,,,,,,,,,,,,,,,1060.7665409073234,None,,,1063.7827246380039,None,1.3719576719576718,0.6997880367562175,1063.7827246380039,None,,,,,,,1061.7663710801862,None,1061.949765251018,1061.96626164997,,,,,,,68,001,2023_Apr_12_1155,SpeechDraft1Carolyn_lessNoise_PlusLocalization,2021.2.3,59.984711337893685,
,,,,,,,,center,0.0,6,ch1Sound_localizationTask.wav,0.0,"(952, 878)","(-8,-202)",0,-338,,,,,,,,,,,,,6,0,42,3,,,,,,,,,,,,,,,,,,,,,,,,,,,,,,,,,,,,,,,,1064.483954158146,None,,,1067.4994093780406,None,1.507936507936508,0.5157941118814051,1067.4994093780406,None,,,,,,,1065.4830094738863,None,1065.6662789322436,1065.6830829181708,,,,,,,68,001,2023_Apr_12_1155,SpeechDraft1Carolyn_lessNoise_PlusLocalization,2021.2.3,59.984711337893685,
,,,,,,,,midRight,13.0,3,ch1Sound_localizationTask.wav,13.0,"(1142, 878)","(182, -202)",190,-338,,,,,,,,,,,,,6,1,43,5,,,,,,,,,,,,,,,,,,,,,,,,,,,,,,,,,,,,,,,,1068.0167166432366,None,,,1071.0328745669685,None,1.637037037037037,0.7329726228490472,1071.0328745669685,None,,,,,,,1069.0163133889437,None,1069.1996504683048,1069.2163938093,,,,,,,68,001,2023_Apr_12_1155,SpeechDraft1Carolyn_lessNoise_PlusLocalization,2021.2.3,59.984711337893685,
,,,,,,,,nearRight,6.5,0,ch1Sound_localizationTask.wav,6.5,"(1047, 878)","(87, -202)",95,-338,,,,,,,,,,,,,6,2,44,4,,,,,,,,,,,,,,,,,,,,,,,,,,,,,,,,,,,,,,,,1071.7673435779288,None,,,1074.7994268722832,None,1.5645502645502645,0.7496000840328634,1074.7994268722832,None,,,,,,,1072.7829974819906,None,1072.9662642041221,1072.9828903488815,,,,,,,68,001,2023_Apr_12_1155,SpeechDraft1Carolyn_lessNoise_PlusLocalization,2021.2.3,59.984711337893685,
,,,,,,,,nearLeft,-6.5,1,ch1Sound_localizationTask.wav,-6.5,"(857, 878)","(-103,-202)",-95,-338,,,,,,,,,,,,,6,3,45,2,,,,,,,,,,,,,,,,,,,,,,,,,,,,,,,,,,,,,,,,1075.5500238980167,None,,,1078.566231295932,None,1.428042328042328,0.6828305218368769,1078.566231295932,None,,,,,,,1076.549668889027,None,1076.7331748399884,1076.7496794722974,,,,,,,68,001,2023_Apr_12_1155,SpeechDraft1Carolyn_lessNoise_PlusLocalization,2021.2.3,59.984711337893685,
,,,,,,,,nearLeft,-6.5,1,ch1Sound_localizationTask.wav,-6.5,"(857, 878)","(-103,-202)",-95,-338,,,,,,,,,,,,,6,4,46,2,,,,,,,,,,,,,,,,,,,,,,,,,,,,,,,,,,,,,,,,1079.250415918883,None,,,1082.2661151890643,None,1.4264550264550264,0.5321670258417726,1082.2661151890643,None,,,,,,,1080.249792760238,None,1080.433009729255,1080.4496965259314,,,,,,,68,001,2023_Apr_12_1155,SpeechDraft1Carolyn_lessNoise_PlusLocalization,2021.2.3,59.984711337893685,
,,,,,,,,center,0.0,6,ch1Sound_localizationTask.wav,0.0,"(952, 878)","(-8,-202)",0,-338,,,,,,,,,,,,,6,5,47,3,,,,,,,,,,,,,,,,,,,,,,,,,,,,,,,,,,,,,,,,1082.7998037040234,None,,,1085.8160568638705,None,1.5153439153439154,0.7343931258656085,1085.8160568638705,None,,,,,,,1083.7997880172916,None,1083.9830012652092,1083.9997564661317,,,,,,,68,001,2023_Apr_12_1155,SpeechDraft1Carolyn_lessNoise_PlusLocalization,2021.2.3,59.984711337893685,
,,,,,,,,midRight,13.0,3,ch1Sound_localizationTask.wav,13.0,"(1142, 878)","(182, -202)",190,-338,,,,,,,,,,,,,6,6,48,5,,,,,,,,,,,,,,,,,,,,,,,,,,,,,,,,,,,,,,,,1086.5662750182673,None,,,1089.5827318141237,None,1.6412698412698412,0.8148966990411282,1089.5827318141237,None,,,,,,,1087.566295274999,None,1087.7498322753236,1087.7663167603314,,,,,,,68,001,2023_Apr_12_1155,SpeechDraft1Carolyn_lessNoise_PlusLocalization,2021.2.3,59.984711337893685,
,,,,,,,,midRight,13.0,3,ch1Sound_localizationTask.wav,13.0,"(1142, 878)","(182, -202)",190,-338,,,,,,,,,,,,,7,0,49,5,,,,,,,,,,,,,,,,,,,,,,,,,,,,,,,,,,,,,,,,1090.3996879230253,None,,,1093.416042487137,None,1.6232804232804234,0.5153622929938138,1093.416042487137,None,,,,,,,1091.3997004339471,None,1091.5831597759388,1091.599637182895,,,,,,,68,001,2023_Apr_12_1155,SpeechDraft1Carolyn_lessNoise_PlusLocalization,2021.2.3,59.984711337893685,
,,,,,,,,farRight,19.1,4,ch1Sound_localizationTask.wav,19.1,"(1237, 878)","(277,-202)",285,-338,,,,,,,,,,,,,7,1,50,6,,,,,,,,,,,,,,,,,,,,,,,,,,,,,,,,,,,,,,,,1093.9330414612778,None,,,1096.9494271972217,None,1.6814814814814816,0.5327574270777404,1096.9494271972217,None,,,,,,,1094.9329184349626,None,1095.1164439059794,1095.1330015589483,,,,,,,68,001,2023_Apr_12_1155,SpeechDraft1Carolyn_lessNoise_PlusLocalization,2021.2.3,59.984711337893685,
,,,,,,,,farLeft,-19.1,5,ch1Sound_localizationTask.wav,-19.1,"(667, 878)","(-293,-202)",-285,-338,,,,,,,,,,,,,7,2,51,0,,,,,,,,,,,,,,,,,,,,,,,,,,,,,,,,,,,,,,,,1097.483640433289,None,,,1100.499499368947,None,1.2947089947089947,1.3829642431810498,1100.499499368947,None,,,,,,,1098.483078674879,None,1098.666352875065,1098.6829275330529,,,,,,,68,001,2023_Apr_12_1155,SpeechDraft1Carolyn_lessNoise_PlusLocalization,2021.2.3,59.984711337893685,
,,,,,,,,farRight,19.1,4,ch1Sound_localizationTask.wav,19.1,"(1237, 878)","(277,-202)",285,-338,,,,,,,,,,,,,7,3,52,6,,,,,,,,,,,,,,,,,,,,,,,,,,,,,,,,,,,,,,,,1101.883672223892,None,,,1104.8994475370273,None,1.7121693121693122,0.7167070871219039,1104.8994475370273,None,,,,,,,1102.8830884979106,None,1103.0664133331738,1103.0830571441911,,,,,,,68,001,2023_Apr_12_1155,SpeechDraft1Carolyn_lessNoise_PlusLocalization,2021.2.3,59.984711337893685,
,,,,,,,,midRight,13.0,3,ch1Sound_localizationTask.wav,13.0,"(1142, 878)","(182, -202)",190,-338,,,,,,,,,,,,,7,4,53,5,,,,,,,,,,,,,,,,,,,,,,,,,,,,,,,,,,,,,,,,1105.633158697281,None,,,1108.6494718729518,None,1.6137566137566137,0.8831008332781494,1108.6494718729518,None,,,,,,,1106.6330383569002,None,1106.8164075650275,1106.8331025033258,,,,,,,68,001,2023_Apr_12_1155,SpeechDraft1Carolyn_lessNoise_PlusLocalization,2021.2.3,59.984711337893685,
,,,,,,,,farRight,19.1,4,ch1Sound_localizationTask.wav,19.1,"(1237, 878)","(277,-202)",285,-338,,,,,,,,,,,,,7,5,54,6,,,,,,,,,,,,,,,,,,,,,,,,,,,,,,,,,,,,,,,,1109.5333069763146,None,,,1112.5494360951707,None,1.6984126984126984,1.2164520928636193,1112.5494360951707,None,,,,,,,1110.5329862223007,None,1110.7164023378864,1110.7330824411474,,,,,,,68,001,2023_Apr_12_1155,SpeechDraft1Carolyn_lessNoise_PlusLocalization,2021.2.3,59.984711337893685,
,,,,,,,,nearLeft,-6.5,1,ch1Sound_localizationTask.wav,-6.5,"(857, 878)","(-103,-202)",-95,-338,,,,,,,,,,,,,7,6,55,2,,,,,,,,,,,,,,,,,,,,,,,,,,,,,,,,,,,,,,,,1113.7670230269432,None,,,1116.7828409532085,None,1.3984126984126983,1.000934399664402,1116.7828409532085,None,,,,,,,1114.7663467689417,None,1114.9499354329892,1114.9663282362744,,,,,,,68,001,2023_Apr_12_1155,SpeechDraft1Carolyn_lessNoise_PlusLocalization,2021.2.3,59.984711337893685,
,,,,,,,,,,,,,,,,,,,,,,,,,,,,,,,,,,,,,,,,,,,,,,,,,,,,,,,,,,,,,,,,,,,,,,,,,,,,,,,,,,,,,,,,,,,,1117.7997051901184,None,c,394.1370224421844,1118.7831210610457,None,68,001,2023_Apr_12_1155,SpeechDraft1Carolyn_lessNoise_PlusLocalization,2021.2.3,59.984711337893685,
