Audio_Only_Files,Video_Files,Original_Word_List,noiseLevelCode,conditionCodes,noiseLevelFile1,noiseLevelFile2,InstrTextVar,targetSpeakerName,targetSpeakerEccen,targetSpkrChannel,targetSpkrSound,targetVisualDegrees,visStimLoc,visStimLoc2,visStimW,visStimH,practiceTrials.thisRepN,practiceTrials.thisTrialN,practiceTrials.thisN,practiceTrials.thisIndex,trials.thisRepN,trials.thisTrialN,trials.thisN,trials.thisIndex,audLocalLoop.thisRepN,audLocalLoop.thisTrialN,audLocalLoop.thisN,audLocalLoop.thisIndex,visualLocalLoop.thisRepN,visualLocalLoop.thisTrialN,visualLocalLoop.thisN,visualLocalLoop.thisIndex,letsGoAlready.keys,letsGoAlready.rt,letsGoAlready.started,letsGoAlready.stopped,text_2.started,text_2.stopped,text_3.started,text_3.stopped,key_resp_2.keys,key_resp_2.rt,key_resp_2.started,key_resp_2.stopped,text_5.started,text_5.stopped,fixCross.started,fixCross.stopped,fixCross2.started,fixCross2.stopped,answerPrompt.started,answerPrompt.stopped,getAnswer.text,getAnswer.started,getAnswer.stopped,goToNext.keys,goToNext.rt,goToNext.started,goToNext.stopped,stretchBreakTxrt.started,stretchBreakTxrt.stopped,key_resp_3.keys,key_resp_3.rt,key_resp_3.started,key_resp_3.stopped,letsGoLocal.keys,letsGoLocal.rt,letsGoLocal.started,letsGoLocal.stopped,text_4.started,text_4.stopped,prepFixTxt.started,prepFixTxt.stopped,prepFixTxt_2.started,prepFixTxt_2.stopped,respPromptLocal.started,respPromptLocal.stopped,slider.response,slider.rt,slider.started,slider.stopped,letsGoLocal_2.keys,letsGoLocal_2.rt,letsGoLocal_2.started,letsGoLocal_2.stopped,text_7.started,text_7.stopped,prepFixTxt_3.started,prepFixTxt_3.stopped,grating.started,grating.stopped,exitTxt.started,exitTxt.stopped,key_resp.keys,key_resp.rt,key_resp.started,key_resp.stopped,participant,session,date,expName,psychopyVersion,frameRate,
,,,,,,,,,,,,,,,,,,,,,,,,,,,,,,,,,space,36.31585282785818,18.465904786717147,None,,,,,,,,,,,,,,,,,,,,,,,,,,,,,,,,,,,,,,,,,,,,,,,,,,,,,,,,,,,,,,69,001,2023_Apr_13_1159,SpeechDraft1Carolyn_lessNoise_PlusLocalization,2021.2.3,59.982238027773235,
,,,,,,,,,,,,,,,,,,,,,,,,,,,,,,,,,,,,,18.465904786717147,None,54.89978943159804,None,space,7.979234796948731,55.08238834189251,None,,,,,,,,,,,,,,,,,,,,,,,,,,,,,,,,,,,,,,,,,,,,,,,,,,,,,,69,001,2023_Apr_13_1159,SpeechDraft1Carolyn_lessNoise_PlusLocalization,2021.2.3,59.982238027773235,
ash.wav,ash.mpg,ash,1,A,Pink_Noise_1_1.wav,Pink_Noise_1_2.wav,"This is an example of an

AUDIO trial",,,,,,,,,,0,0,0,0,,,,,,,,,,,,,,,,,,,,,,,,,63.11580793187022,None,64.09911586670205,None,67.41574985999614,None,68.79934301692992,None,esh,68.79934301692992,None,return,3.7311760750599205,68.8824729276821,None,,,,,,,,,,,,,,,,,,,,,,,,,,,,,,,,,,,,,,,69,001,2023_Apr_13_1159,SpeechDraft1Carolyn_lessNoise_PlusLocalization,2021.2.3,59.982238027773235,
ash.wav,ash.mpg,ash,1,AV,Pink_Noise_1_1.wav,Pink_Noise_1_2.wav,"This is an example of an

AUDIO + VIDEO  trial",,,,,,,,,,0,1,1,1,,,,,,,,,,,,,,,,,,,,,,,,,72.64899979671463,None,73.64926052093506,None,75.14904614770785,None,76.5326834116131,None,"esh
",76.5326834116131,None,return,3.6697159591130912,76.6159141487442,None,,,,,,,,,,,,,,,,,,,,,,,,,,,,,,,,,,,,,,,69,001,2023_Apr_13_1159,SpeechDraft1Carolyn_lessNoise_PlusLocalization,2021.2.3,59.982238027773235,
,,,,,,,,,,,,,,,,,,,,,,,,,,,,,,,,,,,,,,,,,,,,,,,,,,,,,,,,,,,,80.33221870474517,None,space,10.545636473223567,80.5159816336818,None,,,,,,,,,,,,,,,,,,,,,,,,,,,,,,,,,69,001,2023_Apr_13_1159,SpeechDraft1Carolyn_lessNoise_PlusLocalization,2021.2.3,59.982238027773235,
bloom.wav,bloom.mpg,bloom,1,A,Pink_Noise_1_1.wav,Pink_Noise_1_2.wav,,,,,,,,,,,,,,,0,0,0,6,,,,,,,,,,,,,,,,,,,,,,,91.11552024167031,None,92.5988872568123,None,93.98259389866143,None,blue,93.98259389866143,None,return,1.7719628447666764,94.065917333588,None,,,,,,,,,,,,,,,,,,,,,,,,,,,,,,,,,,,,,,,69,001,2023_Apr_13_1159,SpeechDraft1Carolyn_lessNoise_PlusLocalization,2021.2.3,59.982238027773235,
grave.wav,grave.mpg,grave,3,A,Pink_Noise_3_1.wav,Pink_Noise_3_2.wav,,,,,,,,,,,,,,,0,1,1,12,,,,,,,,,,,,,,,,,,,,,,,95.8660491858609,None,97.36561147077009,None,98.74923145584762,None,gray,98.74923145584762,None,return,2.749071452766657,98.8326437138021,None,,,,,,,,,,,,,,,,,,,,,,,,,,,,,,,,,,,,,,,69,001,2023_Apr_13_1159,SpeechDraft1Carolyn_lessNoise_PlusLocalization,2021.2.3,59.982238027773235,
blot.wav,blot.mpg,blot,1,AV,Pink_Noise_1_1.wav,Pink_Noise_1_2.wav,,,,,,,,,,,,,,,0,2,2,103,,,,,,,,,,,,,,,,,,,,,,,101.59932795073837,None,103.09891710802913,None,104.48258259799331,None,blot,104.48258259799331,None,return,2.607768926769495,104.56594992661849,None,,,,,,,,,,,,,,,,,,,,,,,,,,,,,,,,,,,,,,,69,001,2023_Apr_13_1159,SpeechDraft1Carolyn_lessNoise_PlusLocalization,2021.2.3,59.982238027773235,
flirt.wav,flirt.mpg,flirt,3,A,Pink_Noise_3_1.wav,Pink_Noise_3_2.wav,,,,,,,,,,,,,,,0,3,3,11,,,,,,,,,,,,,,,,,,,,,,,107.19915064563975,None,108.6988919340074,None,110.08262952184305,None,grit,110.08262952184305,None,return,3.279902083799243,110.16583812562749,None,,,,,,,,,,,,,,,,,,,,,,,,,,,,,,,,,,,,,,,69,001,2023_Apr_13_1159,SpeechDraft1Carolyn_lessNoise_PlusLocalization,2021.2.3,59.982238027773235,
ghost.wav,ghost.mpg,ghost,2,AV,Pink_Noise_2_1.wav,Pink_Noise_2_2.wav,,,,,,,,,,,,,,,0,4,4,96,,,,,,,,,,,,,,,,,,,,,,,113.46589133283123,None,114.96556387469172,None,116.3493716949597,None,ghost,116.3493716949597,None,return,1.4209756627678871,116.43267863895744,None,,,,,,,,,,,,,,,,,,,,,,,,,,,,,,,,,,,,,,,69,001,2023_Apr_13_1159,SpeechDraft1Carolyn_lessNoise_PlusLocalization,2021.2.3,59.982238027773235,
dog.wav,dog.mpg,dog,6,AV,Pink_Noise_6_1.wav,Pink_Noise_6_2.wav,,,,,,,,,,,,,,,0,5,5,70,,,,,,,,,,,,,,,,,,,,,,,117.88250726973638,None,119.38227838696912,None,120.76602395903319,None,"jon
",120.76602395903319,None,return,3.2842253488488495,120.84942449396476,None,,,,,,,,,,,,,,,,,,,,,,,,,,,,,,,,,,,,,,,69,001,2023_Apr_13_1159,SpeechDraft1Carolyn_lessNoise_PlusLocalization,2021.2.3,59.982238027773235,
vest.wav,vest.mpg,vest,4,AV,Pink_Noise_4_1.wav,Pink_Noise_4_2.wav,,,,,,,,,,,,,,,0,6,6,90,,,,,,,,,,,,,,,,,,,,,,,124.16591614764184,None,125.66571864672005,None,127.04918809700757,None,"vest
",127.04918809700757,None,return,2.6170380176045,127.13259717589244,None,,,,,,,,,,,,,,,,,,,,,,,,,,,,,,,,,,,,,,,69,001,2023_Apr_13_1159,SpeechDraft1Carolyn_lessNoise_PlusLocalization,2021.2.3,59.982238027773235,
chunk.wav,chunk.mpg,chunk,6,A,Pink_Noise_6_1.wav,Pink_Noise_6_2.wav,,,,,,,,,,,,,,,0,7,7,10,,,,,,,,,,,,,,,,,,,,,,,129.7825909089297,None,131.28233600361273,None,132.66604592371732,None,jen,132.66604592371732,None,return,4.6724690878763795,132.74915363499895,None,,,,,,,,,,,,,,,,,,,,,,,,,,,,,,,,,,,,,,,69,001,2023_Apr_13_1159,SpeechDraft1Carolyn_lessNoise_PlusLocalization,2021.2.3,59.982238027773235,
fix.wav,fix.mpg,fix,6,A,Pink_Noise_6_1.wav,Pink_Noise_6_2.wav,,,,,,,,,,,,,,,0,8,8,41,,,,,,,,,,,,,,,,,,,,,,,137.44956431398168,None,138.95047686295584,None,140.33342822780833,None,"miss
",140.33342822780833,None,return,2.0534935421310365,140.41613534092903,None,,,,,,,,,,,,,,,,,,,,,,,,,,,,,,,,,,,,,,,69,001,2023_Apr_13_1159,SpeechDraft1Carolyn_lessNoise_PlusLocalization,2021.2.3,59.982238027773235,
chief.wav,chief.mpg,chief,2,AV,Pink_Noise_2_1.wav,Pink_Noise_2_2.wav,,,,,,,,,,,,,,,0,9,9,65,,,,,,,,,,,,,,,,,,,,,,,142.49973920267075,None,144.0013312967494,None,145.38272873079404,None,chief,145.38272873079404,None,return,2.2995335082523525,145.46616790769622,None,,,,,,,,,,,,,,,,,,,,,,,,,,,,,,,,,,,,,,,69,001,2023_Apr_13_1159,SpeechDraft1Carolyn_lessNoise_PlusLocalization,2021.2.3,59.982238027773235,
drop.wav,drop.mpg,drop,6,AV,Pink_Noise_6_1.wav,Pink_Noise_6_2.wav,,,,,,,,,,,,,,,0,10,10,76,,,,,,,,,,,,,,,,,,,,,,,147.78294614469633,None,149.29909418476745,None,150.68284835061058,None,drop,150.68284835061058,None,return,2.207650030963123,150.76611625682563,None,,,,,,,,,,,,,,,,,,,,,,,,,,,,,,,,,,,,,,,69,001,2023_Apr_13_1159,SpeechDraft1Carolyn_lessNoise_PlusLocalization,2021.2.3,59.982238027773235,
pike.wav,pike.mpg,pike,4,A,Pink_Noise_4_1.wav,Pink_Noise_4_2.wav,,,,,,,,,,,,,,,0,11,11,44,,,,,,,,,,,,,,,,,,,,,,,152.99930604267865,None,154.4991058516316,None,155.88287396496162,None,pipe,155.88287396496162,None,return,1.6557285939343274,155.96602742699906,None,,,,,,,,,,,,,,,,,,,,,,,,,,,,,,,,,,,,,,,69,001,2023_Apr_13_1159,SpeechDraft1Carolyn_lessNoise_PlusLocalization,2021.2.3,59.982238027773235,
crawl.wav,crawl.mpg,crawl,5,AV,Pink_Noise_5_1.wav,Pink_Noise_5_2.wav,,,,,,,,,,,,,,,0,12,12,64,,,,,,,,,,,,,,,,,,,,,,,157.6494577745907,None,159.14922179095447,None,160.53274925798178,None,crawl,160.53274925798178,None,return,4.709530110936612,160.61605447391048,None,,,,,,,,,,,,,,,,,,,,,,,,,,,,,,,,,,,,,,,69,001,2023_Apr_13_1159,SpeechDraft1Carolyn_lessNoise_PlusLocalization,2021.2.3,59.982238027773235,
flu.wav,flu.mpg,flu,3,A,Pink_Noise_3_1.wav,Pink_Noise_3_2.wav,,,,,,,,,,,,,,,0,13,13,45,,,,,,,,,,,,,,,,,,,,,,,165.34944517770782,None,166.84892656374723,None,168.23263022396713,None,swim,168.23263022396713,None,return,2.057544024195522,168.31621417496353,None,,,,,,,,,,,,,,,,,,,,,,,,,,,,,,,,,,,,,,,69,001,2023_Apr_13_1159,SpeechDraft1Carolyn_lessNoise_PlusLocalization,2021.2.3,59.982238027773235,
cell.wav,cell.mpg,cell,4,A,Pink_Noise_4_1.wav,Pink_Noise_4_2.wav,,,,,,,,,,,,,,,0,14,14,30,,,,,,,,,,,,,,,,,,,,,,,170.3993518827483,None,171.89891104958951,None,173.28284932672977,None,south,173.28284932672977,None,return,2.863681860268116,173.3660700218752,None,,,,,,,,,,,,,,,,,,,,,,,,,,,,,,,,,,,,,,,69,001,2023_Apr_13_1159,SpeechDraft1Carolyn_lessNoise_PlusLocalization,2021.2.3,59.982238027773235,
bridge.wav,bridge.mpg,bridge,1,AV,Pink_Noise_1_1.wav,Pink_Noise_1_2.wav,,,,,,,,,,,,,,,0,15,15,67,,,,,,,,,,,,,,,,,,,,,,,176.24937386298552,None,177.74910653894767,None,179.1328521789983,None,bridge,179.1328521789983,None,return,2.14970533689484,179.21607391396537,None,,,,,,,,,,,,,,,,,,,,,,,,,,,,,,,,,,,,,,,69,001,2023_Apr_13_1159,SpeechDraft1Carolyn_lessNoise_PlusLocalization,2021.2.3,59.982238027773235,
bar.wav,bar.mpg,bar,3,A,Pink_Noise_3_1.wav,Pink_Noise_3_2.wav,,,,,,,,,,,,,,,0,16,16,38,,,,,,,,,,,,,,,,,,,,,,,181.38279769569635,None,182.88233371498063,None,184.26607008557767,None,are,184.26607008557767,None,return,4.08026670711115,184.3494349718094,None,,,,,,,,,,,,,,,,,,,,,,,,,,,,,,,,,,,,,,,69,001,2023_Apr_13_1159,SpeechDraft1Carolyn_lessNoise_PlusLocalization,2021.2.3,59.982238027773235,
clothe.wav,clothe.mpg,clothe,1,A,Pink_Noise_1_1.wav,Pink_Noise_1_2.wav,,,,,,,,,,,,,,,0,17,17,15,,,,,,,,,,,,,,,,,,,,,,,188.44930009776726,None,189.94902454363182,None,191.33281958801672,None,clothe,191.33281958801672,None,return,1.9975214460864663,191.41612991457805,None,,,,,,,,,,,,,,,,,,,,,,,,,,,,,,,,,,,,,,,69,001,2023_Apr_13_1159,SpeechDraft1Carolyn_lessNoise_PlusLocalization,2021.2.3,59.982238027773235,
blunt.wav,blunt.mpg,blunt,1,AV,Pink_Noise_1_1.wav,Pink_Noise_1_2.wav,,,,,,,,,,,,,,,0,18,18,94,,,,,,,,,,,,,,,,,,,,,,,193.43270087288693,None,194.93246583268046,None,196.31592866964638,None,blunt,196.31592866964638,None,return,2.8782330732792616,196.39941078284755,None,,,,,,,,,,,,,,,,,,,,,,,,,,,,,,,,,,,,,,,69,001,2023_Apr_13_1159,SpeechDraft1Carolyn_lessNoise_PlusLocalization,2021.2.3,59.982238027773235,
chase.wav,chase.mpg,chase,2,A,Pink_Noise_2_1.wav,Pink_Noise_2_2.wav,,,,,,,,,,,,,,,0,19,19,18,,,,,,,,,,,,,,,,,,,,,,,199.29943054402247,None,200.79884655680507,None,202.1828126339242,None,"chase
",202.1828126339242,None,return,2.819599863141775,202.26603948092088,None,,,,,,,,,,,,,,,,,,,,,,,,,,,,,,,,,,,,,,,69,001,2023_Apr_13_1159,SpeechDraft1Carolyn_lessNoise_PlusLocalization,2021.2.3,59.982238027773235,
foil.wav,foil.mpg,foil,2,AV,Pink_Noise_2_1.wav,Pink_Noise_2_2.wav,,,,,,,,,,,,,,,0,20,20,86,,,,,,,,,,,,,,,,,,,,,,,205.1160584059544,None,206.6156041380018,None,207.9995020898059,None,foil,207.9995020898059,None,return,1.7708142851479352,208.082843944896,None,,,,,,,,,,,,,,,,,,,,,,,,,,,,,,,,,,,,,,,69,001,2023_Apr_13_1159,SpeechDraft1Carolyn_lessNoise_PlusLocalization,2021.2.3,59.982238027773235,
flesh.wav,flesh.mpg,flesh,2,AV,Pink_Noise_2_1.wav,Pink_Noise_2_2.wav,,,,,,,,,,,,,,,0,21,21,100,,,,,,,,,,,,,,,,,,,,,,,209.88277183659375,None,211.38251800462604,None,212.76606480591,None,flesh,212.76606480591,None,return,4.18826621491462,212.84935390390456,None,,,,,,,,,,,,,,,,,,,,,,,,,,,,,,,,,,,,,,,69,001,2023_Apr_13_1159,SpeechDraft1Carolyn_lessNoise_PlusLocalization,2021.2.3,59.982238027773235,
fate.wav,fate.mpg,fate,4,A,Pink_Noise_4_1.wav,Pink_Noise_4_2.wav,,,,,,,,,,,,,,,0,22,22,37,,,,,,,,,,,,,,,,,,,,,,,217.06620916258544,None,218.56570405792445,None,219.94961058394983,None,sate,219.94961058394983,None,return,3.2928314725868404,220.0327914180234,None,,,,,,,,,,,,,,,,,,,,,,,,,,,,,,,,,,,,,,,69,001,2023_Apr_13_1159,SpeechDraft1Carolyn_lessNoise_PlusLocalization,2021.2.3,59.982238027773235,
bend.wav,bend.mpg,bend,2,AV,Pink_Noise_2_1.wav,Pink_Noise_2_2.wav,,,,,,,,,,,,,,,0,23,23,89,,,,,,,,,,,,,,,,,,,,,,,223.34946393594146,None,224.84921097988263,None,226.2326731965877,None,bend,226.2326731965877,None,return,5.577609152998775,226.31603536987677,None,,,,,,,,,,,,,,,,,,,,,,,,,,,,,,,,,,,,,,,69,001,2023_Apr_13_1159,SpeechDraft1Carolyn_lessNoise_PlusLocalization,2021.2.3,59.982238027773235,
built.wav,built.mpg,built,6,A,Pink_Noise_6_1.wav,Pink_Noise_6_2.wav,,,,,,,,,,,,,,,0,24,24,59,,,,,,,,,,,,,,,,,,,,,,,231.9161497806199,None,233.4157706918195,None,234.7993940967135,None,jet,234.7993940967135,None,return,6.3548831338994205,234.88272712100297,None,,,,,,,,,,,,,,,,,,,,,,,,,,,,,,,,,,,,,,,69,001,2023_Apr_13_1159,SpeechDraft1Carolyn_lessNoise_PlusLocalization,2021.2.3,59.982238027773235,
flee.wav,flee.mpg,flee,3,AV,Pink_Noise_3_1.wav,Pink_Noise_3_2.wav,,,,,,,,,,,,,,,0,25,25,68,,,,,,,,,,,,,,,,,,,,,,,241.26745674479753,None,242.7824752200395,None,244.16608790075406,None,"flea
",244.16608790075406,None,return,1.5002577821724117,244.24936163472012,None,,,,,,,,,,,,,,,,,,,,,,,,,,,,,,,,,,,,,,,69,001,2023_Apr_13_1159,SpeechDraft1Carolyn_lessNoise_PlusLocalization,2021.2.3,59.982238027773235,
click.wav,click.mpg,click,4,A,Pink_Noise_4_1.wav,Pink_Noise_4_2.wav,,,,,,,,,,,,,,,0,26,26,5,,,,,,,,,,,,,,,,,,,,,,,245.7828629417345,None,247.28251798870042,None,248.66607163101435,None,click,248.66607163101435,None,return,1.488112679682672,248.74950557481498,None,,,,,,,,,,,,,,,,,,,,,,,,,,,,,,,,,,,,,,,69,001,2023_Apr_13_1159,SpeechDraft1Carolyn_lessNoise_PlusLocalization,2021.2.3,59.982238027773235,
brawl.wav,brawl.mpg,brawl,6,A,Pink_Noise_6_1.wav,Pink_Noise_6_2.wav,,,,,,,,,,,,,,,0,27,27,42,,,,,,,,,,,,,,,,,,,,,,,250.26599644962698,None,251.76571768987924,None,253.1494395188056,None,drow,253.1494395188056,None,return,4.14098427304998,253.23276795865968,None,,,,,,,,,,,,,,,,,,,,,,,,,,,,,,,,,,,,,,,69,001,2023_Apr_13_1159,SpeechDraft1Carolyn_lessNoise_PlusLocalization,2021.2.3,59.982238027773235,
blob.wav,blob.mpg,blob,2,A,Pink_Noise_2_1.wav,Pink_Noise_2_2.wav,,,,,,,,,,,,,,,0,28,28,29,,,,,,,,,,,,,,,,,,,,,,,257.39952347194776,None,258.8991029676981,None,260.2828221935779,None,blog,260.2828221935779,None,return,1.8874703687615693,260.3661567349918,None,,,,,,,,,,,,,,,,,,,,,,,,,,,,,,,,,,,,,,,69,001,2023_Apr_13_1159,SpeechDraft1Carolyn_lessNoise_PlusLocalization,2021.2.3,59.982238027773235,
bind.wav,bind.mpg,bind,6,AV,Pink_Noise_6_1.wav,Pink_Noise_6_2.wav,,,,,,,,,,,,,,,0,29,29,87,,,,,,,,,,,,,,,,,,,,,,,262.28296423563734,None,263.78297524992377,None,265.16619019489735,None,mind,265.16619019489735,None,return,2.748231432400644,265.2494369056076,None,,,,,,,,,,,,,,,,,,,,,,,,,,,,,,,,,,,,,,,69,001,2023_Apr_13_1159,SpeechDraft1Carolyn_lessNoise_PlusLocalization,2021.2.3,59.982238027773235,
cone.wav,cone.mpg,cone,1,AV,Pink_Noise_1_1.wav,Pink_Noise_1_2.wav,,,,,,,,,,,,,,,0,30,30,102,,,,,,,,,,,,,,,,,,,,,,,268.0161240659654,None,269.51586221298203,None,270.8993430319242,None,cole,270.8993430319242,None,return,1.5586836379952729,270.9829731276259,None,,,,,,,,,,,,,,,,,,,,,,,,,,,,,,,,,,,,,,,69,001,2023_Apr_13_1159,SpeechDraft1Carolyn_lessNoise_PlusLocalization,2021.2.3,59.982238027773235,
dove.wav,dove.mpg,dove,5,A,Pink_Noise_5_1.wav,Pink_Noise_5_2.wav,,,,,,,,,,,,,,,0,31,31,22,,,,,,,,,,,,,,,,,,,,,,,272.56633937358856,None,274.0660353656858,None,275.44951700465754,None,dud,275.44951700465754,None,return,1.2409905409440398,275.532831159886,None,,,,,,,,,,,,,,,,,,,,,,,,,,,,,,,,,,,,,,,69,001,2023_Apr_13_1159,SpeechDraft1Carolyn_lessNoise_PlusLocalization,2021.2.3,59.982238027773235,
quit.wav,quit.mpg,quit,6,A,Pink_Noise_6_1.wav,Pink_Noise_6_2.wav,,,,,,,,,,,,,,,0,32,32,9,,,,,,,,,,,,,,,,,,,,,,,276.7996827517636,None,278.2993503496982,None,279.6829015589319,None,swim,279.6829015589319,None,return,7.239676287863404,279.7660846617073,None,,,,,,,,,,,,,,,,,,,,,,,,,,,,,,,,,,,,,,,69,001,2023_Apr_13_1159,SpeechDraft1Carolyn_lessNoise_PlusLocalization,2021.2.3,59.982238027773235,
flake.wav,flake.mpg,flake,1,A,Pink_Noise_1_1.wav,Pink_Noise_1_2.wav,,,,,,,,,,,,,,,0,33,33,52,,,,,,,,,,,,,,,,,,,,,,,287.03288707882166,None,288.5324350739829,None,289.9161899876781,None,flake,289.9161899876781,None,return,2.5100796069018543,289.9995741560124,None,,,,,,,,,,,,,,,,,,,,,,,,,,,,,,,,,,,,,,,69,001,2023_Apr_13_1159,SpeechDraft1Carolyn_lessNoise_PlusLocalization,2021.2.3,59.982238027773235,
cord.wav,cord.mpg,cord,3,A,Pink_Noise_3_1.wav,Pink_Noise_3_2.wav,,,,,,,,,,,,,,,0,34,34,21,,,,,,,,,,,,,,,,,,,,,,,292.5329217487015,None,294.03245533257723,None,295.41619025403634,None,chord,295.41619025403634,None,return,1.3621256719343364,295.4994989517145,None,,,,,,,,,,,,,,,,,,,,,,,,,,,,,,,,,,,,,,,69,001,2023_Apr_13_1159,SpeechDraft1Carolyn_lessNoise_PlusLocalization,2021.2.3,59.982238027773235,
chin.wav,chin.mpg,chin,4,AV,Pink_Noise_4_1.wav,Pink_Noise_4_2.wav,,,,,,,,,,,,,,,0,35,35,73,,,,,,,,,,,,,,,,,,,,,,,296.88288877764717,None,298.382519765757,None,299.7662952938117,None,chair,299.7662952938117,None,return,1.6440531248226762,299.8495653537102,None,,,,,,,,,,,,,,,,,,,,,,,,,,,,,,,,,,,,,,,69,001,2023_Apr_13_1159,SpeechDraft1Carolyn_lessNoise_PlusLocalization,2021.2.3,59.982238027773235,
bag.wav,bag.mpg,bag,6,AV,Pink_Noise_6_1.wav,Pink_Noise_6_2.wav,,,,,,,,,,,,,,,0,36,36,61,,,,,,,,,,,,,,,,,,,,,,,301.51621713582426,None,303.0159875098616,None,304.3995048766956,None,mad,304.3995048766956,None,return,2.5786262988112867,304.48301237775013,None,,,,,,,,,,,,,,,,,,,,,,,,,,,,,,,,,,,,,,,69,001,2023_Apr_13_1159,SpeechDraft1Carolyn_lessNoise_PlusLocalization,2021.2.3,59.982238027773235,
duct.wav,duct.mpg,duct,3,AV,Pink_Noise_3_1.wav,Pink_Noise_3_2.wav,,,,,,,,,,,,,,,0,37,37,84,,,,,,,,,,,,,,,,,,,,,,,307.082876322791,None,308.59922850271687,None,309.9827844100073,None,"duct
",309.9827844100073,None,return,2.451351953204721,310.06629138765857,None,,,,,,,,,,,,,,,,,,,,,,,,,,,,,,,,,,,,,,,69,001,2023_Apr_13_1159,SpeechDraft1Carolyn_lessNoise_PlusLocalization,2021.2.3,59.982238027773235,
hit.wav,hit.mpg,hit,2,AV,Pink_Noise_2_1.wav,Pink_Noise_2_2.wav,,,,,,,,,,,,,,,0,38,38,95,,,,,,,,,,,,,,,,,,,,,,,312.54959349660203,None,314.0504778986797,None,315.43280763784423,None,hit,315.43280763784423,None,return,0.9134329161606729,315.5162747129798,None,,,,,,,,,,,,,,,,,,,,,,,,,,,,,,,,,,,,,,,69,001,2023_Apr_13_1159,SpeechDraft1Carolyn_lessNoise_PlusLocalization,2021.2.3,59.982238027773235,
cream.wav,cream.mpg,cream,4,A,Pink_Noise_4_1.wav,Pink_Noise_4_2.wav,,,,,,,,,,,,,,,0,39,39,36,,,,,,,,,,,,,,,,,,,,,,,316.4496071105823,None,317.9493364789523,None,319.3329098089598,None,creams,319.3329098089598,None,return,5.125418114010245,319.41620039986446,None,,,,,,,,,,,,,,,,,,,,,,,,,,,,,,,,,,,,,,,69,001,2023_Apr_13_1159,SpeechDraft1Carolyn_lessNoise_PlusLocalization,2021.2.3,59.982238027773235,
bib.wav,bib.mpg,bib,6,AV,Pink_Noise_6_1.wav,Pink_Noise_6_2.wav,,,,,,,,,,,,,,,0,40,40,85,,,,,,,,,,,,,,,,,,,,,,,324.56628023972735,None,326.0661116167903,None,327.44965381361544,None,bib,327.44965381361544,None,return,3.4488608660176396,327.5328899589367,None,,,,,,,,,,,,,,,,,,,,,,,,,,,,,,,,,,,,,,,69,001,2023_Apr_13_1159,SpeechDraft1Carolyn_lessNoise_PlusLocalization,2021.2.3,59.982238027773235,
greed.wav,greed.mpg,greed,3,A,Pink_Noise_3_1.wav,Pink_Noise_3_2.wav,,,,,,,,,,,,,,,0,41,41,25,,,,,,,,,,,,,,,,,,,,,,,330.99960934370756,None,332.4998657577671,None,333.8830560706556,None,greed,333.8830560706556,None,return,1.1433961167931557,333.9662037016824,None,,,,,,,,,,,,,,,,,,,,,,,,,,,,,,,,,,,,,,,69,001,2023_Apr_13_1159,SpeechDraft1Carolyn_lessNoise_PlusLocalization,2021.2.3,59.982238027773235,
fuel.wav,fuel.mpg,fuel,5,AV,Pink_Noise_5_1.wav,Pink_Noise_5_2.wav,,,,,,,,,,,,,,,0,42,42,105,,,,,,,,,,,,,,,,,,,,,,,335.13283226359636,None,336.63253894494846,None,338.0164659926668,None,fool,338.0164659926668,None,return,1.346158818807453,338.0995591869578,None,,,,,,,,,,,,,,,,,,,,,,,,,,,,,,,,,,,,,,,69,001,2023_Apr_13_1159,SpeechDraft1Carolyn_lessNoise_PlusLocalization,2021.2.3,59.982238027773235,
dine.wav,dine.mpg,dine,2,AV,Pink_Noise_2_1.wav,Pink_Noise_2_2.wav,,,,,,,,,,,,,,,0,43,43,66,,,,,,,,,,,,,,,,,,,,,,,339.46618823194876,None,340.9670568727888,None,342.3495843280107,None,dine,342.3495843280107,None,return,1.9728233190253377,342.43279639584944,None,,,,,,,,,,,,,,,,,,,,,,,,,,,,,,,,,,,,,,,69,001,2023_Apr_13_1159,SpeechDraft1Carolyn_lessNoise_PlusLocalization,2021.2.3,59.982238027773235,
coup.wav,coup.mpg,coup,6,AV,Pink_Noise_6_1.wav,Pink_Noise_6_2.wav,,,,,,,,,,,,,,,0,44,44,110,,,,,,,,,,,,,,,,,,,,,,,344.4329836028628,None,345.9324943316169,None,347.3162675839849,None,coo,347.3162675839849,None,return,4.797940893098712,347.39967687800527,None,,,,,,,,,,,,,,,,,,,,,,,,,,,,,,,,,,,,,,,69,001,2023_Apr_13_1159,SpeechDraft1Carolyn_lessNoise_PlusLocalization,2021.2.3,59.982238027773235,
fed.wav,fed.mpg,fed,2,A,Pink_Noise_2_1.wav,Pink_Noise_2_2.wav,,,,,,,,,,,,,,,0,45,45,54,,,,,,,,,,,,,,,,,,,,,,,352.21635573683307,None,353.7158982618712,None,355.0996370357461,None,fed,355.0996370357461,None,return,1.3906338098458946,355.1831281390041,None,,,,,,,,,,,,,,,,,,,,,,,,,,,,,,,,,,,,,,,69,001,2023_Apr_13_1159,SpeechDraft1Carolyn_lessNoise_PlusLocalization,2021.2.3,59.982238027773235,
eel.wav,eel.mpg,eel,2,A,Pink_Noise_2_1.wav,Pink_Noise_2_2.wav,,,,,,,,,,,,,,,0,46,46,32,,,,,,,,,,,,,,,,,,,,,,,356.5996200898662,None,358.0991531019099,None,359.48317859182134,None,eel,359.48317859182134,None,return,3.0951911211013794,359.56649258965626,None,,,,,,,,,,,,,,,,,,,,,,,,,,,,,,,,,,,,,,,69,001,2023_Apr_13_1159,SpeechDraft1Carolyn_lessNoise_PlusLocalization,2021.2.3,59.982238027773235,
bond.wav,bond.mpg,bond,3,AV,Pink_Noise_3_1.wav,Pink_Noise_3_2.wav,,,,,,,,,,,,,,,0,47,47,63,,,,,,,,,,,,,,,,,,,,,,,362.683028658852,None,364.18272294057533,None,365.5663313008845,None,bond,365.5663313008845,None,return,2.7640462457202375,365.64965314697474,None,,,,,,,,,,,,,,,,,,,,,,,,,,,,,,,,,,,,,,,69,001,2023_Apr_13_1159,SpeechDraft1Carolyn_lessNoise_PlusLocalization,2021.2.3,59.982238027773235,
cash.wav,cash.mpg,cash,4,A,Pink_Noise_4_1.wav,Pink_Noise_4_2.wav,,,,,,,,,,,,,,,0,48,48,57,,,,,,,,,,,,,,,,,,,,,,,368.43312981398776,None,369.9325738539919,None,371.31636560196057,None,hesh,371.31636560196057,None,return,1.0460046888329089,371.399625683669,None,,,,,,,,,,,,,,,,,,,,,,,,,,,,,,,,,,,,,,,69,001,2023_Apr_13_1159,SpeechDraft1Carolyn_lessNoise_PlusLocalization,2021.2.3,59.982238027773235,
bear.wav,bear.mpg,bear,3,AV,Pink_Noise_3_1.wav,Pink_Noise_3_2.wav,,,,,,,,,,,,,,,0,49,49,83,,,,,,,,,,,,,,,,,,,,,,,372.46631123591214,None,373.9661848116666,None,375.3496020338498,None,bear,375.3496020338498,None,return,1.1567610749043524,375.4329806608148,None,,,,,,,,,,,,,,,,,,,,,,,,,,,,,,,,,,,,,,,69,001,2023_Apr_13_1159,SpeechDraft1Carolyn_lessNoise_PlusLocalization,2021.2.3,59.982238027773235,
fetch.wav,fetch.mpg,fetch,5,AV,Pink_Noise_5_1.wav,Pink_Noise_5_2.wav,,,,,,,,,,,,,,,0,50,50,101,,,,,,,,,,,,,,,,,,,,,,,376.616314730607,None,378.1160475118086,None,379.49948570597917,None,fetch,379.49948570597917,None,return,2.678632033057511,379.5830242759548,None,,,,,,,,,,,,,,,,,,,,,,,,,,,,,,,,,,,,,,,69,001,2023_Apr_13_1159,SpeechDraft1Carolyn_lessNoise_PlusLocalization,2021.2.3,59.982238027773235,
fail.wav,fail.mpg,fail,3,A,Pink_Noise_3_1.wav,Pink_Noise_3_2.wav,,,,,,,,,,,,,,,0,51,51,49,,,,,,,,,,,,,,,,,,,,,,,382.2829333906993,None,383.7992897396907,None,385.1832339456305,None,bail,385.1832339456305,None,return,1.963297544978559,385.2664265707135,None,,,,,,,,,,,,,,,,,,,,,,,,,,,,,,,,,,,,,,,69,001,2023_Apr_13_1159,SpeechDraft1Carolyn_lessNoise_PlusLocalization,2021.2.3,59.982238027773235,
folk.wav,folk.mpg,folk,3,A,Pink_Noise_3_1.wav,Pink_Noise_3_2.wav,,,,,,,,,,,,,,,0,52,52,47,,,,,,,,,,,,,,,,,,,,,,,387.2497204807587,None,388.7659261659719,None,390.1496359007433,None,"book
",390.1496359007433,None,return,1.8686119448393583,390.23301699897274,None,,,,,,,,,,,,,,,,,,,,,,,,,,,,,,,,,,,,,,,69,001,2023_Apr_13_1159,SpeechDraft1Carolyn_lessNoise_PlusLocalization,2021.2.3,59.982238027773235,
date.wav,date.mpg,date,4,A,Pink_Noise_4_1.wav,Pink_Noise_4_2.wav,,,,,,,,,,,,,,,0,53,53,51,,,,,,,,,,,,,,,,,,,,,,,392.1329803066328,None,393.64928358374164,None,395.03297869162634,None,dict,395.03297869162634,None,return,1.873463932890445,395.1163581176661,None,,,,,,,,,,,,,,,,,,,,,,,,,,,,,,,,,,,,,,,69,001,2023_Apr_13_1159,SpeechDraft1Carolyn_lessNoise_PlusLocalization,2021.2.3,59.982238027773235,
clock.wav,clock.mpg,clock,1,A,Pink_Noise_1_1.wav,Pink_Noise_1_2.wav,,,,,,,,,,,,,,,0,54,54,2,,,,,,,,,,,,,,,,,,,,,,,397.01639625569806,None,398.53288884088397,None,399.8997272099368,None,"clock
",399.8997272099368,None,return,2.518641773145646,399.98298315284774,None,,,,,,,,,,,,,,,,,,,,,,,,,,,,,,,,,,,,,,,69,001,2023_Apr_13_1159,SpeechDraft1Carolyn_lessNoise_PlusLocalization,2021.2.3,59.982238027773235,
stone.wav,stone.mpg,stone,5,A,Pink_Noise_5_1.wav,Pink_Noise_5_2.wav,,,,,,,,,,,,,,,0,55,55,40,,,,,,,,,,,,,,,,,,,,,,,402.53322644066066,None,404.04933792958036,None,405.4332688008435,None,spain,405.4332688008435,None,return,1.9452223707921803,405.51642610970885,None,,,,,,,,,,,,,,,,,,,,,,,,,,,,,,,,,,,,,,,69,001,2023_Apr_13_1159,SpeechDraft1Carolyn_lessNoise_PlusLocalization,2021.2.3,59.982238027773235,
belt.wav,belt.mpg,belt,2,AV,Pink_Noise_2_1.wav,Pink_Noise_2_2.wav,,,,,,,,,,,,,,,0,56,56,116,,,,,,,,,,,,,,,,,,,,,,,407.48298308160156,None,408.99944785097614,None,410.38301938958466,None,belt,410.38301938958466,None,return,0.9312579990364611,410.4663706626743,None,,,,,,,,,,,,,,,,,,,,,,,,,,,,,,,,,,,,,,,69,001,2023_Apr_13_1159,SpeechDraft1Carolyn_lessNoise_PlusLocalization,2021.2.3,59.982238027773235,
bake.wav,bake.mpg,bake,1,A,Pink_Noise_1_1.wav,Pink_Noise_1_2.wav,,,,,,,,,,,,,,,0,57,57,19,,,,,,,,,,,,,,,,,,,,,,,411.41632426995784,None,412.9161257678643,None,414.2997689959593,None,bake,414.2997689959593,None,return,1.2066040933132172,414.3830941049382,None,,,,,,,,,,,,,,,,,,,,,,,,,,,,,,,,,,,,,,,69,001,2023_Apr_13_1159,SpeechDraft1Carolyn_lessNoise_PlusLocalization,2021.2.3,59.982238027773235,
buff.wav,buff.mpg,buff,6,AV,Pink_Noise_6_1.wav,Pink_Noise_6_2.wav,,,,,,,,,,,,,,,0,58,58,111,,,,,,,,,,,,,,,,,,,,,,,415.616378207691,None,417.11789982765913,None,418.4996804785915,None,buff,418.4996804785915,None,return,1.2227185158990324,418.58306222083047,None,,,,,,,,,,,,,,,,,,,,,,,,,,,,,,,,,,,,,,,69,001,2023_Apr_13_1159,SpeechDraft1Carolyn_lessNoise_PlusLocalization,2021.2.3,59.982238027773235,
grip.wav,grip.mpg,grip,1,A,Pink_Noise_1_1.wav,Pink_Noise_1_2.wav,,,,,,,,,,,,,,,0,59,59,20,,,,,,,,,,,,,,,,,,,,,,,419.83322639297694,None,421.3494930989109,None,422.73313024500385,None,grip,422.73313024500385,None,return,2.005491974297911,422.816360459663,None,,,,,,,,,,,,,,,,,,,,,,,,,,,,,,,,,,,,,,,69,001,2023_Apr_13_1159,SpeechDraft1Carolyn_lessNoise_PlusLocalization,2021.2.3,59.982238027773235,
blaze.wav,blaze.mpg,blaze,6,A,Pink_Noise_6_1.wav,Pink_Noise_6_2.wav,,,,,,,,,,,,,,,0,60,60,50,,,,,,,,,,,,,,,,,,,,,,,424.84970553359017,None,426.3659990876913,None,427.74967881897464,None,dilts,427.74967881897464,None,return,4.588516857009381,427.83322842558846,None,,,,,,,,,,,,,,,,,,,,,,,,,,,,,,,,,,,,,,,69,001,2023_Apr_13_1159,SpeechDraft1Carolyn_lessNoise_PlusLocalization,2021.2.3,59.982238027773235,
clue.wav,clue.mpg,clue,2,A,Pink_Noise_2_1.wav,Pink_Noise_2_2.wav,,,,,,,,,,,,,,,0,61,61,27,,,,,,,,,,,,,,,,,,,,,,,432.4499779245816,None,433.965959448833,None,435.34980458393693,None,clue,435.34980458393693,None,return,1.3727314239367843,435.43300934461877,None,,,,,,,,,,,,,,,,,,,,,,,,,,,,,,,,,,,,,,,69,001,2023_Apr_13_1159,SpeechDraft1Carolyn_lessNoise_PlusLocalization,2021.2.3,59.982238027773235,
grill.wav,grill.mpg,grill,5,A,Pink_Noise_5_1.wav,Pink_Noise_5_2.wav,,,,,,,,,,,,,,,0,62,62,0,,,,,,,,,,,,,,,,,,,,,,,436.83315349789336,None,438.3495026268065,None,439.716541074682,None,row,439.716541074682,None,return,3.2300217617303133,439.79967559780926,None,,,,,,,,,,,,,,,,,,,,,,,,,,,,,,,,,,,,,,,69,001,2023_Apr_13_1159,SpeechDraft1Carolyn_lessNoise_PlusLocalization,2021.2.3,59.982238027773235,
fault.wav,fault.mpg,fault,3,AV,Pink_Noise_3_1.wav,Pink_Noise_3_2.wav,,,,,,,,,,,,,,,0,63,63,97,,,,,,,,,,,,,,,,,,,,,,,443.0497688986361,None,444.56620660284534,None,445.9496965208091,None,fault,445.9496965208091,None,return,1.3408210161142051,446.0330559518188,None,,,,,,,,,,,,,,,,,,,,,,,,,,,,,,,,,,,,,,,69,001,2023_Apr_13_1159,SpeechDraft1Carolyn_lessNoise_PlusLocalization,2021.2.3,59.982238027773235,
flog.wav,flog.mpg,flog,1,AV,Pink_Noise_1_1.wav,Pink_Noise_1_2.wav,,,,,,,,,,,,,,,0,64,64,108,,,,,,,,,,,,,,,,,,,,,,,447.3997310679406,None,448.8993810089305,None,450.28300480078906,None,flog,450.28300480078906,None,return,1.823434054851532,450.3664085599594,None,,,,,,,,,,,,,,,,,,,,,,,,,,,,,,,,,,,,,,,69,001,2023_Apr_13_1159,SpeechDraft1Carolyn_lessNoise_PlusLocalization,2021.2.3,59.982238027773235,
bottle.wav,bottle.mpg,bottle,2,A,Pink_Noise_2_1.wav,Pink_Noise_2_2.wav,,,,,,,,,,,,,,,0,65,65,7,,,,,,,,,,,,,,,,,,,,,,,452.21633831458166,None,453.7176879188046,None,455.09996607666835,None,bottle,455.09996607666835,None,return,3.8143697031773627,455.1832822225988,None,,,,,,,,,,,,,,,,,,,,,,,,,,,,,,,,,,,,,,,69,001,2023_Apr_13_1159,SpeechDraft1Carolyn_lessNoise_PlusLocalization,2021.2.3,59.982238027773235,
please.wav,please.mpg,please,5,A,Pink_Noise_5_1.wav,Pink_Noise_5_2.wav,,,,,,,,,,,,,,,0,66,66,33,,,,,,,,,,,,,,,,,,,,,,,459.0165048548952,None,460.51783792395145,None,461.89981800178066,None,"vase
",461.89981800178066,None,return,3.918502466753125,461.98312387103215,None,,,,,,,,,,,,,,,,,,,,,,,,,,,,,,,,,,,,,,,69,001,2023_Apr_13_1159,SpeechDraft1Carolyn_lessNoise_PlusLocalization,2021.2.3,59.982238027773235,
dream.wav,dream.mpg,dream,4,AV,Pink_Noise_4_1.wav,Pink_Noise_4_2.wav,,,,,,,,,,,,,,,0,67,67,117,,,,,,,,,,,,,,,,,,,,,,,465.9331447556615,None,467.43300687288865,None,468.81631247187033,None,dream,468.81631247187033,None,return,1.2899941941723228,468.8997522816062,None,,,,,,,,,,,,,,,,,,,,,,,,,,,,,,,,,,,,,,,69,001,2023_Apr_13_1159,SpeechDraft1Carolyn_lessNoise_PlusLocalization,2021.2.3,59.982238027773235,
foam.wav,foam.mpg,foam,1,A,Pink_Noise_1_1.wav,Pink_Noise_1_2.wav,,,,,,,,,,,,,,,0,68,68,35,,,,,,,,,,,,,,,,,,,,,,,470.21652949694544,None,471.7167256339453,None,473.0998516296968,None,foam,473.0998516296968,None,return,1.8141797077842057,473.18344195373356,None,,,,,,,,,,,,,,,,,,,,,,,,,,,,,,,,,,,,,,,69,001,2023_Apr_13_1159,SpeechDraft1Carolyn_lessNoise_PlusLocalization,2021.2.3,59.982238027773235,
bruise.wav,bruise.mpg,bruise,3,AV,Pink_Noise_3_1.wav,Pink_Noise_3_2.wav,,,,,,,,,,,,,,,0,69,69,114,,,,,,,,,,,,,,,,,,,,,,,475.01656625559554,None,476.54952174564824,None,477.9331746357493,None,bruise,477.9331746357493,None,return,5.149382901843637,478.0164090357721,None,,,,,,,,,,,,,,,,,,,,,,,,,,,,,,,,,,,,,,,69,001,2023_Apr_13_1159,SpeechDraft1Carolyn_lessNoise_PlusLocalization,2021.2.3,59.982238027773235,
clam.wav,clam.mpg,clam,3,A,Pink_Noise_3_1.wav,Pink_Noise_3_2.wav,,,,,,,,,,,,,,,0,70,70,55,,,,,,,,,,,,,,,,,,,,,,,483.1831544446759,None,484.7160733817145,None,486.0832259338349,None,"clan
",486.0832259338349,None,return,1.135082010179758,486.16654632473364,None,,,,,,,,,,,,,,,,,,,,,,,,,,,,,,,,,,,,,,,69,001,2023_Apr_13_1159,SpeechDraft1Carolyn_lessNoise_PlusLocalization,2021.2.3,59.982238027773235,
drag.wav,drag.mpg,drag,5,A,Pink_Noise_5_1.wav,Pink_Noise_5_2.wav,,,,,,,,,,,,,,,0,71,71,39,,,,,,,,,,,,,,,,,,,,,,,487.33311355067417,None,488.84951976686716,None,490.2331861387938,None,"drag
",490.2331861387938,None,return,3.1851636529900134,490.31645371671766,None,,,,,,,,,,,,,,,,,,,,,,,,,,,,,,,,,,,,,,,69,001,2023_Apr_13_1159,SpeechDraft1Carolyn_lessNoise_PlusLocalization,2021.2.3,59.982238027773235,
fuss.wav,fuss.mpg,fuss,4,A,Pink_Noise_4_1.wav,Pink_Noise_4_2.wav,,,,,,,,,,,,,,,0,72,72,23,,,,,,,,,,,,,,,,,,,,,,,493.5332741276361,None,495.03446573065594,None,496.41673361090943,None,plus,496.41673361090943,None,return,1.6499365982599556,496.4997569117695,None,,,,,,,,,,,,,,,,,,,,,,,,,,,,,,,,,,,,,,,69,001,2023_Apr_13_1159,SpeechDraft1Carolyn_lessNoise_PlusLocalization,2021.2.3,59.982238027773235,
shut.wav,shut.mpg,shut,4,A,Pink_Noise_4_1.wav,Pink_Noise_4_2.wav,,,,,,,,,,,,,,,0,73,73,34,,,,,,,,,,,,,,,,,,,,,,,498.16652997676283,None,499.6660530087538,None,501.0498782498762,None,"shut
",501.0498782498762,None,return,1.5844407309778035,501.1331871696748,None,,,,,,,,,,,,,,,,,,,,,,,,,,,,,,,,,,,,,,,69,001,2023_Apr_13_1159,SpeechDraft1Carolyn_lessNoise_PlusLocalization,2021.2.3,59.982238027773235,
bride.wav,bride.mpg,bride,3,AV,Pink_Noise_3_1.wav,Pink_Noise_3_2.wav,,,,,,,,,,,,,,,0,74,74,77,,,,,,,,,,,,,,,,,,,,,,,502.7498980378732,None,504.24951849877834,None,505.6331304386258,None,bride,505.6331304386258,None,return,0.7770710228942335,505.7165347058326,None,,,,,,,,,,,,,,,,,,,,,,,,,,,,,,,,,,,,,,,69,001,2023_Apr_13_1159,SpeechDraft1Carolyn_lessNoise_PlusLocalization,2021.2.3,59.982238027773235,
bun.wav,bun.mpg,bun,1,A,Pink_Noise_1_1.wav,Pink_Noise_1_2.wav,,,,,,,,,,,,,,,0,75,75,16,,,,,,,,,,,,,,,,,,,,,,,506.51646859478205,None,508.04946228768677,None,509.4331628549844,None,bun,509.4331628549844,None,return,0.6493290648795664,509.51645002281293,None,,,,,,,,,,,,,,,,,,,,,,,,,,,,,,,,,,,,,,,69,001,2023_Apr_13_1159,SpeechDraft1Carolyn_lessNoise_PlusLocalization,2021.2.3,59.982238027773235,
guess.wav,guess.mpg,guess,6,A,Pink_Noise_6_1.wav,Pink_Noise_6_2.wav,,,,,,,,,,,,,,,0,76,76,28,,,,,,,,,,,,,,,,,,,,,,,510.1832610918209,None,511.7162096388638,None,513.099903083872,None,chess,513.099903083872,None,return,2.2945146379061043,513.1831266377121,None,,,,,,,,,,,,,,,,,,,,,,,,,,,,,,,,,,,,,,,69,001,2023_Apr_13_1159,SpeechDraft1Carolyn_lessNoise_PlusLocalization,2021.2.3,59.982238027773235,
wind.wav,wind.mpg,wind,4,AV,Pink_Noise_4_1.wav,Pink_Noise_4_2.wav,,,,,,,,,,,,,,,0,77,77,72,,,,,,,,,,,,,,,,,,,,,,,515.4999906159937,None,517.0161571167409,None,518.3999786996283,None,wind,518.3999786996283,None,return,1.0423825308680534,518.4832680555992,None,,,,,,,,,,,,,,,,,,,,,,,,,,,,,,,,,,,,,,,69,001,2023_Apr_13_1159,SpeechDraft1Carolyn_lessNoise_PlusLocalization,2021.2.3,59.982238027773235,
firm.wav,firm.mpg,firm,4,AV,Pink_Noise_4_1.wav,Pink_Noise_4_2.wav,,,,,,,,,,,,,,,0,78,78,60,,,,,,,,,,,,,,,,,,,,,,,519.5500009139068,None,521.0661620548926,None,522.4498774479143,None,firm,522.4498774479143,None,return,1.032556822989136,522.5331707065925,None,,,,,,,,,,,,,,,,,,,,,,,,,,,,,,,,,,,,,,,69,001,2023_Apr_13_1159,SpeechDraft1Carolyn_lessNoise_PlusLocalization,2021.2.3,59.982238027773235,
crew.wav,crew.mpg,crew,6,A,Pink_Noise_6_1.wav,Pink_Noise_6_2.wav,,,,,,,,,,,,,,,0,79,79,4,,,,,,,,,,,,,,,,,,,,,,,523.5832111015916,None,525.0828757579438,None,526.4665139717981,None,sip,526.4665139717981,None,return,8.40777386398986,526.5498867030255,None,,,,,,,,,,,,,,,,,,,,,,,,,,,,,,,,,,,,,,,69,001,2023_Apr_13_1159,SpeechDraft1Carolyn_lessNoise_PlusLocalization,2021.2.3,59.982238027773235,
flight.wav,flight.mpg,flight,5,AV,Pink_Noise_5_1.wav,Pink_Noise_5_2.wav,,,,,,,,,,,,,,,0,80,80,119,,,,,,,,,,,,,,,,,,,,,,,534.983194256667,None,536.5495591405779,None,537.9332742998376,None,flight,537.9332742998376,None,return,1.0291139651089907,538.01652478287,None,,,,,,,,,,,,,,,,,,,,,,,,,,,,,,,,,,,,,,,69,001,2023_Apr_13_1159,SpeechDraft1Carolyn_lessNoise_PlusLocalization,2021.2.3,59.982238027773235,
fluent.wav,fluent.mpg,fluent,6,AV,Pink_Noise_6_1.wav,Pink_Noise_6_2.wav,,,,,,,,,,,,,,,0,81,81,71,,,,,,,,,,,,,,,,,,,,,,,539.066655988805,None,540.5996128907427,None,541.9832222498953,None,flew,541.9832222498953,None,return,3.8911515437066555,542.0665450086817,None,,,,,,,,,,,,,,,,,,,,,,,,,,,,,,,,,,,,,,,69,001,2023_Apr_13_1159,SpeechDraft1Carolyn_lessNoise_PlusLocalization,2021.2.3,59.982238027773235,
fleet.wav,fleet.mpg,fleet,3,AV,Pink_Noise_3_1.wav,Pink_Noise_3_2.wav,,,,,,,,,,,,,,,0,82,82,62,,,,,,,,,,,,,,,,,,,,,,,545.9832190698944,None,547.4997035446577,None,548.8833027146757,None,"fleet
",548.8833027146757,None,return,2.167046285700053,548.9665220538154,None,,,,,,,,,,,,,,,,,,,,,,,,,,,,,,,,,,,,,,,69,001,2023_Apr_13_1159,SpeechDraft1Carolyn_lessNoise_PlusLocalization,2021.2.3,59.982238027773235,
chump.wav,chump.mpg,chump,1,A,Pink_Noise_1_1.wav,Pink_Noise_1_2.wav,,,,,,,,,,,,,,,0,83,83,14,,,,,,,,,,,,,,,,,,,,,,,551.166665521916,None,552.6829245919362,None,554.0667236340232,None,chum,554.0667236340232,None,return,1.0316790589131415,554.1500543029979,None,,,,,,,,,,,,,,,,,,,,,,,,,,,,,,,,,,,,,,,69,001,2023_Apr_13_1159,SpeechDraft1Carolyn_lessNoise_PlusLocalization,2021.2.3,59.982238027773235,
cough.wav,cough.mpg,cough,6,A,Pink_Noise_6_1.wav,Pink_Noise_6_2.wav,,,,,,,,,,,,,,,0,84,84,53,,,,,,,,,,,,,,,,,,,,,,,555.1999580897391,None,556.7161055356264,None,558.1000456865877,None,tall,558.1000456865877,None,return,1.422433305066079,558.1833308897913,None,,,,,,,,,,,,,,,,,,,,,,,,,,,,,,,,,,,,,,,69,001,2023_Apr_13_1159,SpeechDraft1Carolyn_lessNoise_PlusLocalization,2021.2.3,59.982238027773235,
fly.wav,fly.mpg,fly,5,A,Pink_Noise_5_1.wav,Pink_Noise_5_2.wav,,,,,,,,,,,,,,,0,85,85,43,,,,,,,,,,,,,,,,,,,,,,,559.633350151591,None,561.1332042180002,None,562.5166599727236,None,"fly
",562.5166599727236,None,return,1.4696595198474824,562.5999585087411,None,,,,,,,,,,,,,,,,,,,,,,,,,,,,,,,,,,,,,,,69,001,2023_Apr_13_1159,SpeechDraft1Carolyn_lessNoise_PlusLocalization,2021.2.3,59.982238027773235,
quart.wav,quart.mpg,quart,4,AV,Pink_Noise_4_1.wav,Pink_Noise_4_2.wav,,,,,,,,,,,,,,,0,86,86,115,,,,,,,,,,,,,,,,,,,,,,,564.0998484306037,None,565.6162593588233,None,567.0001355540007,None,quart,567.0001355540007,None,return,1.954428134020418,567.0832004817203,None,,,,,,,,,,,,,,,,,,,,,,,,,,,,,,,,,,,,,,,69,001,2023_Apr_13_1159,SpeechDraft1Carolyn_lessNoise_PlusLocalization,2021.2.3,59.982238027773235,
grape.wav,grape.mpg,grape,5,A,Pink_Noise_5_1.wav,Pink_Noise_5_2.wav,,,,,,,,,,,,,,,0,87,87,17,,,,,,,,,,,,,,,,,,,,,,,569.0666126436554,None,570.5828695688397,None,571.9666027827188,None,drink,571.9666027827188,None,return,1.7637167666107416,572.0500451787375,None,,,,,,,,,,,,,,,,,,,,,,,,,,,,,,,,,,,,,,,69,001,2023_Apr_13_1159,SpeechDraft1Carolyn_lessNoise_PlusLocalization,2021.2.3,59.982238027773235,
bay.wav,bay.mpg,bay,4,A,Pink_Noise_4_1.wav,Pink_Noise_4_2.wav,,,,,,,,,,,,,,,0,88,88,13,,,,,,,,,,,,,,,,,,,,,,,573.833389157895,None,575.3662153938785,None,576.7499847989529,None,bay,576.7499847989529,None,return,1.7563487999141216,576.8333617625758,None,,,,,,,,,,,,,,,,,,,,,,,,,,,,,,,,,,,,,,,69,001,2023_Apr_13_1159,SpeechDraft1Carolyn_lessNoise_PlusLocalization,2021.2.3,59.982238027773235,
skull.wav,skull.mpg,skull,2,A,Pink_Noise_2_1.wav,Pink_Noise_2_2.wav,,,,,,,,,,,,,,,0,89,89,1,,,,,,,,,,,,,,,,,,,,,,,578.6165466858074,None,580.1829900606535,None,581.5667730839923,None,skull,581.5667730839923,None,return,1.9157518702559173,581.6499834386632,None,,,,,,,,,,,,,,,,,,,,,,,,,,,,,,,,,,,,,,,69,001,2023_Apr_13_1159,SpeechDraft1Carolyn_lessNoise_PlusLocalization,2021.2.3,59.982238027773235,
feast.wav,feast.mpg,feast,2,A,Pink_Noise_2_1.wav,Pink_Noise_2_2.wav,,,,,,,,,,,,,,,0,90,90,31,,,,,,,,,,,,,,,,,,,,,,,583.5832195486873,None,585.099711637944,None,586.4833948765881,None,"feast
",586.4833948765881,None,return,1.1348162363283336,586.5667999847792,None,,,,,,,,,,,,,,,,,,,,,,,,,,,,,,,,,,,,,,,69,001,2023_Apr_13_1159,SpeechDraft1Carolyn_lessNoise_PlusLocalization,2021.2.3,59.982238027773235,
bow.wav,bow.mpg,bow,2,AV,Pink_Noise_2_1.wav,Pink_Noise_2_2.wav,,,,,,,,,,,,,,,0,91,91,79,,,,,,,,,,,,,,,,,,,,,,,587.7332867458463,None,589.2336136139929,None,590.6165021336637,None,bow,590.6165021336637,None,return,1.2899459819309413,590.6999773909338,None,,,,,,,,,,,,,,,,,,,,,,,,,,,,,,,,,,,,,,,69,001,2023_Apr_13_1159,SpeechDraft1Carolyn_lessNoise_PlusLocalization,2021.2.3,59.982238027773235,
brand.wav,brand.mpg,brand,6,AV,Pink_Noise_6_1.wav,Pink_Noise_6_2.wav,,,,,,,,,,,,,,,0,92,92,78,,,,,,,,,,,,,,,,,,,,,,,592.0167556595989,None,593.532912789844,None,594.8998456629924,None,braid,594.8998456629924,None,return,4.142335196956992,594.9833083776757,None,,,,,,,,,,,,,,,,,,,,,,,,,,,,,,,,,,,,,,,69,001,2023_Apr_13_1159,SpeechDraft1Carolyn_lessNoise_PlusLocalization,2021.2.3,59.982238027773235,
dare.wav,dare.mpg,dare,1,AV,Pink_Noise_1_1.wav,Pink_Noise_1_2.wav,,,,,,,,,,,,,,,0,93,93,113,,,,,,,,,,,,,,,,,,,,,,,599.1499396800064,None,600.6664304919541,None,602.0498917098157,None,dare,602.0498917098157,None,return,0.8483974309638143,602.133298266679,None,,,,,,,,,,,,,,,,,,,,,,,,,,,,,,,,,,,,,,,69,001,2023_Apr_13_1159,SpeechDraft1Carolyn_lessNoise_PlusLocalization,2021.2.3,59.982238027773235,
eye.wav,eye.mpg,eye,5,A,Pink_Noise_5_1.wav,Pink_Noise_5_2.wav,,,,,,,,,,,,,,,0,94,94,56,,,,,,,,,,,,,,,,,,,,,,,603.0000005466864,None,604.5164530039765,None,605.8999316669069,None,eyes,605.8999316669069,None,return,2.030430482234806,605.9832537658513,None,,,,,,,,,,,,,,,,,,,,,,,,,,,,,,,,,,,,,,,69,001,2023_Apr_13_1159,SpeechDraft1Carolyn_lessNoise_PlusLocalization,2021.2.3,59.982238027773235,
birth.wav,birth.mpg,birth,5,AV,Pink_Noise_5_1.wav,Pink_Noise_5_2.wav,,,,,,,,,,,,,,,0,95,95,98,,,,,,,,,,,,,,,,,,,,,,,608.0333203757182,None,609.5330657516606,None,610.9166187928058,None,birth,610.9166187928058,None,return,1.445705384016037,610.9999492429197,None,,,,,,,,,,,,,,,,,,,,,,,,,,,,,,,,,,,,,,,69,001,2023_Apr_13_1159,SpeechDraft1Carolyn_lessNoise_PlusLocalization,2021.2.3,59.982238027773235,
cake.wav,cake.mpg,cake,6,AV,Pink_Noise_6_1.wav,Pink_Noise_6_2.wav,,,,,,,,,,,,,,,0,96,96,112,,,,,,,,,,,,,,,,,,,,,,,612.4666558038443,None,613.9997177249752,None,615.3832294167951,None,kate,615.3832294167951,None,return,4.243072066921741,615.466545315925,None,,,,,,,,,,,,,,,,,,,,,,,,,,,,,,,,,,,,,,,69,001,2023_Apr_13_1159,SpeechDraft1Carolyn_lessNoise_PlusLocalization,2021.2.3,59.982238027773235,
bad.wav,bad.mpg,bad,4,AV,Pink_Noise_4_1.wav,Pink_Noise_4_2.wav,,,,,,,,,,,,,,,0,97,97,107,,,,,,,,,,,,,,,,,,,,,,,619.7333850008436,None,621.2997826049104,None,622.6833176258951,None,bad,622.6833176258951,None,return,1.2548876879736781,622.7667427710257,None,,,,,,,,,,,,,,,,,,,,,,,,,,,,,,,,,,,,,,,69,001,2023_Apr_13_1159,SpeechDraft1Carolyn_lessNoise_PlusLocalization,2021.2.3,59.982238027773235,
blank.wav,blank.mpg,blank,2,A,Pink_Noise_2_1.wav,Pink_Noise_2_2.wav,,,,,,,,,,,,,,,0,98,98,26,,,,,,,,,,,,,,,,,,,,,,,624.0500227869488,None,625.5664690667763,None,626.9500583796762,None,"like
",626.9500583796762,None,return,1.1002466250211,627.0333859897219,None,,,,,,,,,,,,,,,,,,,,,,,,,,,,,,,,,,,,,,,69,001,2023_Apr_13_1159,SpeechDraft1Carolyn_lessNoise_PlusLocalization,2021.2.3,59.982238027773235,
drab.wav,drab.mpg,drab,4,AV,Pink_Noise_4_1.wav,Pink_Noise_4_2.wav,,,,,,,,,,,,,,,0,99,99,118,,,,,,,,,,,,,,,,,,,,,,,628.1666234335862,None,629.6831645718776,None,631.0666751107201,None,dry,631.0666751107201,None,return,2.3996831821277738,631.1500183916651,None,,,,,,,,,,,,,,,,,,,,,,,,,,,,,,,,,,,,,,,69,001,2023_Apr_13_1159,SpeechDraft1Carolyn_lessNoise_PlusLocalization,2021.2.3,59.982238027773235,
blond.wav,blond.mpg,blond,3,A,Pink_Noise_3_1.wav,Pink_Noise_3_2.wav,,,,,,,,,,,,,,,0,100,100,8,,,,,,,,,,,,,,,,,,,,,,,633.5667601446621,None,635.0829665279016,None,636.4666668949649,None,"blond
",636.4666668949649,None,return,1.3196252747438848,636.5500031989068,None,,,,,,,,,,,,,,,,,,,,,,,,,,,,,,,,,,,,,,,69,001,2023_Apr_13_1159,SpeechDraft1Carolyn_lessNoise_PlusLocalization,2021.2.3,59.982238027773235,
guard.wav,guard.mpg,guard,1,AV,Pink_Noise_1_1.wav,Pink_Noise_1_2.wav,,,,,,,,,,,,,,,0,101,101,74,,,,,,,,,,,,,,,,,,,,,,,637.900090049021,None,639.4329053927213,None,640.8166172048077,None,guard,640.8166172048077,None,return,1.513560967054218,640.9001182098873,None,,,,,,,,,,,,,,,,,,,,,,,,,,,,,,,,,,,,,,,69,001,2023_Apr_13_1159,SpeechDraft1Carolyn_lessNoise_PlusLocalization,2021.2.3,59.982238027773235,
round.wav,round.mpg,round,1,AV,Pink_Noise_1_1.wav,Pink_Noise_1_2.wav,,,,,,,,,,,,,,,0,102,102,75,,,,,,,,,,,,,,,,,,,,,,,642.4333415529691,None,643.9496637806296,None,645.3334316536784,None,round,645.3334316536784,None,return,2.9649690170772374,645.4167864178307,None,,,,,,,,,,,,,,,,,,,,,,,,,,,,,,,,,,,,,,,69,001,2023_Apr_13_1159,SpeechDraft1Carolyn_lessNoise_PlusLocalization,2021.2.3,59.982238027773235,
dot.wav,dot.mpg,dot,1,A,Pink_Noise_1_1.wav,Pink_Noise_1_2.wav,,,,,,,,,,,,,,,0,103,103,46,,,,,,,,,,,,,,,,,,,,,,,648.3999926229008,None,649.9340298776515,None,651.3166956296191,None,dot,651.3166956296191,None,return,2.1656314027495682,651.4000640837476,None,,,,,,,,,,,,,,,,,,,,,,,,,,,,,,,,,,,,,,,69,001,2023_Apr_13_1159,SpeechDraft1Carolyn_lessNoise_PlusLocalization,2021.2.3,59.982238027773235,
tank.wav,tank.mpg,tank,5,AV,Pink_Noise_5_1.wav,Pink_Noise_5_2.wav,,,,,,,,,,,,,,,0,104,104,109,,,,,,,,,,,,,,,,,,,,,,,653.5834467909299,None,655.1329871239141,None,656.5165936858393,None,"tech
",656.5165936858393,None,return,1.1735664289444685,656.6000594659708,None,,,,,,,,,,,,,,,,,,,,,,,,,,,,,,,,,,,,,,,69,001,2023_Apr_13_1159,SpeechDraft1Carolyn_lessNoise_PlusLocalization,2021.2.3,59.982238027773235,
wheat.wav,wheat.mpg,wheat,4,AV,Pink_Noise_4_1.wav,Pink_Noise_4_2.wav,,,,,,,,,,,,,,,0,105,105,106,,,,,,,,,,,,,,,,,,,,,,,657.9832356246188,None,659.5164144709706,None,660.900036086794,None,whit,660.900036086794,None,return,4.39023082703352,660.9835340157151,None,,,,,,,,,,,,,,,,,,,,,,,,,,,,,,,,,,,,,,,69,001,2023_Apr_13_1159,SpeechDraft1Carolyn_lessNoise_PlusLocalization,2021.2.3,59.982238027773235,
boost.wav,boost.mpg,boost,1,AV,Pink_Noise_1_1.wav,Pink_Noise_1_2.wav,,,,,,,,,,,,,,,0,106,106,80,,,,,,,,,,,,,,,,,,,,,,,665.4000162477605,None,666.9164449828677,None,668.300100040622,None,boost,668.300100040622,None,return,2.4066685307770967,668.3833383638412,None,,,,,,,,,,,,,,,,,,,,,,,,,,,,,,,,,,,,,,,69,001,2023_Apr_13_1159,SpeechDraft1Carolyn_lessNoise_PlusLocalization,2021.2.3,59.982238027773235,
wild.wav,wild.mpg,wild,6,A,Pink_Noise_6_1.wav,Pink_Noise_6_2.wav,,,,,,,,,,,,,,,0,107,107,58,,,,,,,,,,,,,,,,,,,,,,,670.8166644619778,None,672.3331304676831,None,673.7169104488567,None,wild,673.7169104488567,None,return,2.2935479660518467,673.8000420588069,None,,,,,,,,,,,,,,,,,,,,,,,,,,,,,,,,,,,,,,,69,001,2023_Apr_13_1159,SpeechDraft1Carolyn_lessNoise_PlusLocalization,2021.2.3,59.982238027773235,
dance.wav,dance.mpg,dance,5,A,Pink_Noise_5_1.wav,Pink_Noise_5_2.wav,,,,,,,,,,,,,,,0,108,108,3,,,,,,,,,,,,,,,,,,,,,,,676.1168043445796,None,677.6331377020106,None,679.0168303376995,None,"dents
",679.0168303376995,None,return,2.8014573343098164,679.1001597456634,None,,,,,,,,,,,,,,,,,,,,,,,,,,,,,,,,,,,,,,,69,001,2023_Apr_13_1159,SpeechDraft1Carolyn_lessNoise_PlusLocalization,2021.2.3,59.982238027773235,
deem.wav,deem.mpg,deem,5,AV,Pink_Noise_5_1.wav,Pink_Noise_5_2.wav,,,,,,,,,,,,,,,0,109,109,82,,,,,,,,,,,,,,,,,,,,,,,681.933431992773,None,683.4341608090326,None,684.8167186346836,None,deem,684.8167186346836,None,return,3.7214323417283595,684.9002846097574,None,,,,,,,,,,,,,,,,,,,,,,,,,,,,,,,,,,,,,,,69,001,2023_Apr_13_1159,SpeechDraft1Carolyn_lessNoise_PlusLocalization,2021.2.3,59.982238027773235,
gym.wav,gym.mpg,gym,3,AV,Pink_Noise_3_1.wav,Pink_Noise_3_2.wav,,,,,,,,,,,,,,,0,110,110,104,,,,,,,,,,,,,,,,,,,,,,,688.6501516560093,None,690.1665157428943,None,691.5500845299102,None,"gym
",691.5500845299102,None,return,2.500299661885947,691.6333313849755,None,,,,,,,,,,,,,,,,,,,,,,,,,,,,,,,,,,,,,,,69,001,2023_Apr_13_1159,SpeechDraft1Carolyn_lessNoise_PlusLocalization,2021.2.3,59.982238027773235,
depth.wav,depth.mpg,depth,5,AV,Pink_Noise_5_1.wav,Pink_Noise_5_2.wav,,,,,,,,,,,,,,,0,111,111,92,,,,,,,,,,,,,,,,,,,,,,,694.1667632437311,None,695.6999012259766,None,697.0835457127541,None,depth,697.0835457127541,None,return,2.599024693015963,697.1667182026431,None,,,,,,,,,,,,,,,,,,,,,,,,,,,,,,,,,,,,,,,69,001,2023_Apr_13_1159,SpeechDraft1Carolyn_lessNoise_PlusLocalization,2021.2.3,59.982238027773235,
dig.wav,dig.mpg,dig,4,AV,Pink_Noise_4_1.wav,Pink_Noise_4_2.wav,,,,,,,,,,,,,,,0,112,112,69,,,,,,,,,,,,,,,,,,,,,,,699.7835513646714,None,701.3164108106866,None,702.7000445928425,None,dig,702.7000445928425,None,return,2.5903674103319645,702.7834212398157,None,,,,,,,,,,,,,,,,,,,,,,,,,,,,,,,,,,,,,,,69,001,2023_Apr_13_1159,SpeechDraft1Carolyn_lessNoise_PlusLocalization,2021.2.3,59.982238027773235,
feud.wav,feud.mpg,feud,5,AV,Pink_Noise_5_1.wav,Pink_Noise_5_2.wav,,,,,,,,,,,,,,,0,113,113,99,,,,,,,,,,,,,,,,,,,,,,,705.4001684486866,None,706.9337767777033,None,708.3172079208307,None,few,708.3172079208307,None,return,2.03745853388682,708.4001506539062,None,,,,,,,,,,,,,,,,,,,,,,,,,,,,,,,,,,,,,,,69,001,2023_Apr_13_1159,SpeechDraft1Carolyn_lessNoise_PlusLocalization,2021.2.3,59.982238027773235,
cheek.wav,cheek.mpg,cheek,1,AV,Pink_Noise_1_1.wav,Pink_Noise_1_2.wav,,,,,,,,,,,,,,,0,114,114,81,,,,,,,,,,,,,,,,,,,,,,,710.4669552696869,None,711.9831364885904,None,713.366760827601,None,cheek,713.366760827601,None,return,1.7236462221480906,713.4501443887129,None,,,,,,,,,,,,,,,,,,,,,,,,,,,,,,,,,,,,,,,69,001,2023_Apr_13_1159,SpeechDraft1Carolyn_lessNoise_PlusLocalization,2021.2.3,59.982238027773235,
gag.wav,gag.mpg,gag,5,A,Pink_Noise_5_1.wav,Pink_Noise_5_2.wav,,,,,,,,,,,,,,,0,115,115,48,,,,,,,,,,,,,,,,,,,,,,,715.2000715057366,None,716.7164082508534,None,718.1002229666337,None,ged,718.1002229666337,None,return,2.078131173737347,718.1834976486862,None,,,,,,,,,,,,,,,,,,,,,,,,,,,,,,,,,,,,,,,69,001,2023_Apr_13_1159,SpeechDraft1Carolyn_lessNoise_PlusLocalization,2021.2.3,59.982238027773235,
bound.wav,bound.mpg,bound,2,AV,Pink_Noise_2_1.wav,Pink_Noise_2_2.wav,,,,,,,,,,,,,,,0,116,116,88,,,,,,,,,,,,,,,,,,,,,,,720.2835459639318,None,721.7999003599398,None,723.1835538968444,None,bound,723.1835538968444,None,return,1.5628541461192071,723.2668139976449,None,,,,,,,,,,,,,,,,,,,,,,,,,,,,,,,,,,,,,,,69,001,2023_Apr_13_1159,SpeechDraft1Carolyn_lessNoise_PlusLocalization,2021.2.3,59.982238027773235,
fork.wav,fork.mpg,fork,5,AV,Pink_Noise_5_1.wav,Pink_Noise_5_2.wav,,,,,,,,,,,,,,,0,117,117,91,,,,,,,,,,,,,,,,,,,,,,,724.8502953359857,None,726.3831753218547,None,727.7672569826245,None,"fork
",727.7672569826245,None,return,1.667508624959737,727.8501058188267,None,,,,,,,,,,,,,,,,,,,,,,,,,,,,,,,,,,,,,,,69,001,2023_Apr_13_1159,SpeechDraft1Carolyn_lessNoise_PlusLocalization,2021.2.3,59.982238027773235,
buzz.wav,buzz.mpg,buzz,3,AV,Pink_Noise_3_1.wav,Pink_Noise_3_2.wav,,,,,,,,,,,,,,,0,118,118,93,,,,,,,,,,,,,,,,,,,,,,,729.5502539449371,None,731.099862601608,None,732.4835080979392,None,buzz,732.4835080979392,None,return,1.374406292103231,732.5673352717422,None,,,,,,,,,,,,,,,,,,,,,,,,,,,,,,,,,,,,,,,69,001,2023_Apr_13_1159,SpeechDraft1Carolyn_lessNoise_PlusLocalization,2021.2.3,59.982238027773235,
fish.wav,fish.mpg,fish,2,A,Pink_Noise_2_1.wav,Pink_Noise_2_2.wav,,,,,,,,,,,,,,,0,119,119,24,,,,,,,,,,,,,,,,,,,,,,,733.966943284031,None,735.4831748907454,None,736.8667226987891,None,fish,736.8667226987891,None,return,1.8795749000273645,736.9501128219999,None,,,,,,,,,,,,,,,,,,,,,,,,,,,,,,,,,,,,,,,69,001,2023_Apr_13_1159,SpeechDraft1Carolyn_lessNoise_PlusLocalization,2021.2.3,59.982238027773235,
,,,,,,,,,,,,,,,,,,,,,,,,,,,,,,,,,,,,,,,,,,,,,,,,,,,,,,,,,,,,,,,,,,space,23.791486201807857,738.9501582426019,None,,,,,,,,,,,,,,,,,,,,,,,,,,,,,69,001,2023_Apr_13_1159,SpeechDraft1Carolyn_lessNoise_PlusLocalization,2021.2.3,59.982238027773235,
,,,,,,,,farRight,19.1,4,ch1Sound_localizationTask.wav,19.1,"(1237, 878)","(277,-202)",285,-338,,,,,,,,,0,0,0,6,,,,,,,,,,,,,,,,,,,,,,,,,,,,,,,,,,,,,,,,,,738.9501582426019,None,762.7832893226296,None,763.89979359461,None,764.8164220247418,None,1.1354497354497355,2.8510735630989075,764.8164220247418,None,,,,,,,,,,,,,,,,,69,001,2023_Apr_13_1159,SpeechDraft1Carolyn_lessNoise_PlusLocalization,2021.2.3,59.982238027773235,
,,,,,,,,midLeft,-13.0,2,ch1Sound_localizationTask.wav,-13.0,"(762, 878)","(-198,-202)",-190,-338,,,,,,,,,0,1,1,1,,,,,,,,,,,,,,,,,,,,,,,,,,,,,,,,,,,,,,,,,,,,767.68360621389,None,768.7833602339961,None,769.7164539806545,None,1.1693121693121693,2.2832154068164527,769.7164539806545,None,,,,,,,,,,,,,,,,,69,001,2023_Apr_13_1159,SpeechDraft1Carolyn_lessNoise_PlusLocalization,2021.2.3,59.982238027773235,
,,,,,,,,nearRight,6.5,0,ch1Sound_localizationTask.wav,6.5,"(1047, 878)","(87, -202)",95,-338,,,,,,,,,0,2,2,4,,,,,,,,,,,,,,,,,,,,,,,,,,,,,,,,,,,,,,,,,,,,772.0012184726074,None,773.0999814965762,None,774.0331580126658,None,1.552910052910053,1.9156400659121573,774.0331580126658,None,,,,,,,,,,,,,,,,,69,001,2023_Apr_13_1159,SpeechDraft1Carolyn_lessNoise_PlusLocalization,2021.2.3,59.982238027773235,
,,,,,,,,farRight,19.1,4,ch1Sound_localizationTask.wav,19.1,"(1237, 878)","(277,-202)",285,-338,,,,,,,,,0,3,3,6,,,,,,,,,,,,,,,,,,,,,,,,,,,,,,,,,,,,,,,,,,,,775.9510069289245,None,777.0498640597798,None,777.9834735528566,None,1.7656084656084656,1.4673682660795748,777.9834735528566,None,,,,,,,,,,,,,,,,,69,001,2023_Apr_13_1159,SpeechDraft1Carolyn_lessNoise_PlusLocalization,2021.2.3,59.982238027773235,
,,,,,,,,farRight,19.1,4,ch1Sound_localizationTask.wav,19.1,"(1237, 878)","(277,-202)",285,-338,,,,,,,,,0,4,4,6,,,,,,,,,,,,,,,,,,,,,,,,,,,,,,,,,,,,,,,,,,,,779.4668117878027,None,780.5665677567013,None,781.499877047725,None,1.7259259259259259,0.8331985250115395,781.499877047725,None,,,,,,,,,,,,,,,,,69,001,2023_Apr_13_1159,SpeechDraft1Carolyn_lessNoise_PlusLocalization,2021.2.3,59.982238027773235,
,,,,,,,,nearLeft,-6.5,1,ch1Sound_localizationTask.wav,-6.5,"(857, 878)","(-103,-202)",-95,-338,,,,,,,,,0,5,5,2,,,,,,,,,,,,,,,,,,,,,,,,,,,,,,,,,,,,,,,,,,,,782.3349049407989,None,783.4500046488829,None,784.366659771651,None,1.3042328042328042,1.7680817847140133,784.366659771651,None,,,,,,,,,,,,,,,,,69,001,2023_Apr_13_1159,SpeechDraft1Carolyn_lessNoise_PlusLocalization,2021.2.3,59.982238027773235,
,,,,,,,,midRight,13.0,3,ch1Sound_localizationTask.wav,13.0,"(1142, 878)","(182, -202)",190,-338,,,,,,,,,0,6,6,5,,,,,,,,,,,,,,,,,,,,,,,,,,,,,,,,,,,,,,,,,,,,786.1504880539142,None,787.2501071509905,None,788.183264836669,None,1.5772486772486771,0.9693512250669301,788.183264836669,None,,,,,,,,,,,,,,,,,69,001,2023_Apr_13_1159,SpeechDraft1Carolyn_lessNoise_PlusLocalization,2021.2.3,59.982238027773235,
,,,,,,,,midLeft,-13.0,2,ch1Sound_localizationTask.wav,-13.0,"(762, 878)","(-198,-202)",-190,-338,,,,,,,,,1,0,7,1,,,,,,,,,,,,,,,,,,,,,,,,,,,,,,,,,,,,,,,,,,,,789.1684935688972,None,790.2833685409278,None,791.1998074227013,None,1.3460317460317461,1.316370651125908,791.1998074227013,None,,,,,,,,,,,,,,,,,69,001,2023_Apr_13_1159,SpeechDraft1Carolyn_lessNoise_PlusLocalization,2021.2.3,59.982238027773235,
,,,,,,,,farRight,19.1,4,ch1Sound_localizationTask.wav,19.1,"(1237, 878)","(277,-202)",285,-338,,,,,,,,,1,1,8,6,,,,,,,,,,,,,,,,,,,,,,,,,,,,,,,,,,,,,,,,,,,,792.53358643502,None,793.6332119465806,None,794.5666502648965,None,1.7095238095238094,1.1999818948097527,794.5666502648965,None,,,,,,,,,,,,,,,,,69,001,2023_Apr_13_1159,SpeechDraft1Carolyn_lessNoise_PlusLocalization,2021.2.3,59.982238027773235,
,,,,,,,,nearRight,6.5,0,ch1Sound_localizationTask.wav,6.5,"(1047, 878)","(87, -202)",95,-338,,,,,,,,,1,2,9,4,,,,,,,,,,,,,,,,,,,,,,,,,,,,,,,,,,,,,,,,,,,,795.7835895176977,None,796.8831573566422,None,797.816536298953,None,1.4761904761904763,1.499425380025059,797.816536298953,None,,,,,,,,,,,,,,,,,69,001,2023_Apr_13_1159,SpeechDraft1Carolyn_lessNoise_PlusLocalization,2021.2.3,59.982238027773235,
,,,,,,,,farLeft,-19.1,5,ch1Sound_localizationTask.wav,-19.1,"(667, 878)","(-293,-202)",-285,-338,,,,,,,,,1,3,10,0,,,,,,,,,,,,,,,,,,,,,,,,,,,,,,,,,,,,,,,,,,,,799.3183135078289,None,800.4331587497145,None,801.3501503719017,None,1.2089947089947088,1.3667529649101198,801.3501503719017,None,,,,,,,,,,,,,,,,,69,001,2023_Apr_13_1159,SpeechDraft1Carolyn_lessNoise_PlusLocalization,2021.2.3,59.982238027773235,
,,,,,,,,midRight,13.0,3,ch1Sound_localizationTask.wav,13.0,"(1142, 878)","(182, -202)",190,-338,,,,,,,,,1,4,11,5,,,,,,,,,,,,,,,,,,,,,,,,,,,,,,,,,,,,,,,,,,,,802.7180553418584,None,803.833303804975,None,804.7501302459277,None,1.664021164021164,1.2663073181174695,804.7501302459277,None,,,,,,,,,,,,,,,,,69,001,2023_Apr_13_1159,SpeechDraft1Carolyn_lessNoise_PlusLocalization,2021.2.3,59.982238027773235,
,,,,,,,,farLeft,-19.1,5,ch1Sound_localizationTask.wav,-19.1,"(667, 878)","(-293,-202)",-285,-338,,,,,,,,,1,5,12,0,,,,,,,,,,,,,,,,,,,,,,,,,,,,,,,,,,,,,,,,,,,,806.018938658759,None,807.133347551804,None,808.0500140627846,None,1.2798941798941799,1.2662216150201857,808.0500140627846,None,,,,,,,,,,,,,,,,,69,001,2023_Apr_13_1159,SpeechDraft1Carolyn_lessNoise_PlusLocalization,2021.2.3,59.982238027773235,
,,,,,,,,nearRight,6.5,0,ch1Sound_localizationTask.wav,6.5,"(1047, 878)","(87, -202)",95,-338,,,,,,,,,1,6,13,4,,,,,,,,,,,,,,,,,,,,,,,,,,,,,,,,,,,,,,,,,,,,809.3177898586728,None,810.4167224350385,None,811.3500757319853,None,1.5592592592592593,1.0828229519538581,811.3500757319853,None,,,,,,,,,,,,,,,,,69,001,2023_Apr_13_1159,SpeechDraft1Carolyn_lessNoise_PlusLocalization,2021.2.3,59.982238027773235,
,,,,,,,,nearLeft,-6.5,1,ch1Sound_localizationTask.wav,-6.5,"(857, 878)","(-103,-202)",-95,-338,,,,,,,,,2,0,14,2,,,,,,,,,,,,,,,,,,,,,,,,,,,,,,,,,,,,,,,,,,,,812.4341219495982,None,813.5332758938894,None,814.4667012379505,None,1.2693121693121694,1.0994851528666914,814.4667012379505,None,,,,,,,,,,,,,,,,,69,001,2023_Apr_13_1159,SpeechDraft1Carolyn_lessNoise_PlusLocalization,2021.2.3,59.982238027773235,
,,,,,,,,midRight,13.0,3,ch1Sound_localizationTask.wav,13.0,"(1142, 878)","(182, -202)",190,-338,,,,,,,,,2,1,15,5,,,,,,,,,,,,,,,,,,,,,,,,,,,,,,,,,,,,,,,,,,,,815.5681568370201,None,816.6833590730093,None,817.6000010068528,None,1.5862433862433862,1.3331455742008984,817.6000010068528,None,,,,,,,,,,,,,,,,,69,001,2023_Apr_13_1159,SpeechDraft1Carolyn_lessNoise_PlusLocalization,2021.2.3,59.982238027773235,
,,,,,,,,nearRight,6.5,0,ch1Sound_localizationTask.wav,6.5,"(1047, 878)","(87, -202)",95,-338,,,,,,,,,2,2,16,4,,,,,,,,,,,,,,,,,,,,,,,,,,,,,,,,,,,,,,,,,,,,818.9343070560135,None,820.0331975319423,None,820.9666565149091,None,1.426984126984127,1.166798735037446,820.9666565149091,None,,,,,,,,,,,,,,,,,69,001,2023_Apr_13_1159,SpeechDraft1Carolyn_lessNoise_PlusLocalization,2021.2.3,59.982238027773235,
,,,,,,,,midRight,13.0,3,ch1Sound_localizationTask.wav,13.0,"(1142, 878)","(182, -202)",190,-338,,,,,,,,,2,3,17,5,,,,,,,,,,,,,,,,,,,,,,,,,,,,,,,,,,,,,,,,,,,,822.1503624888137,None,823.2499869209714,None,824.1833402570337,None,1.5952380952380953,1.1149667669087648,824.1833402570337,None,,,,,,,,,,,,,,,,,69,001,2023_Apr_13_1159,SpeechDraft1Carolyn_lessNoise_PlusLocalization,2021.2.3,59.982238027773235,
,,,,,,,,midRight,13.0,3,ch1Sound_localizationTask.wav,13.0,"(1142, 878)","(182, -202)",190,-338,,,,,,,,,2,4,18,5,,,,,,,,,,,,,,,,,,,,,,,,,,,,,,,,,,,,,,,,,,,,825.300748819951,None,826.3999028489925,None,827.3333006957546,None,1.5571428571428572,1.3492586300708354,827.3333006957546,None,,,,,,,,,,,,,,,,,69,001,2023_Apr_13_1159,SpeechDraft1Carolyn_lessNoise_PlusLocalization,2021.2.3,59.982238027773235,
,,,,,,,,center,0.0,6,ch1Sound_localizationTask.wav,0.0,"(952, 878)","(-8,-202)",0,-338,,,,,,,,,2,5,19,3,,,,,,,,,,,,,,,,,,,,,,,,,,,,,,,,,,,,,,,,,,,,828.6843115775846,None,829.7832410857081,None,830.716742310673,None,1.3677248677248677,0.9830942009575665,830.716742310673,None,,,,,,,,,,,,,,,,,69,001,2023_Apr_13_1159,SpeechDraft1Carolyn_lessNoise_PlusLocalization,2021.2.3,59.982238027773235,
,,,,,,,,farRight,19.1,4,ch1Sound_localizationTask.wav,19.1,"(1237, 878)","(277,-202)",285,-338,,,,,,,,,2,6,20,6,,,,,,,,,,,,,,,,,,,,,,,,,,,,,,,,,,,,,,,,,,,,831.701236535795,None,832.8000003737397,None,833.7332431329414,None,1.6957671957671958,1.5999694340862334,833.7332431329414,None,,,,,,,,,,,,,,,,,69,001,2023_Apr_13_1159,SpeechDraft1Carolyn_lessNoise_PlusLocalization,2021.2.3,59.982238027773235,
,,,,,,,,midLeft,-13.0,2,ch1Sound_localizationTask.wav,-13.0,"(762, 878)","(-198,-202)",-190,-338,,,,,,,,,3,0,21,1,,,,,,,,,,,,,,,,,,,,,,,,,,,,,,,,,,,,,,,,,,,,835.3345384257846,None,836.4331924677826,None,837.3666916666552,None,1.1603174603174602,1.31726990127936,837.3666916666552,None,,,,,,,,,,,,,,,,,69,001,2023_Apr_13_1159,SpeechDraft1Carolyn_lessNoise_PlusLocalization,2021.2.3,59.982238027773235,
,,,,,,,,midRight,13.0,3,ch1Sound_localizationTask.wav,13.0,"(1142, 878)","(182, -202)",190,-338,,,,,,,,,3,1,22,5,,,,,,,,,,,,,,,,,,,,,,,,,,,,,,,,,,,,,,,,,,,,838.6847254526801,None,839.800247201696,None,840.7165941270068,None,1.655026455026455,1.2332533611916006,840.7165941270068,None,,,,,,,,,,,,,,,,,69,001,2023_Apr_13_1159,SpeechDraft1Carolyn_lessNoise_PlusLocalization,2021.2.3,59.982238027773235,
,,,,,,,,nearLeft,-6.5,1,ch1Sound_localizationTask.wav,-6.5,"(857, 878)","(-103,-202)",-95,-338,,,,,,,,,3,2,23,2,,,,,,,,,,,,,,,,,,,,,,,,,,,,,,,,,,,,,,,,,,,,841.9518199246377,None,843.0667753908783,None,843.9832834107801,None,1.3095238095238095,1.2827648520469666,843.9832834107801,None,,,,,,,,,,,,,,,,,69,001,2023_Apr_13_1159,SpeechDraft1Carolyn_lessNoise_PlusLocalization,2021.2.3,59.982238027773235,
,,,,,,,,nearLeft,-6.5,1,ch1Sound_localizationTask.wav,-6.5,"(857, 878)","(-103,-202)",-95,-338,,,,,,,,,3,3,24,2,,,,,,,,,,,,,,,,,,,,,,,,,,,,,,,,,,,,,,,,,,,,845.2837807107717,None,846.3833112209104,None,847.3166713877581,None,1.3052910052910054,1.7166274539195001,847.3166713877581,None,,,,,,,,,,,,,,,,,69,001,2023_Apr_13_1159,SpeechDraft1Carolyn_lessNoise_PlusLocalization,2021.2.3,59.982238027773235,
,,,,,,,,center,0.0,6,ch1Sound_localizationTask.wav,0.0,"(952, 878)","(-8,-202)",0,-338,,,,,,,,,3,4,25,3,,,,,,,,,,,,,,,,,,,,,,,,,,,,,,,,,,,,,,,,,,,,849.0344013785943,None,850.1334110526368,None,851.0667590526864,None,1.4248677248677248,0.9166051330976188,851.0667590526864,None,,,,,,,,,,,,,,,,,69,001,2023_Apr_13_1159,SpeechDraft1Carolyn_lessNoise_PlusLocalization,2021.2.3,59.982238027773235,
,,,,,,,,center,0.0,6,ch1Sound_localizationTask.wav,0.0,"(952, 878)","(-8,-202)",0,-338,,,,,,,,,3,5,26,3,,,,,,,,,,,,,,,,,,,,,,,,,,,,,,,,,,,,,,,,,,,,851.985047088936,None,853.1000054706819,None,854.0166197908111,None,1.51005291005291,0.8991304677911103,854.0166197908111,None,,,,,,,,,,,,,,,,,69,001,2023_Apr_13_1159,SpeechDraft1Carolyn_lessNoise_PlusLocalization,2021.2.3,59.982238027773235,
,,,,,,,,midLeft,-13.0,2,ch1Sound_localizationTask.wav,-13.0,"(762, 878)","(-198,-202)",-190,-338,,,,,,,,,3,6,27,1,,,,,,,,,,,,,,,,,,,,,,,,,,,,,,,,,,,,,,,,,,,,854.9179142829962,None,856.0166760506108,None,856.9499838836491,None,1.3264550264550263,0.7153437659144402,856.9499838836491,None,,,,,,,,,,,,,,,,,69,001,2023_Apr_13_1159,SpeechDraft1Carolyn_lessNoise_PlusLocalization,2021.2.3,59.982238027773235,
,,,,,,,,nearRight,6.5,0,ch1Sound_localizationTask.wav,6.5,"(1047, 878)","(87, -202)",95,-338,,,,,,,,,4,0,28,4,,,,,,,,,,,,,,,,,,,,,,,,,,,,,,,,,,,,,,,,,,,,857.6676005236804,None,858.7666228888556,None,859.7001361758448,None,1.3042328042328042,1.6333188372664154,859.7001361758448,None,,,,,,,,,,,,,,,,,69,001,2023_Apr_13_1159,SpeechDraft1Carolyn_lessNoise_PlusLocalization,2021.2.3,59.982238027773235,
,,,,,,,,farLeft,-19.1,5,ch1Sound_localizationTask.wav,-19.1,"(667, 878)","(-293,-202)",-285,-338,,,,,,,,,4,1,29,0,,,,,,,,,,,,,,,,,,,,,,,,,,,,,,,,,,,,,,,,,,,,861.3344833236188,None,862.433568240609,None,863.3668322470039,None,1.2164021164021164,1.0337412101216614,863.3668322470039,None,,,,,,,,,,,,,,,,,69,001,2023_Apr_13_1159,SpeechDraft1Carolyn_lessNoise_PlusLocalization,2021.2.3,59.982238027773235,
,,,,,,,,midLeft,-13.0,2,ch1Sound_localizationTask.wav,-13.0,"(762, 878)","(-198,-202)",-190,-338,,,,,,,,,4,2,30,1,,,,,,,,,,,,,,,,,,,,,,,,,,,,,,,,,,,,,,,,,,,,864.4171553966589,None,865.5167842088267,None,866.4501248449087,None,1.2063492063492065,1.433335229754448,866.4501248449087,None,,,,,,,,,,,,,,,,,69,001,2023_Apr_13_1159,SpeechDraft1Carolyn_lessNoise_PlusLocalization,2021.2.3,59.982238027773235,
,,,,,,,,midLeft,-13.0,2,ch1Sound_localizationTask.wav,-13.0,"(762, 878)","(-198,-202)",-190,-338,,,,,,,,,4,3,31,1,,,,,,,,,,,,,,,,,,,,,,,,,,,,,,,,,,,,,,,,,,,,867.8846798189916,None,868.9833222897723,None,869.9166857386008,None,1.2084656084656085,1.3824523999355733,869.9166857386008,None,,,,,,,,,,,,,,,,,69,001,2023_Apr_13_1159,SpeechDraft1Carolyn_lessNoise_PlusLocalization,2021.2.3,59.982238027773235,
,,,,,,,,farRight,19.1,4,ch1Sound_localizationTask.wav,19.1,"(1237, 878)","(277,-202)",285,-338,,,,,,,,,4,4,32,6,,,,,,,,,,,,,,,,,,,,,,,,,,,,,,,,,,,,,,,,,,,,871.3006001538597,None,872.4001047336496,None,873.3332419018261,None,1.7634920634920634,1.3660504911094904,873.3332419018261,None,,,,,,,,,,,,,,,,,69,001,2023_Apr_13_1159,SpeechDraft1Carolyn_lessNoise_PlusLocalization,2021.2.3,59.982238027773235,
,,,,,,,,center,0.0,6,ch1Sound_localizationTask.wav,0.0,"(952, 878)","(-8,-202)",0,-338,,,,,,,,,4,5,33,3,,,,,,,,,,,,,,,,,,,,,,,,,,,,,,,,,,,,,,,,,,,,874.7014889707789,None,875.8168688840233,None,876.733437079005,None,1.4576719576719577,0.7328746388666332,876.733437079005,None,,,,,,,,,,,,,,,,,69,001,2023_Apr_13_1159,SpeechDraft1Carolyn_lessNoise_PlusLocalization,2021.2.3,59.982238027773235,
,,,,,,,,center,0.0,6,ch1Sound_localizationTask.wav,0.0,"(952, 878)","(-8,-202)",0,-338,,,,,,,,,4,6,34,3,,,,,,,,,,,,,,,,,,,,,,,,,,,,,,,,,,,,,,,,,,,,877.4682487328537,None,878.5834901947528,None,879.49999353569,None,1.505820105820106,0.7655495819635689,879.49999353569,None,,,,,,,,,,,,,,,,,69,001,2023_Apr_13_1159,SpeechDraft1Carolyn_lessNoise_PlusLocalization,2021.2.3,59.982238027773235,
,,,,,,,,farLeft,-19.1,5,ch1Sound_localizationTask.wav,-19.1,"(667, 878)","(-293,-202)",-285,-338,,,,,,,,,5,0,35,0,,,,,,,,,,,,,,,,,,,,,,,,,,,,,,,,,,,,,,,,,,,,880.267328850925,None,881.366653657984,None,882.3000144995749,None,1.2984126984126985,0.7655344260856509,882.3000144995749,None,,,,,,,,,,,,,,,,,69,001,2023_Apr_13_1159,SpeechDraft1Carolyn_lessNoise_PlusLocalization,2021.2.3,59.982238027773235,
,,,,,,,,nearLeft,-6.5,1,ch1Sound_localizationTask.wav,-6.5,"(857, 878)","(-103,-202)",-95,-338,,,,,,,,,5,1,36,2,,,,,,,,,,,,,,,,,,,,,,,,,,,,,,,,,,,,,,,,,,,,883.0681737395935,None,884.1835198649205,None,885.100055617746,None,1.380952380952381,0.599399269092828,885.100055617746,None,,,,,,,,,,,,,,,,,69,001,2023_Apr_13_1159,SpeechDraft1Carolyn_lessNoise_PlusLocalization,2021.2.3,59.982238027773235,
,,,,,,,,midRight,13.0,3,ch1Sound_localizationTask.wav,13.0,"(1142, 878)","(182, -202)",190,-338,,,,,,,,,5,2,37,5,,,,,,,,,,,,,,,,,,,,,,,,,,,,,,,,,,,,,,,,,,,,885.7009243099019,None,886.8000101498328,None,887.7332704137079,None,1.6126984126984127,0.7496775817126036,887.7332704137079,None,,,,,,,,,,,,,,,,,69,001,2023_Apr_13_1159,SpeechDraft1Carolyn_lessNoise_PlusLocalization,2021.2.3,59.982238027773235,
,,,,,,,,center,0.0,6,ch1Sound_localizationTask.wav,0.0,"(952, 878)","(-8,-202)",0,-338,,,,,,,,,5,3,38,3,,,,,,,,,,,,,,,,,,,,,,,,,,,,,,,,,,,,,,,,,,,,888.4853177405894,None,889.5999848865904,None,890.5167467398569,None,1.4962962962962962,1.066789556760341,890.5167467398569,None,,,,,,,,,,,,,,,,,69,001,2023_Apr_13_1159,SpeechDraft1Carolyn_lessNoise_PlusLocalization,2021.2.3,59.982238027773235,
,,,,,,,,farLeft,-19.1,5,ch1Sound_localizationTask.wav,-19.1,"(667, 878)","(-293,-202)",-285,-338,,,,,,,,,5,4,39,0,,,,,,,,,,,,,,,,,,,,,,,,,,,,,,,,,,,,,,,,,,,,891.5849313158542,None,892.7001491119154,None,893.616724466905,None,1.3783068783068784,3.11757889483124,893.616724466905,None,,,,,,,,,,,,,,,,,69,001,2023_Apr_13_1159,SpeechDraft1Carolyn_lessNoise_PlusLocalization,2021.2.3,59.982238027773235,
,,,,,,,,midLeft,-13.0,2,ch1Sound_localizationTask.wav,-13.0,"(762, 878)","(-198,-202)",-190,-338,,,,,,,,,5,5,40,1,,,,,,,,,,,,,,,,,,,,,,,,,,,,,,,,,,,,,,,,,,,,896.7505696075968,None,897.8501290958375,None,898.7833656258881,None,1.2973544973544975,0.9168862700462341,898.7833656258881,None,,,,,,,,,,,,,,,,,69,001,2023_Apr_13_1159,SpeechDraft1Carolyn_lessNoise_PlusLocalization,2021.2.3,59.982238027773235,
,,,,,,,,nearRight,6.5,0,ch1Sound_localizationTask.wav,6.5,"(1047, 878)","(87, -202)",95,-338,,,,,,,,,5,6,41,4,,,,,,,,,,,,,,,,,,,,,,,,,,,,,,,,,,,,,,,,,,,,899.7016122560017,None,900.8167824856937,None,901.73340816563,None,1.5767195767195767,0.732676088809967,901.73340816563,None,,,,,,,,,,,,,,,,,69,001,2023_Apr_13_1159,SpeechDraft1Carolyn_lessNoise_PlusLocalization,2021.2.3,59.982238027773235,
,,,,,,,,nearRight,6.5,0,ch1Sound_localizationTask.wav,6.5,"(1047, 878)","(87, -202)",95,-338,,,,,,,,,6,0,42,4,,,,,,,,,,,,,,,,,,,,,,,,,,,,,,,,,,,,,,,,,,,,902.467628034763,None,903.56677247677,None,904.4999370309524,None,1.5074074074074075,0.5487420191057026,904.4999370309524,None,,,,,,,,,,,,,,,,,69,001,2023_Apr_13_1159,SpeechDraft1Carolyn_lessNoise_PlusLocalization,2021.2.3,59.982238027773235,
,,,,,,,,center,0.0,6,ch1Sound_localizationTask.wav,0.0,"(952, 878)","(-8,-202)",0,-338,,,,,,,,,6,1,43,3,,,,,,,,,,,,,,,,,,,,,,,,,,,,,,,,,,,,,,,,,,,,905.0509233507328,None,906.15009188978,None,907.0833729966544,None,1.4788359788359788,0.5160430208779871,907.0833729966544,None,,,,,,,,,,,,,,,,,69,001,2023_Apr_13_1159,SpeechDraft1Carolyn_lessNoise_PlusLocalization,2021.2.3,59.982238027773235,
,,,,,,,,farLeft,-19.1,5,ch1Sound_localizationTask.wav,-19.1,"(667, 878)","(-293,-202)",-285,-338,,,,,,,,,6,2,44,0,,,,,,,,,,,,,,,,,,,,,,,,,,,,,,,,,,,,,,,,,,,,907.601224557031,None,908.7001015869901,None,909.6334930467419,None,1.3042328042328042,0.6643259348347783,909.6334930467419,None,,,,,,,,,,,,,,,,,69,001,2023_Apr_13_1159,SpeechDraft1Carolyn_lessNoise_PlusLocalization,2021.2.3,59.982238027773235,
,,,,,,,,center,0.0,6,ch1Sound_localizationTask.wav,0.0,"(952, 878)","(-8,-202)",0,-338,,,,,,,,,6,3,45,3,,,,,,,,,,,,,,,,,,,,,,,,,,,,,,,,,,,,,,,,,,,,910.3009756905958,None,911.4000059426762,None,912.3333972808905,None,1.4666666666666668,0.8165571633726358,912.3333972808905,None,,,,,,,,,,,,,,,,,69,001,2023_Apr_13_1159,SpeechDraft1Carolyn_lessNoise_PlusLocalization,2021.2.3,59.982238027773235,
,,,,,,,,midRight,13.0,3,ch1Sound_localizationTask.wav,13.0,"(1142, 878)","(182, -202)",190,-338,,,,,,,,,6,4,46,5,,,,,,,,,,,,,,,,,,,,,,,,,,,,,,,,,,,,,,,,,,,,913.1518502309918,None,914.2667749100365,None,915.1834440426901,None,1.5063492063492063,2.116618090774864,915.1834440426901,None,,,,,,,,,,,,,,,,,69,001,2023_Apr_13_1159,SpeechDraft1Carolyn_lessNoise_PlusLocalization,2021.2.3,59.982238027773235,
,,,,,,,,nearLeft,-6.5,1,ch1Sound_localizationTask.wav,-6.5,"(857, 878)","(-103,-202)",-95,-338,,,,,,,,,6,5,47,2,,,,,,,,,,,,,,,,,,,,,,,,,,,,,,,,,,,,,,,,,,,,917.3171649207361,None,918.4168899459764,None,919.3500261115842,None,1.398941798941799,0.7163939187303185,919.3500261115842,None,,,,,,,,,,,,,,,,,69,001,2023_Apr_13_1159,SpeechDraft1Carolyn_lessNoise_PlusLocalization,2021.2.3,59.982238027773235,
,,,,,,,,midLeft,-13.0,2,ch1Sound_localizationTask.wav,-13.0,"(762, 878)","(-198,-202)",-190,-338,,,,,,,,,6,6,48,1,,,,,,,,,,,,,,,,,,,,,,,,,,,,,,,,,,,,,,,,,,,,920.0838209227659,None,921.1833776310086,None,922.1166935386136,None,1.3624338624338623,0.7328991731628776,922.1166935386136,None,,,,,,,,,,,,,,,,,69,001,2023_Apr_13_1159,SpeechDraft1Carolyn_lessNoise_PlusLocalization,2021.2.3,59.982238027773235,
,,,,,,,,nearLeft,-6.5,1,ch1Sound_localizationTask.wav,-6.5,"(857, 878)","(-103,-202)",-95,-338,,,,,,,,,7,0,49,2,,,,,,,,,,,,,,,,,,,,,,,,,,,,,,,,,,,,,,,,,,,,922.8515869029798,None,923.9668750618584,None,924.8835286907852,None,1.348148148148148,1.4155312227085233,924.8835286907852,None,,,,,,,,,,,,,,,,,69,001,2023_Apr_13_1159,SpeechDraft1Carolyn_lessNoise_PlusLocalization,2021.2.3,59.982238027773235,
,,,,,,,,farRight,19.1,4,ch1Sound_localizationTask.wav,19.1,"(1237, 878)","(277,-202)",285,-338,,,,,,,,,7,1,50,6,,,,,,,,,,,,,,,,,,,,,,,,,,,,,,,,,,,,,,,,,,,,926.3011729167774,None,927.4002220318653,None,928.3334045298398,None,1.6846560846560847,0.8838499682024121,928.3334045298398,None,,,,,,,,,,,,,,,,,69,001,2023_Apr_13_1159,SpeechDraft1Carolyn_lessNoise_PlusLocalization,2021.2.3,59.982238027773235,
,,,,,,,,farLeft,-19.1,5,ch1Sound_localizationTask.wav,-19.1,"(667, 878)","(-293,-202)",-285,-338,,,,,,,,,7,2,51,0,,,,,,,,,,,,,,,,,,,,,,,,,,,,,,,,,,,,,,,,,,,,929.2184521448798,None,930.3334313966334,None,931.2500435896218,None,1.2571428571428571,1.1155815366655588,931.2500435896218,None,,,,,,,,,,,,,,,,,69,001,2023_Apr_13_1159,SpeechDraft1Carolyn_lessNoise_PlusLocalization,2021.2.3,59.982238027773235,
,,,,,,,,farRight,19.1,4,ch1Sound_localizationTask.wav,19.1,"(1237, 878)","(277,-202)",285,-338,,,,,,,,,7,3,52,6,,,,,,,,,,,,,,,,,,,,,,,,,,,,,,,,,,,,,,,,,,,,932.3673045448959,None,933.4668891108595,None,934.4001694456674,None,1.7492063492063492,1.0187491346150637,934.4001694456674,None,,,,,,,,,,,,,,,,,69,001,2023_Apr_13_1159,SpeechDraft1Carolyn_lessNoise_PlusLocalization,2021.2.3,59.982238027773235,
,,,,,,,,farLeft,-19.1,5,ch1Sound_localizationTask.wav,-19.1,"(667, 878)","(-293,-202)",-285,-338,,,,,,,,,7,4,53,0,,,,,,,,,,,,,,,,,,,,,,,,,,,,,,,,,,,,,,,,,,,,935.4336791639216,None,936.5334899816662,None,937.4667518837377,None,1.25978835978836,1.5326915769837797,937.4667518837377,None,,,,,,,,,,,,,,,,,69,001,2023_Apr_13_1159,SpeechDraft1Carolyn_lessNoise_PlusLocalization,2021.2.3,59.982238027773235,
,,,,,,,,nearLeft,-6.5,1,ch1Sound_localizationTask.wav,-6.5,"(857, 878)","(-103,-202)",-95,-338,,,,,,,,,7,5,54,2,,,,,,,,,,,,,,,,,,,,,,,,,,,,,,,,,,,,,,,,,,,,939.0014885147102,None,940.1001839768142,None,941.0334346177988,None,1.3317460317460317,0.6824933788739145,941.0334346177988,None,,,,,,,,,,,,,,,,,69,001,2023_Apr_13_1159,SpeechDraft1Carolyn_lessNoise_PlusLocalization,2021.2.3,59.982238027773235,
,,,,,,,,nearRight,6.5,0,ch1Sound_localizationTask.wav,6.5,"(1047, 878)","(87, -202)",95,-338,,,,,,,,,7,6,55,4,,,,,,,,,,,,,,,,,,,,,,,,,,,,,,,,,,,,,,,,,,,,941.7178718107753,None,942.8168376218528,None,943.7500854795799,None,1.4523809523809523,0.8667467809282243,943.7500854795799,None,,,,,,,,,,,,,,,,,69,001,2023_Apr_13_1159,SpeechDraft1Carolyn_lessNoise_PlusLocalization,2021.2.3,59.982238027773235,
,,,,,,,,,,,,,,,,,,,,,,,,,,,,,,,,,,,,,,,,,,,,,,,,,,,,,,,,,,,,,,,,,,,,,,,,,,,,,,,,,,space,23.697207831777632,944.7004813728854,None,,,,,,,,,,,,,69,001,2023_Apr_13_1159,SpeechDraft1Carolyn_lessNoise_PlusLocalization,2021.2.3,59.982238027773235,
,,,,,,,,center,0.0,6,ch1Sound_localizationTask.wav,0.0,"(952, 878)","(-8,-202)",0,-338,,,,,,,,,,,,,0,0,0,3,,,,,,,,,,,,,,,,,,,,,,,,,,,,,,,,,,,,,,,,968.4335536928847,None,,,971.4669325295836,None,1.4936507936507937,3.8041938324458897,971.4669325295836,None,,,,,944.7004813728854,None,969.4337410298176,None,969.6171913058497,969.6338138766587,,,,,,,69,001,2023_Apr_13_1159,SpeechDraft1Carolyn_lessNoise_PlusLocalization,2021.2.3,59.982238027773235,
,,,,,,,,midLeft,-13.0,2,ch1Sound_localizationTask.wav,-13.0,"(762, 878)","(-198,-202)",-190,-338,,,,,,,,,,,,,0,1,1,1,,,,,,,,,,,,,,,,,,,,,,,,,,,,,,,,,,,,,,,,975.2835734556429,None,,,978.3001596387476,None,1.374074074074074,1.150588121265173,978.3001596387476,None,,,,,,,976.2838277886622,None,976.4672630918212,976.4837771076709,,,,,,,69,001,2023_Apr_13_1159,SpeechDraft1Carolyn_lessNoise_PlusLocalization,2021.2.3,59.982238027773235,
,,,,,,,,midRight,13.0,3,ch1Sound_localizationTask.wav,13.0,"(1142, 878)","(182, -202)",190,-338,,,,,,,,,,,,,0,2,2,5,,,,,,,,,,,,,,,,,,,,,,,,,,,,,,,,,,,,,,,,979.4670799258165,None,,,982.4835554258898,None,1.5989417989417989,0.9332206901162863,982.4835554258898,None,,,,,,,980.4673709357157,None,980.6504399119876,980.6671101530083,,,,,,,69,001,2023_Apr_13_1159,SpeechDraft1Carolyn_lessNoise_PlusLocalization,2021.2.3,59.982238027773235,
,,,,,,,,center,0.0,6,ch1Sound_localizationTask.wav,0.0,"(952, 878)","(-8,-202)",0,-338,,,,,,,,,,,,,0,3,3,3,,,,,,,,,,,,,,,,,,,,,,,,,,,,,,,,,,,,,,,,983.4338316279463,None,,,986.4502711636014,None,1.4962962962962962,0.7335625109262764,986.4502711636014,None,,,,,,,984.4338518539444,None,984.6172241959721,984.6338522876613,,,,,,,69,001,2023_Apr_13_1159,SpeechDraft1Carolyn_lessNoise_PlusLocalization,2021.2.3,59.982238027773235,
,,,,,,,,midRight,13.0,3,ch1Sound_localizationTask.wav,13.0,"(1142, 878)","(182, -202)",190,-338,,,,,,,,,,,,,0,4,4,5,,,,,,,,,,,,,,,,,,,,,,,,,,,,,,,,,,,,,,,,987.1852849419229,None,,,990.2169155627489,None,1.6153439153439153,1.0830254079774022,990.2169155627489,None,,,,,,,988.2006606189534,None,988.3837620317936,988.4005539049394,,,,,,,69,001,2023_Apr_13_1159,SpeechDraft1Carolyn_lessNoise_PlusLocalization,2021.2.3,59.982238027773235,
,,,,,,,,midLeft,-13.0,2,ch1Sound_localizationTask.wav,-13.0,"(762, 878)","(-198,-202)",-190,-338,,,,,,,,,,,,,0,5,5,1,,,,,,,,,,,,,,,,,,,,,,,,,,,,,,,,,,,,,,,,991.3017840590328,None,,,994.3335455586202,None,1.3894179894179894,0.9336304678581655,994.3335455586202,None,,,,,,,992.3171711908653,None,992.5005323616788,992.517200239934,,,,,,,69,001,2023_Apr_13_1159,SpeechDraft1Carolyn_lessNoise_PlusLocalization,2021.2.3,59.982238027773235,
,,,,,,,,midRight,13.0,3,ch1Sound_localizationTask.wav,13.0,"(1142, 878)","(182, -202)",190,-338,,,,,,,,,,,,,0,6,6,5,,,,,,,,,,,,,,,,,,,,,,,,,,,,,,,,,,,,,,,,995.267968209926,None,,,998.2833948126063,None,1.6042328042328042,1.298808473162353,998.2833948126063,None,,,,,,,996.2672089166008,None,996.4505680096336,996.4672937770374,,,,,,,69,001,2023_Apr_13_1159,SpeechDraft1Carolyn_lessNoise_PlusLocalization,2021.2.3,59.982238027773235,
,,,,,,,,midLeft,-13.0,2,ch1Sound_localizationTask.wav,-13.0,"(762, 878)","(-198,-202)",-190,-338,,,,,,,,,,,,,1,0,7,1,,,,,,,,,,,,,,,,,,,,,,,,,,,,,,,,,,,,,,,,999.5848720697686,None,,,1002.6002734387293,None,1.3698412698412699,1.1336887930519879,1002.6002734387293,None,,,,,,,1000.5838702777401,None,1000.7673117867671,1000.7838377538137,,,,,,,69,001,2023_Apr_13_1159,SpeechDraft1Carolyn_lessNoise_PlusLocalization,2021.2.3,59.982238027773235,
,,,,,,,,farRight,19.1,4,ch1Sound_localizationTask.wav,19.1,"(1237, 878)","(277,-202)",285,-338,,,,,,,,,,,,,1,1,8,6,,,,,,,,,,,,,,,,,,,,,,,,,,,,,,,,,,,,,,,,1003.7507085967809,None,,,1006.7668916149996,None,1.8534391534391534,6.682420779950917,1006.7668916149996,None,,,,,,,1004.7506298888475,None,1004.9339617700316,1004.9504221496172,,,,,,,69,001,2023_Apr_13_1159,SpeechDraft1Carolyn_lessNoise_PlusLocalization,2021.2.3,59.982238027773235,
,,,,,,,,farLeft,-19.1,5,ch1Sound_localizationTask.wav,-19.1,"(667, 878)","(-293,-202)",-285,-338,,,,,,,,,,,,,1,2,9,0,,,,,,,,,,,,,,,,,,,,,,,,,,,,,,,,,,,,,,,,1013.4511427828111,None,,,1016.4669897789136,None,1.3703703703703702,0.7163288029842079,1016.4669897789136,None,,,,,,,1014.4505078718066,None,1014.6338474629447,1014.6505396128632,,,,,,,69,001,2023_Apr_13_1159,SpeechDraft1Carolyn_lessNoise_PlusLocalization,2021.2.3,59.982238027773235,
,,,,,,,,nearLeft,-6.5,1,ch1Sound_localizationTask.wav,-6.5,"(857, 878)","(-103,-202)",-95,-338,,,,,,,,,,,,,1,3,10,2,,,,,,,,,,,,,,,,,,,,,,,,,,,,,,,,,,,,,,,,1017.1852837819606,None,,,1020.2168116727844,None,1.4507936507936507,0.8163781678304076,1020.2168116727844,None,,,,,,,1018.2004998140037,None,1018.3839600849897,1018.4005957106128,,,,,,,69,001,2023_Apr_13_1159,SpeechDraft1Carolyn_lessNoise_PlusLocalization,2021.2.3,59.982238027773235,
,,,,,,,,farRight,19.1,4,ch1Sound_localizationTask.wav,19.1,"(1237, 878)","(277,-202)",285,-338,,,,,,,,,,,,,1,4,11,6,,,,,,,,,,,,,,,,,,,,,,,,,,,,,,,,,,,,,,,,1021.0347217419185,None,,,1024.0503313397057,None,1.6582010582010582,0.8667971580289304,1024.0503313397057,None,,,,,,,1022.0340389600024,None,1022.2171304030344,1022.2340024965815,,,,,,,69,001,2023_Apr_13_1159,SpeechDraft1Carolyn_lessNoise_PlusLocalization,2021.2.3,59.982238027773235,
,,,,,,,,farLeft,-19.1,5,ch1Sound_localizationTask.wav,-19.1,"(667, 878)","(-293,-202)",-285,-338,,,,,,,,,,,,,1,5,12,0,,,,,,,,,,,,,,,,,,,,,,,,,,,,,,,,,,,,,,,,1024.9338760818355,None,,,1027.9501963197254,None,1.337037037037037,0.866498650982976,1027.9501963197254,None,,,,,,,1025.9338871068321,None,1026.1172177656554,1026.1339990948327,,,,,,,69,001,2023_Apr_13_1159,SpeechDraft1Carolyn_lessNoise_PlusLocalization,2021.2.3,59.982238027773235,
,,,,,,,,nearLeft,-6.5,1,ch1Sound_localizationTask.wav,-6.5,"(857, 878)","(-103,-202)",-95,-338,,,,,,,,,,,,,1,6,13,2,,,,,,,,,,,,,,,,,,,,,,,,,,,,,,,,,,,,,,,,1028.8186173937283,None,,,1031.8501989687793,None,1.4455026455026454,0.715283343102783,1031.8501989687793,None,,,,,,,1029.8339380519465,None,1030.0172074558213,1030.0338757317513,,,,,,,69,001,2023_Apr_13_1159,SpeechDraft1Carolyn_lessNoise_PlusLocalization,2021.2.3,59.982238027773235,
,,,,,,,,midRight,13.0,3,ch1Sound_localizationTask.wav,13.0,"(1142, 878)","(182, -202)",190,-338,,,,,,,,,,,,,2,0,14,5,,,,,,,,,,,,,,,,,,,,,,,,,,,,,,,,,,,,,,,,1032.5683936285786,None,,,1035.6002513798885,None,1.602116402116402,0.8648167639039457,1035.6002513798885,None,,,,,,,1033.583990254905,None,1033.7674699369818,1033.7838649889454,,,,,,,69,001,2023_Apr_13_1159,SpeechDraft1Carolyn_lessNoise_PlusLocalization,2021.2.3,59.982238027773235,
,,,,,,,,center,0.0,6,ch1Sound_localizationTask.wav,0.0,"(952, 878)","(-8,-202)",0,-338,,,,,,,,,,,,,2,1,15,3,,,,,,,,,,,,,,,,,,,,,,,,,,,,,,,,,,,,,,,,1036.4677186920308,None,,,1039.483534657862,None,1.5031746031746032,0.6656477400101721,1039.483534657862,None,,,,,,,1037.4672593367286,None,1037.6506513748318,1037.6672947779298,,,,,,,69,001,2023_Apr_13_1159,SpeechDraft1Carolyn_lessNoise_PlusLocalization,2021.2.3,59.982238027773235,
,,,,,,,,nearLeft,-6.5,1,ch1Sound_localizationTask.wav,-6.5,"(857, 878)","(-103,-202)",-95,-338,,,,,,,,,,,,,2,2,16,2,,,,,,,,,,,,,,,,,,,,,,,,,,,,,,,,,,,,,,,,1040.1514234850183,None,,,1043.1670221858658,None,1.4386243386243387,0.5993420882150531,1043.1670221858658,None,,,,,,,1041.1506529916078,None,1041.333893833682,1041.3507738537155,,,,,,,69,001,2023_Apr_13_1159,SpeechDraft1Carolyn_lessNoise_PlusLocalization,2021.2.3,59.982238027773235,
,,,,,,,,center,0.0,6,ch1Sound_localizationTask.wav,0.0,"(952, 878)","(-8,-202)",0,-338,,,,,,,,,,,,,2,3,17,3,,,,,,,,,,,,,,,,,,,,,,,,,,,,,,,,,,,,,,,,1043.7681370987557,None,,,1046.7837453568354,None,1.5015873015873016,1.0483800549991429,1046.7837453568354,None,,,,,,,1044.7672593537718,None,1044.9506823648699,1044.9672076730058,,,,,,,69,001,2023_Apr_13_1159,SpeechDraft1Carolyn_lessNoise_PlusLocalization,2021.2.3,59.982238027773235,
,,,,,,,,midLeft,-13.0,2,ch1Sound_localizationTask.wav,-13.0,"(762, 878)","(-198,-202)",-190,-338,,,,,,,,,,,,,2,4,18,1,,,,,,,,,,,,,,,,,,,,,,,,,,,,,,,,,,,,,,,,1047.834846755024,None,,,1050.850244847592,None,1.3835978835978837,0.8145597190596163,1050.850244847592,None,,,,,,,1048.8338487558067,None,1049.0172603838146,1049.033994412981,,,,,,,69,001,2023_Apr_13_1159,SpeechDraft1Carolyn_lessNoise_PlusLocalization,2021.2.3,59.982238027773235,
,,,,,,,,farLeft,-19.1,5,ch1Sound_localizationTask.wav,-19.1,"(667, 878)","(-293,-202)",-285,-338,,,,,,,,,,,,,2,5,19,0,,,,,,,,,,,,,,,,,,,,,,,,,,,,,,,,,,,,,,,,1051.6673747329041,None,,,1054.6835258258507,None,1.3592592592592592,0.7483283132314682,1054.6835258258507,None,,,,,,,1052.6671755546704,None,1052.8505623247474,1052.867269774899,,,,,,,69,001,2023_Apr_13_1159,SpeechDraft1Carolyn_lessNoise_PlusLocalization,2021.2.3,59.982238027773235,
,,,,,,,,center,0.0,6,ch1Sound_localizationTask.wav,0.0,"(952, 878)","(-8,-202)",0,-338,,,,,,,,,,,,,2,6,20,3,,,,,,,,,,,,,,,,,,,,,,,,,,,,,,,,,,,,,,,,1055.4348773388192,None,,,1058.4502266650088,None,1.5015873015873016,1.0828189048916101,1058.4502266650088,None,,,,,,,1056.434000978712,None,1056.6172426380217,1056.6339425039478,,,,,,,69,001,2023_Apr_13_1159,SpeechDraft1Carolyn_lessNoise_PlusLocalization,2021.2.3,59.982238027773235,
,,,,,,,,nearLeft,-6.5,1,ch1Sound_localizationTask.wav,-6.5,"(857, 878)","(-103,-202)",-95,-338,,,,,,,,,,,,,3,0,21,2,,,,,,,,,,,,,,,,,,,,,,,,,,,,,,,,,,,,,,,,1059.5357401906513,None,,,1062.5668956679292,None,1.4412698412698413,0.8492625067010522,1062.5668956679292,None,,,,,,,1060.5506612537429,None,1060.7339775729924,1060.7505515706725,,,,,,,69,001,2023_Apr_13_1159,SpeechDraft1Carolyn_lessNoise_PlusLocalization,2021.2.3,59.982238027773235,
,,,,,,,,center,0.0,6,ch1Sound_localizationTask.wav,0.0,"(952, 878)","(-8,-202)",0,-338,,,,,,,,,,,,,3,1,22,3,,,,,,,,,,,,,,,,,,,,,,,,,,,,,,,,,,,,,,,,1063.417982141953,None,,,1066.4336471888237,None,1.5084656084656085,1.0325643168762326,1066.4336471888237,None,,,,,,,1064.417257902678,None,1064.60065740766,1064.617272305768,,,,,,,69,001,2023_Apr_13_1159,SpeechDraft1Carolyn_lessNoise_PlusLocalization,2021.2.3,59.982238027773235,
,,,,,,,,nearLeft,-6.5,1,ch1Sound_localizationTask.wav,-6.5,"(857, 878)","(-103,-202)",-95,-338,,,,,,,,,,,,,3,2,23,2,,,,,,,,,,,,,,,,,,,,,,,,,,,,,,,,,,,,,,,,1067.4683326827362,None,,,1070.5003348006867,None,1.4402116402116403,0.5826444970443845,1070.5003348006867,None,,,,,,,1068.4839555006474,None,1068.667256989982,1068.683858667966,,,,,,,69,001,2023_Apr_13_1159,SpeechDraft1Carolyn_lessNoise_PlusLocalization,2021.2.3,59.982238027773235,
,,,,,,,,midLeft,-13.0,2,ch1Sound_localizationTask.wav,-13.0,"(762, 878)","(-198,-202)",-190,-338,,,,,,,,,,,,,3,3,24,1,,,,,,,,,,,,,,,,,,,,,,,,,,,,,,,,,,,,,,,,1071.0846566529945,None,,,1074.1003324766643,None,1.4068783068783068,0.6837622355669737,1074.1003324766643,None,,,,,,,1072.0839596996084,None,1072.2672944716178,1072.2841375358403,,,,,,,69,001,2023_Apr_13_1159,SpeechDraft1Carolyn_lessNoise_PlusLocalization,2021.2.3,59.982238027773235,
,,,,,,,,farLeft,-19.1,5,ch1Sound_localizationTask.wav,-19.1,"(667, 878)","(-293,-202)",-285,-338,,,,,,,,,,,,,3,4,25,0,,,,,,,,,,,,,,,,,,,,,,,,,,,,,,,,,,,,,,,,1074.8008648767136,None,,,1077.817089995835,None,1.3296296296296295,0.7159416018985212,1077.817089995835,None,,,,,,,1075.8005969077349,None,1075.9838679037057,1076.000682707876,,,,,,,69,001,2023_Apr_13_1159,SpeechDraft1Carolyn_lessNoise_PlusLocalization,2021.2.3,59.982238027773235,
,,,,,,,,nearLeft,-6.5,1,ch1Sound_localizationTask.wav,-6.5,"(857, 878)","(-103,-202)",-95,-338,,,,,,,,,,,,,3,5,26,2,,,,,,,,,,,,,,,,,,,,,,,,,,,,,,,,,,,,,,,,1078.5349707850255,None,,,1081.550297698006,None,1.4354497354497355,0.7150102802552283,1081.550297698006,None,,,,,,,1079.5343122589402,None,1079.7172964690253,1079.7339469487779,,,,,,,69,001,2023_Apr_13_1159,SpeechDraft1Carolyn_lessNoise_PlusLocalization,2021.2.3,59.982238027773235,
,,,,,,,,center,0.0,6,ch1Sound_localizationTask.wav,0.0,"(952, 878)","(-8,-202)",0,-338,,,,,,,,,,,,,3,6,27,3,,,,,,,,,,,,,,,,,,,,,,,,,,,,,,,,,,,,,,,,1082.2678136806935,None,,,1085.28370915493,None,1.4994708994708994,0.7666290760971606,1085.28370915493,None,,,,,,,1083.267452124972,None,1083.4506574538536,1083.4673610418104,,,,,,,69,001,2023_Apr_13_1159,SpeechDraft1Carolyn_lessNoise_PlusLocalization,2021.2.3,59.982238027773235,
,,,,,,,,nearRight,6.5,0,ch1Sound_localizationTask.wav,6.5,"(1047, 878)","(87, -202)",95,-338,,,,,,,,,,,,,4,0,28,4,,,,,,,,,,,,,,,,,,,,,,,,,,,,,,,,,,,,,,,,1086.0518234539777,None,,,1089.0835881126113,None,1.5497354497354499,0.8164442358538508,1089.0835881126113,None,,,,,,,1087.0672128647566,None,1087.2506281370297,1087.2671857527457,,,,,,,69,001,2023_Apr_13_1159,SpeechDraft1Carolyn_lessNoise_PlusLocalization,2021.2.3,59.982238027773235,
,,,,,,,,farLeft,-19.1,5,ch1Sound_localizationTask.wav,-19.1,"(667, 878)","(-293,-202)",-285,-338,,,,,,,,,,,,,4,1,29,0,,,,,,,,,,,,,,,,,,,,,,,,,,,,,,,,,,,,,,,,1089.9172391388565,None,,,1092.9338112990372,None,1.3391534391534392,1.7493356801569462,1092.9338112990372,None,,,,,,,1090.917393651791,None,1091.1005778945982,1091.1174022057094,,,,,,,69,001,2023_Apr_13_1159,SpeechDraft1Carolyn_lessNoise_PlusLocalization,2021.2.3,59.982238027773235,
,,,,,,,,midRight,13.0,3,ch1Sound_localizationTask.wav,13.0,"(1142, 878)","(182, -202)",190,-338,,,,,,,,,,,,,4,2,30,5,,,,,,,,,,,,,,,,,,,,,,,,,,,,,,,,,,,,,,,,1094.7007594108582,None,,,1097.7167325499468,None,1.5973544973544973,0.7984014321118593,1097.7167325499468,None,,,,,,,1095.7007413567044,None,1095.884007179644,1095.900598286651,,,,,,,69,001,2023_Apr_13_1159,SpeechDraft1Carolyn_lessNoise_PlusLocalization,2021.2.3,59.982238027773235,
,,,,,,,,nearRight,6.5,0,ch1Sound_localizationTask.wav,6.5,"(1047, 878)","(87, -202)",95,-338,,,,,,,,,,,,,4,3,31,4,,,,,,,,,,,,,,,,,,,,,,,,,,,,,,,,,,,,,,,,1098.517937048804,None,,,1101.5337160485797,None,1.5513227513227514,0.9158931458368897,1101.5337160485797,None,,,,,,,1099.5173514969647,None,1099.7006889767945,1099.7172765126452,,,,,,,69,001,2023_Apr_13_1159,SpeechDraft1Carolyn_lessNoise_PlusLocalization,2021.2.3,59.982238027773235,
,,,,,,,,nearRight,6.5,0,ch1Sound_localizationTask.wav,6.5,"(1047, 878)","(87, -202)",95,-338,,,,,,,,,,,,,4,4,32,4,,,,,,,,,,,,,,,,,,,,,,,,,,,,,,,,,,,,,,,,1102.4511423418298,None,,,1105.4670662316494,None,1.5507936507936508,1.0993002159520984,1105.4670662316494,None,,,,,,,1103.450609256979,None,1103.6340146209113,1103.6505771847442,,,,,,,69,001,2023_Apr_13_1159,SpeechDraft1Carolyn_lessNoise_PlusLocalization,2021.2.3,59.982238027773235,
,,,,,,,,midLeft,-13.0,2,ch1Sound_localizationTask.wav,-13.0,"(762, 878)","(-198,-202)",-190,-338,,,,,,,,,,,,,4,5,33,1,,,,,,,,,,,,,,,,,,,,,,,,,,,,,,,,,,,,,,,,1106.5684236567467,None,,,1109.6003435137682,None,1.3783068783068784,0.6830053492449224,1109.6003435137682,None,,,,,,,1107.583932369016,None,1107.7673264136538,1107.7839486608282,,,,,,,69,001,2023_Apr_13_1159,SpeechDraft1Carolyn_lessNoise_PlusLocalization,2021.2.3,59.982238027773235,
,,,,,,,,farRight,19.1,4,ch1Sound_localizationTask.wav,19.1,"(1237, 878)","(277,-202)",285,-338,,,,,,,,,,,,,4,6,34,6,,,,,,,,,,,,,,,,,,,,,,,,,,,,,,,,,,,,,,,,1110.284934493713,None,,,1113.3002226026729,None,1.664021164021164,0.9486038400791585,1113.3002226026729,None,,,,,,,1111.2840134669095,None,1111.4673656476662,1111.4841358466074,,,,,,,69,001,2023_Apr_13_1159,SpeechDraft1Carolyn_lessNoise_PlusLocalization,2021.2.3,59.982238027773235,
,,,,,,,,farRight,19.1,4,ch1Sound_localizationTask.wav,19.1,"(1237, 878)","(277,-202)",285,-338,,,,,,,,,,,,,5,0,35,6,,,,,,,,,,,,,,,,,,,,,,,,,,,,,,,,,,,,,,,,1114.2510953838937,None,,,1117.2670853016898,None,1.643915343915344,1.0653247642330825,1117.2670853016898,None,,,,,,,1115.2506660916843,None,1115.4341210117564,1115.4505786537193,,,,,,,69,001,2023_Apr_13_1159,SpeechDraft1Carolyn_lessNoise_PlusLocalization,2021.2.3,59.982238027773235,
,,,,,,,,midLeft,-13.0,2,ch1Sound_localizationTask.wav,-13.0,"(762, 878)","(-198,-202)",-190,-338,,,,,,,,,,,,,5,1,36,1,,,,,,,,,,,,,,,,,,,,,,,,,,,,,,,,,,,,,,,,1118.3342940076254,None,,,1121.3503058287315,None,1.3846560846560847,1.399477721657604,1121.3503058287315,None,,,,,,,1119.3342811116017,None,1119.517375427764,1119.534030623734,,,,,,,69,001,2023_Apr_13_1159,SpeechDraft1Carolyn_lessNoise_PlusLocalization,2021.2.3,59.982238027773235,
,,,,,,,,center,0.0,6,ch1Sound_localizationTask.wav,0.0,"(952, 878)","(-8,-202)",0,-338,,,,,,,,,,,,,5,2,37,3,,,,,,,,,,,,,,,,,,,,,,,,,,,,,,,,,,,,,,,,1122.7520563360304,None,,,1125.7836961867288,None,1.5042328042328044,0.78283780394122,1125.7836961867288,None,,,,,,,1123.7673032898456,None,1123.950745604001,1123.9673525230028,,,,,,,69,001,2023_Apr_13_1159,SpeechDraft1Carolyn_lessNoise_PlusLocalization,2021.2.3,59.982238027773235,
,,,,,,,,farRight,19.1,4,ch1Sound_localizationTask.wav,19.1,"(1237, 878)","(277,-202)",285,-338,,,,,,,,,,,,,5,3,38,6,,,,,,,,,,,,,,,,,,,,,,,,,,,,,,,,,,,,,,,,1126.5679818857461,None,,,1129.5838846629485,None,1.6693121693121693,1.0843387809582055,1129.5838846629485,None,,,,,,,1127.5674669728614,None,1127.750878514722,1127.7674747477286,,,,,,,69,001,2023_Apr_13_1159,SpeechDraft1Carolyn_lessNoise_PlusLocalization,2021.2.3,59.982238027773235,
,,,,,,,,farLeft,-19.1,5,ch1Sound_localizationTask.wav,-19.1,"(667, 878)","(-293,-202)",-285,-338,,,,,,,,,,,,,5,4,39,0,,,,,,,,,,,,,,,,,,,,,,,,,,,,,,,,,,,,,,,,1130.6842038496397,None,,,1133.7002927516587,None,1.3582010582010582,1.1832116437144578,1133.7002927516587,None,,,,,,,1131.6839974666946,None,1131.8674162528478,1131.8840182637796,,,,,,,69,001,2023_Apr_13_1159,SpeechDraft1Carolyn_lessNoise_PlusLocalization,2021.2.3,59.982238027773235,
,,,,,,,,farLeft,-19.1,5,ch1Sound_localizationTask.wav,-19.1,"(667, 878)","(-293,-202)",-285,-338,,,,,,,,,,,,,5,5,40,0,,,,,,,,,,,,,,,,,,,,,,,,,,,,,,,,,,,,,,,,1134.8850458096713,None,,,1137.9004271510057,None,1.3703703703703702,0.6834123102016747,1137.9004271510057,None,,,,,,,1135.884161636699,None,1136.0672882837243,1136.0840520346537,,,,,,,69,001,2023_Apr_13_1159,SpeechDraft1Carolyn_lessNoise_PlusLocalization,2021.2.3,59.982238027773235,
,,,,,,,,nearRight,6.5,0,ch1Sound_localizationTask.wav,6.5,"(1047, 878)","(87, -202)",95,-338,,,,,,,,,,,,,5,6,41,4,,,,,,,,,,,,,,,,,,,,,,,,,,,,,,,,,,,,,,,,1138.6006987406872,None,,,1141.6171087059192,None,1.5507936507936508,0.9333162782713771,1141.6171087059192,None,,,,,,,1139.6007243427448,None,1139.7840176238678,1139.8008381146938,,,,,,,69,001,2023_Apr_13_1159,SpeechDraft1Carolyn_lessNoise_PlusLocalization,2021.2.3,59.982238027773235,
,,,,,,,,farRight,19.1,4,ch1Sound_localizationTask.wav,19.1,"(1237, 878)","(277,-202)",285,-338,,,,,,,,,,,,,6,0,42,6,,,,,,,,,,,,,,,,,,,,,,,,,,,,,,,,,,,,,,,,1142.567361956928,None,,,1145.5838449648581,None,1.6507936507936507,0.8488441738300025,1145.5838449648581,None,,,,,,,1143.5674901176244,None,1143.7507416890003,1143.7675881716423,,,,,,,69,001,2023_Apr_13_1159,SpeechDraft1Carolyn_lessNoise_PlusLocalization,2021.2.3,59.982238027773235,
,,,,,,,,farRight,19.1,4,ch1Sound_localizationTask.wav,19.1,"(1237, 878)","(277,-202)",285,-338,,,,,,,,,,,,,6,1,43,6,,,,,,,,,,,,,,,,,,,,,,,,,,,,,,,,,,,,,,,,1146.435293638613,None,,,1149.467102468945,None,1.6513227513227513,0.4993160208687186,1149.467102468945,None,,,,,,,1147.4506658087485,None,1147.6340327155776,1147.6506841438822,,,,,,,69,001,2023_Apr_13_1159,SpeechDraft1Carolyn_lessNoise_PlusLocalization,2021.2.3,59.982238027773235,
,,,,,,,,farLeft,-19.1,5,ch1Sound_localizationTask.wav,-19.1,"(667, 878)","(-293,-202)",-285,-338,,,,,,,,,,,,,6,2,44,0,,,,,,,,,,,,,,,,,,,,,,,,,,,,,,,,,,,,,,,,1149.9842745219357,None,,,1153.0003565656953,None,1.3460317460317461,0.767887404654175,1153.0003565656953,None,,,,,,,1150.9840460158885,None,1151.1674074227922,1151.1840226058848,,,,,,,69,001,2023_Apr_13_1159,SpeechDraft1Carolyn_lessNoise_PlusLocalization,2021.2.3,59.982238027773235,
,,,,,,,,nearLeft,-6.5,1,ch1Sound_localizationTask.wav,-6.5,"(857, 878)","(-103,-202)",-95,-338,,,,,,,,,,,,,6,3,45,2,,,,,,,,,,,,,,,,,,,,,,,,,,,,,,,,,,,,,,,,1153.7840581969358,None,,,1156.8003129558638,None,1.4597883597883599,0.6652182517573237,1156.8003129558638,None,,,,,,,1154.784265534021,None,1154.9673541937955,1154.9840962029994,,,,,,,69,001,2023_Apr_13_1159,SpeechDraft1Carolyn_lessNoise_PlusLocalization,2021.2.3,59.982238027773235,
,,,,,,,,farRight,19.1,4,ch1Sound_localizationTask.wav,19.1,"(1237, 878)","(277,-202)",285,-338,,,,,,,,,,,,,6,4,46,6,,,,,,,,,,,,,,,,,,,,,,,,,,,,,,,,,,,,,,,,1157.4680501050316,None,,,1160.4837074638344,None,1.6544973544973545,0.8661024789325893,1160.4837074638344,None,,,,,,,1158.467506825924,None,1158.650958839804,1158.6675199717283,,,,,,,69,001,2023_Apr_13_1159,SpeechDraft1Carolyn_lessNoise_PlusLocalization,2021.2.3,59.982238027773235,
,,,,,,,,midRight,13.0,3,ch1Sound_localizationTask.wav,13.0,"(1142, 878)","(182, -202)",190,-338,,,,,,,,,,,,,6,5,47,5,,,,,,,,,,,,,,,,,,,,,,,,,,,,,,,,,,,,,,,,1161.3521436830051,None,,,1164.383920736611,None,1.6026455026455027,0.6822699191980064,1164.383920736611,None,,,,,,,1162.3673987207003,None,1162.5508510107175,1162.5675071626902,,,,,,,69,001,2023_Apr_13_1159,SpeechDraft1Carolyn_lessNoise_PlusLocalization,2021.2.3,59.982238027773235,
,,,,,,,,midRight,13.0,3,ch1Sound_localizationTask.wav,13.0,"(1142, 878)","(182, -202)",190,-338,,,,,,,,,,,,,6,6,48,5,,,,,,,,,,,,,,,,,,,,,,,,,,,,,,,,,,,,,,,,1165.0682903747074,None,,,1168.0837326156907,None,1.5835978835978834,0.5656354292295873,1168.0837326156907,None,,,,,,,1166.0675233518705,None,1166.2508605206385,1166.2673968928866,,,,,,,69,001,2023_Apr_13_1159,SpeechDraft1Carolyn_lessNoise_PlusLocalization,2021.2.3,59.982238027773235,
,,,,,,,,midRight,13.0,3,ch1Sound_localizationTask.wav,13.0,"(1142, 878)","(182, -202)",190,-338,,,,,,,,,,,,,7,0,49,5,,,,,,,,,,,,,,,,,,,,,,,,,,,,,,,,,,,,,,,,1168.6523355017416,None,,,1171.6838155607693,None,1.597883597883598,0.5996394017711282,1171.6838155607693,None,,,,,,,1169.667484136764,None,1169.8508060886525,1169.8675014339387,,,,,,,69,001,2023_Apr_13_1159,SpeechDraft1Carolyn_lessNoise_PlusLocalization,2021.2.3,59.982238027773235,
,,,,,,,,midLeft,-13.0,2,ch1Sound_localizationTask.wav,-13.0,"(762, 878)","(-198,-202)",-190,-338,,,,,,,,,,,,,7,1,50,1,,,,,,,,,,,,,,,,,,,,,,,,,,,,,,,,,,,,,,,,1172.3007245799527,None,,,1175.3170776558109,None,1.3931216931216932,0.8161182501353323,1175.3170776558109,None,,,,,,,1173.300782895647,None,1173.4843376348726,1173.5007706098258,,,,,,,69,001,2023_Apr_13_1159,SpeechDraft1Carolyn_lessNoise_PlusLocalization,2021.2.3,59.982238027773235,
,,,,,,,,nearRight,6.5,0,ch1Sound_localizationTask.wav,6.5,"(1047, 878)","(87, -202)",95,-338,,,,,,,,,,,,,7,2,51,4,,,,,,,,,,,,,,,,,,,,,,,,,,,,,,,,,,,,,,,,1176.1362315556034,None,,,1179.1675908518955,None,1.5597883597883597,0.9316000482067466,1179.1675908518955,None,,,,,,,1177.150792512577,None,1177.334224389866,1177.3508156267926,,,,,,,69,001,2023_Apr_13_1159,SpeechDraft1Carolyn_lessNoise_PlusLocalization,2021.2.3,59.982238027773235,
,,,,,,,,nearLeft,-6.5,1,ch1Sound_localizationTask.wav,-6.5,"(857, 878)","(-103,-202)",-95,-338,,,,,,,,,,,,,7,3,52,2,,,,,,,,,,,,,,,,,,,,,,,,,,,,,,,,,,,,,,,,1180.1014807866886,None,,,1183.1171622867696,None,1.4523809523809523,0.8664486594498158,1183.1171622867696,None,,,,,,,1181.1007449380122,None,1181.2841120688245,1181.300785318017,,,,,,,69,001,2023_Apr_13_1159,SpeechDraft1Carolyn_lessNoise_PlusLocalization,2021.2.3,59.982238027773235,
,,,,,,,,nearRight,6.5,0,ch1Sound_localizationTask.wav,6.5,"(1047, 878)","(87, -202)",95,-338,,,,,,,,,,,,,7,4,53,4,,,,,,,,,,,,,,,,,,,,,,,,,,,,,,,,,,,,,,,,1184.0007508667186,None,,,1187.0171410297044,None,1.5544973544973546,0.9488976201973855,1187.0171410297044,None,,,,,,,1185.00068873493,None,1185.1840669466183,1185.2010248196311,,,,,,,69,001,2023_Apr_13_1159,SpeechDraft1Carolyn_lessNoise_PlusLocalization,2021.2.3,59.982238027773235,
,,,,,,,,nearRight,6.5,0,ch1Sound_localizationTask.wav,6.5,"(1047, 878)","(87, -202)",95,-338,,,,,,,,,,,,,7,5,54,4,,,,,,,,,,,,,,,,,,,,,,,,,,,,,,,,,,,,,,,,1187.9682858968154,None,,,1190.9837106466293,None,1.5497354497354499,0.46563961170613766,1190.9837106466293,None,,,,,,,1188.9674483849667,None,1189.1508258855902,1189.1675218059681,,,,,,,69,001,2023_Apr_13_1159,SpeechDraft1Carolyn_lessNoise_PlusLocalization,2021.2.3,59.982238027773235,
,,,,,,,,nearRight,6.5,0,ch1Sound_localizationTask.wav,6.5,"(1047, 878)","(87, -202)",95,-338,,,,,,,,,,,,,7,6,55,4,,,,,,,,,,,,,,,,,,,,,,,,,,,,,,,,,,,,,,,,1191.4511983529665,None,,,1194.4671791368164,None,1.5513227513227514,1.1655261111445725,1194.4671791368164,None,,,,,,,1192.4507441436872,None,1192.6342763919383,1192.6509249266237,,,,,,,69,001,2023_Apr_13_1159,SpeechDraft1Carolyn_lessNoise_PlusLocalization,2021.2.3,59.982238027773235,
,,,,,,,,,,,,,,,,,,,,,,,,,,,,,,,,,,,,,,,,,,,,,,,,,,,,,,,,,,,,,,,,,,,,,,,,,,,,,,,,,,,,,,,,,,,,1195.6348183797672,None,c,6509.612390256021,1196.617338041775,None,69,001,2023_Apr_13_1159,SpeechDraft1Carolyn_lessNoise_PlusLocalization,2021.2.3,59.982238027773235,
