Audio_Only_Files,Video_Files,Original_Word_List,noiseLevelCode,conditionCodes,noiseLevelFile1,noiseLevelFile2,InstrTextVar,targetSpeakerName,targetSpeakerEccen,targetSpkrChannel,targetSpkrSound,targetVisualDegrees,visStimLoc,visStimLoc2,visStimW,visStimH,practiceTrials.thisRepN,practiceTrials.thisTrialN,practiceTrials.thisN,practiceTrials.thisIndex,trials.thisRepN,trials.thisTrialN,trials.thisN,trials.thisIndex,audLocalLoop.thisRepN,audLocalLoop.thisTrialN,audLocalLoop.thisN,audLocalLoop.thisIndex,visualLocalLoop.thisRepN,visualLocalLoop.thisTrialN,visualLocalLoop.thisN,visualLocalLoop.thisIndex,letsGoAlready.keys,letsGoAlready.rt,letsGoAlready.started,letsGoAlready.stopped,text_2.started,text_2.stopped,text_3.started,text_3.stopped,key_resp_2.keys,key_resp_2.rt,key_resp_2.started,key_resp_2.stopped,text_5.started,text_5.stopped,fixCross.started,fixCross.stopped,fixCross2.started,fixCross2.stopped,answerPrompt.started,answerPrompt.stopped,getAnswer.text,getAnswer.started,getAnswer.stopped,goToNext.keys,goToNext.rt,goToNext.started,goToNext.stopped,stretchBreakTxrt.started,stretchBreakTxrt.stopped,key_resp_3.keys,key_resp_3.rt,key_resp_3.started,key_resp_3.stopped,letsGoLocal.keys,letsGoLocal.rt,letsGoLocal.started,letsGoLocal.stopped,text_4.started,text_4.stopped,prepFixTxt.started,prepFixTxt.stopped,prepFixTxt_2.started,prepFixTxt_2.stopped,respPromptLocal.started,respPromptLocal.stopped,slider.response,slider.rt,slider.started,slider.stopped,letsGoLocal_2.keys,letsGoLocal_2.rt,letsGoLocal_2.started,letsGoLocal_2.stopped,text_7.started,text_7.stopped,prepFixTxt_3.started,prepFixTxt_3.stopped,grating.started,grating.stopped,exitTxt.started,exitTxt.stopped,key_resp.keys,key_resp.rt,key_resp.started,key_resp.stopped,participant,session,date,expName,psychopyVersion,frameRate,
,,,,,,,,,,,,,,,,,,,,,,,,,,,,,,,,,space,16.659655072260648,28.67341559799388,None,,,,,,,,,,,,,,,,,,,,,,,,,,,,,,,,,,,,,,,,,,,,,,,,,,,,,,,,,,,,,,70,001,2023_Apr_13_1411,SpeechDraft1Carolyn_lessNoise_PlusLocalization,2021.2.3,59.988618082173716,
,,,,,,,,,,,,,,,,,,,,,,,,,,,,,,,,,,,,,28.67341559799388,None,45.456686223857105,None,space,8.612981250043958,45.64015366975218,None,,,,,,,,,,,,,,,,,,,,,,,,,,,,,,,,,,,,,,,,,,,,,,,,,,,,,,70,001,2023_Apr_13_1411,SpeechDraft1Carolyn_lessNoise_PlusLocalization,2021.2.3,59.988618082173716,
ash.wav,ash.mpg,ash,1,A,Pink_Noise_1_1.wav,Pink_Noise_1_2.wav,"This is an example of an

AUDIO trial",,,,,,,,,,0,0,0,0,,,,,,,,,,,,,,,,,,,,,,,,,54.29050319362432,None,55.29009675281122,None,58.52331041684374,None,59.89028047490865,None,eatch,59.89028047490865,None,return,10.111511418130249,59.97353547299281,None,,,,,,,,,,,,,,,,,,,,,,,,,,,,,,,,,,,,,,,70,001,2023_Apr_13_1411,SpeechDraft1Carolyn_lessNoise_PlusLocalization,2021.2.3,59.988618082173716,
ash.wav,ash.mpg,ash,1,AV,Pink_Noise_1_1.wav,Pink_Noise_1_2.wav,"This is an example of an

AUDIO + VIDEO  trial",,,,,,,,,,0,1,1,1,,,,,,,,,,,,,,,,,,,,,,,,,70.12324759969488,None,71.1237378558144,None,72.60661092866212,None,73.99020510073751,None,"eash
",73.99020510073751,None,return,8.083566221874207,74.0734774088487,None,,,,,,,,,,,,,,,,,,,,,,,,,,,,,,,,,,,,,,,70,001,2023_Apr_13_1411,SpeechDraft1Carolyn_lessNoise_PlusLocalization,2021.2.3,59.988618082173716,
,,,,,,,,,,,,,,,,,,,,,,,,,,,,,,,,,,,,,,,,,,,,,,,,,,,,,,,,,,,,82.20665002800524,None,space,20.51081520272419,82.39024580363184,None,,,,,,,,,,,,,,,,,,,,,,,,,,,,,,,,,70,001,2023_Apr_13_1411,SpeechDraft1Carolyn_lessNoise_PlusLocalization,2021.2.3,59.988618082173716,
bib.wav,bib.mpg,bib,4,A,Pink_Noise_4_1.wav,Pink_Noise_4_2.wav,,,,,,,,,,,,,,,0,0,0,51,,,,,,,,,,,,,,,,,,,,,,,102.9565157936886,None,104.44003603467718,None,105.8235772405751,None,bib,105.8235772405751,None,return,5.682229932863265,105.9069426287897,None,,,,,,,,,,,,,,,,,,,,,,,,,,,,,,,,,,,,,,,70,001,2023_Apr_13_1411,SpeechDraft1Carolyn_lessNoise_PlusLocalization,2021.2.3,59.988618082173716,
dog.wav,dog.mpg,dog,2,A,Pink_Noise_2_1.wav,Pink_Noise_2_2.wav,,,,,,,,,,,,,,,0,1,1,16,,,,,,,,,,,,,,,,,,,,,,,111.60703020589426,None,113.106540273875,None,114.49026483297348,None,dog,114.49026483297348,None,return,8.711377741303295,114.57365927379578,None,,,,,,,,,,,,,,,,,,,,,,,,,,,,,,,,,,,,,,,70,001,2023_Apr_13_1411,SpeechDraft1Carolyn_lessNoise_PlusLocalization,2021.2.3,59.988618082173716,
squat.wav,squat.mpg,squat,6,AV,Pink_Noise_6_1.wav,Pink_Noise_6_2.wav,,,,,,,,,,,,,,,0,2,2,68,,,,,,,,,,,,,,,,,,,,,,,123.30697057489306,None,124.80658870795742,None,126.19036610983312,None,swa[,126.19036610983312,None,return,2.7715380927547812,126.27361935656518,None,,,,,,,,,,,,,,,,,,,,,,,,,,,,,,,,,,,,,,,70,001,2023_Apr_13_1411,SpeechDraft1Carolyn_lessNoise_PlusLocalization,2021.2.3,59.988618082173716,
bone.wav,bone.mpg,bone,1,AV,Pink_Noise_1_1.wav,Pink_Noise_1_2.wav,,,,,,,,,,,,,,,0,3,3,97,,,,,,,,,,,,,,,,,,,,,,,129.07366736093536,None,130.57326567778364,None,131.95690564857796,None,bone,131.95690564857796,None,return,4.260626363102347,132.04040757287294,None,,,,,,,,,,,,,,,,,,,,,,,,,,,,,,,,,,,,,,,70,001,2023_Apr_13_1411,SpeechDraft1Carolyn_lessNoise_PlusLocalization,2021.2.3,59.988618082173716,
card.wav,card.mpg,card,6,A,Pink_Noise_6_1.wav,Pink_Noise_6_2.wav,,,,,,,,,,,,,,,0,4,4,5,,,,,,,,,,,,,,,,,,,,,,,136.3235754808411,None,137.8071927386336,None,139.19034540560097,None,"art
",139.19034540560097,None,return,2.2354422863572836,139.27360605588183,None,,,,,,,,,,,,,,,,,,,,,,,,,,,,,,,,,,,,,,,70,001,2023_Apr_13_1411,SpeechDraft1Carolyn_lessNoise_PlusLocalization,2021.2.3,59.988618082173716,
grave.wav,grave.mpg,grave,1,AV,Pink_Noise_1_1.wav,Pink_Noise_1_2.wav,,,,,,,,,,,,,,,0,5,5,104,,,,,,,,,,,,,,,,,,,,,,,141.5402757995762,None,143.0248552719131,None,144.40689484775066,None,"grave
",144.40689484775066,None,return,8.266597582027316,144.4904397786595,None,,,,,,,,,,,,,,,,,,,,,,,,,,,,,,,,,,,,,,,70,001,2023_Apr_13_1411,SpeechDraft1Carolyn_lessNoise_PlusLocalization,2021.2.3,59.988618082173716,
cycle.wav,cycle.mpg,cycle,6,AV,Pink_Noise_6_1.wav,Pink_Noise_6_2.wav,,,,,,,,,,,,,,,0,6,6,63,,,,,,,,,,,,,,,,,,,,,,,152.7903088037856,None,154.29013551957905,None,155.67367449682206,None,lighter,155.67367449682206,None,return,10.280189236160368,155.7569456337951,None,,,,,,,,,,,,,,,,,,,,,,,,,,,,,,,,,,,,,,,70,001,2023_Apr_13_1411,SpeechDraft1Carolyn_lessNoise_PlusLocalization,2021.2.3,59.988618082173716,
drain.wav,drain.mpg,drain,6,A,Pink_Noise_6_1.wav,Pink_Noise_6_2.wav,,,,,,,,,,,,,,,0,7,7,42,,,,,,,,,,,,,,,,,,,,,,,166.05692291399464,None,167.55664625763893,None,168.9403051538393,None,nib,168.9403051538393,None,return,4.581424444913864,169.02364301495254,None,,,,,,,,,,,,,,,,,,,,,,,,,,,,,,,,,,,,,,,70,001,2023_Apr_13_1411,SpeechDraft1Carolyn_lessNoise_PlusLocalization,2021.2.3,59.988618082173716,
chess.wav,chess.mpg,chess,1,AV,Pink_Noise_1_1.wav,Pink_Noise_1_2.wav,,,,,,,,,,,,,,,0,8,8,86,,,,,,,,,,,,,,,,,,,,,,,173.62367100268602,None,175.12337920162827,None,176.5069712647237,None,"chess
",176.5069712647237,None,return,2.3347013047896326,176.59034395962954,None,,,,,,,,,,,,,,,,,,,,,,,,,,,,,,,,,,,,,,,70,001,2023_Apr_13_1411,SpeechDraft1Carolyn_lessNoise_PlusLocalization,2021.2.3,59.988618082173716,
date.wav,date.mpg,date,3,A,Pink_Noise_3_1.wav,Pink_Noise_3_2.wav,,,,,,,,,,,,,,,0,9,9,55,,,,,,,,,,,,,,,,,,,,,,,178.95699177868664,None,180.44033992895856,None,181.82368680788204,None,date,181.82368680788204,None,return,4.330174927134067,181.90694688959047,None,,,,,,,,,,,,,,,,,,,,,,,,,,,,,,,,,,,,,,,70,001,2023_Apr_13_1411,SpeechDraft1Carolyn_lessNoise_PlusLocalization,2021.2.3,59.988618082173716,
earn.wav,earn.mpg,earn,5,A,Pink_Noise_5_1.wav,Pink_Noise_5_2.wav,,,,,,,,,,,,,,,0,10,10,57,,,,,,,,,,,,,,,,,,,,,,,186.25707520684227,None,187.75675043463707,None,189.14033584995195,None,urn,189.14033584995195,None,return,5.645338843110949,189.22370703099295,None,,,,,,,,,,,,,,,,,,,,,,,,,,,,,,,,,,,,,,,70,001,2023_Apr_13_1411,SpeechDraft1Carolyn_lessNoise_PlusLocalization,2021.2.3,59.988618082173716,
chomp.wav,chomp.mpg,chomp,5,AV,Pink_Noise_5_1.wav,Pink_Noise_5_2.wav,,,,,,,,,,,,,,,0,11,11,99,,,,,,,,,,,,,,,,,,,,,,,194.89043485280126,None,196.38998634461313,None,197.7737479750067,None,chomp,197.7737479750067,None,return,3.2039523450657725,197.85710956063122,None,,,,,,,,,,,,,,,,,,,,,,,,,,,,,,,,,,,,,,,70,001,2023_Apr_13_1411,SpeechDraft1Carolyn_lessNoise_PlusLocalization,2021.2.3,59.988618082173716,
jeep.wav,jeep.mpg,jeep,5,A,Pink_Noise_5_1.wav,Pink_Noise_5_2.wav,,,,,,,,,,,,,,,0,12,12,37,,,,,,,,,,,,,,,,,,,,,,,201.0903734229505,None,202.5900745089166,None,203.9737586248666,None,juice,203.9737586248666,None,return,2.356023658066988,204.05711076362059,None,,,,,,,,,,,,,,,,,,,,,,,,,,,,,,,,,,,,,,,70,001,2023_Apr_13_1411,SpeechDraft1Carolyn_lessNoise_PlusLocalization,2021.2.3,59.988618082173716,
teen.wav,teen.mpg,teen,3,A,Pink_Noise_3_1.wav,Pink_Noise_3_2.wav,,,,,,,,,,,,,,,0,13,13,6,,,,,,,,,,,,,,,,,,,,,,,206.44038150087,None,207.94009452685714,None,209.32380073098466,None,till,209.32380073098466,None,return,3.861933063250035,209.40711451275274,None,,,,,,,,,,,,,,,,,,,,,,,,,,,,,,,,,,,,,,,70,001,2023_Apr_13_1411,SpeechDraft1Carolyn_lessNoise_PlusLocalization,2021.2.3,59.988618082173716,
bias.wav,bias.mpg,bias,5,A,Pink_Noise_5_1.wav,Pink_Noise_5_2.wav,,,,,,,,,,,,,,,0,14,14,36,,,,,,,,,,,,,,,,,,,,,,,213.29051449289545,None,214.79012308083475,None,216.17389057995752,None,lights,216.17389057995752,None,return,6.043904193211347,216.2571652638726,None,,,,,,,,,,,,,,,,,,,,,,,,,,,,,,,,,,,,,,,70,001,2023_Apr_13_1411,SpeechDraft1Carolyn_lessNoise_PlusLocalization,2021.2.3,59.988618082173716,
cleft.wav,cleft.mpg,cleft,1,A,Pink_Noise_1_1.wav,Pink_Noise_1_2.wav,,,,,,,,,,,,,,,0,15,15,46,,,,,,,,,,,,,,,,,,,,,,,222.32378619071096,None,223.82353451987728,None,225.2070938446559,None,cleft,225.2070938446559,None,return,4.754627926275134,225.2904829387553,None,,,,,,,,,,,,,,,,,,,,,,,,,,,,,,,,,,,,,,,70,001,2023_Apr_13_1411,SpeechDraft1Carolyn_lessNoise_PlusLocalization,2021.2.3,59.988618082173716,
guess.wav,guess.mpg,guess,5,AV,Pink_Noise_5_1.wav,Pink_Noise_5_2.wav,,,,,,,,,,,,,,,0,16,16,93,,,,,,,,,,,,,,,,,,,,,,,230.07383224973455,None,231.5580426189117,None,232.94042853172868,None,guess,232.94042853172868,None,return,4.020889400970191,233.0241490486078,None,,,,,,,,,,,,,,,,,,,,,,,,,,,,,,,,,,,,,,,70,001,2023_Apr_13_1411,SpeechDraft1Carolyn_lessNoise_PlusLocalization,2021.2.3,59.988618082173716,
brisk.wav,brisk.mpg,brisk,5,A,Pink_Noise_5_1.wav,Pink_Noise_5_2.wav,,,,,,,,,,,,,,,0,17,17,22,,,,,,,,,,,,,,,,,,,,,,,237.0738334148191,None,238.5733422236517,None,239.95718749286607,None,risk,239.95718749286607,None,return,8.196699562016875,240.04048002278432,None,,,,,,,,,,,,,,,,,,,,,,,,,,,,,,,,,,,,,,,70,001,2023_Apr_13_1411,SpeechDraft1Carolyn_lessNoise_PlusLocalization,2021.2.3,59.988618082173716,
file.wav,file.mpg,file,4,A,Pink_Noise_4_1.wav,Pink_Noise_4_2.wav,,,,,,,,,,,,,,,0,18,18,27,,,,,,,,,,,,,,,,,,,,,,,248.2572181369178,None,249.75682797655463,None,251.14046682883054,None,"silence
",251.14046682883054,None,return,3.4692171630449593,251.2238267925568,None,,,,,,,,,,,,,,,,,,,,,,,,,,,,,,,,,,,,,,,70,001,2023_Apr_13_1411,SpeechDraft1Carolyn_lessNoise_PlusLocalization,2021.2.3,59.988618082173716,
fear.wav,fear.mpg,fear,2,AV,Pink_Noise_2_1.wav,Pink_Noise_2_2.wav,,,,,,,,,,,,,,,0,19,19,66,,,,,,,,,,,,,,,,,,,,,,,254.72383599262685,None,256.2235510465689,None,257.6071205236949,None,fear,257.6071205236949,None,return,2.274567054118961,257.69046601094306,None,,,,,,,,,,,,,,,,,,,,,,,,,,,,,,,,,,,,,,,70,001,2023_Apr_13_1411,SpeechDraft1Carolyn_lessNoise_PlusLocalization,2021.2.3,59.988618082173716,
beige.wav,beige.mpg,beige,3,AV,Pink_Noise_3_1.wav,Pink_Noise_3_2.wav,,,,,,,,,,,,,,,0,20,20,70,,,,,,,,,,,,,,,,,,,,,,,259.9904592516832,None,261.49012716673315,None,262.87367630563676,None,beigh,262.87367630563676,None,return,2.8717248430475593,262.95739388884977,None,,,,,,,,,,,,,,,,,,,,,,,,,,,,,,,,,,,,,,,70,001,2023_Apr_13_1411,SpeechDraft1Carolyn_lessNoise_PlusLocalization,2021.2.3,59.988618082173716,
blood.wav,blood.mpg,blood,2,A,Pink_Noise_2_1.wav,Pink_Noise_2_2.wav,,,,,,,,,,,,,,,0,21,21,44,,,,,,,,,,,,,,,,,,,,,,,265.85723208868876,None,267.35677489079535,None,268.74054340459406,None,blood,268.74054340459406,None,return,6.5811572331003845,268.8238887609914,None,,,,,,,,,,,,,,,,,,,,,,,,,,,,,,,,,,,,,,,70,001,2023_Apr_13_1411,SpeechDraft1Carolyn_lessNoise_PlusLocalization,2021.2.3,59.988618082173716,
grin.wav,grin.mpg,grin,1,A,Pink_Noise_1_1.wav,Pink_Noise_1_2.wav,,,,,,,,,,,,,,,0,22,22,39,,,,,,,,,,,,,,,,,,,,,,,275.4238102976233,None,276.92350840894505,None,278.3071460206993,None,grin,278.3071460206993,None,return,24.990676695946604,278.39051195560023,None,,,,,,,,,,,,,,,,,,,,,,,,,,,,,,,,,,,,,,,70,001,2023_Apr_13_1411,SpeechDraft1Carolyn_lessNoise_PlusLocalization,2021.2.3,59.988618082173716,
flow.wav,flow.mpg,flow,2,AV,Pink_Noise_2_1.wav,Pink_Noise_2_2.wav,,,,,,,,,,,,,,,0,23,23,114,,,,,,,,,,,,,,,,,,,,,,,303.40722370985895,None,304.9068931126967,None,306.29050221294165,None,flow,306.29050221294165,None,return,2.023283374030143,306.3738153418526,None,,,,,,,,,,,,,,,,,,,,,,,,,,,,,,,,,,,,,,,70,001,2023_Apr_13_1411,SpeechDraft1Carolyn_lessNoise_PlusLocalization,2021.2.3,59.988618082173716,
coy.wav,coy.mpg,coy,1,A,Pink_Noise_1_1.wav,Pink_Noise_1_2.wav,,,,,,,,,,,,,,,0,24,24,4,,,,,,,,,,,,,,,,,,,,,,,308.4239278566092,None,309.92356671299785,None,311.3073665848933,None,coy,311.3073665848933,None,return,3.1425923136994243,311.39049157174304,None,,,,,,,,,,,,,,,,,,,,,,,,,,,,,,,,,,,,,,,70,001,2023_Apr_13_1411,SpeechDraft1Carolyn_lessNoise_PlusLocalization,2021.2.3,59.988618082173716,
blot.wav,blot.mpg,blot,5,A,Pink_Noise_5_1.wav,Pink_Noise_5_2.wav,,,,,,,,,,,,,,,0,25,25,17,,,,,,,,,,,,,,,,,,,,,,,314.557286655996,None,316.05693691177294,None,317.44069942086935,None,blocked,317.44069942086935,None,return,5.321241442114115,317.52390649169683,None,,,,,,,,,,,,,,,,,,,,,,,,,,,,,,,,,,,,,,,70,001,2023_Apr_13_1411,SpeechDraft1Carolyn_lessNoise_PlusLocalization,2021.2.3,59.988618082173716,
barn.wav,barn.mpg,barn,6,AV,Pink_Noise_6_1.wav,Pink_Noise_6_2.wav,,,,,,,,,,,,,,,0,26,26,62,,,,,,,,,,,,,,,,,,,,,,,322.8738732668571,None,324.37357924180105,None,325.75730693666264,None,"part
",325.75730693666264,None,return,3.0844984790310264,325.8405293296091,None,,,,,,,,,,,,,,,,,,,,,,,,,,,,,,,,,,,,,,,70,001,2023_Apr_13_1411,SpeechDraft1Carolyn_lessNoise_PlusLocalization,2021.2.3,59.988618082173716,
flop.wav,flop.mpg,flop,6,AV,Pink_Noise_6_1.wav,Pink_Noise_6_2.wav,,,,,,,,,,,,,,,0,27,27,98,,,,,,,,,,,,,,,,,,,,,,,328.9572073346935,None,330.4569074185565,None,331.8406140138395,None,flap,331.8406140138395,None,return,4.289232465904206,331.92391165997833,None,,,,,,,,,,,,,,,,,,,,,,,,,,,,,,,,,,,,,,,70,001,2023_Apr_13_1411,SpeechDraft1Carolyn_lessNoise_PlusLocalization,2021.2.3,59.988618082173716,
cow.wav,cow.mpg,cow,5,A,Pink_Noise_5_1.wav,Pink_Noise_5_2.wav,,,,,,,,,,,,,,,0,28,28,23,,,,,,,,,,,,,,,,,,,,,,,336.2406114307232,None,337.7400987087749,None,339.1240032520145,None,"art
",339.1240032520145,None,return,2.469798489008099,339.2072535036132,None,,,,,,,,,,,,,,,,,,,,,,,,,,,,,,,,,,,,,,,70,001,2023_Apr_13_1411,SpeechDraft1Carolyn_lessNoise_PlusLocalization,2021.2.3,59.988618082173716,
grain.wav,grain.mpg,grain,3,A,Pink_Noise_3_1.wav,Pink_Noise_3_2.wav,,,,,,,,,,,,,,,0,29,29,8,,,,,,,,,,,,,,,,,,,,,,,341.70743372198194,None,343.20683879358694,None,344.59077370585874,None,grin,344.59077370585874,None,return,3.395013617351651,344.67404246656224,None,,,,,,,,,,,,,,,,,,,,,,,,,,,,,,,,,,,,,,,70,001,2023_Apr_13_1411,SpeechDraft1Carolyn_lessNoise_PlusLocalization,2021.2.3,59.988618082173716,
dash.wav,dash.mpg,dash,2,AV,Pink_Noise_2_1.wav,Pink_Noise_2_2.wav,,,,,,,,,,,,,,,0,30,30,90,,,,,,,,,,,,,,,,,,,,,,,348.09051583800465,None,349.5902675418183,None,350.9738541888073,None,"desh
",350.9738541888073,None,return,3.8675618157722056,351.0574608957395,None,,,,,,,,,,,,,,,,,,,,,,,,,,,,,,,,,,,,,,,70,001,2023_Apr_13_1411,SpeechDraft1Carolyn_lessNoise_PlusLocalization,2021.2.3,59.988618082173716,
client.wav,client.mpg,client,4,A,Pink_Noise_4_1.wav,Pink_Noise_4_2.wav,,,,,,,,,,,,,,,0,31,31,0,,,,,,,,,,,,,,,,,,,,,,,354.9572982247919,None,356.4570345277898,None,357.8406468136236,None,quiet,357.8406468136236,None,return,8.689013164956123,357.92414902569726,None,,,,,,,,,,,,,,,,,,,,,,,,,,,,,,,,,,,,,,,70,001,2023_Apr_13_1411,SpeechDraft1Carolyn_lessNoise_PlusLocalization,2021.2.3,59.988618082173716,
gang.wav,gang.mpg,gang,1,A,Pink_Noise_1_1.wav,Pink_Noise_1_2.wav,,,,,,,,,,,,,,,0,32,32,59,,,,,,,,,,,,,,,,,,,,,,,366.6406361446716,None,368.1404408267699,None,369.5239792657085,None,gang,369.5239792657085,None,return,3.9818022013641894,369.6073449626565,None,,,,,,,,,,,,,,,,,,,,,,,,,,,,,,,,,,,,,,,70,001,2023_Apr_13_1411,SpeechDraft1Carolyn_lessNoise_PlusLocalization,2021.2.3,59.988618082173716,
clean.wav,clean.mpg,clean,5,A,Pink_Noise_5_1.wav,Pink_Noise_5_2.wav,,,,,,,,,,,,,,,0,33,33,2,,,,,,,,,,,,,,,,,,,,,,,373.60725514171645,None,375.1069289245643,None,376.49060293193907,None,clear,376.49060293193907,None,return,4.878867134917527,376.57420037686825,None,,,,,,,,,,,,,,,,,,,,,,,,,,,,,,,,,,,,,,,70,001,2023_Apr_13_1411,SpeechDraft1Carolyn_lessNoise_PlusLocalization,2021.2.3,59.988618082173716,
aunt.wav,aunt.mpg,aunt,3,A,Pink_Noise_3_1.wav,Pink_Noise_3_2.wav,,,,,,,,,,,,,,,0,34,34,14,,,,,,,,,,,,,,,,,,,,,,,381.4740479197353,None,382.9737667827867,None,384.3573787296191,None,uggs,384.3573787296191,None,return,4.644354274030775,384.4407238326967,None,,,,,,,,,,,,,,,,,,,,,,,,,,,,,,,,,,,,,,,70,001,2023_Apr_13_1411,SpeechDraft1Carolyn_lessNoise_PlusLocalization,2021.2.3,59.988618082173716,
ban.wav,ban.mpg,ban,5,AV,Pink_Noise_5_1.wav,Pink_Noise_5_2.wav,,,,,,,,,,,,,,,0,35,35,115,,,,,,,,,,,,,,,,,,,,,,,389.10724983457476,None,390.6070504998788,None,391.9905793326907,None,ban,391.9905793326907,None,return,1.323097547981888,392.0741127706133,None,,,,,,,,,,,,,,,,,,,,,,,,,,,,,,,,,,,,,,,70,001,2023_Apr_13_1411,SpeechDraft1Carolyn_lessNoise_PlusLocalization,2021.2.3,59.988618082173716,
burn.wav,burn.mpg,burn,6,A,Pink_Noise_6_1.wav,Pink_Noise_6_2.wav,,,,,,,,,,,,,,,0,36,36,13,,,,,,,,,,,,,,,,,,,,,,,393.4241275098175,None,394.9237675606273,None,396.3073523347266,None,birth,396.3073523347266,None,return,4.726436488330364,396.3906127666123,None,,,,,,,,,,,,,,,,,,,,,,,,,,,,,,,,,,,,,,,70,001,2023_Apr_13_1411,SpeechDraft1Carolyn_lessNoise_PlusLocalization,2021.2.3,59.988618082173716,
den.wav,den.mpg,den,6,AV,Pink_Noise_6_1.wav,Pink_Noise_6_2.wav,,,,,,,,,,,,,,,0,37,37,65,,,,,,,,,,,,,,,,,,,,,,,401.14072909159586,None,402.64037659484893,None,404.02388637466356,None,damn,404.02388637466356,None,return,1.681794981006533,404.10734214587137,None,,,,,,,,,,,,,,,,,,,,,,,,,,,,,,,,,,,,,,,70,001,2023_Apr_13_1411,SpeechDraft1Carolyn_lessNoise_PlusLocalization,2021.2.3,59.988618082173716,
bath.wav,bath.mpg,bath,6,AV,Pink_Noise_6_1.wav,Pink_Noise_6_2.wav,,,,,,,,,,,,,,,0,38,38,116,,,,,,,,,,,,,,,,,,,,,,,405.8074601558037,None,407.3071550875902,None,408.69066705787554,None,bath,408.69066705787554,None,return,0.9428584887646139,408.77411411656067,None,,,,,,,,,,,,,,,,,,,,,,,,,,,,,,,,,,,,,,,70,001,2023_Apr_13_1411,SpeechDraft1Carolyn_lessNoise_PlusLocalization,2021.2.3,59.988618082173716,
freeze.wav,freeze.mpg,freeze,5,AV,Pink_Noise_5_1.wav,Pink_Noise_5_2.wav,,,,,,,,,,,,,,,0,39,39,61,,,,,,,,,,,,,,,,,,,,,,,409.7406122656539,None,411.24030433781445,None,412.6239589867182,None,grease,412.6239589867182,None,return,3.4899765248410404,412.7072217548266,None,,,,,,,,,,,,,,,,,,,,,,,,,,,,,,,,,,,,,,,70,001,2023_Apr_13_1411,SpeechDraft1Carolyn_lessNoise_PlusLocalization,2021.2.3,59.988618082173716,
bond.wav,bond.mpg,bond,6,AV,Pink_Noise_6_1.wav,Pink_Noise_6_2.wav,,,,,,,,,,,,,,,0,40,40,111,,,,,,,,,,,,,,,,,,,,,,,416.2240863456391,None,417.7237958437763,None,419.10720400791615,None,bass,419.10720400791615,None,return,4.310318944044411,419.19073714269325,None,,,,,,,,,,,,,,,,,,,,,,,,,,,,,,,,,,,,,,,70,001,2023_Apr_13_1411,SpeechDraft1Carolyn_lessNoise_PlusLocalization,2021.2.3,59.988618082173716,
bomb.wav,bomb.mpg,bomb,1,AV,Pink_Noise_1_1.wav,Pink_Noise_1_2.wav,,,,,,,,,,,,,,,0,41,41,94,,,,,,,,,,,,,,,,,,,,,,,423.52407023496926,None,425.02370909182355,None,426.4072709456086,None, balm,426.4072709456086,None,return,4.626276140101254,426.49076261976734,None,,,,,,,,,,,,,,,,,,,,,,,,,,,,,,,,,,,,,,,70,001,2023_Apr_13_1411,SpeechDraft1Carolyn_lessNoise_PlusLocalization,2021.2.3,59.988618082173716,
leapt.wav,leapt.mpg,leapt,3,AV,Pink_Noise_3_1.wav,Pink_Noise_3_2.wav,,,,,,,,,,,,,,,0,42,42,82,,,,,,,,,,,,,,,,,,,,,,,431.14076758595183,None,432.64035816676915,None,434.02404523966834,None,lept,434.02404523966834,None,return,1.9295817879028618,434.10750256385654,None,,,,,,,,,,,,,,,,,,,,,,,,,,,,,,,,,,,,,,,70,001,2023_Apr_13_1411,SpeechDraft1Carolyn_lessNoise_PlusLocalization,2021.2.3,59.988618082173716,
brain.wav,brain.mpg,brain,2,AV,Pink_Noise_2_1.wav,Pink_Noise_2_2.wav,,,,,,,,,,,,,,,0,43,43,71,,,,,,,,,,,,,,,,,,,,,,,436.0575408479199,None,437.55713274283335,None,438.940586540848,None,"bring
",438.940586540848,None,return,2.884980878792703,439.0240586968139,None,,,,,,,,,,,,,,,,,,,,,,,,,,,,,,,,,,,,,,,70,001,2023_Apr_13_1411,SpeechDraft1Carolyn_lessNoise_PlusLocalization,2021.2.3,59.988618082173716,
champ.wav,champ.mpg,champ,3,A,Pink_Noise_3_1.wav,Pink_Noise_3_2.wav,,,,,,,,,,,,,,,0,44,44,45,,,,,,,,,,,,,,,,,,,,,,,441.9409608016722,None,443.44029220892116,None,444.82413260359317,None,champ,444.82413260359317,None,return,1.5936657940037549,444.907364429906,None,,,,,,,,,,,,,,,,,,,,,,,,,,,,,,,,,,,,,,,70,001,2023_Apr_13_1411,SpeechDraft1Carolyn_lessNoise_PlusLocalization,2021.2.3,59.988618082173716,
barge.wav,barge.mpg,barge,4,A,Pink_Noise_4_1.wav,Pink_Noise_4_2.wav,,,,,,,,,,,,,,,0,45,45,19,,,,,,,,,,,,,,,,,,,,,,,446.5242583868094,None,448.0236736549996,None,449.4074371359311,None,barge,449.4074371359311,None,return,1.7622878393158317,449.4907477200031,None,,,,,,,,,,,,,,,,,,,,,,,,,,,,,,,,,,,,,,,70,001,2023_Apr_13_1411,SpeechDraft1Carolyn_lessNoise_PlusLocalization,2021.2.3,59.988618082173716,
blunt.wav,blunt.mpg,blunt,3,AV,Pink_Noise_3_1.wav,Pink_Noise_3_2.wav,,,,,,,,,,,,,,,0,46,46,84,,,,,,,,,,,,,,,,,,,,,,,451.27407057769597,None,452.77370519563556,None,454.1574044069275,None,bludt,454.1574044069275,None,return,2.4122374928556383,454.24084487883374,None,,,,,,,,,,,,,,,,,,,,,,,,,,,,,,,,,,,,,,,70,001,2023_Apr_13_1411,SpeechDraft1Carolyn_lessNoise_PlusLocalization,2021.2.3,59.988618082173716,
mold.wav,mold.mpg,mold,5,AV,Pink_Noise_5_1.wav,Pink_Noise_5_2.wav,,,,,,,,,,,,,,,0,47,47,96,,,,,,,,,,,,,,,,,,,,,,,456.67423076462,None,458.17378830583766,None,459.5573791889474,None,bold,459.5573791889474,None,return,1.276225111912936,459.64081024285406,None,,,,,,,,,,,,,,,,,,,,,,,,,,,,,,,,,,,,,,,70,001,2023_Apr_13_1411,SpeechDraft1Carolyn_lessNoise_PlusLocalization,2021.2.3,59.988618082173716,
blind.wav,blind.mpg,blind,1,A,Pink_Noise_1_1.wav,Pink_Noise_1_2.wav,,,,,,,,,,,,,,,0,48,48,12,,,,,,,,,,,,,,,,,,,,,,,460.9408779279329,None,462.4405943918973,None,463.82404911890626,None,blood,463.82404911890626,None,return,1.4415085432119668,463.9075216688216,None,,,,,,,,,,,,,,,,,,,,,,,,,,,,,,,,,,,,,,,70,001,2023_Apr_13_1411,SpeechDraft1Carolyn_lessNoise_PlusLocalization,2021.2.3,59.988618082173716,
glare.wav,glare.mpg,glare,4,A,Pink_Noise_4_1.wav,Pink_Noise_4_2.wav,,,,,,,,,,,,,,,0,49,49,52,,,,,,,,,,,,,,,,,,,,,,,465.3740494698286,None,466.8738816338591,None,468.257510046009,None,air,468.257510046009,None,return,1.0483467606827617,468.3407988268882,None,,,,,,,,,,,,,,,,,,,,,,,,,,,,,,,,,,,,,,,70,001,2023_Apr_13_1411,SpeechDraft1Carolyn_lessNoise_PlusLocalization,2021.2.3,59.988618082173716,
solve.wav,solve.mpg,solve,3,A,Pink_Noise_3_1.wav,Pink_Noise_3_2.wav,,,,,,,,,,,,,,,0,50,50,34,,,,,,,,,,,,,,,,,,,,,,,469.40740786958486,None,470.9071239917539,None,472.29086994566023,None,"solvr
",472.29086994566023,None,return,3.7188226408325136,472.374236067757,None,,,,,,,,,,,,,,,,,,,,,,,,,,,,,,,,,,,,,,,70,001,2023_Apr_13_1411,SpeechDraft1Carolyn_lessNoise_PlusLocalization,2021.2.3,59.988618082173716,
chow.wav,chow.mpg,chow,3,AV,Pink_Noise_3_1.wav,Pink_Noise_3_2.wav,,,,,,,,,,,,,,,0,51,51,108,,,,,,,,,,,,,,,,,,,,,,,476.1241101860069,None,477.6238208338618,None,479.007336598821,None,child,479.007336598821,None,return,3.546331373974681,479.0908209918998,None,,,,,,,,,,,,,,,,,,,,,,,,,,,,,,,,,,,,,,,70,001,2023_Apr_13_1411,SpeechDraft1Carolyn_lessNoise_PlusLocalization,2021.2.3,59.988618082173716,
foil.wav,foil.mpg,foil,4,A,Pink_Noise_4_1.wav,Pink_Noise_4_2.wav,,,,,,,,,,,,,,,0,52,52,29,,,,,,,,,,,,,,,,,,,,,,,482.65738860471174,None,484.1570607125759,None,485.5407351758331,None,boil,485.5407351758331,None,return,0.9729485660791397,485.62417004583403,None,,,,,,,,,,,,,,,,,,,,,,,,,,,,,,,,,,,,,,,70,001,2023_Apr_13_1411,SpeechDraft1Carolyn_lessNoise_PlusLocalization,2021.2.3,59.988618082173716,
buff.wav,buff.mpg,buff,6,A,Pink_Noise_6_1.wav,Pink_Noise_6_2.wav,,,,,,,,,,,,,,,0,53,53,53,,,,,,,,,,,,,,,,,,,,,,,486.62420316785574,None,488.1238776417449,None,489.5074846879579,None,airn,489.5074846879579,None,return,7.182094205636531,489.591015170794,None,,,,,,,,,,,,,,,,,,,,,,,,,,,,,,,,,,,,,,,70,001,2023_Apr_13_1411,SpeechDraft1Carolyn_lessNoise_PlusLocalization,2021.2.3,59.988618082173716,
faint.wav,faint.mpg,faint,1,A,Pink_Noise_1_1.wav,Pink_Noise_1_2.wav,,,,,,,,,,,,,,,0,54,54,26,,,,,,,,,,,,,,,,,,,,,,,496.7908939947374,None,498.29036827292293,None,499.6741765649058,None,fainy,499.6741765649058,None,return,2.5114656831137836,499.7575811916031,None,,,,,,,,,,,,,,,,,,,,,,,,,,,,,,,,,,,,,,,70,001,2023_Apr_13_1411,SpeechDraft1Carolyn_lessNoise_PlusLocalization,2021.2.3,59.988618082173716,
frame.wav,frame.mpg,frame,3,A,Pink_Noise_3_1.wav,Pink_Noise_3_2.wav,,,,,,,,,,,,,,,0,55,55,50,,,,,,,,,,,,,,,,,,,,,,,502.29080122569576,None,503.79060556180775,None,505.1741193467751,None,framed,505.1741193467751,None,return,3.1075220587663352,505.2575254449621,None,,,,,,,,,,,,,,,,,,,,,,,,,,,,,,,,,,,,,,,70,001,2023_Apr_13_1411,SpeechDraft1Carolyn_lessNoise_PlusLocalization,2021.2.3,59.988618082173716,
chef.wav,chef.mpg,chef,5,AV,Pink_Noise_5_1.wav,Pink_Noise_5_2.wav,,,,,,,,,,,,,,,0,56,56,92,,,,,,,,,,,,,,,,,,,,,,,508.3908206736669,None,509.890501556918,None,511.27403432969004,None,chef,511.27403432969004,None,return,1.495624598581344,511.357458606828,None,,,,,,,,,,,,,,,,,,,,,,,,,,,,,,,,,,,,,,,70,001,2023_Apr_13_1411,SpeechDraft1Carolyn_lessNoise_PlusLocalization,2021.2.3,59.988618082173716,
eye.wav,eye.mpg,eye,5,AV,Pink_Noise_5_1.wav,Pink_Noise_5_2.wav,,,,,,,,,,,,,,,0,57,57,88,,,,,,,,,,,,,,,,,,,,,,,512.87414500257,None,514.3738223998807,None,515.7574131558649,None,eye,515.7574131558649,None,return,2.9402825445868075,515.8409019079991,None,,,,,,,,,,,,,,,,,,,,,,,,,,,,,,,,,,,,,,,70,001,2023_Apr_13_1411,SpeechDraft1Carolyn_lessNoise_PlusLocalization,2021.2.3,59.988618082173716,
crow.wav,crow.mpg,crow,2,A,Pink_Noise_2_1.wav,Pink_Noise_2_2.wav,,,,,,,,,,,,,,,0,58,58,56,,,,,,,,,,,,,,,,,,,,,,,518.8075304189697,None,520.3084875149652,None,521.6909059528261,None,crow,521.6909059528261,None,return,4.446962909307331,521.7741429489106,None,,,,,,,,,,,,,,,,,,,,,,,,,,,,,,,,,,,,,,,70,001,2023_Apr_13_1411,SpeechDraft1Carolyn_lessNoise_PlusLocalization,2021.2.3,59.988618082173716,
gone.wav,gone.mpg,gone,3,AV,Pink_Noise_3_1.wav,Pink_Noise_3_2.wav,,,,,,,,,,,,,,,0,59,59,113,,,,,,,,,,,,,,,,,,,,,,,526.2410084735602,None,527.7408487149514,None,529.1242621936835,None,"gone
",529.1242621936835,None,return,4.133609900251031,529.207446383778,None,,,,,,,,,,,,,,,,,,,,,,,,,,,,,,,,,,,,,,,70,001,2023_Apr_13_1411,SpeechDraft1Carolyn_lessNoise_PlusLocalization,2021.2.3,59.988618082173716,
climb.wav,climb.mpg,climb,4,AV,Pink_Noise_4_1.wav,Pink_Noise_4_2.wav,,,,,,,,,,,,,,,0,60,60,102,,,,,,,,,,,,,,,,,,,,,,,533.3741457699798,None,534.8744780300185,None,536.2574733528309,None,clim ,536.2574733528309,None,return,7.928132864180952,536.3409131807275,None,,,,,,,,,,,,,,,,,,,,,,,,,,,,,,,,,,,,,,,70,001,2023_Apr_13_1411,SpeechDraft1Carolyn_lessNoise_PlusLocalization,2021.2.3,59.988618082173716,
clip.wav,clip.mpg,clip,4,AV,Pink_Noise_4_1.wav,Pink_Noise_4_2.wav,,,,,,,,,,,,,,,0,61,61,106,,,,,,,,,,,,,,,,,,,,,,,544.290811735671,None,545.7906022849493,None,547.1741716326214,None,"clip
",547.1741716326214,None,return,3.4354369873180985,547.2576103876345,None,,,,,,,,,,,,,,,,,,,,,,,,,,,,,,,,,,,,,,,70,001,2023_Apr_13_1411,SpeechDraft1Carolyn_lessNoise_PlusLocalization,2021.2.3,59.988618082173716,
eat.wav,eat.mpg,eat,3,AV,Pink_Noise_3_1.wav,Pink_Noise_3_2.wav,,,,,,,,,,,,,,,0,62,62,80,,,,,,,,,,,,,,,,,,,,,,,550.7242124117911,None,552.2238581869751,None,553.6075136847794,None,EAT,553.6075136847794,None,return,7.506201792974025,553.6910052555613,None,,,,,,,,,,,,,,,,,,,,,,,,,,,,,,,,,,,,,,,70,001,2023_Apr_13_1411,SpeechDraft1Carolyn_lessNoise_PlusLocalization,2021.2.3,59.988618082173716,
flex.wav,flex.mpg,flex,1,AV,Pink_Noise_1_1.wav,Pink_Noise_1_2.wav,,,,,,,,,,,,,,,0,63,63,100,,,,,,,,,,,,,,,,,,,,,,,561.2242423417047,None,562.7240045545623,None,564.1074857646599,None,"flex
",564.1074857646599,None,return,2.486001003999263,564.1910445019603,None,,,,,,,,,,,,,,,,,,,,,,,,,,,,,,,,,,,,,,,70,001,2023_Apr_13_1411,SpeechDraft1Carolyn_lessNoise_PlusLocalization,2021.2.3,59.988618082173716,
frog.wav,frog.mpg,frog,4,AV,Pink_Noise_4_1.wav,Pink_Noise_4_2.wav,,,,,,,,,,,,,,,0,64,64,109,,,,,,,,,,,,,,,,,,,,,,,566.7076082648709,None,568.2071947976947,None,569.5909158028662,None,frog,569.5909158028662,None,return,3.538905190769583,569.6742273997515,None,,,,,,,,,,,,,,,,,,,,,,,,,,,,,,,,,,,,,,,70,001,2023_Apr_13_1411,SpeechDraft1Carolyn_lessNoise_PlusLocalization,2021.2.3,59.988618082173716,
beer.wav,beer.mpg,beer,3,A,Pink_Noise_3_1.wav,Pink_Noise_3_2.wav,,,,,,,,,,,,,,,0,65,65,43,,,,,,,,,,,,,,,,,,,,,,,573.2408271855675,None,574.740585477557,None,576.1242091646418,None,beer,576.1242091646418,None,return,2.1254198267124593,576.2076123817824,None,,,,,,,,,,,,,,,,,,,,,,,,,,,,,,,,,,,,,,,70,001,2023_Apr_13_1411,SpeechDraft1Carolyn_lessNoise_PlusLocalization,2021.2.3,59.988618082173716,
pact.wav,pact.mpg,pact,2,A,Pink_Noise_2_1.wav,Pink_Noise_2_2.wav,,,,,,,,,,,,,,,0,66,66,3,,,,,,,,,,,,,,,,,,,,,,,578.3576632766053,None,579.857391458936,None,581.2409338029101,None,pacy,581.2409338029101,None,return,3.2086672699078918,581.3243534555659,None,,,,,,,,,,,,,,,,,,,,,,,,,,,,,,,,,,,,,,,70,001,2023_Apr_13_1411,SpeechDraft1Carolyn_lessNoise_PlusLocalization,2021.2.3,59.988618082173716,
feed.wav,feed.mpg,feed,1,A,Pink_Noise_1_1.wav,Pink_Noise_1_2.wav,,,,,,,,,,,,,,,0,67,67,31,,,,,,,,,,,,,,,,,,,,,,,584.5577724669129,None,586.058832986746,None,587.4409449459054,None,feed,587.4409449459054,None,return,1.0967453429475427,587.5244021397084,None,,,,,,,,,,,,,,,,,,,,,,,,,,,,,,,,,,,,,,,70,001,2023_Apr_13_1411,SpeechDraft1Carolyn_lessNoise_PlusLocalization,2021.2.3,59.988618082173716,
chip.wav,chip.mpg,chip,3,A,Pink_Noise_3_1.wav,Pink_Noise_3_2.wav,,,,,,,,,,,,,,,0,68,68,18,,,,,,,,,,,,,,,,,,,,,,,588.6409986508079,None,590.140573814977,None,591.5244627268985,None,"chip
",591.5244627268985,None,return,2.117434388026595,591.6076092976145,None,,,,,,,,,,,,,,,,,,,,,,,,,,,,,,,,,,,,,,,70,001,2023_Apr_13_1411,SpeechDraft1Carolyn_lessNoise_PlusLocalization,2021.2.3,59.988618082173716,
round.wav,round.mpg,round,4,A,Pink_Noise_4_1.wav,Pink_Noise_4_2.wav,,,,,,,,,,,,,,,0,69,69,35,,,,,,,,,,,,,,,,,,,,,,,593.757572314702,None,595.2572354236618,None,596.6409701840021,None,red,596.6409701840021,None,return,0.7128099179826677,596.7242482029833,None,,,,,,,,,,,,,,,,,,,,,,,,,,,,,,,,,,,,,,,70,001,2023_Apr_13_1411,SpeechDraft1Carolyn_lessNoise_PlusLocalization,2021.2.3,59.988618082173716,
fun.wav,fun.mpg,fun,2,AV,Pink_Noise_2_1.wav,Pink_Noise_2_2.wav,,,,,,,,,,,,,,,0,70,70,105,,,,,,,,,,,,,,,,,,,,,,,597.4576552486978,None,598.957690441981,None,600.3408870617859,None,foot,600.3408870617859,None,return,1.8207348748110235,600.424302381929,None,,,,,,,,,,,,,,,,,,,,,,,,,,,,,,,,,,,,,,,70,001,2023_Apr_13_1411,SpeechDraft1Carolyn_lessNoise_PlusLocalization,2021.2.3,59.988618082173716,
ear.wav,ear.mpg,ear,5,A,Pink_Noise_5_1.wav,Pink_Noise_5_2.wav,,,,,,,,,,,,,,,0,71,71,20,,,,,,,,,,,,,,,,,,,,,,,602.2742761569098,None,603.7739130225964,None,605.1576549308375,None,"real
",605.1576549308375,None,return,3.8360768044367433,605.2409715126269,None,,,,,,,,,,,,,,,,,,,,,,,,,,,,,,,,,,,,,,,70,001,2023_Apr_13_1411,SpeechDraft1Carolyn_lessNoise_PlusLocalization,2021.2.3,59.988618082173716,
guard.wav,guard.mpg,guard,1,A,Pink_Noise_1_1.wav,Pink_Noise_1_2.wav,,,,,,,,,,,,,,,0,72,72,54,,,,,,,,,,,,,,,,,,,,,,,609.1075737429783,None,610.6072265179828,None,611.9909730600193,None,guard,611.9909730600193,None,return,2.7147011011838913,612.0743427500129,None,,,,,,,,,,,,,,,,,,,,,,,,,,,,,,,,,,,,,,,70,001,2023_Apr_13_1411,SpeechDraft1Carolyn_lessNoise_PlusLocalization,2021.2.3,59.988618082173716,
dark.wav,dark.mpg,dark,1,AV,Pink_Noise_1_1.wav,Pink_Noise_1_2.wav,,,,,,,,,,,,,,,0,73,73,87,,,,,,,,,,,,,,,,,,,,,,,614.8076865719631,None,616.3075165888295,None,617.6910724248737,None,dark,617.6910724248737,None,return,0.9587736283428967,617.7742799445987,None,,,,,,,,,,,,,,,,,,,,,,,,,,,,,,,,,,,,,,,70,001,2023_Apr_13_1411,SpeechDraft1Carolyn_lessNoise_PlusLocalization,2021.2.3,59.988618082173716,
firm.wav,firm.mpg,firm,2,A,Pink_Noise_2_1.wav,Pink_Noise_2_2.wav,,,,,,,,,,,,,,,0,74,74,41,,,,,,,,,,,,,,,,,,,,,,,618.7576090097427,None,620.2574511906132,None,621.6410671030171,None,firm,621.6410671030171,None,return,5.592780051752925,621.7243072157726,None,,,,,,,,,,,,,,,,,,,,,,,,,,,,,,,,,,,,,,,70,001,2023_Apr_13_1411,SpeechDraft1Carolyn_lessNoise_PlusLocalization,2021.2.3,59.988618082173716,
sock.wav,sock.mpg,sock,4,A,Pink_Noise_4_1.wav,Pink_Noise_4_2.wav,,,,,,,,,,,,,,,0,75,75,15,,,,,,,,,,,,,,,,,,,,,,,627.3408933025785,None,628.8405950888991,None,630.2244402398355,None,zap,630.2244402398355,None,return,2.225223195273429,630.3078008457087,None,,,,,,,,,,,,,,,,,,,,,,,,,,,,,,,,,,,,,,,70,001,2023_Apr_13_1411,SpeechDraft1Carolyn_lessNoise_PlusLocalization,2021.2.3,59.988618082173716,
faith.wav,faith.mpg,faith,2,A,Pink_Noise_2_1.wav,Pink_Noise_2_2.wav,,,,,,,,,,,,,,,0,76,76,58,,,,,,,,,,,,,,,,,,,,,,,632.5577149339952,None,634.05724409502,None,635.4411469348706,None,fate,635.4411469348706,None,return,1.4569156728684902,635.5243236059323,None,,,,,,,,,,,,,,,,,,,,,,,,,,,,,,,,,,,,,,,70,001,2023_Apr_13_1411,SpeechDraft1Carolyn_lessNoise_PlusLocalization,2021.2.3,59.988618082173716,
bring.wav,bring.mpg,bring,6,AV,Pink_Noise_6_1.wav,Pink_Noise_6_2.wav,,,,,,,,,,,,,,,0,77,77,103,,,,,,,,,,,,,,,,,,,,,,,637.0076345219277,None,638.5073341769166,None,639.890972555615,None,brick,639.890972555615,None,return,1.294681997038424,639.9743598178029,None,,,,,,,,,,,,,,,,,,,,,,,,,,,,,,,,,,,,,,,70,001,2023_Apr_13_1411,SpeechDraft1Carolyn_lessNoise_PlusLocalization,2021.2.3,59.988618082173716,
castle.wav,castle.mpg,castle,5,AV,Pink_Noise_5_1.wav,Pink_Noise_5_2.wav,,,,,,,,,,,,,,,0,78,78,91,,,,,,,,,,,,,,,,,,,,,,,641.2910049487837,None,642.7906521027908,None,644.1742954459041,None,exalt,644.1742954459041,None,return,4.0913552809506655,644.2576823406853,None,,,,,,,,,,,,,,,,,,,,,,,,,,,,,,,,,,,,,,,70,001,2023_Apr_13_1411,SpeechDraft1Carolyn_lessNoise_PlusLocalization,2021.2.3,59.988618082173716,
chore.wav,chore.mpg,chore,5,A,Pink_Noise_5_1.wav,Pink_Noise_5_2.wav,,,,,,,,,,,,,,,0,79,79,48,,,,,,,,,,,,,,,,,,,,,,,648.3742445246316,None,649.8740124218166,None,651.2576221809722,None,"chore
",651.2576221809722,None,return,1.736032991670072,651.3410184066743,None,,,,,,,,,,,,,,,,,,,,,,,,,,,,,,,,,,,,,,,70,001,2023_Apr_13_1411,SpeechDraft1Carolyn_lessNoise_PlusLocalization,2021.2.3,59.988618082173716,
click.wav,click.mpg,click,2,AV,Pink_Noise_2_1.wav,Pink_Noise_2_2.wav,,,,,,,,,,,,,,,0,80,80,101,,,,,,,,,,,,,,,,,,,,,,,653.108010806609,None,654.6073721298017,None,655.9909185147844,None,click,655.9909185147844,None,return,3.9787017120979726,656.0743718338199,None,,,,,,,,,,,,,,,,,,,,,,,,,,,,,,,,,,,,,,,70,001,2023_Apr_13_1411,SpeechDraft1Carolyn_lessNoise_PlusLocalization,2021.2.3,59.988618082173716,
cab.wav,cab.mpg,cab,4,AV,Pink_Noise_4_1.wav,Pink_Noise_4_2.wav,,,,,,,,,,,,,,,0,81,81,83,,,,,,,,,,,,,,,,,,,,,,,660.0743660726584,None,661.5760044269264,None,662.9576058909297,None, cam,662.9576058909297,None,return,7.299893572926521,663.0411457996815,None,,,,,,,,,,,,,,,,,,,,,,,,,,,,,,,,,,,,,,,70,001,2023_Apr_13_1411,SpeechDraft1Carolyn_lessNoise_PlusLocalization,2021.2.3,59.988618082173716,
cross.wav,cross.mpg,cross,2,AV,Pink_Noise_2_1.wav,Pink_Noise_2_2.wav,,,,,,,,,,,,,,,0,82,82,77,,,,,,,,,,,,,,,,,,,,,,,670.357868690975,None,671.8582142419182,None,673.2410320029594,None,cross,673.2410320029594,None,return,4.06477042613551,673.3242854559794,None,,,,,,,,,,,,,,,,,,,,,,,,,,,,,,,,,,,,,,,70,001,2023_Apr_13_1411,SpeechDraft1Carolyn_lessNoise_PlusLocalization,2021.2.3,59.988618082173716,
dent.wav,dent.mpg,dent,1,A,Pink_Noise_1_1.wav,Pink_Noise_1_2.wav,,,,,,,,,,,,,,,0,83,83,10,,,,,,,,,,,,,,,,,,,,,,,677.4093750948086,None,678.9239810337313,None,680.3077109707519,None,dead,680.3077109707519,None,return,12.606064225547016,680.3910569138825,None,,,,,,,,,,,,,,,,,,,,,,,,,,,,,,,,,,,,,,,70,001,2023_Apr_13_1411,SpeechDraft1Carolyn_lessNoise_PlusLocalization,2021.2.3,59.988618082173716,
drug.wav,drug.mpg,drug,6,AV,Pink_Noise_6_1.wav,Pink_Noise_6_2.wav,,,,,,,,,,,,,,,0,84,84,117,,,,,,,,,,,,,,,,,,,,,,,693.0244502970017,None,694.5406930358149,None,695.9243780146353,None,"trust
",695.9243780146353,None,return,3.5013584326952696,696.0076688518748,None,,,,,,,,,,,,,,,,,,,,,,,,,,,,,,,,,,,,,,,70,001,2023_Apr_13_1411,SpeechDraft1Carolyn_lessNoise_PlusLocalization,2021.2.3,59.988618082173716,
germ.wav,germ.mpg,germ,2,AV,Pink_Noise_2_1.wav,Pink_Noise_2_2.wav,,,,,,,,,,,,,,,0,85,85,119,,,,,,,,,,,,,,,,,,,,,,,699.541104960721,None,701.040804348886,None,702.4244996616617,None,"gern
",702.4244996616617,None,return,2.2172897732816637,702.507777494844,None,,,,,,,,,,,,,,,,,,,,,,,,,,,,,,,,,,,,,,,70,001,2023_Apr_13_1411,SpeechDraft1Carolyn_lessNoise_PlusLocalization,2021.2.3,59.988618082173716,
die.wav,die.mpg,die,5,AV,Pink_Noise_5_1.wav,Pink_Noise_5_2.wav,,,,,,,,,,,,,,,0,86,86,73,,,,,,,,,,,,,,,,,,,,,,,704.757759432774,None,706.2574160289951,None,707.640918861609,None,sigh,707.640918861609,None,return,1.8164623198099434,707.7245770357549,None,,,,,,,,,,,,,,,,,,,,,,,,,,,,,,,,,,,,,,,70,001,2023_Apr_13_1411,SpeechDraft1Carolyn_lessNoise_PlusLocalization,2021.2.3,59.988618082173716,
tool.wav,tool.mpg,tool,2,A,Pink_Noise_2_1.wav,Pink_Noise_2_2.wav,,,,,,,,,,,,,,,0,87,87,32,,,,,,,,,,,,,,,,,,,,,,,709.5579303586856,None,711.057453869842,None,712.4410080849193,None,tour,712.4410080849193,None,return,2.8805497931316495,712.5245390306227,None,,,,,,,,,,,,,,,,,,,,,,,,,,,,,,,,,,,,,,,70,001,2023_Apr_13_1411,SpeechDraft1Carolyn_lessNoise_PlusLocalization,2021.2.3,59.988618082173716,
nice.wav,nice.mpg,nice,6,A,Pink_Noise_6_1.wav,Pink_Noise_6_2.wav,,,,,,,,,,,,,,,0,88,88,28,,,,,,,,,,,,,,,,,,,,,,,715.4244624027051,None,716.9408013499342,None,718.3244517659768,None,yes,718.3244517659768,None,return,1.8211176139302552,718.407920664642,None,,,,,,,,,,,,,,,,,,,,,,,,,,,,,,,,,,,,,,,70,001,2023_Apr_13_1411,SpeechDraft1Carolyn_lessNoise_PlusLocalization,2021.2.3,59.988618082173716,
warmth.wav,warmth.mpg,warmth,3,A,Pink_Noise_3_1.wav,Pink_Noise_3_2.wav,,,,,,,,,,,,,,,0,89,89,33,,,,,,,,,,,,,,,,,,,,,,,720.2578637558036,None,721.7574581545778,None,723.1411045179702,None,work,723.1411045179702,None,return,3.1807208661921322,723.2243420467712,None,,,,,,,,,,,,,,,,,,,,,,,,,,,,,,,,,,,,,,,70,001,2023_Apr_13_1411,SpeechDraft1Carolyn_lessNoise_PlusLocalization,2021.2.3,59.988618082173716,
rent.wav,rent.mpg,rent,6,A,Pink_Noise_6_1.wav,Pink_Noise_6_2.wav,,,,,,,,,,,,,,,0,90,90,25,,,,,,,,,,,,,,,,,,,,,,,726.4245175439864,None,727.9407791895792,None,729.3244706955738,None,light,729.3244706955738,None,return,2.1574065359309316,729.4077872079797,None,,,,,,,,,,,,,,,,,,,,,,,,,,,,,,,,,,,,,,,70,001,2023_Apr_13_1411,SpeechDraft1Carolyn_lessNoise_PlusLocalization,2021.2.3,59.988618082173716,
stone.wav,stone.mpg,stone,4,AV,Pink_Noise_4_1.wav,Pink_Noise_4_2.wav,,,,,,,,,,,,,,,0,91,91,110,,,,,,,,,,,,,,,,,,,,,,,731.5911181536503,None,733.0907896589488,None,734.4744595265947,None,stone,734.4744595265947,None,return,2.7272688038647175,734.557773350738,None,,,,,,,,,,,,,,,,,,,,,,,,,,,,,,,,,,,,,,,70,001,2023_Apr_13_1411,SpeechDraft1Carolyn_lessNoise_PlusLocalization,2021.2.3,59.988618082173716,
damp.wav,damp.mpg,damp,5,A,Pink_Noise_5_1.wav,Pink_Noise_5_2.wav,,,,,,,,,,,,,,,0,92,92,1,,,,,,,,,,,,,,,,,,,,,,,737.3079476226121,None,739.0075547108427,None,740.3911219346337,None,bam,740.3911219346337,None,return,1.6106071998365223,740.4744803579524,None,,,,,,,,,,,,,,,,,,,,,,,,,,,,,,,,,,,,,,,70,001,2023_Apr_13_1411,SpeechDraft1Carolyn_lessNoise_PlusLocalization,2021.2.3,59.988618082173716,
game.wav,game.mpg,game,6,A,Pink_Noise_6_1.wav,Pink_Noise_6_2.wav,,,,,,,,,,,,,,,0,93,93,40,,,,,,,,,,,,,,,,,,,,,,,742.1078598746099,None,743.624126163777,None,745.0077510229312,None,dill,745.0077510229312,None,return,5.353861661162227,745.0911794207059,None,,,,,,,,,,,,,,,,,,,,,,,,,,,,,,,,,,,,,,,70,001,2023_Apr_13_1411,SpeechDraft1Carolyn_lessNoise_PlusLocalization,2021.2.3,59.988618082173716,
flat.wav,flat.mpg,flat,2,A,Pink_Noise_2_1.wav,Pink_Noise_2_2.wav,,,,,,,,,,,,,,,0,94,94,9,,,,,,,,,,,,,,,,,,,,,,,750.4745414499193,None,751.9741084617563,None,753.357787723653,None,flat,753.357787723653,None,return,10.27591953985393,753.4411490308121,None,,,,,,,,,,,,,,,,,,,,,,,,,,,,,,,,,,,,,,,70,001,2023_Apr_13_1411,SpeechDraft1Carolyn_lessNoise_PlusLocalization,2021.2.3,59.988618082173716,
gag.wav,gag.mpg,gag,3,AV,Pink_Noise_3_1.wav,Pink_Noise_3_2.wav,,,,,,,,,,,,,,,0,95,95,72,,,,,,,,,,,,,,,,,,,,,,,763.7411385788582,None,765.2408811687492,None,766.6244824728929,None,gag,766.6244824728929,None,return,3.273207203950733,766.7079427829012,None,,,,,,,,,,,,,,,,,,,,,,,,,,,,,,,,,,,,,,,70,001,2023_Apr_13_1411,SpeechDraft1Carolyn_lessNoise_PlusLocalization,2021.2.3,59.988618082173716,
beard.wav,beard.mpg,beard,1,AV,Pink_Noise_1_1.wav,Pink_Noise_1_2.wav,,,,,,,,,,,,,,,0,96,96,64,,,,,,,,,,,,,,,,,,,,,,,770.0079081128351,None,771.5242285230197,None,772.9078189330176,None,beard,772.9078189330176,None,return,2.4454947728663683,772.9915204127319,None,,,,,,,,,,,,,,,,,,,,,,,,,,,,,,,,,,,,,,,70,001,2023_Apr_13_1411,SpeechDraft1Carolyn_lessNoise_PlusLocalization,2021.2.3,59.988618082173716,
clown.wav,clown.mpg,clown,4,AV,Pink_Noise_4_1.wav,Pink_Noise_4_2.wav,,,,,,,,,,,,,,,0,97,97,79,,,,,,,,,,,,,,,,,,,,,,,775.4579601008445,None,777.0076123736799,None,778.3911364707164,None,glow,778.3911364707164,None,return,3.282597931101918,778.4745329846628,None,,,,,,,,,,,,,,,,,,,,,,,,,,,,,,,,,,,,,,,70,001,2023_Apr_13_1411,SpeechDraft1Carolyn_lessNoise_PlusLocalization,2021.2.3,59.988618082173716,
depth.wav,depth.mpg,depth,4,A,Pink_Noise_4_1.wav,Pink_Noise_4_2.wav,,,,,,,,,,,,,,,0,98,98,21,,,,,,,,,,,,,,,,,,,,,,,781.7744956817478,None,783.2742759250104,None,784.6578693496995,None,depth,784.6578693496995,None,return,3.0160969239659607,784.7411952107213,None,,,,,,,,,,,,,,,,,,,,,,,,,,,,,,,,,,,,,,,70,001,2023_Apr_13_1411,SpeechDraft1Carolyn_lessNoise_PlusLocalization,2021.2.3,59.988618082173716,
clam.wav,clam.mpg,clam,4,A,Pink_Noise_4_1.wav,Pink_Noise_4_2.wav,,,,,,,,,,,,,,,0,99,99,49,,,,,,,,,,,,,,,,,,,,,,,787.7746952995658,None,789.2909888066351,None,790.6745956279337,None,glam,790.6745956279337,None,return,5.687213602941483,790.7578190048225,None,,,,,,,,,,,,,,,,,,,,,,,,,,,,,,,,,,,,,,,70,001,2023_Apr_13_1411,SpeechDraft1Carolyn_lessNoise_PlusLocalization,2021.2.3,59.988618082173716,
fable.wav,fable.mpg,fable,2,AV,Pink_Noise_2_1.wav,Pink_Noise_2_2.wav,,,,,,,,,,,,,,,0,100,100,67,,,,,,,,,,,,,,,,,,,,,,,796.4746230416931,None,797.990923684556,None,799.3744473615661,None,fable,799.3744473615661,None,return,3.9471827102825046,799.4578960686922,None,,,,,,,,,,,,,,,,,,,,,,,,,,,,,,,,,,,,,,,70,001,2023_Apr_13_1411,SpeechDraft1Carolyn_lessNoise_PlusLocalization,2021.2.3,59.988618082173716,
smack.wav,smack.mpg,smack,4,AV,Pink_Noise_4_1.wav,Pink_Noise_4_2.wav,,,,,,,,,,,,,,,0,101,101,85,,,,,,,,,,,,,,,,,,,,,,,803.4245866988786,None,804.9408918889239,None,806.3244459349662,None,smack,806.3244459349662,None,return,1.140929274726659,806.4081191639416,None,,,,,,,,,,,,,,,,,,,,,,,,,,,,,,,,,,,,,,,70,001,2023_Apr_13_1411,SpeechDraft1Carolyn_lessNoise_PlusLocalization,2021.2.3,59.988618082173716,
spray.wav,spray.mpg,spray,4,AV,Pink_Noise_4_1.wav,Pink_Noise_4_2.wav,,,,,,,,,,,,,,,0,102,102,78,,,,,,,,,,,,,,,,,,,,,,,807.5746086877771,None,809.0751487268135,None,810.4578607459553,None,"spray
",810.4578607459553,None,return,1.7518003028817475,810.5412533497438,None,,,,,,,,,,,,,,,,,,,,,,,,,,,,,,,,,,,,,,,70,001,2023_Apr_13_1411,SpeechDraft1Carolyn_lessNoise_PlusLocalization,2021.2.3,59.988618082173716,
cash.wav,cash.mpg,cash,1,AV,Pink_Noise_1_1.wav,Pink_Noise_1_2.wav,,,,,,,,,,,,,,,0,103,103,74,,,,,,,,,,,,,,,,,,,,,,,812.3245092509314,None,813.8243064628914,None,815.2078582798131,None,cash,815.2078582798131,None,return,0.9219387830235064,815.2912544719875,None,,,,,,,,,,,,,,,,,,,,,,,,,,,,,,,,,,,,,,,70,001,2023_Apr_13_1411,SpeechDraft1Carolyn_lessNoise_PlusLocalization,2021.2.3,59.988618082173716,
film.wav,film.mpg,film,1,AV,Pink_Noise_1_1.wav,Pink_Noise_1_2.wav,,,,,,,,,,,,,,,0,104,104,75,,,,,,,,,,,,,,,,,,,,,,,816.2412749775685,None,817.741726050619,None,819.1247310605831,None,fill,819.1247310605831,None,return,1.2210482549853623,819.2079915297218,None,,,,,,,,,,,,,,,,,,,,,,,,,,,,,,,,,,,,,,,70,001,2023_Apr_13_1411,SpeechDraft1Carolyn_lessNoise_PlusLocalization,2021.2.3,59.988618082173716,
wild.wav,wild.mpg,wild,3,AV,Pink_Noise_3_1.wav,Pink_Noise_3_2.wav,,,,,,,,,,,,,,,0,105,105,107,,,,,,,,,,,,,,,,,,,,,,,820.4579106178135,None,821.958305792883,None,823.3413316817023,None,wild,823.3413316817023,None,return,2.860468899831176,823.4245880288072,None,,,,,,,,,,,,,,,,,,,,,,,,,,,,,,,,,,,,,,,70,001,2023_Apr_13_1411,SpeechDraft1Carolyn_lessNoise_PlusLocalization,2021.2.3,59.988618082173716,
bake.wav,bake.mpg,bake,6,A,Pink_Noise_6_1.wav,Pink_Noise_6_2.wav,,,,,,,,,,,,,,,0,106,106,24,,,,,,,,,,,,,,,,,,,,,,,826.3079931358807,None,827.8243413488381,None,829.2080574799329,None,fate,829.2080574799329,None,return,2.06591517617926,829.2912297099829,None,,,,,,,,,,,,,,,,,,,,,,,,,,,,,,,,,,,,,,,70,001,2023_Apr_13_1411,SpeechDraft1Carolyn_lessNoise_PlusLocalization,2021.2.3,59.988618082173716,
fit.wav,fit.mpg,fit,4,AV,Pink_Noise_4_1.wav,Pink_Noise_4_2.wav,,,,,,,,,,,,,,,0,107,107,76,,,,,,,,,,,,,,,,,,,,,,,831.3747277748771,None,832.8909422187135,None,834.2745536528528,None,fit,834.2745536528528,None,return,2.511102227959782,834.3579316060059,None,,,,,,,,,,,,,,,,,,,,,,,,,,,,,,,,,,,,,,,70,001,2023_Apr_13_1411,SpeechDraft1Carolyn_lessNoise_PlusLocalization,2021.2.3,59.988618082173716,
script.wav,script.mpg,script,1,AV,Pink_Noise_1_1.wav,Pink_Noise_1_2.wav,,,,,,,,,,,,,,,0,108,108,118,,,,,,,,,,,,,,,,,,,,,,,836.8914178879932,None,838.4078453360125,None,839.791215708945,None,"script
",839.791215708945,None,return,4.234365022275597,839.8746714559384,None,,,,,,,,,,,,,,,,,,,,,,,,,,,,,,,,,,,,,,,70,001,2023_Apr_13_1411,SpeechDraft1Carolyn_lessNoise_PlusLocalization,2021.2.3,59.988618082173716,
deal.wav,deal.mpg,deal,3,AV,Pink_Noise_3_1.wav,Pink_Noise_3_2.wav,,,,,,,,,,,,,,,0,109,109,81,,,,,,,,,,,,,,,,,,,,,,,844.1412611356936,None,845.657665181905,None,847.0245154327713,None,till,847.0245154327713,None,return,2.408957526087761,847.1080727525987,None,,,,,,,,,,,,,,,,,,,,,,,,,,,,,,,,,,,,,,,70,001,2023_Apr_13_1411,SpeechDraft1Carolyn_lessNoise_PlusLocalization,2021.2.3,59.988618082173716,
bind.wav,bind.mpg,bind,2,AV,Pink_Noise_2_1.wav,Pink_Noise_2_2.wav,,,,,,,,,,,,,,,0,110,110,69,,,,,,,,,,,,,,,,,,,,,,,849.5413338416256,None,851.04103302164,None,852.4245799346827,None,bind,852.4245799346827,None,return,1.305081858765334,852.5080807758495,None,,,,,,,,,,,,,,,,,,,,,,,,,,,,,,,,,,,,,,,70,001,2023_Apr_13_1411,SpeechDraft1Carolyn_lessNoise_PlusLocalization,2021.2.3,59.988618082173716,
chump.wav,chump.mpg,chump,2,A,Pink_Noise_2_1.wav,Pink_Noise_2_2.wav,,,,,,,,,,,,,,,0,111,111,38,,,,,,,,,,,,,,,,,,,,,,,853.8413817016408,None,855.3424666658975,None,856.72464674199,None,chunk,856.72464674199,None,return,2.645174285862595,856.8078801706433,None,,,,,,,,,,,,,,,,,,,,,,,,,,,,,,,,,,,,,,,70,001,2023_Apr_13_1411,SpeechDraft1Carolyn_lessNoise_PlusLocalization,2021.2.3,59.988618082173716,
drum.wav,drum.mpg,drum,6,A,Pink_Noise_6_1.wav,Pink_Noise_6_2.wav,,,,,,,,,,,,,,,0,112,112,47,,,,,,,,,,,,,,,,,,,,,,,859.4746757247485,None,860.9756033648737,None,862.3579606688581,None,drone,862.3579606688581,None,return,3.179787416011095,862.4413412306458,None,,,,,,,,,,,,,,,,,,,,,,,,,,,,,,,,,,,,,,,70,001,2023_Apr_13_1411,SpeechDraft1Carolyn_lessNoise_PlusLocalization,2021.2.3,59.988618082173716,
foam.wav,foam.mpg,foam,2,A,Pink_Noise_2_1.wav,Pink_Noise_2_2.wav,,,,,,,,,,,,,,,0,113,113,11,,,,,,,,,,,,,,,,,,,,,,,865.6414096867666,None,867.1757157128304,None,868.5581126236357,None,foam,868.5581126236357,None,return,10.203683778643608,868.6413532840088,None,,,,,,,,,,,,,,,,,,,,,,,,,,,,,,,,,,,,,,,70,001,2023_Apr_13_1411,SpeechDraft1Carolyn_lessNoise_PlusLocalization,2021.2.3,59.988618082173716,
broad.wav,broad.mpg,broad,1,A,Pink_Noise_1_1.wav,Pink_Noise_1_2.wav,,,,,,,,,,,,,,,0,114,114,7,,,,,,,,,,,,,,,,,,,,,,,878.8747326587327,None,880.3909864169545,None,881.7748171356507,None,broad,881.7748171356507,None,return,1.5551311718299985,881.8580000409856,None,,,,,,,,,,,,,,,,,,,,,,,,,,,,,,,,,,,,,,,70,001,2023_Apr_13_1411,SpeechDraft1Carolyn_lessNoise_PlusLocalization,2021.2.3,59.988618082173716,
cop.wav,cop.mpg,cop,6,AV,Pink_Noise_6_1.wav,Pink_Noise_6_2.wav,,,,,,,,,,,,,,,0,115,115,89,,,,,,,,,,,,,,,,,,,,,,,883.4414774407633,None,884.9576411629096,None,886.3412875509821,None,cup,886.3412875509821,None,return,1.1083371140994132,886.4246957129799,None,,,,,,,,,,,,,,,,,,,,,,,,,,,,,,,,,,,,,,,70,001,2023_Apr_13_1411,SpeechDraft1Carolyn_lessNoise_PlusLocalization,2021.2.3,59.988618082173716,
cube.wav,cube.mpg,cube,3,AV,Pink_Noise_3_1.wav,Pink_Noise_3_2.wav,,,,,,,,,,,,,,,0,116,116,112,,,,,,,,,,,,,,,,,,,,,,,887.5580724747851,None,889.0744184106588,None,890.4579292805865,None,cube,890.4579292805865,None,return,3.2156652421690524,890.541455950588,None,,,,,,,,,,,,,,,,,,,,,,,,,,,,,,,,,,,,,,,70,001,2023_Apr_13_1411,SpeechDraft1Carolyn_lessNoise_PlusLocalization,2021.2.3,59.988618082173716,
farm.wav,farm.mpg,farm,6,A,Pink_Noise_6_1.wav,Pink_Noise_6_2.wav,,,,,,,,,,,,,,,0,117,117,30,,,,,,,,,,,,,,,,,,,,,,,893.7746495786123,None,895.2909800666384,None,896.6747245215811,None,find,896.6747245215811,None,return,4.47899388987571,896.7580750416964,None,,,,,,,,,,,,,,,,,,,,,,,,,,,,,,,,,,,,,,,70,001,2023_Apr_13_1411,SpeechDraft1Carolyn_lessNoise_PlusLocalization,2021.2.3,59.988618082173716,
golf.wav,golf.mpg,golf,4,AV,Pink_Noise_4_1.wav,Pink_Noise_4_2.wav,,,,,,,,,,,,,,,0,118,118,95,,,,,,,,,,,,,,,,,,,,,,,901.2581318449229,None,902.7744365646504,None,904.1580124995671,None,gulf,904.1580124995671,None,return,2.203575639054179,904.241477473639,None,,,,,,,,,,,,,,,,,,,,,,,,,,,,,,,,,,,,,,,70,001,2023_Apr_13_1411,SpeechDraft1Carolyn_lessNoise_PlusLocalization,2021.2.3,59.988618082173716,
bark.wav,bark.mpg,bark,5,AV,Pink_Noise_5_1.wav,Pink_Noise_5_2.wav,,,,,,,,,,,,,,,0,119,119,60,,,,,,,,,,,,,,,,,,,,,,,906.4747597249225,None,908.0084444917738,None,909.3913784446195,None,bark,909.3913784446195,None,return,2.026275302283466,909.4747826308012,None,,,,,,,,,,,,,,,,,,,,,,,,,,,,,,,,,,,,,,,70,001,2023_Apr_13_1411,SpeechDraft1Carolyn_lessNoise_PlusLocalization,2021.2.3,59.988618082173716,
,,,,,,,,,,,,,,,,,,,,,,,,,,,,,,,,,,,,,,,,,,,,,,,,,,,,,,,,,,,,,,,,,,space,49.50025004288182,911.6247827885672,None,,,,,,,,,,,,,,,,,,,,,,,,,,,,,70,001,2023_Apr_13_1411,SpeechDraft1Carolyn_lessNoise_PlusLocalization,2021.2.3,59.988618082173716,
,,,,,,,,farLeft,-19.1,5,ch1Sound_localizationTask.wav,-19.1,"(667, 878)","(-293,-202)",-285,-338,,,,,,,,,0,0,0,0,,,,,,,,,,,,,,,,,,,,,,,,,,,,,,,,,,,,,,,,,,911.6247827885672,None,961.174541820772,None,962.2744997716509,None,963.2078502178192,None,1.3767195767195768,1.9355129241012037,963.2078502178192,None,,,,,,,,,,,,,,,,,70,001,2023_Apr_13_1411,SpeechDraft1Carolyn_lessNoise_PlusLocalization,2021.2.3,59.988618082173716,
,,,,,,,,farLeft,-19.1,5,ch1Sound_localizationTask.wav,-19.1,"(667, 878)","(-293,-202)",-285,-338,,,,,,,,,0,1,1,0,,,,,,,,,,,,,,,,,,,,,,,,,,,,,,,,,,,,,,,,,,,,965.1579066836275,None,966.2578570726328,None,967.1746677006595,None,1.2798941798941799,0.7830734858289361,967.1746677006595,None,,,,,,,,,,,,,,,,,70,001,2023_Apr_13_1411,SpeechDraft1Carolyn_lessNoise_PlusLocalization,2021.2.3,59.988618082173716,
,,,,,,,,nearLeft,-6.5,1,ch1Sound_localizationTask.wav,-6.5,"(857, 878)","(-103,-202)",-95,-338,,,,,,,,,0,2,2,2,,,,,,,,,,,,,,,,,,,,,,,,,,,,,,,,,,,,,,,,,,,,967.9582884889096,None,969.0577800218016,None,969.9912045919336,None,1.4116402116402116,0.6831910656765103,969.9912045919336,None,,,,,,,,,,,,,,,,,70,001,2023_Apr_13_1411,SpeechDraft1Carolyn_lessNoise_PlusLocalization,2021.2.3,59.988618082173716,
,,,,,,,,nearLeft,-6.5,1,ch1Sound_localizationTask.wav,-6.5,"(857, 878)","(-103,-202)",-95,-338,,,,,,,,,0,3,3,2,,,,,,,,,,,,,,,,,,,,,,,,,,,,,,,,,,,,,,,,,,,,970.6749935136177,None,971.7746087806299,None,972.707752215676,None,1.3687830687830687,0.5652136649005115,972.707752215676,None,,,,,,,,,,,,,,,,,70,001,2023_Apr_13_1411,SpeechDraft1Carolyn_lessNoise_PlusLocalization,2021.2.3,59.988618082173716,
,,,,,,,,nearLeft,-6.5,1,ch1Sound_localizationTask.wav,-6.5,"(857, 878)","(-103,-202)",-95,-338,,,,,,,,,0,4,4,2,,,,,,,,,,,,,,,,,,,,,,,,,,,,,,,,,,,,,,,,,,,,973.2747800177895,None,974.3744754246436,None,975.3077048016712,None,1.397883597883598,0.5659383120946586,975.3077048016712,None,,,,,,,,,,,,,,,,,70,001,2023_Apr_13_1411,SpeechDraft1Carolyn_lessNoise_PlusLocalization,2021.2.3,59.988618082173716,
,,,,,,,,midRight,13.0,3,ch1Sound_localizationTask.wav,13.0,"(1142, 878)","(182, -202)",190,-338,,,,,,,,,0,5,5,5,,,,,,,,,,,,,,,,,,,,,,,,,,,,,,,,,,,,,,,,,,,,975.8749318397604,None,976.9744872488081,None,977.9077077317052,None,1.6703703703703705,0.7654141867533326,977.9077077317052,None,,,,,,,,,,,,,,,,,70,001,2023_Apr_13_1411,SpeechDraft1Carolyn_lessNoise_PlusLocalization,2021.2.3,59.988618082173716,
,,,,,,,,center,0.0,6,ch1Sound_localizationTask.wav,0.0,"(952, 878)","(-8,-202)",0,-338,,,,,,,,,0,6,6,3,,,,,,,,,,,,,,,,,,,,,,,,,,,,,,,,,,,,,,,,,,,,978.6749078887515,None,979.7744734236039,None,980.707777265925,None,1.4317460317460318,0.6494256616570055,980.707777265925,None,,,,,,,,,,,,,,,,,70,001,2023_Apr_13_1411,SpeechDraft1Carolyn_lessNoise_PlusLocalization,2021.2.3,59.988618082173716,
,,,,,,,,farLeft,-19.1,5,ch1Sound_localizationTask.wav,-19.1,"(667, 878)","(-293,-202)",-285,-338,,,,,,,,,1,0,7,0,,,,,,,,,,,,,,,,,,,,,,,,,,,,,,,,,,,,,,,,,,,,981.3581366837025,None,982.4578556627966,None,983.3911424339749,None,1.253968253968254,0.6826334442012012,983.3911424339749,None,,,,,,,,,,,,,,,,,70,001,2023_Apr_13_1411,SpeechDraft1Carolyn_lessNoise_PlusLocalization,2021.2.3,59.988618082173716,
,,,,,,,,farRight,19.1,4,ch1Sound_localizationTask.wav,19.1,"(1237, 878)","(277,-202)",285,-338,,,,,,,,,1,1,8,6,,,,,,,,,,,,,,,,,,,,,,,,,,,,,,,,,,,,,,,,,,,,984.0748471487314,None,985.1744856997393,None,986.1079146289267,None,1.7216931216931217,0.7493871399201453,986.1079146289267,None,,,,,,,,,,,,,,,,,70,001,2023_Apr_13_1411,SpeechDraft1Carolyn_lessNoise_PlusLocalization,2021.2.3,59.988618082173716,
,,,,,,,,nearRight,6.5,0,ch1Sound_localizationTask.wav,6.5,"(1047, 878)","(87, -202)",95,-338,,,,,,,,,1,2,9,4,,,,,,,,,,,,,,,,,,,,,,,,,,,,,,,,,,,,,,,,,,,,986.8590649459511,None,987.957814740017,None,988.891171481926,None,1.4788359788359788,0.6328962417319417,988.891171481926,None,,,,,,,,,,,,,,,,,70,001,2023_Apr_13_1411,SpeechDraft1Carolyn_lessNoise_PlusLocalization,2021.2.3,59.988618082173716,
,,,,,,,,center,0.0,6,ch1Sound_localizationTask.wav,0.0,"(952, 878)","(-8,-202)",0,-338,,,,,,,,,1,3,10,3,,,,,,,,,,,,,,,,,,,,,,,,,,,,,,,,,,,,,,,,,,,,989.5251024928875,None,990.6244777496904,None,991.5579920336604,None,1.4788359788359788,0.36632923502475023,991.5579920336604,None,,,,,,,,,,,,,,,,,70,001,2023_Apr_13_1411,SpeechDraft1Carolyn_lessNoise_PlusLocalization,2021.2.3,59.988618082173716,
,,,,,,,,nearLeft,-6.5,1,ch1Sound_localizationTask.wav,-6.5,"(857, 878)","(-103,-202)",-95,-338,,,,,,,,,1,4,11,2,,,,,,,,,,,,,,,,,,,,,,,,,,,,,,,,,,,,,,,,,,,,991.9249329078011,None,993.0247091748752,None,993.9580509229563,None,1.3052910052910054,0.6825556727126241,993.9580509229563,None,,,,,,,,,,,,,,,,,70,001,2023_Apr_13_1411,SpeechDraft1Carolyn_lessNoise_PlusLocalization,2021.2.3,59.988618082173716,
,,,,,,,,farLeft,-19.1,5,ch1Sound_localizationTask.wav,-19.1,"(667, 878)","(-293,-202)",-285,-338,,,,,,,,,1,5,12,0,,,,,,,,,,,,,,,,,,,,,,,,,,,,,,,,,,,,,,,,,,,,994.6424854230136,None,995.7412027427927,None,996.6745967366733,None,1.3285714285714285,0.6832446777261794,996.6745967366733,None,,,,,,,,,,,,,,,,,70,001,2023_Apr_13_1411,SpeechDraft1Carolyn_lessNoise_PlusLocalization,2021.2.3,59.988618082173716,
,,,,,,,,center,0.0,6,ch1Sound_localizationTask.wav,0.0,"(952, 878)","(-8,-202)",0,-338,,,,,,,,,1,6,13,3,,,,,,,,,,,,,,,,,,,,,,,,,,,,,,,,,,,,,,,,,,,,997.3592772036791,None,998.4745186697692,None,999.3913373067044,None,1.506878306878307,0.5663057081401348,999.3913373067044,None,,,,,,,,,,,,,,,,,70,001,2023_Apr_13_1411,SpeechDraft1Carolyn_lessNoise_PlusLocalization,2021.2.3,59.988618082173716,
,,,,,,,,midLeft,-13.0,2,ch1Sound_localizationTask.wav,-13.0,"(762, 878)","(-198,-202)",-190,-338,,,,,,,,,2,0,14,1,,,,,,,,,,,,,,,,,,,,,,,,,,,,,,,,,,,,,,,,,,,,999.9581229598261,None,1001.0578095265664,None,1001.9913316527382,None,1.3126984126984127,0.6837164331227541,1001.9913316527382,None,,,,,,,,,,,,,,,,,70,001,2023_Apr_13_1411,SpeechDraft1Carolyn_lessNoise_PlusLocalization,2021.2.3,59.988618082173716,
,,,,,,,,nearRight,6.5,0,ch1Sound_localizationTask.wav,6.5,"(1047, 878)","(87, -202)",95,-338,,,,,,,,,2,1,15,4,,,,,,,,,,,,,,,,,,,,,,,,,,,,,,,,,,,,,,,,,,,,1002.6915361946449,None,1003.7913383166306,None,1004.7244785758667,None,1.6185185185185185,0.666388516779989,1004.7244785758667,None,,,,,,,,,,,,,,,,,70,001,2023_Apr_13_1411,SpeechDraft1Carolyn_lessNoise_PlusLocalization,2021.2.3,59.988618082173716,
,,,,,,,,midRight,13.0,3,ch1Sound_localizationTask.wav,13.0,"(1142, 878)","(182, -202)",190,-338,,,,,,,,,2,2,16,5,,,,,,,,,,,,,,,,,,,,,,,,,,,,,,,,,,,,,,,,,,,,1005.3923405227251,None,1006.4912340929732,None,1007.4246176206507,None,1.7333333333333334,0.7151634385809302,1007.4246176206507,None,,,,,,,,,,,,,,,,,70,001,2023_Apr_13_1411,SpeechDraft1Carolyn_lessNoise_PlusLocalization,2021.2.3,59.988618082173716,
,,,,,,,,farRight,19.1,4,ch1Sound_localizationTask.wav,19.1,"(1237, 878)","(277,-202)",285,-338,,,,,,,,,2,3,17,6,,,,,,,,,,,,,,,,,,,,,,,,,,,,,,,,,,,,,,,,,,,,1008.1415869416669,None,1009.2411659387872,None,1010.174491032958,None,1.6867724867724867,0.36617072811350226,1010.174491032958,None,,,,,,,,,,,,,,,,,70,001,2023_Apr_13_1411,SpeechDraft1Carolyn_lessNoise_PlusLocalization,2021.2.3,59.988618082173716,
,,,,,,,,nearRight,6.5,0,ch1Sound_localizationTask.wav,6.5,"(1047, 878)","(87, -202)",95,-338,,,,,,,,,2,4,18,4,,,,,,,,,,,,,,,,,,,,,,,,,,,,,,,,,,,,,,,,,,,,1010.5414845086634,None,1011.6412814008072,None,1012.5745808086358,None,1.4957671957671956,0.666730398312211,1012.5745808086358,None,,,,,,,,,,,,,,,,,70,001,2023_Apr_13_1411,SpeechDraft1Carolyn_lessNoise_PlusLocalization,2021.2.3,59.988618082173716,
,,,,,,,,farRight,19.1,4,ch1Sound_localizationTask.wav,19.1,"(1237, 878)","(277,-202)",285,-338,,,,,,,,,2,5,19,6,,,,,,,,,,,,,,,,,,,,,,,,,,,,,,,,,,,,,,,,,,,,1013.2583733438514,None,1014.3579544476233,None,1015.291172252968,None,1.6671957671957671,0.5327739887870848,1015.291172252968,None,,,,,,,,,,,,,,,,,70,001,2023_Apr_13_1411,SpeechDraft1Carolyn_lessNoise_PlusLocalization,2021.2.3,59.988618082173716,
,,,,,,,,farRight,19.1,4,ch1Sound_localizationTask.wav,19.1,"(1237, 878)","(277,-202)",285,-338,,,,,,,,,2,6,20,6,,,,,,,,,,,,,,,,,,,,,,,,,,,,,,,,,,,,,,,,,,,,1015.8249043556862,None,1016.9244917109609,None,1017.8579247849993,None,1.6592592592592592,0.6485222829505801,1017.8579247849993,None,,,,,,,,,,,,,,,,,70,001,2023_Apr_13_1411,SpeechDraft1Carolyn_lessNoise_PlusLocalization,2021.2.3,59.988618082173716,
,,,,,,,,farRight,19.1,4,ch1Sound_localizationTask.wav,19.1,"(1237, 878)","(277,-202)",285,-338,,,,,,,,,3,0,21,6,,,,,,,,,,,,,,,,,,,,,,,,,,,,,,,,,,,,,,,,,,,,1018.5081746336073,None,1019.6079463218339,None,1020.5412298268639,None,1.7285714285714286,0.4167921463958919,1020.5412298268639,None,,,,,,,,,,,,,,,,,70,001,2023_Apr_13_1411,SpeechDraft1Carolyn_lessNoise_PlusLocalization,2021.2.3,59.988618082173716,
,,,,,,,,center,0.0,6,ch1Sound_localizationTask.wav,0.0,"(952, 878)","(-8,-202)",0,-338,,,,,,,,,3,1,22,3,,,,,,,,,,,,,,,,,,,,,,,,,,,,,,,,,,,,,,,,,,,,1020.9593276968226,None,1022.0745906457305,None,1022.9913422795944,None,1.435978835978836,0.5503598302602768,1022.9913422795944,None,,,,,,,,,,,,,,,,,70,001,2023_Apr_13_1411,SpeechDraft1Carolyn_lessNoise_PlusLocalization,2021.2.3,59.988618082173716,
,,,,,,,,nearLeft,-6.5,1,ch1Sound_localizationTask.wav,-6.5,"(857, 878)","(-103,-202)",-95,-338,,,,,,,,,3,2,23,2,,,,,,,,,,,,,,,,,,,,,,,,,,,,,,,,,,,,,,,,,,,,1023.5583784165792,None,1024.6579333189875,None,1025.5912637556903,None,1.3825396825396825,0.6003377758897841,1025.5912637556903,None,,,,,,,,,,,,,,,,,70,001,2023_Apr_13_1411,SpeechDraft1Carolyn_lessNoise_PlusLocalization,2021.2.3,59.988618082173716,
,,,,,,,,midLeft,-13.0,2,ch1Sound_localizationTask.wav,-13.0,"(762, 878)","(-198,-202)",-190,-338,,,,,,,,,3,3,24,1,,,,,,,,,,,,,,,,,,,,,,,,,,,,,,,,,,,,,,,,,,,,1026.2085244390182,None,1027.307891588658,None,1028.2412440530024,None,1.3291005291005291,0.5822727759368718,1028.2412440530024,None,,,,,,,,,,,,,,,,,70,001,2023_Apr_13_1411,SpeechDraft1Carolyn_lessNoise_PlusLocalization,2021.2.3,59.988618082173716,
,,,,,,,,midLeft,-13.0,2,ch1Sound_localizationTask.wav,-13.0,"(762, 878)","(-198,-202)",-190,-338,,,,,,,,,3,4,25,1,,,,,,,,,,,,,,,,,,,,,,,,,,,,,,,,,,,,,,,,,,,,1028.825165671762,None,1029.92458475288,None,1030.8581266119145,None,1.392063492063492,0.43233356811106205,1030.8581266119145,None,,,,,,,,,,,,,,,,,70,001,2023_Apr_13_1411,SpeechDraft1Carolyn_lessNoise_PlusLocalization,2021.2.3,59.988618082173716,
,,,,,,,,center,0.0,6,ch1Sound_localizationTask.wav,0.0,"(952, 878)","(-8,-202)",0,-338,,,,,,,,,3,5,26,3,,,,,,,,,,,,,,,,,,,,,,,,,,,,,,,,,,,,,,,,,,,,1031.2915404406376,None,1032.3912561279722,None,1033.3245331486687,None,1.4693121693121693,0.4332266431301832,1033.3245331486687,None,,,,,,,,,,,,,,,,,70,001,2023_Apr_13_1411,SpeechDraft1Carolyn_lessNoise_PlusLocalization,2021.2.3,59.988618082173716,
,,,,,,,,midLeft,-13.0,2,ch1Sound_localizationTask.wav,-13.0,"(762, 878)","(-198,-202)",-190,-338,,,,,,,,,3,6,27,1,,,,,,,,,,,,,,,,,,,,,,,,,,,,,,,,,,,,,,,,,,,,1033.7582216337323,None,1034.8578322008252,None,1035.791399476584,None,1.342857142857143,0.3984392713755369,1035.791399476584,None,,,,,,,,,,,,,,,,,70,001,2023_Apr_13_1411,SpeechDraft1Carolyn_lessNoise_PlusLocalization,2021.2.3,59.988618082173716,
,,,,,,,,farRight,19.1,4,ch1Sound_localizationTask.wav,19.1,"(1237, 878)","(277,-202)",285,-338,,,,,,,,,4,0,28,6,,,,,,,,,,,,,,,,,,,,,,,,,,,,,,,,,,,,,,,,,,,,1036.1915509896353,None,1037.2912712348625,None,1038.224599441979,None,1.6111111111111112,0.7357755419798195,1038.224599441979,None,,,,,,,,,,,,,,,,,70,001,2023_Apr_13_1411,SpeechDraft1Carolyn_lessNoise_PlusLocalization,2021.2.3,59.988618082173716,
,,,,,,,,nearRight,6.5,0,ch1Sound_localizationTask.wav,6.5,"(1047, 878)","(87, -202)",95,-338,,,,,,,,,4,1,29,4,,,,,,,,,,,,,,,,,,,,,,,,,,,,,,,,,,,,,,,,,,,,1038.974916889798,None,1040.074725692626,None,1041.0079679726623,None,1.4624338624338624,0.5168425138108432,1041.0079679726623,None,,,,,,,,,,,,,,,,,70,001,2023_Apr_13_1411,SpeechDraft1Carolyn_lessNoise_PlusLocalization,2021.2.3,59.988618082173716,
,,,,,,,,midLeft,-13.0,2,ch1Sound_localizationTask.wav,-13.0,"(762, 878)","(-198,-202)",-190,-338,,,,,,,,,4,2,30,1,,,,,,,,,,,,,,,,,,,,,,,,,,,,,,,,,,,,,,,,,,,,1041.5415905867703,None,1042.6412470689975,None,1043.5747087569907,None,1.3222222222222222,0.5492530888877809,1043.5747087569907,None,,,,,,,,,,,,,,,,,70,001,2023_Apr_13_1411,SpeechDraft1Carolyn_lessNoise_PlusLocalization,2021.2.3,59.988618082173716,
,,,,,,,,midLeft,-13.0,2,ch1Sound_localizationTask.wav,-13.0,"(762, 878)","(-198,-202)",-190,-338,,,,,,,,,4,3,31,1,,,,,,,,,,,,,,,,,,,,,,,,,,,,,,,,,,,,,,,,,,,,1044.1252742628567,None,1045.2245412776247,None,1046.1581432046369,None,1.3656084656084655,0.43335504177957773,1046.1581432046369,None,,,,,,,,,,,,,,,,,70,001,2023_Apr_13_1411,SpeechDraft1Carolyn_lessNoise_PlusLocalization,2021.2.3,59.988618082173716,
,,,,,,,,farLeft,-19.1,5,ch1Sound_localizationTask.wav,-19.1,"(667, 878)","(-293,-202)",-285,-338,,,,,,,,,4,4,32,0,,,,,,,,,,,,,,,,,,,,,,,,,,,,,,,,,,,,,,,,,,,,1046.59213755792,None,1047.691300645005,None,1048.6248070467263,None,1.2724867724867726,0.4663283620029688,1048.6248070467263,None,,,,,,,,,,,,,,,,,70,001,2023_Apr_13_1411,SpeechDraft1Carolyn_lessNoise_PlusLocalization,2021.2.3,59.988618082173716,
,,,,,,,,midLeft,-13.0,2,ch1Sound_localizationTask.wav,-13.0,"(762, 878)","(-198,-202)",-190,-338,,,,,,,,,4,5,33,1,,,,,,,,,,,,,,,,,,,,,,,,,,,,,,,,,,,,,,,,,,,,1049.0918303187937,None,1050.1911256327294,None,1051.1245745546184,None,1.2941798941798943,0.4170378469862044,1051.1245745546184,None,,,,,,,,,,,,,,,,,70,001,2023_Apr_13_1411,SpeechDraft1Carolyn_lessNoise_PlusLocalization,2021.2.3,59.988618082173716,
,,,,,,,,farRight,19.1,4,ch1Sound_localizationTask.wav,19.1,"(1237, 878)","(277,-202)",285,-338,,,,,,,,,4,6,34,6,,,,,,,,,,,,,,,,,,,,,,,,,,,,,,,,,,,,,,,,,,,,1051.5423224777915,None,1052.641313565895,None,1053.5747145516798,None,1.6619047619047618,0.7662529707886279,1053.5747145516798,None,,,,,,,,,,,,,,,,,70,001,2023_Apr_13_1411,SpeechDraft1Carolyn_lessNoise_PlusLocalization,2021.2.3,59.988618082173716,
,,,,,,,,nearRight,6.5,0,ch1Sound_localizationTask.wav,6.5,"(1047, 878)","(87, -202)",95,-338,,,,,,,,,5,0,35,4,,,,,,,,,,,,,,,,,,,,,,,,,,,,,,,,,,,,,,,,,,,,1054.3419130239636,None,1055.441373191774,None,1056.3746828129515,None,1.4798941798941798,0.3993506859987974,1056.3746828129515,None,,,,,,,,,,,,,,,,,70,001,2023_Apr_13_1411,SpeechDraft1Carolyn_lessNoise_PlusLocalization,2021.2.3,59.988618082173716,
,,,,,,,,center,0.0,6,ch1Sound_localizationTask.wav,0.0,"(952, 878)","(-8,-202)",0,-338,,,,,,,,,5,1,36,3,,,,,,,,,,,,,,,,,,,,,,,,,,,,,,,,,,,,,,,,,,,,1056.7750921337865,None,1057.8747670445591,None,1058.8080428857356,None,1.5507936507936508,0.2654678407125175,1058.8080428857356,None,,,,,,,,,,,,,,,,,70,001,2023_Apr_13_1411,SpeechDraft1Carolyn_lessNoise_PlusLocalization,2021.2.3,59.988618082173716,
,,,,,,,,nearRight,6.5,0,ch1Sound_localizationTask.wav,6.5,"(1047, 878)","(87, -202)",95,-338,,,,,,,,,5,2,37,4,,,,,,,,,,,,,,,,,,,,,,,,,,,,,,,,,,,,,,,,,,,,1059.0750189367682,None,1060.1745820418,None,1061.1080844658427,None,1.516931216931217,0.39803515560925007,1061.1080844658427,None,,,,,,,,,,,,,,,,,70,001,2023_Apr_13_1411,SpeechDraft1Carolyn_lessNoise_PlusLocalization,2021.2.3,59.988618082173716,
,,,,,,,,farLeft,-19.1,5,ch1Sound_localizationTask.wav,-19.1,"(667, 878)","(-293,-202)",-285,-338,,,,,,,,,5,3,38,0,,,,,,,,,,,,,,,,,,,,,,,,,,,,,,,,,,,,,,,,,,,,1061.508252565749,None,1062.6079503777437,None,1063.5414088959806,None,1.3058201058201058,0.4678445439785719,1063.5414088959806,None,,,,,,,,,,,,,,,,,70,001,2023_Apr_13_1411,SpeechDraft1Carolyn_lessNoise_PlusLocalization,2021.2.3,59.988618082173716,
,,,,,,,,midRight,13.0,3,ch1Sound_localizationTask.wav,13.0,"(1142, 878)","(182, -202)",190,-338,,,,,,,,,5,4,39,5,,,,,,,,,,,,,,,,,,,,,,,,,,,,,,,,,,,,,,,,,,,,1064.0251006009057,None,1065.1249002809636,None,1066.0580374565907,None,1.671957671957672,0.5825271299108863,1066.0580374565907,None,,,,,,,,,,,,,,,,,70,001,2023_Apr_13_1411,SpeechDraft1Carolyn_lessNoise_PlusLocalization,2021.2.3,59.988618082173716,
,,,,,,,,midRight,13.0,3,ch1Sound_localizationTask.wav,13.0,"(1142, 878)","(182, -202)",190,-338,,,,,,,,,5,5,40,5,,,,,,,,,,,,,,,,,,,,,,,,,,,,,,,,,,,,,,,,,,,,1066.6417079726234,None,1067.7414366109297,None,1068.674643159844,None,1.5603174603174603,0.45081162778660655,1068.674643159844,None,,,,,,,,,,,,,,,,,70,001,2023_Apr_13_1411,SpeechDraft1Carolyn_lessNoise_PlusLocalization,2021.2.3,59.988618082173716,
,,,,,,,,midLeft,-13.0,2,ch1Sound_localizationTask.wav,-13.0,"(762, 878)","(-198,-202)",-190,-338,,,,,,,,,5,6,41,1,,,,,,,,,,,,,,,,,,,,,,,,,,,,,,,,,,,,,,,,,,,,1069.1416481588967,None,1070.2412738418207,None,1071.1746414499357,None,1.3026455026455026,0.6162673439830542,1071.1746414499357,None,,,,,,,,,,,,,,,,,70,001,2023_Apr_13_1411,SpeechDraft1Carolyn_lessNoise_PlusLocalization,2021.2.3,59.988618082173716,
,,,,,,,,midRight,13.0,3,ch1Sound_localizationTask.wav,13.0,"(1142, 878)","(182, -202)",190,-338,,,,,,,,,6,0,42,5,,,,,,,,,,,,,,,,,,,,,,,,,,,,,,,,,,,,,,,,,,,,1071.7917216639034,None,1072.8912781639956,None,1073.8248589057475,None,1.6026455026455027,0.664916530251503,1073.8248589057475,None,,,,,,,,,,,,,,,,,70,001,2023_Apr_13_1411,SpeechDraft1Carolyn_lessNoise_PlusLocalization,2021.2.3,59.988618082173716,
,,,,,,,,farLeft,-19.1,5,ch1Sound_localizationTask.wav,-19.1,"(667, 878)","(-293,-202)",-285,-338,,,,,,,,,6,1,43,0,,,,,,,,,,,,,,,,,,,,,,,,,,,,,,,,,,,,,,,,,,,,1074.4915831037797,None,1075.5913276425563,None,1076.5245779720135,None,1.2915343915343915,0.5989275709725916,1076.5245779720135,None,,,,,,,,,,,,,,,,,70,001,2023_Apr_13_1411,SpeechDraft1Carolyn_lessNoise_PlusLocalization,2021.2.3,59.988618082173716,
,,,,,,,,center,0.0,6,ch1Sound_localizationTask.wav,0.0,"(952, 878)","(-8,-202)",0,-338,,,,,,,,,6,2,44,3,,,,,,,,,,,,,,,,,,,,,,,,,,,,,,,,,,,,,,,,,,,,1077.1250129099935,None,1078.224670700729,None,1079.1579534285702,None,1.507936507936508,0.6829229462891817,1079.1579534285702,None,,,,,,,,,,,,,,,,,70,001,2023_Apr_13_1411,SpeechDraft1Carolyn_lessNoise_PlusLocalization,2021.2.3,59.988618082173716,
,,,,,,,,nearRight,6.5,0,ch1Sound_localizationTask.wav,6.5,"(1047, 878)","(87, -202)",95,-338,,,,,,,,,6,3,45,4,,,,,,,,,,,,,,,,,,,,,,,,,,,,,,,,,,,,,,,,,,,,1079.8416313678026,None,1080.9412479768507,None,1081.8748745289631,None,1.6301587301587301,0.5326908328570426,1081.8748745289631,None,,,,,,,,,,,,,,,,,70,001,2023_Apr_13_1411,SpeechDraft1Carolyn_lessNoise_PlusLocalization,2021.2.3,59.988618082173716,
,,,,,,,,midRight,13.0,3,ch1Sound_localizationTask.wav,13.0,"(1142, 878)","(182, -202)",190,-338,,,,,,,,,6,4,46,5,,,,,,,,,,,,,,,,,,,,,,,,,,,,,,,,,,,,,,,,,,,,1082.40833121771,None,1083.5079751815647,None,1084.4413574747741,None,1.680952380952381,0.46485626278445125,1084.4413574747741,None,,,,,,,,,,,,,,,,,70,001,2023_Apr_13_1411,SpeechDraft1Carolyn_lessNoise_PlusLocalization,2021.2.3,59.988618082173716,
,,,,,,,,farLeft,-19.1,5,ch1Sound_localizationTask.wav,-19.1,"(667, 878)","(-293,-202)",-285,-338,,,,,,,,,6,5,47,0,,,,,,,,,,,,,,,,,,,,,,,,,,,,,,,,,,,,,,,,,,,,1084.9084088406526,None,1086.0081218658015,None,1086.9413150586188,None,1.253968253968254,0.616463459096849,1086.9413150586188,None,,,,,,,,,,,,,,,,,70,001,2023_Apr_13_1411,SpeechDraft1Carolyn_lessNoise_PlusLocalization,2021.2.3,59.988618082173716,
,,,,,,,,center,0.0,6,ch1Sound_localizationTask.wav,0.0,"(952, 878)","(-8,-202)",0,-338,,,,,,,,,6,6,48,3,,,,,,,,,,,,,,,,,,,,,,,,,,,,,,,,,,,,,,,,,,,,1087.5590224978514,None,1088.6581271486357,None,1089.591458699666,None,1.5582010582010581,0.4836142989806831,1089.591458699666,None,,,,,,,,,,,,,,,,,70,001,2023_Apr_13_1411,SpeechDraft1Carolyn_lessNoise_PlusLocalization,2021.2.3,59.988618082173716,
,,,,,,,,nearRight,6.5,0,ch1Sound_localizationTask.wav,6.5,"(1047, 878)","(87, -202)",95,-338,,,,,,,,,7,0,49,4,,,,,,,,,,,,,,,,,,,,,,,,,,,,,,,,,,,,,,,,,,,,1090.075746505987,None,1091.1747910147533,None,1092.1079634549096,None,1.591005291005291,0.38251143088564277,1092.1079634549096,None,,,,,,,,,,,,,,,,,70,001,2023_Apr_13_1411,SpeechDraft1Carolyn_lessNoise_PlusLocalization,2021.2.3,59.988618082173716,
,,,,,,,,midRight,13.0,3,ch1Sound_localizationTask.wav,13.0,"(1142, 878)","(182, -202)",190,-338,,,,,,,,,7,1,50,5,,,,,,,,,,,,,,,,,,,,,,,,,,,,,,,,,,,,,,,,,,,,1092.4917169017717,None,1093.5913454620168,None,1094.5246726437472,None,1.7031746031746031,0.38322086818516254,1094.5246726437472,None,,,,,,,,,,,,,,,,,70,001,2023_Apr_13_1411,SpeechDraft1Carolyn_lessNoise_PlusLocalization,2021.2.3,59.988618082173716,
,,,,,,,,nearLeft,-6.5,1,ch1Sound_localizationTask.wav,-6.5,"(857, 878)","(-103,-202)",-95,-338,,,,,,,,,7,2,51,2,,,,,,,,,,,,,,,,,,,,,,,,,,,,,,,,,,,,,,,,,,,,1094.9083906328306,None,1096.0081626637839,None,1096.9413311355747,None,1.270899470899471,0.5321739609353244,1096.9413311355747,None,,,,,,,,,,,,,,,,,70,001,2023_Apr_13_1411,SpeechDraft1Carolyn_lessNoise_PlusLocalization,2021.2.3,59.988618082173716,
,,,,,,,,farRight,19.1,4,ch1Sound_localizationTask.wav,19.1,"(1237, 878)","(277,-202)",285,-338,,,,,,,,,7,3,52,6,,,,,,,,,,,,,,,,,,,,,,,,,,,,,,,,,,,,,,,,,,,,1097.4750607088208,None,1098.574701262638,None,1099.508009403944,None,1.6444444444444444,0.5984672862105072,1099.508009403944,None,,,,,,,,,,,,,,,,,70,001,2023_Apr_13_1411,SpeechDraft1Carolyn_lessNoise_PlusLocalization,2021.2.3,59.988618082173716,
,,,,,,,,nearLeft,-6.5,1,ch1Sound_localizationTask.wav,-6.5,"(857, 878)","(-103,-202)",-95,-338,,,,,,,,,7,4,53,2,,,,,,,,,,,,,,,,,,,,,,,,,,,,,,,,,,,,,,,,,,,,1100.108322643675,None,1101.2081641438417,None,1102.1413420699537,None,1.3021164021164022,0.5986391217447817,1102.1413420699537,None,,,,,,,,,,,,,,,,,70,001,2023_Apr_13_1411,SpeechDraft1Carolyn_lessNoise_PlusLocalization,2021.2.3,59.988618082173716,
,,,,,,,,nearLeft,-6.5,1,ch1Sound_localizationTask.wav,-6.5,"(857, 878)","(-103,-202)",-95,-338,,,,,,,,,7,5,54,2,,,,,,,,,,,,,,,,,,,,,,,,,,,,,,,,,,,,,,,,,,,,1102.7416524486616,None,1103.8414604128338,None,1104.774807962589,None,1.362962962962963,0.4329681829549372,1104.774807962589,None,,,,,,,,,,,,,,,,,70,001,2023_Apr_13_1411,SpeechDraft1Carolyn_lessNoise_PlusLocalization,2021.2.3,59.988618082173716,
,,,,,,,,midRight,13.0,3,ch1Sound_localizationTask.wav,13.0,"(1142, 878)","(182, -202)",190,-338,,,,,,,,,7,6,55,5,,,,,,,,,,,,,,,,,,,,,,,,,,,,,,,,,,,,,,,,,,,,1105.2083730376326,None,1106.3080089678988,None,1107.2414066526107,None,1.6264550264550266,0.5157236959785223,1107.2414066526107,None,,,,,,,,,,,,,,,,,70,001,2023_Apr_13_1411,SpeechDraft1Carolyn_lessNoise_PlusLocalization,2021.2.3,59.988618082173716,
,,,,,,,,,,,,,,,,,,,,,,,,,,,,,,,,,,,,,,,,,,,,,,,,,,,,,,,,,,,,,,,,,,,,,,,,,,,,,,,,,,space,9.979407246224582,1107.8416296700016,None,,,,,,,,,,,,,70,001,2023_Apr_13_1411,SpeechDraft1Carolyn_lessNoise_PlusLocalization,2021.2.3,59.988618082173716,
,,,,,,,,nearLeft,-6.5,1,ch1Sound_localizationTask.wav,-6.5,"(857, 878)","(-103,-202)",-95,-338,,,,,,,,,,,,,0,0,0,2,,,,,,,,,,,,,,,,,,,,,,,,,,,,,,,,,,,,,,,,1117.8582529886626,None,,,1120.8772234986536,None,1.439153439153439,0.8029726250097156,1120.8772234986536,None,,,,,1107.8416296700016,None,1118.858466624748,None,1119.0417142147198,1119.0584315946326,,,,,,,70,001,2023_Apr_13_1411,SpeechDraft1Carolyn_lessNoise_PlusLocalization,2021.2.3,59.988618082173716,
,,,,,,,,midRight,13.0,3,ch1Sound_localizationTask.wav,13.0,"(1142, 878)","(182, -202)",190,-338,,,,,,,,,,,,,0,1,1,5,,,,,,,,,,,,,,,,,,,,,,,,,,,,,,,,,,,,,,,,1121.691646547988,None,,,1124.7080804109573,None,1.6116402116402115,0.6661521168425679,1124.7080804109573,None,,,,,,,1122.6916331169195,None,1122.8751589916646,1122.8917417949997,,,,,,,70,001,2023_Apr_13_1411,SpeechDraft1Carolyn_lessNoise_PlusLocalization,2021.2.3,59.988618082173716,
,,,,,,,,nearRight,6.5,0,ch1Sound_localizationTask.wav,6.5,"(1047, 878)","(87, -202)",95,-338,,,,,,,,,,,,,0,2,2,4,,,,,,,,,,,,,,,,,,,,,,,,,,,,,,,,,,,,,,,,1125.374966035597,None,,,1128.3913609557785,None,1.5629629629629629,0.33280049497261643,1128.3913609557785,None,,,,,,,1126.3750469717197,None,1126.5584275298752,1126.575008247979,,,,,,,70,001,2023_Apr_13_1411,SpeechDraft1Carolyn_lessNoise_PlusLocalization,2021.2.3,59.988618082173716,
,,,,,,,,farRight,19.1,4,ch1Sound_localizationTask.wav,19.1,"(1237, 878)","(277,-202)",285,-338,,,,,,,,,,,,,0,3,3,6,,,,,,,,,,,,,,,,,,,,,,,,,,,,,,,,,,,,,,,,1128.7251074267551,None,,,1131.7413475997746,None,1.6486772486772487,0.8327844343148172,1131.7413475997746,None,,,,,,,1129.725024948828,None,1129.908408952877,1129.9251013537869,,,,,,,70,001,2023_Apr_13_1411,SpeechDraft1Carolyn_lessNoise_PlusLocalization,2021.2.3,59.988618082173716,
,,,,,,,,farLeft,-19.1,5,ch1Sound_localizationTask.wav,-19.1,"(667, 878)","(-293,-202)",-285,-338,,,,,,,,,,,,,0,4,4,0,,,,,,,,,,,,,,,,,,,,,,,,,,,,,,,,,,,,,,,,1132.575146721676,None,,,1135.5913533079438,None,1.3555555555555556,0.6334232739172876,1135.5913533079438,None,,,,,,,1133.5751192718744,None,1133.7583728656173,1133.7750851209275,,,,,,,70,001,2023_Apr_13_1411,SpeechDraft1Carolyn_lessNoise_PlusLocalization,2021.2.3,59.988618082173716,
,,,,,,,,center,0.0,6,ch1Sound_localizationTask.wav,0.0,"(952, 878)","(-8,-202)",0,-338,,,,,,,,,,,,,0,5,5,3,,,,,,,,,,,,,,,,,,,,,,,,,,,,,,,,,,,,,,,,1136.2250911667943,None,,,1139.241396124009,None,1.5084656084656085,0.566937061958015,1139.241396124009,None,,,,,,,1137.2250097058713,None,1137.4084003269672,1137.425046541728,,,,,,,70,001,2023_Apr_13_1411,SpeechDraft1Carolyn_lessNoise_PlusLocalization,2021.2.3,59.988618082173716,
,,,,,,,,midRight,13.0,3,ch1Sound_localizationTask.wav,13.0,"(1142, 878)","(182, -202)",190,-338,,,,,,,,,,,,,0,6,6,5,,,,,,,,,,,,,,,,,,,,,,,,,,,,,,,,,,,,,,,,1139.8087371177971,None,,,1142.8247179295868,None,1.5587301587301587,0.2495969207957387,1142.8247179295868,None,,,,,,,1140.8083817148581,None,1140.9917648686096,1141.0084292069077,,,,,,,70,001,2023_Apr_13_1411,SpeechDraft1Carolyn_lessNoise_PlusLocalization,2021.2.3,59.988618082173716,
,,,,,,,,midLeft,-13.0,2,ch1Sound_localizationTask.wav,-13.0,"(762, 878)","(-198,-202)",-190,-338,,,,,,,,,,,,,1,0,7,1,,,,,,,,,,,,,,,,,,,,,,,,,,,,,,,,,,,,,,,,1143.0751507147215,None,,,1146.091491012834,None,1.391005291005291,0.6991135599091649,1146.091491012834,None,,,,,,,1144.0751185249537,None,1144.2583265309222,1144.2750676949508,,,,,,,70,001,2023_Apr_13_1411,SpeechDraft1Carolyn_lessNoise_PlusLocalization,2021.2.3,59.988618082173716,
,,,,,,,,farRight,19.1,4,ch1Sound_localizationTask.wav,19.1,"(1237, 878)","(277,-202)",285,-338,,,,,,,,,,,,,1,1,8,6,,,,,,,,,,,,,,,,,,,,,,,,,,,,,,,,,,,,,,,,1146.7921405825764,None,,,1149.8081478406675,None,1.6888888888888889,0.6485617682337761,1149.8081478406675,None,,,,,,,1147.7919318205677,None,1147.975057804957,1147.991679282859,,,,,,,70,001,2023_Apr_13_1411,SpeechDraft1Carolyn_lessNoise_PlusLocalization,2021.2.3,59.988618082173716,
,,,,,,,,farRight,19.1,4,ch1Sound_localizationTask.wav,19.1,"(1237, 878)","(277,-202)",285,-338,,,,,,,,,,,,,1,2,9,6,,,,,,,,,,,,,,,,,,,,,,,,,,,,,,,,,,,,,,,,1150.4584406497888,None,,,1153.4747133916244,None,1.657142857142857,0.5827966099604964,1153.4747133916244,None,,,,,,,1151.4583615185693,None,1151.6417255415581,1151.6584457098506,,,,,,,70,001,2023_Apr_13_1411,SpeechDraft1Carolyn_lessNoise_PlusLocalization,2021.2.3,59.988618082173716,
,,,,,,,,midRight,13.0,3,ch1Sound_localizationTask.wav,13.0,"(1142, 878)","(182, -202)",190,-338,,,,,,,,,,,,,1,3,10,5,,,,,,,,,,,,,,,,,,,,,,,,,,,,,,,,,,,,,,,,1154.058400043752,None,,,1157.0749270818196,None,1.6195767195767194,0.36616519605740905,1157.0749270818196,None,,,,,,,1155.0583959408104,None,1155.2418342097662,1155.2584469397552,,,,,,,70,001,2023_Apr_13_1411,SpeechDraft1Carolyn_lessNoise_PlusLocalization,2021.2.3,59.988618082173716,
,,,,,,,,midLeft,-13.0,2,ch1Sound_localizationTask.wav,-13.0,"(762, 878)","(-198,-202)",-190,-338,,,,,,,,,,,,,1,4,11,1,,,,,,,,,,,,,,,,,,,,,,,,,,,,,,,,,,,,,,,,1157.442030960694,None,,,1160.458116630558,None,1.4010582010582011,0.8329597250558436,1160.458116630558,None,,,,,,,1158.441726052668,None,1158.6251316498965,1158.641852245666,,,,,,,70,001,2023_Apr_13_1411,SpeechDraft1Carolyn_lessNoise_PlusLocalization,2021.2.3,59.988618082173716,
,,,,,,,,center,0.0,6,ch1Sound_localizationTask.wav,0.0,"(952, 878)","(-8,-202)",0,-338,,,,,,,,,,,,,1,5,12,3,,,,,,,,,,,,,,,,,,,,,,,,,,,,,,,,,,,,,,,,1161.2917670789175,None,,,1164.3080104677938,None,1.5015873015873016,0.5320013272576034,1164.3080104677938,None,,,,,,,1162.2917505358346,None,1162.4750974825583,1162.491798734758,,,,,,,70,001,2023_Apr_13_1411,SpeechDraft1Carolyn_lessNoise_PlusLocalization,2021.2.3,59.988618082173716,
,,,,,,,,nearLeft,-6.5,1,ch1Sound_localizationTask.wav,-6.5,"(857, 878)","(-103,-202)",-95,-338,,,,,,,,,,,,,1,6,13,2,,,,,,,,,,,,,,,,,,,,,,,,,,,,,,,,,,,,,,,,1164.8418696867302,None,,,1167.858356144745,None,1.4492063492063492,0.48251508502289653,1167.858356144745,None,,,,,,,1165.841778093949,None,1166.0250557758845,1166.0418246579356,,,,,,,70,001,2023_Apr_13_1411,SpeechDraft1Carolyn_lessNoise_PlusLocalization,2021.2.3,59.988618082173716,
,,,,,,,,nearLeft,-6.5,1,ch1Sound_localizationTask.wav,-6.5,"(857, 878)","(-103,-202)",-95,-338,,,,,,,,,,,,,2,0,14,2,,,,,,,,,,,,,,,,,,,,,,,,,,,,,,,,,,,,,,,,1168.34186945064,None,,,1171.3580604288727,None,1.4407407407407407,0.13266095891594887,1171.3580604288727,None,,,,,,,1169.3418258950114,None,1169.5249939425848,1169.5417080908082,,,,,,,70,001,2023_Apr_13_1411,SpeechDraft1Carolyn_lessNoise_PlusLocalization,2021.2.3,59.988618082173716,
,,,,,,,,nearLeft,-6.5,1,ch1Sound_localizationTask.wav,-6.5,"(857, 878)","(-103,-202)",-95,-338,,,,,,,,,,,,,2,1,15,2,,,,,,,,,,,,,,,,,,,,,,,,,,,,,,,,,,,,,,,,1171.4918160047382,None,,,1174.5080754137598,None,1.4412698412698413,0.19797515030950308,1174.5080754137598,None,,,,,,,1172.4917415059172,None,1172.6751110008918,1172.6918325778097,,,,,,,70,001,2023_Apr_13_1411,SpeechDraft1Carolyn_lessNoise_PlusLocalization,2021.2.3,59.988618082173716,
,,,,,,,,farLeft,-19.1,5,ch1Sound_localizationTask.wav,-19.1,"(667, 878)","(-293,-202)",-285,-338,,,,,,,,,,,,,2,2,16,0,,,,,,,,,,,,,,,,,,,,,,,,,,,,,,,,,,,,,,,,1174.7083679768257,None,,,1177.7248764676042,None,1.3238095238095238,0.63272352097556,1177.7248764676042,None,,,,,,,1175.7084589409642,None,1175.891728578601,1175.9084757906385,,,,,,,70,001,2023_Apr_13_1411,SpeechDraft1Carolyn_lessNoise_PlusLocalization,2021.2.3,59.988618082173716,
,,,,,,,,center,0.0,6,ch1Sound_localizationTask.wav,0.0,"(952, 878)","(-8,-202)",0,-338,,,,,,,,,,,,,2,3,17,3,,,,,,,,,,,,,,,,,,,,,,,,,,,,,,,,,,,,,,,,1178.3584685716778,None,,,1181.3747815066017,None,1.4507936507936507,0.3501913333311677,1181.3747815066017,None,,,,,,,1179.358664989937,None,1179.5417584199458,1179.5584791088477,,,,,,,70,001,2023_Apr_13_1411,SpeechDraft1Carolyn_lessNoise_PlusLocalization,2021.2.3,59.988618082173716,
,,,,,,,,nearRight,6.5,0,ch1Sound_localizationTask.wav,6.5,"(1047, 878)","(87, -202)",95,-338,,,,,,,,,,,,,2,4,18,4,,,,,,,,,,,,,,,,,,,,,,,,,,,,,,,,,,,,,,,,1181.725607719738,None,,,1184.7414888078347,None,1.537037037037037,0.6166186830960214,1184.7414888078347,None,,,,,,,1182.7250618319958,None,1182.9084680918604,1182.9251073589548,,,,,,,70,001,2023_Apr_13_1411,SpeechDraft1Carolyn_lessNoise_PlusLocalization,2021.2.3,59.988618082173716,
,,,,,,,,midLeft,-13.0,2,ch1Sound_localizationTask.wav,-13.0,"(762, 878)","(-198,-202)",-190,-338,,,,,,,,,,,,,2,5,19,1,,,,,,,,,,,,,,,,,,,,,,,,,,,,,,,,,,,,,,,,1185.3587176389992,None,,,1188.3750465526246,None,1.3851851851851853,0.6663199090398848,1188.3750465526246,None,,,,,,,1186.358333798591,None,1186.5417136759497,1186.5583879989572,,,,,,,70,001,2023_Apr_13_1411,SpeechDraft1Carolyn_lessNoise_PlusLocalization,2021.2.3,59.988618082173716,
,,,,,,,,center,0.0,6,ch1Sound_localizationTask.wav,0.0,"(952, 878)","(-8,-202)",0,-338,,,,,,,,,,,,,2,6,20,3,,,,,,,,,,,,,,,,,,,,,,,,,,,,,,,,,,,,,,,,1189.0416788398288,None,,,1192.0581051087938,None,1.4952380952380953,1.0854327040724456,1192.0581051087938,None,,,,,,,1190.0417781868018,None,1190.2251613927074,1190.2418524189852,,,,,,,70,001,2023_Apr_13_1411,SpeechDraft1Carolyn_lessNoise_PlusLocalization,2021.2.3,59.988618082173716,
,,,,,,,,midRight,13.0,3,ch1Sound_localizationTask.wav,13.0,"(1142, 878)","(182, -202)",190,-338,,,,,,,,,,,,,3,0,21,5,,,,,,,,,,,,,,,,,,,,,,,,,,,,,,,,,,,,,,,,1193.159671450965,None,,,1196.1916225505993,None,1.6195767195767194,0.5824516271241009,1196.1916225505993,None,,,,,,,1194.1750549399294,None,1194.3584332768805,1194.3750865468755,,,,,,,70,001,2023_Apr_13_1411,SpeechDraft1Carolyn_lessNoise_PlusLocalization,2021.2.3,59.988618082173716,
,,,,,,,,midRight,13.0,3,ch1Sound_localizationTask.wav,13.0,"(1142, 878)","(182, -202)",190,-338,,,,,,,,,,,,,3,1,22,5,,,,,,,,,,,,,,,,,,,,,,,,,,,,,,,,,,,,,,,,1196.7751158727333,None,,,1199.79151299363,None,1.596825396825397,1.130830213893205,1199.79151299363,None,,,,,,,1197.7753259288147,None,1197.958552600816,1197.9753088615835,,,,,,,70,001,2023_Apr_13_1411,SpeechDraft1Carolyn_lessNoise_PlusLocalization,2021.2.3,59.988618082173716,
,,,,,,,,nearRight,6.5,0,ch1Sound_localizationTask.wav,6.5,"(1047, 878)","(87, -202)",95,-338,,,,,,,,,,,,,3,2,23,4,,,,,,,,,,,,,,,,,,,,,,,,,,,,,,,,,,,,,,,,1200.9251857185736,None,,,1203.9414925635792,None,1.5687830687830688,1.0664307149127126,1203.9414925635792,None,,,,,,,1201.925132371951,None,1202.108416782692,1202.1251922505908,,,,,,,70,001,2023_Apr_13_1411,SpeechDraft1Carolyn_lessNoise_PlusLocalization,2021.2.3,59.988618082173716,
,,,,,,,,center,0.0,6,ch1Sound_localizationTask.wav,0.0,"(952, 878)","(-8,-202)",0,-338,,,,,,,,,,,,,3,3,24,3,,,,,,,,,,,,,,,,,,,,,,,,,,,,,,,,,,,,,,,,1205.0084395529702,None,,,1208.024879601784,None,1.5005291005291004,0.5330176539719105,1208.024879601784,None,,,,,,,1206.0085206138901,None,1206.191853846889,1206.2085121036507,,,,,,,70,001,2023_Apr_13_1411,SpeechDraft1Carolyn_lessNoise_PlusLocalization,2021.2.3,59.988618082173716,
,,,,,,,,nearRight,6.5,0,ch1Sound_localizationTask.wav,6.5,"(1047, 878)","(87, -202)",95,-338,,,,,,,,,,,,,3,4,25,4,,,,,,,,,,,,,,,,,,,,,,,,,,,,,,,,,,,,,,,,1208.55855176365,None,,,1211.574917142745,None,1.560846560846561,0.46612333599478006,1211.574917142745,None,,,,,,,1209.558484681882,None,1209.7418339857832,1209.758457921911,,,,,,,70,001,2023_Apr_13_1411,SpeechDraft1Carolyn_lessNoise_PlusLocalization,2021.2.3,59.988618082173716,
,,,,,,,,farRight,19.1,4,ch1Sound_localizationTask.wav,19.1,"(1237, 878)","(277,-202)",285,-338,,,,,,,,,,,,,3,5,26,6,,,,,,,,,,,,,,,,,,,,,,,,,,,,,,,,,,,,,,,,1212.0417706519365,None,,,1215.0581061677076,None,1.66984126984127,0.6992257772944868,1215.0581061677076,None,,,,,,,1213.0418852926232,None,1213.2252901406027,1213.2417842377909,,,,,,,70,001,2023_Apr_13_1411,SpeechDraft1Carolyn_lessNoise_PlusLocalization,2021.2.3,59.988618082173716,
,,,,,,,,nearRight,6.5,0,ch1Sound_localizationTask.wav,6.5,"(1047, 878)","(87, -202)",95,-338,,,,,,,,,,,,,3,6,27,4,,,,,,,,,,,,,,,,,,,,,,,,,,,,,,,,,,,,,,,,1215.7585823875852,None,,,1218.7749255136587,None,1.573015873015873,0.6162434010766447,1218.7749255136587,None,,,,,,,1216.758568228688,None,1216.9418026600033,1216.958731152583,,,,,,,70,001,2023_Apr_13_1411,SpeechDraft1Carolyn_lessNoise_PlusLocalization,2021.2.3,59.988618082173716,
,,,,,,,,center,0.0,6,ch1Sound_localizationTask.wav,0.0,"(952, 878)","(-8,-202)",0,-338,,,,,,,,,,,,,4,0,28,3,,,,,,,,,,,,,,,,,,,,,,,,,,,,,,,,,,,,,,,,1219.3918855497614,None,,,1222.4082236299291,None,1.5026455026455028,1.4484688830561936,1222.4082236299291,None,,,,,,,1220.3917726287618,None,1220.5750608500093,1220.5918242735788,,,,,,,70,001,2023_Apr_13_1411,SpeechDraft1Carolyn_lessNoise_PlusLocalization,2021.2.3,59.988618082173716,
,,,,,,,,nearLeft,-6.5,1,ch1Sound_localizationTask.wav,-6.5,"(857, 878)","(-103,-202)",-95,-338,,,,,,,,,,,,,4,1,29,2,,,,,,,,,,,,,,,,,,,,,,,,,,,,,,,,,,,,,,,,1223.8585046427324,None,,,1226.8748753657565,None,1.4534391534391533,0.6838858830742538,1226.8748753657565,None,,,,,,,1224.8583943257108,None,1225.0417882306501,1225.0584505638108,,,,,,,70,001,2023_Apr_13_1411,SpeechDraft1Carolyn_lessNoise_PlusLocalization,2021.2.3,59.988618082173716,
,,,,,,,,farLeft,-19.1,5,ch1Sound_localizationTask.wav,-19.1,"(667, 878)","(-293,-202)",-285,-338,,,,,,,,,,,,,4,2,30,0,,,,,,,,,,,,,,,,,,,,,,,,,,,,,,,,,,,,,,,,1227.5592427197844,None,,,1230.5748304026201,None,1.353968253968254,0.6491094091907144,1230.5748304026201,None,,,,,,,1228.5584878157824,None,1228.7418575379997,1228.7586040329188,,,,,,,70,001,2023_Apr_13_1411,SpeechDraft1Carolyn_lessNoise_PlusLocalization,2021.2.3,59.988618082173716,
,,,,,,,,midRight,13.0,3,ch1Sound_localizationTask.wav,13.0,"(1142, 878)","(182, -202)",190,-338,,,,,,,,,,,,,4,3,31,5,,,,,,,,,,,,,,,,,,,,,,,,,,,,,,,,,,,,,,,,1231.225288568996,None,,,1234.2415137859061,None,1.6317460317460317,0.7980093508958817,1234.2415137859061,None,,,,,,,1232.2252167765982,None,1232.4085342385806,1232.425141417887,,,,,,,70,001,2023_Apr_13_1411,SpeechDraft1Carolyn_lessNoise_PlusLocalization,2021.2.3,59.988618082173716,
,,,,,,,,midLeft,-13.0,2,ch1Sound_localizationTask.wav,-13.0,"(762, 878)","(-198,-202)",-190,-338,,,,,,,,,,,,,4,4,32,1,,,,,,,,,,,,,,,,,,,,,,,,,,,,,,,,,,,,,,,,1235.0420989207923,None,,,1238.058344783727,None,1.374074074074074,0.782662773039192,1238.058344783727,None,,,,,,,1236.0419721659273,None,1236.22514250502,1236.2418846245855,,,,,,,70,001,2023_Apr_13_1411,SpeechDraft1Carolyn_lessNoise_PlusLocalization,2021.2.3,59.988618082173716,
,,,,,,,,nearLeft,-6.5,1,ch1Sound_localizationTask.wav,-6.5,"(857, 878)","(-103,-202)",-95,-338,,,,,,,,,,,,,4,5,33,2,,,,,,,,,,,,,,,,,,,,,,,,,,,,,,,,,,,,,,,,1238.8429029327817,None,,,1241.8748785657808,None,1.4402116402116403,0.5485775480046868,1241.8748785657808,None,,,,,,,1239.8585093235597,None,1240.0418627909385,1240.0585160776973,,,,,,,70,001,2023_Apr_13_1411,SpeechDraft1Carolyn_lessNoise_PlusLocalization,2021.2.3,59.988618082173716,
,,,,,,,,farRight,19.1,4,ch1Sound_localizationTask.wav,19.1,"(1237, 878)","(277,-202)",285,-338,,,,,,,,,,,,,4,6,34,6,,,,,,,,,,,,,,,,,,,,,,,,,,,,,,,,,,,,,,,,1242.425266413018,None,,,1245.4414662108757,None,1.6682539682539683,0.7649077191017568,1245.4414662108757,None,,,,,,,1243.4251700518653,None,1243.6084457128309,1243.6252323705703,,,,,,,70,001,2023_Apr_13_1411,SpeechDraft1Carolyn_lessNoise_PlusLocalization,2021.2.3,59.988618082173716,
,,,,,,,,farRight,19.1,4,ch1Sound_localizationTask.wav,19.1,"(1237, 878)","(277,-202)",285,-338,,,,,,,,,,,,,5,0,35,6,,,,,,,,,,,,,,,,,,,,,,,,,,,,,,,,,,,,,,,,1246.2085856376216,None,,,1249.2249685288407,None,1.662962962962963,1.3160337437875569,1249.2249685288407,None,,,,,,,1247.2085384950042,None,1247.3918196368031,1247.4086238099262,,,,,,,70,001,2023_Apr_13_1411,SpeechDraft1Carolyn_lessNoise_PlusLocalization,2021.2.3,59.988618082173716,
,,,,,,,,farLeft,-19.1,5,ch1Sound_localizationTask.wav,-19.1,"(667, 878)","(-293,-202)",-285,-338,,,,,,,,,,,,,5,1,36,0,,,,,,,,,,,,,,,,,,,,,,,,,,,,,,,,,,,,,,,,1250.5419114697725,None,,,1253.5582496798597,None,1.3343915343915345,0.9993728189729154,1253.5582496798597,None,,,,,,,1251.5419956678525,None,1251.7252500560135,1251.7419688049704,,,,,,,70,001,2023_Apr_13_1411,SpeechDraft1Carolyn_lessNoise_PlusLocalization,2021.2.3,59.988618082173716,
,,,,,,,,nearRight,6.5,0,ch1Sound_localizationTask.wav,6.5,"(1047, 878)","(87, -202)",95,-338,,,,,,,,,,,,,5,2,37,4,,,,,,,,,,,,,,,,,,,,,,,,,,,,,,,,,,,,,,,,1254.5752239087597,None,,,1257.5916594518349,None,1.5656084656084657,1.2159599061124027,1257.5916594518349,None,,,,,,,1255.5751453628764,None,1255.7584672537632,1255.7753766495734,,,,,,,70,001,2023_Apr_13_1411,SpeechDraft1Carolyn_lessNoise_PlusLocalization,2021.2.3,59.988618082173716,
,,,,,,,,midRight,13.0,3,ch1Sound_localizationTask.wav,13.0,"(1142, 878)","(182, -202)",190,-338,,,,,,,,,,,,,5,3,38,5,,,,,,,,,,,,,,,,,,,,,,,,,,,,,,,,,,,,,,,,1258.8086180877872,None,,,1261.8249334297143,None,1.6026455026455027,1.0998259861953557,1261.8249334297143,None,,,,,,,1259.8086625458673,None,1259.9919363227673,1260.008606478572,,,,,,,70,001,2023_Apr_13_1411,SpeechDraft1Carolyn_lessNoise_PlusLocalization,2021.2.3,59.988618082173716,
,,,,,,,,farLeft,-19.1,5,ch1Sound_localizationTask.wav,-19.1,"(667, 878)","(-293,-202)",-285,-338,,,,,,,,,,,,,5,4,39,0,,,,,,,,,,,,,,,,,,,,,,,,,,,,,,,,,,,,,,,,1262.9253536858596,None,,,1265.9415252348408,None,1.3285714285714285,0.8327676020562649,1265.9415252348408,None,,,,,,,1263.9252046509646,None,1264.108558994718,1264.1251927386038,,,,,,,70,001,2023_Apr_13_1411,SpeechDraft1Carolyn_lessNoise_PlusLocalization,2021.2.3,59.988618082173716,
,,,,,,,,nearLeft,-6.5,1,ch1Sound_localizationTask.wav,-6.5,"(857, 878)","(-103,-202)",-95,-338,,,,,,,,,,,,,5,5,40,2,,,,,,,,,,,,,,,,,,,,,,,,,,,,,,,,,,,,,,,,1266.7755046887323,None,,,1269.7915817908943,None,1.4502645502645501,0.8664070093072951,1269.7915817908943,None,,,,,,,1267.7752287928015,None,1267.9584566010162,1267.9752508657984,,,,,,,70,001,2023_Apr_13_1411,SpeechDraft1Carolyn_lessNoise_PlusLocalization,2021.2.3,59.988618082173716,
,,,,,,,,midLeft,-13.0,2,ch1Sound_localizationTask.wav,-13.0,"(762, 878)","(-198,-202)",-190,-338,,,,,,,,,,,,,5,6,41,1,,,,,,,,,,,,,,,,,,,,,,,,,,,,,,,,,,,,,,,,1270.658640919719,None,,,1273.6749629289843,None,1.4052910052910053,0.7652324042282999,1273.6749629289843,None,,,,,,,1271.6585250939243,None,1271.8418695428409,1271.8585459836759,,,,,,,70,001,2023_Apr_13_1411,SpeechDraft1Carolyn_lessNoise_PlusLocalization,2021.2.3,59.988618082173716,
,,,,,,,,midLeft,-13.0,2,ch1Sound_localizationTask.wav,-13.0,"(762, 878)","(-198,-202)",-190,-338,,,,,,,,,,,,,6,0,42,1,,,,,,,,,,,,,,,,,,,,,,,,,,,,,,,,,,,,,,,,1274.4419100978412,None,,,1277.45817725081,None,1.3941798941798942,0.8320419029332697,1277.45817725081,None,,,,,,,1275.4418447138742,None,1275.6251942277886,1275.64184249565,,,,,,,70,001,2023_Apr_13_1411,SpeechDraft1Carolyn_lessNoise_PlusLocalization,2021.2.3,59.988618082173716,
,,,,,,,,center,0.0,6,ch1Sound_localizationTask.wav,0.0,"(952, 878)","(-8,-202)",0,-338,,,,,,,,,,,,,6,1,43,3,,,,,,,,,,,,,,,,,,,,,,,,,,,,,,,,,,,,,,,,1278.2919136257842,None,,,1281.308147508651,None,1.4878306878306877,0.8159906440414488,1281.308147508651,None,,,,,,,1279.2918857280165,None,1279.4751667436212,1279.491915924009,,,,,,,70,001,2023_Apr_13_1411,SpeechDraft1Carolyn_lessNoise_PlusLocalization,2021.2.3,59.988618082173716,
,,,,,,,,center,0.0,6,ch1Sound_localizationTask.wav,0.0,"(952, 878)","(-8,-202)",0,-338,,,,,,,,,,,,,6,2,44,3,,,,,,,,,,,,,,,,,,,,,,,,,,,,,,,,,,,,,,,,1282.125488617923,None,,,1285.1415536389686,None,1.4994708994708994,0.49919051211327314,1285.1415536389686,None,,,,,,,1283.125570228789,None,1283.3087209127843,1283.3252692357637,,,,,,,70,001,2023_Apr_13_1411,SpeechDraft1Carolyn_lessNoise_PlusLocalization,2021.2.3,59.988618082173716,
,,,,,,,,farLeft,-19.1,5,ch1Sound_localizationTask.wav,-19.1,"(667, 878)","(-293,-202)",-285,-338,,,,,,,,,,,,,6,3,45,0,,,,,,,,,,,,,,,,,,,,,,,,,,,,,,,,,,,,,,,,1285.642836490646,None,,,1288.6582967448048,None,1.3238095238095238,0.5659381132572889,1288.6582967448048,None,,,,,,,1286.6419011126272,None,1286.8252193778753,1286.8418913045898,,,,,,,70,001,2023_Apr_13_1411,SpeechDraft1Carolyn_lessNoise_PlusLocalization,2021.2.3,59.988618082173716,
,,,,,,,,nearRight,6.5,0,ch1Sound_localizationTask.wav,6.5,"(1047, 878)","(87, -202)",95,-338,,,,,,,,,,,,,6,4,46,4,,,,,,,,,,,,,,,,,,,,,,,,,,,,,,,,,,,,,,,,1289.2252773707733,None,,,1292.241656231694,None,1.5518518518518518,0.8164925612509251,1292.241656231694,None,,,,,,,1290.2252147616819,None,1290.4086322518997,1290.4252626686357,,,,,,,70,001,2023_Apr_13_1411,SpeechDraft1Carolyn_lessNoise_PlusLocalization,2021.2.3,59.988618082173716,
,,,,,,,,midRight,13.0,3,ch1Sound_localizationTask.wav,13.0,"(1142, 878)","(182, -202)",190,-338,,,,,,,,,,,,,6,5,47,5,,,,,,,,,,,,,,,,,,,,,,,,,,,,,,,,,,,,,,,,1293.0585691197775,None,,,1296.0750391539186,None,1.6195767195767194,0.9984283959493041,1296.0750391539186,None,,,,,,,1294.0586660029367,None,1294.2420270568691,1294.2586073908024,,,,,,,70,001,2023_Apr_13_1411,SpeechDraft1Carolyn_lessNoise_PlusLocalization,2021.2.3,59.988618082173716,
,,,,,,,,midLeft,-13.0,2,ch1Sound_localizationTask.wav,-13.0,"(762, 878)","(-198,-202)",-190,-338,,,,,,,,,,,,,6,6,48,1,,,,,,,,,,,,,,,,,,,,,,,,,,,,,,,,,,,,,,,,1297.075444003567,None,,,1300.0915841506794,None,1.3957671957671958,0.716200899798423,1300.0915841506794,None,,,,,,,1298.0753405238502,None,1298.2586717698723,1298.275251680985,,,,,,,70,001,2023_Apr_13_1411,SpeechDraft1Carolyn_lessNoise_PlusLocalization,2021.2.3,59.988618082173716,
,,,,,,,,farLeft,-19.1,5,ch1Sound_localizationTask.wav,-19.1,"(667, 878)","(-293,-202)",-285,-338,,,,,,,,,,,,,7,0,49,0,,,,,,,,,,,,,,,,,,,,,,,,,,,,,,,,,,,,,,,,1300.80923372088,None,,,1303.8250916479155,None,1.3613756613756614,0.6482894252985716,1303.8250916479155,None,,,,,,,1301.8086671549827,None,1301.9918945226818,1302.008568720892,,,,,,,70,001,2023_Apr_13_1411,SpeechDraft1Carolyn_lessNoise_PlusLocalization,2021.2.3,59.988618082173716,
,,,,,,,,midLeft,-13.0,2,ch1Sound_localizationTask.wav,-13.0,"(762, 878)","(-198,-202)",-190,-338,,,,,,,,,,,,,7,1,50,1,,,,,,,,,,,,,,,,,,,,,,,,,,,,,,,,,,,,,,,,1304.4753235466778,None,,,1307.4916638527066,None,1.3894179894179894,0.6834341972135007,1307.4916638527066,None,,,,,,,1305.4752022339962,None,1305.6585549567826,1305.6752763916738,,,,,,,70,001,2023_Apr_13_1411,SpeechDraft1Carolyn_lessNoise_PlusLocalization,2021.2.3,59.988618082173716,
,,,,,,,,nearRight,6.5,0,ch1Sound_localizationTask.wav,6.5,"(1047, 878)","(87, -202)",95,-338,,,,,,,,,,,,,7,2,51,4,,,,,,,,,,,,,,,,,,,,,,,,,,,,,,,,,,,,,,,,1308.191941711586,None,,,1311.2084697606042,None,1.5587301587301587,0.6821057116612792,1311.2084697606042,None,,,,,,,1309.1919541456737,None,1309.3754131668247,1309.3919759518467,,,,,,,70,001,2023_Apr_13_1411,SpeechDraft1Carolyn_lessNoise_PlusLocalization,2021.2.3,59.988618082173716,
,,,,,,,,farRight,19.1,4,ch1Sound_localizationTask.wav,19.1,"(1237, 878)","(277,-202)",285,-338,,,,,,,,,,,,,7,3,52,6,,,,,,,,,,,,,,,,,,,,,,,,,,,,,,,,,,,,,,,,1311.8918850626796,None,,,1314.9082175339572,None,1.6582010582010582,0.7491701007820666,1314.9082175339572,None,,,,,,,1312.8920432948507,None,1313.075569364708,1313.0922919507138,,,,,,,70,001,2023_Apr_13_1411,SpeechDraft1Carolyn_lessNoise_PlusLocalization,2021.2.3,59.988618082173716,
,,,,,,,,nearLeft,-6.5,1,ch1Sound_localizationTask.wav,-6.5,"(857, 878)","(-103,-202)",-95,-338,,,,,,,,,,,,,7,4,53,2,,,,,,,,,,,,,,,,,,,,,,,,,,,,,,,,,,,,,,,,1315.65869129356,None,,,1318.6749074407853,None,1.4412698412698413,0.8488529250025749,1318.6749074407853,None,,,,,,,1316.6587851326913,None,1316.841989078559,1316.8586788116954,,,,,,,70,001,2023_Apr_13_1411,SpeechDraft1Carolyn_lessNoise_PlusLocalization,2021.2.3,59.988618082173716,
,,,,,,,,farRight,19.1,4,ch1Sound_localizationTask.wav,19.1,"(1237, 878)","(277,-202)",285,-338,,,,,,,,,,,,,7,5,54,6,,,,,,,,,,,,,,,,,,,,,,,,,,,,,,,,,,,,,,,,1319.5252370927483,None,,,1322.5416299877688,None,1.6603174603174602,0.7333630602806807,1322.5416299877688,None,,,,,,,1320.5252144029364,None,1320.7086064037867,1320.7252687267028,,,,,,,70,001,2023_Apr_13_1411,SpeechDraft1Carolyn_lessNoise_PlusLocalization,2021.2.3,59.988618082173716,
,,,,,,,,farLeft,-19.1,5,ch1Sound_localizationTask.wav,-19.1,"(667, 878)","(-293,-202)",-285,-338,,,,,,,,,,,,,7,6,55,0,,,,,,,,,,,,,,,,,,,,,,,,,,,,,,,,,,,,,,,,1323.2763905138709,None,,,1326.3083606418222,None,1.3523809523809525,1.015233978163451,1326.3083606418222,None,,,,,,,1324.2919675488956,None,1324.4754026900046,1324.491882385686,,,,,,,70,001,2023_Apr_13_1411,SpeechDraft1Carolyn_lessNoise_PlusLocalization,2021.2.3,59.988618082173716,
,,,,,,,,,,,,,,,,,,,,,,,,,,,,,,,,,,,,,,,,,,,,,,,,,,,,,,,,,,,,,,,,,,,,,,,,,,,,,,,,,,,,,,,,,,,,1327.325511871837,None,c,146.41649129102007,1328.308674982749,None,70,001,2023_Apr_13_1411,SpeechDraft1Carolyn_lessNoise_PlusLocalization,2021.2.3,59.988618082173716,
