Audio_Only_Files,Video_Files,Original_Word_List,noiseLevelCode,conditionCodes,noiseLevelFile1,noiseLevelFile2,InstrTextVar,targetSpeakerName,targetSpeakerEccen,targetSpkrChannel,targetSpkrSound,targetVisualDegrees,visStimLoc,visStimLoc2,visStimW,visStimH,practiceTrials.thisRepN,practiceTrials.thisTrialN,practiceTrials.thisN,practiceTrials.thisIndex,trials.thisRepN,trials.thisTrialN,trials.thisN,trials.thisIndex,audLocalLoop.thisRepN,audLocalLoop.thisTrialN,audLocalLoop.thisN,audLocalLoop.thisIndex,visualLocalLoop.thisRepN,visualLocalLoop.thisTrialN,visualLocalLoop.thisN,visualLocalLoop.thisIndex,letsGoAlready.keys,letsGoAlready.rt,letsGoAlready.started,letsGoAlready.stopped,text_2.started,text_2.stopped,text_3.started,text_3.stopped,key_resp_2.keys,key_resp_2.rt,key_resp_2.started,key_resp_2.stopped,text_5.started,text_5.stopped,fixCross.started,fixCross.stopped,fixCross2.started,fixCross2.stopped,answerPrompt.started,answerPrompt.stopped,getAnswer.text,getAnswer.started,getAnswer.stopped,goToNext.keys,goToNext.rt,goToNext.started,goToNext.stopped,stretchBreakTxrt.started,stretchBreakTxrt.stopped,key_resp_3.keys,key_resp_3.rt,key_resp_3.started,key_resp_3.stopped,letsGoLocal.keys,letsGoLocal.rt,letsGoLocal.started,letsGoLocal.stopped,text_4.started,text_4.stopped,prepFixTxt.started,prepFixTxt.stopped,prepFixTxt_2.started,prepFixTxt_2.stopped,respPromptLocal.started,respPromptLocal.stopped,slider.response,slider.rt,slider.started,slider.stopped,letsGoLocal_2.keys,letsGoLocal_2.rt,letsGoLocal_2.started,letsGoLocal_2.stopped,text_7.started,text_7.stopped,prepFixTxt_3.started,prepFixTxt_3.stopped,grating.started,grating.stopped,exitTxt.started,exitTxt.stopped,key_resp.keys,key_resp.rt,key_resp.started,key_resp.stopped,participant,session,date,expName,psychopyVersion,frameRate,
,,,,,,,,,,,,,,,,,,,,,,,,,,,,,,,,,space,1.2641989840194583,11.718527799937874,None,,,,,,,,,,,,,,,,,,,,,,,,,,,,,,,,,,,,,,,,,,,,,,,,,,,,,,,,,,,,,,74,001,2023_Apr_14_1825,SpeechDraft1Carolyn_lessNoise_PlusLocalization,2021.2.3,59.991945960564436,
,,,,,,,,,,,,,,,,,,,,,,,,,,,,,,,,,,,,,11.718527799937874,None,13.10047950502485,None,space,22.779316955711693,13.283371333964169,None,,,,,,,,,,,,,,,,,,,,,,,,,,,,,,,,,,,,,,,,,,,,,,,,,,,,,,74,001,2023_Apr_14_1825,SpeechDraft1Carolyn_lessNoise_PlusLocalization,2021.2.3,59.991945960564436,
ash.wav,ash.mpg,ash,1,A,Pink_Noise_1_1.wav,Pink_Noise_1_2.wav,"This is an example of an

AUDIO trial",,,,,,,,,,0,0,0,0,,,,,,,,,,,,,,,,,,,,,,,,,36.10019493009895,None,37.099870741833,None,40.31626290176064,None,41.683179148007184,None,ash,41.683179148007184,None,return,3.560089270118624,41.766562294680625,None,,,,,,,,,,,,,,,,,,,,,,,,,,,,,,,,,,,,,,,74,001,2023_Apr_14_1825,SpeechDraft1Carolyn_lessNoise_PlusLocalization,2021.2.3,59.991945960564436,
ash.wav,ash.mpg,ash,1,AV,Pink_Noise_1_1.wav,Pink_Noise_1_2.wav,"This is an example of an

AUDIO + VIDEO  trial",,,,,,,,,,0,1,1,1,,,,,,,,,,,,,,,,,,,,,,,,,45.36630487581715,None,46.36656402191147,None,47.84970507165417,None,49.23338015610352,None,"ash
",49.23338015610352,None,return,2.250072602648288,49.31656116200611,None,,,,,,,,,,,,,,,,,,,,,,,,,,,,,,,,,,,,,,,74,001,2023_Apr_14_1825,SpeechDraft1Carolyn_lessNoise_PlusLocalization,2021.2.3,59.991945960564436,
,,,,,,,,,,,,,,,,,,,,,,,,,,,,,,,,,,,,,,,,,,,,,,,,,,,,,,,,,,,,51.616293482948095,None,space,18.742721223738045,51.79992182273418,None,,,,,,,,,,,,,,,,,,,,,,,,,,,,,,,,,74,001,2023_Apr_14_1825,SpeechDraft1Carolyn_lessNoise_PlusLocalization,2021.2.3,59.991945960564436,
dim.wav,dim.mpg,dim,5,A,Pink_Noise_5_1.wav,Pink_Noise_5_2.wav,,,,,,,,,,,,,,,0,0,0,10,,,,,,,,,,,,,,,,,,,,,,,70.59963396470994,None,72.08297102479264,None,73.46660534571856,None,"dim
",73.46660534571856,None,return,9.136671443935484,73.54996495973319,None,,,,,,,,,,,,,,,,,,,,,,,,,,,,,,,,,,,,,,,74,001,2023_Apr_14_1825,SpeechDraft1Carolyn_lessNoise_PlusLocalization,2021.2.3,59.991945960564436,
calm.wav,calm.mpg,calm,1,A,Pink_Noise_1_1.wav,Pink_Noise_1_2.wav,,,,,,,,,,,,,,,0,1,1,0,,,,,,,,,,,,,,,,,,,,,,,82.71671154210344,None,84.19972973084077,None,85.58321360405535,None,calm,85.58321360405535,None,return,7.771991083398461,85.66678285365924,None,,,,,,,,,,,,,,,,,,,,,,,,,,,,,,,,,,,,,,,74,001,2023_Apr_14_1825,SpeechDraft1Carolyn_lessNoise_PlusLocalization,2021.2.3,59.991945960564436,
brand.wav,brand.mpg,brand,5,A,Pink_Noise_5_1.wav,Pink_Noise_5_2.wav,,,,,,,,,,,,,,,0,2,2,47,,,,,,,,,,,,,,,,,,,,,,,93.46667307289317,None,94.94964097486809,None,96.33334082970396,None,rain,96.33334082970396,None,return,3.3901244276203215,96.4166330108419,None,,,,,,,,,,,,,,,,,,,,,,,,,,,,,,,,,,,,,,,74,001,2023_Apr_14_1825,SpeechDraft1Carolyn_lessNoise_PlusLocalization,2021.2.3,59.991945960564436,
nice.wav,nice.mpg,nice,2,AV,Pink_Noise_2_1.wav,Pink_Noise_2_2.wav,,,,,,,,,,,,,,,0,3,3,104,,,,,,,,,,,,,,,,,,,,,,,99.83323984500021,None,101.33308309875429,None,102.7165449950844,None,nice,102.7165449950844,None,return,6.990655463188887,102.7999786939472,None,,,,,,,,,,,,,,,,,,,,,,,,,,,,,,,,,,,,,,,74,001,2023_Apr_14_1825,SpeechDraft1Carolyn_lessNoise_PlusLocalization,2021.2.3,59.991945960564436,
foot.wav,foot.mpg,foot,5,A,Pink_Noise_5_1.wav,Pink_Noise_5_2.wav,,,,,,,,,,,,,,,0,4,4,38,,,,,,,,,,,,,,,,,,,,,,,109.81667979201302,None,111.30009582266212,None,112.68329781387001,None,butch,112.68329781387001,None,return,4.032062575221062,112.76663739280775,None,,,,,,,,,,,,,,,,,,,,,,,,,,,,,,,,,,,,,,,74,001,2023_Apr_14_1825,SpeechDraft1Carolyn_lessNoise_PlusLocalization,2021.2.3,59.991945960564436,
grunt.wav,grunt.mpg,grunt,4,AV,Pink_Noise_4_1.wav,Pink_Noise_4_2.wav,,,,,,,,,,,,,,,0,5,5,68,,,,,,,,,,,,,,,,,,,,,,,116.81664361478761,None,118.31641502166167,None,119.69999632006511,None,grudge,119.69999632006511,None,return,7.926934457849711,119.78368670400232,None,,,,,,,,,,,,,,,,,,,,,,,,,,,,,,,,,,,,,,,74,001,2023_Apr_14_1825,SpeechDraft1Carolyn_lessNoise_PlusLocalization,2021.2.3,59.991945960564436,
dent.wav,dent.mpg,dent,1,AV,Pink_Noise_1_1.wav,Pink_Noise_1_2.wav,,,,,,,,,,,,,,,0,6,6,95,,,,,,,,,,,,,,,,,,,,,,,127.7333485907875,None,129.21672616899014,None,130.59990713885054,None,dead,130.59990713885054,None,return,2.9634098228998482,130.68333473196253,None,,,,,,,,,,,,,,,,,,,,,,,,,,,,,,,,,,,,,,,74,001,2023_Apr_14_1825,SpeechDraft1Carolyn_lessNoise_PlusLocalization,2021.2.3,59.991945960564436,
bug.wav,bug.mpg,bug,4,A,Pink_Noise_4_1.wav,Pink_Noise_4_2.wav,,,,,,,,,,,,,,,0,7,7,35,,,,,,,,,,,,,,,,,,,,,,,133.66668002167717,None,135.1663019838743,None,136.5500572589226,None,bug,136.5500572589226,None,return,1.7893104115501046,136.63336379779503,None,,,,,,,,,,,,,,,,,,,,,,,,,,,,,,,,,,,,,,,74,001,2023_Apr_14_1825,SpeechDraft1Carolyn_lessNoise_PlusLocalization,2021.2.3,59.991945960564436,
curve.wav,curve.mpg,curve,4,AV,Pink_Noise_4_1.wav,Pink_Noise_4_2.wav,,,,,,,,,,,,,,,0,8,8,88,,,,,,,,,,,,,,,,,,,,,,,138.45006415480748,None,139.94983039377257,None,141.33329298580065,None,her,141.33329298580065,None,return,2.149955376982689,141.41670756181702,None,,,,,,,,,,,,,,,,,,,,,,,,,,,,,,,,,,,,,,,74,001,2023_Apr_14_1825,SpeechDraft1Carolyn_lessNoise_PlusLocalization,2021.2.3,59.991945960564436,
strive.wav,strive.mpg,strive,6,A,Pink_Noise_6_1.wav,Pink_Noise_6_2.wav,,,,,,,,,,,,,,,0,9,9,19,,,,,,,,,,,,,,,,,,,,,,,143.58334362506866,None,145.0832110028714,None,146.4668386648409,None,sky,146.4668386648409,None,return,7.144512757193297,146.55011003278196,None,,,,,,,,,,,,,,,,,,,,,,,,,,,,,,,,,,,,,,,74,001,2023_Apr_14_1825,SpeechDraft1Carolyn_lessNoise_PlusLocalization,2021.2.3,59.991945960564436,
dove.wav,dove.mpg,dove,4,AV,Pink_Noise_4_1.wav,Pink_Noise_4_2.wav,,,,,,,,,,,,,,,0,10,10,94,,,,,,,,,,,,,,,,,,,,,,,153.716701077763,None,155.19981316896155,None,156.58332824893296,None,love,156.58332824893296,None,return,3.907814261969179,156.66680769296363,None,,,,,,,,,,,,,,,,,,,,,,,,,,,,,,,,,,,,,,,74,001,2023_Apr_14_1825,SpeechDraft1Carolyn_lessNoise_PlusLocalization,2021.2.3,59.991945960564436,
fresh.wav,fresh.mpg,fresh,4,A,Pink_Noise_4_1.wav,Pink_Noise_4_2.wav,,,,,,,,,,,,,,,0,11,11,3,,,,,,,,,,,,,,,,,,,,,,,160.60011692298576,None,162.09977229498327,None,163.48338481178507,None,fresh,163.48338481178507,None,return,6.7999390182085335,163.56673064595088,None,,,,,,,,,,,,,,,,,,,,,,,,,,,,,,,,,,,,,,,74,001,2023_Apr_14_1825,SpeechDraft1Carolyn_lessNoise_PlusLocalization,2021.2.3,59.991945960564436,
awe.wav,awe.mpg,awe,3,A,Pink_Noise_3_1.wav,Pink_Noise_3_2.wav,,,,,,,,,,,,,,,0,12,12,17,,,,,,,,,,,,,,,,,,,,,,,170.3836258109659,None,171.88313883170485,None,173.26675693364814,None,all,173.26675693364814,None,return,4.8645628141239285,173.35007083881646,None,,,,,,,,,,,,,,,,,,,,,,,,,,,,,,,,,,,,,,,74,001,2023_Apr_14_1825,SpeechDraft1Carolyn_lessNoise_PlusLocalization,2021.2.3,59.991945960564436,
flood.wav,flood.mpg,flood,2,A,Pink_Noise_2_1.wav,Pink_Noise_2_2.wav,,,,,,,,,,,,,,,0,13,13,23,,,,,,,,,,,,,,,,,,,,,,,178.2333805868402,None,179.73300960380584,None,181.11678292509168,None,blood,181.11678292509168,None,return,5.294596528634429,181.20007181586698,None,,,,,,,,,,,,,,,,,,,,,,,,,,,,,,,,,,,,,,,74,001,2023_Apr_14_1825,SpeechDraft1Carolyn_lessNoise_PlusLocalization,2021.2.3,59.991945960564436,
bunch.wav,bunch.mpg,bunch,1,AV,Pink_Noise_1_1.wav,Pink_Noise_1_2.wav,,,,,,,,,,,,,,,0,14,14,71,,,,,,,,,,,,,,,,,,,,,,,186.5167459710501,None,188.00040466198698,None,189.38330999575555,None,budge,189.38330999575555,None,return,5.539945407770574,189.46679801074788,None,,,,,,,,,,,,,,,,,,,,,,,,,,,,,,,,,,,,,,,74,001,2023_Apr_14_1825,SpeechDraft1Carolyn_lessNoise_PlusLocalization,2021.2.3,59.991945960564436,
cord.wav,cord.mpg,cord,6,A,Pink_Noise_6_1.wav,Pink_Noise_6_2.wav,,,,,,,,,,,,,,,0,15,15,41,,,,,,,,,,,,,,,,,,,,,,,195.03347790706903,None,196.51743233809248,None,197.9001688240096,None,more,197.9001688240096,None,return,2.4872474749572575,197.98337708599865,None,,,,,,,,,,,,,,,,,,,,,,,,,,,,,,,,,,,,,,,74,001,2023_Apr_14_1825,SpeechDraft1Carolyn_lessNoise_PlusLocalization,2021.2.3,59.991945960564436,
nine.wav,nine.mpg,nine,6,AV,Pink_Noise_6_1.wav,Pink_Noise_6_2.wav,,,,,,,,,,,,,,,0,16,16,113,,,,,,,,,,,,,,,,,,,,,,,200.50011877994984,None,201.99987318878993,None,203.3835947928019,None,line,203.3835947928019,None,return,2.7799985697492957,203.4667422058992,None,,,,,,,,,,,,,,,,,,,,,,,,,,,,,,,,,,,,,,,74,001,2023_Apr_14_1825,SpeechDraft1Carolyn_lessNoise_PlusLocalization,2021.2.3,59.991945960564436,
tomb.wav,tomb.mpg,tomb,3,A,Pink_Noise_3_1.wav,Pink_Noise_3_2.wav,,,,,,,,,,,,,,,0,17,17,59,,,,,,,,,,,,,,,,,,,,,,,206.26680782577023,None,207.76651742774993,None,209.1501223356463,None,"chill
",209.1501223356463,None,return,4.085182628594339,209.23345536598936,None,,,,,,,,,,,,,,,,,,,,,,,,,,,,,,,,,,,,,,,74,001,2023_Apr_14_1825,SpeechDraft1Carolyn_lessNoise_PlusLocalization,2021.2.3,59.991945960564436,
weep.wav,weep.mpg,weep,1,A,Pink_Noise_1_1.wav,Pink_Noise_1_2.wav,,,,,,,,,,,,,,,0,18,18,46,,,,,,,,,,,,,,,,,,,,,,,213.35013459576294,None,214.8499591187574,None,216.2334360848181,None,weak,216.2334360848181,None,return,1.3538581184111536,216.31675892183557,None,,,,,,,,,,,,,,,,,,,,,,,,,,,,,,,,,,,,,,,74,001,2023_Apr_14_1825,SpeechDraft1Carolyn_lessNoise_PlusLocalization,2021.2.3,59.991945960564436,
dash.wav,dash.mpg,dash,5,A,Pink_Noise_5_1.wav,Pink_Noise_5_2.wav,,,,,,,,,,,,,,,0,19,19,20,,,,,,,,,,,,,,,,,,,,,,,217.700171017088,None,219.19983838591725,None,220.58352256193757,None,dash,220.58352256193757,None,return,1.3718808577395976,220.66681993799284,None,,,,,,,,,,,,,,,,,,,,,,,,,,,,,,,,,,,,,,,74,001,2023_Apr_14_1825,SpeechDraft1Carolyn_lessNoise_PlusLocalization,2021.2.3,59.991945960564436,
fluent.wav,fluent.mpg,fluent,5,A,Pink_Noise_5_1.wav,Pink_Noise_5_2.wav,,,,,,,,,,,,,,,0,20,20,56,,,,,,,,,,,,,,,,,,,,,,,222.06678952882066,None,223.56647345796227,None,224.95017524296418,None,green,224.95017524296418,None,return,2.5092136808671057,225.03341342089698,None,,,,,,,,,,,,,,,,,,,,,,,,,,,,,,,,,,,,,,,74,001,2023_Apr_14_1825,SpeechDraft1Carolyn_lessNoise_PlusLocalization,2021.2.3,59.991945960564436,
egg.wav,egg.mpg,egg,4,A,Pink_Noise_4_1.wav,Pink_Noise_4_2.wav,,,,,,,,,,,,,,,0,21,21,40,,,,,,,,,,,,,,,,,,,,,,,227.56681038765237,None,229.0664732339792,None,230.45021699694917,None,"egg
",230.45021699694917,None,return,5.153127884026617,230.53350585373119,None,,,,,,,,,,,,,,,,,,,,,,,,,,,,,,,,,,,,,,,74,001,2023_Apr_14_1825,SpeechDraft1Carolyn_lessNoise_PlusLocalization,2021.2.3,59.991945960564436,
grave.wav,grave.mpg,grave,1,A,Pink_Noise_1_1.wav,Pink_Noise_1_2.wav,,,,,,,,,,,,,,,0,22,22,29,,,,,,,,,,,,,,,,,,,,,,,235.7168071330525,None,237.21652379771695,None,238.6001328639686,None,"grave
",238.6001328639686,None,return,1.6351001956500113,238.68352423701435,None,,,,,,,,,,,,,,,,,,,,,,,,,,,,,,,,,,,,,,,74,001,2023_Apr_14_1825,SpeechDraft1Carolyn_lessNoise_PlusLocalization,2021.2.3,59.991945960564436,
droop.wav,droop.mpg,droop,3,A,Pink_Noise_3_1.wav,Pink_Noise_3_2.wav,,,,,,,,,,,,,,,0,23,23,53,,,,,,,,,,,,,,,,,,,,,,,240.35028306487948,None,241.8498586998321,None,243.23363622883335,None,droop,243.23363622883335,None,return,1.130048030987382,243.31677850568667,None,,,,,,,,,,,,,,,,,,,,,,,,,,,,,,,,,,,,,,,74,001,2023_Apr_14_1825,SpeechDraft1Carolyn_lessNoise_PlusLocalization,2021.2.3,59.991945960564436,
grin.wav,grin.mpg,grin,2,A,Pink_Noise_2_1.wav,Pink_Noise_2_2.wav,,,,,,,,,,,,,,,0,24,24,49,,,,,,,,,,,,,,,,,,,,,,,244.46678163064644,None,245.9664127267897,None,247.35022521810606,None,grin,247.35022521810606,None,return,1.7890829308889806,247.4336487390101,None,,,,,,,,,,,,,,,,,,,,,,,,,,,,,,,,,,,,,,,74,001,2023_Apr_14_1825,SpeechDraft1Carolyn_lessNoise_PlusLocalization,2021.2.3,59.991945960564436,
fee.wav,fee.mpg,fee,1,AV,Pink_Noise_1_1.wav,Pink_Noise_1_2.wav,,,,,,,,,,,,,,,0,25,25,115,,,,,,,,,,,,,,,,,,,,,,,249.2501862179488,None,250.74990081693977,None,252.1333587258123,None,"fee
",252.1333587258123,None,return,1.3016664050519466,252.21696671471,None,,,,,,,,,,,,,,,,,,,,,,,,,,,,,,,,,,,,,,,74,001,2023_Apr_14_1825,SpeechDraft1Carolyn_lessNoise_PlusLocalization,2021.2.3,59.991945960564436,
blur.wav,blur.mpg,blur,3,A,Pink_Noise_3_1.wav,Pink_Noise_3_2.wav,,,,,,,,,,,,,,,0,26,26,54,,,,,,,,,,,,,,,,,,,,,,,253.550242502708,None,255.04996154084802,None,256.43351753009483,None,blur,256.43351753009483,None,return,0.9298254703171551,256.5168940126896,None,,,,,,,,,,,,,,,,,,,,,,,,,,,,,,,,,,,,,,,74,001,2023_Apr_14_1825,SpeechDraft1Carolyn_lessNoise_PlusLocalization,2021.2.3,59.991945960564436,
deed.wav,deed.mpg,deed,4,A,Pink_Noise_4_1.wav,Pink_Noise_4_2.wav,,,,,,,,,,,,,,,0,27,27,26,,,,,,,,,,,,,,,,,,,,,,,257.4668524567969,None,258.96655081398785,None,260.3501934716478,None,glee,260.3501934716478,None,return,7.389166374225169,260.43359254999086,None,,,,,,,,,,,,,,,,,,,,,,,,,,,,,,,,,,,,,,,74,001,2023_Apr_14_1825,SpeechDraft1Carolyn_lessNoise_PlusLocalization,2021.2.3,59.991945960564436,
fund.wav,fund.mpg,fund,4,A,Pink_Noise_4_1.wav,Pink_Noise_4_2.wav,,,,,,,,,,,,,,,0,28,28,52,,,,,,,,,,,,,,,,,,,,,,,267.85016586165875,None,269.3499012910761,None,270.733579732012,None,"charge
",270.733579732012,None,return,6.669825640972704,270.8168087140657,None,,,,,,,,,,,,,,,,,,,,,,,,,,,,,,,,,,,,,,,74,001,2023_Apr_14_1825,SpeechDraft1Carolyn_lessNoise_PlusLocalization,2021.2.3,59.991945960564436,
bride.wav,bride.mpg,bride,3,AV,Pink_Noise_3_1.wav,Pink_Noise_3_2.wav,,,,,,,,,,,,,,,0,29,29,107,,,,,,,,,,,,,,,,,,,,,,,277.51699362974614,None,279.0166759020649,None,280.40021032094955,None,bride,280.40021032094955,None,return,6.179111817851663,280.48354175081477,None,,,,,,,,,,,,,,,,,,,,,,,,,,,,,,,,,,,,,,,74,001,2023_Apr_14_1825,SpeechDraft1Carolyn_lessNoise_PlusLocalization,2021.2.3,59.991945960564436,
flag.wav,flag.mpg,flag,6,A,Pink_Noise_6_1.wav,Pink_Noise_6_2.wav,,,,,,,,,,,,,,,0,30,30,16,,,,,,,,,,,,,,,,,,,,,,,286.6835586600937,None,288.18335758009925,None,289.566865243949,None,life,289.566865243949,None,return,2.7243681997060776,289.6502581019886,None,,,,,,,,,,,,,,,,,,,,,,,,,,,,,,,,,,,,,,,74,001,2023_Apr_14_1825,SpeechDraft1Carolyn_lessNoise_PlusLocalization,2021.2.3,59.991945960564436,
fat.wav,fat.mpg,fat,2,AV,Pink_Noise_2_1.wav,Pink_Noise_2_2.wav,,,,,,,,,,,,,,,0,31,31,79,,,,,,,,,,,,,,,,,,,,,,,292.40025416295975,None,293.90000495966524,None,295.2835458139889,None,fat,295.2835458139889,None,return,1.2797836870886385,295.3669571909122,None,,,,,,,,,,,,,,,,,,,,,,,,,,,,,,,,,,,,,,,74,001,2023_Apr_14_1825,SpeechDraft1Carolyn_lessNoise_PlusLocalization,2021.2.3,59.991945960564436,
duet.wav,duet.mpg,duet,4,A,Pink_Noise_4_1.wav,Pink_Noise_4_2.wav,,,,,,,,,,,,,,,0,32,32,39,,,,,,,,,,,,,,,,,,,,,,,296.66688895598054,None,298.1666042879224,None,299.55032315989956,None,duet,299.55032315989956,None,return,1.9331833240576088,299.63357349298894,None,,,,,,,,,,,,,,,,,,,,,,,,,,,,,,,,,,,,,,,74,001,2023_Apr_14_1825,SpeechDraft1Carolyn_lessNoise_PlusLocalization,2021.2.3,59.991945960564436,
flow.wav,flow.mpg,flow,2,AV,Pink_Noise_2_1.wav,Pink_Noise_2_2.wav,,,,,,,,,,,,,,,0,33,33,97,,,,,,,,,,,,,,,,,,,,,,,301.583603723906,None,303.0833852738142,None,304.4670206499286,None,flow,304.4670206499286,None,return,1.4563053790479898,304.5504452260211,None,,,,,,,,,,,,,,,,,,,,,,,,,,,,,,,,,,,,,,,74,001,2023_Apr_14_1825,SpeechDraft1Carolyn_lessNoise_PlusLocalization,2021.2.3,59.991945960564436,
flash.wav,flash.mpg,flash,3,A,Pink_Noise_3_1.wav,Pink_Noise_3_2.wav,,,,,,,,,,,,,,,0,34,34,21,,,,,,,,,,,,,,,,,,,,,,,306.0335742868483,None,307.53334564203396,None,308.9169289567508,None,flash,308.9169289567508,None,return,4.462150718085468,309.0004790807143,None,,,,,,,,,,,,,,,,,,,,,,,,,,,,,,,,,,,,,,,74,001,2023_Apr_14_1825,SpeechDraft1Carolyn_lessNoise_PlusLocalization,2021.2.3,59.991945960564436,
flaw.wav,flaw.mpg,flaw,6,A,Pink_Noise_6_1.wav,Pink_Noise_6_2.wav,,,,,,,,,,,,,,,0,35,35,14,,,,,,,,,,,,,,,,,,,,,,,313.4836602890864,None,314.9833190510981,None,316.36691645905375,None,long,316.36691645905375,None,return,2.964342523831874,316.4502645106986,None,,,,,,,,,,,,,,,,,,,,,,,,,,,,,,,,,,,,,,,74,001,2023_Apr_14_1825,SpeechDraft1Carolyn_lessNoise_PlusLocalization,2021.2.3,59.991945960564436,
pledge.wav,pledge.mpg,pledge,1,AV,Pink_Noise_1_1.wav,Pink_Noise_1_2.wav,,,,,,,,,,,,,,,0,36,36,80,,,,,,,,,,,,,,,,,,,,,,,319.4335979577154,None,320.93325404496863,None,322.31705494085327,None,"pledge
",322.31705494085327,None,return,1.9343388569541276,322.40028907498345,None,,,,,,,,,,,,,,,,,,,,,,,,,,,,,,,,,,,,,,,74,001,2023_Apr_14_1825,SpeechDraft1Carolyn_lessNoise_PlusLocalization,2021.2.3,59.991945960564436,
fierce.wav,fierce.mpg,fierce,3,A,Pink_Noise_3_1.wav,Pink_Noise_3_2.wav,,,,,,,,,,,,,,,0,37,37,36,,,,,,,,,,,,,,,,,,,,,,,324.3669735160656,None,325.86670470703393,None,327.2503127530217,None,fierce,327.2503127530217,None,return,1.7210183651186526,327.33361813565716,None,,,,,,,,,,,,,,,,,,,,,,,,,,,,,,,,,,,,,,,74,001,2023_Apr_14_1825,SpeechDraft1Carolyn_lessNoise_PlusLocalization,2021.2.3,59.991945960564436,
chin.wav,chin.mpg,chin,1,AV,Pink_Noise_1_1.wav,Pink_Noise_1_2.wav,,,,,,,,,,,,,,,0,38,38,63,,,,,,,,,,,,,,,,,,,,,,,329.08362094592303,None,330.58349935896695,None,331.966892153956,None,chin,331.966892153956,None,return,1.0763721601106226,332.05027516465634,None,,,,,,,,,,,,,,,,,,,,,,,,,,,,,,,,,,,,,,,74,001,2023_Apr_14_1825,SpeechDraft1Carolyn_lessNoise_PlusLocalization,2021.2.3,59.991945960564436,
bib.wav,bib.mpg,bib,2,AV,Pink_Noise_2_1.wav,Pink_Noise_2_2.wav,,,,,,,,,,,,,,,0,39,39,105,,,,,,,,,,,,,,,,,,,,,,,333.15028865169734,None,334.6499984199181,None,336.0335638499819,None,bib,336.0335638499819,None,return,1.297672440763563,336.11698022671044,None,,,,,,,,,,,,,,,,,,,,,,,,,,,,,,,,,,,,,,,74,001,2023_Apr_14_1825,SpeechDraft1Carolyn_lessNoise_PlusLocalization,2021.2.3,59.991945960564436,
hike.wav,hike.mpg,hike,3,AV,Pink_Noise_3_1.wav,Pink_Noise_3_2.wav,,,,,,,,,,,,,,,0,40,40,85,,,,,,,,,,,,,,,,,,,,,,,337.4335595080629,None,338.9334550849162,None,340.31700384803116,None,hike,340.31700384803116,None,return,1.1983210840262473,340.40032023889944,None,,,,,,,,,,,,,,,,,,,,,,,,,,,,,,,,,,,,,,,74,001,2023_Apr_14_1825,SpeechDraft1Carolyn_lessNoise_PlusLocalization,2021.2.3,59.991945960564436,
goose.wav,goose.mpg,goose,2,A,Pink_Noise_2_1.wav,Pink_Noise_2_2.wav,,,,,,,,,,,,,,,0,41,41,33,,,,,,,,,,,,,,,,,,,,,,,341.61698197200894,None,343.1171940197237,None,344.50037225568667,None,goose,344.50037225568667,None,return,1.679042947012931,344.58360960287973,None,,,,,,,,,,,,,,,,,,,,,,,,,,,,,,,,,,,,,,,74,001,2023_Apr_14_1825,SpeechDraft1Carolyn_lessNoise_PlusLocalization,2021.2.3,59.991945960564436,
blunt.wav,blunt.mpg,blunt,2,A,Pink_Noise_2_1.wav,Pink_Noise_2_2.wav,,,,,,,,,,,,,,,0,42,42,6,,,,,,,,,,,,,,,,,,,,,,,346.2838368709199,None,347.7833157647401,None,349.166932284832,None,blunt,349.166932284832,None,return,4.00427577085793,349.25035008369014,None,,,,,,,,,,,,,,,,,,,,,,,,,,,,,,,,,,,,,,,74,001,2023_Apr_14_1825,SpeechDraft1Carolyn_lessNoise_PlusLocalization,2021.2.3,59.991945960564436,
clash.wav,clash.mpg,clash,2,A,Pink_Noise_2_1.wav,Pink_Noise_2_2.wav,,,,,,,,,,,,,,,0,43,43,4,,,,,,,,,,,,,,,,,,,,,,,353.28367481799796,None,354.78327891090885,None,356.16700426489115,None,clash,356.16700426489115,None,return,2.2282550339587033,356.25040193879977,None,,,,,,,,,,,,,,,,,,,,,,,,,,,,,,,,,,,,,,,74,001,2023_Apr_14_1825,SpeechDraft1Carolyn_lessNoise_PlusLocalization,2021.2.3,59.991945960564436,
coach.wav,coach.mpg,coach,5,AV,Pink_Noise_5_1.wav,Pink_Noise_5_2.wav,,,,,,,,,,,,,,,0,44,44,77,,,,,,,,,,,,,,,,,,,,,,,358.50032242480665,None,360.00006942497566,None,361.383703534957,None,coach,361.383703534957,None,return,1.1317492481321096,361.46699285088107,None,,,,,,,,,,,,,,,,,,,,,,,,,,,,,,,,,,,,,,,74,001,2023_Apr_14_1825,SpeechDraft1Carolyn_lessNoise_PlusLocalization,2021.2.3,59.991945960564436,
crime.wav,crime.mpg,crime,3,AV,Pink_Noise_3_1.wav,Pink_Noise_3_2.wav,,,,,,,,,,,,,,,0,45,45,109,,,,,,,,,,,,,,,,,,,,,,,362.61698455689475,None,364.117675577756,None,365.50024991482496,None,crime,365.50024991482496,None,return,1.0149469920434058,365.5836732001044,None,,,,,,,,,,,,,,,,,,,,,,,,,,,,,,,,,,,,,,,74,001,2023_Apr_14_1825,SpeechDraft1Carolyn_lessNoise_PlusLocalization,2021.2.3,59.991945960564436,
fool.wav,fool.mpg,fool,3,AV,Pink_Noise_3_1.wav,Pink_Noise_3_2.wav,,,,,,,,,,,,,,,0,46,46,119,,,,,,,,,,,,,,,,,,,,,,,366.61715619498864,None,368.1169091248885,None,369.500215977896,None,fool,369.500215977896,None,return,0.9829950099810958,369.58369187265635,None,,,,,,,,,,,,,,,,,,,,,,,,,,,,,,,,,,,,,,,74,001,2023_Apr_14_1825,SpeechDraft1Carolyn_lessNoise_PlusLocalization,2021.2.3,59.991945960564436,
ditch.wav,ditch.mpg,ditch,4,A,Pink_Noise_4_1.wav,Pink_Noise_4_2.wav,,,,,,,,,,,,,,,0,47,47,57,,,,,,,,,,,,,,,,,,,,,,,370.58385407784954,None,372.0999988447875,None,373.48366330889985,None,dish,373.48366330889985,None,return,2.039714155253023,373.56706934189424,None,,,,,,,,,,,,,,,,,,,,,,,,,,,,,,,,,,,,,,,74,001,2023_Apr_14_1825,SpeechDraft1Carolyn_lessNoise_PlusLocalization,2021.2.3,59.991945960564436,
tool.wav,tool.mpg,tool,4,A,Pink_Noise_4_1.wav,Pink_Noise_4_2.wav,,,,,,,,,,,,,,,0,48,48,15,,,,,,,,,,,,,,,,,,,,,,,375.63369965180755,None,377.13339438010007,None,378.51710959197953,None,tool,378.51710959197953,None,return,1.030269619077444,378.60041377088055,None,,,,,,,,,,,,,,,,,,,,,,,,,,,,,,,,,,,,,,,74,001,2023_Apr_14_1825,SpeechDraft1Carolyn_lessNoise_PlusLocalization,2021.2.3,59.991945960564436,
chef.wav,chef.mpg,chef,1,AV,Pink_Noise_1_1.wav,Pink_Noise_1_2.wav,,,,,,,,,,,,,,,0,49,49,89,,,,,,,,,,,,,,,,,,,,,,,379.6504178880714,None,381.1503383410163,None,382.5336428768933,None,chef,382.5336428768933,None,return,2.045585409272462,382.6170876659453,None,,,,,,,,,,,,,,,,,,,,,,,,,,,,,,,,,,,,,,,74,001,2023_Apr_14_1825,SpeechDraft1Carolyn_lessNoise_PlusLocalization,2021.2.3,59.991945960564436,
clay.wav,clay.mpg,clay,6,A,Pink_Noise_6_1.wav,Pink_Noise_6_2.wav,,,,,,,,,,,,,,,0,50,50,42,,,,,,,,,,,,,,,,,,,,,,,384.68373794294894,None,386.1835199217312,None,387.5670421756804,None,flash,387.5670421756804,None,return,4.708340754266828,387.6503246128559,None,,,,,,,,,,,,,,,,,,,,,,,,,,,,,,,,,,,,,,,74,001,2023_Apr_14_1825,SpeechDraft1Carolyn_lessNoise_PlusLocalization,2021.2.3,59.991945960564436,
beg.wav,beg.mpg,beg,3,AV,Pink_Noise_3_1.wav,Pink_Noise_3_2.wav,,,,,,,,,,,,,,,0,51,51,100,,,,,,,,,,,,,,,,,,,,,,,392.38371504610404,None,393.8835130999796,None,395.26724793203175,None,beg,395.26724793203175,None,return,1.0322866039350629,395.3503815047443,None,,,,,,,,,,,,,,,,,,,,,,,,,,,,,,,,,,,,,,,74,001,2023_Apr_14_1825,SpeechDraft1Carolyn_lessNoise_PlusLocalization,2021.2.3,59.991945960564436,
due.wav,due.mpg,due,5,A,Pink_Noise_5_1.wav,Pink_Noise_5_2.wav,,,,,,,,,,,,,,,0,52,52,34,,,,,,,,,,,,,,,,,,,,,,,396.4003686029464,None,397.9001166988164,None,399.2837427519262,None,do,399.2837427519262,None,return,0.6316190478391945,399.36707664188,None,,,,,,,,,,,,,,,,,,,,,,,,,,,,,,,,,,,,,,,74,001,2023_Apr_14_1825,SpeechDraft1Carolyn_lessNoise_PlusLocalization,2021.2.3,59.991945960564436,
dusk.wav,dusk.mpg,dusk,2,AV,Pink_Noise_2_1.wav,Pink_Noise_2_2.wav,,,,,,,,,,,,,,,0,53,53,72,,,,,,,,,,,,,,,,,,,,,,,400.01708763372153,None,401.51674890192226,None,402.9003286338411,None,dusk,402.9003286338411,None,return,1.1269342550076544,402.9836877556518,None,,,,,,,,,,,,,,,,,,,,,,,,,,,,,,,,,,,,,,,74,001,2023_Apr_14_1825,SpeechDraft1Carolyn_lessNoise_PlusLocalization,2021.2.3,59.991945960564436,
fence.wav,fence.mpg,fence,6,A,Pink_Noise_6_1.wav,Pink_Noise_6_2.wav,,,,,,,,,,,,,,,0,54,54,7,,,,,,,,,,,,,,,,,,,,,,,404.1338233249262,None,405.63339165085927,None,407.0170278977603,None,light,407.0170278977603,None,return,2.194102401379496,407.1005265680142,None,,,,,,,,,,,,,,,,,,,,,,,,,,,,,,,,,,,,,,,74,001,2023_Apr_14_1825,SpeechDraft1Carolyn_lessNoise_PlusLocalization,2021.2.3,59.991945960564436,
chew.wav,chew.mpg,chew,2,A,Pink_Noise_2_1.wav,Pink_Noise_2_2.wav,,,,,,,,,,,,,,,0,55,55,43,,,,,,,,,,,,,,,,,,,,,,,409.31724677374586,None,410.8167573218234,None,412.2004083869979,None,"chew
",412.2004083869979,None,return,1.0338402399793267,412.2848022086546,None,,,,,,,,,,,,,,,,,,,,,,,,,,,,,,,,,,,,,,,74,001,2023_Apr_14_1825,SpeechDraft1Carolyn_lessNoise_PlusLocalization,2021.2.3,59.991945960564436,
chip.wav,chip.mpg,chip,1,A,Pink_Noise_1_1.wav,Pink_Noise_1_2.wav,,,,,,,,,,,,,,,0,56,56,24,,,,,,,,,,,,,,,,,,,,,,,413.35035922564566,None,414.85012366902083,None,416.2338406429626,None,chip,416.2338406429626,None,return,0.6497069792822003,416.31705877464265,None,,,,,,,,,,,,,,,,,,,,,,,,,,,,,,,,,,,,,,,74,001,2023_Apr_14_1825,SpeechDraft1Carolyn_lessNoise_PlusLocalization,2021.2.3,59.991945960564436,
pop.wav,pop.mpg,pop,6,A,Pink_Noise_6_1.wav,Pink_Noise_6_2.wav,,,,,,,,,,,,,,,0,57,57,22,,,,,,,,,,,,,,,,,,,,,,,416.98373773880303,None,418.4834658796899,None,419.8671410540119,None,hot,419.8671410540119,None,return,2.6563355773687363,419.95038522593677,None,,,,,,,,,,,,,,,,,,,,,,,,,,,,,,,,,,,,,,,74,001,2023_Apr_14_1825,SpeechDraft1Carolyn_lessNoise_PlusLocalization,2021.2.3,59.991945960564436,
file.wav,file.mpg,file,3,AV,Pink_Noise_3_1.wav,Pink_Noise_3_2.wav,,,,,,,,,,,,,,,0,58,58,99,,,,,,,,,,,,,,,,,,,,,,,422.6338073578663,None,424.1334320260212,None,425.51697765802965,None,file,425.51697765802965,None,return,1.4461264060810208,425.60053671104833,None,,,,,,,,,,,,,,,,,,,,,,,,,,,,,,,,,,,,,,,74,001,2023_Apr_14_1825,SpeechDraft1Carolyn_lessNoise_PlusLocalization,2021.2.3,59.991945960564436,
fifth.wav,fifth.mpg,fifth,4,AV,Pink_Noise_4_1.wav,Pink_Noise_4_2.wav,,,,,,,,,,,,,,,0,59,59,98,,,,,,,,,,,,,,,,,,,,,,,427.06709971791133,None,428.56702427985147,None,429.9503991007805,None,filth,429.9503991007805,None,return,4.108849185053259,430.0337782828137,None,,,,,,,,,,,,,,,,,,,,,,,,,,,,,,,,,,,,,,,74,001,2023_Apr_14_1825,SpeechDraft1Carolyn_lessNoise_PlusLocalization,2021.2.3,59.991945960564436,
beam.wav,beam.mpg,beam,1,AV,Pink_Noise_1_1.wav,Pink_Noise_1_2.wav,,,,,,,,,,,,,,,0,60,60,111,,,,,,,,,,,,,,,,,,,,,,,434.1670574727468,None,435.6669244780205,None,437.0503583047539,None,"bea,
",437.0503583047539,None,return,0.9529131320305169,437.1337300366722,None,,,,,,,,,,,,,,,,,,,,,,,,,,,,,,,,,,,,,,,74,001,2023_Apr_14_1825,SpeechDraft1Carolyn_lessNoise_PlusLocalization,2021.2.3,59.991945960564436,
rent.wav,rent.mpg,rent,4,AV,Pink_Noise_4_1.wav,Pink_Noise_4_2.wav,,,,,,,,,,,,,,,0,61,61,70,,,,,,,,,,,,,,,,,,,,,,,438.1171418367885,None,439.61797577003017,None,441.0004342030734,None,rent,441.0004342030734,None,return,2.090911010745913,441.08378525683656,None,,,,,,,,,,,,,,,,,,,,,,,,,,,,,,,,,,,,,,,74,001,2023_Apr_14_1825,SpeechDraft1Carolyn_lessNoise_PlusLocalization,2021.2.3,59.991945960564436,
broil.wav,broil.mpg,broil,6,AV,Pink_Noise_6_1.wav,Pink_Noise_6_2.wav,,,,,,,,,,,,,,,0,62,62,91,,,,,,,,,,,,,,,,,,,,,,,443.20045881485566,None,444.70092149684206,None,446.0836978298612,None,wood,446.0836978298612,None,return,2.399552194401622,446.1671700128354,None,,,,,,,,,,,,,,,,,,,,,,,,,,,,,,,,,,,,,,,74,001,2023_Apr_14_1825,SpeechDraft1Carolyn_lessNoise_PlusLocalization,2021.2.3,59.991945960564436,
brash.wav,brash.mpg,brash,2,A,Pink_Noise_2_1.wav,Pink_Noise_2_2.wav,,,,,,,,,,,,,,,0,63,63,2,,,,,,,,,,,,,,,,,,,,,,,448.58383546071127,None,450.0835015219636,None,451.46718278573826,None,brash,451.46718278573826,None,return,3.0882254438474774,451.5504702748731,None,,,,,,,,,,,,,,,,,,,,,,,,,,,,,,,,,,,,,,,74,001,2023_Apr_14_1825,SpeechDraft1Carolyn_lessNoise_PlusLocalization,2021.2.3,59.991945960564436,
break.wav,break.mpg,break,4,AV,Pink_Noise_4_1.wav,Pink_Noise_4_2.wav,,,,,,,,,,,,,,,0,64,64,102,,,,,,,,,,,,,,,,,,,,,,,454.66712139267474,None,456.16686993371695,None,457.55043849674985,None,break,457.55043849674985,None,return,1.3569316528737545,457.6338020269759,None,,,,,,,,,,,,,,,,,,,,,,,,,,,,,,,,,,,,,,,74,001,2023_Apr_14_1825,SpeechDraft1Carolyn_lessNoise_PlusLocalization,2021.2.3,59.991945960564436,
steam.wav,steam.mpg,steam,6,AV,Pink_Noise_6_1.wav,Pink_Noise_6_2.wav,,,,,,,,,,,,,,,0,65,65,112,,,,,,,,,,,,,,,,,,,,,,,459.0171725479886,None,460.5169649999589,None,461.9014428379014,None,steam,461.9014428379014,None,return,2.510771234985441,461.98385035665706,None,,,,,,,,,,,,,,,,,,,,,,,,,,,,,,,,,,,,,,,74,001,2023_Apr_14_1825,SpeechDraft1Carolyn_lessNoise_PlusLocalization,2021.2.3,59.991945960564436,
swamp.wav,swamp.mpg,swamp,5,A,Pink_Noise_5_1.wav,Pink_Noise_5_2.wav,,,,,,,,,,,,,,,0,66,66,51,,,,,,,,,,,,,,,,,,,,,,,464.51718681305647,None,466.01694624405354,None,467.4004774456844,None,wine,467.4004774456844,None,return,6.826738954987377,467.48390909889713,None,,,,,,,,,,,,,,,,,,,,,,,,,,,,,,,,,,,,,,,74,001,2023_Apr_14_1825,SpeechDraft1Carolyn_lessNoise_PlusLocalization,2021.2.3,59.991945960564436,
toy.wav,toy.mpg,toy,4,A,Pink_Noise_4_1.wav,Pink_Noise_4_2.wav,,,,,,,,,,,,,,,0,67,67,50,,,,,,,,,,,,,,,,,,,,,,,474.3338706227951,None,475.8334441189654,None,477.21715064393356,None,toy,477.21715064393356,None,return,4.306252385023981,477.30049788206816,None,,,,,,,,,,,,,,,,,,,,,,,,,,,,,,,,,,,,,,,74,001,2023_Apr_14_1825,SpeechDraft1Carolyn_lessNoise_PlusLocalization,2021.2.3,59.991945960564436,
draw.wav,draw.mpg,draw,6,AV,Pink_Noise_6_1.wav,Pink_Noise_6_2.wav,,,,,,,,,,,,,,,0,68,68,114,,,,,,,,,,,,,,,,,,,,,,,481.63391524972394,None,483.1335587888025,None,484.51715735392645,None,"draw
",484.51715735392645,None,return,0.9498929590918124,484.6007403009571,None,,,,,,,,,,,,,,,,,,,,,,,,,,,,,,,,,,,,,,,74,001,2023_Apr_14_1825,SpeechDraft1Carolyn_lessNoise_PlusLocalization,2021.2.3,59.991945960564436,
cheek.wav,cheek.mpg,cheek,1,AV,Pink_Noise_1_1.wav,Pink_Noise_1_2.wav,,,,,,,,,,,,,,,0,69,69,75,,,,,,,,,,,,,,,,,,,,,,,485.58376606786624,None,487.08364005666226,None,488.46713943686336,None,"cheek
",488.46713943686336,None,return,3.5840414757840335,488.55056903976947,None,,,,,,,,,,,,,,,,,,,,,,,,,,,,,,,,,,,,,,,74,001,2023_Apr_14_1825,SpeechDraft1Carolyn_lessNoise_PlusLocalization,2021.2.3,59.991945960564436,
catch.wav,catch.mpg,catch,1,A,Pink_Noise_1_1.wav,Pink_Noise_1_2.wav,,,,,,,,,,,,,,,0,70,70,31,,,,,,,,,,,,,,,,,,,,,,,492.1671971976757,None,493.66685567377135,None,495.0505793970078,None,catcj,495.0505793970078,None,return,2.09683483466506,495.13392832595855,None,,,,,,,,,,,,,,,,,,,,,,,,,,,,,,,,,,,,,,,74,001,2023_Apr_14_1825,SpeechDraft1Carolyn_lessNoise_PlusLocalization,2021.2.3,59.991945960564436,
bed.wav,bed.mpg,bed,6,AV,Pink_Noise_6_1.wav,Pink_Noise_6_2.wav,,,,,,,,,,,,,,,0,71,71,73,,,,,,,,,,,,,,,,,,,,,,,497.2504777838476,None,498.7505389046855,None,500.13385648466647,None,beg,500.13385648466647,None,return,4.1895315777510405,500.2172203268856,None,,,,,,,,,,,,,,,,,,,,,,,,,,,,,,,,,,,,,,,74,001,2023_Apr_14_1825,SpeechDraft1Carolyn_lessNoise_PlusLocalization,2021.2.3,59.991945960564436,
den.wav,den.mpg,den,6,AV,Pink_Noise_6_1.wav,Pink_Noise_6_2.wav,,,,,,,,,,,,,,,0,72,72,64,,,,,,,,,,,,,,,,,,,,,,,504.4338816567324,None,505.93605467909947,None,507.3172416309826,None,"denim
",507.3172416309826,None,return,2.5181090300902724,507.40052266186103,None,,,,,,,,,,,,,,,,,,,,,,,,,,,,,,,,,,,,,,,74,001,2023_Apr_14_1825,SpeechDraft1Carolyn_lessNoise_PlusLocalization,2021.2.3,59.991945960564436,
phase.wav,phase.mpg,phase,5,AV,Pink_Noise_5_1.wav,Pink_Noise_5_2.wav,,,,,,,,,,,,,,,0,73,73,62,,,,,,,,,,,,,,,,,,,,,,,509.950521918945,None,511.4670244930312,None,512.8506847796962,None,"faze
",512.8506847796962,None,return,4.75279485527426,512.9338305196725,None,,,,,,,,,,,,,,,,,,,,,,,,,,,,,,,,,,,,,,,74,001,2023_Apr_14_1825,SpeechDraft1Carolyn_lessNoise_PlusLocalization,2021.2.3,59.991945960564436,
forth.wav,forth.mpg,forth,5,A,Pink_Noise_5_1.wav,Pink_Noise_5_2.wav,,,,,,,,,,,,,,,0,74,74,1,,,,,,,,,,,,,,,,,,,,,,,517.7172457049601,None,519.2520040259697,None,520.6338709676638,None,toy,520.6338709676638,None,return,5.849489554297179,520.7172072888352,None,,,,,,,,,,,,,,,,,,,,,,,,,,,,,,,,,,,,,,,74,001,2023_Apr_14_1825,SpeechDraft1Carolyn_lessNoise_PlusLocalization,2021.2.3,59.991945960564436,
dock.wav,dock.mpg,dock,3,AV,Pink_Noise_3_1.wav,Pink_Noise_3_2.wav,,,,,,,,,,,,,,,0,75,75,101,,,,,,,,,,,,,,,,,,,,,,,526.5838005486876,None,528.0853553419001,None,529.4672677889466,None,dock,529.4672677889466,None,return,2.104078834876418,529.5505486959592,None,,,,,,,,,,,,,,,,,,,,,,,,,,,,,,,,,,,,,,,74,001,2023_Apr_14_1825,SpeechDraft1Carolyn_lessNoise_PlusLocalization,2021.2.3,59.991945960564436,
frail.wav,frail.mpg,frail,3,A,Pink_Noise_3_1.wav,Pink_Noise_3_2.wav,,,,,,,,,,,,,,,0,76,76,25,,,,,,,,,,,,,,,,,,,,,,,531.6839573257603,None,533.1835691267624,None,534.5673671527766,None,frail,534.5673671527766,None,return,4.611942777875811,534.6506809308194,None,,,,,,,,,,,,,,,,,,,,,,,,,,,,,,,,,,,,,,,74,001,2023_Apr_14_1825,SpeechDraft1Carolyn_lessNoise_PlusLocalization,2021.2.3,59.991945960564436,
clown.wav,clown.mpg,clown,3,AV,Pink_Noise_3_1.wav,Pink_Noise_3_2.wav,,,,,,,,,,,,,,,0,77,77,60,,,,,,,,,,,,,,,,,,,,,,,539.2839480629191,None,540.7836456298828,None,542.1671773097478,None,clown,542.1671773097478,None,return,3.1000663549639285,542.2506030458026,None,,,,,,,,,,,,,,,,,,,,,,,,,,,,,,,,,,,,,,,74,001,2023_Apr_14_1825,SpeechDraft1Carolyn_lessNoise_PlusLocalization,2021.2.3,59.991945960564436,
brick.wav,brick.mpg,brick,4,AV,Pink_Noise_4_1.wav,Pink_Noise_4_2.wav,,,,,,,,,,,,,,,0,78,78,117,,,,,,,,,,,,,,,,,,,,,,,545.3674879409373,None,546.8669119849801,None,548.2505696737207,None,brick,548.2505696737207,None,return,2.77668813476339,548.3339398107491,None,,,,,,,,,,,,,,,,,,,,,,,,,,,,,,,,,,,,,,,74,001,2023_Apr_14_1825,SpeechDraft1Carolyn_lessNoise_PlusLocalization,2021.2.3,59.991945960564436,
doll.wav,doll.mpg,doll,1,AV,Pink_Noise_1_1.wav,Pink_Noise_1_2.wav,,,,,,,,,,,,,,,0,79,79,66,,,,,,,,,,,,,,,,,,,,,,,551.1339470800012,None,552.635364708025,None,554.0172335379757,None,"doll
",554.0172335379757,None,return,1.370004165917635,554.1006099330261,None,,,,,,,,,,,,,,,,,,,,,,,,,,,,,,,,,,,,,,,74,001,2023_Apr_14_1825,SpeechDraft1Carolyn_lessNoise_PlusLocalization,2021.2.3,59.991945960564436,
film.wav,film.mpg,film,1,A,Pink_Noise_1_1.wav,Pink_Noise_1_2.wav,,,,,,,,,,,,,,,0,80,80,13,,,,,,,,,,,,,,,,,,,,,,,555.5006309077144,None,557.0003285300918,None,558.3839647499844,None,film,558.3839647499844,None,return,1.5235301279462874,558.4672506237403,None,,,,,,,,,,,,,,,,,,,,,,,,,,,,,,,,,,,,,,,74,001,2023_Apr_14_1825,SpeechDraft1Carolyn_lessNoise_PlusLocalization,2021.2.3,59.991945960564436,
flesh.wav,flesh.mpg,flesh,1,A,Pink_Noise_1_1.wav,Pink_Noise_1_2.wav,,,,,,,,,,,,,,,0,81,81,48,,,,,,,,,,,,,,,,,,,,,,,560.0173200257123,None,561.5337086147629,None,562.9008216951042,None,flesh,562.9008216951042,None,return,3.638522646855563,562.9841464241035,None,,,,,,,,,,,,,,,,,,,,,,,,,,,,,,,,,,,,,,,74,001,2023_Apr_14_1825,SpeechDraft1Carolyn_lessNoise_PlusLocalization,2021.2.3,59.991945960564436,
cross.wav,cross.mpg,cross,2,AV,Pink_Noise_2_1.wav,Pink_Noise_2_2.wav,,,,,,,,,,,,,,,0,82,82,74,,,,,,,,,,,,,,,,,,,,,,,566.6507711228915,None,568.1502201668918,None,569.5340344780125,None,cross,569.5340344780125,None,return,1.0451819198206067,569.6174517627805,None,,,,,,,,,,,,,,,,,,,,,,,,,,,,,,,,,,,,,,,74,001,2023_Apr_14_1825,SpeechDraft1Carolyn_lessNoise_PlusLocalization,2021.2.3,59.991945960564436,
crop.wav,crop.mpg,crop,3,AV,Pink_Noise_3_1.wav,Pink_Noise_3_2.wav,,,,,,,,,,,,,,,0,83,83,106,,,,,,,,,,,,,,,,,,,,,,,570.6839139140211,None,572.1854738369584,None,573.5672318376601,None,crop,573.5672318376601,None,return,0.9160779942758381,573.6506064068526,None,,,,,,,,,,,,,,,,,,,,,,,,,,,,,,,,,,,,,,,74,001,2023_Apr_14_1825,SpeechDraft1Carolyn_lessNoise_PlusLocalization,2021.2.3,59.991945960564436,
grace.wav,grace.mpg,grace,5,AV,Pink_Noise_5_1.wav,Pink_Noise_5_2.wav,,,,,,,,,,,,,,,0,84,84,96,,,,,,,,,,,,,,,,,,,,,,,574.5839575747959,None,576.0837952638976,None,577.4673741329461,None,grace,577.4673741329461,None,return,1.0960037051700056,577.5506452438422,None,,,,,,,,,,,,,,,,,,,,,,,,,,,,,,,,,,,,,,,74,001,2023_Apr_14_1825,SpeechDraft1Carolyn_lessNoise_PlusLocalization,2021.2.3,59.991945960564436,
lead.wav,lead.mpg,lead,6,AV,Pink_Noise_6_1.wav,Pink_Noise_6_2.wav,,,,,,,,,,,,,,,0,85,85,78,,,,,,,,,,,,,,,,,,,,,,,578.6673233187757,None,580.1841210089624,None,581.5672431280836,None,light,581.5672431280836,None,return,1.699981490150094,581.6506372517906,None,,,,,,,,,,,,,,,,,,,,,,,,,,,,,,,,,,,,,,,74,001,2023_Apr_14_1825,SpeechDraft1Carolyn_lessNoise_PlusLocalization,2021.2.3,59.991945960564436,
gab.wav,gab.mpg,gab,3,A,Pink_Noise_3_1.wav,Pink_Noise_3_2.wav,,,,,,,,,,,,,,,0,86,86,8,,,,,,,,,,,,,,,,,,,,,,,583.3674164409749,None,584.8670259607024,None,586.2506243097596,None,gale,586.2506243097596,None,return,4.888710541650653,586.3340183757246,None,,,,,,,,,,,,,,,,,,,,,,,,,,,,,,,,,,,,,,,74,001,2023_Apr_14_1825,SpeechDraft1Carolyn_lessNoise_PlusLocalization,2021.2.3,59.991945960564436,
crush.wav,crush.mpg,crush,4,AV,Pink_Noise_4_1.wav,Pink_Noise_4_2.wav,,,,,,,,,,,,,,,0,87,87,92,,,,,,,,,,,,,,,,,,,,,,,591.2506697219796,None,592.7670934889466,None,594.1506320480257,None,"crush
",594.1506320480257,None,return,2.4846294233575463,594.2339990907349,None,,,,,,,,,,,,,,,,,,,,,,,,,,,,,,,,,,,,,,,74,001,2023_Apr_14_1825,SpeechDraft1Carolyn_lessNoise_PlusLocalization,2021.2.3,59.991945960564436,
gloom.wav,gloom.mpg,gloom,2,AV,Pink_Noise_2_1.wav,Pink_Noise_2_2.wav,,,,,,,,,,,,,,,0,88,88,67,,,,,,,,,,,,,,,,,,,,,,,596.7507063760422,None,598.2502692318521,None,599.6339993099682,None,"gloom
",599.6339993099682,None,return,1.2173249456100166,599.7173182568513,None,,,,,,,,,,,,,,,,,,,,,,,,,,,,,,,,,,,,,,,74,001,2023_Apr_14_1825,SpeechDraft1Carolyn_lessNoise_PlusLocalization,2021.2.3,59.991945960564436,
game.wav,game.mpg,game,2,AV,Pink_Noise_2_1.wav,Pink_Noise_2_2.wav,,,,,,,,,,,,,,,0,89,89,110,,,,,,,,,,,,,,,,,,,,,,,600.9673674660735,None,602.4670775900595,None,603.8506639539264,None,game,603.8506639539264,None,return,1.2166247330605984,603.9340168749914,None,,,,,,,,,,,,,,,,,,,,,,,,,,,,,,,,,,,,,,,74,001,2023_Apr_14_1825,SpeechDraft1Carolyn_lessNoise_PlusLocalization,2021.2.3,59.991945960564436,
gray.wav,gray.mpg,gray,4,AV,Pink_Noise_4_1.wav,Pink_Noise_4_2.wav,,,,,,,,,,,,,,,0,90,90,93,,,,,,,,,,,,,,,,,,,,,,,605.1673092879355,None,606.6669585937634,None,608.0506416526623,None,drain,608.0506416526623,None,return,28.85645842226222,608.1342009850778,None,,,,,,,,,,,,,,,,,,,,,,,,,,,,,,,,,,,,,,,74,001,2023_Apr_14_1825,SpeechDraft1Carolyn_lessNoise_PlusLocalization,2021.2.3,59.991945960564436,
bomb.wav,bomb.mpg,bomb,6,AV,Pink_Noise_6_1.wav,Pink_Noise_6_2.wav,,,,,,,,,,,,,,,0,91,91,76,,,,,,,,,,,,,,,,,,,,,,,637.0173631738871,None,638.5172939216718,None,639.9006382380612,None,mom,639.9006382380612,None,return,1.4227511999197304,639.9839920080267,None,,,,,,,,,,,,,,,,,,,,,,,,,,,,,,,,,,,,,,,74,001,2023_Apr_14_1825,SpeechDraft1Carolyn_lessNoise_PlusLocalization,2021.2.3,59.991945960564436,
gut.wav,gut.mpg,gut,6,A,Pink_Noise_6_1.wav,Pink_Noise_6_2.wav,,,,,,,,,,,,,,,0,92,92,37,,,,,,,,,,,,,,,,,,,,,,,641.4341035080142,None,642.933709776029,None,644.3174076229334,None,not,644.3174076229334,None,return,5.04585684183985,644.4007762838155,None,,,,,,,,,,,,,,,,,,,,,,,,,,,,,,,,,,,,,,,74,001,2023_Apr_14_1825,SpeechDraft1Carolyn_lessNoise_PlusLocalization,2021.2.3,59.991945960564436,
dig.wav,dig.mpg,dig,5,AV,Pink_Noise_5_1.wav,Pink_Noise_5_2.wav,,,,,,,,,,,,,,,0,93,93,83,,,,,,,,,,,,,,,,,,,,,,,649.4673369037919,None,650.9671704289503,None,652.3507046410814,None,did,652.3507046410814,None,return,2.748495063278824,652.4341874388047,None,,,,,,,,,,,,,,,,,,,,,,,,,,,,,,,,,,,,,,,74,001,2023_Apr_14_1825,SpeechDraft1Carolyn_lessNoise_PlusLocalization,2021.2.3,59.991945960564436,
else.wav,else.mpg,else,2,AV,Pink_Noise_2_1.wav,Pink_Noise_2_2.wav,,,,,,,,,,,,,,,0,94,94,86,,,,,,,,,,,,,,,,,,,,,,,655.2007396388799,None,656.7004246907309,None,658.0839899019338,None,else,658.0839899019338,None,return,1.9912330019287765,658.1675138929859,None,,,,,,,,,,,,,,,,,,,,,,,,,,,,,,,,,,,,,,,74,001,2023_Apr_14_1825,SpeechDraft1Carolyn_lessNoise_PlusLocalization,2021.2.3,59.991945960564436,
glide.wav,glide.mpg,glide,1,A,Pink_Noise_1_1.wav,Pink_Noise_1_2.wav,,,,,,,,,,,,,,,0,95,95,28,,,,,,,,,,,,,,,,,,,,,,,660.18419557577,None,661.7005190718919,None,663.0841990360059,None,glide,663.0841990360059,None,return,2.399259991943836,663.167408212088,None,,,,,,,,,,,,,,,,,,,,,,,,,,,,,,,,,,,,,,,74,001,2023_Apr_14_1825,SpeechDraft1Carolyn_lessNoise_PlusLocalization,2021.2.3,59.991945960564436,
drink.wav,drink.mpg,drink,6,A,Pink_Noise_6_1.wav,Pink_Noise_6_2.wav,,,,,,,,,,,,,,,0,96,96,18,,,,,,,,,,,,,,,,,,,,,,,665.5841019437648,None,667.0837359507568,None,668.4674045760185,None,ditcj,668.4674045760185,None,return,5.631865751929581,668.5508653749712,None,,,,,,,,,,,,,,,,,,,,,,,,,,,,,,,,,,,,,,,74,001,2023_Apr_14_1825,SpeechDraft1Carolyn_lessNoise_PlusLocalization,2021.2.3,59.991945960564436,
bread.wav,bread.mpg,bread,4,A,Pink_Noise_4_1.wav,Pink_Noise_4_2.wav,,,,,,,,,,,,,,,0,97,97,55,,,,,,,,,,,,,,,,,,,,,,,674.4005844937637,None,675.7337904488668,None,677.1175317778252,None,bread,677.1175317778252,None,return,4.877845601178706,677.2007774687372,None,,,,,,,,,,,,,,,,,,,,,,,,,,,,,,,,,,,,,,,74,001,2023_Apr_14_1825,SpeechDraft1Carolyn_lessNoise_PlusLocalization,2021.2.3,59.991945960564436,
cliff.wav,cliff.mpg,cliff,5,AV,Pink_Noise_5_1.wav,Pink_Noise_5_2.wav,,,,,,,,,,,,,,,0,98,98,108,,,,,,,,,,,,,,,,,,,,,,,682.1008741906844,None,683.617146900855,None,684.9840727830306,None,cliff,684.9840727830306,None,return,2.1312067001126707,685.0674187238328,None,,,,,,,,,,,,,,,,,,,,,,,,,,,,,,,,,,,,,,,74,001,2023_Apr_14_1825,SpeechDraft1Carolyn_lessNoise_PlusLocalization,2021.2.3,59.991945960564436,
eat.wav,eat.mpg,eat,6,AV,Pink_Noise_6_1.wav,Pink_Noise_6_2.wav,,,,,,,,,,,,,,,0,99,99,87,,,,,,,,,,,,,,,,,,,,,,,687.2174370856956,None,688.7171940817498,None,690.1008170447312,None,"eat
",690.1008170447312,None,return,1.150535321328789,690.1841054079123,None,,,,,,,,,,,,,,,,,,,,,,,,,,,,,,,,,,,,,,,74,001,2023_Apr_14_1825,SpeechDraft1Carolyn_lessNoise_PlusLocalization,2021.2.3,59.991945960564436,
gift.wav,gift.mpg,gift,3,A,Pink_Noise_3_1.wav,Pink_Noise_3_2.wav,,,,,,,,,,,,,,,0,100,100,45,,,,,,,,,,,,,,,,,,,,,,,691.3676035730168,None,692.8838187619112,None,694.2676506438293,None,gift,694.2676506438293,None,return,2.0718914377503097,694.350796286948,None,,,,,,,,,,,,,,,,,,,,,,,,,,,,,,,,,,,,,,,74,001,2023_Apr_14_1825,SpeechDraft1Carolyn_lessNoise_PlusLocalization,2021.2.3,59.991945960564436,
script.wav,script.mpg,script,5,A,Pink_Noise_5_1.wav,Pink_Noise_5_2.wav,,,,,,,,,,,,,,,0,101,101,58,,,,,,,,,,,,,,,,,,,,,,,696.4508083458059,None,697.9505718769506,None,699.3341151517816,None,sift,699.3341151517816,None,return,4.349155180156231,699.4175335168839,None,,,,,,,,,,,,,,,,,,,,,,,,,,,,,,,,,,,,,,,74,001,2023_Apr_14_1825,SpeechDraft1Carolyn_lessNoise_PlusLocalization,2021.2.3,59.991945960564436,
grain.wav,grain.mpg,grain,4,AV,Pink_Noise_4_1.wav,Pink_Noise_4_2.wav,,,,,,,,,,,,,,,0,102,102,118,,,,,,,,,,,,,,,,,,,,,,,703.7841053321026,None,705.3004291439429,None,706.6841487977654,None,rain,706.6841487977654,None,return,1.2231669020839036,706.7675430630334,None,,,,,,,,,,,,,,,,,,,,,,,,,,,,,,,,,,,,,,,74,001,2023_Apr_14_1825,SpeechDraft1Carolyn_lessNoise_PlusLocalization,2021.2.3,59.991945960564436,
globe.wav,globe.mpg,globe,2,A,Pink_Noise_2_1.wav,Pink_Noise_2_2.wav,,,,,,,,,,,,,,,0,103,103,27,,,,,,,,,,,,,,,,,,,,,,,708.0174904200248,None,709.5173046598211,None,710.9008386270143,None,glow,710.9008386270143,None,return,1.8225940600968897,710.9841447006911,None,,,,,,,,,,,,,,,,,,,,,,,,,,,,,,,,,,,,,,,74,001,2023_Apr_14_1825,SpeechDraft1Carolyn_lessNoise_PlusLocalization,2021.2.3,59.991945960564436,
cell.wav,cell.mpg,cell,5,AV,Pink_Noise_5_1.wav,Pink_Noise_5_2.wav,,,,,,,,,,,,,,,0,104,104,90,,,,,,,,,,,,,,,,,,,,,,,712.8342031938955,None,714.3339047939517,None,715.717450090684,None,"sell
",715.717450090684,None,return,2.28568104095757,715.8009533369914,None,,,,,,,,,,,,,,,,,,,,,,,,,,,,,,,,,,,,,,,74,001,2023_Apr_14_1825,SpeechDraft1Carolyn_lessNoise_PlusLocalization,2021.2.3,59.991945960564436,
foul.wav,foul.mpg,foul,1,A,Pink_Noise_1_1.wav,Pink_Noise_1_2.wav,,,,,,,,,,,,,,,0,105,105,11,,,,,,,,,,,,,,,,,,,,,,,718.1174730719067,None,719.6171713126823,None,721.000835034065,None,foul,721.000835034065,None,return,2.1304006492719054,721.0843305680901,None,,,,,,,,,,,,,,,,,,,,,,,,,,,,,,,,,,,,,,,74,001,2023_Apr_14_1825,SpeechDraft1Carolyn_lessNoise_PlusLocalization,2021.2.3,59.991945960564436,
cute.wav,cute.mpg,cute,5,AV,Pink_Noise_5_1.wav,Pink_Noise_5_2.wav,,,,,,,,,,,,,,,0,106,106,81,,,,,,,,,,,,,,,,,,,,,,,723.2341574407183,None,724.7349453698844,None,726.1174592496827,None,"cute
",726.1174592496827,None,return,2.3018309641629457,726.2007906818762,None,,,,,,,,,,,,,,,,,,,,,,,,,,,,,,,,,,,,,,,74,001,2023_Apr_14_1825,SpeechDraft1Carolyn_lessNoise_PlusLocalization,2021.2.3,59.991945960564436,
giant.wav,giant.mpg,giant,2,A,Pink_Noise_2_1.wav,Pink_Noise_2_2.wav,,,,,,,,,,,,,,,0,107,107,12,,,,,,,,,,,,,,,,,,,,,,,728.534173371736,None,730.0351900150999,None,731.4175612488762,None,"giant
",731.4175612488762,None,return,3.6337545020505786,731.5008752439171,None,,,,,,,,,,,,,,,,,,,,,,,,,,,,,,,,,,,,,,,74,001,2023_Apr_14_1825,SpeechDraft1Carolyn_lessNoise_PlusLocalization,2021.2.3,59.991945960564436,
cuff.wav,cuff.mpg,cuff,1,A,Pink_Noise_1_1.wav,Pink_Noise_1_2.wav,,,,,,,,,,,,,,,0,108,108,32,,,,,,,,,,,,,,,,,,,,,,,735.1676747370511,None,736.6838487070054,None,738.0675276410766,None,cuff,738.0675276410766,None,return,2.255895226728171,738.1508851498365,None,,,,,,,,,,,,,,,,,,,,,,,,,,,,,,,,,,,,,,,74,001,2023_Apr_14_1825,SpeechDraft1Carolyn_lessNoise_PlusLocalization,2021.2.3,59.991945960564436,
dump.wav,dump.mpg,dump,5,AV,Pink_Noise_5_1.wav,Pink_Noise_5_2.wav,,,,,,,,,,,,,,,0,109,109,103,,,,,,,,,,,,,,,,,,,,,,,740.4341984908096,None,741.9357285238802,None,743.31759584276,None,dumb,743.31759584276,None,return,5.357711433898658,743.4009034857154,None,,,,,,,,,,,,,,,,,,,,,,,,,,,,,,,,,,,,,,,74,001,2023_Apr_14_1825,SpeechDraft1Carolyn_lessNoise_PlusLocalization,2021.2.3,59.991945960564436,
clog.wav,clog.mpg,clog,5,AV,Pink_Noise_5_1.wav,Pink_Noise_5_2.wav,,,,,,,,,,,,,,,0,110,110,84,,,,,,,,,,,,,,,,,,,,,,,748.784240914043,None,750.3016951456666,None,751.6841835607775,None,collide,751.6841835607775,None,return,7.063189177773893,751.7675848910585,None,,,,,,,,,,,,,,,,,,,,,,,,,,,,,,,,,,,,,,,74,001,2023_Apr_14_1825,SpeechDraft1Carolyn_lessNoise_PlusLocalization,2021.2.3,59.991945960564436,
buff.wav,buff.mpg,buff,5,A,Pink_Noise_5_1.wav,Pink_Noise_5_2.wav,,,,,,,,,,,,,,,0,111,111,44,,,,,,,,,,,,,,,,,,,,,,,758.8509837179445,None,760.3839878817089,None,761.7674513878301,None,"fine
",761.7674513878301,None,return,12.483473375905305,761.8511351509951,None,,,,,,,,,,,,,,,,,,,,,,,,,,,,,,,,,,,,,,,74,001,2023_Apr_14_1825,SpeechDraft1Carolyn_lessNoise_PlusLocalization,2021.2.3,59.991945960564436,
wild.wav,wild.mpg,wild,3,AV,Pink_Noise_3_1.wav,Pink_Noise_3_2.wav,,,,,,,,,,,,,,,0,112,112,65,,,,,,,,,,,,,,,,,,,,,,,774.3675635126419,None,775.8839087430388,None,777.2676662476733,None,wild,777.2676662476733,None,return,1.287698999978602,777.3509297547862,None,,,,,,,,,,,,,,,,,,,,,,,,,,,,,,,,,,,,,,,74,001,2023_Apr_14_1825,SpeechDraft1Carolyn_lessNoise_PlusLocalization,2021.2.3,59.991945960564436,
count.wav,count.mpg,count,2,AV,Pink_Noise_2_1.wav,Pink_Noise_2_2.wav,,,,,,,,,,,,,,,0,113,113,82,,,,,,,,,,,,,,,,,,,,,,,778.6675333990715,None,780.1841201279312,None,781.5675406940281,None,count,781.5675406940281,None,return,1.3717663581483066,781.6509334999137,None,,,,,,,,,,,,,,,,,,,,,,,,,,,,,,,,,,,,,,,74,001,2023_Apr_14_1825,SpeechDraft1Carolyn_lessNoise_PlusLocalization,2021.2.3,59.991945960564436,
fail.wav,fail.mpg,fail,6,AV,Pink_Noise_6_1.wav,Pink_Noise_6_2.wav,,,,,,,,,,,,,,,0,114,114,116,,,,,,,,,,,,,,,,,,,,,,,783.0509328409098,None,784.5673430999741,None,785.9509379346855,None,fail,785.9509379346855,None,return,1.2763220882043242,786.034357921686,None,,,,,,,,,,,,,,,,,,,,,,,,,,,,,,,,,,,,,,,74,001,2023_Apr_14_1825,SpeechDraft1Carolyn_lessNoise_PlusLocalization,2021.2.3,59.991945960564436,
chase.wav,chase.mpg,chase,6,A,Pink_Noise_6_1.wav,Pink_Noise_6_2.wav,,,,,,,,,,,,,,,0,115,115,9,,,,,,,,,,,,,,,,,,,,,,,787.3342635030858,None,788.8340030927211,None,790.2176095978357,None,"gist
",790.2176095978357,None,return,4.16969042411074,790.3009513877332,None,,,,,,,,,,,,,,,,,,,,,,,,,,,,,,,,,,,,,,,74,001,2023_Apr_14_1825,SpeechDraft1Carolyn_lessNoise_PlusLocalization,2021.2.3,59.991945960564436,
folk.wav,folk.mpg,folk,5,AV,Pink_Noise_5_1.wav,Pink_Noise_5_2.wav,,,,,,,,,,,,,,,0,116,116,69,,,,,,,,,,,,,,,,,,,,,,,794.5176838189363,None,796.0174340400845,None,797.4008904658258,None,folk,797.4008904658258,None,return,2.698389771860093,797.4843284529634,None,,,,,,,,,,,,,,,,,,,,,,,,,,,,,,,,,,,,,,,74,001,2023_Apr_14_1825,SpeechDraft1Carolyn_lessNoise_PlusLocalization,2021.2.3,59.991945960564436,
thorn.wav,thorn.mpg,thorn,1,AV,Pink_Noise_1_1.wav,Pink_Noise_1_2.wav,,,,,,,,,,,,,,,0,117,117,61,,,,,,,,,,,,,,,,,,,,,,,800.2009582989849,None,801.7175253028981,None,803.1010943558067,None,thorn,803.1010943558067,None,return,3.6304038972593844,803.184289295692,None,,,,,,,,,,,,,,,,,,,,,,,,,,,,,,,,,,,,,,,74,001,2023_Apr_14_1825,SpeechDraft1Carolyn_lessNoise_PlusLocalization,2021.2.3,59.991945960564436,
cloth.wav,cloth.mpg,cloth,3,A,Pink_Noise_3_1.wav,Pink_Noise_3_2.wav,,,,,,,,,,,,,,,0,118,118,5,,,,,,,,,,,,,,,,,,,,,,,806.8345207157545,None,808.3673067409545,None,809.750965111889,None,"claw
",809.750965111889,None,return,2.252317094244063,809.8343248898163,None,,,,,,,,,,,,,,,,,,,,,,,,,,,,,,,,,,,,,,,74,001,2023_Apr_14_1825,SpeechDraft1Carolyn_lessNoise_PlusLocalization,2021.2.3,59.991945960564436,
bathe.wav,bathe.mpg,bathe,2,A,Pink_Noise_2_1.wav,Pink_Noise_2_2.wav,,,,,,,,,,,,,,,0,119,119,30,,,,,,,,,,,,,,,,,,,,,,,812.117641821038,None,813.6340313460678,None,815.0176219940186,None,"bathe
",815.0176219940186,None,return,4.001639911904931,815.1009909766726,None,,,,,,,,,,,,,,,,,,,,,,,,,,,,,,,,,,,,,,,74,001,2023_Apr_14_1825,SpeechDraft1Carolyn_lessNoise_PlusLocalization,2021.2.3,59.991945960564436,
,,,,,,,,,,,,,,,,,,,,,,,,,,,,,,,,,,,,,,,,,,,,,,,,,,,,,,,,,,,,,,,,,,space,11.916281091049314,819.2344335857779,None,,,,,,,,,,,,,,,,,,,,,,,,,,,,,74,001,2023_Apr_14_1825,SpeechDraft1Carolyn_lessNoise_PlusLocalization,2021.2.3,59.991945960564436,
,,,,,,,,midRight,13.0,3,ch1Sound_localizationTask.wav,13.0,"(1142, 878)","(182, -202)",190,-338,,,,,,,,,0,0,0,5,,,,,,,,,,,,,,,,,,,,,,,,,,,,,,,,,,,,,,,,,,819.2344335857779,None,831.1841867328621,None,832.2839615656994,None,833.2174335839227,None,1.301058201058201,3.3525902410037816,833.2174335839227,None,,,,,,,,,,,,,,,,,74,001,2023_Apr_14_1825,SpeechDraft1Carolyn_lessNoise_PlusLocalization,2021.2.3,59.991945960564436,
,,,,,,,,midRight,13.0,3,ch1Sound_localizationTask.wav,13.0,"(1142, 878)","(182, -202)",190,-338,,,,,,,,,0,1,1,5,,,,,,,,,,,,,,,,,,,,,,,,,,,,,,,,,,,,,,,,,,,,836.5683202478103,None,837.667460992001,None,838.6009413320571,None,1.6465608465608466,1.5662227389402688,838.6009413320571,None,,,,,,,,,,,,,,,,,74,001,2023_Apr_14_1825,SpeechDraft1Carolyn_lessNoise_PlusLocalization,2021.2.3,59.991945960564436,
,,,,,,,,farLeft,-19.1,5,ch1Sound_localizationTask.wav,-19.1,"(667, 878)","(-293,-202)",-285,-338,,,,,,,,,0,2,2,0,,,,,,,,,,,,,,,,,,,,,,,,,,,,,,,,,,,,,,,,,,,,840.1676867906936,None,841.2674188860692,None,842.2009047209285,None,1.1925925925925926,1.08286577090621,842.2009047209285,None,,,,,,,,,,,,,,,,,74,001,2023_Apr_14_1825,SpeechDraft1Carolyn_lessNoise_PlusLocalization,2021.2.3,59.991945960564436,
,,,,,,,,center,0.0,6,ch1Sound_localizationTask.wav,0.0,"(952, 878)","(-8,-202)",0,-338,,,,,,,,,0,3,3,3,,,,,,,,,,,,,,,,,,,,,,,,,,,,,,,,,,,,,,,,,,,,843.2843511188403,None,844.3840438900515,None,845.3174236970954,None,1.4804232804232804,1.2328417981043458,845.3174236970954,None,,,,,,,,,,,,,,,,,74,001,2023_Apr_14_1825,SpeechDraft1Carolyn_lessNoise_PlusLocalization,2021.2.3,59.991945960564436,
,,,,,,,,nearLeft,-6.5,1,ch1Sound_localizationTask.wav,-6.5,"(857, 878)","(-103,-202)",-95,-338,,,,,,,,,0,4,4,2,,,,,,,,,,,,,,,,,,,,,,,,,,,,,,,,,,,,,,,,,,,,846.5511679300107,None,847.6508537386544,None,848.5841586817987,None,1.3888888888888888,0.5829855320043862,848.5841586817987,None,,,,,,,,,,,,,,,,,74,001,2023_Apr_14_1825,SpeechDraft1Carolyn_lessNoise_PlusLocalization,2021.2.3,59.991945960564436,
,,,,,,,,midRight,13.0,3,ch1Sound_localizationTask.wav,13.0,"(1142, 878)","(182, -202)",190,-338,,,,,,,,,0,5,5,5,,,,,,,,,,,,,,,,,,,,,,,,,,,,,,,,,,,,,,,,,,,,849.1681466610171,None,850.2674609548412,None,851.2008208790794,None,1.6507936507936507,0.6685936544090509,851.2008208790794,None,,,,,,,,,,,,,,,,,74,001,2023_Apr_14_1825,SpeechDraft1Carolyn_lessNoise_PlusLocalization,2021.2.3,59.991945960564436,
,,,,,,,,farRight,19.1,4,ch1Sound_localizationTask.wav,19.1,"(1237, 878)","(277,-202)",285,-338,,,,,,,,,0,6,6,6,,,,,,,,,,,,,,,,,,,,,,,,,,,,,,,,,,,,,,,,,,,,851.8852067538537,None,852.9841686207801,None,853.9173251218162,None,1.7433862433862433,0.6663451408967376,853.9173251218162,None,,,,,,,,,,,,,,,,,74,001,2023_Apr_14_1825,SpeechDraft1Carolyn_lessNoise_PlusLocalization,2021.2.3,59.991945960564436,
,,,,,,,,farRight,19.1,4,ch1Sound_localizationTask.wav,19.1,"(1237, 878)","(277,-202)",285,-338,,,,,,,,,1,0,7,6,,,,,,,,,,,,,,,,,,,,,,,,,,,,,,,,,,,,,,,,,,,,854.5844525010325,None,855.6840490116738,None,856.6174162458628,None,1.7492063492063492,0.44913851702585816,856.6174162458628,None,,,,,,,,,,,,,,,,,74,001,2023_Apr_14_1825,SpeechDraft1Carolyn_lessNoise_PlusLocalization,2021.2.3,59.991945960564436,
,,,,,,,,nearRight,6.5,0,ch1Sound_localizationTask.wav,6.5,"(1047, 878)","(87, -202)",95,-338,,,,,,,,,1,1,8,4,,,,,,,,,,,,,,,,,,,,,,,,,,,,,,,,,,,,,,,,,,,,857.0676669660024,None,858.1674298457801,None,859.1007377100177,None,1.596825396825397,0.7495683049783111,859.1007377100177,None,,,,,,,,,,,,,,,,,74,001,2023_Apr_14_1825,SpeechDraft1Carolyn_lessNoise_PlusLocalization,2021.2.3,59.991945960564436,
,,,,,,,,midRight,13.0,3,ch1Sound_localizationTask.wav,13.0,"(1142, 878)","(182, -202)",190,-338,,,,,,,,,1,2,9,5,,,,,,,,,,,,,,,,,,,,,,,,,,,,,,,,,,,,,,,,,,,,859.8509751786478,None,860.9506575278938,None,861.8839558428153,None,1.6476190476190475,0.41555595211684704,861.8839558428153,None,,,,,,,,,,,,,,,,,74,001,2023_Apr_14_1825,SpeechDraft1Carolyn_lessNoise_PlusLocalization,2021.2.3,59.991945960564436,
,,,,,,,,midLeft,-13.0,2,ch1Sound_localizationTask.wav,-13.0,"(762, 878)","(-198,-202)",-190,-338,,,,,,,,,1,3,10,1,,,,,,,,,,,,,,,,,,,,,,,,,,,,,,,,,,,,,,,,,,,,862.301060652826,None,863.4006404858083,None,864.334310725797,None,1.2465608465608464,0.7329899240285158,864.334310725797,None,,,,,,,,,,,,,,,,,74,001,2023_Apr_14_1825,SpeechDraft1Carolyn_lessNoise_PlusLocalization,2021.2.3,59.991945960564436,
,,,,,,,,nearRight,6.5,0,ch1Sound_localizationTask.wav,6.5,"(1047, 878)","(87, -202)",95,-338,,,,,,,,,1,4,11,4,,,,,,,,,,,,,,,,,,,,,,,,,,,,,,,,,,,,,,,,,,,,865.0678416187875,None,866.1674105799757,None,867.100706813857,None,1.5788359788359787,0.9165481561794877,867.100706813857,None,,,,,,,,,,,,,,,,,74,001,2023_Apr_14_1825,SpeechDraft1Carolyn_lessNoise_PlusLocalization,2021.2.3,59.991945960564436,
,,,,,,,,center,0.0,6,ch1Sound_localizationTask.wav,0.0,"(952, 878)","(-8,-202)",0,-338,,,,,,,,,1,5,12,3,,,,,,,,,,,,,,,,,,,,,,,,,,,,,,,,,,,,,,,,,,,,868.0176841639914,None,869.117416205816,None,870.0506631210446,None,1.4835978835978836,0.549298208206892,870.0506631210446,None,,,,,,,,,,,,,,,,,74,001,2023_Apr_14_1825,SpeechDraft1Carolyn_lessNoise_PlusLocalization,2021.2.3,59.991945960564436,
,,,,,,,,nearLeft,-6.5,1,ch1Sound_localizationTask.wav,-6.5,"(857, 878)","(-103,-202)",-95,-338,,,,,,,,,1,6,13,2,,,,,,,,,,,,,,,,,,,,,,,,,,,,,,,,,,,,,,,,,,,,870.6010098778643,None,871.7007104707882,None,872.6341858329251,None,1.428042328042328,0.49937641993165016,872.6341858329251,None,,,,,,,,,,,,,,,,,74,001,2023_Apr_14_1825,SpeechDraft1Carolyn_lessNoise_PlusLocalization,2021.2.3,59.991945960564436,
,,,,,,,,midLeft,-13.0,2,ch1Sound_localizationTask.wav,-13.0,"(762, 878)","(-198,-202)",-190,-338,,,,,,,,,2,0,14,1,,,,,,,,,,,,,,,,,,,,,,,,,,,,,,,,,,,,,,,,,,,,873.1343648447655,None,874.2341137710027,None,875.1676252447069,None,1.2809523809523808,0.5838796058669686,875.1676252447069,None,,,,,,,,,,,,,,,,,74,001,2023_Apr_14_1825,SpeechDraft1Carolyn_lessNoise_PlusLocalization,2021.2.3,59.991945960564436,
,,,,,,,,center,0.0,6,ch1Sound_localizationTask.wav,0.0,"(952, 878)","(-8,-202)",0,-338,,,,,,,,,2,1,15,3,,,,,,,,,,,,,,,,,,,,,,,,,,,,,,,,,,,,,,,,,,,,875.7679233509116,None,876.8673859578557,None,877.8008510079235,None,1.5142857142857142,0.649349323939532,877.8008510079235,None,,,,,,,,,,,,,,,,,74,001,2023_Apr_14_1825,SpeechDraft1Carolyn_lessNoise_PlusLocalization,2021.2.3,59.991945960564436,
,,,,,,,,farLeft,-19.1,5,ch1Sound_localizationTask.wav,-19.1,"(667, 878)","(-293,-202)",-285,-338,,,,,,,,,2,2,16,0,,,,,,,,,,,,,,,,,,,,,,,,,,,,,,,,,,,,,,,,,,,,878.4510472668335,None,879.5508251367137,None,880.4840085599571,None,1.1724867724867725,0.5996423554606736,880.4840085599571,None,,,,,,,,,,,,,,,,,74,001,2023_Apr_14_1825,SpeechDraft1Carolyn_lessNoise_PlusLocalization,2021.2.3,59.991945960564436,
,,,,,,,,nearLeft,-6.5,1,ch1Sound_localizationTask.wav,-6.5,"(857, 878)","(-103,-202)",-95,-338,,,,,,,,,2,3,17,2,,,,,,,,,,,,,,,,,,,,,,,,,,,,,,,,,,,,,,,,,,,,881.0844278526492,None,882.1840480477549,None,883.1173505927436,None,1.4312169312169312,0.866274680942297,883.1173505927436,None,,,,,,,,,,,,,,,,,74,001,2023_Apr_14_1825,SpeechDraft1Carolyn_lessNoise_PlusLocalization,2021.2.3,59.991945960564436,
,,,,,,,,nearLeft,-6.5,1,ch1Sound_localizationTask.wav,-6.5,"(857, 878)","(-103,-202)",-95,-338,,,,,,,,,2,4,18,2,,,,,,,,,,,,,,,,,,,,,,,,,,,,,,,,,,,,,,,,,,,,883.9858645908535,None,885.1008837646805,None,886.0175636047497,None,1.4328042328042327,0.4165706648491323,886.0175636047497,None,,,,,,,,,,,,,,,,,74,001,2023_Apr_14_1825,SpeechDraft1Carolyn_lessNoise_PlusLocalization,2021.2.3,59.991945960564436,
,,,,,,,,farLeft,-19.1,5,ch1Sound_localizationTask.wav,-19.1,"(667, 878)","(-293,-202)",-285,-338,,,,,,,,,2,5,19,0,,,,,,,,,,,,,,,,,,,,,,,,,,,,,,,,,,,,,,,,,,,,886.4345470699482,None,887.5338839697652,None,888.467655589804,None,1.2746031746031745,0.5828960542567074,888.467655589804,None,,,,,,,,,,,,,,,,,74,001,2023_Apr_14_1825,SpeechDraft1Carolyn_lessNoise_PlusLocalization,2021.2.3,59.991945960564436,
,,,,,,,,nearRight,6.5,0,ch1Sound_localizationTask.wav,6.5,"(1047, 878)","(87, -202)",95,-338,,,,,,,,,2,6,20,4,,,,,,,,,,,,,,,,,,,,,,,,,,,,,,,,,,,,,,,,,,,,889.0514620309696,None,890.1507287938148,None,891.084017816931,None,1.5867724867724866,0.6652755010873079,891.084017816931,None,,,,,,,,,,,,,,,,,74,001,2023_Apr_14_1825,SpeechDraft1Carolyn_lessNoise_PlusLocalization,2021.2.3,59.991945960564436,
,,,,,,,,midLeft,-13.0,2,ch1Sound_localizationTask.wav,-13.0,"(762, 878)","(-198,-202)",-190,-338,,,,,,,,,3,0,21,1,,,,,,,,,,,,,,,,,,,,,,,,,,,,,,,,,,,,,,,,,,,,891.7511366428807,None,892.8510266980156,None,893.784127891995,None,1.2767195767195767,0.5153051759116352,893.784127891995,None,,,,,,,,,,,,,,,,,74,001,2023_Apr_14_1825,SpeechDraft1Carolyn_lessNoise_PlusLocalization,2021.2.3,59.991945960564436,
,,,,,,,,nearRight,6.5,0,ch1Sound_localizationTask.wav,6.5,"(1047, 878)","(87, -202)",95,-338,,,,,,,,,3,1,22,4,,,,,,,,,,,,,,,,,,,,,,,,,,,,,,,,,,,,,,,,,,,,894.3010372780263,None,895.400931101758,None,896.3340706620365,None,1.6068783068783068,0.9829468908719718,896.3340706620365,None,,,,,,,,,,,,,,,,,74,001,2023_Apr_14_1825,SpeechDraft1Carolyn_lessNoise_PlusLocalization,2021.2.3,59.991945960564436,
,,,,,,,,nearRight,6.5,0,ch1Sound_localizationTask.wav,6.5,"(1047, 878)","(87, -202)",95,-338,,,,,,,,,3,2,23,4,,,,,,,,,,,,,,,,,,,,,,,,,,,,,,,,,,,,,,,,,,,,897.3178766816854,None,898.4173654308543,None,899.3507302496582,None,1.596825396825397,0.39855034090578556,899.3507302496582,None,,,,,,,,,,,,,,,,,74,001,2023_Apr_14_1825,SpeechDraft1Carolyn_lessNoise_PlusLocalization,2021.2.3,59.991945960564436,
,,,,,,,,nearRight,6.5,0,ch1Sound_localizationTask.wav,6.5,"(1047, 878)","(87, -202)",95,-338,,,,,,,,,3,3,24,4,,,,,,,,,,,,,,,,,,,,,,,,,,,,,,,,,,,,,,,,,,,,899.7510731020011,None,900.850836772006,None,901.7842850130983,None,1.5751322751322752,0.36662271386012435,901.7842850130983,None,,,,,,,,,,,,,,,,,74,001,2023_Apr_14_1825,SpeechDraft1Carolyn_lessNoise_PlusLocalization,2021.2.3,59.991945960564436,
,,,,,,,,nearLeft,-6.5,1,ch1Sound_localizationTask.wav,-6.5,"(857, 878)","(-103,-202)",-95,-338,,,,,,,,,3,4,25,2,,,,,,,,,,,,,,,,,,,,,,,,,,,,,,,,,,,,,,,,,,,,902.1510902829468,None,903.2507993010804,None,904.1843771007843,None,1.4132275132275132,0.5334290331229568,904.1843771007843,None,,,,,,,,,,,,,,,,,74,001,2023_Apr_14_1825,SpeechDraft1Carolyn_lessNoise_PlusLocalization,2021.2.3,59.991945960564436,
,,,,,,,,nearRight,6.5,0,ch1Sound_localizationTask.wav,6.5,"(1047, 878)","(87, -202)",95,-338,,,,,,,,,3,5,26,4,,,,,,,,,,,,,,,,,,,,,,,,,,,,,,,,,,,,,,,,,,,,904.7343856957741,None,905.8340914486907,None,906.7675016387366,None,1.5751322751322752,0.4831056077964604,906.7675016387366,None,,,,,,,,,,,,,,,,,74,001,2023_Apr_14_1825,SpeechDraft1Carolyn_lessNoise_PlusLocalization,2021.2.3,59.991945960564436,
,,,,,,,,nearRight,6.5,0,ch1Sound_localizationTask.wav,6.5,"(1047, 878)","(87, -202)",95,-338,,,,,,,,,3,6,27,4,,,,,,,,,,,,,,,,,,,,,,,,,,,,,,,,,,,,,,,,,,,,907.2511193007231,None,908.3508091559634,None,909.2841040357016,None,1.583068783068783,0.5159566132351756,909.2841040357016,None,,,,,,,,,,,,,,,,,74,001,2023_Apr_14_1825,SpeechDraft1Carolyn_lessNoise_PlusLocalization,2021.2.3,59.991945960564436,
,,,,,,,,center,0.0,6,ch1Sound_localizationTask.wav,0.0,"(952, 878)","(-8,-202)",0,-338,,,,,,,,,4,0,28,3,,,,,,,,,,,,,,,,,,,,,,,,,,,,,,,,,,,,,,,,,,,,909.8010427691042,None,910.9009283469059,None,911.8346031578258,None,1.511111111111111,0.4989844779483974,911.8346031578258,None,,,,,,,,,,,,,,,,,74,001,2023_Apr_14_1825,SpeechDraft1Carolyn_lessNoise_PlusLocalization,2021.2.3,59.991945960564436,
,,,,,,,,midRight,13.0,3,ch1Sound_localizationTask.wav,13.0,"(1142, 878)","(182, -202)",190,-338,,,,,,,,,4,1,29,5,,,,,,,,,,,,,,,,,,,,,,,,,,,,,,,,,,,,,,,,,,,,912.3345890608616,None,913.4341342668049,None,914.3675609570928,None,1.5629629629629629,0.41661910619586706,914.3675609570928,None,,,,,,,,,,,,,,,,,74,001,2023_Apr_14_1825,SpeechDraft1Carolyn_lessNoise_PlusLocalization,2021.2.3,59.991945960564436,
,,,,,,,,center,0.0,6,ch1Sound_localizationTask.wav,0.0,"(952, 878)","(-8,-202)",0,-338,,,,,,,,,4,2,30,3,,,,,,,,,,,,,,,,,,,,,,,,,,,,,,,,,,,,,,,,,,,,914.7844855068251,None,915.8841361599043,None,916.8174424627796,None,1.505820105820106,0.4650844903662801,916.8174424627796,None,,,,,,,,,,,,,,,,,74,001,2023_Apr_14_1825,SpeechDraft1Carolyn_lessNoise_PlusLocalization,2021.2.3,59.991945960564436,
,,,,,,,,farLeft,-19.1,5,ch1Sound_localizationTask.wav,-19.1,"(667, 878)","(-293,-202)",-285,-338,,,,,,,,,4,3,31,0,,,,,,,,,,,,,,,,,,,,,,,,,,,,,,,,,,,,,,,,,,,,917.2844063248485,None,918.3841939778067,None,919.3174617988989,None,1.3174603174603174,0.4991964288055897,919.3174617988989,None,,,,,,,,,,,,,,,,,74,001,2023_Apr_14_1825,SpeechDraft1Carolyn_lessNoise_PlusLocalization,2021.2.3,59.991945960564436,
,,,,,,,,nearLeft,-6.5,1,ch1Sound_localizationTask.wav,-6.5,"(857, 878)","(-103,-202)",-95,-338,,,,,,,,,4,4,32,2,,,,,,,,,,,,,,,,,,,,,,,,,,,,,,,,,,,,,,,,,,,,919.8178353910334,None,920.9174836049788,None,921.8508999049664,None,1.4026455026455027,0.35083633102476597,921.8508999049664,None,,,,,,,,,,,,,,,,,74,001,2023_Apr_14_1825,SpeechDraft1Carolyn_lessNoise_PlusLocalization,2021.2.3,59.991945960564436,
,,,,,,,,midLeft,-13.0,2,ch1Sound_localizationTask.wav,-13.0,"(762, 878)","(-198,-202)",-190,-338,,,,,,,,,4,5,33,1,,,,,,,,,,,,,,,,,,,,,,,,,,,,,,,,,,,,,,,,,,,,922.2178605860099,None,923.3174794400111,None,924.2508989418857,None,1.2783068783068783,0.6167453406378627,924.2508989418857,None,,,,,,,,,,,,,,,,,74,001,2023_Apr_14_1825,SpeechDraft1Carolyn_lessNoise_PlusLocalization,2021.2.3,59.991945960564436,
,,,,,,,,farRight,19.1,4,ch1Sound_localizationTask.wav,19.1,"(1237, 878)","(277,-202)",285,-338,,,,,,,,,4,6,34,6,,,,,,,,,,,,,,,,,,,,,,,,,,,,,,,,,,,,,,,,,,,,924.884490347933,None,925.9841986936517,None,926.9179361457936,None,1.6724867724867725,0.7826081421226263,926.9179361457936,None,,,,,,,,,,,,,,,,,74,001,2023_Apr_14_1825,SpeechDraft1Carolyn_lessNoise_PlusLocalization,2021.2.3,59.991945960564436,
,,,,,,,,midRight,13.0,3,ch1Sound_localizationTask.wav,13.0,"(1142, 878)","(182, -202)",190,-338,,,,,,,,,5,0,35,5,,,,,,,,,,,,,,,,,,,,,,,,,,,,,,,,,,,,,,,,,,,,927.7011217847466,None,928.8007564246655,None,929.734131579753,None,1.5793650793650795,0.5820169718936086,929.734131579753,None,,,,,,,,,,,,,,,,,74,001,2023_Apr_14_1825,SpeechDraft1Carolyn_lessNoise_PlusLocalization,2021.2.3,59.991945960564436,
,,,,,,,,midRight,13.0,3,ch1Sound_localizationTask.wav,13.0,"(1142, 878)","(182, -202)",190,-338,,,,,,,,,5,1,36,5,,,,,,,,,,,,,,,,,,,,,,,,,,,,,,,,,,,,,,,,,,,,930.3178489790298,None,931.4174399436451,None,932.350928847678,None,1.5814814814814815,0.2835488859564066,932.350928847678,None,,,,,,,,,,,,,,,,,74,001,2023_Apr_14_1825,SpeechDraft1Carolyn_lessNoise_PlusLocalization,2021.2.3,59.991945960564436,
,,,,,,,,center,0.0,6,ch1Sound_localizationTask.wav,0.0,"(952, 878)","(-8,-202)",0,-338,,,,,,,,,5,2,37,3,,,,,,,,,,,,,,,,,,,,,,,,,,,,,,,,,,,,,,,,,,,,932.6344165867195,None,933.7343910420313,None,934.6676755310036,None,1.455026455026455,0.43262236984446645,934.6676755310036,None,,,,,,,,,,,,,,,,,74,001,2023_Apr_14_1825,SpeechDraft1Carolyn_lessNoise_PlusLocalization,2021.2.3,59.991945960564436,
,,,,,,,,center,0.0,6,ch1Sound_localizationTask.wav,0.0,"(952, 878)","(-8,-202)",0,-338,,,,,,,,,5,3,38,3,,,,,,,,,,,,,,,,,,,,,,,,,,,,,,,,,,,,,,,,,,,,935.1010305639356,None,936.2009043809958,None,937.1341652837582,None,1.5005291005291004,0.2828846159391105,937.1341652837582,None,,,,,,,,,,,,,,,,,74,001,2023_Apr_14_1825,SpeechDraft1Carolyn_lessNoise_PlusLocalization,2021.2.3,59.991945960564436,
,,,,,,,,farLeft,-19.1,5,ch1Sound_localizationTask.wav,-19.1,"(667, 878)","(-293,-202)",-285,-338,,,,,,,,,5,4,39,0,,,,,,,,,,,,,,,,,,,,,,,,,,,,,,,,,,,,,,,,,,,,937.4179695430212,None,938.5174302938394,None,939.4510401426814,None,1.2492063492063492,1.1172624779865146,939.4510401426814,None,,,,,,,,,,,,,,,,,74,001,2023_Apr_14_1825,SpeechDraft1Carolyn_lessNoise_PlusLocalization,2021.2.3,59.991945960564436,
,,,,,,,,nearLeft,-6.5,1,ch1Sound_localizationTask.wav,-6.5,"(857, 878)","(-103,-202)",-95,-338,,,,,,,,,5,5,40,2,,,,,,,,,,,,,,,,,,,,,,,,,,,,,,,,,,,,,,,,,,,,940.584558873903,None,941.6843536738306,None,942.6175291580148,None,1.3931216931216932,0.5494009708054364,942.6175291580148,None,,,,,,,,,,,,,,,,,74,001,2023_Apr_14_1825,SpeechDraft1Carolyn_lessNoise_PlusLocalization,2021.2.3,59.991945960564436,
,,,,,,,,midLeft,-13.0,2,ch1Sound_localizationTask.wav,-13.0,"(762, 878)","(-198,-202)",-190,-338,,,,,,,,,5,6,41,1,,,,,,,,,,,,,,,,,,,,,,,,,,,,,,,,,,,,,,,,,,,,943.1682156687602,None,944.2675191001035,None,945.2009038007818,None,1.2873015873015872,0.4492331319488585,945.2009038007818,None,,,,,,,,,,,,,,,,,74,001,2023_Apr_14_1825,SpeechDraft1Carolyn_lessNoise_PlusLocalization,2021.2.3,59.991945960564436,
,,,,,,,,farLeft,-19.1,5,ch1Sound_localizationTask.wav,-19.1,"(667, 878)","(-293,-202)",-285,-338,,,,,,,,,6,0,42,0,,,,,,,,,,,,,,,,,,,,,,,,,,,,,,,,,,,,,,,,,,,,945.651145731099,None,946.7509028329514,None,947.6842342480086,None,1.2248677248677249,0.43187621096149087,947.6842342480086,None,,,,,,,,,,,,,,,,,74,001,2023_Apr_14_1825,SpeechDraft1Carolyn_lessNoise_PlusLocalization,2021.2.3,59.991945960564436,
,,,,,,,,farRight,19.1,4,ch1Sound_localizationTask.wav,19.1,"(1237, 878)","(277,-202)",285,-338,,,,,,,,,6,1,43,6,,,,,,,,,,,,,,,,,,,,,,,,,,,,,,,,,,,,,,,,,,,,948.1177962687798,None,949.2175304740667,None,950.1508012400009,None,1.6915343915343914,0.6660905000753701,950.1508012400009,None,,,,,,,,,,,,,,,,,74,001,2023_Apr_14_1825,SpeechDraft1Carolyn_lessNoise_PlusLocalization,2021.2.3,59.991945960564436,
,,,,,,,,midRight,13.0,3,ch1Sound_localizationTask.wav,13.0,"(1142, 878)","(182, -202)",190,-338,,,,,,,,,6,2,44,5,,,,,,,,,,,,,,,,,,,,,,,,,,,,,,,,,,,,,,,,,,,,950.8179410588928,None,951.9175491407514,None,952.8508114120923,None,1.580952380952381,0.34922574274241924,952.8508114120923,None,,,,,,,,,,,,,,,,,74,001,2023_Apr_14_1825,SpeechDraft1Carolyn_lessNoise_PlusLocalization,2021.2.3,59.991945960564436,
,,,,,,,,farRight,19.1,4,ch1Sound_localizationTask.wav,19.1,"(1237, 878)","(277,-202)",285,-338,,,,,,,,,6,3,45,6,,,,,,,,,,,,,,,,,,,,,,,,,,,,,,,,,,,,,,,,,,,,953.2011781940237,None,954.3009430286475,None,955.2342414138839,None,1.5941798941798941,0.4165877718478441,955.2342414138839,None,,,,,,,,,,,,,,,,,74,001,2023_Apr_14_1825,SpeechDraft1Carolyn_lessNoise_PlusLocalization,2021.2.3,59.991945960564436,
,,,,,,,,farRight,19.1,4,ch1Sound_localizationTask.wav,19.1,"(1237, 878)","(277,-202)",285,-338,,,,,,,,,6,4,46,6,,,,,,,,,,,,,,,,,,,,,,,,,,,,,,,,,,,,,,,,,,,,955.6511869030073,None,956.750859726686,None,957.684226017911,None,1.6465608465608466,0.29957580799236894,957.684226017911,None,,,,,,,,,,,,,,,,,74,001,2023_Apr_14_1825,SpeechDraft1Carolyn_lessNoise_PlusLocalization,2021.2.3,59.991945960564436,
,,,,,,,,farLeft,-19.1,5,ch1Sound_localizationTask.wav,-19.1,"(667, 878)","(-293,-202)",-285,-338,,,,,,,,,6,5,47,0,,,,,,,,,,,,,,,,,,,,,,,,,,,,,,,,,,,,,,,,,,,,957.9844930856489,None,959.0841972217895,None,960.0217104000039,None,1.2513227513227514,0.7495723306201398,960.0217104000039,None,,,,,,,,,,,,,,,,,74,001,2023_Apr_14_1825,SpeechDraft1Carolyn_lessNoise_PlusLocalization,2021.2.3,59.991945960564436,
,,,,,,,,center,0.0,6,ch1Sound_localizationTask.wav,0.0,"(952, 878)","(-8,-202)",0,-338,,,,,,,,,6,6,48,3,,,,,,,,,,,,,,,,,,,,,,,,,,,,,,,,,,,,,,,,,,,,960.7677980680019,None,961.8674156637862,None,962.800957728643,None,1.5010582010582012,0.4996190001256764,962.800957728643,None,,,,,,,,,,,,,,,,,74,001,2023_Apr_14_1825,SpeechDraft1Carolyn_lessNoise_PlusLocalization,2021.2.3,59.991945960564436,
,,,,,,,,midLeft,-13.0,2,ch1Sound_localizationTask.wav,-13.0,"(762, 878)","(-198,-202)",-190,-338,,,,,,,,,7,0,49,1,,,,,,,,,,,,,,,,,,,,,,,,,,,,,,,,,,,,,,,,,,,,963.3017382510006,None,964.4009417858906,None,965.3342260769568,None,1.2767195767195767,0.433158443775028,965.3342260769568,None,,,,,,,,,,,,,,,,,74,001,2023_Apr_14_1825,SpeechDraft1Carolyn_lessNoise_PlusLocalization,2021.2.3,59.991945960564436,
,,,,,,,,farLeft,-19.1,5,ch1Sound_localizationTask.wav,-19.1,"(667, 878)","(-293,-202)",-285,-338,,,,,,,,,7,1,50,0,,,,,,,,,,,,,,,,,,,,,,,,,,,,,,,,,,,,,,,,,,,,965.7679682550952,None,966.8677335809916,None,967.8010403169319,None,1.253968253968254,0.3825773228891194,967.8010403169319,None,,,,,,,,,,,,,,,,,74,001,2023_Apr_14_1825,SpeechDraft1Carolyn_lessNoise_PlusLocalization,2021.2.3,59.991945960564436,
,,,,,,,,farRight,19.1,4,ch1Sound_localizationTask.wav,19.1,"(1237, 878)","(277,-202)",285,-338,,,,,,,,,7,2,51,6,,,,,,,,,,,,,,,,,,,,,,,,,,,,,,,,,,,,,,,,,,,,968.1844778950326,None,969.2841445910744,None,970.2175641106442,None,1.6433862433862434,0.4827754609286785,970.2175641106442,None,,,,,,,,,,,,,,,,,74,001,2023_Apr_14_1825,SpeechDraft1Carolyn_lessNoise_PlusLocalization,2021.2.3,59.991945960564436,
,,,,,,,,midLeft,-13.0,2,ch1Sound_localizationTask.wav,-13.0,"(762, 878)","(-198,-202)",-190,-338,,,,,,,,,7,3,52,1,,,,,,,,,,,,,,,,,,,,,,,,,,,,,,,,,,,,,,,,,,,,970.7013854519464,None,971.800916778855,None,972.7341774818487,None,1.1608465608465608,0.5001245280727744,972.7341774818487,None,,,,,,,,,,,,,,,,,74,001,2023_Apr_14_1825,SpeechDraft1Carolyn_lessNoise_PlusLocalization,2021.2.3,59.991945960564436,
,,,,,,,,nearLeft,-6.5,1,ch1Sound_localizationTask.wav,-6.5,"(857, 878)","(-103,-202)",-95,-338,,,,,,,,,7,4,53,2,,,,,,,,,,,,,,,,,,,,,,,,,,,,,,,,,,,,,,,,,,,,973.2511482466944,None,974.350931965746,None,975.2842196617275,None,1.4,0.6496974648907781,975.2842196617275,None,,,,,,,,,,,,,,,,,74,001,2023_Apr_14_1825,SpeechDraft1Carolyn_lessNoise_PlusLocalization,2021.2.3,59.991945960564436,
,,,,,,,,farRight,19.1,4,ch1Sound_localizationTask.wav,19.1,"(1237, 878)","(277,-202)",285,-338,,,,,,,,,7,5,54,6,,,,,,,,,,,,,,,,,,,,,,,,,,,,,,,,,,,,,,,,,,,,975.9345542839728,None,977.0341801107861,None,977.9675632240251,None,1.692063492063492,1.2665875018574297,977.9675632240251,None,,,,,,,,,,,,,,,,,74,001,2023_Apr_14_1825,SpeechDraft1Carolyn_lessNoise_PlusLocalization,2021.2.3,59.991945960564436,
,,,,,,,,midLeft,-13.0,2,ch1Sound_localizationTask.wav,-13.0,"(762, 878)","(-198,-202)",-190,-338,,,,,,,,,7,6,55,1,,,,,,,,,,,,,,,,,,,,,,,,,,,,,,,,,,,,,,,,,,,,979.2346006887965,None,980.3343294570222,None,981.2677261680365,None,1.3333333333333333,0.6173540530726314,981.2677261680365,None,,,,,,,,,,,,,,,,,74,001,2023_Apr_14_1825,SpeechDraft1Carolyn_lessNoise_PlusLocalization,2021.2.3,59.991945960564436,
,,,,,,,,,,,,,,,,,,,,,,,,,,,,,,,,,,,,,,,,,,,,,,,,,,,,,,,,,,,,,,,,,,,,,,,,,,,,,,,,,,space,7.6937860660254955,981.9848354416899,None,,,,,,,,,,,,,74,001,2023_Apr_14_1825,SpeechDraft1Carolyn_lessNoise_PlusLocalization,2021.2.3,59.991945960564436,
,,,,,,,,farLeft,-19.1,5,ch1Sound_localizationTask.wav,-19.1,"(667, 878)","(-293,-202)",-285,-338,,,,,,,,,,,,,0,0,0,0,,,,,,,,,,,,,,,,,,,,,,,,,,,,,,,,,,,,,,,,989.717583569698,None,,,992.7512127179652,None,1.3317460317460317,1.0027573890984058,992.7512127179652,None,,,,,981.9848354416899,None,990.7179005239159,None,990.9012151467614,990.9178748149425,,,,,,,74,001,2023_Apr_14_1825,SpeechDraft1Carolyn_lessNoise_PlusLocalization,2021.2.3,59.991945960564436,
,,,,,,,,midRight,13.0,3,ch1Sound_localizationTask.wav,13.0,"(1142, 878)","(182, -202)",190,-338,,,,,,,,,,,,,0,1,1,5,,,,,,,,,,,,,,,,,,,,,,,,,,,,,,,,,,,,,,,,993.7511491607875,None,,,996.7676320578903,None,1.626984126984127,1.2510494738817215,996.7676320578903,None,,,,,,,994.751337165013,None,994.9345059017651,994.9512128988281,,,,,,,74,001,2023_Apr_14_1825,SpeechDraft1Carolyn_lessNoise_PlusLocalization,2021.2.3,59.991945960564436,
,,,,,,,,farRight,19.1,4,ch1Sound_localizationTask.wav,19.1,"(1237, 878)","(277,-202)",285,-338,,,,,,,,,,,,,0,2,2,6,,,,,,,,,,,,,,,,,,,,,,,,,,,,,,,,,,,,,,,,998.0346797257662,None,,,1001.050932305865,None,1.6433862433862434,0.8546686042100191,1001.050932305865,None,,,,,,,999.0345720639452,None,999.2179485140368,999.2346053067595,,,,,,,74,001,2023_Apr_14_1825,SpeechDraft1Carolyn_lessNoise_PlusLocalization,2021.2.3,59.991945960564436,
,,,,,,,,midLeft,-13.0,2,ch1Sound_localizationTask.wav,-13.0,"(762, 878)","(-198,-202)",-190,-338,,,,,,,,,,,,,0,3,3,1,,,,,,,,,,,,,,,,,,,,,,,,,,,,,,,,,,,,,,,,1001.918770080898,None,,,1004.9343370757997,None,1.3857142857142857,0.950706475879997,1004.9343370757997,None,,,,,,,1002.9178981850855,None,1003.1012366320938,1003.1179554169066,,,,,,,74,001,2023_Apr_14_1825,SpeechDraft1Carolyn_lessNoise_PlusLocalization,2021.2.3,59.991945960564436,
,,,,,,,,center,0.0,6,ch1Sound_localizationTask.wav,0.0,"(952, 878)","(-8,-202)",0,-338,,,,,,,,,,,,,0,4,4,3,,,,,,,,,,,,,,,,,,,,,,,,,,,,,,,,,,,,,,,,1005.9012745968066,None,,,1008.9175794287585,None,1.5,0.8004649463109672,1008.9175794287585,None,,,,,,,1006.9012837228365,None,1007.0847563059069,1007.1012116656639,,,,,,,74,001,2023_Apr_14_1825,SpeechDraft1Carolyn_lessNoise_PlusLocalization,2021.2.3,59.991945960564436,
,,,,,,,,midRight,13.0,3,ch1Sound_localizationTask.wav,13.0,"(1142, 878)","(182, -202)",190,-338,,,,,,,,,,,,,0,5,5,5,,,,,,,,,,,,,,,,,,,,,,,,,,,,,,,,,,,,,,,,1009.7345459000207,None,,,1012.7509963139892,None,1.5989417989417989,0.8154522497206926,1012.7509963139892,None,,,,,,,1010.7345046657138,None,1010.9179183910601,1010.934760754928,,,,,,,74,001,2023_Apr_14_1825,SpeechDraft1Carolyn_lessNoise_PlusLocalization,2021.2.3,59.991945960564436,
,,,,,,,,nearLeft,-6.5,1,ch1Sound_localizationTask.wav,-6.5,"(857, 878)","(-103,-202)",-95,-338,,,,,,,,,,,,,0,6,6,2,,,,,,,,,,,,,,,,,,,,,,,,,,,,,,,,,,,,,,,,1013.5678396290168,None,,,1016.5842563668266,None,1.4455026455026454,1.0329302991740406,1016.5842563668266,None,,,,,,,1014.5679094530642,None,1014.7512369719334,1014.7679312047549,,,,,,,74,001,2023_Apr_14_1825,SpeechDraft1Carolyn_lessNoise_PlusLocalization,2021.2.3,59.991945960564436,
,,,,,,,,midLeft,-13.0,2,ch1Sound_localizationTask.wav,-13.0,"(762, 878)","(-198,-202)",-190,-338,,,,,,,,,,,,,1,0,7,1,,,,,,,,,,,,,,,,,,,,,,,,,,,,,,,,,,,,,,,,1017.6179981608875,None,,,1020.6342936609872,None,1.403174603174603,0.9340315340086818,1020.6342936609872,None,,,,,,,1018.6179218189791,None,1018.8012626138516,1018.8179931938648,,,,,,,74,001,2023_Apr_14_1825,SpeechDraft1Carolyn_lessNoise_PlusLocalization,2021.2.3,59.991945960564436,
,,,,,,,,farRight,19.1,4,ch1Sound_localizationTask.wav,19.1,"(1237, 878)","(277,-202)",285,-338,,,,,,,,,,,,,1,1,8,6,,,,,,,,,,,,,,,,,,,,,,,,,,,,,,,,,,,,,,,,1021.5846369341016,None,,,1024.6011589677073,None,1.644973544973545,1.0483156917616725,1024.6011589677073,None,,,,,,,1022.5847918828949,None,1022.7678983006626,1022.7845730846748,,,,,,,74,001,2023_Apr_14_1825,SpeechDraft1Carolyn_lessNoise_PlusLocalization,2021.2.3,59.991945960564436,
,,,,,,,,midRight,13.0,3,ch1Sound_localizationTask.wav,13.0,"(1142, 878)","(182, -202)",190,-338,,,,,,,,,,,,,1,2,9,5,,,,,,,,,,,,,,,,,,,,,,,,,,,,,,,,,,,,,,,,1025.6514378157444,None,,,1028.667702396866,None,1.5947089947089947,0.7666908642277122,1028.667702396866,None,,,,,,,1026.6512614660896,None,1026.8346385890618,1026.851251655724,,,,,,,74,001,2023_Apr_14_1825,SpeechDraft1Carolyn_lessNoise_PlusLocalization,2021.2.3,59.991945960564436,
,,,,,,,,farRight,19.1,4,ch1Sound_localizationTask.wav,19.1,"(1237, 878)","(277,-202)",285,-338,,,,,,,,,,,,,1,3,10,6,,,,,,,,,,,,,,,,,,,,,,,,,,,,,,,,,,,,,,,,1029.4349048738368,None,,,1032.4509507138282,None,1.6714285714285715,0.7157373838126659,1032.4509507138282,None,,,,,,,1030.4346154918894,None,1030.618234117981,1030.6345600150526,,,,,,,74,001,2023_Apr_14_1825,SpeechDraft1Carolyn_lessNoise_PlusLocalization,2021.2.3,59.991945960564436,
,,,,,,,,nearRight,6.5,0,ch1Sound_localizationTask.wav,6.5,"(1047, 878)","(87, -202)",95,-338,,,,,,,,,,,,,1,4,11,4,,,,,,,,,,,,,,,,,,,,,,,,,,,,,,,,,,,,,,,,1033.1683814306743,None,,,1036.1845053839497,None,1.566137566137566,0.6167124980129302,1036.1845053839497,None,,,,,,,1034.1679061916657,None,1034.351280193776,1034.3679204410873,,,,,,,74,001,2023_Apr_14_1825,SpeechDraft1Carolyn_lessNoise_PlusLocalization,2021.2.3,59.991945960564436,
,,,,,,,,nearLeft,-6.5,1,ch1Sound_localizationTask.wav,-6.5,"(857, 878)","(-103,-202)",-95,-338,,,,,,,,,,,,,1,5,12,2,,,,,,,,,,,,,,,,,,,,,,,,,,,,,,,,,,,,,,,,1036.8182290550321,None,,,1039.834378899075,None,1.457142857142857,0.6982405809685588,1039.834378899075,None,,,,,,,1037.81803922588,None,1038.0012694071047,1038.0180796748027,,,,,,,74,001,2023_Apr_14_1825,SpeechDraft1Carolyn_lessNoise_PlusLocalization,2021.2.3,59.991945960564436,
,,,,,,,,farRight,19.1,4,ch1Sound_localizationTask.wav,19.1,"(1237, 878)","(277,-202)",285,-338,,,,,,,,,,,,,1,6,13,6,,,,,,,,,,,,,,,,,,,,,,,,,,,,,,,,,,,,,,,,1040.5347126089036,None,,,1043.5511945267208,None,1.6613756613756614,0.9493014118634164,1043.5511945267208,None,,,,,,,1041.534624479711,None,1041.7179667730816,1041.734647856094,,,,,,,74,001,2023_Apr_14_1825,SpeechDraft1Carolyn_lessNoise_PlusLocalization,2021.2.3,59.991945960564436,
,,,,,,,,farLeft,-19.1,5,ch1Sound_localizationTask.wav,-19.1,"(667, 878)","(-293,-202)",-285,-338,,,,,,,,,,,,,2,0,14,0,,,,,,,,,,,,,,,,,,,,,,,,,,,,,,,,,,,,,,,,1044.5013365019113,None,,,1047.5176077950746,None,1.3333333333333333,0.8167667873203754,1047.5176077950746,None,,,,,,,1045.5012995246798,None,1045.684591313824,1045.7013358930126,,,,,,,74,001,2023_Apr_14_1825,SpeechDraft1Carolyn_lessNoise_PlusLocalization,2021.2.3,59.991945960564436,
,,,,,,,,midLeft,-13.0,2,ch1Sound_localizationTask.wav,-13.0,"(762, 878)","(-198,-202)",-190,-338,,,,,,,,,,,,,2,1,15,1,,,,,,,,,,,,,,,,,,,,,,,,,,,,,,,,,,,,,,,,1048.351362630725,None,,,1051.3678334909491,None,1.41005291005291,0.8338856901973486,1051.3678334909491,None,,,,,,,1049.3513623736799,None,1049.5346046281047,1049.5513646719046,,,,,,,74,001,2023_Apr_14_1825,SpeechDraft1Carolyn_lessNoise_PlusLocalization,2021.2.3,59.991945960564436,
,,,,,,,,midLeft,-13.0,2,ch1Sound_localizationTask.wav,-13.0,"(762, 878)","(-198,-202)",-190,-338,,,,,,,,,,,,,2,2,16,1,,,,,,,,,,,,,,,,,,,,,,,,,,,,,,,,,,,,,,,,1052.2179703600705,None,,,1055.2343667410314,None,1.4074074074074074,0.5326240970753133,1055.2343667410314,None,,,,,,,1053.2179622240365,None,1053.4013469619676,1053.4179536988959,,,,,,,74,001,2023_Apr_14_1825,SpeechDraft1Carolyn_lessNoise_PlusLocalization,2021.2.3,59.991945960564436,
,,,,,,,,nearLeft,-6.5,1,ch1Sound_localizationTask.wav,-6.5,"(857, 878)","(-103,-202)",-95,-338,,,,,,,,,,,,,2,3,17,2,,,,,,,,,,,,,,,,,,,,,,,,,,,,,,,,,,,,,,,,1055.7678656228818,None,,,1058.7843969459645,None,1.4433862433862434,0.949439144693315,1058.7843969459645,None,,,,,,,1056.76802275097,None,1056.9513700660318,1056.967936329078,,,,,,,74,001,2023_Apr_14_1825,SpeechDraft1Carolyn_lessNoise_PlusLocalization,2021.2.3,59.991945960564436,
,,,,,,,,nearRight,6.5,0,ch1Sound_localizationTask.wav,6.5,"(1047, 878)","(87, -202)",95,-338,,,,,,,,,,,,,2,4,18,4,,,,,,,,,,,,,,,,,,,,,,,,,,,,,,,,,,,,,,,,1059.7515277876519,None,,,1062.767792939674,None,1.5555555555555556,0.7677132561802864,1062.767792939674,None,,,,,,,1060.7513055400923,None,1060.9346359591,1060.9512530229986,,,,,,,74,001,2023_Apr_14_1825,SpeechDraft1Carolyn_lessNoise_PlusLocalization,2021.2.3,59.991945960564436,
,,,,,,,,farRight,19.1,4,ch1Sound_localizationTask.wav,19.1,"(1237, 878)","(277,-202)",285,-338,,,,,,,,,,,,,2,5,19,6,,,,,,,,,,,,,,,,,,,,,,,,,,,,,,,,,,,,,,,,1063.5513550410978,None,,,1066.567757945042,None,1.6497354497354497,1.1493284432217479,1066.567757945042,None,,,,,,,1064.551262119785,None,1064.734691245947,1064.751342304051,,,,,,,74,001,2023_Apr_14_1825,SpeechDraft1Carolyn_lessNoise_PlusLocalization,2021.2.3,59.991945960564436,
,,,,,,,,nearLeft,-6.5,1,ch1Sound_localizationTask.wav,-6.5,"(857, 878)","(-103,-202)",-95,-338,,,,,,,,,,,,,2,6,20,2,,,,,,,,,,,,,,,,,,,,,,,,,,,,,,,,,,,,,,,,1067.7179659898393,None,,,1070.734349963721,None,1.4343915343915343,0.8494151560589671,1070.734349963721,None,,,,,,,1068.717941914685,None,1068.901332190726,1068.9180540069938,,,,,,,74,001,2023_Apr_14_1825,SpeechDraft1Carolyn_lessNoise_PlusLocalization,2021.2.3,59.991945960564436,
,,,,,,,,center,0.0,6,ch1Sound_localizationTask.wav,0.0,"(952, 878)","(-8,-202)",0,-338,,,,,,,,,,,,,3,0,21,3,,,,,,,,,,,,,,,,,,,,,,,,,,,,,,,,,,,,,,,,1071.5859969677404,None,,,1074.6178527930751,None,1.508994708994709,0.7659464147873223,1074.6178527930751,None,,,,,,,1072.601364373695,None,1072.7846616217867,1072.8013733979315,,,,,,,74,001,2023_Apr_14_1825,SpeechDraft1Carolyn_lessNoise_PlusLocalization,2021.2.3,59.991945960564436,
,,,,,,,,midLeft,-13.0,2,ch1Sound_localizationTask.wav,-13.0,"(762, 878)","(-198,-202)",-190,-338,,,,,,,,,,,,,3,1,22,1,,,,,,,,,,,,,,,,,,,,,,,,,,,,,,,,,,,,,,,,1075.3846543408,None,,,1078.400995546952,None,1.3941798941798942,0.9332165257073939,1078.400995546952,None,,,,,,,1076.3848559260368,None,1076.5681501887739,1076.584797617048,,,,,,,74,001,2023_Apr_14_1825,SpeechDraft1Carolyn_lessNoise_PlusLocalization,2021.2.3,59.991945960564436,
,,,,,,,,nearRight,6.5,0,ch1Sound_localizationTask.wav,6.5,"(1047, 878)","(87, -202)",95,-338,,,,,,,,,,,,,3,2,23,4,,,,,,,,,,,,,,,,,,,,,,,,,,,,,,,,,,,,,,,,1079.3346917959861,None,,,1082.3510389598086,None,1.5560846560846562,0.7484012572094798,1082.3510389598086,None,,,,,,,1080.3346425569616,None,1080.5180076127872,1080.5346427229233,,,,,,,74,001,2023_Apr_14_1825,SpeechDraft1Carolyn_lessNoise_PlusLocalization,2021.2.3,59.991945960564436,
,,,,,,,,midLeft,-13.0,2,ch1Sound_localizationTask.wav,-13.0,"(762, 878)","(-198,-202)",-190,-338,,,,,,,,,,,,,3,3,24,1,,,,,,,,,,,,,,,,,,,,,,,,,,,,,,,,,,,,,,,,1083.1012787930667,None,,,1086.11779543804,None,1.3682539682539683,0.7149794832803309,1086.11779543804,None,,,,,,,1084.1014104560018,None,1084.2846640227363,1084.301543280948,,,,,,,74,001,2023_Apr_14_1825,SpeechDraft1Carolyn_lessNoise_PlusLocalization,2021.2.3,59.991945960564436,
,,,,,,,,nearLeft,-6.5,1,ch1Sound_localizationTask.wav,-6.5,"(857, 878)","(-103,-202)",-95,-338,,,,,,,,,,,,,3,4,25,2,,,,,,,,,,,,,,,,,,,,,,,,,,,,,,,,,,,,,,,,1086.834783711005,None,,,1089.8511820710264,None,1.457142857142857,0.732425088994205,1089.8511820710264,None,,,,,,,1087.8346468289383,None,1088.018011301756,1088.0347288758494,,,,,,,74,001,2023_Apr_14_1825,SpeechDraft1Carolyn_lessNoise_PlusLocalization,2021.2.3,59.991945960564436,
,,,,,,,,farLeft,-19.1,5,ch1Sound_localizationTask.wav,-19.1,"(667, 878)","(-293,-202)",-285,-338,,,,,,,,,,,,,3,5,26,0,,,,,,,,,,,,,,,,,,,,,,,,,,,,,,,,,,,,,,,,1090.5846757497638,None,,,1093.6010770169087,None,1.356084656084656,0.7327392669394612,1093.6010770169087,None,,,,,,,1091.584715435747,None,1091.7681506639346,1091.7849455778487,,,,,,,74,001,2023_Apr_14_1825,SpeechDraft1Carolyn_lessNoise_PlusLocalization,2021.2.3,59.991945960564436,
,,,,,,,,nearLeft,-6.5,1,ch1Sound_localizationTask.wav,-6.5,"(857, 878)","(-103,-202)",-95,-338,,,,,,,,,,,,,3,6,27,2,,,,,,,,,,,,,,,,,,,,,,,,,,,,,,,,,,,,,,,,1094.3348606480286,None,,,1097.3510644156486,None,1.4481481481481482,0.7823715936392546,1097.3510644156486,None,,,,,,,1095.3346838927828,None,1095.5179706988856,1095.5346090509556,,,,,,,74,001,2023_Apr_14_1825,SpeechDraft1Carolyn_lessNoise_PlusLocalization,2021.2.3,59.991945960564436,
,,,,,,,,center,0.0,6,ch1Sound_localizationTask.wav,0.0,"(952, 878)","(-8,-202)",0,-338,,,,,,,,,,,,,4,0,28,3,,,,,,,,,,,,,,,,,,,,,,,,,,,,,,,,,,,,,,,,1098.134814017918,None,,,1101.1512202140875,None,1.4994708994708994,0.6153836366720498,1101.1512202140875,None,,,,,,,1099.134653295856,None,1099.3180253407918,1099.3346913596615,,,,,,,74,001,2023_Apr_14_1825,SpeechDraft1Carolyn_lessNoise_PlusLocalization,2021.2.3,59.991945960564436,
,,,,,,,,center,0.0,6,ch1Sound_localizationTask.wav,0.0,"(952, 878)","(-8,-202)",0,-338,,,,,,,,,,,,,4,1,29,3,,,,,,,,,,,,,,,,,,,,,,,,,,,,,,,,,,,,,,,,1101.7681451868266,None,,,1104.7844420499168,None,1.5026455026455028,0.4818167961202562,1104.7844420499168,None,,,,,,,1102.7680098689161,None,1102.951353668701,1102.9680249351077,,,,,,,74,001,2023_Apr_14_1825,SpeechDraft1Carolyn_lessNoise_PlusLocalization,2021.2.3,59.991945960564436,
,,,,,,,,midRight,13.0,3,ch1Sound_localizationTask.wav,13.0,"(1142, 878)","(182, -202)",190,-338,,,,,,,,,,,,,4,2,30,5,,,,,,,,,,,,,,,,,,,,,,,,,,,,,,,,,,,,,,,,1105.2680700900964,None,,,1108.2843984318897,None,1.583068783068783,0.9829559470526874,1108.2843984318897,None,,,,,,,1106.268123212736,None,1106.451309952885,1106.4680664190091,,,,,,,74,001,2023_Apr_14_1825,SpeechDraft1Carolyn_lessNoise_PlusLocalization,2021.2.3,59.991945960564436,
,,,,,,,,midRight,13.0,3,ch1Sound_localizationTask.wav,13.0,"(1142, 878)","(182, -202)",190,-338,,,,,,,,,,,,,4,3,31,5,,,,,,,,,,,,,,,,,,,,,,,,,,,,,,,,,,,,,,,,1109.2690406930633,None,,,1112.2844774089754,None,1.5804232804232803,0.4165198551490903,1112.2844774089754,None,,,,,,,1110.268044352997,None,1110.4515773127787,1110.4680614317767,,,,,,,74,001,2023_Apr_14_1825,SpeechDraft1Carolyn_lessNoise_PlusLocalization,2021.2.3,59.991945960564436,
,,,,,,,,farLeft,-19.1,5,ch1Sound_localizationTask.wav,-19.1,"(667, 878)","(-293,-202)",-285,-338,,,,,,,,,,,,,4,4,32,0,,,,,,,,,,,,,,,,,,,,,,,,,,,,,,,,,,,,,,,,1112.7020166828297,None,,,1115.7177516026422,None,1.317989417989418,1.0667668138630688,1115.7177516026422,None,,,,,,,1113.7013519946486,None,1113.8847305150703,1113.9013353139162,,,,,,,74,001,2023_Apr_14_1825,SpeechDraft1Carolyn_lessNoise_PlusLocalization,2021.2.3,59.991945960564436,
,,,,,,,,nearLeft,-6.5,1,ch1Sound_localizationTask.wav,-6.5,"(857, 878)","(-103,-202)",-95,-338,,,,,,,,,,,,,4,5,33,2,,,,,,,,,,,,,,,,,,,,,,,,,,,,,,,,,,,,,,,,1116.7849896568805,None,,,1119.8011221359484,None,1.4582010582010583,0.8150810082443058,1119.8011221359484,None,,,,,,,1117.784842215944,None,1117.9680662839673,1117.9848168138415,,,,,,,74,001,2023_Apr_14_1825,SpeechDraft1Carolyn_lessNoise_PlusLocalization,2021.2.3,59.991945960564436,
,,,,,,,,nearLeft,-6.5,1,ch1Sound_localizationTask.wav,-6.5,"(857, 878)","(-103,-202)",-95,-338,,,,,,,,,,,,,4,6,34,2,,,,,,,,,,,,,,,,,,,,,,,,,,,,,,,,,,,,,,,,1120.618038947694,None,,,1123.6345395310782,None,1.4264550264550264,0.7994613442569971,1123.6345395310782,None,,,,,,,1121.6180194127373,None,1121.801423549652,1121.8180575957522,,,,,,,74,001,2023_Apr_14_1825,SpeechDraft1Carolyn_lessNoise_PlusLocalization,2021.2.3,59.991945960564436,
,,,,,,,,farRight,19.1,4,ch1Sound_localizationTask.wav,19.1,"(1237, 878)","(277,-202)",285,-338,,,,,,,,,,,,,5,0,35,6,,,,,,,,,,,,,,,,,,,,,,,,,,,,,,,,,,,,,,,,1124.4348088777624,None,,,1127.4512162627652,None,1.6396825396825396,1.5498290709219873,1127.4512162627652,None,,,,,,,1125.4349570698105,None,1125.6182370530441,1125.6346800997853,,,,,,,74,001,2023_Apr_14_1825,SpeechDraft1Carolyn_lessNoise_PlusLocalization,2021.2.3,59.991945960564436,
,,,,,,,,midRight,13.0,3,ch1Sound_localizationTask.wav,13.0,"(1142, 878)","(182, -202)",190,-338,,,,,,,,,,,,,5,1,36,5,,,,,,,,,,,,,,,,,,,,,,,,,,,,,,,,,,,,,,,,1129.0028383140452,None,,,1132.0344690256752,None,1.588888888888889,0.6826821430586278,1132.0344690256752,None,,,,,,,1130.0181224010885,None,1130.2014818438329,1130.2181536760181,,,,,,,74,001,2023_Apr_14_1825,SpeechDraft1Carolyn_lessNoise_PlusLocalization,2021.2.3,59.991945960564436,
,,,,,,,,farLeft,-19.1,5,ch1Sound_localizationTask.wav,-19.1,"(667, 878)","(-293,-202)",-285,-338,,,,,,,,,,,,,5,2,37,0,,,,,,,,,,,,,,,,,,,,,,,,,,,,,,,,,,,,,,,,1132.717993370723,None,,,1135.734760876745,None,1.3507936507936509,0.7837099172174931,1135.734760876745,None,,,,,,,1133.718075371813,None,1133.9013927020133,1133.9180958117358,,,,,,,74,001,2023_Apr_14_1825,SpeechDraft1Carolyn_lessNoise_PlusLocalization,2021.2.3,59.991945960564436,
,,,,,,,,center,0.0,6,ch1Sound_localizationTask.wav,0.0,"(952, 878)","(-8,-202)",0,-338,,,,,,,,,,,,,5,3,38,3,,,,,,,,,,,,,,,,,,,,,,,,,,,,,,,,,,,,,,,,1136.534773925785,None,,,1139.5511829056777,None,1.5,0.916203975211829,1139.5511829056777,None,,,,,,,1137.5347403069027,None,1137.7181390589103,1137.7347954870202,,,,,,,74,001,2023_Apr_14_1825,SpeechDraft1Carolyn_lessNoise_PlusLocalization,2021.2.3,59.991945960564436,
,,,,,,,,midLeft,-13.0,2,ch1Sound_localizationTask.wav,-13.0,"(762, 878)","(-198,-202)",-190,-338,,,,,,,,,,,,,5,4,39,1,,,,,,,,,,,,,,,,,,,,,,,,,,,,,,,,,,,,,,,,1140.4681747979484,None,,,1143.4845264977776,None,1.3703703703703702,0.9330294872634113,1143.4845264977776,None,,,,,,,1141.4681271407753,None,1141.6514765550382,1141.66811516881,,,,,,,74,001,2023_Apr_14_1825,SpeechDraft1Carolyn_lessNoise_PlusLocalization,2021.2.3,59.991945960564436,
,,,,,,,,nearRight,6.5,0,ch1Sound_localizationTask.wav,6.5,"(1047, 878)","(87, -202)",95,-338,,,,,,,,,,,,,5,5,40,4,,,,,,,,,,,,,,,,,,,,,,,,,,,,,,,,,,,,,,,,1144.4180819126777,None,,,1147.4347144197673,None,1.5423280423280423,1.165827319957316,1147.4347144197673,None,,,,,,,1145.418170278892,None,1145.6014597238973,1145.6182205257937,,,,,,,74,001,2023_Apr_14_1825,SpeechDraft1Carolyn_lessNoise_PlusLocalization,2021.2.3,59.991945960564436,
,,,,,,,,farLeft,-19.1,5,ch1Sound_localizationTask.wav,-19.1,"(667, 878)","(-293,-202)",-285,-338,,,,,,,,,,,,,5,6,41,0,,,,,,,,,,,,,,,,,,,,,,,,,,,,,,,,,,,,,,,,1148.601931635756,None,,,1151.617807358969,None,1.3470899470899471,0.899131459183991,1151.617807358969,None,,,,,,,1149.6014111358672,None,1149.7849291786551,1149.8015776346438,,,,,,,74,001,2023_Apr_14_1825,SpeechDraft1Carolyn_lessNoise_PlusLocalization,2021.2.3,59.991945960564436,
,,,,,,,,farRight,19.1,4,ch1Sound_localizationTask.wav,19.1,"(1237, 878)","(277,-202)",285,-338,,,,,,,,,,,,,6,0,42,6,,,,,,,,,,,,,,,,,,,,,,,,,,,,,,,,,,,,,,,,1152.5181820560247,None,,,1155.534515982028,None,1.6280423280423282,0.7339683133177459,1155.534515982028,None,,,,,,,1153.518065978773,None,1153.7014582697302,1153.7181166387163,,,,,,,74,001,2023_Apr_14_1825,SpeechDraft1Carolyn_lessNoise_PlusLocalization,2021.2.3,59.991945960564436,
,,,,,,,,midRight,13.0,3,ch1Sound_localizationTask.wav,13.0,"(1142, 878)","(182, -202)",190,-338,,,,,,,,,,,,,6,1,43,5,,,,,,,,,,,,,,,,,,,,,,,,,,,,,,,,,,,,,,,,1156.2848511170596,None,,,1159.301116974093,None,1.5724867724867724,0.5812033219262958,1159.301116974093,None,,,,,,,1157.284776810091,None,1157.4683616179973,1157.4846692290157,,,,,,,74,001,2023_Apr_14_1825,SpeechDraft1Carolyn_lessNoise_PlusLocalization,2021.2.3,59.991945960564436,
,,,,,,,,farLeft,-19.1,5,ch1Sound_localizationTask.wav,-19.1,"(667, 878)","(-293,-202)",-285,-338,,,,,,,,,,,,,6,2,44,0,,,,,,,,,,,,,,,,,,,,,,,,,,,,,,,,,,,,,,,,1159.8847169210203,None,,,1162.9010761519894,None,1.348148148148148,0.6502041919156909,1162.9010761519894,None,,,,,,,1160.8847894328646,None,1161.0681489827111,1161.0847551897168,,,,,,,74,001,2023_Apr_14_1825,SpeechDraft1Carolyn_lessNoise_PlusLocalization,2021.2.3,59.991945960564436,
,,,,,,,,center,0.0,6,ch1Sound_localizationTask.wav,0.0,"(952, 878)","(-8,-202)",0,-338,,,,,,,,,,,,,6,3,45,3,,,,,,,,,,,,,,,,,,,,,,,,,,,,,,,,,,,,,,,,1163.5681490809657,None,,,1166.5845959060825,None,1.505820105820106,0.632214562036097,1166.5845959060825,None,,,,,,,1164.5682788677514,None,1164.7515396210365,1164.768344648648,,,,,,,74,001,2023_Apr_14_1825,SpeechDraft1Carolyn_lessNoise_PlusLocalization,2021.2.3,59.991945960564436,
,,,,,,,,nearRight,6.5,0,ch1Sound_localizationTask.wav,6.5,"(1047, 878)","(87, -202)",95,-338,,,,,,,,,,,,,6,4,46,4,,,,,,,,,,,,,,,,,,,,,,,,,,,,,,,,,,,,,,,,1167.2181145120412,None,,,1170.2345022000372,None,1.5492063492063493,0.6656000362709165,1170.2345022000372,None,,,,,,,1168.2181671550497,None,1168.4014429878443,1168.418125166092,,,,,,,74,001,2023_Apr_14_1825,SpeechDraft1Carolyn_lessNoise_PlusLocalization,2021.2.3,59.991945960564436,
,,,,,,,,nearRight,6.5,0,ch1Sound_localizationTask.wav,6.5,"(1047, 878)","(87, -202)",95,-338,,,,,,,,,,,,,6,5,47,4,,,,,,,,,,,,,,,,,,,,,,,,,,,,,,,,,,,,,,,,1170.901513131801,None,,,1173.9178933128715,None,1.5492063492063493,0.3994269222021103,1173.9178933128715,None,,,,,,,1171.9014811590314,None,1172.0848524710163,1172.1014254880138,,,,,,,74,001,2023_Apr_14_1825,SpeechDraft1Carolyn_lessNoise_PlusLocalization,2021.2.3,59.991945960564436,
,,,,,,,,center,0.0,6,ch1Sound_localizationTask.wav,0.0,"(952, 878)","(-8,-202)",0,-338,,,,,,,,,,,,,6,6,48,3,,,,,,,,,,,,,,,,,,,,,,,,,,,,,,,,,,,,,,,,1174.3181529617868,None,,,1177.3345282799564,None,1.4973544973544972,0.449230401776731,1177.3345282799564,None,,,,,,,1175.3181391567923,None,1175.5015434087254,1175.5181187870912,,,,,,,74,001,2023_Apr_14_1825,SpeechDraft1Carolyn_lessNoise_PlusLocalization,2021.2.3,59.991945960564436,
,,,,,,,,nearRight,6.5,0,ch1Sound_localizationTask.wav,6.5,"(1047, 878)","(87, -202)",95,-338,,,,,,,,,,,,,7,0,49,4,,,,,,,,,,,,,,,,,,,,,,,,,,,,,,,,,,,,,,,,1177.7848310740665,None,,,1180.801161903888,None,1.546031746031746,0.464842087123543,1180.801161903888,None,,,,,,,1178.7848255378194,None,1178.9682021848857,1178.9848205186427,,,,,,,74,001,2023_Apr_14_1825,SpeechDraft1Carolyn_lessNoise_PlusLocalization,2021.2.3,59.991945960564436,
,,,,,,,,farLeft,-19.1,5,ch1Sound_localizationTask.wav,-19.1,"(667, 878)","(-293,-202)",-285,-338,,,,,,,,,,,,,7,1,50,0,,,,,,,,,,,,,,,,,,,,,,,,,,,,,,,,,,,,,,,,1181.2681226730347,None,,,1184.2844880069606,None,1.3724867724867724,0.4497015601955354,1184.2844880069606,None,,,,,,,1182.268158602994,None,1182.4517356539145,1182.4681331580505,,,,,,,74,001,2023_Apr_14_1825,SpeechDraft1Carolyn_lessNoise_PlusLocalization,2021.2.3,59.991945960564436,
,,,,,,,,midRight,13.0,3,ch1Sound_localizationTask.wav,13.0,"(1142, 878)","(182, -202)",190,-338,,,,,,,,,,,,,7,2,51,5,,,,,,,,,,,,,,,,,,,,,,,,,,,,,,,,,,,,,,,,1184.7348163737915,None,,,1187.751123265829,None,1.5746031746031746,0.6980499909259379,1187.751123265829,None,,,,,,,1185.7347757220268,None,1185.918150140904,1185.9349436666816,,,,,,,74,001,2023_Apr_14_1825,SpeechDraft1Carolyn_lessNoise_PlusLocalization,2021.2.3,59.991945960564436,
,,,,,,,,nearRight,6.5,0,ch1Sound_localizationTask.wav,6.5,"(1047, 878)","(87, -202)",95,-338,,,,,,,,,,,,,7,3,52,4,,,,,,,,,,,,,,,,,,,,,,,,,,,,,,,,,,,,,,,,1188.451505733654,None,,,1191.4679189948365,None,1.5227513227513227,0.4646886889822781,1191.4679189948365,None,,,,,,,1189.451474933885,None,1189.6347835278139,1189.6514697480015,,,,,,,74,001,2023_Apr_14_1825,SpeechDraft1Carolyn_lessNoise_PlusLocalization,2021.2.3,59.991945960564436,
,,,,,,,,midLeft,-13.0,2,ch1Sound_localizationTask.wav,-13.0,"(762, 878)","(-198,-202)",-190,-338,,,,,,,,,,,,,7,4,53,1,,,,,,,,,,,,,,,,,,,,,,,,,,,,,,,,,,,,,,,,1191.9348405008204,None,,,1194.951292250771,None,1.3984126984126983,0.6324311168864369,1194.951292250771,None,,,,,,,1192.9347716849297,None,1193.1181630208157,1193.1348244287074,,,,,,,74,001,2023_Apr_14_1825,SpeechDraft1Carolyn_lessNoise_PlusLocalization,2021.2.3,59.991945960564436,
,,,,,,,,farRight,19.1,4,ch1Sound_localizationTask.wav,19.1,"(1237, 878)","(277,-202)",285,-338,,,,,,,,,,,,,7,5,54,6,,,,,,,,,,,,,,,,,,,,,,,,,,,,,,,,,,,,,,,,1195.5849178098142,None,,,1198.6011777017266,None,1.6322751322751323,0.6150452909059823,1198.6011777017266,None,,,,,,,1196.5848483219743,None,1196.768151262775,1196.7848097649403,,,,,,,74,001,2023_Apr_14_1825,SpeechDraft1Carolyn_lessNoise_PlusLocalization,2021.2.3,59.991945960564436,
,,,,,,,,center,0.0,6,ch1Sound_localizationTask.wav,0.0,"(952, 878)","(-8,-202)",0,-338,,,,,,,,,,,,,7,6,55,3,,,,,,,,,,,,,,,,,,,,,,,,,,,,,,,,,,,,,,,,1199.2181352707557,None,,,1202.234600808937,None,1.5,0.5824240096844733,1202.234600808937,None,,,,,,,1200.2181427069008,None,1200.401499196887,1200.4182214420289,,,,,,,74,001,2023_Apr_14_1825,SpeechDraft1Carolyn_lessNoise_PlusLocalization,2021.2.3,59.991945960564436,
,,,,,,,,,,,,,,,,,,,,,,,,,,,,,,,,,,,,,,,,,,,,,,,,,,,,,,,,,,,,,,,,,,,,,,,,,,,,,,,,,,,,,,,,,,,,1202.8181220209226,None,c,243109.15713026328,1203.8014834169298,None,74,001,2023_Apr_14_1825,SpeechDraft1Carolyn_lessNoise_PlusLocalization,2021.2.3,59.991945960564436,
