Audio_Only_Files,Video_Files,Original_Word_List,noiseLevelCode,conditionCodes,noiseLevelFile1,noiseLevelFile2,InstrTextVar,targetSpeakerName,targetSpeakerEccen,targetSpkrChannel,targetSpkrSound,targetVisualDegrees,visStimLoc,visStimLoc2,visStimW,visStimH,practiceTrials.thisRepN,practiceTrials.thisTrialN,practiceTrials.thisN,practiceTrials.thisIndex,trials.thisRepN,trials.thisTrialN,trials.thisN,trials.thisIndex,audLocalLoop.thisRepN,audLocalLoop.thisTrialN,audLocalLoop.thisN,audLocalLoop.thisIndex,visualLocalLoop.thisRepN,visualLocalLoop.thisTrialN,visualLocalLoop.thisN,visualLocalLoop.thisIndex,letsGoAlready.keys,letsGoAlready.rt,letsGoAlready.started,letsGoAlready.stopped,text_2.started,text_2.stopped,text_3.started,text_3.stopped,key_resp_2.keys,key_resp_2.rt,key_resp_2.started,key_resp_2.stopped,text_5.started,text_5.stopped,fixCross.started,fixCross.stopped,fixCross2.started,fixCross2.stopped,answerPrompt.started,answerPrompt.stopped,getAnswer.text,getAnswer.started,getAnswer.stopped,goToNext.keys,goToNext.rt,goToNext.started,goToNext.stopped,stretchBreakTxrt.started,stretchBreakTxrt.stopped,key_resp_3.keys,key_resp_3.rt,key_resp_3.started,key_resp_3.stopped,letsGoLocal.keys,letsGoLocal.rt,letsGoLocal.started,letsGoLocal.stopped,text_4.started,text_4.stopped,prepFixTxt.started,prepFixTxt.stopped,prepFixTxt_2.started,prepFixTxt_2.stopped,respPromptLocal.started,respPromptLocal.stopped,slider.response,slider.rt,slider.started,slider.stopped,letsGoLocal_2.keys,letsGoLocal_2.rt,letsGoLocal_2.started,letsGoLocal_2.stopped,text_7.started,text_7.stopped,prepFixTxt_3.started,prepFixTxt_3.stopped,grating.started,grating.stopped,exitTxt.started,exitTxt.stopped,key_resp.keys,key_resp.rt,key_resp.started,key_resp.stopped,participant,session,date,expName,psychopyVersion,frameRate,
,,,,,,,,,,,,,,,,,,,,,,,,,,,,,,,,,space,32.89291892014444,12.647838525939733,None,,,,,,,,,,,,,,,,,,,,,,,,,,,,,,,,,,,,,,,,,,,,,,,,,,,,,,,,,,,,,,75,001,2023_Apr_17_1421,SpeechDraft1Carolyn_lessNoise_PlusLocalization,2021.2.3,59.9129035792163,
,,,,,,,,,,,,,,,,,,,,,,,,,,,,,,,,,,,,,12.647838525939733,None,45.6645833440125,None,space,23.492871548049152,45.847873428836465,None,,,,,,,,,,,,,,,,,,,,,,,,,,,,,,,,,,,,,,,,,,,,,,,,,,,,,,75,001,2023_Apr_17_1421,SpeechDraft1Carolyn_lessNoise_PlusLocalization,2021.2.3,59.9129035792163,
ash.wav,ash.mpg,ash,1,A,Pink_Noise_1_1.wav,Pink_Noise_1_2.wav,"This is an example of an

AUDIO trial",,,,,,,,,,0,0,0,0,,,,,,,,,,,,,,,,,,,,,,,,,69.39762753294781,None,70.38120288494974,None,73.73084921902046,None,75.11458524689078,None,"ash
",75.11458524689078,None,return,2.9667769172228873,75.19794989423826,None,,,,,,,,,,,,,,,,,,,,,,,,,,,,,,,,,,,,,,,75,001,2023_Apr_17_1421,SpeechDraft1Carolyn_lessNoise_PlusLocalization,2021.2.3,59.9129035792163,
ash.wav,ash.mpg,ash,1,AV,Pink_Noise_1_1.wav,Pink_Noise_1_2.wav,"This is an example of an

AUDIO + VIDEO  trial",,,,,,,,,,0,1,1,1,,,,,,,,,,,,,,,,,,,,,,,,,78.21424127090722,None,79.21452546492219,None,80.69790975889191,None,82.08117948286235,None,"ash
",82.08117948286235,None,return,4.736179838888347,82.16452719690278,None,,,,,,,,,,,,,,,,,,,,,,,,,,,,,,,,,,,,,,,75,001,2023_Apr_17_1421,SpeechDraft1Carolyn_lessNoise_PlusLocalization,2021.2.3,59.9129035792163,
,,,,,,,,,,,,,,,,,,,,,,,,,,,,,,,,,,,,,,,,,,,,,,,,,,,,,,,,,,,,86.94750218000263,None,space,18.921572400722653,87.13124044798315,None,,,,,,,,,,,,,,,,,,,,,,,,,,,,,,,,,75,001,2023_Apr_17_1421,SpeechDraft1Carolyn_lessNoise_PlusLocalization,2021.2.3,59.9129035792163,
dove.wav,dove.mpg,dove,2,A,Pink_Noise_2_1.wav,Pink_Noise_2_2.wav,,,,,,,,,,,,,,,0,0,0,42,,,,,,,,,,,,,,,,,,,,,,,106.11439601192251,None,107.59854469215497,None,108.98144374182448,None,dog,108.98144374182448,None,return,1.0042046108283103,109.06451886426657,None,,,,,,,,,,,,,,,,,,,,,,,,,,,,,,,,,,,,,,,75,001,2023_Apr_17_1421,SpeechDraft1Carolyn_lessNoise_PlusLocalization,2021.2.3,59.9129035792163,
flag.wav,flag.mpg,flag,6,AV,Pink_Noise_6_1.wav,Pink_Noise_6_2.wav,,,,,,,,,,,,,,,0,1,1,114,,,,,,,,,,,,,,,,,,,,,,,110.0978794558905,None,111.5975485718809,None,112.98117177700624,None,"flag
",112.98117177700624,None,return,1.0201606419868767,113.06454501720145,None,,,,,,,,,,,,,,,,,,,,,,,,,,,,,,,,,,,,,,,75,001,2023_Apr_17_1421,SpeechDraft1Carolyn_lessNoise_PlusLocalization,2021.2.3,59.9129035792163,
camp.wav,camp.mpg,camp,2,A,Pink_Noise_2_1.wav,Pink_Noise_2_2.wav,,,,,,,,,,,,,,,0,2,2,24,,,,,,,,,,,,,,,,,,,,,,,114.11455483781174,None,115.61418292904273,None,116.99794915691018,None,kale,116.99794915691018,None,return,1.179535751696676,117.0812177779153,None,,,,,,,,,,,,,,,,,,,,,,,,,,,,,,,,,,,,,,,75,001,2023_Apr_17_1421,SpeechDraft1Carolyn_lessNoise_PlusLocalization,2021.2.3,59.9129035792163,
broad.wav,broad.mpg,broad,4,AV,Pink_Noise_4_1.wav,Pink_Noise_4_2.wav,,,,,,,,,,,,,,,0,3,3,111,,,,,,,,,,,,,,,,,,,,,,,118.28125657094643,None,119.78094596322626,None,121.16461196402088,None,rod,121.16461196402088,None,return,0.6128337290138006,121.24790535587817,None,,,,,,,,,,,,,,,,,,,,,,,,,,,,,,,,,,,,,,,75,001,2023_Apr_17_1421,SpeechDraft1Carolyn_lessNoise_PlusLocalization,2021.2.3,59.9129035792163,
tear.wav,tear.mpg,tear,6,A,Pink_Noise_6_1.wav,Pink_Noise_6_2.wav,,,,,,,,,,,,,,,0,4,4,36,,,,,,,,,,,,,,,,,,,,,,,121.88139336416498,None,123.38090400025249,None,124.76459981221706,None,"the feedback was too loud
",124.76459981221706,None,return,21.30068770283833,124.84801663924009,None,,,,,,,,,,,,,,,,,,,,,,,,,,,,,,,,,,,,,,,75,001,2023_Apr_17_1421,SpeechDraft1Carolyn_lessNoise_PlusLocalization,2021.2.3,59.9129035792163,
slush.wav,slush.mpg,slush,5,A,Pink_Noise_5_1.wav,Pink_Noise_5_2.wav,,,,,,,,,,,,,,,0,5,5,5,,,,,,,,,,,,,,,,,,,,,,,146.1812988561578,None,147.6809507762082,None,149.06460533384234,None,sash,149.06460533384234,None,return,1.6568334600888193,149.14795680483803,None,,,,,,,,,,,,,,,,,,,,,,,,,,,,,,,,,,,,,,,75,001,2023_Apr_17_1421,SpeechDraft1Carolyn_lessNoise_PlusLocalization,2021.2.3,59.9129035792163,
curse.wav,curse.mpg,curse,3,A,Pink_Noise_3_1.wav,Pink_Noise_3_2.wav,,,,,,,,,,,,,,,0,6,6,27,,,,,,,,,,,,,,,,,,,,,,,150.83128443406895,None,152.33094487292692,None,153.71463917195797,None,purse,153.71463917195797,None,return,1.262652955017984,153.79811071092263,None,,,,,,,,,,,,,,,,,,,,,,,,,,,,,,,,,,,,,,,75,001,2023_Apr_17_1421,SpeechDraft1Carolyn_lessNoise_PlusLocalization,2021.2.3,59.9129035792163,
blunt.wav,blunt.mpg,blunt,1,AV,Pink_Noise_1_1.wav,Pink_Noise_1_2.wav,,,,,,,,,,,,,,,0,7,7,66,,,,,,,,,,,,,,,,,,,,,,,155.08145524095744,None,156.58092817291617,None,157.9646090180613,None,blunt,157.9646090180613,None,return,1.9328267378732562,158.04798445897177,None,,,,,,,,,,,,,,,,,,,,,,,,,,,,,,,,,,,,,,,75,001,2023_Apr_17_1421,SpeechDraft1Carolyn_lessNoise_PlusLocalization,2021.2.3,59.9129035792163,
fit.wav,fit.mpg,fit,5,A,Pink_Noise_5_1.wav,Pink_Noise_5_2.wav,,,,,,,,,,,,,,,0,8,8,30,,,,,,,,,,,,,,,,,,,,,,,159.99793208623305,None,161.49767598323524,None,162.88139797002077,None,fit,162.88139797002077,None,return,1.0960213486105204,162.96469837008044,None,,,,,,,,,,,,,,,,,,,,,,,,,,,,,,,,,,,,,,,75,001,2023_Apr_17_1421,SpeechDraft1Carolyn_lessNoise_PlusLocalization,2021.2.3,59.9129035792163,
coast.wav,coast.mpg,coast,1,A,Pink_Noise_1_1.wav,Pink_Noise_1_2.wav,,,,,,,,,,,,,,,0,9,9,1,,,,,,,,,,,,,,,,,,,,,,,164.08130677603185,None,165.58114456012845,None,166.96484331414104,None,toast,166.96484331414104,None,return,0.8127119028940797,167.04800085397437,None,,,,,,,,,,,,,,,,,,,,,,,,,,,,,,,,,,,,,,,75,001,2023_Apr_17_1421,SpeechDraft1Carolyn_lessNoise_PlusLocalization,2021.2.3,59.9129035792163,
cow.wav,cow.mpg,cow,6,A,Pink_Noise_6_1.wav,Pink_Noise_6_2.wav,,,,,,,,,,,,,,,0,10,10,20,,,,,,,,,,,,,,,,,,,,,,,167.88133235881105,None,169.38117317622527,None,170.76473370101303,None,hi,170.76473370101303,None,return,2.5806762343272567,170.84803115623072,None,,,,,,,,,,,,,,,,,,,,,,,,,,,,,,,,,,,,,,,75,001,2023_Apr_17_1421,SpeechDraft1Carolyn_lessNoise_PlusLocalization,2021.2.3,59.9129035792163,
fly.wav,fly.mpg,fly,1,A,Pink_Noise_1_1.wav,Pink_Noise_1_2.wav,,,,,,,,,,,,,,,0,11,11,0,,,,,,,,,,,,,,,,,,,,,,,173.44797779014334,None,174.94791568582878,None,176.33141865208745,None,fly,176.33141865208745,None,return,1.0781087260693312,176.41459381300956,None,,,,,,,,,,,,,,,,,,,,,,,,,,,,,,,,,,,,,,,75,001,2023_Apr_17_1421,SpeechDraft1Carolyn_lessNoise_PlusLocalization,2021.2.3,59.9129035792163,
dock.wav,dock.mpg,dock,3,AV,Pink_Noise_3_1.wav,Pink_Noise_3_2.wav,,,,,,,,,,,,,,,0,12,12,108,,,,,,,,,,,,,,,,,,,,,,,177.51462255883962,None,179.01424339786172,None,180.39796751411632,None,duck,180.39796751411632,None,return,0.7712608478032053,180.4814459802583,None,,,,,,,,,,,,,,,,,,,,,,,,,,,,,,,,,,,,,,,75,001,2023_Apr_17_1421,SpeechDraft1Carolyn_lessNoise_PlusLocalization,2021.2.3,59.9129035792163,
bail.wav,bail.mpg,bail,5,AV,Pink_Noise_5_1.wav,Pink_Noise_5_2.wav,,,,,,,,,,,,,,,0,13,13,84,,,,,,,,,,,,,,,,,,,,,,,181.2813596529886,None,182.78096507303417,None,184.1645990102552,None,bear,184.1645990102552,None,return,2.0767055531032383,184.24798875721171,None,,,,,,,,,,,,,,,,,,,,,,,,,,,,,,,,,,,,,,,75,001,2023_Apr_17_1421,SpeechDraft1Carolyn_lessNoise_PlusLocalization,2021.2.3,59.9129035792163,
stuck.wav,stuck.mpg,stuck,3,AV,Pink_Noise_3_1.wav,Pink_Noise_3_2.wav,,,,,,,,,,,,,,,0,14,14,65,,,,,,,,,,,,,,,,,,,,,,,186.3479673420079,None,187.84766102582216,None,189.23130396427587,None,stuck,189.23130396427587,None,return,0.9140193089842796,189.31476088706404,None,,,,,,,,,,,,,,,,,,,,,,,,,,,,,,,,,,,,,,,75,001,2023_Apr_17_1421,SpeechDraft1Carolyn_lessNoise_PlusLocalization,2021.2.3,59.9129035792163,
traps.wav,traps.mpg,traps,5,AV,Pink_Noise_5_1.wav,Pink_Noise_5_2.wav,,,,,,,,,,,,,,,0,15,15,74,,,,,,,,,,,,,,,,,,,,,,,190.24805499706417,None,191.7476616310887,None,193.13130116090178,None,traps,193.13130116090178,None,return,1.2618083311244845,193.2148865852505,None,,,,,,,,,,,,,,,,,,,,,,,,,,,,,,,,,,,,,,,75,001,2023_Apr_17_1421,SpeechDraft1Carolyn_lessNoise_PlusLocalization,2021.2.3,59.9129035792163,
ton.wav,ton.mpg,ton,3,AV,Pink_Noise_3_1.wav,Pink_Noise_3_2.wav,,,,,,,,,,,,,,,0,16,16,88,,,,,,,,,,,,,,,,,,,,,,,194.49796466017142,None,195.99763161223382,None,197.38145928503945,None,ton,197.38145928503945,None,return,1.4598491950891912,197.4648504210636,None,,,,,,,,,,,,,,,,,,,,,,,,,,,,,,,,,,,,,,,75,001,2023_Apr_17_1421,SpeechDraft1Carolyn_lessNoise_PlusLocalization,2021.2.3,59.9129035792163,
peach.wav,peach.mpg,peach,2,AV,Pink_Noise_2_1.wav,Pink_Noise_2_2.wav,,,,,,,,,,,,,,,0,17,17,80,,,,,,,,,,,,,,,,,,,,,,,198.94802129315212,None,200.43303032405674,None,201.81460189493373,None,peach,201.81460189493373,None,return,0.6266372031532228,201.89806690998375,None,,,,,,,,,,,,,,,,,,,,,,,,,,,,,,,,,,,,,,,75,001,2023_Apr_17_1421,SpeechDraft1Carolyn_lessNoise_PlusLocalization,2021.2.3,59.9129035792163,
bare.wav,bare.mpg,bare,1,AV,Pink_Noise_1_1.wav,Pink_Noise_1_2.wav,,,,,,,,,,,,,,,0,18,18,107,,,,,,,,,,,,,,,,,,,,,,,202.54799705417827,None,204.04768722504377,None,205.43129076389596,None,bear,205.43129076389596,None,return,1.4500108831562102,205.51467879721895,None,,,,,,,,,,,,,,,,,,,,,,,,,,,,,,,,,,,,,,,75,001,2023_Apr_17_1421,SpeechDraft1Carolyn_lessNoise_PlusLocalization,2021.2.3,59.9129035792163,
layer.wav,layer.mpg,layer,4,A,Pink_Noise_4_1.wav,Pink_Noise_4_2.wav,,,,,,,,,,,,,,,0,19,19,12,,,,,,,,,,,,,,,,,,,,,,,206.98141426919028,None,208.48100715922192,None,209.86472572619095,None,player,209.86472572619095,None,return,1.0964919943362474,209.94829893298447,None,,,,,,,,,,,,,,,,,,,,,,,,,,,,,,,,,,,,,,,75,001,2023_Apr_17_1421,SpeechDraft1Carolyn_lessNoise_PlusLocalization,2021.2.3,59.9129035792163,
roar.wav,roar.mpg,roar,4,A,Pink_Noise_4_1.wav,Pink_Noise_4_2.wav,,,,,,,,,,,,,,,0,20,20,59,,,,,,,,,,,,,,,,,,,,,,,211.06467596115544,None,212.5643060891889,None,213.94800194213167,None,"your
",213.94800194213167,None,return,2.4693225556984544,214.03140528593212,None,,,,,,,,,,,,,,,,,,,,,,,,,,,,,,,,,,,,,,,75,001,2023_Apr_17_1421,SpeechDraft1Carolyn_lessNoise_PlusLocalization,2021.2.3,59.9129035792163,
climb.wav,climb.mpg,climb,6,A,Pink_Noise_6_1.wav,Pink_Noise_6_2.wav,,,,,,,,,,,,,,,0,21,21,17,,,,,,,,,,,,,,,,,,,,,,,216.531352867838,None,218.03101206198335,None,219.41466985689476,None,find,219.41466985689476,None,return,1.5147194927558303,219.49803367210552,None,,,,,,,,,,,,,,,,,,,,,,,,,,,,,,,,,,,,,,,75,001,2023_Apr_17_1421,SpeechDraft1Carolyn_lessNoise_PlusLocalization,2021.2.3,59.9129035792163,
else.wav,else.mpg,else,6,A,Pink_Noise_6_1.wav,Pink_Noise_6_2.wav,,,,,,,,,,,,,,,0,22,22,45,,,,,,,,,,,,,,,,,,,,,,,221.03146848687902,None,222.53098653815687,None,223.914731815923,None,hug,223.914731815923,None,return,1.790703632403165,223.99803894991055,None,,,,,,,,,,,,,,,,,,,,,,,,,,,,,,,,,,,,,,,75,001,2023_Apr_17_1421,SpeechDraft1Carolyn_lessNoise_PlusLocalization,2021.2.3,59.9129035792163,
lost.wav,lost.mpg,lost,6,AV,Pink_Noise_6_1.wav,Pink_Noise_6_2.wav,,,,,,,,,,,,,,,0,23,23,85,,,,,,,,,,,,,,,,,,,,,,,225.8147752052173,None,227.31434176210314,None,228.69805901497602,None,lost,228.69805901497602,None,return,0.5272722830995917,228.78141149319708,None,,,,,,,,,,,,,,,,,,,,,,,,,,,,,,,,,,,,,,,75,001,2023_Apr_17_1421,SpeechDraft1Carolyn_lessNoise_PlusLocalization,2021.2.3,59.9129035792163,
clog.wav,clog.mpg,clog,3,AV,Pink_Noise_3_1.wav,Pink_Noise_3_2.wav,,,,,,,,,,,,,,,0,24,24,90,,,,,,,,,,,,,,,,,,,,,,,229.3313820878975,None,230.8312597218901,None,232.2146710762754,None,clog,232.2146710762754,None,return,3.6987311001867056,232.29803794296458,None,,,,,,,,,,,,,,,,,,,,,,,,,,,,,,,,,,,,,,,75,001,2023_Apr_17_1421,SpeechDraft1Carolyn_lessNoise_PlusLocalization,2021.2.3,59.9129035792163,
gap.wav,gap.mpg,gap,4,AV,Pink_Noise_4_1.wav,Pink_Noise_4_2.wav,,,,,,,,,,,,,,,0,25,25,92,,,,,,,,,,,,,,,,,,,,,,,236.01478489721194,None,237.53105269791558,None,238.91473406227306,None,gap,238.91473406227306,None,return,1.0945736640132964,238.99811156000942,None,,,,,,,,,,,,,,,,,,,,,,,,,,,,,,,,,,,,,,,75,001,2023_Apr_17_1421,SpeechDraft1Carolyn_lessNoise_PlusLocalization,2021.2.3,59.9129035792163,
deem.wav,deem.mpg,deem,6,A,Pink_Noise_6_1.wav,Pink_Noise_6_2.wav,,,,,,,,,,,,,,,0,26,26,55,,,,,,,,,,,,,,,,,,,,,,,240.11481540091336,None,241.61461698217317,None,242.99818617012352,None,dream,242.99818617012352,None,return,1.6592558394186199,243.08143749507144,None,,,,,,,,,,,,,,,,,,,,,,,,,,,,,,,,,,,,,,,75,001,2023_Apr_17_1421,SpeechDraft1Carolyn_lessNoise_PlusLocalization,2021.2.3,59.9129035792163,
mass.wav,mass.mpg,mass,4,AV,Pink_Noise_4_1.wav,Pink_Noise_4_2.wav,,,,,,,,,,,,,,,0,27,27,115,,,,,,,,,,,,,,,,,,,,,,,244.76474176812917,None,246.26454157521948,None,247.64797199191526,None,mess,247.64797199191526,None,return,1.3613058747723699,247.73143142927438,None,,,,,,,,,,,,,,,,,,,,,,,,,,,,,,,,,,,,,,,75,001,2023_Apr_17_1421,SpeechDraft1Carolyn_lessNoise_PlusLocalization,2021.2.3,59.9129035792163,
bald.wav,bald.mpg,bald,5,AV,Pink_Noise_5_1.wav,Pink_Noise_5_2.wav,,,,,,,,,,,,,,,0,28,28,64,,,,,,,,,,,,,,,,,,,,,,,249.11492479825392,None,250.61459947098047,None,251.99803259503096,None,ball,251.99803259503096,None,return,0.6832951051183045,252.08146964898333,None,,,,,,,,,,,,,,,,,,,,,,,,,,,,,,,,,,,,,,,75,001,2023_Apr_17_1421,SpeechDraft1Carolyn_lessNoise_PlusLocalization,2021.2.3,59.9129035792163,
flea.wav,flea.mpg,flea,2,A,Pink_Noise_2_1.wav,Pink_Noise_2_2.wav,,,,,,,,,,,,,,,0,29,29,7,,,,,,,,,,,,,,,,,,,,,,,252.7814121968113,None,254.281052517239,None,255.6649244739674,None,flie,255.6649244739674,None,return,3.7286277571693063,255.74808045104146,None,,,,,,,,,,,,,,,,,,,,,,,,,,,,,,,,,,,,,,,75,001,2023_Apr_17_1421,SpeechDraft1Carolyn_lessNoise_PlusLocalization,2021.2.3,59.9129035792163,
groom.wav,groom.mpg,groom,5,A,Pink_Noise_5_1.wav,Pink_Noise_5_2.wav,,,,,,,,,,,,,,,0,30,30,35,,,,,,,,,,,,,,,,,,,,,,,259.4981992030516,None,260.9977658400312,None,262.3815274871886,None,dress,262.3815274871886,None,return,1.9800168932415545,262.46475451113656,None,,,,,,,,,,,,,,,,,,,,,,,,,,,,,,,,,,,,,,,75,001,2023_Apr_17_1421,SpeechDraft1Carolyn_lessNoise_PlusLocalization,2021.2.3,59.9129035792163,
glide.wav,glide.mpg,glide,2,A,Pink_Noise_2_1.wav,Pink_Noise_2_2.wav,,,,,,,,,,,,,,,0,31,31,3,,,,,,,,,,,,,,,,,,,,,,,264.46482023689896,None,265.96445954125375,None,267.34818504191935,None,glide,267.34818504191935,None,return,1.7894292529672384,267.43141519324854,None,,,,,,,,,,,,,,,,,,,,,,,,,,,,,,,,,,,,,,,75,001,2023_Apr_17_1421,SpeechDraft1Carolyn_lessNoise_PlusLocalization,2021.2.3,59.9129035792163,
doll.wav,doll.mpg,doll,5,A,Pink_Noise_5_1.wav,Pink_Noise_5_2.wav,,,,,,,,,,,,,,,0,32,32,56,,,,,,,,,,,,,,,,,,,,,,,269.24853332992643,None,270.76446659490466,None,272.1482141511515,None,die,272.1482141511515,None,return,0.493185818195343,272.2315073842183,None,,,,,,,,,,,,,,,,,,,,,,,,,,,,,,,,,,,,,,,75,001,2023_Apr_17_1421,SpeechDraft1Carolyn_lessNoise_PlusLocalization,2021.2.3,59.9129035792163,
gloom.wav,gloom.mpg,gloom,4,AV,Pink_Noise_4_1.wav,Pink_Noise_4_2.wav,,,,,,,,,,,,,,,0,33,33,63,,,,,,,,,,,,,,,,,,,,,,,272.7481486769393,None,274.2479257248342,None,275.63174308883026,None,glue,275.63174308883026,None,return,1.1220843340270221,275.7147653279826,None,,,,,,,,,,,,,,,,,,,,,,,,,,,,,,,,,,,,,,,75,001,2023_Apr_17_1421,SpeechDraft1Carolyn_lessNoise_PlusLocalization,2021.2.3,59.9129035792163,
flu.wav,flu.mpg,flu,2,AV,Pink_Noise_2_1.wav,Pink_Noise_2_2.wav,,,,,,,,,,,,,,,0,34,34,100,,,,,,,,,,,,,,,,,,,,,,,276.864914868027,None,278.3645367771387,None,279.74807753786445,None,"flew
",279.74807753786445,None,return,1.2212972021661699,279.8314658519812,None,,,,,,,,,,,,,,,,,,,,,,,,,,,,,,,,,,,,,,,75,001,2023_Apr_17_1421,SpeechDraft1Carolyn_lessNoise_PlusLocalization,2021.2.3,59.9129035792163,
chill.wav,chill.mpg,chill,1,AV,Pink_Noise_1_1.wav,Pink_Noise_1_2.wav,,,,,,,,,,,,,,,0,35,35,99,,,,,,,,,,,,,,,,,,,,,,,281.08192467922345,None,282.5812242231332,None,283.96484029712155,None,chill,283.96484029712155,None,return,1.2605063980445266,284.048186997883,None,,,,,,,,,,,,,,,,,,,,,,,,,,,,,,,,,,,,,,,75,001,2023_Apr_17_1421,SpeechDraft1Carolyn_lessNoise_PlusLocalization,2021.2.3,59.9129035792163,
gas.wav,gas.mpg,gas,3,AV,Pink_Noise_3_1.wav,Pink_Noise_3_2.wav,,,,,,,,,,,,,,,0,36,36,81,,,,,,,,,,,,,,,,,,,,,,,285.33157740021124,None,286.83121507707983,None,288.2147801150568,None,guess,288.2147801150568,None,return,0.9785782448016107,288.2981450580992,None,,,,,,,,,,,,,,,,,,,,,,,,,,,,,,,,,,,,,,,75,001,2023_Apr_17_1421,SpeechDraft1Carolyn_lessNoise_PlusLocalization,2021.2.3,59.9129035792163,
blue.wav,blue.mpg,blue,1,A,Pink_Noise_1_1.wav,Pink_Noise_1_2.wav,,,,,,,,,,,,,,,0,37,37,6,,,,,,,,,,,,,,,,,,,,,,,289.2982098371722,None,290.79794557299465,None,292.18153352616355,None,blue,292.18153352616355,None,return,0.8038836708292365,292.26482278620824,None,,,,,,,,,,,,,,,,,,,,,,,,,,,,,,,,,,,,,,,75,001,2023_Apr_17_1421,SpeechDraft1Carolyn_lessNoise_PlusLocalization,2021.2.3,59.9129035792163,
chase.wav,chase.mpg,chase,4,AV,Pink_Noise_4_1.wav,Pink_Noise_4_2.wav,,,,,,,,,,,,,,,0,38,38,117,,,,,,,,,,,,,,,,,,,,,,,293.0981890410185,None,294.5977782541886,None,295.98159987386316,None,chase,295.98159987386316,None,return,1.156045459676534,296.06480474723503,None,,,,,,,,,,,,,,,,,,,,,,,,,,,,,,,,,,,,,,,75,001,2023_Apr_17_1421,SpeechDraft1Carolyn_lessNoise_PlusLocalization,2021.2.3,59.9129035792163,
game.wav,game.mpg,game,4,A,Pink_Noise_4_1.wav,Pink_Noise_4_2.wav,,,,,,,,,,,,,,,0,39,39,51,,,,,,,,,,,,,,,,,,,,,,,297.24813233315945,None,298.74777573207393,None,300.1315183788538,None,gay,300.1315183788538,None,return,1.8537157489918172,300.2149937902577,None,,,,,,,,,,,,,,,,,,,,,,,,,,,,,,,,,,,,,,,75,001,2023_Apr_17_1421,SpeechDraft1Carolyn_lessNoise_PlusLocalization,2021.2.3,59.9129035792163,
gush.wav,gush.mpg,gush,2,A,Pink_Noise_2_1.wav,Pink_Noise_2_2.wav,,,,,,,,,,,,,,,0,40,40,43,,,,,,,,,,,,,,,,,,,,,,,302.0982378642075,None,303.59802199015394,None,304.98170416010544,None,gush,304.98170416010544,None,return,0.7799900518730283,305.0648426832631,None,,,,,,,,,,,,,,,,,,,,,,,,,,,,,,,,,,,,,,,75,001,2023_Apr_17_1421,SpeechDraft1Carolyn_lessNoise_PlusLocalization,2021.2.3,59.9129035792163,
stain.wav,stain.mpg,stain,5,A,Pink_Noise_5_1.wav,Pink_Noise_5_2.wav,,,,,,,,,,,,,,,0,41,41,47,,,,,,,,,,,,,,,,,,,,,,,305.8648077920079,None,307.36449807696044,None,308.74821426719427,None,"stay
",308.74821426719427,None,return,0.9012016719207168,308.83150821598247,None,,,,,,,,,,,,,,,,,,,,,,,,,,,,,,,,,,,,,,,75,001,2023_Apr_17_1421,SpeechDraft1Carolyn_lessNoise_PlusLocalization,2021.2.3,59.9129035792163,
clam.wav,clam.mpg,clam,2,A,Pink_Noise_2_1.wav,Pink_Noise_2_2.wav,,,,,,,,,,,,,,,0,42,42,10,,,,,,,,,,,,,,,,,,,,,,,309.76477899216115,None,311.26448087207973,None,312.6482770079747,None,"clam
",312.6482770079747,None,return,1.5851052361540496,312.7316021588631,None,,,,,,,,,,,,,,,,,,,,,,,,,,,,,,,,,,,,,,,75,001,2023_Apr_17_1421,SpeechDraft1Carolyn_lessNoise_PlusLocalization,2021.2.3,59.9129035792163,
bay.wav,bay.mpg,bay,5,AV,Pink_Noise_5_1.wav,Pink_Noise_5_2.wav,,,,,,,,,,,,,,,0,43,43,62,,,,,,,,,,,,,,,,,,,,,,,314.34850734705105,None,315.84792892215773,None,317.23137996997684,None,bay,317.23137996997684,None,return,2.2978205289691687,317.3148868549615,None,,,,,,,,,,,,,,,,,,,,,,,,,,,,,,,,,,,,,,,75,001,2023_Apr_17_1421,SpeechDraft1Carolyn_lessNoise_PlusLocalization,2021.2.3,59.9129035792163,
pike.wav,pike.mpg,pike,3,A,Pink_Noise_3_1.wav,Pink_Noise_3_2.wav,,,,,,,,,,,,,,,0,44,44,41,,,,,,,,,,,,,,,,,,,,,,,319.6315549351275,None,321.13132340926677,None,322.5148396738805,None,"pike
",322.5148396738805,None,return,1.2704838011413813,322.5982092060149,None,,,,,,,,,,,,,,,,,,,,,,,,,,,,,,,,,,,,,,,75,001,2023_Apr_17_1421,SpeechDraft1Carolyn_lessNoise_PlusLocalization,2021.2.3,59.9129035792163,
gag.wav,gag.mpg,gag,4,AV,Pink_Noise_4_1.wav,Pink_Noise_4_2.wav,,,,,,,,,,,,,,,0,45,45,82,,,,,,,,,,,,,,,,,,,,,,,323.89814912714064,None,325.39796805614606,None,326.7816196461208,None,gag,326.7816196461208,None,return,1.4998994912020862,326.86486058682203,None,,,,,,,,,,,,,,,,,,,,,,,,,,,,,,,,,,,,,,,75,001,2023_Apr_17_1421,SpeechDraft1Carolyn_lessNoise_PlusLocalization,2021.2.3,59.9129035792163,
cork.wav,cork.mpg,cork,3,A,Pink_Noise_3_1.wav,Pink_Noise_3_2.wav,,,,,,,,,,,,,,,0,46,46,33,,,,,,,,,,,,,,,,,,,,,,,328.3815145441331,None,329.8815403180197,None,331.26490625506267,None,"cork
",331.26490625506267,None,return,1.1845543440431356,331.34815699094906,None,,,,,,,,,,,,,,,,,,,,,,,,,,,,,,,,,,,,,,,75,001,2023_Apr_17_1421,SpeechDraft1Carolyn_lessNoise_PlusLocalization,2021.2.3,59.9129035792163,
badge.wav,badge.mpg,badge,6,AV,Pink_Noise_6_1.wav,Pink_Noise_6_2.wav,,,,,,,,,,,,,,,0,47,47,69,,,,,,,,,,,,,,,,,,,,,,,332.56499887118116,None,334.0647538760677,None,335.4481713050045,None,bash,335.4481713050045,None,return,0.5451542101800442,335.5315560279414,None,,,,,,,,,,,,,,,,,,,,,,,,,,,,,,,,,,,,,,,75,001,2023_Apr_17_1421,SpeechDraft1Carolyn_lessNoise_PlusLocalization,2021.2.3,59.9129035792163,
claw.wav,claw.mpg,claw,6,AV,Pink_Noise_6_1.wav,Pink_Noise_6_2.wav,,,,,,,,,,,,,,,0,48,48,105,,,,,,,,,,,,,,,,,,,,,,,336.09820893313736,None,337.59790926100686,None,338.98148677125573,None,law,338.98148677125573,None,return,1.227710054256022,339.0650390922092,None,,,,,,,,,,,,,,,,,,,,,,,,,,,,,,,,,,,,,,,75,001,2023_Apr_17_1421,SpeechDraft1Carolyn_lessNoise_PlusLocalization,2021.2.3,59.9129035792163,
leapt.wav,leapt.mpg,leapt,6,A,Pink_Noise_6_1.wav,Pink_Noise_6_2.wav,,,,,,,,,,,,,,,0,49,49,32,,,,,,,,,,,,,,,,,,,,,,,340.31492039281875,None,341.8145951689221,None,343.19823688222095,None,slut,343.19823688222095,None,return,3.7311910991556942,343.28152407426387,None,,,,,,,,,,,,,,,,,,,,,,,,,,,,,,,,,,,,,,,75,001,2023_Apr_17_1421,SpeechDraft1Carolyn_lessNoise_PlusLocalization,2021.2.3,59.9129035792163,
ease.wav,ease.mpg,ease,3,A,Pink_Noise_3_1.wav,Pink_Noise_3_2.wav,,,,,,,,,,,,,,,0,50,50,15,,,,,,,,,,,,,,,,,,,,,,,347.03162325406447,None,348.5312033430673,None,349.9149886169471,None,ease,349.9149886169471,None,return,0.8063312247395515,349.99847946921363,None,,,,,,,,,,,,,,,,,,,,,,,,,,,,,,,,,,,,,,,75,001,2023_Apr_17_1421,SpeechDraft1Carolyn_lessNoise_PlusLocalization,2021.2.3,59.9129035792163,
fat.wav,fat.mpg,fat,4,A,Pink_Noise_4_1.wav,Pink_Noise_4_2.wav,,,,,,,,,,,,,,,0,51,51,46,,,,,,,,,,,,,,,,,,,,,,,350.83166915224865,None,352.3311976469122,None,353.7149794572033,None,"pet
",353.7149794572033,None,return,2.1024439739994705,353.7982617779635,None,,,,,,,,,,,,,,,,,,,,,,,,,,,,,,,,,,,,,,,75,001,2023_Apr_17_1421,SpeechDraft1Carolyn_lessNoise_PlusLocalization,2021.2.3,59.9129035792163,
hit.wav,hit.mpg,hit,6,AV,Pink_Noise_6_1.wav,Pink_Noise_6_2.wav,,,,,,,,,,,,,,,0,52,52,78,,,,,,,,,,,,,,,,,,,,,,,355.9315657000989,None,357.43124544620514,None,358.81487764790654,None,"hit
",358.81487764790654,None,return,0.58640669984743,358.8983062040061,None,,,,,,,,,,,,,,,,,,,,,,,,,,,,,,,,,,,,,,,75,001,2023_Apr_17_1421,SpeechDraft1Carolyn_lessNoise_PlusLocalization,2021.2.3,59.9129035792163,
cough.wav,cough.mpg,cough,6,AV,Pink_Noise_6_1.wav,Pink_Noise_6_2.wav,,,,,,,,,,,,,,,0,53,53,101,,,,,,,,,,,,,,,,,,,,,,,359.51493926811963,None,361.01481324387714,None,362.3982632798143,None,cough,362.3982632798143,None,return,1.4111250531859696,362.48161648306996,None,,,,,,,,,,,,,,,,,,,,,,,,,,,,,,,,,,,,,,,75,001,2023_Apr_17_1421,SpeechDraft1Carolyn_lessNoise_PlusLocalization,2021.2.3,59.9129035792163,
crow.wav,crow.mpg,crow,1,AV,Pink_Noise_1_1.wav,Pink_Noise_1_2.wav,,,,,,,,,,,,,,,0,54,54,104,,,,,,,,,,,,,,,,,,,,,,,363.91494545014575,None,365.4145751418546,None,366.7982731992379,None,crow,366.7982731992379,None,return,1.259125151205808,366.8816169560887,None,,,,,,,,,,,,,,,,,,,,,,,,,,,,,,,,,,,,,,,75,001,2023_Apr_17_1421,SpeechDraft1Carolyn_lessNoise_PlusLocalization,2021.2.3,59.9129035792163,
glue.wav,glue.mpg,glue,2,A,Pink_Noise_2_1.wav,Pink_Noise_2_2.wav,,,,,,,,,,,,,,,0,55,55,38,,,,,,,,,,,,,,,,,,,,,,,368.1650178488344,None,369.664544402156,None,371.04838245688006,None,"glue
",371.04838245688006,None,return,2.4169114870019257,371.1317858970724,None,,,,,,,,,,,,,,,,,,,,,,,,,,,,,,,,,,,,,,,75,001,2023_Apr_17_1421,SpeechDraft1Carolyn_lessNoise_PlusLocalization,2021.2.3,59.9129035792163,
cube.wav,cube.mpg,cube,4,A,Pink_Noise_4_1.wav,Pink_Noise_4_2.wav,,,,,,,,,,,,,,,0,56,56,48,,,,,,,,,,,,,,,,,,,,,,,373.581608325243,None,375.0812870520167,None,376.4649322121404,None,choose,376.4649322121404,None,return,2.0644494793377817,376.548266782891,None,,,,,,,,,,,,,,,,,,,,,,,,,,,,,,,,,,,,,,,75,001,2023_Apr_17_1421,SpeechDraft1Carolyn_lessNoise_PlusLocalization,2021.2.3,59.9129035792163,
pledge.wav,pledge.mpg,pledge,6,A,Pink_Noise_6_1.wav,Pink_Noise_6_2.wav,,,,,,,,,,,,,,,0,57,57,44,,,,,,,,,,,,,,,,,,,,,,,378.63163438392803,None,380.1311490298249,None,381.51506145624444,None,fudge,381.51506145624444,None,return,2.214362018276006,381.5983365820721,None,,,,,,,,,,,,,,,,,,,,,,,,,,,,,,,,,,,,,,,75,001,2023_Apr_17_1421,SpeechDraft1Carolyn_lessNoise_PlusLocalization,2021.2.3,59.9129035792163,
unit.wav,unit.mpg,unit,5,AV,Pink_Noise_5_1.wav,Pink_Noise_5_2.wav,,,,,,,,,,,,,,,0,58,58,96,,,,,,,,,,,,,,,,,,,,,,,383.83164851600304,None,385.3317650221288,None,386.7149862428196,None,do it,386.7149862428196,None,return,5.478445859160274,386.79829095397145,None,,,,,,,,,,,,,,,,,,,,,,,,,,,,,,,,,,,,,,,75,001,2023_Apr_17_1421,SpeechDraft1Carolyn_lessNoise_PlusLocalization,2021.2.3,59.9129035792163,
float.wav,float.mpg,float,3,AV,Pink_Noise_3_1.wav,Pink_Noise_3_2.wav,,,,,,,,,,,,,,,0,59,59,83,,,,,,,,,,,,,,,,,,,,,,,392.29829732887447,None,393.814664834179,None,395.1982495551929,None,"float
",395.1982495551929,None,return,1.00303787086159,395.28167885215953,None,,,,,,,,,,,,,,,,,,,,,,,,,,,,,,,,,,,,,,,75,001,2023_Apr_17_1421,SpeechDraft1Carolyn_lessNoise_PlusLocalization,2021.2.3,59.9129035792163,
shed.wav,shed.mpg,shed,5,AV,Pink_Noise_5_1.wav,Pink_Noise_5_2.wav,,,,,,,,,,,,,,,0,60,60,109,,,,,,,,,,,,,,,,,,,,,,,396.3149719419889,None,397.81474527111277,None,399.1983302459121,None,change,399.1983302459121,None,return,2.0430370126850903,399.28162923501804,None,,,,,,,,,,,,,,,,,,,,,,,,,,,,,,,,,,,,,,,75,001,2023_Apr_17_1421,SpeechDraft1Carolyn_lessNoise_PlusLocalization,2021.2.3,59.9129035792163,
shut.wav,shut.mpg,shut,5,AV,Pink_Noise_5_1.wav,Pink_Noise_5_2.wav,,,,,,,,,,,,,,,0,61,61,119,,,,,,,,,,,,,,,,,,,,,,,401.34828923782334,None,402.8480149260722,None,404.2316388520412,None,"shut
",404.2316388520412,None,return,1.0016047861427069,404.31510302983224,None,,,,,,,,,,,,,,,,,,,,,,,,,,,,,,,,,,,,,,,75,001,2023_Apr_17_1421,SpeechDraft1Carolyn_lessNoise_PlusLocalization,2021.2.3,59.9129035792163,
gate.wav,gate.mpg,gate,5,AV,Pink_Noise_5_1.wav,Pink_Noise_5_2.wav,,,,,,,,,,,,,,,0,62,62,110,,,,,,,,,,,,,,,,,,,,,,,405.3483372088522,None,406.8480249820277,None,408.2316758260131,None,gate,408.2316758260131,None,return,1.2498111799359322,408.314962037839,None,,,,,,,,,,,,,,,,,,,,,,,,,,,,,,,,,,,,,,,75,001,2023_Apr_17_1421,SpeechDraft1Carolyn_lessNoise_PlusLocalization,2021.2.3,59.9129035792163,
chick.wav,chick.mpg,chick,2,AV,Pink_Noise_2_1.wav,Pink_Noise_2_2.wav,,,,,,,,,,,,,,,0,63,63,86,,,,,,,,,,,,,,,,,,,,,,,409.58167002815753,None,411.08139424212277,None,412.4649389209226,None,chick,412.4649389209226,None,return,0.864362568128854,412.54833087697625,None,,,,,,,,,,,,,,,,,,,,,,,,,,,,,,,,,,,,,,,75,001,2023_Apr_17_1421,SpeechDraft1Carolyn_lessNoise_PlusLocalization,2021.2.3,59.9129035792163,
tank.wav,tank.mpg,tank,6,A,Pink_Noise_6_1.wav,Pink_Noise_6_2.wav,,,,,,,,,,,,,,,0,64,64,18,,,,,,,,,,,,,,,,,,,,,,,413.4316639318131,None,414.9316458948888,None,416.3151170811616,None,slut,416.3151170811616,None,return,1.1263991948217154,416.3982947268523,None,,,,,,,,,,,,,,,,,,,,,,,,,,,,,,,,,,,,,,,75,001,2023_Apr_17_1421,SpeechDraft1Carolyn_lessNoise_PlusLocalization,2021.2.3,59.9129035792163,
news.wav,news.mpg,news,4,A,Pink_Noise_4_1.wav,Pink_Noise_4_2.wav,,,,,,,,,,,,,,,0,65,65,28,,,,,,,,,,,,,,,,,,,,,,,417.5483571132645,None,419.0479285819456,None,420.4316586689092,None,news,420.4316586689092,None,return,0.7777036866173148,420.51502626016736,None,,,,,,,,,,,,,,,,,,,,,,,,,,,,,,,,,,,,,,,75,001,2023_Apr_17_1421,SpeechDraft1Carolyn_lessNoise_PlusLocalization,2021.2.3,59.9129035792163,
drug.wav,drug.mpg,drug,4,AV,Pink_Noise_4_1.wav,Pink_Noise_4_2.wav,,,,,,,,,,,,,,,0,66,66,93,,,,,,,,,,,,,,,,,,,,,,,421.3150131488219,None,422.81466117687523,None,424.1982270181179,None,drug,424.1982270181179,None,return,0.5870092930272222,424.28168971603736,None,,,,,,,,,,,,,,,,,,,,,,,,,,,,,,,,,,,,,,,75,001,2023_Apr_17_1421,SpeechDraft1Carolyn_lessNoise_PlusLocalization,2021.2.3,59.9129035792163,
boil.wav,boil.mpg,boil,4,AV,Pink_Noise_4_1.wav,Pink_Noise_4_2.wav,,,,,,,,,,,,,,,0,67,67,106,,,,,,,,,,,,,,,,,,,,,,,424.8983322279528,None,426.3980791978538,None,427.78189600398764,None,"boil
",427.78189600398764,None,return,2.267551135737449,427.8651526188478,None,,,,,,,,,,,,,,,,,,,,,,,,,,,,,,,,,,,,,,,75,001,2023_Apr_17_1421,SpeechDraft1Carolyn_lessNoise_PlusLocalization,2021.2.3,59.9129035792163,
read.wav,read.mpg,read,2,AV,Pink_Noise_2_1.wav,Pink_Noise_2_2.wav,,,,,,,,,,,,,,,0,68,68,112,,,,,,,,,,,,,,,,,,,,,,,430.1650888621807,None,431.664728295058,None,433.0483036399819,None,read,433.0483036399819,None,return,0.6491532847285271,433.13160749711096,None,,,,,,,,,,,,,,,,,,,,,,,,,,,,,,,,,,,,,,,75,001,2023_Apr_17_1421,SpeechDraft1Carolyn_lessNoise_PlusLocalization,2021.2.3,59.9129035792163,
strike.wav,strike.mpg,strike,1,AV,Pink_Noise_1_1.wav,Pink_Noise_1_2.wav,,,,,,,,,,,,,,,0,69,69,102,,,,,,,,,,,,,,,,,,,,,,,433.79832695191726,None,435.2981037599966,None,436.6980660529807,None,strike,436.6980660529807,None,return,1.8309926153160632,436.78171341726556,None,,,,,,,,,,,,,,,,,,,,,,,,,,,,,,,,,,,,,,,75,001,2023_Apr_17_1421,SpeechDraft1Carolyn_lessNoise_PlusLocalization,2021.2.3,59.9129035792163,
nine.wav,nine.mpg,nine,1,A,Pink_Noise_1_1.wav,Pink_Noise_1_2.wav,,,,,,,,,,,,,,,0,70,70,52,,,,,,,,,,,,,,,,,,,,,,,438.63182193087414,None,440.13153706490993,None,441.51497567724437,None,neigh,441.51497567724437,None,return,4.310250198934227,441.5984459100291,None,,,,,,,,,,,,,,,,,,,,,,,,,,,,,,,,,,,,,,,75,001,2023_Apr_17_1421,SpeechDraft1Carolyn_lessNoise_PlusLocalization,2021.2.3,59.9129035792163,
gym.wav,gym.mpg,gym,6,AV,Pink_Noise_6_1.wav,Pink_Noise_6_2.wav,,,,,,,,,,,,,,,0,71,71,103,,,,,,,,,,,,,,,,,,,,,,,445.9317288431339,None,447.4315214608796,None,448.81522302515805,None,gyn,448.81522302515805,None,return,1.8905019517987967,448.8983826311305,None,,,,,,,,,,,,,,,,,,,,,,,,,,,,,,,,,,,,,,,75,001,2023_Apr_17_1421,SpeechDraft1Carolyn_lessNoise_PlusLocalization,2021.2.3,59.9129035792163,
fun.wav,fun.mpg,fun,2,A,Pink_Noise_2_1.wav,Pink_Noise_2_2.wav,,,,,,,,,,,,,,,0,72,72,57,,,,,,,,,,,,,,,,,,,,,,,450.8150689569302,None,452.31467073084787,None,453.69836424198,None,fun,453.69836424198,None,return,0.8072037347592413,453.78167592920363,None,,,,,,,,,,,,,,,,,,,,,,,,,,,,,,,,,,,,,,,75,001,2023_Apr_17_1421,SpeechDraft1Carolyn_lessNoise_PlusLocalization,2021.2.3,59.9129035792163,
frame.wav,frame.mpg,frame,3,A,Pink_Noise_3_1.wav,Pink_Noise_3_2.wav,,,,,,,,,,,,,,,0,73,73,34,,,,,,,,,,,,,,,,,,,,,,,454.6150060109794,None,456.1146335802041,None,457.4984063929878,None,"fame
",457.4984063929878,None,return,0.9510174267925322,457.58169188024476,None,,,,,,,,,,,,,,,,,,,,,,,,,,,,,,,,,,,,,,,75,001,2023_Apr_17_1421,SpeechDraft1Carolyn_lessNoise_PlusLocalization,2021.2.3,59.9129035792163,
fuel.wav,fuel.mpg,fuel,3,AV,Pink_Noise_3_1.wav,Pink_Noise_3_2.wav,,,,,,,,,,,,,,,0,74,74,60,,,,,,,,,,,,,,,,,,,,,,,458.5651903739199,None,460.06480624713004,None,461.4483590349555,None,fuel,461.4483590349555,None,return,1.7609167248010635,461.53179063415155,None,,,,,,,,,,,,,,,,,,,,,,,,,,,,,,,,,,,,,,,75,001,2023_Apr_17_1421,SpeechDraft1Carolyn_lessNoise_PlusLocalization,2021.2.3,59.9129035792163,
cash.wav,cash.mpg,cash,2,A,Pink_Noise_2_1.wav,Pink_Noise_2_2.wav,,,,,,,,,,,,,,,0,75,75,40,,,,,,,,,,,,,,,,,,,,,,,463.31509106606245,None,464.8148757419549,None,466.19853703305125,None,"cash
",466.19853703305125,None,return,0.6189605416730046,466.28174774115905,None,,,,,,,,,,,,,,,,,,,,,,,,,,,,,,,,,,,,,,,75,001,2023_Apr_17_1421,SpeechDraft1Carolyn_lessNoise_PlusLocalization,2021.2.3,59.9129035792163,
beige.wav,beige.mpg,beige,2,AV,Pink_Noise_2_1.wav,Pink_Noise_2_2.wav,,,,,,,,,,,,,,,0,76,76,67,,,,,,,,,,,,,,,,,,,,,,,466.93182303896174,None,468.4314170111902,None,469.8149868589826,None,"beige
",469.8149868589826,None,return,1.402289074845612,469.8984095058404,None,,,,,,,,,,,,,,,,,,,,,,,,,,,,,,,,,,,,,,,75,001,2023_Apr_17_1421,SpeechDraft1Carolyn_lessNoise_PlusLocalization,2021.2.3,59.9129035792163,
glove.wav,glove.mpg,glove,4,A,Pink_Noise_4_1.wav,Pink_Noise_4_2.wav,,,,,,,,,,,,,,,0,77,77,22,,,,,,,,,,,,,,,,,,,,,,,471.3317405069247,None,472.83141282806173,None,474.21508398791775,None,glove,474.21508398791775,None,return,1.938269654288888,474.29844175605103,None,,,,,,,,,,,,,,,,,,,,,,,,,,,,,,,,,,,,,,,75,001,2023_Apr_17_1421,SpeechDraft1Carolyn_lessNoise_PlusLocalization,2021.2.3,59.9129035792163,
gut.wav,gut.mpg,gut,5,A,Pink_Noise_5_1.wav,Pink_Noise_5_2.wav,,,,,,,,,,,,,,,0,78,78,9,,,,,,,,,,,,,,,,,,,,,,,476.2651317040436,None,477.7814262281172,None,479.1651042299345,None,"gut
",479.1651042299345,None,return,0.6682766182348132,479.2484190571122,None,,,,,,,,,,,,,,,,,,,,,,,,,,,,,,,,,,,,,,,75,001,2023_Apr_17_1421,SpeechDraft1Carolyn_lessNoise_PlusLocalization,2021.2.3,59.9129035792163,
weep.wav,weep.mpg,weep,1,A,Pink_Noise_1_1.wav,Pink_Noise_1_2.wav,,,,,,,,,,,,,,,0,79,79,4,,,,,,,,,,,,,,,,,,,,,,,479.9484182172455,None,481.4481074749492,None,482.8318593930453,None,weak,482.8318593930453,None,return,0.9057848188094795,482.9151043649763,None,,,,,,,,,,,,,,,,,,,,,,,,,,,,,,,,,,,,,,,75,001,2023_Apr_17_1421,SpeechDraft1Carolyn_lessNoise_PlusLocalization,2021.2.3,59.9129035792163,
carve.wav,carve.mpg,carve,5,AV,Pink_Noise_5_1.wav,Pink_Noise_5_2.wav,,,,,,,,,,,,,,,0,80,80,95,,,,,,,,,,,,,,,,,,,,,,,483.8484731488861,None,485.34811031026766,None,486.73165707383305,None,carve,486.73165707383305,None,return,1.7896608640439808,486.8151136720553,None,,,,,,,,,,,,,,,,,,,,,,,,,,,,,,,,,,,,,,,75,001,2023_Apr_17_1421,SpeechDraft1Carolyn_lessNoise_PlusLocalization,2021.2.3,59.9129035792163,
fuse.wav,fuse.mpg,fuse,1,AV,Pink_Noise_1_1.wav,Pink_Noise_1_2.wav,,,,,,,,,,,,,,,0,81,81,61,,,,,,,,,,,,,,,,,,,,,,,488.63174805091694,None,490.1481475881301,None,491.5316895088181,None,fuse,491.5316895088181,None,return,0.6615397813729942,491.615163768176,None,,,,,,,,,,,,,,,,,,,,,,,,,,,,,,,,,,,,,,,75,001,2023_Apr_17_1421,SpeechDraft1Carolyn_lessNoise_PlusLocalization,2021.2.3,59.9129035792163,
brew.wav,brew.mpg,brew,2,AV,Pink_Noise_2_1.wav,Pink_Noise_2_2.wav,,,,,,,,,,,,,,,0,82,82,79,,,,,,,,,,,,,,,,,,,,,,,492.2984687262215,None,493.799047939945,None,495.1817003702745,None,brew,495.1817003702745,None,return,0.8996794722042978,495.2650740239769,None,,,,,,,,,,,,,,,,,,,,,,,,,,,,,,,,,,,,,,,75,001,2023_Apr_17_1421,SpeechDraft1Carolyn_lessNoise_PlusLocalization,2021.2.3,59.9129035792163,
phase.wav,phase.mpg,phase,3,A,Pink_Noise_3_1.wav,Pink_Noise_3_2.wav,,,,,,,,,,,,,,,0,83,83,23,,,,,,,,,,,,,,,,,,,,,,,496.18176721408963,None,497.6815579640679,None,499.0651457281783,None,phase,499.0651457281783,None,return,4.360265281051397,499.1484283399768,None,,,,,,,,,,,,,,,,,,,,,,,,,,,,,,,,,,,,,,,75,001,2023_Apr_17_1421,SpeechDraft1Carolyn_lessNoise_PlusLocalization,2021.2.3,59.9129035792163,
fluent.wav,fluent.mpg,fluent,3,A,Pink_Noise_3_1.wav,Pink_Noise_3_2.wav,,,,,,,,,,,,,,,0,84,84,53,,,,,,,,,,,,,,,,,,,,,,,503.5317983208224,None,505.03235323913395,None,506.41519476892427,None,"fluent
",506.41519476892427,None,return,0.9863118622452021,506.4984156768769,None,,,,,,,,,,,,,,,,,,,,,,,,,,,,,,,,,,,,,,,75,001,2023_Apr_17_1421,SpeechDraft1Carolyn_lessNoise_PlusLocalization,2021.2.3,59.9129035792163,
freak.wav,freak.mpg,freak,2,AV,Pink_Noise_2_1.wav,Pink_Noise_2_2.wav,,,,,,,,,,,,,,,0,85,85,87,,,,,,,,,,,,,,,,,,,,,,,507.5151936141774,None,509.03144352696836,None,510.41502491524443,None,freak,510.41502491524443,None,return,1.8423222391866148,510.4984192959964,None,,,,,,,,,,,,,,,,,,,,,,,,,,,,,,,,,,,,,,,75,001,2023_Apr_17_1421,SpeechDraft1Carolyn_lessNoise_PlusLocalization,2021.2.3,59.9129035792163,
curve.wav,curve.mpg,curve,6,AV,Pink_Noise_6_1.wav,Pink_Noise_6_2.wav,,,,,,,,,,,,,,,0,86,86,94,,,,,,,,,,,,,,,,,,,,,,,512.3651214251295,None,513.8652847772464,None,515.248426233884,None,"curve
",515.248426233884,None,return,2.136940812226385,515.3317661192268,None,,,,,,,,,,,,,,,,,,,,,,,,,,,,,,,,,,,,,,,75,001,2023_Apr_17_1421,SpeechDraft1Carolyn_lessNoise_PlusLocalization,2021.2.3,59.9129035792163,
chain.wav,chain.mpg,chain,5,A,Pink_Noise_5_1.wav,Pink_Noise_5_2.wav,,,,,,,,,,,,,,,0,87,87,49,,,,,,,,,,,,,,,,,,,,,,,517.4984603840858,None,519.015010651201,None,520.3985144798644,None,change,520.3985144798644,None,return,1.186752435285598,520.4819605969824,None,,,,,,,,,,,,,,,,,,,,,,,,,,,,,,,,,,,,,,,75,001,2023_Apr_17_1421,SpeechDraft1Carolyn_lessNoise_PlusLocalization,2021.2.3,59.9129035792163,
dig.wav,dig.mpg,dig,6,AV,Pink_Noise_6_1.wav,Pink_Noise_6_2.wav,,,,,,,,,,,,,,,0,88,88,116,,,,,,,,,,,,,,,,,,,,,,,521.6984483730048,None,523.1984764011577,None,524.5817466801964,None,"dance
",524.5817466801964,None,return,1.6355636757798493,524.6651525339112,None,,,,,,,,,,,,,,,,,,,,,,,,,,,,,,,,,,,,,,,75,001,2023_Apr_17_1421,SpeechDraft1Carolyn_lessNoise_PlusLocalization,2021.2.3,59.9129035792163,
swamp.wav,swamp.mpg,swamp,6,A,Pink_Noise_6_1.wav,Pink_Noise_6_2.wav,,,,,,,,,,,,,,,0,89,89,37,,,,,,,,,,,,,,,,,,,,,,,526.3319560452364,None,527.8314757160842,None,529.2151293121278,None,shot,529.2151293121278,None,return,1.0663010831922293,529.2984463879839,None,,,,,,,,,,,,,,,,,,,,,,,,,,,,,,,,,,,,,,,75,001,2023_Apr_17_1421,SpeechDraft1Carolyn_lessNoise_PlusLocalization,2021.2.3,59.9129035792163,
flop.wav,flop.mpg,flop,1,AV,Pink_Noise_1_1.wav,Pink_Noise_1_2.wav,,,,,,,,,,,,,,,0,90,90,77,,,,,,,,,,,,,,,,,,,,,,,530.3818369470537,None,531.8815157632343,None,533.2652136161923,None,flo[,533.2652136161923,None,return,0.8482584627345204,533.3484755242243,None,,,,,,,,,,,,,,,,,,,,,,,,,,,,,,,,,,,,,,,75,001,2023_Apr_17_1421,SpeechDraft1Carolyn_lessNoise_PlusLocalization,2021.2.3,59.9129035792163,
farm.wav,farm.mpg,farm,2,AV,Pink_Noise_2_1.wav,Pink_Noise_2_2.wav,,,,,,,,,,,,,,,0,91,91,75,,,,,,,,,,,,,,,,,,,,,,,534.215215020813,None,535.7315616621636,None,537.1151721249335,None,"farm
",537.1151721249335,None,return,0.7502004378475249,537.198504100088,None,,,,,,,,,,,,,,,,,,,,,,,,,,,,,,,,,,,,,,,75,001,2023_Apr_17_1421,SpeechDraft1Carolyn_lessNoise_PlusLocalization,2021.2.3,59.9129035792163,
eat.wav,eat.mpg,eat,5,A,Pink_Noise_5_1.wav,Pink_Noise_5_2.wav,,,,,,,,,,,,,,,0,92,92,19,,,,,,,,,,,,,,,,,,,,,,,537.9818520508707,None,539.531456570141,None,540.9152351180092,None,"beat
",540.9152351180092,None,return,4.334160787984729,540.9985333331861,None,,,,,,,,,,,,,,,,,,,,,,,,,,,,,,,,,,,,,,,75,001,2023_Apr_17_1421,SpeechDraft1Carolyn_lessNoise_PlusLocalization,2021.2.3,59.9129035792163,
bar.wav,bar.mpg,bar,6,A,Pink_Noise_6_1.wav,Pink_Noise_6_2.wav,,,,,,,,,,,,,,,0,93,93,2,,,,,,,,,,,,,,,,,,,,,,,545.3651621351019,None,546.8814688301645,None,548.2653131992556,None,"lies
",548.2653131992556,None,return,0.7361393058672547,548.3485613688827,None,,,,,,,,,,,,,,,,,,,,,,,,,,,,,,,,,,,,,,,75,001,2023_Apr_17_1421,SpeechDraft1Carolyn_lessNoise_PlusLocalization,2021.2.3,59.9129035792163,
grin.wav,grin.mpg,grin,5,A,Pink_Noise_5_1.wav,Pink_Noise_5_2.wav,,,,,,,,,,,,,,,0,94,94,16,,,,,,,,,,,,,,,,,,,,,,,549.1152158472687,None,550.6315034539439,None,552.015127168037,None,drip,552.015127168037,None,return,0.722223746124655,552.0986006110907,None,,,,,,,,,,,,,,,,,,,,,,,,,,,,,,,,,,,,,,,75,001,2023_Apr_17_1421,SpeechDraft1Carolyn_lessNoise_PlusLocalization,2021.2.3,59.9129035792163,
broom.wav,broom.mpg,broom,2,AV,Pink_Noise_2_1.wav,Pink_Noise_2_2.wav,,,,,,,,,,,,,,,0,95,95,113,,,,,,,,,,,,,,,,,,,,,,,552.848539010156,None,554.3488295390271,None,555.7318889750168,None,broom,555.7318889750168,None,return,2.7975398460403085,555.8151849298738,None,,,,,,,,,,,,,,,,,,,,,,,,,,,,,,,,,,,,,,,75,001,2023_Apr_17_1421,SpeechDraft1Carolyn_lessNoise_PlusLocalization,2021.2.3,59.9129035792163,
den.wav,den.mpg,den,1,A,Pink_Noise_1_1.wav,Pink_Noise_1_2.wav,,,,,,,,,,,,,,,0,96,96,29,,,,,,,,,,,,,,,,,,,,,,,558.6318334201351,None,560.1315479231998,None,561.5152481249534,None,den,561.5152481249534,None,return,0.6381934201344848,561.5985293518752,None,,,,,,,,,,,,,,,,,,,,,,,,,,,,,,,,,,,,,,,75,001,2023_Apr_17_1421,SpeechDraft1Carolyn_lessNoise_PlusLocalization,2021.2.3,59.9129035792163,
chin.wav,chin.mpg,chin,1,AV,Pink_Noise_1_1.wav,Pink_Noise_1_2.wav,,,,,,,,,,,,,,,0,97,97,118,,,,,,,,,,,,,,,,,,,,,,,562.2653364618309,None,563.7815515450202,None,565.1485858270898,None,"chin
",565.1485858270898,None,return,0.7008661539293826,565.2318490720354,None,,,,,,,,,,,,,,,,,,,,,,,,,,,,,,,,,,,,,,,75,001,2023_Apr_17_1421,SpeechDraft1Carolyn_lessNoise_PlusLocalization,2021.2.3,59.9129035792163,
dead.wav,dead.mpg,dead,1,A,Pink_Noise_1_1.wav,Pink_Noise_1_2.wav,,,,,,,,,,,,,,,0,98,98,25,,,,,,,,,,,,,,,,,,,,,,,565.965195429977,None,567.4814981510863,None,568.8652083389461,None,dead,568.8652083389461,None,return,0.5599704682826996,568.9487595679238,None,,,,,,,,,,,,,,,,,,,,,,,,,,,,,,,,,,,,,,,75,001,2023_Apr_17_1421,SpeechDraft1Carolyn_lessNoise_PlusLocalization,2021.2.3,59.9129035792163,
brag.wav,brag.mpg,brag,2,AV,Pink_Noise_2_1.wav,Pink_Noise_2_2.wav,,,,,,,,,,,,,,,0,99,99,76,,,,,,,,,,,,,,,,,,,,,,,569.5320012462325,None,571.048411144875,None,572.4321304699406,None,brag,572.4321304699406,None,return,1.2735279989428818,572.5152321481146,None,,,,,,,,,,,,,,,,,,,,,,,,,,,,,,,,,,,,,,,75,001,2023_Apr_17_1421,SpeechDraft1Carolyn_lessNoise_PlusLocalization,2021.2.3,59.9129035792163,
brick.wav,brick.mpg,brick,2,A,Pink_Noise_2_1.wav,Pink_Noise_2_2.wav,,,,,,,,,,,,,,,0,100,100,8,,,,,,,,,,,,,,,,,,,,,,,573.8153743832372,None,575.3315368569456,None,576.7151419240981,None,brick,576.7151419240981,None,return,0.7901167278178036,576.7987022888847,None,,,,,,,,,,,,,,,,,,,,,,,,,,,,,,,,,,,,,,,75,001,2023_Apr_17_1421,SpeechDraft1Carolyn_lessNoise_PlusLocalization,2021.2.3,59.9129035792163,
cramp.wav,cramp.mpg,cramp,4,AV,Pink_Noise_4_1.wav,Pink_Noise_4_2.wav,,,,,,,,,,,,,,,0,101,101,97,,,,,,,,,,,,,,,,,,,,,,,577.6152118542232,None,579.1315158479847,None,580.5159397101961,None,cramp,580.5159397101961,None,return,0.8062108526937664,580.5985893532634,None,,,,,,,,,,,,,,,,,,,,,,,,,,,,,,,,,,,,,,,75,001,2023_Apr_17_1421,SpeechDraft1Carolyn_lessNoise_PlusLocalization,2021.2.3,59.9129035792163,
steam.wav,steam.mpg,steam,1,AV,Pink_Noise_1_1.wav,Pink_Noise_1_2.wav,,,,,,,,,,,,,,,0,102,102,91,,,,,,,,,,,,,,,,,,,,,,,581.4318810249679,None,582.9481719671749,None,584.3317870860919,None,"steam
",584.3317870860919,None,return,1.8694666041992605,584.4152243132703,None,,,,,,,,,,,,,,,,,,,,,,,,,,,,,,,,,,,,,,,75,001,2023_Apr_17_1421,SpeechDraft1Carolyn_lessNoise_PlusLocalization,2021.2.3,59.9129035792163,
bright.wav,bright.mpg,bright,1,A,Pink_Noise_1_1.wav,Pink_Noise_1_2.wav,,,,,,,,,,,,,,,0,103,103,50,,,,,,,,,,,,,,,,,,,,,,,586.3151701749302,None,587.8316688062623,None,589.2152711842209,None,bright,589.2152711842209,None,return,0.9063166449777782,589.2985533252358,None,,,,,,,,,,,,,,,,,,,,,,,,,,,,,,,,,,,,,,,75,001,2023_Apr_17_1421,SpeechDraft1Carolyn_lessNoise_PlusLocalization,2021.2.3,59.9129035792163,
faith.wav,faith.mpg,faith,4,A,Pink_Noise_4_1.wav,Pink_Noise_4_2.wav,,,,,,,,,,,,,,,0,104,104,26,,,,,,,,,,,,,,,,,,,,,,,590.231966377236,None,591.7481708242558,None,593.131862279959,None,"fake
",593.131862279959,None,return,0.9174445569515228,593.215280037839,None,,,,,,,,,,,,,,,,,,,,,,,,,,,,,,,,,,,,,,,75,001,2023_Apr_17_1421,SpeechDraft1Carolyn_lessNoise_PlusLocalization,2021.2.3,59.9129035792163,
choir.wav,choir.mpg,choir,5,AV,Pink_Noise_5_1.wav,Pink_Noise_5_2.wav,,,,,,,,,,,,,,,0,105,105,72,,,,,,,,,,,,,,,,,,,,,,,594.1653887121938,None,595.6982326679863,None,597.0819448018447,None,quail,597.0819448018447,None,return,5.839552916120738,597.1652702279389,None,,,,,,,,,,,,,,,,,,,,,,,,,,,,,,,,,,,,,,,75,001,2023_Apr_17_1421,SpeechDraft1Carolyn_lessNoise_PlusLocalization,2021.2.3,59.9129035792163,
fowl.wav,fowl.mpg,fowl,1,A,Pink_Noise_1_1.wav,Pink_Noise_1_2.wav,,,,,,,,,,,,,,,0,106,106,54,,,,,,,,,,,,,,,,,,,,,,,603.0320089291781,None,604.5649792938493,None,605.9319531540386,None,fowl,605.9319531540386,None,return,2.7253948878496885,606.0152794541791,None,,,,,,,,,,,,,,,,,,,,,,,,,,,,,,,,,,,,,,,75,001,2023_Apr_17_1421,SpeechDraft1Carolyn_lessNoise_PlusLocalization,2021.2.3,59.9129035792163,
click.wav,click.mpg,click,1,A,Pink_Noise_1_1.wav,Pink_Noise_1_2.wav,,,,,,,,,,,,,,,0,107,107,58,,,,,,,,,,,,,,,,,,,,,,,608.7652631951496,None,610.2815652000718,None,611.6653981502168,None,"click
",611.6653981502168,None,return,1.5201088022440672,611.7486001849174,None,,,,,,,,,,,,,,,,,,,,,,,,,,,,,,,,,,,,,,,75,001,2023_Apr_17_1421,SpeechDraft1Carolyn_lessNoise_PlusLocalization,2021.2.3,59.9129035792163,
gray.wav,gray.mpg,gray,4,AV,Pink_Noise_4_1.wav,Pink_Noise_4_2.wav,,,,,,,,,,,,,,,0,108,108,98,,,,,,,,,,,,,,,,,,,,,,,613.2986857080832,None,614.8000324540772,None,616.1820405372418,None,"ray
",616.1820405372418,None,return,2.2354543209075928,616.2652535391971,None,,,,,,,,,,,,,,,,,,,,,,,,,,,,,,,,,,,,,,,75,001,2023_Apr_17_1421,SpeechDraft1Carolyn_lessNoise_PlusLocalization,2021.2.3,59.9129035792163,
flaw.wav,flaw.mpg,flaw,3,A,Pink_Noise_3_1.wav,Pink_Noise_3_2.wav,,,,,,,,,,,,,,,0,109,109,11,,,,,,,,,,,,,,,,,,,,,,,618.5319229410961,None,620.0332043189555,None,621.4154142192565,None,flock,621.4154142192565,None,return,0.9302017758600414,621.498602594249,None,,,,,,,,,,,,,,,,,,,,,,,,,,,,,,,,,,,,,,,75,001,2023_Apr_17_1421,SpeechDraft1Carolyn_lessNoise_PlusLocalization,2021.2.3,59.9129035792163,
grow.wav,grow.mpg,grow,3,AV,Pink_Noise_3_1.wav,Pink_Noise_3_2.wav,,,,,,,,,,,,,,,0,110,110,71,,,,,,,,,,,,,,,,,,,,,,,622.4485788862221,None,623.9649276542477,None,625.3486694730818,None,gorw,625.3486694730818,None,return,0.764808040112257,625.4319380591623,None,,,,,,,,,,,,,,,,,,,,,,,,,,,,,,,,,,,,,,,75,001,2023_Apr_17_1421,SpeechDraft1Carolyn_lessNoise_PlusLocalization,2021.2.3,59.9129035792163,
tart.wav,tart.mpg,tart,4,A,Pink_Noise_4_1.wav,Pink_Noise_4_2.wav,,,,,,,,,,,,,,,0,111,111,13,,,,,,,,,,,,,,,,,,,,,,,626.215241999831,None,627.7315086168237,None,629.1152963279746,None,tart,629.1152963279746,None,return,2.045971476007253,629.1987328920513,None,,,,,,,,,,,,,,,,,,,,,,,,,,,,,,,,,,,,,,,75,001,2023_Apr_17_1421,SpeechDraft1Carolyn_lessNoise_PlusLocalization,2021.2.3,59.9129035792163,
crawl.wav,crawl.mpg,crawl,6,AV,Pink_Noise_6_1.wav,Pink_Noise_6_2.wav,,,,,,,,,,,,,,,0,112,112,89,,,,,,,,,,,,,,,,,,,,,,,631.2653959421441,None,632.7816387759522,None,634.1654106900096,None,crawl,634.1654106900096,None,return,7.372230711393058,634.2486377521418,None,,,,,,,,,,,,,,,,,,,,,,,,,,,,,,,,,,,,,,,75,001,2023_Apr_17_1421,SpeechDraft1Carolyn_lessNoise_PlusLocalization,2021.2.3,59.9129035792163,
cheat.wav,cheat.mpg,cheat,5,A,Pink_Noise_5_1.wav,Pink_Noise_5_2.wav,,,,,,,,,,,,,,,0,113,113,39,,,,,,,,,,,,,,,,,,,,,,,641.6486689969897,None,643.1649603778496,None,644.548686819151,None,juice,644.548686819151,None,return,2.076589477714151,644.6320999460295,None,,,,,,,,,,,,,,,,,,,,,,,,,,,,,,,,,,,,,,,75,001,2023_Apr_17_1421,SpeechDraft1Carolyn_lessNoise_PlusLocalization,2021.2.3,59.9129035792163,
drum.wav,drum.mpg,drum,3,AV,Pink_Noise_3_1.wav,Pink_Noise_3_2.wav,,,,,,,,,,,,,,,0,114,114,70,,,,,,,,,,,,,,,,,,,,,,,646.7320172740147,None,648.2484134398401,None,649.6319537130184,None,drum,649.6319537130184,None,return,0.881435708142817,649.7152663180605,None,,,,,,,,,,,,,,,,,,,,,,,,,,,,,,,,,,,,,,,75,001,2023_Apr_17_1421,SpeechDraft1Carolyn_lessNoise_PlusLocalization,2021.2.3,59.9129035792163,
blank.wav,blank.mpg,blank,1,AV,Pink_Noise_1_1.wav,Pink_Noise_1_2.wav,,,,,,,,,,,,,,,0,115,115,68,,,,,,,,,,,,,,,,,,,,,,,650.615345038008,None,652.1315945331007,None,653.5152465780266,None,"blank
",653.5152465780266,None,return,1.117874613031745,653.5988166611642,None,,,,,,,,,,,,,,,,,,,,,,,,,,,,,,,,,,,,,,,75,001,2023_Apr_17_1421,SpeechDraft1Carolyn_lessNoise_PlusLocalization,2021.2.3,59.9129035792163,
chore.wav,chore.mpg,chore,3,AV,Pink_Noise_3_1.wav,Pink_Noise_3_2.wav,,,,,,,,,,,,,,,0,116,116,73,,,,,,,,,,,,,,,,,,,,,,,654.7486800882034,None,656.2650768640451,None,657.6486510531977,None,chore,657.6486510531977,None,return,0.616726144682616,657.7319795349613,None,,,,,,,,,,,,,,,,,,,,,,,,,,,,,,,,,,,,,,,75,001,2023_Apr_17_1421,SpeechDraft1Carolyn_lessNoise_PlusLocalization,2021.2.3,59.9129035792163,
grown.wav,grown.mpg,grown,3,A,Pink_Noise_3_1.wav,Pink_Noise_3_2.wav,,,,,,,,,,,,,,,0,117,117,21,,,,,,,,,,,,,,,,,,,,,,,658.3653280418366,None,659.8817189550027,None,661.2660047551617,None,"grow
",661.2660047551617,None,return,1.3679934800602496,661.3487230208702,None,,,,,,,,,,,,,,,,,,,,,,,,,,,,,,,,,,,,,,,75,001,2023_Apr_17_1421,SpeechDraft1Carolyn_lessNoise_PlusLocalization,2021.2.3,59.9129035792163,
chat.wav,chat.mpg,chat,3,A,Pink_Noise_3_1.wav,Pink_Noise_3_2.wav,,,,,,,,,,,,,,,0,118,118,14,,,,,,,,,,,,,,,,,,,,,,,662.7486479179934,None,664.265038616024,None,665.6487436280586,None,chant,665.6487436280586,None,return,0.9287195182405412,665.7319926409982,None,,,,,,,,,,,,,,,,,,,,,,,,,,,,,,,,,,,,,,,75,001,2023_Apr_17_1421,SpeechDraft1Carolyn_lessNoise_PlusLocalization,2021.2.3,59.9129035792163,
beach.wav,beach.mpg,beach,4,A,Pink_Noise_4_1.wav,Pink_Noise_4_2.wav,,,,,,,,,,,,,,,0,119,119,31,,,,,,,,,,,,,,,,,,,,,,,666.6983114518225,None,668.2152022640221,None,669.5987053359859,None,"each
",669.5987053359859,None,return,0.6506881350651383,669.682026762981,None,,,,,,,,,,,,,,,,,,,,,,,,,,,,,,,,,,,,,,,75,001,2023_Apr_17_1421,SpeechDraft1Carolyn_lessNoise_PlusLocalization,2021.2.3,59.9129035792163,
,,,,,,,,,,,,,,,,,,,,,,,,,,,,,,,,,,,,,,,,,,,,,,,,,,,,,,,,,,,,,,,,,,space,18.7881827079691,670.4486962971278,None,,,,,,,,,,,,,,,,,,,,,,,,,,,,,75,001,2023_Apr_17_1421,SpeechDraft1Carolyn_lessNoise_PlusLocalization,2021.2.3,59.9129035792163,
,,,,,,,,center,0.0,6,ch1Sound_localizationTask.wav,0.0,"(952, 878)","(-8,-202)",0,-338,,,,,,,,,0,0,0,3,,,,,,,,,,,,,,,,,,,,,,,,,,,,,,,,,,,,,,,,,,670.4486962971278,None,689.281868506223,None,690.3824169868603,None,691.3152228491381,None,1.398941798941799,4.053455193061382,691.3152228491381,None,,,,,,,,,,,,,,,,,75,001,2023_Apr_17_1421,SpeechDraft1Carolyn_lessNoise_PlusLocalization,2021.2.3,59.9129035792163,
,,,,,,,,midLeft,-13.0,2,ch1Sound_localizationTask.wav,-13.0,"(762, 878)","(-198,-202)",-190,-338,,,,,,,,,0,1,1,1,,,,,,,,,,,,,,,,,,,,,,,,,,,,,,,,,,,,,,,,,,,,695.3663055850193,None,696.4651338062249,None,697.398396729026,None,1.2544973544973546,1.8001713729463518,697.398396729026,None,,,,,,,,,,,,,,,,,75,001,2023_Apr_17_1421,SpeechDraft1Carolyn_lessNoise_PlusLocalization,2021.2.3,59.9129035792163,
,,,,,,,,center,0.0,6,ch1Sound_localizationTask.wav,0.0,"(952, 878)","(-8,-202)",0,-338,,,,,,,,,0,2,2,3,,,,,,,,,,,,,,,,,,,,,,,,,,,,,,,,,,,,,,,,,,,,699.1996666351333,None,700.2983887242153,None,701.2317655980587,None,1.5037037037037035,2.666673363186419,701.2317655980587,None,,,,,,,,,,,,,,,,,75,001,2023_Apr_17_1421,SpeechDraft1Carolyn_lessNoise_PlusLocalization,2021.2.3,59.9129035792163,
,,,,,,,,center,0.0,6,ch1Sound_localizationTask.wav,0.0,"(952, 878)","(-8,-202)",0,-338,,,,,,,,,0,3,3,3,,,,,,,,,,,,,,,,,,,,,,,,,,,,,,,,,,,,,,,,,,,,703.899511882104,None,704.9984891079366,None,705.9317480828613,None,1.5312169312169313,0.7492655506357551,705.9317480828613,None,,,,,,,,,,,,,,,,,75,001,2023_Apr_17_1421,SpeechDraft1Carolyn_lessNoise_PlusLocalization,2021.2.3,59.9129035792163,
,,,,,,,,nearRight,6.5,0,ch1Sound_localizationTask.wav,6.5,"(1047, 878)","(87, -202)",95,-338,,,,,,,,,0,4,4,4,,,,,,,,,,,,,,,,,,,,,,,,,,,,,,,,,,,,,,,,,,,,706.6821056618355,None,707.7818317301571,None,708.7150708879344,None,1.553968253968254,0.700400766916573,708.7150708879344,None,,,,,,,,,,,,,,,,,75,001,2023_Apr_17_1421,SpeechDraft1Carolyn_lessNoise_PlusLocalization,2021.2.3,59.9129035792163,
,,,,,,,,farRight,19.1,4,ch1Sound_localizationTask.wav,19.1,"(1237, 878)","(277,-202)",285,-338,,,,,,,,,0,5,5,6,,,,,,,,,,,,,,,,,,,,,,,,,,,,,,,,,,,,,,,,,,,,709.4158479869366,None,710.5150438291021,None,711.4485070211813,None,1.7264550264550265,0.8827010612003505,711.4485070211813,None,,,,,,,,,,,,,,,,,75,001,2023_Apr_17_1421,SpeechDraft1Carolyn_lessNoise_PlusLocalization,2021.2.3,59.9129035792163,
,,,,,,,,farLeft,-19.1,5,ch1Sound_localizationTask.wav,-19.1,"(667, 878)","(-293,-202)",-285,-338,,,,,,,,,0,6,6,0,,,,,,,,,,,,,,,,,,,,,,,,,,,,,,,,,,,,,,,,,,,,712.3322005481459,None,713.4317090851255,None,714.3652219190262,None,1.2952380952380953,1.2513968260027468,714.3652219190262,None,,,,,,,,,,,,,,,,,75,001,2023_Apr_17_1421,SpeechDraft1Carolyn_lessNoise_PlusLocalization,2021.2.3,59.9129035792163,
,,,,,,,,farLeft,-19.1,5,ch1Sound_localizationTask.wav,-19.1,"(667, 878)","(-293,-202)",-285,-338,,,,,,,,,1,0,7,0,,,,,,,,,,,,,,,,,,,,,,,,,,,,,,,,,,,,,,,,,,,,715.6322022378445,None,716.7318566101603,None,717.6652972241864,None,1.3,0.9843422141857445,717.6652972241864,None,,,,,,,,,,,,,,,,,75,001,2023_Apr_17_1421,SpeechDraft1Carolyn_lessNoise_PlusLocalization,2021.2.3,59.9129035792163,
,,,,,,,,farRight,19.1,4,ch1Sound_localizationTask.wav,19.1,"(1237, 878)","(277,-202)",285,-338,,,,,,,,,1,1,8,6,,,,,,,,,,,,,,,,,,,,,,,,,,,,,,,,,,,,,,,,,,,,718.6656937371008,None,719.7651822390035,None,720.6988297370262,None,1.7201058201058201,1.1991791720502079,720.6988297370262,None,,,,,,,,,,,,,,,,,75,001,2023_Apr_17_1421,SpeechDraft1Carolyn_lessNoise_PlusLocalization,2021.2.3,59.9129035792163,
,,,,,,,,midRight,13.0,3,ch1Sound_localizationTask.wav,13.0,"(1142, 878)","(182, -202)",190,-338,,,,,,,,,1,2,9,5,,,,,,,,,,,,,,,,,,,,,,,,,,,,,,,,,,,,,,,,,,,,721.8996160971001,None,722.9982661739923,None,723.9317463091575,None,1.573015873015873,1.083461433649063,723.9317463091575,None,,,,,,,,,,,,,,,,,75,001,2023_Apr_17_1421,SpeechDraft1Carolyn_lessNoise_PlusLocalization,2021.2.3,59.9129035792163,
,,,,,,,,midLeft,-13.0,2,ch1Sound_localizationTask.wav,-13.0,"(762, 878)","(-198,-202)",-190,-338,,,,,,,,,1,3,10,1,,,,,,,,,,,,,,,,,,,,,,,,,,,,,,,,,,,,,,,,,,,,725.0320676970296,None,726.1317868120968,None,727.0651003820822,None,1.2867724867724868,1.4162474959157407,727.0651003820822,None,,,,,,,,,,,,,,,,,75,001,2023_Apr_17_1421,SpeechDraft1Carolyn_lessNoise_PlusLocalization,2021.2.3,59.9129035792163,
,,,,,,,,midRight,13.0,3,ch1Sound_localizationTask.wav,13.0,"(1142, 878)","(182, -202)",190,-338,,,,,,,,,1,4,11,5,,,,,,,,,,,,,,,,,,,,,,,,,,,,,,,,,,,,,,,,,,,,728.4821149818599,None,729.5818542111665,None,730.515092776157,None,1.6412698412698412,1.449799681082368,730.515092776157,None,,,,,,,,,,,,,,,,,75,001,2023_Apr_17_1421,SpeechDraft1Carolyn_lessNoise_PlusLocalization,2021.2.3,59.9129035792163,
,,,,,,,,midLeft,-13.0,2,ch1Sound_localizationTask.wav,-13.0,"(762, 878)","(-198,-202)",-190,-338,,,,,,,,,1,5,12,1,,,,,,,,,,,,,,,,,,,,,,,,,,,,,,,,,,,,,,,,,,,,731.9668308468536,None,733.081805029884,None,733.9985307180323,None,1.3518518518518519,1.3517702748067677,733.9985307180323,None,,,,,,,,,,,,,,,,,75,001,2023_Apr_17_1421,SpeechDraft1Carolyn_lessNoise_PlusLocalization,2021.2.3,59.9129035792163,
,,,,,,,,midRight,13.0,3,ch1Sound_localizationTask.wav,13.0,"(1142, 878)","(182, -202)",190,-338,,,,,,,,,1,6,13,5,,,,,,,,,,,,,,,,,,,,,,,,,,,,,,,,,,,,,,,,,,,,735.3654501149431,None,736.4651096519083,None,737.3984686811455,None,1.5592592592592593,1.0004176087677479,737.3984686811455,None,,,,,,,,,,,,,,,,,75,001,2023_Apr_17_1421,SpeechDraft1Carolyn_lessNoise_PlusLocalization,2021.2.3,59.9129035792163,
,,,,,,,,farRight,19.1,4,ch1Sound_localizationTask.wav,19.1,"(1237, 878)","(277,-202)",285,-338,,,,,,,,,2,0,14,6,,,,,,,,,,,,,,,,,,,,,,,,,,,,,,,,,,,,,,,,,,,,738.4155721501447,None,739.5151900742203,None,740.448569167871,None,1.7576719576719577,1.4324912908487022,740.448569167871,None,,,,,,,,,,,,,,,,,75,001,2023_Apr_17_1421,SpeechDraft1Carolyn_lessNoise_PlusLocalization,2021.2.3,59.9129035792163,
,,,,,,,,nearLeft,-6.5,1,ch1Sound_localizationTask.wav,-6.5,"(857, 878)","(-103,-202)",-95,-338,,,,,,,,,2,1,15,2,,,,,,,,,,,,,,,,,,,,,,,,,,,,,,,,,,,,,,,,,,,,741.882226744201,None,742.9817578741349,None,743.9151258128695,None,1.4179894179894181,0.917842464055866,743.9151258128695,None,,,,,,,,,,,,,,,,,75,001,2023_Apr_17_1421,SpeechDraft1Carolyn_lessNoise_PlusLocalization,2021.2.3,59.9129035792163,
,,,,,,,,midLeft,-13.0,2,ch1Sound_localizationTask.wav,-13.0,"(762, 878)","(-198,-202)",-190,-338,,,,,,,,,2,2,16,1,,,,,,,,,,,,,,,,,,,,,,,,,,,,,,,,,,,,,,,,,,,,744.8488043271936,None,745.9485163781792,None,746.8818320282735,None,1.3137566137566137,1.016794728115201,746.8818320282735,None,,,,,,,,,,,,,,,,,75,001,2023_Apr_17_1421,SpeechDraft1Carolyn_lessNoise_PlusLocalization,2021.2.3,59.9129035792163,
,,,,,,,,farRight,19.1,4,ch1Sound_localizationTask.wav,19.1,"(1237, 878)","(277,-202)",285,-338,,,,,,,,,2,3,17,6,,,,,,,,,,,,,,,,,,,,,,,,,,,,,,,,,,,,,,,,,,,,747.9154849341139,None,749.0152032142505,None,749.9483964079991,None,1.7185185185185186,1.183615964371711,749.9483964079991,None,,,,,,,,,,,,,,,,,75,001,2023_Apr_17_1421,SpeechDraft1Carolyn_lessNoise_PlusLocalization,2021.2.3,59.9129035792163,
,,,,,,,,farLeft,-19.1,5,ch1Sound_localizationTask.wav,-19.1,"(667, 878)","(-293,-202)",-285,-338,,,,,,,,,2,4,18,0,,,,,,,,,,,,,,,,,,,,,,,,,,,,,,,,,,,,,,,,,,,,751.1334668900818,None,752.2486368902028,None,753.1651923912577,None,1.3380952380952382,0.8858774788677692,753.1651923912577,None,,,,,,,,,,,,,,,,,75,001,2023_Apr_17_1421,SpeechDraft1Carolyn_lessNoise_PlusLocalization,2021.2.3,59.9129035792163,
,,,,,,,,nearLeft,-6.5,1,ch1Sound_localizationTask.wav,-6.5,"(857, 878)","(-103,-202)",-95,-338,,,,,,,,,2,5,19,2,,,,,,,,,,,,,,,,,,,,,,,,,,,,,,,,,,,,,,,,,,,,754.0654568211176,None,755.165172573179,None,756.098566906061,None,1.4412698412698413,1.1168413842096925,756.098566906061,None,,,,,,,,,,,,,,,,,75,001,2023_Apr_17_1421,SpeechDraft1Carolyn_lessNoise_PlusLocalization,2021.2.3,59.9129035792163,
,,,,,,,,farLeft,-19.1,5,ch1Sound_localizationTask.wav,-19.1,"(667, 878)","(-293,-202)",-285,-338,,,,,,,,,2,6,20,0,,,,,,,,,,,,,,,,,,,,,,,,,,,,,,,,,,,,,,,,,,,,757.2159187849611,None,758.3152643698268,None,759.2485698182136,None,1.3227513227513228,1.1832669591531157,759.2485698182136,None,,,,,,,,,,,,,,,,,75,001,2023_Apr_17_1421,SpeechDraft1Carolyn_lessNoise_PlusLocalization,2021.2.3,59.9129035792163,
,,,,,,,,farLeft,-19.1,5,ch1Sound_localizationTask.wav,-19.1,"(667, 878)","(-293,-202)",-285,-338,,,,,,,,,3,0,21,0,,,,,,,,,,,,,,,,,,,,,,,,,,,,,,,,,,,,,,,,,,,,760.4323679050431,None,761.5319990888238,None,762.4651516871527,None,1.3158730158730159,0.8826132290996611,762.4651516871527,None,,,,,,,,,,,,,,,,,75,001,2023_Apr_17_1421,SpeechDraft1Carolyn_lessNoise_PlusLocalization,2021.2.3,59.9129035792163,
,,,,,,,,midRight,13.0,3,ch1Sound_localizationTask.wav,13.0,"(1142, 878)","(182, -202)",190,-338,,,,,,,,,3,1,22,5,,,,,,,,,,,,,,,,,,,,,,,,,,,,,,,,,,,,,,,,,,,,763.3494421881624,None,764.448657150846,None,765.3818188342266,None,1.6544973544973545,1.1839658548124135,765.3818188342266,None,,,,,,,,,,,,,,,,,75,001,2023_Apr_17_1421,SpeechDraft1Carolyn_lessNoise_PlusLocalization,2021.2.3,59.9129035792163,
,,,,,,,,midLeft,-13.0,2,ch1Sound_localizationTask.wav,-13.0,"(762, 878)","(-198,-202)",-190,-338,,,,,,,,,3,2,23,1,,,,,,,,,,,,,,,,,,,,,,,,,,,,,,,,,,,,,,,,,,,,766.5823054159991,None,767.6819157102145,None,768.6151623860933,None,1.3148148148148149,0.9176860172301531,768.6151623860933,None,,,,,,,,,,,,,,,,,75,001,2023_Apr_17_1421,SpeechDraft1Carolyn_lessNoise_PlusLocalization,2021.2.3,59.9129035792163,
,,,,,,,,center,0.0,6,ch1Sound_localizationTask.wav,0.0,"(952, 878)","(-8,-202)",0,-338,,,,,,,,,3,3,24,3,,,,,,,,,,,,,,,,,,,,,,,,,,,,,,,,,,,,,,,,,,,,769.5488883829676,None,770.6485358979553,None,771.5820544729941,None,1.4878306878306877,1.1662451550364494,771.5820544729941,None,,,,,,,,,,,,,,,,,75,001,2023_Apr_17_1421,SpeechDraft1Carolyn_lessNoise_PlusLocalization,2021.2.3,59.9129035792163,
,,,,,,,,center,0.0,6,ch1Sound_localizationTask.wav,0.0,"(952, 878)","(-8,-202)",0,-338,,,,,,,,,3,4,25,3,,,,,,,,,,,,,,,,,,,,,,,,,,,,,,,,,,,,,,,,,,,,772.7501448648982,None,773.8654201449826,None,774.782112380024,None,1.493121693121693,0.6820242693647742,774.782112380024,None,,,,,,,,,,,,,,,,,75,001,2023_Apr_17_1421,SpeechDraft1Carolyn_lessNoise_PlusLocalization,2021.2.3,59.9129035792163,
,,,,,,,,nearRight,6.5,0,ch1Sound_localizationTask.wav,6.5,"(1047, 878)","(87, -202)",95,-338,,,,,,,,,3,5,26,4,,,,,,,,,,,,,,,,,,,,,,,,,,,,,,,,,,,,,,,,,,,,775.4656421509571,None,776.5652248421684,None,777.4984071049839,None,1.5513227513227514,0.6496814480051398,777.4984071049839,None,,,,,,,,,,,,,,,,,75,001,2023_Apr_17_1421,SpeechDraft1Carolyn_lessNoise_PlusLocalization,2021.2.3,59.9129035792163,
,,,,,,,,nearRight,6.5,0,ch1Sound_localizationTask.wav,6.5,"(1047, 878)","(87, -202)",95,-338,,,,,,,,,3,6,27,4,,,,,,,,,,,,,,,,,,,,,,,,,,,,,,,,,,,,,,,,,,,,778.1504631382413,None,779.2651940388605,None,780.182015501894,None,1.5317460317460316,0.9995321705937386,780.182015501894,None,,,,,,,,,,,,,,,,,75,001,2023_Apr_17_1421,SpeechDraft1Carolyn_lessNoise_PlusLocalization,2021.2.3,59.9129035792163,
,,,,,,,,center,0.0,6,ch1Sound_localizationTask.wav,0.0,"(952, 878)","(-8,-202)",0,-338,,,,,,,,,4,0,28,3,,,,,,,,,,,,,,,,,,,,,,,,,,,,,,,,,,,,,,,,,,,,781.1827450660057,None,782.2818804802373,None,783.215242208913,None,1.5015873015873016,0.5157720907591283,783.215242208913,None,,,,,,,,,,,,,,,,,75,001,2023_Apr_17_1421,SpeechDraft1Carolyn_lessNoise_PlusLocalization,2021.2.3,59.9129035792163,
,,,,,,,,nearLeft,-6.5,1,ch1Sound_localizationTask.wav,-6.5,"(857, 878)","(-103,-202)",-95,-338,,,,,,,,,4,1,29,2,,,,,,,,,,,,,,,,,,,,,,,,,,,,,,,,,,,,,,,,,,,,783.7324277232401,None,784.8318592072465,None,785.7651810902171,None,1.447089947089947,0.5841914038173854,785.7651810902171,None,,,,,,,,,,,,,,,,,75,001,2023_Apr_17_1421,SpeechDraft1Carolyn_lessNoise_PlusLocalization,2021.2.3,59.9129035792163,
,,,,,,,,nearLeft,-6.5,1,ch1Sound_localizationTask.wav,-6.5,"(857, 878)","(-103,-202)",-95,-338,,,,,,,,,4,2,30,2,,,,,,,,,,,,,,,,,,,,,,,,,,,,,,,,,,,,,,,,,,,,786.3657142058946,None,787.4653004640713,None,788.3986001559533,None,1.4211640211640213,1.0175783052109182,788.3986001559533,None,,,,,,,,,,,,,,,,,75,001,2023_Apr_17_1421,SpeechDraft1Carolyn_lessNoise_PlusLocalization,2021.2.3,59.9129035792163,
,,,,,,,,center,0.0,6,ch1Sound_localizationTask.wav,0.0,"(952, 878)","(-8,-202)",0,-338,,,,,,,,,4,3,31,3,,,,,,,,,,,,,,,,,,,,,,,,,,,,,,,,,,,,,,,,,,,,789.4322755960748,None,790.5318907219917,None,791.4653326258995,None,1.4947089947089947,1.3827334120869637,791.4653326258995,None,,,,,,,,,,,,,,,,,75,001,2023_Apr_17_1421,SpeechDraft1Carolyn_lessNoise_PlusLocalization,2021.2.3,59.9129035792163,
,,,,,,,,nearRight,6.5,0,ch1Sound_localizationTask.wav,6.5,"(1047, 878)","(87, -202)",95,-338,,,,,,,,,4,4,32,4,,,,,,,,,,,,,,,,,,,,,,,,,,,,,,,,,,,,,,,,,,,,792.8490511341952,None,793.9485992589034,None,794.8818596471101,None,1.5576719576719578,0.8327420516870916,794.8818596471101,None,,,,,,,,,,,,,,,,,75,001,2023_Apr_17_1421,SpeechDraft1Carolyn_lessNoise_PlusLocalization,2021.2.3,59.9129035792163,
,,,,,,,,nearRight,6.5,0,ch1Sound_localizationTask.wav,6.5,"(1047, 878)","(87, -202)",95,-338,,,,,,,,,4,5,33,4,,,,,,,,,,,,,,,,,,,,,,,,,,,,,,,,,,,,,,,,,,,,795.7169704432599,None,796.8319849441759,None,797.7485478129238,None,1.5703703703703704,0.6508666700683534,797.7485478129238,None,,,,,,,,,,,,,,,,,75,001,2023_Apr_17_1421,SpeechDraft1Carolyn_lessNoise_PlusLocalization,2021.2.3,59.9129035792163,
,,,,,,,,nearRight,6.5,0,ch1Sound_localizationTask.wav,6.5,"(1047, 878)","(87, -202)",95,-338,,,,,,,,,4,6,34,4,,,,,,,,,,,,,,,,,,,,,,,,,,,,,,,,,,,,,,,,,,,,798.4155510622077,None,799.5153838112019,None,800.4485409311019,None,1.5767195767195767,0.6002024849876761,800.4485409311019,None,,,,,,,,,,,,,,,,,75,001,2023_Apr_17_1421,SpeechDraft1Carolyn_lessNoise_PlusLocalization,2021.2.3,59.9129035792163,
,,,,,,,,midRight,13.0,3,ch1Sound_localizationTask.wav,13.0,"(1142, 878)","(182, -202)",190,-338,,,,,,,,,5,0,35,5,,,,,,,,,,,,,,,,,,,,,,,,,,,,,,,,,,,,,,,,,,,,801.0655244458467,None,802.1652430598624,None,803.0984470588155,None,1.6312169312169313,0.8177830716595054,803.0984470588155,None,,,,,,,,,,,,,,,,,75,001,2023_Apr_17_1421,SpeechDraft1Carolyn_lessNoise_PlusLocalization,2021.2.3,59.9129035792163,
,,,,,,,,nearRight,6.5,0,ch1Sound_localizationTask.wav,6.5,"(1047, 878)","(87, -202)",95,-338,,,,,,,,,5,1,36,4,,,,,,,,,,,,,,,,,,,,,,,,,,,,,,,,,,,,,,,,,,,,803.9321831180714,None,805.0320755429566,None,805.9653217350133,None,1.5677248677248676,0.7497371081262827,805.9653217350133,None,,,,,,,,,,,,,,,,,75,001,2023_Apr_17_1421,SpeechDraft1Carolyn_lessNoise_PlusLocalization,2021.2.3,59.9129035792163,
,,,,,,,,nearLeft,-6.5,1,ch1Sound_localizationTask.wav,-6.5,"(857, 878)","(-103,-202)",-95,-338,,,,,,,,,5,2,37,2,,,,,,,,,,,,,,,,,,,,,,,,,,,,,,,,,,,,,,,,,,,,806.716947580222,None,807.8320110179484,None,808.7485852339305,None,1.416931216931217,0.8347432222217321,808.7485852339305,None,,,,,,,,,,,,,,,,,75,001,2023_Apr_17_1421,SpeechDraft1Carolyn_lessNoise_PlusLocalization,2021.2.3,59.9129035792163,
,,,,,,,,midRight,13.0,3,ch1Sound_localizationTask.wav,13.0,"(1142, 878)","(182, -202)",190,-338,,,,,,,,,5,3,38,5,,,,,,,,,,,,,,,,,,,,,,,,,,,,,,,,,,,,,,,,,,,,809.5990025489591,None,810.698696943,None,811.6318939658813,None,1.5502645502645502,0.5673042833805084,811.6318939658813,None,,,,,,,,,,,,,,,,,75,001,2023_Apr_17_1421,SpeechDraft1Carolyn_lessNoise_PlusLocalization,2021.2.3,59.9129035792163,
,,,,,,,,midLeft,-13.0,2,ch1Sound_localizationTask.wav,-13.0,"(762, 878)","(-198,-202)",-190,-338,,,,,,,,,5,4,39,1,,,,,,,,,,,,,,,,,,,,,,,,,,,,,,,,,,,,,,,,,,,,812.2156663122587,None,813.3151863478124,None,814.2486039698124,None,1.3608465608465607,0.8519285777583718,814.2486039698124,None,,,,,,,,,,,,,,,,,75,001,2023_Apr_17_1421,SpeechDraft1Carolyn_lessNoise_PlusLocalization,2021.2.3,59.9129035792163,
,,,,,,,,farLeft,-19.1,5,ch1Sound_localizationTask.wav,-19.1,"(667, 878)","(-293,-202)",-285,-338,,,,,,,,,5,5,40,0,,,,,,,,,,,,,,,,,,,,,,,,,,,,,,,,,,,,,,,,,,,,815.115511061158,None,816.2151622888632,None,817.1485892580822,None,1.3375661375661376,0.6331530520692468,817.1485892580822,None,,,,,,,,,,,,,,,,,75,001,2023_Apr_17_1421,SpeechDraft1Carolyn_lessNoise_PlusLocalization,2021.2.3,59.9129035792163,
,,,,,,,,nearLeft,-6.5,1,ch1Sound_localizationTask.wav,-6.5,"(857, 878)","(-103,-202)",-95,-338,,,,,,,,,5,6,41,2,,,,,,,,,,,,,,,,,,,,,,,,,,,,,,,,,,,,,,,,,,,,817.7991204299033,None,818.8986717332155,None,819.8319090129808,None,1.4142857142857141,0.634532137773931,819.8319090129808,None,,,,,,,,,,,,,,,,,75,001,2023_Apr_17_1421,SpeechDraft1Carolyn_lessNoise_PlusLocalization,2021.2.3,59.9129035792163,
,,,,,,,,center,0.0,6,ch1Sound_localizationTask.wav,0.0,"(952, 878)","(-8,-202)",0,-338,,,,,,,,,6,0,42,3,,,,,,,,,,,,,,,,,,,,,,,,,,,,,,,,,,,,,,,,,,,,820.4822392109782,None,821.5819085198455,None,822.5154610020109,None,1.494179894179894,0.7996845860034227,822.5154610020109,None,,,,,,,,,,,,,,,,,75,001,2023_Apr_17_1421,SpeechDraft1Carolyn_lessNoise_PlusLocalization,2021.2.3,59.9129035792163,
,,,,,,,,farRight,19.1,4,ch1Sound_localizationTask.wav,19.1,"(1237, 878)","(277,-202)",285,-338,,,,,,,,,6,1,43,6,,,,,,,,,,,,,,,,,,,,,,,,,,,,,,,,,,,,,,,,,,,,823.3157797739841,None,824.4153539538383,None,825.3485860330984,None,1.66984126984127,0.7672859188169241,825.3485860330984,None,,,,,,,,,,,,,,,,,75,001,2023_Apr_17_1421,SpeechDraft1Carolyn_lessNoise_PlusLocalization,2021.2.3,59.9129035792163,
,,,,,,,,farLeft,-19.1,5,ch1Sound_localizationTask.wav,-19.1,"(667, 878)","(-293,-202)",-285,-338,,,,,,,,,6,2,44,0,,,,,,,,,,,,,,,,,,,,,,,,,,,,,,,,,,,,,,,,,,,,826.1321647372097,None,827.2318811132573,None,828.1654029148631,None,1.2767195767195767,0.951604310888797,828.1654029148631,None,,,,,,,,,,,,,,,,,75,001,2023_Apr_17_1421,SpeechDraft1Carolyn_lessNoise_PlusLocalization,2021.2.3,59.9129035792163,
,,,,,,,,nearLeft,-6.5,1,ch1Sound_localizationTask.wav,-6.5,"(857, 878)","(-103,-202)",-95,-338,,,,,,,,,6,3,45,2,,,,,,,,,,,,,,,,,,,,,,,,,,,,,,,,,,,,,,,,,,,,829.1322335042059,None,830.2321281488985,None,831.1653823410161,None,1.3603174603174604,0.584167430177331,831.1653823410161,None,,,,,,,,,,,,,,,,,75,001,2023_Apr_17_1421,SpeechDraft1Carolyn_lessNoise_PlusLocalization,2021.2.3,59.9129035792163,
,,,,,,,,nearLeft,-6.5,1,ch1Sound_localizationTask.wav,-6.5,"(857, 878)","(-103,-202)",-95,-338,,,,,,,,,6,4,46,2,,,,,,,,,,,,,,,,,,,,,,,,,,,,,,,,,,,,,,,,,,,,831.7657292671502,None,832.8653036118485,None,833.7986050052568,None,1.380952380952381,0.8180852183140814,833.7986050052568,None,,,,,,,,,,,,,,,,,75,001,2023_Apr_17_1421,SpeechDraft1Carolyn_lessNoise_PlusLocalization,2021.2.3,59.9129035792163,
,,,,,,,,midRight,13.0,3,ch1Sound_localizationTask.wav,13.0,"(1142, 878)","(182, -202)",190,-338,,,,,,,,,6,5,47,5,,,,,,,,,,,,,,,,,,,,,,,,,,,,,,,,,,,,,,,,,,,,834.6323169581592,None,835.7319156159647,None,836.6653209282085,None,1.583068783068783,0.6829841481521726,836.6653209282085,None,,,,,,,,,,,,,,,,,75,001,2023_Apr_17_1421,SpeechDraft1Carolyn_lessNoise_PlusLocalization,2021.2.3,59.9129035792163,
,,,,,,,,farRight,19.1,4,ch1Sound_localizationTask.wav,19.1,"(1237, 878)","(277,-202)",285,-338,,,,,,,,,6,6,48,6,,,,,,,,,,,,,,,,,,,,,,,,,,,,,,,,,,,,,,,,,,,,837.3658681199886,None,838.4652604451403,None,839.398603820242,None,1.6613756613756614,0.7193118929862976,839.398603820242,None,,,,,,,,,,,,,,,,,75,001,2023_Apr_17_1421,SpeechDraft1Carolyn_lessNoise_PlusLocalization,2021.2.3,59.9129035792163,
,,,,,,,,farRight,19.1,4,ch1Sound_localizationTask.wav,19.1,"(1237, 878)","(277,-202)",285,-338,,,,,,,,,7,0,49,6,,,,,,,,,,,,,,,,,,,,,,,,,,,,,,,,,,,,,,,,,,,,840.1322236121632,None,841.2319584619254,None,842.1653522681445,None,1.7185185185185186,0.7837276021018624,842.1653522681445,None,,,,,,,,,,,,,,,,,75,001,2023_Apr_17_1421,SpeechDraft1Carolyn_lessNoise_PlusLocalization,2021.2.3,59.9129035792163,
,,,,,,,,midLeft,-13.0,2,ch1Sound_localizationTask.wav,-13.0,"(762, 878)","(-198,-202)",-190,-338,,,,,,,,,7,1,50,1,,,,,,,,,,,,,,,,,,,,,,,,,,,,,,,,,,,,,,,,,,,,842.965640000999,None,844.0653265342116,None,844.9988942402415,None,1.3227513227513228,0.7846436658874154,844.9988942402415,None,,,,,,,,,,,,,,,,,75,001,2023_Apr_17_1421,SpeechDraft1Carolyn_lessNoise_PlusLocalization,2021.2.3,59.9129035792163,
,,,,,,,,nearRight,6.5,0,ch1Sound_localizationTask.wav,6.5,"(1047, 878)","(87, -202)",95,-338,,,,,,,,,7,2,51,4,,,,,,,,,,,,,,,,,,,,,,,,,,,,,,,,,,,,,,,,,,,,845.7990973079577,None,846.8988819611259,None,847.8320754659362,None,1.546031746031746,0.46544898208230734,847.8320754659362,None,,,,,,,,,,,,,,,,,75,001,2023_Apr_17_1421,SpeechDraft1Carolyn_lessNoise_PlusLocalization,2021.2.3,59.9129035792163,
,,,,,,,,farLeft,-19.1,5,ch1Sound_localizationTask.wav,-19.1,"(667, 878)","(-293,-202)",-285,-338,,,,,,,,,7,3,52,0,,,,,,,,,,,,,,,,,,,,,,,,,,,,,,,,,,,,,,,,,,,,848.2990623270161,None,849.3986836350523,None,850.331882358063,None,1.2751322751322751,0.41806197818368673,850.331882358063,None,,,,,,,,,,,,,,,,,75,001,2023_Apr_17_1421,SpeechDraft1Carolyn_lessNoise_PlusLocalization,2021.2.3,59.9129035792163,
,,,,,,,,midLeft,-13.0,2,ch1Sound_localizationTask.wav,-13.0,"(762, 878)","(-198,-202)",-190,-338,,,,,,,,,7,4,53,1,,,,,,,,,,,,,,,,,,,,,,,,,,,,,,,,,,,,,,,,,,,,850.7657092502341,None,851.8653969499283,None,852.7987360260449,None,1.3296296296296295,0.8498208960518241,852.7987360260449,None,,,,,,,,,,,,,,,,,75,001,2023_Apr_17_1421,SpeechDraft1Carolyn_lessNoise_PlusLocalization,2021.2.3,59.9129035792163,
,,,,,,,,farRight,19.1,4,ch1Sound_localizationTask.wav,19.1,"(1237, 878)","(277,-202)",285,-338,,,,,,,,,7,5,54,6,,,,,,,,,,,,,,,,,,,,,,,,,,,,,,,,,,,,,,,,,,,,853.6656413511373,None,854.765399729833,None,855.6986540788785,None,1.664021164021164,0.7342317206785083,855.6986540788785,None,,,,,,,,,,,,,,,,,75,001,2023_Apr_17_1421,SpeechDraft1Carolyn_lessNoise_PlusLocalization,2021.2.3,59.9129035792163,
,,,,,,,,midRight,13.0,3,ch1Sound_localizationTask.wav,13.0,"(1142, 878)","(182, -202)",190,-338,,,,,,,,,7,6,55,5,,,,,,,,,,,,,,,,,,,,,,,,,,,,,,,,,,,,,,,,,,,,856.4490663120523,None,857.5486533641815,None,858.481991790235,None,1.5952380952380953,0.8352250177413225,858.481991790235,None,,,,,,,,,,,,,,,,,75,001,2023_Apr_17_1421,SpeechDraft1Carolyn_lessNoise_PlusLocalization,2021.2.3,59.9129035792163,
,,,,,,,,,,,,,,,,,,,,,,,,,,,,,,,,,,,,,,,,,,,,,,,,,,,,,,,,,,,,,,,,,,,,,,,,,,,,,,,,,,space,10.588995933067054,859.4157381439582,None,,,,,,,,,,,,,75,001,2023_Apr_17_1421,SpeechDraft1Carolyn_lessNoise_PlusLocalization,2021.2.3,59.9129035792163,
,,,,,,,,farLeft,-19.1,5,ch1Sound_localizationTask.wav,-19.1,"(667, 878)","(-293,-202)",-285,-338,,,,,,,,,,,,,0,0,0,0,,,,,,,,,,,,,,,,,,,,,,,,,,,,,,,,,,,,,,,,870.0487082209438,None,,,873.0819619051181,None,1.342857142857143,1.1197363822720945,873.0819619051181,None,,,,,859.4157381439582,None,871.0489954012446,None,871.2324952031486,871.2490630191751,,,,,,,75,001,2023_Apr_17_1421,SpeechDraft1Carolyn_lessNoise_PlusLocalization,2021.2.3,59.9129035792163,
,,,,,,,,farRight,19.1,4,ch1Sound_localizationTask.wav,19.1,"(1237, 878)","(277,-202)",285,-338,,,,,,,,,,,,,0,1,1,6,,,,,,,,,,,,,,,,,,,,,,,,,,,,,,,,,,,,,,,,874.1993061061949,None,,,877.2153779859655,None,1.6539682539682539,0.9000343852676451,877.2153779859655,None,,,,,,,875.1990328668617,None,875.3822866282426,875.3990865368396,,,,,,,75,001,2023_Apr_17_1421,SpeechDraft1Carolyn_lessNoise_PlusLocalization,2021.2.3,59.9129035792163,
,,,,,,,,nearLeft,-6.5,1,ch1Sound_localizationTask.wav,-6.5,"(857, 878)","(-103,-202)",-95,-338,,,,,,,,,,,,,0,2,2,2,,,,,,,,,,,,,,,,,,,,,,,,,,,,,,,,,,,,,,,,878.1323587582447,None,,,881.1486746631563,None,1.4211640211640213,1.2666085287928581,881.1486746631563,None,,,,,,,879.1322734472342,None,879.3157002930529,879.3322910298593,,,,,,,75,001,2023_Apr_17_1421,SpeechDraft1Carolyn_lessNoise_PlusLocalization,2021.2.3,59.9129035792163,
,,,,,,,,midRight,13.0,3,ch1Sound_localizationTask.wav,13.0,"(1142, 878)","(182, -202)",190,-338,,,,,,,,,,,,,0,3,3,5,,,,,,,,,,,,,,,,,,,,,,,,,,,,,,,,,,,,,,,,882.4170198631473,None,,,885.448718980886,None,1.6005291005291005,0.7509899768047035,885.448718980886,None,,,,,,,883.4323121202178,None,883.6156987729482,883.6323489439674,,,,,,,75,001,2023_Apr_17_1421,SpeechDraft1Carolyn_lessNoise_PlusLocalization,2021.2.3,59.9129035792163,
,,,,,,,,midLeft,-13.0,2,ch1Sound_localizationTask.wav,-13.0,"(762, 878)","(-198,-202)",-190,-338,,,,,,,,,,,,,0,4,4,1,,,,,,,,,,,,,,,,,,,,,,,,,,,,,,,,,,,,,,,,886.2156846588477,None,,,889.2320567280985,None,1.3756613756613758,0.96792530734092,889.2320567280985,None,,,,,,,887.2156625222415,None,887.3990497202612,887.4156771851704,,,,,,,75,001,2023_Apr_17_1421,SpeechDraft1Carolyn_lessNoise_PlusLocalization,2021.2.3,59.9129035792163,
,,,,,,,,midRight,13.0,3,ch1Sound_localizationTask.wav,13.0,"(1142, 878)","(182, -202)",190,-338,,,,,,,,,,,,,0,5,5,5,,,,,,,,,,,,,,,,,,,,,,,,,,,,,,,,,,,,,,,,890.2157098972239,None,,,893.2320851539262,None,1.621164021164021,0.8183031138032675,893.2320851539262,None,,,,,,,891.2156652058475,None,891.3989879498258,891.4157081879675,,,,,,,75,001,2023_Apr_17_1421,SpeechDraft1Carolyn_lessNoise_PlusLocalization,2021.2.3,59.9129035792163,
,,,,,,,,nearRight,6.5,0,ch1Sound_localizationTask.wav,6.5,"(1047, 878)","(87, -202)",95,-338,,,,,,,,,,,,,0,6,6,4,,,,,,,,,,,,,,,,,,,,,,,,,,,,,,,,,,,,,,,,894.0658365511335,None,,,897.0820479691029,None,1.547089947089947,0.8668354656547308,897.0820479691029,None,,,,,,,895.0659803361632,None,895.2490357961506,895.2657946948893,,,,,,,75,001,2023_Apr_17_1421,SpeechDraft1Carolyn_lessNoise_PlusLocalization,2021.2.3,59.9129035792163,
,,,,,,,,center,0.0,6,ch1Sound_localizationTask.wav,0.0,"(952, 878)","(-8,-202)",0,-338,,,,,,,,,,,,,1,0,7,3,,,,,,,,,,,,,,,,,,,,,,,,,,,,,,,,,,,,,,,,897.9657847280614,None,,,900.9820154430345,None,1.5005291005291004,0.8172398931346834,900.9820154430345,None,,,,,,,898.9656654349528,None,899.1490725190379,899.1656568888575,,,,,,,75,001,2023_Apr_17_1421,SpeechDraft1Carolyn_lessNoise_PlusLocalization,2021.2.3,59.9129035792163,
,,,,,,,,farRight,19.1,4,ch1Sound_localizationTask.wav,19.1,"(1237, 878)","(277,-202)",285,-338,,,,,,,,,,,,,1,1,8,6,,,,,,,,,,,,,,,,,,,,,,,,,,,,,,,,,,,,,,,,901.7995215281844,None,,,904.815431212075,None,1.6645502645502646,1.4827426318079233,904.815431212075,None,,,,,,,902.7994508761913,None,902.9823888181709,902.9989794380963,,,,,,,75,001,2023_Apr_17_1421,SpeechDraft1Carolyn_lessNoise_PlusLocalization,2021.2.3,59.9129035792163,
,,,,,,,,center,0.0,6,ch1Sound_localizationTask.wav,0.0,"(952, 878)","(-8,-202)",0,-338,,,,,,,,,,,,,1,2,9,3,,,,,,,,,,,,,,,,,,,,,,,,,,,,,,,,,,,,,,,,906.2998507530428,None,,,909.3153858198784,None,1.5047619047619047,1.0498872566968203,909.3153858198784,None,,,,,,,907.298949168995,None,907.4824012918398,907.4990772418678,,,,,,,75,001,2023_Apr_17_1421,SpeechDraft1Carolyn_lessNoise_PlusLocalization,2021.2.3,59.9129035792163,
,,,,,,,,center,0.0,6,ch1Sound_localizationTask.wav,0.0,"(952, 878)","(-8,-202)",0,-338,,,,,,,,,,,,,1,3,10,3,,,,,,,,,,,,,,,,,,,,,,,,,,,,,,,,,,,,,,,,910.3668748042546,None,,,913.3987292451784,None,1.5063492063492063,0.44902630476281047,913.3987292451784,None,,,,,,,911.3823857689276,None,911.5656777708791,911.5823698672466,,,,,,,75,001,2023_Apr_17_1421,SpeechDraft1Carolyn_lessNoise_PlusLocalization,2021.2.3,59.9129035792163,
,,,,,,,,midLeft,-13.0,2,ch1Sound_localizationTask.wav,-13.0,"(762, 878)","(-198,-202)",-190,-338,,,,,,,,,,,,,1,4,11,1,,,,,,,,,,,,,,,,,,,,,,,,,,,,,,,,,,,,,,,,913.8490724940784,None,,,916.8654055078514,None,1.364021164021164,0.8159586172550917,916.8654055078514,None,,,,,,,914.849014852196,None,915.0323101961985,915.0490462658927,,,,,,,75,001,2023_Apr_17_1421,SpeechDraft1Carolyn_lessNoise_PlusLocalization,2021.2.3,59.9129035792163,
,,,,,,,,nearRight,6.5,0,ch1Sound_localizationTask.wav,6.5,"(1047, 878)","(87, -202)",95,-338,,,,,,,,,,,,,1,5,12,4,,,,,,,,,,,,,,,,,,,,,,,,,,,,,,,,,,,,,,,,917.6838116948493,None,,,920.7154023381881,None,1.5523809523809524,0.9848560630343854,920.7154023381881,None,,,,,,,918.6990447468124,None,918.8823151779361,918.8990262108855,,,,,,,75,001,2023_Apr_17_1421,SpeechDraft1Carolyn_lessNoise_PlusLocalization,2021.2.3,59.9129035792163,
,,,,,,,,nearRight,6.5,0,ch1Sound_localizationTask.wav,6.5,"(1047, 878)","(87, -202)",95,-338,,,,,,,,,,,,,1,6,13,4,,,,,,,,,,,,,,,,,,,,,,,,,,,,,,,,,,,,,,,,921.7156820599921,None,,,924.7321022949181,None,1.5772486772486771,0.6163906520232558,924.7321022949181,None,,,,,,,922.7156768371351,None,922.8990356689319,922.9156435071491,,,,,,,75,001,2023_Apr_17_1421,SpeechDraft1Carolyn_lessNoise_PlusLocalization,2021.2.3,59.9129035792163,
,,,,,,,,center,0.0,6,ch1Sound_localizationTask.wav,0.0,"(952, 878)","(-8,-202)",0,-338,,,,,,,,,,,,,2,0,14,3,,,,,,,,,,,,,,,,,,,,,,,,,,,,,,,,,,,,,,,,925.3653621771373,None,,,928.3820649269037,None,1.5026455026455028,0.6498297029174864,928.3820649269037,None,,,,,,,926.365676606074,None,926.5490090721287,926.5656919241883,,,,,,,75,001,2023_Apr_17_1421,SpeechDraft1Carolyn_lessNoise_PlusLocalization,2021.2.3,59.9129035792163,
,,,,,,,,midLeft,-13.0,2,ch1Sound_localizationTask.wav,-13.0,"(762, 878)","(-198,-202)",-190,-338,,,,,,,,,,,,,2,1,15,1,,,,,,,,,,,,,,,,,,,,,,,,,,,,,,,,,,,,,,,,929.0335239432752,None,,,932.0654686428607,None,1.375132275132275,0.6667585209943354,932.0654686428607,None,,,,,,,930.04898988083,None,930.232361427974,930.2490158379078,,,,,,,75,001,2023_Apr_17_1421,SpeechDraft1Carolyn_lessNoise_PlusLocalization,2021.2.3,59.9129035792163,
,,,,,,,,farLeft,-19.1,5,ch1Sound_localizationTask.wav,-19.1,"(667, 878)","(-293,-202)",-285,-338,,,,,,,,,,,,,2,2,16,0,,,,,,,,,,,,,,,,,,,,,,,,,,,,,,,,,,,,,,,,932.7341042151675,None,,,935.7654815320857,None,1.2978835978835979,0.7013171766884625,935.7654815320857,None,,,,,,,933.7491193870082,None,933.9323736410588,933.9490860952064,,,,,,,75,001,2023_Apr_17_1421,SpeechDraft1Carolyn_lessNoise_PlusLocalization,2021.2.3,59.9129035792163,
,,,,,,,,midRight,13.0,3,ch1Sound_localizationTask.wav,13.0,"(1142, 878)","(182, -202)",190,-338,,,,,,,,,,,,,2,3,17,5,,,,,,,,,,,,,,,,,,,,,,,,,,,,,,,,,,,,,,,,936.482530219946,None,,,939.4987790640444,None,1.6015873015873017,1.0358438449911773,939.4987790640444,None,,,,,,,937.4825324341655,None,937.6657071858644,937.6825416241772,,,,,,,75,001,2023_Apr_17_1421,SpeechDraft1Carolyn_lessNoise_PlusLocalization,2021.2.3,59.9129035792163,
,,,,,,,,farRight,19.1,4,ch1Sound_localizationTask.wav,19.1,"(1237, 878)","(277,-202)",285,-338,,,,,,,,,,,,,2,4,18,6,,,,,,,,,,,,,,,,,,,,,,,,,,,,,,,,,,,,,,,,940.5492351138964,None,,,943.5655378461815,None,1.6873015873015873,1.100284371059388,943.5655378461815,None,,,,,,,941.5490953242406,None,941.7324515790679,941.7493314961903,,,,,,,75,001,2023_Apr_17_1421,SpeechDraft1Carolyn_lessNoise_PlusLocalization,2021.2.3,59.9129035792163,
,,,,,,,,farRight,19.1,4,ch1Sound_localizationTask.wav,19.1,"(1237, 878)","(277,-202)",285,-338,,,,,,,,,,,,,2,5,19,6,,,,,,,,,,,,,,,,,,,,,,,,,,,,,,,,,,,,,,,,944.6824698611163,None,,,947.6987994150259,None,1.6899470899470899,0.8841287372633815,947.6987994150259,None,,,,,,,945.6826233020984,None,945.8658229508437,945.88236447284,,,,,,,75,001,2023_Apr_17_1421,SpeechDraft1Carolyn_lessNoise_PlusLocalization,2021.2.3,59.9129035792163,
,,,,,,,,midLeft,-13.0,2,ch1Sound_localizationTask.wav,-13.0,"(762, 878)","(-198,-202)",-190,-338,,,,,,,,,,,,,2,6,20,1,,,,,,,,,,,,,,,,,,,,,,,,,,,,,,,,,,,,,,,,948.5992216449231,None,,,951.6156568792649,None,1.3873015873015873,0.8008726020343602,951.6156568792649,None,,,,,,,949.599200818222,None,949.782357736025,949.7990226922557,,,,,,,75,001,2023_Apr_17_1421,SpeechDraft1Carolyn_lessNoise_PlusLocalization,2021.2.3,59.9129035792163,
,,,,,,,,farRight,19.1,4,ch1Sound_localizationTask.wav,19.1,"(1237, 878)","(277,-202)",285,-338,,,,,,,,,,,,,3,0,21,6,,,,,,,,,,,,,,,,,,,,,,,,,,,,,,,,,,,,,,,,952.4325845171697,None,,,955.4488265290856,None,1.673015873015873,0.7181968363001943,955.4488265290856,None,,,,,,,953.4324103752151,None,953.6157460892573,953.6323583731428,,,,,,,75,001,2023_Apr_17_1421,SpeechDraft1Carolyn_lessNoise_PlusLocalization,2021.2.3,59.9129035792163,
,,,,,,,,nearLeft,-6.5,1,ch1Sound_localizationTask.wav,-6.5,"(857, 878)","(-103,-202)",-95,-338,,,,,,,,,,,,,3,1,22,2,,,,,,,,,,,,,,,,,,,,,,,,,,,,,,,,,,,,,,,,956.1826590811834,None,,,959.198831321206,None,1.4370370370370371,0.6329000722616911,959.198831321206,None,,,,,,,957.1824358701706,None,957.365904090926,957.3825504588895,,,,,,,75,001,2023_Apr_17_1421,SpeechDraft1Carolyn_lessNoise_PlusLocalization,2021.2.3,59.9129035792163,
,,,,,,,,midRight,13.0,3,ch1Sound_localizationTask.wav,13.0,"(1142, 878)","(182, -202)",190,-338,,,,,,,,,,,,,3,2,23,5,,,,,,,,,,,,,,,,,,,,,,,,,,,,,,,,,,,,,,,,959.8336103479378,None,,,962.8655075361021,None,1.6126984126984127,0.8671647142618895,962.8655075361021,None,,,,,,,960.8491229168139,None,961.0324319968931,961.0490896669216,,,,,,,75,001,2023_Apr_17_1421,SpeechDraft1Carolyn_lessNoise_PlusLocalization,2021.2.3,59.9129035792163,
,,,,,,,,nearLeft,-6.5,1,ch1Sound_localizationTask.wav,-6.5,"(857, 878)","(-103,-202)",-95,-338,,,,,,,,,,,,,3,3,24,2,,,,,,,,,,,,,,,,,,,,,,,,,,,,,,,,,,,,,,,,963.7492129472084,None,,,966.7655690610409,None,1.4513227513227513,0.8680531871505082,966.7655690610409,None,,,,,,,964.7491176920012,None,964.9324093689211,964.9490745239891,,,,,,,75,001,2023_Apr_17_1421,SpeechDraft1Carolyn_lessNoise_PlusLocalization,2021.2.3,59.9129035792163,
,,,,,,,,nearLeft,-6.5,1,ch1Sound_localizationTask.wav,-6.5,"(857, 878)","(-103,-202)",-95,-338,,,,,,,,,,,,,3,4,25,2,,,,,,,,,,,,,,,,,,,,,,,,,,,,,,,,,,,,,,,,967.649265945889,None,,,970.665655344259,None,1.438095238095238,0.5994861661456525,970.665655344259,None,,,,,,,968.6492433878593,None,968.8324502781034,968.8491237349808,,,,,,,75,001,2023_Apr_17_1421,SpeechDraft1Carolyn_lessNoise_PlusLocalization,2021.2.3,59.9129035792163,
,,,,,,,,midLeft,-13.0,2,ch1Sound_localizationTask.wav,-13.0,"(762, 878)","(-198,-202)",-190,-338,,,,,,,,,,,,,3,5,26,1,,,,,,,,,,,,,,,,,,,,,,,,,,,,,,,,,,,,,,,,971.2667516400106,None,,,974.2821754799224,None,1.3714285714285714,0.8337560552172363,974.2821754799224,None,,,,,,,972.2657239250839,None,972.4491762649268,972.4657203848474,,,,,,,75,001,2023_Apr_17_1421,SpeechDraft1Carolyn_lessNoise_PlusLocalization,2021.2.3,59.9129035792163,
,,,,,,,,nearRight,6.5,0,ch1Sound_localizationTask.wav,6.5,"(1047, 878)","(87, -202)",95,-338,,,,,,,,,,,,,3,6,27,4,,,,,,,,,,,,,,,,,,,,,,,,,,,,,,,,,,,,,,,,975.1324352668598,None,,,978.1488397922367,None,1.5523809523809524,0.766496951226145,978.1488397922367,None,,,,,,,976.1323948251083,None,976.3157718330622,976.3324065720662,,,,,,,75,001,2023_Apr_17_1421,SpeechDraft1Carolyn_lessNoise_PlusLocalization,2021.2.3,59.9129035792163,
,,,,,,,,farLeft,-19.1,5,ch1Sound_localizationTask.wav,-19.1,"(667, 878)","(-293,-202)",-285,-338,,,,,,,,,,,,,4,0,28,0,,,,,,,,,,,,,,,,,,,,,,,,,,,,,,,,,,,,,,,,978.9324612691998,None,,,981.9488689610735,None,1.2931216931216931,0.7671735328622162,981.9488689610735,None,,,,,,,979.9324641209096,None,980.1157985269092,980.1323816282675,,,,,,,75,001,2023_Apr_17_1421,SpeechDraft1Carolyn_lessNoise_PlusLocalization,2021.2.3,59.9129035792163,
,,,,,,,,midLeft,-13.0,2,ch1Sound_localizationTask.wav,-13.0,"(762, 878)","(-198,-202)",-190,-338,,,,,,,,,,,,,4,1,29,1,,,,,,,,,,,,,,,,,,,,,,,,,,,,,,,,,,,,,,,,982.7325300369412,None,,,985.7488860562444,None,1.3947089947089948,0.6831110119819641,985.7488860562444,None,,,,,,,983.7323842970654,None,983.9157768711448,983.9323978340253,,,,,,,75,001,2023_Apr_17_1421,SpeechDraft1Carolyn_lessNoise_PlusLocalization,2021.2.3,59.9129035792163,
,,,,,,,,nearRight,6.5,0,ch1Sound_localizationTask.wav,6.5,"(1047, 878)","(87, -202)",95,-338,,,,,,,,,,,,,4,2,30,4,,,,,,,,,,,,,,,,,,,,,,,,,,,,,,,,,,,,,,,,986.4336523530073,None,,,989.4655052809976,None,1.5481481481481483,0.70030462089926,989.4655052809976,None,,,,,,,987.4491966692731,None,987.6324628088623,987.6493092072196,,,,,,,75,001,2023_Apr_17_1421,SpeechDraft1Carolyn_lessNoise_PlusLocalization,2021.2.3,59.9129035792163,
,,,,,,,,midRight,13.0,3,ch1Sound_localizationTask.wav,13.0,"(1142, 878)","(182, -202)",190,-338,,,,,,,,,,,,,4,3,31,5,,,,,,,,,,,,,,,,,,,,,,,,,,,,,,,,,,,,,,,,990.1826150119305,None,,,993.1987720518373,None,1.625925925925926,0.8990294439718127,993.1987720518373,None,,,,,,,991.1824353919365,None,991.3658276312053,991.382423798088,,,,,,,75,001,2023_Apr_17_1421,SpeechDraft1Carolyn_lessNoise_PlusLocalization,2021.2.3,59.9129035792163,
,,,,,,,,midRight,13.0,3,ch1Sound_localizationTask.wav,13.0,"(1142, 878)","(182, -202)",190,-338,,,,,,,,,,,,,4,4,32,5,,,,,,,,,,,,,,,,,,,,,,,,,,,,,,,,,,,,,,,,994.1001580171287,None,,,997.1155292210169,None,1.6164021164021163,0.7678652522154152,997.1155292210169,None,,,,,,,995.0991374012083,None,995.2824919619597,995.2991812792607,,,,,,,75,001,2023_Apr_17_1421,SpeechDraft1Carolyn_lessNoise_PlusLocalization,2021.2.3,59.9129035792163,
,,,,,,,,center,0.0,6,ch1Sound_localizationTask.wav,0.0,"(952, 878)","(-8,-202)",0,-338,,,,,,,,,,,,,4,5,33,3,,,,,,,,,,,,,,,,,,,,,,,,,,,,,,,,,,,,,,,,997.8991433880292,None,,,1000.9156328020617,None,1.5005291005291004,0.7662648791447282,1000.9156328020617,None,,,,,,,998.8991999579594,None,999.0825607702136,999.0992409889586,,,,,,,75,001,2023_Apr_17_1421,SpeechDraft1Carolyn_lessNoise_PlusLocalization,2021.2.3,59.9129035792163,
,,,,,,,,farRight,19.1,4,ch1Sound_localizationTask.wav,19.1,"(1237, 878)","(277,-202)",285,-338,,,,,,,,,,,,,4,6,34,6,,,,,,,,,,,,,,,,,,,,,,,,,,,,,,,,,,,,,,,,1001.6825654581189,None,,,1004.6990514998324,None,1.6682539682539683,0.7012752718292177,1004.6990514998324,None,,,,,,,1002.6824616948143,None,1002.865862165112,1002.8824681099504,,,,,,,75,001,2023_Apr_17_1421,SpeechDraft1Carolyn_lessNoise_PlusLocalization,2021.2.3,59.9129035792163,
,,,,,,,,midLeft,-13.0,2,ch1Sound_localizationTask.wav,-13.0,"(762, 878)","(-198,-202)",-190,-338,,,,,,,,,,,,,5,0,35,1,,,,,,,,,,,,,,,,,,,,,,,,,,,,,,,,,,,,,,,,1005.4158890629187,None,,,1008.432287379168,None,1.3904761904761904,0.9002982978709042,1008.432287379168,None,,,,,,,1006.4158357470296,None,1006.5991815952584,1006.6157872141339,,,,,,,75,001,2023_Apr_17_1421,SpeechDraft1Carolyn_lessNoise_PlusLocalization,2021.2.3,59.9129035792163,
,,,,,,,,midRight,13.0,3,ch1Sound_localizationTask.wav,13.0,"(1142, 878)","(182, -202)",190,-338,,,,,,,,,,,,,5,1,36,5,,,,,,,,,,,,,,,,,,,,,,,,,,,,,,,,,,,,,,,,1009.349305566866,None,,,1012.3655165829696,None,1.6285714285714286,0.783190883230418,1012.3655165829696,None,,,,,,,1010.34918402927,None,1010.5325664230622,1010.5491219009273,,,,,,,75,001,2023_Apr_17_1421,SpeechDraft1Carolyn_lessNoise_PlusLocalization,2021.2.3,59.9129035792163,
,,,,,,,,center,0.0,6,ch1Sound_localizationTask.wav,0.0,"(952, 878)","(-8,-202)",0,-338,,,,,,,,,,,,,5,2,37,3,,,,,,,,,,,,,,,,,,,,,,,,,,,,,,,,,,,,,,,,1013.1660079588182,None,,,1016.1825326969847,None,1.502116402116402,0.7821816960349679,1016.1825326969847,None,,,,,,,1014.1661104331724,None,1014.349300227128,1014.3658613879234,,,,,,,75,001,2023_Apr_17_1421,SpeechDraft1Carolyn_lessNoise_PlusLocalization,2021.2.3,59.9129035792163,
,,,,,,,,farRight,19.1,4,ch1Sound_localizationTask.wav,19.1,"(1237, 878)","(277,-202)",285,-338,,,,,,,,,,,,,5,3,38,6,,,,,,,,,,,,,,,,,,,,,,,,,,,,,,,,,,,,,,,,1016.9830811922438,None,,,1019.999086777214,None,1.6873015873015873,0.5989785376004875,1019.999086777214,None,,,,,,,1017.9826686820015,None,1018.1662268228829,1018.1829905752093,,,,,,,75,001,2023_Apr_17_1421,SpeechDraft1Carolyn_lessNoise_PlusLocalization,2021.2.3,59.9129035792163,
,,,,,,,,farLeft,-19.1,5,ch1Sound_localizationTask.wav,-19.1,"(667, 878)","(-293,-202)",-285,-338,,,,,,,,,,,,,5,4,39,0,,,,,,,,,,,,,,,,,,,,,,,,,,,,,,,,,,,,,,,,1020.6160860541277,None,,,1023.6323115141131,None,1.3645502645502645,0.9334844369441271,1023.6323115141131,None,,,,,,,1021.615825667046,None,1021.7992095490918,1021.8159168288112,,,,,,,75,001,2023_Apr_17_1421,SpeechDraft1Carolyn_lessNoise_PlusLocalization,2021.2.3,59.9129035792163,
,,,,,,,,nearRight,6.5,0,ch1Sound_localizationTask.wav,6.5,"(1047, 878)","(87, -202)",95,-338,,,,,,,,,,,,,5,5,40,4,,,,,,,,,,,,,,,,,,,,,,,,,,,,,,,,,,,,,,,,1024.58266007388,None,,,1027.5989929731004,None,1.5555555555555556,0.9348473530262709,1027.5989929731004,None,,,,,,,1025.5824656412005,None,1025.7658262108453,1025.7825867491774,,,,,,,75,001,2023_Apr_17_1421,SpeechDraft1Carolyn_lessNoise_PlusLocalization,2021.2.3,59.9129035792163,
,,,,,,,,nearLeft,-6.5,1,ch1Sound_localizationTask.wav,-6.5,"(857, 878)","(-103,-202)",-95,-338,,,,,,,,,,,,,5,6,41,2,,,,,,,,,,,,,,,,,,,,,,,,,,,,,,,,,,,,,,,,1028.5491682998836,None,,,1031.5655707768165,None,1.438095238095238,0.8838446862064302,1031.5655707768165,None,,,,,,,1029.5491807730868,None,1029.7325105001219,1029.74922653893,,,,,,,75,001,2023_Apr_17_1421,SpeechDraft1Carolyn_lessNoise_PlusLocalization,2021.2.3,59.9129035792163,
,,,,,,,,farLeft,-19.1,5,ch1Sound_localizationTask.wav,-19.1,"(667, 878)","(-293,-202)",-285,-338,,,,,,,,,,,,,6,0,42,0,,,,,,,,,,,,,,,,,,,,,,,,,,,,,,,,,,,,,,,,1032.4660659162328,None,,,1035.4821763709188,None,1.3296296296296295,1.0836922330781817,1035.4821763709188,None,,,,,,,1033.4659360102378,None,1033.649213667959,1033.66586561827,,,,,,,75,001,2023_Apr_17_1421,SpeechDraft1Carolyn_lessNoise_PlusLocalization,2021.2.3,59.9129035792163,
,,,,,,,,farLeft,-19.1,5,ch1Sound_localizationTask.wav,-19.1,"(667, 878)","(-293,-202)",-285,-338,,,,,,,,,,,,,6,1,43,0,,,,,,,,,,,,,,,,,,,,,,,,,,,,,,,,,,,,,,,,1036.582679449115,None,,,1039.598885810934,None,1.3455026455026455,0.9003668557852507,1039.598885810934,None,,,,,,,1037.5824593259022,None,1037.7659617271274,1037.782432938926,,,,,,,75,001,2023_Apr_17_1421,SpeechDraft1Carolyn_lessNoise_PlusLocalization,2021.2.3,59.9129035792163,
,,,,,,,,nearRight,6.5,0,ch1Sound_localizationTask.wav,6.5,"(1047, 878)","(87, -202)",95,-338,,,,,,,,,,,,,6,2,44,4,,,,,,,,,,,,,,,,,,,,,,,,,,,,,,,,,,,,,,,,1040.5159651241265,None,,,1043.532409016043,None,1.5433862433862435,0.6497856639325619,1043.532409016043,None,,,,,,,1041.5158636979759,None,1041.6992406439967,1041.7158453939483,,,,,,,75,001,2023_Apr_17_1421,SpeechDraft1Carolyn_lessNoise_PlusLocalization,2021.2.3,59.9129035792163,
,,,,,,,,center,0.0,6,ch1Sound_localizationTask.wav,0.0,"(952, 878)","(-8,-202)",0,-338,,,,,,,,,,,,,6,3,45,3,,,,,,,,,,,,,,,,,,,,,,,,,,,,,,,,,,,,,,,,1044.1839830288664,None,,,1047.2156044901349,None,1.4936507936507937,0.583128472790122,1047.2156044901349,None,,,,,,,1045.1992848082446,None,1045.3826049738564,1045.3992228950374,,,,,,,75,001,2023_Apr_17_1421,SpeechDraft1Carolyn_lessNoise_PlusLocalization,2021.2.3,59.9129035792163,
,,,,,,,,nearLeft,-6.5,1,ch1Sound_localizationTask.wav,-6.5,"(857, 878)","(-103,-202)",-95,-338,,,,,,,,,,,,,6,4,46,2,,,,,,,,,,,,,,,,,,,,,,,,,,,,,,,,,,,,,,,,1047.7997957412153,None,,,1050.8156318189576,None,1.4317460317460318,0.8841795139014721,1050.8156318189576,None,,,,,,,1048.7993441931903,None,1048.9825365040451,1048.9994621849619,,,,,,,75,001,2023_Apr_17_1421,SpeechDraft1Carolyn_lessNoise_PlusLocalization,2021.2.3,59.9129035792163,
,,,,,,,,nearLeft,-6.5,1,ch1Sound_localizationTask.wav,-6.5,"(857, 878)","(-103,-202)",-95,-338,,,,,,,,,,,,,6,5,47,2,,,,,,,,,,,,,,,,,,,,,,,,,,,,,,,,,,,,,,,,1051.7159172189422,None,,,1054.7321928869933,None,1.4417989417989419,0.5996279041282833,1054.7321928869933,None,,,,,,,1052.7158382711932,None,1052.8992158682086,1052.9158711079508,,,,,,,75,001,2023_Apr_17_1421,SpeechDraft1Carolyn_lessNoise_PlusLocalization,2021.2.3,59.9129035792163,
,,,,,,,,nearRight,6.5,0,ch1Sound_localizationTask.wav,6.5,"(1047, 878)","(87, -202)",95,-338,,,,,,,,,,,,,6,6,48,4,,,,,,,,,,,,,,,,,,,,,,,,,,,,,,,,,,,,,,,,1055.3494573519565,None,,,1058.365551225841,None,1.574074074074074,0.7345473719760776,1058.365551225841,None,,,,,,,1056.3491827799007,None,1056.5326366499066,1056.5492076980881,,,,,,,75,001,2023_Apr_17_1421,SpeechDraft1Carolyn_lessNoise_PlusLocalization,2021.2.3,59.9129035792163,
,,,,,,,,farLeft,-19.1,5,ch1Sound_localizationTask.wav,-19.1,"(667, 878)","(-293,-202)",-285,-338,,,,,,,,,,,,,7,0,49,0,,,,,,,,,,,,,,,,,,,,,,,,,,,,,,,,,,,,,,,,1059.1159780449234,None,,,1062.1322538838722,None,1.2751322751322751,0.7515147989615798,1062.1322538838722,None,,,,,,,1060.1159786232747,None,1060.2991950870492,1060.315864926204,,,,,,,75,001,2023_Apr_17_1421,SpeechDraft1Carolyn_lessNoise_PlusLocalization,2021.2.3,59.9129035792163,
,,,,,,,,nearLeft,-6.5,1,ch1Sound_localizationTask.wav,-6.5,"(857, 878)","(-103,-202)",-95,-338,,,,,,,,,,,,,7,1,50,2,,,,,,,,,,,,,,,,,,,,,,,,,,,,,,,,,,,,,,,,1062.89914542716,None,,,1065.9154756558128,None,1.4116402116402116,0.5833510337397456,1065.9154756558128,None,,,,,,,1063.8992378441617,None,1064.0826333002187,1064.0992559459992,,,,,,,75,001,2023_Apr_17_1421,SpeechDraft1Carolyn_lessNoise_PlusLocalization,2021.2.3,59.9129035792163,
,,,,,,,,farLeft,-19.1,5,ch1Sound_localizationTask.wav,-19.1,"(667, 878)","(-293,-202)",-285,-338,,,,,,,,,,,,,7,2,51,0,,,,,,,,,,,,,,,,,,,,,,,,,,,,,,,,,,,,,,,,1066.4993332112208,None,,,1069.515485810116,None,1.3042328042328042,0.717034085188061,1069.515485810116,None,,,,,,,1067.499283643905,None,1067.6826007179916,1067.699316330254,,,,,,,75,001,2023_Apr_17_1421,SpeechDraft1Carolyn_lessNoise_PlusLocalization,2021.2.3,59.9129035792163,
,,,,,,,,midRight,13.0,3,ch1Sound_localizationTask.wav,13.0,"(1142, 878)","(182, -202)",190,-338,,,,,,,,,,,,,7,3,52,5,,,,,,,,,,,,,,,,,,,,,,,,,,,,,,,,,,,,,,,,1070.2493116469122,None,,,1073.2657830170356,None,1.6026455026455027,0.883429657202214,1073.2657830170356,None,,,,,,,1071.2492632842623,None,1071.432592549827,1071.4491621050984,,,,,,,75,001,2023_Apr_17_1421,SpeechDraft1Carolyn_lessNoise_PlusLocalization,2021.2.3,59.9129035792163,
,,,,,,,,center,0.0,6,ch1Sound_localizationTask.wav,0.0,"(952, 878)","(-8,-202)",0,-338,,,,,,,,,,,,,7,4,53,3,,,,,,,,,,,,,,,,,,,,,,,,,,,,,,,,,,,,,,,,1074.1660334961489,None,,,1077.1822882168926,None,1.4835978835978836,0.867278671823442,1077.1822882168926,None,,,,,,,1075.166219686158,None,1075.3492185031064,1075.3658954440616,,,,,,,75,001,2023_Apr_17_1421,SpeechDraft1Carolyn_lessNoise_PlusLocalization,2021.2.3,59.9129035792163,
,,,,,,,,farRight,19.1,4,ch1Sound_localizationTask.wav,19.1,"(1237, 878)","(277,-202)",285,-338,,,,,,,,,,,,,7,5,54,6,,,,,,,,,,,,,,,,,,,,,,,,,,,,,,,,,,,,,,,,1078.0659877969883,None,,,1081.0823401222005,None,1.6941798941798942,0.7338034729473293,1081.0823401222005,None,,,,,,,1079.0658827042207,None,1079.249229237903,1079.2659948980436,,,,,,,75,001,2023_Apr_17_1421,SpeechDraft1Carolyn_lessNoise_PlusLocalization,2021.2.3,59.9129035792163,
,,,,,,,,midLeft,-13.0,2,ch1Sound_localizationTask.wav,-13.0,"(762, 878)","(-198,-202)",-190,-338,,,,,,,,,,,,,7,6,55,1,,,,,,,,,,,,,,,,,,,,,,,,,,,,,,,,,,,,,,,,1081.8326318738982,None,,,1084.8488322230987,None,1.3894179894179894,0.6330651128664613,1084.8488322230987,None,,,,,,,1082.8326308890246,None,1083.015868999064,1083.032577819191,,,,,,,75,001,2023_Apr_17_1421,SpeechDraft1Carolyn_lessNoise_PlusLocalization,2021.2.3,59.9129035792163,
,,,,,,,,,,,,,,,,,,,,,,,,,,,,,,,,,,,,,,,,,,,,,,,,,,,,,,,,,,,,,,,,,,,,,,,,,,,,,,,,,,,,,,,,,,,,1085.4993872768246,None,c,339.1941629089415,1086.4825705159456,None,75,001,2023_Apr_17_1421,SpeechDraft1Carolyn_lessNoise_PlusLocalization,2021.2.3,59.9129035792163,
