Audio_Only_Files,Video_Files,Original_Word_List,noiseLevelCode,conditionCodes,noiseLevelFile1,noiseLevelFile2,InstrTextVar,targetSpeakerName,targetSpeakerEccen,targetSpkrChannel,targetSpkrSound,targetVisualDegrees,visStimLoc,visStimLoc2,visStimW,visStimH,practiceTrials.thisRepN,practiceTrials.thisTrialN,practiceTrials.thisN,practiceTrials.thisIndex,trials.thisRepN,trials.thisTrialN,trials.thisN,trials.thisIndex,audLocalLoop.thisRepN,audLocalLoop.thisTrialN,audLocalLoop.thisN,audLocalLoop.thisIndex,visualLocalLoop.thisRepN,visualLocalLoop.thisTrialN,visualLocalLoop.thisN,visualLocalLoop.thisIndex,letsGoAlready.keys,letsGoAlready.rt,letsGoAlready.started,letsGoAlready.stopped,text_2.started,text_2.stopped,text_3.started,text_3.stopped,key_resp_2.keys,key_resp_2.rt,key_resp_2.started,key_resp_2.stopped,text_5.started,text_5.stopped,fixCross.started,fixCross.stopped,fixCross2.started,fixCross2.stopped,answerPrompt.started,answerPrompt.stopped,getAnswer.text,getAnswer.started,getAnswer.stopped,goToNext.keys,goToNext.rt,goToNext.started,goToNext.stopped,stretchBreakTxrt.started,stretchBreakTxrt.stopped,key_resp_3.keys,key_resp_3.rt,key_resp_3.started,key_resp_3.stopped,letsGoLocal.keys,letsGoLocal.rt,letsGoLocal.started,letsGoLocal.stopped,text_4.started,text_4.stopped,prepFixTxt.started,prepFixTxt.stopped,prepFixTxt_2.started,prepFixTxt_2.stopped,respPromptLocal.started,respPromptLocal.stopped,slider.response,slider.rt,slider.started,slider.stopped,letsGoLocal_2.keys,letsGoLocal_2.rt,letsGoLocal_2.started,letsGoLocal_2.stopped,text_7.started,text_7.stopped,prepFixTxt_3.started,prepFixTxt_3.stopped,grating.started,grating.stopped,exitTxt.started,exitTxt.stopped,key_resp.keys,key_resp.rt,key_resp.started,key_resp.stopped,participant,session,date,expName,psychopyVersion,frameRate,
,,,,,,,,,,,,,,,,,,,,,,,,,,,,,,,,,space,36.53386097867042,32.509754998609424,None,,,,,,,,,,,,,,,,,,,,,,,,,,,,,,,,,,,,,,,,,,,,,,,,,,,,,,,,,,,,,,76,001,2023_Apr_17_1814,SpeechDraft1Carolyn_lessNoise_PlusLocalization,2021.2.3,60.015642417288625,
,,,,,,,,,,,,,,,,,,,,,,,,,,,,,,,,,,,,,32.509754998609424,None,69.17591031780466,None,space,15.772161219734699,69.35952154360712,None,,,,,,,,,,,,,,,,,,,,,,,,,,,,,,,,,,,,,,,,,,,,,,,,,,,,,,76,001,2023_Apr_17_1814,SpeechDraft1Carolyn_lessNoise_PlusLocalization,2021.2.3,60.015642417288625,
ash.wav,ash.mpg,ash,1,A,Pink_Noise_1_1.wav,Pink_Noise_1_2.wav,"This is an example of an

AUDIO trial",,,,,,,,,,0,0,0,0,,,,,,,,,,,,,,,,,,,,,,,,,85.17640062281862,None,86.17620040476322,None,89.3926979326643,None,90.77666424680501,None,fish,90.77666424680501,None,return,4.376034148968756,90.85957702761516,None,,,,,,,,,,,,,,,,,,,,,,,,,,,,,,,,,,,,,,,76,001,2023_Apr_17_1814,SpeechDraft1Carolyn_lessNoise_PlusLocalization,2021.2.3,60.015642417288625,
ash.wav,ash.mpg,ash,1,AV,Pink_Noise_1_1.wav,Pink_Noise_1_2.wav,"This is an example of an

AUDIO + VIDEO  trial",,,,,,,,,,0,1,1,1,,,,,,,,,,,,,,,,,,,,,,,,,95.27594127086923,None,96.27616656571627,None,97.75954878283665,None,99.14292930578813,None,"ash
",99.14292930578813,None,return,2.817376679740846,99.22624814789742,None,,,,,,,,,,,,,,,,,,,,,,,,,,,,,,,,,,,,,,,76,001,2023_Apr_17_1814,SpeechDraft1Carolyn_lessNoise_PlusLocalization,2021.2.3,60.015642417288625,
,,,,,,,,,,,,,,,,,,,,,,,,,,,,,,,,,,,,,,,,,,,,,,,,,,,,,,,,,,,,102.09264389565215,None,space,15.007370759733021,102.27623508963734,None,,,,,,,,,,,,,,,,,,,,,,,,,,,,,,,,,76,001,2023_Apr_17_1814,SpeechDraft1Carolyn_lessNoise_PlusLocalization,2021.2.3,60.015642417288625,
base.wav,base.mpg,base,5,A,Pink_Noise_5_1.wav,Pink_Noise_5_2.wav,,,,,,,,,,,,,,,0,0,0,2,,,,,,,,,,,,,,,,,,,,,,,117.34261092869565,None,118.82605185499415,None,120.20965672191232,None,ash,120.20965672191232,None,return,5.974597007967532,120.29300662176684,None,,,,,,,,,,,,,,,,,,,,,,,,,,,,,,,,,,,,,,,76,001,2023_Apr_17_1814,SpeechDraft1Carolyn_lessNoise_PlusLocalization,2021.2.3,60.015642417288625,
blush.wav,blush.mpg,blush,5,A,Pink_Noise_5_1.wav,Pink_Noise_5_2.wav,,,,,,,,,,,,,,,0,1,1,57,,,,,,,,,,,,,,,,,,,,,,,126.29298916971311,None,127.79259648593143,None,129.17635225178674,None,flusj,129.17635225178674,None,return,7.487925443798304,129.25969152897596,None,,,,,,,,,,,,,,,,,,,,,,,,,,,,,,,,,,,,,,,76,001,2023_Apr_17_1814,SpeechDraft1Carolyn_lessNoise_PlusLocalization,2021.2.3,60.015642417288625,
grim.wav,grim.mpg,grim,2,AV,Pink_Noise_2_1.wav,Pink_Noise_2_2.wav,,,,,,,,,,,,,,,0,2,2,108,,,,,,,,,,,,,,,,,,,,,,,136.77630116185173,None,138.275933614932,None,139.65970802260563,None,grim,139.65970802260563,None,return,3.36467816028744,139.74297726294026,None,,,,,,,,,,,,,,,,,,,,,,,,,,,,,,,,,,,,,,,76,001,2023_Apr_17_1814,SpeechDraft1Carolyn_lessNoise_PlusLocalization,2021.2.3,60.015642417288625,
cramp.wav,cramp.mpg,cramp,3,A,Pink_Noise_3_1.wav,Pink_Noise_3_2.wav,,,,,,,,,,,,,,,0,3,3,27,,,,,,,,,,,,,,,,,,,,,,,143.12634975183755,None,144.62607671460137,None,146.01037694094703,None,cram,146.01037694094703,None,return,3.1907426938414574,146.09298075689003,None,,,,,,,,,,,,,,,,,,,,,,,,,,,,,,,,,,,,,,,76,001,2023_Apr_17_1814,SpeechDraft1Carolyn_lessNoise_PlusLocalization,2021.2.3,60.015642417288625,
dip.wav,dip.mpg,dip,1,AV,Pink_Noise_1_1.wav,Pink_Noise_1_2.wav,,,,,,,,,,,,,,,0,4,4,78,,,,,,,,,,,,,,,,,,,,,,,149.30958641599864,None,150.80928939161822,None,152.19289575563744,None,dip,152.19289575563744,None,return,1.4873896748758852,152.27623560559005,None,,,,,,,,,,,,,,,,,,,,,,,,,,,,,,,,,,,,,,,76,001,2023_Apr_17_1814,SpeechDraft1Carolyn_lessNoise_PlusLocalization,2021.2.3,60.015642417288625,
cease.wav,cease.mpg,cease,3,A,Pink_Noise_3_1.wav,Pink_Noise_3_2.wav,,,,,,,,,,,,,,,0,5,5,49,,,,,,,,,,,,,,,,,,,,,,,153.7929649585858,None,155.2927782270126,None,156.65966581273824,None,cease,156.65966581273824,None,return,2.332748331129551,156.7429463909939,None,,,,,,,,,,,,,,,,,,,,,,,,,,,,,,,,,,,,,,,76,001,2023_Apr_17_1814,SpeechDraft1Carolyn_lessNoise_PlusLocalization,2021.2.3,60.015642417288625,
flush.wav,flush.mpg,flush,6,A,Pink_Noise_6_1.wav,Pink_Noise_6_2.wav,,,,,,,,,,,,,,,0,6,6,51,,,,,,,,,,,,,,,,,,,,,,,159.09301712177694,None,160.59268509363756,None,161.9763028267771,None,wash,161.9763028267771,None,return,1.2241455330513418,162.05962552083656,None,,,,,,,,,,,,,,,,,,,,,,,,,,,,,,,,,,,,,,,76,001,2023_Apr_17_1814,SpeechDraft1Carolyn_lessNoise_PlusLocalization,2021.2.3,60.015642417288625,
chop.wav,chop.mpg,chop,6,AV,Pink_Noise_6_1.wav,Pink_Noise_6_2.wav,,,,,,,,,,,,,,,0,7,7,98,,,,,,,,,,,,,,,,,,,,,,,163.30963242892176,None,164.80934966588393,None,166.19296427769586,None,chop,166.19296427769586,None,return,1.6472723679617047,166.27636726899073,None,,,,,,,,,,,,,,,,,,,,,,,,,,,,,,,,,,,,,,,76,001,2023_Apr_17_1814,SpeechDraft1Carolyn_lessNoise_PlusLocalization,2021.2.3,60.015642417288625,
traps.wav,traps.mpg,traps,3,AV,Pink_Noise_3_1.wav,Pink_Noise_3_2.wav,,,,,,,,,,,,,,,0,8,8,107,,,,,,,,,,,,,,,,,,,,,,,167.9430084838532,None,169.42663532402366,None,170.8094988130033,None,traps,170.8094988130033,None,return,1.4067115322686732,170.89307432994246,None,,,,,,,,,,,,,,,,,,,,,,,,,,,,,,,,,,,,,,,76,001,2023_Apr_17_1814,SpeechDraft1Carolyn_lessNoise_PlusLocalization,2021.2.3,60.015642417288625,
flesh.wav,flesh.mpg,flesh,3,AV,Pink_Noise_3_1.wav,Pink_Noise_3_2.wav,,,,,,,,,,,,,,,0,9,9,103,,,,,,,,,,,,,,,,,,,,,,,172.32632025098428,None,173.82598512759432,None,175.20983992889524,None,"lush
",175.20983992889524,None,return,2.502608901821077,175.29299838189036,None,,,,,,,,,,,,,,,,,,,,,,,,,,,,,,,,,,,,,,,76,001,2023_Apr_17_1814,SpeechDraft1Carolyn_lessNoise_PlusLocalization,2021.2.3,60.015642417288625,
bye.wav,bye.mpg,bye,6,AV,Pink_Noise_6_1.wav,Pink_Noise_6_2.wav,,,,,,,,,,,,,,,0,10,10,101,,,,,,,,,,,,,,,,,,,,,,,177.826346618589,None,179.3260010778904,None,180.7097766236402,None,pipe,180.7097766236402,None,return,1.8985888944007456,180.79310968890786,None,,,,,,,,,,,,,,,,,,,,,,,,,,,,,,,,,,,,,,,76,001,2023_Apr_17_1814,SpeechDraft1Carolyn_lessNoise_PlusLocalization,2021.2.3,60.015642417288625,
cough.wav,cough.mpg,cough,6,A,Pink_Noise_6_1.wav,Pink_Noise_6_2.wav,,,,,,,,,,,,,,,0,11,11,9,,,,,,,,,,,,,,,,,,,,,,,182.7097012596205,None,184.19320384366438,None,185.5763160297647,None,cough,185.5763160297647,None,return,4.623980617150664,185.659744404722,None,,,,,,,,,,,,,,,,,,,,,,,,,,,,,,,,,,,,,,,76,001,2023_Apr_17_1814,SpeechDraft1Carolyn_lessNoise_PlusLocalization,2021.2.3,60.015642417288625,
row.wav,row.mpg,row,4,A,Pink_Noise_4_1.wav,Pink_Noise_4_2.wav,,,,,,,,,,,,,,,0,12,12,35,,,,,,,,,,,,,,,,,,,,,,,190.30972843896598,None,191.8093414097093,None,193.19309652177617,None,row,193.19309652177617,None,return,1.1591638722456992,193.2764465259388,None,,,,,,,,,,,,,,,,,,,,,,,,,,,,,,,,,,,,,,,76,001,2023_Apr_17_1814,SpeechDraft1Carolyn_lessNoise_PlusLocalization,2021.2.3,60.015642417288625,
grain.wav,grain.mpg,grain,3,A,Pink_Noise_3_1.wav,Pink_Noise_3_2.wav,,,,,,,,,,,,,,,0,13,13,7,,,,,,,,,,,,,,,,,,,,,,,194.4597638468258,None,195.95948291383684,None,197.34304949594662,None,"grin
",197.34304949594662,None,return,1.9532241229899228,197.426376351621,None,,,,,,,,,,,,,,,,,,,,,,,,,,,,,,,,,,,,,,,76,001,2023_Apr_17_1814,SpeechDraft1Carolyn_lessNoise_PlusLocalization,2021.2.3,60.015642417288625,
cheek.wav,cheek.mpg,cheek,2,AV,Pink_Noise_2_1.wav,Pink_Noise_2_2.wav,,,,,,,,,,,,,,,0,14,14,92,,,,,,,,,,,,,,,,,,,,,,,199.4097126238048,None,200.90937955956906,None,202.2929891347885,None,cheek,202.2929891347885,None,return,1.275350769981742,202.37626641988754,None,,,,,,,,,,,,,,,,,,,,,,,,,,,,,,,,,,,,,,,76,001,2023_Apr_17_1814,SpeechDraft1Carolyn_lessNoise_PlusLocalization,2021.2.3,60.015642417288625,
glad.wav,glad.mpg,glad,1,AV,Pink_Noise_1_1.wav,Pink_Noise_1_2.wav,,,,,,,,,,,,,,,0,15,15,68,,,,,,,,,,,,,,,,,,,,,,,203.67635999200866,None,205.17610713886097,None,206.55960951466113,None,glad,206.55960951466113,None,return,3.288579300045967,206.6431254958734,None,,,,,,,,,,,,,,,,,,,,,,,,,,,,,,,,,,,,,,,76,001,2023_Apr_17_1814,SpeechDraft1Carolyn_lessNoise_PlusLocalization,2021.2.3,60.015642417288625,
dump.wav,dump.mpg,dump,2,AV,Pink_Noise_2_1.wav,Pink_Noise_2_2.wav,,,,,,,,,,,,,,,0,16,16,118,,,,,,,,,,,,,,,,,,,,,,,209.95976741891354,None,211.45960510661826,None,212.8430611579679,None,"dump
",212.8430611579679,None,return,1.5172255639918149,212.9263903927058,None,,,,,,,,,,,,,,,,,,,,,,,,,,,,,,,,,,,,,,,76,001,2023_Apr_17_1814,SpeechDraft1Carolyn_lessNoise_PlusLocalization,2021.2.3,60.015642417288625,
dance.wav,dance.mpg,dance,3,AV,Pink_Noise_3_1.wav,Pink_Noise_3_2.wav,,,,,,,,,,,,,,,0,17,17,71,,,,,,,,,,,,,,,,,,,,,,,214.4764709919691,None,215.97606115462258,None,217.35971153480932,None,dance,217.35971153480932,None,return,1.1046860590577126,217.4429321908392,None,,,,,,,,,,,,,,,,,,,,,,,,,,,,,,,,,,,,,,,76,001,2023_Apr_17_1814,SpeechDraft1Carolyn_lessNoise_PlusLocalization,2021.2.3,60.015642417288625,
blade.wav,blade.mpg,blade,3,A,Pink_Noise_3_1.wav,Pink_Noise_3_2.wav,,,,,,,,,,,,,,,0,18,18,28,,,,,,,,,,,,,,,,,,,,,,,218.57641494600102,None,220.076078876853,None,221.459717344027,None,laid,221.459717344027,None,return,1.5164007479324937,221.54323355294764,None,,,,,,,,,,,,,,,,,,,,,,,,,,,,,,,,,,,,,,,76,001,2023_Apr_17_1814,SpeechDraft1Carolyn_lessNoise_PlusLocalization,2021.2.3,60.015642417288625,
swan.wav,swan.mpg,swan,2,A,Pink_Noise_2_1.wav,Pink_Noise_2_2.wav,,,,,,,,,,,,,,,0,19,19,15,,,,,,,,,,,,,,,,,,,,,,,223.07636390067637,None,224.57605727901682,None,225.95974276401103,None,swan,225.95974276401103,None,return,1.4967001508921385,226.0430596396327,None,,,,,,,,,,,,,,,,,,,,,,,,,,,,,,,,,,,,,,,76,001,2023_Apr_17_1814,SpeechDraft1Carolyn_lessNoise_PlusLocalization,2021.2.3,60.015642417288625,
fate.wav,fate.mpg,fate,4,A,Pink_Noise_4_1.wav,Pink_Noise_4_2.wav,,,,,,,,,,,,,,,0,20,20,10,,,,,,,,,,,,,,,,,,,,,,,227.55980381788686,None,229.04379596561193,None,230.42647323058918,None,"bit
",230.42647323058918,None,return,1.4698105989955366,230.50980356894433,None,,,,,,,,,,,,,,,,,,,,,,,,,,,,,,,,,,,,,,,76,001,2023_Apr_17_1814,SpeechDraft1Carolyn_lessNoise_PlusLocalization,2021.2.3,60.015642417288625,
goose.wav,goose.mpg,goose,6,AV,Pink_Noise_6_1.wav,Pink_Noise_6_2.wav,,,,,,,,,,,,,,,0,21,21,65,,,,,,,,,,,,,,,,,,,,,,,232.00975113501772,None,233.50937769562006,None,234.893031029962,None,goose,234.893031029962,None,return,1.4112398172728717,234.9763573249802,None,,,,,,,,,,,,,,,,,,,,,,,,,,,,,,,,,,,,,,,76,001,2023_Apr_17_1814,SpeechDraft1Carolyn_lessNoise_PlusLocalization,2021.2.3,60.015642417288625,
flop.wav,flop.mpg,flop,5,AV,Pink_Noise_5_1.wav,Pink_Noise_5_2.wav,,,,,,,,,,,,,,,0,22,22,76,,,,,,,,,,,,,,,,,,,,,,,236.40971904573962,None,237.90945906564593,None,239.29301283275709,None,"flap
",239.29301283275709,None,return,1.4669925239868462,239.37663705088198,None,,,,,,,,,,,,,,,,,,,,,,,,,,,,,,,,,,,,,,,76,001,2023_Apr_17_1814,SpeechDraft1Carolyn_lessNoise_PlusLocalization,2021.2.3,60.015642417288625,
gab.wav,gab.mpg,gab,6,AV,Pink_Noise_6_1.wav,Pink_Noise_6_2.wav,,,,,,,,,,,,,,,0,23,23,112,,,,,,,,,,,,,,,,,,,,,,,240.87644974980503,None,242.37608247762546,None,243.75970014277846,None,gap,243.75970014277846,None,return,4.208534642122686,243.84307112079114,None,,,,,,,,,,,,,,,,,,,,,,,,,,,,,,,,,,,,,,,76,001,2023_Apr_17_1814,SpeechDraft1Carolyn_lessNoise_PlusLocalization,2021.2.3,60.015642417288625,
fur.wav,fur.mpg,fur,3,A,Pink_Noise_3_1.wav,Pink_Noise_3_2.wav,,,,,,,,,,,,,,,0,24,24,26,,,,,,,,,,,,,,,,,,,,,,,248.07641893066466,None,249.576182608027,None,250.95977152278647,None,birth,250.95977152278647,None,return,1.424355455674231,251.04326546099037,None,,,,,,,,,,,,,,,,,,,,,,,,,,,,,,,,,,,,,,,76,001,2023_Apr_17_1814,SpeechDraft1Carolyn_lessNoise_PlusLocalization,2021.2.3,60.015642417288625,
cup.wav,cup.mpg,cup,5,AV,Pink_Noise_5_1.wav,Pink_Noise_5_2.wav,,,,,,,,,,,,,,,0,25,25,94,,,,,,,,,,,,,,,,,,,,,,,252.49313636869192,None,253.99312218092382,None,255.37636858783662,None,cup,255.37636858783662,None,return,1.6239109048619866,255.4598148809746,None,,,,,,,,,,,,,,,,,,,,,,,,,,,,,,,,,,,,,,,76,001,2023_Apr_17_1814,SpeechDraft1Carolyn_lessNoise_PlusLocalization,2021.2.3,60.015642417288625,
clue.wav,clue.mpg,clue,3,AV,Pink_Noise_3_1.wav,Pink_Noise_3_2.wav,,,,,,,,,,,,,,,0,26,26,72,,,,,,,,,,,,,,,,,,,,,,,257.10981912957504,None,258.6094950167462,None,259.99299318669364,None,"clue
",259.99299318669364,None,return,0.9190875981003046,260.07651951769367,None,,,,,,,,,,,,,,,,,,,,,,,,,,,,,,,,,,,,,,,76,001,2023_Apr_17_1814,SpeechDraft1Carolyn_lessNoise_PlusLocalization,2021.2.3,60.015642417288625,
warmth.wav,warmth.mpg,warmth,4,A,Pink_Noise_4_1.wav,Pink_Noise_4_2.wav,,,,,,,,,,,,,,,0,27,27,19,,,,,,,,,,,,,,,,,,,,,,,261.0264700348489,None,262.526151929982,None,263.90976715972647,None,"warp
",263.90976715972647,None,return,1.050449179019779,263.99313877662644,None,,,,,,,,,,,,,,,,,,,,,,,,,,,,,,,,,,,,,,,76,001,2023_Apr_17_1814,SpeechDraft1Carolyn_lessNoise_PlusLocalization,2021.2.3,60.015642417288625,
core.wav,core.mpg,core,5,AV,Pink_Noise_5_1.wav,Pink_Noise_5_2.wav,,,,,,,,,,,,,,,0,28,28,117,,,,,,,,,,,,,,,,,,,,,,,265.0765117816627,None,266.57622579392046,None,267.959770955611,None,orb,267.959770955611,None,return,1.1444727648049593,268.0431243455969,None,,,,,,,,,,,,,,,,,,,,,,,,,,,,,,,,,,,,,,,76,001,2023_Apr_17_1814,SpeechDraft1Carolyn_lessNoise_PlusLocalization,2021.2.3,60.015642417288625,
ask.wav,ask.mpg,ask,1,A,Pink_Noise_1_1.wav,Pink_Noise_1_2.wav,,,,,,,,,,,,,,,0,29,29,45,,,,,,,,,,,,,,,,,,,,,,,269.20980423269793,None,270.70949445292354,None,272.0930571160279,None,ask,272.0930571160279,None,return,0.6832565707154572,272.17645004577935,None,,,,,,,,,,,,,,,,,,,,,,,,,,,,,,,,,,,,,,,76,001,2023_Apr_17_1814,SpeechDraft1Carolyn_lessNoise_PlusLocalization,2021.2.3,60.015642417288625,
golf.wav,golf.mpg,golf,1,AV,Pink_Noise_1_1.wav,Pink_Noise_1_2.wav,,,,,,,,,,,,,,,0,30,30,63,,,,,,,,,,,,,,,,,,,,,,,272.8764546918683,None,274.3762193657458,None,275.7598164449446,None,"golf
",275.7598164449446,None,return,2.168441998306662,275.843180374708,None,,,,,,,,,,,,,,,,,,,,,,,,,,,,,,,,,,,,,,,76,001,2023_Apr_17_1814,SpeechDraft1Carolyn_lessNoise_PlusLocalization,2021.2.3,60.015642417288625,
blond.wav,blond.mpg,blond,6,AV,Pink_Noise_6_1.wav,Pink_Noise_6_2.wav,,,,,,,,,,,,,,,0,31,31,93,,,,,,,,,,,,,,,,,,,,,,,278.04319765092805,None,279.54288371186703,None,280.9264630195685,None,blind,280.9264630195685,None,return,1.889963367022574,281.0098185245879,None,,,,,,,,,,,,,,,,,,,,,,,,,,,,,,,,,,,,,,,76,001,2023_Apr_17_1814,SpeechDraft1Carolyn_lessNoise_PlusLocalization,2021.2.3,60.015642417288625,
clash.wav,clash.mpg,clash,6,A,Pink_Noise_6_1.wav,Pink_Noise_6_2.wav,,,,,,,,,,,,,,,0,32,32,25,,,,,,,,,,,,,,,,,,,,,,,282.9265420427546,None,284.42622871277854,None,285.8098168987781,None,lash,285.8098168987781,None,return,2.366577910259366,285.89314493583515,None,,,,,,,,,,,,,,,,,,,,,,,,,,,,,,,,,,,,,,,76,001,2023_Apr_17_1814,SpeechDraft1Carolyn_lessNoise_PlusLocalization,2021.2.3,60.015642417288625,
grace.wav,grace.mpg,grace,2,A,Pink_Noise_2_1.wav,Pink_Noise_2_2.wav,,,,,,,,,,,,,,,0,33,33,14,,,,,,,,,,,,,,,,,,,,,,,288.2765235067345,None,289.77611927175894,None,291.1598294698633,None,"grace
",291.1598294698633,None,return,1.8004228370264173,291.24319370789453,None,,,,,,,,,,,,,,,,,,,,,,,,,,,,,,,,,,,,,,,76,001,2023_Apr_17_1814,SpeechDraft1Carolyn_lessNoise_PlusLocalization,2021.2.3,60.015642417288625,
ear.wav,ear.mpg,ear,2,A,Pink_Noise_2_1.wav,Pink_Noise_2_2.wav,,,,,,,,,,,,,,,0,34,34,4,,,,,,,,,,,,,,,,,,,,,,,293.07655285671353,None,294.57617417769507,None,295.95990006579086,None,"ear
",295.95990006579086,None,return,0.600349138956517,296.0432845619507,None,,,,,,,,,,,,,,,,,,,,,,,,,,,,,,,,,,,,,,,76,001,2023_Apr_17_1814,SpeechDraft1Carolyn_lessNoise_PlusLocalization,2021.2.3,60.015642417288625,
check.wav,check.mpg,check,4,AV,Pink_Noise_4_1.wav,Pink_Noise_4_2.wav,,,,,,,,,,,,,,,0,35,35,91,,,,,,,,,,,,,,,,,,,,,,,296.6766602396965,None,298.17623249068856,None,299.5597814936191,None,check,299.5597814936191,None,return,1.0244842278771102,299.64312053471804,None,,,,,,,,,,,,,,,,,,,,,,,,,,,,,,,,,,,,,,,76,001,2023_Apr_17_1814,SpeechDraft1Carolyn_lessNoise_PlusLocalization,2021.2.3,60.015642417288625,
dream.wav,dream.mpg,dream,5,A,Pink_Noise_5_1.wav,Pink_Noise_5_2.wav,,,,,,,,,,,,,,,0,36,36,24,,,,,,,,,,,,,,,,,,,,,,,300.6932332739234,None,302.1929330229759,None,303.57649097265676,None,pound,303.57649097265676,None,return,6.671778499148786,303.65989735070616,None,,,,,,,,,,,,,,,,,,,,,,,,,,,,,,,,,,,,,,,76,001,2023_Apr_17_1814,SpeechDraft1Carolyn_lessNoise_PlusLocalization,2021.2.3,60.015642417288625,
bare.wav,bare.mpg,bare,6,A,Pink_Noise_6_1.wav,Pink_Noise_6_2.wav,,,,,,,,,,,,,,,0,37,37,38,,,,,,,,,,,,,,,,,,,,,,,310.35993634490296,None,311.85991507489234,None,313.2432142146863,None,"hair
",313.2432142146863,None,return,2.8690517395734787,313.3265731795691,None,,,,,,,,,,,,,,,,,,,,,,,,,,,,,,,,,,,,,,,76,001,2023_Apr_17_1814,SpeechDraft1Carolyn_lessNoise_PlusLocalization,2021.2.3,60.015642417288625,
fuss.wav,fuss.mpg,fuss,1,A,Pink_Noise_1_1.wav,Pink_Noise_1_2.wav,,,,,,,,,,,,,,,0,38,38,22,,,,,,,,,,,,,,,,,,,,,,,316.22656461270526,None,317.7428868408315,None,319.1265034037642,None,"bus
",319.1265034037642,None,return,1.3537387251853943,319.2098786230199,None,,,,,,,,,,,,,,,,,,,,,,,,,,,,,,,,,,,,,,,76,001,2023_Apr_17_1814,SpeechDraft1Carolyn_lessNoise_PlusLocalization,2021.2.3,60.015642417288625,
clot.wav,clot.mpg,clot,5,AV,Pink_Noise_5_1.wav,Pink_Noise_5_2.wav,,,,,,,,,,,,,,,0,39,39,96,,,,,,,,,,,,,,,,,,,,,,,320.5932119949721,None,322.0928436508402,None,323.4766884469427,None,"last
",323.4766884469427,None,return,1.8036945331841707,323.5599098256789,None,,,,,,,,,,,,,,,,,,,,,,,,,,,,,,,,,,,,,,,76,001,2023_Apr_17_1814,SpeechDraft1Carolyn_lessNoise_PlusLocalization,2021.2.3,60.015642417288625,
truce.wav,truce.mpg,truce,3,A,Pink_Noise_3_1.wav,Pink_Noise_3_2.wav,,,,,,,,,,,,,,,0,40,40,0,,,,,,,,,,,,,,,,,,,,,,,325.39328791201115,None,326.8930069236085,None,328.27654902264476,None,truce,328.27654902264476,None,return,1.923805187921971,328.3599079726264,None,,,,,,,,,,,,,,,,,,,,,,,,,,,,,,,,,,,,,,,76,001,2023_Apr_17_1814,SpeechDraft1Carolyn_lessNoise_PlusLocalization,2021.2.3,60.015642417288625,
chord.wav,chord.mpg,chord,2,A,Pink_Noise_2_1.wav,Pink_Noise_2_2.wav,,,,,,,,,,,,,,,0,41,41,3,,,,,,,,,,,,,,,,,,,,,,,330.3099115039222,None,331.8095845039934,None,333.19326954567805,None,"cord
",333.19326954567805,None,return,0.9510884950868785,333.2765364558436,None,,,,,,,,,,,,,,,,,,,,,,,,,,,,,,,,,,,,,,,76,001,2023_Apr_17_1814,SpeechDraft1Carolyn_lessNoise_PlusLocalization,2021.2.3,60.015642417288625,
peach.wav,peach.mpg,peach,6,AV,Pink_Noise_6_1.wav,Pink_Noise_6_2.wav,,,,,,,,,,,,,,,0,42,42,84,,,,,,,,,,,,,,,,,,,,,,,334.2599754277617,None,335.75965892896056,None,337.14309078874066,None,beach,337.14309078874066,None,return,1.913131914101541,337.22655745688826,None,,,,,,,,,,,,,,,,,,,,,,,,,,,,,,,,,,,,,,,76,001,2023_Apr_17_1814,SpeechDraft1Carolyn_lessNoise_PlusLocalization,2021.2.3,60.015642417288625,
desk.wav,desk.mpg,desk,4,A,Pink_Noise_4_1.wav,Pink_Noise_4_2.wav,,,,,,,,,,,,,,,0,43,43,40,,,,,,,,,,,,,,,,,,,,,,,339.15990824298933,None,340.6594457109459,None,342.0432178080082,None,desk,342.0432178080082,None,return,0.9730519629083574,342.1266435836442,None,,,,,,,,,,,,,,,,,,,,,,,,,,,,,,,,,,,,,,,76,001,2023_Apr_17_1814,SpeechDraft1Carolyn_lessNoise_PlusLocalization,2021.2.3,60.015642417288625,
bad.wav,bad.mpg,bad,6,A,Pink_Noise_6_1.wav,Pink_Noise_6_2.wav,,,,,,,,,,,,,,,0,44,44,50,,,,,,,,,,,,,,,,,,,,,,,343.12654805276543,None,344.6264263126068,None,346.00986974686384,None,hand,346.00986974686384,None,return,1.246397762093693,346.0932739046402,None,,,,,,,,,,,,,,,,,,,,,,,,,,,,,,,,,,,,,,,76,001,2023_Apr_17_1814,SpeechDraft1Carolyn_lessNoise_PlusLocalization,2021.2.3,60.015642417288625,
strike.wav,strike.mpg,strike,5,A,Pink_Noise_5_1.wav,Pink_Noise_5_2.wav,,,,,,,,,,,,,,,0,45,45,30,,,,,,,,,,,,,,,,,,,,,,,347.35991770680994,None,348.85951328184456,None,350.243247509934,None,slice,350.243247509934,None,return,1.0370115609839559,350.32659532362595,None,,,,,,,,,,,,,,,,,,,,,,,,,,,,,,,,,,,,,,,76,001,2023_Apr_17_1814,SpeechDraft1Carolyn_lessNoise_PlusLocalization,2021.2.3,60.015642417288625,
coal.wav,coal.mpg,coal,3,AV,Pink_Noise_3_1.wav,Pink_Noise_3_2.wav,,,,,,,,,,,,,,,0,46,46,80,,,,,,,,,,,,,,,,,,,,,,,351.39322767592967,None,352.8929963847622,None,354.2764877839945,None,coal,354.2764877839945,None,return,1.1636527199298143,354.36001626960933,None,,,,,,,,,,,,,,,,,,,,,,,,,,,,,,,,,,,,,,,76,001,2023_Apr_17_1814,SpeechDraft1Carolyn_lessNoise_PlusLocalization,2021.2.3,60.015642417288625,
beard.wav,beard.mpg,beard,2,AV,Pink_Noise_2_1.wav,Pink_Noise_2_2.wav,,,,,,,,,,,,,,,0,47,47,60,,,,,,,,,,,,,,,,,,,,,,,355.5435545425862,None,357.0428654300049,None,358.4266019198112,None,beard,358.4266019198112,None,return,0.725521741900593,358.5100813116878,None,,,,,,,,,,,,,,,,,,,,,,,,,,,,,,,,,,,,,,,76,001,2023_Apr_17_1814,SpeechDraft1Carolyn_lessNoise_PlusLocalization,2021.2.3,60.015642417288625,
bass.wav,bass.mpg,bass,6,A,Pink_Noise_6_1.wav,Pink_Noise_6_2.wav,,,,,,,,,,,,,,,0,48,48,18,,,,,,,,,,,,,,,,,,,,,,,359.25990139786154,None,360.7596262358129,None,362.14321535266936,None,"vase
",362.14321535266936,None,return,1.1849360037595034,362.2266804520041,None,,,,,,,,,,,,,,,,,,,,,,,,,,,,,,,,,,,,,,,76,001,2023_Apr_17_1814,SpeechDraft1Carolyn_lessNoise_PlusLocalization,2021.2.3,60.015642417288625,
shed.wav,shed.mpg,shed,5,AV,Pink_Noise_5_1.wav,Pink_Noise_5_2.wav,,,,,,,,,,,,,,,0,49,49,113,,,,,,,,,,,,,,,,,,,,,,,363.4432275556028,None,364.9429301186465,None,366.3265293040313,None,chef,366.3265293040313,None,return,1.2656534691341221,366.41001862101257,None,,,,,,,,,,,,,,,,,,,,,,,,,,,,,,,,,,,,,,,76,001,2023_Apr_17_1814,SpeechDraft1Carolyn_lessNoise_PlusLocalization,2021.2.3,60.015642417288625,
gift.wav,gift.mpg,gift,1,A,Pink_Noise_1_1.wav,Pink_Noise_1_2.wav,,,,,,,,,,,,,,,0,50,50,43,,,,,,,,,,,,,,,,,,,,,,,367.6932875458151,None,369.19294735696167,None,370.5765510657802,None,gift,370.5765510657802,None,return,3.3437110763043165,370.65994703862816,None,,,,,,,,,,,,,,,,,,,,,,,,,,,,,,,,,,,,,,,76,001,2023_Apr_17_1814,SpeechDraft1Carolyn_lessNoise_PlusLocalization,2021.2.3,60.015642417288625,
bow.wav,bow.mpg,bow,1,A,Pink_Noise_1_1.wav,Pink_Noise_1_2.wav,,,,,,,,,,,,,,,0,51,51,52,,,,,,,,,,,,,,,,,,,,,,,374.0265808128752,None,375.52627468202263,None,376.9099942496978,None,"bow
",376.9099942496978,None,return,1.0182702159509063,376.9933469928801,None,,,,,,,,,,,,,,,,,,,,,,,,,,,,,,,,,,,,,,,76,001,2023_Apr_17_1814,SpeechDraft1Carolyn_lessNoise_PlusLocalization,2021.2.3,60.015642417288625,
grunt.wav,grunt.mpg,grunt,2,A,Pink_Noise_2_1.wav,Pink_Noise_2_2.wav,,,,,,,,,,,,,,,0,52,52,29,,,,,,,,,,,,,,,,,,,,,,,378.0433307457715,None,379.5429221726954,None,380.92659326596186,None,grunt,380.92659326596186,None,return,0.8657275317236781,381.00994599564,None,,,,,,,,,,,,,,,,,,,,,,,,,,,,,,,,,,,,,,,76,001,2023_Apr_17_1814,SpeechDraft1Carolyn_lessNoise_PlusLocalization,2021.2.3,60.015642417288625,
cat.wav,cat.mpg,cat,1,AV,Pink_Noise_1_1.wav,Pink_Noise_1_2.wav,,,,,,,,,,,,,,,0,53,53,79,,,,,,,,,,,,,,,,,,,,,,,381.89326109876856,None,383.39298705291003,None,384.77657574089244,None,cat,384.77657574089244,None,return,1.1035462291911244,384.8600697927177,None,,,,,,,,,,,,,,,,,,,,,,,,,,,,,,,,,,,,,,,76,001,2023_Apr_17_1814,SpeechDraft1Carolyn_lessNoise_PlusLocalization,2021.2.3,60.015642417288625,
bruise.wav,bruise.mpg,bruise,1,AV,Pink_Noise_1_1.wav,Pink_Noise_1_2.wav,,,,,,,,,,,,,,,0,54,54,88,,,,,,,,,,,,,,,,,,,,,,,385.99334161076695,None,387.4929884476587,None,388.8766063298099,None,bruise,388.8766063298099,None,return,1.2996978610754013,388.9600297808647,None,,,,,,,,,,,,,,,,,,,,,,,,,,,,,,,,,,,,,,,76,001,2023_Apr_17_1814,SpeechDraft1Carolyn_lessNoise_PlusLocalization,2021.2.3,60.015642417288625,
tense.wav,tense.mpg,tense,4,A,Pink_Noise_4_1.wav,Pink_Noise_4_2.wav,,,,,,,,,,,,,,,0,55,55,33,,,,,,,,,,,,,,,,,,,,,,,390.27666867384687,None,391.77634214190766,None,393.15994109073654,None,hints,393.15994109073654,None,return,1.6724879522807896,393.2432743390091,None,,,,,,,,,,,,,,,,,,,,,,,,,,,,,,,,,,,,,,,76,001,2023_Apr_17_1814,SpeechDraft1Carolyn_lessNoise_PlusLocalization,2021.2.3,60.015642417288625,
bridge.wav,bridge.mpg,bridge,1,AV,Pink_Noise_1_1.wav,Pink_Noise_1_2.wav,,,,,,,,,,,,,,,0,56,56,66,,,,,,,,,,,,,,,,,,,,,,,394.94328461401165,None,396.44302575290203,None,397.82659269077703,None,bridge,397.82659269077703,None,return,1.405516454949975,397.91015526186675,None,,,,,,,,,,,,,,,,,,,,,,,,,,,,,,,,,,,,,,,76,001,2023_Apr_17_1814,SpeechDraft1Carolyn_lessNoise_PlusLocalization,2021.2.3,60.015642417288625,
fun.wav,fun.mpg,fun,4,A,Pink_Noise_4_1.wav,Pink_Noise_4_2.wav,,,,,,,,,,,,,,,0,57,57,53,,,,,,,,,,,,,,,,,,,,,,,399.3434038925916,None,400.8431313908659,None,402.2266612839885,None,burn,402.2266612839885,None,return,1.0457057170569897,402.309964121785,None,,,,,,,,,,,,,,,,,,,,,,,,,,,,,,,,,,,,,,,76,001,2023_Apr_17_1814,SpeechDraft1Carolyn_lessNoise_PlusLocalization,2021.2.3,60.015642417288625,
chief.wav,chief.mpg,chief,4,AV,Pink_Noise_4_1.wav,Pink_Noise_4_2.wav,,,,,,,,,,,,,,,0,58,58,69,,,,,,,,,,,,,,,,,,,,,,,403.376836723648,None,404.8763591097668,None,406.2599880406633,None,"chief
",406.2599880406633,None,return,2.084251374937594,406.3433543667197,None,,,,,,,,,,,,,,,,,,,,,,,,,,,,,,,,,,,,,,,76,001,2023_Apr_17_1814,SpeechDraft1Carolyn_lessNoise_PlusLocalization,2021.2.3,60.015642417288625,
chore.wav,chore.mpg,chore,1,AV,Pink_Noise_1_1.wav,Pink_Noise_1_2.wav,,,,,,,,,,,,,,,0,59,59,99,,,,,,,,,,,,,,,,,,,,,,,408.4599999990314,None,409.9764245809056,None,411.3599199326709,None,"chore
",411.3599199326709,None,return,1.3362040207721293,411.44341212371364,None,,,,,,,,,,,,,,,,,,,,,,,,,,,,,,,,,,,,,,,76,001,2023_Apr_17_1814,SpeechDraft1Carolyn_lessNoise_PlusLocalization,2021.2.3,60.015642417288625,
count.wav,count.mpg,count,4,AV,Pink_Noise_4_1.wav,Pink_Noise_4_2.wav,,,,,,,,,,,,,,,0,60,60,74,,,,,,,,,,,,,,,,,,,,,,,412.8100389968604,None,414.3098058607429,None,415.6933029135689,None,kelt,415.6933029135689,None,return,1.3949378780089319,415.7766839656979,None,,,,,,,,,,,,,,,,,,,,,,,,,,,,,,,,,,,,,,,76,001,2023_Apr_17_1814,SpeechDraft1Carolyn_lessNoise_PlusLocalization,2021.2.3,60.015642417288625,
flaw.wav,flaw.mpg,flaw,5,AV,Pink_Noise_5_1.wav,Pink_Noise_5_2.wav,,,,,,,,,,,,,,,0,61,61,83,,,,,,,,,,,,,,,,,,,,,,,417.1933119278401,None,418.69324628356844,None,420.0767056988552,None,floss,420.0767056988552,None,return,0.9317558608017862,420.1599557767622,None,,,,,,,,,,,,,,,,,,,,,,,,,,,,,,,,,,,,,,,76,001,2023_Apr_17_1814,SpeechDraft1Carolyn_lessNoise_PlusLocalization,2021.2.3,60.015642417288625,
clown.wav,clown.mpg,clown,3,AV,Pink_Noise_3_1.wav,Pink_Noise_3_2.wav,,,,,,,,,,,,,,,0,62,62,119,,,,,,,,,,,,,,,,,,,,,,,421.11016432289034,None,422.6099356035702,None,423.9932782058604,None,cloud,423.9932782058604,None,return,1.1989934337325394,424.07671892177314,None,,,,,,,,,,,,,,,,,,,,,,,,,,,,,,,,,,,,,,,76,001,2023_Apr_17_1814,SpeechDraft1Carolyn_lessNoise_PlusLocalization,2021.2.3,60.015642417288625,
drunk.wav,drunk.mpg,drunk,3,A,Pink_Noise_3_1.wav,Pink_Noise_3_2.wav,,,,,,,,,,,,,,,0,63,63,34,,,,,,,,,,,,,,,,,,,,,,,425.29335199389607,None,426.79294471861795,None,428.17664074897766,None,drunk,428.17664074897766,None,return,1.5276643461547792,428.259987863712,None,,,,,,,,,,,,,,,,,,,,,,,,,,,,,,,,,,,,,,,76,001,2023_Apr_17_1814,SpeechDraft1Carolyn_lessNoise_PlusLocalization,2021.2.3,60.015642417288625,
sock.wav,sock.mpg,sock,2,AV,Pink_Noise_2_1.wav,Pink_Noise_2_2.wav,,,,,,,,,,,,,,,0,64,64,104,,,,,,,,,,,,,,,,,,,,,,,429.81007346278057,None,431.30971005000174,None,432.69325019884855,None,"suck
",432.69325019884855,None,return,1.2508962261490524,432.776720515918,None,,,,,,,,,,,,,,,,,,,,,,,,,,,,,,,,,,,,,,,76,001,2023_Apr_17_1814,SpeechDraft1Carolyn_lessNoise_PlusLocalization,2021.2.3,60.015642417288625,
dull.wav,dull.mpg,dull,3,A,Pink_Noise_3_1.wav,Pink_Noise_3_2.wav,,,,,,,,,,,,,,,0,65,65,13,,,,,,,,,,,,,,,,,,,,,,,434.0600461177528,None,435.55971468193457,None,436.94338921969756,None,doll,436.94338921969756,None,return,3.176896938122809,437.02670507179573,None,,,,,,,,,,,,,,,,,,,,,,,,,,,,,,,,,,,,,,,76,001,2023_Apr_17_1814,SpeechDraft1Carolyn_lessNoise_PlusLocalization,2021.2.3,60.015642417288625,
toast.wav,toast.mpg,toast,4,AV,Pink_Noise_4_1.wav,Pink_Noise_4_2.wav,,,,,,,,,,,,,,,0,66,66,90,,,,,,,,,,,,,,,,,,,,,,,440.226712517906,None,441.7264562495984,None,443.11000821786,None,toast,443.11000821786,None,return,2.2741005490534008,443.193600310944,None,,,,,,,,,,,,,,,,,,,,,,,,,,,,,,,,,,,,,,,76,001,2023_Apr_17_1814,SpeechDraft1Carolyn_lessNoise_PlusLocalization,2021.2.3,60.015642417288625,
thief.wav,thief.mpg,thief,3,AV,Pink_Noise_3_1.wav,Pink_Noise_3_2.wav,,,,,,,,,,,,,,,0,67,67,100,,,,,,,,,,,,,,,,,,,,,,,445.49341614963487,None,446.9929362037219,None,448.37661932082847,None,"thief
",448.37661932082847,None,return,1.919385198969394,448.46023002499714,None,,,,,,,,,,,,,,,,,,,,,,,,,,,,,,,,,,,,,,,76,001,2023_Apr_17_1814,SpeechDraft1Carolyn_lessNoise_PlusLocalization,2021.2.3,60.015642417288625,
frail.wav,frail.mpg,frail,3,AV,Pink_Noise_3_1.wav,Pink_Noise_3_2.wav,,,,,,,,,,,,,,,0,68,68,67,,,,,,,,,,,,,,,,,,,,,,,450.41007196391,None,451.9099863348529,None,453.293321011588,None,frail,453.293321011588,None,return,1.0748395919799805,453.3767569796182,None,,,,,,,,,,,,,,,,,,,,,,,,,,,,,,,,,,,,,,,76,001,2023_Apr_17_1814,SpeechDraft1Carolyn_lessNoise_PlusLocalization,2021.2.3,60.015642417288625,
blaze.wav,blaze.mpg,blaze,5,A,Pink_Noise_5_1.wav,Pink_Noise_5_2.wav,,,,,,,,,,,,,,,0,69,69,12,,,,,,,,,,,,,,,,,,,,,,,454.47683841502294,None,455.97638849075884,None,457.3600610769354,None,ghost,457.3600610769354,None,return,1.4082784662023187,457.4433508790098,None,,,,,,,,,,,,,,,,,,,,,,,,,,,,,,,,,,,,,,,76,001,2023_Apr_17_1814,SpeechDraft1Carolyn_lessNoise_PlusLocalization,2021.2.3,60.015642417288625,
brawl.wav,brawl.mpg,brawl,6,A,Pink_Noise_6_1.wav,Pink_Noise_6_2.wav,,,,,,,,,,,,,,,0,70,70,16,,,,,,,,,,,,,,,,,,,,,,,458.8767663249746,None,460.3763604615815,None,461.76007640501484,None,wall,461.76007640501484,None,return,0.6801849231123924,461.84352003457025,None,,,,,,,,,,,,,,,,,,,,,,,,,,,,,,,,,,,,,,,76,001,2023_Apr_17_1814,SpeechDraft1Carolyn_lessNoise_PlusLocalization,2021.2.3,60.015642417288625,
block.wav,block.mpg,block,4,AV,Pink_Noise_4_1.wav,Pink_Noise_4_2.wav,,,,,,,,,,,,,,,0,71,71,81,,,,,,,,,,,,,,,,,,,,,,,462.54340526182204,None,464.04299528570846,None,465.426636450924,None,black,465.426636450924,None,return,1.1094713574275374,465.510125384666,None,,,,,,,,,,,,,,,,,,,,,,,,,,,,,,,,,,,,,,,76,001,2023_Apr_17_1814,SpeechDraft1Carolyn_lessNoise_PlusLocalization,2021.2.3,60.015642417288625,
clap.wav,clap.mpg,clap,1,A,Pink_Noise_1_1.wav,Pink_Noise_1_2.wav,,,,,,,,,,,,,,,0,72,72,21,,,,,,,,,,,,,,,,,,,,,,,466.6434365059249,None,468.1431655869819,None,469.5267393188551,None,clap,469.5267393188551,None,return,5.073467165697366,469.6102401469834,None,,,,,,,,,,,,,,,,,,,,,,,,,,,,,,,,,,,,,,,76,001,2023_Apr_17_1814,SpeechDraft1Carolyn_lessNoise_PlusLocalization,2021.2.3,60.015642417288625,
crush.wav,crush.mpg,crush,3,A,Pink_Noise_3_1.wav,Pink_Noise_3_2.wav,,,,,,,,,,,,,,,0,73,73,1,,,,,,,,,,,,,,,,,,,,,,,474.72644452098757,None,476.2430289797485,None,477.62690658075735,None,crush,477.62690658075735,None,return,3.861525218002498,477.7100758450106,None,,,,,,,,,,,,,,,,,,,,,,,,,,,,,,,,,,,,,,,76,001,2023_Apr_17_1814,SpeechDraft1Carolyn_lessNoise_PlusLocalization,2021.2.3,60.015642417288625,
due.wav,due.mpg,due,3,AV,Pink_Noise_3_1.wav,Pink_Noise_3_2.wav,,,,,,,,,,,,,,,0,74,74,105,,,,,,,,,,,,,,,,,,,,,,,481.5935168177821,None,483.10981871699914,None,484.49342423165217,None,do,484.49342423165217,None,return,1.0746275978162885,484.5770084830001,None,,,,,,,,,,,,,,,,,,,,,,,,,,,,,,,,,,,,,,,76,001,2023_Apr_17_1814,SpeechDraft1Carolyn_lessNoise_PlusLocalization,2021.2.3,60.015642417288625,
break.wav,break.mpg,break,4,AV,Pink_Noise_4_1.wav,Pink_Noise_4_2.wav,,,,,,,,,,,,,,,0,75,75,73,,,,,,,,,,,,,,,,,,,,,,,485.67697204463184,None,487.1931417626329,None,488.57678628573194,None,break,488.57678628573194,None,return,1.7995616849511862,488.66012056171894,None,,,,,,,,,,,,,,,,,,,,,,,,,,,,,,,,,,,,,,,76,001,2023_Apr_17_1814,SpeechDraft1Carolyn_lessNoise_PlusLocalization,2021.2.3,60.015642417288625,
cold.wav,cold.mpg,cold,6,AV,Pink_Noise_6_1.wav,Pink_Noise_6_2.wav,,,,,,,,,,,,,,,0,76,76,86,,,,,,,,,,,,,,,,,,,,,,,490.4767380738631,None,491.9788394467905,None,493.3600908815861,None,"chore
",493.3600908815861,None,return,0.768216127064079,493.4433911219239,None,,,,,,,,,,,,,,,,,,,,,,,,,,,,,,,,,,,,,,,76,001,2023_Apr_17_1814,SpeechDraft1Carolyn_lessNoise_PlusLocalization,2021.2.3,60.015642417288625,
mass.wav,mass.mpg,mass,2,A,Pink_Noise_2_1.wav,Pink_Noise_2_2.wav,,,,,,,,,,,,,,,0,77,77,56,,,,,,,,,,,,,,,,,,,,,,,494.24345390172675,None,495.75987543398514,None,497.1435044147074,None,"mess
",497.1435044147074,None,return,0.7368128676898777,497.22678563557565,None,,,,,,,,,,,,,,,,,,,,,,,,,,,,,,,,,,,,,,,76,001,2023_Apr_17_1814,SpeechDraft1Carolyn_lessNoise_PlusLocalization,2021.2.3,60.015642417288625,
wild.wav,wild.mpg,wild,1,A,Pink_Noise_1_1.wav,Pink_Noise_1_2.wav,,,,,,,,,,,,,,,0,78,78,32,,,,,,,,,,,,,,,,,,,,,,,497.9934896226041,None,499.509826217778,None,500.89367539295927,None,wild,500.89367539295927,None,return,3.746808912139386,500.97688768291846,None,,,,,,,,,,,,,,,,,,,,,,,,,,,,,,,,,,,,,,,76,001,2023_Apr_17_1814,SpeechDraft1Carolyn_lessNoise_PlusLocalization,2021.2.3,60.015642417288625,
cone.wav,cone.mpg,cone,2,AV,Pink_Noise_2_1.wav,Pink_Noise_2_2.wav,,,,,,,,,,,,,,,0,79,79,115,,,,,,,,,,,,,,,,,,,,,,,504.74344718595967,None,506.25987515365705,None,507.64341918891296,None,cp;d,507.64341918891296,None,return,0.8607442840002477,507.72687928471714,None,,,,,,,,,,,,,,,,,,,,,,,,,,,,,,,,,,,,,,,76,001,2023_Apr_17_1814,SpeechDraft1Carolyn_lessNoise_PlusLocalization,2021.2.3,60.015642417288625,
gut.wav,gut.mpg,gut,4,A,Pink_Noise_4_1.wav,Pink_Noise_4_2.wav,,,,,,,,,,,,,,,0,80,80,36,,,,,,,,,,,,,,,,,,,,,,,508.61017634999007,None,510.11165440967306,None,511.4935554997064,None,"gut
",511.4935554997064,None,return,3.2664822791703045,511.5771397356875,None,,,,,,,,,,,,,,,,,,,,,,,,,,,,,,,,,,,,,,,76,001,2023_Apr_17_1814,SpeechDraft1Carolyn_lessNoise_PlusLocalization,2021.2.3,60.015642417288625,
frame.wav,frame.mpg,frame,4,AV,Pink_Noise_4_1.wav,Pink_Noise_4_2.wav,,,,,,,,,,,,,,,0,81,81,75,,,,,,,,,,,,,,,,,,,,,,,514.8768948288634,None,516.3932866579853,None,517.7767565376125,None,frame,517.7767565376125,None,return,2.3594288248568773,517.8601670768112,None,,,,,,,,,,,,,,,,,,,,,,,,,,,,,,,,,,,,,,,76,001,2023_Apr_17_1814,SpeechDraft1Carolyn_lessNoise_PlusLocalization,2021.2.3,60.015642417288625,
chalk.wav,chalk.mpg,chalk,5,AV,Pink_Noise_5_1.wav,Pink_Noise_5_2.wav,,,,,,,,,,,,,,,0,82,82,109,,,,,,,,,,,,,,,,,,,,,,,520.2435777778737,None,521.7615104918368,None,523.1433472768404,None,"chalk
",523.1433472768404,None,return,1.2007480612955987,523.2268700557761,None,,,,,,,,,,,,,,,,,,,,,,,,,,,,,,,,,,,,,,,76,001,2023_Apr_17_1814,SpeechDraft1Carolyn_lessNoise_PlusLocalization,2021.2.3,60.015642417288625,
brick.wav,brick.mpg,brick,5,AV,Pink_Noise_5_1.wav,Pink_Noise_5_2.wav,,,,,,,,,,,,,,,0,83,83,70,,,,,,,,,,,,,,,,,,,,,,,524.4601238109171,None,525.9951331308112,None,527.3768223538063,None,brick,527.3768223538063,None,return,2.0315112080425024,527.460197028704,None,,,,,,,,,,,,,,,,,,,,,,,,,,,,,,,,,,,,,,,76,001,2023_Apr_17_1814,SpeechDraft1Carolyn_lessNoise_PlusLocalization,2021.2.3,60.015642417288625,
germ.wav,germ.mpg,germ,6,AV,Pink_Noise_6_1.wav,Pink_Noise_6_2.wav,,,,,,,,,,,,,,,0,84,84,102,,,,,,,,,,,,,,,,,,,,,,,529.5101259900257,None,531.0265737059526,None,532.4102589809336,None,germ,532.4102589809336,None,return,1.3821654976345599,532.4935158099979,None,,,,,,,,,,,,,,,,,,,,,,,,,,,,,,,,,,,,,,,76,001,2023_Apr_17_1814,SpeechDraft1Carolyn_lessNoise_PlusLocalization,2021.2.3,60.015642417288625,
file.wav,file.mpg,file,4,A,Pink_Noise_4_1.wav,Pink_Noise_4_2.wav,,,,,,,,,,,,,,,0,85,85,41,,,,,,,,,,,,,,,,,,,,,,,533.8935270030051,None,535.4098535589874,None,536.7935261256061,None,"fire
",536.7935261256061,None,return,2.4867957616224885,536.8768178699538,None,,,,,,,,,,,,,,,,,,,,,,,,,,,,,,,,,,,,,,,76,001,2023_Apr_17_1814,SpeechDraft1Carolyn_lessNoise_PlusLocalization,2021.2.3,60.015642417288625,
edge.wav,edge.mpg,edge,4,AV,Pink_Noise_4_1.wav,Pink_Noise_4_2.wav,,,,,,,,,,,,,,,0,86,86,85,,,,,,,,,,,,,,,,,,,,,,,539.3935195608065,None,540.9100198256783,None,542.2935324106365,None,"edge
",542.2935324106365,None,return,1.2027419498190284,542.3768762857653,None,,,,,,,,,,,,,,,,,,,,,,,,,,,,,,,,,,,,,,,76,001,2023_Apr_17_1814,SpeechDraft1Carolyn_lessNoise_PlusLocalization,2021.2.3,60.015642417288625,
cheat.wav,cheat.mpg,cheat,1,A,Pink_Noise_1_1.wav,Pink_Noise_1_2.wav,,,,,,,,,,,,,,,0,87,87,46,,,,,,,,,,,,,,,,,,,,,,,543.6101751509123,None,545.1264543510042,None,546.5101650436409,None,cheat,546.5101650436409,None,return,1.0903094438835979,546.5935171269812,None,,,,,,,,,,,,,,,,,,,,,,,,,,,,,,,,,,,,,,,76,001,2023_Apr_17_1814,SpeechDraft1Carolyn_lessNoise_PlusLocalization,2021.2.3,60.015642417288625,
lie.wav,lie.mpg,lie,5,A,Pink_Noise_5_1.wav,Pink_Noise_5_2.wav,,,,,,,,,,,,,,,0,88,88,42,,,,,,,,,,,,,,,,,,,,,,,547.7102394206449,None,549.2431525159627,None,550.6268458389677,None,lie,550.6268458389677,None,return,1.197375622112304,550.7102589486167,None,,,,,,,,,,,,,,,,,,,,,,,,,,,,,,,,,,,,,,,76,001,2023_Apr_17_1814,SpeechDraft1Carolyn_lessNoise_PlusLocalization,2021.2.3,60.015642417288625,
pike.wav,pike.mpg,pike,3,A,Pink_Noise_3_1.wav,Pink_Noise_3_2.wav,,,,,,,,,,,,,,,0,89,89,17,,,,,,,,,,,,,,,,,,,,,,,551.9268787358887,None,553.4432389708236,None,554.8269284158014,None,hike,554.8269284158014,None,return,2.325351136736572,554.9102541669272,None,,,,,,,,,,,,,,,,,,,,,,,,,,,,,,,,,,,,,,,76,001,2023_Apr_17_1814,SpeechDraft1Carolyn_lessNoise_PlusLocalization,2021.2.3,60.015642417288625,
vest.wav,vest.mpg,vest,1,AV,Pink_Noise_1_1.wav,Pink_Noise_1_2.wav,,,,,,,,,,,,,,,0,90,90,77,,,,,,,,,,,,,,,,,,,,,,,557.2603329438716,None,558.7765692169778,None,560.1601867256686,None,vest,560.1601867256686,None,return,0.824248090852052,560.2434587427415,None,,,,,,,,,,,,,,,,,,,,,,,,,,,,,,,,,,,,,,,76,001,2023_Apr_17_1814,SpeechDraft1Carolyn_lessNoise_PlusLocalization,2021.2.3,60.015642417288625,
broom.wav,broom.mpg,broom,5,A,Pink_Noise_5_1.wav,Pink_Noise_5_2.wav,,,,,,,,,,,,,,,0,91,91,11,,,,,,,,,,,,,,,,,,,,,,,561.0935191367753,None,562.5933567369357,None,563.9768511615694,None,broom,563.9768511615694,None,return,2.2634471841156483,564.0602713949047,None,,,,,,,,,,,,,,,,,,,,,,,,,,,,,,,,,,,,,,,76,001,2023_Apr_17_1814,SpeechDraft1Carolyn_lessNoise_PlusLocalization,2021.2.3,60.015642417288625,
blue.wav,blue.mpg,blue,4,A,Pink_Noise_4_1.wav,Pink_Noise_4_2.wav,,,,,,,,,,,,,,,0,92,92,39,,,,,,,,,,,,,,,,,,,,,,,566.3435875778086,None,567.8599104937166,None,569.2436209768057,None,leap,569.2436209768057,None,return,0.7247747541405261,569.3268432156183,None,,,,,,,,,,,,,,,,,,,,,,,,,,,,,,,,,,,,,,,76,001,2023_Apr_17_1814,SpeechDraft1Carolyn_lessNoise_PlusLocalization,2021.2.3,60.015642417288625,
cow.wav,cow.mpg,cow,2,AV,Pink_Noise_2_1.wav,Pink_Noise_2_2.wav,,,,,,,,,,,,,,,0,93,93,97,,,,,,,,,,,,,,,,,,,,,,,570.0769030586816,None,571.5933180698194,None,572.9769000220113,None,cow,572.9769000220113,None,return,2.127374657895416,573.0602698088624,None,,,,,,,,,,,,,,,,,,,,,,,,,,,,,,,,,,,,,,,76,001,2023_Apr_17_1814,SpeechDraft1Carolyn_lessNoise_PlusLocalization,2021.2.3,60.015642417288625,
your.wav,your.mpg,your,1,A,Pink_Noise_1_1.wav,Pink_Noise_1_2.wav,,,,,,,,,,,,,,,0,94,94,20,,,,,,,,,,,,,,,,,,,,,,,575.2102600908838,None,576.7265726127662,None,578.11024681665,None,your,578.11024681665,None,return,3.009992213919759,578.1936230617575,None,,,,,,,,,,,,,,,,,,,,,,,,,,,,,,,,,,,,,,,76,001,2023_Apr_17_1814,SpeechDraft1Carolyn_lessNoise_PlusLocalization,2021.2.3,60.015642417288625,
tank.wav,tank.mpg,tank,3,AV,Pink_Noise_3_1.wav,Pink_Noise_3_2.wav,,,,,,,,,,,,,,,0,95,95,82,,,,,,,,,,,,,,,,,,,,,,,581.22691591084,None,582.727761563845,None,584.1104474365711,None,ted,584.1104474365711,None,return,0.7460679267533123,584.1935561369173,None,,,,,,,,,,,,,,,,,,,,,,,,,,,,,,,,,,,,,,,76,001,2023_Apr_17_1814,SpeechDraft1Carolyn_lessNoise_PlusLocalization,2021.2.3,60.015642417288625,
pants.wav,pants.mpg,pants,6,A,Pink_Noise_6_1.wav,Pink_Noise_6_2.wav,,,,,,,,,,,,,,,0,96,96,55,,,,,,,,,,,,,,,,,,,,,,,584.9601959530264,None,586.4932206678204,None,587.876827663742,None,mess,587.876827663742,None,return,1.5792249757796526,587.9603754826821,None,,,,,,,,,,,,,,,,,,,,,,,,,,,,,,,,,,,,,,,76,001,2023_Apr_17_1814,SpeechDraft1Carolyn_lessNoise_PlusLocalization,2021.2.3,60.015642417288625,
goat.wav,goat.mpg,goat,6,AV,Pink_Noise_6_1.wav,Pink_Noise_6_2.wav,,,,,,,,,,,,,,,0,97,97,114,,,,,,,,,,,,,,,,,,,,,,,589.5602672789246,None,591.076663882006,None,592.4601846928708,None,"joke
",592.4601846928708,None,return,1.2519166772253811,592.5437128497288,None,,,,,,,,,,,,,,,,,,,,,,,,,,,,,,,,,,,,,,,76,001,2023_Apr_17_1814,SpeechDraft1Carolyn_lessNoise_PlusLocalization,2021.2.3,60.015642417288625,
dent.wav,dent.mpg,dent,2,A,Pink_Noise_2_1.wav,Pink_Noise_2_2.wav,,,,,,,,,,,,,,,0,98,98,5,,,,,,,,,,,,,,,,,,,,,,,593.8268406167626,None,595.3432837757282,None,596.7269810508005,None,dent,596.7269810508005,None,return,2.1454433370381594,596.8101923447102,None,,,,,,,,,,,,,,,,,,,,,,,,,,,,,,,,,,,,,,,76,001,2023_Apr_17_1814,SpeechDraft1Carolyn_lessNoise_PlusLocalization,2021.2.3,60.015642417288625,
build.wav,build.mpg,build,6,A,Pink_Noise_6_1.wav,Pink_Noise_6_2.wav,,,,,,,,,,,,,,,0,99,99,47,,,,,,,,,,,,,,,,,,,,,,,598.9769516908564,None,600.4781988938339,None,601.8602599999867,None,gum,601.8602599999867,None,return,1.1958951791748405,601.9437357666902,None,,,,,,,,,,,,,,,,,,,,,,,,,,,,,,,,,,,,,,,76,001,2023_Apr_17_1814,SpeechDraft1Carolyn_lessNoise_PlusLocalization,2021.2.3,60.015642417288625,
beige.wav,beige.mpg,beige,5,A,Pink_Noise_5_1.wav,Pink_Noise_5_2.wav,,,,,,,,,,,,,,,0,100,100,31,,,,,,,,,,,,,,,,,,,,,,,603.1603341456503,None,604.6618174919859,None,606.0436909967102,None,beige,606.0436909967102,None,return,2.2126899361610413,606.1269179107621,None,,,,,,,,,,,,,,,,,,,,,,,,,,,,,,,,,,,,,,,76,001,2023_Apr_17_1814,SpeechDraft1Carolyn_lessNoise_PlusLocalization,2021.2.3,60.015642417288625,
nine.wav,nine.mpg,nine,5,A,Pink_Noise_5_1.wav,Pink_Noise_5_2.wav,,,,,,,,,,,,,,,0,101,101,37,,,,,,,,,,,,,,,,,,,,,,,608.3602476376109,None,609.859978465829,None,611.2436059690081,None,lime,611.2436059690081,None,return,6.372646180912852,611.3270436357707,None,,,,,,,,,,,,,,,,,,,,,,,,,,,,,,,,,,,,,,,76,001,2023_Apr_17_1814,SpeechDraft1Carolyn_lessNoise_PlusLocalization,2021.2.3,60.015642417288625,
drink.wav,drink.mpg,drink,1,A,Pink_Noise_1_1.wav,Pink_Noise_1_2.wav,,,,,,,,,,,,,,,0,102,102,59,,,,,,,,,,,,,,,,,,,,,,,617.7269132449292,None,619.25993486261,None,620.6436486965977,None,drink,620.6436486965977,None,return,2.3888009069487453,620.7269276757725,None,,,,,,,,,,,,,,,,,,,,,,,,,,,,,,,,,,,,,,,76,001,2023_Apr_17_1814,SpeechDraft1Carolyn_lessNoise_PlusLocalization,2021.2.3,60.015642417288625,
gloom.wav,gloom.mpg,gloom,4,A,Pink_Noise_4_1.wav,Pink_Noise_4_2.wav,,,,,,,,,,,,,,,0,103,103,54,,,,,,,,,,,,,,,,,,,,,,,623.1437326348387,None,624.6601013657637,None,626.0437358426861,None,ghoul,626.0437358426861,None,return,5.3806089060381055,626.1270201019943,None,,,,,,,,,,,,,,,,,,,,,,,,,,,,,,,,,,,,,,,76,001,2023_Apr_17_1814,SpeechDraft1Carolyn_lessNoise_PlusLocalization,2021.2.3,60.015642417288625,
catch.wav,catch.mpg,catch,2,A,Pink_Noise_2_1.wav,Pink_Noise_2_2.wav,,,,,,,,,,,,,,,0,104,104,6,,,,,,,,,,,,,,,,,,,,,,,631.527002369985,None,633.0601128540002,None,634.4438172546215,None,catch,634.4438172546215,None,return,2.292643246240914,634.5269601410255,None,,,,,,,,,,,,,,,,,,,,,,,,,,,,,,,,,,,,,,,76,001,2023_Apr_17_1814,SpeechDraft1Carolyn_lessNoise_PlusLocalization,2021.2.3,60.015642417288625,
round.wav,round.mpg,round,4,AV,Pink_Noise_4_1.wav,Pink_Noise_4_2.wav,,,,,,,,,,,,,,,0,105,105,111,,,,,,,,,,,,,,,,,,,,,,,636.8436580626294,None,638.3599764648825,None,639.7435297938064,None,round,639.7435297938064,None,return,3.1605129428207874,639.8270924128592,None,,,,,,,,,,,,,,,,,,,,,,,,,,,,,,,,,,,,,,,76,001,2023_Apr_17_1814,SpeechDraft1Carolyn_lessNoise_PlusLocalization,2021.2.3,60.015642417288625,
crash.wav,crash.mpg,crash,2,AV,Pink_Noise_2_1.wav,Pink_Noise_2_2.wav,,,,,,,,,,,,,,,0,106,106,61,,,,,,,,,,,,,,,,,,,,,,,643.0103363757953,None,644.5266827340238,None,645.9103665119037,None,"crash
",645.9103665119037,None,return,1.5699111497960985,645.9937078240328,None,,,,,,,,,,,,,,,,,,,,,,,,,,,,,,,,,,,,,,,76,001,2023_Apr_17_1814,SpeechDraft1Carolyn_lessNoise_PlusLocalization,2021.2.3,60.015642417288625,
crypt.wav,crypt.mpg,crypt,2,A,Pink_Noise_2_1.wav,Pink_Noise_2_2.wav,,,,,,,,,,,,,,,0,107,107,44,,,,,,,,,,,,,,,,,,,,,,,647.5936980349943,None,649.1099399067461,None,650.493682814762,None,crypt,650.493682814762,None,return,9.336934364400804,650.5787929776125,None,,,,,,,,,,,,,,,,,,,,,,,,,,,,,,,,,,,,,,,76,001,2023_Apr_17_1814,SpeechDraft1Carolyn_lessNoise_PlusLocalization,2021.2.3,60.015642417288625,
doll.wav,doll.mpg,doll,2,A,Pink_Noise_2_1.wav,Pink_Noise_2_2.wav,,,,,,,,,,,,,,,0,108,108,48,,,,,,,,,,,,,,,,,,,,,,,659.9436898557469,None,661.4600863419473,None,662.8436971199699,None,dog,662.8436971199699,None,return,2.388661189004779,662.9270214596763,None,,,,,,,,,,,,,,,,,,,,,,,,,,,,,,,,,,,,,,,76,001,2023_Apr_17_1814,SpeechDraft1Carolyn_lessNoise_PlusLocalization,2021.2.3,60.015642417288625,
claim.wav,claim.mpg,claim,1,AV,Pink_Noise_1_1.wav,Pink_Noise_1_2.wav,,,,,,,,,,,,,,,0,109,109,116,,,,,,,,,,,,,,,,,,,,,,,665.3436331045814,None,666.8600223748945,None,668.2437627268955,None,claim,668.2437627268955,None,return,1.2765749469399452,668.3270117267966,None,,,,,,,,,,,,,,,,,,,,,,,,,,,,,,,,,,,,,,,76,001,2023_Apr_17_1814,SpeechDraft1Carolyn_lessNoise_PlusLocalization,2021.2.3,60.015642417288625,
bun.wav,bun.mpg,bun,5,A,Pink_Noise_5_1.wav,Pink_Noise_5_2.wav,,,,,,,,,,,,,,,0,110,110,8,,,,,,,,,,,,,,,,,,,,,,,669.6270583397709,None,671.1600484717637,None,672.5437813848257,None,"foot
",672.5437813848257,None,return,4.168642906006426,672.6269679698162,None,,,,,,,,,,,,,,,,,,,,,,,,,,,,,,,,,,,,,,,76,001,2023_Apr_17_1814,SpeechDraft1Carolyn_lessNoise_PlusLocalization,2021.2.3,60.015642417288625,
booth.wav,booth.mpg,booth,5,AV,Pink_Noise_5_1.wav,Pink_Noise_5_2.wav,,,,,,,,,,,,,,,0,111,111,89,,,,,,,,,,,,,,,,,,,,,,,676.8270064028911,None,678.3434028849006,None,679.7271815366112,None,boot,679.7271815366112,None,return,4.1769644767045975,679.8106723260134,None,,,,,,,,,,,,,,,,,,,,,,,,,,,,,,,,,,,,,,,76,001,2023_Apr_17_1814,SpeechDraft1Carolyn_lessNoise_PlusLocalization,2021.2.3,60.015642417288625,
flea.wav,flea.mpg,flea,1,AV,Pink_Noise_1_1.wav,Pink_Noise_1_2.wav,,,,,,,,,,,,,,,0,112,112,87,,,,,,,,,,,,,,,,,,,,,,,684.010407271795,None,685.5115845026448,None,686.8934514205903,None,flea,686.8934514205903,None,return,0.722733570728451,686.9771029870026,None,,,,,,,,,,,,,,,,,,,,,,,,,,,,,,,,,,,,,,,76,001,2023_Apr_17_1814,SpeechDraft1Carolyn_lessNoise_PlusLocalization,2021.2.3,60.015642417288625,
flock.wav,flock.mpg,flock,1,A,Pink_Noise_1_1.wav,Pink_Noise_1_2.wav,,,,,,,,,,,,,,,0,113,113,58,,,,,,,,,,,,,,,,,,,,,,,687.7270536478609,None,689.2434367798269,None,690.627049122937,None,flock,690.627049122937,None,return,0.9812717749737203,690.7103678248823,None,,,,,,,,,,,,,,,,,,,,,,,,,,,,,,,,,,,,,,,76,001,2023_Apr_17_1814,SpeechDraft1Carolyn_lessNoise_PlusLocalization,2021.2.3,60.015642417288625,
chump.wav,chump.mpg,chump,2,AV,Pink_Noise_2_1.wav,Pink_Noise_2_2.wav,,,,,,,,,,,,,,,0,114,114,62,,,,,,,,,,,,,,,,,,,,,,,691.7103903288953,None,693.226848937571,None,694.6102629806846,None,chunk,694.6102629806846,None,return,1.3739704503677785,694.6937450347468,None,,,,,,,,,,,,,,,,,,,,,,,,,,,,,,,,,,,,,,,76,001,2023_Apr_17_1814,SpeechDraft1Carolyn_lessNoise_PlusLocalization,2021.2.3,60.015642417288625,
buy.wav,buy.mpg,buy,2,AV,Pink_Noise_2_1.wav,Pink_Noise_2_2.wav,,,,,,,,,,,,,,,0,115,115,110,,,,,,,,,,,,,,,,,,,,,,,696.0937158558518,None,697.6100716129877,None,698.9937907517888,None,buy,698.9937907517888,None,return,0.838703173212707,699.0770554156043,None,,,,,,,,,,,,,,,,,,,,,,,,,,,,,,,,,,,,,,,76,001,2023_Apr_17_1814,SpeechDraft1Carolyn_lessNoise_PlusLocalization,2021.2.3,60.015642417288625,
fat.wav,fat.mpg,fat,6,AV,Pink_Noise_6_1.wav,Pink_Noise_6_2.wav,,,,,,,,,,,,,,,0,116,116,95,,,,,,,,,,,,,,,,,,,,,,,699.9437158037908,None,701.4601909318008,None,702.8436318258755,None,fame,702.8436318258755,None,return,1.6203806856647134,702.9272368778475,None,,,,,,,,,,,,,,,,,,,,,,,,,,,,,,,,,,,,,,,76,001,2023_Apr_17_1814,SpeechDraft1Carolyn_lessNoise_PlusLocalization,2021.2.3,60.015642417288625,
flirt.wav,flirt.mpg,flirt,6,A,Pink_Noise_6_1.wav,Pink_Noise_6_2.wav,,,,,,,,,,,,,,,0,117,117,23,,,,,,,,,,,,,,,,,,,,,,,704.5771162137389,None,706.1100023849867,None,707.4937243536115,None,goat,707.4937243536115,None,return,10.714488819241524,707.5771389207803,None,,,,,,,,,,,,,,,,,,,,,,,,,,,,,,,,,,,,,,,76,001,2023_Apr_17_1814,SpeechDraft1Carolyn_lessNoise_PlusLocalization,2021.2.3,60.015642417288625,
bright.wav,bright.mpg,bright,5,AV,Pink_Noise_5_1.wav,Pink_Noise_5_2.wav,,,,,,,,,,,,,,,0,118,118,106,,,,,,,,,,,,,,,,,,,,,,,718.3105004969984,None,719.8268066979945,None,721.2103431178257,None,"write
",721.2103431178257,None,return,2.869855547323823,721.2937609138899,None,,,,,,,,,,,,,,,,,,,,,,,,,,,,,,,,,,,,,,,76,001,2023_Apr_17_1814,SpeechDraft1Carolyn_lessNoise_PlusLocalization,2021.2.3,60.015642417288625,
pipe.wav,pipe.mpg,pipe,4,AV,Pink_Noise_4_1.wav,Pink_Noise_4_2.wav,,,,,,,,,,,,,,,0,119,119,64,,,,,,,,,,,,,,,,,,,,,,,724.1937433569692,None,725.7101414469071,None,727.0936838788912,None,pipe,727.0936838788912,None,return,2.7943826019763947,727.1772211915813,None,,,,,,,,,,,,,,,,,,,,,,,,,,,,,,,,,,,,,,,76,001,2023_Apr_17_1814,SpeechDraft1Carolyn_lessNoise_PlusLocalization,2021.2.3,60.015642417288625,
,,,,,,,,,,,,,,,,,,,,,,,,,,,,,,,,,,,,,,,,,,,,,,,,,,,,,,,,,,,,,,,,,,space,18.82978875003755,730.0939154908992,None,,,,,,,,,,,,,,,,,,,,,,,,,,,,,76,001,2023_Apr_17_1814,SpeechDraft1Carolyn_lessNoise_PlusLocalization,2021.2.3,60.015642417288625,
,,,,,,,,farRight,19.1,4,ch1Sound_localizationTask.wav,19.1,"(1237, 878)","(277,-202)",285,-338,,,,,,,,,0,0,0,6,,,,,,,,,,,,,,,,,,,,,,,,,,,,,,,,,,,,,,,,,,730.0939154908992,None,748.9601815668866,None,750.0601946497336,None,750.9933999506757,None,1.6883597883597883,4.685436227824539,750.9933999506757,None,,,,,,,,,,,,,,,,,76,001,2023_Apr_17_1814,SpeechDraft1Carolyn_lessNoise_PlusLocalization,2021.2.3,60.015642417288625,
,,,,,,,,midLeft,-13.0,2,ch1Sound_localizationTask.wav,-13.0,"(762, 878)","(-198,-202)",-190,-338,,,,,,,,,0,1,1,1,,,,,,,,,,,,,,,,,,,,,,,,,,,,,,,,,,,,,,,,,,,,755.6773288976401,None,756.7768697976135,None,757.7101689130068,None,1.3433862433862434,1.032878561411053,757.7101689130068,None,,,,,,,,,,,,,,,,,76,001,2023_Apr_17_1814,SpeechDraft1Carolyn_lessNoise_PlusLocalization,2021.2.3,60.015642417288625,
,,,,,,,,nearLeft,-6.5,1,ch1Sound_localizationTask.wav,-6.5,"(857, 878)","(-103,-202)",-95,-338,,,,,,,,,0,2,2,2,,,,,,,,,,,,,,,,,,,,,,,,,,,,,,,,,,,,,,,,,,,,758.7444394286722,None,759.8435844359919,None,760.7767557306215,None,1.3555555555555556,0.6665476788766682,760.7767557306215,None,,,,,,,,,,,,,,,,,76,001,2023_Apr_17_1814,SpeechDraft1Carolyn_lessNoise_PlusLocalization,2021.2.3,60.015642417288625,
,,,,,,,,farRight,19.1,4,ch1Sound_localizationTask.wav,19.1,"(1237, 878)","(277,-202)",285,-338,,,,,,,,,0,3,3,6,,,,,,,,,,,,,,,,,,,,,,,,,,,,,,,,,,,,,,,,,,,,761.4438353027217,None,762.5435805059969,None,763.4769116397947,None,1.5687830687830688,0.4002922670915723,763.4769116397947,None,,,,,,,,,,,,,,,,,76,001,2023_Apr_17_1814,SpeechDraft1Carolyn_lessNoise_PlusLocalization,2021.2.3,60.015642417288625,
,,,,,,,,center,0.0,6,ch1Sound_localizationTask.wav,0.0,"(952, 878)","(-8,-202)",0,-338,,,,,,,,,0,4,4,3,,,,,,,,,,,,,,,,,,,,,,,,,,,,,,,,,,,,,,,,,,,,763.8939036107622,None,764.9936040616594,None,765.92697532475,None,1.4481481481481482,0.5153303039260209,765.92697532475,None,,,,,,,,,,,,,,,,,76,001,2023_Apr_17_1814,SpeechDraft1Carolyn_lessNoise_PlusLocalization,2021.2.3,60.015642417288625,
,,,,,,,,nearRight,6.5,0,ch1Sound_localizationTask.wav,6.5,"(1047, 878)","(87, -202)",95,-338,,,,,,,,,0,5,5,4,,,,,,,,,,,,,,,,,,,,,,,,,,,,,,,,,,,,,,,,,,,,766.4438638975844,None,767.5435923077166,None,768.4769610739313,None,1.4857142857142858,0.43295352486893535,768.4769610739313,None,,,,,,,,,,,,,,,,,76,001,2023_Apr_17_1814,SpeechDraft1Carolyn_lessNoise_PlusLocalization,2021.2.3,60.015642417288625,
,,,,,,,,midRight,13.0,3,ch1Sound_localizationTask.wav,13.0,"(1142, 878)","(182, -202)",190,-338,,,,,,,,,0,6,6,5,,,,,,,,,,,,,,,,,,,,,,,,,,,,,,,,,,,,,,,,,,,,768.9105570279062,None,770.0101948068477,None,770.9435512828641,None,1.5312169312169313,0.4325621398165822,770.9435512828641,None,,,,,,,,,,,,,,,,,76,001,2023_Apr_17_1814,SpeechDraft1Carolyn_lessNoise_PlusLocalization,2021.2.3,60.015642417288625,
,,,,,,,,center,0.0,6,ch1Sound_localizationTask.wav,0.0,"(952, 878)","(-8,-202)",0,-338,,,,,,,,,1,0,7,3,,,,,,,,,,,,,,,,,,,,,,,,,,,,,,,,,,,,,,,,,,,,771.3772076428868,None,772.4768453468569,None,773.4103729077615,None,1.4291005291005292,0.700309731066227,773.4103729077615,None,,,,,,,,,,,,,,,,,76,001,2023_Apr_17_1814,SpeechDraft1Carolyn_lessNoise_PlusLocalization,2021.2.3,60.015642417288625,
,,,,,,,,nearLeft,-6.5,1,ch1Sound_localizationTask.wav,-6.5,"(857, 878)","(-103,-202)",-95,-338,,,,,,,,,1,1,8,2,,,,,,,,,,,,,,,,,,,,,,,,,,,,,,,,,,,,,,,,,,,,774.111122590024,None,775.2102237669751,None,776.1434839856811,None,1.4296296296296296,0.20005782693624496,776.1434839856811,None,,,,,,,,,,,,,,,,,76,001,2023_Apr_17_1814,SpeechDraft1Carolyn_lessNoise_PlusLocalization,2021.2.3,60.015642417288625,
,,,,,,,,farLeft,-19.1,5,ch1Sound_localizationTask.wav,-19.1,"(667, 878)","(-293,-202)",-285,-338,,,,,,,,,1,2,9,0,,,,,,,,,,,,,,,,,,,,,,,,,,,,,,,,,,,,,,,,,,,,776.3439288740046,None,777.4434001930058,None,778.3769370298833,None,1.3941798941798942,0.09953445801511407,778.3769370298833,None,,,,,,,,,,,,,,,,,76,001,2023_Apr_17_1814,SpeechDraft1Carolyn_lessNoise_PlusLocalization,2021.2.3,60.015642417288625,
,,,,,,,,nearLeft,-6.5,1,ch1Sound_localizationTask.wav,-6.5,"(857, 878)","(-103,-202)",-95,-338,,,,,,,,,1,3,10,2,,,,,,,,,,,,,,,,,,,,,,,,,,,,,,,,,,,,,,,,,,,,778.4774450729601,None,779.57699114969,None,780.5101555227302,None,1.3354497354497354,0.8492951556108892,780.5101555227302,None,,,,,,,,,,,,,,,,,76,001,2023_Apr_17_1814,SpeechDraft1Carolyn_lessNoise_PlusLocalization,2021.2.3,60.015642417288625,
,,,,,,,,midLeft,-13.0,2,ch1Sound_localizationTask.wav,-13.0,"(762, 878)","(-198,-202)",-190,-338,,,,,,,,,1,4,11,1,,,,,,,,,,,,,,,,,,,,,,,,,,,,,,,,,,,,,,,,,,,,781.3605522136204,None,782.4601824330166,None,783.3936203336343,None,1.3216931216931216,0.7497926680371165,783.3936203336343,None,,,,,,,,,,,,,,,,,76,001,2023_Apr_17_1814,SpeechDraft1Carolyn_lessNoise_PlusLocalization,2021.2.3,60.015642417288625,
,,,,,,,,center,0.0,6,ch1Sound_localizationTask.wav,0.0,"(952, 878)","(-8,-202)",0,-338,,,,,,,,,1,5,12,3,,,,,,,,,,,,,,,,,,,,,,,,,,,,,,,,,,,,,,,,,,,,784.143883200828,None,785.2435733936727,None,786.1769172148779,None,1.3724867724867724,0.6653862288221717,786.1769172148779,None,,,,,,,,,,,,,,,,,76,001,2023_Apr_17_1814,SpeechDraft1Carolyn_lessNoise_PlusLocalization,2021.2.3,60.015642417288625,
,,,,,,,,midRight,13.0,3,ch1Sound_localizationTask.wav,13.0,"(1142, 878)","(182, -202)",190,-338,,,,,,,,,1,6,13,5,,,,,,,,,,,,,,,,,,,,,,,,,,,,,,,,,,,,,,,,,,,,786.8439265629277,None,787.9436995210126,None,788.8769666389562,None,1.488888888888889,0.6335640531033278,788.8769666389562,None,,,,,,,,,,,,,,,,,76,001,2023_Apr_17_1814,SpeechDraft1Carolyn_lessNoise_PlusLocalization,2021.2.3,60.015642417288625,
,,,,,,,,nearRight,6.5,0,ch1Sound_localizationTask.wav,6.5,"(1047, 878)","(87, -202)",95,-338,,,,,,,,,2,0,14,4,,,,,,,,,,,,,,,,,,,,,,,,,,,,,,,,,,,,,,,,,,,,789.5272265370004,None,790.6270468179137,None,791.5602248688228,None,1.447089947089947,0.7154585630632937,791.5602248688228,None,,,,,,,,,,,,,,,,,76,001,2023_Apr_17_1814,SpeechDraft1Carolyn_lessNoise_PlusLocalization,2021.2.3,60.015642417288625,
,,,,,,,,midRight,13.0,3,ch1Sound_localizationTask.wav,13.0,"(1142, 878)","(182, -202)",190,-338,,,,,,,,,2,1,15,5,,,,,,,,,,,,,,,,,,,,,,,,,,,,,,,,,,,,,,,,,,,,792.2771518477239,None,793.3768903617747,None,794.3103936556727,None,1.5211640211640212,0.7824642732739449,794.3103936556727,None,,,,,,,,,,,,,,,,,76,001,2023_Apr_17_1814,SpeechDraft1Carolyn_lessNoise_PlusLocalization,2021.2.3,60.015642417288625,
,,,,,,,,farLeft,-19.1,5,ch1Sound_localizationTask.wav,-19.1,"(667, 878)","(-293,-202)",-285,-338,,,,,,,,,2,2,16,0,,,,,,,,,,,,,,,,,,,,,,,,,,,,,,,,,,,,,,,,,,,,795.0938306748867,None,796.1935839448124,None,797.126989166718,None,1.2666666666666666,1.067201592028141,797.126989166718,None,,,,,,,,,,,,,,,,,76,001,2023_Apr_17_1814,SpeechDraft1Carolyn_lessNoise_PlusLocalization,2021.2.3,60.015642417288625,
,,,,,,,,midLeft,-13.0,2,ch1Sound_localizationTask.wav,-13.0,"(762, 878)","(-198,-202)",-190,-338,,,,,,,,,2,3,17,1,,,,,,,,,,,,,,,,,,,,,,,,,,,,,,,,,,,,,,,,,,,,798.2106248498894,None,799.3102327128872,None,800.2436355645768,None,1.2772486772486773,1.1511931410059333,800.2436355645768,None,,,,,,,,,,,,,,,,,76,001,2023_Apr_17_1814,SpeechDraft1Carolyn_lessNoise_PlusLocalization,2021.2.3,60.015642417288625,
,,,,,,,,nearRight,6.5,0,ch1Sound_localizationTask.wav,6.5,"(1047, 878)","(87, -202)",95,-338,,,,,,,,,2,4,18,4,,,,,,,,,,,,,,,,,,,,,,,,,,,,,,,,,,,,,,,,,,,,801.4105805568397,None,802.5103111430071,None,803.4434182778932,None,1.3936507936507936,0.682635759934783,803.4434182778932,None,,,,,,,,,,,,,,,,,76,001,2023_Apr_17_1814,SpeechDraft1Carolyn_lessNoise_PlusLocalization,2021.2.3,60.015642417288625,
,,,,,,,,nearRight,6.5,0,ch1Sound_localizationTask.wav,6.5,"(1047, 878)","(87, -202)",95,-338,,,,,,,,,2,5,19,4,,,,,,,,,,,,,,,,,,,,,,,,,,,,,,,,,,,,,,,,,,,,804.1273265290074,None,805.2268948936835,None,806.1602740567178,None,1.453968253968254,0.8997185318730772,806.1602740567178,None,,,,,,,,,,,,,,,,,76,001,2023_Apr_17_1814,SpeechDraft1Carolyn_lessNoise_PlusLocalization,2021.2.3,60.015642417288625,
,,,,,,,,farLeft,-19.1,5,ch1Sound_localizationTask.wav,-19.1,"(667, 878)","(-293,-202)",-285,-338,,,,,,,,,2,6,20,0,,,,,,,,,,,,,,,,,,,,,,,,,,,,,,,,,,,,,,,,,,,,807.060548403766,None,808.1603327197954,None,809.0937294759788,None,1.2873015873015872,0.7657872578129172,809.0937294759788,None,,,,,,,,,,,,,,,,,76,001,2023_Apr_17_1814,SpeechDraft1Carolyn_lessNoise_PlusLocalization,2021.2.3,60.015642417288625,
,,,,,,,,center,0.0,6,ch1Sound_localizationTask.wav,0.0,"(952, 878)","(-8,-202)",0,-338,,,,,,,,,3,0,21,3,,,,,,,,,,,,,,,,,,,,,,,,,,,,,,,,,,,,,,,,,,,,809.8605943499133,None,810.9601594679989,None,811.8936510686763,None,1.4158730158730157,0.5496227601543069,811.8936510686763,None,,,,,,,,,,,,,,,,,76,001,2023_Apr_17_1814,SpeechDraft1Carolyn_lessNoise_PlusLocalization,2021.2.3,60.015642417288625,
,,,,,,,,nearRight,6.5,0,ch1Sound_localizationTask.wav,6.5,"(1047, 878)","(87, -202)",95,-338,,,,,,,,,3,1,22,4,,,,,,,,,,,,,,,,,,,,,,,,,,,,,,,,,,,,,,,,,,,,812.4446212728508,None,813.5436515337788,None,814.476978154853,None,1.4915343915343915,0.5999366128817201,814.476978154853,None,,,,,,,,,,,,,,,,,76,001,2023_Apr_17_1814,SpeechDraft1Carolyn_lessNoise_PlusLocalization,2021.2.3,60.015642417288625,
,,,,,,,,farRight,19.1,4,ch1Sound_localizationTask.wav,19.1,"(1237, 878)","(277,-202)",285,-338,,,,,,,,,3,2,23,6,,,,,,,,,,,,,,,,,,,,,,,,,,,,,,,,,,,,,,,,,,,,815.0773546695709,None,816.1768387015909,None,817.110252274666,None,1.5788359788359787,0.7495951140299439,817.110252274666,None,,,,,,,,,,,,,,,,,76,001,2023_Apr_17_1814,SpeechDraft1Carolyn_lessNoise_PlusLocalization,2021.2.3,60.015642417288625,
,,,,,,,,nearRight,6.5,0,ch1Sound_localizationTask.wav,6.5,"(1047, 878)","(87, -202)",95,-338,,,,,,,,,3,3,24,4,,,,,,,,,,,,,,,,,,,,,,,,,,,,,,,,,,,,,,,,,,,,817.8606520476751,None,818.9602747526951,None,819.8937690230086,None,1.4703703703703703,0.5831605056300759,819.8937690230086,None,,,,,,,,,,,,,,,,,76,001,2023_Apr_17_1814,SpeechDraft1Carolyn_lessNoise_PlusLocalization,2021.2.3,60.015642417288625,
,,,,,,,,midRight,13.0,3,ch1Sound_localizationTask.wav,13.0,"(1142, 878)","(182, -202)",190,-338,,,,,,,,,3,4,25,5,,,,,,,,,,,,,,,,,,,,,,,,,,,,,,,,,,,,,,,,,,,,820.4772557755932,None,821.5768563007005,None,822.510265385732,None,1.5206349206349206,0.5330092846415937,822.510265385732,None,,,,,,,,,,,,,,,,,76,001,2023_Apr_17_1814,SpeechDraft1Carolyn_lessNoise_PlusLocalization,2021.2.3,60.015642417288625,
,,,,,,,,farRight,19.1,4,ch1Sound_localizationTask.wav,19.1,"(1237, 878)","(277,-202)",285,-338,,,,,,,,,3,5,26,6,,,,,,,,,,,,,,,,,,,,,,,,,,,,,,,,,,,,,,,,,,,,823.0442260988057,None,824.1436372236349,None,825.0769203095697,None,1.665079365079365,0.5163839571177959,825.0769203095697,None,,,,,,,,,,,,,,,,,76,001,2023_Apr_17_1814,SpeechDraft1Carolyn_lessNoise_PlusLocalization,2021.2.3,60.015642417288625,
,,,,,,,,nearRight,6.5,0,ch1Sound_localizationTask.wav,6.5,"(1047, 878)","(87, -202)",95,-338,,,,,,,,,3,6,27,4,,,,,,,,,,,,,,,,,,,,,,,,,,,,,,,,,,,,,,,,,,,,825.5939539019018,None,826.6935778209008,None,827.6268619219773,None,1.5015873015873016,0.5790610988624394,827.6268619219773,None,,,,,,,,,,,,,,,,,76,001,2023_Apr_17_1814,SpeechDraft1Carolyn_lessNoise_PlusLocalization,2021.2.3,60.015642417288625,
,,,,,,,,midLeft,-13.0,2,ch1Sound_localizationTask.wav,-13.0,"(762, 878)","(-198,-202)",-190,-338,,,,,,,,,4,0,28,1,,,,,,,,,,,,,,,,,,,,,,,,,,,,,,,,,,,,,,,,,,,,828.2106970176101,None,829.3103535538539,None,830.2435765918344,None,1.2767195767195767,0.6336579290218651,830.2435765918344,None,,,,,,,,,,,,,,,,,76,001,2023_Apr_17_1814,SpeechDraft1Carolyn_lessNoise_PlusLocalization,2021.2.3,60.015642417288625,
,,,,,,,,farLeft,-19.1,5,ch1Sound_localizationTask.wav,-19.1,"(667, 878)","(-293,-202)",-285,-338,,,,,,,,,4,1,29,0,,,,,,,,,,,,,,,,,,,,,,,,,,,,,,,,,,,,,,,,,,,,830.8772259368561,None,831.9770271428861,None,832.9103233246133,None,1.3142857142857143,0.4828041000291705,832.9103233246133,None,,,,,,,,,,,,,,,,,76,001,2023_Apr_17_1814,SpeechDraft1Carolyn_lessNoise_PlusLocalization,2021.2.3,60.015642417288625,
,,,,,,,,farRight,19.1,4,ch1Sound_localizationTask.wav,19.1,"(1237, 878)","(277,-202)",285,-338,,,,,,,,,4,2,30,6,,,,,,,,,,,,,,,,,,,,,,,,,,,,,,,,,,,,,,,,,,,,833.3939447659068,None,834.4935728670098,None,835.4269199548289,None,1.6465608465608466,0.433651614934206,835.4269199548289,None,,,,,,,,,,,,,,,,,76,001,2023_Apr_17_1814,SpeechDraft1Carolyn_lessNoise_PlusLocalization,2021.2.3,60.015642417288625,
,,,,,,,,nearLeft,-6.5,1,ch1Sound_localizationTask.wav,-6.5,"(857, 878)","(-103,-202)",-95,-338,,,,,,,,,4,3,31,2,,,,,,,,,,,,,,,,,,,,,,,,,,,,,,,,,,,,,,,,,,,,835.8772033867426,None,836.9770139260218,None,837.9104521856643,None,1.4365079365079365,0.6329409438185394,837.9104521856643,None,,,,,,,,,,,,,,,,,76,001,2023_Apr_17_1814,SpeechDraft1Carolyn_lessNoise_PlusLocalization,2021.2.3,60.015642417288625,
,,,,,,,,midRight,13.0,3,ch1Sound_localizationTask.wav,13.0,"(1142, 878)","(182, -202)",190,-338,,,,,,,,,4,4,32,5,,,,,,,,,,,,,,,,,,,,,,,,,,,,,,,,,,,,,,,,,,,,838.5443955189548,None,839.6436389987357,None,840.5769168557599,None,1.507936507936508,0.632573651149869,840.5769168557599,None,,,,,,,,,,,,,,,,,76,001,2023_Apr_17_1814,SpeechDraft1Carolyn_lessNoise_PlusLocalization,2021.2.3,60.015642417288625,
,,,,,,,,farRight,19.1,4,ch1Sound_localizationTask.wav,19.1,"(1237, 878)","(277,-202)",285,-338,,,,,,,,,4,5,33,6,,,,,,,,,,,,,,,,,,,,,,,,,,,,,,,,,,,,,,,,,,,,841.2106590839103,None,842.3102727318183,None,843.2436257009394,None,1.6068783068783068,0.40020190738141537,843.2436257009394,None,,,,,,,,,,,,,,,,,76,001,2023_Apr_17_1814,SpeechDraft1Carolyn_lessNoise_PlusLocalization,2021.2.3,60.015642417288625,
,,,,,,,,nearRight,6.5,0,ch1Sound_localizationTask.wav,6.5,"(1047, 878)","(87, -202)",95,-338,,,,,,,,,4,6,34,4,,,,,,,,,,,,,,,,,,,,,,,,,,,,,,,,,,,,,,,,,,,,843.6446037339047,None,844.7436819369905,None,845.6770688178949,None,1.447089947089947,0.482781067956239,845.6770688178949,None,,,,,,,,,,,,,,,,,76,001,2023_Apr_17_1814,SpeechDraft1Carolyn_lessNoise_PlusLocalization,2021.2.3,60.015642417288625,
,,,,,,,,farLeft,-19.1,5,ch1Sound_localizationTask.wav,-19.1,"(667, 878)","(-293,-202)",-285,-338,,,,,,,,,5,0,35,0,,,,,,,,,,,,,,,,,,,,,,,,,,,,,,,,,,,,,,,,,,,,846.1606427356601,None,847.2603547666222,None,848.193646594882,None,1.3253968253968254,0.6833602371625602,848.193646594882,None,,,,,,,,,,,,,,,,,76,001,2023_Apr_17_1814,SpeechDraft1Carolyn_lessNoise_PlusLocalization,2021.2.3,60.015642417288625,
,,,,,,,,midRight,13.0,3,ch1Sound_localizationTask.wav,13.0,"(1142, 878)","(182, -202)",190,-338,,,,,,,,,5,1,36,5,,,,,,,,,,,,,,,,,,,,,,,,,,,,,,,,,,,,,,,,,,,,848.8783222488128,None,849.976937178988,None,850.9103210857138,None,1.5634920634920635,0.8159728948958218,850.9103210857138,None,,,,,,,,,,,,,,,,,76,001,2023_Apr_17_1814,SpeechDraft1Carolyn_lessNoise_PlusLocalization,2021.2.3,60.015642417288625,
,,,,,,,,farLeft,-19.1,5,ch1Sound_localizationTask.wav,-19.1,"(667, 878)","(-293,-202)",-285,-338,,,,,,,,,5,2,37,0,,,,,,,,,,,,,,,,,,,,,,,,,,,,,,,,,,,,,,,,,,,,851.7272239569575,None,852.8269675360061,None,853.7603857805952,None,1.2687830687830688,0.7163735693320632,853.7603857805952,None,,,,,,,,,,,,,,,,,76,001,2023_Apr_17_1814,SpeechDraft1Carolyn_lessNoise_PlusLocalization,2021.2.3,60.015642417288625,
,,,,,,,,nearLeft,-6.5,1,ch1Sound_localizationTask.wav,-6.5,"(857, 878)","(-103,-202)",-95,-338,,,,,,,,,5,3,38,2,,,,,,,,,,,,,,,,,,,,,,,,,,,,,,,,,,,,,,,,,,,,854.47725887876,None,855.5771406977437,None,856.5103015117347,None,1.3613756613756614,0.33336932212114334,856.5103015117347,None,,,,,,,,,,,,,,,,,76,001,2023_Apr_17_1814,SpeechDraft1Carolyn_lessNoise_PlusLocalization,2021.2.3,60.015642417288625,
,,,,,,,,farRight,19.1,4,ch1Sound_localizationTask.wav,19.1,"(1237, 878)","(277,-202)",285,-338,,,,,,,,,5,4,39,6,,,,,,,,,,,,,,,,,,,,,,,,,,,,,,,,,,,,,,,,,,,,856.843999247998,None,857.9436337519437,None,858.8771499097347,None,1.6529100529100529,0.8666149419732392,858.8771499097347,None,,,,,,,,,,,,,,,,,76,001,2023_Apr_17_1814,SpeechDraft1Carolyn_lessNoise_PlusLocalization,2021.2.3,60.015642417288625,
,,,,,,,,midRight,13.0,3,ch1Sound_localizationTask.wav,13.0,"(1142, 878)","(182, -202)",190,-338,,,,,,,,,5,5,40,5,,,,,,,,,,,,,,,,,,,,,,,,,,,,,,,,,,,,,,,,,,,,859.7439535078593,None,860.8436316559091,None,861.7769913095981,None,1.4904761904761905,0.8329835627228022,861.7769913095981,None,,,,,,,,,,,,,,,,,76,001,2023_Apr_17_1814,SpeechDraft1Carolyn_lessNoise_PlusLocalization,2021.2.3,60.015642417288625,
,,,,,,,,midLeft,-13.0,2,ch1Sound_localizationTask.wav,-13.0,"(762, 878)","(-198,-202)",-190,-338,,,,,,,,,5,6,41,1,,,,,,,,,,,,,,,,,,,,,,,,,,,,,,,,,,,,,,,,,,,,862.6109479279257,None,863.7103464216925,None,864.6435655336827,None,1.335978835978836,0.7997953179292381,864.6435655336827,None,,,,,,,,,,,,,,,,,76,001,2023_Apr_17_1814,SpeechDraft1Carolyn_lessNoise_PlusLocalization,2021.2.3,60.015642417288625,
,,,,,,,,midLeft,-13.0,2,ch1Sound_localizationTask.wav,-13.0,"(762, 878)","(-198,-202)",-190,-338,,,,,,,,,6,0,42,1,,,,,,,,,,,,,,,,,,,,,,,,,,,,,,,,,,,,,,,,,,,,865.4444761597551,None,866.5436987127177,None,867.4769970127381,None,1.2952380952380953,0.48332128999754786,867.4769970127381,None,,,,,,,,,,,,,,,,,76,001,2023_Apr_17_1814,SpeechDraft1Carolyn_lessNoise_PlusLocalization,2021.2.3,60.015642417288625,
,,,,,,,,center,0.0,6,ch1Sound_localizationTask.wav,0.0,"(952, 878)","(-8,-202)",0,-338,,,,,,,,,6,1,43,3,,,,,,,,,,,,,,,,,,,,,,,,,,,,,,,,,,,,,,,,,,,,867.9606239139102,None,869.0602747630328,None,869.9935928308405,None,1.3957671957671958,0.2823957069776952,869.9935928308405,None,,,,,,,,,,,,,,,,,76,001,2023_Apr_17_1814,SpeechDraft1Carolyn_lessNoise_PlusLocalization,2021.2.3,60.015642417288625,
,,,,,,,,nearLeft,-6.5,1,ch1Sound_localizationTask.wav,-6.5,"(857, 878)","(-103,-202)",-95,-338,,,,,,,,,6,2,44,2,,,,,,,,,,,,,,,,,,,,,,,,,,,,,,,,,,,,,,,,,,,,870.277330418583,None,871.3770142178982,None,872.3105118968524,None,1.337037037037037,0.4495377610437572,872.3105118968524,None,,,,,,,,,,,,,,,,,76,001,2023_Apr_17_1814,SpeechDraft1Carolyn_lessNoise_PlusLocalization,2021.2.3,60.015642417288625,
,,,,,,,,farLeft,-19.1,5,ch1Sound_localizationTask.wav,-19.1,"(667, 878)","(-293,-202)",-285,-338,,,,,,,,,6,3,45,0,,,,,,,,,,,,,,,,,,,,,,,,,,,,,,,,,,,,,,,,,,,,872.7616311777383,None,873.8769488306716,None,874.7939081508666,None,1.312169312169312,0.9990726131945848,874.7939081508666,None,,,,,,,,,,,,,,,,,76,001,2023_Apr_17_1814,SpeechDraft1Carolyn_lessNoise_PlusLocalization,2021.2.3,60.015642417288625,
,,,,,,,,midLeft,-13.0,2,ch1Sound_localizationTask.wav,-13.0,"(762, 878)","(-198,-202)",-190,-338,,,,,,,,,6,4,46,1,,,,,,,,,,,,,,,,,,,,,,,,,,,,,,,,,,,,,,,,,,,,875.7943960237317,None,876.8936079377308,None,877.8270522467792,None,1.3105820105820105,0.4665188202634454,877.8270522467792,None,,,,,,,,,,,,,,,,,76,001,2023_Apr_17_1814,SpeechDraft1Carolyn_lessNoise_PlusLocalization,2021.2.3,60.015642417288625,
,,,,,,,,nearLeft,-6.5,1,ch1Sound_localizationTask.wav,-6.5,"(857, 878)","(-103,-202)",-95,-338,,,,,,,,,6,5,47,2,,,,,,,,,,,,,,,,,,,,,,,,,,,,,,,,,,,,,,,,,,,,878.294008731842,None,879.3937508529052,None,880.3270365865901,None,1.33015873015873,0.5164270862005651,880.3270365865901,None,,,,,,,,,,,,,,,,,76,001,2023_Apr_17_1814,SpeechDraft1Carolyn_lessNoise_PlusLocalization,2021.2.3,60.015642417288625,
,,,,,,,,farRight,19.1,4,ch1Sound_localizationTask.wav,19.1,"(1237, 878)","(277,-202)",285,-338,,,,,,,,,6,6,48,6,,,,,,,,,,,,,,,,,,,,,,,,,,,,,,,,,,,,,,,,,,,,880.8441065149382,None,881.9436081666499,None,882.8771017286927,None,1.61005291005291,0.9996771160513163,882.8771017286927,None,,,,,,,,,,,,,,,,,76,001,2023_Apr_17_1814,SpeechDraft1Carolyn_lessNoise_PlusLocalization,2021.2.3,60.015642417288625,
,,,,,,,,center,0.0,6,ch1Sound_localizationTask.wav,0.0,"(952, 878)","(-8,-202)",0,-338,,,,,,,,,7,0,49,3,,,,,,,,,,,,,,,,,,,,,,,,,,,,,,,,,,,,,,,,,,,,883.8774728598073,None,884.9770664917305,None,885.9102908647619,None,1.4264550264550264,0.583058362826705,885.9102908647619,None,,,,,,,,,,,,,,,,,76,001,2023_Apr_17_1814,SpeechDraft1Carolyn_lessNoise_PlusLocalization,2021.2.3,60.015642417288625,
,,,,,,,,midLeft,-13.0,2,ch1Sound_localizationTask.wav,-13.0,"(762, 878)","(-198,-202)",-190,-338,,,,,,,,,7,1,50,1,,,,,,,,,,,,,,,,,,,,,,,,,,,,,,,,,,,,,,,,,,,,886.494265042711,None,887.5937004545704,None,888.5270517920144,None,1.3735449735449734,0.7002345728687942,888.5270517920144,None,,,,,,,,,,,,,,,,,76,001,2023_Apr_17_1814,SpeechDraft1Carolyn_lessNoise_PlusLocalization,2021.2.3,60.015642417288625,
,,,,,,,,farLeft,-19.1,5,ch1Sound_localizationTask.wav,-19.1,"(667, 878)","(-293,-202)",-285,-338,,,,,,,,,7,2,51,0,,,,,,,,,,,,,,,,,,,,,,,,,,,,,,,,,,,,,,,,,,,,889.2440306530334,None,890.3436544267461,None,891.2770851338282,None,1.3185185185185184,0.9670264320448041,891.2770851338282,None,,,,,,,,,,,,,,,,,76,001,2023_Apr_17_1814,SpeechDraft1Carolyn_lessNoise_PlusLocalization,2021.2.3,60.015642417288625,
,,,,,,,,nearLeft,-6.5,1,ch1Sound_localizationTask.wav,-6.5,"(857, 878)","(-103,-202)",-95,-338,,,,,,,,,7,3,52,2,,,,,,,,,,,,,,,,,,,,,,,,,,,,,,,,,,,,,,,,,,,,892.2439777539112,None,893.3436922328547,None,894.2770427726209,None,1.3941798941798942,0.7331378092058003,894.2770427726209,None,,,,,,,,,,,,,,,,,76,001,2023_Apr_17_1814,SpeechDraft1Carolyn_lessNoise_PlusLocalization,2021.2.3,60.015642417288625,
,,,,,,,,center,0.0,6,ch1Sound_localizationTask.wav,0.0,"(952, 878)","(-8,-202)",0,-338,,,,,,,,,7,4,53,3,,,,,,,,,,,,,,,,,,,,,,,,,,,,,,,,,,,,,,,,,,,,895.0106852697209,None,896.1102711907588,None,897.0437677446753,None,1.3962962962962964,0.31557206297293305,897.0437677446753,None,,,,,,,,,,,,,,,,,76,001,2023_Apr_17_1814,SpeechDraft1Carolyn_lessNoise_PlusLocalization,2021.2.3,60.015642417288625,
,,,,,,,,center,0.0,6,ch1Sound_localizationTask.wav,0.0,"(952, 878)","(-8,-202)",0,-338,,,,,,,,,7,5,54,3,,,,,,,,,,,,,,,,,,,,,,,,,,,,,,,,,,,,,,,,,,,,897.3606927809305,None,898.4603298068978,None,899.3936435086653,None,1.4211640211640213,0.4492089347913861,899.3936435086653,None,,,,,,,,,,,,,,,,,76,001,2023_Apr_17_1814,SpeechDraft1Carolyn_lessNoise_PlusLocalization,2021.2.3,60.015642417288625,
,,,,,,,,midRight,13.0,3,ch1Sound_localizationTask.wav,13.0,"(1142, 878)","(182, -202)",190,-338,,,,,,,,,7,6,55,5,,,,,,,,,,,,,,,,,,,,,,,,,,,,,,,,,,,,,,,,,,,,899.843981930986,None,900.9437586516142,None,901.8770261546597,None,1.538095238095238,0.5833826432935894,901.8770261546597,None,,,,,,,,,,,,,,,,,76,001,2023_Apr_17_1814,SpeechDraft1Carolyn_lessNoise_PlusLocalization,2021.2.3,60.015642417288625,
,,,,,,,,,,,,,,,,,,,,,,,,,,,,,,,,,,,,,,,,,,,,,,,,,,,,,,,,,,,,,,,,,,,,,,,,,,,,,,,,,,space,11.707349594216794,902.5442794668488,None,,,,,,,,,,,,,76,001,2023_Apr_17_1814,SpeechDraft1Carolyn_lessNoise_PlusLocalization,2021.2.3,60.015642417288625,
,,,,,,,,farRight,19.1,4,ch1Sound_localizationTask.wav,19.1,"(1237, 878)","(277,-202)",285,-338,,,,,,,,,,,,,0,0,0,6,,,,,,,,,,,,,,,,,,,,,,,,,,,,,,,,,,,,,,,,914.2937077865936,None,,,917.3272017338313,None,1.6502645502645503,1.7532261838205159,917.3272017338313,None,,,,,902.5442794668488,None,915.2939899447374,None,915.4774921438657,915.494208863005,,,,,,,76,001,2023_Apr_17_1814,SpeechDraft1Carolyn_lessNoise_PlusLocalization,2021.2.3,60.015642417288625,
,,,,,,,,midLeft,-13.0,2,ch1Sound_localizationTask.wav,-13.0,"(762, 878)","(-198,-202)",-190,-338,,,,,,,,,,,,,0,1,1,1,,,,,,,,,,,,,,,,,,,,,,,,,,,,,,,,,,,,,,,,919.0776032139547,None,,,922.0937547949143,None,1.4216931216931217,1.115347616840154,922.0937547949143,None,,,,,,,920.0775018050335,None,920.2608610638417,920.2774332766421,,,,,,,76,001,2023_Apr_17_1814,SpeechDraft1Carolyn_lessNoise_PlusLocalization,2021.2.3,60.015642417288625,
,,,,,,,,nearRight,6.5,0,ch1Sound_localizationTask.wav,6.5,"(1047, 878)","(87, -202)",95,-338,,,,,,,,,,,,,0,2,2,4,,,,,,,,,,,,,,,,,,,,,,,,,,,,,,,,,,,,,,,,923.2108483077027,None,,,926.2270477628335,None,1.537037037037037,0.7148833060637116,926.2270477628335,None,,,,,,,924.2106610499322,None,924.3940242347308,924.4107193318196,,,,,,,76,001,2023_Apr_17_1814,SpeechDraft1Carolyn_lessNoise_PlusLocalization,2021.2.3,60.015642417288625,
,,,,,,,,farRight,19.1,4,ch1Sound_localizationTask.wav,19.1,"(1237, 878)","(277,-202)",285,-338,,,,,,,,,,,,,0,3,3,6,,,,,,,,,,,,,,,,,,,,,,,,,,,,,,,,,,,,,,,,926.9440274988301,None,,,929.9606211245991,None,1.6063492063492064,0.683339602779597,929.9606211245991,None,,,,,,,927.944260507822,None,928.1274433787912,928.1440186239779,,,,,,,76,001,2023_Apr_17_1814,SpeechDraft1Carolyn_lessNoise_PlusLocalization,2021.2.3,60.015642417288625,
,,,,,,,,nearRight,6.5,0,ch1Sound_localizationTask.wav,6.5,"(1047, 878)","(87, -202)",95,-338,,,,,,,,,,,,,0,4,4,4,,,,,,,,,,,,,,,,,,,,,,,,,,,,,,,,,,,,,,,,930.6442248327658,None,,,933.6604734989814,None,1.5423280423280423,0.915349347051233,933.6604734989814,None,,,,,,,931.644059937913,None,931.8273520786315,931.844057793729,,,,,,,76,001,2023_Apr_17_1814,SpeechDraft1Carolyn_lessNoise_PlusLocalization,2021.2.3,60.015642417288625,
,,,,,,,,center,0.0,6,ch1Sound_localizationTask.wav,0.0,"(952, 878)","(-8,-202)",0,-338,,,,,,,,,,,,,0,5,5,3,,,,,,,,,,,,,,,,,,,,,,,,,,,,,,,,,,,,,,,,934.5773919778876,None,,,937.5938500566408,None,1.502116402116402,1.1820586589165032,937.5938500566408,None,,,,,,,935.5773979797959,None,935.7607799726538,935.7773725287989,,,,,,,76,001,2023_Apr_17_1814,SpeechDraft1Carolyn_lessNoise_PlusLocalization,2021.2.3,60.015642417288625,
,,,,,,,,farRight,19.1,4,ch1Sound_localizationTask.wav,19.1,"(1237, 878)","(277,-202)",285,-338,,,,,,,,,,,,,0,6,6,6,,,,,,,,,,,,,,,,,,,,,,,,,,,,,,,,,,,,,,,,938.7774082906544,None,,,941.793717531953,None,1.6534391534391535,0.9321621437557042,941.793717531953,None,,,,,,,939.7773964758962,None,939.9607074167579,939.9774731858633,,,,,,,76,001,2023_Apr_17_1814,SpeechDraft1Carolyn_lessNoise_PlusLocalization,2021.2.3,60.015642417288625,
,,,,,,,,center,0.0,6,ch1Sound_localizationTask.wav,0.0,"(952, 878)","(-8,-202)",0,-338,,,,,,,,,,,,,1,0,7,3,,,,,,,,,,,,,,,,,,,,,,,,,,,,,,,,,,,,,,,,942.7273974725977,None,,,945.7439935710281,None,1.5015873015873016,0.933156618848443,945.7439935710281,None,,,,,,,943.7274919119664,None,943.9108455809765,943.9274314749055,,,,,,,76,001,2023_Apr_17_1814,SpeechDraft1Carolyn_lessNoise_PlusLocalization,2021.2.3,60.015642417288625,
,,,,,,,,farLeft,-19.1,5,ch1Sound_localizationTask.wav,-19.1,"(667, 878)","(-293,-202)",-285,-338,,,,,,,,,,,,,1,1,8,0,,,,,,,,,,,,,,,,,,,,,,,,,,,,,,,,,,,,,,,,946.6777065978386,None,,,949.693814846687,None,1.3708994708994708,1.0501897600479424,949.693814846687,None,,,,,,,947.6774062267505,None,947.860755414702,947.8774578305893,,,,,,,76,001,2023_Apr_17_1814,SpeechDraft1Carolyn_lessNoise_PlusLocalization,2021.2.3,60.015642417288625,
,,,,,,,,nearRight,6.5,0,ch1Sound_localizationTask.wav,6.5,"(1047, 878)","(87, -202)",95,-338,,,,,,,,,,,,,1,2,9,4,,,,,,,,,,,,,,,,,,,,,,,,,,,,,,,,,,,,,,,,950.7608337858692,None,,,953.7770598698407,None,1.53015873015873,1.0312084089964628,953.7770598698407,None,,,,,,,951.7607352100313,None,951.9441867908463,951.9607527055778,,,,,,,76,001,2023_Apr_17_1814,SpeechDraft1Carolyn_lessNoise_PlusLocalization,2021.2.3,60.015642417288625,
,,,,,,,,center,0.0,6,ch1Sound_localizationTask.wav,0.0,"(952, 878)","(-8,-202)",0,-338,,,,,,,,,,,,,1,3,10,3,,,,,,,,,,,,,,,,,,,,,,,,,,,,,,,,,,,,,,,,954.8107367060147,None,,,957.8271479858086,None,1.4978835978835978,0.9156368393450975,957.8271479858086,None,,,,,,,955.8107287958264,None,955.9940688447095,956.010795602575,,,,,,,76,001,2023_Apr_17_1814,SpeechDraft1Carolyn_lessNoise_PlusLocalization,2021.2.3,60.015642417288625,
,,,,,,,,center,0.0,6,ch1Sound_localizationTask.wav,0.0,"(952, 878)","(-8,-202)",0,-338,,,,,,,,,,,,,1,4,11,3,,,,,,,,,,,,,,,,,,,,,,,,,,,,,,,,,,,,,,,,958.7441059285775,None,,,961.7605951097794,None,1.4978835978835978,0.5330049730837345,961.7605951097794,None,,,,,,,959.7440081038512,None,959.9274077876471,959.9440821986645,,,,,,,76,001,2023_Apr_17_1814,SpeechDraft1Carolyn_lessNoise_PlusLocalization,2021.2.3,60.015642417288625,
,,,,,,,,farRight,19.1,4,ch1Sound_localizationTask.wav,19.1,"(1237, 878)","(277,-202)",285,-338,,,,,,,,,,,,,1,5,12,6,,,,,,,,,,,,,,,,,,,,,,,,,,,,,,,,,,,,,,,,962.2942989766598,None,,,965.3105686940253,None,1.6354497354497355,0.9827650049701333,965.3105686940253,None,,,,,,,963.2941370080225,None,963.477441297844,963.494196687825,,,,,,,76,001,2023_Apr_17_1814,SpeechDraft1Carolyn_lessNoise_PlusLocalization,2021.2.3,60.015642417288625,
,,,,,,,,nearLeft,-6.5,1,ch1Sound_localizationTask.wav,-6.5,"(857, 878)","(-103,-202)",-95,-338,,,,,,,,,,,,,1,6,13,2,,,,,,,,,,,,,,,,,,,,,,,,,,,,,,,,,,,,,,,,966.2941241739318,None,,,969.3103948920034,None,1.4555555555555555,0.9340473040938377,969.3103948920034,None,,,,,,,967.2941267029382,None,967.4775616806,967.4941188497469,,,,,,,76,001,2023_Apr_17_1814,SpeechDraft1Carolyn_lessNoise_PlusLocalization,2021.2.3,60.015642417288625,
,,,,,,,,midLeft,-13.0,2,ch1Sound_localizationTask.wav,-13.0,"(762, 878)","(-198,-202)",-190,-338,,,,,,,,,,,,,2,0,14,1,,,,,,,,,,,,,,,,,,,,,,,,,,,,,,,,,,,,,,,,970.26071690768,None,,,973.2770574456081,None,1.361904761904762,0.881903450936079,973.2770574456081,None,,,,,,,971.2608378906734,None,971.4440708886832,971.460824854672,,,,,,,76,001,2023_Apr_17_1814,SpeechDraft1Carolyn_lessNoise_PlusLocalization,2021.2.3,60.015642417288625,
,,,,,,,,midRight,13.0,3,ch1Sound_localizationTask.wav,13.0,"(1142, 878)","(182, -202)",190,-338,,,,,,,,,,,,,2,1,15,5,,,,,,,,,,,,,,,,,,,,,,,,,,,,,,,,,,,,,,,,974.1609452776611,None,,,977.1772393267602,None,1.591005291005291,0.5983326127752662,977.1772393267602,None,,,,,,,975.1609029397368,None,975.3440957488492,975.3608474419452,,,,,,,76,001,2023_Apr_17_1814,SpeechDraft1Carolyn_lessNoise_PlusLocalization,2021.2.3,60.015642417288625,
,,,,,,,,nearLeft,-6.5,1,ch1Sound_localizationTask.wav,-6.5,"(857, 878)","(-103,-202)",-95,-338,,,,,,,,,,,,,2,2,16,2,,,,,,,,,,,,,,,,,,,,,,,,,,,,,,,,,,,,,,,,977.7774208355695,None,,,980.7940025669523,None,1.4481481481481482,0.8830637200735509,980.7940025669523,None,,,,,,,978.7774153146893,None,978.9608405237086,978.9773535216227,,,,,,,76,001,2023_Apr_17_1814,SpeechDraft1Carolyn_lessNoise_PlusLocalization,2021.2.3,60.015642417288625,
,,,,,,,,midLeft,-13.0,2,ch1Sound_localizationTask.wav,-13.0,"(762, 878)","(-198,-202)",-190,-338,,,,,,,,,,,,,2,3,17,1,,,,,,,,,,,,,,,,,,,,,,,,,,,,,,,,,,,,,,,,981.6777051589452,None,,,984.6938225389458,None,1.3973544973544973,0.9827579227276146,984.6938225389458,None,,,,,,,982.6775371558033,None,982.8607614389621,982.8774566547945,,,,,,,76,001,2023_Apr_17_1814,SpeechDraft1Carolyn_lessNoise_PlusLocalization,2021.2.3,60.015642417288625,
,,,,,,,,center,0.0,6,ch1Sound_localizationTask.wav,0.0,"(952, 878)","(-8,-202)",0,-338,,,,,,,,,,,,,2,4,18,3,,,,,,,,,,,,,,,,,,,,,,,,,,,,,,,,,,,,,,,,985.6779418056831,None,,,988.6939141517505,None,1.5126984126984127,0.6327055520378053,988.6939141517505,None,,,,,,,986.6775540779345,None,986.8608066779561,986.8774773818441,,,,,,,76,001,2023_Apr_17_1814,SpeechDraft1Carolyn_lessNoise_PlusLocalization,2021.2.3,60.015642417288625,
,,,,,,,,nearLeft,-6.5,1,ch1Sound_localizationTask.wav,-6.5,"(857, 878)","(-103,-202)",-95,-338,,,,,,,,,,,,,2,5,19,2,,,,,,,,,,,,,,,,,,,,,,,,,,,,,,,,,,,,,,,,989.3274211846292,None,,,992.3440862325951,None,1.4402116402116403,0.9500340758822858,992.3440862325951,None,,,,,,,990.3274898668751,None,990.5108509645797,990.5274423868395,,,,,,,76,001,2023_Apr_17_1814,SpeechDraft1Carolyn_lessNoise_PlusLocalization,2021.2.3,60.015642417288625,
,,,,,,,,farLeft,-19.1,5,ch1Sound_localizationTask.wav,-19.1,"(667, 878)","(-293,-202)",-285,-338,,,,,,,,,,,,,2,6,20,0,,,,,,,,,,,,,,,,,,,,,,,,,,,,,,,,,,,,,,,,993.2951444187202,None,,,996.310590557754,None,1.3582010582010582,0.8502268306910992,996.310590557754,None,,,,,,,994.2942132116295,None,994.4777178745717,994.4942425768822,,,,,,,76,001,2023_Apr_17_1814,SpeechDraft1Carolyn_lessNoise_PlusLocalization,2021.2.3,60.015642417288625,
,,,,,,,,nearLeft,-6.5,1,ch1Sound_localizationTask.wav,-6.5,"(857, 878)","(-103,-202)",-95,-338,,,,,,,,,,,,,3,0,21,2,,,,,,,,,,,,,,,,,,,,,,,,,,,,,,,,,,,,,,,,997.1774614388123,None,,,1000.1938241287135,None,1.456084656084656,0.7002414180897176,1000.1938241287135,None,,,,,,,998.177489971742,None,998.360813440755,998.3775652907789,,,,,,,76,001,2023_Apr_17_1814,SpeechDraft1Carolyn_lessNoise_PlusLocalization,2021.2.3,60.015642417288625,
,,,,,,,,nearLeft,-6.5,1,ch1Sound_localizationTask.wav,-6.5,"(857, 878)","(-103,-202)",-95,-338,,,,,,,,,,,,,3,1,22,2,,,,,,,,,,,,,,,,,,,,,,,,,,,,,,,,,,,,,,,,1000.9108429569751,None,,,1003.9271561768837,None,1.464021164021164,0.7667337791062891,1003.9271561768837,None,,,,,,,1001.9108071909286,None,1002.0942580406554,1002.1108500929549,,,,,,,76,001,2023_Apr_17_1814,SpeechDraft1Carolyn_lessNoise_PlusLocalization,2021.2.3,60.015642417288625,
,,,,,,,,farLeft,-19.1,5,ch1Sound_localizationTask.wav,-19.1,"(667, 878)","(-293,-202)",-285,-338,,,,,,,,,,,,,3,2,23,0,,,,,,,,,,,,,,,,,,,,,,,,,,,,,,,,,,,,,,,,1004.7108068559319,None,,,1007.7272507487796,None,1.3666666666666667,0.9161509890109301,1007.7272507487796,None,,,,,,,1005.7108797975816,None,1005.8941681119613,1005.9109111377038,,,,,,,76,001,2023_Apr_17_1814,SpeechDraft1Carolyn_lessNoise_PlusLocalization,2021.2.3,60.015642417288625,
,,,,,,,,center,0.0,6,ch1Sound_localizationTask.wav,0.0,"(952, 878)","(-8,-202)",0,-338,,,,,,,,,,,,,3,3,24,3,,,,,,,,,,,,,,,,,,,,,,,,,,,,,,,,,,,,,,,,1008.6446836106479,None,,,1011.6605911669321,None,1.508994708994709,0.6153785027563572,1011.6605911669321,None,,,,,,,1009.6442456915975,None,1009.8275423296727,1009.8441642909311,,,,,,,76,001,2023_Apr_17_1814,SpeechDraft1Carolyn_lessNoise_PlusLocalization,2021.2.3,60.015642417288625,
,,,,,,,,nearRight,6.5,0,ch1Sound_localizationTask.wav,6.5,"(1047, 878)","(87, -202)",95,-338,,,,,,,,,,,,,3,4,25,4,,,,,,,,,,,,,,,,,,,,,,,,,,,,,,,,,,,,,,,,1012.2776043945923,None,,,1015.2938469387591,None,1.529100529100529,0.6978954100050032,1015.2938469387591,None,,,,,,,1013.277534652967,None,1013.4609545916319,1013.4775471636094,,,,,,,76,001,2023_Apr_17_1814,SpeechDraft1Carolyn_lessNoise_PlusLocalization,2021.2.3,60.015642417288625,
,,,,,,,,midLeft,-13.0,2,ch1Sound_localizationTask.wav,-13.0,"(762, 878)","(-198,-202)",-190,-338,,,,,,,,,,,,,3,5,26,1,,,,,,,,,,,,,,,,,,,,,,,,,,,,,,,,,,,,,,,,1015.9941694019362,None,,,1019.0105603858829,None,1.3947089947089948,0.8175043971277773,1019.0105603858829,None,,,,,,,1016.9942544139922,None,1017.1775016756728,1017.1942075979896,,,,,,,76,001,2023_Apr_17_1814,SpeechDraft1Carolyn_lessNoise_PlusLocalization,2021.2.3,60.015642417288625,
,,,,,,,,midRight,13.0,3,ch1Sound_localizationTask.wav,13.0,"(1142, 878)","(182, -202)",190,-338,,,,,,,,,,,,,3,6,27,5,,,,,,,,,,,,,,,,,,,,,,,,,,,,,,,,,,,,,,,,1019.8442029720172,None,,,1022.8605650886893,None,1.5867724867724866,1.0662409528158605,1022.8605650886893,None,,,,,,,1020.8441447839141,None,1021.0275188479573,1021.0443877829239,,,,,,,76,001,2023_Apr_17_1814,SpeechDraft1Carolyn_lessNoise_PlusLocalization,2021.2.3,60.015642417288625,
,,,,,,,,nearRight,6.5,0,ch1Sound_localizationTask.wav,6.5,"(1047, 878)","(87, -202)",95,-338,,,,,,,,,,,,,4,0,28,4,,,,,,,,,,,,,,,,,,,,,,,,,,,,,,,,,,,,,,,,1023.9275437626056,None,,,1026.9439053307287,None,1.5317460317460316,0.8824335443787277,1026.9439053307287,None,,,,,,,1024.9275396247394,None,1025.1108704255894,1025.1275404510088,,,,,,,76,001,2023_Apr_17_1814,SpeechDraft1Carolyn_lessNoise_PlusLocalization,2021.2.3,60.015642417288625,
,,,,,,,,midLeft,-13.0,2,ch1Sound_localizationTask.wav,-13.0,"(762, 878)","(-198,-202)",-190,-338,,,,,,,,,,,,,4,1,29,1,,,,,,,,,,,,,,,,,,,,,,,,,,,,,,,,,,,,,,,,1027.8275125077926,None,,,1030.8438962888904,None,1.4121693121693122,0.7348266090266407,1030.8438962888904,None,,,,,,,1028.8274887888692,None,1029.0109222508036,1029.0274810548872,,,,,,,76,001,2023_Apr_17_1814,SpeechDraft1Carolyn_lessNoise_PlusLocalization,2021.2.3,60.015642417288625,
,,,,,,,,midLeft,-13.0,2,ch1Sound_localizationTask.wav,-13.0,"(762, 878)","(-198,-202)",-190,-338,,,,,,,,,,,,,4,2,30,1,,,,,,,,,,,,,,,,,,,,,,,,,,,,,,,,,,,,,,,,1031.594126288779,None,,,1034.6105800368823,None,1.4957671957671956,3.4497703756205738,1034.6105800368823,None,,,,,,,1032.5941406339407,None,1032.7774941027164,1032.7943397848867,,,,,,,76,001,2023_Apr_17_1814,SpeechDraft1Carolyn_lessNoise_PlusLocalization,2021.2.3,60.015642417288625,
,,,,,,,,center,0.0,6,ch1Sound_localizationTask.wav,0.0,"(952, 878)","(-8,-202)",0,-338,,,,,,,,,,,,,4,3,31,3,,,,,,,,,,,,,,,,,,,,,,,,,,,,,,,,,,,,,,,,1038.0610391856171,None,,,1041.0773460855708,None,1.4957671957671956,1.0986491781659424,1041.0773460855708,None,,,,,,,1039.0609630118124,None,1039.2442389437929,1039.2609493276104,,,,,,,76,001,2023_Apr_17_1814,SpeechDraft1Carolyn_lessNoise_PlusLocalization,2021.2.3,60.015642417288625,
,,,,,,,,center,0.0,6,ch1Sound_localizationTask.wav,0.0,"(952, 878)","(-8,-202)",0,-338,,,,,,,,,,,,,4,4,32,3,,,,,,,,,,,,,,,,,,,,,,,,,,,,,,,,,,,,,,,,1042.1775305080228,None,,,1045.1939229615964,None,1.4962962962962962,0.415995170827955,1045.1939229615964,None,,,,,,,1043.1775353485718,None,1043.3608552226797,1043.3776549790055,,,,,,,76,001,2023_Apr_17_1814,SpeechDraft1Carolyn_lessNoise_PlusLocalization,2021.2.3,60.015642417288625,
,,,,,,,,midLeft,-13.0,2,ch1Sound_localizationTask.wav,-13.0,"(762, 878)","(-198,-202)",-190,-338,,,,,,,,,,,,,4,5,33,1,,,,,,,,,,,,,,,,,,,,,,,,,,,,,,,,,,,,,,,,1045.6108381450176,None,,,1048.627346040681,None,1.4179894179894181,1.5498721711337566,1048.627346040681,None,,,,,,,1046.6109558539465,None,1046.7942286645994,1046.8110296837986,,,,,,,76,001,2023_Apr_17_1814,SpeechDraft1Carolyn_lessNoise_PlusLocalization,2021.2.3,60.015642417288625,
,,,,,,,,nearRight,6.5,0,ch1Sound_localizationTask.wav,6.5,"(1047, 878)","(87, -202)",95,-338,,,,,,,,,,,,,4,6,34,4,,,,,,,,,,,,,,,,,,,,,,,,,,,,,,,,,,,,,,,,1050.1776888859458,None,,,1053.193846076727,None,1.560846560846561,0.6160180671140552,1053.193846076727,None,,,,,,,1051.1775553119369,None,1051.3610378149897,1051.3776157819666,,,,,,,76,001,2023_Apr_17_1814,SpeechDraft1Carolyn_lessNoise_PlusLocalization,2021.2.3,60.015642417288625,
,,,,,,,,farLeft,-19.1,5,ch1Sound_localizationTask.wav,-19.1,"(667, 878)","(-293,-202)",-285,-338,,,,,,,,,,,,,5,0,35,0,,,,,,,,,,,,,,,,,,,,,,,,,,,,,,,,,,,,,,,,1053.810960306786,None,,,1056.8272981178015,None,1.32010582010582,1.2331313602626324,1056.8272981178015,None,,,,,,,1054.8108938336372,None,1054.994201708585,1055.0109250978567,,,,,,,76,001,2023_Apr_17_1814,SpeechDraft1Carolyn_lessNoise_PlusLocalization,2021.2.3,60.015642417288625,
,,,,,,,,farRight,19.1,4,ch1Sound_localizationTask.wav,19.1,"(1237, 878)","(277,-202)",285,-338,,,,,,,,,,,,,5,1,36,6,,,,,,,,,,,,,,,,,,,,,,,,,,,,,,,,,,,,,,,,1058.0777681209147,None,,,1061.0940470928326,None,1.6502645502645503,1.0329585559666157,1061.0940470928326,None,,,,,,,1059.077546662651,None,1059.2608696357347,1059.27772094775,,,,,,,76,001,2023_Apr_17_1814,SpeechDraft1Carolyn_lessNoise_PlusLocalization,2021.2.3,60.015642417288625,
,,,,,,,,midLeft,-13.0,2,ch1Sound_localizationTask.wav,-13.0,"(762, 878)","(-198,-202)",-190,-338,,,,,,,,,,,,,5,2,37,1,,,,,,,,,,,,,,,,,,,,,,,,,,,,,,,,,,,,,,,,1062.1281804288737,None,,,1065.143992476631,None,1.4206349206349207,0.9656746909022331,1065.143992476631,None,,,,,,,1063.1276892386377,None,1063.3110659387894,1063.3277277499437,,,,,,,76,001,2023_Apr_17_1814,SpeechDraft1Carolyn_lessNoise_PlusLocalization,2021.2.3,60.015642417288625,
,,,,,,,,farLeft,-19.1,5,ch1Sound_localizationTask.wav,-19.1,"(667, 878)","(-293,-202)",-285,-338,,,,,,,,,,,,,5,3,38,0,,,,,,,,,,,,,,,,,,,,,,,,,,,,,,,,,,,,,,,,1066.1116394218989,None,,,1069.127315338701,None,1.328042328042328,0.9202009788714349,1069.127315338701,None,,,,,,,1067.1109014037065,None,1067.2942288909107,1067.3108620187268,,,,,,,76,001,2023_Apr_17_1814,SpeechDraft1Carolyn_lessNoise_PlusLocalization,2021.2.3,60.015642417288625,
,,,,,,,,farLeft,-19.1,5,ch1Sound_localizationTask.wav,-19.1,"(667, 878)","(-293,-202)",-285,-338,,,,,,,,,,,,,5,4,39,0,,,,,,,,,,,,,,,,,,,,,,,,,,,,,,,,,,,,,,,,1070.0621485006995,None,,,1073.0939871729352,None,1.3761904761904762,0.7166898311115801,1073.0939871729352,None,,,,,,,1071.077703837771,None,1071.261023843661,1071.27751496993,,,,,,,76,001,2023_Apr_17_1814,SpeechDraft1Carolyn_lessNoise_PlusLocalization,2021.2.3,60.015642417288625,
,,,,,,,,nearRight,6.5,0,ch1Sound_localizationTask.wav,6.5,"(1047, 878)","(87, -202)",95,-338,,,,,,,,,,,,,5,5,40,4,,,,,,,,,,,,,,,,,,,,,,,,,,,,,,,,,,,,,,,,1073.811050622724,None,,,1076.8272788967006,None,1.561904761904762,1.39834755519405,1076.8272788967006,None,,,,,,,1074.8109435057268,None,1074.9942472316325,1075.0111871827394,,,,,,,76,001,2023_Apr_17_1814,SpeechDraft1Carolyn_lessNoise_PlusLocalization,2021.2.3,60.015642417288625,
,,,,,,,,midRight,13.0,3,ch1Sound_localizationTask.wav,13.0,"(1142, 878)","(182, -202)",190,-338,,,,,,,,,,,,,5,6,41,5,,,,,,,,,,,,,,,,,,,,,,,,,,,,,,,,,,,,,,,,1078.227610903792,None,,,1081.2440128140152,None,1.573015873015873,0.6825803280808032,1081.2440128140152,None,,,,,,,1079.2276050066575,None,1079.4109585117549,1079.4276311178692,,,,,,,76,001,2023_Apr_17_1814,SpeechDraft1Carolyn_lessNoise_PlusLocalization,2021.2.3,60.015642417288625,
,,,,,,,,midRight,13.0,3,ch1Sound_localizationTask.wav,13.0,"(1142, 878)","(182, -202)",190,-338,,,,,,,,,,,,,6,0,42,5,,,,,,,,,,,,,,,,,,,,,,,,,,,,,,,,,,,,,,,,1081.927518600598,None,,,1084.9440051927231,None,1.585185185185185,1.0655201119370759,1084.9440051927231,None,,,,,,,1082.9276974936947,None,1083.1110099726357,1083.1276078256778,,,,,,,76,001,2023_Apr_17_1814,SpeechDraft1Carolyn_lessNoise_PlusLocalization,2021.2.3,60.015642417288625,
,,,,,,,,midRight,13.0,3,ch1Sound_localizationTask.wav,13.0,"(1142, 878)","(182, -202)",190,-338,,,,,,,,,,,,,6,1,43,5,,,,,,,,,,,,,,,,,,,,,,,,,,,,,,,,,,,,,,,,1086.0109777757898,None,,,1089.0273233489133,None,1.6026455026455027,0.7331213308498263,1089.0273233489133,None,,,,,,,1087.0109161138535,None,1087.194238006603,1087.2109122467227,,,,,,,76,001,2023_Apr_17_1814,SpeechDraft1Carolyn_lessNoise_PlusLocalization,2021.2.3,60.015642417288625,
,,,,,,,,nearLeft,-6.5,1,ch1Sound_localizationTask.wav,-6.5,"(857, 878)","(-103,-202)",-95,-338,,,,,,,,,,,,,6,2,44,2,,,,,,,,,,,,,,,,,,,,,,,,,,,,,,,,,,,,,,,,1089.7611928628758,None,,,1092.7772718910128,None,1.4714285714285715,1.0491623650304973,1092.7772718910128,None,,,,,,,1090.760921544861,None,1090.944359021727,1090.9609035388567,,,,,,,76,001,2023_Apr_17_1814,SpeechDraft1Carolyn_lessNoise_PlusLocalization,2021.2.3,60.015642417288625,
,,,,,,,,midRight,13.0,3,ch1Sound_localizationTask.wav,13.0,"(1142, 878)","(182, -202)",190,-338,,,,,,,,,,,,,6,3,45,5,,,,,,,,,,,,,,,,,,,,,,,,,,,,,,,,,,,,,,,,1093.8275820487179,None,,,1096.844055376947,None,1.6132275132275131,1.0159330628812313,1096.844055376947,None,,,,,,,1094.8276303377934,None,1095.0111305969767,1095.0277052950114,,,,,,,76,001,2023_Apr_17_1814,SpeechDraft1Carolyn_lessNoise_PlusLocalization,2021.2.3,60.015642417288625,
,,,,,,,,nearLeft,-6.5,1,ch1Sound_localizationTask.wav,-6.5,"(857, 878)","(-103,-202)",-95,-338,,,,,,,,,,,,,6,4,46,2,,,,,,,,,,,,,,,,,,,,,,,,,,,,,,,,,,,,,,,,1097.8612107899971,None,,,1100.8773083169945,None,1.4492063492063492,0.6818827367387712,1100.8773083169945,None,,,,,,,1098.8611044557765,None,1099.0444499687292,1099.0610105218366,,,,,,,76,001,2023_Apr_17_1814,SpeechDraft1Carolyn_lessNoise_PlusLocalization,2021.2.3,60.015642417288625,
,,,,,,,,midRight,13.0,3,ch1Sound_localizationTask.wav,13.0,"(1142, 878)","(182, -202)",190,-338,,,,,,,,,,,,,6,5,47,5,,,,,,,,,,,,,,,,,,,,,,,,,,,,,,,,,,,,,,,,1101.5611983030103,None,,,1104.577337228693,None,1.6169312169312169,0.6323073757812381,1104.577337228693,None,,,,,,,1102.5609228787944,None,1102.7443116707727,1102.7609463939443,,,,,,,76,001,2023_Apr_17_1814,SpeechDraft1Carolyn_lessNoise_PlusLocalization,2021.2.3,60.015642417288625,
,,,,,,,,nearLeft,-6.5,1,ch1Sound_localizationTask.wav,-6.5,"(857, 878)","(-103,-202)",-95,-338,,,,,,,,,,,,,6,6,48,2,,,,,,,,,,,,,,,,,,,,,,,,,,,,,,,,,,,,,,,,1105.2109909499995,None,,,1108.2274017878808,None,1.4566137566137567,0.8491805572994053,1108.2274017878808,None,,,,,,,1106.2109141759574,None,1106.3942753318697,1106.4111800608225,,,,,,,76,001,2023_Apr_17_1814,SpeechDraft1Carolyn_lessNoise_PlusLocalization,2021.2.3,60.015642417288625,
,,,,,,,,farRight,19.1,4,ch1Sound_localizationTask.wav,19.1,"(1237, 878)","(277,-202)",285,-338,,,,,,,,,,,,,7,0,49,6,,,,,,,,,,,,,,,,,,,,,,,,,,,,,,,,,,,,,,,,1109.0778536447324,None,,,1112.0941410725936,None,1.6724867724867725,0.6817126199603081,1112.0941410725936,None,,,,,,,1110.0776418419555,None,1110.2609803415835,1110.2776095350273,,,,,,,76,001,2023_Apr_17_1814,SpeechDraft1Carolyn_lessNoise_PlusLocalization,2021.2.3,60.015642417288625,
,,,,,,,,farRight,19.1,4,ch1Sound_localizationTask.wav,19.1,"(1237, 878)","(277,-202)",285,-338,,,,,,,,,,,,,7,1,50,6,,,,,,,,,,,,,,,,,,,,,,,,,,,,,,,,,,,,,,,,1112.7777003538795,None,,,1115.7940602567978,None,1.6391534391534393,0.6996911657042801,1115.7940602567978,None,,,,,,,1113.7776374486275,None,1113.96100470284,1113.9776825970039,,,,,,,76,001,2023_Apr_17_1814,SpeechDraft1Carolyn_lessNoise_PlusLocalization,2021.2.3,60.015642417288625,
,,,,,,,,nearRight,6.5,0,ch1Sound_localizationTask.wav,6.5,"(1047, 878)","(87, -202)",95,-338,,,,,,,,,,,,,7,2,51,4,,,,,,,,,,,,,,,,,,,,,,,,,,,,,,,,,,,,,,,,1116.4944356777705,None,,,1119.510846898891,None,1.561904761904762,0.7159255552105606,1119.510846898891,None,,,,,,,1117.4943541795947,None,1117.6776387686841,1117.6943609439768,,,,,,,76,001,2023_Apr_17_1814,SpeechDraft1Carolyn_lessNoise_PlusLocalization,2021.2.3,60.015642417288625,
,,,,,,,,midRight,13.0,3,ch1Sound_localizationTask.wav,13.0,"(1142, 878)","(182, -202)",190,-338,,,,,,,,,,,,,7,3,52,5,,,,,,,,,,,,,,,,,,,,,,,,,,,,,,,,,,,,,,,,1120.2283836449496,None,,,1123.2440219027922,None,1.6169312169312169,0.9994660308584571,1123.2440219027922,None,,,,,,,1121.2276171739213,None,1121.4109802809544,1121.4276726599783,,,,,,,76,001,2023_Apr_17_1814,SpeechDraft1Carolyn_lessNoise_PlusLocalization,2021.2.3,60.015642417288625,
,,,,,,,,farLeft,-19.1,5,ch1Sound_localizationTask.wav,-19.1,"(667, 878)","(-293,-202)",-285,-338,,,,,,,,,,,,,7,4,53,0,,,,,,,,,,,,,,,,,,,,,,,,,,,,,,,,,,,,,,,,1124.2443081778474,None,,,1127.2607832439244,None,1.3211640211640212,1.0502798068337142,1127.2607832439244,None,,,,,,,1125.244349064771,None,1125.4276297139004,1125.4443080630153,,,,,,,76,001,2023_Apr_17_1814,SpeechDraft1Carolyn_lessNoise_PlusLocalization,2021.2.3,60.015642417288625,
,,,,,,,,farLeft,-19.1,5,ch1Sound_localizationTask.wav,-19.1,"(667, 878)","(-293,-202)",-285,-338,,,,,,,,,,,,,7,5,54,0,,,,,,,,,,,,,,,,,,,,,,,,,,,,,,,,,,,,,,,,1128.32775224559,None,,,1131.3442342658527,None,1.3624338624338623,0.6815496990457177,1131.3442342658527,None,,,,,,,1129.3276881338097,None,1129.5110734207556,1129.52766987402,,,,,,,76,001,2023_Apr_17_1814,SpeechDraft1Carolyn_lessNoise_PlusLocalization,2021.2.3,60.015642417288625,
,,,,,,,,farRight,19.1,4,ch1Sound_localizationTask.wav,19.1,"(1237, 878)","(277,-202)",285,-338,,,,,,,,,,,,,7,6,55,6,,,,,,,,,,,,,,,,,,,,,,,,,,,,,,,,,,,,,,,,1132.0277487747371,None,,,1135.0439504026435,None,1.674074074074074,0.9324438041076064,1135.0439504026435,None,,,,,,,1133.0276840338483,None,1133.2109514358453,1133.2277052258141,,,,,,,76,001,2023_Apr_17_1814,SpeechDraft1Carolyn_lessNoise_PlusLocalization,2021.2.3,60.015642417288625,
,,,,,,,,,,,,,,,,,,,,,,,,,,,,,,,,,,,,,,,,,,,,,,,,,,,,,,,,,,,,,,,,,,,,,,,,,,,,,,,,,,,,,,,,,,,,1135.9786153119057,None,c,227.57853226736188,1136.9610968809575,None,76,001,2023_Apr_17_1814,SpeechDraft1Carolyn_lessNoise_PlusLocalization,2021.2.3,60.015642417288625,
