Audio_Only_Files,Video_Files,Original_Word_List,noiseLevelCode,conditionCodes,noiseLevelFile1,noiseLevelFile2,InstrTextVar,targetSpeakerName,targetSpeakerEccen,targetSpkrChannel,targetSpkrSound,targetVisualDegrees,visStimLoc,visStimLoc2,visStimW,visStimH,practiceTrials.thisRepN,practiceTrials.thisTrialN,practiceTrials.thisN,practiceTrials.thisIndex,trials.thisRepN,trials.thisTrialN,trials.thisN,trials.thisIndex,audLocalLoop.thisRepN,audLocalLoop.thisTrialN,audLocalLoop.thisN,audLocalLoop.thisIndex,visualLocalLoop.thisRepN,visualLocalLoop.thisTrialN,visualLocalLoop.thisN,visualLocalLoop.thisIndex,letsGoAlready.keys,letsGoAlready.rt,letsGoAlready.started,letsGoAlready.stopped,text_2.started,text_2.stopped,text_3.started,text_3.stopped,key_resp_2.keys,key_resp_2.rt,key_resp_2.started,key_resp_2.stopped,text_5.started,text_5.stopped,fixCross.started,fixCross.stopped,fixCross2.started,fixCross2.stopped,answerPrompt.started,answerPrompt.stopped,getAnswer.text,getAnswer.started,getAnswer.stopped,goToNext.keys,goToNext.rt,goToNext.started,goToNext.stopped,stretchBreakTxrt.started,stretchBreakTxrt.stopped,key_resp_3.keys,key_resp_3.rt,key_resp_3.started,key_resp_3.stopped,letsGoLocal.keys,letsGoLocal.rt,letsGoLocal.started,letsGoLocal.stopped,text_4.started,text_4.stopped,prepFixTxt.started,prepFixTxt.stopped,prepFixTxt_2.started,prepFixTxt_2.stopped,respPromptLocal.started,respPromptLocal.stopped,slider.response,slider.rt,slider.started,slider.stopped,letsGoLocal_2.keys,letsGoLocal_2.rt,letsGoLocal_2.started,letsGoLocal_2.stopped,text_7.started,text_7.stopped,prepFixTxt_3.started,prepFixTxt_3.stopped,grating.started,grating.stopped,exitTxt.started,exitTxt.stopped,key_resp.keys,key_resp.rt,key_resp.started,key_resp.stopped,participant,session,date,expName,psychopyVersion,frameRate,
,,,,,,,,,,,,,,,,,,,,,,,,,,,,,,,,,space,16.341157339978963,14.178219759836793,None,,,,,,,,,,,,,,,,,,,,,,,,,,,,,,,,,,,,,,,,,,,,,,,,,,,,,,,,,,,,,,78,001,2023_Apr_19_1404,SpeechDraft1Carolyn_lessNoise_PlusLocalization,2021.2.3,59.98984307654952,
,,,,,,,,,,,,,,,,,,,,,,,,,,,,,,,,,,,,,14.178219759836793,None,30.644496207125485,None,space,9.971371036954224,30.82813442312181,None,,,,,,,,,,,,,,,,,,,,,,,,,,,,,,,,,,,,,,,,,,,,,,,,,,,,,,78,001,2023_Apr_19_1404,SpeechDraft1Carolyn_lessNoise_PlusLocalization,2021.2.3,59.98984307654952,
ash.wav,ash.mpg,ash,1,A,Pink_Noise_1_1.wav,Pink_Noise_1_2.wav,"This is an example of an

AUDIO trial",,,,,,,,,,0,0,0,0,,,,,,,,,,,,,,,,,,,,,,,,,40.86110232677311,None,41.84473039675504,None,45.178309496026486,None,46.56126282410696,None,ash,46.56126282410696,None,return,2.2746399771422148,46.64475116599351,None,,,,,,,,,,,,,,,,,,,,,,,,,,,,,,,,,,,,,,,78,001,2023_Apr_19_1404,SpeechDraft1Carolyn_lessNoise_PlusLocalization,2021.2.3,59.98984307654952,
ash.wav,ash.mpg,ash,1,AV,Pink_Noise_1_1.wav,Pink_Noise_1_2.wav,"This is an example of an

AUDIO + VIDEO  trial",,,,,,,,,,0,1,1,1,,,,,,,,,,,,,,,,,,,,,,,,,48.96109142107889,None,49.961371689103544,None,51.44450471783057,None,52.82800556207076,None,ash,52.82800556207076,None,return,2.5279812118969858,52.91141482675448,None,,,,,,,,,,,,,,,,,,,,,,,,,,,,,,,,,,,,,,,78,001,2023_Apr_19_1404,SpeechDraft1Carolyn_lessNoise_PlusLocalization,2021.2.3,59.98984307654952,
,,,,,,,,,,,,,,,,,,,,,,,,,,,,,,,,,,,,,,,,,,,,,,,,,,,,,,,,,,,,55.47767291916534,None,space,9.857983078807592,55.661404848098755,None,,,,,,,,,,,,,,,,,,,,,,,,,,,,,,,,,78,001,2023_Apr_19_1404,SpeechDraft1Carolyn_lessNoise_PlusLocalization,2021.2.3,59.98984307654952,
due.wav,due.mpg,due,5,A,Pink_Noise_5_1.wav,Pink_Noise_5_2.wav,,,,,,,,,,,,,,,0,0,0,9,,,,,,,,,,,,,,,,,,,,,,,65.57769083371386,None,67.06125405989587,None,68.44476494984701,None,soup,68.44476494984701,None,return,4.527274318039417,68.52811301173642,None,,,,,,,,,,,,,,,,,,,,,,,,,,,,,,,,,,,,,,,78,001,2023_Apr_19_1404,SpeechDraft1Carolyn_lessNoise_PlusLocalization,2021.2.3,59.98984307654952,
beef.wav,beef.mpg,beef,6,AV,Pink_Noise_6_1.wav,Pink_Noise_6_2.wav,,,,,,,,,,,,,,,0,1,1,85,,,,,,,,,,,,,,,,,,,,,,,73.07801689300686,None,74.57785207079723,None,75.961634458974,None,beef,75.961634458974,None,return,3.826627417933196,76.04475897876546,None,,,,,,,,,,,,,,,,,,,,,,,,,,,,,,,,,,,,,,,78,001,2023_Apr_19_1404,SpeechDraft1Carolyn_lessNoise_PlusLocalization,2021.2.3,59.98984307654952,
curb.wav,curb.mpg,curb,4,AV,Pink_Noise_4_1.wav,Pink_Noise_4_2.wav,,,,,,,,,,,,,,,0,2,2,81,,,,,,,,,,,,,,,,,,,,,,,79.89473045477644,None,81.39454723708332,None,82.77793315984309,None,code,82.77793315984309,None,return,8.641942554153502,82.86145304702222,None,,,,,,,,,,,,,,,,,,,,,,,,,,,,,,,,,,,,,,,78,001,2023_Apr_19_1404,SpeechDraft1Carolyn_lessNoise_PlusLocalization,2021.2.3,59.98984307654952,
thrown.wav,thrown.mpg,thrown,4,A,Pink_Noise_4_1.wav,Pink_Noise_4_2.wav,,,,,,,,,,,,,,,0,3,3,8,,,,,,,,,,,,,,,,,,,,,,,91.52811955381185,None,93.02777910605073,None,94.41150286188349,None,row,94.41150286188349,None,return,6.256754701957107,94.49474556511268,None,,,,,,,,,,,,,,,,,,,,,,,,,,,,,,,,,,,,,,,78,001,2023_Apr_19_1404,SpeechDraft1Carolyn_lessNoise_PlusLocalization,2021.2.3,59.98984307654952,
gym.wav,gym.mpg,gym,3,A,Pink_Noise_3_1.wav,Pink_Noise_3_2.wav,,,,,,,,,,,,,,,0,4,4,51,,,,,,,,,,,,,,,,,,,,,,,100.77810449991375,None,102.27781115006655,None,103.66168748680502,None,gym,103.66168748680502,None,return,3.342626023106277,103.74476044811308,None,,,,,,,,,,,,,,,,,,,,,,,,,,,,,,,,,,,,,,,78,001,2023_Apr_19_1404,SpeechDraft1Carolyn_lessNoise_PlusLocalization,2021.2.3,59.98984307654952,
flop.wav,flop.mpg,flop,2,A,Pink_Noise_2_1.wav,Pink_Noise_2_2.wav,,,,,,,,,,,,,,,0,5,5,3,,,,,,,,,,,,,,,,,,,,,,,107.11145099205896,None,108.61106627015397,None,109.99482811801136,None,flock,109.99482811801136,None,return,5.905460708308965,110.07807394815609,None,,,,,,,,,,,,,,,,,,,,,,,,,,,,,,,,,,,,,,,78,001,2023_Apr_19_1404,SpeechDraft1Carolyn_lessNoise_PlusLocalization,2021.2.3,59.98984307654952,
drag.wav,drag.mpg,drag,1,AV,Pink_Noise_1_1.wav,Pink_Noise_1_2.wav,,,,,,,,,,,,,,,0,6,6,94,,,,,,,,,,,,,,,,,,,,,,,116.01150059793144,None,117.51119655696675,None,118.89483582181856,None,drag,118.89483582181856,None,return,4.333261728286743,118.97815757989883,None,,,,,,,,,,,,,,,,,,,,,,,,,,,,,,,,,,,,,,,78,001,2023_Apr_19_1404,SpeechDraft1Carolyn_lessNoise_PlusLocalization,2021.2.3,59.98984307654952,
slush.wav,slush.mpg,slush,6,A,Pink_Noise_6_1.wav,Pink_Noise_6_2.wav,,,,,,,,,,,,,,,0,7,7,25,,,,,,,,,,,,,,,,,,,,,,,123.32827833807096,None,124.82799803512171,None,126.21151738800108,None,ari,126.21151738800108,None,return,27.208608772139996,126.29480433696881,None,,,,,,,,,,,,,,,,,,,,,,,,,,,,,,,,,,,,,,,78,001,2023_Apr_19_1404,SpeechDraft1Carolyn_lessNoise_PlusLocalization,2021.2.3,59.98984307654952,
dig.wav,dig.mpg,dig,4,AV,Pink_Noise_4_1.wav,Pink_Noise_4_2.wav,,,,,,,,,,,,,,,0,8,8,65,,,,,,,,,,,,,,,,,,,,,,,153.52821766911075,None,155.02800725400448,None,156.4114767438732,None,dig,156.4114767438732,None,return,7.816553456243128,156.49488807283342,None,,,,,,,,,,,,,,,,,,,,,,,,,,,,,,,,,,,,,,,78,001,2023_Apr_19_1404,SpeechDraft1Carolyn_lessNoise_PlusLocalization,2021.2.3,59.98984307654952,
bean.wav,bean.mpg,bean,4,A,Pink_Noise_4_1.wav,Pink_Noise_4_2.wav,,,,,,,,,,,,,,,0,9,9,21,,,,,,,,,,,,,,,,,,,,,,,164.3282228927128,None,165.82783701596782,None,167.2115581287071,None,eat,167.2115581287071,None,return,3.024448913987726,167.2949378681369,None,,,,,,,,,,,,,,,,,,,,,,,,,,,,,,,,,,,,,,,78,001,2023_Apr_19_1404,SpeechDraft1Carolyn_lessNoise_PlusLocalization,2021.2.3,59.98984307654952,
cure.wav,cure.mpg,cure,4,A,Pink_Noise_4_1.wav,Pink_Noise_4_2.wav,,,,,,,,,,,,,,,0,10,10,37,,,,,,,,,,,,,,,,,,,,,,,170.34484446188435,None,171.84453529305756,None,173.22821523202583,None,cure,173.22821523202583,None,return,7.839887237176299,173.31160924211144,None,,,,,,,,,,,,,,,,,,,,,,,,,,,,,,,,,,,,,,,78,001,2023_Apr_19_1404,SpeechDraft1Carolyn_lessNoise_PlusLocalization,2021.2.3,59.98984307654952,
crawl.wav,crawl.mpg,crawl,4,A,Pink_Noise_4_1.wav,Pink_Noise_4_2.wav,,,,,,,,,,,,,,,0,11,11,33,,,,,,,,,,,,,,,,,,,,,,,181.17824586993083,None,182.6778900581412,None,184.06141580687836,None,"fall
",184.06141580687836,None,return,4.5185153698548675,184.14489224506542,None,,,,,,,,,,,,,,,,,,,,,,,,,,,,,,,,,,,,,,,78,001,2023_Apr_19_1404,SpeechDraft1Carolyn_lessNoise_PlusLocalization,2021.2.3,59.98984307654952,
boat.wav,boat.mpg,boat,3,AV,Pink_Noise_3_1.wav,Pink_Noise_3_2.wav,,,,,,,,,,,,,,,0,12,12,61,,,,,,,,,,,,,,,,,,,,,,,188.69497125595808,None,190.19464566372335,None,191.5782805988565,None,boat,191.5782805988565,None,return,3.961797029711306,191.6616172217764,None,,,,,,,,,,,,,,,,,,,,,,,,,,,,,,,,,,,,,,,78,001,2023_Apr_19_1404,SpeechDraft1Carolyn_lessNoise_PlusLocalization,2021.2.3,59.98984307654952,
sock.wav,sock.mpg,sock,2,A,Pink_Noise_2_1.wav,Pink_Noise_2_2.wav,,,,,,,,,,,,,,,0,13,13,17,,,,,,,,,,,,,,,,,,,,,,,195.6448687389493,None,197.1446201298386,None,198.5284081348218,None,"sock
",198.5284081348218,None,return,3.6038344521075487,198.61155552091077,None,,,,,,,,,,,,,,,,,,,,,,,,,,,,,,,,,,,,,,,78,001,2023_Apr_19_1404,SpeechDraft1Carolyn_lessNoise_PlusLocalization,2021.2.3,59.98984307654952,
freak.wav,freak.mpg,freak,5,AV,Pink_Noise_5_1.wav,Pink_Noise_5_2.wav,,,,,,,,,,,,,,,0,14,14,112,,,,,,,,,,,,,,,,,,,,,,,202.244951155968,None,203.72982253786176,None,205.11147755989805,None,feet,205.11147755989805,None,return,3.7644019071012735,205.1949759987183,None,,,,,,,,,,,,,,,,,,,,,,,,,,,,,,,,,,,,,,,78,001,2023_Apr_19_1404,SpeechDraft1Carolyn_lessNoise_PlusLocalization,2021.2.3,59.98984307654952,
clash.wav,clash.mpg,clash,3,A,Pink_Noise_3_1.wav,Pink_Noise_3_2.wav,,,,,,,,,,,,,,,0,15,15,16,,,,,,,,,,,,,,,,,,,,,,,208.9781964449212,None,210.4780567730777,None,211.86173781007528,None,"clash
",211.86173781007528,None,return,4.286318744067103,211.94508020207286,None,,,,,,,,,,,,,,,,,,,,,,,,,,,,,,,,,,,,,,,78,001,2023_Apr_19_1404,SpeechDraft1Carolyn_lessNoise_PlusLocalization,2021.2.3,59.98984307654952,
stove.wav,stove.mpg,stove,4,A,Pink_Noise_4_1.wav,Pink_Noise_4_2.wav,,,,,,,,,,,,,,,0,16,16,10,,,,,,,,,,,,,,,,,,,,,,,216.26165468012914,None,217.76120386179537,None,219.14505692012608,None,stir,219.14505692012608,None,return,13.739308136049658,219.2281935880892,None,,,,,,,,,,,,,,,,,,,,,,,,,,,,,,,,,,,,,,,78,001,2023_Apr_19_1404,SpeechDraft1Carolyn_lessNoise_PlusLocalization,2021.2.3,59.98984307654952,
carve.wav,carve.mpg,carve,6,AV,Pink_Noise_6_1.wav,Pink_Noise_6_2.wav,,,,,,,,,,,,,,,0,17,17,86,,,,,,,,,,,,,,,,,,,,,,,232.99508105078712,None,234.49471902195364,None,235.8783122659661,None,glove,235.8783122659661,None,return,8.589808803983033,235.96163798775524,None,,,,,,,,,,,,,,,,,,,,,,,,,,,,,,,,,,,,,,,78,001,2023_Apr_19_1404,SpeechDraft1Carolyn_lessNoise_PlusLocalization,2021.2.3,59.98984307654952,
tense.wav,tense.mpg,tense,3,AV,Pink_Noise_3_1.wav,Pink_Noise_3_2.wav,,,,,,,,,,,,,,,0,18,18,66,,,,,,,,,,,,,,,,,,,,,,,244.57830973295495,None,246.07803641306236,None,247.46164000872523,None,"tents
",247.46164000872523,None,return,5.118446453940123,247.54495120374486,None,,,,,,,,,,,,,,,,,,,,,,,,,,,,,,,,,,,,,,,78,001,2023_Apr_19_1404,SpeechDraft1Carolyn_lessNoise_PlusLocalization,2021.2.3,59.98984307654952,
coach.wav,coach.mpg,coach,5,AV,Pink_Noise_5_1.wav,Pink_Noise_5_2.wav,,,,,,,,,,,,,,,0,19,19,93,,,,,,,,,,,,,,,,,,,,,,,252.6950858598575,None,254.21137896878645,None,255.59491711994633,None,mosh,255.59491711994633,None,return,16.28105823043734,255.67834973707795,None,,,,,,,,,,,,,,,,,,,,,,,,,,,,,,,,,,,,,,,78,001,2023_Apr_19_1404,SpeechDraft1Carolyn_lessNoise_PlusLocalization,2021.2.3,59.98984307654952,
guard.wav,guard.mpg,guard,5,AV,Pink_Noise_5_1.wav,Pink_Noise_5_2.wav,,,,,,,,,,,,,,,0,20,20,104,,,,,,,,,,,,,,,,,,,,,,,271.97843269305304,None,273.47809037799016,None,274.8615833520889,None,"car
",274.8615833520889,None,return,3.102281456813216,274.9451255640015,None,,,,,,,,,,,,,,,,,,,,,,,,,,,,,,,,,,,,,,,78,001,2023_Apr_19_1404,SpeechDraft1Carolyn_lessNoise_PlusLocalization,2021.2.3,59.98984307654952,
bond.wav,bond.mpg,bond,2,AV,Pink_Noise_2_1.wav,Pink_Noise_2_2.wav,,,,,,,,,,,,,,,0,21,21,84,,,,,,,,,,,,,,,,,,,,,,,278.078350730706,None,279.5780804939568,None,280.9615446650423,None,"bond
",280.9615446650423,None,return,4.1703792959451675,281.04501002514735,None,,,,,,,,,,,,,,,,,,,,,,,,,,,,,,,,,,,,,,,78,001,2023_Apr_19_1404,SpeechDraft1Carolyn_lessNoise_PlusLocalization,2021.2.3,59.98984307654952,
damn.wav,damn.mpg,damn,1,A,Pink_Noise_1_1.wav,Pink_Noise_1_2.wav,,,,,,,,,,,,,,,0,22,22,36,,,,,,,,,,,,,,,,,,,,,,,285.24503009114414,None,286.746569708921,None,288.1285836957395,None,dam,288.1285836957395,None,return,2.5877149933949113,288.2116824230179,None,,,,,,,,,,,,,,,,,,,,,,,,,,,,,,,,,,,,,,,78,001,2023_Apr_19_1404,SpeechDraft1Carolyn_lessNoise_PlusLocalization,2021.2.3,59.98984307654952,
dine.wav,dine.mpg,dine,2,AV,Pink_Noise_2_1.wav,Pink_Noise_2_2.wav,,,,,,,,,,,,,,,0,23,23,106,,,,,,,,,,,,,,,,,,,,,,,290.82836928498,None,292.32819243101403,None,293.7116792788729,None,"dying
",293.7116792788729,None,return,3.684188417159021,293.79523228574544,None,,,,,,,,,,,,,,,,,,,,,,,,,,,,,,,,,,,,,,,78,001,2023_Apr_19_1404,SpeechDraft1Carolyn_lessNoise_PlusLocalization,2021.2.3,59.98984307654952,
dull.wav,dull.mpg,dull,3,AV,Pink_Noise_3_1.wav,Pink_Noise_3_2.wav,,,,,,,,,,,,,,,0,24,24,77,,,,,,,,,,,,,,,,,,,,,,,297.5118514569476,None,299.0114221670665,None,300.39498371398076,None,doll,300.39498371398076,None,return,4.313075814861804,300.4784641619772,None,,,,,,,,,,,,,,,,,,,,,,,,,,,,,,,,,,,,,,,78,001,2023_Apr_19_1404,SpeechDraft1Carolyn_lessNoise_PlusLocalization,2021.2.3,59.98984307654952,
dance.wav,dance.mpg,dance,6,A,Pink_Noise_6_1.wav,Pink_Noise_6_2.wav,,,,,,,,,,,,,,,0,25,25,11,,,,,,,,,,,,,,,,,,,,,,,304.8117402018979,None,306.3113155839965,None,307.69508183375,None,skirts,307.69508183375,None,return,6.044999919831753,307.7783807287924,None,,,,,,,,,,,,,,,,,,,,,,,,,,,,,,,,,,,,,,,78,001,2023_Apr_19_1404,SpeechDraft1Carolyn_lessNoise_PlusLocalization,2021.2.3,59.98984307654952,
bribe.wav,bribe.mpg,bribe,6,A,Pink_Noise_6_1.wav,Pink_Noise_6_2.wav,,,,,,,,,,,,,,,0,26,26,55,,,,,,,,,,,,,,,,,,,,,,,313.845253971871,None,315.3448393698782,None,316.72840105416253,None,"drive
",316.72840105416253,None,return,2.8836272130720317,316.8117718300782,None,,,,,,,,,,,,,,,,,,,,,,,,,,,,,,,,,,,,,,,78,001,2023_Apr_19_1404,SpeechDraft1Carolyn_lessNoise_PlusLocalization,2021.2.3,59.98984307654952,
crisp.wav,crisp.mpg,crisp,4,A,Pink_Noise_4_1.wav,Pink_Noise_4_2.wav,,,,,,,,,,,,,,,0,27,27,18,,,,,,,,,,,,,,,,,,,,,,,319.728389125783,None,321.22815218474716,None,322.6117382980883,None,crisp,322.6117382980883,None,return,3.312306263949722,322.6951432689093,None,,,,,,,,,,,,,,,,,,,,,,,,,,,,,,,,,,,,,,,78,001,2023_Apr_19_1404,SpeechDraft1Carolyn_lessNoise_PlusLocalization,2021.2.3,59.98984307654952,
flip.wav,flip.mpg,flip,6,A,Pink_Noise_6_1.wav,Pink_Noise_6_2.wav,,,,,,,,,,,,,,,0,28,28,56,,,,,,,,,,,,,,,,,,,,,,,326.0284854420461,None,327.52808234794065,None,328.91188658075407,None,stretch,328.91188658075407,None,return,2.980416847858578,328.9950780267827,None,,,,,,,,,,,,,,,,,,,,,,,,,,,,,,,,,,,,,,,78,001,2023_Apr_19_1404,SpeechDraft1Carolyn_lessNoise_PlusLocalization,2021.2.3,59.98984307654952,
bend.wav,bend.mpg,bend,2,AV,Pink_Noise_2_1.wav,Pink_Noise_2_2.wav,,,,,,,,,,,,,,,0,29,29,97,,,,,,,,,,,,,,,,,,,,,,,331.99514871975407,None,333.49485726282,None,334.87831745808944,None,bend,334.87831745808944,None,return,6.573775627184659,334.9617127068341,None,,,,,,,,,,,,,,,,,,,,,,,,,,,,,,,,,,,,,,,78,001,2023_Apr_19_1404,SpeechDraft1Carolyn_lessNoise_PlusLocalization,2021.2.3,59.98984307654952,
thief.wav,thief.mpg,thief,3,A,Pink_Noise_3_1.wav,Pink_Noise_3_2.wav,,,,,,,,,,,,,,,0,30,30,53,,,,,,,,,,,,,,,,,,,,,,,341.56183981895447,None,343.0615570410155,None,344.44510495616123,None,"fake
",344.44510495616123,None,return,12.30293601192534,344.52846565283835,None,,,,,,,,,,,,,,,,,,,,,,,,,,,,,,,,,,,,,,,78,001,2023_Apr_19_1404,SpeechDraft1Carolyn_lessNoise_PlusLocalization,2021.2.3,59.98984307654952,
broom.wav,broom.mpg,broom,4,AV,Pink_Noise_4_1.wav,Pink_Noise_4_2.wav,,,,,,,,,,,,,,,0,31,31,91,,,,,,,,,,,,,,,,,,,,,,,356.8619069890119,None,358.3614254631102,None,359.7451558778994,None,broom,359.7451558778994,None,return,4.41083646286279,359.8285901877098,None,,,,,,,,,,,,,,,,,,,,,,,,,,,,,,,,,,,,,,,78,001,2023_Apr_19_1404,SpeechDraft1Carolyn_lessNoise_PlusLocalization,2021.2.3,59.98984307654952,
burn.wav,burn.mpg,burn,2,A,Pink_Noise_2_1.wav,Pink_Noise_2_2.wav,,,,,,,,,,,,,,,0,32,32,47,,,,,,,,,,,,,,,,,,,,,,,364.26179616712034,None,365.76165658794343,None,367.1450156867504,None,burn,367.1450156867504,None,return,3.226851155050099,367.2285316409543,None,,,,,,,,,,,,,,,,,,,,,,,,,,,,,,,,,,,,,,,78,001,2023_Apr_19_1404,SpeechDraft1Carolyn_lessNoise_PlusLocalization,2021.2.3,59.98984307654952,
bird.wav,bird.mpg,bird,2,AV,Pink_Noise_2_1.wav,Pink_Noise_2_2.wav,,,,,,,,,,,,,,,0,33,33,110,,,,,,,,,,,,,,,,,,,,,,,370.4784585861489,None,371.9781913170591,None,373.3617314887233,None,bird,373.3617314887233,None,return,6.626010510139167,373.44537518778816,None,,,,,,,,,,,,,,,,,,,,,,,,,,,,,,,,,,,,,,,78,001,2023_Apr_19_1404,SpeechDraft1Carolyn_lessNoise_PlusLocalization,2021.2.3,59.98984307654952,
coy.wav,coy.mpg,coy,3,AV,Pink_Noise_3_1.wav,Pink_Noise_3_2.wav,,,,,,,,,,,,,,,0,34,34,105,,,,,,,,,,,,,,,,,,,,,,,380.0951442187652,None,381.5950696570799,None,382.9784873519093,None,"koi
",382.9784873519093,None,return,5.185621501877904,383.0617712987587,None,,,,,,,,,,,,,,,,,,,,,,,,,,,,,,,,,,,,,,,78,001,2023_Apr_19_1404,SpeechDraft1Carolyn_lessNoise_PlusLocalization,2021.2.3,59.98984307654952,
friend.wav,friend.mpg,friend,5,AV,Pink_Noise_5_1.wav,Pink_Noise_5_2.wav,,,,,,,,,,,,,,,0,35,35,80,,,,,,,,,,,,,,,,,,,,,,,388.2784842811525,None,389.7781974337995,None,391.16178377904,None,"friend
",391.16178377904,None,return,6.850171430036426,391.2452268078923,None,,,,,,,,,,,,,,,,,,,,,,,,,,,,,,,,,,,,,,,78,001,2023_Apr_19_1404,SpeechDraft1Carolyn_lessNoise_PlusLocalization,2021.2.3,59.98984307654952,
pipe.wav,pipe.mpg,pipe,6,A,Pink_Noise_6_1.wav,Pink_Noise_6_2.wav,,,,,,,,,,,,,,,0,36,36,26,,,,,,,,,,,,,,,,,,,,,,,398.12864078208804,None,399.6281660888344,None,401.01173484977335,None,take,401.01173484977335,None,return,8.216369796078652,401.09512084303424,None,,,,,,,,,,,,,,,,,,,,,,,,,,,,,,,,,,,,,,,78,001,2023_Apr_19_1404,SpeechDraft1Carolyn_lessNoise_PlusLocalization,2021.2.3,59.98984307654952,
cone.wav,cone.mpg,cone,3,AV,Pink_Noise_3_1.wav,Pink_Noise_3_2.wav,,,,,,,,,,,,,,,0,37,37,70,,,,,,,,,,,,,,,,,,,,,,,409.3286760007031,None,410.8284399197437,None,412.21184487687424,None,"tone
",412.21184487687424,None,return,4.600204948801547,412.2952040601522,None,,,,,,,,,,,,,,,,,,,,,,,,,,,,,,,,,,,,,,,78,001,2023_Apr_19_1404,SpeechDraft1Carolyn_lessNoise_PlusLocalization,2021.2.3,59.98984307654952,
awe.wav,awe.mpg,awe,6,AV,Pink_Noise_6_1.wav,Pink_Noise_6_2.wav,,,,,,,,,,,,,,,0,38,38,109,,,,,,,,,,,,,,,,,,,,,,,416.92859367094934,None,418.44500275701284,None,419.8285400378518,None,"awe
",419.8285400378518,None,return,4.919504463672638,419.91189622087404,None,,,,,,,,,,,,,,,,,,,,,,,,,,,,,,,,,,,,,,,78,001,2023_Apr_19_1404,SpeechDraft1Carolyn_lessNoise_PlusLocalization,2021.2.3,59.98984307654952,
duke.wav,duke.mpg,duke,5,AV,Pink_Noise_5_1.wav,Pink_Noise_5_2.wav,,,,,,,,,,,,,,,0,39,39,68,,,,,,,,,,,,,,,,,,,,,,,424.8619304220192,None,426.361639034003,None,427.7450945978053,None,shoes,427.7450945978053,None,return,4.658726616296917,427.8286578231491,None,,,,,,,,,,,,,,,,,,,,,,,,,,,,,,,,,,,,,,,78,001,2023_Apr_19_1404,SpeechDraft1Carolyn_lessNoise_PlusLocalization,2021.2.3,59.98984307654952,
flow.wav,flow.mpg,flow,1,A,Pink_Noise_1_1.wav,Pink_Noise_1_2.wav,,,,,,,,,,,,,,,0,40,40,15,,,,,,,,,,,,,,,,,,,,,,,432.51187775470316,None,434.0116621288471,None,435.39530541794375,None,slow,435.39530541794375,None,return,4.32079410739243,435.47860733093694,None,,,,,,,,,,,,,,,,,,,,,,,,,,,,,,,,,,,,,,,78,001,2023_Apr_19_1404,SpeechDraft1Carolyn_lessNoise_PlusLocalization,2021.2.3,59.98984307654952,
bottle.wav,bottle.mpg,bottle,2,A,Pink_Noise_2_1.wav,Pink_Noise_2_2.wav,,,,,,,,,,,,,,,0,41,41,6,,,,,,,,,,,,,,,,,,,,,,,439.8286824207753,None,441.32844140799716,None,442.7119381967932,None,bottle,442.7119381967932,None,return,7.412130410782993,442.7952825538814,None,,,,,,,,,,,,,,,,,,,,,,,,,,,,,,,,,,,,,,,78,001,2023_Apr_19_1404,SpeechDraft1Carolyn_lessNoise_PlusLocalization,2021.2.3,59.98984307654952,
brag.wav,brag.mpg,brag,4,A,Pink_Noise_4_1.wav,Pink_Noise_4_2.wav,,,,,,,,,,,,,,,0,42,42,52,,,,,,,,,,,,,,,,,,,,,,,450.2287692660466,None,451.728307638783,None,453.11202366510406,None,brag,453.11202366510406,None,return,11.620156394783407,453.1952599021606,None,,,,,,,,,,,,,,,,,,,,,,,,,,,,,,,,,,,,,,,78,001,2023_Apr_19_1404,SpeechDraft1Carolyn_lessNoise_PlusLocalization,2021.2.3,59.98984307654952,
snake.wav,snake.mpg,snake,4,AV,Pink_Noise_4_1.wav,Pink_Noise_4_2.wav,,,,,,,,,,,,,,,0,43,43,60,,,,,,,,,,,,,,,,,,,,,,,464.8452794607729,None,466.3449899959378,None,467.72843190003186,None,snake,467.72843190003186,None,return,5.507409609854221,467.81207104213536,None,,,,,,,,,,,,,,,,,,,,,,,,,,,,,,,,,,,,,,,78,001,2023_Apr_19_1404,SpeechDraft1Carolyn_lessNoise_PlusLocalization,2021.2.3,59.98984307654952,
cook.wav,cook.mpg,cook,5,A,Pink_Noise_5_1.wav,Pink_Noise_5_2.wav,,,,,,,,,,,,,,,0,44,44,35,,,,,,,,,,,,,,,,,,,,,,,473.3452718439512,None,474.8449842687696,None,476.22873129416257,None,"soup
",476.22873129416257,None,return,4.583460724912584,476.31193028297275,None,,,,,,,,,,,,,,,,,,,,,,,,,,,,,,,,,,,,,,,78,001,2023_Apr_19_1404,SpeechDraft1Carolyn_lessNoise_PlusLocalization,2021.2.3,59.98984307654952,
grab.wav,grab.mpg,grab,5,A,Pink_Noise_5_1.wav,Pink_Noise_5_2.wav,,,,,,,,,,,,,,,0,45,45,0,,,,,,,,,,,,,,,,,,,,,,,480.9286643881351,None,482.4286821531132,None,483.8119746837765,None,drill,483.8119746837765,None,return,4.2242297581397,483.8952630991116,None,,,,,,,,,,,,,,,,,,,,,,,,,,,,,,,,,,,,,,,78,001,2023_Apr_19_1404,SpeechDraft1Carolyn_lessNoise_PlusLocalization,2021.2.3,59.98984307654952,
bathe.wav,bathe.mpg,bathe,3,A,Pink_Noise_3_1.wav,Pink_Noise_3_2.wav,,,,,,,,,,,,,,,0,46,46,2,,,,,,,,,,,,,,,,,,,,,,,488.1454179319553,None,489.64499099878594,None,491.02866713888943,None,"face
",491.02866713888943,None,return,3.5194254727102816,491.1119731790386,None,,,,,,,,,,,,,,,,,,,,,,,,,,,,,,,,,,,,,,,78,001,2023_Apr_19_1404,SpeechDraft1Carolyn_lessNoise_PlusLocalization,2021.2.3,59.98984307654952,
gown.wav,gown.mpg,gown,3,A,Pink_Noise_3_1.wav,Pink_Noise_3_2.wav,,,,,,,,,,,,,,,0,47,47,43,,,,,,,,,,,,,,,,,,,,,,,494.6620651469566,None,496.16164310183376,None,497.54536790400743,None,gown,497.54536790400743,None,return,5.970727539155632,497.6286724228412,None,,,,,,,,,,,,,,,,,,,,,,,,,,,,,,,,,,,,,,,78,001,2023_Apr_19_1404,SpeechDraft1Carolyn_lessNoise_PlusLocalization,2021.2.3,59.98984307654952,
flirt.wav,flirt.mpg,flirt,5,A,Pink_Noise_5_1.wav,Pink_Noise_5_2.wav,,,,,,,,,,,,,,,0,48,48,39,,,,,,,,,,,,,,,,,,,,,,,503.6286951880902,None,505.1283716401085,None,506.5120175341144,None,"skate
",506.5120175341144,None,return,5.668075595982373,506.59531258093193,None,,,,,,,,,,,,,,,,,,,,,,,,,,,,,,,,,,,,,,,78,001,2023_Apr_19_1404,SpeechDraft1Carolyn_lessNoise_PlusLocalization,2021.2.3,59.98984307654952,
foam.wav,foam.mpg,foam,5,AV,Pink_Noise_5_1.wav,Pink_Noise_5_2.wav,,,,,,,,,,,,,,,0,49,49,67,,,,,,,,,,,,,,,,,,,,,,,512.2953999117017,None,513.7951982971281,None,515.1786622367799,None,foam,515.1786622367799,None,return,4.825363951269537,515.262022789102,None,,,,,,,,,,,,,,,,,,,,,,,,,,,,,,,,,,,,,,,78,001,2023_Apr_19_1404,SpeechDraft1Carolyn_lessNoise_PlusLocalization,2021.2.3,59.98984307654952,
gush.wav,gush.mpg,gush,2,AV,Pink_Noise_2_1.wav,Pink_Noise_2_2.wav,,,,,,,,,,,,,,,0,50,50,107,,,,,,,,,,,,,,,,,,,,,,,520.1120257750154,None,521.6284016929567,None,523.0121598569676,None,"gush
",523.0121598569676,None,return,5.136012743692845,523.0953746698797,None,,,,,,,,,,,,,,,,,,,,,,,,,,,,,,,,,,,,,,,78,001,2023_Apr_19_1404,SpeechDraft1Carolyn_lessNoise_PlusLocalization,2021.2.3,59.98984307654952,
chart.wav,chart.mpg,chart,4,AV,Pink_Noise_4_1.wav,Pink_Noise_4_2.wav,,,,,,,,,,,,,,,0,51,51,111,,,,,,,,,,,,,,,,,,,,,,,528.2620170800947,None,529.7784008518793,None,531.1620258139446,None,chart,531.1620258139446,None,return,5.290067947935313,531.2454833639786,None,,,,,,,,,,,,,,,,,,,,,,,,,,,,,,,,,,,,,,,78,001,2023_Apr_19_1404,SpeechDraft1Carolyn_lessNoise_PlusLocalization,2021.2.3,59.98984307654952,
mars.wav,mars.mpg,mars,1,A,Pink_Noise_1_1.wav,Pink_Noise_1_2.wav,,,,,,,,,,,,,,,0,52,52,13,,,,,,,,,,,,,,,,,,,,,,,536.5620577801019,None,538.0783715727739,None,539.4620398017578,None,mars,539.4620398017578,None,return,3.397971227299422,539.5454272548668,None,,,,,,,,,,,,,,,,,,,,,,,,,,,,,,,,,,,,,,,78,001,2023_Apr_19_1404,SpeechDraft1Carolyn_lessNoise_PlusLocalization,2021.2.3,59.98984307654952,
greek.wav,greek.mpg,greek,3,A,Pink_Noise_3_1.wav,Pink_Noise_3_2.wav,,,,,,,,,,,,,,,0,53,53,38,,,,,,,,,,,,,,,,,,,,,,,542.9622158440761,None,544.4786336608231,None,545.862135223113,None,greek,545.862135223113,None,return,4.40586317377165,545.945627505891,None,,,,,,,,,,,,,,,,,,,,,,,,,,,,,,,,,,,,,,,78,001,2023_Apr_19_1404,SpeechDraft1Carolyn_lessNoise_PlusLocalization,2021.2.3,59.98984307654952,
calm.wav,calm.mpg,calm,3,AV,Pink_Noise_3_1.wav,Pink_Noise_3_2.wav,,,,,,,,,,,,,,,0,54,54,98,,,,,,,,,,,,,,,,,,,,,,,550.3785445448011,None,551.895089095924,None,553.2787209977396,None,calm,553.2787209977396,None,return,4.229284334927797,553.3621402289718,None,,,,,,,,,,,,,,,,,,,,,,,,,,,,,,,,,,,,,,,78,001,2023_Apr_19_1404,SpeechDraft1Carolyn_lessNoise_PlusLocalization,2021.2.3,59.98984307654952,
drop.wav,drop.mpg,drop,6,A,Pink_Noise_6_1.wav,Pink_Noise_6_2.wav,,,,,,,,,,,,,,,0,55,55,49,,,,,,,,,,,,,,,,,,,,,,,557.6120566129684,None,559.1285006348044,None,560.5121711357497,None,strut,560.5121711357497,None,return,5.043908559717238,560.5955116520636,None,,,,,,,,,,,,,,,,,,,,,,,,,,,,,,,,,,,,,,,78,001,2023_Apr_19_1404,SpeechDraft1Carolyn_lessNoise_PlusLocalization,2021.2.3,59.98984307654952,
grasp.wav,grasp.mpg,grasp,2,AV,Pink_Noise_2_1.wav,Pink_Noise_2_2.wav,,,,,,,,,,,,,,,0,56,56,76,,,,,,,,,,,,,,,,,,,,,,,565.6622180938721,None,567.1784748109058,None,568.5621276991442,None,grasp,568.5621276991442,None,return,5.049963843077421,568.6454444709234,None,,,,,,,,,,,,,,,,,,,,,,,,,,,,,,,,,,,,,,,78,001,2023_Apr_19_1404,SpeechDraft1Carolyn_lessNoise_PlusLocalization,2021.2.3,59.98984307654952,
goal.wav,goal.mpg,goal,5,AV,Pink_Noise_5_1.wav,Pink_Noise_5_2.wav,,,,,,,,,,,,,,,0,57,57,115,,,,,,,,,,,,,,,,,,,,,,,573.7121548508294,None,575.2118957610801,None,576.5954315597191,None,"goul
",576.5954315597191,None,return,4.552553461398929,576.6788358967751,None,,,,,,,,,,,,,,,,,,,,,,,,,,,,,,,,,,,,,,,78,001,2023_Apr_19_1404,SpeechDraft1Carolyn_lessNoise_PlusLocalization,2021.2.3,59.98984307654952,
bump.wav,bump.mpg,bump,6,A,Pink_Noise_6_1.wav,Pink_Noise_6_2.wav,,,,,,,,,,,,,,,0,58,58,12,,,,,,,,,,,,,,,,,,,,,,,581.2621844867244,None,582.7628911267966,None,584.1455193171278,None,march,584.1455193171278,None,return,4.058465017937124,584.2289780131541,None,,,,,,,,,,,,,,,,,,,,,,,,,,,,,,,,,,,,,,,78,001,2023_Apr_19_1404,SpeechDraft1Carolyn_lessNoise_PlusLocalization,2021.2.3,59.98984307654952,
coal.wav,coal.mpg,coal,3,A,Pink_Noise_3_1.wav,Pink_Noise_3_2.wav,,,,,,,,,,,,,,,0,59,59,54,,,,,,,,,,,,,,,,,,,,,,,588.3121173810214,None,589.8123714467511,None,591.1955663529225,None,coral,591.1955663529225,None,return,4.232661824207753,591.2788276821375,None,,,,,,,,,,,,,,,,,,,,,,,,,,,,,,,,,,,,,,,78,001,2023_Apr_19_1404,SpeechDraft1Carolyn_lessNoise_PlusLocalization,2021.2.3,59.98984307654952,
bruise.wav,bruise.mpg,bruise,1,AV,Pink_Noise_1_1.wav,Pink_Noise_1_2.wav,,,,,,,,,,,,,,,0,60,60,71,,,,,,,,,,,,,,,,,,,,,,,595.5287947929464,None,597.02975134179,None,598.4120615120046,None,bruise,598.4120615120046,None,return,4.8799780132249,598.4954921267927,None,,,,,,,,,,,,,,,,,,,,,,,,,,,,,,,,,,,,,,,78,001,2023_Apr_19_1404,SpeechDraft1Carolyn_lessNoise_PlusLocalization,2021.2.3,59.98984307654952,
fool.wav,fool.mpg,fool,5,A,Pink_Noise_5_1.wav,Pink_Noise_5_2.wav,,,,,,,,,,,,,,,0,61,61,1,,,,,,,,,,,,,,,,,,,,,,,603.3954502437264,None,604.9118798198178,None,606.2955646240152,None,short,606.2955646240152,None,return,6.172577158082277,606.3788899127394,None,,,,,,,,,,,,,,,,,,,,,,,,,,,,,,,,,,,,,,,78,001,2023_Apr_19_1404,SpeechDraft1Carolyn_lessNoise_PlusLocalization,2021.2.3,59.98984307654952,
feast.wav,feast.mpg,feast,5,A,Pink_Noise_5_1.wav,Pink_Noise_5_2.wav,,,,,,,,,,,,,,,0,62,62,23,,,,,,,,,,,,,,,,,,,,,,,612.5788359018043,None,614.0951737239957,None,615.4788973261602,None,soup,615.4788973261602,None,return,2.589150610845536,615.5622388129123,None,,,,,,,,,,,,,,,,,,,,,,,,,,,,,,,,,,,,,,,78,001,2023_Apr_19_1404,SpeechDraft1Carolyn_lessNoise_PlusLocalization,2021.2.3,59.98984307654952,
brown.wav,brown.mpg,brown,3,AV,Pink_Noise_3_1.wav,Pink_Noise_3_2.wav,,,,,,,,,,,,,,,0,63,63,88,,,,,,,,,,,,,,,,,,,,,,,618.1789325159043,None,619.6808524667285,None,621.0620998148806,None,"round
",621.0620998148806,None,return,4.117844021879137,621.1455372781493,None,,,,,,,,,,,,,,,,,,,,,,,,,,,,,,,,,,,,,,,78,001,2023_Apr_19_1404,SpeechDraft1Carolyn_lessNoise_PlusLocalization,2021.2.3,59.98984307654952,
clerk.wav,clerk.mpg,clerk,6,AV,Pink_Noise_6_1.wav,Pink_Noise_6_2.wav,,,,,,,,,,,,,,,0,64,64,96,,,,,,,,,,,,,,,,,,,,,,,625.2955319080502,None,626.8119441308081,None,628.195510501042,None,"cook
",628.195510501042,None,return,3.336516118142754,628.2788731670007,None,,,,,,,,,,,,,,,,,,,,,,,,,,,,,,,,,,,,,,,78,001,2023_Apr_19_1404,SpeechDraft1Carolyn_lessNoise_PlusLocalization,2021.2.3,59.98984307654952,
chase.wav,chase.mpg,chase,2,A,Pink_Noise_2_1.wav,Pink_Noise_2_2.wav,,,,,,,,,,,,,,,0,65,65,14,,,,,,,,,,,,,,,,,,,,,,,631.6455265381373,None,633.1619541500695,None,634.5456191170961,None,chase,634.5456191170961,None,return,2.698550732806325,634.6288927220739,None,,,,,,,,,,,,,,,,,,,,,,,,,,,,,,,,,,,,,,,78,001,2023_Apr_19_1404,SpeechDraft1Carolyn_lessNoise_PlusLocalization,2021.2.3,59.98984307654952,
funk.wav,funk.mpg,funk,2,AV,Pink_Noise_2_1.wav,Pink_Noise_2_2.wav,,,,,,,,,,,,,,,0,66,66,79,,,,,,,,,,,,,,,,,,,,,,,637.3454928700812,None,638.8620908167213,None,640.2454848429188,None,funk,640.2454848429188,None,return,4.79850079677999,640.3289763508365,None,,,,,,,,,,,,,,,,,,,,,,,,,,,,,,,,,,,,,,,78,001,2023_Apr_19_1404,SpeechDraft1Carolyn_lessNoise_PlusLocalization,2021.2.3,59.98984307654952,
clot.wav,clot.mpg,clot,6,AV,Pink_Noise_6_1.wav,Pink_Noise_6_2.wav,,,,,,,,,,,,,,,0,67,67,90,,,,,,,,,,,,,,,,,,,,,,,645.1456138817593,None,646.6619284478948,None,648.0454361420125,None,glass,648.0454361420125,None,return,4.894522959832102,648.1289021088742,None,,,,,,,,,,,,,,,,,,,,,,,,,,,,,,,,,,,,,,,78,001,2023_Apr_19_1404,SpeechDraft1Carolyn_lessNoise_PlusLocalization,2021.2.3,59.98984307654952,
eve.wav,eve.mpg,eve,1,A,Pink_Noise_1_1.wav,Pink_Noise_1_2.wav,,,,,,,,,,,,,,,0,68,68,19,,,,,,,,,,,,,,,,,,,,,,,653.0456110988744,None,654.5619801688008,None,655.9457072457299,None,eve,655.9457072457299,None,return,2.546407660935074,656.0290400581434,None,,,,,,,,,,,,,,,,,,,,,,,,,,,,,,,,,,,,,,,78,001,2023_Apr_19_1404,SpeechDraft1Carolyn_lessNoise_PlusLocalization,2021.2.3,59.98984307654952,
clad.wav,clad.mpg,clad,2,A,Pink_Noise_2_1.wav,Pink_Noise_2_2.wav,,,,,,,,,,,,,,,0,69,69,27,,,,,,,,,,,,,,,,,,,,,,,658.595558534842,None,660.1120516778901,None,661.4956140210852,None,glad,661.4956140210852,None,return,5.612510014791042,661.5789118618704,None,,,,,,,,,,,,,,,,,,,,,,,,,,,,,,,,,,,,,,,78,001,2023_Apr_19_1404,SpeechDraft1Carolyn_lessNoise_PlusLocalization,2021.2.3,59.98984307654952,
strive.wav,strive.mpg,strive,1,A,Pink_Noise_1_1.wav,Pink_Noise_1_2.wav,,,,,,,,,,,,,,,0,70,70,4,,,,,,,,,,,,,,,,,,,,,,,667.2122505321167,None,668.7285486571491,None,670.1122402427718,None,"strive
",670.1122402427718,None,return,3.6359277199953794,670.1954798060469,None,,,,,,,,,,,,,,,,,,,,,,,,,,,,,,,,,,,,,,,78,001,2023_Apr_19_1404,SpeechDraft1Carolyn_lessNoise_PlusLocalization,2021.2.3,59.98984307654952,
bridge.wav,bridge.mpg,bridge,2,A,Pink_Noise_2_1.wav,Pink_Noise_2_2.wav,,,,,,,,,,,,,,,0,71,71,28,,,,,,,,,,,,,,,,,,,,,,,673.8622378017753,None,675.3620669688098,None,676.745758830104,None,"bridge
",676.745758830104,None,return,4.402299572248012,676.8291069087572,None,,,,,,,,,,,,,,,,,,,,,,,,,,,,,,,,,,,,,,,78,001,2023_Apr_19_1404,SpeechDraft1Carolyn_lessNoise_PlusLocalization,2021.2.3,59.98984307654952,
drive.wav,drive.mpg,drive,2,A,Pink_Noise_2_1.wav,Pink_Noise_2_2.wav,,,,,,,,,,,,,,,0,72,72,40,,,,,,,,,,,,,,,,,,,,,,,681.2622128417715,None,682.761938769836,None,684.1456399019808,None,"drive
",684.1456399019808,None,return,2.8343889922834933,684.229010022711,None,,,,,,,,,,,,,,,,,,,,,,,,,,,,,,,,,,,,,,,78,001,2023_Apr_19_1404,SpeechDraft1Carolyn_lessNoise_PlusLocalization,2021.2.3,59.98984307654952,
guest.wav,guest.mpg,guest,1,AV,Pink_Noise_1_1.wav,Pink_Noise_1_2.wav,,,,,,,,,,,,,,,0,73,73,64,,,,,,,,,,,,,,,,,,,,,,,687.0955612659454,None,688.5953063000925,None,689.9787804707885,None,guest,689.9787804707885,None,return,3.824269129894674,690.0631149490364,None,,,,,,,,,,,,,,,,,,,,,,,,,,,,,,,,,,,,,,,78,001,2023_Apr_19_1404,SpeechDraft1Carolyn_lessNoise_PlusLocalization,2021.2.3,59.98984307654952,
blush.wav,blush.mpg,blush,2,AV,Pink_Noise_2_1.wav,Pink_Noise_2_2.wav,,,,,,,,,,,,,,,0,74,74,72,,,,,,,,,,,,,,,,,,,,,,,693.9123359937221,None,695.4286232739687,None,696.8120833481662,None,blush,696.8120833481662,None,return,4.623805726878345,696.8956651058979,None,,,,,,,,,,,,,,,,,,,,,,,,,,,,,,,,,,,,,,,78,001,2023_Apr_19_1404,SpeechDraft1Carolyn_lessNoise_PlusLocalization,2021.2.3,59.98984307654952,
grip.wav,grip.mpg,grip,2,A,Pink_Noise_2_1.wav,Pink_Noise_2_2.wav,,,,,,,,,,,,,,,0,75,75,41,,,,,,,,,,,,,,,,,,,,,,,701.5456343591213,None,703.0619079088792,None,704.4456652617082,None,"grip
",704.4456652617082,None,return,3.750364172272384,704.5290295300074,None,,,,,,,,,,,,,,,,,,,,,,,,,,,,,,,,,,,,,,,78,001,2023_Apr_19_1404,SpeechDraft1Carolyn_lessNoise_PlusLocalization,2021.2.3,59.98984307654952,
grim.wav,grim.mpg,grim,2,AV,Pink_Noise_2_1.wav,Pink_Noise_2_2.wav,,,,,,,,,,,,,,,0,76,76,78,,,,,,,,,,,,,,,,,,,,,,,708.3123533637263,None,709.8453126368113,None,711.2287654951215,None,grim,711.2287654951215,None,return,7.655175152234733,711.3122699218802,None,,,,,,,,,,,,,,,,,,,,,,,,,,,,,,,,,,,,,,,78,001,2023_Apr_19_1404,SpeechDraft1Carolyn_lessNoise_PlusLocalization,2021.2.3,59.98984307654952,
blob.wav,blob.mpg,blob,1,AV,Pink_Noise_1_1.wav,Pink_Noise_1_2.wav,,,,,,,,,,,,,,,0,77,77,89,,,,,,,,,,,,,,,,,,,,,,,718.9956000060774,None,720.4953534407541,None,721.8790848790668,None,blob,721.8790848790668,None,return,3.461038234177977,721.96236864198,None,,,,,,,,,,,,,,,,,,,,,,,,,,,,,,,,,,,,,,,78,001,2023_Apr_19_1404,SpeechDraft1Carolyn_lessNoise_PlusLocalization,2021.2.3,59.98984307654952,
chomp.wav,chomp.mpg,chomp,5,AV,Pink_Noise_5_1.wav,Pink_Noise_5_2.wav,,,,,,,,,,,,,,,0,78,78,108,,,,,,,,,,,,,,,,,,,,,,,725.4456316269934,None,726.9622599049471,None,728.3456266117282,None,chop,728.3456266117282,None,return,3.6742713530547917,728.4291153871454,None,,,,,,,,,,,,,,,,,,,,,,,,,,,,,,,,,,,,,,,78,001,2023_Apr_19_1404,SpeechDraft1Carolyn_lessNoise_PlusLocalization,2021.2.3,59.98984307654952,
chill.wav,chill.mpg,chill,6,AV,Pink_Noise_6_1.wav,Pink_Noise_6_2.wav,,,,,,,,,,,,,,,0,79,79,118,,,,,,,,,,,,,,,,,,,,,,,732.1290047480725,None,733.6454920927063,None,735.0289383451454,None,"chill
",735.0289383451454,None,return,9.103048729710281,735.1123120491393,None,,,,,,,,,,,,,,,,,,,,,,,,,,,,,,,,,,,,,,,78,001,2023_Apr_19_1404,SpeechDraft1Carolyn_lessNoise_PlusLocalization,2021.2.3,59.98984307654952,
base.wav,base.mpg,base,4,AV,Pink_Noise_4_1.wav,Pink_Noise_4_2.wav,,,,,,,,,,,,,,,0,80,80,103,,,,,,,,,,,,,,,,,,,,,,,744.2456368389539,None,745.7789218807593,None,747.162402450107,None,"base
",747.162402450107,None,return,2.6336827012710273,747.2457139748149,None,,,,,,,,,,,,,,,,,,,,,,,,,,,,,,,,,,,,,,,78,001,2023_Apr_19_1404,SpeechDraft1Carolyn_lessNoise_PlusLocalization,2021.2.3,59.98984307654952,
fond.wav,fond.mpg,fond,2,A,Pink_Noise_2_1.wav,Pink_Noise_2_2.wav,,,,,,,,,,,,,,,0,81,81,24,,,,,,,,,,,,,,,,,,,,,,,749.9123651268892,None,751.4455558070913,None,752.8291495959274,None,bond,752.8291495959274,None,return,2.2390842959284782,752.9123551989906,None,,,,,,,,,,,,,,,,,,,,,,,,,,,,,,,,,,,,,,,78,001,2023_Apr_19_1404,SpeechDraft1Carolyn_lessNoise_PlusLocalization,2021.2.3,59.98984307654952,
dream.wav,dream.mpg,dream,3,AV,Pink_Noise_3_1.wav,Pink_Noise_3_2.wav,,,,,,,,,,,,,,,0,82,82,69,,,,,,,,,,,,,,,,,,,,,,,755.1790274018422,None,756.7122419290245,None,758.0954696298577,None,dream,758.0954696298577,None,return,2.812379816081375,758.1790590588935,None,,,,,,,,,,,,,,,,,,,,,,,,,,,,,,,,,,,,,,,78,001,2023_Apr_19_1404,SpeechDraft1Carolyn_lessNoise_PlusLocalization,2021.2.3,59.98984307654952,
warmth.wav,warmth.mpg,warmth,1,AV,Pink_Noise_1_1.wav,Pink_Noise_1_2.wav,,,,,,,,,,,,,,,0,83,83,82,,,,,,,,,,,,,,,,,,,,,,,761.0123134609312,None,762.5288368728943,None,763.9123259559274,None,warmth,763.9123259559274,None,return,5.227625374682248,763.9957634620368,None,,,,,,,,,,,,,,,,,,,,,,,,,,,,,,,,,,,,,,,78,001,2023_Apr_19_1404,SpeechDraft1Carolyn_lessNoise_PlusLocalization,2021.2.3,59.98984307654952,
bin.wav,bin.mpg,bin,6,A,Pink_Noise_6_1.wav,Pink_Noise_6_2.wav,,,,,,,,,,,,,,,0,84,84,42,,,,,,,,,,,,,,,,,,,,,,,769.2457356387749,None,770.762135992758,None,772.1457101670094,None,soup,772.1457101670094,None,return,2.682446764782071,772.2290106499568,None,,,,,,,,,,,,,,,,,,,,,,,,,,,,,,,,,,,,,,,78,001,2023_Apr_19_1404,SpeechDraft1Carolyn_lessNoise_PlusLocalization,2021.2.3,59.98984307654952,
brisk.wav,brisk.mpg,brisk,3,AV,Pink_Noise_3_1.wav,Pink_Noise_3_2.wav,,,,,,,,,,,,,,,0,85,85,75,,,,,,,,,,,,,,,,,,,,,,,774.9290770730004,None,776.4621259849519,None,777.8457863209769,None,brisk,777.8457863209769,None,return,3.4381209299899638,777.929278105963,None,,,,,,,,,,,,,,,,,,,,,,,,,,,,,,,,,,,,,,,78,001,2023_Apr_19_1404,SpeechDraft1Carolyn_lessNoise_PlusLocalization,2021.2.3,59.98984307654952,
brow.wav,brow.mpg,brow,6,AV,Pink_Noise_6_1.wav,Pink_Noise_6_2.wav,,,,,,,,,,,,,,,0,86,86,63,,,,,,,,,,,,,,,,,,,,,,,781.3957551461644,None,782.9121754979715,None,784.295560348779,None,brow,784.295560348779,None,return,14.01237129420042,784.3790511060506,None,,,,,,,,,,,,,,,,,,,,,,,,,,,,,,,,,,,,,,,78,001,2023_Apr_19_1404,SpeechDraft1Carolyn_lessNoise_PlusLocalization,2021.2.3,59.98984307654952,
chip.wav,chip.mpg,chip,4,AV,Pink_Noise_4_1.wav,Pink_Noise_4_2.wav,,,,,,,,,,,,,,,0,87,87,99,,,,,,,,,,,,,,,,,,,,,,,798.4124597287737,None,799.9287772388197,None,801.3124175500125,None,chip,801.3124175500125,None,return,5.339738338720053,801.3957374617457,None,,,,,,,,,,,,,,,,,,,,,,,,,,,,,,,,,,,,,,,78,001,2023_Apr_19_1404,SpeechDraft1Carolyn_lessNoise_PlusLocalization,2021.2.3,59.98984307654952,
route.wav,route.mpg,route,1,A,Pink_Noise_1_1.wav,Pink_Noise_1_2.wav,,,,,,,,,,,,,,,0,88,88,5,,,,,,,,,,,,,,,,,,,,,,,806.7624845518731,None,808.2955118841492,None,809.6791768348776,None,root,809.6791768348776,None,return,4.397069389931858,809.7624231078662,None,,,,,,,,,,,,,,,,,,,,,,,,,,,,,,,,,,,,,,,78,001,2023_Apr_19_1404,SpeechDraft1Carolyn_lessNoise_PlusLocalization,2021.2.3,59.98984307654952,
dump.wav,dump.mpg,dump,1,AV,Pink_Noise_1_1.wav,Pink_Noise_1_2.wav,,,,,,,,,,,,,,,0,89,89,114,,,,,,,,,,,,,,,,,,,,,,,814.1791512360796,None,815.728814763017,None,817.1122621688992,None,dump,817.1122621688992,None,return,3.2436362002044916,817.1957658128813,None,,,,,,,,,,,,,,,,,,,,,,,,,,,,,,,,,,,,,,,78,001,2023_Apr_19_1404,SpeechDraft1Carolyn_lessNoise_PlusLocalization,2021.2.3,59.98984307654952,
stone.wav,stone.mpg,stone,5,A,Pink_Noise_5_1.wav,Pink_Noise_5_2.wav,,,,,,,,,,,,,,,0,90,90,22,,,,,,,,,,,,,,,,,,,,,,,820.4625053768978,None,821.9788516401313,None,823.3626464828849,None,disclose,823.3626464828849,None,return,4.1455078409053385,823.4459090130404,None,,,,,,,,,,,,,,,,,,,,,,,,,,,,,,,,,,,,,,,78,001,2023_Apr_19_1404,SpeechDraft1Carolyn_lessNoise_PlusLocalization,2021.2.3,59.98984307654952,
cheer.wav,cheer.mpg,cheer,3,AV,Pink_Noise_3_1.wav,Pink_Noise_3_2.wav,,,,,,,,,,,,,,,0,91,91,74,,,,,,,,,,,,,,,,,,,,,,,827.6124123400077,None,829.1288580568507,None,830.5124111478217,None,cheer,830.5124111478217,None,return,6.907519806176424,830.5959670450538,None,,,,,,,,,,,,,,,,,,,,,,,,,,,,,,,,,,,,,,,78,001,2023_Apr_19_1404,SpeechDraft1Carolyn_lessNoise_PlusLocalization,2021.2.3,59.98984307654952,
bee.wav,bee.mpg,bee,1,AV,Pink_Noise_1_1.wav,Pink_Noise_1_2.wav,,,,,,,,,,,,,,,0,92,92,102,,,,,,,,,,,,,,,,,,,,,,,837.5292193009518,None,839.0288551659323,None,840.4124291217886,None,bee,840.4124291217886,None,return,4.887628677301109,840.495769968722,None,,,,,,,,,,,,,,,,,,,,,,,,,,,,,,,,,,,,,,,78,001,2023_Apr_19_1404,SpeechDraft1Carolyn_lessNoise_PlusLocalization,2021.2.3,59.98984307654952,
drill.wav,drill.mpg,drill,1,AV,Pink_Noise_1_1.wav,Pink_Noise_1_2.wav,,,,,,,,,,,,,,,0,93,93,62,,,,,,,,,,,,,,,,,,,,,,,845.4126415560022,None,846.9622282260098,None,848.3458069348708,None,drill,848.3458069348708,None,return,2.6101510394364595,848.4292299398221,None,,,,,,,,,,,,,,,,,,,,,,,,,,,,,,,,,,,,,,,78,001,2023_Apr_19_1404,SpeechDraft1Carolyn_lessNoise_PlusLocalization,2021.2.3,59.98984307654952,
fad.wav,fad.mpg,fad,1,A,Pink_Noise_1_1.wav,Pink_Noise_1_2.wav,,,,,,,,,,,,,,,0,94,94,46,,,,,,,,,,,,,,,,,,,,,,,851.0624456587248,None,852.5957258981653,None,853.9793230080977,None,fad,853.9793230080977,None,return,2.5209445781074464,854.0624464191496,None,,,,,,,,,,,,,,,,,,,,,,,,,,,,,,,,,,,,,,,78,001,2023_Apr_19_1404,SpeechDraft1Carolyn_lessNoise_PlusLocalization,2021.2.3,59.98984307654952,
fence.wav,fence.mpg,fence,6,AV,Pink_Noise_6_1.wav,Pink_Noise_6_2.wav,,,,,,,,,,,,,,,0,95,95,113,,,,,,,,,,,,,,,,,,,,,,,856.6124253827147,None,858.1290239817463,None,859.5125129767694,None,fence,859.5125129767694,None,return,2.7713708481751382,859.5960243390873,None,,,,,,,,,,,,,,,,,,,,,,,,,,,,,,,,,,,,,,,78,001,2023_Apr_19_1404,SpeechDraft1Carolyn_lessNoise_PlusLocalization,2021.2.3,59.98984307654952,
pride.wav,pride.mpg,pride,5,A,Pink_Noise_5_1.wav,Pink_Noise_5_2.wav,,,,,,,,,,,,,,,0,96,96,48,,,,,,,,,,,,,,,,,,,,,,,862.3959400290623,None,863.9121335768141,None,865.2959167538211,None,file,865.2959167538211,None,return,9.82823177985847,865.3791485959664,None,,,,,,,,,,,,,,,,,,,,,,,,,,,,,,,,,,,,,,,78,001,2023_Apr_19_1404,SpeechDraft1Carolyn_lessNoise_PlusLocalization,2021.2.3,59.98984307654952,
brick.wav,brick.mpg,brick,3,A,Pink_Noise_3_1.wav,Pink_Noise_3_2.wav,,,,,,,,,,,,,,,0,97,97,50,,,,,,,,,,,,,,,,,,,,,,,875.2291829567403,None,876.7455471470021,None,878.1291831540875,None,brick,878.1291831540875,None,return,4.362988151609898,878.2124785780907,None,,,,,,,,,,,,,,,,,,,,,,,,,,,,,,,,,,,,,,,78,001,2023_Apr_19_1404,SpeechDraft1Carolyn_lessNoise_PlusLocalization,2021.2.3,59.98984307654952,
goat.wav,goat.mpg,goat,1,AV,Pink_Noise_1_1.wav,Pink_Noise_1_2.wav,,,,,,,,,,,,,,,0,98,98,95,,,,,,,,,,,,,,,,,,,,,,,882.595831705723,None,884.1456220978871,None,885.5290236510336,None,"goat
",885.5290236510336,None,return,4.634767631068826,885.6126332227141,None,,,,,,,,,,,,,,,,,,,,,,,,,,,,,,,,,,,,,,,78,001,2023_Apr_19_1404,SpeechDraft1Carolyn_lessNoise_PlusLocalization,2021.2.3,59.98984307654952,
chunk.wav,chunk.mpg,chunk,5,A,Pink_Noise_5_1.wav,Pink_Noise_5_2.wav,,,,,,,,,,,,,,,0,99,99,29,,,,,,,,,,,,,,,,,,,,,,,890.2791670057923,None,891.8121446697041,None,893.1959180920385,None,chunk,893.1959180920385,None,return,5.896143293008208,893.2793026897125,None,,,,,,,,,,,,,,,,,,,,,,,,,,,,,,,,,,,,,,,78,001,2023_Apr_19_1404,SpeechDraft1Carolyn_lessNoise_PlusLocalization,2021.2.3,59.98984307654952,
dock.wav,dock.mpg,dock,4,A,Pink_Noise_4_1.wav,Pink_Noise_4_2.wav,,,,,,,,,,,,,,,0,100,100,45,,,,,,,,,,,,,,,,,,,,,,,899.1959576201625,None,900.713302352,None,902.0959570021369,None,stock,902.0959570021369,None,return,2.860243451781571,902.1792218000628,None,,,,,,,,,,,,,,,,,,,,,,,,,,,,,,,,,,,,,,,78,001,2023_Apr_19_1404,SpeechDraft1Carolyn_lessNoise_PlusLocalization,2021.2.3,59.98984307654952,
dusk.wav,dusk.mpg,dusk,4,AV,Pink_Noise_4_1.wav,Pink_Noise_4_2.wav,,,,,,,,,,,,,,,0,101,101,87,,,,,,,,,,,,,,,,,,,,,,,905.0625803829171,None,906.5790499369614,None,907.9637783630751,None,dusk,907.9637783630751,None,return,4.825411517173052,908.0459751500748,None,,,,,,,,,,,,,,,,,,,,,,,,,,,,,,,,,,,,,,,78,001,2023_Apr_19_1404,SpeechDraft1Carolyn_lessNoise_PlusLocalization,2021.2.3,59.98984307654952,
greed.wav,greed.mpg,greed,5,AV,Pink_Noise_5_1.wav,Pink_Noise_5_2.wav,,,,,,,,,,,,,,,0,102,102,117,,,,,,,,,,,,,,,,,,,,,,,912.8959081098437,None,914.4123511160724,None,915.7958901980892,None,greed,915.7958901980892,None,return,3.2322704470716417,915.8792156707495,None,,,,,,,,,,,,,,,,,,,,,,,,,,,,,,,,,,,,,,,78,001,2023_Apr_19_1404,SpeechDraft1Carolyn_lessNoise_PlusLocalization,2021.2.3,59.98984307654952,
bad.wav,bad.mpg,bad,4,A,Pink_Noise_4_1.wav,Pink_Noise_4_2.wav,,,,,,,,,,,,,,,0,103,103,44,,,,,,,,,,,,,,,,,,,,,,,919.1292523220181,None,920.6635386478156,None,922.0459404038265,None,fast,922.0459404038265,None,return,2.1260385871864855,922.1293406249024,None,,,,,,,,,,,,,,,,,,,,,,,,,,,,,,,,,,,,,,,78,001,2023_Apr_19_1404,SpeechDraft1Carolyn_lessNoise_PlusLocalization,2021.2.3,59.98984307654952,
chick.wav,chick.mpg,chick,1,AV,Pink_Noise_1_1.wav,Pink_Noise_1_2.wav,,,,,,,,,,,,,,,0,104,104,73,,,,,,,,,,,,,,,,,,,,,,,924.2793750609271,None,925.7957141757943,None,927.1791980210692,None,chick,927.1791980210692,None,return,12.888765816111118,927.2627147999592,None,,,,,,,,,,,,,,,,,,,,,,,,,,,,,,,,,,,,,,,78,001,2023_Apr_19_1404,SpeechDraft1Carolyn_lessNoise_PlusLocalization,2021.2.3,59.98984307654952,
grind.wav,grind.mpg,grind,3,A,Pink_Noise_3_1.wav,Pink_Noise_3_2.wav,,,,,,,,,,,,,,,0,105,105,59,,,,,,,,,,,,,,,,,,,,,,,940.1793353459798,None,941.7123237997293,None,943.0960214389488,None,grind,943.0960214389488,None,return,3.180256936699152,943.1792717399076,None,,,,,,,,,,,,,,,,,,,,,,,,,,,,,,,,,,,,,,,78,001,2023_Apr_19_1404,SpeechDraft1Carolyn_lessNoise_PlusLocalization,2021.2.3,59.98984307654952,
faint.wav,faint.mpg,faint,6,AV,Pink_Noise_6_1.wav,Pink_Noise_6_2.wav,,,,,,,,,,,,,,,0,106,106,92,,,,,,,,,,,,,,,,,,,,,,,946.379295708146,None,947.8959181597456,None,949.2793646040373,None,"feet
",949.2793646040373,None,return,3.516784558072686,949.3626095587388,None,,,,,,,,,,,,,,,,,,,,,,,,,,,,,,,,,,,,,,,78,001,2023_Apr_19_1404,SpeechDraft1Carolyn_lessNoise_PlusLocalization,2021.2.3,59.98984307654952,
beer.wav,beer.mpg,beer,3,A,Pink_Noise_3_1.wav,Pink_Noise_3_2.wav,,,,,,,,,,,,,,,0,107,107,7,,,,,,,,,,,,,,,,,,,,,,,952.9126194100827,None,954.4457019041292,None,955.8292767480016,None,fear,955.8292767480016,None,return,3.0467687221243978,955.9127031117678,None,,,,,,,,,,,,,,,,,,,,,,,,,,,,,,,,,,,,,,,78,001,2023_Apr_19_1404,SpeechDraft1Carolyn_lessNoise_PlusLocalization,2021.2.3,59.98984307654952,
blame.wav,blame.mpg,blame,5,A,Pink_Noise_5_1.wav,Pink_Noise_5_2.wav,,,,,,,,,,,,,,,0,108,108,58,,,,,,,,,,,,,,,,,,,,,,,958.9805560749955,None,960.5289894449525,None,961.9127657040954,None,lake,961.9127657040954,None,return,3.1714001102373004,961.9960370850749,None,,,,,,,,,,,,,,,,,,,,,,,,,,,,,,,,,,,,,,,78,001,2023_Apr_19_1404,SpeechDraft1Carolyn_lessNoise_PlusLocalization,2021.2.3,59.98984307654952,
jeep.wav,jeep.mpg,jeep,6,A,Pink_Noise_6_1.wav,Pink_Noise_6_2.wav,,,,,,,,,,,,,,,0,109,109,32,,,,,,,,,,,,,,,,,,,,,,,965.1960156038404,None,966.712419393938,None,968.0960014127195,None,feet,968.0960014127195,None,return,3.443994003813714,968.1794242328033,None,,,,,,,,,,,,,,,,,,,,,,,,,,,,,,,,,,,,,,,78,001,2023_Apr_19_1404,SpeechDraft1Carolyn_lessNoise_PlusLocalization,2021.2.3,59.98984307654952,
camp.wav,camp.mpg,camp,1,A,Pink_Noise_1_1.wav,Pink_Noise_1_2.wav,,,,,,,,,,,,,,,0,110,110,57,,,,,,,,,,,,,,,,,,,,,,,971.646071548108,None,973.1471656430513,None,974.5292892828584,None,camp,974.5292892828584,None,return,9.258595013990998,974.6127845607698,None,,,,,,,,,,,,,,,,,,,,,,,,,,,,,,,,,,,,,,,78,001,2023_Apr_19_1404,SpeechDraft1Carolyn_lessNoise_PlusLocalization,2021.2.3,59.98984307654952,
grown.wav,grown.mpg,grown,2,AV,Pink_Noise_2_1.wav,Pink_Noise_2_2.wav,,,,,,,,,,,,,,,0,111,111,101,,,,,,,,,,,,,,,,,,,,,,,983.8961084499024,None,985.4291006517597,None,986.8126713358797,None,grow,986.8126713358797,None,return,5.159307205118239,986.8960790927522,None,,,,,,,,,,,,,,,,,,,,,,,,,,,,,,,,,,,,,,,78,001,2023_Apr_19_1404,SpeechDraft1Carolyn_lessNoise_PlusLocalization,2021.2.3,59.98984307654952,
truck.wav,truck.mpg,truck,6,AV,Pink_Noise_6_1.wav,Pink_Noise_6_2.wav,,,,,,,,,,,,,,,0,112,112,83,,,,,,,,,,,,,,,,,,,,,,,992.0793461450376,None,993.6291636708193,None,995.0126018091105,None,"truck
",995.0126018091105,None,return,4.3674056441523135,995.0959931267425,None,,,,,,,,,,,,,,,,,,,,,,,,,,,,,,,,,,,,,,,78,001,2023_Apr_19_1404,SpeechDraft1Carolyn_lessNoise_PlusLocalization,2021.2.3,59.98984307654952,
cell.wav,cell.mpg,cell,5,AV,Pink_Noise_5_1.wav,Pink_Noise_5_2.wav,,,,,,,,,,,,,,,0,113,113,100,,,,,,,,,,,,,,,,,,,,,,,999.4960159529,None,1001.0123853078112,None,1002.3959046858363,None,sell,1002.3959046858363,None,return,6.080121597740799,1002.4793880088255,None,,,,,,,,,,,,,,,,,,,,,,,,,,,,,,,,,,,,,,,78,001,2023_Apr_19_1404,SpeechDraft1Carolyn_lessNoise_PlusLocalization,2021.2.3,59.98984307654952,
drip.wav,drip.mpg,drip,4,A,Pink_Noise_4_1.wav,Pink_Noise_4_2.wav,,,,,,,,,,,,,,,0,114,114,30,,,,,,,,,,,,,,,,,,,,,,,1008.5793492970988,None,1010.0958213461563,None,1011.4794364720583,None,"rip
",1011.4794364720583,None,return,3.90055625513196,1011.5628428417258,None,,,,,,,,,,,,,,,,,,,,,,,,,,,,,,,,,,,,,,,78,001,2023_Apr_19_1404,SpeechDraft1Carolyn_lessNoise_PlusLocalization,2021.2.3,59.98984307654952,
bloat.wav,bloat.mpg,bloat,1,A,Pink_Noise_1_1.wav,Pink_Noise_1_2.wav,,,,,,,,,,,,,,,0,115,115,31,,,,,,,,,,,,,,,,,,,,,,,1015.4961213548668,None,1017.0123774688691,None,1018.3960764668882,None,bloat,1018.3960764668882,None,return,4.2401465736329556,1018.4794460670091,None,,,,,,,,,,,,,,,,,,,,,,,,,,,,,,,,,,,,,,,78,001,2023_Apr_19_1404,SpeechDraft1Carolyn_lessNoise_PlusLocalization,2021.2.3,59.98984307654952,
fish.wav,fish.mpg,fish,6,A,Pink_Noise_6_1.wav,Pink_Noise_6_2.wav,,,,,,,,,,,,,,,0,116,116,20,,,,,,,,,,,,,,,,,,,,,,,1022.746066716034,None,1024.2962473509833,None,1025.679377648048,None,swish,1025.679377648048,None,return,4.108676725067198,1025.7627735259011,None,,,,,,,,,,,,,,,,,,,,,,,,,,,,,,,,,,,,,,,78,001,2023_Apr_19_1404,SpeechDraft1Carolyn_lessNoise_PlusLocalization,2021.2.3,59.98984307654952,
fan.wav,fan.mpg,fan,4,AV,Pink_Noise_4_1.wav,Pink_Noise_4_2.wav,,,,,,,,,,,,,,,0,117,117,119,,,,,,,,,,,,,,,,,,,,,,,1029.8963902057149,None,1031.4125301050954,None,1032.7960843648762,None,fan,1032.7960843648762,None,return,3.856040248181671,1032.8794392831624,None,,,,,,,,,,,,,,,,,,,,,,,,,,,,,,,,,,,,,,,78,001,2023_Apr_19_1404,SpeechDraft1Carolyn_lessNoise_PlusLocalization,2021.2.3,59.98984307654952,
grill.wav,grill.mpg,grill,1,A,Pink_Noise_1_1.wav,Pink_Noise_1_2.wav,,,,,,,,,,,,,,,0,118,118,34,,,,,,,,,,,,,,,,,,,,,,,1036.7627420001663,None,1038.2799932728522,None,1039.6627631327137,None,grill,1039.6627631327137,None,return,4.5253374497406185,1039.746055364143,None,,,,,,,,,,,,,,,,,,,,,,,,,,,,,,,,,,,,,,,78,001,2023_Apr_19_1404,SpeechDraft1Carolyn_lessNoise_PlusLocalization,2021.2.3,59.98984307654952,
two.wav,two.mpg,two,4,AV,Pink_Noise_4_1.wav,Pink_Noise_4_2.wav,,,,,,,,,,,,,,,0,119,119,116,,,,,,,,,,,,,,,,,,,,,,,1044.2962264837697,None,1045.8291054661386,None,1047.2127545280382,None,"two
",1047.2127545280382,None,return,9.919286678079516,1047.2961117047817,None,,,,,,,,,,,,,,,,,,,,,,,,,,,,,,,,,,,,,,,78,001,2023_Apr_19_1404,SpeechDraft1Carolyn_lessNoise_PlusLocalization,2021.2.3,59.98984307654952,
,,,,,,,,,,,,,,,,,,,,,,,,,,,,,,,,,,,,,,,,,,,,,,,,,,,,,,,,,,,,,,,,,,space,12.525252902880311,1057.3461407530122,None,,,,,,,,,,,,,,,,,,,,,,,,,,,,,78,001,2023_Apr_19_1404,SpeechDraft1Carolyn_lessNoise_PlusLocalization,2021.2.3,59.98984307654952,
,,,,,,,,nearLeft,-6.5,1,ch1Sound_localizationTask.wav,-6.5,"(857, 878)","(-103,-202)",-95,-338,,,,,,,,,0,0,0,2,,,,,,,,,,,,,,,,,,,,,,,,,,,,,,,,,,,,,,,,,,1057.3461407530122,None,1069.9125735838898,None,1071.0125290290453,None,1071.9460206148215,None,1.2444444444444445,3.369433887768537,1071.9460206148215,None,,,,,,,,,,,,,,,,,78,001,2023_Apr_19_1404,SpeechDraft1Carolyn_lessNoise_PlusLocalization,2021.2.3,59.98984307654952,
,,,,,,,,farRight,19.1,4,ch1Sound_localizationTask.wav,19.1,"(1237, 878)","(277,-202)",285,-338,,,,,,,,,0,1,1,6,,,,,,,,,,,,,,,,,,,,,,,,,,,,,,,,,,,,,,,,,,,,1075.3293484477326,None,1076.4292158368044,None,1077.3625435167924,None,1.6015873015873017,2.282340982928872,1077.3625435167924,None,,,,,,,,,,,,,,,,,78,001,2023_Apr_19_1404,SpeechDraft1Carolyn_lessNoise_PlusLocalization,2021.2.3,59.98984307654952,
,,,,,,,,farLeft,-19.1,5,ch1Sound_localizationTask.wav,-19.1,"(667, 878)","(-293,-202)",-285,-338,,,,,,,,,0,2,2,0,,,,,,,,,,,,,,,,,,,,,,,,,,,,,,,,,,,,,,,,,,,,1079.6461066608317,None,1080.745831748005,None,1081.6791481589898,None,1.295767195767196,1.0328655177727342,1081.6791481589898,None,,,,,,,,,,,,,,,,,78,001,2023_Apr_19_1404,SpeechDraft1Carolyn_lessNoise_PlusLocalization,2021.2.3,59.98984307654952,
,,,,,,,,farRight,19.1,4,ch1Sound_localizationTask.wav,19.1,"(1237, 878)","(277,-202)",285,-338,,,,,,,,,0,3,3,6,,,,,,,,,,,,,,,,,,,,,,,,,,,,,,,,,,,,,,,,,,,,1082.7133804000914,None,1083.8126102080569,None,1084.7458663908765,None,1.668783068783069,1.1160841030068696,1084.7458663908765,None,,,,,,,,,,,,,,,,,78,001,2023_Apr_19_1404,SpeechDraft1Carolyn_lessNoise_PlusLocalization,2021.2.3,59.98984307654952,
,,,,,,,,farRight,19.1,4,ch1Sound_localizationTask.wav,19.1,"(1237, 878)","(277,-202)",285,-338,,,,,,,,,0,4,4,6,,,,,,,,,,,,,,,,,,,,,,,,,,,,,,,,,,,,,,,,,,,,1085.863150706049,None,1086.9624908939004,None,1087.8959601749666,None,1.7111111111111112,0.8001446258276701,1087.8959601749666,None,,,,,,,,,,,,,,,,,78,001,2023_Apr_19_1404,SpeechDraft1Carolyn_lessNoise_PlusLocalization,2021.2.3,59.98984307654952,
,,,,,,,,midLeft,-13.0,2,ch1Sound_localizationTask.wav,-13.0,"(762, 878)","(-198,-202)",-190,-338,,,,,,,,,0,5,5,1,,,,,,,,,,,,,,,,,,,,,,,,,,,,,,,,,,,,,,,,,,,,1088.6965202349238,None,1089.795808129944,None,1090.7293898947537,None,1.2174603174603176,1.1493719508871436,1090.7293898947537,None,,,,,,,,,,,,,,,,,78,001,2023_Apr_19_1404,SpeechDraft1Carolyn_lessNoise_PlusLocalization,2021.2.3,59.98984307654952,
,,,,,,,,nearLeft,-6.5,1,ch1Sound_localizationTask.wav,-6.5,"(857, 878)","(-103,-202)",-95,-338,,,,,,,,,0,6,6,2,,,,,,,,,,,,,,,,,,,,,,,,,,,,,,,,,,,,,,,,,,,,1091.8962973700836,None,1092.9958734968677,None,1093.9293382731266,None,1.3603174603174604,0.6160342032089829,1093.9293382731266,None,,,,,,,,,,,,,,,,,78,001,2023_Apr_19_1404,SpeechDraft1Carolyn_lessNoise_PlusLocalization,2021.2.3,59.98984307654952,
,,,,,,,,center,0.0,6,ch1Sound_localizationTask.wav,0.0,"(952, 878)","(-8,-202)",0,-338,,,,,,,,,1,0,7,3,,,,,,,,,,,,,,,,,,,,,,,,,,,,,,,,,,,,,,,,,,,,1094.5461598229595,None,1095.6458553317934,None,1096.5792854200117,None,1.5116402116402117,0.5334825539030135,1096.5792854200117,None,,,,,,,,,,,,,,,,,78,001,2023_Apr_19_1404,SpeechDraft1Carolyn_lessNoise_PlusLocalization,2021.2.3,59.98984307654952,
,,,,,,,,midRight,13.0,3,ch1Sound_localizationTask.wav,13.0,"(1142, 878)","(182, -202)",190,-338,,,,,,,,,1,1,8,5,,,,,,,,,,,,,,,,,,,,,,,,,,,,,,,,,,,,,,,,,,,,1097.1296354290098,None,1098.229194750078,None,1099.1626111078076,None,1.6476190476190475,0.832594390027225,1099.1626111078076,None,,,,,,,,,,,,,,,,,78,001,2023_Apr_19_1404,SpeechDraft1Carolyn_lessNoise_PlusLocalization,2021.2.3,59.98984307654952,
,,,,,,,,midRight,13.0,3,ch1Sound_localizationTask.wav,13.0,"(1142, 878)","(182, -202)",190,-338,,,,,,,,,1,2,9,5,,,,,,,,,,,,,,,,,,,,,,,,,,,,,,,,,,,,,,,,,,,,1099.997396404855,None,1101.1126357270405,None,1102.0291322260164,None,1.6195767195767194,0.6675663022324443,1102.0291322260164,None,,,,,,,,,,,,,,,,,78,001,2023_Apr_19_1404,SpeechDraft1Carolyn_lessNoise_PlusLocalization,2021.2.3,59.98984307654952,
,,,,,,,,midRight,13.0,3,ch1Sound_localizationTask.wav,13.0,"(1142, 878)","(182, -202)",190,-338,,,,,,,,,1,3,10,5,,,,,,,,,,,,,,,,,,,,,,,,,,,,,,,,,,,,,,,,,,,,1102.7128240121529,None,1103.8124567018822,None,1104.7457911400124,None,1.6317460317460317,0.5160763319581747,1104.7457911400124,None,,,,,,,,,,,,,,,,,78,001,2023_Apr_19_1404,SpeechDraft1Carolyn_lessNoise_PlusLocalization,2021.2.3,59.98984307654952,
,,,,,,,,farRight,19.1,4,ch1Sound_localizationTask.wav,19.1,"(1237, 878)","(277,-202)",285,-338,,,,,,,,,1,4,11,6,,,,,,,,,,,,,,,,,,,,,,,,,,,,,,,,,,,,,,,,,,,,1105.26300071273,None,1106.362559295725,None,1107.2957780468278,None,1.6693121693121693,0.49972734274342656,1107.2957780468278,None,,,,,,,,,,,,,,,,,78,001,2023_Apr_19_1404,SpeechDraft1Carolyn_lessNoise_PlusLocalization,2021.2.3,59.98984307654952,
,,,,,,,,nearRight,6.5,0,ch1Sound_localizationTask.wav,6.5,"(1047, 878)","(87, -202)",95,-338,,,,,,,,,1,5,12,4,,,,,,,,,,,,,,,,,,,,,,,,,,,,,,,,,,,,,,,,,,,,1107.7962033031508,None,1108.8960021687672,None,1109.8291318407282,None,1.6433862433862434,0.5660991342738271,1109.8291318407282,None,,,,,,,,,,,,,,,,,78,001,2023_Apr_19_1404,SpeechDraft1Carolyn_lessNoise_PlusLocalization,2021.2.3,59.98984307654952,
,,,,,,,,nearRight,6.5,0,ch1Sound_localizationTask.wav,6.5,"(1047, 878)","(87, -202)",95,-338,,,,,,,,,1,6,13,4,,,,,,,,,,,,,,,,,,,,,,,,,,,,,,,,,,,,,,,,,,,,1110.3962207529694,None,1111.4960111887194,None,1112.429272287991,None,1.5846560846560847,0.5492265238426626,1112.429272287991,None,,,,,,,,,,,,,,,,,78,001,2023_Apr_19_1404,SpeechDraft1Carolyn_lessNoise_PlusLocalization,2021.2.3,59.98984307654952,
,,,,,,,,farRight,19.1,4,ch1Sound_localizationTask.wav,19.1,"(1237, 878)","(277,-202)",285,-338,,,,,,,,,2,0,14,6,,,,,,,,,,,,,,,,,,,,,,,,,,,,,,,,,,,,,,,,,,,,1112.9794815597124,None,1114.0791924730875,None,1115.0125483707525,None,1.6312169312169313,0.43273347802460194,1115.0125483707525,None,,,,,,,,,,,,,,,,,78,001,2023_Apr_19_1404,SpeechDraft1Carolyn_lessNoise_PlusLocalization,2021.2.3,59.98984307654952,
,,,,,,,,center,0.0,6,ch1Sound_localizationTask.wav,0.0,"(952, 878)","(-8,-202)",0,-338,,,,,,,,,2,1,15,3,,,,,,,,,,,,,,,,,,,,,,,,,,,,,,,,,,,,,,,,,,,,1115.4462913619354,None,1116.5460135047324,None,1117.4792418167926,None,1.5042328042328044,0.41574373096227646,1117.4792418167926,None,,,,,,,,,,,,,,,,,78,001,2023_Apr_19_1404,SpeechDraft1Carolyn_lessNoise_PlusLocalization,2021.2.3,59.98984307654952,
,,,,,,,,midRight,13.0,3,ch1Sound_localizationTask.wav,13.0,"(1142, 878)","(182, -202)",190,-338,,,,,,,,,2,2,16,5,,,,,,,,,,,,,,,,,,,,,,,,,,,,,,,,,,,,,,,,,,,,1117.896268300712,None,1118.995936581865,None,1119.9296815008856,None,1.6830687830687832,0.6828398848883808,1119.9296815008856,None,,,,,,,,,,,,,,,,,78,001,2023_Apr_19_1404,SpeechDraft1Carolyn_lessNoise_PlusLocalization,2021.2.3,59.98984307654952,
,,,,,,,,nearRight,6.5,0,ch1Sound_localizationTask.wav,6.5,"(1047, 878)","(87, -202)",95,-338,,,,,,,,,2,3,17,4,,,,,,,,,,,,,,,,,,,,,,,,,,,,,,,,,,,,,,,,,,,,1120.6127902111039,None,1121.7126483879983,None,1122.6458920268342,None,1.4825396825396826,0.5835995650850236,1122.6458920268342,None,,,,,,,,,,,,,,,,,78,001,2023_Apr_19_1404,SpeechDraft1Carolyn_lessNoise_PlusLocalization,2021.2.3,59.98984307654952,
,,,,,,,,nearRight,6.5,0,ch1Sound_localizationTask.wav,6.5,"(1047, 878)","(87, -202)",95,-338,,,,,,,,,2,4,18,4,,,,,,,,,,,,,,,,,,,,,,,,,,,,,,,,,,,,,,,,,,,,1123.2304872930981,None,1124.329295837786,None,1125.2625530078076,None,1.5317460317460316,0.7158621880225837,1125.2625530078076,None,,,,,,,,,,,,,,,,,78,001,2023_Apr_19_1404,SpeechDraft1Carolyn_lessNoise_PlusLocalization,2021.2.3,59.98984307654952,
,,,,,,,,nearLeft,-6.5,1,ch1Sound_localizationTask.wav,-6.5,"(857, 878)","(-103,-202)",-95,-338,,,,,,,,,2,5,19,2,,,,,,,,,,,,,,,,,,,,,,,,,,,,,,,,,,,,,,,,,,,,1125.9794789031148,None,1127.0792885301635,None,1128.012559587136,None,1.392063492063492,0.7165898340754211,1128.012559587136,None,,,,,,,,,,,,,,,,,78,001,2023_Apr_19_1404,SpeechDraft1Carolyn_lessNoise_PlusLocalization,2021.2.3,59.98984307654952,
,,,,,,,,nearLeft,-6.5,1,ch1Sound_localizationTask.wav,-6.5,"(857, 878)","(-103,-202)",-95,-338,,,,,,,,,2,6,20,2,,,,,,,,,,,,,,,,,,,,,,,,,,,,,,,,,,,,,,,,,,,,1128.746229626704,None,1129.846066618804,None,1130.779264411889,None,1.3862433862433863,0.8326982893049717,1130.779264411889,None,,,,,,,,,,,,,,,,,78,001,2023_Apr_19_1404,SpeechDraft1Carolyn_lessNoise_PlusLocalization,2021.2.3,59.98984307654952,
,,,,,,,,midLeft,-13.0,2,ch1Sound_localizationTask.wav,-13.0,"(762, 878)","(-198,-202)",-190,-338,,,,,,,,,3,0,21,1,,,,,,,,,,,,,,,,,,,,,,,,,,,,,,,,,,,,,,,,,,,,1131.6128772958182,None,1132.71252364479,None,1133.6457815091126,None,1.2582010582010583,0.7004626099951565,1133.6457815091126,None,,,,,,,,,,,,,,,,,78,001,2023_Apr_19_1404,SpeechDraft1Carolyn_lessNoise_PlusLocalization,2021.2.3,59.98984307654952,
,,,,,,,,farLeft,-19.1,5,ch1Sound_localizationTask.wav,-19.1,"(667, 878)","(-293,-202)",-285,-338,,,,,,,,,3,1,22,0,,,,,,,,,,,,,,,,,,,,,,,,,,,,,,,,,,,,,,,,,,,,1134.3630394041538,None,1135.4626129977405,None,1136.3959226119332,None,1.2322751322751322,0.8664148589596152,1136.3959226119332,None,,,,,,,,,,,,,,,,,78,001,2023_Apr_19_1404,SpeechDraft1Carolyn_lessNoise_PlusLocalization,2021.2.3,59.98984307654952,
,,,,,,,,farLeft,-19.1,5,ch1Sound_localizationTask.wav,-19.1,"(667, 878)","(-293,-202)",-285,-338,,,,,,,,,3,2,23,0,,,,,,,,,,,,,,,,,,,,,,,,,,,,,,,,,,,,,,,,,,,,1137.263292151969,None,1138.3628107039258,None,1139.2960575320758,None,1.1592592592592592,0.6827924367971718,1139.2960575320758,None,,,,,,,,,,,,,,,,,78,001,2023_Apr_19_1404,SpeechDraft1Carolyn_lessNoise_PlusLocalization,2021.2.3,59.98984307654952,
,,,,,,,,nearRight,6.5,0,ch1Sound_localizationTask.wav,6.5,"(1047, 878)","(87, -202)",95,-338,,,,,,,,,3,3,24,4,,,,,,,,,,,,,,,,,,,,,,,,,,,,,,,,,,,,,,,,,,,,1139.9796682517044,None,1141.0793011928909,None,1142.012667199131,None,1.5232804232804233,1.1833101022057235,1142.012667199131,None,,,,,,,,,,,,,,,,,78,001,2023_Apr_19_1404,SpeechDraft1Carolyn_lessNoise_PlusLocalization,2021.2.3,59.98984307654952,
,,,,,,,,farLeft,-19.1,5,ch1Sound_localizationTask.wav,-19.1,"(667, 878)","(-293,-202)",-285,-338,,,,,,,,,3,4,25,0,,,,,,,,,,,,,,,,,,,,,,,,,,,,,,,,,,,,,,,,,,,,1143.1964428117499,None,1144.295917391777,None,1145.2292442820035,None,1.2412698412698413,0.8835781780071557,1145.2292442820035,None,,,,,,,,,,,,,,,,,78,001,2023_Apr_19_1404,SpeechDraft1Carolyn_lessNoise_PlusLocalization,2021.2.3,59.98984307654952,
,,,,,,,,midLeft,-13.0,2,ch1Sound_localizationTask.wav,-13.0,"(762, 878)","(-198,-202)",-190,-338,,,,,,,,,3,5,26,1,,,,,,,,,,,,,,,,,,,,,,,,,,,,,,,,,,,,,,,,,,,,1146.1131177977659,None,1147.2127770781517,None,1148.1460417238995,None,1.3433862433862434,0.6495505562052131,1148.1460417238995,None,,,,,,,,,,,,,,,,,78,001,2023_Apr_19_1404,SpeechDraft1Carolyn_lessNoise_PlusLocalization,2021.2.3,59.98984307654952,
,,,,,,,,nearLeft,-6.5,1,ch1Sound_localizationTask.wav,-6.5,"(857, 878)","(-103,-202)",-95,-338,,,,,,,,,3,6,27,2,,,,,,,,,,,,,,,,,,,,,,,,,,,,,,,,,,,,,,,,,,,,1148.796428929083,None,1149.8959465269,None,1150.8291282667778,None,1.5402116402116404,0.699404229875654,1150.8291282667778,None,,,,,,,,,,,,,,,,,78,001,2023_Apr_19_1404,SpeechDraft1Carolyn_lessNoise_PlusLocalization,2021.2.3,59.98984307654952,
,,,,,,,,midLeft,-13.0,2,ch1Sound_localizationTask.wav,-13.0,"(762, 878)","(-198,-202)",-190,-338,,,,,,,,,4,0,28,1,,,,,,,,,,,,,,,,,,,,,,,,,,,,,,,,,,,,,,,,,,,,1151.5299636470154,None,1152.6292247599922,None,1153.5628235121258,None,1.2222222222222223,0.6324438047595322,1153.5628235121258,None,,,,,,,,,,,,,,,,,78,001,2023_Apr_19_1404,SpeechDraft1Carolyn_lessNoise_PlusLocalization,2021.2.3,59.98984307654952,
,,,,,,,,midRight,13.0,3,ch1Sound_localizationTask.wav,13.0,"(1142, 878)","(182, -202)",190,-338,,,,,,,,,4,1,29,5,,,,,,,,,,,,,,,,,,,,,,,,,,,,,,,,,,,,,,,,,,,,1154.1968667320907,None,1155.2960239108652,None,1156.2292232327163,None,1.6058201058201058,0.716081727296114,1156.2292232327163,None,,,,,,,,,,,,,,,,,78,001,2023_Apr_19_1404,SpeechDraft1Carolyn_lessNoise_PlusLocalization,2021.2.3,59.98984307654952,
,,,,,,,,midRight,13.0,3,ch1Sound_localizationTask.wav,13.0,"(1142, 878)","(182, -202)",190,-338,,,,,,,,,4,2,30,5,,,,,,,,,,,,,,,,,,,,,,,,,,,,,,,,,,,,,,,,,,,,1156.9462372497655,None,1158.0458929277956,None,1158.9793325057253,None,1.644973544973545,0.432620732113719,1158.9793325057253,None,,,,,,,,,,,,,,,,,78,001,2023_Apr_19_1404,SpeechDraft1Carolyn_lessNoise_PlusLocalization,2021.2.3,59.98984307654952,
,,,,,,,,midLeft,-13.0,2,ch1Sound_localizationTask.wav,-13.0,"(762, 878)","(-198,-202)",-190,-338,,,,,,,,,4,3,31,1,,,,,,,,,,,,,,,,,,,,,,,,,,,,,,,,,,,,,,,,,,,,1159.4129102551378,None,1160.51264825603,None,1161.4460759568028,None,1.3126984126984127,0.6320725809782743,1161.4460759568028,None,,,,,,,,,,,,,,,,,78,001,2023_Apr_19_1404,SpeechDraft1Carolyn_lessNoise_PlusLocalization,2021.2.3,59.98984307654952,
,,,,,,,,nearLeft,-6.5,1,ch1Sound_localizationTask.wav,-6.5,"(857, 878)","(-103,-202)",-95,-338,,,,,,,,,4,4,32,2,,,,,,,,,,,,,,,,,,,,,,,,,,,,,,,,,,,,,,,,,,,,1162.0797574981116,None,1163.17933637416,None,1164.112692499999,None,1.4730158730158731,0.5832644589245319,1164.112692499999,None,,,,,,,,,,,,,,,,,78,001,2023_Apr_19_1404,SpeechDraft1Carolyn_lessNoise_PlusLocalization,2021.2.3,59.98984307654952,
,,,,,,,,midRight,13.0,3,ch1Sound_localizationTask.wav,13.0,"(1142, 878)","(182, -202)",190,-338,,,,,,,,,4,5,33,5,,,,,,,,,,,,,,,,,,,,,,,,,,,,,,,,,,,,,,,,,,,,1164.6964368261397,None,1165.7959244237281,None,1166.7293840958737,None,1.637037037037037,0.5160431521944702,1166.7293840958737,None,,,,,,,,,,,,,,,,,78,001,2023_Apr_19_1404,SpeechDraft1Carolyn_lessNoise_PlusLocalization,2021.2.3,59.98984307654952,
,,,,,,,,farLeft,-19.1,5,ch1Sound_localizationTask.wav,-19.1,"(667, 878)","(-293,-202)",-285,-338,,,,,,,,,4,6,34,0,,,,,,,,,,,,,,,,,,,,,,,,,,,,,,,,,,,,,,,,,,,,1167.2462736880407,None,1168.3459575427696,None,1169.2792521147057,None,1.1883597883597883,0.4666986293159425,1169.2792521147057,None,,,,,,,,,,,,,,,,,78,001,2023_Apr_19_1404,SpeechDraft1Carolyn_lessNoise_PlusLocalization,2021.2.3,59.98984307654952,
,,,,,,,,nearRight,6.5,0,ch1Sound_localizationTask.wav,6.5,"(1047, 878)","(87, -202)",95,-338,,,,,,,,,5,0,35,4,,,,,,,,,,,,,,,,,,,,,,,,,,,,,,,,,,,,,,,,,,,,1169.7629879727028,None,1170.8625299539417,None,1171.7960250801407,None,1.5132275132275133,0.7010614378377795,1171.7960250801407,None,,,,,,,,,,,,,,,,,78,001,2023_Apr_19_1404,SpeechDraft1Carolyn_lessNoise_PlusLocalization,2021.2.3,59.98984307654952,
,,,,,,,,center,0.0,6,ch1Sound_localizationTask.wav,0.0,"(952, 878)","(-8,-202)",0,-338,,,,,,,,,5,1,36,3,,,,,,,,,,,,,,,,,,,,,,,,,,,,,,,,,,,,,,,,,,,,1172.4968418879434,None,1173.5959731838666,None,1174.5293059097603,None,1.5132275132275133,0.449790742713958,1174.5293059097603,None,,,,,,,,,,,,,,,,,78,001,2023_Apr_19_1404,SpeechDraft1Carolyn_lessNoise_PlusLocalization,2021.2.3,59.98984307654952,
,,,,,,,,midRight,13.0,3,ch1Sound_localizationTask.wav,13.0,"(1142, 878)","(182, -202)",190,-338,,,,,,,,,5,2,37,5,,,,,,,,,,,,,,,,,,,,,,,,,,,,,,,,,,,,,,,,,,,,1174.979663408827,None,1176.07926984597,None,1177.012634173967,None,1.5746031746031746,0.4497298481874168,1177.012634173967,None,,,,,,,,,,,,,,,,,78,001,2023_Apr_19_1404,SpeechDraft1Carolyn_lessNoise_PlusLocalization,2021.2.3,59.98984307654952,
,,,,,,,,center,0.0,6,ch1Sound_localizationTask.wav,0.0,"(952, 878)","(-8,-202)",0,-338,,,,,,,,,5,3,38,3,,,,,,,,,,,,,,,,,,,,,,,,,,,,,,,,,,,,,,,,,,,,1177.4629537137225,None,1178.5626161890104,None,1179.4959711018018,None,1.4597883597883599,0.4691224112175405,1179.4959711018018,None,,,,,,,,,,,,,,,,,78,001,2023_Apr_19_1404,SpeechDraft1Carolyn_lessNoise_PlusLocalization,2021.2.3,59.98984307654952,
,,,,,,,,farLeft,-19.1,5,ch1Sound_localizationTask.wav,-19.1,"(667, 878)","(-293,-202)",-285,-338,,,,,,,,,5,4,39,0,,,,,,,,,,,,,,,,,,,,,,,,,,,,,,,,,,,,,,,,,,,,1179.9808848947287,None,1181.0960930837318,None,1182.0127515299246,None,1.2195767195767195,0.4654171890579164,1182.0127515299246,None,,,,,,,,,,,,,,,,,78,001,2023_Apr_19_1404,SpeechDraft1Carolyn_lessNoise_PlusLocalization,2021.2.3,59.98984307654952,
,,,,,,,,center,0.0,6,ch1Sound_localizationTask.wav,0.0,"(952, 878)","(-8,-202)",0,-338,,,,,,,,,5,5,40,3,,,,,,,,,,,,,,,,,,,,,,,,,,,,,,,,,,,,,,,,,,,,1182.479618719779,None,1183.579317512922,None,1184.5126626319252,None,1.434920634920635,1.2002880121581256,1184.5126626319252,None,,,,,,,,,,,,,,,,,78,001,2023_Apr_19_1404,SpeechDraft1Carolyn_lessNoise_PlusLocalization,2021.2.3,59.98984307654952,
,,,,,,,,farRight,19.1,4,ch1Sound_localizationTask.wav,19.1,"(1237, 878)","(277,-202)",285,-338,,,,,,,,,5,6,41,6,,,,,,,,,,,,,,,,,,,,,,,,,,,,,,,,,,,,,,,,,,,,1185.7295382381417,None,1186.8293641661294,None,1187.7626472567208,None,1.6835978835978835,0.7330086030997336,1187.7626472567208,None,,,,,,,,,,,,,,,,,78,001,2023_Apr_19_1404,SpeechDraft1Carolyn_lessNoise_PlusLocalization,2021.2.3,59.98984307654952,
,,,,,,,,midLeft,-13.0,2,ch1Sound_localizationTask.wav,-13.0,"(762, 878)","(-198,-202)",-190,-338,,,,,,,,,6,0,42,1,,,,,,,,,,,,,,,,,,,,,,,,,,,,,,,,,,,,,,,,,,,,1188.4962123101577,None,1189.595967840869,None,1190.5293994271196,None,1.247089947089947,0.5161455180495977,1190.5293994271196,None,,,,,,,,,,,,,,,,,78,001,2023_Apr_19_1404,SpeechDraft1Carolyn_lessNoise_PlusLocalization,2021.2.3,59.98984307654952,
,,,,,,,,nearLeft,-6.5,1,ch1Sound_localizationTask.wav,-6.5,"(857, 878)","(-103,-202)",-95,-338,,,,,,,,,6,1,43,2,,,,,,,,,,,,,,,,,,,,,,,,,,,,,,,,,,,,,,,,,,,,1191.0462809507735,None,1192.1460096938536,None,1193.0792624671012,None,1.4555555555555555,0.7653003158047795,1193.0792624671012,None,,,,,,,,,,,,,,,,,78,001,2023_Apr_19_1404,SpeechDraft1Carolyn_lessNoise_PlusLocalization,2021.2.3,59.98984307654952,
,,,,,,,,farRight,19.1,4,ch1Sound_localizationTask.wav,19.1,"(1237, 878)","(277,-202)",285,-338,,,,,,,,,6,2,44,6,,,,,,,,,,,,,,,,,,,,,,,,,,,,,,,,,,,,,,,,,,,,1193.846406843979,None,1194.9460319271311,None,1195.8793045748025,None,1.665079365079365,0.616257291752845,1195.8793045748025,None,,,,,,,,,,,,,,,,,78,001,2023_Apr_19_1404,SpeechDraft1Carolyn_lessNoise_PlusLocalization,2021.2.3,59.98984307654952,
,,,,,,,,center,0.0,6,ch1Sound_localizationTask.wav,0.0,"(952, 878)","(-8,-202)",0,-338,,,,,,,,,6,3,45,3,,,,,,,,,,,,,,,,,,,,,,,,,,,,,,,,,,,,,,,,,,,,1196.4963132850826,None,1197.5960274790414,None,1198.5295207770541,None,1.4952380952380953,0.4988133287988603,1198.5295207770541,None,,,,,,,,,,,,,,,,,78,001,2023_Apr_19_1404,SpeechDraft1Carolyn_lessNoise_PlusLocalization,2021.2.3,59.98984307654952,
,,,,,,,,nearRight,6.5,0,ch1Sound_localizationTask.wav,6.5,"(1047, 878)","(87, -202)",95,-338,,,,,,,,,6,4,46,4,,,,,,,,,,,,,,,,,,,,,,,,,,,,,,,,,,,,,,,,,,,,1199.029691032134,None,1200.1294199400581,None,1201.062682833057,None,1.5825396825396827,0.6164709739387035,1201.062682833057,None,,,,,,,,,,,,,,,,,78,001,2023_Apr_19_1404,SpeechDraft1Carolyn_lessNoise_PlusLocalization,2021.2.3,59.98984307654952,
,,,,,,,,midLeft,-13.0,2,ch1Sound_localizationTask.wav,-13.0,"(762, 878)","(-198,-202)",-190,-338,,,,,,,,,6,5,47,1,,,,,,,,,,,,,,,,,,,,,,,,,,,,,,,,,,,,,,,,,,,,1201.6803207001649,None,1202.7793500348926,None,1203.7128431829624,None,1.1354497354497355,0.4992386335507035,1203.7128431829624,None,,,,,,,,,,,,,,,,,78,001,2023_Apr_19_1404,SpeechDraft1Carolyn_lessNoise_PlusLocalization,2021.2.3,59.98984307654952,
,,,,,,,,nearRight,6.5,0,ch1Sound_localizationTask.wav,6.5,"(1047, 878)","(87, -202)",95,-338,,,,,,,,,6,6,48,4,,,,,,,,,,,,,,,,,,,,,,,,,,,,,,,,,,,,,,,,,,,,1204.2129569360986,None,1205.3128332551569,None,1206.2460339721292,None,1.507936507936508,0.9654792887158692,1206.2460339721292,None,,,,,,,,,,,,,,,,,78,001,2023_Apr_19_1404,SpeechDraft1Carolyn_lessNoise_PlusLocalization,2021.2.3,59.98984307654952,
,,,,,,,,farRight,19.1,4,ch1Sound_localizationTask.wav,19.1,"(1237, 878)","(277,-202)",285,-338,,,,,,,,,7,0,49,6,,,,,,,,,,,,,,,,,,,,,,,,,,,,,,,,,,,,,,,,,,,,1207.213092094753,None,1208.3127268417738,None,1209.2460581171326,None,1.668783068783069,0.6669768136925995,1209.2460581171326,None,,,,,,,,,,,,,,,,,78,001,2023_Apr_19_1404,SpeechDraft1Carolyn_lessNoise_PlusLocalization,2021.2.3,59.98984307654952,
,,,,,,,,farLeft,-19.1,5,ch1Sound_localizationTask.wav,-19.1,"(667, 878)","(-293,-202)",-285,-338,,,,,,,,,7,1,50,0,,,,,,,,,,,,,,,,,,,,,,,,,,,,,,,,,,,,,,,,,,,,1209.929624741897,None,1211.0294531420805,None,1211.9627303350717,None,1.180952380952381,0.5341097651980817,1211.9627303350717,None,,,,,,,,,,,,,,,,,78,001,2023_Apr_19_1404,SpeechDraft1Carolyn_lessNoise_PlusLocalization,2021.2.3,59.98984307654952,
,,,,,,,,center,0.0,6,ch1Sound_localizationTask.wav,0.0,"(952, 878)","(-8,-202)",0,-338,,,,,,,,,7,2,51,3,,,,,,,,,,,,,,,,,,,,,,,,,,,,,,,,,,,,,,,,,,,,1212.497846855782,None,1213.612700690981,None,1214.5294362627901,None,1.4904761904761905,0.7319019506685436,1214.5294362627901,None,,,,,,,,,,,,,,,,,78,001,2023_Apr_19_1404,SpeechDraft1Carolyn_lessNoise_PlusLocalization,2021.2.3,59.98984307654952,
,,,,,,,,center,0.0,6,ch1Sound_localizationTask.wav,0.0,"(952, 878)","(-8,-202)",0,-338,,,,,,,,,7,3,52,3,,,,,,,,,,,,,,,,,,,,,,,,,,,,,,,,,,,,,,,,,,,,1215.2629587179981,None,1216.3627124018967,None,1217.2959932801314,None,1.528042328042328,0.5516188419423997,1217.2959932801314,None,,,,,,,,,,,,,,,,,78,001,2023_Apr_19_1404,SpeechDraft1Carolyn_lessNoise_PlusLocalization,2021.2.3,59.98984307654952,
,,,,,,,,nearLeft,-6.5,1,ch1Sound_localizationTask.wav,-6.5,"(857, 878)","(-103,-202)",-95,-338,,,,,,,,,7,4,53,2,,,,,,,,,,,,,,,,,,,,,,,,,,,,,,,,,,,,,,,,,,,,1217.8630175688304,None,1218.9626746657304,None,1219.8960792371072,None,1.3502645502645503,0.584363475907594,1219.8960792371072,None,,,,,,,,,,,,,,,,,78,001,2023_Apr_19_1404,SpeechDraft1Carolyn_lessNoise_PlusLocalization,2021.2.3,59.98984307654952,
,,,,,,,,farLeft,-19.1,5,ch1Sound_localizationTask.wav,-19.1,"(667, 878)","(-293,-202)",-285,-338,,,,,,,,,7,5,54,0,,,,,,,,,,,,,,,,,,,,,,,,,,,,,,,,,,,,,,,,,,,,1220.4963573501445,None,1221.5961760659702,None,1222.529442512896,None,1.2343915343915344,0.532595400698483,1222.529442512896,None,,,,,,,,,,,,,,,,,78,001,2023_Apr_19_1404,SpeechDraft1Carolyn_lessNoise_PlusLocalization,2021.2.3,59.98984307654952,
,,,,,,,,midLeft,-13.0,2,ch1Sound_localizationTask.wav,-13.0,"(762, 878)","(-198,-202)",-190,-338,,,,,,,,,7,6,55,1,,,,,,,,,,,,,,,,,,,,,,,,,,,,,,,,,,,,,,,,,,,,1223.0630745477974,None,1224.1628840188496,None,1225.0960723841563,None,1.3365079365079366,0.3657484748400748,1225.0960723841563,None,,,,,,,,,,,,,,,,,78,001,2023_Apr_19_1404,SpeechDraft1Carolyn_lessNoise_PlusLocalization,2021.2.3,59.98984307654952,
,,,,,,,,,,,,,,,,,,,,,,,,,,,,,,,,,,,,,,,,,,,,,,,,,,,,,,,,,,,,,,,,,,,,,,,,,,,,,,,,,,space,9.804982038214803,1225.5464813387953,None,,,,,,,,,,,,,78,001,2023_Apr_19_1404,SpeechDraft1Carolyn_lessNoise_PlusLocalization,2021.2.3,59.98984307654952,
,,,,,,,,midRight,13.0,3,ch1Sound_localizationTask.wav,13.0,"(1142, 878)","(182, -202)",190,-338,,,,,,,,,,,,,0,0,0,5,,,,,,,,,,,,,,,,,,,,,,,,,,,,,,,,,,,,,,,,1235.396018916741,None,,,1238.4147648401558,None,1.601058201058201,2.6208103732205927,1238.4147648401558,None,,,,,1225.5464813387953,None,1236.3963446430862,None,1236.5796951018274,1236.5965883270837,,,,,,,78,001,2023_Apr_19_1404,SpeechDraft1Carolyn_lessNoise_PlusLocalization,2021.2.3,59.98984307654952,
,,,,,,,,midLeft,-13.0,2,ch1Sound_localizationTask.wav,-13.0,"(762, 878)","(-198,-202)",-190,-338,,,,,,,,,,,,,0,1,1,1,,,,,,,,,,,,,,,,,,,,,,,,,,,,,,,,,,,,,,,,1241.0470539871603,None,,,1244.062740621157,None,1.3830687830687831,0.5998891443014145,1244.062740621157,None,,,,,,,1242.046395804733,None,1242.2296667918563,1242.2463611159474,,,,,,,78,001,2023_Apr_19_1404,SpeechDraft1Carolyn_lessNoise_PlusLocalization,2021.2.3,59.98984307654952,
,,,,,,,,farLeft,-19.1,5,ch1Sound_localizationTask.wav,-19.1,"(667, 878)","(-293,-202)",-285,-338,,,,,,,,,,,,,0,2,2,0,,,,,,,,,,,,,,,,,,,,,,,,,,,,,,,,,,,,,,,,1244.6635213079862,None,,,1247.6793597349897,None,1.373015873015873,0.515959138981998,1247.6793597349897,None,,,,,,,1245.6630123220384,None,1245.8463531509042,1245.8631653897464,,,,,,,78,001,2023_Apr_19_1404,SpeechDraft1Carolyn_lessNoise_PlusLocalization,2021.2.3,59.98984307654952,
,,,,,,,,nearRight,6.5,0,ch1Sound_localizationTask.wav,6.5,"(1047, 878)","(87, -202)",95,-338,,,,,,,,,,,,,0,3,3,4,,,,,,,,,,,,,,,,,,,,,,,,,,,,,,,,,,,,,,,,1248.1976020038128,None,,,1251.2294365307316,None,1.543915343915344,0.699745514895767,1251.2294365307316,None,,,,,,,1249.2130266237073,None,1249.3963691098616,1249.4131054440513,,,,,,,78,001,2023_Apr_19_1404,SpeechDraft1Carolyn_lessNoise_PlusLocalization,2021.2.3,59.98984307654952,
,,,,,,,,center,0.0,6,ch1Sound_localizationTask.wav,0.0,"(952, 878)","(-8,-202)",0,-338,,,,,,,,,,,,,0,4,4,3,,,,,,,,,,,,,,,,,,,,,,,,,,,,,,,,,,,,,,,,1251.9299390679225,None,,,1254.9460859191604,None,1.4761904761904763,0.5997285819612443,1254.9460859191604,None,,,,,,,1252.929699985776,None,1253.1130142677575,1253.129766706843,,,,,,,78,001,2023_Apr_19_1404,SpeechDraft1Carolyn_lessNoise_PlusLocalization,2021.2.3,59.98984307654952,
,,,,,,,,farLeft,-19.1,5,ch1Sound_localizationTask.wav,-19.1,"(667, 878)","(-293,-202)",-285,-338,,,,,,,,,,,,,0,5,5,0,,,,,,,,,,,,,,,,,,,,,,,,,,,,,,,,,,,,,,,,1255.5476549700834,None,,,1258.5794526827522,None,1.3603174603174604,0.5832667211070657,1258.5794526827522,None,,,,,,,1256.5631801360287,None,1256.746500601992,1256.7630250831135,,,,,,,78,001,2023_Apr_19_1404,SpeechDraft1Carolyn_lessNoise_PlusLocalization,2021.2.3,59.98984307654952,
,,,,,,,,midLeft,-13.0,2,ch1Sound_localizationTask.wav,-13.0,"(762, 878)","(-198,-202)",-190,-338,,,,,,,,,,,,,0,6,6,1,,,,,,,,,,,,,,,,,,,,,,,,,,,,,,,,,,,,,,,,1259.1633416721597,None,,,1262.1793908891268,None,1.3894179894179894,0.48263305705040693,1262.1793908891268,None,,,,,,,1260.1630645487458,None,1260.3464678749442,1260.3630521679297,,,,,,,78,001,2023_Apr_19_1404,SpeechDraft1Carolyn_lessNoise_PlusLocalization,2021.2.3,59.98984307654952,
,,,,,,,,farLeft,-19.1,5,ch1Sound_localizationTask.wav,-19.1,"(667, 878)","(-293,-202)",-285,-338,,,,,,,,,,,,,1,0,7,0,,,,,,,,,,,,,,,,,,,,,,,,,,,,,,,,,,,,,,,,1262.6630779961124,None,,,1265.6794373849407,None,1.3476190476190477,0.532847027759999,1265.6794373849407,None,,,,,,,1263.6631447090767,None,1263.8464259100147,1263.8630588129163,,,,,,,78,001,2023_Apr_19_1404,SpeechDraft1Carolyn_lessNoise_PlusLocalization,2021.2.3,59.98984307654952,
,,,,,,,,farRight,19.1,4,ch1Sound_localizationTask.wav,19.1,"(1237, 878)","(277,-202)",285,-338,,,,,,,,,,,,,1,1,8,6,,,,,,,,,,,,,,,,,,,,,,,,,,,,,,,,,,,,,,,,1266.2132914881222,None,,,1269.2294831229374,None,1.6486772486772487,0.6327411639504135,1269.2294831229374,None,,,,,,,1267.2130291759968,None,1267.3964113970287,1267.4130932977423,,,,,,,78,001,2023_Apr_19_1404,SpeechDraft1Carolyn_lessNoise_PlusLocalization,2021.2.3,59.98984307654952,
,,,,,,,,nearLeft,-6.5,1,ch1Sound_localizationTask.wav,-6.5,"(857, 878)","(-103,-202)",-95,-338,,,,,,,,,,,,,1,2,9,2,,,,,,,,,,,,,,,,,,,,,,,,,,,,,,,,,,,,,,,,1269.8635044461116,None,,,1272.87940857606,None,1.4301587301587302,0.7326398161239922,1272.87940857606,None,,,,,,,1270.8630118607543,None,1271.0465845307335,1271.0631112977862,,,,,,,78,001,2023_Apr_19_1404,SpeechDraft1Carolyn_lessNoise_PlusLocalization,2021.2.3,59.98984307654952,
,,,,,,,,nearRight,6.5,0,ch1Sound_localizationTask.wav,6.5,"(1047, 878)","(87, -202)",95,-338,,,,,,,,,,,,,1,3,10,4,,,,,,,,,,,,,,,,,,,,,,,,,,,,,,,,,,,,,,,,1273.6130766998976,None,,,1276.62944825273,None,1.5751322751322752,0.9841435011476278,1276.62944825273,None,,,,,,,1274.6131675359793,None,1274.796544084791,1274.8131362488493,,,,,,,78,001,2023_Apr_19_1404,SpeechDraft1Carolyn_lessNoise_PlusLocalization,2021.2.3,59.98984307654952,
,,,,,,,,center,0.0,6,ch1Sound_localizationTask.wav,0.0,"(952, 878)","(-8,-202)",0,-338,,,,,,,,,,,,,1,4,11,3,,,,,,,,,,,,,,,,,,,,,,,,,,,,,,,,,,,,,,,,1277.6298321257345,None,,,1280.6461332989857,None,1.4952380952380953,0.7653114330023527,1280.6461332989857,None,,,,,,,1278.6296805781312,None,1278.8131069941446,1278.829733231105,,,,,,,78,001,2023_Apr_19_1404,SpeechDraft1Carolyn_lessNoise_PlusLocalization,2021.2.3,59.98984307654952,
,,,,,,,,center,0.0,6,ch1Sound_localizationTask.wav,0.0,"(952, 878)","(-8,-202)",0,-338,,,,,,,,,,,,,1,5,12,3,,,,,,,,,,,,,,,,,,,,,,,,,,,,,,,,,,,,,,,,1281.4131004847586,None,,,1284.4295490779914,None,1.5010582010582012,0.5324880960397422,1284.4295490779914,None,,,,,,,1282.4131086040288,None,1282.59650931973,1282.6130371787585,,,,,,,78,001,2023_Apr_19_1404,SpeechDraft1Carolyn_lessNoise_PlusLocalization,2021.2.3,59.98984307654952,
,,,,,,,,center,0.0,6,ch1Sound_localizationTask.wav,0.0,"(952, 878)","(-8,-202)",0,-338,,,,,,,,,,,,,1,6,13,3,,,,,,,,,,,,,,,,,,,,,,,,,,,,,,,,,,,,,,,,1284.9630896039307,None,,,1287.9797155088745,None,1.5010582010582012,0.44854540890082717,1287.9797155088745,None,,,,,,,1285.9631117517129,None,1286.1464383229613,1286.1631686487235,,,,,,,78,001,2023_Apr_19_1404,SpeechDraft1Carolyn_lessNoise_PlusLocalization,2021.2.3,59.98984307654952,
,,,,,,,,center,0.0,6,ch1Sound_localizationTask.wav,0.0,"(952, 878)","(-8,-202)",0,-338,,,,,,,,,,,,,2,0,14,3,,,,,,,,,,,,,,,,,,,,,,,,,,,,,,,,,,,,,,,,1288.4298658748157,None,,,1291.4461865681224,None,1.4878306878306877,0.5494995340704918,1291.4461865681224,None,,,,,,,1289.4298036000691,None,1289.613222295884,1289.6297999089584,,,,,,,78,001,2023_Apr_19_1404,SpeechDraft1Carolyn_lessNoise_PlusLocalization,2021.2.3,59.98984307654952,
,,,,,,,,midRight,13.0,3,ch1Sound_localizationTask.wav,13.0,"(1142, 878)","(182, -202)",190,-338,,,,,,,,,,,,,2,1,15,5,,,,,,,,,,,,,,,,,,,,,,,,,,,,,,,,,,,,,,,,1291.9966103318147,None,,,1295.0128328688443,None,1.6042328042328042,0.49947524815797806,1295.0128328688443,None,,,,,,,1292.9965359419584,None,1293.179798901081,1293.196700507775,,,,,,,78,001,2023_Apr_19_1404,SpeechDraft1Carolyn_lessNoise_PlusLocalization,2021.2.3,59.98984307654952,
,,,,,,,,center,0.0,6,ch1Sound_localizationTask.wav,0.0,"(952, 878)","(-8,-202)",0,-338,,,,,,,,,,,,,2,2,16,3,,,,,,,,,,,,,,,,,,,,,,,,,,,,,,,,,,,,,,,,1295.5133658517152,None,,,1298.5294638751075,None,1.4867724867724867,0.5485039916820824,1298.5294638751075,None,,,,,,,1296.5131147350185,None,1296.6966134328395,1296.713132779114,,,,,,,78,001,2023_Apr_19_1404,SpeechDraft1Carolyn_lessNoise_PlusLocalization,2021.2.3,59.98984307654952,
,,,,,,,,center,0.0,6,ch1Sound_localizationTask.wav,0.0,"(952, 878)","(-8,-202)",0,-338,,,,,,,,,,,,,2,3,17,3,,,,,,,,,,,,,,,,,,,,,,,,,,,,,,,,,,,,,,,,1299.0798102137633,None,,,1302.096094107721,None,1.505820105820106,0.5496594631113112,1302.096094107721,None,,,,,,,1300.0799720939249,None,1300.2630969281308,1300.279764357023,,,,,,,78,001,2023_Apr_19_1404,SpeechDraft1Carolyn_lessNoise_PlusLocalization,2021.2.3,59.98984307654952,
,,,,,,,,nearRight,6.5,0,ch1Sound_localizationTask.wav,6.5,"(1047, 878)","(87, -202)",95,-338,,,,,,,,,,,,,2,4,18,4,,,,,,,,,,,,,,,,,,,,,,,,,,,,,,,,,,,,,,,,1302.6466029728763,None,,,1305.6628432041034,None,1.5402116402116404,0.5664971438236535,1305.6628432041034,None,,,,,,,1303.6464563459158,None,1303.8297555488534,1303.846468405798,,,,,,,78,001,2023_Apr_19_1404,SpeechDraft1Carolyn_lessNoise_PlusLocalization,2021.2.3,59.98984307654952,
,,,,,,,,nearLeft,-6.5,1,ch1Sound_localizationTask.wav,-6.5,"(857, 878)","(-103,-202)",-95,-338,,,,,,,,,,,,,2,5,19,2,,,,,,,,,,,,,,,,,,,,,,,,,,,,,,,,,,,,,,,,1306.2301183850504,None,,,1309.2462881021202,None,1.4370370370370371,0.516819535754621,1309.2462881021202,None,,,,,,,1307.2298572110012,None,1307.4132805499248,1307.42977976799,,,,,,,78,001,2023_Apr_19_1404,SpeechDraft1Carolyn_lessNoise_PlusLocalization,2021.2.3,59.98984307654952,
,,,,,,,,nearLeft,-6.5,1,ch1Sound_localizationTask.wav,-6.5,"(857, 878)","(-103,-202)",-95,-338,,,,,,,,,,,,,2,6,20,2,,,,,,,,,,,,,,,,,,,,,,,,,,,,,,,,,,,,,,,,1309.779728568159,None,,,1312.7961914339103,None,1.446031746031746,0.4485080102458596,1312.7961914339103,None,,,,,,,1310.7799110319465,None,1310.9631250570528,1310.9800046561286,,,,,,,78,001,2023_Apr_19_1404,SpeechDraft1Carolyn_lessNoise_PlusLocalization,2021.2.3,59.98984307654952,
,,,,,,,,nearLeft,-6.5,1,ch1Sound_localizationTask.wav,-6.5,"(857, 878)","(-103,-202)",-95,-338,,,,,,,,,,,,,3,0,21,2,,,,,,,,,,,,,,,,,,,,,,,,,,,,,,,,,,,,,,,,1313.246757702902,None,,,1316.2628701678477,None,1.446031746031746,0.4492136053740978,1316.2628701678477,None,,,,,,,1314.2464133137837,None,1314.42983276397,1314.4464225620031,,,,,,,78,001,2023_Apr_19_1404,SpeechDraft1Carolyn_lessNoise_PlusLocalization,2021.2.3,59.98984307654952,
,,,,,,,,nearLeft,-6.5,1,ch1Sound_localizationTask.wav,-6.5,"(857, 878)","(-103,-202)",-95,-338,,,,,,,,,,,,,3,1,22,2,,,,,,,,,,,,,,,,,,,,,,,,,,,,,,,,,,,,,,,,1316.7131902379915,None,,,1319.7294015837833,None,1.4518518518518517,0.7333639431744814,1319.7294015837833,None,,,,,,,1317.7131667830981,None,1317.8964445367455,1317.913143879734,,,,,,,78,001,2023_Apr_19_1404,SpeechDraft1Carolyn_lessNoise_PlusLocalization,2021.2.3,59.98984307654952,
,,,,,,,,nearRight,6.5,0,ch1Sound_localizationTask.wav,6.5,"(1047, 878)","(87, -202)",95,-338,,,,,,,,,,,,,3,2,23,4,,,,,,,,,,,,,,,,,,,,,,,,,,,,,,,,,,,,,,,,1320.4633097811602,None,,,1323.4795257439837,None,1.5481481481481483,1.0994625757448375,1323.4795257439837,None,,,,,,,1321.4631315409206,None,1321.6464443407021,1321.6631306759082,,,,,,,78,001,2023_Apr_19_1404,SpeechDraft1Carolyn_lessNoise_PlusLocalization,2021.2.3,59.98984307654952,
,,,,,,,,nearLeft,-6.5,1,ch1Sound_localizationTask.wav,-6.5,"(857, 878)","(-103,-202)",-95,-338,,,,,,,,,,,,,3,3,24,2,,,,,,,,,,,,,,,,,,,,,,,,,,,,,,,,,,,,,,,,1324.5798741048202,None,,,1327.5963624389842,None,1.4650793650793652,0.53302735183388,1327.5963624389842,None,,,,,,,1325.5798103907146,None,1325.7631581630558,1325.7798386211507,,,,,,,78,001,2023_Apr_19_1404,SpeechDraft1Carolyn_lessNoise_PlusLocalization,2021.2.3,59.98984307654952,
,,,,,,,,farRight,19.1,4,ch1Sound_localizationTask.wav,19.1,"(1237, 878)","(277,-202)",285,-338,,,,,,,,,,,,,3,4,25,6,,,,,,,,,,,,,,,,,,,,,,,,,,,,,,,,,,,,,,,,1328.1299096737057,None,,,1331.1462037791498,None,1.6275132275132276,0.5338917756453156,1331.1462037791498,None,,,,,,,1329.1299021318555,None,1329.3132283138111,1329.329867741093,,,,,,,78,001,2023_Apr_19_1404,SpeechDraft1Carolyn_lessNoise_PlusLocalization,2021.2.3,59.98984307654952,
,,,,,,,,midLeft,-13.0,2,ch1Sound_localizationTask.wav,-13.0,"(762, 878)","(-198,-202)",-190,-338,,,,,,,,,,,,,3,5,26,1,,,,,,,,,,,,,,,,,,,,,,,,,,,,,,,,,,,,,,,,1331.6964573208243,None,,,1334.7128720688634,None,1.3857142857142857,0.8498590528033674,1334.7128720688634,None,,,,,,,1332.696488186717,None,1332.8798749758862,1332.8966394057497,,,,,,,78,001,2023_Apr_19_1404,SpeechDraft1Carolyn_lessNoise_PlusLocalization,2021.2.3,59.98984307654952,
,,,,,,,,farRight,19.1,4,ch1Sound_localizationTask.wav,19.1,"(1237, 878)","(277,-202)",285,-338,,,,,,,,,,,,,3,6,27,6,,,,,,,,,,,,,,,,,,,,,,,,,,,,,,,,,,,,,,,,1335.57988630794,None,,,1338.596314445138,None,1.6534391534391535,0.9995701829902828,1338.596314445138,None,,,,,,,1336.579881014768,None,1336.7631566501223,1336.7798608187586,,,,,,,78,001,2023_Apr_19_1404,SpeechDraft1Carolyn_lessNoise_PlusLocalization,2021.2.3,59.98984307654952,
,,,,,,,,farLeft,-19.1,5,ch1Sound_localizationTask.wav,-19.1,"(667, 878)","(-293,-202)",-285,-338,,,,,,,,,,,,,4,0,28,0,,,,,,,,,,,,,,,,,,,,,,,,,,,,,,,,,,,,,,,,1339.5966972569004,None,,,1342.612911584787,None,1.343915343915344,0.9668774479068816,1342.612911584787,None,,,,,,,1340.596554743126,None,1340.7798731219955,1340.7965287170373,,,,,,,78,001,2023_Apr_19_1404,SpeechDraft1Carolyn_lessNoise_PlusLocalization,2021.2.3,59.98984307654952,
,,,,,,,,midLeft,-13.0,2,ch1Sound_localizationTask.wav,-13.0,"(762, 878)","(-198,-202)",-190,-338,,,,,,,,,,,,,4,1,29,1,,,,,,,,,,,,,,,,,,,,,,,,,,,,,,,,,,,,,,,,1343.5966342859901,None,,,1346.6129560549743,None,1.416931216931217,0.7160562770441175,1346.6129560549743,None,,,,,,,1344.5966713749804,None,1344.7799363327213,1344.7965495348908,,,,,,,78,001,2023_Apr_19_1404,SpeechDraft1Carolyn_lessNoise_PlusLocalization,2021.2.3,59.98984307654952,
,,,,,,,,farRight,19.1,4,ch1Sound_localizationTask.wav,19.1,"(1237, 878)","(277,-202)",285,-338,,,,,,,,,,,,,4,2,30,6,,,,,,,,,,,,,,,,,,,,,,,,,,,,,,,,,,,,,,,,1347.3298848420382,None,,,1350.3463339228183,None,1.665079365079365,0.7994534969329834,1350.3463339228183,None,,,,,,,1348.3298282870091,None,1348.5131176989526,1348.5298386961222,,,,,,,78,001,2023_Apr_19_1404,SpeechDraft1Carolyn_lessNoise_PlusLocalization,2021.2.3,59.98984307654952,
,,,,,,,,nearRight,6.5,0,ch1Sound_localizationTask.wav,6.5,"(1047, 878)","(87, -202)",95,-338,,,,,,,,,,,,,4,3,31,4,,,,,,,,,,,,,,,,,,,,,,,,,,,,,,,,,,,,,,,,1351.1469081207179,None,,,1354.1629082798027,None,1.5148148148148148,0.8328292858786881,1354.1629082798027,None,,,,,,,1352.1466077021323,None,1352.3299255478196,1352.3466017628089,,,,,,,78,001,2023_Apr_19_1404,SpeechDraft1Carolyn_lessNoise_PlusLocalization,2021.2.3,59.98984307654952,
,,,,,,,,midLeft,-13.0,2,ch1Sound_localizationTask.wav,-13.0,"(762, 878)","(-198,-202)",-190,-338,,,,,,,,,,,,,4,4,32,1,,,,,,,,,,,,,,,,,,,,,,,,,,,,,,,,,,,,,,,,1354.9966291240416,None,,,1358.012975527905,None,1.4164021164021166,1.1812582560814917,1358.012975527905,None,,,,,,,1355.9964898531325,None,1356.179843516089,1356.1965796677396,,,,,,,78,001,2023_Apr_19_1404,SpeechDraft1Carolyn_lessNoise_PlusLocalization,2021.2.3,59.98984307654952,
,,,,,,,,farLeft,-19.1,5,ch1Sound_localizationTask.wav,-19.1,"(667, 878)","(-293,-202)",-285,-338,,,,,,,,,,,,,4,5,33,0,,,,,,,,,,,,,,,,,,,,,,,,,,,,,,,,,,,,,,,,1359.196488098707,None,,,1362.2128083719872,None,1.2788359788359789,0.7835817122831941,1362.2128083719872,None,,,,,,,1360.1964925299399,None,1360.379885544069,1360.3965742979199,,,,,,,78,001,2023_Apr_19_1404,SpeechDraft1Carolyn_lessNoise_PlusLocalization,2021.2.3,59.98984307654952,
,,,,,,,,nearLeft,-6.5,1,ch1Sound_localizationTask.wav,-6.5,"(857, 878)","(-103,-202)",-95,-338,,,,,,,,,,,,,4,6,34,2,,,,,,,,,,,,,,,,,,,,,,,,,,,,,,,,,,,,,,,,1363.013258669991,None,,,1366.0295906891115,None,1.4052910052910053,0.7161859520711005,1366.0295906891115,None,,,,,,,1364.0131790158339,None,1364.1965565597638,1364.21317869192,,,,,,,78,001,2023_Apr_19_1404,SpeechDraft1Carolyn_lessNoise_PlusLocalization,2021.2.3,59.98984307654952,
,,,,,,,,nearRight,6.5,0,ch1Sound_localizationTask.wav,6.5,"(1047, 878)","(87, -202)",95,-338,,,,,,,,,,,,,5,0,35,4,,,,,,,,,,,,,,,,,,,,,,,,,,,,,,,,,,,,,,,,1366.7470074151643,None,,,1369.762955314014,None,1.5587301587301587,0.8319798689335585,1369.762955314014,None,,,,,,,1367.746602460742,None,1367.929923160933,1367.9466127580963,,,,,,,78,001,2023_Apr_19_1404,SpeechDraft1Carolyn_lessNoise_PlusLocalization,2021.2.3,59.98984307654952,
,,,,,,,,farRight,19.1,4,ch1Sound_localizationTask.wav,19.1,"(1237, 878)","(277,-202)",285,-338,,,,,,,,,,,,,5,1,36,6,,,,,,,,,,,,,,,,,,,,,,,,,,,,,,,,,,,,,,,,1370.5965934530832,None,,,1373.61297345208,None,1.6656084656084655,0.8491588281467557,1373.61297345208,None,,,,,,,1371.5965841109864,None,1371.7798950267024,1371.796472594142,,,,,,,78,001,2023_Apr_19_1404,SpeechDraft1Carolyn_lessNoise_PlusLocalization,2021.2.3,59.98984307654952,
,,,,,,,,midRight,13.0,3,ch1Sound_localizationTask.wav,13.0,"(1142, 878)","(182, -202)",190,-338,,,,,,,,,,,,,5,2,37,5,,,,,,,,,,,,,,,,,,,,,,,,,,,,,,,,,,,,,,,,1374.4637587317266,None,,,1377.4796545160934,None,1.6169312169312169,0.5663610468618572,1377.4796545160934,None,,,,,,,1375.463189872913,None,1375.64662333671,1375.6632649339736,,,,,,,78,001,2023_Apr_19_1404,SpeechDraft1Carolyn_lessNoise_PlusLocalization,2021.2.3,59.98984307654952,
,,,,,,,,farLeft,-19.1,5,ch1Sound_localizationTask.wav,-19.1,"(667, 878)","(-293,-202)",-285,-338,,,,,,,,,,,,,5,3,38,0,,,,,,,,,,,,,,,,,,,,,,,,,,,,,,,,,,,,,,,,1378.0631416859105,None,,,1381.0796892927028,None,1.3232804232804232,0.8661836897954345,1381.0796892927028,None,,,,,,,1379.0632315450348,None,1379.2465502978303,1379.2632260057144,,,,,,,78,001,2023_Apr_19_1404,SpeechDraft1Carolyn_lessNoise_PlusLocalization,2021.2.3,59.98984307654952,
,,,,,,,,midRight,13.0,3,ch1Sound_localizationTask.wav,13.0,"(1142, 878)","(182, -202)",190,-338,,,,,,,,,,,,,5,4,39,5,,,,,,,,,,,,,,,,,,,,,,,,,,,,,,,,,,,,,,,,1381.9467013468966,None,,,1384.9629865498282,None,1.5666666666666667,0.7497780029661953,1384.9629865498282,None,,,,,,,1382.9465523110703,None,1383.1300216089003,1383.146561220754,,,,,,,78,001,2023_Apr_19_1404,SpeechDraft1Carolyn_lessNoise_PlusLocalization,2021.2.3,59.98984307654952,
,,,,,,,,nearRight,6.5,0,ch1Sound_localizationTask.wav,6.5,"(1047, 878)","(87, -202)",95,-338,,,,,,,,,,,,,5,5,40,4,,,,,,,,,,,,,,,,,,,,,,,,,,,,,,,,,,,,,,,,1385.7299824198708,None,,,1388.7463783309795,None,1.5597883597883597,0.732956079300493,1388.7463783309795,None,,,,,,,1386.7299641328864,None,1386.913336534053,1386.9298188751563,,,,,,,78,001,2023_Apr_19_1404,SpeechDraft1Carolyn_lessNoise_PlusLocalization,2021.2.3,59.98984307654952,
,,,,,,,,farLeft,-19.1,5,ch1Sound_localizationTask.wav,-19.1,"(667, 878)","(-293,-202)",-285,-338,,,,,,,,,,,,,5,6,41,0,,,,,,,,,,,,,,,,,,,,,,,,,,,,,,,,,,,,,,,,1389.4799503460526,None,,,1392.496382509824,None,1.335978835978836,0.999717416241765,1392.496382509824,None,,,,,,,1390.4799427101389,None,1390.6632614377886,1390.6799286240712,,,,,,,78,001,2023_Apr_19_1404,SpeechDraft1Carolyn_lessNoise_PlusLocalization,2021.2.3,59.98984307654952,
,,,,,,,,farRight,19.1,4,ch1Sound_localizationTask.wav,19.1,"(1237, 878)","(277,-202)",285,-338,,,,,,,,,,,,,6,0,42,6,,,,,,,,,,,,,,,,,,,,,,,,,,,,,,,,,,,,,,,,1393.5134072327055,None,,,1396.5296156867407,None,1.6365079365079365,1.1332966340705752,1396.5296156867407,None,,,,,,,1394.513248379808,None,1394.696519501973,1394.7132157757878,,,,,,,78,001,2023_Apr_19_1404,SpeechDraft1Carolyn_lessNoise_PlusLocalization,2021.2.3,59.98984307654952,
,,,,,,,,nearRight,6.5,0,ch1Sound_localizationTask.wav,6.5,"(1047, 878)","(87, -202)",95,-338,,,,,,,,,,,,,6,1,43,4,,,,,,,,,,,,,,,,,,,,,,,,,,,,,,,,,,,,,,,,1397.680027578026,None,,,1400.696382416878,None,1.5465608465608467,0.5832025445997715,1400.696382416878,None,,,,,,,1398.679973213002,None,1398.863253633026,1398.879968221765,,,,,,,78,001,2023_Apr_19_1404,SpeechDraft1Carolyn_lessNoise_PlusLocalization,2021.2.3,59.98984307654952,
,,,,,,,,midRight,13.0,3,ch1Sound_localizationTask.wav,13.0,"(1142, 878)","(182, -202)",190,-338,,,,,,,,,,,,,6,2,44,5,,,,,,,,,,,,,,,,,,,,,,,,,,,,,,,,,,,,,,,,1401.280410497915,None,,,1404.2963135559112,None,1.6354497354497355,0.5328395017422736,1404.2963135559112,None,,,,,,,1402.2798692220822,None,1402.4632242340595,1402.4799091010354,,,,,,,78,001,2023_Apr_19_1404,SpeechDraft1Carolyn_lessNoise_PlusLocalization,2021.2.3,59.98984307654952,
,,,,,,,,midRight,13.0,3,ch1Sound_localizationTask.wav,13.0,"(1142, 878)","(182, -202)",190,-338,,,,,,,,,,,,,6,3,45,5,,,,,,,,,,,,,,,,,,,,,,,,,,,,,,,,,,,,,,,,1404.830420435872,None,,,1407.846209952142,None,1.6063492063492064,0.733122375793755,1407.846209952142,None,,,,,,,1405.8300996427424,None,1406.0132904639468,1406.0298876897432,,,,,,,78,001,2023_Apr_19_1404,SpeechDraft1Carolyn_lessNoise_PlusLocalization,2021.2.3,59.98984307654952,
,,,,,,,,midRight,13.0,3,ch1Sound_localizationTask.wav,13.0,"(1142, 878)","(182, -202)",190,-338,,,,,,,,,,,,,6,4,46,5,,,,,,,,,,,,,,,,,,,,,,,,,,,,,,,,,,,,,,,,1408.5808642948978,None,,,1411.596293460112,None,1.607936507936508,0.44961252389475703,1411.596293460112,None,,,,,,,1409.5799437309615,None,1409.7633564397693,1409.779914677143,,,,,,,78,001,2023_Apr_19_1404,SpeechDraft1Carolyn_lessNoise_PlusLocalization,2021.2.3,59.98984307654952,
,,,,,,,,midLeft,-13.0,2,ch1Sound_localizationTask.wav,-13.0,"(762, 878)","(-198,-202)",-190,-338,,,,,,,,,,,,,6,5,47,1,,,,,,,,,,,,,,,,,,,,,,,,,,,,,,,,,,,,,,,,1412.0471043731086,None,,,1415.06295858277,None,1.4042328042328043,0.5499524450860918,1415.06295858277,None,,,,,,,1413.0466159838252,None,1413.2298755431548,1413.2466355338693,,,,,,,78,001,2023_Apr_19_1404,SpeechDraft1Carolyn_lessNoise_PlusLocalization,2021.2.3,59.98984307654952,
,,,,,,,,midRight,13.0,3,ch1Sound_localizationTask.wav,13.0,"(1142, 878)","(182, -202)",190,-338,,,,,,,,,,,,,6,6,48,5,,,,,,,,,,,,,,,,,,,,,,,,,,,,,,,,,,,,,,,,1415.6135174748488,None,,,1418.629646005109,None,1.5677248677248676,0.550101803150028,1418.629646005109,None,,,,,,,1416.613307512831,None,1416.796637720894,1416.8134992779233,,,,,,,78,001,2023_Apr_19_1404,SpeechDraft1Carolyn_lessNoise_PlusLocalization,2021.2.3,59.98984307654952,
,,,,,,,,farRight,19.1,4,ch1Sound_localizationTask.wav,19.1,"(1237, 878)","(277,-202)",285,-338,,,,,,,,,,,,,7,0,49,6,,,,,,,,,,,,,,,,,,,,,,,,,,,,,,,,,,,,,,,,1419.1814524848014,None,,,1422.2130016600713,None,1.6592592592592592,0.49979845713824034,1422.2130016600713,None,,,,,,,1420.1967125870287,None,1420.3799374639057,1420.3967200340703,,,,,,,78,001,2023_Apr_19_1404,SpeechDraft1Carolyn_lessNoise_PlusLocalization,2021.2.3,59.98984307654952,
,,,,,,,,midLeft,-13.0,2,ch1Sound_localizationTask.wav,-13.0,"(762, 878)","(-198,-202)",-190,-338,,,,,,,,,,,,,7,1,50,1,,,,,,,,,,,,,,,,,,,,,,,,,,,,,,,,,,,,,,,,1422.7133497167379,None,,,1425.7296745078638,None,1.3825396825396825,0.7994464603252709,1425.7296745078638,None,,,,,,,1423.713453893084,None,1423.8965897979215,1423.9132436080836,,,,,,,78,001,2023_Apr_19_1404,SpeechDraft1Carolyn_lessNoise_PlusLocalization,2021.2.3,59.98984307654952,
,,,,,,,,farRight,19.1,4,ch1Sound_localizationTask.wav,19.1,"(1237, 878)","(277,-202)",285,-338,,,,,,,,,,,,,7,2,51,6,,,,,,,,,,,,,,,,,,,,,,,,,,,,,,,,,,,,,,,,1426.5303560909815,None,,,1429.5464031267911,None,1.6666666666666667,0.6829235958866775,1429.5464031267911,None,,,,,,,1427.5301484209485,None,1427.7132352581248,1427.7299897978082,,,,,,,78,001,2023_Apr_19_1404,SpeechDraft1Carolyn_lessNoise_PlusLocalization,2021.2.3,59.98984307654952,
,,,,,,,,midLeft,-13.0,2,ch1Sound_localizationTask.wav,-13.0,"(762, 878)","(-198,-202)",-190,-338,,,,,,,,,,,,,7,3,52,1,,,,,,,,,,,,,,,,,,,,,,,,,,,,,,,,,,,,,,,,1430.2298804158345,None,,,1433.2463394971564,None,1.3888888888888888,0.9651019708253443,1433.2463394971564,None,,,,,,,1431.2299525649287,None,1431.4134267508052,1431.4299775310792,,,,,,,78,001,2023_Apr_19_1404,SpeechDraft1Carolyn_lessNoise_PlusLocalization,2021.2.3,59.98984307654952,
,,,,,,,,center,0.0,6,ch1Sound_localizationTask.wav,0.0,"(952, 878)","(-8,-202)",0,-338,,,,,,,,,,,,,7,4,53,3,,,,,,,,,,,,,,,,,,,,,,,,,,,,,,,,,,,,,,,,1434.2134022247046,None,,,1437.22969171172,None,1.4968253968253968,0.7155828299000859,1437.22969171172,None,,,,,,,1435.2133253738284,None,1435.3967098998837,1435.413341073785,,,,,,,78,001,2023_Apr_19_1404,SpeechDraft1Carolyn_lessNoise_PlusLocalization,2021.2.3,59.98984307654952,
,,,,,,,,farLeft,-19.1,5,ch1Sound_localizationTask.wav,-19.1,"(667, 878)","(-293,-202)",-285,-338,,,,,,,,,,,,,7,5,54,0,,,,,,,,,,,,,,,,,,,,,,,,,,,,,,,,,,,,,,,,1437.946583810728,None,,,1440.9632677617483,None,1.283068783068783,0.8977351658977568,1440.9632677617483,None,,,,,,,1438.946793322917,None,1439.1300291069783,1439.1466856170446,,,,,,,78,001,2023_Apr_19_1404,SpeechDraft1Carolyn_lessNoise_PlusLocalization,2021.2.3,59.98984307654952,
,,,,,,,,nearLeft,-6.5,1,ch1Sound_localizationTask.wav,-6.5,"(857, 878)","(-103,-202)",-95,-338,,,,,,,,,,,,,7,6,55,2,,,,,,,,,,,,,,,,,,,,,,,,,,,,,,,,,,,,,,,,1441.8640487859957,None,,,1444.8797088447027,None,1.4322751322751324,0.7657670779153705,1444.8797088447027,None,,,,,,,1442.8633526801132,None,1443.0466655460186,1443.0635209400207,,,,,,,78,001,2023_Apr_19_1404,SpeechDraft1Carolyn_lessNoise_PlusLocalization,2021.2.3,59.98984307654952,
,,,,,,,,,,,,,,,,,,,,,,,,,,,,,,,,,,,,,,,,,,,,,,,,,,,,,,,,,,,,,,,,,,,,,,,,,,,,,,,,,,,,,,,,,,,,1445.6466200910509,None,c,1973.8653738917783,1446.630068372935,None,78,001,2023_Apr_19_1404,SpeechDraft1Carolyn_lessNoise_PlusLocalization,2021.2.3,59.98984307654952,
