Audio_Only_Files,Video_Files,Original_Word_List,noiseLevelCode,conditionCodes,noiseLevelFile1,noiseLevelFile2,InstrTextVar,targetSpeakerName,targetSpeakerEccen,targetSpkrChannel,targetSpkrSound,targetVisualDegrees,visStimLoc,visStimLoc2,visStimW,visStimH,practiceTrials.thisRepN,practiceTrials.thisTrialN,practiceTrials.thisN,practiceTrials.thisIndex,trials.thisRepN,trials.thisTrialN,trials.thisN,trials.thisIndex,audLocalLoop.thisRepN,audLocalLoop.thisTrialN,audLocalLoop.thisN,audLocalLoop.thisIndex,visualLocalLoop.thisRepN,visualLocalLoop.thisTrialN,visualLocalLoop.thisN,visualLocalLoop.thisIndex,letsGoAlready.keys,letsGoAlready.rt,letsGoAlready.started,letsGoAlready.stopped,text_2.started,text_2.stopped,text_3.started,text_3.stopped,key_resp_2.keys,key_resp_2.rt,key_resp_2.started,key_resp_2.stopped,text_5.started,text_5.stopped,fixCross.started,fixCross.stopped,fixCross2.started,fixCross2.stopped,answerPrompt.started,answerPrompt.stopped,getAnswer.text,getAnswer.started,getAnswer.stopped,goToNext.keys,goToNext.rt,goToNext.started,goToNext.stopped,stretchBreakTxrt.started,stretchBreakTxrt.stopped,key_resp_3.keys,key_resp_3.rt,key_resp_3.started,key_resp_3.stopped,letsGoLocal.keys,letsGoLocal.rt,letsGoLocal.started,letsGoLocal.stopped,text_4.started,text_4.stopped,prepFixTxt.started,prepFixTxt.stopped,prepFixTxt_2.started,prepFixTxt_2.stopped,respPromptLocal.started,respPromptLocal.stopped,slider.response,slider.rt,slider.started,slider.stopped,letsGoLocal_2.keys,letsGoLocal_2.rt,letsGoLocal_2.started,letsGoLocal_2.stopped,text_7.started,text_7.stopped,prepFixTxt_3.started,prepFixTxt_3.stopped,grating.started,grating.stopped,exitTxt.started,exitTxt.stopped,key_resp.keys,key_resp.rt,key_resp.started,key_resp.stopped,participant,session,date,expName,psychopyVersion,frameRate,
,,,,,,,,,,,,,,,,,,,,,,,,,,,,,,,,,space,18.233282256871462,16.46741284010932,None,,,,,,,,,,,,,,,,,,,,,,,,,,,,,,,,,,,,,,,,,,,,,,,,,,,,,,,,,,,,,,83,001,2023_Apr_24_1944,SpeechDraft1Carolyn_lessNoise_PlusLocalization,2021.2.3,59.980820515271546,
,,,,,,,,,,,,,,,,,,,,,,,,,,,,,,,,,,,,,16.46741284010932,None,34.83362856693566,None,space,9.827445901930332,35.01728714397177,None,,,,,,,,,,,,,,,,,,,,,,,,,,,,,,,,,,,,,,,,,,,,,,,,,,,,,,83,001,2023_Apr_24_1944,SpeechDraft1Carolyn_lessNoise_PlusLocalization,2021.2.3,59.980820515271546,
ash.wav,ash.mpg,ash,1,A,Pink_Noise_1_1.wav,Pink_Noise_1_2.wav,"This is an example of an

AUDIO trial",,,,,,,,,,0,0,0,0,,,,,,,,,,,,,,,,,,,,,,,,,44.8842086000368,None,45.88393014203757,None,49.10041111614555,None,50.48581091919914,None,ash,50.48581091919914,None,return,5.125373255927116,50.56730899401009,None,,,,,,,,,,,,,,,,,,,,,,,,,,,,,,,,,,,,,,,83,001,2023_Apr_24_1944,SpeechDraft1Carolyn_lessNoise_PlusLocalization,2021.2.3,59.980820515271546,
ash.wav,ash.mpg,ash,1,AV,Pink_Noise_1_1.wav,Pink_Noise_1_2.wav,"This is an example of an

AUDIO + VIDEO  trial",,,,,,,,,,0,1,1,1,,,,,,,,,,,,,,,,,,,,,,,,,55.733627883251756,None,56.73398317024112,None,58.21695295115933,None,59.60060042189434,None,"ash
",59.60060042189434,None,return,3.536721650045365,59.68397238617763,None,,,,,,,,,,,,,,,,,,,,,,,,,,,,,,,,,,,,,,,83,001,2023_Apr_24_1944,SpeechDraft1Carolyn_lessNoise_PlusLocalization,2021.2.3,59.980820515271546,
,,,,,,,,,,,,,,,,,,,,,,,,,,,,,,,,,,,,,,,,,,,,,,,,,,,,,,,,,,,,63.266945854295045,None,space,8.17805717419833,63.450662191957235,None,,,,,,,,,,,,,,,,,,,,,,,,,,,,,,,,,83,001,2023_Apr_24_1944,SpeechDraft1Carolyn_lessNoise_PlusLocalization,2021.2.3,59.980820515271546,
fleet.wav,fleet.mpg,fleet,6,A,Pink_Noise_6_1.wav,Pink_Noise_6_2.wav,,,,,,,,,,,,,,,0,0,0,57,,,,,,,,,,,,,,,,,,,,,,,71.68359222216532,None,73.16701071197167,None,74.55070627806708,None,,74.55070627806708,None,return,4.26676483405754,74.63396828388795,None,,,,,,,,,,,,,,,,,,,,,,,,,,,,,,,,,,,,,,,83,001,2023_Apr_24_1944,SpeechDraft1Carolyn_lessNoise_PlusLocalization,2021.2.3,59.980820515271546,
priest.wav,priest.mpg,priest,4,AV,Pink_Noise_4_1.wav,Pink_Noise_4_2.wav,,,,,,,,,,,,,,,0,1,1,91,,,,,,,,,,,,,,,,,,,,,,,78.91737588588148,None,80.41713315621018,None,81.80067790020257,None,priest,81.80067790020257,None,return,3.1607055230997503,81.8839802001603,None,,,,,,,,,,,,,,,,,,,,,,,,,,,,,,,,,,,,,,,83,001,2023_Apr_24_1944,SpeechDraft1Carolyn_lessNoise_PlusLocalization,2021.2.3,59.980820515271546,
greed.wav,greed.mpg,greed,1,AV,Pink_Noise_1_1.wav,Pink_Noise_1_2.wav,,,,,,,,,,,,,,,0,2,2,70,,,,,,,,,,,,,,,,,,,,,,,85.06734441686422,None,86.56704373890534,None,87.95066671818495,None,greed,87.95066671818495,None,return,2.0828503840602934,88.03391435509548,None,,,,,,,,,,,,,,,,,,,,,,,,,,,,,,,,,,,,,,,83,001,2023_Apr_24_1944,SpeechDraft1Carolyn_lessNoise_PlusLocalization,2021.2.3,59.980820515271546,
brisk.wav,brisk.mpg,brisk,2,A,Pink_Noise_2_1.wav,Pink_Noise_2_2.wav,,,,,,,,,,,,,,,0,3,3,19,,,,,,,,,,,,,,,,,,,,,,,90.13419289607555,None,91.63381204893813,None,93.01736663701013,None,brisk,93.01736663701013,None,return,4.032142164185643,93.10069977492094,None,,,,,,,,,,,,,,,,,,,,,,,,,,,,,,,,,,,,,,,83,001,2023_Apr_24_1944,SpeechDraft1Carolyn_lessNoise_PlusLocalization,2021.2.3,59.980820515271546,
bottle.wav,bottle.mpg,bottle,3,A,Pink_Noise_3_1.wav,Pink_Noise_3_2.wav,,,,,,,,,,,,,,,0,4,4,7,,,,,,,,,,,,,,,,,,,,,,,97.1507419529371,None,98.65035603707656,None,100.03402137104422,None,bottom,100.03402137104422,None,return,4.999340089969337,100.11741586215794,None,,,,,,,,,,,,,,,,,,,,,,,,,,,,,,,,,,,,,,,83,001,2023_Apr_24_1944,SpeechDraft1Carolyn_lessNoise_PlusLocalization,2021.2.3,59.980820515271546,
thorn.wav,thorn.mpg,thorn,1,AV,Pink_Noise_1_1.wav,Pink_Noise_1_2.wav,,,,,,,,,,,,,,,0,5,5,112,,,,,,,,,,,,,,,,,,,,,,,105.1340282279998,None,106.61809815093875,None,108.0005668872036,None,thorn,108.0005668872036,None,return,2.048680943902582,108.08408433198929,None,,,,,,,,,,,,,,,,,,,,,,,,,,,,,,,,,,,,,,,83,001,2023_Apr_24_1944,SpeechDraft1Carolyn_lessNoise_PlusLocalization,2021.2.3,59.980820515271546,
beg.wav,beg.mpg,beg,6,AV,Pink_Noise_6_1.wav,Pink_Noise_6_2.wav,,,,,,,,,,,,,,,0,6,6,95,,,,,,,,,,,,,,,,,,,,,,,110.15071596112102,None,111.65045782225206,None,113.03397728409618,None,bay,113.03397728409618,None,return,1.823417015839368,113.11738239694387,None,,,,,,,,,,,,,,,,,,,,,,,,,,,,,,,,,,,,,,,83,001,2023_Apr_24_1944,SpeechDraft1Carolyn_lessNoise_PlusLocalization,2021.2.3,59.980820515271546,
draft.wav,draft.mpg,draft,3,A,Pink_Noise_3_1.wav,Pink_Noise_3_2.wav,,,,,,,,,,,,,,,0,7,7,22,,,,,,,,,,,,,,,,,,,,,,,114.96732630301267,None,116.4515273720026,None,117.83404143899679,None,dread,117.83404143899679,None,return,1.0313808037899435,117.9173628189601,None,,,,,,,,,,,,,,,,,,,,,,,,,,,,,,,,,,,,,,,83,001,2023_Apr_24_1944,SpeechDraft1Carolyn_lessNoise_PlusLocalization,2021.2.3,59.980820515271546,
frame.wav,frame.mpg,frame,2,A,Pink_Noise_2_1.wav,Pink_Noise_2_2.wav,,,,,,,,,,,,,,,0,8,8,46,,,,,,,,,,,,,,,,,,,,,,,118.96735206898302,None,120.46707273786888,None,121.85074377106503,None,"fray
",121.85074377106503,None,return,4.886537242215127,121.93416712200269,None,,,,,,,,,,,,,,,,,,,,,,,,,,,,,,,,,,,,,,,83,001,2023_Apr_24_1944,SpeechDraft1Carolyn_lessNoise_PlusLocalization,2021.2.3,59.980820515271546,
dream.wav,dream.mpg,dream,4,A,Pink_Noise_4_1.wav,Pink_Noise_4_2.wav,,,,,,,,,,,,,,,0,9,9,49,,,,,,,,,,,,,,,,,,,,,,,126.85074627632275,None,128.35044461721554,None,129.73410304589197,None,"drea,",129.73410304589197,None,return,1.1792531171813607,129.8174417503178,None,,,,,,,,,,,,,,,,,,,,,,,,,,,,,,,,,,,,,,,83,001,2023_Apr_24_1944,SpeechDraft1Carolyn_lessNoise_PlusLocalization,2021.2.3,59.980820515271546,
goal.wav,goal.mpg,goal,2,A,Pink_Noise_2_1.wav,Pink_Noise_2_2.wav,,,,,,,,,,,,,,,0,10,10,55,,,,,,,,,,,,,,,,,,,,,,,131.01742256386206,None,132.50200925488025,None,133.88409902807325,None,"gold
",133.88409902807325,None,return,6.269246820826083,133.96746537089348,None,,,,,,,,,,,,,,,,,,,,,,,,,,,,,,,,,,,,,,,83,001,2023_Apr_24_1944,SpeechDraft1Carolyn_lessNoise_PlusLocalization,2021.2.3,59.980820515271546,
flaw.wav,flaw.mpg,flaw,5,A,Pink_Noise_5_1.wav,Pink_Noise_5_2.wav,,,,,,,,,,,,,,,0,11,11,13,,,,,,,,,,,,,,,,,,,,,,,140.26749639306217,None,141.76710836216807,None,143.15089871827513,None,law,143.15089871827513,None,return,1.5466503030620515,143.23412677505985,None,,,,,,,,,,,,,,,,,,,,,,,,,,,,,,,,,,,,,,,83,001,2023_Apr_24_1944,SpeechDraft1Carolyn_lessNoise_PlusLocalization,2021.2.3,59.980820515271546,
cuff.wav,cuff.mpg,cuff,4,AV,Pink_Noise_4_1.wav,Pink_Noise_4_2.wav,,,,,,,,,,,,,,,0,12,12,107,,,,,,,,,,,,,,,,,,,,,,,144.80077953729779,None,146.2858127290383,None,147.66736352723092,None,cough,147.66736352723092,None,return,1.0539603251963854,147.75075857620686,None,,,,,,,,,,,,,,,,,,,,,,,,,,,,,,,,,,,,,,,83,001,2023_Apr_24_1944,SpeechDraft1Carolyn_lessNoise_PlusLocalization,2021.2.3,59.980820515271546,
wound.wav,wound.mpg,wound,3,A,Pink_Noise_3_1.wav,Pink_Noise_3_2.wav,,,,,,,,,,,,,,,0,13,13,48,,,,,,,,,,,,,,,,,,,,,,,148.8341311221011,None,150.33370434399694,None,151.71761927986518,None,"wound
",151.71761927986518,None,return,0.6680108141154051,151.8006955110468,None,,,,,,,,,,,,,,,,,,,,,,,,,,,,,,,,,,,,,,,83,001,2023_Apr_24_1944,SpeechDraft1Carolyn_lessNoise_PlusLocalization,2021.2.3,59.980820515271546,
pride.wav,pride.mpg,pride,6,AV,Pink_Noise_6_1.wav,Pink_Noise_6_2.wav,,,,,,,,,,,,,,,0,14,14,108,,,,,,,,,,,,,,,,,,,,,,,152.50067675299942,None,153.98496574629098,None,155.36742557305843,None,pride,155.36742557305843,None,return,0.7619014289230108,155.4507936979644,None,,,,,,,,,,,,,,,,,,,,,,,,,,,,,,,,,,,,,,,83,001,2023_Apr_24_1944,SpeechDraft1Carolyn_lessNoise_PlusLocalization,2021.2.3,59.980820515271546,
dwell.wav,dwell.mpg,dwell,2,AV,Pink_Noise_2_1.wav,Pink_Noise_2_2.wav,,,,,,,,,,,,,,,0,15,15,75,,,,,,,,,,,,,,,,,,,,,,,156.23419267497957,None,157.7338189780712,None,159.10081110009924,None,dwell,159.10081110009924,None,return,1.4125821399502456,159.18411220191047,None,,,,,,,,,,,,,,,,,,,,,,,,,,,,,,,,,,,,,,,83,001,2023_Apr_24_1944,SpeechDraft1Carolyn_lessNoise_PlusLocalization,2021.2.3,59.980820515271546,
bend.wav,bend.mpg,bend,3,AV,Pink_Noise_3_1.wav,Pink_Noise_3_2.wav,,,,,,,,,,,,,,,0,16,16,65,,,,,,,,,,,,,,,,,,,,,,,160.6173557541333,None,162.1026660669595,None,163.4840951571241,None,bend,163.4840951571241,None,return,0.73328817775473,163.56743010412902,None,,,,,,,,,,,,,,,,,,,,,,,,,,,,,,,,,,,,,,,83,001,2023_Apr_24_1944,SpeechDraft1Carolyn_lessNoise_PlusLocalization,2021.2.3,59.980820515271546,
dress.wav,dress.mpg,dress,4,A,Pink_Noise_4_1.wav,Pink_Noise_4_2.wav,,,,,,,,,,,,,,,0,17,17,2,,,,,,,,,,,,,,,,,,,,,,,164.31747248908505,None,165.8172111469321,None,167.184120524209,None,"dress
",167.184120524209,None,return,3.217219719197601,167.26747410930693,None,,,,,,,,,,,,,,,,,,,,,,,,,,,,,,,,,,,,,,,83,001,2023_Apr_24_1944,SpeechDraft1Carolyn_lessNoise_PlusLocalization,2021.2.3,59.980820515271546,
dial.wav,dial.mpg,dial,2,AV,Pink_Noise_2_1.wav,Pink_Noise_2_2.wav,,,,,,,,,,,,,,,0,18,18,94,,,,,,,,,,,,,,,,,,,,,,,170.51737464917824,None,172.01710106013343,None,173.40070251422003,None,dail,173.40070251422003,None,return,2.296641960274428,173.48415123904124,None,,,,,,,,,,,,,,,,,,,,,,,,,,,,,,,,,,,,,,,83,001,2023_Apr_24_1944,SpeechDraft1Carolyn_lessNoise_PlusLocalization,2021.2.3,59.980820515271546,
check.wav,check.mpg,check,3,AV,Pink_Noise_3_1.wav,Pink_Noise_3_2.wav,,,,,,,,,,,,,,,0,19,19,118,,,,,,,,,,,,,,,,,,,,,,,175.80085895815864,None,177.30062464810908,None,178.6840385030955,None,check,178.6840385030955,None,return,3.6051960890181363,178.76757028792053,None,,,,,,,,,,,,,,,,,,,,,,,,,,,,,,,,,,,,,,,83,001,2023_Apr_24_1944,SpeechDraft1Carolyn_lessNoise_PlusLocalization,2021.2.3,59.980820515271546,
bland.wav,bland.mpg,bland,6,A,Pink_Noise_6_1.wav,Pink_Noise_6_2.wav,,,,,,,,,,,,,,,0,20,20,50,,,,,,,,,,,,,,,,,,,,,,,182.4009417789057,None,183.9004325880669,None,185.2842038818635,None,drain,185.2842038818635,None,return,2.4932080446742475,185.36749332631007,None,,,,,,,,,,,,,,,,,,,,,,,,,,,,,,,,,,,,,,,83,001,2023_Apr_24_1944,SpeechDraft1Carolyn_lessNoise_PlusLocalization,2021.2.3,59.980820515271546,
dense.wav,dense.mpg,dense,6,A,Pink_Noise_6_1.wav,Pink_Noise_6_2.wav,,,,,,,,,,,,,,,0,21,21,43,,,,,,,,,,,,,,,,,,,,,,,187.88419558200985,None,189.38388400804251,None,190.76748563814908,None,drisk?,190.76748563814908,None,return,10.849953933153301,190.85079752327874,None,,,,,,,,,,,,,,,,,,,,,,,,,,,,,,,,,,,,,,,83,001,2023_Apr_24_1944,SpeechDraft1Carolyn_lessNoise_PlusLocalization,2021.2.3,59.980820515271546,
freak.wav,freak.mpg,freak,3,AV,Pink_Noise_3_1.wav,Pink_Noise_3_2.wav,,,,,,,,,,,,,,,0,22,22,103,,,,,,,,,,,,,,,,,,,,,,,201.71746039390564,None,203.21723458822817,None,204.60077003808692,None,freak,204.60077003808692,None,return,1.304575651884079,204.68419243302196,None,,,,,,,,,,,,,,,,,,,,,,,,,,,,,,,,,,,,,,,83,001,2023_Apr_24_1944,SpeechDraft1Carolyn_lessNoise_PlusLocalization,2021.2.3,59.980820515271546,
stain.wav,stain.mpg,stain,5,AV,Pink_Noise_5_1.wav,Pink_Noise_5_2.wav,,,,,,,,,,,,,,,0,23,23,73,,,,,,,,,,,,,,,,,,,,,,,206.0175411272794,None,207.53388620121405,None,208.91747957421467,None,stain,208.91747957421467,None,return,1.0437114858068526,209.00100269215181,None,,,,,,,,,,,,,,,,,,,,,,,,,,,,,,,,,,,,,,,83,001,2023_Apr_24_1944,SpeechDraft1Carolyn_lessNoise_PlusLocalization,2021.2.3,59.980820515271546,
doom.wav,doom.mpg,doom,2,AV,Pink_Noise_2_1.wav,Pink_Noise_2_2.wav,,,,,,,,,,,,,,,0,24,24,60,,,,,,,,,,,,,,,,,,,,,,,210.06763601722196,None,211.56727081211284,None,212.95072920806706,None,doom,212.95072920806706,None,return,2.274496308993548,213.03423017589375,None,,,,,,,,,,,,,,,,,,,,,,,,,,,,,,,,,,,,,,,83,001,2023_Apr_24_1944,SpeechDraft1Carolyn_lessNoise_PlusLocalization,2021.2.3,59.980820515271546,
led.wav,led.mpg,led,2,A,Pink_Noise_2_1.wav,Pink_Noise_2_2.wav,,,,,,,,,,,,,,,0,25,25,28,,,,,,,,,,,,,,,,,,,,,,,215.33427726104856,None,216.8339374321513,None,218.21751280222088,None,lead,218.21751280222088,None,return,2.687977022025734,218.300815500319,None,,,,,,,,,,,,,,,,,,,,,,,,,,,,,,,,,,,,,,,83,001,2023_Apr_24_1944,SpeechDraft1Carolyn_lessNoise_PlusLocalization,2021.2.3,59.980820515271546,
drip.wav,drip.mpg,drip,6,AV,Pink_Noise_6_1.wav,Pink_Noise_6_2.wav,,,,,,,,,,,,,,,0,26,26,67,,,,,,,,,,,,,,,,,,,,,,,221.0175791401416,None,222.51725990325212,None,223.90082516008988,None,drape,223.90082516008988,None,return,1.4605329651385546,223.98417423013598,None,,,,,,,,,,,,,,,,,,,,,,,,,,,,,,,,,,,,,,,83,001,2023_Apr_24_1944,SpeechDraft1Carolyn_lessNoise_PlusLocalization,2021.2.3,59.980820515271546,
leapt.wav,leapt.mpg,leapt,6,A,Pink_Noise_6_1.wav,Pink_Noise_6_2.wav,,,,,,,,,,,,,,,0,27,27,52,,,,,,,,,,,,,,,,,,,,,,,225.46754283225164,None,226.9672530000098,None,228.35094961011782,None,dry,228.35094961011782,None,return,2.1785617819987237,228.43415224505588,None,,,,,,,,,,,,,,,,,,,,,,,,,,,,,,,,,,,,,,,83,001,2023_Apr_24_1944,SpeechDraft1Carolyn_lessNoise_PlusLocalization,2021.2.3,59.980820515271546,
birch.wav,birch.mpg,birch,4,AV,Pink_Noise_4_1.wav,Pink_Noise_4_2.wav,,,,,,,,,,,,,,,0,28,28,93,,,,,,,,,,,,,,,,,,,,,,,230.63424099516124,None,232.13393270922825,None,233.51744073117152,None,"bench
",233.51744073117152,None,return,3.23581316601485,233.60088895400986,None,,,,,,,,,,,,,,,,,,,,,,,,,,,,,,,,,,,,,,,83,001,2023_Apr_24_1944,SpeechDraft1Carolyn_lessNoise_PlusLocalization,2021.2.3,59.980820515271546,
dirt.wav,dirt.mpg,dirt,3,A,Pink_Noise_3_1.wav,Pink_Noise_3_2.wav,,,,,,,,,,,,,,,0,29,29,39,,,,,,,,,,,,,,,,,,,,,,,236.86762401089072,None,238.36733234208077,None,239.75093147717416,None,dirt,239.75093147717416,None,return,1.1784579423256218,239.8342489139177,None,,,,,,,,,,,,,,,,,,,,,,,,,,,,,,,,,,,,,,,83,001,2023_Apr_24_1944,SpeechDraft1Carolyn_lessNoise_PlusLocalization,2021.2.3,59.980820515271546,
wind.wav,wind.mpg,wind,5,AV,Pink_Noise_5_1.wav,Pink_Noise_5_2.wav,,,,,,,,,,,,,,,0,30,30,90,,,,,,,,,,,,,,,,,,,,,,,241.03420509491116,None,242.5339780682698,None,243.91742699826136,None,wain,243.91742699826136,None,return,2.043615966103971,244.0010788049549,None,,,,,,,,,,,,,,,,,,,,,,,,,,,,,,,,,,,,,,,83,001,2023_Apr_24_1944,SpeechDraft1Carolyn_lessNoise_PlusLocalization,2021.2.3,59.980820515271546,
crash.wav,crash.mpg,crash,4,AV,Pink_Noise_4_1.wav,Pink_Noise_4_2.wav,,,,,,,,,,,,,,,0,31,31,105,,,,,,,,,,,,,,,,,,,,,,,246.0675527160056,None,247.56740225292742,None,248.95087088411674,None,crash,248.95087088411674,None,return,1.1545315720140934,249.0341649102047,None,,,,,,,,,,,,,,,,,,,,,,,,,,,,,,,,,,,,,,,83,001,2023_Apr_24_1944,SpeechDraft1Carolyn_lessNoise_PlusLocalization,2021.2.3,59.980820515271546,
coast.wav,coast.mpg,coast,1,AV,Pink_Noise_1_1.wav,Pink_Noise_1_2.wav,,,,,,,,,,,,,,,0,32,32,116,,,,,,,,,,,,,,,,,,,,,,,250.21781690604985,None,251.71727416105568,None,253.10091026918963,None,toast,253.10091026918963,None,return,1.1644683349877596,253.18424279103056,None,,,,,,,,,,,,,,,,,,,,,,,,,,,,,,,,,,,,,,,83,001,2023_Apr_24_1944,SpeechDraft1Carolyn_lessNoise_PlusLocalization,2021.2.3,59.980820515271546,
stuck.wav,stuck.mpg,stuck,1,A,Pink_Noise_1_1.wav,Pink_Noise_1_2.wav,,,,,,,,,,,,,,,0,33,33,40,,,,,,,,,,,,,,,,,,,,,,,254.36758305411786,None,255.8672100319527,None,257.25097032729536,None,stalk,257.25097032729536,None,return,1.5905758310109377,257.334173806943,None,,,,,,,,,,,,,,,,,,,,,,,,,,,,,,,,,,,,,,,83,001,2023_Apr_24_1944,SpeechDraft1Carolyn_lessNoise_PlusLocalization,2021.2.3,59.980820515271546,
jam.wav,jam.mpg,jam,1,A,Pink_Noise_1_1.wav,Pink_Noise_1_2.wav,,,,,,,,,,,,,,,0,34,34,31,,,,,,,,,,,,,,,,,,,,,,,258.9509201259352,None,260.4505742471665,None,261.83418251620606,None,"jam
",261.83418251620606,None,return,1.166989360935986,261.91768981609493,None,,,,,,,,,,,,,,,,,,,,,,,,,,,,,,,,,,,,,,,83,001,2023_Apr_24_1944,SpeechDraft1Carolyn_lessNoise_PlusLocalization,2021.2.3,59.980820515271546,
ghost.wav,ghost.mpg,ghost,1,A,Pink_Noise_1_1.wav,Pink_Noise_1_2.wav,,,,,,,,,,,,,,,0,35,35,25,,,,,,,,,,,,,,,,,,,,,,,263.11755124805495,None,264.6174208871089,None,266.0009524798952,None,ghost,266.0009524798952,None,return,0.6965062599629164,266.08427318232134,None,,,,,,,,,,,,,,,,,,,,,,,,,,,,,,,,,,,,,,,83,001,2023_Apr_24_1944,SpeechDraft1Carolyn_lessNoise_PlusLocalization,2021.2.3,59.980820515271546,
brow.wav,brow.mpg,brow,2,A,Pink_Noise_2_1.wav,Pink_Noise_2_2.wav,,,,,,,,,,,,,,,0,36,36,41,,,,,,,,,,,,,,,,,,,,,,,266.80093848193064,None,268.3005910012871,None,269.68436545925215,None,brow,269.68436545925215,None,return,7.957155455835164,269.767595439218,None,,,,,,,,,,,,,,,,,,,,,,,,,,,,,,,,,,,,,,,83,001,2023_Apr_24_1944,SpeechDraft1Carolyn_lessNoise_PlusLocalization,2021.2.3,59.980820515271546,
flip.wav,flip.mpg,flip,4,AV,Pink_Noise_4_1.wav,Pink_Noise_4_2.wav,,,,,,,,,,,,,,,0,37,37,110,,,,,,,,,,,,,,,,,,,,,,,277.7509239660576,None,279.250720819924,None,280.63415320403874,None,fli[,280.63415320403874,None,return,0.9270378430373967,280.7176485871896,None,,,,,,,,,,,,,,,,,,,,,,,,,,,,,,,,,,,,,,,83,001,2023_Apr_24_1944,SpeechDraft1Carolyn_lessNoise_PlusLocalization,2021.2.3,59.980820515271546,
cap.wav,cap.mpg,cap,4,A,Pink_Noise_4_1.wav,Pink_Noise_4_2.wav,,,,,,,,,,,,,,,0,38,38,18,,,,,,,,,,,,,,,,,,,,,,,281.6675775120966,None,283.1675067222677,None,284.5509554021992,None,cat,284.5509554021992,None,return,5.154548956081271,284.6342867668718,None,,,,,,,,,,,,,,,,,,,,,,,,,,,,,,,,,,,,,,,83,001,2023_Apr_24_1944,SpeechDraft1Carolyn_lessNoise_PlusLocalization,2021.2.3,59.980820515271546,
dash.wav,dash.mpg,dash,4,A,Pink_Noise_4_1.wav,Pink_Noise_4_2.wav,,,,,,,,,,,,,,,0,39,39,47,,,,,,,,,,,,,,,,,,,,,,,289.81770779099315,None,291.31731373630464,None,292.7010141592473,None,gash,292.7010141592473,None,return,0.9565420658327639,292.78431631298736,None,,,,,,,,,,,,,,,,,,,,,,,,,,,,,,,,,,,,,,,83,001,2023_Apr_24_1944,SpeechDraft1Carolyn_lessNoise_PlusLocalization,2021.2.3,59.980820515271546,
chick.wav,chick.mpg,chick,6,A,Pink_Noise_6_1.wav,Pink_Noise_6_2.wav,,,,,,,,,,,,,,,0,40,40,29,,,,,,,,,,,,,,,,,,,,,,,293.76762290205806,None,295.2673142310232,None,296.65104728005826,None,cherry,296.65104728005826,None,return,2.2225604918785393,296.73427923116833,None,,,,,,,,,,,,,,,,,,,,,,,,,,,,,,,,,,,,,,,83,001,2023_Apr_24_1944,SpeechDraft1Carolyn_lessNoise_PlusLocalization,2021.2.3,59.980820515271546,
tear.wav,tear.mpg,tear,3,A,Pink_Noise_3_1.wav,Pink_Noise_3_2.wav,,,,,,,,,,,,,,,0,41,41,34,,,,,,,,,,,,,,,,,,,,,,,298.9842679919675,None,300.4839898282662,None,301.86763561330736,None,tear,301.86763561330736,None,return,0.6217642705887556,301.9509337260388,None,,,,,,,,,,,,,,,,,,,,,,,,,,,,,,,,,,,,,,,83,001,2023_Apr_24_1944,SpeechDraft1Carolyn_lessNoise_PlusLocalization,2021.2.3,59.980820515271546,
croak.wav,croak.mpg,croak,6,AV,Pink_Noise_6_1.wav,Pink_Noise_6_2.wav,,,,,,,,,,,,,,,0,42,42,66,,,,,,,,,,,,,,,,,,,,,,,302.60101748490706,None,304.10064705088735,None,305.48434776999056,None,quote,305.48434776999056,None,return,6.077041001059115,305.56765211513266,None,,,,,,,,,,,,,,,,,,,,,,,,,,,,,,,,,,,,,,,83,001,2023_Apr_24_1944,SpeechDraft1Carolyn_lessNoise_PlusLocalization,2021.2.3,59.980820515271546,
built.wav,built.mpg,built,6,AV,Pink_Noise_6_1.wav,Pink_Noise_6_2.wav,,,,,,,,,,,,,,,0,43,43,81,,,,,,,,,,,,,,,,,,,,,,,311.66770293191075,None,313.1673797299154,None,314.55098071694374,None,bent,314.55098071694374,None,return,1.1943263923749328,314.63437513494864,None,,,,,,,,,,,,,,,,,,,,,,,,,,,,,,,,,,,,,,,83,001,2023_Apr_24_1944,SpeechDraft1Carolyn_lessNoise_PlusLocalization,2021.2.3,59.980820515271546,
roar.wav,roar.mpg,roar,4,AV,Pink_Noise_4_1.wav,Pink_Noise_4_2.wav,,,,,,,,,,,,,,,0,44,44,114,,,,,,,,,,,,,,,,,,,,,,,315.8510958328843,None,317.3508068472147,None,318.7342554042116,None,roar,318.7342554042116,None,return,4.083092286251485,318.81767494697124,None,,,,,,,,,,,,,,,,,,,,,,,,,,,,,,,,,,,,,,,83,001,2023_Apr_24_1944,SpeechDraft1Carolyn_lessNoise_PlusLocalization,2021.2.3,59.980820515271546,
glue.wav,glue.mpg,glue,4,AV,Pink_Noise_4_1.wav,Pink_Noise_4_2.wav,,,,,,,,,,,,,,,0,45,45,98,,,,,,,,,,,,,,,,,,,,,,,322.9339985982515,None,324.4341298271902,None,325.81754319230095,None,glue,325.81754319230095,None,return,2.8637760593555868,325.9009928670712,None,,,,,,,,,,,,,,,,,,,,,,,,,,,,,,,,,,,,,,,83,001,2023_Apr_24_1944,SpeechDraft1Carolyn_lessNoise_PlusLocalization,2021.2.3,59.980820515271546,
blank.wav,blank.mpg,blank,3,A,Pink_Noise_3_1.wav,Pink_Noise_3_2.wav,,,,,,,,,,,,,,,0,46,46,11,,,,,,,,,,,,,,,,,,,,,,,328.784376014024,None,330.2842264221981,None,331.66771364817396,None,like,331.66771364817396,None,return,5.877669092267752,331.7510342858732,None,,,,,,,,,,,,,,,,,,,,,,,,,,,,,,,,,,,,,,,83,001,2023_Apr_24_1944,SpeechDraft1Carolyn_lessNoise_PlusLocalization,2021.2.3,59.980820515271546,
broil.wav,broil.mpg,broil,2,AV,Pink_Noise_2_1.wav,Pink_Noise_2_2.wav,,,,,,,,,,,,,,,0,47,47,104,,,,,,,,,,,,,,,,,,,,,,,337.65101030515507,None,339.1507858452387,None,340.53435839898884,None,royal,340.53435839898884,None,return,3.3790052398107946,340.6177202309482,None,,,,,,,,,,,,,,,,,,,,,,,,,,,,,,,,,,,,,,,83,001,2023_Apr_24_1944,SpeechDraft1Carolyn_lessNoise_PlusLocalization,2021.2.3,59.980820515271546,
foil.wav,foil.mpg,foil,5,AV,Pink_Noise_5_1.wav,Pink_Noise_5_2.wav,,,,,,,,,,,,,,,0,48,48,111,,,,,,,,,,,,,,,,,,,,,,,344.01776478020474,None,345.5175790609792,None,346.90094338404015,None,foil,346.90094338404015,None,return,1.3563978858292103,346.98442333796993,None,,,,,,,,,,,,,,,,,,,,,,,,,,,,,,,,,,,,,,,83,001,2023_Apr_24_1944,SpeechDraft1Carolyn_lessNoise_PlusLocalization,2021.2.3,59.980820515271546,
chain.wav,chain.mpg,chain,4,AV,Pink_Noise_4_1.wav,Pink_Noise_4_2.wav,,,,,,,,,,,,,,,0,49,49,80,,,,,,,,,,,,,,,,,,,,,,,348.3677229289897,None,349.86746671795845,None,351.2509965840727,None,chain,351.2509965840727,None,return,0.7903439137153327,351.33447877923027,None,,,,,,,,,,,,,,,,,,,,,,,,,,,,,,,,,,,,,,,83,001,2023_Apr_24_1944,SpeechDraft1Carolyn_lessNoise_PlusLocalization,2021.2.3,59.980820515271546,
gloom.wav,gloom.mpg,gloom,6,A,Pink_Noise_6_1.wav,Pink_Noise_6_2.wav,,,,,,,,,,,,,,,0,50,50,44,,,,,,,,,,,,,,,,,,,,,,,352.1510635120794,None,353.6508867559023,None,355.03443514415994,None,"gloo,",355.03443514415994,None,return,3.158861151896417,355.1178324841894,None,,,,,,,,,,,,,,,,,,,,,,,,,,,,,,,,,,,,,,,83,001,2023_Apr_24_1944,SpeechDraft1Carolyn_lessNoise_PlusLocalization,2021.2.3,59.980820515271546,
blend.wav,blend.mpg,blend,6,A,Pink_Noise_6_1.wav,Pink_Noise_6_2.wav,,,,,,,,,,,,,,,0,51,51,27,,,,,,,,,,,,,,,,,,,,,,,358.30107905715704,None,359.80089355725795,None,361.18440433591604,None,drill,361.18440433591604,None,return,14.136927410028875,361.2677795118652,None,,,,,,,,,,,,,,,,,,,,,,,,,,,,,,,,,,,,,,,83,001,2023_Apr_24_1944,SpeechDraft1Carolyn_lessNoise_PlusLocalization,2021.2.3,59.980820515271546,
crawl.wav,crawl.mpg,crawl,1,AV,Pink_Noise_1_1.wav,Pink_Noise_1_2.wav,,,,,,,,,,,,,,,0,52,52,85,,,,,,,,,,,,,,,,,,,,,,,375.4344477010891,None,376.9341919259168,None,378.3180122449994,None,crawl,378.3180122449994,None,return,1.7237547752447426,378.40106197306886,None,,,,,,,,,,,,,,,,,,,,,,,,,,,,,,,,,,,,,,,83,001,2023_Apr_24_1944,SpeechDraft1Carolyn_lessNoise_PlusLocalization,2021.2.3,59.980820515271546,
chore.wav,chore.mpg,chore,4,A,Pink_Noise_4_1.wav,Pink_Noise_4_2.wav,,,,,,,,,,,,,,,0,53,53,20,,,,,,,,,,,,,,,,,,,,,,,380.1510999589227,None,381.6507212910801,None,383.03453031089157,None,chore,383.03453031089157,None,return,2.8549680621363223,383.1177792050876,None,,,,,,,,,,,,,,,,,,,,,,,,,,,,,,,,,,,,,,,83,001,2023_Apr_24_1944,SpeechDraft1Carolyn_lessNoise_PlusLocalization,2021.2.3,59.980820515271546,
bare.wav,bare.mpg,bare,5,A,Pink_Noise_5_1.wav,Pink_Noise_5_2.wav,,,,,,,,,,,,,,,0,54,54,38,,,,,,,,,,,,,,,,,,,,,,,386.0011455430649,None,387.5173769919202,None,388.90113967005163,None,bear,388.90113967005163,None,return,0.5724771032109857,388.98431954998523,None,,,,,,,,,,,,,,,,,,,,,,,,,,,,,,,,,,,,,,,83,001,2023_Apr_24_1944,SpeechDraft1Carolyn_lessNoise_PlusLocalization,2021.2.3,59.980820515271546,
badge.wav,badge.mpg,badge,5,A,Pink_Noise_5_1.wav,Pink_Noise_5_2.wav,,,,,,,,,,,,,,,0,55,55,9,,,,,,,,,,,,,,,,,,,,,,,389.58446086291224,None,391.08474545693025,None,392.46772812120616,None,"edge
",392.46772812120616,None,return,1.8695592279545963,392.5511451312341,None,,,,,,,,,,,,,,,,,,,,,,,,,,,,,,,,,,,,,,,83,001,2023_Apr_24_1944,SpeechDraft1Carolyn_lessNoise_PlusLocalization,2021.2.3,59.980820515271546,
belt.wav,belt.mpg,belt,5,A,Pink_Noise_5_1.wav,Pink_Noise_5_2.wav,,,,,,,,,,,,,,,0,56,56,10,,,,,,,,,,,,,,,,,,,,,,,394.45114579517394,None,395.95084428507835,None,397.3344803219661,None,belt,397.3344803219661,None,return,3.5709663280285895,397.41774186491966,None,,,,,,,,,,,,,,,,,,,,,,,,,,,,,,,,,,,,,,,83,001,2023_Apr_24_1944,SpeechDraft1Carolyn_lessNoise_PlusLocalization,2021.2.3,59.980820515271546,
chow.wav,chow.mpg,chow,2,A,Pink_Noise_2_1.wav,Pink_Noise_2_2.wav,,,,,,,,,,,,,,,0,57,57,17,,,,,,,,,,,,,,,,,,,,,,,401.0178049323149,None,402.5174713139422,None,403.9010347132571,None,child,403.9010347132571,None,return,2.9242334254086018,403.9844842390157,None,,,,,,,,,,,,,,,,,,,,,,,,,,,,,,,,,,,,,,,83,001,2023_Apr_24_1944,SpeechDraft1Carolyn_lessNoise_PlusLocalization,2021.2.3,59.980820515271546,
damp.wav,damp.mpg,damp,1,A,Pink_Noise_1_1.wav,Pink_Noise_1_2.wav,,,,,,,,,,,,,,,0,58,58,4,,,,,,,,,,,,,,,,,,,,,,,406.93448726227507,None,408.43419374525547,None,409.81772851292044,None,"dam
",409.81772851292044,None,return,3.9835252608172596,409.9011780540459,None,,,,,,,,,,,,,,,,,,,,,,,,,,,,,,,,,,,,,,,83,001,2023_Apr_24_1944,SpeechDraft1Carolyn_lessNoise_PlusLocalization,2021.2.3,59.980820515271546,
clash.wav,clash.mpg,clash,4,A,Pink_Noise_4_1.wav,Pink_Noise_4_2.wav,,,,,,,,,,,,,,,0,59,59,56,,,,,,,,,,,,,,,,,,,,,,,413.9178309580311,None,415.4174633482471,None,416.80132366809994,None,"flash
",416.80132366809994,None,return,1.6002574865706265,416.8844471001066,None,,,,,,,,,,,,,,,,,,,,,,,,,,,,,,,,,,,,,,,83,001,2023_Apr_24_1944,SpeechDraft1Carolyn_lessNoise_PlusLocalization,2021.2.3,59.980820515271546,
fun.wav,fun.mpg,fun,5,A,Pink_Noise_5_1.wav,Pink_Noise_5_2.wav,,,,,,,,,,,,,,,0,60,60,12,,,,,,,,,,,,,,,,,,,,,,,418.5177672961727,None,420.0182410259731,None,421.40108194295317,None,folk,421.40108194295317,None,return,6.688315440900624,421.4845090089366,None,,,,,,,,,,,,,,,,,,,,,,,,,,,,,,,,,,,,,,,83,001,2023_Apr_24_1944,SpeechDraft1Carolyn_lessNoise_PlusLocalization,2021.2.3,59.980820515271546,
blow.wav,blow.mpg,blow,5,A,Pink_Noise_5_1.wav,Pink_Noise_5_2.wav,,,,,,,,,,,,,,,0,61,61,33,,,,,,,,,,,,,,,,,,,,,,,428.20118491817266,None,429.70118225412443,None,431.08449160913005,None,"blow
",431.08449160913005,None,return,3.0528034400194883,431.1679006749764,None,,,,,,,,,,,,,,,,,,,,,,,,,,,,,,,,,,,,,,,83,001,2023_Apr_24_1944,SpeechDraft1Carolyn_lessNoise_PlusLocalization,2021.2.3,59.980820515271546,
fog.wav,fog.mpg,fog,1,AV,Pink_Noise_1_1.wav,Pink_Noise_1_2.wav,,,,,,,,,,,,,,,0,62,62,78,,,,,,,,,,,,,,,,,,,,,,,434.2511197598651,None,435.75085417414084,None,437.1344424430281,None,fog,437.1344424430281,None,return,0.9308101143687963,437.21789881726727,None,,,,,,,,,,,,,,,,,,,,,,,,,,,,,,,,,,,,,,,83,001,2023_Apr_24_1944,SpeechDraft1Carolyn_lessNoise_PlusLocalization,2021.2.3,59.980820515271546,
brand.wav,brand.mpg,brand,2,A,Pink_Noise_2_1.wav,Pink_Noise_2_2.wav,,,,,,,,,,,,,,,0,63,63,51,,,,,,,,,,,,,,,,,,,,,,,438.1679087160155,None,439.6675754482858,None,441.05290919728577,None,"brand
",441.05290919728577,None,return,0.5181803996674716,441.13452687999234,None,,,,,,,,,,,,,,,,,,,,,,,,,,,,,,,,,,,,,,,83,001,2023_Apr_24_1944,SpeechDraft1Carolyn_lessNoise_PlusLocalization,2021.2.3,59.980820515271546,
bread.wav,bread.mpg,bread,2,A,Pink_Noise_2_1.wav,Pink_Noise_2_2.wav,,,,,,,,,,,,,,,0,64,64,53,,,,,,,,,,,,,,,,,,,,,,,441.6844743080437,None,443.18422292592004,None,444.5680094421841,None,read,444.5680094421841,None,return,0.2814991041086614,444.65123897092417,None,,,,,,,,,,,,,,,,,,,,,,,,,,,,,,,,,,,,,,,83,001,2023_Apr_24_1944,SpeechDraft1Carolyn_lessNoise_PlusLocalization,2021.2.3,59.980820515271546,
bridge.wav,bridge.mpg,bridge,3,AV,Pink_Noise_3_1.wav,Pink_Noise_3_2.wav,,,,,,,,,,,,,,,0,65,65,102,,,,,,,,,,,,,,,,,,,,,,,444.9512778269127,None,446.45305158989504,None,447.83466701116413,None,bridge,447.83466701116413,None,return,1.0548618668690324,447.9178445911966,None,,,,,,,,,,,,,,,,,,,,,,,,,,,,,,,,,,,,,,,83,001,2023_Apr_24_1944,SpeechDraft1Carolyn_lessNoise_PlusLocalization,2021.2.3,59.980820515271546,
bleed.wav,bleed.mpg,bleed,3,AV,Pink_Noise_3_1.wav,Pink_Noise_3_2.wav,,,,,,,,,,,,,,,0,66,66,76,,,,,,,,,,,,,,,,,,,,,,,449.00147385615855,None,450.5176325892098,None,451.9010850591585,None,bleed,451.9010850591585,None,return,1.2120803580619395,451.9846418541856,None,,,,,,,,,,,,,,,,,,,,,,,,,,,,,,,,,,,,,,,83,001,2023_Apr_24_1944,SpeechDraft1Carolyn_lessNoise_PlusLocalization,2021.2.3,59.980820515271546,
grain.wav,grain.mpg,grain,1,AV,Pink_Noise_1_1.wav,Pink_Noise_1_2.wav,,,,,,,,,,,,,,,0,67,67,100,,,,,,,,,,,,,,,,,,,,,,,453.2178864451125,None,454.7341665811837,None,456.1178332772106,None,"green
",456.1178332772106,None,return,1.0514978519640863,456.2012068242766,None,,,,,,,,,,,,,,,,,,,,,,,,,,,,,,,,,,,,,,,83,001,2023_Apr_24_1944,SpeechDraft1Carolyn_lessNoise_PlusLocalization,2021.2.3,59.980820515271546,
druid.wav,druid.mpg,druid,2,A,Pink_Noise_2_1.wav,Pink_Noise_2_2.wav,,,,,,,,,,,,,,,0,68,68,35,,,,,,,,,,,,,,,,,,,,,,,457.28467378998175,None,458.78418706404045,None,460.16792864212766,None,drew,460.16792864212766,None,return,21.457525289151818,460.2511906279251,None,,,,,,,,,,,,,,,,,,,,,,,,,,,,,,,,,,,,,,,83,001,2023_Apr_24_1944,SpeechDraft1Carolyn_lessNoise_PlusLocalization,2021.2.3,59.980820515271546,
click.wav,click.mpg,click,2,AV,Pink_Noise_2_1.wav,Pink_Noise_2_2.wav,,,,,,,,,,,,,,,0,69,69,92,,,,,,,,,,,,,,,,,,,,,,,481.7345782201737,None,483.2348459032364,None,484.6178496591747,None,click,484.6178496591747,None,return,2.711502330377698,484.7012461810373,None,,,,,,,,,,,,,,,,,,,,,,,,,,,,,,,,,,,,,,,83,001,2023_Apr_24_1944,SpeechDraft1Carolyn_lessNoise_PlusLocalization,2021.2.3,59.980820515271546,
crow.wav,crow.mpg,crow,2,AV,Pink_Noise_2_1.wav,Pink_Noise_2_2.wav,,,,,,,,,,,,,,,0,70,70,113,,,,,,,,,,,,,,,,,,,,,,,487.4345635790378,None,488.9342753458768,None,490.3180344472639,None,"crow
",490.3180344472639,None,return,1.6034588352777064,490.4012422580272,None,,,,,,,,,,,,,,,,,,,,,,,,,,,,,,,,,,,,,,,83,001,2023_Apr_24_1944,SpeechDraft1Carolyn_lessNoise_PlusLocalization,2021.2.3,59.980820515271546,
code.wav,code.mpg,code,3,A,Pink_Noise_3_1.wav,Pink_Noise_3_2.wav,,,,,,,,,,,,,,,0,71,71,54,,,,,,,,,,,,,,,,,,,,,,,492.03454808704555,None,493.5510853789747,None,494.93457298725843,None,comb,494.93457298725843,None,return,2.298889765981585,495.01788334408775,None,,,,,,,,,,,,,,,,,,,,,,,,,,,,,,,,,,,,,,,83,001,2023_Apr_24_1944,SpeechDraft1Carolyn_lessNoise_PlusLocalization,2021.2.3,59.980820515271546,
smack.wav,smack.mpg,smack,1,A,Pink_Noise_1_1.wav,Pink_Noise_1_2.wav,,,,,,,,,,,,,,,0,72,72,6,,,,,,,,,,,,,,,,,,,,,,,497.33456159196794,None,498.83419457124546,None,500.2179550952278,None,"smack
",500.2179550952278,None,return,1.207365816924721,500.30137489922345,None,,,,,,,,,,,,,,,,,,,,,,,,,,,,,,,,,,,,,,,83,001,2023_Apr_24_1944,SpeechDraft1Carolyn_lessNoise_PlusLocalization,2021.2.3,59.980820515271546,
bowl.wav,bowl.mpg,bowl,6,AV,Pink_Noise_6_1.wav,Pink_Noise_6_2.wav,,,,,,,,,,,,,,,0,73,73,106,,,,,,,,,,,,,,,,,,,,,,,501.5511911199428,None,503.0509529430419,None,504.4345670309849,None,bold,504.4345670309849,None,return,1.1268015229143202,504.5179071133025,None,,,,,,,,,,,,,,,,,,,,,,,,,,,,,,,,,,,,,,,83,001,2023_Apr_24_1944,SpeechDraft1Carolyn_lessNoise_PlusLocalization,2021.2.3,59.980820515271546,
coup.wav,coup.mpg,coup,4,A,Pink_Noise_4_1.wav,Pink_Noise_4_2.wav,,,,,,,,,,,,,,,0,74,74,24,,,,,,,,,,,,,,,,,,,,,,,505.66793994931504,None,507.1678843270056,None,508.55122487526387,None,crew,508.55122487526387,None,return,1.1701109111309052,508.6346099199727,None,,,,,,,,,,,,,,,,,,,,,,,,,,,,,,,,,,,,,,,83,001,2023_Apr_24_1944,SpeechDraft1Carolyn_lessNoise_PlusLocalization,2021.2.3,59.980820515271546,
fruit.wav,fruit.mpg,fruit,3,AV,Pink_Noise_3_1.wav,Pink_Noise_3_2.wav,,,,,,,,,,,,,,,0,75,75,68,,,,,,,,,,,,,,,,,,,,,,,509.83459817199036,None,511.3342918632552,None,512.7178781600669,None,freud,512.7178781600669,None,return,14.675371756777167,512.801320171915,None,,,,,,,,,,,,,,,,,,,,,,,,,,,,,,,,,,,,,,,83,001,2023_Apr_24_1944,SpeechDraft1Carolyn_lessNoise_PlusLocalization,2021.2.3,59.980820515271546,
fish.wav,fish.mpg,fish,1,A,Pink_Noise_1_1.wav,Pink_Noise_1_2.wav,,,,,,,,,,,,,,,0,76,76,21,,,,,,,,,,,,,,,,,,,,,,,527.5012389812618,None,529.0010869060643,None,530.3846460320055,None,fish,530.3846460320055,None,return,1.8806809224188328,530.4680231818929,None,,,,,,,,,,,,,,,,,,,,,,,,,,,,,,,,,,,,,,,83,001,2023_Apr_24_1944,SpeechDraft1Carolyn_lessNoise_PlusLocalization,2021.2.3,59.980820515271546,
cork.wav,cork.mpg,cork,5,AV,Pink_Noise_5_1.wav,Pink_Noise_5_2.wav,,,,,,,,,,,,,,,0,77,77,115,,,,,,,,,,,,,,,,,,,,,,,532.3680615001358,None,533.8676800020039,None,535.2513184091076,None,quirk,535.2513184091076,None,return,9.254099692218006,535.3346046502702,None,,,,,,,,,,,,,,,,,,,,,,,,,,,,,,,,,,,,,,,83,001,2023_Apr_24_1944,SpeechDraft1Carolyn_lessNoise_PlusLocalization,2021.2.3,59.980820515271546,
clown.wav,clown.mpg,clown,3,AV,Pink_Noise_3_1.wav,Pink_Noise_3_2.wav,,,,,,,,,,,,,,,0,78,78,117,,,,,,,,,,,,,,,,,,,,,,,544.618048351258,None,546.1343533070758,None,547.5180173800327,None,cloud,547.5180173800327,None,return,1.6995080509223044,547.6012750701047,None,,,,,,,,,,,,,,,,,,,,,,,,,,,,,,,,,,,,,,,83,001,2023_Apr_24_1944,SpeechDraft1Carolyn_lessNoise_PlusLocalization,2021.2.3,59.980820515271546,
chump.wav,chump.mpg,chump,6,A,Pink_Noise_6_1.wav,Pink_Noise_6_2.wav,,,,,,,,,,,,,,,0,79,79,59,,,,,,,,,,,,,,,,,,,,,,,549.3180465232581,None,550.8177192891017,None,552.2013689079322,None,chub,552.2013689079322,None,return,1.6561683500185609,552.2846499579027,None,,,,,,,,,,,,,,,,,,,,,,,,,,,,,,,,,,,,,,,83,001,2023_Apr_24_1944,SpeechDraft1Carolyn_lessNoise_PlusLocalization,2021.2.3,59.980820515271546,
aunt.wav,aunt.mpg,aunt,1,AV,Pink_Noise_1_1.wav,Pink_Noise_1_2.wav,,,,,,,,,,,,,,,0,80,80,89,,,,,,,,,,,,,,,,,,,,,,,553.9680243460461,None,555.4677253630944,None,556.8513301722705,None,ought,556.8513301722705,None,return,3.5980470487847924,556.9346611802466,None,,,,,,,,,,,,,,,,,,,,,,,,,,,,,,,,,,,,,,,83,001,2023_Apr_24_1944,SpeechDraft1Carolyn_lessNoise_PlusLocalization,2021.2.3,59.980820515271546,
desk.wav,desk.mpg,desk,1,AV,Pink_Noise_1_1.wav,Pink_Noise_1_2.wav,,,,,,,,,,,,,,,0,81,81,87,,,,,,,,,,,,,,,,,,,,,,,560.5513673252426,None,562.0677517619915,None,563.4512662938796,None,dusk,563.4512662938796,None,return,1.2059476361609995,563.53485189192,None,,,,,,,,,,,,,,,,,,,,,,,,,,,,,,,,,,,,,,,83,001,2023_Apr_24_1944,SpeechDraft1Carolyn_lessNoise_PlusLocalization,2021.2.3,59.980820515271546,
duke.wav,duke.mpg,duke,5,AV,Pink_Noise_5_1.wav,Pink_Noise_5_2.wav,,,,,,,,,,,,,,,0,82,82,119,,,,,,,,,,,,,,,,,,,,,,,564.7680685822852,None,566.2678496111184,None,567.6512560863048,None,juice,567.6512560863048,None,return,1.0220443294383585,567.7347163381055,None,,,,,,,,,,,,,,,,,,,,,,,,,,,,,,,,,,,,,,,83,001,2023_Apr_24_1944,SpeechDraft1Carolyn_lessNoise_PlusLocalization,2021.2.3,59.980820515271546,
spire.wav,spire.mpg,spire,6,AV,Pink_Noise_6_1.wav,Pink_Noise_6_2.wav,,,,,,,,,,,,,,,0,83,83,88,,,,,,,,,,,,,,,,,,,,,,,568.7846954730339,None,570.3010735493153,None,571.6846495582722,None,"smile
",571.6846495582722,None,return,2.052579519804567,571.768124918919,None,,,,,,,,,,,,,,,,,,,,,,,,,,,,,,,,,,,,,,,83,001,2023_Apr_24_1944,SpeechDraft1Carolyn_lessNoise_PlusLocalization,2021.2.3,59.980820515271546,
grass.wav,grass.mpg,grass,2,AV,Pink_Noise_2_1.wav,Pink_Noise_2_2.wav,,,,,,,,,,,,,,,0,84,84,83,,,,,,,,,,,,,,,,,,,,,,,573.8513199631125,None,575.3510768809356,None,576.7346503301524,None,grass,576.7346503301524,None,return,1.3785707578063011,576.8181287399493,None,,,,,,,,,,,,,,,,,,,,,,,,,,,,,,,,,,,,,,,83,001,2023_Apr_24_1944,SpeechDraft1Carolyn_lessNoise_PlusLocalization,2021.2.3,59.980820515271546,
beast.wav,beast.mpg,beast,1,A,Pink_Noise_1_1.wav,Pink_Noise_1_2.wav,,,,,,,,,,,,,,,0,85,85,8,,,,,,,,,,,,,,,,,,,,,,,578.2181366048753,None,579.7344459760934,None,581.1180407521315,None,beast,581.1180407521315,None,return,1.1713118590414524,581.2013971540146,None,,,,,,,,,,,,,,,,,,,,,,,,,,,,,,,,,,,,,,,83,001,2023_Apr_24_1944,SpeechDraft1Carolyn_lessNoise_PlusLocalization,2021.2.3,59.980820515271546,
bench.wav,bench.mpg,bench,5,AV,Pink_Noise_5_1.wav,Pink_Noise_5_2.wav,,,,,,,,,,,,,,,0,86,86,96,,,,,,,,,,,,,,,,,,,,,,,582.4013845832087,None,583.9013021611609,None,585.2846435480751,None,abridge,585.2846435480751,None,return,26.812655739020556,585.3680403991602,None,,,,,,,,,,,,,,,,,,,,,,,,,,,,,,,,,,,,,,,83,001,2023_Apr_24_1944,SpeechDraft1Carolyn_lessNoise_PlusLocalization,2021.2.3,59.980820515271546,
tart.wav,tart.mpg,tart,2,AV,Pink_Noise_2_1.wav,Pink_Noise_2_2.wav,,,,,,,,,,,,,,,0,87,87,62,,,,,,,,,,,,,,,,,,,,,,,612.2014871300198,None,613.7178307310678,None,615.1012745113112,None,tart,615.1012745113112,None,return,3.9320416538976133,615.184719922021,None,,,,,,,,,,,,,,,,,,,,,,,,,,,,,,,,,,,,,,,83,001,2023_Apr_24_1944,SpeechDraft1Carolyn_lessNoise_PlusLocalization,2021.2.3,59.980820515271546,
giant.wav,giant.mpg,giant,1,A,Pink_Noise_1_1.wav,Pink_Noise_1_2.wav,,,,,,,,,,,,,,,0,88,88,32,,,,,,,,,,,,,,,,,,,,,,,619.1347510432824,None,620.6511198370717,None,622.034802115988,None,giant,622.034802115988,None,return,2.662607294972986,622.1180930151604,None,,,,,,,,,,,,,,,,,,,,,,,,,,,,,,,,,,,,,,,83,001,2023_Apr_24_1944,SpeechDraft1Carolyn_lessNoise_PlusLocalization,2021.2.3,59.980820515271546,
gone.wav,gone.mpg,gone,2,AV,Pink_Noise_2_1.wav,Pink_Noise_2_2.wav,,,,,,,,,,,,,,,0,89,89,84,,,,,,,,,,,,,,,,,,,,,,,624.8013880862854,None,626.3179228031076,None,627.7013324261643,None,gawd,627.7013324261643,None,return,4.340060001239181,627.7847899552435,None,,,,,,,,,,,,,,,,,,,,,,,,,,,,,,,,,,,,,,,83,001,2023_Apr_24_1944,SpeechDraft1Carolyn_lessNoise_PlusLocalization,2021.2.3,59.980820515271546,
frog.wav,frog.mpg,frog,6,A,Pink_Noise_6_1.wav,Pink_Noise_6_2.wav,,,,,,,,,,,,,,,0,90,90,16,,,,,,,,,,,,,,,,,,,,,,,632.1515858019702,None,633.6678779581562,None,635.0514523740858,None,dry,635.0514523740858,None,return,0.8221035581082106,635.134721854236,None,,,,,,,,,,,,,,,,,,,,,,,,,,,,,,,,,,,,,,,83,001,2023_Apr_24_1944,SpeechDraft1Carolyn_lessNoise_PlusLocalization,2021.2.3,59.980820515271546,
die.wav,die.mpg,die,6,AV,Pink_Noise_6_1.wav,Pink_Noise_6_2.wav,,,,,,,,,,,,,,,0,91,91,77,,,,,,,,,,,,,,,,,,,,,,,635.9848652030341,None,637.5011360379867,None,638.8847385542467,None,style,638.8847385542467,None,return,1.2766136806458235,638.9680787390098,None,,,,,,,,,,,,,,,,,,,,,,,,,,,,,,,,,,,,,,,83,001,2023_Apr_24_1944,SpeechDraft1Carolyn_lessNoise_PlusLocalization,2021.2.3,59.980820515271546,
strive.wav,strive.mpg,strive,1,A,Pink_Noise_1_1.wav,Pink_Noise_1_2.wav,,,,,,,,,,,,,,,0,92,92,23,,,,,,,,,,,,,,,,,,,,,,,640.2680808543228,None,641.8012001980096,None,643.1847622739151,None,strive,643.1847622739151,None,return,1.1044119447469711,643.2682916983031,None,,,,,,,,,,,,,,,,,,,,,,,,,,,,,,,,,,,,,,,83,001,2023_Apr_24_1944,SpeechDraft1Carolyn_lessNoise_PlusLocalization,2021.2.3,59.980820515271546,
gram.wav,gram.mpg,gram,5,AV,Pink_Noise_5_1.wav,Pink_Noise_5_2.wav,,,,,,,,,,,,,,,0,93,93,71,,,,,,,,,,,,,,,,,,,,,,,644.4014654732309,None,645.9182214932516,None,647.3012902350165,None,cram,647.3012902350165,None,return,1.4279051590710878,647.3847929253243,None,,,,,,,,,,,,,,,,,,,,,,,,,,,,,,,,,,,,,,,83,001,2023_Apr_24_1944,SpeechDraft1Carolyn_lessNoise_PlusLocalization,2021.2.3,59.980820515271546,
fist.wav,fist.mpg,fist,3,AV,Pink_Noise_3_1.wav,Pink_Noise_3_2.wav,,,,,,,,,,,,,,,0,94,94,64,,,,,,,,,,,,,,,,,,,,,,,648.8347265850753,None,650.3678562822752,None,651.7514967811294,None,fist,651.7514967811294,None,return,1.0658140340819955,651.8349435892887,None,,,,,,,,,,,,,,,,,,,,,,,,,,,,,,,,,,,,,,,83,001,2023_Apr_24_1944,SpeechDraft1Carolyn_lessNoise_PlusLocalization,2021.2.3,59.980820515271546,
please.wav,please.mpg,please,5,AV,Pink_Noise_5_1.wav,Pink_Noise_5_2.wav,,,,,,,,,,,,,,,0,95,95,86,,,,,,,,,,,,,,,,,,,,,,,652.9182690759189,None,654.4346064021811,None,655.8181066769175,None,beast,655.8181066769175,None,return,1.8393068318255246,655.9015192319639,None,,,,,,,,,,,,,,,,,,,,,,,,,,,,,,,,,,,,,,,83,001,2023_Apr_24_1944,SpeechDraft1Carolyn_lessNoise_PlusLocalization,2021.2.3,59.980820515271546,
friend.wav,friend.mpg,friend,5,A,Pink_Noise_5_1.wav,Pink_Noise_5_2.wav,,,,,,,,,,,,,,,0,96,96,42,,,,,,,,,,,,,,,,,,,,,,,657.7681681751274,None,659.2680512331426,None,660.6515710931271,None,praise,660.6515710931271,None,return,1.7579036480747163,660.7347880471498,None,,,,,,,,,,,,,,,,,,,,,,,,,,,,,,,,,,,,,,,83,001,2023_Apr_24_1944,SpeechDraft1Carolyn_lessNoise_PlusLocalization,2021.2.3,59.980820515271546,
slush.wav,slush.mpg,slush,2,A,Pink_Noise_2_1.wav,Pink_Noise_2_2.wav,,,,,,,,,,,,,,,0,97,97,30,,,,,,,,,,,,,,,,,,,,,,,662.5181528022513,None,664.0345441382378,None,665.4181919093244,None,slush,665.4181919093244,None,return,1.407233722973615,665.5014914390631,None,,,,,,,,,,,,,,,,,,,,,,,,,,,,,,,,,,,,,,,83,001,2023_Apr_24_1944,SpeechDraft1Carolyn_lessNoise_PlusLocalization,2021.2.3,59.980820515271546,
live.wav,live.mpg,live,4,AV,Pink_Noise_4_1.wav,Pink_Noise_4_2.wav,,,,,,,,,,,,,,,0,98,98,69,,,,,,,,,,,,,,,,,,,,,,,666.9349278449081,None,668.4512282852083,None,669.8346863482147,None,love,669.8346863482147,None,return,6.070505591109395,669.9181914748624,None,,,,,,,,,,,,,,,,,,,,,,,,,,,,,,,,,,,,,,,83,001,2023_Apr_24_1944,SpeechDraft1Carolyn_lessNoise_PlusLocalization,2021.2.3,59.980820515271546,
chart.wav,chart.mpg,chart,3,A,Pink_Noise_3_1.wav,Pink_Noise_3_2.wav,,,,,,,,,,,,,,,0,99,99,36,,,,,,,,,,,,,,,,,,,,,,,676.01811528299,None,677.5346101028845,None,678.91832747031,None,chart,678.91832747031,None,return,0.995234739035368,679.0014783293009,None,,,,,,,,,,,,,,,,,,,,,,,,,,,,,,,,,,,,,,,83,001,2023_Apr_24_1944,SpeechDraft1Carolyn_lessNoise_PlusLocalization,2021.2.3,59.980820515271546,
gross.wav,gross.mpg,gross,5,AV,Pink_Noise_5_1.wav,Pink_Noise_5_2.wav,,,,,,,,,,,,,,,0,100,100,74,,,,,,,,,,,,,,,,,,,,,,,680.0181450601667,None,681.5347595112398,None,682.9181454041973,None,gross,682.9181454041973,None,return,3.4911823659203947,683.0015455321409,None,,,,,,,,,,,,,,,,,,,,,,,,,,,,,,,,,,,,,,,83,001,2023_Apr_24_1944,SpeechDraft1Carolyn_lessNoise_PlusLocalization,2021.2.3,59.980820515271546,
cult.wav,cult.mpg,cult,3,AV,Pink_Noise_3_1.wav,Pink_Noise_3_2.wav,,,,,,,,,,,,,,,0,101,101,99,,,,,,,,,,,,,,,,,,,,,,,686.5182332252152,None,688.0345744299702,None,689.4181687249802,None,cult,689.4181687249802,None,return,1.0870480150915682,689.5016579329967,None,,,,,,,,,,,,,,,,,,,,,,,,,,,,,,,,,,,,,,,83,001,2023_Apr_24_1944,SpeechDraft1Carolyn_lessNoise_PlusLocalization,2021.2.3,59.980820515271546,
sun.wav,sun.mpg,sun,3,A,Pink_Noise_3_1.wav,Pink_Noise_3_2.wav,,,,,,,,,,,,,,,0,102,102,5,,,,,,,,,,,,,,,,,,,,,,,690.6181642189622,None,692.1512683820911,None,693.5348211592063,None,sun,693.5348211592063,None,return,1.5785111640579998,693.6181966061704,None,,,,,,,,,,,,,,,,,,,,,,,,,,,,,,,,,,,,,,,83,001,2023_Apr_24_1944,SpeechDraft1Carolyn_lessNoise_PlusLocalization,2021.2.3,59.980820515271546,
snake.wav,snake.mpg,snake,3,AV,Pink_Noise_3_1.wav,Pink_Noise_3_2.wav,,,,,,,,,,,,,,,0,103,103,61,,,,,,,,,,,,,,,,,,,,,,,695.2183148222975,None,696.7193829310127,None,698.1014755032957,None,snake,698.1014755032957,None,return,0.7717818701639771,698.1849261568859,None,,,,,,,,,,,,,,,,,,,,,,,,,,,,,,,,,,,,,,,83,001,2023_Apr_24_1944,SpeechDraft1Carolyn_lessNoise_PlusLocalization,2021.2.3,59.980820515271546,
cheap.wav,cheap.mpg,cheap,6,A,Pink_Noise_6_1.wav,Pink_Noise_6_2.wav,,,,,,,,,,,,,,,0,104,104,37,,,,,,,,,,,,,,,,,,,,,,,698.9848430529237,None,700.5013162163086,None,701.8848526561633,None,cheek,701.8848526561633,None,return,0.7805386791005731,701.9682046831585,None,,,,,,,,,,,,,,,,,,,,,,,,,,,,,,,,,,,,,,,83,001,2023_Apr_24_1944,SpeechDraft1Carolyn_lessNoise_PlusLocalization,2021.2.3,59.980820515271546,
drum.wav,drum.mpg,drum,6,AV,Pink_Noise_6_1.wav,Pink_Noise_6_2.wav,,,,,,,,,,,,,,,0,105,105,97,,,,,,,,,,,,,,,,,,,,,,,702.7682939479128,None,704.2845679479651,None,705.6683885990642,None,drum,705.6683885990642,None,return,19.421188625972718,705.7515082471073,None,,,,,,,,,,,,,,,,,,,,,,,,,,,,,,,,,,,,,,,83,001,2023_Apr_24_1944,SpeechDraft1Carolyn_lessNoise_PlusLocalization,2021.2.3,59.980820515271546,
spray.wav,spray.mpg,spray,5,A,Pink_Noise_5_1.wav,Pink_Noise_5_2.wav,,,,,,,,,,,,,,,0,106,106,15,,,,,,,,,,,,,,,,,,,,,,,725.20156034315,None,726.7179608521983,None,728.1015337230638,None,stray,728.1015337230638,None,return,3.3558763400651515,728.1848968411796,None,,,,,,,,,,,,,,,,,,,,,,,,,,,,,,,,,,,,,,,83,001,2023_Apr_24_1944,SpeechDraft1Carolyn_lessNoise_PlusLocalization,2021.2.3,59.980820515271546,
read.wav,read.mpg,read,6,AV,Pink_Noise_6_1.wav,Pink_Noise_6_2.wav,,,,,,,,,,,,,,,0,107,107,101,,,,,,,,,,,,,,,,,,,,,,,731.568408979103,None,733.0846548411064,None,734.4681515740231,None,"dream
",734.4681515740231,None,return,2.453030340373516,734.5516762090847,None,,,,,,,,,,,,,,,,,,,,,,,,,,,,,,,,,,,,,,,83,001,2023_Apr_24_1944,SpeechDraft1Carolyn_lessNoise_PlusLocalization,2021.2.3,59.980820515271546,
style.wav,style.mpg,style,5,A,Pink_Noise_5_1.wav,Pink_Noise_5_2.wav,,,,,,,,,,,,,,,0,108,108,45,,,,,,,,,,,,,,,,,,,,,,,737.0349061740562,None,738.5679836072959,None,739.9516149880365,None,"style
",739.9516149880365,None,return,4.785733025055379,740.0349706541747,None,,,,,,,,,,,,,,,,,,,,,,,,,,,,,,,,,,,,,,,83,001,2023_Apr_24_1944,SpeechDraft1Carolyn_lessNoise_PlusLocalization,2021.2.3,59.980820515271546,
cope.wav,cope.mpg,cope,4,AV,Pink_Noise_4_1.wav,Pink_Noise_4_2.wav,,,,,,,,,,,,,,,0,109,109,79,,,,,,,,,,,,,,,,,,,,,,,744.8516038651578,None,746.3679563961923,None,747.7515772092156,None,cope,747.7515772092156,None,return,0.9457733258605003,747.834921669215,None,,,,,,,,,,,,,,,,,,,,,,,,,,,,,,,,,,,,,,,83,001,2023_Apr_24_1944,SpeechDraft1Carolyn_lessNoise_PlusLocalization,2021.2.3,59.980820515271546,
flog.wav,flog.mpg,flog,5,AV,Pink_Noise_5_1.wav,Pink_Noise_5_2.wav,,,,,,,,,,,,,,,0,110,110,82,,,,,,,,,,,,,,,,,,,,,,,748.8016051179729,None,750.3368092640303,None,751.7182718422264,None,flaw,751.7182718422264,None,return,4.875126451253891,751.8015572573058,None,,,,,,,,,,,,,,,,,,,,,,,,,,,,,,,,,,,,,,,83,001,2023_Apr_24_1944,SpeechDraft1Carolyn_lessNoise_PlusLocalization,2021.2.3,59.980820515271546,
truck.wav,truck.mpg,truck,4,A,Pink_Noise_4_1.wav,Pink_Noise_4_2.wav,,,,,,,,,,,,,,,0,111,111,26,,,,,,,,,,,,,,,,,,,,,,,756.7015770669095,None,758.2515251482837,None,759.6349811730906,None,truck,759.6349811730906,None,return,2.782487152144313,759.7182442620397,None,,,,,,,,,,,,,,,,,,,,,,,,,,,,,,,,,,,,,,,83,001,2023_Apr_24_1944,SpeechDraft1Carolyn_lessNoise_PlusLocalization,2021.2.3,59.980820515271546,
gun.wav,gun.mpg,gun,5,A,Pink_Noise_5_1.wav,Pink_Noise_5_2.wav,,,,,,,,,,,,,,,0,112,112,0,,,,,,,,,,,,,,,,,,,,,,,762.518327113241,None,764.0347411721013,None,765.4182877042331,None,"drug
",765.4182877042331,None,return,0.919102449901402,765.5015937020071,None,,,,,,,,,,,,,,,,,,,,,,,,,,,,,,,,,,,,,,,83,001,2023_Apr_24_1944,SpeechDraft1Carolyn_lessNoise_PlusLocalization,2021.2.3,59.980820515271546,
cycle.wav,cycle.mpg,cycle,4,A,Pink_Noise_4_1.wav,Pink_Noise_4_2.wav,,,,,,,,,,,,,,,0,113,113,3,,,,,,,,,,,,,,,,,,,,,,,766.4517372981645,None,767.9678819249384,None,769.3516290439293,None,psycho,769.3516290439293,None,return,3.041806831024587,769.4349187258631,None,,,,,,,,,,,,,,,,,,,,,,,,,,,,,,,,,,,,,,,83,001,2023_Apr_24_1944,SpeechDraft1Carolyn_lessNoise_PlusLocalization,2021.2.3,59.980820515271546,
beard.wav,beard.mpg,beard,1,AV,Pink_Noise_1_1.wav,Pink_Noise_1_2.wav,,,,,,,,,,,,,,,0,114,114,109,,,,,,,,,,,,,,,,,,,,,,,772.5015053153038,None,774.0181200010702,None,775.4015848170966,None,beard,775.4015848170966,None,return,0.775752570014447,775.4849702282809,None,,,,,,,,,,,,,,,,,,,,,,,,,,,,,,,,,,,,,,,83,001,2023_Apr_24_1944,SpeechDraft1Carolyn_lessNoise_PlusLocalization,2021.2.3,59.980820515271546,
grin.wav,grin.mpg,grin,3,A,Pink_Noise_3_1.wav,Pink_Noise_3_2.wav,,,,,,,,,,,,,,,0,115,115,14,,,,,,,,,,,,,,,,,,,,,,,776.2851234222762,None,777.8013900779188,None,779.185097809881,None,grin,779.185097809881,None,return,1.7443363200873137,779.2683825450949,None,,,,,,,,,,,,,,,,,,,,,,,,,,,,,,,,,,,,,,,83,001,2023_Apr_24_1944,SpeechDraft1Carolyn_lessNoise_PlusLocalization,2021.2.3,59.980820515271546,
coach.wav,coach.mpg,coach,4,A,Pink_Noise_4_1.wav,Pink_Noise_4_2.wav,,,,,,,,,,,,,,,0,116,116,58,,,,,,,,,,,,,,,,,,,,,,,781.0349531741813,None,782.5513512380421,None,783.9349720291793,None,coach,783.9349720291793,None,return,2.3304642820730805,784.0183099992573,None,,,,,,,,,,,,,,,,,,,,,,,,,,,,,,,,,,,,,,,83,001,2023_Apr_24_1944,SpeechDraft1Carolyn_lessNoise_PlusLocalization,2021.2.3,59.980820515271546,
flirt.wav,flirt.mpg,flirt,1,A,Pink_Noise_1_1.wav,Pink_Noise_1_2.wav,,,,,,,,,,,,,,,0,117,117,1,,,,,,,,,,,,,,,,,,,,,,,786.3683429802768,None,787.8847259161994,None,789.2683204342611,None,flirt,789.2683204342611,None,return,2.49302751198411,789.3516569472849,None,,,,,,,,,,,,,,,,,,,,,,,,,,,,,,,,,,,,,,,83,001,2023_Apr_24_1944,SpeechDraft1Carolyn_lessNoise_PlusLocalization,2021.2.3,59.980820515271546,
faint.wav,faint.mpg,faint,2,AV,Pink_Noise_2_1.wav,Pink_Noise_2_2.wav,,,,,,,,,,,,,,,0,118,118,63,,,,,,,,,,,,,,,,,,,,,,,791.8683400140144,None,793.3847851739265,None,794.7682804660872,None,"faint
",794.7682804660872,None,return,1.153006745968014,794.8516892371699,None,,,,,,,,,,,,,,,,,,,,,,,,,,,,,,,,,,,,,,,83,001,2023_Apr_24_1944,SpeechDraft1Carolyn_lessNoise_PlusLocalization,2021.2.3,59.980820515271546,
eel.wav,eel.mpg,eel,1,AV,Pink_Noise_1_1.wav,Pink_Noise_1_2.wav,,,,,,,,,,,,,,,0,119,119,72,,,,,,,,,,,,,,,,,,,,,,,796.0349615141749,None,797.5697764889337,None,798.9515787162818,None,"ill
",798.9515787162818,None,return,0.8016088749282062,799.0351033080369,None,,,,,,,,,,,,,,,,,,,,,,,,,,,,,,,,,,,,,,,83,001,2023_Apr_24_1944,SpeechDraft1Carolyn_lessNoise_PlusLocalization,2021.2.3,59.980820515271546,
,,,,,,,,,,,,,,,,,,,,,,,,,,,,,,,,,,,,,,,,,,,,,,,,,,,,,,,,,,,,,,,,,,space,12.180403504986316,799.9683768679388,None,,,,,,,,,,,,,,,,,,,,,,,,,,,,,83,001,2023_Apr_24_1944,SpeechDraft1Carolyn_lessNoise_PlusLocalization,2021.2.3,59.980820515271546,
,,,,,,,,midRight,13.0,3,ch1Sound_localizationTask.wav,13.0,"(1142, 878)","(182, -202)",190,-338,,,,,,,,,0,0,0,5,,,,,,,,,,,,,,,,,,,,,,,,,,,,,,,,,,,,,,,,,,799.9683768679388,None,812.1848529609852,None,813.284782987088,None,814.2179800751619,None,1.5904761904761906,2.93663187418133,814.2179800751619,None,,,,,,,,,,,,,,,,,83,001,2023_Apr_24_1944,SpeechDraft1Carolyn_lessNoise_PlusLocalization,2021.2.3,59.980820515271546,
,,,,,,,,farRight,19.1,4,ch1Sound_localizationTask.wav,19.1,"(1237, 878)","(277,-202)",285,-338,,,,,,,,,0,1,1,6,,,,,,,,,,,,,,,,,,,,,,,,,,,,,,,,,,,,,,,,,,,,817.1518070679158,None,818.2515058019198,None,819.1848648739979,None,1.7275132275132274,0.6486034072004259,819.1848648739979,None,,,,,,,,,,,,,,,,,83,001,2023_Apr_24_1944,SpeechDraft1Carolyn_lessNoise_PlusLocalization,2021.2.3,59.980820515271546,
,,,,,,,,farLeft,-19.1,5,ch1Sound_localizationTask.wav,-19.1,"(667, 878)","(-293,-202)",-285,-338,,,,,,,,,0,2,2,0,,,,,,,,,,,,,,,,,,,,,,,,,,,,,,,,,,,,,,,,,,,,819.8349775769748,None,820.9348538271151,None,821.8680673800409,None,1.143915343915344,0.6830093925818801,821.8680673800409,None,,,,,,,,,,,,,,,,,83,001,2023_Apr_24_1944,SpeechDraft1Carolyn_lessNoise_PlusLocalization,2021.2.3,59.980820515271546,
,,,,,,,,nearLeft,-6.5,1,ch1Sound_localizationTask.wav,-6.5,"(857, 878)","(-103,-202)",-95,-338,,,,,,,,,0,3,3,2,,,,,,,,,,,,,,,,,,,,,,,,,,,,,,,,,,,,,,,,,,,,822.551784100011,None,823.6515485448763,None,824.5846931110136,None,1.416931216931217,1.032933591865003,824.5846931110136,None,,,,,,,,,,,,,,,,,83,001,2023_Apr_24_1944,SpeechDraft1Carolyn_lessNoise_PlusLocalization,2021.2.3,59.980820515271546,
,,,,,,,,nearRight,6.5,0,ch1Sound_localizationTask.wav,6.5,"(1047, 878)","(87, -202)",95,-338,,,,,,,,,0,4,4,4,,,,,,,,,,,,,,,,,,,,,,,,,,,,,,,,,,,,,,,,,,,,825.6183523340151,None,826.7180961691774,None,827.6514023090713,None,1.524867724867725,0.8835040042176843,827.6514023090713,None,,,,,,,,,,,,,,,,,83,001,2023_Apr_24_1944,SpeechDraft1Carolyn_lessNoise_PlusLocalization,2021.2.3,59.980820515271546,
,,,,,,,,nearRight,6.5,0,ch1Sound_localizationTask.wav,6.5,"(1047, 878)","(87, -202)",95,-338,,,,,,,,,0,5,5,4,,,,,,,,,,,,,,,,,,,,,,,,,,,,,,,,,,,,,,,,,,,,828.5350248268805,None,829.6347561851144,None,830.5681411018595,None,1.5243386243386243,0.5332616888917983,830.5681411018595,None,,,,,,,,,,,,,,,,,83,001,2023_Apr_24_1944,SpeechDraft1Carolyn_lessNoise_PlusLocalization,2021.2.3,59.980820515271546,
,,,,,,,,center,0.0,6,ch1Sound_localizationTask.wav,0.0,"(952, 878)","(-8,-202)",0,-338,,,,,,,,,0,6,6,3,,,,,,,,,,,,,,,,,,,,,,,,,,,,,,,,,,,,,,,,,,,,831.1017042729072,None,832.2013965048827,None,833.1348525132053,None,1.4851851851851852,0.6492025130428374,833.1348525132053,None,,,,,,,,,,,,,,,,,83,001,2023_Apr_24_1944,SpeechDraft1Carolyn_lessNoise_PlusLocalization,2021.2.3,59.980820515271546,
,,,,,,,,nearLeft,-6.5,1,ch1Sound_localizationTask.wav,-6.5,"(857, 878)","(-103,-202)",-95,-338,,,,,,,,,1,0,7,2,,,,,,,,,,,,,,,,,,,,,,,,,,,,,,,,,,,,,,,,,,,,833.785070518963,None,834.8847644422203,None,835.8181191342883,None,1.452910052910053,0.5331324813887477,835.8181191342883,None,,,,,,,,,,,,,,,,,83,001,2023_Apr_24_1944,SpeechDraft1Carolyn_lessNoise_PlusLocalization,2021.2.3,59.980820515271546,
,,,,,,,,midRight,13.0,3,ch1Sound_localizationTask.wav,13.0,"(1142, 878)","(182, -202)",190,-338,,,,,,,,,1,1,8,5,,,,,,,,,,,,,,,,,,,,,,,,,,,,,,,,,,,,,,,,,,,,836.3517723670229,None,837.4514977172948,None,838.3849656372331,None,1.5873015873015874,0.6652309871278703,838.3849656372331,None,,,,,,,,,,,,,,,,,83,001,2023_Apr_24_1944,SpeechDraft1Carolyn_lessNoise_PlusLocalization,2021.2.3,59.980820515271546,
,,,,,,,,nearLeft,-6.5,1,ch1Sound_localizationTask.wav,-6.5,"(857, 878)","(-103,-202)",-95,-338,,,,,,,,,1,2,9,2,,,,,,,,,,,,,,,,,,,,,,,,,,,,,,,,,,,,,,,,,,,,839.0517919771373,None,840.1515129422769,None,841.0847264449112,None,1.3603174603174604,0.9162157140672207,841.0847264449112,None,,,,,,,,,,,,,,,,,83,001,2023_Apr_24_1944,SpeechDraft1Carolyn_lessNoise_PlusLocalization,2021.2.3,59.980820515271546,
,,,,,,,,nearRight,6.5,0,ch1Sound_localizationTask.wav,6.5,"(1047, 878)","(87, -202)",95,-338,,,,,,,,,1,3,10,4,,,,,,,,,,,,,,,,,,,,,,,,,,,,,,,,,,,,,,,,,,,,842.0025737010874,None,843.1014713882469,None,844.0347189293243,None,1.5164021164021164,0.8153359009884298,844.0347189293243,None,,,,,,,,,,,,,,,,,83,001,2023_Apr_24_1944,SpeechDraft1Carolyn_lessNoise_PlusLocalization,2021.2.3,59.980820515271546,
,,,,,,,,midRight,13.0,3,ch1Sound_localizationTask.wav,13.0,"(1142, 878)","(182, -202)",190,-338,,,,,,,,,1,4,11,5,,,,,,,,,,,,,,,,,,,,,,,,,,,,,,,,,,,,,,,,,,,,844.8517921050079,None,845.9514322471805,None,846.8848035428673,None,1.6264550264550266,0.8499864400364459,846.8848035428673,None,,,,,,,,,,,,,,,,,83,001,2023_Apr_24_1944,SpeechDraft1Carolyn_lessNoise_PlusLocalization,2021.2.3,59.980820515271546,
,,,,,,,,nearRight,6.5,0,ch1Sound_localizationTask.wav,6.5,"(1047, 878)","(87, -202)",95,-338,,,,,,,,,1,5,12,4,,,,,,,,,,,,,,,,,,,,,,,,,,,,,,,,,,,,,,,,,,,,847.7351560052484,None,848.8347646570764,None,849.7679637339897,None,1.5502645502645502,0.9498171317391098,849.7679637339897,None,,,,,,,,,,,,,,,,,83,001,2023_Apr_24_1944,SpeechDraft1Carolyn_lessNoise_PlusLocalization,2021.2.3,59.980820515271546,
,,,,,,,,farLeft,-19.1,5,ch1Sound_localizationTask.wav,-19.1,"(667, 878)","(-293,-202)",-285,-338,,,,,,,,,1,6,13,0,,,,,,,,,,,,,,,,,,,,,,,,,,,,,,,,,,,,,,,,,,,,850.7183626452461,None,851.8181701572612,None,852.75140254898,None,1.2264550264550265,1.0999010410159826,852.75140254898,None,,,,,,,,,,,,,,,,,83,001,2023_Apr_24_1944,SpeechDraft1Carolyn_lessNoise_PlusLocalization,2021.2.3,59.980820515271546,
,,,,,,,,nearRight,6.5,0,ch1Sound_localizationTask.wav,6.5,"(1047, 878)","(87, -202)",95,-338,,,,,,,,,2,0,14,4,,,,,,,,,,,,,,,,,,,,,,,,,,,,,,,,,,,,,,,,,,,,853.8522242233157,None,854.9514109762385,None,855.884657246992,None,1.5486772486772487,0.882953442633152,855.884657246992,None,,,,,,,,,,,,,,,,,83,001,2023_Apr_24_1944,SpeechDraft1Carolyn_lessNoise_PlusLocalization,2021.2.3,59.980820515271546,
,,,,,,,,nearLeft,-6.5,1,ch1Sound_localizationTask.wav,-6.5,"(857, 878)","(-103,-202)",-95,-338,,,,,,,,,2,1,15,2,,,,,,,,,,,,,,,,,,,,,,,,,,,,,,,,,,,,,,,,,,,,856.7683992162347,None,857.868099689018,None,858.8016328308731,None,1.3772486772486774,0.8317640516906977,858.8016328308731,None,,,,,,,,,,,,,,,,,83,001,2023_Apr_24_1944,SpeechDraft1Carolyn_lessNoise_PlusLocalization,2021.2.3,59.980820515271546,
,,,,,,,,center,0.0,6,ch1Sound_localizationTask.wav,0.0,"(952, 878)","(-8,-202)",0,-338,,,,,,,,,2,2,16,3,,,,,,,,,,,,,,,,,,,,,,,,,,,,,,,,,,,,,,,,,,,,859.6351018170826,None,860.7347484780475,None,861.6682493579574,None,1.5031746031746032,0.8165876083076,861.6682493579574,None,,,,,,,,,,,,,,,,,83,001,2023_Apr_24_1944,SpeechDraft1Carolyn_lessNoise_PlusLocalization,2021.2.3,59.980820515271546,
,,,,,,,,nearLeft,-6.5,1,ch1Sound_localizationTask.wav,-6.5,"(857, 878)","(-103,-202)",-95,-338,,,,,,,,,2,3,17,2,,,,,,,,,,,,,,,,,,,,,,,,,,,,,,,,,,,,,,,,,,,,862.4853174709715,None,863.5847813203,None,864.5182271772064,None,1.4132275132275132,0.7661361331120133,864.5182271772064,None,,,,,,,,,,,,,,,,,83,001,2023_Apr_24_1944,SpeechDraft1Carolyn_lessNoise_PlusLocalization,2021.2.3,59.980820515271546,
,,,,,,,,farLeft,-19.1,5,ch1Sound_localizationTask.wav,-19.1,"(667, 878)","(-293,-202)",-285,-338,,,,,,,,,2,4,18,0,,,,,,,,,,,,,,,,,,,,,,,,,,,,,,,,,,,,,,,,,,,,865.2849916750565,None,866.3847976638936,None,867.3186302701943,None,1.3005291005291006,0.7114357277750969,867.3186302701943,None,,,,,,,,,,,,,,,,,83,001,2023_Apr_24_1944,SpeechDraft1Carolyn_lessNoise_PlusLocalization,2021.2.3,59.980820515271546,
,,,,,,,,center,0.0,6,ch1Sound_localizationTask.wav,0.0,"(952, 878)","(-8,-202)",0,-338,,,,,,,,,2,5,19,3,,,,,,,,,,,,,,,,,,,,,,,,,,,,,,,,,,,,,,,,,,,,868.0351593210362,None,869.1348478812724,None,870.0681504569948,None,1.4687830687830687,0.6171017549932003,870.0681504569948,None,,,,,,,,,,,,,,,,,83,001,2023_Apr_24_1944,SpeechDraft1Carolyn_lessNoise_PlusLocalization,2021.2.3,59.980820515271546,
,,,,,,,,farLeft,-19.1,5,ch1Sound_localizationTask.wav,-19.1,"(667, 878)","(-293,-202)",-285,-338,,,,,,,,,2,6,20,0,,,,,,,,,,,,,,,,,,,,,,,,,,,,,,,,,,,,,,,,,,,,870.7016920843162,None,871.8014280339703,None,872.7348247012123,None,1.2047619047619047,0.6501683667302132,872.7348247012123,None,,,,,,,,,,,,,,,,,83,001,2023_Apr_24_1944,SpeechDraft1Carolyn_lessNoise_PlusLocalization,2021.2.3,59.980820515271546,
,,,,,,,,midRight,13.0,3,ch1Sound_localizationTask.wav,13.0,"(1142, 878)","(182, -202)",190,-338,,,,,,,,,3,0,21,5,,,,,,,,,,,,,,,,,,,,,,,,,,,,,,,,,,,,,,,,,,,,873.3861822760664,None,874.5015286770649,None,875.418055461254,None,1.6047619047619048,0.8166836812160909,875.418055461254,None,,,,,,,,,,,,,,,,,83,001,2023_Apr_24_1944,SpeechDraft1Carolyn_lessNoise_PlusLocalization,2021.2.3,59.980820515271546,
,,,,,,,,midLeft,-13.0,2,ch1Sound_localizationTask.wav,-13.0,"(762, 878)","(-198,-202)",-190,-338,,,,,,,,,3,1,22,1,,,,,,,,,,,,,,,,,,,,,,,,,,,,,,,,,,,,,,,,,,,,876.2350235902704,None,877.3346907622181,None,878.2681907080114,None,1.397883597883598,1.100089826155454,878.2681907080114,None,,,,,,,,,,,,,,,,,83,001,2023_Apr_24_1944,SpeechDraft1Carolyn_lessNoise_PlusLocalization,2021.2.3,59.980820515271546,
,,,,,,,,midLeft,-13.0,2,ch1Sound_localizationTask.wav,-13.0,"(762, 878)","(-198,-202)",-190,-338,,,,,,,,,3,2,23,1,,,,,,,,,,,,,,,,,,,,,,,,,,,,,,,,,,,,,,,,,,,,879.3688804269768,None,880.4680425710976,None,881.4016185970977,None,1.3888888888888888,0.549822289030999,881.4016185970977,None,,,,,,,,,,,,,,,,,83,001,2023_Apr_24_1944,SpeechDraft1Carolyn_lessNoise_PlusLocalization,2021.2.3,59.980820515271546,
,,,,,,,,center,0.0,6,ch1Sound_localizationTask.wav,0.0,"(952, 878)","(-8,-202)",0,-338,,,,,,,,,3,3,24,3,,,,,,,,,,,,,,,,,,,,,,,,,,,,,,,,,,,,,,,,,,,,881.951829567086,None,883.05147884693,None,883.9849892118946,None,1.439153439153439,0.5325857806019485,883.9849892118946,None,,,,,,,,,,,,,,,,,83,001,2023_Apr_24_1944,SpeechDraft1Carolyn_lessNoise_PlusLocalization,2021.2.3,59.980820515271546,
,,,,,,,,center,0.0,6,ch1Sound_localizationTask.wav,0.0,"(952, 878)","(-8,-202)",0,-338,,,,,,,,,3,4,25,3,,,,,,,,,,,,,,,,,,,,,,,,,,,,,,,,,,,,,,,,,,,,884.5184985329397,None,885.6181786940433,None,886.5516491639428,None,1.491005291005291,0.4498822088353336,886.5516491639428,None,,,,,,,,,,,,,,,,,83,001,2023_Apr_24_1944,SpeechDraft1Carolyn_lessNoise_PlusLocalization,2021.2.3,59.980820515271546,
,,,,,,,,midLeft,-13.0,2,ch1Sound_localizationTask.wav,-13.0,"(762, 878)","(-198,-202)",-190,-338,,,,,,,,,3,5,26,1,,,,,,,,,,,,,,,,,,,,,,,,,,,,,,,,,,,,,,,,,,,,887.001912527252,None,888.1014515073039,None,889.0347859081812,None,1.4026455026455027,0.4655363126657903,889.0347859081812,None,,,,,,,,,,,,,,,,,83,001,2023_Apr_24_1944,SpeechDraft1Carolyn_lessNoise_PlusLocalization,2021.2.3,59.980820515271546,
,,,,,,,,nearRight,6.5,0,ch1Sound_localizationTask.wav,6.5,"(1047, 878)","(87, -202)",95,-338,,,,,,,,,3,6,27,4,,,,,,,,,,,,,,,,,,,,,,,,,,,,,,,,,,,,,,,,,,,,889.501903499011,None,890.6014667931013,None,891.5348652820103,None,1.535978835978836,0.40028863679617643,891.5348652820103,None,,,,,,,,,,,,,,,,,83,001,2023_Apr_24_1944,SpeechDraft1Carolyn_lessNoise_PlusLocalization,2021.2.3,59.980820515271546,
,,,,,,,,midLeft,-13.0,2,ch1Sound_localizationTask.wav,-13.0,"(762, 878)","(-198,-202)",-190,-338,,,,,,,,,4,0,28,1,,,,,,,,,,,,,,,,,,,,,,,,,,,,,,,,,,,,,,,,,,,,891.9518473432399,None,893.0514621930197,None,893.9848887929693,None,1.375132275132275,0.7341097369790077,893.9848887929693,None,,,,,,,,,,,,,,,,,83,001,2023_Apr_24_1944,SpeechDraft1Carolyn_lessNoise_PlusLocalization,2021.2.3,59.980820515271546,
,,,,,,,,nearRight,6.5,0,ch1Sound_localizationTask.wav,6.5,"(1047, 878)","(87, -202)",95,-338,,,,,,,,,4,1,29,4,,,,,,,,,,,,,,,,,,,,,,,,,,,,,,,,,,,,,,,,,,,,894.735306924209,None,895.8348878342658,None,896.7681954321451,None,1.5216931216931218,0.5000423020683229,896.7681954321451,None,,,,,,,,,,,,,,,,,83,001,2023_Apr_24_1944,SpeechDraft1Carolyn_lessNoise_PlusLocalization,2021.2.3,59.980820515271546,
,,,,,,,,farRight,19.1,4,ch1Sound_localizationTask.wav,19.1,"(1237, 878)","(277,-202)",285,-338,,,,,,,,,4,2,30,6,,,,,,,,,,,,,,,,,,,,,,,,,,,,,,,,,,,,,,,,,,,,897.2857628180645,None,898.3849141532555,None,899.3182801459916,None,1.664021164021164,0.5315934964455664,899.3182801459916,None,,,,,,,,,,,,,,,,,83,001,2023_Apr_24_1944,SpeechDraft1Carolyn_lessNoise_PlusLocalization,2021.2.3,59.980820515271546,
,,,,,,,,nearRight,6.5,0,ch1Sound_localizationTask.wav,6.5,"(1047, 878)","(87, -202)",95,-338,,,,,,,,,4,3,31,4,,,,,,,,,,,,,,,,,,,,,,,,,,,,,,,,,,,,,,,,,,,,899.8517929851077,None,900.9514679373242,None,901.8847665060312,None,1.5597883597883597,0.3990124808624387,901.8847665060312,None,,,,,,,,,,,,,,,,,83,001,2023_Apr_24_1944,SpeechDraft1Carolyn_lessNoise_PlusLocalization,2021.2.3,59.980820515271546,
,,,,,,,,midRight,13.0,3,ch1Sound_localizationTask.wav,13.0,"(1142, 878)","(182, -202)",190,-338,,,,,,,,,4,4,32,5,,,,,,,,,,,,,,,,,,,,,,,,,,,,,,,,,,,,,,,,,,,,902.2850886438973,None,903.3848615670577,None,904.3182363710366,None,1.6365079365079365,0.5165141681209207,904.3182363710366,None,,,,,,,,,,,,,,,,,83,001,2023_Apr_24_1944,SpeechDraft1Carolyn_lessNoise_PlusLocalization,2021.2.3,59.980820515271546,
,,,,,,,,farRight,19.1,4,ch1Sound_localizationTask.wav,19.1,"(1237, 878)","(277,-202)",285,-338,,,,,,,,,4,5,33,6,,,,,,,,,,,,,,,,,,,,,,,,,,,,,,,,,,,,,,,,,,,,904.83528313227,None,905.9348822310567,None,906.8681540740654,None,1.6857142857142857,0.39871908398345113,906.8681540740654,None,,,,,,,,,,,,,,,,,83,001,2023_Apr_24_1944,SpeechDraft1Carolyn_lessNoise_PlusLocalization,2021.2.3,59.980820515271546,
,,,,,,,,midLeft,-13.0,2,ch1Sound_localizationTask.wav,-13.0,"(762, 878)","(-198,-202)",-190,-338,,,,,,,,,4,6,34,1,,,,,,,,,,,,,,,,,,,,,,,,,,,,,,,,,,,,,,,,,,,,907.2684830301441,None,908.3681751522236,None,909.3016321421601,None,1.3534391534391534,0.5828857268206775,909.3016321421601,None,,,,,,,,,,,,,,,,,83,001,2023_Apr_24_1944,SpeechDraft1Carolyn_lessNoise_PlusLocalization,2021.2.3,59.980820515271546,
,,,,,,,,midRight,13.0,3,ch1Sound_localizationTask.wav,13.0,"(1142, 878)","(182, -202)",190,-338,,,,,,,,,5,0,35,5,,,,,,,,,,,,,,,,,,,,,,,,,,,,,,,,,,,,,,,,,,,,909.8851611991413,None,910.9849288598634,None,911.9182955450378,None,1.6465608465608466,0.566392017994076,911.9182955450378,None,,,,,,,,,,,,,,,,,83,001,2023_Apr_24_1944,SpeechDraft1Carolyn_lessNoise_PlusLocalization,2021.2.3,59.980820515271546,
,,,,,,,,farLeft,-19.1,5,ch1Sound_localizationTask.wav,-19.1,"(667, 878)","(-293,-202)",-285,-338,,,,,,,,,5,1,36,0,,,,,,,,,,,,,,,,,,,,,,,,,,,,,,,,,,,,,,,,,,,,912.4852279112674,None,913.584772946313,None,914.5183058870025,None,1.3174603174603174,0.816890134010464,914.5183058870025,None,,,,,,,,,,,,,,,,,83,001,2023_Apr_24_1944,SpeechDraft1Carolyn_lessNoise_PlusLocalization,2021.2.3,59.980820515271546,
,,,,,,,,center,0.0,6,ch1Sound_localizationTask.wav,0.0,"(952, 878)","(-8,-202)",0,-338,,,,,,,,,5,2,37,3,,,,,,,,,,,,,,,,,,,,,,,,,,,,,,,,,,,,,,,,,,,,915.3353023799136,None,916.4348613442853,None,917.3682824051939,None,1.4682539682539684,0.5165431969799101,917.3682824051939,None,,,,,,,,,,,,,,,,,83,001,2023_Apr_24_1944,SpeechDraft1Carolyn_lessNoise_PlusLocalization,2021.2.3,59.980820515271546,
,,,,,,,,nearLeft,-6.5,1,ch1Sound_localizationTask.wav,-6.5,"(857, 878)","(-103,-202)",-95,-338,,,,,,,,,5,3,38,2,,,,,,,,,,,,,,,,,,,,,,,,,,,,,,,,,,,,,,,,,,,,917.8851587539539,None,918.9848305331543,None,919.9182683569379,None,1.3682539682539683,0.6001343228854239,919.9182683569379,None,,,,,,,,,,,,,,,,,83,001,2023_Apr_24_1944,SpeechDraft1Carolyn_lessNoise_PlusLocalization,2021.2.3,59.980820515271546,
,,,,,,,,midRight,13.0,3,ch1Sound_localizationTask.wav,13.0,"(1142, 878)","(182, -202)",190,-338,,,,,,,,,5,4,39,5,,,,,,,,,,,,,,,,,,,,,,,,,,,,,,,,,,,,,,,,,,,,920.518750702031,None,921.6183508401737,None,922.5515911481343,None,1.6153439153439153,0.5994100458920002,922.5515911481343,None,,,,,,,,,,,,,,,,,83,001,2023_Apr_24_1944,SpeechDraft1Carolyn_lessNoise_PlusLocalization,2021.2.3,59.980820515271546,
,,,,,,,,farLeft,-19.1,5,ch1Sound_localizationTask.wav,-19.1,"(667, 878)","(-293,-202)",-285,-338,,,,,,,,,5,5,40,0,,,,,,,,,,,,,,,,,,,,,,,,,,,,,,,,,,,,,,,,,,,,923.1517926203087,None,924.2514870408922,None,925.1849169628695,None,1.2735449735449735,0.8857875373214483,925.1849169628695,None,,,,,,,,,,,,,,,,,83,001,2023_Apr_24_1944,SpeechDraft1Carolyn_lessNoise_PlusLocalization,2021.2.3,59.980820515271546,
,,,,,,,,farLeft,-19.1,5,ch1Sound_localizationTask.wav,-19.1,"(667, 878)","(-293,-202)",-285,-338,,,,,,,,,5,6,41,0,,,,,,,,,,,,,,,,,,,,,,,,,,,,,,,,,,,,,,,,,,,,926.0852862820029,None,927.1848846101202,None,928.1182706011459,None,1.2894179894179894,0.7830347288399935,928.1182706011459,None,,,,,,,,,,,,,,,,,83,001,2023_Apr_24_1944,SpeechDraft1Carolyn_lessNoise_PlusLocalization,2021.2.3,59.980820515271546,
,,,,,,,,midRight,13.0,3,ch1Sound_localizationTask.wav,13.0,"(1142, 878)","(182, -202)",190,-338,,,,,,,,,6,0,42,5,,,,,,,,,,,,,,,,,,,,,,,,,,,,,,,,,,,,,,,,,,,,928.9018106418662,None,930.0016373842955,None,930.9348811223172,None,1.662962962962963,0.6174791068769991,930.9348811223172,None,,,,,,,,,,,,,,,,,83,001,2023_Apr_24_1944,SpeechDraft1Carolyn_lessNoise_PlusLocalization,2021.2.3,59.980820515271546,
,,,,,,,,farRight,19.1,4,ch1Sound_localizationTask.wav,19.1,"(1237, 878)","(277,-202)",285,-338,,,,,,,,,6,1,43,6,,,,,,,,,,,,,,,,,,,,,,,,,,,,,,,,,,,,,,,,,,,,931.5686235800385,None,932.6680950592272,None,933.6017435500398,None,1.6873015873015873,0.4810268860310316,933.6017435500398,None,,,,,,,,,,,,,,,,,83,001,2023_Apr_24_1944,SpeechDraft1Carolyn_lessNoise_PlusLocalization,2021.2.3,59.980820515271546,
,,,,,,,,farLeft,-19.1,5,ch1Sound_localizationTask.wav,-19.1,"(667, 878)","(-293,-202)",-285,-338,,,,,,,,,6,2,44,0,,,,,,,,,,,,,,,,,,,,,,,,,,,,,,,,,,,,,,,,,,,,934.0851794662885,None,935.1849060328677,None,936.1184886433184,None,1.3005291005291006,0.7498244936577976,936.1184886433184,None,,,,,,,,,,,,,,,,,83,001,2023_Apr_24_1944,SpeechDraft1Carolyn_lessNoise_PlusLocalization,2021.2.3,59.980820515271546,
,,,,,,,,midLeft,-13.0,2,ch1Sound_localizationTask.wav,-13.0,"(762, 878)","(-198,-202)",-190,-338,,,,,,,,,6,3,45,1,,,,,,,,,,,,,,,,,,,,,,,,,,,,,,,,,,,,,,,,,,,,936.868494022172,None,937.9683614321984,None,938.9017358780839,None,1.3275132275132275,0.54953594179824,938.9017358780839,None,,,,,,,,,,,,,,,,,83,001,2023_Apr_24_1944,SpeechDraft1Carolyn_lessNoise_PlusLocalization,2021.2.3,59.980820515271546,
,,,,,,,,farRight,19.1,4,ch1Sound_localizationTask.wav,19.1,"(1237, 878)","(277,-202)",285,-338,,,,,,,,,6,4,46,6,,,,,,,,,,,,,,,,,,,,,,,,,,,,,,,,,,,,,,,,,,,,939.4519704822451,None,940.5516482111998,None,941.4848693450913,None,1.6772486772486772,0.6165205473080277,941.4848693450913,None,,,,,,,,,,,,,,,,,83,001,2023_Apr_24_1944,SpeechDraft1Carolyn_lessNoise_PlusLocalization,2021.2.3,59.980820515271546,
,,,,,,,,center,0.0,6,ch1Sound_localizationTask.wav,0.0,"(952, 878)","(-8,-202)",0,-338,,,,,,,,,6,5,47,3,,,,,,,,,,,,,,,,,,,,,,,,,,,,,,,,,,,,,,,,,,,,942.1017561210319,None,943.2015656679869,None,944.1349545149133,None,1.4772486772486773,0.5999478860758245,944.1349545149133,None,,,,,,,,,,,,,,,,,83,001,2023_Apr_24_1944,SpeechDraft1Carolyn_lessNoise_PlusLocalization,2021.2.3,59.980820515271546,
,,,,,,,,farRight,19.1,4,ch1Sound_localizationTask.wav,19.1,"(1237, 878)","(277,-202)",285,-338,,,,,,,,,6,6,48,6,,,,,,,,,,,,,,,,,,,,,,,,,,,,,,,,,,,,,,,,,,,,944.7354236468673,None,945.8349277670495,None,946.7683418560773,None,1.6883597883597883,0.515635235235095,946.7683418560773,None,,,,,,,,,,,,,,,,,83,001,2023_Apr_24_1944,SpeechDraft1Carolyn_lessNoise_PlusLocalization,2021.2.3,59.980820515271546,
,,,,,,,,center,0.0,6,ch1Sound_localizationTask.wav,0.0,"(952, 878)","(-8,-202)",0,-338,,,,,,,,,7,0,49,3,,,,,,,,,,,,,,,,,,,,,,,,,,,,,,,,,,,,,,,,,,,,947.2852385849692,None,948.3849559510127,None,949.3184336051345,None,1.3656084656084655,0.698061466217041,949.3184336051345,None,,,,,,,,,,,,,,,,,83,001,2023_Apr_24_1944,SpeechDraft1Carolyn_lessNoise_PlusLocalization,2021.2.3,59.980820515271546,
,,,,,,,,farRight,19.1,4,ch1Sound_localizationTask.wav,19.1,"(1237, 878)","(277,-202)",285,-338,,,,,,,,,7,1,50,6,,,,,,,,,,,,,,,,,,,,,,,,,,,,,,,,,,,,,,,,,,,,950.0184889952652,None,951.1181939481758,None,952.0515235261992,None,1.75978835978836,0.4665210428647697,952.0515235261992,None,,,,,,,,,,,,,,,,,83,001,2023_Apr_24_1944,SpeechDraft1Carolyn_lessNoise_PlusLocalization,2021.2.3,59.980820515271546,
,,,,,,,,midLeft,-13.0,2,ch1Sound_localizationTask.wav,-13.0,"(762, 878)","(-198,-202)",-190,-338,,,,,,,,,7,2,51,1,,,,,,,,,,,,,,,,,,,,,,,,,,,,,,,,,,,,,,,,,,,,952.5186583269387,None,953.6185408378951,None,954.5515595041215,None,1.3338624338624339,0.6154886148869991,954.5515595041215,None,,,,,,,,,,,,,,,,,83,001,2023_Apr_24_1944,SpeechDraft1Carolyn_lessNoise_PlusLocalization,2021.2.3,59.980820515271546,
,,,,,,,,midLeft,-13.0,2,ch1Sound_localizationTask.wav,-13.0,"(762, 878)","(-198,-202)",-190,-338,,,,,,,,,7,3,52,1,,,,,,,,,,,,,,,,,,,,,,,,,,,,,,,,,,,,,,,,,,,,955.1685908641666,None,956.2682966752909,None,957.2018724712543,None,1.3534391534391534,0.3656174410134554,957.2018724712543,None,,,,,,,,,,,,,,,,,83,001,2023_Apr_24_1944,SpeechDraft1Carolyn_lessNoise_PlusLocalization,2021.2.3,59.980820515271546,
,,,,,,,,nearLeft,-6.5,1,ch1Sound_localizationTask.wav,-6.5,"(857, 878)","(-103,-202)",-95,-338,,,,,,,,,7,4,53,2,,,,,,,,,,,,,,,,,,,,,,,,,,,,,,,,,,,,,,,,,,,,957.5684759858996,None,958.668220361229,None,959.6016163039021,None,1.353968253968254,0.35021800082176924,959.6016163039021,None,,,,,,,,,,,,,,,,,83,001,2023_Apr_24_1944,SpeechDraft1Carolyn_lessNoise_PlusLocalization,2021.2.3,59.980820515271546,
,,,,,,,,nearLeft,-6.5,1,ch1Sound_localizationTask.wav,-6.5,"(857, 878)","(-103,-202)",-95,-338,,,,,,,,,7,5,54,2,,,,,,,,,,,,,,,,,,,,,,,,,,,,,,,,,,,,,,,,,,,,959.9518835791387,None,961.0516080451198,None,961.9849032242782,None,1.3746031746031746,0.3329863757826388,961.9849032242782,None,,,,,,,,,,,,,,,,,83,001,2023_Apr_24_1944,SpeechDraft1Carolyn_lessNoise_PlusLocalization,2021.2.3,59.980820515271546,
,,,,,,,,farRight,19.1,4,ch1Sound_localizationTask.wav,19.1,"(1237, 878)","(277,-202)",285,-338,,,,,,,,,7,6,55,6,,,,,,,,,,,,,,,,,,,,,,,,,,,,,,,,,,,,,,,,,,,,962.3185471328907,None,963.4184636501595,None,964.3516113799997,None,1.6788359788359788,0.4999933298677206,964.3516113799997,None,,,,,,,,,,,,,,,,,83,001,2023_Apr_24_1944,SpeechDraft1Carolyn_lessNoise_PlusLocalization,2021.2.3,59.980820515271546,
,,,,,,,,,,,,,,,,,,,,,,,,,,,,,,,,,,,,,,,,,,,,,,,,,,,,,,,,,,,,,,,,,,,,,,,,,,,,,,,,,,space,15.484806877095252,964.9518959610723,None,,,,,,,,,,,,,83,001,2023_Apr_24_1944,SpeechDraft1Carolyn_lessNoise_PlusLocalization,2021.2.3,59.980820515271546,
,,,,,,,,center,0.0,6,ch1Sound_localizationTask.wav,0.0,"(952, 878)","(-8,-202)",0,-338,,,,,,,,,,,,,0,0,0,3,,,,,,,,,,,,,,,,,,,,,,,,,,,,,,,,,,,,,,,,980.4849867341109,None,,,983.5037711742334,None,1.492063492063492,2.1870354772545397,983.5037711742334,None,,,,,964.9518959610723,None,981.485269812867,None,981.6686333292164,981.6852961368859,,,,,,,83,001,2023_Apr_24_1944,SpeechDraft1Carolyn_lessNoise_PlusLocalization,2021.2.3,59.980820515271546,
,,,,,,,,farLeft,-19.1,5,ch1Sound_localizationTask.wav,-19.1,"(667, 878)","(-293,-202)",-285,-338,,,,,,,,,,,,,0,1,1,0,,,,,,,,,,,,,,,,,,,,,,,,,,,,,,,,,,,,,,,,985.7020681998692,None,,,988.7182761360891,None,1.3291005291005291,1.033328809775412,988.7182761360891,None,,,,,,,986.7019124841318,None,986.885446799919,986.9021986462176,,,,,,,83,001,2023_Apr_24_1944,SpeechDraft1Carolyn_lessNoise_PlusLocalization,2021.2.3,59.980820515271546,
,,,,,,,,center,0.0,6,ch1Sound_localizationTask.wav,0.0,"(952, 878)","(-8,-202)",0,-338,,,,,,,,,,,,,0,2,2,3,,,,,,,,,,,,,,,,,,,,,,,,,,,,,,,,,,,,,,,,989.7526536951773,None,,,992.7685003192164,None,1.5005291005291004,0.6822904832661152,992.7685003192164,None,,,,,,,990.7519125989638,None,990.9353607231751,990.9519174150191,,,,,,,83,001,2023_Apr_24_1944,SpeechDraft1Carolyn_lessNoise_PlusLocalization,2021.2.3,59.980820515271546,
,,,,,,,,nearLeft,-6.5,1,ch1Sound_localizationTask.wav,-6.5,"(857, 878)","(-103,-202)",-95,-338,,,,,,,,,,,,,0,3,3,2,,,,,,,,,,,,,,,,,,,,,,,,,,,,,,,,,,,,,,,,993.4519838280976,None,,,996.4683632198721,None,1.4354497354497355,0.6327800080180168,996.4683632198721,None,,,,,,,994.4520790451206,None,994.6351629202254,994.651915058028,,,,,,,83,001,2023_Apr_24_1944,SpeechDraft1Carolyn_lessNoise_PlusLocalization,2021.2.3,59.980820515271546,
,,,,,,,,farLeft,-19.1,5,ch1Sound_localizationTask.wav,-19.1,"(667, 878)","(-293,-202)",-285,-338,,,,,,,,,,,,,0,4,4,0,,,,,,,,,,,,,,,,,,,,,,,,,,,,,,,,,,,,,,,,997.1019134260714,None,,,1000.118245376274,None,1.3534391534391534,0.8510182918980718,1000.118245376274,None,,,,,,,998.1019841781817,None,998.2854017280042,998.3019849052653,,,,,,,83,001,2023_Apr_24_1944,SpeechDraft1Carolyn_lessNoise_PlusLocalization,2021.2.3,59.980820515271546,
,,,,,,,,nearRight,6.5,0,ch1Sound_localizationTask.wav,6.5,"(1047, 878)","(87, -202)",95,-338,,,,,,,,,,,,,0,5,5,4,,,,,,,,,,,,,,,,,,,,,,,,,,,,,,,,,,,,,,,,1000.9852920789272,None,,,1004.0017098980024,None,1.5603174603174603,0.7661311086267233,1004.0017098980024,None,,,,,,,1001.9856846719049,None,1002.1686551109888,1002.1852678391151,,,,,,,83,001,2023_Apr_24_1944,SpeechDraft1Carolyn_lessNoise_PlusLocalization,2021.2.3,59.980820515271546,
,,,,,,,,center,0.0,6,ch1Sound_localizationTask.wav,0.0,"(952, 878)","(-8,-202)",0,-338,,,,,,,,,,,,,0,6,6,3,,,,,,,,,,,,,,,,,,,,,,,,,,,,,,,,,,,,,,,,1004.7687515201978,None,,,1007.7850278071128,None,1.4883597883597883,0.7494912501424551,1007.7850278071128,None,,,,,,,1005.7685343031771,None,1005.951980791986,1005.968544205185,,,,,,,83,001,2023_Apr_24_1944,SpeechDraft1Carolyn_lessNoise_PlusLocalization,2021.2.3,59.980820515271546,
,,,,,,,,farLeft,-19.1,5,ch1Sound_localizationTask.wav,-19.1,"(667, 878)","(-293,-202)",-285,-338,,,,,,,,,,,,,1,0,7,0,,,,,,,,,,,,,,,,,,,,,,,,,,,,,,,,,,,,,,,,1008.535416554194,None,,,1011.551792178303,None,1.3338624338624339,0.8987103514373302,1011.551792178303,None,,,,,,,1009.5352881811559,None,1009.7185997441411,1009.7353122970089,,,,,,,83,001,2023_Apr_24_1944,SpeechDraft1Carolyn_lessNoise_PlusLocalization,2021.2.3,59.980820515271546,
,,,,,,,,nearLeft,-6.5,1,ch1Sound_localizationTask.wav,-6.5,"(857, 878)","(-103,-202)",-95,-338,,,,,,,,,,,,,1,1,8,2,,,,,,,,,,,,,,,,,,,,,,,,,,,,,,,,,,,,,,,,1012.4519079970196,None,,,1015.4683579672128,None,1.455026455026455,0.6332649630494416,1015.4683579672128,None,,,,,,,1013.4519905620255,None,1013.6352296732366,1013.6519895140082,,,,,,,83,001,2023_Apr_24_1944,SpeechDraft1Carolyn_lessNoise_PlusLocalization,2021.2.3,59.980820515271546,
,,,,,,,,farLeft,-19.1,5,ch1Sound_localizationTask.wav,-19.1,"(667, 878)","(-293,-202)",-285,-338,,,,,,,,,,,,,1,2,9,0,,,,,,,,,,,,,,,,,,,,,,,,,,,,,,,,,,,,,,,,1016.1027158740908,None,,,1019.1185119901784,None,1.3677248677248677,0.4987564068287611,1019.1185119901784,None,,,,,,,1017.102010648232,None,1017.2856922252104,1017.3024634760804,,,,,,,83,001,2023_Apr_24_1944,SpeechDraft1Carolyn_lessNoise_PlusLocalization,2021.2.3,59.980820515271546,
,,,,,,,,nearLeft,-6.5,1,ch1Sound_localizationTask.wav,-6.5,"(857, 878)","(-103,-202)",-95,-338,,,,,,,,,,,,,1,3,10,2,,,,,,,,,,,,,,,,,,,,,,,,,,,,,,,,,,,,,,,,1019.6188342091627,None,,,1022.6349974619225,None,1.4412698412698413,0.6665172833018005,1022.6349974619225,None,,,,,,,1020.6186351343058,None,1020.8021167549305,1020.8188437381759,,,,,,,83,001,2023_Apr_24_1944,SpeechDraft1Carolyn_lessNoise_PlusLocalization,2021.2.3,59.980820515271546,
,,,,,,,,nearRight,6.5,0,ch1Sound_localizationTask.wav,6.5,"(1047, 878)","(87, -202)",95,-338,,,,,,,,,,,,,1,4,11,4,,,,,,,,,,,,,,,,,,,,,,,,,,,,,,,,,,,,,,,,1023.3021553480066,None,,,1026.3184465491213,None,1.5576719576719578,1.215719343163073,1026.3184465491213,None,,,,,,,1024.302084247116,None,1024.485256249085,1024.5021301889792,,,,,,,83,001,2023_Apr_24_1944,SpeechDraft1Carolyn_lessNoise_PlusLocalization,2021.2.3,59.980820515271546,
,,,,,,,,farRight,19.1,4,ch1Sound_localizationTask.wav,19.1,"(1237, 878)","(277,-202)",285,-338,,,,,,,,,,,,,1,5,12,6,,,,,,,,,,,,,,,,,,,,,,,,,,,,,,,,,,,,,,,,1027.535347702913,None,,,1030.5517262681387,None,1.6423280423280424,0.8499297448433936,1030.5517262681387,None,,,,,,,1028.5352893471718,None,1028.7187225292437,1028.735304327216,,,,,,,83,001,2023_Apr_24_1944,SpeechDraft1Carolyn_lessNoise_PlusLocalization,2021.2.3,59.980820515271546,
,,,,,,,,midRight,13.0,3,ch1Sound_localizationTask.wav,13.0,"(1142, 878)","(182, -202)",190,-338,,,,,,,,,,,,,1,6,13,5,,,,,,,,,,,,,,,,,,,,,,,,,,,,,,,,,,,,,,,,1031.4028262980282,None,,,1034.4184219460003,None,1.591005291005291,0.648641019128263,1034.4184219460003,None,,,,,,,1032.4019579989836,None,1032.5853420742787,1032.6020558341406,,,,,,,83,001,2023_Apr_24_1944,SpeechDraft1Carolyn_lessNoise_PlusLocalization,2021.2.3,59.980820515271546,
,,,,,,,,nearLeft,-6.5,1,ch1Sound_localizationTask.wav,-6.5,"(857, 878)","(-103,-202)",-95,-338,,,,,,,,,,,,,2,0,14,2,,,,,,,,,,,,,,,,,,,,,,,,,,,,,,,,,,,,,,,,1035.0687242830172,None,,,1038.0850375010632,None,1.4439153439153438,0.8000340247526765,1038.0850375010632,None,,,,,,,1036.0686619263142,None,1036.252032367047,1036.268680031877,,,,,,,83,001,2023_Apr_24_1944,SpeechDraft1Carolyn_lessNoise_PlusLocalization,2021.2.3,59.980820515271546,
,,,,,,,,midRight,13.0,3,ch1Sound_localizationTask.wav,13.0,"(1142, 878)","(182, -202)",190,-338,,,,,,,,,,,,,2,1,15,5,,,,,,,,,,,,,,,,,,,,,,,,,,,,,,,,,,,,,,,,1038.885296991095,None,,,1041.9017532509752,None,1.6005291005291005,0.9335075803101063,1041.9017532509752,None,,,,,,,1039.8853086172603,None,1040.068686244078,1040.0851878039539,,,,,,,83,001,2023_Apr_24_1944,SpeechDraft1Carolyn_lessNoise_PlusLocalization,2021.2.3,59.980820515271546,
,,,,,,,,nearLeft,-6.5,1,ch1Sound_localizationTask.wav,-6.5,"(857, 878)","(-103,-202)",-95,-338,,,,,,,,,,,,,2,2,16,2,,,,,,,,,,,,,,,,,,,,,,,,,,,,,,,,,,,,,,,,1042.835322035011,None,,,1045.8518155720085,None,1.4365079365079365,0.8169167158193886,1045.8518155720085,None,,,,,,,1043.83550526388,None,1044.0187128889374,1044.035342244897,,,,,,,83,001,2023_Apr_24_1944,SpeechDraft1Carolyn_lessNoise_PlusLocalization,2021.2.3,59.980820515271546,
,,,,,,,,midLeft,-13.0,2,ch1Sound_localizationTask.wav,-13.0,"(762, 878)","(-198,-202)",-190,-338,,,,,,,,,,,,,2,3,17,1,,,,,,,,,,,,,,,,,,,,,,,,,,,,,,,,,,,,,,,,1046.6686815819703,None,,,1049.6850497489795,None,1.408994708994709,1.0991612547077239,1049.6850497489795,None,,,,,,,1047.6687988722697,None,1047.8519381983206,1047.868731285911,,,,,,,83,001,2023_Apr_24_1944,SpeechDraft1Carolyn_lessNoise_PlusLocalization,2021.2.3,59.980820515271546,
,,,,,,,,farRight,19.1,4,ch1Sound_localizationTask.wav,19.1,"(1237, 878)","(277,-202)",285,-338,,,,,,,,,,,,,2,4,18,6,,,,,,,,,,,,,,,,,,,,,,,,,,,,,,,,,,,,,,,,1050.7853737412952,None,,,1053.8016917291097,None,1.638095238095238,0.7654318530112505,1053.8016917291097,None,,,,,,,1051.7853478221223,None,1051.9686350221746,1051.9853235022165,,,,,,,83,001,2023_Apr_24_1944,SpeechDraft1Carolyn_lessNoise_PlusLocalization,2021.2.3,59.980820515271546,
,,,,,,,,midRight,13.0,3,ch1Sound_localizationTask.wav,13.0,"(1142, 878)","(182, -202)",190,-338,,,,,,,,,,,,,2,5,19,5,,,,,,,,,,,,,,,,,,,,,,,,,,,,,,,,,,,,,,,,1054.568859803956,None,,,1057.5851681549102,None,1.5883597883597882,0.7331530377268791,1057.5851681549102,None,,,,,,,1055.5686671580188,None,1055.7519926661626,1055.7687425459735,,,,,,,83,001,2023_Apr_24_1944,SpeechDraft1Carolyn_lessNoise_PlusLocalization,2021.2.3,59.980820515271546,
,,,,,,,,farRight,19.1,4,ch1Sound_localizationTask.wav,19.1,"(1237, 878)","(277,-202)",285,-338,,,,,,,,,,,,,2,6,20,6,,,,,,,,,,,,,,,,,,,,,,,,,,,,,,,,,,,,,,,,1058.318861760199,None,,,1061.335035072174,None,1.6444444444444444,0.43294656416401267,1061.335035072174,None,,,,,,,1059.318719771225,None,1059.5020294450223,1059.518955572974,,,,,,,83,001,2023_Apr_24_1944,SpeechDraft1Carolyn_lessNoise_PlusLocalization,2021.2.3,59.980820515271546,
,,,,,,,,farRight,19.1,4,ch1Sound_localizationTask.wav,19.1,"(1237, 878)","(277,-202)",285,-338,,,,,,,,,,,,,3,0,21,6,,,,,,,,,,,,,,,,,,,,,,,,,,,,,,,,,,,,,,,,1061.7687161769718,None,,,1064.7851053890772,None,1.6481481481481481,0.716105102095753,1064.7851053890772,None,,,,,,,1062.7687408840284,None,1062.952095278073,1062.968837056309,,,,,,,83,001,2023_Apr_24_1944,SpeechDraft1Carolyn_lessNoise_PlusLocalization,2021.2.3,59.980820515271546,
,,,,,,,,nearLeft,-6.5,1,ch1Sound_localizationTask.wav,-6.5,"(857, 878)","(-103,-202)",-95,-338,,,,,,,,,,,,,3,1,22,2,,,,,,,,,,,,,,,,,,,,,,,,,,,,,,,,,,,,,,,,1065.5019945660606,None,,,1068.5184149569832,None,1.4232804232804233,0.949866752140224,1068.5184149569832,None,,,,,,,1066.5020747622475,None,1066.6853885250166,1066.702098486945,,,,,,,83,001,2023_Apr_24_1944,SpeechDraft1Carolyn_lessNoise_PlusLocalization,2021.2.3,59.980820515271546,
,,,,,,,,nearRight,6.5,0,ch1Sound_localizationTask.wav,6.5,"(1047, 878)","(87, -202)",95,-338,,,,,,,,,,,,,3,2,23,4,,,,,,,,,,,,,,,,,,,,,,,,,,,,,,,,,,,,,,,,1069.4688166319393,None,,,1072.4850557111204,None,1.5624338624338625,0.8819692288525403,1072.4850557111204,None,,,,,,,1070.4688168540597,None,1070.6520221000537,1070.668716588989,,,,,,,83,001,2023_Apr_24_1944,SpeechDraft1Carolyn_lessNoise_PlusLocalization,2021.2.3,59.980820515271546,
,,,,,,,,midLeft,-13.0,2,ch1Sound_localizationTask.wav,-13.0,"(762, 878)","(-198,-202)",-190,-338,,,,,,,,,,,,,3,3,24,1,,,,,,,,,,,,,,,,,,,,,,,,,,,,,,,,,,,,,,,,1073.3686930220574,None,,,1076.3851698939689,None,1.3719576719576718,0.8152789026498795,1076.3851698939689,None,,,,,,,1074.3686809591018,None,1074.5520752812736,1074.5686989598908,,,,,,,83,001,2023_Apr_24_1944,SpeechDraft1Carolyn_lessNoise_PlusLocalization,2021.2.3,59.980820515271546,
,,,,,,,,midRight,13.0,3,ch1Sound_localizationTask.wav,13.0,"(1142, 878)","(182, -202)",190,-338,,,,,,,,,,,,,3,4,25,5,,,,,,,,,,,,,,,,,,,,,,,,,,,,,,,,,,,,,,,,1077.2020198008977,None,,,1080.218572783284,None,1.6015873015873017,0.9328078893013299,1080.218572783284,None,,,,,,,1078.2021130588837,None,1078.3854367812164,1078.4021658441052,,,,,,,83,001,2023_Apr_24_1944,SpeechDraft1Carolyn_lessNoise_PlusLocalization,2021.2.3,59.980820515271546,
,,,,,,,,midLeft,-13.0,2,ch1Sound_localizationTask.wav,-13.0,"(762, 878)","(-198,-202)",-190,-338,,,,,,,,,,,,,3,5,26,1,,,,,,,,,,,,,,,,,,,,,,,,,,,,,,,,,,,,,,,,1081.1521893362515,None,,,1084.1684801969677,None,1.3857142857142857,0.9666466559283435,1084.1684801969677,None,,,,,,,1082.1521538528614,None,1082.3353527910076,1082.352105399128,,,,,,,83,001,2023_Apr_24_1944,SpeechDraft1Carolyn_lessNoise_PlusLocalization,2021.2.3,59.980820515271546,
,,,,,,,,center,0.0,6,ch1Sound_localizationTask.wav,0.0,"(952, 878)","(-8,-202)",0,-338,,,,,,,,,,,,,3,6,27,3,,,,,,,,,,,,,,,,,,,,,,,,,,,,,,,,,,,,,,,,1085.1355999349616,None,,,1088.1519704689272,None,1.5047619047619047,0.7492243098095059,1088.1519704689272,None,,,,,,,1086.1354099051096,None,1086.3187181940302,1086.3354418710805,,,,,,,83,001,2023_Apr_24_1944,SpeechDraft1Carolyn_lessNoise_PlusLocalization,2021.2.3,59.980820515271546,
,,,,,,,,nearRight,6.5,0,ch1Sound_localizationTask.wav,6.5,"(1047, 878)","(87, -202)",95,-338,,,,,,,,,,,,,4,0,28,4,,,,,,,,,,,,,,,,,,,,,,,,,,,,,,,,,,,,,,,,1088.902023409959,None,,,1091.9183892491274,None,1.5428571428571427,0.6492207278497517,1091.9183892491274,None,,,,,,,1089.9020390901715,None,1090.0854369699955,1090.1021139859222,,,,,,,83,001,2023_Apr_24_1944,SpeechDraft1Carolyn_lessNoise_PlusLocalization,2021.2.3,59.980820515271546,
,,,,,,,,center,0.0,6,ch1Sound_localizationTask.wav,0.0,"(952, 878)","(-8,-202)",0,-338,,,,,,,,,,,,,4,1,29,3,,,,,,,,,,,,,,,,,,,,,,,,,,,,,,,,,,,,,,,,1092.568812231999,None,,,1095.5851862500422,None,1.488888888888889,0.6157576278783381,1095.5851862500422,None,,,,,,,1093.568907677196,None,1093.7521764328703,1093.7687593442388,,,,,,,83,001,2023_Apr_24_1944,SpeechDraft1Carolyn_lessNoise_PlusLocalization,2021.2.3,59.980820515271546,
,,,,,,,,midRight,13.0,3,ch1Sound_localizationTask.wav,13.0,"(1142, 878)","(182, -202)",190,-338,,,,,,,,,,,,,4,2,30,5,,,,,,,,,,,,,,,,,,,,,,,,,,,,,,,,,,,,,,,,1096.2020632470958,None,,,1099.2184324571863,None,1.6111111111111112,0.8496402269229293,1099.2184324571863,None,,,,,,,1097.2020167158917,None,1097.3854674580507,1097.402101171203,,,,,,,83,001,2023_Apr_24_1944,SpeechDraft1Carolyn_lessNoise_PlusLocalization,2021.2.3,59.980820515271546,
,,,,,,,,farLeft,-19.1,5,ch1Sound_localizationTask.wav,-19.1,"(667, 878)","(-293,-202)",-285,-338,,,,,,,,,,,,,4,3,31,0,,,,,,,,,,,,,,,,,,,,,,,,,,,,,,,,,,,,,,,,1100.0687798908912,None,,,1103.0850952090696,None,1.3042328042328042,0.8492167503573,1103.0850952090696,None,,,,,,,1101.0687709762715,None,1101.2520443801768,1101.2688477360643,,,,,,,83,001,2023_Apr_24_1944,SpeechDraft1Carolyn_lessNoise_PlusLocalization,2021.2.3,59.980820515271546,
,,,,,,,,center,0.0,6,ch1Sound_localizationTask.wav,0.0,"(952, 878)","(-8,-202)",0,-338,,,,,,,,,,,,,4,4,32,3,,,,,,,,,,,,,,,,,,,,,,,,,,,,,,,,,,,,,,,,1103.9361194060184,None,,,1106.9518494899385,None,1.5031746031746032,0.9321428341791034,1106.9518494899385,None,,,,,,,1104.9355291752145,None,1105.118799825199,1105.1354023660533,,,,,,,83,001,2023_Apr_24_1944,SpeechDraft1Carolyn_lessNoise_PlusLocalization,2021.2.3,59.980820515271546,
,,,,,,,,farRight,19.1,4,ch1Sound_localizationTask.wav,19.1,"(1237, 878)","(277,-202)",285,-338,,,,,,,,,,,,,4,5,33,6,,,,,,,,,,,,,,,,,,,,,,,,,,,,,,,,,,,,,,,,1107.8853720249608,None,,,1110.9018389512785,None,1.6703703703703705,1.0822793901897967,1110.9018389512785,None,,,,,,,1108.8854489820078,None,1109.0687608271837,1109.0854040919803,,,,,,,83,001,2023_Apr_24_1944,SpeechDraft1Carolyn_lessNoise_PlusLocalization,2021.2.3,59.980820515271546,
,,,,,,,,nearLeft,-6.5,1,ch1Sound_localizationTask.wav,-6.5,"(857, 878)","(-103,-202)",-95,-338,,,,,,,,,,,,,4,6,34,2,,,,,,,,,,,,,,,,,,,,,,,,,,,,,,,,,,,,,,,,1111.9854416931048,None,,,1115.0019251909107,None,1.4433862433862434,1.2326279222033918,1115.0019251909107,None,,,,,,,1112.9854894070886,None,1113.1687471000478,1113.1854829653166,,,,,,,83,001,2023_Apr_24_1944,SpeechDraft1Carolyn_lessNoise_PlusLocalization,2021.2.3,59.980820515271546,
,,,,,,,,midRight,13.0,3,ch1Sound_localizationTask.wav,13.0,"(1142, 878)","(182, -202)",190,-338,,,,,,,,,,,,,5,0,35,5,,,,,,,,,,,,,,,,,,,,,,,,,,,,,,,,,,,,,,,,1116.2355267079547,None,,,1119.2519868379459,None,1.635978835978836,0.6997435931116343,1119.2519868379459,None,,,,,,,1117.235464059282,None,1117.418790325988,1117.4354473049752,,,,,,,83,001,2023_Apr_24_1944,SpeechDraft1Carolyn_lessNoise_PlusLocalization,2021.2.3,59.980820515271546,
,,,,,,,,farLeft,-19.1,5,ch1Sound_localizationTask.wav,-19.1,"(667, 878)","(-293,-202)",-285,-338,,,,,,,,,,,,,5,1,36,0,,,,,,,,,,,,,,,,,,,,,,,,,,,,,,,,,,,,,,,,1119.9521278520115,None,,,1122.968573586084,None,1.331216931216931,0.7656767489388585,1122.968573586084,None,,,,,,,1120.9522398002446,None,1121.135436204262,1121.1521745040081,,,,,,,83,001,2023_Apr_24_1944,SpeechDraft1Carolyn_lessNoise_PlusLocalization,2021.2.3,59.980820515271546,
,,,,,,,,nearRight,6.5,0,ch1Sound_localizationTask.wav,6.5,"(1047, 878)","(87, -202)",95,-338,,,,,,,,,,,,,5,2,37,4,,,,,,,,,,,,,,,,,,,,,,,,,,,,,,,,,,,,,,,,1123.7355546578765,None,,,1126.7518251072615,None,1.5735449735449736,0.8493632599711418,1126.7518251072615,None,,,,,,,1124.7355089331977,None,1124.9187936610542,1124.9355839099735,,,,,,,83,001,2023_Apr_24_1944,SpeechDraft1Carolyn_lessNoise_PlusLocalization,2021.2.3,59.980820515271546,
,,,,,,,,nearRight,6.5,0,ch1Sound_localizationTask.wav,6.5,"(1047, 878)","(87, -202)",95,-338,,,,,,,,,,,,,5,3,38,4,,,,,,,,,,,,,,,,,,,,,,,,,,,,,,,,,,,,,,,,1127.6021047299728,None,,,1130.6185150351375,None,1.5497354497354499,1.0828815181739628,1130.6185150351375,None,,,,,,,1128.6022051000036,None,1128.7856098301709,1128.8020567712374,,,,,,,83,001,2023_Apr_24_1944,SpeechDraft1Carolyn_lessNoise_PlusLocalization,2021.2.3,59.980820515271546,
,,,,,,,,midLeft,-13.0,2,ch1Sound_localizationTask.wav,-13.0,"(762, 878)","(-198,-202)",-190,-338,,,,,,,,,,,,,5,4,39,1,,,,,,,,,,,,,,,,,,,,,,,,,,,,,,,,,,,,,,,,1131.7021148060448,None,,,1134.718626756221,None,1.384126984126984,0.915373089723289,1134.718626756221,None,,,,,,,1132.7021441711113,None,1132.8854342931882,1132.9021619181149,,,,,,,83,001,2023_Apr_24_1944,SpeechDraft1Carolyn_lessNoise_PlusLocalization,2021.2.3,59.980820515271546,
,,,,,,,,farLeft,-19.1,5,ch1Sound_localizationTask.wav,-19.1,"(667, 878)","(-293,-202)",-285,-338,,,,,,,,,,,,,5,5,40,0,,,,,,,,,,,,,,,,,,,,,,,,,,,,,,,,,,,,,,,,1135.6354441251606,None,,,1138.6518313470297,None,1.3507936507936509,0.9649823359213769,1138.6518313470297,None,,,,,,,1136.635443745181,None,1136.8187606981955,1136.835596957244,,,,,,,83,001,2023_Apr_24_1944,SpeechDraft1Carolyn_lessNoise_PlusLocalization,2021.2.3,59.980820515271546,
,,,,,,,,midLeft,-13.0,2,ch1Sound_localizationTask.wav,-13.0,"(762, 878)","(-198,-202)",-190,-338,,,,,,,,,,,,,5,6,41,1,,,,,,,,,,,,,,,,,,,,,,,,,,,,,,,,,,,,,,,,1139.6188211692497,None,,,1142.6351654529572,None,1.3947089947089948,0.798761110752821,1142.6351654529572,None,,,,,,,1140.6187782660127,None,1140.80217984505,1140.8188998210244,,,,,,,83,001,2023_Apr_24_1944,SpeechDraft1Carolyn_lessNoise_PlusLocalization,2021.2.3,59.980820515271546,
,,,,,,,,midRight,13.0,3,ch1Sound_localizationTask.wav,13.0,"(1142, 878)","(182, -202)",190,-338,,,,,,,,,,,,,6,0,42,5,,,,,,,,,,,,,,,,,,,,,,,,,,,,,,,,,,,,,,,,1143.4355434081517,None,,,1146.451835528016,None,1.6164021164021163,0.9659570399671793,1146.451835528016,None,,,,,,,1144.435442283284,None,1144.6188215371221,1144.635423798114,,,,,,,83,001,2023_Apr_24_1944,SpeechDraft1Carolyn_lessNoise_PlusLocalization,2021.2.3,59.980820515271546,
,,,,,,,,farRight,19.1,4,ch1Sound_localizationTask.wav,19.1,"(1237, 878)","(277,-202)",285,-338,,,,,,,,,,,,,6,1,43,6,,,,,,,,,,,,,,,,,,,,,,,,,,,,,,,,,,,,,,,,1147.4187708990648,None,,,1150.4352062582038,None,1.6407407407407408,0.7162772221490741,1150.4352062582038,None,,,,,,,1148.4189325482585,None,1148.6021780809388,1148.6189140151255,,,,,,,83,001,2023_Apr_24_1944,SpeechDraft1Carolyn_lessNoise_PlusLocalization,2021.2.3,59.980820515271546,
,,,,,,,,center,0.0,6,ch1Sound_localizationTask.wav,0.0,"(952, 878)","(-8,-202)",0,-338,,,,,,,,,,,,,6,2,44,3,,,,,,,,,,,,,,,,,,,,,,,,,,,,,,,,,,,,,,,,1151.152364965994,None,,,1154.168638349045,None,1.4978835978835978,0.6818903470411897,1154.168638349045,None,,,,,,,1152.152274321299,None,1152.3355400129221,1152.3522829092108,,,,,,,83,001,2023_Apr_24_1944,SpeechDraft1Carolyn_lessNoise_PlusLocalization,2021.2.3,59.980820515271546,
,,,,,,,,midLeft,-13.0,2,ch1Sound_localizationTask.wav,-13.0,"(762, 878)","(-198,-202)",-190,-338,,,,,,,,,,,,,6,3,45,1,,,,,,,,,,,,,,,,,,,,,,,,,,,,,,,,,,,,,,,,1154.852234065067,None,,,1157.8685584058985,None,1.3873015873015873,0.9494612221606076,1157.8685584058985,None,,,,,,,1155.852097996045,None,1156.0355349960737,1156.0520837130025,,,,,,,83,001,2023_Apr_24_1944,SpeechDraft1Carolyn_lessNoise_PlusLocalization,2021.2.3,59.980820515271546,
,,,,,,,,midLeft,-13.0,2,ch1Sound_localizationTask.wav,-13.0,"(762, 878)","(-198,-202)",-190,-338,,,,,,,,,,,,,6,4,46,1,,,,,,,,,,,,,,,,,,,,,,,,,,,,,,,,,,,,,,,,1158.8188812183216,None,,,1161.8353163232096,None,1.4079365079365078,0.866083431057632,1161.8353163232096,None,,,,,,,1159.8188149048947,None,1160.0021780519746,1160.018829497043,,,,,,,83,001,2023_Apr_24_1944,SpeechDraft1Carolyn_lessNoise_PlusLocalization,2021.2.3,59.980820515271546,
,,,,,,,,midRight,13.0,3,ch1Sound_localizationTask.wav,13.0,"(1142, 878)","(182, -202)",190,-338,,,,,,,,,,,,,6,5,47,5,,,,,,,,,,,,,,,,,,,,,,,,,,,,,,,,,,,,,,,,1162.7022023908794,None,,,1165.718551618047,None,1.596825396825397,0.8659973759204149,1165.718551618047,None,,,,,,,1163.7021947288886,None,1163.8854705998674,1163.9022630089894,,,,,,,83,001,2023_Apr_24_1944,SpeechDraft1Carolyn_lessNoise_PlusLocalization,2021.2.3,59.980820515271546,
,,,,,,,,midLeft,-13.0,2,ch1Sound_localizationTask.wav,-13.0,"(762, 878)","(-198,-202)",-190,-338,,,,,,,,,,,,,6,6,48,1,,,,,,,,,,,,,,,,,,,,,,,,,,,,,,,,,,,,,,,,1166.5856096530333,None,,,1169.6018863371573,None,1.3925925925925926,0.7504939800128341,1169.6018863371573,None,,,,,,,1167.585590780247,None,1167.7688612262718,1167.7855350160971,,,,,,,83,001,2023_Apr_24_1944,SpeechDraft1Carolyn_lessNoise_PlusLocalization,2021.2.3,59.980820515271546,
,,,,,,,,nearRight,6.5,0,ch1Sound_localizationTask.wav,6.5,"(1047, 878)","(87, -202)",95,-338,,,,,,,,,,,,,7,0,49,4,,,,,,,,,,,,,,,,,,,,,,,,,,,,,,,,,,,,,,,,1170.3529468989,None,,,1173.3686242792755,None,1.5571428571428572,1.0155151481740177,1173.3686242792755,None,,,,,,,1171.3521714652888,None,1171.5354976239614,1171.5521964859217,,,,,,,83,001,2023_Apr_24_1944,SpeechDraft1Carolyn_lessNoise_PlusLocalization,2021.2.3,59.980820515271546,
,,,,,,,,farRight,19.1,4,ch1Sound_localizationTask.wav,19.1,"(1237, 878)","(277,-202)",285,-338,,,,,,,,,,,,,7,1,50,6,,,,,,,,,,,,,,,,,,,,,,,,,,,,,,,,,,,,,,,,1174.3856651629321,None,,,1177.4019880462438,None,1.6428571428571428,0.7494751331396401,1177.4019880462438,None,,,,,,,1175.385512397159,None,1175.5689563951455,1175.5855272519402,,,,,,,83,001,2023_Apr_24_1944,SpeechDraft1Carolyn_lessNoise_PlusLocalization,2021.2.3,59.980820515271546,
,,,,,,,,farLeft,-19.1,5,ch1Sound_localizationTask.wav,-19.1,"(667, 878)","(-293,-202)",-285,-338,,,,,,,,,,,,,7,2,51,0,,,,,,,,,,,,,,,,,,,,,,,,,,,,,,,,,,,,,,,,1178.1522165848874,None,,,1181.1686641881242,None,1.3153439153439153,0.7492907061241567,1181.1686641881242,None,,,,,,,1179.152106849011,None,1179.3355882172473,1179.3522072671913,,,,,,,83,001,2023_Apr_24_1944,SpeechDraft1Carolyn_lessNoise_PlusLocalization,2021.2.3,59.980820515271546,
,,,,,,,,center,0.0,6,ch1Sound_localizationTask.wav,0.0,"(952, 878)","(-8,-202)",0,-338,,,,,,,,,,,,,7,3,52,3,,,,,,,,,,,,,,,,,,,,,,,,,,,,,,,,,,,,,,,,1181.9188678851351,None,,,1184.9351657321677,None,1.508994708994709,0.9327394869178534,1184.9351657321677,None,,,,,,,1182.9189226520248,None,1183.1022125841118,1183.118856932968,,,,,,,83,001,2023_Apr_24_1944,SpeechDraft1Carolyn_lessNoise_PlusLocalization,2021.2.3,59.980820515271546,
,,,,,,,,nearRight,6.5,0,ch1Sound_localizationTask.wav,6.5,"(1047, 878)","(87, -202)",95,-338,,,,,,,,,,,,,7,4,53,4,,,,,,,,,,,,,,,,,,,,,,,,,,,,,,,,,,,,,,,,1185.8689097398892,None,,,1188.885362948291,None,1.5592592592592593,0.7652428988367319,1188.885362948291,None,,,,,,,1186.8689194372855,None,1187.052161039319,1187.0688438611105,,,,,,,83,001,2023_Apr_24_1944,SpeechDraft1Carolyn_lessNoise_PlusLocalization,2021.2.3,59.980820515271546,
,,,,,,,,nearLeft,-6.5,1,ch1Sound_localizationTask.wav,-6.5,"(857, 878)","(-103,-202)",-95,-338,,,,,,,,,,,,,7,5,54,2,,,,,,,,,,,,,,,,,,,,,,,,,,,,,,,,,,,,,,,,1189.6522285989486,None,,,1192.668633126188,None,1.464021164021164,0.6330523919314146,1192.668633126188,None,,,,,,,1190.6522430209443,None,1190.8355613509193,1190.8522730921395,,,,,,,83,001,2023_Apr_24_1944,SpeechDraft1Carolyn_lessNoise_PlusLocalization,2021.2.3,59.980820515271546,
,,,,,,,,farRight,19.1,4,ch1Sound_localizationTask.wav,19.1,"(1237, 878)","(277,-202)",285,-338,,,,,,,,,,,,,7,6,55,6,,,,,,,,,,,,,,,,,,,,,,,,,,,,,,,,,,,,,,,,1193.3021199530922,None,,,1196.3187283659354,None,1.6603174603174602,0.9520173273049295,1196.3187283659354,None,,,,,,,1194.3023347239941,None,1194.4856023453176,1194.502194832079,,,,,,,83,001,2023_Apr_24_1944,SpeechDraft1Carolyn_lessNoise_PlusLocalization,2021.2.3,59.980820515271546,
,,,,,,,,,,,,,,,,,,,,,,,,,,,,,,,,,,,,,,,,,,,,,,,,,,,,,,,,,,,,,,,,,,,,,,,,,,,,,,,,,,,,,,,,,,,,1197.287322891876,None,c,141.01580217760056,1198.2689706343226,None,83,001,2023_Apr_24_1944,SpeechDraft1Carolyn_lessNoise_PlusLocalization,2021.2.3,59.980820515271546,
