Audio_Only_Files,Video_Files,Original_Word_List,noiseLevelCode,conditionCodes,noiseLevelFile1,noiseLevelFile2,InstrTextVar,targetSpeakerName,targetSpeakerEccen,targetSpkrChannel,targetSpkrSound,targetVisualDegrees,visStimLoc,visStimLoc2,visStimW,visStimH,practiceTrials.thisRepN,practiceTrials.thisTrialN,practiceTrials.thisN,practiceTrials.thisIndex,trials.thisRepN,trials.thisTrialN,trials.thisN,trials.thisIndex,audLocalLoop.thisRepN,audLocalLoop.thisTrialN,audLocalLoop.thisN,audLocalLoop.thisIndex,visualLocalLoop.thisRepN,visualLocalLoop.thisTrialN,visualLocalLoop.thisN,visualLocalLoop.thisIndex,letsGoAlready.keys,letsGoAlready.rt,letsGoAlready.started,letsGoAlready.stopped,text_2.started,text_2.stopped,text_3.started,text_3.stopped,key_resp_2.keys,key_resp_2.rt,key_resp_2.started,key_resp_2.stopped,text_5.started,text_5.stopped,fixCross.started,fixCross.stopped,fixCross2.started,fixCross2.stopped,answerPrompt.started,answerPrompt.stopped,getAnswer.text,getAnswer.started,getAnswer.stopped,goToNext.keys,goToNext.rt,goToNext.started,goToNext.stopped,stretchBreakTxrt.started,stretchBreakTxrt.stopped,key_resp_3.keys,key_resp_3.rt,key_resp_3.started,key_resp_3.stopped,letsGoLocal.keys,letsGoLocal.rt,letsGoLocal.started,letsGoLocal.stopped,text_4.started,text_4.stopped,prepFixTxt.started,prepFixTxt.stopped,prepFixTxt_2.started,prepFixTxt_2.stopped,respPromptLocal.started,respPromptLocal.stopped,slider.response,slider.rt,slider.started,slider.stopped,letsGoLocal_2.keys,letsGoLocal_2.rt,letsGoLocal_2.started,letsGoLocal_2.stopped,text_7.started,text_7.stopped,prepFixTxt_3.started,prepFixTxt_3.stopped,grating.started,grating.stopped,participant,session,date,expName,psychopyVersion,frameRate,
,,,,,,,,,,,,,,,,,,,,,,,,,,,,,,,,,space,34.04453881504014,14.985623837914318,None,,,,,,,,,,,,,,,,,,,,,,,,,,,,,,,,,,,,,,,,,,,,,,,,,,,,,,,,84,001,2023_Apr_25_1535,SpeechDraft1Carolyn_lessNoise_PlusLocalization,2021.2.3,60.01647837274293,
,,,,,,,,,,,,,,,,,,,,,,,,,,,,,,,,,,,,,14.985623837914318,None,49.153307356871665,None,space,14.455008687917143,49.335335542913526,None,,,,,,,,,,,,,,,,,,,,,,,,,,,,,,,,,,,,,,,,,,,,,,,,84,001,2023_Apr_25_1535,SpeechDraft1Carolyn_lessNoise_PlusLocalization,2021.2.3,60.01647837274293,
ash.wav,ash.mpg,ash,1,A,Pink_Noise_1_1.wav,Pink_Noise_1_2.wav,"This is an example of an

AUDIO trial",,,,,,,,,,0,0,0,0,,,,,,,,,,,,,,,,,,,,,,,,,63.851708577014506,None,64.83533911593258,None,68.15178516320884,None,69.53568098694086,None,"Ash
",69.53568098694086,None,return,12.4034688109532,69.61869218200445,None,,,,,,,,,,,,,,,,,,,,,,,,,,,,,,,,,84,001,2023_Apr_25_1535,SpeechDraft1Carolyn_lessNoise_PlusLocalization,2021.2.3,60.01647837274293,
ash.wav,ash.mpg,ash,1,AV,Pink_Noise_1_1.wav,Pink_Noise_1_2.wav,"This is an example of an

AUDIO + VIDEO  trial",,,,,,,,,,0,1,1,1,,,,,,,,,,,,,,,,,,,,,,,,,82.08511165296659,None,83.08524772711098,None,84.58499009301886,None,85.96869936026633,None,"Ash
",85.96869936026633,None,return,10.370271811261773,86.0518854050897,None,,,,,,,,,,,,,,,,,,,,,,,,,,,,,,,,,84,001,2023_Apr_25_1535,SpeechDraft1Carolyn_lessNoise_PlusLocalization,2021.2.3,60.01647837274293,
,,,,,,,,,,,,,,,,,,,,,,,,,,,,,,,,,,,,,,,,,,,,,,,,,,,,,,,,,,,,96.46834712382406,None,space,39.530281072016805,96.65198221988976,None,,,,,,,,,,,,,,,,,,,,,,,,,,,84,001,2023_Apr_25_1535,SpeechDraft1Carolyn_lessNoise_PlusLocalization,2021.2.3,60.01647837274293,
else.wav,else.mpg,else,2,A,Pink_Noise_2_1.wav,Pink_Noise_2_2.wav,,,,,,,,,,,,,,,0,0,0,11,,,,,,,,,,,,,,,,,,,,,,,136.23509151581675,None,137.71840782510117,None,139.10205225786194,None,else,139.10205225786194,None,return,8.724821866955608,139.18534196401015,None,,,,,,,,,,,,,,,,,,,,,,,,,,,,,,,,,84,001,2023_Apr_25_1535,SpeechDraft1Carolyn_lessNoise_PlusLocalization,2021.2.3,60.01647837274293,
flu.wav,flu.mpg,flu,5,AV,Pink_Noise_5_1.wav,Pink_Noise_5_2.wav,,,,,,,,,,,,,,,0,1,1,94,,,,,,,,,,,,,,,,,,,,,,,147.93544180085883,None,149.4350205361843,None,150.8187772091478,None,fruit,150.8187772091478,None,return,8.527853650972247,150.9022876531817,None,,,,,,,,,,,,,,,,,,,,,,,,,,,,,,,,,84,001,2023_Apr_25_1535,SpeechDraft1Carolyn_lessNoise_PlusLocalization,2021.2.3,60.01647837274293,
bind.wav,bind.mpg,bind,3,A,Pink_Noise_3_1.wav,Pink_Noise_3_2.wav,,,,,,,,,,,,,,,0,2,2,25,,,,,,,,,,,,,,,,,,,,,,,159.4521393752657,None,160.95171702094376,None,162.3356397021562,None,art,162.3356397021562,None,return,5.899685772135854,162.41863207286224,None,,,,,,,,,,,,,,,,,,,,,,,,,,,,,,,,,84,001,2023_Apr_25_1535,SpeechDraft1Carolyn_lessNoise_PlusLocalization,2021.2.3,60.01647837274293,
pants.wav,pants.mpg,pants,5,AV,Pink_Noise_5_1.wav,Pink_Noise_5_2.wav,,,,,,,,,,,,,,,0,3,3,70,,,,,,,,,,,,,,,,,,,,,,,168.33550736820325,None,169.83519328711554,None,171.21873002126813,None,"base
",171.21873002126813,None,return,8.600022740196437,171.3021411029622,None,,,,,,,,,,,,,,,,,,,,,,,,,,,,,,,,,84,001,2023_Apr_25_1535,SpeechDraft1Carolyn_lessNoise_PlusLocalization,2021.2.3,60.01647837274293,
box.wav,box.mpg,box,6,A,Pink_Noise_6_1.wav,Pink_Noise_6_2.wav,,,,,,,,,,,,,,,0,4,4,56,,,,,,,,,,,,,,,,,,,,,,,179.93552233325318,None,181.43497755005956,None,182.81873029610142,None,wack,182.81873029610142,None,return,14.88823118712753,182.90201759291813,None,,,,,,,,,,,,,,,,,,,,,,,,,,,,,,,,,84,001,2023_Apr_25_1535,SpeechDraft1Carolyn_lessNoise_PlusLocalization,2021.2.3,60.01647837274293,
bias.wav,bias.mpg,bias,4,A,Pink_Noise_4_1.wav,Pink_Noise_4_2.wav,,,,,,,,,,,,,,,0,5,5,23,,,,,,,,,,,,,,,,,,,,,,,197.81880318000913,None,199.31864276481792,None,200.70228887721896,None,arts,200.70228887721896,None,return,9.716825182083994,200.78535261983052,None,,,,,,,,,,,,,,,,,,,,,,,,,,,,,,,,,84,001,2023_Apr_25_1535,SpeechDraft1Carolyn_lessNoise_PlusLocalization,2021.2.3,60.01647837274293,
foot.wav,foot.mpg,foot,1,A,Pink_Noise_1_1.wav,Pink_Noise_1_2.wav,,,,,,,,,,,,,,,0,6,6,15,,,,,,,,,,,,,,,,,,,,,,,210.51885678619146,None,212.01851865788922,None,213.40216456493363,None,foot,213.40216456493363,None,return,5.208705164957792,213.4855273598805,None,,,,,,,,,,,,,,,,,,,,,,,,,,,,,,,,,84,001,2023_Apr_25_1535,SpeechDraft1Carolyn_lessNoise_PlusLocalization,2021.2.3,60.01647837274293,
gag.wav,gag.mpg,gag,4,AV,Pink_Noise_4_1.wav,Pink_Noise_4_2.wav,,,,,,,,,,,,,,,0,7,7,110,,,,,,,,,,,,,,,,,,,,,,,218.71874288097024,None,220.2184050148353,None,221.60214252397418,None,gay,221.60214252397418,None,return,9.112613250967115,221.68555405922234,None,,,,,,,,,,,,,,,,,,,,,,,,,,,,,,,,,84,001,2023_Apr_25_1535,SpeechDraft1Carolyn_lessNoise_PlusLocalization,2021.2.3,60.01647837274293,
fog.wav,fog.mpg,fog,1,A,Pink_Noise_1_1.wav,Pink_Noise_1_2.wav,,,,,,,,,,,,,,,0,8,8,41,,,,,,,,,,,,,,,,,,,,,,,230.81888485187665,None,232.31859422987327,None,233.70225925790146,None,fuck,233.70225925790146,None,return,12.34084192989394,233.7855025320314,None,,,,,,,,,,,,,,,,,,,,,,,,,,,,,,,,,84,001,2023_Apr_25_1535,SpeechDraft1Carolyn_lessNoise_PlusLocalization,2021.2.3,60.01647837274293,
ban.wav,ban.mpg,ban,5,AV,Pink_Noise_5_1.wav,Pink_Noise_5_2.wav,,,,,,,,,,,,,,,0,9,9,66,,,,,,,,,,,,,,,,,,,,,,,246.15217896504328,None,247.65182394022122,None,249.0354711492546,None,may,249.0354711492546,None,return,6.791329191066325,249.1189273139462,None,,,,,,,,,,,,,,,,,,,,,,,,,,,,,,,,,84,001,2023_Apr_25_1535,SpeechDraft1Carolyn_lessNoise_PlusLocalization,2021.2.3,60.01647837274293,
farm.wav,farm.mpg,farm,2,AV,Pink_Noise_2_1.wav,Pink_Noise_2_2.wav,,,,,,,,,,,,,,,0,10,10,92,,,,,,,,,,,,,,,,,,,,,,,255.93563202396035,None,257.43521787505597,None,258.81894341809675,None,farm,258.81894341809675,None,return,7.407929097767919,258.9022429990582,None,,,,,,,,,,,,,,,,,,,,,,,,,,,,,,,,,84,001,2023_Apr_25_1535,SpeechDraft1Carolyn_lessNoise_PlusLocalization,2021.2.3,60.01647837274293,
dare.wav,dare.mpg,dare,2,A,Pink_Noise_2_1.wav,Pink_Noise_2_2.wav,,,,,,,,,,,,,,,0,11,11,58,,,,,,,,,,,,,,,,,,,,,,,266.33564342325553,None,267.8353753890842,None,269.2188851502724,None,dare,269.2188851502724,None,return,5.2560301697812974,269.3022309001535,None,,,,,,,,,,,,,,,,,,,,,,,,,,,,,,,,,84,001,2023_Apr_25_1535,SpeechDraft1Carolyn_lessNoise_PlusLocalization,2021.2.3,60.01647837274293,
broom.wav,broom.mpg,broom,3,AV,Pink_Noise_3_1.wav,Pink_Noise_3_2.wav,,,,,,,,,,,,,,,0,12,12,64,,,,,,,,,,,,,,,,,,,,,,,274.5856392728165,None,276.08539600204676,None,277.46891563013196,None,group,277.46891563013196,None,return,10.453881396912038,277.55227788491175,None,,,,,,,,,,,,,,,,,,,,,,,,,,,,,,,,,84,001,2023_Apr_25_1535,SpeechDraft1Carolyn_lessNoise_PlusLocalization,2021.2.3,60.01647837274293,
film.wav,film.mpg,film,1,A,Pink_Noise_1_1.wav,Pink_Noise_1_2.wav,,,,,,,,,,,,,,,0,13,13,57,,,,,,,,,,,,,,,,,,,,,,,288.03554886206985,None,289.53515876084566,None,290.9189085131511,None,"filth
",290.9189085131511,None,return,8.035951825324446,291.0022161528468,None,,,,,,,,,,,,,,,,,,,,,,,,,,,,,,,,,84,001,2023_Apr_25_1535,SpeechDraft1Carolyn_lessNoise_PlusLocalization,2021.2.3,60.01647837274293,
layer.wav,layer.mpg,layer,5,AV,Pink_Noise_5_1.wav,Pink_Noise_5_2.wav,,,,,,,,,,,,,,,0,14,14,85,,,,,,,,,,,,,,,,,,,,,,,299.06899245409295,None,300.56862519914284,None,301.9522568490356,None,they,301.9522568490356,None,return,8.946600257884711,302.03561562718824,None,,,,,,,,,,,,,,,,,,,,,,,,,,,,,,,,,84,001,2023_Apr_25_1535,SpeechDraft1Carolyn_lessNoise_PlusLocalization,2021.2.3,60.01647837274293,
gut.wav,gut.mpg,gut,4,A,Pink_Noise_4_1.wav,Pink_Noise_4_2.wav,,,,,,,,,,,,,,,0,15,15,22,,,,,,,,,,,,,,,,,,,,,,,311.0025593242608,None,312.5185984210111,None,313.90222880104557,None,"gut
",313.90222880104557,None,return,6.06840903731063,313.98574075615034,None,,,,,,,,,,,,,,,,,,,,,,,,,,,,,,,,,84,001,2023_Apr_25_1535,SpeechDraft1Carolyn_lessNoise_PlusLocalization,2021.2.3,60.01647837274293,
dock.wav,dock.mpg,dock,3,A,Pink_Noise_3_1.wav,Pink_Noise_3_2.wav,,,,,,,,,,,,,,,0,16,16,49,,,,,,,,,,,,,,,,,,,,,,,320.0856487550773,None,321.5853561810218,None,322.969043829944,None,duck,322.969043829944,None,return,6.857868404127657,323.0523388180882,None,,,,,,,,,,,,,,,,,,,,,,,,,,,,,,,,,84,001,2023_Apr_25_1535,SpeechDraft1Carolyn_lessNoise_PlusLocalization,2021.2.3,60.01647837274293,
flog.wav,flog.mpg,flog,3,AV,Pink_Noise_3_1.wav,Pink_Noise_3_2.wav,,,,,,,,,,,,,,,0,17,17,116,,,,,,,,,,,,,,,,,,,,,,,329.9356887852773,None,331.43534875195473,None,332.81895595183596,None,flock,332.81895595183596,None,return,6.855926073156297,332.902449992951,None,,,,,,,,,,,,,,,,,,,,,,,,,,,,,,,,,84,001,2023_Apr_25_1535,SpeechDraft1Carolyn_lessNoise_PlusLocalization,2021.2.3,60.01647837274293,
cane.wav,cane.mpg,cane,1,AV,Pink_Noise_1_1.wav,Pink_Noise_1_2.wav,,,,,,,,,,,,,,,0,18,18,77,,,,,,,,,,,,,,,,,,,,,,,339.78588590817526,None,341.285302801989,None,342.6689709010534,None,cane,342.6689709010534,None,return,5.309727921150625,342.7524276562035,None,,,,,,,,,,,,,,,,,,,,,,,,,,,,,,,,,84,001,2023_Apr_25_1535,SpeechDraft1Carolyn_lessNoise_PlusLocalization,2021.2.3,60.01647837274293,
blond.wav,blond.mpg,blond,3,A,Pink_Noise_3_1.wav,Pink_Noise_3_2.wav,,,,,,,,,,,,,,,0,19,19,26,,,,,,,,,,,,,,,,,,,,,,,348.08568088989705,None,349.58535163803026,None,350.96904768794775,None,large,350.96904768794775,None,return,7.193825913127512,351.05238907411695,None,,,,,,,,,,,,,,,,,,,,,,,,,,,,,,,,,84,001,2023_Apr_25_1535,SpeechDraft1Carolyn_lessNoise_PlusLocalization,2021.2.3,60.01647837274293,
flop.wav,flop.mpg,flop,3,AV,Pink_Noise_3_1.wav,Pink_Noise_3_2.wav,,,,,,,,,,,,,,,0,20,20,90,,,,,,,,,,,,,,,,,,,,,,,358.2694081189111,None,359.7686526058242,None,361.15242562815547,None,flop,361.15242562815547,None,return,7.930599914398044,361.2356361122802,None,,,,,,,,,,,,,,,,,,,,,,,,,,,,,,,,,84,001,2023_Apr_25_1535,SpeechDraft1Carolyn_lessNoise_PlusLocalization,2021.2.3,60.01647837274293,
cab.wav,cab.mpg,cab,1,A,Pink_Noise_1_1.wav,Pink_Noise_1_2.wav,,,,,,,,,,,,,,,0,21,21,48,,,,,,,,,,,,,,,,,,,,,,,369.1857723342255,None,370.68538794806227,None,372.0690446300432,None,cow,372.0690446300432,None,return,13.365877909120172,372.1523374109529,None,,,,,,,,,,,,,,,,,,,,,,,,,,,,,,,,,84,001,2023_Apr_25_1535,SpeechDraft1Carolyn_lessNoise_PlusLocalization,2021.2.3,60.01647837274293,
drum.wav,drum.mpg,drum,2,AV,Pink_Noise_2_1.wav,Pink_Noise_2_2.wav,,,,,,,,,,,,,,,0,22,22,62,,,,,,,,,,,,,,,,,,,,,,,385.5357793462463,None,387.03551320405677,None,388.4193176892586,None,drum,388.4193176892586,None,return,4.031763968989253,388.5024936492555,None,,,,,,,,,,,,,,,,,,,,,,,,,,,,,,,,,84,001,2023_Apr_25_1535,SpeechDraft1Carolyn_lessNoise_PlusLocalization,2021.2.3,60.01647837274293,
flesh.wav,flesh.mpg,flesh,2,AV,Pink_Noise_2_1.wav,Pink_Noise_2_2.wav,,,,,,,,,,,,,,,0,23,23,71,,,,,,,,,,,,,,,,,,,,,,,392.5524454009719,None,394.05215311795473,None,395.4357994920574,None,flesh,395.4357994920574,None,return,20.047054273076355,395.51916965516284,None,,,,,,,,,,,,,,,,,,,,,,,,,,,,,,,,,84,001,2023_Apr_25_1535,SpeechDraft1Carolyn_lessNoise_PlusLocalization,2021.2.3,60.01647837274293,
dove.wav,dove.mpg,dove,4,AV,Pink_Noise_4_1.wav,Pink_Noise_4_2.wav,,,,,,,,,,,,,,,0,24,24,96,,,,,,,,,,,,,,,,,,,,,,,415.5860539120622,None,417.1021791161038,None,418.48583941487595,None,dove,418.48583941487595,None,return,8.461056964006275,418.5691597261466,None,,,,,,,,,,,,,,,,,,,,,,,,,,,,,,,,,84,001,2023_Apr_25_1535,SpeechDraft1Carolyn_lessNoise_PlusLocalization,2021.2.3,60.01647837274293,
brief.wav,brief.mpg,brief,4,AV,Pink_Noise_4_1.wav,Pink_Noise_4_2.wav,,,,,,,,,,,,,,,0,25,25,98,,,,,,,,,,,,,,,,,,,,,,,427.0524562280625,None,428.5688540721312,None,429.9357819701545,None,witch,429.9357819701545,None,return,7.355059296358377,430.0191001538187,None,,,,,,,,,,,,,,,,,,,,,,,,,,,,,,,,,84,001,2023_Apr_25_1535,SpeechDraft1Carolyn_lessNoise_PlusLocalization,2021.2.3,60.01647837274293,
drab.wav,drab.mpg,drab,3,AV,Pink_Noise_3_1.wav,Pink_Noise_3_2.wav,,,,,,,,,,,,,,,0,26,26,118,,,,,,,,,,,,,,,,,,,,,,,437.4025014308281,None,438.9021159452386,None,440.28586326818913,None,"drum
",440.28586326818913,None,return,6.8850030498579144,440.3691588798538,None,,,,,,,,,,,,,,,,,,,,,,,,,,,,,,,,,84,001,2023_Apr_25_1535,SpeechDraft1Carolyn_lessNoise_PlusLocalization,2021.2.3,60.01647837274293,
foil.wav,foil.mpg,foil,2,A,Pink_Noise_2_1.wav,Pink_Noise_2_2.wav,,,,,,,,,,,,,,,0,27,27,33,,,,,,,,,,,,,,,,,,,,,,,447.2859776481055,None,448.78544193925336,None,450.1691812700592,None,oil,450.1691812700592,None,return,4.77758262027055,450.25259409006685,None,,,,,,,,,,,,,,,,,,,,,,,,,,,,,,,,,84,001,2023_Apr_25_1535,SpeechDraft1Carolyn_lessNoise_PlusLocalization,2021.2.3,60.01647837274293,
dent.wav,dent.mpg,dent,6,A,Pink_Noise_6_1.wav,Pink_Noise_6_2.wav,,,,,,,,,,,,,,,0,28,28,47,,,,,,,,,,,,,,,,,,,,,,,455.0524167800322,None,456.5689426269382,None,457.9528632052243,None,bits,457.9528632052243,None,return,17.154171376954764,458.0359773579985,None,,,,,,,,,,,,,,,,,,,,,,,,,,,,,,,,,84,001,2023_Apr_25_1535,SpeechDraft1Carolyn_lessNoise_PlusLocalization,2021.2.3,60.01647837274293,
cope.wav,cope.mpg,cope,4,A,Pink_Noise_4_1.wav,Pink_Noise_4_2.wav,,,,,,,,,,,,,,,0,29,29,50,,,,,,,,,,,,,,,,,,,,,,,475.21914430102333,None,476.7354948162101,None,478.12058759713545,None,"coke
",478.12058759713545,None,return,6.019103667698801,478.20304060401395,None,,,,,,,,,,,,,,,,,,,,,,,,,,,,,,,,,84,001,2023_Apr_25_1535,SpeechDraft1Carolyn_lessNoise_PlusLocalization,2021.2.3,60.01647837274293,
cape.wav,cape.mpg,cape,3,A,Pink_Noise_3_1.wav,Pink_Noise_3_2.wav,,,,,,,,,,,,,,,0,30,30,0,,,,,,,,,,,,,,,,,,,,,,,484.252558818087,None,485.7536340779625,None,487.1357971159741,None,cake,487.1357971159741,None,return,5.442786119878292,487.21940101124346,None,,,,,,,,,,,,,,,,,,,,,,,,,,,,,,,,,84,001,2023_Apr_25_1535,SpeechDraft1Carolyn_lessNoise_PlusLocalization,2021.2.3,60.01647837274293,
cheap.wav,cheap.mpg,cheap,6,AV,Pink_Noise_6_1.wav,Pink_Noise_6_2.wav,,,,,,,,,,,,,,,0,31,31,83,,,,,,,,,,,,,,,,,,,,,,,492.68590391613543,None,494.18552691023797,None,495.56918574590236,None,gym,495.56918574590236,None,return,11.30584669066593,495.65248150611296,None,,,,,,,,,,,,,,,,,,,,,,,,,,,,,,,,,84,001,2023_Apr_25_1535,SpeechDraft1Carolyn_lessNoise_PlusLocalization,2021.2.3,60.01647837274293,
cook.wav,cook.mpg,cook,6,AV,Pink_Noise_6_1.wav,Pink_Noise_6_2.wav,,,,,,,,,,,,,,,0,32,32,60,,,,,,,,,,,,,,,,,,,,,,,506.98591603385285,None,508.5022085602395,None,509.88575954781845,None,"lore
",509.88575954781845,None,return,8.852674975991249,509.96944265719503,None,,,,,,,,,,,,,,,,,,,,,,,,,,,,,,,,,84,001,2023_Apr_25_1535,SpeechDraft1Carolyn_lessNoise_PlusLocalization,2021.2.3,60.01647837274293,
round.wav,round.mpg,round,2,AV,Pink_Noise_2_1.wav,Pink_Noise_2_2.wav,,,,,,,,,,,,,,,0,33,33,112,,,,,,,,,,,,,,,,,,,,,,,518.8525585271418,None,520.3523197718896,None,521.7360057579353,None,"riot
",521.7360057579353,None,return,16.666835731826723,521.8193527078256,None,,,,,,,,,,,,,,,,,,,,,,,,,,,,,,,,,84,001,2023_Apr_25_1535,SpeechDraft1Carolyn_lessNoise_PlusLocalization,2021.2.3,60.01647837274293,
route.wav,route.mpg,route,3,AV,Pink_Noise_3_1.wav,Pink_Noise_3_2.wav,,,,,,,,,,,,,,,0,34,34,114,,,,,,,,,,,,,,,,,,,,,,,538.5193293448538,None,540.0190954422578,None,541.4027540162206,None,reach,541.4027540162206,None,return,7.288355058059096,541.4859422822483,None,,,,,,,,,,,,,,,,,,,,,,,,,,,,,,,,,84,001,2023_Apr_25_1535,SpeechDraft1Carolyn_lessNoise_PlusLocalization,2021.2.3,60.01647837274293,
burn.wav,burn.mpg,burn,1,A,Pink_Noise_1_1.wav,Pink_Noise_1_2.wav,,,,,,,,,,,,,,,0,35,35,39,,,,,,,,,,,,,,,,,,,,,,,548.80258594919,None,550.3032342521474,None,551.6862679128535,None,"bird
",551.6862679128535,None,return,8.468860242050141,551.7693041730672,None,,,,,,,,,,,,,,,,,,,,,,,,,,,,,,,,,84,001,2023_Apr_25_1535,SpeechDraft1Carolyn_lessNoise_PlusLocalization,2021.2.3,60.01647837274293,
chump.wav,chump.mpg,chump,6,A,Pink_Noise_6_1.wav,Pink_Noise_6_2.wav,,,,,,,,,,,,,,,0,36,36,24,,,,,,,,,,,,,,,,,,,,,,,560.2693400969729,None,561.7690870771185,None,563.1527236890979,None,"chock
",563.1527236890979,None,return,5.850154269952327,563.235996349249,None,,,,,,,,,,,,,,,,,,,,,,,,,,,,,,,,,84,001,2023_Apr_25_1535,SpeechDraft1Carolyn_lessNoise_PlusLocalization,2021.2.3,60.01647837274293,
squat.wav,squat.mpg,squat,1,AV,Pink_Noise_1_1.wav,Pink_Noise_1_2.wav,,,,,,,,,,,,,,,0,37,37,84,,,,,,,,,,,,,,,,,,,,,,,569.1192966089584,None,570.6208087038249,None,572.0027755731717,None,squat,572.0027755731717,None,return,5.592095071915537,572.086068762932,None,,,,,,,,,,,,,,,,,,,,,,,,,,,,,,,,,84,001,2023_Apr_25_1535,SpeechDraft1Carolyn_lessNoise_PlusLocalization,2021.2.3,60.01647837274293,
gulp.wav,gulp.mpg,gulp,1,A,Pink_Noise_1_1.wav,Pink_Noise_1_2.wav,,,,,,,,,,,,,,,0,38,38,40,,,,,,,,,,,,,,,,,,,,,,,577.702945065219,None,579.2188638490625,None,580.6028854348697,None,"goal
",580.6028854348697,None,return,13.200186116155237,580.6859724428505,None,,,,,,,,,,,,,,,,,,,,,,,,,,,,,,,,,84,001,2023_Apr_25_1535,SpeechDraft1Carolyn_lessNoise_PlusLocalization,2021.2.3,60.01647837274293,
chalk.wav,chalk.mpg,chalk,2,AV,Pink_Noise_2_1.wav,Pink_Noise_2_2.wav,,,,,,,,,,,,,,,0,39,39,81,,,,,,,,,,,,,,,,,,,,,,,593.9195996448398,None,595.4191464558244,None,596.8026213962585,None,chock,596.8026213962585,None,return,4.43213035678491,596.8861385448836,None,,,,,,,,,,,,,,,,,,,,,,,,,,,,,,,,,84,001,2023_Apr_25_1535,SpeechDraft1Carolyn_lessNoise_PlusLocalization,2021.2.3,60.01647837274293,
gem.wav,gem.mpg,gem,1,A,Pink_Noise_1_1.wav,Pink_Noise_1_2.wav,,,,,,,,,,,,,,,0,40,40,16,,,,,,,,,,,,,,,,,,,,,,,601.3359811860137,None,602.8357957699336,None,604.2192900348455,None,gel,604.2192900348455,None,return,3.783437690231949,604.3027130798437,None,,,,,,,,,,,,,,,,,,,,,,,,,,,,,,,,,84,001,2023_Apr_25_1535,SpeechDraft1Carolyn_lessNoise_PlusLocalization,2021.2.3,60.01647837274293,
swamp.wav,swamp.mpg,swamp,1,AV,Pink_Noise_1_1.wav,Pink_Noise_1_2.wav,,,,,,,,,,,,,,,0,41,41,113,,,,,,,,,,,,,,,,,,,,,,,608.1028191652149,None,609.602416425012,None,610.9862106428482,None,swap,610.9862106428482,None,return,7.464816445950419,611.0693871141411,None,,,,,,,,,,,,,,,,,,,,,,,,,,,,,,,,,84,001,2023_Apr_25_1535,SpeechDraft1Carolyn_lessNoise_PlusLocalization,2021.2.3,60.01647837274293,
card.wav,card.mpg,card,5,A,Pink_Noise_5_1.wav,Pink_Noise_5_2.wav,,,,,,,,,,,,,,,0,42,42,29,,,,,,,,,,,,,,,,,,,,,,,618.5529712531716,None,620.0523673160933,None,621.4362248652615,None,hurt,621.4362248652615,None,return,7.446853912901133,621.5193675630726,None,,,,,,,,,,,,,,,,,,,,,,,,,,,,,,,,,84,001,2023_Apr_25_1535,SpeechDraft1Carolyn_lessNoise_PlusLocalization,2021.2.3,60.01647837274293,
depth.wav,depth.mpg,depth,5,A,Pink_Noise_5_1.wav,Pink_Noise_5_2.wav,,,,,,,,,,,,,,,0,43,43,4,,,,,,,,,,,,,,,,,,,,,,,628.9860465601087,None,630.4876590939239,None,631.869406783022,None,but,631.869406783022,None,return,5.461374558974057,631.9527806821279,None,,,,,,,,,,,,,,,,,,,,,,,,,,,,,,,,,84,001,2023_Apr_25_1535,SpeechDraft1Carolyn_lessNoise_PlusLocalization,2021.2.3,60.01647837274293,
dust.wav,dust.mpg,dust,2,AV,Pink_Noise_2_1.wav,Pink_Noise_2_2.wav,,,,,,,,,,,,,,,0,44,44,105,,,,,,,,,,,,,,,,,,,,,,,637.4361114660278,None,638.9527038382366,None,640.336053240113,None,"dust
",640.336053240113,None,return,4.6666097841225564,640.4195408360101,None,,,,,,,,,,,,,,,,,,,,,,,,,,,,,,,,,84,001,2023_Apr_25_1535,SpeechDraft1Carolyn_lessNoise_PlusLocalization,2021.2.3,60.01647837274293,
gap.wav,gap.mpg,gap,6,A,Pink_Noise_6_1.wav,Pink_Noise_6_2.wav,,,,,,,,,,,,,,,0,45,45,9,,,,,,,,,,,,,,,,,,,,,,,645.1194069581106,None,646.6357303452678,None,648.0027479561977,None,"ant
",648.0027479561977,None,return,12.336105540860444,648.0860643321648,None,,,,,,,,,,,,,,,,,,,,,,,,,,,,,,,,,84,001,2023_Apr_25_1535,SpeechDraft1Carolyn_lessNoise_PlusLocalization,2021.2.3,60.01647837274293,
bad.wav,bad.mpg,bad,1,AV,Pink_Noise_1_1.wav,Pink_Noise_1_2.wav,,,,,,,,,,,,,,,0,46,46,87,,,,,,,,,,,,,,,,,,,,,,,660.452922787983,None,661.9693399239331,None,663.3528149900958,None,bent,663.3528149900958,None,return,4.4901364129036665,663.4361408599652,None,,,,,,,,,,,,,,,,,,,,,,,,,,,,,,,,,84,001,2023_Apr_25_1535,SpeechDraft1Carolyn_lessNoise_PlusLocalization,2021.2.3,60.01647837274293,
cruel.wav,cruel.mpg,cruel,4,A,Pink_Noise_4_1.wav,Pink_Noise_4_2.wav,,,,,,,,,,,,,,,0,47,47,34,,,,,,,,,,,,,,,,,,,,,,,667.9527838048525,None,669.4535620901734,None,670.8361115399748,None,cruel,670.8361115399748,None,return,5.414643309079111,670.9195200088434,None,,,,,,,,,,,,,,,,,,,,,,,,,,,,,,,,,84,001,2023_Apr_25_1535,SpeechDraft1Carolyn_lessNoise_PlusLocalization,2021.2.3,60.01647837274293,
eat.wav,eat.mpg,eat,3,A,Pink_Noise_3_1.wav,Pink_Noise_3_2.wav,,,,,,,,,,,,,,,0,48,48,2,,,,,,,,,,,,,,,,,,,,,,,676.3528018239886,None,677.8524627941661,None,679.2361693838611,None,eats,679.2361693838611,None,return,4.366658207029104,679.319511721842,None,,,,,,,,,,,,,,,,,,,,,,,,,,,,,,,,,84,001,2023_Apr_25_1535,SpeechDraft1Carolyn_lessNoise_PlusLocalization,2021.2.3,60.01647837274293,
chant.wav,chant.mpg,chant,6,A,Pink_Noise_6_1.wav,Pink_Noise_6_2.wav,,,,,,,,,,,,,,,0,49,49,7,,,,,,,,,,,,,,,,,,,,,,,683.7027447689325,None,685.2024903539568,None,686.5861239312217,None,jar,686.5861239312217,None,return,6.456705491989851,686.6695451498963,None,,,,,,,,,,,,,,,,,,,,,,,,,,,,,,,,,84,001,2023_Apr_25_1535,SpeechDraft1Carolyn_lessNoise_PlusLocalization,2021.2.3,60.01647837274293,
flair.wav,flair.mpg,flair,3,AV,Pink_Noise_3_1.wav,Pink_Noise_3_2.wav,,,,,,,,,,,,,,,0,50,50,99,,,,,,,,,,,,,,,,,,,,,,,693.1528280922212,None,694.6691703442484,None,696.0526462541893,None,"rail
",696.0526462541893,None,return,10.701968668028712,696.136199159082,None,,,,,,,,,,,,,,,,,,,,,,,,,,,,,,,,,84,001,2023_Apr_25_1535,SpeechDraft1Carolyn_lessNoise_PlusLocalization,2021.2.3,60.01647837274293,
gab.wav,gab.mpg,gab,6,AV,Pink_Noise_6_1.wav,Pink_Noise_6_2.wav,,,,,,,,,,,,,,,0,51,51,102,,,,,,,,,,,,,,,,,,,,,,,706.8694367799908,None,708.3695143810473,None,709.7528430330567,None,lamp,709.7528430330567,None,return,5.490044449921697,709.8361971531995,None,,,,,,,,,,,,,,,,,,,,,,,,,,,,,,,,,84,001,2023_Apr_25_1535,SpeechDraft1Carolyn_lessNoise_PlusLocalization,2021.2.3,60.01647837274293,
brick.wav,brick.mpg,brick,5,AV,Pink_Noise_5_1.wav,Pink_Noise_5_2.wav,,,,,,,,,,,,,,,0,52,52,88,,,,,,,,,,,,,,,,,,,,,,,715.3528282968327,None,716.8525865268894,None,718.2376189790666,None,brick,718.2376189790666,None,return,13.198822794947773,718.3194595281966,None,,,,,,,,,,,,,,,,,,,,,,,,,,,,,,,,,84,001,2023_Apr_25_1535,SpeechDraft1Carolyn_lessNoise_PlusLocalization,2021.2.3,60.01647837274293,
budge.wav,budge.mpg,budge,5,A,Pink_Noise_5_1.wav,Pink_Noise_5_2.wav,,,,,,,,,,,,,,,0,53,53,18,,,,,,,,,,,,,,,,,,,,,,,731.5362468198873,None,733.0525100938976,None,734.4361884691752,None,murch,734.4361884691752,None,return,9.694539225660264,734.5196517049335,None,,,,,,,,,,,,,,,,,,,,,,,,,,,,,,,,,84,001,2023_Apr_25_1535,SpeechDraft1Carolyn_lessNoise_PlusLocalization,2021.2.3,60.01647837274293,
grail.wav,grail.mpg,grail,3,A,Pink_Noise_3_1.wav,Pink_Noise_3_2.wav,,,,,,,,,,,,,,,0,54,54,53,,,,,,,,,,,,,,,,,,,,,,,744.2362632951699,None,745.7358988141641,None,747.1195706250146,None,grail,747.1195706250146,None,return,7.675309577025473,747.2028368948959,None,,,,,,,,,,,,,,,,,,,,,,,,,,,,,,,,,84,001,2023_Apr_25_1535,SpeechDraft1Carolyn_lessNoise_PlusLocalization,2021.2.3,60.01647837274293,
guide.wav,guide.mpg,guide,2,A,Pink_Noise_2_1.wav,Pink_Noise_2_2.wav,,,,,,,,,,,,,,,0,55,55,14,,,,,,,,,,,,,,,,,,,,,,,754.9029007400386,None,756.4193158019334,None,757.7862614188343,None,"guide
",757.7862614188343,None,return,3.1846361570060253,757.8695215391926,None,,,,,,,,,,,,,,,,,,,,,,,,,,,,,,,,,84,001,2023_Apr_25_1535,SpeechDraft1Carolyn_lessNoise_PlusLocalization,2021.2.3,60.01647837274293,
bruise.wav,bruise.mpg,bruise,1,AV,Pink_Noise_1_1.wav,Pink_Noise_1_2.wav,,,,,,,,,,,,,,,0,56,56,100,,,,,,,,,,,,,,,,,,,,,,,761.0864010471851,None,762.5871641221456,None,763.9697425062768,None,bruise,763.9697425062768,None,return,6.745224985294044,764.052943923045,None,,,,,,,,,,,,,,,,,,,,,,,,,,,,,,,,,84,001,2023_Apr_25_1535,SpeechDraft1Carolyn_lessNoise_PlusLocalization,2021.2.3,60.01647837274293,
chat.wav,chat.mpg,chat,6,AV,Pink_Noise_6_1.wav,Pink_Noise_6_2.wav,,,,,,,,,,,,,,,0,57,57,91,,,,,,,,,,,,,,,,,,,,,,,770.8195699742064,None,772.3193890340626,None,773.7033389159478,None,jet,773.7033389159478,None,return,6.323929955251515,773.7863373542204,None,,,,,,,,,,,,,,,,,,,,,,,,,,,,,,,,,84,001,2023_Apr_25_1535,SpeechDraft1Carolyn_lessNoise_PlusLocalization,2021.2.3,60.01647837274293,
eight.wav,eight.mpg,eight,3,AV,Pink_Noise_3_1.wav,Pink_Noise_3_2.wav,,,,,,,,,,,,,,,0,58,58,69,,,,,,,,,,,,,,,,,,,,,,,780.1362714879215,None,781.6383154131472,None,783.0196874798276,None,eight,783.0196874798276,None,return,10.183244842104614,783.103021944873,None,,,,,,,,,,,,,,,,,,,,,,,,,,,,,,,,,84,001,2023_Apr_25_1535,SpeechDraft1Carolyn_lessNoise_PlusLocalization,2021.2.3,60.01647837274293,
gone.wav,gone.mpg,gone,6,AV,Pink_Noise_6_1.wav,Pink_Noise_6_2.wav,,,,,,,,,,,,,,,0,59,59,78,,,,,,,,,,,,,,,,,,,,,,,793.3030186039396,None,794.8192224311642,None,796.2029106239788,None,large,796.2029106239788,None,return,6.111710343975574,796.2864535450935,None,,,,,,,,,,,,,,,,,,,,,,,,,,,,,,,,,84,001,2023_Apr_25_1535,SpeechDraft1Carolyn_lessNoise_PlusLocalization,2021.2.3,60.01647837274293,
swan.wav,swan.mpg,swan,6,A,Pink_Noise_6_1.wav,Pink_Noise_6_2.wav,,,,,,,,,,,,,,,0,60,60,5,,,,,,,,,,,,,,,,,,,,,,,802.419635631144,None,803.9361739712767,None,805.3196734418161,None,betrayal,805.3196734418161,None,return,10.979253930039704,805.4029419831932,None,,,,,,,,,,,,,,,,,,,,,,,,,,,,,,,,,84,001,2023_Apr_25_1535,SpeechDraft1Carolyn_lessNoise_PlusLocalization,2021.2.3,60.01647837274293,
clip.wav,clip.mpg,clip,4,AV,Pink_Noise_4_1.wav,Pink_Noise_4_2.wav,,,,,,,,,,,,,,,0,61,61,101,,,,,,,,,,,,,,,,,,,,,,,816.4029781781137,None,817.9194020591676,None,819.3030897309072,None,clip,819.3030897309072,None,return,11.779911157675087,819.3863118551672,None,,,,,,,,,,,,,,,,,,,,,,,,,,,,,,,,,84,001,2023_Apr_25_1535,SpeechDraft1Carolyn_lessNoise_PlusLocalization,2021.2.3,60.01647837274293,
roast.wav,roast.mpg,roast,3,AV,Pink_Noise_3_1.wav,Pink_Noise_3_2.wav,,,,,,,,,,,,,,,0,62,62,82,,,,,,,,,,,,,,,,,,,,,,,831.1862956718542,None,832.7026879410259,None,834.0863533820957,None,roast,834.0863533820957,None,return,8.804338341578841,834.1698098601773,None,,,,,,,,,,,,,,,,,,,,,,,,,,,,,,,,,84,001,2023_Apr_25_1535,SpeechDraft1Carolyn_lessNoise_PlusLocalization,2021.2.3,60.01647837274293,
crown.wav,crown.mpg,crown,4,A,Pink_Noise_4_1.wav,Pink_Noise_4_2.wav,,,,,,,,,,,,,,,0,63,63,55,,,,,,,,,,,,,,,,,,,,,,,843.0030270610005,None,844.5193965602666,None,845.9030302702449,None,crown,845.9030302702449,None,return,4.4918013121932745,845.9863335601985,None,,,,,,,,,,,,,,,,,,,,,,,,,,,,,,,,,84,001,2023_Apr_25_1535,SpeechDraft1Carolyn_lessNoise_PlusLocalization,2021.2.3,60.01647837274293,
row.wav,row.mpg,row,6,AV,Pink_Noise_6_1.wav,Pink_Noise_6_2.wav,,,,,,,,,,,,,,,0,64,64,67,,,,,,,,,,,,,,,,,,,,,,,850.5031492058188,None,852.0029692752287,None,853.3863999811001,None,row,853.3863999811001,None,return,4.408590883016586,853.4696185151115,None,,,,,,,,,,,,,,,,,,,,,,,,,,,,,,,,,84,001,2023_Apr_25_1535,SpeechDraft1Carolyn_lessNoise_PlusLocalization,2021.2.3,60.01647837274293,
chord.wav,chord.mpg,chord,4,A,Pink_Noise_4_1.wav,Pink_Noise_4_2.wav,,,,,,,,,,,,,,,0,65,65,27,,,,,,,,,,,,,,,,,,,,,,,857.9030423839577,None,859.4193935059011,None,860.8029890651815,None,court,860.8029890651815,None,return,9.32776565104723,860.8863810519688,None,,,,,,,,,,,,,,,,,,,,,,,,,,,,,,,,,84,001,2023_Apr_25_1535,SpeechDraft1Carolyn_lessNoise_PlusLocalization,2021.2.3,60.01647837274293,
brawl.wav,brawl.mpg,brawl,3,A,Pink_Noise_3_1.wav,Pink_Noise_3_2.wav,,,,,,,,,,,,,,,0,66,66,10,,,,,,,,,,,,,,,,,,,,,,,870.2365162181668,None,871.7527289260179,None,873.1367452349514,None,brow,873.1367452349514,None,return,12.52251987112686,873.2198282992467,None,,,,,,,,,,,,,,,,,,,,,,,,,,,,,,,,,84,001,2023_Apr_25_1535,SpeechDraft1Carolyn_lessNoise_PlusLocalization,2021.2.3,60.01647837274293,
bald.wav,bald.mpg,bald,1,AV,Pink_Noise_1_1.wav,Pink_Noise_1_2.wav,,,,,,,,,,,,,,,0,67,67,109,,,,,,,,,,,,,,,,,,,,,,,885.7697544512339,None,887.2861702479422,None,888.6698016859591,None,bot,888.6698016859591,None,return,8.692993795964867,888.7531570629217,None,,,,,,,,,,,,,,,,,,,,,,,,,,,,,,,,,84,001,2023_Apr_25_1535,SpeechDraft1Carolyn_lessNoise_PlusLocalization,2021.2.3,60.01647837274293,
base.wav,base.mpg,base,5,AV,Pink_Noise_5_1.wav,Pink_Noise_5_2.wav,,,,,,,,,,,,,,,0,68,68,106,,,,,,,,,,,,,,,,,,,,,,,897.4698208821937,None,898.9862181679346,None,900.3698874842376,None,bits,900.3698874842376,None,return,7.009093837812543,900.4530760138296,None,,,,,,,,,,,,,,,,,,,,,,,,,,,,,,,,,84,001,2023_Apr_25_1535,SpeechDraft1Carolyn_lessNoise_PlusLocalization,2021.2.3,60.01647837274293,
tear.wav,tear.mpg,tear,6,A,Pink_Noise_6_1.wav,Pink_Noise_6_2.wav,,,,,,,,,,,,,,,0,69,69,17,,,,,,,,,,,,,,,,,,,,,,,907.4865761660039,None,909.0028546759859,None,910.3865072028711,None,delay,910.3865072028711,None,return,9.696406730916351,910.4698375519365,None,,,,,,,,,,,,,,,,,,,,,,,,,,,,,,,,,84,001,2023_Apr_25_1535,SpeechDraft1Carolyn_lessNoise_PlusLocalization,2021.2.3,60.01647837274293,
dad.wav,dad.mpg,dad,6,AV,Pink_Noise_6_1.wav,Pink_Noise_6_2.wav,,,,,,,,,,,,,,,0,70,70,68,,,,,,,,,,,,,,,,,,,,,,,920.1865369589068,None,921.7027601930313,None,923.0866630431265,None,"down
",923.0866630431265,None,return,26.78853482985869,923.1696370332502,None,,,,,,,,,,,,,,,,,,,,,,,,,,,,,,,,,84,001,2023_Apr_25_1535,SpeechDraft1Carolyn_lessNoise_PlusLocalization,2021.2.3,60.01647837274293,
cream.wav,cream.mpg,cream,1,AV,Pink_Noise_1_1.wav,Pink_Noise_1_2.wav,,,,,,,,,,,,,,,0,71,71,86,,,,,,,,,,,,,,,,,,,,,,,949.9865375361405,None,951.5029448228888,None,952.8866458078846,None,cream,952.8866458078846,None,return,7.0282334154471755,952.9699465120211,None,,,,,,,,,,,,,,,,,,,,,,,,,,,,,,,,,84,001,2023_Apr_25_1535,SpeechDraft1Carolyn_lessNoise_PlusLocalization,2021.2.3,60.01647837274293,
fed.wav,fed.mpg,fed,4,AV,Pink_Noise_4_1.wav,Pink_Noise_4_2.wav,,,,,,,,,,,,,,,0,72,72,104,,,,,,,,,,,,,,,,,,,,,,,960.0198442880064,None,961.5362369818613,None,962.9199316641316,None,veil,962.9199316641316,None,return,14.379033396951854,963.0031576319598,None,,,,,,,,,,,,,,,,,,,,,,,,,,,,,,,,,84,001,2023_Apr_25_1535,SpeechDraft1Carolyn_lessNoise_PlusLocalization,2021.2.3,60.01647837274293,
catch.wav,catch.mpg,catch,5,A,Pink_Noise_5_1.wav,Pink_Noise_5_2.wav,,,,,,,,,,,,,,,0,73,73,21,,,,,,,,,,,,,,,,,,,,,,,977.4032583548687,None,978.9195346599445,None,980.3032354530878,None,clutch,980.3032354530878,None,return,15.915495315100998,980.3869459140114,None,,,,,,,,,,,,,,,,,,,,,,,,,,,,,,,,,84,001,2023_Apr_25_1535,SpeechDraft1Carolyn_lessNoise_PlusLocalization,2021.2.3,60.01647837274293,
toast.wav,toast.mpg,toast,1,AV,Pink_Noise_1_1.wav,Pink_Noise_1_2.wav,,,,,,,,,,,,,,,0,74,74,74,,,,,,,,,,,,,,,,,,,,,,,996.3200987721793,None,997.8364213109016,None,999.2198691861704,None,toast,999.2198691861704,None,return,11.294875878840685,999.3032946870662,None,,,,,,,,,,,,,,,,,,,,,,,,,,,,,,,,,84,001,2023_Apr_25_1535,SpeechDraft1Carolyn_lessNoise_PlusLocalization,2021.2.3,60.01647837274293,
broke.wav,broke.mpg,broke,5,A,Pink_Noise_5_1.wav,Pink_Noise_5_2.wav,,,,,,,,,,,,,,,0,75,75,46,,,,,,,,,,,,,,,,,,,,,,,1010.6199200921692,None,1012.1367381541058,None,1013.519988194108,None,urge,1013.519988194108,None,return,5.706874855328351,1013.6034090910107,None,,,,,,,,,,,,,,,,,,,,,,,,,,,,,,,,,84,001,2023_Apr_25_1535,SpeechDraft1Carolyn_lessNoise_PlusLocalization,2021.2.3,60.01647837274293,
creep.wav,creep.mpg,creep,2,A,Pink_Noise_2_1.wav,Pink_Noise_2_2.wav,,,,,,,,,,,,,,,0,76,76,3,,,,,,,,,,,,,,,,,,,,,,,1019.3367801802233,None,1020.8529617469758,None,1022.2366429450922,None,"cree[
",1022.2366429450922,None,return,3.7181822061538696,1022.3199806222692,None,,,,,,,,,,,,,,,,,,,,,,,,,,,,,,,,,84,001,2023_Apr_25_1535,SpeechDraft1Carolyn_lessNoise_PlusLocalization,2021.2.3,60.01647837274293,
bath.wav,bath.mpg,bath,3,A,Pink_Noise_3_1.wav,Pink_Noise_3_2.wav,,,,,,,,,,,,,,,0,77,77,37,,,,,,,,,,,,,,,,,,,,,,,1026.0699839061126,None,1027.6029303399846,None,1028.9866901589558,None,bath,1028.9866901589558,None,return,3.1040002326481044,1029.0701562231407,None,,,,,,,,,,,,,,,,,,,,,,,,,,,,,,,,,84,001,2023_Apr_25_1535,SpeechDraft1Carolyn_lessNoise_PlusLocalization,2021.2.3,60.01647837274293,
steam.wav,steam.mpg,steam,1,A,Pink_Noise_1_1.wav,Pink_Noise_1_2.wav,,,,,,,,,,,,,,,0,78,78,13,,,,,,,,,,,,,,,,,,,,,,,1032.2033430198207,None,1033.7197063472122,None,1035.1033968930133,None,stain,1035.1033968930133,None,return,6.787558833137155,1035.1866065650247,None,,,,,,,,,,,,,,,,,,,,,,,,,,,,,,,,,84,001,2023_Apr_25_1535,SpeechDraft1Carolyn_lessNoise_PlusLocalization,2021.2.3,60.01647837274293,
cloak.wav,cloak.mpg,cloak,2,A,Pink_Noise_2_1.wav,Pink_Noise_2_2.wav,,,,,,,,,,,,,,,0,79,79,35,,,,,,,,,,,,,,,,,,,,,,,1042.0033937999979,None,1043.5197631530464,None,1044.9034877349623,None,"cloak
",1044.9034877349623,None,return,11.81953243818134,1044.9866212252527,None,,,,,,,,,,,,,,,,,,,,,,,,,,,,,,,,,84,001,2023_Apr_25_1535,SpeechDraft1Carolyn_lessNoise_PlusLocalization,2021.2.3,60.01647837274293,
buy.wav,buy.mpg,buy,4,A,Pink_Noise_4_1.wav,Pink_Noise_4_2.wav,,,,,,,,,,,,,,,0,80,80,19,,,,,,,,,,,,,,,,,,,,,,,1056.8366793729365,None,1058.3529837122187,None,1059.7367803491652,None,"fire
",1059.7367803491652,None,return,7.402157062198967,1059.8199726110324,None,,,,,,,,,,,,,,,,,,,,,,,,,,,,,,,,,84,001,2023_Apr_25_1535,SpeechDraft1Carolyn_lessNoise_PlusLocalization,2021.2.3,60.01647837274293,
flirt.wav,flirt.mpg,flirt,4,A,Pink_Noise_4_1.wav,Pink_Noise_4_2.wav,,,,,,,,,,,,,,,0,81,81,38,,,,,,,,,,,,,,,,,,,,,,,1067.2534777252004,None,1068.7696630968712,None,1070.1533953468315,None,growth,1070.1533953468315,None,return,7.513476951979101,1070.2367548681796,None,,,,,,,,,,,,,,,,,,,,,,,,,,,,,,,,,84,001,2023_Apr_25_1535,SpeechDraft1Carolyn_lessNoise_PlusLocalization,2021.2.3,60.01647837274293,
gang.wav,gang.mpg,gang,5,A,Pink_Noise_5_1.wav,Pink_Noise_5_2.wav,,,,,,,,,,,,,,,0,82,82,30,,,,,,,,,,,,,,,,,,,,,,,1077.7700345539488,None,1079.2864459329285,None,1080.67024713289,None,day,1080.67024713289,None,return,2.8447733288630843,1080.7534191859886,None,,,,,,,,,,,,,,,,,,,,,,,,,,,,,,,,,84,001,2023_Apr_25_1535,SpeechDraft1Carolyn_lessNoise_PlusLocalization,2021.2.3,60.01647837274293,
truce.wav,truce.mpg,truce,2,AV,Pink_Noise_2_1.wav,Pink_Noise_2_2.wav,,,,,,,,,,,,,,,0,83,83,65,,,,,,,,,,,,,,,,,,,,,,,1083.6199940848164,None,1085.1534939119592,None,1086.5365799372084,None,"truth
",1086.5365799372084,None,return,6.785925015807152,1086.620231829118,None,,,,,,,,,,,,,,,,,,,,,,,,,,,,,,,,,84,001,2023_Apr_25_1535,SpeechDraft1Carolyn_lessNoise_PlusLocalization,2021.2.3,60.01647837274293,
duke.wav,duke.mpg,duke,6,AV,Pink_Noise_6_1.wav,Pink_Noise_6_2.wav,,,,,,,,,,,,,,,0,84,84,61,,,,,,,,,,,,,,,,,,,,,,,1093.4366468698718,None,1094.9698063568212,None,1096.3533703908324,None,youth,1096.3533703908324,None,return,14.657670734915882,1096.4366481499746,None,,,,,,,,,,,,,,,,,,,,,,,,,,,,,,,,,84,001,2023_Apr_25_1535,SpeechDraft1Carolyn_lessNoise_PlusLocalization,2021.2.3,60.01647837274293,
bust.wav,bust.mpg,bust,5,A,Pink_Noise_5_1.wav,Pink_Noise_5_2.wav,,,,,,,,,,,,,,,0,85,85,6,,,,,,,,,,,,,,,,,,,,,,,1111.1200031400658,None,1112.6529491320252,None,1114.0367888179608,None,"wasp
",1114.0367888179608,None,return,11.53403567476198,1114.1201229169965,None,,,,,,,,,,,,,,,,,,,,,,,,,,,,,,,,,84,001,2023_Apr_25_1535,SpeechDraft1Carolyn_lessNoise_PlusLocalization,2021.2.3,60.01647837274293,
grade.wav,grade.mpg,grade,5,AV,Pink_Noise_5_1.wav,Pink_Noise_5_2.wav,,,,,,,,,,,,,,,0,86,86,111,,,,,,,,,,,,,,,,,,,,,,,1125.6868015551008,None,1127.2032105438411,None,1128.5868714102544,None,gray,1128.5868714102544,None,return,8.256128213834018,1128.6700853141956,None,,,,,,,,,,,,,,,,,,,,,,,,,,,,,,,,,84,001,2023_Apr_25_1535,SpeechDraft1Carolyn_lessNoise_PlusLocalization,2021.2.3,60.01647837274293,
clot.wav,clot.mpg,clot,5,A,Pink_Noise_5_1.wav,Pink_Noise_5_2.wav,,,,,,,,,,,,,,,0,87,87,8,,,,,,,,,,,,,,,,,,,,,,,1136.9535107179545,None,1138.488005896099,None,1139.8700747988187,None,flat,1139.8700747988187,None,return,5.620601915754378,1139.9535588449799,None,,,,,,,,,,,,,,,,,,,,,,,,,,,,,,,,,84,001,2023_Apr_25_1535,SpeechDraft1Carolyn_lessNoise_PlusLocalization,2021.2.3,60.01647837274293,
earn.wav,earn.mpg,earn,1,AV,Pink_Noise_1_1.wav,Pink_Noise_1_2.wav,,,,,,,,,,,,,,,0,88,88,103,,,,,,,,,,,,,,,,,,,,,,,1145.6036866959184,None,1147.1367367431521,None,1148.5201071659103,None,earn,1148.5201071659103,None,return,13.978278256952763,1148.603863432072,None,,,,,,,,,,,,,,,,,,,,,,,,,,,,,,,,,84,001,2023_Apr_25_1535,SpeechDraft1Carolyn_lessNoise_PlusLocalization,2021.2.3,60.01647837274293,
gum.wav,gum.mpg,gum,2,AV,Pink_Noise_2_1.wav,Pink_Noise_2_2.wav,,,,,,,,,,,,,,,0,89,89,108,,,,,,,,,,,,,,,,,,,,,,,1162.6035095010884,None,1164.1206790031865,None,1165.5034931870177,None,"gum
",1165.5034931870177,None,return,74.41919821174815,1165.5869598388672,None,,,,,,,,,,,,,,,,,,,,,,,,,,,,,,,,,84,001,2023_Apr_25_1535,SpeechDraft1Carolyn_lessNoise_PlusLocalization,2021.2.3,60.01647837274293,
fate.wav,fate.mpg,fate,3,A,Pink_Noise_3_1.wav,Pink_Noise_3_2.wav,,,,,,,,,,,,,,,0,90,90,45,,,,,,,,,,,,,,,,,,,,,,,1240.0369323440827,None,1241.5698736188933,None,1242.953557210043,None,bait,1242.953557210043,None,return,5.689341668970883,1243.036953649018,None,,,,,,,,,,,,,,,,,,,,,,,,,,,,,,,,,84,001,2023_Apr_25_1535,SpeechDraft1Carolyn_lessNoise_PlusLocalization,2021.2.3,60.01647837274293,
chess.wav,chess.mpg,chess,2,A,Pink_Noise_2_1.wav,Pink_Noise_2_2.wav,,,,,,,,,,,,,,,0,91,91,12,,,,,,,,,,,,,,,,,,,,,,,1248.753527624067,None,1250.286558541935,None,1251.6705190502107,None,"chess
",1251.6705190502107,None,return,5.668507382739335,1251.753661415074,None,,,,,,,,,,,,,,,,,,,,,,,,,,,,,,,,,84,001,2023_Apr_25_1535,SpeechDraft1Carolyn_lessNoise_PlusLocalization,2021.2.3,60.01647837274293,
quit.wav,quit.mpg,quit,2,A,Pink_Noise_2_1.wav,Pink_Noise_2_2.wav,,,,,,,,,,,,,,,0,92,92,54,,,,,,,,,,,,,,,,,,,,,,,1257.4536293940619,None,1258.9866601568647,None,1260.3704144698568,None,quit,1260.3704144698568,None,return,14.656711127143353,1260.4535531192087,None,,,,,,,,,,,,,,,,,,,,,,,,,,,,,,,,,84,001,2023_Apr_25_1535,SpeechDraft1Carolyn_lessNoise_PlusLocalization,2021.2.3,60.01647837274293,
fault.wav,fault.mpg,fault,1,AV,Pink_Noise_1_1.wav,Pink_Noise_1_2.wav,,,,,,,,,,,,,,,0,93,93,95,,,,,,,,,,,,,,,,,,,,,,,1275.1369393370114,None,1276.6699425140396,None,1278.0538665461354,None,fault,1278.0538665461354,None,return,10.189133021980524,1278.1371349939145,None,,,,,,,,,,,,,,,,,,,,,,,,,,,,,,,,,84,001,2023_Apr_25_1535,SpeechDraft1Carolyn_lessNoise_PlusLocalization,2021.2.3,60.01647837274293,
wild.wav,wild.mpg,wild,3,AV,Pink_Noise_3_1.wav,Pink_Noise_3_2.wav,,,,,,,,,,,,,,,0,94,94,73,,,,,,,,,,,,,,,,,,,,,,,1288.3537260051817,None,1289.869950689841,None,1291.253806786146,None,wild,1291.253806786146,None,return,11.741280779242516,1291.3369826329872,None,,,,,,,,,,,,,,,,,,,,,,,,,,,,,,,,,84,001,2023_Apr_25_1535,SpeechDraft1Carolyn_lessNoise_PlusLocalization,2021.2.3,60.01647837274293,
glow.wav,glow.mpg,glow,6,AV,Pink_Noise_6_1.wav,Pink_Noise_6_2.wav,,,,,,,,,,,,,,,0,95,95,107,,,,,,,,,,,,,,,,,,,,,,,1303.1036361372098,None,1304.6539542558603,None,1306.037183537148,None,glow,1306.037183537148,None,return,6.021808839868754,1306.120438911952,None,,,,,,,,,,,,,,,,,,,,,,,,,,,,,,,,,84,001,2023_Apr_25_1535,SpeechDraft1Carolyn_lessNoise_PlusLocalization,2021.2.3,60.01647837274293,
crate.wav,crate.mpg,crate,5,AV,Pink_Noise_5_1.wav,Pink_Noise_5_2.wav,,,,,,,,,,,,,,,0,96,96,63,,,,,,,,,,,,,,,,,,,,,,,1312.1704638581723,None,1313.703392026946,None,1315.0868424442597,None,quench,1315.0868424442597,None,return,15.555881374981254,1315.1704293591902,None,,,,,,,,,,,,,,,,,,,,,,,,,,,,,,,,,84,001,2023_Apr_25_1535,SpeechDraft1Carolyn_lessNoise_PlusLocalization,2021.2.3,60.01647837274293,
bare.wav,bare.mpg,bare,1,A,Pink_Noise_1_1.wav,Pink_Noise_1_2.wav,,,,,,,,,,,,,,,0,97,97,28,,,,,,,,,,,,,,,,,,,,,,,1330.7537506949157,None,1332.2868757890537,None,1333.6704326188192,None,bare,1333.6704326188192,None,return,4.524278805125505,1333.7540609529242,None,,,,,,,,,,,,,,,,,,,,,,,,,,,,,,,,,84,001,2023_Apr_25_1535,SpeechDraft1Carolyn_lessNoise_PlusLocalization,2021.2.3,60.01647837274293,
born.wav,born.mpg,born,4,AV,Pink_Noise_4_1.wav,Pink_Noise_4_2.wav,,,,,,,,,,,,,,,0,98,98,93,,,,,,,,,,,,,,,,,,,,,,,1338.3037321758457,None,1339.8534614108503,None,1341.237203542143,None,born,1341.237203542143,None,return,6.141672902274877,1341.320516913198,None,,,,,,,,,,,,,,,,,,,,,,,,,,,,,,,,,84,001,2023_Apr_25_1535,SpeechDraft1Carolyn_lessNoise_PlusLocalization,2021.2.3,60.01647837274293,
booth.wav,booth.mpg,booth,2,AV,Pink_Noise_2_1.wav,Pink_Noise_2_2.wav,,,,,,,,,,,,,,,0,99,99,117,,,,,,,,,,,,,,,,,,,,,,,1347.4871701151133,None,1349.0201925761066,None,1350.4040735000744,None,booth,1350.4040735000744,None,return,8.047170552425086,1350.4871506560594,None,,,,,,,,,,,,,,,,,,,,,,,,,,,,,,,,,84,001,2023_Apr_25_1535,SpeechDraft1Carolyn_lessNoise_PlusLocalization,2021.2.3,60.01647837274293,
flag.wav,flag.mpg,flag,4,AV,Pink_Noise_4_1.wav,Pink_Noise_4_2.wav,,,,,,,,,,,,,,,0,100,100,115,,,,,,,,,,,,,,,,,,,,,,,1358.5536696859635,None,1360.0869065471925,None,1361.4704783558846,None,fly,1361.4704783558846,None,return,8.108337363228202,1361.5538193578832,None,,,,,,,,,,,,,,,,,,,,,,,,,,,,,,,,,84,001,2023_Apr_25_1535,SpeechDraft1Carolyn_lessNoise_PlusLocalization,2021.2.3,60.01647837274293,
drip.wav,drip.mpg,drip,5,A,Pink_Noise_5_1.wav,Pink_Noise_5_2.wav,,,,,,,,,,,,,,,0,101,101,31,,,,,,,,,,,,,,,,,,,,,,,1369.687172899954,None,1371.2035167310387,None,1372.5872197779827,None,yoak,1372.5872197779827,None,return,6.607725378125906,1372.670538798906,None,,,,,,,,,,,,,,,,,,,,,,,,,,,,,,,,,84,001,2023_Apr_25_1535,SpeechDraft1Carolyn_lessNoise_PlusLocalization,2021.2.3,60.01647837274293,
wind.wav,wind.mpg,wind,4,AV,Pink_Noise_4_1.wav,Pink_Noise_4_2.wav,,,,,,,,,,,,,,,0,102,102,97,,,,,,,,,,,,,,,,,,,,,,,1379.303688077256,None,1380.8201898001134,None,1382.2038543061353,None,"wait
",1382.2038543061353,None,return,7.167032071854919,1382.2871257700026,None,,,,,,,,,,,,,,,,,,,,,,,,,,,,,,,,,84,001,2023_Apr_25_1535,SpeechDraft1Carolyn_lessNoise_PlusLocalization,2021.2.3,60.01647837274293,
grunt.wav,grunt.mpg,grunt,6,AV,Pink_Noise_6_1.wav,Pink_Noise_6_2.wav,,,,,,,,,,,,,,,0,103,103,76,,,,,,,,,,,,,,,,,,,,,,,1389.4870848581195,None,1391.003564467188,None,1392.387113114819,None,clutch,1392.387113114819,None,return,8.999802716076374,1392.4704538751394,None,,,,,,,,,,,,,,,,,,,,,,,,,,,,,,,,,84,001,2023_Apr_25_1535,SpeechDraft1Carolyn_lessNoise_PlusLocalization,2021.2.3,60.01647837274293,
beast.wav,beast.mpg,beast,3,AV,Pink_Noise_3_1.wav,Pink_Noise_3_2.wav,,,,,,,,,,,,,,,0,104,104,119,,,,,,,,,,,,,,,,,,,,,,,1401.4872249690816,None,1403.036993151065,None,1404.4206035011448,None,"beast
",1404.4206035011448,None,return,2.486389463301748,1404.503772599157,None,,,,,,,,,,,,,,,,,,,,,,,,,,,,,,,,,84,001,2023_Apr_25_1535,SpeechDraft1Carolyn_lessNoise_PlusLocalization,2021.2.3,60.01647837274293,
paid.wav,paid.mpg,paid,2,A,Pink_Noise_2_1.wav,Pink_Noise_2_2.wav,,,,,,,,,,,,,,,0,105,105,51,,,,,,,,,,,,,,,,,,,,,,,1407.0204913378693,None,1408.570271302946,None,1409.9552120929584,None,pay,1409.9552120929584,None,return,6.689080468378961,1410.0372069012374,None,,,,,,,,,,,,,,,,,,,,,,,,,,,,,,,,,84,001,2023_Apr_25_1535,SpeechDraft1Carolyn_lessNoise_PlusLocalization,2021.2.3,60.01647837274293,
deem.wav,deem.mpg,deem,3,A,Pink_Noise_3_1.wav,Pink_Noise_3_2.wav,,,,,,,,,,,,,,,0,106,106,52,,,,,,,,,,,,,,,,,,,,,,,1416.7539107198827,None,1418.2700856281444,None,1419.6538538769819,None,teen,1419.6538538769819,None,return,6.020952594000846,1419.7372030168772,None,,,,,,,,,,,,,,,,,,,,,,,,,,,,,,,,,84,001,2023_Apr_25_1535,SpeechDraft1Carolyn_lessNoise_PlusLocalization,2021.2.3,60.01647837274293,
greek.wav,greek.mpg,greek,5,AV,Pink_Noise_5_1.wav,Pink_Noise_5_2.wav,,,,,,,,,,,,,,,0,107,107,72,,,,,,,,,,,,,,,,,,,,,,,1425.787253543269,None,1427.303595664911,None,1428.6874944879673,None,"drea,
",1428.6874944879673,None,return,14.003710520919412,1428.7704669469967,None,,,,,,,,,,,,,,,,,,,,,,,,,,,,,,,,,84,001,2023_Apr_25_1535,SpeechDraft1Carolyn_lessNoise_PlusLocalization,2021.2.3,60.01647837274293,
flaw.wav,flaw.mpg,flaw,4,AV,Pink_Noise_4_1.wav,Pink_Noise_4_2.wav,,,,,,,,,,,,,,,0,108,108,75,,,,,,,,,,,,,,,,,,,,,,,1442.8039667480625,None,1444.3202461628243,None,1445.7040068879724,None,flaw,1445.7040068879724,None,return,3.426931622903794,1445.787252582144,None,,,,,,,,,,,,,,,,,,,,,,,,,,,,,,,,,84,001,2023_Apr_25_1535,SpeechDraft1Carolyn_lessNoise_PlusLocalization,2021.2.3,60.01647837274293,
brow.wav,brow.mpg,brow,4,A,Pink_Noise_4_1.wav,Pink_Noise_4_2.wav,,,,,,,,,,,,,,,0,109,109,44,,,,,,,,,,,,,,,,,,,,,,,1449.2373648229986,None,1450.7869265521877,None,1452.171257790178,None,"brow
",1452.171257790178,None,return,5.76807670481503,1452.2540822932497,None,,,,,,,,,,,,,,,,,,,,,,,,,,,,,,,,,84,001,2023_Apr_25_1535,SpeechDraft1Carolyn_lessNoise_PlusLocalization,2021.2.3,60.01647837274293,
brand.wav,brand.mpg,brand,4,A,Pink_Noise_4_1.wav,Pink_Noise_4_2.wav,,,,,,,,,,,,,,,0,110,110,1,,,,,,,,,,,,,,,,,,,,,,,1458.0539777590893,None,1459.5702975261956,None,1460.9538807640783,None,brain,1460.9538807640783,None,return,6.9449281338602304,1461.037235124968,None,,,,,,,,,,,,,,,,,,,,,,,,,,,,,,,,,84,001,2023_Apr_25_1535,SpeechDraft1Carolyn_lessNoise_PlusLocalization,2021.2.3,60.01647837274293,
crank.wav,crank.mpg,crank,5,AV,Pink_Noise_5_1.wav,Pink_Noise_5_2.wav,,,,,,,,,,,,,,,0,111,111,89,,,,,,,,,,,,,,,,,,,,,,,1468.0038912589662,None,1469.5369182331488,None,1470.9206754229963,None,quit,1470.9206754229963,None,return,8.810219336301088,1471.003970914986,None,,,,,,,,,,,,,,,,,,,,,,,,,,,,,,,,,84,001,2023_Apr_25_1535,SpeechDraft1Carolyn_lessNoise_PlusLocalization,2021.2.3,60.01647837274293,
code.wav,code.mpg,code,6,A,Pink_Noise_6_1.wav,Pink_Noise_6_2.wav,,,,,,,,,,,,,,,0,112,112,36,,,,,,,,,,,,,,,,,,,,,,,1479.837340163067,None,1481.3703784612007,None,1482.7538818428293,None,birch,1482.7538818428293,None,return,13.728871697094291,1482.8373007909395,None,,,,,,,,,,,,,,,,,,,,,,,,,,,,,,,,,84,001,2023_Apr_25_1535,SpeechDraft1Carolyn_lessNoise_PlusLocalization,2021.2.3,60.01647837274293,
bridge.wav,bridge.mpg,bridge,4,AV,Pink_Noise_4_1.wav,Pink_Noise_4_2.wav,,,,,,,,,,,,,,,0,113,113,80,,,,,,,,,,,,,,,,,,,,,,,1496.5877555068582,None,1498.1205608872697,None,1499.5039693289436,None,"bridge
",1499.5039693289436,None,return,21.98663816228509,1499.5875453059562,None,,,,,,,,,,,,,,,,,,,,,,,,,,,,,,,,,84,001,2023_Apr_25_1535,SpeechDraft1Carolyn_lessNoise_PlusLocalization,2021.2.3,60.01647837274293,
cling.wav,cling.mpg,cling,2,AV,Pink_Noise_2_1.wav,Pink_Noise_2_2.wav,,,,,,,,,,,,,,,0,114,114,79,,,,,,,,,,,,,,,,,,,,,,,1521.6039382452145,None,1523.1703344071284,None,1524.5544725591317,None,clean,1524.5544725591317,None,return,7.224813756067306,1524.6373601858504,None,,,,,,,,,,,,,,,,,,,,,,,,,,,,,,,,,84,001,2023_Apr_25_1535,SpeechDraft1Carolyn_lessNoise_PlusLocalization,2021.2.3,60.01647837274293,
blot.wav,blot.mpg,blot,6,A,Pink_Noise_6_1.wav,Pink_Noise_6_2.wav,,,,,,,,,,,,,,,0,115,115,20,,,,,,,,,,,,,,,,,,,,,,,1531.8873434518464,None,1533.4202582710423,None,1534.8039416028187,None,"rock
",1534.8039416028187,None,return,5.086757654789835,1534.887397149112,None,,,,,,,,,,,,,,,,,,,,,,,,,,,,,,,,,84,001,2023_Apr_25_1535,SpeechDraft1Carolyn_lessNoise_PlusLocalization,2021.2.3,60.01647837274293,
firm.wav,firm.mpg,firm,2,A,Pink_Noise_2_1.wav,Pink_Noise_2_2.wav,,,,,,,,,,,,,,,0,116,116,42,,,,,,,,,,,,,,,,,,,,,,,1540.0040272478946,None,1541.5369909731671,None,1542.9207073501311,None,"fur
",1542.9207073501311,None,return,7.050152807962149,1543.0039873798378,None,,,,,,,,,,,,,,,,,,,,,,,,,,,,,,,,,84,001,2023_Apr_25_1535,SpeechDraft1Carolyn_lessNoise_PlusLocalization,2021.2.3,60.01647837274293,
buzz.wav,buzz.mpg,buzz,6,A,Pink_Noise_6_1.wav,Pink_Noise_6_2.wav,,,,,,,,,,,,,,,0,117,117,32,,,,,,,,,,,,,,,,,,,,,,,1550.0874405819923,None,1551.6035730112344,None,1552.9873503688723,None,buckets,1552.9873503688723,None,return,10.191532332915813,1553.070764536038,None,,,,,,,,,,,,,,,,,,,,,,,,,,,,,,,,,84,001,2023_Apr_25_1535,SpeechDraft1Carolyn_lessNoise_PlusLocalization,2021.2.3,60.01647837274293,
fluent.wav,fluent.mpg,fluent,5,A,Pink_Noise_5_1.wav,Pink_Noise_5_2.wav,,,,,,,,,,,,,,,0,118,118,43,,,,,,,,,,,,,,,,,,,,,,,1563.2875278601423,None,1564.8370253662579,None,1566.220670397859,None,screw,1566.220670397859,None,return,3.3261699001304805,1566.3039788692258,None,,,,,,,,,,,,,,,,,,,,,,,,,,,,,,,,,84,001,2023_Apr_25_1535,SpeechDraft1Carolyn_lessNoise_PlusLocalization,2021.2.3,60.01647837274293,
boss.wav,boss.mpg,boss,1,A,Pink_Noise_1_1.wav,Pink_Noise_1_2.wav,,,,,,,,,,,,,,,0,119,119,59,,,,,,,,,,,,,,,,,,,,,,,1569.6539773978293,None,1571.1870368551463,None,1572.5707546528429,None,"loss
",1572.5707546528429,None,return,7.168019963894039,1572.6541268308647,None,,,,,,,,,,,,,,,,,,,,,,,,,,,,,,,,,84,001,2023_Apr_25_1535,SpeechDraft1Carolyn_lessNoise_PlusLocalization,2021.2.3,60.01647837274293,
,,,,,,,,,,,,,,,,,,,,,,,,,,,,,,,,,,,,,,,,,,,,,,,,,,,,,,,,,,,,,,,,,,space,35.932475904002786,1579.937763303984,None,,,,,,,,,,,,,,,,,,,,,,,84,001,2023_Apr_25_1535,SpeechDraft1Carolyn_lessNoise_PlusLocalization,2021.2.3,60.01647837274293,
,,,,,,,,midRight,13.0,3,ch1Sound_localizationTask.wav,13.0,"(1142, 878)","(182, -202)",190,-338,,,,,,,,,0,0,0,5,,,,,,,,,,,,,,,,,,,,,,,,,,,,,,,,,,,,,,,,,,1579.937763303984,None,1615.903885281179,None,1617.0205630059354,None,1617.9372593532316,None,1.729100529100529,2.1191773819737136,1617.9372593532316,None,,,,,,,,,,,84,001,2023_Apr_25_1535,SpeechDraft1Carolyn_lessNoise_PlusLocalization,2021.2.3,60.01647837274293,
,,,,,,,,farLeft,-19.1,5,ch1Sound_localizationTask.wav,-19.1,"(667, 878)","(-293,-202)",-285,-338,,,,,,,,,0,1,1,0,,,,,,,,,,,,,,,,,,,,,,,,,,,,,,,,,,,,,,,,,,,,1620.0555551522411,None,1621.1705202502199,None,1622.0871498212218,None,1.1433862433862434,1.8337400909513235,1622.0871498212218,None,,,,,,,,,,,84,001,2023_Apr_25_1535,SpeechDraft1Carolyn_lessNoise_PlusLocalization,2021.2.3,60.01647837274293,
,,,,,,,,midLeft,-13.0,2,ch1Sound_localizationTask.wav,-13.0,"(762, 878)","(-198,-202)",-190,-338,,,,,,,,,0,2,2,1,,,,,,,,,,,,,,,,,,,,,,,,,,,,,,,,,,,,,,,,,,,,1623.9377961042337,None,1625.0372463320382,None,1625.9705173191614,None,1.121164021164021,0.951239034999162,1625.9705173191614,None,,,,,,,,,,,84,001,2023_Apr_25_1535,SpeechDraft1Carolyn_lessNoise_PlusLocalization,2021.2.3,60.01647837274293,
,,,,,,,,midRight,13.0,3,ch1Sound_localizationTask.wav,13.0,"(1142, 878)","(182, -202)",190,-338,,,,,,,,,0,3,3,5,,,,,,,,,,,,,,,,,,,,,,,,,,,,,,,,,,,,,,,,,,,,1626.9375748760067,None,1628.0373971648514,None,1628.970541488845,None,1.668783068783069,1.3832330233417451,1628.970541488845,None,,,,,,,,,,,84,001,2023_Apr_25_1535,SpeechDraft1Carolyn_lessNoise_PlusLocalization,2021.2.3,60.01647837274293,
,,,,,,,,farRight,19.1,4,ch1Sound_localizationTask.wav,19.1,"(1237, 878)","(277,-202)",285,-338,,,,,,,,,0,4,4,6,,,,,,,,,,,,,,,,,,,,,,,,,,,,,,,,,,,,,,,,,,,,1630.3707918920554,None,1631.4705271609128,None,1632.403727877885,None,1.734920634920635,0.9162988252937794,1632.403727877885,None,,,,,,,,,,,84,001,2023_Apr_25_1535,SpeechDraft1Carolyn_lessNoise_PlusLocalization,2021.2.3,60.01647837274293,
,,,,,,,,nearRight,6.5,0,ch1Sound_localizationTask.wav,6.5,"(1047, 878)","(87, -202)",95,-338,,,,,,,,,0,5,5,4,,,,,,,,,,,,,,,,,,,,,,,,,,,,,,,,,,,,,,,,,,,,1633.3219039770775,None,1634.4371958258562,None,1635.3538178661838,None,1.5624338624338625,0.9004121073521674,1635.3538178661838,None,,,,,,,,,,,84,001,2023_Apr_25_1535,SpeechDraft1Carolyn_lessNoise_PlusLocalization,2021.2.3,60.01647837274293,
,,,,,,,,center,0.0,6,ch1Sound_localizationTask.wav,0.0,"(952, 878)","(-8,-202)",0,-338,,,,,,,,,0,6,6,3,,,,,,,,,,,,,,,,,,,,,,,,,,,,,,,,,,,,,,,,,,,,1636.255191811826,None,1637.3707312541083,None,1638.28701551212,None,1.483068783068783,0.9668257059529424,1638.28701551212,None,,,,,,,,,,,84,001,2023_Apr_25_1535,SpeechDraft1Carolyn_lessNoise_PlusLocalization,2021.2.3,60.01647837274293,
,,,,,,,,farLeft,-19.1,5,ch1Sound_localizationTask.wav,-19.1,"(667, 878)","(-293,-202)",-285,-338,,,,,,,,,1,0,7,0,,,,,,,,,,,,,,,,,,,,,,,,,,,,,,,,,,,,,,,,,,,,1639.2564658452757,None,1640.370593228843,None,1641.2872644169256,None,1.3555555555555556,0.9673807960934937,1641.2872644169256,None,,,,,,,,,,,84,001,2023_Apr_25_1535,SpeechDraft1Carolyn_lessNoise_PlusLocalization,2021.2.3,60.01647837274293,
,,,,,,,,center,0.0,6,ch1Sound_localizationTask.wav,0.0,"(952, 878)","(-8,-202)",0,-338,,,,,,,,,1,1,8,3,,,,,,,,,,,,,,,,,,,,,,,,,,,,,,,,,,,,,,,,,,,,1642.2708969148807,None,1643.3704251660965,None,1644.3039731858298,None,1.5026455026455028,1.332672504708171,1644.3039731858298,None,,,,,,,,,,,84,001,2023_Apr_25_1535,SpeechDraft1Carolyn_lessNoise_PlusLocalization,2021.2.3,60.01647837274293,
,,,,,,,,farRight,19.1,4,ch1Sound_localizationTask.wav,19.1,"(1237, 878)","(277,-202)",285,-338,,,,,,,,,1,2,9,6,,,,,,,,,,,,,,,,,,,,,,,,,,,,,,,,,,,,,,,,,,,,1645.6383323250338,None,1646.7372574610636,None,1647.670793695841,None,1.6693121693121693,0.9498965027742088,1647.670793695841,None,,,,,,,,,,,84,001,2023_Apr_25_1535,SpeechDraft1Carolyn_lessNoise_PlusLocalization,2021.2.3,60.01647837274293,
,,,,,,,,farRight,19.1,4,ch1Sound_localizationTask.wav,19.1,"(1237, 878)","(277,-202)",285,-338,,,,,,,,,1,3,10,6,,,,,,,,,,,,,,,,,,,,,,,,,,,,,,,,,,,,,,,,,,,,1648.6219364861026,None,1649.7372159529477,None,1650.6538416491821,None,1.6005291005291005,0.7493837010115385,1650.6538416491821,None,,,,,,,,,,,84,001,2023_Apr_25_1535,SpeechDraft1Carolyn_lessNoise_PlusLocalization,2021.2.3,60.01647837274293,
,,,,,,,,midRight,13.0,3,ch1Sound_localizationTask.wav,13.0,"(1142, 878)","(182, -202)",190,-338,,,,,,,,,1,4,11,5,,,,,,,,,,,,,,,,,,,,,,,,,,,,,,,,,,,,,,,,,,,,1651.405317232944,None,1652.52061591018,None,1653.4372006701306,None,1.5338624338624338,0.7987286457791924,1653.4372006701306,None,,,,,,,,,,,84,001,2023_Apr_25_1535,SpeechDraft1Carolyn_lessNoise_PlusLocalization,2021.2.3,60.01647837274293,
,,,,,,,,midLeft,-13.0,2,ch1Sound_localizationTask.wav,-13.0,"(762, 878)","(-198,-202)",-190,-338,,,,,,,,,1,5,12,1,,,,,,,,,,,,,,,,,,,,,,,,,,,,,,,,,,,,,,,,,,,,1654.237559414003,None,1655.33714504214,None,1656.2704215901904,None,1.4015873015873015,0.6991577120497823,1656.2704215901904,None,,,,,,,,,,,84,001,2023_Apr_25_1535,SpeechDraft1Carolyn_lessNoise_PlusLocalization,2021.2.3,60.01647837274293,
,,,,,,,,nearRight,6.5,0,ch1Sound_localizationTask.wav,6.5,"(1047, 878)","(87, -202)",95,-338,,,,,,,,,1,6,13,4,,,,,,,,,,,,,,,,,,,,,,,,,,,,,,,,,,,,,,,,,,,,1656.9715619501658,None,1658.0706489058211,None,1659.003868042957,None,1.4968253968253968,1.316655192989856,1659.003868042957,None,,,,,,,,,,,84,001,2023_Apr_25_1535,SpeechDraft1Carolyn_lessNoise_PlusLocalization,2021.2.3,60.01647837274293,
,,,,,,,,nearLeft,-6.5,1,ch1Sound_localizationTask.wav,-6.5,"(857, 878)","(-103,-202)",-95,-338,,,,,,,,,2,0,14,2,,,,,,,,,,,,,,,,,,,,,,,,,,,,,,,,,,,,,,,,,,,,1660.3219955642708,None,1661.4372824472375,None,1662.3540048501454,None,1.4322751322751324,1.1494936989620328,1662.3540048501454,None,,,,,,,,,,,84,001,2023_Apr_25_1535,SpeechDraft1Carolyn_lessNoise_PlusLocalization,2021.2.3,60.01647837274293,
,,,,,,,,nearLeft,-6.5,1,ch1Sound_localizationTask.wav,-6.5,"(857, 878)","(-103,-202)",-95,-338,,,,,,,,,2,1,15,2,,,,,,,,,,,,,,,,,,,,,,,,,,,,,,,,,,,,,,,,,,,,1663.5056985970587,None,1664.6208454710431,None,1665.5372531809844,None,1.4645502645502646,0.549829239025712,1665.5372531809844,None,,,,,,,,,,,84,001,2023_Apr_25_1535,SpeechDraft1Carolyn_lessNoise_PlusLocalization,2021.2.3,60.01647837274293,
,,,,,,,,center,0.0,6,ch1Sound_localizationTask.wav,0.0,"(952, 878)","(-8,-202)",0,-338,,,,,,,,,2,2,16,3,,,,,,,,,,,,,,,,,,,,,,,,,,,,,,,,,,,,,,,,,,,,1666.0888383900747,None,1667.2038408410735,None,1668.1205488000996,None,1.502116402116402,0.6659376849420369,1668.1205488000996,None,,,,,,,,,,,84,001,2023_Apr_25_1535,SpeechDraft1Carolyn_lessNoise_PlusLocalization,2021.2.3,60.01647837274293,
,,,,,,,,center,0.0,6,ch1Sound_localizationTask.wav,0.0,"(952, 878)","(-8,-202)",0,-338,,,,,,,,,2,3,17,3,,,,,,,,,,,,,,,,,,,,,,,,,,,,,,,,,,,,,,,,,,,,1668.7881827852689,None,1669.8873439808376,None,1670.8206043760292,None,1.4957671957671956,0.6166522218845785,1670.8206043760292,None,,,,,,,,,,,84,001,2023_Apr_25_1535,SpeechDraft1Carolyn_lessNoise_PlusLocalization,2021.2.3,60.01647837274293,
,,,,,,,,nearLeft,-6.5,1,ch1Sound_localizationTask.wav,-6.5,"(857, 878)","(-103,-202)",-95,-338,,,,,,,,,2,4,18,2,,,,,,,,,,,,,,,,,,,,,,,,,,,,,,,,,,,,,,,,,,,,1671.438361058943,None,1672.5373183051124,None,1673.470575347077,None,1.4777777777777779,0.8681042222306132,1673.470575347077,None,,,,,,,,,,,84,001,2023_Apr_25_1535,SpeechDraft1Carolyn_lessNoise_PlusLocalization,2021.2.3,60.01647837274293,
,,,,,,,,nearLeft,-6.5,1,ch1Sound_localizationTask.wav,-6.5,"(857, 878)","(-103,-202)",-95,-338,,,,,,,,,2,5,19,2,,,,,,,,,,,,,,,,,,,,,,,,,,,,,,,,,,,,,,,,,,,,1674.3542566811666,None,1675.453904869035,None,1676.3874572161585,None,1.4465608465608466,0.832721970975399,1676.3874572161585,None,,,,,,,,,,,84,001,2023_Apr_25_1535,SpeechDraft1Carolyn_lessNoise_PlusLocalization,2021.2.3,60.01647837274293,
,,,,,,,,farRight,19.1,4,ch1Sound_localizationTask.wav,19.1,"(1237, 878)","(277,-202)",285,-338,,,,,,,,,2,6,20,6,,,,,,,,,,,,,,,,,,,,,,,,,,,,,,,,,,,,,,,,,,,,1677.2372420211323,None,1678.3371380958706,None,1679.2539285621606,None,1.6042328042328042,0.5491568883880973,1679.2539285621606,None,,,,,,,,,,,84,001,2023_Apr_25_1535,SpeechDraft1Carolyn_lessNoise_PlusLocalization,2021.2.3,60.01647837274293,
,,,,,,,,nearRight,6.5,0,ch1Sound_localizationTask.wav,6.5,"(1047, 878)","(87, -202)",95,-338,,,,,,,,,3,0,21,4,,,,,,,,,,,,,,,,,,,,,,,,,,,,,,,,,,,,,,,,,,,,1679.8056010040455,None,1680.9206383330747,None,1681.837231116835,None,1.5158730158730158,0.7832412482239306,1681.837231116835,None,,,,,,,,,,,84,001,2023_Apr_25_1535,SpeechDraft1Carolyn_lessNoise_PlusLocalization,2021.2.3,60.01647837274293,
,,,,,,,,nearLeft,-6.5,1,ch1Sound_localizationTask.wav,-6.5,"(857, 878)","(-103,-202)",-95,-338,,,,,,,,,3,1,22,2,,,,,,,,,,,,,,,,,,,,,,,,,,,,,,,,,,,,,,,,,,,,1682.6217716662213,None,1683.7205698341131,None,1684.6536967349239,None,1.4793650793650794,0.5495344367809594,1684.6536967349239,None,,,,,,,,,,,84,001,2023_Apr_25_1535,SpeechDraft1Carolyn_lessNoise_PlusLocalization,2021.2.3,60.01647837274293,
,,,,,,,,farRight,19.1,4,ch1Sound_localizationTask.wav,19.1,"(1237, 878)","(277,-202)",285,-338,,,,,,,,,3,2,23,6,,,,,,,,,,,,,,,,,,,,,,,,,,,,,,,,,,,,,,,,,,,,1685.205634321086,None,1686.3207525610924,None,1687.2372475708835,None,1.680952380952381,0.48293677903711796,1687.2372475708835,None,,,,,,,,,,,84,001,2023_Apr_25_1535,SpeechDraft1Carolyn_lessNoise_PlusLocalization,2021.2.3,60.01647837274293,
,,,,,,,,midLeft,-13.0,2,ch1Sound_localizationTask.wav,-13.0,"(762, 878)","(-198,-202)",-190,-338,,,,,,,,,3,3,24,1,,,,,,,,,,,,,,,,,,,,,,,,,,,,,,,,,,,,,,,,,,,,1687.7227328121662,None,1688.8372343690135,None,1689.754064660985,None,1.4301587301587302,0.6155387442559004,1689.754064660985,None,,,,,,,,,,,84,001,2023_Apr_25_1535,SpeechDraft1Carolyn_lessNoise_PlusLocalization,2021.2.3,60.01647837274293,
,,,,,,,,midLeft,-13.0,2,ch1Sound_localizationTask.wav,-13.0,"(762, 878)","(-198,-202)",-190,-338,,,,,,,,,3,4,25,1,,,,,,,,,,,,,,,,,,,,,,,,,,,,,,,,,,,,,,,,,,,,1690.37132204324,None,1691.4706346238963,None,1692.4039256558754,None,1.4656084656084656,0.5153447431512177,1692.4039256558754,None,,,,,,,,,,,84,001,2023_Apr_25_1535,SpeechDraft1Carolyn_lessNoise_PlusLocalization,2021.2.3,60.01647837274293,
,,,,,,,,nearLeft,-6.5,1,ch1Sound_localizationTask.wav,-6.5,"(857, 878)","(-103,-202)",-95,-338,,,,,,,,,3,5,26,2,,,,,,,,,,,,,,,,,,,,,,,,,,,,,,,,,,,,,,,,,,,,1692.9222323298454,None,1694.0374892540276,None,1694.9539784579538,None,1.4502645502645501,0.7006759527139366,1694.9539784579538,None,,,,,,,,,,,84,001,2023_Apr_25_1535,SpeechDraft1Carolyn_lessNoise_PlusLocalization,2021.2.3,60.01647837274293,
,,,,,,,,nearRight,6.5,0,ch1Sound_localizationTask.wav,6.5,"(1047, 878)","(87, -202)",95,-338,,,,,,,,,3,6,27,4,,,,,,,,,,,,,,,,,,,,,,,,,,,,,,,,,,,,,,,,,,,,1695.6708222390153,None,1696.770733222831,None,1697.7039621272124,None,1.5666666666666667,0.9488177811726928,1697.7039621272124,None,,,,,,,,,,,84,001,2023_Apr_25_1535,SpeechDraft1Carolyn_lessNoise_PlusLocalization,2021.2.3,60.01647837274293,
,,,,,,,,center,0.0,6,ch1Sound_localizationTask.wav,0.0,"(952, 878)","(-8,-202)",0,-338,,,,,,,,,4,0,28,3,,,,,,,,,,,,,,,,,,,,,,,,,,,,,,,,,,,,,,,,,,,,1698.6549778962508,None,1699.7538314550184,None,1700.68723687483,None,1.4962962962962962,0.9664890137501061,1700.68723687483,None,,,,,,,,,,,84,001,2023_Apr_25_1535,SpeechDraft1Carolyn_lessNoise_PlusLocalization,2021.2.3,60.01647837274293,
,,,,,,,,farLeft,-19.1,5,ch1Sound_localizationTask.wav,-19.1,"(667, 878)","(-293,-202)",-285,-338,,,,,,,,,4,1,29,0,,,,,,,,,,,,,,,,,,,,,,,,,,,,,,,,,,,,,,,,,,,,1701.6561021408997,None,1702.77073345799,None,1703.6872646771371,None,1.402116402116402,0.6516826902516186,1703.6872646771371,None,,,,,,,,,,,84,001,2023_Apr_25_1535,SpeechDraft1Carolyn_lessNoise_PlusLocalization,2021.2.3,60.01647837274293,
,,,,,,,,farLeft,-19.1,5,ch1Sound_localizationTask.wav,-19.1,"(667, 878)","(-293,-202)",-285,-338,,,,,,,,,4,2,30,0,,,,,,,,,,,,,,,,,,,,,,,,,,,,,,,,,,,,,,,,,,,,1704.354556220118,None,1705.4538603979163,None,1706.3873375728726,None,1.3571428571428572,0.5666387919336557,1706.3873375728726,None,,,,,,,,,,,84,001,2023_Apr_25_1535,SpeechDraft1Carolyn_lessNoise_PlusLocalization,2021.2.3,60.01647837274293,
,,,,,,,,midLeft,-13.0,2,ch1Sound_localizationTask.wav,-13.0,"(762, 878)","(-198,-202)",-190,-338,,,,,,,,,4,3,31,1,,,,,,,,,,,,,,,,,,,,,,,,,,,,,,,,,,,,,,,,,,,,1706.9711142950691,None,1708.0707096029073,None,1709.0040541142225,None,1.3867724867724869,0.5671666720882058,1709.0040541142225,None,,,,,,,,,,,84,001,2023_Apr_25_1535,SpeechDraft1Carolyn_lessNoise_PlusLocalization,2021.2.3,60.01647837274293,
,,,,,,,,midLeft,-13.0,2,ch1Sound_localizationTask.wav,-13.0,"(762, 878)","(-198,-202)",-190,-338,,,,,,,,,4,4,32,1,,,,,,,,,,,,,,,,,,,,,,,,,,,,,,,,,,,,,,,,,,,,1709.5877738711424,None,1710.6873350180686,None,1711.6206854740158,None,1.4375661375661375,0.9829479148611426,1711.6206854740158,None,,,,,,,,,,,84,001,2023_Apr_25_1535,SpeechDraft1Carolyn_lessNoise_PlusLocalization,2021.2.3,60.01647837274293,
,,,,,,,,nearLeft,-6.5,1,ch1Sound_localizationTask.wav,-6.5,"(857, 878)","(-103,-202)",-95,-338,,,,,,,,,4,5,33,2,,,,,,,,,,,,,,,,,,,,,,,,,,,,,,,,,,,,,,,,,,,,1712.605295254849,None,1713.7040789080784,None,1714.6373945171945,None,1.4814814814814814,1.0998216648586094,1714.6373945171945,None,,,,,,,,,,,84,001,2023_Apr_25_1535,SpeechDraft1Carolyn_lessNoise_PlusLocalization,2021.2.3,60.01647837274293,
,,,,,,,,nearLeft,-6.5,1,ch1Sound_localizationTask.wav,-6.5,"(857, 878)","(-103,-202)",-95,-338,,,,,,,,,4,6,34,2,,,,,,,,,,,,,,,,,,,,,,,,,,,,,,,,,,,,,,,,,,,,1715.7387514612637,None,1716.8538365238346,None,1717.7706743469462,None,1.4661375661375662,0.5337010561488569,1717.7706743469462,None,,,,,,,,,,,84,001,2023_Apr_25_1535,SpeechDraft1Carolyn_lessNoise_PlusLocalization,2021.2.3,60.01647837274293,
,,,,,,,,farRight,19.1,4,ch1Sound_localizationTask.wav,19.1,"(1237, 878)","(277,-202)",285,-338,,,,,,,,,5,0,35,6,,,,,,,,,,,,,,,,,,,,,,,,,,,,,,,,,,,,,,,,,,,,1718.3048805878498,None,1719.403962414246,None,1720.3372167912312,None,1.748148148148148,1.0842729262076318,1720.3372167912312,None,,,,,,,,,,,84,001,2023_Apr_25_1535,SpeechDraft1Carolyn_lessNoise_PlusLocalization,2021.2.3,60.01647837274293,
,,,,,,,,farLeft,-19.1,5,ch1Sound_localizationTask.wav,-19.1,"(667, 878)","(-293,-202)",-285,-338,,,,,,,,,5,1,36,0,,,,,,,,,,,,,,,,,,,,,,,,,,,,,,,,,,,,,,,,,,,,1721.4377486640587,None,1722.5372342090122,None,1723.4707909151912,None,1.2920634920634921,0.9489251030609012,1723.4707909151912,None,,,,,,,,,,,84,001,2023_Apr_25_1535,SpeechDraft1Carolyn_lessNoise_PlusLocalization,2021.2.3,60.01647837274293,
,,,,,,,,midLeft,-13.0,2,ch1Sound_localizationTask.wav,-13.0,"(762, 878)","(-198,-202)",-190,-338,,,,,,,,,5,2,37,1,,,,,,,,,,,,,,,,,,,,,,,,,,,,,,,,,,,,,,,,,,,,1724.4224157440476,None,1725.5374894822016,None,1726.4539593458176,None,1.3566137566137566,0.749007667414844,1726.4539593458176,None,,,,,,,,,,,84,001,2023_Apr_25_1535,SpeechDraft1Carolyn_lessNoise_PlusLocalization,2021.2.3,60.01647837274293,
,,,,,,,,farLeft,-19.1,5,ch1Sound_localizationTask.wav,-19.1,"(667, 878)","(-293,-202)",-285,-338,,,,,,,,,5,3,38,0,,,,,,,,,,,,,,,,,,,,,,,,,,,,,,,,,,,,,,,,,,,,1727.2051128889434,None,1728.3039347138256,None,1729.2374494019896,None,1.319047619047619,0.8833107119426131,1729.2374494019896,None,,,,,,,,,,,84,001,2023_Apr_25_1535,SpeechDraft1Carolyn_lessNoise_PlusLocalization,2021.2.3,60.01647837274293,
,,,,,,,,nearRight,6.5,0,ch1Sound_localizationTask.wav,6.5,"(1047, 878)","(87, -202)",95,-338,,,,,,,,,5,4,39,4,,,,,,,,,,,,,,,,,,,,,,,,,,,,,,,,,,,,,,,,,,,,1730.1222683601081,None,1731.237430612091,None,1732.154323939234,None,1.547089947089947,0.8329876400530338,1732.154323939234,None,,,,,,,,,,,84,001,2023_Apr_25_1535,SpeechDraft1Carolyn_lessNoise_PlusLocalization,2021.2.3,60.01647837274293,
,,,,,,,,farLeft,-19.1,5,ch1Sound_localizationTask.wav,-19.1,"(667, 878)","(-293,-202)",-285,-338,,,,,,,,,5,5,40,0,,,,,,,,,,,,,,,,,,,,,,,,,,,,,,,,,,,,,,,,,,,,1732.988652691245,None,1734.103913872037,None,1735.020626148209,None,1.3396825396825398,0.9172889348119497,1735.020626148209,None,,,,,,,,,,,84,001,2023_Apr_25_1535,SpeechDraft1Carolyn_lessNoise_PlusLocalization,2021.2.3,60.01647837274293,
,,,,,,,,center,0.0,6,ch1Sound_localizationTask.wav,0.0,"(952, 878)","(-8,-202)",0,-338,,,,,,,,,5,6,41,3,,,,,,,,,,,,,,,,,,,,,,,,,,,,,,,,,,,,,,,,,,,,1735.954447438009,None,1737.0539787909947,None,1737.987303362228,None,1.5042328042328044,0.6171336397528648,1737.987303362228,None,,,,,,,,,,,84,001,2023_Apr_25_1535,SpeechDraft1Carolyn_lessNoise_PlusLocalization,2021.2.3,60.01647837274293,
,,,,,,,,midRight,13.0,3,ch1Sound_localizationTask.wav,13.0,"(1142, 878)","(182, -202)",190,-338,,,,,,,,,6,0,42,5,,,,,,,,,,,,,,,,,,,,,,,,,,,,,,,,,,,,,,,,,,,,1738.621082128957,None,1739.7206075419672,None,1740.6539319599979,None,1.6291005291005292,0.8666703123599291,1740.6539319599979,None,,,,,,,,,,,84,001,2023_Apr_25_1535,SpeechDraft1Carolyn_lessNoise_PlusLocalization,2021.2.3,60.01647837274293,
,,,,,,,,midRight,13.0,3,ch1Sound_localizationTask.wav,13.0,"(1142, 878)","(182, -202)",190,-338,,,,,,,,,6,1,43,5,,,,,,,,,,,,,,,,,,,,,,,,,,,,,,,,,,,,,,,,,,,,1741.5222097299993,None,1742.637434589211,None,1743.5539467600174,None,1.601058201058201,0.9007437680847943,1743.5539467600174,None,,,,,,,,,,,84,001,2023_Apr_25_1535,SpeechDraft1Carolyn_lessNoise_PlusLocalization,2021.2.3,60.01647837274293,
,,,,,,,,midRight,13.0,3,ch1Sound_localizationTask.wav,13.0,"(1142, 878)","(182, -202)",190,-338,,,,,,,,,6,2,44,5,,,,,,,,,,,,,,,,,,,,,,,,,,,,,,,,,,,,,,,,,,,,1744.471207124181,None,1745.570788601879,None,1746.5039090570062,None,1.5455026455026455,0.583039253950119,1746.5039090570062,None,,,,,,,,,,,84,001,2023_Apr_25_1535,SpeechDraft1Carolyn_lessNoise_PlusLocalization,2021.2.3,60.01647837274293,
,,,,,,,,farLeft,-19.1,5,ch1Sound_localizationTask.wav,-19.1,"(667, 878)","(-293,-202)",-285,-338,,,,,,,,,6,3,45,0,,,,,,,,,,,,,,,,,,,,,,,,,,,,,,,,,,,,,,,,,,,,1747.0890149348415,None,1748.2040421608835,None,1749.1207381319255,None,1.3724867724867724,0.9337214231491089,1749.1207381319255,None,,,,,,,,,,,84,001,2023_Apr_25_1535,SpeechDraft1Carolyn_lessNoise_PlusLocalization,2021.2.3,60.01647837274293,
,,,,,,,,nearRight,6.5,0,ch1Sound_localizationTask.wav,6.5,"(1047, 878)","(87, -202)",95,-338,,,,,,,,,6,4,46,4,,,,,,,,,,,,,,,,,,,,,,,,,,,,,,,,,,,,,,,,,,,,1750.0712642078288,None,1751.1708318949677,None,1752.1040211701766,None,1.5015873015873016,0.8655735128559172,1752.1040211701766,None,,,,,,,,,,,84,001,2023_Apr_25_1535,SpeechDraft1Carolyn_lessNoise_PlusLocalization,2021.2.3,60.01647837274293,
,,,,,,,,nearRight,6.5,0,ch1Sound_localizationTask.wav,6.5,"(1047, 878)","(87, -202)",95,-338,,,,,,,,,6,5,47,4,,,,,,,,,,,,,,,,,,,,,,,,,,,,,,,,,,,,,,,,,,,,1752.972018966917,None,1754.0872123031877,None,1755.0040284511633,None,1.5566137566137566,0.6671133893541992,1755.0040284511633,None,,,,,,,,,,,84,001,2023_Apr_25_1535,SpeechDraft1Carolyn_lessNoise_PlusLocalization,2021.2.3,60.01647837274293,
,,,,,,,,midRight,13.0,3,ch1Sound_localizationTask.wav,13.0,"(1142, 878)","(182, -202)",190,-338,,,,,,,,,6,6,48,5,,,,,,,,,,,,,,,,,,,,,,,,,,,,,,,,,,,,,,,,,,,,1755.6729231458157,None,1756.7874446571805,None,1757.7042652419768,None,1.565079365079365,0.6994663067162037,1757.7042652419768,None,,,,,,,,,,,84,001,2023_Apr_25_1535,SpeechDraft1Carolyn_lessNoise_PlusLocalization,2021.2.3,60.01647837274293,
,,,,,,,,midRight,13.0,3,ch1Sound_localizationTask.wav,13.0,"(1142, 878)","(182, -202)",190,-338,,,,,,,,,7,0,49,5,,,,,,,,,,,,,,,,,,,,,,,,,,,,,,,,,,,,,,,,,,,,1758.4209606768563,None,1759.5208142092451,None,1760.454141127877,None,1.6365079365079365,0.8000736329704523,1760.454141127877,None,,,,,,,,,,,84,001,2023_Apr_25_1535,SpeechDraft1Carolyn_lessNoise_PlusLocalization,2021.2.3,60.01647837274293,
,,,,,,,,nearRight,6.5,0,ch1Sound_localizationTask.wav,6.5,"(1047, 878)","(87, -202)",95,-338,,,,,,,,,7,1,50,4,,,,,,,,,,,,,,,,,,,,,,,,,,,,,,,,,,,,,,,,,,,,1761.2711385879666,None,1762.3707416518591,None,1763.3041160302237,None,1.5,0.8498475519008934,1763.3041160302237,None,,,,,,,,,,,84,001,2023_Apr_25_1535,SpeechDraft1Carolyn_lessNoise_PlusLocalization,2021.2.3,60.01647837274293,
,,,,,,,,farRight,19.1,4,ch1Sound_localizationTask.wav,19.1,"(1237, 878)","(277,-202)",285,-338,,,,,,,,,7,2,51,6,,,,,,,,,,,,,,,,,,,,,,,,,,,,,,,,,,,,,,,,,,,,1764.155576075893,None,1765.2708895490505,None,1766.1874345708638,None,1.7380952380952381,0.7173014720901847,1766.1874345708638,None,,,,,,,,,,,84,001,2023_Apr_25_1535,SpeechDraft1Carolyn_lessNoise_PlusLocalization,2021.2.3,60.01647837274293,
,,,,,,,,center,0.0,6,ch1Sound_localizationTask.wav,0.0,"(952, 878)","(-8,-202)",0,-338,,,,,,,,,7,3,52,3,,,,,,,,,,,,,,,,,,,,,,,,,,,,,,,,,,,,,,,,,,,,1766.921181757003,None,1768.020851614885,None,1768.9540417431854,None,1.4957671957671956,0.6657091579400003,1768.9540417431854,None,,,,,,,,,,,84,001,2023_Apr_25_1535,SpeechDraft1Carolyn_lessNoise_PlusLocalization,2021.2.3,60.01647837274293,
,,,,,,,,center,0.0,6,ch1Sound_localizationTask.wav,0.0,"(952, 878)","(-8,-202)",0,-338,,,,,,,,,7,4,53,3,,,,,,,,,,,,,,,,,,,,,,,,,,,,,,,,,,,,,,,,,,,,1769.6216801800765,None,1770.7206925270148,None,1771.6540610180236,None,1.4973544973544972,0.5328808701597154,1771.6540610180236,None,,,,,,,,,,,84,001,2023_Apr_25_1535,SpeechDraft1Carolyn_lessNoise_PlusLocalization,2021.2.3,60.01647837274293,
,,,,,,,,midLeft,-13.0,2,ch1Sound_localizationTask.wav,-13.0,"(762, 878)","(-198,-202)",-190,-338,,,,,,,,,7,5,54,1,,,,,,,,,,,,,,,,,,,,,,,,,,,,,,,,,,,,,,,,,,,,1772.188508829102,None,1773.2873413278721,None,1774.2209432441741,None,1.428042328042328,0.5997611950151622,1774.2209432441741,None,,,,,,,,,,,84,001,2023_Apr_25_1535,SpeechDraft1Carolyn_lessNoise_PlusLocalization,2021.2.3,60.01647837274293,
,,,,,,,,farRight,19.1,4,ch1Sound_localizationTask.wav,19.1,"(1237, 878)","(277,-202)",285,-338,,,,,,,,,7,6,55,6,,,,,,,,,,,,,,,,,,,,,,,,,,,,,,,,,,,,,,,,,,,,1774.8225741181523,None,1775.9373997161165,None,1776.8539791139774,None,1.6888888888888889,0.883134339004755,1776.8539791139774,None,,,,,,,,,,,84,001,2023_Apr_25_1535,SpeechDraft1Carolyn_lessNoise_PlusLocalization,2021.2.3,60.01647837274293,
,,,,,,,,,,,,,,,,,,,,,,,,,,,,,,,,,,,,,,,,,,,,,,,,,,,,,,,,,,,,,,,,,,,,,,,,,,,,,,,,,,space,13.528401185758412,1777.8377222488634,None,,,,,,,84,001,2023_Apr_25_1535,SpeechDraft1Carolyn_lessNoise_PlusLocalization,2021.2.3,60.01647837274293,
,,,,,,,,nearRight,6.5,0,ch1Sound_localizationTask.wav,6.5,"(1047, 878)","(87, -202)",95,-338,,,,,,,,,,,,,0,0,0,4,,,,,,,,,,,,,,,,,,,,,,,,,,,,,,,,,,,,,,,,1791.4041248131543,None,,,1794.4373610941693,None,1.5624338624338625,0.8868216550908983,1794.4373610941693,None,,,,,1777.8377222488634,None,1792.4044166849926,None,1792.5876603159122,1792.604559669271,84,001,2023_Apr_25_1535,SpeechDraft1Carolyn_lessNoise_PlusLocalization,2021.2.3,60.01647837274293,
,,,,,,,,center,0.0,6,ch1Sound_localizationTask.wav,0.0,"(952, 878)","(-8,-202)",0,-338,,,,,,,,,,,,,0,1,1,3,,,,,,,,,,,,,,,,,,,,,,,,,,,,,,,,,,,,,,,,1795.3230285542086,None,,,1798.3541613519192,None,1.480952380952381,0.7824509432539344,1798.3541613519192,None,,,,,,,1796.3377390610985,None,1796.521050001029,1796.5377775598317,84,001,2023_Apr_25_1535,SpeechDraft1Carolyn_lessNoise_PlusLocalization,2021.2.3,60.01647837274293,
,,,,,,,,midRight,13.0,3,ch1Sound_localizationTask.wav,13.0,"(1142, 878)","(182, -202)",190,-338,,,,,,,,,,,,,0,2,2,5,,,,,,,,,,,,,,,,,,,,,,,,,,,,,,,,,,,,,,,,1799.1395971430466,None,,,1802.1707633230835,None,1.6126984126984127,0.865731521975249,1802.1707633230835,None,,,,,,,1800.1543539459817,None,1800.3377615800127,1800.3544042659923,84,001,2023_Apr_25_1535,SpeechDraft1Carolyn_lessNoise_PlusLocalization,2021.2.3,60.01647837274293,
,,,,,,,,center,0.0,6,ch1Sound_localizationTask.wav,0.0,"(952, 878)","(-8,-202)",0,-338,,,,,,,,,,,,,0,3,3,3,,,,,,,,,,,,,,,,,,,,,,,,,,,,,,,,,,,,,,,,1803.0384864052758,None,,,1806.0541529781185,None,1.498941798941799,0.7485564439557493,1806.0541529781185,None,,,,,,,1804.0377664468251,None,1804.2210486880504,1804.237774160225,84,001,2023_Apr_25_1535,SpeechDraft1Carolyn_lessNoise_PlusLocalization,2021.2.3,60.01647837274293,
,,,,,,,,midLeft,-13.0,2,ch1Sound_localizationTask.wav,-13.0,"(762, 878)","(-198,-202)",-190,-338,,,,,,,,,,,,,0,4,4,1,,,,,,,,,,,,,,,,,,,,,,,,,,,,,,,,,,,,,,,,1806.8050207900815,None,,,1809.8207379728556,None,1.3825396825396825,1.0154830482788384,1809.8207379728556,None,,,,,,,1807.8044282109477,None,1807.987848509103,1808.0044791712426,84,001,2023_Apr_25_1535,SpeechDraft1Carolyn_lessNoise_PlusLocalization,2021.2.3,60.01647837274293,
,,,,,,,,farLeft,-19.1,5,ch1Sound_localizationTask.wav,-19.1,"(667, 878)","(-293,-202)",-285,-338,,,,,,,,,,,,,0,5,5,0,,,,,,,,,,,,,,,,,,,,,,,,,,,,,,,,,,,,,,,,1810.8399789729156,None,,,1813.8707565818913,None,1.3476190476190477,0.9817229621112347,1813.8707565818913,None,,,,,,,1811.8544703260995,None,1812.037804827094,1812.054368164856,84,001,2023_Apr_25_1535,SpeechDraft1Carolyn_lessNoise_PlusLocalization,2021.2.3,60.01647837274293,
,,,,,,,,farLeft,-19.1,5,ch1Sound_localizationTask.wav,-19.1,"(667, 878)","(-293,-202)",-285,-338,,,,,,,,,,,,,0,6,6,0,,,,,,,,,,,,,,,,,,,,,,,,,,,,,,,,,,,,,,,,1814.8557224809192,None,,,1817.8873638971709,None,1.3455026455026455,0.8823039992712438,1817.8873638971709,None,,,,,,,1815.871196067892,None,1816.054495980963,1816.071183106862,84,001,2023_Apr_25_1535,SpeechDraft1Carolyn_lessNoise_PlusLocalization,2021.2.3,60.01647837274293,
,,,,,,,,nearLeft,-6.5,1,ch1Sound_localizationTask.wav,-6.5,"(857, 878)","(-103,-202)",-95,-338,,,,,,,,,,,,,1,0,7,2,,,,,,,,,,,,,,,,,,,,,,,,,,,,,,,,,,,,,,,,1818.7718100869097,None,,,1821.78774398705,None,1.4312169312169312,1.2492526420392096,1821.78774398705,None,,,,,,,1819.771120362915,None,1819.9544150731526,1819.9710786212236,84,001,2023_Apr_25_1535,SpeechDraft1Carolyn_lessNoise_PlusLocalization,2021.2.3,60.01647837274293,
,,,,,,,,midLeft,-13.0,2,ch1Sound_localizationTask.wav,-13.0,"(762, 878)","(-198,-202)",-190,-338,,,,,,,,,,,,,1,1,8,1,,,,,,,,,,,,,,,,,,,,,,,,,,,,,,,,,,,,,,,,1823.038450567983,None,,,1826.0543682770804,None,1.3862433862433863,0.8502402687445283,1826.0543682770804,None,,,,,,,1824.0378402192146,None,1824.2209834549576,1824.237935502082,84,001,2023_Apr_25_1535,SpeechDraft1Carolyn_lessNoise_PlusLocalization,2021.2.3,60.01647837274293,
,,,,,,,,farLeft,-19.1,5,ch1Sound_localizationTask.wav,-19.1,"(667, 878)","(-293,-202)",-285,-338,,,,,,,,,,,,,1,2,9,0,,,,,,,,,,,,,,,,,,,,,,,,,,,,,,,,,,,,,,,,1826.9211429650895,None,,,1829.9375953562558,None,1.3455026455026455,1.016188370063901,1829.9375953562558,None,,,,,,,1827.9213159200735,None,1828.104553766083,1828.1214693658985,84,001,2023_Apr_25_1535,SpeechDraft1Carolyn_lessNoise_PlusLocalization,2021.2.3,60.01647837274293,
,,,,,,,,farRight,19.1,4,ch1Sound_localizationTask.wav,19.1,"(1237, 878)","(277,-202)",285,-338,,,,,,,,,,,,,1,3,10,6,,,,,,,,,,,,,,,,,,,,,,,,,,,,,,,,,,,,,,,,1830.9552405299619,None,,,1833.9707856988534,None,1.6566137566137566,1.231332615017891,1833.9707856988534,None,,,,,,,1831.9545680908486,None,1832.1379074552096,1832.1545434212312,84,001,2023_Apr_25_1535,SpeechDraft1Carolyn_lessNoise_PlusLocalization,2021.2.3,60.01647837274293,
,,,,,,,,nearLeft,-6.5,1,ch1Sound_localizationTask.wav,-6.5,"(857, 878)","(-103,-202)",-95,-338,,,,,,,,,,,,,1,4,11,2,,,,,,,,,,,,,,,,,,,,,,,,,,,,,,,,,,,,,,,,1835.2048499560915,None,,,1838.2207518978976,None,1.461904761904762,1.4832097790203989,1838.2207518978976,None,,,,,,,1836.2044481178746,None,1836.3878402630799,1836.4045418109745,84,001,2023_Apr_25_1535,SpeechDraft1Carolyn_lessNoise_PlusLocalization,2021.2.3,60.01647837274293,
,,,,,,,,nearLeft,-6.5,1,ch1Sound_localizationTask.wav,-6.5,"(857, 878)","(-103,-202)",-95,-338,,,,,,,,,,,,,1,5,12,2,,,,,,,,,,,,,,,,,,,,,,,,,,,,,,,,,,,,,,,,1839.7213641321287,None,,,1842.7373221288435,None,1.4497354497354498,0.966641906183213,1842.7373221288435,None,,,,,,,1840.7211668929085,None,1840.904402396176,1840.9211021610536,84,001,2023_Apr_25_1535,SpeechDraft1Carolyn_lessNoise_PlusLocalization,2021.2.3,60.01647837274293,
,,,,,,,,nearRight,6.5,0,ch1Sound_localizationTask.wav,6.5,"(1047, 878)","(87, -202)",95,-338,,,,,,,,,,,,,1,6,13,4,,,,,,,,,,,,,,,,,,,,,,,,,,,,,,,,,,,,,,,,1843.7212671460584,None,,,1846.7374049848877,None,1.5407407407407407,0.9830268542282283,1846.7374049848877,None,,,,,,,1844.7211156911217,None,1844.9045593119226,1844.9212029939517,84,001,2023_Apr_25_1535,SpeechDraft1Carolyn_lessNoise_PlusLocalization,2021.2.3,60.01647837274293,
,,,,,,,,farLeft,-19.1,5,ch1Sound_localizationTask.wav,-19.1,"(667, 878)","(-293,-202)",-285,-338,,,,,,,,,,,,,2,0,14,0,,,,,,,,,,,,,,,,,,,,,,,,,,,,,,,,,,,,,,,,1847.7225766470656,None,,,1850.7543335668743,None,1.3497354497354497,1.1335583622567356,1850.7543335668743,None,,,,,,,1848.737799338065,None,1848.921159814112,1848.9378853868693,84,001,2023_Apr_25_1535,SpeechDraft1Carolyn_lessNoise_PlusLocalization,2021.2.3,60.01647837274293,
,,,,,,,,midLeft,-13.0,2,ch1Sound_localizationTask.wav,-13.0,"(762, 878)","(-198,-202)",-190,-338,,,,,,,,,,,,,2,1,15,1,,,,,,,,,,,,,,,,,,,,,,,,,,,,,,,,,,,,,,,,1851.9044580161572,None,,,1854.9209408522584,None,1.4063492063492062,1.0655644671060145,1854.9209408522584,None,,,,,,,1852.904545594938,None,1853.0878347791731,1853.1045002839528,84,001,2023_Apr_25_1535,SpeechDraft1Carolyn_lessNoise_PlusLocalization,2021.2.3,60.01647837274293,
,,,,,,,,nearRight,6.5,0,ch1Sound_localizationTask.wav,6.5,"(1047, 878)","(87, -202)",95,-338,,,,,,,,,,,,,2,2,16,4,,,,,,,,,,,,,,,,,,,,,,,,,,,,,,,,,,,,,,,,1855.9888781239279,None,,,1859.0208576698788,None,1.5624338624338625,1.1163143259473145,1859.0208576698788,None,,,,,,,1857.0044701360166,None,1857.1879267538898,1857.2044711569324,84,001,2023_Apr_25_1535,SpeechDraft1Carolyn_lessNoise_PlusLocalization,2021.2.3,60.01647837274293,
,,,,,,,,midLeft,-13.0,2,ch1Sound_localizationTask.wav,-13.0,"(762, 878)","(-198,-202)",-190,-338,,,,,,,,,,,,,2,3,17,1,,,,,,,,,,,,,,,,,,,,,,,,,,,,,,,,,,,,,,,,1860.139044968877,None,,,1863.1706853690557,None,1.398941798941799,0.999348103068769,1863.1706853690557,None,,,,,,,1861.1544469958171,None,1861.3378903558478,1861.3544509280473,84,001,2023_Apr_25_1535,SpeechDraft1Carolyn_lessNoise_PlusLocalization,2021.2.3,60.01647837274293,
,,,,,,,,nearRight,6.5,0,ch1Sound_localizationTask.wav,6.5,"(1047, 878)","(87, -202)",95,-338,,,,,,,,,,,,,2,4,18,4,,,,,,,,,,,,,,,,,,,,,,,,,,,,,,,,,,,,,,,,1864.1725109829567,None,,,1867.20431099087,None,1.5555555555555556,1.3991763340309262,1867.20431099087,None,,,,,,,1865.1878500189632,None,1865.371145603247,1865.3879016879946,84,001,2023_Apr_25_1535,SpeechDraft1Carolyn_lessNoise_PlusLocalization,2021.2.3,60.01647837274293,
,,,,,,,,nearRight,6.5,0,ch1Sound_localizationTask.wav,6.5,"(1047, 878)","(87, -202)",95,-338,,,,,,,,,,,,,2,5,19,4,,,,,,,,,,,,,,,,,,,,,,,,,,,,,,,,,,,,,,,,1868.6057359739207,None,,,1871.637521487195,None,1.535978835978836,1.1659922897815704,1871.637521487195,None,,,,,,,1869.6212729420513,None,1869.8045134949498,1869.8212332711555,84,001,2023_Apr_25_1535,SpeechDraft1Carolyn_lessNoise_PlusLocalization,2021.2.3,60.01647837274293,
,,,,,,,,center,0.0,6,ch1Sound_localizationTask.wav,0.0,"(952, 878)","(-8,-202)",0,-338,,,,,,,,,,,,,2,6,20,3,,,,,,,,,,,,,,,,,,,,,,,,,,,,,,,,,,,,,,,,1872.8051108722575,None,,,1875.820922799874,None,1.4947089947089947,1.2666018418967724,1875.820922799874,None,,,,,,,1873.804521759972,None,1873.9877769630402,1874.00451718783,84,001,2023_Apr_25_1535,SpeechDraft1Carolyn_lessNoise_PlusLocalization,2021.2.3,60.01647837274293,
,,,,,,,,farLeft,-19.1,5,ch1Sound_localizationTask.wav,-19.1,"(667, 878)","(-293,-202)",-285,-338,,,,,,,,,,,,,3,0,21,0,,,,,,,,,,,,,,,,,,,,,,,,,,,,,,,,,,,,,,,,1877.089300379157,None,,,1880.1207976168953,None,1.3375661375661376,0.8817119658924639,1880.1207976168953,None,,,,,,,1878.1045686691068,None,1878.2880352791399,1878.3044984620064,84,001,2023_Apr_25_1535,SpeechDraft1Carolyn_lessNoise_PlusLocalization,2021.2.3,60.01647837274293,
,,,,,,,,farLeft,-19.1,5,ch1Sound_localizationTask.wav,-19.1,"(667, 878)","(-293,-202)",-285,-338,,,,,,,,,,,,,3,1,22,0,,,,,,,,,,,,,,,,,,,,,,,,,,,,,,,,,,,,,,,,1881.0054719219916,None,,,1884.0209114891477,None,1.3571428571428572,0.9831631137058139,1884.0209114891477,None,,,,,,,1882.0044813388959,None,1882.1878179181367,1882.2044871058315,84,001,2023_Apr_25_1535,SpeechDraft1Carolyn_lessNoise_PlusLocalization,2021.2.3,60.01647837274293,
,,,,,,,,farRight,19.1,4,ch1Sound_localizationTask.wav,19.1,"(1237, 878)","(277,-202)",285,-338,,,,,,,,,,,,,3,2,23,6,,,,,,,,,,,,,,,,,,,,,,,,,,,,,,,,,,,,,,,,1885.006059999112,None,,,1888.0374543368816,None,1.6677248677248677,1.2994596539065242,1888.0374543368816,None,,,,,,,1886.0213373559527,None,1886.2045789859258,1886.22118933592,84,001,2023_Apr_25_1535,SpeechDraft1Carolyn_lessNoise_PlusLocalization,2021.2.3,60.01647837274293,
,,,,,,,,farRight,19.1,4,ch1Sound_localizationTask.wav,19.1,"(1237, 878)","(277,-202)",285,-338,,,,,,,,,,,,,3,3,24,6,,,,,,,,,,,,,,,,,,,,,,,,,,,,,,,,,,,,,,,,1889.3392908391543,None,,,1892.3708437648602,None,1.646031746031746,0.93309659184888,1892.3708437648602,None,,,,,,,1890.354588015005,None,1890.5378351458348,1890.5545848160982,84,001,2023_Apr_25_1535,SpeechDraft1Carolyn_lessNoise_PlusLocalization,2021.2.3,60.01647837274293,
,,,,,,,,farRight,19.1,4,ch1Sound_localizationTask.wav,19.1,"(1237, 878)","(277,-202)",285,-338,,,,,,,,,,,,,3,4,25,6,,,,,,,,,,,,,,,,,,,,,,,,,,,,,,,,,,,,,,,,1893.3060884298757,None,,,1896.3375129052438,None,1.6587301587301586,0.8489916622638702,1896.3375129052438,None,,,,,,,1894.3211031379178,None,1894.5045868139714,1894.5211335732602,84,001,2023_Apr_25_1535,SpeechDraft1Carolyn_lessNoise_PlusLocalization,2021.2.3,60.01647837274293,
,,,,,,,,nearRight,6.5,0,ch1Sound_localizationTask.wav,6.5,"(1047, 878)","(87, -202)",95,-338,,,,,,,,,,,,,3,5,26,4,,,,,,,,,,,,,,,,,,,,,,,,,,,,,,,,,,,,,,,,1897.1890848451294,None,,,1900.2209056029096,None,1.5492063492063493,0.9655495272018015,1900.2209056029096,None,,,,,,,1898.2046805401333,None,1898.3878915542737,1898.4045481118374,84,001,2023_Apr_25_1535,SpeechDraft1Carolyn_lessNoise_PlusLocalization,2021.2.3,60.01647837274293,
,,,,,,,,midRight,13.0,3,ch1Sound_localizationTask.wav,13.0,"(1142, 878)","(182, -202)",190,-338,,,,,,,,,,,,,3,6,27,5,,,,,,,,,,,,,,,,,,,,,,,,,,,,,,,,,,,,,,,,1901.1887095449492,None,,,1904.2042409428395,None,1.6058201058201058,0.8662796942517161,1904.2042409428395,None,,,,,,,1902.1878445632756,None,1902.3712147790939,1902.387907125987,84,001,2023_Apr_25_1535,SpeechDraft1Carolyn_lessNoise_PlusLocalization,2021.2.3,60.01647837274293,
,,,,,,,,farRight,19.1,4,ch1Sound_localizationTask.wav,19.1,"(1237, 878)","(277,-202)",285,-338,,,,,,,,,,,,,4,0,28,6,,,,,,,,,,,,,,,,,,,,,,,,,,,,,,,,,,,,,,,,1905.0728839160874,None,,,1908.1043806141242,None,1.6576719576719576,0.8325922307558358,1908.1043806141242,None,,,,,,,1906.0878803338856,None,1906.2711652028374,1906.2878937702626,84,001,2023_Apr_25_1535,SpeechDraft1Carolyn_lessNoise_PlusLocalization,2021.2.3,60.01647837274293,
,,,,,,,,nearRight,6.5,0,ch1Sound_localizationTask.wav,6.5,"(1047, 878)","(87, -202)",95,-338,,,,,,,,,,,,,4,1,29,4,,,,,,,,,,,,,,,,,,,,,,,,,,,,,,,,,,,,,,,,1908.9394749598578,None,,,1911.9707894129679,None,1.5497354497354499,0.7164841443300247,1911.9707894129679,None,,,,,,,1909.9544747201726,None,1910.1379481330514,1910.1545262220316,84,001,2023_Apr_25_1535,SpeechDraft1Carolyn_lessNoise_PlusLocalization,2021.2.3,60.01647837274293,
,,,,,,,,midLeft,-13.0,2,ch1Sound_localizationTask.wav,-13.0,"(762, 878)","(-198,-202)",-190,-338,,,,,,,,,,,,,4,2,30,1,,,,,,,,,,,,,,,,,,,,,,,,,,,,,,,,,,,,,,,,1912.7047351961955,None,,,1915.7209873301908,None,1.398941798941799,0.9326029443182051,1915.7209873301908,None,,,,,,,1913.7045667502098,None,1913.8879243941046,1913.904586110264,84,001,2023_Apr_25_1535,SpeechDraft1Carolyn_lessNoise_PlusLocalization,2021.2.3,60.01647837274293,
,,,,,,,,midRight,13.0,3,ch1Sound_localizationTask.wav,13.0,"(1142, 878)","(182, -202)",190,-338,,,,,,,,,,,,,4,3,31,5,,,,,,,,,,,,,,,,,,,,,,,,,,,,,,,,,,,,,,,,1916.6561781549826,None,,,1919.6875596269965,None,1.5883597883597882,1.198867247439921,1919.6875596269965,None,,,,,,,1917.671134492848,None,1917.8546635280363,1917.8711559488438,84,001,2023_Apr_25_1535,SpeechDraft1Carolyn_lessNoise_PlusLocalization,2021.2.3,60.01647837274293,
,,,,,,,,nearLeft,-6.5,1,ch1Sound_localizationTask.wav,-6.5,"(857, 878)","(-103,-202)",-95,-338,,,,,,,,,,,,,4,4,32,2,,,,,,,,,,,,,,,,,,,,,,,,,,,,,,,,,,,,,,,,1920.8888271320611,None,,,1923.9044119389728,None,1.446031746031746,1.2156312367878854,1923.9044119389728,None,,,,,,,1921.8878255048767,None,1922.071285102982,1922.0878566061147,84,001,2023_Apr_25_1535,SpeechDraft1Carolyn_lessNoise_PlusLocalization,2021.2.3,60.01647837274293,
,,,,,,,,midRight,13.0,3,ch1Sound_localizationTask.wav,13.0,"(1142, 878)","(182, -202)",190,-338,,,,,,,,,,,,,4,5,33,5,,,,,,,,,,,,,,,,,,,,,,,,,,,,,,,,,,,,,,,,1925.137958667241,None,,,1928.154213516973,None,1.5925925925925926,0.7161748623475432,1928.154213516973,None,,,,,,,1926.137953219004,None,1926.3213956570253,1926.3378648692742,84,001,2023_Apr_25_1535,SpeechDraft1Carolyn_lessNoise_PlusLocalization,2021.2.3,60.01647837274293,
,,,,,,,,center,0.0,6,ch1Sound_localizationTask.wav,0.0,"(952, 878)","(-8,-202)",0,-338,,,,,,,,,,,,,4,6,34,3,,,,,,,,,,,,,,,,,,,,,,,,,,,,,,,,,,,,,,,,1928.8726901882328,None,,,1931.9044606410898,None,1.5074074074074075,0.9983035479672253,1931.9044606410898,None,,,,,,,1929.8879220848903,None,1930.0713159772567,1930.0879330830649,84,001,2023_Apr_25_1535,SpeechDraft1Carolyn_lessNoise_PlusLocalization,2021.2.3,60.01647837274293,
,,,,,,,,farLeft,-19.1,5,ch1Sound_localizationTask.wav,-19.1,"(667, 878)","(-293,-202)",-285,-338,,,,,,,,,,,,,5,0,35,0,,,,,,,,,,,,,,,,,,,,,,,,,,,,,,,,,,,,,,,,1932.9057815121487,None,,,1935.937729340978,None,1.3375661375661376,0.8990360270254314,1935.937729340978,None,,,,,,,1933.9211635310203,None,1934.1046326309443,1934.1212201169692,84,001,2023_Apr_25_1535,SpeechDraft1Carolyn_lessNoise_PlusLocalization,2021.2.3,60.01647837274293,
,,,,,,,,center,0.0,6,ch1Sound_localizationTask.wav,0.0,"(952, 878)","(-8,-202)",0,-338,,,,,,,,,,,,,5,1,36,3,,,,,,,,,,,,,,,,,,,,,,,,,,,,,,,,,,,,,,,,1936.8390117548406,None,,,1939.870933320839,None,1.502116402116402,1.4327396010048687,1939.870933320839,None,,,,,,,1937.8546141479164,None,1938.037937570829,1938.0546286259778,84,001,2023_Apr_25_1535,SpeechDraft1Carolyn_lessNoise_PlusLocalization,2021.2.3,60.01647837274293,
,,,,,,,,nearLeft,-6.5,1,ch1Sound_localizationTask.wav,-6.5,"(857, 878)","(-103,-202)",-95,-338,,,,,,,,,,,,,5,2,37,2,,,,,,,,,,,,,,,,,,,,,,,,,,,,,,,,,,,,,,,,1941.3061184450053,None,,,1944.3376516778953,None,1.4497354497354498,0.698040827177465,1944.3376516778953,None,,,,,,,1942.3214071900584,None,1942.5047494848259,1942.5212930859998,84,001,2023_Apr_25_1535,SpeechDraft1Carolyn_lessNoise_PlusLocalization,2021.2.3,60.01647837274293,
,,,,,,,,center,0.0,6,ch1Sound_localizationTask.wav,0.0,"(952, 878)","(-8,-202)",0,-338,,,,,,,,,,,,,5,3,38,3,,,,,,,,,,,,,,,,,,,,,,,,,,,,,,,,,,,,,,,,1945.0386779098772,None,,,1948.0543725579046,None,1.502116402116402,1.0826294291764498,1948.0543725579046,None,,,,,,,1946.037988691125,None,1946.2213996392675,1946.2379754451104,84,001,2023_Apr_25_1535,SpeechDraft1Carolyn_lessNoise_PlusLocalization,2021.2.3,60.01647837274293,
,,,,,,,,farRight,19.1,4,ch1Sound_localizationTask.wav,19.1,"(1237, 878)","(277,-202)",285,-338,,,,,,,,,,,,,5,4,39,6,,,,,,,,,,,,,,,,,,,,,,,,,,,,,,,,,,,,,,,,1949.1391471489333,None,,,1952.1710538780317,None,1.6788359788359788,1.049774976912886,1952.1710538780317,None,,,,,,,1950.1546219391748,None,1950.3380045262165,1950.3545103222132,84,001,2023_Apr_25_1535,SpeechDraft1Carolyn_lessNoise_PlusLocalization,2021.2.3,60.01647837274293,
,,,,,,,,nearLeft,-6.5,1,ch1Sound_localizationTask.wav,-6.5,"(857, 878)","(-103,-202)",-95,-338,,,,,,,,,,,,,5,5,40,2,,,,,,,,,,,,,,,,,,,,,,,,,,,,,,,,,,,,,,,,1953.22306760028,None,,,1956.2541721649468,None,1.4555555555555555,0.899790280032903,1956.2541721649468,None,,,,,,,1954.2378173330799,None,1954.4213798679411,1954.437881988939,84,001,2023_Apr_25_1535,SpeechDraft1Carolyn_lessNoise_PlusLocalization,2021.2.3,60.01647837274293,
,,,,,,,,nearLeft,-6.5,1,ch1Sound_localizationTask.wav,-6.5,"(857, 878)","(-103,-202)",-95,-338,,,,,,,,,,,,,5,6,41,2,,,,,,,,,,,,,,,,,,,,,,,,,,,,,,,,,,,,,,,,1957.1557801649906,None,,,1960.187697486952,None,1.456084656084656,0.766688022762537,1960.187697486952,None,,,,,,,1958.171239713207,None,1958.3546819058247,1958.37126898719,84,001,2023_Apr_25_1535,SpeechDraft1Carolyn_lessNoise_PlusLocalization,2021.2.3,60.01647837274293,
,,,,,,,,center,0.0,6,ch1Sound_localizationTask.wav,0.0,"(952, 878)","(-8,-202)",0,-338,,,,,,,,,,,,,6,0,42,3,,,,,,,,,,,,,,,,,,,,,,,,,,,,,,,,,,,,,,,,1960.9562034718692,None,,,1963.9877821439877,None,1.5010582010582012,1.032311917282641,1963.9877821439877,None,,,,,,,1961.9711647368968,None,1962.1546082370915,1962.1711325240321,84,001,2023_Apr_25_1535,SpeechDraft1Carolyn_lessNoise_PlusLocalization,2021.2.3,60.01647837274293,
,,,,,,,,midRight,13.0,3,ch1Sound_localizationTask.wav,13.0,"(1142, 878)","(182, -202)",190,-338,,,,,,,,,,,,,6,1,43,5,,,,,,,,,,,,,,,,,,,,,,,,,,,,,,,,,,,,,,,,1965.0222962442786,None,,,1968.0376581228338,None,1.625925925925926,1.099069912917912,1968.0376581228338,None,,,,,,,1966.0213251090609,None,1966.2046436681412,1966.2212774069048,84,001,2023_Apr_25_1535,SpeechDraft1Carolyn_lessNoise_PlusLocalization,2021.2.3,60.01647837274293,
,,,,,,,,farLeft,-19.1,5,ch1Sound_localizationTask.wav,-19.1,"(667, 878)","(-293,-202)",-285,-338,,,,,,,,,,,,,6,2,44,0,,,,,,,,,,,,,,,,,,,,,,,,,,,,,,,,,,,,,,,,1969.1389279621653,None,,,1972.1544174919836,None,1.3317460317460317,1.2824747450649738,1972.1544174919836,None,,,,,,,1970.1378840259276,None,1970.3212491469458,1970.338187104091,84,001,2023_Apr_25_1535,SpeechDraft1Carolyn_lessNoise_PlusLocalization,2021.2.3,60.01647837274293,
,,,,,,,,midRight,13.0,3,ch1Sound_localizationTask.wav,13.0,"(1142, 878)","(182, -202)",190,-338,,,,,,,,,,,,,6,3,45,5,,,,,,,,,,,,,,,,,,,,,,,,,,,,,,,,,,,,,,,,1973.4390995530412,None,,,1976.4709688951261,None,1.6291005291005292,1.349113509990275,1976.4709688951261,None,,,,,,,1974.4545536418445,None,1974.6380667481571,1974.6545992679894,84,001,2023_Apr_25_1535,SpeechDraft1Carolyn_lessNoise_PlusLocalization,2021.2.3,60.01647837274293,
,,,,,,,,midLeft,-13.0,2,ch1Sound_localizationTask.wav,-13.0,"(762, 878)","(-198,-202)",-190,-338,,,,,,,,,,,,,6,4,46,1,,,,,,,,,,,,,,,,,,,,,,,,,,,,,,,,,,,,,,,,1977.822371993214,None,,,1980.8541719689965,None,1.3878306878306879,0.9655758589506149,1980.8541719689965,None,,,,,,,1978.8379178810865,None,1979.0214135418646,1979.0379138370045,84,001,2023_Apr_25_1535,SpeechDraft1Carolyn_lessNoise_PlusLocalization,2021.2.3,60.01647837274293,
,,,,,,,,midRight,13.0,3,ch1Sound_localizationTask.wav,13.0,"(1142, 878)","(182, -202)",190,-338,,,,,,,,,,,,,6,5,47,5,,,,,,,,,,,,,,,,,,,,,,,,,,,,,,,,,,,,,,,,1981.82184925396,None,,,1984.8374483562075,None,1.5936507936507938,1.1490616649389267,1984.8374483562075,None,,,,,,,1982.8214187859558,None,1983.0048605608754,1983.0213022669777,84,001,2023_Apr_25_1535,SpeechDraft1Carolyn_lessNoise_PlusLocalization,2021.2.3,60.01647837274293,
,,,,,,,,midLeft,-13.0,2,ch1Sound_localizationTask.wav,-13.0,"(762, 878)","(-198,-202)",-190,-338,,,,,,,,,,,,,6,6,48,1,,,,,,,,,,,,,,,,,,,,,,,,,,,,,,,,,,,,,,,,1985.9893467361107,None,,,1989.0209414018318,None,1.4095238095238094,0.9822910618968308,1989.0209414018318,None,,,,,,,1987.0045870188624,None,1987.188089333009,1987.2045827200636,84,001,2023_Apr_25_1535,SpeechDraft1Carolyn_lessNoise_PlusLocalization,2021.2.3,60.01647837274293,
,,,,,,,,nearLeft,-6.5,1,ch1Sound_localizationTask.wav,-6.5,"(857, 878)","(-103,-202)",-95,-338,,,,,,,,,,,,,7,0,49,2,,,,,,,,,,,,,,,,,,,,,,,,,,,,,,,,,,,,,,,,1990.0051627769135,None,,,1993.0212604869157,None,1.4523809523809523,0.8326942566782236,1993.0212604869157,None,,,,,,,1991.0047107008286,None,1991.1880486579612,1991.2046962501481,84,001,2023_Apr_25_1535,SpeechDraft1Carolyn_lessNoise_PlusLocalization,2021.2.3,60.01647837274293,
,,,,,,,,farRight,19.1,4,ch1Sound_localizationTask.wav,19.1,"(1237, 878)","(277,-202)",285,-338,,,,,,,,,,,,,7,1,50,6,,,,,,,,,,,,,,,,,,,,,,,,,,,,,,,,,,,,,,,,1993.8564468231052,None,,,1996.8877119468525,None,1.6634920634920634,0.899035622831434,1996.8877119468525,None,,,,,,,1994.8712847870775,None,1995.054828679189,1995.0712799509056,84,001,2023_Apr_25_1535,SpeechDraft1Carolyn_lessNoise_PlusLocalization,2021.2.3,60.01647837274293,
,,,,,,,,midLeft,-13.0,2,ch1Sound_localizationTask.wav,-13.0,"(762, 878)","(-198,-202)",-190,-338,,,,,,,,,,,,,7,2,51,1,,,,,,,,,,,,,,,,,,,,,,,,,,,,,,,,,,,,,,,,1997.7888776892796,None,,,2000.8044642051682,None,1.3952380952380952,1.1989891291595995,2000.8044642051682,None,,,,,,,1998.7881594952196,None,1998.9714819388464,1998.9881597878411,84,001,2023_Apr_25_1535,SpeechDraft1Carolyn_lessNoise_PlusLocalization,2021.2.3,60.01647837274293,
,,,,,,,,center,0.0,6,ch1Sound_localizationTask.wav,0.0,"(952, 878)","(-8,-202)",0,-338,,,,,,,,,,,,,7,3,52,3,,,,,,,,,,,,,,,,,,,,,,,,,,,,,,,,,,,,,,,,2002.005518344231,None,,,2005.0209627100267,None,1.5005291005291004,1.082313606981188,2005.0209627100267,None,,,,,,,2003.004762143828,None,2003.1881791232154,2003.204695228953,84,001,2023_Apr_25_1535,SpeechDraft1Carolyn_lessNoise_PlusLocalization,2021.2.3,60.01647837274293,
,,,,,,,,midRight,13.0,3,ch1Sound_localizationTask.wav,13.0,"(1142, 878)","(182, -202)",190,-338,,,,,,,,,,,,,7,4,53,5,,,,,,,,,,,,,,,,,,,,,,,,,,,,,,,,,,,,,,,,2006.10611504782,None,,,2009.1377105070278,None,1.6084656084656084,0.9332073531113565,2009.1377105070278,None,,,,,,,2007.1213207100518,None,2007.3046676111408,2007.3213309338316,84,001,2023_Apr_25_1535,SpeechDraft1Carolyn_lessNoise_PlusLocalization,2021.2.3,60.01647837274293,
,,,,,,,,farRight,19.1,4,ch1Sound_localizationTask.wav,19.1,"(1237, 878)","(277,-202)",285,-338,,,,,,,,,,,,,7,5,54,6,,,,,,,,,,,,,,,,,,,,,,,,,,,,,,,,,,,,,,,,2010.0727000492625,None,,,2013.1045664590783,None,1.6513227513227513,0.9497145051136613,2013.1045664590783,None,,,,,,,2011.0879809199832,None,2011.271460973192,2011.2879887958989,84,001,2023_Apr_25_1535,SpeechDraft1Carolyn_lessNoise_PlusLocalization,2021.2.3,60.01647837274293,
,,,,,,,,nearRight,6.5,0,ch1Sound_localizationTask.wav,6.5,"(1047, 878)","(87, -202)",95,-338,,,,,,,,,,,,,7,6,55,4,,,,,,,,,,,,,,,,,,,,,,,,,,,,,,,,,,,,,,,,2014.0712499530055,None,,,2017.0877397609875,None,1.5544973544973546,1.2329980949871242,2017.0877397609875,None,,,,,,,2015.071392304264,None,2015.254814887885,2015.2713501211256,84,001,2023_Apr_25_1535,SpeechDraft1Carolyn_lessNoise_PlusLocalization,2021.2.3,60.01647837274293,
