Audio_Only_Files,Video_Files,Original_Word_List,noiseLevelCode,conditionCodes,noiseLevelFile1,noiseLevelFile2,InstrTextVar,targetSpeakerName,targetSpeakerEccen,targetSpkrChannel,targetSpkrSound,targetVisualDegrees,visStimLoc,visStimLoc2,visStimW,visStimH,practiceTrials.thisRepN,practiceTrials.thisTrialN,practiceTrials.thisN,practiceTrials.thisIndex,trials.thisRepN,trials.thisTrialN,trials.thisN,trials.thisIndex,audLocalLoop.thisRepN,audLocalLoop.thisTrialN,audLocalLoop.thisN,audLocalLoop.thisIndex,visualLocalLoop.thisRepN,visualLocalLoop.thisTrialN,visualLocalLoop.thisN,visualLocalLoop.thisIndex,letsGoAlready.keys,letsGoAlready.rt,letsGoAlready.started,letsGoAlready.stopped,text_2.started,text_2.stopped,text_3.started,text_3.stopped,key_resp_2.keys,key_resp_2.rt,key_resp_2.started,key_resp_2.stopped,text_5.started,text_5.stopped,fixCross.started,fixCross.stopped,fixCross2.started,fixCross2.stopped,answerPrompt.started,answerPrompt.stopped,getAnswer.text,getAnswer.started,getAnswer.stopped,goToNext.keys,goToNext.rt,goToNext.started,goToNext.stopped,stretchBreakTxrt.started,stretchBreakTxrt.stopped,key_resp_3.keys,key_resp_3.rt,key_resp_3.started,key_resp_3.stopped,letsGoLocal.keys,letsGoLocal.rt,letsGoLocal.started,letsGoLocal.stopped,text_4.started,text_4.stopped,prepFixTxt.started,prepFixTxt.stopped,prepFixTxt_2.started,prepFixTxt_2.stopped,respPromptLocal.started,respPromptLocal.stopped,slider.response,slider.rt,slider.started,slider.stopped,letsGoLocal_2.keys,letsGoLocal_2.rt,letsGoLocal_2.started,letsGoLocal_2.stopped,text_7.started,text_7.stopped,prepFixTxt_3.started,prepFixTxt_3.stopped,grating.started,grating.stopped,exitTxt.started,exitTxt.stopped,key_resp.keys,key_resp.rt,key_resp.started,key_resp.stopped,participant,session,date,expName,psychopyVersion,frameRate,
,,,,,,,,,,,,,,,,,,,,,,,,,,,,,,,,,space,11.29966799216345,11.809277202002704,None,,,,,,,,,,,,,,,,,,,,,,,,,,,,,,,,,,,,,,,,,,,,,,,,,,,,,,,,,,,,,,88,001,2023_Apr_27_1719,SpeechDraft1Carolyn_lessNoise_PlusLocalization,2021.2.3,60.00740084803859,
,,,,,,,,,,,,,,,,,,,,,,,,,,,,,,,,,,,,,11.809277202002704,None,23.258657208178192,None,space,9.955563923344016,23.42542568501085,None,,,,,,,,,,,,,,,,,,,,,,,,,,,,,,,,,,,,,,,,,,,,,,,,,,,,,,88,001,2023_Apr_27_1719,SpeechDraft1Carolyn_lessNoise_PlusLocalization,2021.2.3,60.00740084803859,
ash.wav,ash.mpg,ash,1,A,Pink_Noise_1_1.wav,Pink_Noise_1_2.wav,"This is an example of an

AUDIO trial",,,,,,,,,,0,0,0,0,,,,,,,,,,,,,,,,,,,,,,,,,33.44198885001242,None,34.42544513102621,None,37.62520674522966,None,39.00869916798547,None,ask,39.00869916798547,None,return,25.20879093464464,39.09213698096573,None,,,,,,,,,,,,,,,,,,,,,,,,,,,,,,,,,,,,,,,88,001,2023_Apr_27_1719,SpeechDraft1Carolyn_lessNoise_PlusLocalization,2021.2.3,60.00740084803859,
ash.wav,ash.mpg,ash,1,AV,Pink_Noise_1_1.wav,Pink_Noise_1_2.wav,"This is an example of an

AUDIO + VIDEO  trial",,,,,,,,,,0,1,1,1,,,,,,,,,,,,,,,,,,,,,,,,,64.34191391896456,None,65.34223891794682,None,66.82532766321674,None,68.20883960090578,None,ash,68.20883960090578,None,return,3.7048876914195716,68.29214934119955,None,,,,,,,,,,,,,,,,,,,,,,,,,,,,,,,,,,,,,,,88,001,2023_Apr_27_1719,SpeechDraft1Carolyn_lessNoise_PlusLocalization,2021.2.3,60.00740084803859,
,,,,,,,,,,,,,,,,,,,,,,,,,,,,,,,,,,,,,,,,,,,,,,,,,,,,,,,,,,,,72.04187107784674,None,space,15.66742050414905,72.22555389907211,None,,,,,,,,,,,,,,,,,,,,,,,,,,,,,,,,,88,001,2023_Apr_27_1719,SpeechDraft1Carolyn_lessNoise_PlusLocalization,2021.2.3,60.00740084803859,
beef.wav,beef.mpg,beef,5,A,Pink_Noise_5_1.wav,Pink_Noise_5_2.wav,,,,,,,,,,,,,,,0,0,0,32,,,,,,,,,,,,,,,,,,,,,,,87.9585021152161,None,89.45861184084788,None,90.82555531710386,None,"big
",90.82555531710386,None,return,8.40004934836179,90.90890323324129,None,,,,,,,,,,,,,,,,,,,,,,,,,,,,,,,,,,,,,,,88,001,2023_Apr_27_1719,SpeechDraft1Carolyn_lessNoise_PlusLocalization,2021.2.3,60.00740084803859,
blunt.wav,blunt.mpg,blunt,4,AV,Pink_Noise_4_1.wav,Pink_Noise_4_2.wav,,,,,,,,,,,,,,,0,1,1,93,,,,,,,,,,,,,,,,,,,,,,,99.34223579289392,None,100.84198084520176,None,102.22562748519704,None,"blunt
",102.22562748519704,None,return,7.5360461683012545,102.30891269212589,None,,,,,,,,,,,,,,,,,,,,,,,,,,,,,,,,,,,,,,,88,001,2023_Apr_27_1719,SpeechDraft1Carolyn_lessNoise_PlusLocalization,2021.2.3,60.00740084803859,
blind.wav,blind.mpg,blind,5,A,Pink_Noise_5_1.wav,Pink_Noise_5_2.wav,,,,,,,,,,,,,,,0,2,2,18,,,,,,,,,,,,,,,,,,,,,,,109.87556484900415,None,111.37535869004205,None,112.75895809708163,None,"dry
",112.75895809708163,None,return,3.850695068947971,112.84228730481118,None,,,,,,,,,,,,,,,,,,,,,,,,,,,,,,,,,,,,,,,88,001,2023_Apr_27_1719,SpeechDraft1Carolyn_lessNoise_PlusLocalization,2021.2.3,60.00740084803859,
style.wav,style.mpg,style,2,AV,Pink_Noise_2_1.wav,Pink_Noise_2_2.wav,,,,,,,,,,,,,,,0,3,3,100,,,,,,,,,,,,,,,,,,,,,,,116.72565556224436,None,118.22531272517517,None,119.60914736893028,None,style,119.60914736893028,None,return,6.00871515693143,119.69222237123176,None,,,,,,,,,,,,,,,,,,,,,,,,,,,,,,,,,,,,,,,88,001,2023_Apr_27_1719,SpeechDraft1Carolyn_lessNoise_PlusLocalization,2021.2.3,60.00740084803859,
bring.wav,bring.mpg,bring,4,AV,Pink_Noise_4_1.wav,Pink_Noise_4_2.wav,,,,,,,,,,,,,,,0,4,4,101,,,,,,,,,,,,,,,,,,,,,,,125.72561860922724,None,127.22546979691833,None,128.6087350710295,None,"rip
",128.6087350710295,None,return,5.9527208330109715,128.69225747184828,None,,,,,,,,,,,,,,,,,,,,,,,,,,,,,,,,,,,,,,,88,001,2023_Apr_27_1719,SpeechDraft1Carolyn_lessNoise_PlusLocalization,2021.2.3,60.00740084803859,
flank.wav,flank.mpg,flank,1,AV,Pink_Noise_1_1.wav,Pink_Noise_1_2.wav,,,,,,,,,,,,,,,0,5,5,110,,,,,,,,,,,,,,,,,,,,,,,134.675737882033,None,136.1751880380325,None,137.5589561020024,None,flake,137.5589561020024,None,return,9.49877149797976,137.6422922858037,None,,,,,,,,,,,,,,,,,,,,,,,,,,,,,,,,,,,,,,,88,001,2023_Apr_27_1719,SpeechDraft1Carolyn_lessNoise_PlusLocalization,2021.2.3,60.00740084803859,
grown.wav,grown.mpg,grown,3,AV,Pink_Noise_3_1.wav,Pink_Noise_3_2.wav,,,,,,,,,,,,,,,0,6,6,111,,,,,,,,,,,,,,,,,,,,,,,147.1590252830647,None,148.65884098084643,None,150.0422706818208,None,grpw,150.0422706818208,None,return,5.215402130037546,150.12563112191856,None,,,,,,,,,,,,,,,,,,,,,,,,,,,,,,,,,,,,,,,88,001,2023_Apr_27_1719,SpeechDraft1Carolyn_lessNoise_PlusLocalization,2021.2.3,60.00740084803859,
flight.wav,flight.mpg,flight,1,A,Pink_Noise_1_1.wav,Pink_Noise_1_2.wav,,,,,,,,,,,,,,,0,7,7,54,,,,,,,,,,,,,,,,,,,,,,,155.35898697003722,None,156.84274177905172,None,158.2256795312278,None,flight,158.2256795312278,None,return,13.656091066077352,158.3089306699112,None,,,,,,,,,,,,,,,,,,,,,,,,,,,,,,,,,,,,,,,88,001,2023_Apr_27_1719,SpeechDraft1Carolyn_lessNoise_PlusLocalization,2021.2.3,60.00740084803859,
chart.wav,chart.mpg,chart,5,A,Pink_Noise_5_1.wav,Pink_Noise_5_2.wav,,,,,,,,,,,,,,,0,8,8,23,,,,,,,,,,,,,,,,,,,,,,,171.99229732295498,None,173.4920836579986,None,174.87568416818976,None,"trust
",174.87568416818976,None,return,6.701879602856934,174.95907859597355,None,,,,,,,,,,,,,,,,,,,,,,,,,,,,,,,,,,,,,,,88,001,2023_Apr_27_1719,SpeechDraft1Carolyn_lessNoise_PlusLocalization,2021.2.3,60.00740084803859,
ask.wav,ask.mpg,ask,4,AV,Pink_Noise_4_1.wav,Pink_Noise_4_2.wav,,,,,,,,,,,,,,,0,9,9,80,,,,,,,,,,,,,,,,,,,,,,,181.69230613298714,None,183.19218365382403,None,184.55899761710316,None,"ask
",184.55899761710316,None,return,3.8026680960319936,184.64229115797207,None,,,,,,,,,,,,,,,,,,,,,,,,,,,,,,,,,,,,,,,88,001,2023_Apr_27_1719,SpeechDraft1Carolyn_lessNoise_PlusLocalization,2021.2.3,60.00740084803859,
dot.wav,dot.mpg,dot,5,A,Pink_Noise_5_1.wav,Pink_Noise_5_2.wav,,,,,,,,,,,,,,,0,10,10,6,,,,,,,,,,,,,,,,,,,,,,,188.47566395998,None,189.9752057120204,None,191.35895856190473,None,dot,191.35895856190473,None,return,3.858617752790451,191.44234502408653,None,,,,,,,,,,,,,,,,,,,,,,,,,,,,,,,,,,,,,,,88,001,2023_Apr_27_1719,SpeechDraft1Carolyn_lessNoise_PlusLocalization,2021.2.3,60.00740084803859,
bald.wav,bald.mpg,bald,6,AV,Pink_Noise_6_1.wav,Pink_Noise_6_2.wav,,,,,,,,,,,,,,,0,11,11,109,,,,,,,,,,,,,,,,,,,,,,,195.3257421469316,None,196.82546856999397,None,198.208893049974,None,ball,198.208893049974,None,return,7.088646233081818,198.29241746291518,None,,,,,,,,,,,,,,,,,,,,,,,,,,,,,,,,,,,,,,,88,001,2023_Apr_27_1719,SpeechDraft1Carolyn_lessNoise_PlusLocalization,2021.2.3,60.00740084803859,
feast.wav,feast.mpg,feast,5,AV,Pink_Noise_5_1.wav,Pink_Noise_5_2.wav,,,,,,,,,,,,,,,0,12,12,71,,,,,,,,,,,,,,,,,,,,,,,205.40913000889122,None,206.90879689203575,None,208.29242442315444,None,"fist
",208.29242442315444,None,return,3.669249908067286,208.37569738086313,None,,,,,,,,,,,,,,,,,,,,,,,,,,,,,,,,,,,,,,,88,001,2023_Apr_27_1719,SpeechDraft1Carolyn_lessNoise_PlusLocalization,2021.2.3,60.00740084803859,
gloom.wav,gloom.mpg,gloom,4,A,Pink_Noise_4_1.wav,Pink_Noise_4_2.wav,,,,,,,,,,,,,,,0,13,13,1,,,,,,,,,,,,,,,,,,,,,,,212.07580887107179,None,213.57528294017538,None,214.95901943417266,None,"g;ow
",214.95901943417266,None,return,6.218544567003846,215.0424330648966,None,,,,,,,,,,,,,,,,,,,,,,,,,,,,,,,,,,,,,,,88,001,2023_Apr_27_1719,SpeechDraft1Carolyn_lessNoise_PlusLocalization,2021.2.3,60.00740084803859,
foot.wav,foot.mpg,foot,3,A,Pink_Noise_3_1.wav,Pink_Noise_3_2.wav,,,,,,,,,,,,,,,0,14,14,35,,,,,,,,,,,,,,,,,,,,,,,221.29240416409448,None,222.79198657395318,None,224.17581284185871,None,foot,224.17581284185871,None,return,3.2740281051956117,224.25901561183855,None,,,,,,,,,,,,,,,,,,,,,,,,,,,,,,,,,,,,,,,88,001,2023_Apr_27_1719,SpeechDraft1Carolyn_lessNoise_PlusLocalization,2021.2.3,60.00740084803859,
grill.wav,grill.mpg,grill,1,AV,Pink_Noise_1_1.wav,Pink_Noise_1_2.wav,,,,,,,,,,,,,,,0,15,15,86,,,,,,,,,,,,,,,,,,,,,,,227.5591444480233,None,229.05879273079336,None,230.44234093418345,None,grill,230.44234093418345,None,return,12.52723295101896,230.52572017302737,None,,,,,,,,,,,,,,,,,,,,,,,,,,,,,,,,,,,,,,,88,001,2023_Apr_27_1719,SpeechDraft1Carolyn_lessNoise_PlusLocalization,2021.2.3,60.00740084803859,
claw.wav,claw.mpg,claw,3,A,Pink_Noise_3_1.wav,Pink_Noise_3_2.wav,,,,,,,,,,,,,,,0,16,16,27,,,,,,,,,,,,,,,,,,,,,,,243.07573642814532,None,244.56053997110575,None,245.94248175714165,None,"fall
",245.94248175714165,None,return,5.65109867695719,246.02585169486701,None,,,,,,,,,,,,,,,,,,,,,,,,,,,,,,,,,,,,,,,88,001,2023_Apr_27_1719,SpeechDraft1Carolyn_lessNoise_PlusLocalization,2021.2.3,60.00740084803859,
dope.wav,dope.mpg,dope,5,A,Pink_Noise_5_1.wav,Pink_Noise_5_2.wav,,,,,,,,,,,,,,,0,17,17,39,,,,,,,,,,,,,,,,,,,,,,,251.70917271682993,None,253.2087285099551,None,254.59249860281125,None,but,254.59249860281125,None,return,6.8971365434117615,254.67587671382353,None,,,,,,,,,,,,,,,,,,,,,,,,,,,,,,,,,,,,,,,88,001,2023_Apr_27_1719,SpeechDraft1Carolyn_lessNoise_PlusLocalization,2021.2.3,60.00740084803859,
bin.wav,bin.mpg,bin,6,AV,Pink_Noise_6_1.wav,Pink_Noise_6_2.wav,,,,,,,,,,,,,,,0,18,18,94,,,,,,,,,,,,,,,,,,,,,,,261.5924193300307,None,263.09230142319575,None,264.4756396249868,None,big,264.4756396249868,None,return,8.405921223107725,264.55913749104366,None,,,,,,,,,,,,,,,,,,,,,,,,,,,,,,,,,,,,,,,88,001,2023_Apr_27_1719,SpeechDraft1Carolyn_lessNoise_PlusLocalization,2021.2.3,60.00740084803859,
goal.wav,goal.mpg,goal,1,A,Pink_Noise_1_1.wav,Pink_Noise_1_2.wav,,,,,,,,,,,,,,,0,19,19,29,,,,,,,,,,,,,,,,,,,,,,,272.99237794196233,None,274.4921772670932,None,275.87575432285666,None,goal,275.87575432285666,None,return,4.309822399169207,275.9591526458971,None,,,,,,,,,,,,,,,,,,,,,,,,,,,,,,,,,,,,,,,88,001,2023_Apr_27_1719,SpeechDraft1Carolyn_lessNoise_PlusLocalization,2021.2.3,60.00740084803859,
bust.wav,bust.mpg,bust,3,AV,Pink_Noise_3_1.wav,Pink_Noise_3_2.wav,,,,,,,,,,,,,,,0,20,20,63,,,,,,,,,,,,,,,,,,,,,,,280.29258936224505,None,281.7921986770816,None,283.1757772602141,None,bust,283.1757772602141,None,return,3.889899406116456,283.25920240720734,None,,,,,,,,,,,,,,,,,,,,,,,,,,,,,,,,,,,,,,,88,001,2023_Apr_27_1719,SpeechDraft1Carolyn_lessNoise_PlusLocalization,2021.2.3,60.00740084803859,
fox.wav,fox.mpg,fox,2,AV,Pink_Noise_2_1.wav,Pink_Noise_2_2.wav,,,,,,,,,,,,,,,0,21,21,72,,,,,,,,,,,,,,,,,,,,,,,287.17584762489423,None,288.67548912903294,None,290.05907665519044,None,faux,290.05907665519044,None,return,6.670423125848174,290.1425136718899,None,,,,,,,,,,,,,,,,,,,,,,,,,,,,,,,,,,,,,,,88,001,2023_Apr_27_1719,SpeechDraft1Carolyn_lessNoise_PlusLocalization,2021.2.3,60.00740084803859,
cruel.wav,cruel.mpg,cruel,5,AV,Pink_Noise_5_1.wav,Pink_Noise_5_2.wav,,,,,,,,,,,,,,,0,22,22,68,,,,,,,,,,,,,,,,,,,,,,,296.8425842169672,None,298.34232821920887,None,299.72579783713445,None,cool,299.72579783713445,None,return,2.9237711438909173,299.809277521912,None,,,,,,,,,,,,,,,,,,,,,,,,,,,,,,,,,,,,,,,88,001,2023_Apr_27_1719,SpeechDraft1Carolyn_lessNoise_PlusLocalization,2021.2.3,60.00740084803859,
bunch.wav,bunch.mpg,bunch,4,A,Pink_Noise_4_1.wav,Pink_Noise_4_2.wav,,,,,,,,,,,,,,,0,23,23,15,,,,,,,,,,,,,,,,,,,,,,,302.7591908471659,None,304.2589118508622,None,305.6425448032096,None,touch,305.6425448032096,None,return,16.21525720739737,305.7257895208895,None,,,,,,,,,,,,,,,,,,,,,,,,,,,,,,,,,,,,,,,88,001,2023_Apr_27_1719,SpeechDraft1Carolyn_lessNoise_PlusLocalization,2021.2.3,60.00740084803859,
chump.wav,chump.mpg,chump,3,A,Pink_Noise_3_1.wav,Pink_Noise_3_2.wav,,,,,,,,,,,,,,,0,24,24,19,,,,,,,,,,,,,,,,,,,,,,,321.9591393871233,None,323.4588756398298,None,324.84253402007744,None,chuck,324.84253402007744,None,return,11.663138553034514,324.9259124388918,None,,,,,,,,,,,,,,,,,,,,,,,,,,,,,,,,,,,,,,,88,001,2023_Apr_27_1719,SpeechDraft1Carolyn_lessNoise_PlusLocalization,2021.2.3,60.00740084803859,
slick.wav,slick.mpg,slick,2,A,Pink_Noise_2_1.wav,Pink_Noise_2_2.wav,,,,,,,,,,,,,,,0,25,25,7,,,,,,,,,,,,,,,,,,,,,,,336.60929586412385,None,338.108980061952,None,339.4925664430484,None,slaaaaay,339.4925664430484,None,return,11.173158947378397,339.57594636501744,None,,,,,,,,,,,,,,,,,,,,,,,,,,,,,,,,,,,,,,,88,001,2023_Apr_27_1719,SpeechDraft1Carolyn_lessNoise_PlusLocalization,2021.2.3,60.00740084803859,
beach.wav,beach.mpg,beach,5,AV,Pink_Noise_5_1.wav,Pink_Noise_5_2.wav,,,,,,,,,,,,,,,0,26,26,112,,,,,,,,,,,,,,,,,,,,,,,350.77591138286516,None,352.27566010691226,None,353.65922383312136,None,beach,353.65922383312136,None,return,5.078440408222377,353.742519101128,None,,,,,,,,,,,,,,,,,,,,,,,,,,,,,,,,,,,,,,,88,001,2023_Apr_27_1719,SpeechDraft1Carolyn_lessNoise_PlusLocalization,2021.2.3,60.00740084803859,
chest.wav,chest.mpg,chest,4,AV,Pink_Noise_4_1.wav,Pink_Noise_4_2.wav,,,,,,,,,,,,,,,0,27,27,113,,,,,,,,,,,,,,,,,,,,,,,358.8428051811643,None,360.34229789301753,None,361.72590786311775,None,"chest
",361.72590786311775,None,return,4.05169866187498,361.8092513550073,None,,,,,,,,,,,,,,,,,,,,,,,,,,,,,,,,,,,,,,,88,001,2023_Apr_27_1719,SpeechDraft1Carolyn_lessNoise_PlusLocalization,2021.2.3,60.00740084803859,
brisk.wav,brisk.mpg,brisk,6,AV,Pink_Noise_6_1.wav,Pink_Noise_6_2.wav,,,,,,,,,,,,,,,0,28,28,61,,,,,,,,,,,,,,,,,,,,,,,365.8926782431081,None,367.39244193723425,None,368.77594166994095,None,rip,368.77594166994095,None,return,5.39374924916774,368.8592254370451,None,,,,,,,,,,,,,,,,,,,,,,,,,,,,,,,,,,,,,,,88,001,2023_Apr_27_1719,SpeechDraft1Carolyn_lessNoise_PlusLocalization,2021.2.3,60.00740084803859,
cab.wav,cab.mpg,cab,3,A,Pink_Noise_3_1.wav,Pink_Noise_3_2.wav,,,,,,,,,,,,,,,0,29,29,11,,,,,,,,,,,,,,,,,,,,,,,374.2759652901441,None,375.77566089015454,None,377.1592388530262,None,calve,377.1592388530262,None,return,7.922519443091005,377.24255061196163,None,,,,,,,,,,,,,,,,,,,,,,,,,,,,,,,,,,,,,,,88,001,2023_Apr_27_1719,SpeechDraft1Carolyn_lessNoise_PlusLocalization,2021.2.3,60.00740084803859,
beer.wav,beer.mpg,beer,1,A,Pink_Noise_1_1.wav,Pink_Noise_1_2.wav,,,,,,,,,,,,,,,0,30,30,52,,,,,,,,,,,,,,,,,,,,,,,385.1925759902224,None,386.69235230609775,None,388.075968103949,None,beer,388.075968103949,None,return,2.3497376781888306,388.1593035249971,None,,,,,,,,,,,,,,,,,,,,,,,,,,,,,,,,,,,,,,,88,001,2023_Apr_27_1719,SpeechDraft1Carolyn_lessNoise_PlusLocalization,2021.2.3,60.00740084803859,
hike.wav,hike.mpg,hike,1,A,Pink_Noise_1_1.wav,Pink_Noise_1_2.wav,,,,,,,,,,,,,,,0,31,31,53,,,,,,,,,,,,,,,,,,,,,,,390.5259793000296,None,392.02565019298345,None,393.40947018703446,None,hike,393.40947018703446,None,return,12.608293196186423,393.49265230214223,None,,,,,,,,,,,,,,,,,,,,,,,,,,,,,,,,,,,,,,,88,001,2023_Apr_27_1719,SpeechDraft1Carolyn_lessNoise_PlusLocalization,2021.2.3,60.00740084803859,
duck.wav,duck.mpg,duck,5,AV,Pink_Noise_5_1.wav,Pink_Noise_5_2.wav,,,,,,,,,,,,,,,0,32,32,102,,,,,,,,,,,,,,,,,,,,,,,406.12601413717493,None,407.62574496585876,None,409.0093475030735,None,"dusk
",409.0093475030735,None,return,3.7204022738151252,409.0925549301319,None,,,,,,,,,,,,,,,,,,,,,,,,,,,,,,,,,,,,,,,88,001,2023_Apr_27_1719,SpeechDraft1Carolyn_lessNoise_PlusLocalization,2021.2.3,60.00740084803859,
curb.wav,curb.mpg,curb,3,AV,Pink_Noise_3_1.wav,Pink_Noise_3_2.wav,,,,,,,,,,,,,,,0,33,33,67,,,,,,,,,,,,,,,,,,,,,,,412.84262975491583,None,414.3424650840461,None,415.7259290958755,None,curb,415.7259290958755,None,return,4.411609007976949,415.80935476813465,None,,,,,,,,,,,,,,,,,,,,,,,,,,,,,,,,,,,,,,,88,001,2023_Apr_27_1719,SpeechDraft1Carolyn_lessNoise_PlusLocalization,2021.2.3,60.00740084803859,
fault.wav,fault.mpg,fault,1,AV,Pink_Noise_1_1.wav,Pink_Noise_1_2.wav,,,,,,,,,,,,,,,0,34,34,88,,,,,,,,,,,,,,,,,,,,,,,420.2426633439027,None,421.74247128982097,None,423.1260047010146,None,fault,423.1260047010146,None,return,6.89972214307636,423.20928870420903,None,,,,,,,,,,,,,,,,,,,,,,,,,,,,,,,,,,,,,,,88,001,2023_Apr_27_1719,SpeechDraft1Carolyn_lessNoise_PlusLocalization,2021.2.3,60.00740084803859,
drink.wav,drink.mpg,drink,4,A,Pink_Noise_4_1.wav,Pink_Noise_4_2.wav,,,,,,,,,,,,,,,0,35,35,3,,,,,,,,,,,,,,,,,,,,,,,430.12600656505674,None,431.6257055038586,None,433.00934509187937,None,drink,433.00934509187937,None,return,4.104233562014997,433.0927262259647,None,,,,,,,,,,,,,,,,,,,,,,,,,,,,,,,,,,,,,,,88,001,2023_Apr_27_1719,SpeechDraft1Carolyn_lessNoise_PlusLocalization,2021.2.3,60.00740084803859,
flirt.wav,flirt.mpg,flirt,5,AV,Pink_Noise_5_1.wav,Pink_Noise_5_2.wav,,,,,,,,,,,,,,,0,36,36,64,,,,,,,,,,,,,,,,,,,,,,,437.22600021678954,None,438.7257950589992,None,440.1093901330605,None,"fish
",440.1093901330605,None,return,12.668161002919078,440.19281306210905,None,,,,,,,,,,,,,,,,,,,,,,,,,,,,,,,,,,,,,,,88,001,2023_Apr_27_1719,SpeechDraft1Carolyn_lessNoise_PlusLocalization,2021.2.3,60.00740084803859,
row.wav,row.mpg,row,4,A,Pink_Noise_4_1.wav,Pink_Noise_4_2.wav,,,,,,,,,,,,,,,0,37,37,45,,,,,,,,,,,,,,,,,,,,,,,452.89275282016024,None,454.3924079579301,None,455.77605679584667,None,row,455.77605679584667,None,return,2.689690335188061,455.85934451501817,None,,,,,,,,,,,,,,,,,,,,,,,,,,,,,,,,,,,,,,,88,001,2023_Apr_27_1719,SpeechDraft1Carolyn_lessNoise_PlusLocalization,2021.2.3,60.00740084803859,
brain.wav,brain.mpg,brain,1,AV,Pink_Noise_1_1.wav,Pink_Noise_1_2.wav,,,,,,,,,,,,,,,0,38,38,84,,,,,,,,,,,,,,,,,,,,,,,458.57609209092334,None,460.0757605028339,None,461.45935735013336,None,"braim
",461.45935735013336,None,return,5.33421054109931,461.54275855980814,None,,,,,,,,,,,,,,,,,,,,,,,,,,,,,,,,,,,,,,,88,001,2023_Apr_27_1719,SpeechDraft1Carolyn_lessNoise_PlusLocalization,2021.2.3,60.00740084803859,
cope.wav,cope.mpg,cope,1,AV,Pink_Noise_1_1.wav,Pink_Noise_1_2.wav,,,,,,,,,,,,,,,0,39,39,75,,,,,,,,,,,,,,,,,,,,,,,466.90947106992826,None,468.4091293858364,None,469.7926966319792,None,cope,469.7926966319792,None,return,5.441058894619346,469.8760385811329,None,,,,,,,,,,,,,,,,,,,,,,,,,,,,,,,,,,,,,,,88,001,2023_Apr_27_1719,SpeechDraft1Carolyn_lessNoise_PlusLocalization,2021.2.3,60.00740084803859,
beam.wav,beam.mpg,beam,1,AV,Pink_Noise_1_1.wav,Pink_Noise_1_2.wav,,,,,,,,,,,,,,,0,40,40,74,,,,,,,,,,,,,,,,,,,,,,,475.34277428500354,None,476.85914207296446,None,478.24253555806354,None,"bran
",478.24253555806354,None,return,4.1028614630922675,478.3261037589982,None,,,,,,,,,,,,,,,,,,,,,,,,,,,,,,,,,,,,,,,88,001,2023_Apr_27_1719,SpeechDraft1Carolyn_lessNoise_PlusLocalization,2021.2.3,60.00740084803859,
bail.wav,bail.mpg,bail,5,A,Pink_Noise_5_1.wav,Pink_Noise_5_2.wav,,,,,,,,,,,,,,,0,41,41,8,,,,,,,,,,,,,,,,,,,,,,,482.459475370124,None,483.95919756405056,None,485.34278767183423,None,"dance
",485.34278767183423,None,return,9.786930692847818,485.42602468887344,None,,,,,,,,,,,,,,,,,,,,,,,,,,,,,,,,,,,,,,,88,001,2023_Apr_27_1719,SpeechDraft1Carolyn_lessNoise_PlusLocalization,2021.2.3,60.00740084803859,
fright.wav,fright.mpg,fright,6,AV,Pink_Noise_6_1.wav,Pink_Noise_6_2.wav,,,,,,,,,,,,,,,0,42,42,116,,,,,,,,,,,,,,,,,,,,,,,495.24287275318056,None,496.7425430691801,None,498.12603442184627,None,f;ight,498.12603442184627,None,return,6.059555387124419,498.2093911920674,None,,,,,,,,,,,,,,,,,,,,,,,,,,,,,,,,,,,,,,,88,001,2023_Apr_27_1719,SpeechDraft1Carolyn_lessNoise_PlusLocalization,2021.2.3,60.00740084803859,
cross.wav,cross.mpg,cross,2,AV,Pink_Noise_2_1.wav,Pink_Noise_2_2.wav,,,,,,,,,,,,,,,0,43,43,91,,,,,,,,,,,,,,,,,,,,,,,504.2928075832315,None,505.7926442301832,None,507.1761453798972,None,cross,507.1761453798972,None,return,13.505506322253495,507.25956897903234,None,,,,,,,,,,,,,,,,,,,,,,,,,,,,,,,,,,,,,,,88,001,2023_Apr_27_1719,SpeechDraft1Carolyn_lessNoise_PlusLocalization,2021.2.3,60.00740084803859,
flesh.wav,flesh.mpg,flesh,4,A,Pink_Noise_4_1.wav,Pink_Noise_4_2.wav,,,,,,,,,,,,,,,0,44,44,37,,,,,,,,,,,,,,,,,,,,,,,520.792918107938,None,522.2924944967963,None,523.6760958889499,None,blush,523.6760958889499,None,return,4.973695287015289,523.75941564003,None,,,,,,,,,,,,,,,,,,,,,,,,,,,,,,,,,,,,,,,88,001,2023_Apr_27_1719,SpeechDraft1Carolyn_lessNoise_PlusLocalization,2021.2.3,60.00740084803859,
fist.wav,fist.mpg,fist,3,A,Pink_Noise_3_1.wav,Pink_Noise_3_2.wav,,,,,,,,,,,,,,,0,45,45,17,,,,,,,,,,,,,,,,,,,,,,,528.7593573131599,None,530.2591974600218,None,531.6427732510492,None,fist,531.6427732510492,None,return,6.206946279853582,531.726145983208,None,,,,,,,,,,,,,,,,,,,,,,,,,,,,,,,,,,,,,,,88,001,2023_Apr_27_1719,SpeechDraft1Carolyn_lessNoise_PlusLocalization,2021.2.3,60.00740084803859,
coat.wav,coat.mpg,coat,5,AV,Pink_Noise_5_1.wav,Pink_Noise_5_2.wav,,,,,,,,,,,,,,,0,46,46,96,,,,,,,,,,,,,,,,,,,,,,,537.9595533888787,None,539.459165030159,None,540.8428189689294,None,"coat
",540.8428189689294,None,return,4.502686830237508,540.9262926899828,None,,,,,,,,,,,,,,,,,,,,,,,,,,,,,,,,,,,,,,,88,001,2023_Apr_27_1719,SpeechDraft1Carolyn_lessNoise_PlusLocalization,2021.2.3,60.00740084803859,
drunk.wav,drunk.mpg,drunk,1,A,Pink_Noise_1_1.wav,Pink_Noise_1_2.wav,,,,,,,,,,,,,,,0,47,47,4,,,,,,,,,,,,,,,,,,,,,,,545.4596233111806,None,546.9592358209193,None,548.3428577161394,None,"drunk
",548.3428577161394,None,return,4.386772513855249,548.4261859129183,None,,,,,,,,,,,,,,,,,,,,,,,,,,,,,,,,,,,,,,,88,001,2023_Apr_27_1719,SpeechDraft1Carolyn_lessNoise_PlusLocalization,2021.2.3,60.00740084803859,
crisp.wav,crisp.mpg,crisp,6,A,Pink_Noise_6_1.wav,Pink_Noise_6_2.wav,,,,,,,,,,,,,,,0,48,48,44,,,,,,,,,,,,,,,,,,,,,,,552.8428657790646,None,554.3426126278937,None,555.7261704630218,None,sit,555.7261704630218,None,return,23.89948464790359,555.809559171088,None,,,,,,,,,,,,,,,,,,,,,,,,,,,,,,,,,,,,,,,88,001,2023_Apr_27_1719,SpeechDraft1Carolyn_lessNoise_PlusLocalization,2021.2.3,60.00740084803859,
grim.wav,grim.mpg,grim,1,AV,Pink_Noise_1_1.wav,Pink_Noise_1_2.wav,,,,,,,,,,,,,,,0,49,49,104,,,,,,,,,,,,,,,,,,,,,,,579.7262206468731,None,581.2260569208302,None,582.6099272631109,None,grill,582.6099272631109,None,return,5.464032170828432,582.6929332050495,None,,,,,,,,,,,,,,,,,,,,,,,,,,,,,,,,,,,,,,,88,001,2023_Apr_27_1719,SpeechDraft1Carolyn_lessNoise_PlusLocalization,2021.2.3,60.00740084803859,
fear.wav,fear.mpg,fear,1,A,Pink_Noise_1_1.wav,Pink_Noise_1_2.wav,,,,,,,,,,,,,,,0,50,50,10,,,,,,,,,,,,,,,,,,,,,,,588.1763061918318,None,589.6760493782349,None,591.0596187929623,None,fear,591.0596187929623,None,return,2.7901622629724443,591.1429222151637,None,,,,,,,,,,,,,,,,,,,,,,,,,,,,,,,,,,,,,,,88,001,2023_Apr_27_1719,SpeechDraft1Carolyn_lessNoise_PlusLocalization,2021.2.3,60.00740084803859,
feed.wav,feed.mpg,feed,6,AV,Pink_Noise_6_1.wav,Pink_Noise_6_2.wav,,,,,,,,,,,,,,,0,51,51,60,,,,,,,,,,,,,,,,,,,,,,,593.9595764288679,None,595.4593814881518,None,596.842840760015,None,fate,596.842840760015,None,return,5.5266614886932075,596.9263099739328,None,,,,,,,,,,,,,,,,,,,,,,,,,,,,,,,,,,,,,,,88,001,2023_Apr_27_1719,SpeechDraft1Carolyn_lessNoise_PlusLocalization,2021.2.3,60.00740084803859,
fade.wav,fade.mpg,fade,6,A,Pink_Noise_6_1.wav,Pink_Noise_6_2.wav,,,,,,,,,,,,,,,0,52,52,0,,,,,,,,,,,,,,,,,,,,,,,602.4762654812075,None,603.976081002038,None,605.3596360920928,None,dan,605.3596360920928,None,return,2.4901360850781202,605.4428955148906,None,,,,,,,,,,,,,,,,,,,,,,,,,,,,,,,,,,,,,,,88,001,2023_Apr_27_1719,SpeechDraft1Carolyn_lessNoise_PlusLocalization,2021.2.3,60.00740084803859,
bleed.wav,bleed.mpg,bleed,4,AV,Pink_Noise_4_1.wav,Pink_Noise_4_2.wav,,,,,,,,,,,,,,,0,53,53,81,,,,,,,,,,,,,,,,,,,,,,,607.9596064151265,None,609.4760495121591,None,610.8596132891253,None,leave,610.8596132891253,None,return,6.790105367079377,610.9429375468753,None,,,,,,,,,,,,,,,,,,,,,,,,,,,,,,,,,,,,,,,88,001,2023_Apr_27_1719,SpeechDraft1Carolyn_lessNoise_PlusLocalization,2021.2.3,60.00740084803859,
wear.wav,wear.mpg,wear,5,AV,Pink_Noise_5_1.wav,Pink_Noise_5_2.wav,,,,,,,,,,,,,,,0,54,54,69,,,,,,,,,,,,,,,,,,,,,,,617.7596732662059,None,619.2593599702232,None,620.6428603841923,None,whip,620.6428603841923,None,return,4.470608650241047,620.7263389481232,None,,,,,,,,,,,,,,,,,,,,,,,,,,,,,,,,,,,,,,,88,001,2023_Apr_27_1719,SpeechDraft1Carolyn_lessNoise_PlusLocalization,2021.2.3,60.00740084803859,
bland.wav,bland.mpg,bland,3,AV,Pink_Noise_3_1.wav,Pink_Noise_3_2.wav,,,,,,,,,,,,,,,0,55,55,65,,,,,,,,,,,,,,,,,,,,,,,625.2263037008233,None,626.7260447838344,None,628.1094953347929,None,bland,628.1094953347929,None,return,11.355857059825212,628.1931824851781,None,,,,,,,,,,,,,,,,,,,,,,,,,,,,,,,,,,,,,,,88,001,2023_Apr_27_1719,SpeechDraft1Carolyn_lessNoise_PlusLocalization,2021.2.3,60.00740084803859,
blame.wav,blame.mpg,blame,3,A,Pink_Noise_3_1.wav,Pink_Noise_3_2.wav,,,,,,,,,,,,,,,0,56,56,31,,,,,,,,,,,,,,,,,,,,,,,639.5762789142318,None,641.0760644958355,None,642.4597104690038,None,low,642.4597104690038,None,return,4.07008503889665,642.5429285690188,None,,,,,,,,,,,,,,,,,,,,,,,,,,,,,,,,,,,,,,,88,001,2023_Apr_27_1719,SpeechDraft1Carolyn_lessNoise_PlusLocalization,2021.2.3,60.00740084803859,
clip.wav,clip.mpg,clip,5,A,Pink_Noise_5_1.wav,Pink_Noise_5_2.wav,,,,,,,,,,,,,,,0,57,57,12,,,,,,,,,,,,,,,,,,,,,,,646.6434847810306,None,648.1426476589404,None,649.5262873042375,None,"get
",649.5262873042375,None,return,7.203308982774615,649.6096385899,None,,,,,,,,,,,,,,,,,,,,,,,,,,,,,,,,,,,,,,,88,001,2023_Apr_27_1719,SpeechDraft1Carolyn_lessNoise_PlusLocalization,2021.2.3,60.00740084803859,
fast.wav,fast.mpg,fast,2,AV,Pink_Noise_2_1.wav,Pink_Noise_2_2.wav,,,,,,,,,,,,,,,0,58,58,76,,,,,,,,,,,,,,,,,,,,,,,656.8430743371136,None,658.342767294962,None,659.7262521898374,None,fast,659.7262521898374,None,return,2.7394453957676888,659.8096214341931,None,,,,,,,,,,,,,,,,,,,,,,,,,,,,,,,,,,,,,,,88,001,2023_Apr_27_1719,SpeechDraft1Carolyn_lessNoise_PlusLocalization,2021.2.3,60.00740084803859,
glow.wav,glow.mpg,glow,2,AV,Pink_Noise_2_1.wav,Pink_Noise_2_2.wav,,,,,,,,,,,,,,,0,59,59,90,,,,,,,,,,,,,,,,,,,,,,,662.5763715850189,None,664.0761063979007,None,665.45971229719,None,glow,665.45971229719,None,return,4.813807185739279,665.5431478470564,None,,,,,,,,,,,,,,,,,,,,,,,,,,,,,,,,,,,,,,,88,001,2023_Apr_27_1719,SpeechDraft1Carolyn_lessNoise_PlusLocalization,2021.2.3,60.00740084803859,
ditch.wav,ditch.mpg,ditch,5,AV,Pink_Noise_5_1.wav,Pink_Noise_5_2.wav,,,,,,,,,,,,,,,0,60,60,118,,,,,,,,,,,,,,,,,,,,,,,670.376411320176,None,671.8760365447961,None,673.2596743721515,None,ditch,673.2596743721515,None,return,7.5821187677793205,673.3429397251457,None,,,,,,,,,,,,,,,,,,,,,,,,,,,,,,,,,,,,,,,88,001,2023_Apr_27_1719,SpeechDraft1Carolyn_lessNoise_PlusLocalization,2021.2.3,60.00740084803859,
grass.wav,grass.mpg,grass,6,A,Pink_Noise_6_1.wav,Pink_Noise_6_2.wav,,,,,,,,,,,,,,,0,61,61,16,,,,,,,,,,,,,,,,,,,,,,,680.9431113270111,None,682.443790642079,None,683.8264676020481,None,rest,683.8264676020481,None,return,3.4712095097638667,683.9097617669031,None,,,,,,,,,,,,,,,,,,,,,,,,,,,,,,,,,,,,,,,88,001,2023_Apr_27_1719,SpeechDraft1Carolyn_lessNoise_PlusLocalization,2021.2.3,60.00740084803859,
grade.wav,grade.mpg,grade,2,A,Pink_Noise_2_1.wav,Pink_Noise_2_2.wav,,,,,,,,,,,,,,,0,62,62,28,,,,,,,,,,,,,,,,,,,,,,,687.4097063248046,None,688.9094625888392,None,690.2930752709508,None,grade,690.2930752709508,None,return,3.028564461041242,690.37639588397,None,,,,,,,,,,,,,,,,,,,,,,,,,,,,,,,,,,,,,,,88,001,2023_Apr_27_1719,SpeechDraft1Carolyn_lessNoise_PlusLocalization,2021.2.3,60.00740084803859,
care.wav,care.mpg,care,2,A,Pink_Noise_2_1.wav,Pink_Noise_2_2.wav,,,,,,,,,,,,,,,0,63,63,43,,,,,,,,,,,,,,,,,,,,,,,693.4264293028973,None,694.9260309869424,None,696.3098284909502,None,care,696.3098284909502,None,return,2.2437835913151503,696.3931593671441,None,,,,,,,,,,,,,,,,,,,,,,,,,,,,,,,,,,,,,,,88,001,2023_Apr_27_1719,SpeechDraft1Carolyn_lessNoise_PlusLocalization,2021.2.3,60.00740084803859,
grace.wav,grace.mpg,grace,1,AV,Pink_Noise_1_1.wav,Pink_Noise_1_2.wav,,,,,,,,,,,,,,,0,64,64,119,,,,,,,,,,,,,,,,,,,,,,,698.6597591638565,None,700.1594828800298,None,701.543004929088,None,grace,701.543004929088,None,return,3.4261754057370126,701.6268028719351,None,,,,,,,,,,,,,,,,,,,,,,,,,,,,,,,,,,,,,,,88,001,2023_Apr_27_1719,SpeechDraft1Carolyn_lessNoise_PlusLocalization,2021.2.3,60.00740084803859,
bean.wav,bean.mpg,bean,2,AV,Pink_Noise_2_1.wav,Pink_Noise_2_2.wav,,,,,,,,,,,,,,,0,65,65,114,,,,,,,,,,,,,,,,,,,,,,,705.0764100048691,None,706.5777565590106,None,707.9597425139509,None,bean,707.9597425139509,None,return,2.6659942138940096,708.0430641667917,None,,,,,,,,,,,,,,,,,,,,,,,,,,,,,,,,,,,,,,,88,001,2023_Apr_27_1719,SpeechDraft1Carolyn_lessNoise_PlusLocalization,2021.2.3,60.00740084803859,
flair.wav,flair.mpg,flair,6,A,Pink_Noise_6_1.wav,Pink_Noise_6_2.wav,,,,,,,,,,,,,,,0,66,66,21,,,,,,,,,,,,,,,,,,,,,,,710.7264220220968,None,712.2262022532523,None,713.609700019937,None,"dance
",713.609700019937,None,return,3.7517835474573076,713.6931607117876,None,,,,,,,,,,,,,,,,,,,,,,,,,,,,,,,,,,,,,,,88,001,2023_Apr_27_1719,SpeechDraft1Carolyn_lessNoise_PlusLocalization,2021.2.3,60.00740084803859,
bib.wav,bib.mpg,bib,3,AV,Pink_Noise_3_1.wav,Pink_Noise_3_2.wav,,,,,,,,,,,,,,,0,67,67,106,,,,,,,,,,,,,,,,,,,,,,,717.4764346578158,None,718.9768257732503,None,720.3596640480682,None,bib,720.3596640480682,None,return,1.4978256109170616,720.4431430120021,None,,,,,,,,,,,,,,,,,,,,,,,,,,,,,,,,,,,,,,,88,001,2023_Apr_27_1719,SpeechDraft1Carolyn_lessNoise_PlusLocalization,2021.2.3,60.00740084803859,
fold.wav,fold.mpg,fold,1,AV,Pink_Noise_1_1.wav,Pink_Noise_1_2.wav,,,,,,,,,,,,,,,0,68,68,73,,,,,,,,,,,,,,,,,,,,,,,721.9597374740988,None,723.4595368998125,None,724.8429566901177,None,fold,724.8429566901177,None,return,3.9104741611517966,724.9264649618417,None,,,,,,,,,,,,,,,,,,,,,,,,,,,,,,,,,,,,,,,88,001,2023_Apr_27_1719,SpeechDraft1Carolyn_lessNoise_PlusLocalization,2021.2.3,60.00740084803859,
clumps.wav,clumps.mpg,clumps,6,A,Pink_Noise_6_1.wav,Pink_Noise_6_2.wav,,,,,,,,,,,,,,,0,69,69,36,,,,,,,,,,,,,,,,,,,,,,,728.859721628949,None,730.3595279650763,None,731.743117142003,None,get,731.743117142003,None,return,6.698568233288825,731.8264909759164,None,,,,,,,,,,,,,,,,,,,,,,,,,,,,,,,,,,,,,,,88,001,2023_Apr_27_1719,SpeechDraft1Carolyn_lessNoise_PlusLocalization,2021.2.3,60.00740084803859,
gaze.wav,gaze.mpg,gaze,2,A,Pink_Noise_2_1.wav,Pink_Noise_2_2.wav,,,,,,,,,,,,,,,0,70,70,46,,,,,,,,,,,,,,,,,,,,,,,738.5431134258397,None,740.0434013591148,None,741.4263917510398,None,gays,741.4263917510398,None,return,2.6952611543238163,741.5097312079743,None,,,,,,,,,,,,,,,,,,,,,,,,,,,,,,,,,,,,,,,88,001,2023_Apr_27_1719,SpeechDraft1Carolyn_lessNoise_PlusLocalization,2021.2.3,60.00740084803859,
creek.wav,creek.mpg,creek,2,A,Pink_Noise_2_1.wav,Pink_Noise_2_2.wav,,,,,,,,,,,,,,,0,71,71,26,,,,,,,,,,,,,,,,,,,,,,,744.2265040539205,None,745.7263118131086,None,747.1098949089646,None,creek,747.1098949089646,None,return,3.1559452987276018,747.1930972170085,None,,,,,,,,,,,,,,,,,,,,,,,,,,,,,,,,,,,,,,,88,001,2023_Apr_27_1719,SpeechDraft1Carolyn_lessNoise_PlusLocalization,2021.2.3,60.00740084803859,
none.wav,none.mpg,none,6,AV,Pink_Noise_6_1.wav,Pink_Noise_6_2.wav,,,,,,,,,,,,,,,0,72,72,107,,,,,,,,,,,,,,,,,,,,,,,750.3764792829752,None,751.8762537748553,None,753.2597898212261,None,gun,753.2597898212261,None,return,5.941836580168456,753.3430979051627,None,,,,,,,,,,,,,,,,,,,,,,,,,,,,,,,,,,,,,,,88,001,2023_Apr_27_1719,SpeechDraft1Carolyn_lessNoise_PlusLocalization,2021.2.3,60.00740084803859,
blade.wav,blade.mpg,blade,6,A,Pink_Noise_6_1.wav,Pink_Noise_6_2.wav,,,,,,,,,,,,,,,0,73,73,20,,,,,,,,,,,,,,,,,,,,,,,759.3098383280449,None,760.8263130150735,None,762.2098416117951,None,day,762.2098416117951,None,return,4.471931459382176,762.2931065522134,None,,,,,,,,,,,,,,,,,,,,,,,,,,,,,,,,,,,,,,,88,001,2023_Apr_27_1719,SpeechDraft1Carolyn_lessNoise_PlusLocalization,2021.2.3,60.00740084803859,
birch.wav,birch.mpg,birch,4,A,Pink_Noise_4_1.wav,Pink_Noise_4_2.wav,,,,,,,,,,,,,,,0,74,74,2,,,,,,,,,,,,,,,,,,,,,,,766.7933184350841,None,768.3095107870176,None,769.6933059222065,None,birch,769.6933059222065,None,return,4.804431597236544,769.7765161888674,None,,,,,,,,,,,,,,,,,,,,,,,,,,,,,,,,,,,,,,,88,001,2023_Apr_27_1719,SpeechDraft1Carolyn_lessNoise_PlusLocalization,2021.2.3,60.00740084803859,
flag.wav,flag.mpg,flag,3,AV,Pink_Noise_3_1.wav,Pink_Noise_3_2.wav,,,,,,,,,,,,,,,0,75,75,70,,,,,,,,,,,,,,,,,,,,,,,774.6099456758238,None,776.1095974692143,None,777.4930927809328,None,flag,777.4930927809328,None,return,9.908487535081804,777.5764573230408,None,,,,,,,,,,,,,,,,,,,,,,,,,,,,,,,,,,,,,,,88,001,2023_Apr_27_1719,SpeechDraft1Carolyn_lessNoise_PlusLocalization,2021.2.3,60.00740084803859,
calm.wav,calm.mpg,calm,6,AV,Pink_Noise_6_1.wav,Pink_Noise_6_2.wav,,,,,,,,,,,,,,,0,76,76,98,,,,,,,,,,,,,,,,,,,,,,,787.5097652161494,None,789.011088760104,None,790.3931421581656,None,"log
",790.3931421581656,None,return,12.536394427996129,790.4765498139895,None,,,,,,,,,,,,,,,,,,,,,,,,,,,,,,,,,,,,,,,88,001,2023_Apr_27_1719,SpeechDraft1Carolyn_lessNoise_PlusLocalization,2021.2.3,60.00740084803859,
flash.wav,flash.mpg,flash,4,AV,Pink_Noise_4_1.wav,Pink_Noise_4_2.wav,,,,,,,,,,,,,,,0,77,77,83,,,,,,,,,,,,,,,,,,,,,,,803.0432928521186,None,804.5429603890516,None,805.9264384661801,None,flash,805.9264384661801,None,return,6.50722760008648,806.0098648201674,None,,,,,,,,,,,,,,,,,,,,,,,,,,,,,,,,,,,,,,,88,001,2023_Apr_27_1719,SpeechDraft1Carolyn_lessNoise_PlusLocalization,2021.2.3,60.00740084803859,
flu.wav,flu.mpg,flu,5,A,Pink_Noise_5_1.wav,Pink_Noise_5_2.wav,,,,,,,,,,,,,,,0,78,78,47,,,,,,,,,,,,,,,,,,,,,,,812.5432821880095,None,814.0429624100216,None,815.4266146761365,None,swom,815.4266146761365,None,return,3.1910821236670017,815.5098960148171,None,,,,,,,,,,,,,,,,,,,,,,,,,,,,,,,,,,,,,,,88,001,2023_Apr_27_1719,SpeechDraft1Carolyn_lessNoise_PlusLocalization,2021.2.3,60.00740084803859,
fork.wav,fork.mpg,fork,4,AV,Pink_Noise_4_1.wav,Pink_Noise_4_2.wav,,,,,,,,,,,,,,,0,79,79,117,,,,,,,,,,,,,,,,,,,,,,,818.7265880848281,None,820.226300436072,None,821.6099143228494,None,"fork
",821.6099143228494,None,return,2.919601514004171,821.6933613349684,None,,,,,,,,,,,,,,,,,,,,,,,,,,,,,,,,,,,,,,,88,001,2023_Apr_27_1719,SpeechDraft1Carolyn_lessNoise_PlusLocalization,2021.2.3,60.00740084803859,
bomb.wav,bomb.mpg,bomb,5,A,Pink_Noise_5_1.wav,Pink_Noise_5_2.wav,,,,,,,,,,,,,,,0,80,80,24,,,,,,,,,,,,,,,,,,,,,,,824.6432281262241,None,826.1429872531444,None,827.5265690549277,None,"flaw
",827.5265690549277,None,return,4.219092783052474,827.6098720268346,None,,,,,,,,,,,,,,,,,,,,,,,,,,,,,,,,,,,,,,,88,001,2023_Apr_27_1719,SpeechDraft1Carolyn_lessNoise_PlusLocalization,2021.2.3,60.00740084803859,
blob.wav,blob.mpg,blob,1,A,Pink_Noise_1_1.wav,Pink_Noise_1_2.wav,,,,,,,,,,,,,,,0,81,81,13,,,,,,,,,,,,,,,,,,,,,,,831.8599114222452,None,833.3595004328527,None,834.7431936007924,None,blob,834.7431936007924,None,return,2.7784158079884946,834.8265549568459,None,,,,,,,,,,,,,,,,,,,,,,,,,,,,,,,,,,,,,,,88,001,2023_Apr_27_1719,SpeechDraft1Carolyn_lessNoise_PlusLocalization,2021.2.3,60.00740084803859,
rent.wav,rent.mpg,rent,5,A,Pink_Noise_5_1.wav,Pink_Noise_5_2.wav,,,,,,,,,,,,,,,0,82,82,55,,,,,,,,,,,,,,,,,,,,,,,837.626622770913,None,839.1429286021739,None,840.526623532176,None,bed,840.526623532176,None,return,2.2832425013184547,840.6098510599695,None,,,,,,,,,,,,,,,,,,,,,,,,,,,,,,,,,,,,,,,88,001,2023_Apr_27_1719,SpeechDraft1Carolyn_lessNoise_PlusLocalization,2021.2.3,60.00740084803859,
flock.wav,flock.mpg,flock,2,A,Pink_Noise_2_1.wav,Pink_Noise_2_2.wav,,,,,,,,,,,,,,,0,83,83,30,,,,,,,,,,,,,,,,,,,,,,,842.9098965739831,None,844.4264805759303,None,845.7932093488052,None,flack,845.7932093488052,None,return,6.792387432884425,845.8765820008703,None,,,,,,,,,,,,,,,,,,,,,,,,,,,,,,,,,,,,,,,88,001,2023_Apr_27_1719,SpeechDraft1Carolyn_lessNoise_PlusLocalization,2021.2.3,60.00740084803859,
wind.wav,wind.mpg,wind,2,A,Pink_Noise_2_1.wav,Pink_Noise_2_2.wav,,,,,,,,,,,,,,,0,84,84,25,,,,,,,,,,,,,,,,,,,,,,,852.6933316970244,None,854.192975867074,None,855.5767127359286,None,wond,855.5767127359286,None,return,3.336878222413361,855.6600754661486,None,,,,,,,,,,,,,,,,,,,,,,,,,,,,,,,,,,,,,,,88,001,2023_Apr_27_1719,SpeechDraft1Carolyn_lessNoise_PlusLocalization,2021.2.3,60.00740084803859,
rid.wav,rid.mpg,rid,4,AV,Pink_Noise_4_1.wav,Pink_Noise_4_2.wav,,,,,,,,,,,,,,,0,85,85,85,,,,,,,,,,,,,,,,,,,,,,,859.026585420128,None,860.5429998119362,None,861.926492207218,None,rib,861.926492207218,None,return,3.507023229263723,862.0100659560412,None,,,,,,,,,,,,,,,,,,,,,,,,,,,,,,,,,,,,,,,88,001,2023_Apr_27_1719,SpeechDraft1Carolyn_lessNoise_PlusLocalization,2021.2.3,60.00740084803859,
chop.wav,chop.mpg,chop,2,A,Pink_Noise_2_1.wav,Pink_Noise_2_2.wav,,,,,,,,,,,,,,,0,86,86,14,,,,,,,,,,,,,,,,,,,,,,,865.5433093700558,None,867.0429783822037,None,868.4267193949781,None,"chat
",868.4267193949781,None,return,3.9350299132056534,868.5099773728289,None,,,,,,,,,,,,,,,,,,,,,,,,,,,,,,,,,,,,,,,88,001,2023_Apr_27_1719,SpeechDraft1Carolyn_lessNoise_PlusLocalization,2021.2.3,60.00740084803859,
toast.wav,toast.mpg,toast,1,A,Pink_Noise_1_1.wav,Pink_Noise_1_2.wav,,,,,,,,,,,,,,,0,87,87,50,,,,,,,,,,,,,,,,,,,,,,,872.4766569910571,None,873.9763327520341,None,875.3599905171432,None,toast,875.3599905171432,None,return,4.48158896388486,875.4434775728732,None,,,,,,,,,,,,,,,,,,,,,,,,,,,,,,,,,,,,,,,88,001,2023_Apr_27_1719,SpeechDraft1Carolyn_lessNoise_PlusLocalization,2021.2.3,60.00740084803859,
pants.wav,pants.mpg,pants,3,AV,Pink_Noise_3_1.wav,Pink_Noise_3_2.wav,,,,,,,,,,,,,,,0,88,88,92,,,,,,,,,,,,,,,,,,,,,,,879.943304086104,None,881.4430844108574,None,882.8266457659192,None,pants,882.8266457659192,None,return,4.758933310862631,882.910013275221,None,,,,,,,,,,,,,,,,,,,,,,,,,,,,,,,,,,,,,,,88,001,2023_Apr_27_1719,SpeechDraft1Carolyn_lessNoise_PlusLocalization,2021.2.3,60.00740084803859,
quest.wav,quest.mpg,quest,5,AV,Pink_Noise_5_1.wav,Pink_Noise_5_2.wav,,,,,,,,,,,,,,,0,89,89,115,,,,,,,,,,,,,,,,,,,,,,,887.6933066360652,None,889.1931081451476,None,890.5765621918254,None,quest,890.5765621918254,None,return,5.69697756273672,890.6600571027957,None,,,,,,,,,,,,,,,,,,,,,,,,,,,,,,,,,,,,,,,88,001,2023_Apr_27_1719,SpeechDraft1Carolyn_lessNoise_PlusLocalization,2021.2.3,60.00740084803859,
cheap.wav,cheap.mpg,cheap,4,A,Pink_Noise_4_1.wav,Pink_Noise_4_2.wav,,,,,,,,,,,,,,,0,90,90,42,,,,,,,,,,,,,,,,,,,,,,,896.3768255459145,None,897.9097629208118,None,899.2933270060457,None,take,899.2933270060457,None,return,4.90833213692531,899.3766996292397,None,,,,,,,,,,,,,,,,,,,,,,,,,,,,,,,,,,,,,,,88,001,2023_Apr_27_1719,SpeechDraft1Carolyn_lessNoise_PlusLocalization,2021.2.3,60.00740084803859,
dumb.wav,dumb.mpg,dumb,3,AV,Pink_Noise_3_1.wav,Pink_Noise_3_2.wav,,,,,,,,,,,,,,,0,91,91,99,,,,,,,,,,,,,,,,,,,,,,,904.3100699409842,None,905.8263642848469,None,907.2098996271379,None,dumb,907.2098996271379,None,return,4.759573821909726,907.2933687502518,None,,,,,,,,,,,,,,,,,,,,,,,,,,,,,,,,,,,,,,,88,001,2023_Apr_27_1719,SpeechDraft1Carolyn_lessNoise_PlusLocalization,2021.2.3,60.00740084803859,
bank.wav,bank.mpg,bank,4,AV,Pink_Noise_4_1.wav,Pink_Noise_4_2.wav,,,,,,,,,,,,,,,0,92,92,82,,,,,,,,,,,,,,,,,,,,,,,912.0766962999478,None,913.5930452449247,None,914.9599698609672,None,"beg
",914.9599698609672,None,return,3.8015598277561367,915.0433973791078,None,,,,,,,,,,,,,,,,,,,,,,,,,,,,,,,,,,,,,,,88,001,2023_Apr_27_1719,SpeechDraft1Carolyn_lessNoise_PlusLocalization,2021.2.3,60.00740084803859,
dry.wav,dry.mpg,dry,6,A,Pink_Noise_6_1.wav,Pink_Noise_6_2.wav,,,,,,,,,,,,,,,0,93,93,48,,,,,,,,,,,,,,,,,,,,,,,918.8766942261718,None,920.3931104461662,None,921.7768617370166,None,slag,921.7768617370166,None,return,10.241018523927778,921.8600472141989,None,,,,,,,,,,,,,,,,,,,,,,,,,,,,,,,,,,,,,,,88,001,2023_Apr_27_1719,SpeechDraft1Carolyn_lessNoise_PlusLocalization,2021.2.3,60.00740084803859,
slush.wav,slush.mpg,slush,2,A,Pink_Noise_2_1.wav,Pink_Noise_2_2.wav,,,,,,,,,,,,,,,0,94,94,38,,,,,,,,,,,,,,,,,,,,,,,932.1267197979614,None,933.643159260042,None,935.0267165158875,None,slush,935.0267165158875,None,return,4.542891543824226,935.1100789518096,None,,,,,,,,,,,,,,,,,,,,,,,,,,,,,,,,,,,,,,,88,001,2023_Apr_27_1719,SpeechDraft1Carolyn_lessNoise_PlusLocalization,2021.2.3,60.00740084803859,
cash.wav,cash.mpg,cash,4,A,Pink_Noise_4_1.wav,Pink_Noise_4_2.wav,,,,,,,,,,,,,,,0,95,95,33,,,,,,,,,,,,,,,,,,,,,,,939.6768177119084,None,941.1930054090917,None,942.5768668232486,None,cash,942.5768668232486,None,return,3.4969817539677024,942.6600678819232,None,,,,,,,,,,,,,,,,,,,,,,,,,,,,,,,,,,,,,,,88,001,2023_Apr_27_1719,SpeechDraft1Carolyn_lessNoise_PlusLocalization,2021.2.3,60.00740084803859,
priest.wav,priest.mpg,priest,2,A,Pink_Noise_2_1.wav,Pink_Noise_2_2.wav,,,,,,,,,,,,,,,0,96,96,40,,,,,,,,,,,,,,,,,,,,,,,946.1769449589774,None,947.6764779537916,None,949.0600840738043,None,"priest
",949.0600840738043,None,return,4.653515246231109,949.1434315280057,None,,,,,,,,,,,,,,,,,,,,,,,,,,,,,,,,,,,,,,,88,001,2023_Apr_27_1719,SpeechDraft1Carolyn_lessNoise_PlusLocalization,2021.2.3,60.00740084803859,
gas.wav,gas.mpg,gas,5,AV,Pink_Noise_5_1.wav,Pink_Noise_5_2.wav,,,,,,,,,,,,,,,0,97,97,108,,,,,,,,,,,,,,,,,,,,,,,953.8268240769394,None,955.343109253794,None,956.726712517906,None,get,956.726712517906,None,return,8.298983410000801,956.810073284898,None,,,,,,,,,,,,,,,,,,,,,,,,,,,,,,,,,,,,,,,88,001,2023_Apr_27_1719,SpeechDraft1Carolyn_lessNoise_PlusLocalization,2021.2.3,60.00740084803859,
coast.wav,coast.mpg,coast,3,AV,Pink_Noise_3_1.wav,Pink_Noise_3_2.wav,,,,,,,,,,,,,,,0,98,98,103,,,,,,,,,,,,,,,,,,,,,,,965.1268540602177,None,966.6433628499508,None,968.0266729430296,None,host,968.0266729430296,None,return,2.942936023697257,968.1100433277898,None,,,,,,,,,,,,,,,,,,,,,,,,,,,,,,,,,,,,,,,88,001,2023_Apr_27_1719,SpeechDraft1Carolyn_lessNoise_PlusLocalization,2021.2.3,60.00740084803859,
pact.wav,pact.mpg,pact,3,A,Pink_Noise_3_1.wav,Pink_Noise_3_2.wav,,,,,,,,,,,,,,,0,99,99,51,,,,,,,,,,,,,,,,,,,,,,,971.0767569527961,None,972.5932619301602,None,973.976869114209,None,pact,973.976869114209,None,return,3.3928486350923777,974.0600939518772,None,,,,,,,,,,,,,,,,,,,,,,,,,,,,,,,,,,,,,,,88,001,2023_Apr_27_1719,SpeechDraft1Carolyn_lessNoise_PlusLocalization,2021.2.3,60.00740084803859,
cow.wav,cow.mpg,cow,6,AV,Pink_Noise_6_1.wav,Pink_Noise_6_2.wav,,,,,,,,,,,,,,,0,100,100,62,,,,,,,,,,,,,,,,,,,,,,,977.4768373351544,None,979.026738430839,None,980.4101416910999,None,high,980.4101416910999,None,return,11.175515437033027,980.4935038220137,None,,,,,,,,,,,,,,,,,,,,,,,,,,,,,,,,,,,,,,,88,001,2023_Apr_27_1719,SpeechDraft1Carolyn_lessNoise_PlusLocalization,2021.2.3,60.00740084803859,
catch.wav,catch.mpg,catch,3,A,Pink_Noise_3_1.wav,Pink_Noise_3_2.wav,,,,,,,,,,,,,,,0,101,101,49,,,,,,,,,,,,,,,,,,,,,,,991.6935118520632,None,993.1944555412047,None,994.5768644418567,None,carch,994.5768644418567,None,return,10.264936505816877,994.6601037248038,None,,,,,,,,,,,,,,,,,,,,,,,,,,,,,,,,,,,,,,,88,001,2023_Apr_27_1719,SpeechDraft1Carolyn_lessNoise_PlusLocalization,2021.2.3,60.00740084803859,
glare.wav,glare.mpg,glare,2,AV,Pink_Noise_2_1.wav,Pink_Noise_2_2.wav,,,,,,,,,,,,,,,0,102,102,87,,,,,,,,,,,,,,,,,,,,,,,1004.9434712501243,None,1006.4599567302503,None,1007.8434398118407,None,glare,1007.8434398118407,None,return,4.038139438256621,1007.9268508171663,None,,,,,,,,,,,,,,,,,,,,,,,,,,,,,,,,,,,,,,,88,001,2023_Apr_27_1719,SpeechDraft1Carolyn_lessNoise_PlusLocalization,2021.2.3,60.00740084803859,
grape.wav,grape.mpg,grape,6,AV,Pink_Noise_6_1.wav,Pink_Noise_6_2.wav,,,,,,,,,,,,,,,0,103,103,79,,,,,,,,,,,,,,,,,,,,,,,1011.9936361010186,None,1013.4934287997894,None,1014.8767874580808,None,"rodent
",1014.8767874580808,None,return,3.852715308777988,1014.9602371319197,None,,,,,,,,,,,,,,,,,,,,,,,,,,,,,,,,,,,,,,,88,001,2023_Apr_27_1719,SpeechDraft1Carolyn_lessNoise_PlusLocalization,2021.2.3,60.00740084803859,
count.wav,count.mpg,count,3,AV,Pink_Noise_3_1.wav,Pink_Noise_3_2.wav,,,,,,,,,,,,,,,0,104,104,77,,,,,,,,,,,,,,,,,,,,,,,1018.8435298609547,None,1020.3931279592216,None,1021.7767094587907,None,jelt,1021.7767094587907,None,return,4.192603937815875,1021.8603636082262,None,,,,,,,,,,,,,,,,,,,,,,,,,,,,,,,,,,,,,,,88,001,2023_Apr_27_1719,SpeechDraft1Carolyn_lessNoise_PlusLocalization,2021.2.3,60.00740084803859,
flex.wav,flex.mpg,flex,1,A,Pink_Noise_1_1.wav,Pink_Noise_1_2.wav,,,,,,,,,,,,,,,0,105,105,57,,,,,,,,,,,,,,,,,,,,,,,1026.0768607980572,None,1027.5931844762526,None,1028.9768914291635,None,"flex
",1028.9768914291635,None,return,3.7527215839363635,1029.060227625072,None,,,,,,,,,,,,,,,,,,,,,,,,,,,,,,,,,,,,,,,88,001,2023_Apr_27_1719,SpeechDraft1Carolyn_lessNoise_PlusLocalization,2021.2.3,60.00740084803859,
date.wav,date.mpg,date,2,AV,Pink_Noise_2_1.wav,Pink_Noise_2_2.wav,,,,,,,,,,,,,,,0,106,106,66,,,,,,,,,,,,,,,,,,,,,,,1032.8434975780547,None,1034.3599517350085,None,1035.7434125212021,None,"date
",1035.7434125212021,None,return,2.2500225380063057,1035.8269476438873,None,,,,,,,,,,,,,,,,,,,,,,,,,,,,,,,,,,,,,,,88,001,2023_Apr_27_1719,SpeechDraft1Carolyn_lessNoise_PlusLocalization,2021.2.3,60.00740084803859,
friend.wav,friend.mpg,friend,2,AV,Pink_Noise_2_1.wav,Pink_Noise_2_2.wav,,,,,,,,,,,,,,,0,107,107,89,,,,,,,,,,,,,,,,,,,,,,,1038.110267672222,None,1039.611669485923,None,1040.9935922841541,None,freind,1040.9935922841541,None,return,3.4241595887579024,1041.076861871872,None,,,,,,,,,,,,,,,,,,,,,,,,,,,,,,,,,,,,,,,88,001,2023_Apr_27_1719,SpeechDraft1Carolyn_lessNoise_PlusLocalization,2021.2.3,60.00740084803859,
gross.wav,gross.mpg,gross,4,AV,Pink_Noise_4_1.wav,Pink_Noise_4_2.wav,,,,,,,,,,,,,,,0,108,108,97,,,,,,,,,,,,,,,,,,,,,,,1044.5269896001555,None,1046.043276980985,None,1047.4267589128576,None,roast,1047.4267589128576,None,return,3.5107300747185946,1047.510224821046,None,,,,,,,,,,,,,,,,,,,,,,,,,,,,,,,,,,,,,,,88,001,2023_Apr_27_1719,SpeechDraft1Carolyn_lessNoise_PlusLocalization,2021.2.3,60.00740084803859,
dove.wav,dove.mpg,dove,4,A,Pink_Noise_4_1.wav,Pink_Noise_4_2.wav,,,,,,,,,,,,,,,0,109,109,56,,,,,,,,,,,,,,,,,,,,,,,1051.0436705108732,None,1052.5600175238214,None,1053.9435742450878,None,duck,1053.9435742450878,None,return,3.0979063496924937,1054.027051257901,None,,,,,,,,,,,,,,,,,,,,,,,,,,,,,,,,,,,,,,,88,001,2023_Apr_27_1719,SpeechDraft1Carolyn_lessNoise_PlusLocalization,2021.2.3,60.00740084803859,
cheek.wav,cheek.mpg,cheek,2,AV,Pink_Noise_2_1.wav,Pink_Noise_2_2.wav,,,,,,,,,,,,,,,0,110,110,105,,,,,,,,,,,,,,,,,,,,,,,1057.1436128858477,None,1058.6766942059621,None,1060.0600988101214,None,chek,1060.0600988101214,None,return,3.8054781779646873,1060.1435589729808,None,,,,,,,,,,,,,,,,,,,,,,,,,,,,,,,,,,,,,,,88,001,2023_Apr_27_1719,SpeechDraft1Carolyn_lessNoise_PlusLocalization,2021.2.3,60.00740084803859,
drop.wav,drop.mpg,drop,3,A,Pink_Noise_3_1.wav,Pink_Noise_3_2.wav,,,,,,,,,,,,,,,0,111,111,58,,,,,,,,,,,,,,,,,,,,,,,1063.976954346057,None,1065.493164158892,None,1066.8769431901164,None,drive,1066.8769431901164,None,return,4.1889120899140835,1066.9602634911425,None,,,,,,,,,,,,,,,,,,,,,,,,,,,,,,,,,,,,,,,88,001,2023_Apr_27_1719,SpeechDraft1Carolyn_lessNoise_PlusLocalization,2021.2.3,60.00740084803859,
dwell.wav,dwell.mpg,dwell,6,AV,Pink_Noise_6_1.wav,Pink_Noise_6_2.wav,,,,,,,,,,,,,,,0,112,112,78,,,,,,,,,,,,,,,,,,,,,,,1071.1769360681064,None,1072.709937196225,None,1074.0935867200606,None,way,1074.0935867200606,None,return,2.2280344739556313,1074.1769130430184,None,,,,,,,,,,,,,,,,,,,,,,,,,,,,,,,,,,,,,,,88,001,2023_Apr_27_1719,SpeechDraft1Carolyn_lessNoise_PlusLocalization,2021.2.3,60.00740084803859,
code.wav,code.mpg,code,1,A,Pink_Noise_1_1.wav,Pink_Noise_1_2.wav,,,,,,,,,,,,,,,0,113,113,5,,,,,,,,,,,,,,,,,,,,,,,1076.4269416569732,None,1077.9766467758454,None,1079.3602378051728,None,code,1079.3602378051728,None,return,3.8895580298267305,1079.443553222809,None,,,,,,,,,,,,,,,,,,,,,,,,,,,,,,,,,,,,,,,88,001,2023_Apr_27_1719,SpeechDraft1Carolyn_lessNoise_PlusLocalization,2021.2.3,60.00740084803859,
warmth.wav,warmth.mpg,warmth,4,A,Pink_Noise_4_1.wav,Pink_Noise_4_2.wav,,,,,,,,,,,,,,,0,114,114,22,,,,,,,,,,,,,,,,,,,,,,,1083.3602162417956,None,1084.893385746982,None,1086.2771089500748,None,"warp
",1086.2771089500748,None,return,1.8526777341030538,1086.360289862845,None,,,,,,,,,,,,,,,,,,,,,,,,,,,,,,,,,,,,,,,88,001,2023_Apr_27_1719,SpeechDraft1Carolyn_lessNoise_PlusLocalization,2021.2.3,60.00740084803859,
flow.wav,flow.mpg,flow,1,AV,Pink_Noise_1_1.wav,Pink_Noise_1_2.wav,,,,,,,,,,,,,,,0,115,115,95,,,,,,,,,,,,,,,,,,,,,,,1088.243596359156,None,1089.7600476229563,None,1091.143502654042,None,flow,1091.143502654042,None,return,3.842012064065784,1091.2269251761027,None,,,,,,,,,,,,,,,,,,,,,,,,,,,,,,,,,,,,,,,88,001,2023_Apr_27_1719,SpeechDraft1Carolyn_lessNoise_PlusLocalization,2021.2.3,60.00740084803859,
fill.wav,fill.mpg,fill,6,A,Pink_Noise_6_1.wav,Pink_Noise_6_2.wav,,,,,,,,,,,,,,,0,116,116,34,,,,,,,,,,,,,,,,,,,,,,,1095.0936107919551,None,1096.6100070090033,None,1097.9935924969614,None,set,1097.9935924969614,None,return,5.272162347566336,1098.0768994628452,None,,,,,,,,,,,,,,,,,,,,,,,,,,,,,,,,,,,,,,,88,001,2023_Apr_27_1719,SpeechDraft1Carolyn_lessNoise_PlusLocalization,2021.2.3,60.00740084803859,
goose.wav,goose.mpg,goose,6,A,Pink_Noise_6_1.wav,Pink_Noise_6_2.wav,,,,,,,,,,,,,,,0,117,117,41,,,,,,,,,,,,,,,,,,,,,,,1103.3770217620768,None,1104.9101819288917,None,1106.2936165430583,None,"reach
",1106.2936165430583,None,return,3.884005683939904,1106.3769452939741,None,,,,,,,,,,,,,,,,,,,,,,,,,,,,,,,,,,,,,,,88,001,2023_Apr_27_1719,SpeechDraft1Carolyn_lessNoise_PlusLocalization,2021.2.3,60.00740084803859,
grasp.wav,grasp.mpg,grasp,6,A,Pink_Noise_6_1.wav,Pink_Noise_6_2.wav,,,,,,,,,,,,,,,0,118,118,9,,,,,,,,,,,,,,,,,,,,,,,1110.2937023262493,None,1111.8112589721568,None,1113.193614452146,None,"drive
",1113.193614452146,None,return,3.7359200436621904,1113.2770394049585,None,,,,,,,,,,,,,,,,,,,,,,,,,,,,,,,,,,,,,,,88,001,2023_Apr_27_1719,SpeechDraft1Carolyn_lessNoise_PlusLocalization,2021.2.3,60.00740084803859,
bare.wav,bare.mpg,bare,3,A,Pink_Noise_3_1.wav,Pink_Noise_3_2.wav,,,,,,,,,,,,,,,0,119,119,59,,,,,,,,,,,,,,,,,,,,,,,1117.0436166422442,None,1118.5766212842427,None,1119.9603972439654,None,bear,1119.9603972439654,None,return,2.097322335932404,1120.043653830886,None,,,,,,,,,,,,,,,,,,,,,,,,,,,,,,,,,,,,,,,88,001,2023_Apr_27_1719,SpeechDraft1Carolyn_lessNoise_PlusLocalization,2021.2.3,60.00740084803859,
,,,,,,,,,,,,,,,,,,,,,,,,,,,,,,,,,,,,,,,,,,,,,,,,,,,,,,,,,,,,,,,,,,space,11.98528284439817,1122.2436782508157,None,,,,,,,,,,,,,,,,,,,,,,,,,,,,,88,001,2023_Apr_27_1719,SpeechDraft1Carolyn_lessNoise_PlusLocalization,2021.2.3,60.00740084803859,
,,,,,,,,nearLeft,-6.5,1,ch1Sound_localizationTask.wav,-6.5,"(857, 878)","(-103,-202)",-95,-338,,,,,,,,,0,0,0,2,,,,,,,,,,,,,,,,,,,,,,,,,,,,,,,,,,,,,,,,,,1122.2436782508157,None,1134.2768093561754,None,1135.3767592851073,None,1136.3101752158254,None,1.0751322751322752,4.3526385528966784,1136.3101752158254,None,,,,,,,,,,,,,,,,,88,001,2023_Apr_27_1719,SpeechDraft1Carolyn_lessNoise_PlusLocalization,2021.2.3,60.00740084803859,
,,,,,,,,midRight,13.0,3,ch1Sound_localizationTask.wav,13.0,"(1142, 878)","(182, -202)",190,-338,,,,,,,,,0,1,1,5,,,,,,,,,,,,,,,,,,,,,,,,,,,,,,,,,,,,,,,,,,,,1140.6771501731128,None,1141.7767162891105,None,1142.7100366079248,None,1.655026455026455,2.1324234562925994,1142.7100366079248,None,,,,,,,,,,,,,,,,,88,001,2023_Apr_27_1719,SpeechDraft1Carolyn_lessNoise_PlusLocalization,2021.2.3,60.00740084803859,
,,,,,,,,center,0.0,6,ch1Sound_localizationTask.wav,0.0,"(952, 878)","(-8,-202)",0,-338,,,,,,,,,0,2,2,3,,,,,,,,,,,,,,,,,,,,,,,,,,,,,,,,,,,,,,,,,,,,1144.843778197188,None,1145.9433822110295,None,1146.8768066759221,None,1.5005291005291004,0.6669838111847639,1146.8768066759221,None,,,,,,,,,,,,,,,,,88,001,2023_Apr_27_1719,SpeechDraft1Carolyn_lessNoise_PlusLocalization,2021.2.3,60.00740084803859,
,,,,,,,,midRight,13.0,3,ch1Sound_localizationTask.wav,13.0,"(1142, 878)","(182, -202)",190,-338,,,,,,,,,0,3,3,5,,,,,,,,,,,,,,,,,,,,,,,,,,,,,,,,,,,,,,,,,,,,1147.5442671142519,None,1148.6433426528238,None,1149.5767784491181,None,1.7132275132275132,0.7008745288476348,1149.5767784491181,None,,,,,,,,,,,,,,,,,88,001,2023_Apr_27_1719,SpeechDraft1Carolyn_lessNoise_PlusLocalization,2021.2.3,60.00740084803859,
,,,,,,,,midRight,13.0,3,ch1Sound_localizationTask.wav,13.0,"(1142, 878)","(182, -202)",190,-338,,,,,,,,,0,4,4,5,,,,,,,,,,,,,,,,,,,,,,,,,,,,,,,,,,,,,,,,,,,,1150.2936927378178,None,1151.3934507179074,None,1152.3266886412166,None,1.6555555555555554,0.6337454537861049,1152.3266886412166,None,,,,,,,,,,,,,,,,,88,001,2023_Apr_27_1719,SpeechDraft1Carolyn_lessNoise_PlusLocalization,2021.2.3,60.00740084803859,
,,,,,,,,farLeft,-19.1,5,ch1Sound_localizationTask.wav,-19.1,"(667, 878)","(-293,-202)",-285,-338,,,,,,,,,0,5,5,0,,,,,,,,,,,,,,,,,,,,,,,,,,,,,,,,,,,,,,,,,,,,1152.977047463879,None,1154.0769158559851,None,1155.0101430751383,None,1.055026455026455,1.767330550123006,1155.0101430751383,None,,,,,,,,,,,,,,,,,88,001,2023_Apr_27_1719,SpeechDraft1Carolyn_lessNoise_PlusLocalization,2021.2.3,60.00740084803859,
,,,,,,,,farRight,19.1,4,ch1Sound_localizationTask.wav,19.1,"(1237, 878)","(277,-202)",285,-338,,,,,,,,,0,6,6,6,,,,,,,,,,,,,,,,,,,,,,,,,,,,,,,,,,,,,,,,,,,,1156.7937291911803,None,1157.8932583988644,None,1158.8268240690231,None,1.8100529100529101,1.6505519966594875,1158.8268240690231,None,,,,,,,,,,,,,,,,,88,001,2023_Apr_27_1719,SpeechDraft1Carolyn_lessNoise_PlusLocalization,2021.2.3,60.00740084803859,
,,,,,,,,midLeft,-13.0,2,ch1Sound_localizationTask.wav,-13.0,"(762, 878)","(-198,-202)",-190,-338,,,,,,,,,1,0,7,1,,,,,,,,,,,,,,,,,,,,,,,,,,,,,,,,,,,,,,,,,,,,1160.493673345074,None,1161.5934141362086,None,1162.5268254908733,None,1.3148148148148149,0.9502751277759671,1162.5268254908733,None,,,,,,,,,,,,,,,,,88,001,2023_Apr_27_1719,SpeechDraft1Carolyn_lessNoise_PlusLocalization,2021.2.3,60.00740084803859,
,,,,,,,,midLeft,-13.0,2,ch1Sound_localizationTask.wav,-13.0,"(762, 878)","(-198,-202)",-190,-338,,,,,,,,,1,1,8,1,,,,,,,,,,,,,,,,,,,,,,,,,,,,,,,,,,,,,,,,,,,,1163.4938519578427,None,1164.5934762512334,None,1165.5268411068246,None,1.3153439153439153,0.9339432478882372,1165.5268411068246,None,,,,,,,,,,,,,,,,,88,001,2023_Apr_27_1719,SpeechDraft1Carolyn_lessNoise_PlusLocalization,2021.2.3,60.00740084803859,
,,,,,,,,nearRight,6.5,0,ch1Sound_localizationTask.wav,6.5,"(1047, 878)","(87, -202)",95,-338,,,,,,,,,1,2,9,4,,,,,,,,,,,,,,,,,,,,,,,,,,,,,,,,,,,,,,,,,,,,1166.4772128290497,None,1167.576743497979,None,1168.510129766073,None,1.5666666666666667,0.8834025007672608,1168.510129766073,None,,,,,,,,,,,,,,,,,88,001,2023_Apr_27_1719,SpeechDraft1Carolyn_lessNoise_PlusLocalization,2021.2.3,60.00740084803859,
,,,,,,,,farLeft,-19.1,5,ch1Sound_localizationTask.wav,-19.1,"(667, 878)","(-293,-202)",-285,-338,,,,,,,,,1,3,10,0,,,,,,,,,,,,,,,,,,,,,,,,,,,,,,,,,,,,,,,,,,,,1169.3956422191113,None,1170.5100429221056,None,1171.4267750722356,None,1.33015873015873,0.6180196520872414,1171.4267750722356,None,,,,,,,,,,,,,,,,,88,001,2023_Apr_27_1719,SpeechDraft1Carolyn_lessNoise_PlusLocalization,2021.2.3,60.00740084803859,
,,,,,,,,farLeft,-19.1,5,ch1Sound_localizationTask.wav,-19.1,"(667, 878)","(-293,-202)",-285,-338,,,,,,,,,1,4,11,0,,,,,,,,,,,,,,,,,,,,,,,,,,,,,,,,,,,,,,,,,,,,1172.0604145661928,None,1173.160101601854,None,1174.093465482816,None,1.3365079365079366,0.6668020882643759,1174.093465482816,None,,,,,,,,,,,,,,,,,88,001,2023_Apr_27_1719,SpeechDraft1Carolyn_lessNoise_PlusLocalization,2021.2.3,60.00740084803859,
,,,,,,,,nearRight,6.5,0,ch1Sound_localizationTask.wav,6.5,"(1047, 878)","(87, -202)",95,-338,,,,,,,,,1,5,12,4,,,,,,,,,,,,,,,,,,,,,,,,,,,,,,,,,,,,,,,,,,,,1174.7770993332379,None,1175.8766465731896,None,1176.8102071662433,None,1.538095238095238,0.8327122237533331,1176.8102071662433,None,,,,,,,,,,,,,,,,,88,001,2023_Apr_27_1719,SpeechDraft1Carolyn_lessNoise_PlusLocalization,2021.2.3,60.00740084803859,
,,,,,,,,nearRight,6.5,0,ch1Sound_localizationTask.wav,6.5,"(1047, 878)","(87, -202)",95,-338,,,,,,,,,1,6,13,4,,,,,,,,,,,,,,,,,,,,,,,,,,,,,,,,,,,,,,,,,,,,1177.6440882040188,None,1178.743410510011,None,1179.676703079138,None,1.4693121693121693,0.49938685027882457,1179.676703079138,None,,,,,,,,,,,,,,,,,88,001,2023_Apr_27_1719,SpeechDraft1Carolyn_lessNoise_PlusLocalization,2021.2.3,60.00740084803859,
,,,,,,,,nearLeft,-6.5,1,ch1Sound_localizationTask.wav,-6.5,"(857, 878)","(-103,-202)",-95,-338,,,,,,,,,2,0,14,2,,,,,,,,,,,,,,,,,,,,,,,,,,,,,,,,,,,,,,,,,,,,1180.1787743438035,None,1181.2933705272153,None,1182.2101984731853,None,1.506878306878307,0.5335565060377121,1182.2101984731853,None,,,,,,,,,,,,,,,,,88,001,2023_Apr_27_1719,SpeechDraft1Carolyn_lessNoise_PlusLocalization,2021.2.3,60.00740084803859,
,,,,,,,,farRight,19.1,4,ch1Sound_localizationTask.wav,19.1,"(1237, 878)","(277,-202)",285,-338,,,,,,,,,2,1,15,6,,,,,,,,,,,,,,,,,,,,,,,,,,,,,,,,,,,,,,,,,,,,1182.760325315874,None,1183.8602045262232,None,1184.79345448222,None,1.615873015873016,0.6659481902606785,1184.79345448222,None,,,,,,,,,,,,,,,,,88,001,2023_Apr_27_1719,SpeechDraft1Carolyn_lessNoise_PlusLocalization,2021.2.3,60.00740084803859,
,,,,,,,,midRight,13.0,3,ch1Sound_localizationTask.wav,13.0,"(1142, 878)","(182, -202)",190,-338,,,,,,,,,2,2,16,5,,,,,,,,,,,,,,,,,,,,,,,,,,,,,,,,,,,,,,,,,,,,1185.4610439850949,None,1186.560071525164,None,1187.4933666358702,None,1.5629629629629629,0.5833882326260209,1187.4933666358702,None,,,,,,,,,,,,,,,,,88,001,2023_Apr_27_1719,SpeechDraft1Carolyn_lessNoise_PlusLocalization,2021.2.3,60.00740084803859,
,,,,,,,,nearLeft,-6.5,1,ch1Sound_localizationTask.wav,-6.5,"(857, 878)","(-103,-202)",-95,-338,,,,,,,,,2,3,17,2,,,,,,,,,,,,,,,,,,,,,,,,,,,,,,,,,,,,,,,,,,,,1188.0777119221166,None,1189.1767853610218,None,1190.1102612991817,None,1.4396825396825397,0.6496388642117381,1190.1102612991817,None,,,,,,,,,,,,,,,,,88,001,2023_Apr_27_1719,SpeechDraft1Carolyn_lessNoise_PlusLocalization,2021.2.3,60.00740084803859,
,,,,,,,,center,0.0,6,ch1Sound_localizationTask.wav,0.0,"(952, 878)","(-8,-202)",0,-338,,,,,,,,,2,4,18,3,,,,,,,,,,,,,,,,,,,,,,,,,,,,,,,,,,,,,,,,,,,,1190.7614672491327,None,1191.8767624688335,None,1192.793463325128,None,1.5015873015873016,0.5497789760120213,1192.793463325128,None,,,,,,,,,,,,,,,,,88,001,2023_Apr_27_1719,SpeechDraft1Carolyn_lessNoise_PlusLocalization,2021.2.3,60.00740084803859,
,,,,,,,,farLeft,-19.1,5,ch1Sound_localizationTask.wav,-19.1,"(667, 878)","(-293,-202)",-285,-338,,,,,,,,,2,5,19,0,,,,,,,,,,,,,,,,,,,,,,,,,,,,,,,,,,,,,,,,,,,,1193.344616738148,None,1194.4434587378055,None,1195.3769200770184,None,1.2312169312169312,0.6526739690452814,1195.3769200770184,None,,,,,,,,,,,,,,,,,88,001,2023_Apr_27_1719,SpeechDraft1Carolyn_lessNoise_PlusLocalization,2021.2.3,60.00740084803859,
,,,,,,,,midRight,13.0,3,ch1Sound_localizationTask.wav,13.0,"(1142, 878)","(182, -202)",190,-338,,,,,,,,,2,6,20,5,,,,,,,,,,,,,,,,,,,,,,,,,,,,,,,,,,,,,,,,,,,,1196.0436938581988,None,1197.1434585531242,None,1198.0768782580271,None,1.5576719576719578,0.7996206181123853,1198.0768782580271,None,,,,,,,,,,,,,,,,,88,001,2023_Apr_27_1719,SpeechDraft1Carolyn_lessNoise_PlusLocalization,2021.2.3,60.00740084803859,
,,,,,,,,midRight,13.0,3,ch1Sound_localizationTask.wav,13.0,"(1142, 878)","(182, -202)",190,-338,,,,,,,,,3,0,21,5,,,,,,,,,,,,,,,,,,,,,,,,,,,,,,,,,,,,,,,,,,,,1198.8779362719506,None,1199.9768270668574,None,1200.9101047660224,None,1.5349206349206348,0.6997254216112196,1200.9101047660224,None,,,,,,,,,,,,,,,,,88,001,2023_Apr_27_1719,SpeechDraft1Carolyn_lessNoise_PlusLocalization,2021.2.3,60.00740084803859,
,,,,,,,,farRight,19.1,4,ch1Sound_localizationTask.wav,19.1,"(1237, 878)","(277,-202)",285,-338,,,,,,,,,3,1,22,6,,,,,,,,,,,,,,,,,,,,,,,,,,,,,,,,,,,,,,,,,,,,1201.6107538389042,None,1202.7100818492472,None,1203.6435698550195,None,1.5544973544973546,0.5166698689572513,1203.6435698550195,None,,,,,,,,,,,,,,,,,88,001,2023_Apr_27_1719,SpeechDraft1Carolyn_lessNoise_PlusLocalization,2021.2.3,60.00740084803859,
,,,,,,,,nearRight,6.5,0,ch1Sound_localizationTask.wav,6.5,"(1047, 878)","(87, -202)",95,-338,,,,,,,,,3,2,23,4,,,,,,,,,,,,,,,,,,,,,,,,,,,,,,,,,,,,,,,,,,,,1204.1612030300312,None,1205.260104346089,None,1206.1935623162426,None,1.434920634920635,0.45157275488600135,1206.1935623162426,None,,,,,,,,,,,,,,,,,88,001,2023_Apr_27_1719,SpeechDraft1Carolyn_lessNoise_PlusLocalization,2021.2.3,60.00740084803859,
,,,,,,,,center,0.0,6,ch1Sound_localizationTask.wav,0.0,"(952, 878)","(-8,-202)",0,-338,,,,,,,,,3,3,24,3,,,,,,,,,,,,,,,,,,,,,,,,,,,,,,,,,,,,,,,,,,,,1206.660478422884,None,1207.7602114561014,None,1208.6935142828152,None,1.502116402116402,0.4824393168091774,1208.6935142828152,None,,,,,,,,,,,,,,,,,88,001,2023_Apr_27_1719,SpeechDraft1Carolyn_lessNoise_PlusLocalization,2021.2.3,60.00740084803859,
,,,,,,,,center,0.0,6,ch1Sound_localizationTask.wav,0.0,"(952, 878)","(-8,-202)",0,-338,,,,,,,,,3,4,25,3,,,,,,,,,,,,,,,,,,,,,,,,,,,,,,,,,,,,,,,,,,,,1209.1770965838805,None,1210.2768605351448,None,1211.2102403640747,None,1.502116402116402,0.46702553099021316,1211.2102403640747,None,,,,,,,,,,,,,,,,,88,001,2023_Apr_27_1719,SpeechDraft1Carolyn_lessNoise_PlusLocalization,2021.2.3,60.00740084803859,
,,,,,,,,nearRight,6.5,0,ch1Sound_localizationTask.wav,6.5,"(1047, 878)","(87, -202)",95,-338,,,,,,,,,3,5,26,4,,,,,,,,,,,,,,,,,,,,,,,,,,,,,,,,,,,,,,,,,,,,1211.6778696589172,None,1212.7769360421225,None,1213.7102666329592,None,1.5026455026455028,0.4504297589883208,1213.7102666329592,None,,,,,,,,,,,,,,,,,88,001,2023_Apr_27_1719,SpeechDraft1Carolyn_lessNoise_PlusLocalization,2021.2.3,60.00740084803859,
,,,,,,,,midLeft,-13.0,2,ch1Sound_localizationTask.wav,-13.0,"(762, 878)","(-198,-202)",-190,-338,,,,,,,,,3,6,27,1,,,,,,,,,,,,,,,,,,,,,,,,,,,,,,,,,,,,,,,,,,,,1214.16147467494,None,1215.2602462330833,None,1216.1935653579421,None,1.3333333333333333,0.634416711051017,1216.1935653579421,None,,,,,,,,,,,,,,,,,88,001,2023_Apr_27_1719,SpeechDraft1Carolyn_lessNoise_PlusLocalization,2021.2.3,60.00740084803859,
,,,,,,,,midLeft,-13.0,2,ch1Sound_localizationTask.wav,-13.0,"(762, 878)","(-198,-202)",-190,-338,,,,,,,,,4,0,28,1,,,,,,,,,,,,,,,,,,,,,,,,,,,,,,,,,,,,,,,,,,,,1216.8436686401255,None,1217.9434926370159,None,1218.8768452592194,None,1.3825396825396825,0.516686521936208,1218.8768452592194,None,,,,,,,,,,,,,,,,,88,001,2023_Apr_27_1719,SpeechDraft1Carolyn_lessNoise_PlusLocalization,2021.2.3,60.00740084803859,
,,,,,,,,nearLeft,-6.5,1,ch1Sound_localizationTask.wav,-6.5,"(857, 878)","(-103,-202)",-95,-338,,,,,,,,,4,1,29,2,,,,,,,,,,,,,,,,,,,,,,,,,,,,,,,,,,,,,,,,,,,,1219.3943393342197,None,1220.493447943125,None,1221.4269366441295,None,1.3820105820105821,0.4659686381928623,1221.4269366441295,None,,,,,,,,,,,,,,,,,88,001,2023_Apr_27_1719,SpeechDraft1Carolyn_lessNoise_PlusLocalization,2021.2.3,60.00740084803859,
,,,,,,,,midLeft,-13.0,2,ch1Sound_localizationTask.wav,-13.0,"(762, 878)","(-198,-202)",-190,-338,,,,,,,,,4,2,30,1,,,,,,,,,,,,,,,,,,,,,,,,,,,,,,,,,,,,,,,,,,,,1221.8943037302233,None,1222.9935618331656,None,1223.9269056948833,None,1.3492063492063493,0.632594944909215,1223.9269056948833,None,,,,,,,,,,,,,,,,,88,001,2023_Apr_27_1719,SpeechDraft1Carolyn_lessNoise_PlusLocalization,2021.2.3,60.00740084803859,
,,,,,,,,nearLeft,-6.5,1,ch1Sound_localizationTask.wav,-6.5,"(857, 878)","(-103,-202)",-95,-338,,,,,,,,,4,3,31,2,,,,,,,,,,,,,,,,,,,,,,,,,,,,,,,,,,,,,,,,,,,,1224.5613183220848,None,1225.6601238138974,None,1226.5934457429685,None,1.428042328042328,0.5167121379636228,1226.5934457429685,None,,,,,,,,,,,,,,,,,88,001,2023_Apr_27_1719,SpeechDraft1Carolyn_lessNoise_PlusLocalization,2021.2.3,60.00740084803859,
,,,,,,,,nearRight,6.5,0,ch1Sound_localizationTask.wav,6.5,"(1047, 878)","(87, -202)",95,-338,,,,,,,,,4,4,32,4,,,,,,,,,,,,,,,,,,,,,,,,,,,,,,,,,,,,,,,,,,,,1227.1110189780593,None,1228.210086864885,None,1229.1435848870315,None,1.5328042328042328,0.5323269013315439,1229.1435848870315,None,,,,,,,,,,,,,,,,,88,001,2023_Apr_27_1719,SpeechDraft1Carolyn_lessNoise_PlusLocalization,2021.2.3,60.00740084803859,
,,,,,,,,center,0.0,6,ch1Sound_localizationTask.wav,0.0,"(952, 878)","(-8,-202)",0,-338,,,,,,,,,4,5,33,3,,,,,,,,,,,,,,,,,,,,,,,,,,,,,,,,,,,,,,,,,,,,1229.6776211499237,None,1230.776943048928,None,1231.7101614121348,None,1.4904761904761905,0.7160752471536398,1231.7101614121348,None,,,,,,,,,,,,,,,,,88,001,2023_Apr_27_1719,SpeechDraft1Carolyn_lessNoise_PlusLocalization,2021.2.3,60.00740084803859,
,,,,,,,,farRight,19.1,4,ch1Sound_localizationTask.wav,19.1,"(1237, 878)","(277,-202)",285,-338,,,,,,,,,4,6,34,6,,,,,,,,,,,,,,,,,,,,,,,,,,,,,,,,,,,,,,,,,,,,1232.4280930580571,None,1233.5268170442432,None,1234.4601459349506,None,1.537037037037037,1.3846148308366537,1234.4601459349506,None,,,,,,,,,,,,,,,,,88,001,2023_Apr_27_1719,SpeechDraft1Carolyn_lessNoise_PlusLocalization,2021.2.3,60.00740084803859,
,,,,,,,,farRight,19.1,4,ch1Sound_localizationTask.wav,19.1,"(1237, 878)","(277,-202)",285,-338,,,,,,,,,5,0,35,6,,,,,,,,,,,,,,,,,,,,,,,,,,,,,,,,,,,,,,,,,,,,1235.860711731948,None,1236.9601875310764,None,1237.8935605739243,None,1.6264550264550266,1.4001042912714183,1237.8935605739243,None,,,,,,,,,,,,,,,,,88,001,2023_Apr_27_1719,SpeechDraft1Carolyn_lessNoise_PlusLocalization,2021.2.3,60.00740084803859,
,,,,,,,,midLeft,-13.0,2,ch1Sound_localizationTask.wav,-13.0,"(762, 878)","(-198,-202)",-190,-338,,,,,,,,,5,1,36,1,,,,,,,,,,,,,,,,,,,,,,,,,,,,,,,,,,,,,,,,,,,,1239.2946462151594,None,1240.3934019468725,None,1241.3268617521971,None,1.3021164021164022,1.3517616060562432,1241.3268617521971,None,,,,,,,,,,,,,,,,,88,001,2023_Apr_27_1719,SpeechDraft1Carolyn_lessNoise_PlusLocalization,2021.2.3,60.00740084803859,
,,,,,,,,midRight,13.0,3,ch1Sound_localizationTask.wav,13.0,"(1142, 878)","(182, -202)",190,-338,,,,,,,,,5,2,37,5,,,,,,,,,,,,,,,,,,,,,,,,,,,,,,,,,,,,,,,,,,,,1242.6939992178231,None,1243.7936581699178,None,1244.7269562361762,None,1.6280423280423282,0.9672543392516673,1244.7269562361762,None,,,,,,,,,,,,,,,,,88,001,2023_Apr_27_1719,SpeechDraft1Carolyn_lessNoise_PlusLocalization,2021.2.3,60.00740084803859,
,,,,,,,,midLeft,-13.0,2,ch1Sound_localizationTask.wav,-13.0,"(762, 878)","(-198,-202)",-190,-338,,,,,,,,,5,3,38,1,,,,,,,,,,,,,,,,,,,,,,,,,,,,,,,,,,,,,,,,,,,,1245.7107080570422,None,1246.8101799571887,None,1247.7435522899032,None,1.273015873015873,1.2521985480561852,1247.7435522899032,None,,,,,,,,,,,,,,,,,88,001,2023_Apr_27_1719,SpeechDraft1Carolyn_lessNoise_PlusLocalization,2021.2.3,60.00740084803859,
,,,,,,,,nearLeft,-6.5,1,ch1Sound_localizationTask.wav,-6.5,"(857, 878)","(-103,-202)",-95,-338,,,,,,,,,5,4,39,2,,,,,,,,,,,,,,,,,,,,,,,,,,,,,,,,,,,,,,,,,,,,1249.0105099012144,None,1250.110194735229,None,1251.0435380968265,None,1.4052910052910053,0.7185517656616867,1251.0435380968265,None,,,,,,,,,,,,,,,,,88,001,2023_Apr_27_1719,SpeechDraft1Carolyn_lessNoise_PlusLocalization,2021.2.3,60.00740084803859,
,,,,,,,,farLeft,-19.1,5,ch1Sound_localizationTask.wav,-19.1,"(667, 878)","(-293,-202)",-285,-338,,,,,,,,,5,5,40,0,,,,,,,,,,,,,,,,,,,,,,,,,,,,,,,,,,,,,,,,,,,,1251.7772109508514,None,1252.8769641872495,None,1253.8102422151715,None,1.3613756613756614,0.8334895432926714,1253.8102422151715,None,,,,,,,,,,,,,,,,,88,001,2023_Apr_27_1719,SpeechDraft1Carolyn_lessNoise_PlusLocalization,2021.2.3,60.00740084803859,
,,,,,,,,farLeft,-19.1,5,ch1Sound_localizationTask.wav,-19.1,"(667, 878)","(-293,-202)",-285,-338,,,,,,,,,5,6,41,0,,,,,,,,,,,,,,,,,,,,,,,,,,,,,,,,,,,,,,,,,,,,1254.6604648930952,None,1255.7602146179415,None,1256.693518254906,None,1.3957671957671958,2.4338317960500717,1256.693518254906,None,,,,,,,,,,,,,,,,,88,001,2023_Apr_27_1719,SpeechDraft1Carolyn_lessNoise_PlusLocalization,2021.2.3,60.00740084803859,
,,,,,,,,center,0.0,6,ch1Sound_localizationTask.wav,0.0,"(952, 878)","(-8,-202)",0,-338,,,,,,,,,6,0,42,3,,,,,,,,,,,,,,,,,,,,,,,,,,,,,,,,,,,,,,,,,,,,1259.1283023911528,None,1260.2435081540607,None,1261.1602058918215,None,1.4851851851851852,1.3839648920111358,1261.1602058918215,None,,,,,,,,,,,,,,,,,88,001,2023_Apr_27_1719,SpeechDraft1Carolyn_lessNoise_PlusLocalization,2021.2.3,60.00740084803859,
,,,,,,,,nearRight,6.5,0,ch1Sound_localizationTask.wav,6.5,"(1047, 878)","(87, -202)",95,-338,,,,,,,,,6,1,43,4,,,,,,,,,,,,,,,,,,,,,,,,,,,,,,,,,,,,,,,,,,,,1262.5607215641066,None,1263.660306722857,None,1264.5934439450502,None,1.5513227513227514,0.8161913729272783,1264.5934439450502,None,,,,,,,,,,,,,,,,,88,001,2023_Apr_27_1719,SpeechDraft1Carolyn_lessNoise_PlusLocalization,2021.2.3,60.00740084803859,
,,,,,,,,center,0.0,6,ch1Sound_localizationTask.wav,0.0,"(952, 878)","(-8,-202)",0,-338,,,,,,,,,6,2,44,3,,,,,,,,,,,,,,,,,,,,,,,,,,,,,,,,,,,,,,,,,,,,1265.42718087323,None,1266.5269145420752,None,1267.460196456872,None,1.456084656084656,0.650643961969763,1267.460196456872,None,,,,,,,,,,,,,,,,,88,001,2023_Apr_27_1719,SpeechDraft1Carolyn_lessNoise_PlusLocalization,2021.2.3,60.00740084803859,
,,,,,,,,nearLeft,-6.5,1,ch1Sound_localizationTask.wav,-6.5,"(857, 878)","(-103,-202)",-95,-338,,,,,,,,,6,3,45,2,,,,,,,,,,,,,,,,,,,,,,,,,,,,,,,,,,,,,,,,,,,,1268.1270525110886,None,1269.2268752460368,None,1270.1603354238905,None,1.328042328042328,0.6854558447375894,1270.1603354238905,None,,,,,,,,,,,,,,,,,88,001,2023_Apr_27_1719,SpeechDraft1Carolyn_lessNoise_PlusLocalization,2021.2.3,60.00740084803859,
,,,,,,,,farRight,19.1,4,ch1Sound_localizationTask.wav,19.1,"(1237, 878)","(277,-202)",285,-338,,,,,,,,,6,4,46,6,,,,,,,,,,,,,,,,,,,,,,,,,,,,,,,,,,,,,,,,,,,,1270.8606045618653,None,1271.960180296097,None,1272.8935091360472,None,1.6195767195767194,1.0162230809219182,1272.8935091360472,None,,,,,,,,,,,,,,,,,88,001,2023_Apr_27_1719,SpeechDraft1Carolyn_lessNoise_PlusLocalization,2021.2.3,60.00740084803859,
,,,,,,,,midRight,13.0,3,ch1Sound_localizationTask.wav,13.0,"(1142, 878)","(182, -202)",190,-338,,,,,,,,,6,5,47,5,,,,,,,,,,,,,,,,,,,,,,,,,,,,,,,,,,,,,,,,,,,,1273.9273658930324,None,1275.0269028348848,None,1275.960457844194,None,1.4873015873015873,0.6181739051826298,1275.960457844194,None,,,,,,,,,,,,,,,,,88,001,2023_Apr_27_1719,SpeechDraft1Carolyn_lessNoise_PlusLocalization,2021.2.3,60.00740084803859,
,,,,,,,,midLeft,-13.0,2,ch1Sound_localizationTask.wav,-13.0,"(762, 878)","(-198,-202)",-190,-338,,,,,,,,,6,6,48,1,,,,,,,,,,,,,,,,,,,,,,,,,,,,,,,,,,,,,,,,,,,,1276.5938550168648,None,1277.693522903137,None,1278.6268340339884,None,1.3915343915343916,0.7327466160058975,1278.6268340339884,None,,,,,,,,,,,,,,,,,88,001,2023_Apr_27_1719,SpeechDraft1Carolyn_lessNoise_PlusLocalization,2021.2.3,60.00740084803859,
,,,,,,,,farRight,19.1,4,ch1Sound_localizationTask.wav,19.1,"(1237, 878)","(277,-202)",285,-338,,,,,,,,,7,0,49,6,,,,,,,,,,,,,,,,,,,,,,,,,,,,,,,,,,,,,,,,,,,,1279.3611385179684,None,1280.4602454211563,None,1281.3935056449845,None,1.6835978835978835,0.683645049110055,1281.3935056449845,None,,,,,,,,,,,,,,,,,88,001,2023_Apr_27_1719,SpeechDraft1Carolyn_lessNoise_PlusLocalization,2021.2.3,60.00740084803859,
,,,,,,,,farRight,19.1,4,ch1Sound_localizationTask.wav,19.1,"(1237, 878)","(277,-202)",285,-338,,,,,,,,,7,1,50,6,,,,,,,,,,,,,,,,,,,,,,,,,,,,,,,,,,,,,,,,,,,,1282.0940036661923,None,1283.1936879619025,None,1284.1269677402452,None,1.6031746031746033,0.4666540869511664,1284.1269677402452,None,,,,,,,,,,,,,,,,,88,001,2023_Apr_27_1719,SpeechDraft1Carolyn_lessNoise_PlusLocalization,2021.2.3,60.00740084803859,
,,,,,,,,farLeft,-19.1,5,ch1Sound_localizationTask.wav,-19.1,"(667, 878)","(-293,-202)",-285,-338,,,,,,,,,7,2,51,0,,,,,,,,,,,,,,,,,,,,,,,,,,,,,,,,,,,,,,,,,,,,1284.5947192809545,None,1285.6936666672118,None,1286.6269711372443,None,1.3386243386243386,0.8673536009155214,1286.6269711372443,None,,,,,,,,,,,,,,,,,88,001,2023_Apr_27_1719,SpeechDraft1Carolyn_lessNoise_PlusLocalization,2021.2.3,60.00740084803859,
,,,,,,,,center,0.0,6,ch1Sound_localizationTask.wav,0.0,"(952, 878)","(-8,-202)",0,-338,,,,,,,,,7,3,52,3,,,,,,,,,,,,,,,,,,,,,,,,,,,,,,,,,,,,,,,,,,,,1287.5107045541517,None,1288.610325857997,None,1289.543590539135,None,1.4846560846560846,0.7156915999948978,1289.543590539135,None,,,,,,,,,,,,,,,,,88,001,2023_Apr_27_1719,SpeechDraft1Carolyn_lessNoise_PlusLocalization,2021.2.3,60.00740084803859,
,,,,,,,,farLeft,-19.1,5,ch1Sound_localizationTask.wav,-19.1,"(667, 878)","(-293,-202)",-285,-338,,,,,,,,,7,4,53,0,,,,,,,,,,,,,,,,,,,,,,,,,,,,,,,,,,,,,,,,,,,,1290.2607031590305,None,1291.360267715063,None,1292.2935633328743,None,1.2275132275132274,0.7519989078864455,1292.2935633328743,None,,,,,,,,,,,,,,,,,88,001,2023_Apr_27_1719,SpeechDraft1Carolyn_lessNoise_PlusLocalization,2021.2.3,60.00740084803859,
,,,,,,,,nearRight,6.5,0,ch1Sound_localizationTask.wav,6.5,"(1047, 878)","(87, -202)",95,-338,,,,,,,,,7,5,54,4,,,,,,,,,,,,,,,,,,,,,,,,,,,,,,,,,,,,,,,,,,,,1293.0605464838445,None,1294.1603153040633,None,1295.093554412946,None,1.5227513227513227,0.9352638339623809,1295.093554412946,None,,,,,,,,,,,,,,,,,88,001,2023_Apr_27_1719,SpeechDraft1Carolyn_lessNoise_PlusLocalization,2021.2.3,60.00740084803859,
,,,,,,,,nearLeft,-6.5,1,ch1Sound_localizationTask.wav,-6.5,"(857, 878)","(-103,-202)",-95,-338,,,,,,,,,7,6,55,2,,,,,,,,,,,,,,,,,,,,,,,,,,,,,,,,,,,,,,,,,,,,1296.0438383300789,None,1297.1435984261334,None,1298.076951622963,None,1.411111111111111,0.6999507029540837,1298.076951622963,None,,,,,,,,,,,,,,,,,88,001,2023_Apr_27_1719,SpeechDraft1Carolyn_lessNoise_PlusLocalization,2021.2.3,60.00740084803859,
,,,,,,,,,,,,,,,,,,,,,,,,,,,,,,,,,,,,,,,,,,,,,,,,,,,,,,,,,,,,,,,,,,,,,,,,,,,,,,,,,,space,22.103871277999133,1298.8771914220415,None,,,,,,,,,,,,,88,001,2023_Apr_27_1719,SpeechDraft1Carolyn_lessNoise_PlusLocalization,2021.2.3,60.00740084803859,
,,,,,,,,farLeft,-19.1,5,ch1Sound_localizationTask.wav,-19.1,"(667, 878)","(-293,-202)",-285,-338,,,,,,,,,,,,,0,0,0,0,,,,,,,,,,,,,,,,,,,,,,,,,,,,,,,,,,,,,,,,1321.0269681871869,None,,,1324.0603341730312,None,1.3380952380952382,1.0376218250021338,1324.0603341730312,None,,,,,1298.8771914220415,None,1322.02736803703,None,1322.2108042459004,1322.227231206838,,,,,,,88,001,2023_Apr_27_1719,SpeechDraft1Carolyn_lessNoise_PlusLocalization,2021.2.3,60.00740084803859,
,,,,,,,,nearRight,6.5,0,ch1Sound_localizationTask.wav,6.5,"(1047, 878)","(87, -202)",95,-338,,,,,,,,,,,,,0,1,1,4,,,,,,,,,,,,,,,,,,,,,,,,,,,,,,,,,,,,,,,,1325.0949635230936,None,,,1328.110361373052,None,1.5820105820105819,0.7160087027586997,1328.110361373052,None,,,,,,,1326.0939526441507,None,1326.2771302112378,1326.2940505249426,,,,,,,88,001,2023_Apr_27_1719,SpeechDraft1Carolyn_lessNoise_PlusLocalization,2021.2.3,60.00740084803859,
,,,,,,,,nearLeft,-6.5,1,ch1Sound_localizationTask.wav,-6.5,"(857, 878)","(-103,-202)",-95,-338,,,,,,,,,,,,,0,2,2,2,,,,,,,,,,,,,,,,,,,,,,,,,,,,,,,,,,,,,,,,1328.8279742072336,None,,,1331.843749500811,None,1.433862433862434,0.6493886569514871,1331.843749500811,None,,,,,,,1329.827515797224,None,1330.0105680800043,1330.027277097106,,,,,,,88,001,2023_Apr_27_1719,SpeechDraft1Carolyn_lessNoise_PlusLocalization,2021.2.3,60.00740084803859,
,,,,,,,,center,0.0,6,ch1Sound_localizationTask.wav,0.0,"(952, 878)","(-8,-202)",0,-338,,,,,,,,,,,,,0,3,3,3,,,,,,,,,,,,,,,,,,,,,,,,,,,,,,,,,,,,,,,,1332.4949047528207,None,,,1335.5102886259556,None,1.4952380952380953,0.7657455019652843,1335.5102886259556,None,,,,,,,1333.4939532550052,None,1333.677362618968,1333.6939176390879,,,,,,,88,001,2023_Apr_27_1719,SpeechDraft1Carolyn_lessNoise_PlusLocalization,2021.2.3,60.00740084803859,
,,,,,,,,midRight,13.0,3,ch1Sound_localizationTask.wav,13.0,"(1142, 878)","(182, -202)",190,-338,,,,,,,,,,,,,0,4,4,5,,,,,,,,,,,,,,,,,,,,,,,,,,,,,,,,,,,,,,,,1336.2780979261734,None,,,1339.2937411759049,None,1.5894179894179894,0.5820903670974076,1339.2937411759049,None,,,,,,,1337.2772676772438,None,1337.4606485948898,1337.477326468099,,,,,,,88,001,2023_Apr_27_1719,SpeechDraft1Carolyn_lessNoise_PlusLocalization,2021.2.3,60.00740084803859,
,,,,,,,,farLeft,-19.1,5,ch1Sound_localizationTask.wav,-19.1,"(667, 878)","(-293,-202)",-285,-338,,,,,,,,,,,,,0,5,5,0,,,,,,,,,,,,,,,,,,,,,,,,,,,,,,,,,,,,,,,,1339.877632478252,None,,,1342.8937956518494,None,1.3624338624338623,0.715826066210866,1342.8937956518494,None,,,,,,,1340.8772824071348,None,1341.0606048638,1341.0772860320285,,,,,,,88,001,2023_Apr_27_1719,SpeechDraft1Carolyn_lessNoise_PlusLocalization,2021.2.3,60.00740084803859,
,,,,,,,,nearLeft,-6.5,1,ch1Sound_localizationTask.wav,-6.5,"(857, 878)","(-103,-202)",-95,-338,,,,,,,,,,,,,0,6,6,2,,,,,,,,,,,,,,,,,,,,,,,,,,,,,,,,,,,,,,,,1343.6110931918956,None,,,1346.6270679538138,None,1.4428571428571428,0.8000136041082442,1346.6270679538138,None,,,,,,,1344.610493378248,None,1344.793920172844,1344.8106018551625,,,,,,,88,001,2023_Apr_27_1719,SpeechDraft1Carolyn_lessNoise_PlusLocalization,2021.2.3,60.00740084803859,
,,,,,,,,midRight,13.0,3,ch1Sound_localizationTask.wav,13.0,"(1142, 878)","(182, -202)",190,-338,,,,,,,,,,,,,1,0,7,5,,,,,,,,,,,,,,,,,,,,,,,,,,,,,,,,,,,,,,,,1347.443947148975,None,,,1350.4602312371135,None,1.5883597883597882,0.8005261993966997,1350.4602312371135,None,,,,,,,1348.443911198061,None,1348.6272742631845,1348.6440089610405,,,,,,,88,001,2023_Apr_27_1719,SpeechDraft1Carolyn_lessNoise_PlusLocalization,2021.2.3,60.00740084803859,
,,,,,,,,center,0.0,6,ch1Sound_localizationTask.wav,0.0,"(952, 878)","(-8,-202)",0,-338,,,,,,,,,,,,,1,1,8,3,,,,,,,,,,,,,,,,,,,,,,,,,,,,,,,,,,,,,,,,1351.277325828094,None,,,1354.2936890390702,None,1.5026455026455028,0.7166968719102442,1354.2936890390702,None,,,,,,,1352.2772145448253,None,1352.4606225541793,1352.4771965821274,,,,,,,88,001,2023_Apr_27_1719,SpeechDraft1Carolyn_lessNoise_PlusLocalization,2021.2.3,60.00740084803859,
,,,,,,,,midRight,13.0,3,ch1Sound_localizationTask.wav,13.0,"(1142, 878)","(182, -202)",190,-338,,,,,,,,,,,,,1,2,9,5,,,,,,,,,,,,,,,,,,,,,,,,,,,,,,,,,,,,,,,,1355.0273162070662,None,,,1358.0436545219272,None,1.5788359788359787,0.916454222984612,1358.0436545219272,None,,,,,,,1356.0272580049932,None,1356.2106711859815,1356.2272966061719,,,,,,,88,001,2023_Apr_27_1719,SpeechDraft1Carolyn_lessNoise_PlusLocalization,2021.2.3,60.00740084803859,
,,,,,,,,center,0.0,6,ch1Sound_localizationTask.wav,0.0,"(952, 878)","(-8,-202)",0,-338,,,,,,,,,,,,,1,3,10,3,,,,,,,,,,,,,,,,,,,,,,,,,,,,,,,,,,,,,,,,1358.9615111551248,None,,,1361.9770424230956,None,1.51005291005291,0.9500912502408028,1361.9770424230956,None,,,,,,,1359.9606656921096,None,1360.143987905234,1360.1606222400442,,,,,,,88,001,2023_Apr_27_1719,SpeechDraft1Carolyn_lessNoise_PlusLocalization,2021.2.3,60.00740084803859,
,,,,,,,,midLeft,-13.0,2,ch1Sound_localizationTask.wav,-13.0,"(762, 878)","(-198,-202)",-190,-338,,,,,,,,,,,,,1,4,11,1,,,,,,,,,,,,,,,,,,,,,,,,,,,,,,,,,,,,,,,,1362.9439107282087,None,,,1365.9603529851884,None,1.3867724867724869,0.5998629899695516,1365.9603529851884,None,,,,,,,1363.9438370489515,None,1364.1272925888188,1364.143860284239,,,,,,,88,001,2023_Apr_27_1719,SpeechDraft1Carolyn_lessNoise_PlusLocalization,2021.2.3,60.00740084803859,
,,,,,,,,center,0.0,6,ch1Sound_localizationTask.wav,0.0,"(952, 878)","(-8,-202)",0,-338,,,,,,,,,,,,,1,5,12,3,,,,,,,,,,,,,,,,,,,,,,,,,,,,,,,,,,,,,,,,1366.5773319872096,None,,,1369.5936546497978,None,1.4984126984126984,1.1828225110657513,1369.5936546497978,None,,,,,,,1367.5772331091575,None,1367.760726430919,1367.7772558862343,,,,,,,88,001,2023_Apr_27_1719,SpeechDraft1Carolyn_lessNoise_PlusLocalization,2021.2.3,60.00740084803859,
,,,,,,,,farLeft,-19.1,5,ch1Sound_localizationTask.wav,-19.1,"(667, 878)","(-293,-202)",-285,-338,,,,,,,,,,,,,1,6,13,0,,,,,,,,,,,,,,,,,,,,,,,,,,,,,,,,,,,,,,,,1370.7779520940967,None,,,1373.7939524329267,None,1.3174603174603174,0.8985354411415756,1373.7939524329267,None,,,,,,,1371.7774218712002,None,1371.9607475087978,1371.9773511490785,,,,,,,88,001,2023_Apr_27_1719,SpeechDraft1Carolyn_lessNoise_PlusLocalization,2021.2.3,60.00740084803859,
,,,,,,,,farRight,19.1,4,ch1Sound_localizationTask.wav,19.1,"(1237, 878)","(277,-202)",285,-338,,,,,,,,,,,,,2,0,14,6,,,,,,,,,,,,,,,,,,,,,,,,,,,,,,,,,,,,,,,,1374.710688299965,None,,,1377.7270586942323,None,1.6619047619047618,0.8982245526276529,1377.7270586942323,None,,,,,,,1375.7108147088438,None,1375.8940153289586,1375.9107238780707,,,,,,,88,001,2023_Apr_27_1719,SpeechDraft1Carolyn_lessNoise_PlusLocalization,2021.2.3,60.00740084803859,
,,,,,,,,midRight,13.0,3,ch1Sound_localizationTask.wav,13.0,"(1142, 878)","(182, -202)",190,-338,,,,,,,,,,,,,2,1,15,5,,,,,,,,,,,,,,,,,,,,,,,,,,,,,,,,,,,,,,,,1378.6287681739777,None,,,1381.6603800179437,None,1.621164021164021,1.1015525991097093,1381.6603800179437,None,,,,,,,1379.6441387492232,None,1379.8274245988578,1379.8440689840354,,,,,,,88,001,2023_Apr_27_1719,SpeechDraft1Carolyn_lessNoise_PlusLocalization,2021.2.3,60.00740084803859,
,,,,,,,,midRight,13.0,3,ch1Sound_localizationTask.wav,13.0,"(1142, 878)","(182, -202)",190,-338,,,,,,,,,,,,,2,2,16,5,,,,,,,,,,,,,,,,,,,,,,,,,,,,,,,,,,,,,,,,1382.777373847086,None,,,1385.7937117051333,None,1.5994708994708995,0.883437261916697,1385.7937117051333,None,,,,,,,1383.7774480781518,None,1383.960842951201,1383.9773561479524,,,,,,,88,001,2023_Apr_27_1719,SpeechDraft1Carolyn_lessNoise_PlusLocalization,2021.2.3,60.00740084803859,
,,,,,,,,farRight,19.1,4,ch1Sound_localizationTask.wav,19.1,"(1237, 878)","(277,-202)",285,-338,,,,,,,,,,,,,2,3,17,6,,,,,,,,,,,,,,,,,,,,,,,,,,,,,,,,,,,,,,,,1386.693917489145,None,,,1389.7104321168736,None,1.656084656084656,0.9001675108447671,1389.7104321168736,None,,,,,,,1387.6940442300402,None,1387.8774051531218,1387.8940385538153,,,,,,,88,001,2023_Apr_27_1719,SpeechDraft1Carolyn_lessNoise_PlusLocalization,2021.2.3,60.00740084803859,
,,,,,,,,center,0.0,6,ch1Sound_localizationTask.wav,0.0,"(952, 878)","(-8,-202)",0,-338,,,,,,,,,,,,,2,4,18,3,,,,,,,,,,,,,,,,,,,,,,,,,,,,,,,,,,,,,,,,1390.627464786172,None,,,1393.6438252232037,None,1.4952380952380953,0.8670979919843376,1393.6438252232037,None,,,,,,,1391.6273875311017,None,1391.8107491261326,1391.8273961259983,,,,,,,88,001,2023_Apr_27_1719,SpeechDraft1Carolyn_lessNoise_PlusLocalization,2021.2.3,60.00740084803859,
,,,,,,,,midRight,13.0,3,ch1Sound_localizationTask.wav,13.0,"(1142, 878)","(182, -202)",190,-338,,,,,,,,,,,,,2,5,19,5,,,,,,,,,,,,,,,,,,,,,,,,,,,,,,,,,,,,,,,,1394.5274042021483,None,,,1397.5437928619795,None,1.6142857142857143,0.732264194637537,1397.5437928619795,None,,,,,,,1395.5272997720167,None,1395.7108027678914,1395.7272976529785,,,,,,,88,001,2023_Apr_27_1719,SpeechDraft1Carolyn_lessNoise_PlusLocalization,2021.2.3,60.00740084803859,
,,,,,,,,nearRight,6.5,0,ch1Sound_localizationTask.wav,6.5,"(1047, 878)","(87, -202)",95,-338,,,,,,,,,,,,,2,6,20,4,,,,,,,,,,,,,,,,,,,,,,,,,,,,,,,,,,,,,,,,1398.2775210570544,None,,,1401.2938230899163,None,1.5518518518518518,0.7824129350483418,1401.2938230899163,None,,,,,,,1399.277374344878,None,1399.4606026909314,1399.4774360209703,,,,,,,88,001,2023_Apr_27_1719,SpeechDraft1Carolyn_lessNoise_PlusLocalization,2021.2.3,60.00740084803859,
,,,,,,,,nearLeft,-6.5,1,ch1Sound_localizationTask.wav,-6.5,"(857, 878)","(-103,-202)",-95,-338,,,,,,,,,,,,,3,0,21,2,,,,,,,,,,,,,,,,,,,,,,,,,,,,,,,,,,,,,,,,1402.077810170129,None,,,1405.0937347901054,None,1.4513227513227513,0.7500788392499089,1405.0937347901054,None,,,,,,,1403.0773776001297,None,1403.2608237010427,1403.2773805279285,,,,,,,88,001,2023_Apr_27_1719,SpeechDraft1Carolyn_lessNoise_PlusLocalization,2021.2.3,60.00740084803859,
,,,,,,,,nearRight,6.5,0,ch1Sound_localizationTask.wav,6.5,"(1047, 878)","(87, -202)",95,-338,,,,,,,,,,,,,3,1,22,4,,,,,,,,,,,,,,,,,,,,,,,,,,,,,,,,,,,,,,,,1405.844773735851,None,,,1408.8604887882248,None,1.5724867724867724,0.5487517700530589,1408.8604887882248,None,,,,,,,1406.8439877610654,None,1407.027243279852,1407.044069366064,,,,,,,88,001,2023_Apr_27_1719,SpeechDraft1Carolyn_lessNoise_PlusLocalization,2021.2.3,60.00740084803859,
,,,,,,,,nearLeft,-6.5,1,ch1Sound_localizationTask.wav,-6.5,"(857, 878)","(-103,-202)",-95,-338,,,,,,,,,,,,,3,2,23,2,,,,,,,,,,,,,,,,,,,,,,,,,,,,,,,,,,,,,,,,1409.4107856140472,None,,,1412.4270790000446,None,1.4497354497354498,0.7824235921725631,1412.4270790000446,None,,,,,,,1410.4107256010175,None,1410.5941012501717,1410.6107173277996,,,,,,,88,001,2023_Apr_27_1719,SpeechDraft1Carolyn_lessNoise_PlusLocalization,2021.2.3,60.00740084803859,
,,,,,,,,farRight,19.1,4,ch1Sound_localizationTask.wav,19.1,"(1237, 878)","(277,-202)",285,-338,,,,,,,,,,,,,3,3,24,6,,,,,,,,,,,,,,,,,,,,,,,,,,,,,,,,,,,,,,,,1413.2114238310605,None,,,1416.2271252102219,None,1.6582010582010582,0.7002178658731282,1416.2271252102219,None,,,,,,,1414.2107507782057,None,1414.3940741708502,1414.411096258089,,,,,,,88,001,2023_Apr_27_1719,SpeechDraft1Carolyn_lessNoise_PlusLocalization,2021.2.3,60.00740084803859,
,,,,,,,,nearRight,6.5,0,ch1Sound_localizationTask.wav,6.5,"(1047, 878)","(87, -202)",95,-338,,,,,,,,,,,,,3,4,25,4,,,,,,,,,,,,,,,,,,,,,,,,,,,,,,,,,,,,,,,,1416.9440069249831,None,,,1419.9605691879988,None,1.565079365079365,0.49945202516391873,1419.9605691879988,None,,,,,,,1417.944049266167,None,1418.1273978957906,1418.1439583250321,,,,,,,88,001,2023_Apr_27_1719,SpeechDraft1Carolyn_lessNoise_PlusLocalization,2021.2.3,60.00740084803859,
,,,,,,,,farLeft,-19.1,5,ch1Sound_localizationTask.wav,-19.1,"(667, 878)","(-293,-202)",-285,-338,,,,,,,,,,,,,3,5,26,0,,,,,,,,,,,,,,,,,,,,,,,,,,,,,,,,,,,,,,,,1420.4774738182314,None,,,1423.4938068981282,None,1.3174603174603174,0.6504820347763598,1423.4938068981282,None,,,,,,,1421.4773458880372,None,1421.6607455331832,1421.6773481802084,,,,,,,88,001,2023_Apr_27_1719,SpeechDraft1Carolyn_lessNoise_PlusLocalization,2021.2.3,60.00740084803859,
,,,,,,,,midLeft,-13.0,2,ch1Sound_localizationTask.wav,-13.0,"(762, 878)","(-198,-202)",-190,-338,,,,,,,,,,,,,3,6,27,1,,,,,,,,,,,,,,,,,,,,,,,,,,,,,,,,,,,,,,,,1424.160802964121,None,,,1427.1770064621232,None,1.3894179894179894,0.6681874492205679,1427.1770064621232,None,,,,,,,1425.160809919238,None,1425.3441913281567,1425.3605836108327,,,,,,,88,001,2023_Apr_27_1719,SpeechDraft1Carolyn_lessNoise_PlusLocalization,2021.2.3,60.00740084803859,
,,,,,,,,center,0.0,6,ch1Sound_localizationTask.wav,0.0,"(952, 878)","(-8,-202)",0,-338,,,,,,,,,,,,,4,0,28,3,,,,,,,,,,,,,,,,,,,,,,,,,,,,,,,,,,,,,,,,1427.860762219876,None,,,1430.8771062428132,None,1.5042328042328044,0.8495394960045815,1430.8771062428132,None,,,,,,,1428.8607072969899,None,1429.0440222602338,1429.0606641140766,,,,,,,88,001,2023_Apr_27_1719,SpeechDraft1Carolyn_lessNoise_PlusLocalization,2021.2.3,60.00740084803859,
,,,,,,,,farLeft,-19.1,5,ch1Sound_localizationTask.wav,-19.1,"(667, 878)","(-293,-202)",-285,-338,,,,,,,,,,,,,4,1,29,0,,,,,,,,,,,,,,,,,,,,,,,,,,,,,,,,,,,,,,,,1431.728939901106,None,,,1434.7603567461483,None,1.3243386243386244,0.8358694510534406,1434.7603567461483,None,,,,,,,1432.743983506225,None,1432.927462242078,1432.9440968111157,,,,,,,88,001,2023_Apr_27_1719,SpeechDraft1Carolyn_lessNoise_PlusLocalization,2021.2.3,60.00740084803859,
,,,,,,,,nearRight,6.5,0,ch1Sound_localizationTask.wav,6.5,"(1047, 878)","(87, -202)",95,-338,,,,,,,,,,,,,4,2,30,4,,,,,,,,,,,,,,,,,,,,,,,,,,,,,,,,,,,,,,,,1435.6107979048975,None,,,1438.6271857027896,None,1.5534391534391534,0.7167901727370918,1438.6271857027896,None,,,,,,,1436.6108101988211,None,1436.7940921508707,1436.8107551038265,,,,,,,88,001,2023_Apr_27_1719,SpeechDraft1Carolyn_lessNoise_PlusLocalization,2021.2.3,60.00740084803859,
,,,,,,,,nearLeft,-6.5,1,ch1Sound_localizationTask.wav,-6.5,"(857, 878)","(-103,-202)",-95,-338,,,,,,,,,,,,,4,3,31,2,,,,,,,,,,,,,,,,,,,,,,,,,,,,,,,,,,,,,,,,1439.3606879748404,None,,,1442.3771330751479,None,1.4386243386243387,1.2820984278805554,1442.3771330751479,None,,,,,,,1440.360723883845,None,1440.5440529799089,1440.5607578908093,,,,,,,88,001,2023_Apr_27_1719,SpeechDraft1Carolyn_lessNoise_PlusLocalization,2021.2.3,60.00740084803859,
,,,,,,,,midRight,13.0,3,ch1Sound_localizationTask.wav,13.0,"(1142, 878)","(182, -202)",190,-338,,,,,,,,,,,,,4,4,32,5,,,,,,,,,,,,,,,,,,,,,,,,,,,,,,,,,,,,,,,,1443.661237461958,None,,,1446.6771300290711,None,1.6047619047619048,0.5491287428885698,1446.6771300290711,None,,,,,,,1444.6607692120597,None,1444.8441248890013,1444.8609002861194,,,,,,,88,001,2023_Apr_27_1719,SpeechDraft1Carolyn_lessNoise_PlusLocalization,2021.2.3,60.00740084803859,
,,,,,,,,nearRight,6.5,0,ch1Sound_localizationTask.wav,6.5,"(1047, 878)","(87, -202)",95,-338,,,,,,,,,,,,,4,5,33,4,,,,,,,,,,,,,,,,,,,,,,,,,,,,,,,,,,,,,,,,1447.2285375632346,None,,,1450.2605187739246,None,1.555026455026455,1.1833069929853082,1450.2605187739246,None,,,,,,,1448.2441607769579,None,1448.4273912152275,1448.444170305971,,,,,,,88,001,2023_Apr_27_1719,SpeechDraft1Carolyn_lessNoise_PlusLocalization,2021.2.3,60.00740084803859,
,,,,,,,,farLeft,-19.1,5,ch1Sound_localizationTask.wav,-19.1,"(667, 878)","(-293,-202)",-285,-338,,,,,,,,,,,,,4,6,34,0,,,,,,,,,,,,,,,,,,,,,,,,,,,,,,,,,,,,,,,,1451.445548132062,None,,,1454.4771275478415,None,1.3275132275132275,3.3003677069209516,1454.4771275478415,None,,,,,,,1452.4607762959786,None,1452.6441893759184,1452.660736828111,,,,,,,88,001,2023_Apr_27_1719,SpeechDraft1Carolyn_lessNoise_PlusLocalization,2021.2.3,60.00740084803859,
,,,,,,,,midLeft,-13.0,2,ch1Sound_localizationTask.wav,-13.0,"(762, 878)","(-198,-202)",-190,-338,,,,,,,,,,,,,5,0,35,1,,,,,,,,,,,,,,,,,,,,,,,,,,,,,,,,,,,,,,,,1457.7941377651878,None,,,1460.8105505700223,None,1.384126984126984,0.766798805911094,1460.8105505700223,None,,,,,,,1458.7941168551333,None,1458.9774023517966,1458.9940053620376,,,,,,,88,001,2023_Apr_27_1719,SpeechDraft1Carolyn_lessNoise_PlusLocalization,2021.2.3,60.00740084803859,
,,,,,,,,nearLeft,-6.5,1,ch1Sound_localizationTask.wav,-6.5,"(857, 878)","(-103,-202)",-95,-338,,,,,,,,,,,,,5,1,36,2,,,,,,,,,,,,,,,,,,,,,,,,,,,,,,,,,,,,,,,,1461.5941231511533,None,,,1464.61040310096,None,1.446031746031746,0.8824292127974331,1464.61040310096,None,,,,,,,1462.5941564529203,None,1462.7774943690747,1462.7941454369575,,,,,,,88,001,2023_Apr_27_1719,SpeechDraft1Carolyn_lessNoise_PlusLocalization,2021.2.3,60.00740084803859,
,,,,,,,,midLeft,-13.0,2,ch1Sound_localizationTask.wav,-13.0,"(762, 878)","(-198,-202)",-190,-338,,,,,,,,,,,,,5,2,37,1,,,,,,,,,,,,,,,,,,,,,,,,,,,,,,,,,,,,,,,,1465.494641372934,None,,,1468.5105505748652,None,1.3851851851851853,0.7998505760915577,1468.5105505748652,None,,,,,,,1466.4940866511315,None,1466.6775023671798,1466.694127121009,,,,,,,88,001,2023_Apr_27_1719,SpeechDraft1Carolyn_lessNoise_PlusLocalization,2021.2.3,60.00740084803859,
,,,,,,,,center,0.0,6,ch1Sound_localizationTask.wav,0.0,"(952, 878)","(-8,-202)",0,-338,,,,,,,,,,,,,5,3,38,3,,,,,,,,,,,,,,,,,,,,,,,,,,,,,,,,,,,,,,,,1469.312421162147,None,,,1472.3438096349128,None,1.4777777777777779,0.733147983904928,1472.3438096349128,None,,,,,,,1470.3275242419913,None,1470.5109299020842,1470.5274401931092,,,,,,,88,001,2023_Apr_27_1719,SpeechDraft1Carolyn_lessNoise_PlusLocalization,2021.2.3,60.00740084803859,
,,,,,,,,midLeft,-13.0,2,ch1Sound_localizationTask.wav,-13.0,"(762, 878)","(-198,-202)",-190,-338,,,,,,,,,,,,,5,4,39,1,,,,,,,,,,,,,,,,,,,,,,,,,,,,,,,,,,,,,,,,1473.078387661837,None,,,1476.0938401501626,None,1.4,0.5151398731395602,1476.0938401501626,None,,,,,,,1474.0774463089183,None,1474.2608728148043,1474.277479430195,,,,,,,88,001,2023_Apr_27_1719,SpeechDraft1Carolyn_lessNoise_PlusLocalization,2021.2.3,60.00740084803859,
,,,,,,,,nearLeft,-6.5,1,ch1Sound_localizationTask.wav,-6.5,"(857, 878)","(-103,-202)",-95,-338,,,,,,,,,,,,,5,5,40,2,,,,,,,,,,,,,,,,,,,,,,,,,,,,,,,,,,,,,,,,1476.6113678459078,None,,,1479.6272210292518,None,1.4428571428571428,0.49868079693987966,1479.6272210292518,None,,,,,,,1477.6107504991814,None,1477.7941264808178,1477.810859162826,,,,,,,88,001,2023_Apr_27_1719,SpeechDraft1Carolyn_lessNoise_PlusLocalization,2021.2.3,60.00740084803859,
,,,,,,,,farLeft,-19.1,5,ch1Sound_localizationTask.wav,-19.1,"(667, 878)","(-293,-202)",-285,-338,,,,,,,,,,,,,5,6,41,0,,,,,,,,,,,,,,,,,,,,,,,,,,,,,,,,,,,,,,,,1480.1275958260521,None,,,1483.1438988242298,None,1.3306878306878307,0.6843904838897288,1483.1438988242298,None,,,,,,,1481.1274886000901,None,1481.3106749230064,1481.327580315061,,,,,,,88,001,2023_Apr_27_1719,SpeechDraft1Carolyn_lessNoise_PlusLocalization,2021.2.3,60.00740084803859,
,,,,,,,,midRight,13.0,3,ch1Sound_localizationTask.wav,13.0,"(1142, 878)","(182, -202)",190,-338,,,,,,,,,,,,,6,0,42,5,,,,,,,,,,,,,,,,,,,,,,,,,,,,,,,,,,,,,,,,1483.8441091198474,None,,,1486.8605512608774,None,1.6132275132275131,1.0176090323366225,1486.8605512608774,None,,,,,,,1484.8440959868021,None,1485.0274794599973,1485.0440842788666,,,,,,,88,001,2023_Apr_27_1719,SpeechDraft1Carolyn_lessNoise_PlusLocalization,2021.2.3,60.00740084803859,
,,,,,,,,farRight,19.1,4,ch1Sound_localizationTask.wav,19.1,"(1237, 878)","(277,-202)",285,-338,,,,,,,,,,,,,6,1,43,6,,,,,,,,,,,,,,,,,,,,,,,,,,,,,,,,,,,,,,,,1487.8942724438384,None,,,1490.9105804557912,None,1.6343915343915345,0.7485909960232675,1490.9105804557912,None,,,,,,,1488.8943202160299,None,1489.077393904794,1489.0942615498789,,,,,,,88,001,2023_Apr_27_1719,SpeechDraft1Carolyn_lessNoise_PlusLocalization,2021.2.3,60.00740084803859,
,,,,,,,,nearRight,6.5,0,ch1Sound_localizationTask.wav,6.5,"(1047, 878)","(87, -202)",95,-338,,,,,,,,,,,,,6,2,44,4,,,,,,,,,,,,,,,,,,,,,,,,,,,,,,,,,,,,,,,,1491.6622482608072,None,,,1494.693998195231,None,1.553968253968254,0.7671656031161547,1494.693998195231,None,,,,,,,1492.6774570960552,None,1492.8608121131547,1492.87744669104,,,,,,,88,001,2023_Apr_27_1719,SpeechDraft1Carolyn_lessNoise_PlusLocalization,2021.2.3,60.00740084803859,
,,,,,,,,midLeft,-13.0,2,ch1Sound_localizationTask.wav,-13.0,"(762, 878)","(-198,-202)",-190,-338,,,,,,,,,,,,,6,3,45,1,,,,,,,,,,,,,,,,,,,,,,,,,,,,,,,,,,,,,,,,1495.4776599011384,None,,,1498.4939537839964,None,1.4068783068783068,1.2990707522258162,1498.4939537839964,None,,,,,,,1496.4774807211943,None,1496.6607912778854,1496.6775269559585,,,,,,,88,001,2023_Apr_27_1719,SpeechDraft1Carolyn_lessNoise_PlusLocalization,2021.2.3,60.00740084803859,
,,,,,,,,nearRight,6.5,0,ch1Sound_localizationTask.wav,6.5,"(1047, 878)","(87, -202)",95,-338,,,,,,,,,,,,,6,4,46,4,,,,,,,,,,,,,,,,,,,,,,,,,,,,,,,,,,,,,,,,1499.79456235189,None,,,1502.8104943670332,None,1.5534391534391534,0.5323710269294679,1502.8104943670332,None,,,,,,,1500.7942750421353,None,1500.9775481270626,1500.9942663889378,,,,,,,88,001,2023_Apr_27_1719,SpeechDraft1Carolyn_lessNoise_PlusLocalization,2021.2.3,60.00740084803859,
,,,,,,,,center,0.0,6,ch1Sound_localizationTask.wav,0.0,"(952, 878)","(-8,-202)",0,-338,,,,,,,,,,,,,6,5,47,3,,,,,,,,,,,,,,,,,,,,,,,,,,,,,,,,,,,,,,,,1503.344657780137,None,,,1506.3605177621357,None,1.5015873015873016,0.715893744956702,1506.3605177621357,None,,,,,,,1504.3443063641898,None,1504.5274621881545,1504.5442294278182,,,,,,,88,001,2023_Apr_27_1719,SpeechDraft1Carolyn_lessNoise_PlusLocalization,2021.2.3,60.00740084803859,
,,,,,,,,nearLeft,-6.5,1,ch1Sound_localizationTask.wav,-6.5,"(857, 878)","(-103,-202)",-95,-338,,,,,,,,,,,,,6,6,48,2,,,,,,,,,,,,,,,,,,,,,,,,,,,,,,,,,,,,,,,,1507.0780740450136,None,,,1510.0940016130917,None,1.4513227513227513,0.6655971398577094,1510.0940016130917,None,,,,,,,1508.0776334120892,None,1508.2608495722525,1508.2776065790094,,,,,,,88,001,2023_Apr_27_1719,SpeechDraft1Carolyn_lessNoise_PlusLocalization,2021.2.3,60.00740084803859,
,,,,,,,,farLeft,-19.1,5,ch1Sound_localizationTask.wav,-19.1,"(667, 878)","(-293,-202)",-285,-338,,,,,,,,,,,,,7,0,49,0,,,,,,,,,,,,,,,,,,,,,,,,,,,,,,,,,,,,,,,,1510.7611723421142,None,,,1513.7773857689463,None,1.3417989417989418,0.48429743899032474,1513.7773857689463,None,,,,,,,1511.7608632491902,None,1511.9441806231625,1511.9608437009156,,,,,,,88,001,2023_Apr_27_1719,SpeechDraft1Carolyn_lessNoise_PlusLocalization,2021.2.3,60.00740084803859,
,,,,,,,,midLeft,-13.0,2,ch1Sound_localizationTask.wav,-13.0,"(762, 878)","(-198,-202)",-190,-338,,,,,,,,,,,,,7,1,50,1,,,,,,,,,,,,,,,,,,,,,,,,,,,,,,,,,,,,,,,,1514.277688574046,None,,,1517.2939595729113,None,1.4010582010582011,0.6988422907888889,1517.2939595729113,None,,,,,,,1515.2775570019148,None,1515.460903079249,1515.477546390146,,,,,,,88,001,2023_Apr_27_1719,SpeechDraft1Carolyn_lessNoise_PlusLocalization,2021.2.3,60.00740084803859,
,,,,,,,,farRight,19.1,4,ch1Sound_localizationTask.wav,19.1,"(1237, 878)","(277,-202)",285,-338,,,,,,,,,,,,,7,2,51,6,,,,,,,,,,,,,,,,,,,,,,,,,,,,,,,,,,,,,,,,1517.9942504139617,None,,,1521.0105116032064,None,1.6534391534391535,0.5488395439460874,1521.0105116032064,None,,,,,,,1518.9942971281707,None,1519.1775158760138,1519.194160674233,,,,,,,88,001,2023_Apr_27_1719,SpeechDraft1Carolyn_lessNoise_PlusLocalization,2021.2.3,60.00740084803859,
,,,,,,,,farRight,19.1,4,ch1Sound_localizationTask.wav,19.1,"(1237, 878)","(277,-202)",285,-338,,,,,,,,,,,,,7,3,52,6,,,,,,,,,,,,,,,,,,,,,,,,,,,,,,,,,,,,,,,,1521.5608680169098,None,,,1524.5772611098364,None,1.6407407407407408,0.46571162389591336,1524.5772611098364,None,,,,,,,1522.5607958859764,None,1522.74416315509,1522.7608279879205,,,,,,,88,001,2023_Apr_27_1719,SpeechDraft1Carolyn_lessNoise_PlusLocalization,2021.2.3,60.00740084803859,
,,,,,,,,midLeft,-13.0,2,ch1Sound_localizationTask.wav,-13.0,"(762, 878)","(-198,-202)",-190,-338,,,,,,,,,,,,,7,4,53,1,,,,,,,,,,,,,,,,,,,,,,,,,,,,,,,,,,,,,,,,1525.0455683860928,None,,,1528.0772051378153,None,1.4068783068783068,0.6495030517689884,1528.0772051378153,None,,,,,,,1526.0608607819304,None,1526.244098213967,1526.2609643018804,,,,,,,88,001,2023_Apr_27_1719,SpeechDraft1Carolyn_lessNoise_PlusLocalization,2021.2.3,60.00740084803859,
,,,,,,,,farRight,19.1,4,ch1Sound_localizationTask.wav,19.1,"(1237, 878)","(277,-202)",285,-338,,,,,,,,,,,,,7,5,54,6,,,,,,,,,,,,,,,,,,,,,,,,,,,,,,,,,,,,,,,,1528.7288856110536,None,,,1531.7606074688956,None,1.6804232804232804,0.7341690100729465,1531.7606074688956,None,,,,,,,1529.74422167195,None,1529.9275874989107,1529.9442203929648,,,,,,,88,001,2023_Apr_27_1719,SpeechDraft1Carolyn_lessNoise_PlusLocalization,2021.2.3,60.00740084803859,
,,,,,,,,farRight,19.1,4,ch1Sound_localizationTask.wav,19.1,"(1237, 878)","(277,-202)",285,-338,,,,,,,,,,,,,7,6,55,6,,,,,,,,,,,,,,,,,,,,,,,,,,,,,,,,,,,,,,,,1532.5109993438236,None,,,1535.5271502370015,None,1.6481481481481481,0.6153682889416814,1535.5271502370015,None,,,,,,,1533.5109455878846,None,1533.6943931239657,1533.7108940877952,,,,,,,88,001,2023_Apr_27_1719,SpeechDraft1Carolyn_lessNoise_PlusLocalization,2021.2.3,60.00740084803859,
,,,,,,,,,,,,,,,,,,,,,,,,,,,,,,,,,,,,,,,,,,,,,,,,,,,,,,,,,,,,,,,,,,,,,,,,,,,,,,,,,,,,,,,,,,,,1536.14492140105,None,c,130.71732905926183,1537.1276455712505,None,88,001,2023_Apr_27_1719,SpeechDraft1Carolyn_lessNoise_PlusLocalization,2021.2.3,60.00740084803859,
