Audio_Only_Files,Video_Files,Original_Word_List,noiseLevelCode,conditionCodes,noiseLevelFile1,noiseLevelFile2,InstrTextVar,targetSpeakerName,targetSpeakerEccen,targetSpkrChannel,targetSpkrSound,targetVisualDegrees,visStimLoc,visStimLoc2,visStimW,visStimH,practiceTrials.thisRepN,practiceTrials.thisTrialN,practiceTrials.thisN,practiceTrials.thisIndex,trials.thisRepN,trials.thisTrialN,trials.thisN,trials.thisIndex,audLocalLoop.thisRepN,audLocalLoop.thisTrialN,audLocalLoop.thisN,audLocalLoop.thisIndex,visualLocalLoop.thisRepN,visualLocalLoop.thisTrialN,visualLocalLoop.thisN,visualLocalLoop.thisIndex,letsGoAlready.keys,letsGoAlready.rt,letsGoAlready.started,letsGoAlready.stopped,text_2.started,text_2.stopped,text_3.started,text_3.stopped,key_resp_2.keys,key_resp_2.rt,key_resp_2.started,key_resp_2.stopped,text_5.started,text_5.stopped,fixCross.started,fixCross.stopped,fixCross2.started,fixCross2.stopped,answerPrompt.started,answerPrompt.stopped,getAnswer.text,getAnswer.started,getAnswer.stopped,goToNext.keys,goToNext.rt,goToNext.started,goToNext.stopped,stretchBreakTxrt.started,stretchBreakTxrt.stopped,key_resp_3.keys,key_resp_3.rt,key_resp_3.started,key_resp_3.stopped,letsGoLocal.keys,letsGoLocal.rt,letsGoLocal.started,letsGoLocal.stopped,text_4.started,text_4.stopped,prepFixTxt.started,prepFixTxt.stopped,prepFixTxt_2.started,prepFixTxt_2.stopped,respPromptLocal.started,respPromptLocal.stopped,slider.response,slider.rt,slider.started,slider.stopped,letsGoLocal_2.keys,letsGoLocal_2.rt,letsGoLocal_2.started,letsGoLocal_2.stopped,text_7.started,text_7.stopped,prepFixTxt_3.started,prepFixTxt_3.stopped,grating.started,grating.stopped,exitTxt.started,exitTxt.stopped,key_resp.keys,key_resp.rt,key_resp.started,key_resp.stopped,participant,session,date,expName,psychopyVersion,frameRate,
,,,,,,,,,,,,,,,,,,,,,,,,,,,,,,,,,space,6.7985450509004295,13.140147284604609,None,,,,,,,,,,,,,,,,,,,,,,,,,,,,,,,,,,,,,,,,,,,,,,,,,,,,,,,,,,,,,,90,001,2023_Apr_28_1822,SpeechDraft1Carolyn_lessNoise_PlusLocalization,2021.2.3,59.962383042027575,
,,,,,,,,,,,,,,,,,,,,,,,,,,,,,,,,,,,,,13.140147284604609,None,20.071094906888902,None,space,13.380101012066007,20.25466468092054,None,,,,,,,,,,,,,,,,,,,,,,,,,,,,,,,,,,,,,,,,,,,,,,,,,,,,,,90,001,2023_Apr_28_1822,SpeechDraft1Carolyn_lessNoise_PlusLocalization,2021.2.3,59.962383042027575,
ash.wav,ash.mpg,ash,1,A,Pink_Noise_1_1.wav,Pink_Noise_1_2.wav,"This is an example of an

AUDIO trial",,,,,,,,,,0,0,0,0,,,,,,,,,,,,,,,,,,,,,,,,,33.687722854781896,None,34.67142886156216,None,37.904535601846874,None,39.28957325592637,None,ash,39.28957325592637,None,return,10.255405853036791,39.371353783644736,None,,,,,,,,,,,,,,,,,,,,,,,,,,,,,,,,,,,,,,,90,001,2023_Apr_28_1822,SpeechDraft1Carolyn_lessNoise_PlusLocalization,2021.2.3,59.962383042027575,
ash.wav,ash.mpg,ash,1,AV,Pink_Noise_1_1.wav,Pink_Noise_1_2.wav,"This is an example of an

AUDIO + VIDEO  trial",,,,,,,,,,0,1,1,1,,,,,,,,,,,,,,,,,,,,,,,,,49.67123148497194,None,50.6714328257367,None,52.15566596761346,None,53.53803318692371,None,"ash
",53.53803318692371,None,return,4.501382524613291,53.62129869265482,None,,,,,,,,,,,,,,,,,,,,,,,,,,,,,,,,,,,,,,,90,001,2023_Apr_28_1822,SpeechDraft1Carolyn_lessNoise_PlusLocalization,2021.2.3,59.962383042027575,
,,,,,,,,,,,,,,,,,,,,,,,,,,,,,,,,,,,,,,,,,,,,,,,,,,,,,,,,,,,,58.170920001808554,None,space,8.255876570008695,58.35480830958113,None,,,,,,,,,,,,,,,,,,,,,,,,,,,,,,,,,90,001,2023_Apr_28_1822,SpeechDraft1Carolyn_lessNoise_PlusLocalization,2021.2.3,59.962383042027575,
chump.wav,chump.mpg,chump,6,AV,Pink_Noise_6_1.wav,Pink_Noise_6_2.wav,,,,,,,,,,,,,,,0,0,0,84,,,,,,,,,,,,,,,,,,,,,,,66.6712532537058,None,68.15434030955657,None,69.53792711999267,None,shop,69.53792711999267,None,return,7.0372022478841245,69.62146849976853,None,,,,,,,,,,,,,,,,,,,,,,,,,,,,,,,,,,,,,,,90,001,2023_Apr_28_1822,SpeechDraft1Carolyn_lessNoise_PlusLocalization,2021.2.3,59.962383042027575,
blow.wav,blow.mpg,blow,2,AV,Pink_Noise_2_1.wav,Pink_Noise_2_2.wav,,,,,,,,,,,,,,,0,1,1,78,,,,,,,,,,,,,,,,,,,,,,,76.68816036265343,None,78.18763497285545,None,79.57140546757728,None,blow,79.57140546757728,None,return,9.212013949174434,79.65468812175095,None,,,,,,,,,,,,,,,,,,,,,,,,,,,,,,,,,,,,,,,90,001,2023_Apr_28_1822,SpeechDraft1Carolyn_lessNoise_PlusLocalization,2021.2.3,59.962383042027575,
blank.wav,blank.mpg,blank,1,AV,Pink_Noise_1_1.wav,Pink_Noise_1_2.wav,,,,,,,,,,,,,,,0,2,2,69,,,,,,,,,,,,,,,,,,,,,,,88.88794948766008,None,90.38769567292184,None,91.77147033577785,None,blank,91.77147033577785,None,return,4.12394410604611,91.85488507570699,None,,,,,,,,,,,,,,,,,,,,,,,,,,,,,,,,,,,,,,,90,001,2023_Apr_28_1822,SpeechDraft1Carolyn_lessNoise_PlusLocalization,2021.2.3,59.962383042027575,
fifth.wav,fifth.mpg,fifth,5,A,Pink_Noise_5_1.wav,Pink_Noise_5_2.wav,,,,,,,,,,,,,,,0,3,3,7,,,,,,,,,,,,,,,,,,,,,,,96.00484318798408,None,97.50451365299523,None,98.88833900354803,None,shh,98.88833900354803,None,return,17.711044187191874,98.97162145376205,None,,,,,,,,,,,,,,,,,,,,,,,,,,,,,,,,,,,,,,,90,001,2023_Apr_28_1822,SpeechDraft1Carolyn_lessNoise_PlusLocalization,2021.2.3,59.962383042027575,
buzz.wav,buzz.mpg,buzz,5,A,Pink_Noise_5_1.wav,Pink_Noise_5_2.wav,,,,,,,,,,,,,,,0,4,4,47,,,,,,,,,,,,,,,,,,,,,,,116.70517636556178,None,118.2045603399165,None,119.58826373470947,None,bye,119.58826373470947,None,return,9.21114143403247,119.67152765579522,None,,,,,,,,,,,,,,,,,,,,,,,,,,,,,,,,,,,,,,,90,001,2023_Apr_28_1822,SpeechDraft1Carolyn_lessNoise_PlusLocalization,2021.2.3,59.962383042027575,
warmth.wav,warmth.mpg,warmth,1,A,Pink_Noise_1_1.wav,Pink_Noise_1_2.wav,,,,,,,,,,,,,,,0,5,5,41,,,,,,,,,,,,,,,,,,,,,,,128.90498267160729,None,130.40452157473192,None,131.78840150870383,None,"worth
",131.78840150870383,None,return,11.65120691107586,131.87148122256622,None,,,,,,,,,,,,,,,,,,,,,,,,,,,,,,,,,,,,,,,90,001,2023_Apr_28_1822,SpeechDraft1Carolyn_lessNoise_PlusLocalization,2021.2.3,59.962383042027575,
oats.wav,oats.mpg,oats,1,AV,Pink_Noise_1_1.wav,Pink_Noise_1_2.wav,,,,,,,,,,,,,,,0,6,6,70,,,,,,,,,,,,,,,,,,,,,,,143.5549525427632,None,145.05481776269153,None,146.4380124816671,None,oats,146.4380124816671,None,return,10.633151937741786,146.5216423398815,None,,,,,,,,,,,,,,,,,,,,,,,,,,,,,,,,,,,,,,,90,001,2023_Apr_28_1822,SpeechDraft1Carolyn_lessNoise_PlusLocalization,2021.2.3,59.962383042027575,
glove.wav,glove.mpg,glove,4,A,Pink_Noise_4_1.wav,Pink_Noise_4_2.wav,,,,,,,,,,,,,,,0,7,7,46,,,,,,,,,,,,,,,,,,,,,,,157.17150877974927,None,158.6713135787286,None,160.05479065980762,None,glovr,160.05479065980762,None,return,9.448430683929473,160.13832373078912,None,,,,,,,,,,,,,,,,,,,,,,,,,,,,,,,,,,,,,,,90,001,2023_Apr_28_1822,SpeechDraft1Carolyn_lessNoise_PlusLocalization,2021.2.3,59.962383042027575,
script.wav,script.mpg,script,4,A,Pink_Noise_4_1.wav,Pink_Noise_4_2.wav,,,,,,,,,,,,,,,0,8,8,40,,,,,,,,,,,,,,,,,,,,,,,169.60480693588033,None,171.1044610319659,None,172.48813057271764,None,scrip,172.48813057271764,None,return,28.399238055106252,172.5716120786965,None,,,,,,,,,,,,,,,,,,,,,,,,,,,,,,,,,,,,,,,90,001,2023_Apr_28_1822,SpeechDraft1Carolyn_lessNoise_PlusLocalization,2021.2.3,59.962383042027575,
earth.wav,earth.mpg,earth,6,A,Pink_Noise_6_1.wav,Pink_Noise_6_2.wav,,,,,,,,,,,,,,,0,9,9,5,,,,,,,,,,,,,,,,,,,,,,,200.98833554657176,None,202.4880424295552,None,203.87159716477618,None,drip,203.87159716477618,None,return,4.471845687832683,203.95511446986347,None,,,,,,,,,,,,,,,,,,,,,,,,,,,,,,,,,,,,,,,90,001,2023_Apr_28_1822,SpeechDraft1Carolyn_lessNoise_PlusLocalization,2021.2.3,59.962383042027575,
shock.wav,shock.mpg,shock,3,A,Pink_Noise_3_1.wav,Pink_Noise_3_2.wav,,,,,,,,,,,,,,,0,10,10,20,,,,,,,,,,,,,,,,,,,,,,,208.45510062482208,None,209.95456308079883,None,211.3383572427556,None,"shock
",211.3383572427556,None,return,7.452986605931073,211.42169967480004,None,,,,,,,,,,,,,,,,,,,,,,,,,,,,,,,,,,,,,,,90,001,2023_Apr_28_1822,SpeechDraft1Carolyn_lessNoise_PlusLocalization,2021.2.3,59.962383042027575,
fence.wav,fence.mpg,fence,1,A,Pink_Noise_1_1.wav,Pink_Noise_1_2.wav,,,,,,,,,,,,,,,0,11,11,24,,,,,,,,,,,,,,,,,,,,,,,218.90510587673634,None,220.40473156888038,None,221.7883036308922,None,beds,221.7883036308922,None,return,6.858914624899626,221.87175392871723,None,,,,,,,,,,,,,,,,,,,,,,,,,,,,,,,,,,,,,,,90,001,2023_Apr_28_1822,SpeechDraft1Carolyn_lessNoise_PlusLocalization,2021.2.3,59.962383042027575,
eight.wav,eight.mpg,eight,2,A,Pink_Noise_2_1.wav,Pink_Noise_2_2.wav,,,,,,,,,,,,,,,0,12,12,32,,,,,,,,,,,,,,,,,,,,,,,228.75492937583476,None,230.25461132265627,None,231.63809167779982,None,"ate
",231.63809167779982,None,return,1.5849713869392872,231.72170495986938,None,,,,,,,,,,,,,,,,,,,,,,,,,,,,,,,,,,,,,,,90,001,2023_Apr_28_1822,SpeechDraft1Carolyn_lessNoise_PlusLocalization,2021.2.3,59.962383042027575,
thrown.wav,thrown.mpg,thrown,6,AV,Pink_Noise_6_1.wav,Pink_Noise_6_2.wav,,,,,,,,,,,,,,,0,13,13,71,,,,,,,,,,,,,,,,,,,,,,,233.33827508985996,None,234.8223284939304,None,236.20500253187492,None,"throw
",236.20500253187492,None,return,8.60224931826815,236.28843447379768,None,,,,,,,,,,,,,,,,,,,,,,,,,,,,,,,,,,,,,,,90,001,2023_Apr_28_1822,SpeechDraft1Carolyn_lessNoise_PlusLocalization,2021.2.3,59.962383042027575,
quart.wav,quart.mpg,quart,5,A,Pink_Noise_5_1.wav,Pink_Noise_5_2.wav,,,,,,,,,,,,,,,0,14,14,26,,,,,,,,,,,,,,,,,,,,,,,244.92152287997305,None,246.4213427817449,None,247.80521365255117,None,put,247.80521365255117,None,return,5.522189958952367,247.88857607357204,None,,,,,,,,,,,,,,,,,,,,,,,,,,,,,,,,,,,,,,,90,001,2023_Apr_28_1822,SpeechDraft1Carolyn_lessNoise_PlusLocalization,2021.2.3,59.962383042027575,
glide.wav,glide.mpg,glide,5,AV,Pink_Noise_5_1.wav,Pink_Noise_5_2.wav,,,,,,,,,,,,,,,0,15,15,64,,,,,,,,,,,,,,,,,,,,,,,253.43836098071188,None,254.9381441315636,None,256.3219845816493,None,"glide
",256.3219845816493,None,return,5.301578354090452,256.40509749483317,None,,,,,,,,,,,,,,,,,,,,,,,,,,,,,,,,,,,,,,,90,001,2023_Apr_28_1822,SpeechDraft1Carolyn_lessNoise_PlusLocalization,2021.2.3,59.962383042027575,
bird.wav,bird.mpg,bird,4,A,Pink_Noise_4_1.wav,Pink_Noise_4_2.wav,,,,,,,,,,,,,,,0,16,16,58,,,,,,,,,,,,,,,,,,,,,,,261.73841259488836,None,263.2380152125843,None,264.6217260598205,None,bird,264.6217260598205,None,return,4.305770926177502,264.7050647176802,None,,,,,,,,,,,,,,,,,,,,,,,,,,,,,,,,,,,,,,,90,001,2023_Apr_28_1822,SpeechDraft1Carolyn_lessNoise_PlusLocalization,2021.2.3,59.962383042027575,
swan.wav,swan.mpg,swan,4,AV,Pink_Noise_4_1.wav,Pink_Noise_4_2.wav,,,,,,,,,,,,,,,0,17,17,117,,,,,,,,,,,,,,,,,,,,,,,269.03847094485536,None,270.5379832559265,None,271.92172141186893,None,"swang
",271.92172141186893,None,return,12.25353970285505,272.0051311426796,None,,,,,,,,,,,,,,,,,,,,,,,,,,,,,,,,,,,,,,,90,001,2023_Apr_28_1822,SpeechDraft1Carolyn_lessNoise_PlusLocalization,2021.2.3,59.962383042027575,
grin.wav,grin.mpg,grin,4,A,Pink_Noise_4_1.wav,Pink_Noise_4_2.wav,,,,,,,,,,,,,,,0,18,18,9,,,,,,,,,,,,,,,,,,,,,,,284.2884254446253,None,285.7880155108869,None,287.1718256799504,None,green,287.1718256799504,None,return,2.747608717996627,287.25507800793275,None,,,,,,,,,,,,,,,,,,,,,,,,,,,,,,,,,,,,,,,90,001,2023_Apr_28_1822,SpeechDraft1Carolyn_lessNoise_PlusLocalization,2021.2.3,59.962383042027575,
bind.wav,bind.mpg,bind,6,AV,Pink_Noise_6_1.wav,Pink_Noise_6_2.wav,,,,,,,,,,,,,,,0,19,19,105,,,,,,,,,,,,,,,,,,,,,,,290.0217513255775,None,291.5213362840004,None,292.9049656367861,None,"bye
",292.9049656367861,None,return,3.8862015628255904,292.98847752669826,None,,,,,,,,,,,,,,,,,,,,,,,,,,,,,,,,,,,,,,,90,001,2023_Apr_28_1822,SpeechDraft1Carolyn_lessNoise_PlusLocalization,2021.2.3,59.962383042027575,
gang.wav,gang.mpg,gang,1,AV,Pink_Noise_1_1.wav,Pink_Noise_1_2.wav,,,,,,,,,,,,,,,0,20,20,73,,,,,,,,,,,,,,,,,,,,,,,296.9052287726663,None,298.4047256708145,None,299.7884392705746,None,gang,299.7884392705746,None,return,6.899043282028288,299.8717104368843,None,,,,,,,,,,,,,,,,,,,,,,,,,,,,,,,,,,,,,,,90,001,2023_Apr_28_1822,SpeechDraft1Carolyn_lessNoise_PlusLocalization,2021.2.3,59.962383042027575,
blunt.wav,blunt.mpg,blunt,1,AV,Pink_Noise_1_1.wav,Pink_Noise_1_2.wav,,,,,,,,,,,,,,,0,21,21,118,,,,,,,,,,,,,,,,,,,,,,,306.7886035195552,None,308.2880587587133,None,309.67180532589555,None,"blood
",309.67180532589555,None,return,12.287448107730597,309.75528795365244,None,,,,,,,,,,,,,,,,,,,,,,,,,,,,,,,,,,,,,,,90,001,2023_Apr_28_1822,SpeechDraft1Carolyn_lessNoise_PlusLocalization,2021.2.3,59.962383042027575,
spire.wav,spire.mpg,spire,6,A,Pink_Noise_6_1.wav,Pink_Noise_6_2.wav,,,,,,,,,,,,,,,0,22,22,29,,,,,,,,,,,,,,,,,,,,,,,322.07171025360003,None,323.5716121145524,None,324.9550682618283,None,spice,324.9550682618283,None,return,6.49228091398254,325.03844369761646,None,,,,,,,,,,,,,,,,,,,,,,,,,,,,,,,,,,,,,,,90,001,2023_Apr_28_1822,SpeechDraft1Carolyn_lessNoise_PlusLocalization,2021.2.3,59.962383042027575,
catch.wav,catch.mpg,catch,4,A,Pink_Noise_4_1.wav,Pink_Noise_4_2.wav,,,,,,,,,,,,,,,0,23,23,44,,,,,,,,,,,,,,,,,,,,,,,331.555192168802,None,333.05457877973095,None,334.43872817372903,None,cash,334.43872817372903,None,return,2.0807793508283794,334.52192139578983,None,,,,,,,,,,,,,,,,,,,,,,,,,,,,,,,,,,,,,,,90,001,2023_Apr_28_1822,SpeechDraft1Carolyn_lessNoise_PlusLocalization,2021.2.3,59.962383042027575,
glad.wav,glad.mpg,glad,4,AV,Pink_Noise_4_1.wav,Pink_Noise_4_2.wav,,,,,,,,,,,,,,,0,24,24,87,,,,,,,,,,,,,,,,,,,,,,,336.62176367873326,None,338.1212800559588,None,339.5050522587262,None,"glad
",339.5050522587262,None,return,5.102210673037916,339.5884659285657,None,,,,,,,,,,,,,,,,,,,,,,,,,,,,,,,,,,,,,,,90,001,2023_Apr_28_1822,SpeechDraft1Carolyn_lessNoise_PlusLocalization,2021.2.3,59.962383042027575,
mold.wav,mold.mpg,mold,2,A,Pink_Noise_2_1.wav,Pink_Noise_2_2.wav,,,,,,,,,,,,,,,0,25,25,1,,,,,,,,,,,,,,,,,,,,,,,344.7219403977506,None,346.22187217185274,None,347.60530699556693,None,"old
",347.60530699556693,None,return,2.3861818527802825,347.68849855381995,None,,,,,,,,,,,,,,,,,,,,,,,,,,,,,,,,,,,,,,,90,001,2023_Apr_28_1822,SpeechDraft1Carolyn_lessNoise_PlusLocalization,2021.2.3,59.962383042027575,
flog.wav,flog.mpg,flog,3,AV,Pink_Noise_3_1.wav,Pink_Noise_3_2.wav,,,,,,,,,,,,,,,0,26,26,85,,,,,,,,,,,,,,,,,,,,,,,350.1050808886066,None,351.6048688776791,None,352.98839184083045,None,frog,352.98839184083045,None,return,4.9628226440399885,353.07188677974045,None,,,,,,,,,,,,,,,,,,,,,,,,,,,,,,,,,,,,,,,90,001,2023_Apr_28_1822,SpeechDraft1Carolyn_lessNoise_PlusLocalization,2021.2.3,59.962383042027575,
cheer.wav,cheer.mpg,cheer,3,AV,Pink_Noise_3_1.wav,Pink_Noise_3_2.wav,,,,,,,,,,,,,,,0,27,27,83,,,,,,,,,,,,,,,,,,,,,,,358.055105520878,None,359.5547307175584,None,360.9384603416547,None,cheer,360.9384603416547,None,return,3.2047860641032457,361.02189108682796,None,,,,,,,,,,,,,,,,,,,,,,,,,,,,,,,,,,,,,,,90,001,2023_Apr_28_1822,SpeechDraft1Carolyn_lessNoise_PlusLocalization,2021.2.3,59.962383042027575,
greek.wav,greek.mpg,greek,3,A,Pink_Noise_3_1.wav,Pink_Noise_3_2.wav,,,,,,,,,,,,,,,0,28,28,35,,,,,,,,,,,,,,,,,,,,,,,364.255158258602,None,365.7549546658993,None,367.138579569757,None,greek,367.138579569757,None,return,3.588804414961487,367.2220364669338,None,,,,,,,,,,,,,,,,,,,,,,,,,,,,,,,,,,,,,,,90,001,2023_Apr_28_1822,SpeechDraft1Carolyn_lessNoise_PlusLocalization,2021.2.3,59.962383042027575,
flank.wav,flank.mpg,flank,2,A,Pink_Noise_2_1.wav,Pink_Noise_2_2.wav,,,,,,,,,,,,,,,0,29,29,16,,,,,,,,,,,,,,,,,,,,,,,370.83860991569236,None,372.3383159376681,None,373.7219590409659,None,"flack
",373.7219590409659,None,return,11.853462610859424,373.8052204409614,None,,,,,,,,,,,,,,,,,,,,,,,,,,,,,,,,,,,,,,,90,001,2023_Apr_28_1822,SpeechDraft1Carolyn_lessNoise_PlusLocalization,2021.2.3,59.962383042027575,
bull.wav,bull.mpg,bull,1,AV,Pink_Noise_1_1.wav,Pink_Noise_1_2.wav,,,,,,,,,,,,,,,0,30,30,108,,,,,,,,,,,,,,,,,,,,,,,385.6886233915575,None,387.1882169037126,None,388.5720816217363,None,ball,388.5720816217363,None,return,12.755275132134557,388.6555177709088,None,,,,,,,,,,,,,,,,,,,,,,,,,,,,,,,,,,,,,,,90,001,2023_Apr_28_1822,SpeechDraft1Carolyn_lessNoise_PlusLocalization,2021.2.3,59.962383042027575,
wet.wav,wet.mpg,wet,6,AV,Pink_Noise_6_1.wav,Pink_Noise_6_2.wav,,,,,,,,,,,,,,,0,31,31,89,,,,,,,,,,,,,,,,,,,,,,,401.4386579389684,None,402.9386891159229,None,404.32182463863865,None,wet,404.32182463863865,None,return,3.1974342348985374,404.4052905086428,None,,,,,,,,,,,,,,,,,,,,,,,,,,,,,,,,,,,,,,,90,001,2023_Apr_28_1822,SpeechDraft1Carolyn_lessNoise_PlusLocalization,2021.2.3,59.962383042027575,
drip.wav,drip.mpg,drip,3,A,Pink_Noise_3_1.wav,Pink_Noise_3_2.wav,,,,,,,,,,,,,,,0,32,32,39,,,,,,,,,,,,,,,,,,,,,,,407.6217332505621,None,409.1216157269664,None,410.50533628696576,None,dr,410.50533628696576,None,return,2.3500466416589916,410.5885965707712,None,,,,,,,,,,,,,,,,,,,,,,,,,,,,,,,,,,,,,,,90,001,2023_Apr_28_1822,SpeechDraft1Carolyn_lessNoise_PlusLocalization,2021.2.3,59.962383042027575,
chill.wav,chill.mpg,chill,4,AV,Pink_Noise_4_1.wav,Pink_Noise_4_2.wav,,,,,,,,,,,,,,,0,33,33,77,,,,,,,,,,,,,,,,,,,,,,,412.9553283918649,None,414.4549000659026,None,415.8387542976998,None,chill,415.8387542976998,None,return,9.312710561323911,415.92206556582823,None,,,,,,,,,,,,,,,,,,,,,,,,,,,,,,,,,,,,,,,90,001,2023_Apr_28_1822,SpeechDraft1Carolyn_lessNoise_PlusLocalization,2021.2.3,59.962383042027575,
food.wav,food.mpg,food,4,A,Pink_Noise_4_1.wav,Pink_Noise_4_2.wav,,,,,,,,,,,,,,,0,34,34,8,,,,,,,,,,,,,,,,,,,,,,,425.2558040218428,None,426.75480925198644,None,428.1388057935983,None,eat,428.1388057935983,None,return,4.628679637797177,428.22199237998575,None,,,,,,,,,,,,,,,,,,,,,,,,,,,,,,,,,,,,,,,90,001,2023_Apr_28_1822,SpeechDraft1Carolyn_lessNoise_PlusLocalization,2021.2.3,59.962383042027575,
film.wav,film.mpg,film,2,AV,Pink_Noise_2_1.wav,Pink_Noise_2_2.wav,,,,,,,,,,,,,,,0,35,35,65,,,,,,,,,,,,,,,,,,,,,,,432.87206599954516,None,434.3718625106849,None,435.7551762056537,None,film,435.7551762056537,None,return,6.532218298874795,435.83861419791356,None,,,,,,,,,,,,,,,,,,,,,,,,,,,,,,,,,,,,,,,90,001,2023_Apr_28_1822,SpeechDraft1Carolyn_lessNoise_PlusLocalization,2021.2.3,59.962383042027575,
dove.wav,dove.mpg,dove,5,AV,Pink_Noise_5_1.wav,Pink_Noise_5_2.wav,,,,,,,,,,,,,,,0,36,36,106,,,,,,,,,,,,,,,,,,,,,,,442.38855342566967,None,443.88816326577216,None,445.2721192105673,None,dove,445.2721192105673,None,return,10.711312781088054,445.35535434354097,None,,,,,,,,,,,,,,,,,,,,,,,,,,,,,,,,,,,,,,,90,001,2023_Apr_28_1822,SpeechDraft1Carolyn_lessNoise_PlusLocalization,2021.2.3,59.962383042027575,
four.wav,four.mpg,four,1,A,Pink_Noise_1_1.wav,Pink_Noise_1_2.wav,,,,,,,,,,,,,,,0,37,37,45,,,,,,,,,,,,,,,,,,,,,,,456.0885500446893,None,457.58806369872764,None,458.9721362506971,None,"four
",458.9721362506971,None,return,2.1871932819485664,459.0554799595848,None,,,,,,,,,,,,,,,,,,,,,,,,,,,,,,,,,,,,,,,90,001,2023_Apr_28_1822,SpeechDraft1Carolyn_lessNoise_PlusLocalization,2021.2.3,59.962383042027575,
green.wav,green.mpg,green,2,AV,Pink_Noise_2_1.wav,Pink_Noise_2_2.wav,,,,,,,,,,,,,,,0,38,38,88,,,,,,,,,,,,,,,,,,,,,,,461.2718882127665,None,462.77180367382243,None,464.15532412659377,None,"green
",464.15532412659377,None,return,2.667972180992365,464.23869199398905,None,,,,,,,,,,,,,,,,,,,,,,,,,,,,,,,,,,,,,,,90,001,2023_Apr_28_1822,SpeechDraft1Carolyn_lessNoise_PlusLocalization,2021.2.3,59.962383042027575,
cream.wav,cream.mpg,cream,6,A,Pink_Noise_6_1.wav,Pink_Noise_6_2.wav,,,,,,,,,,,,,,,0,39,39,51,,,,,,,,,,,,,,,,,,,,,,,466.95538438577205,None,468.4551321086474,None,469.8386935717426,None,pink,469.8386935717426,None,return,8.840811603702605,469.9219629848376,None,,,,,,,,,,,,,,,,,,,,,,,,,,,,,,,,,,,,,,,90,001,2023_Apr_28_1822,SpeechDraft1Carolyn_lessNoise_PlusLocalization,2021.2.3,59.962383042027575,
fog.wav,fog.mpg,fog,1,A,Pink_Noise_1_1.wav,Pink_Noise_1_2.wav,,,,,,,,,,,,,,,0,40,40,52,,,,,,,,,,,,,,,,,,,,,,,478.7888607275672,None,480.2883328949101,None,481.67217189772055,None,fog,481.67217189772055,None,return,3.59141668304801,481.7552383868024,None,,,,,,,,,,,,,,,,,,,,,,,,,,,,,,,,,,,,,,,90,001,2023_Apr_28_1822,SpeechDraft1Carolyn_lessNoise_PlusLocalization,2021.2.3,59.962383042027575,
ditch.wav,ditch.mpg,ditch,1,A,Pink_Noise_1_1.wav,Pink_Noise_1_2.wav,,,,,,,,,,,,,,,0,41,41,48,,,,,,,,,,,,,,,,,,,,,,,485.3720900276676,None,486.871926439926,None,488.2554686157964,None,ditch,488.2554686157964,None,return,10.432233864907175,488.33873496670276,None,,,,,,,,,,,,,,,,,,,,,,,,,,,,,,,,,,,,,,,90,001,2023_Apr_28_1822,SpeechDraft1Carolyn_lessNoise_PlusLocalization,2021.2.3,59.962383042027575,
crude.wav,crude.mpg,crude,5,AV,Pink_Noise_5_1.wav,Pink_Noise_5_2.wav,,,,,,,,,,,,,,,0,42,42,112,,,,,,,,,,,,,,,,,,,,,,,498.7887189676985,None,500.2884556208737,None,501.6720967586152,None,cool,501.6720967586152,None,return,6.927290068939328,501.75540252169594,None,,,,,,,,,,,,,,,,,,,,,,,,,,,,,,,,,,,,,,,90,001,2023_Apr_28_1822,SpeechDraft1Carolyn_lessNoise_PlusLocalization,2021.2.3,59.962383042027575,
clash.wav,clash.mpg,clash,3,AV,Pink_Noise_3_1.wav,Pink_Noise_3_2.wav,,,,,,,,,,,,,,,0,43,43,90,,,,,,,,,,,,,,,,,,,,,,,508.70529175689444,None,510.20487969974056,None,511.5888593075797,None,clash,511.5888593075797,None,return,8.746692140121013,511.6721069556661,None,,,,,,,,,,,,,,,,,,,,,,,,,,,,,,,,,,,,,,,90,001,2023_Apr_28_1822,SpeechDraft1Carolyn_lessNoise_PlusLocalization,2021.2.3,59.962383042027575,
squat.wav,squat.mpg,squat,6,AV,Pink_Noise_6_1.wav,Pink_Noise_6_2.wav,,,,,,,,,,,,,,,0,44,44,95,,,,,,,,,,,,,,,,,,,,,,,520.438834104687,None,521.9387931209058,None,523.3220151667483,None,scratch,523.3220151667483,None,return,12.3894741111435,523.4054610347375,None,,,,,,,,,,,,,,,,,,,,,,,,,,,,,,,,,,,,,,,90,001,2023_Apr_28_1822,SpeechDraft1Carolyn_lessNoise_PlusLocalization,2021.2.3,59.962383042027575,
layer.wav,layer.mpg,layer,2,A,Pink_Noise_2_1.wav,Pink_Noise_2_2.wav,,,,,,,,,,,,,,,0,45,45,10,,,,,,,,,,,,,,,,,,,,,,,535.8222597716376,None,537.3231709557585,None,538.7054216898978,None,player,538.7054216898978,None,return,5.309824637603015,538.7888403856196,None,,,,,,,,,,,,,,,,,,,,,,,,,,,,,,,,,,,,,,,90,001,2023_Apr_28_1822,SpeechDraft1Carolyn_lessNoise_PlusLocalization,2021.2.3,59.962383042027575,
chant.wav,chant.mpg,chant,3,AV,Pink_Noise_3_1.wav,Pink_Noise_3_2.wav,,,,,,,,,,,,,,,0,46,46,66,,,,,,,,,,,,,,,,,,,,,,,544.1221786928363,None,545.6216151709668,None,547.0055918199942,None,char,547.0055918199942,None,return,5.065833407919854,547.0888953376561,None,,,,,,,,,,,,,,,,,,,,,,,,,,,,,,,,,,,,,,,90,001,2023_Apr_28_1822,SpeechDraft1Carolyn_lessNoise_PlusLocalization,2021.2.3,59.962383042027575,
boss.wav,boss.mpg,boss,1,AV,Pink_Noise_1_1.wav,Pink_Noise_1_2.wav,,,,,,,,,,,,,,,0,47,47,62,,,,,,,,,,,,,,,,,,,,,,,552.1722786556929,None,553.6723706168123,None,555.0553877148777,None,boss,555.0553877148777,None,return,5.8158250181004405,555.1390012376942,None,,,,,,,,,,,,,,,,,,,,,,,,,,,,,,,,,,,,,,,90,001,2023_Apr_28_1822,SpeechDraft1Carolyn_lessNoise_PlusLocalization,2021.2.3,59.962383042027575,
fade.wav,fade.mpg,fade,3,A,Pink_Noise_3_1.wav,Pink_Noise_3_2.wav,,,,,,,,,,,,,,,0,48,48,56,,,,,,,,,,,,,,,,,,,,,,,560.9723751335405,None,562.4718997655436,None,563.8556250017136,None,feg,563.8556250017136,None,return,4.095947010908276,563.9387530316599,None,,,,,,,,,,,,,,,,,,,,,,,,,,,,,,,,,,,,,,,90,001,2023_Apr_28_1822,SpeechDraft1Carolyn_lessNoise_PlusLocalization,2021.2.3,59.962383042027575,
gut.wav,gut.mpg,gut,6,A,Pink_Noise_6_1.wav,Pink_Noise_6_2.wav,,,,,,,,,,,,,,,0,49,49,55,,,,,,,,,,,,,,,,,,,,,,,568.055587594863,None,569.5552608720027,None,570.9390353555791,None,dont,570.9390353555791,None,return,7.580589820165187,571.0220995317213,None,,,,,,,,,,,,,,,,,,,,,,,,,,,,,,,,,,,,,,,90,001,2023_Apr_28_1822,SpeechDraft1Carolyn_lessNoise_PlusLocalization,2021.2.3,59.962383042027575,
strive.wav,strive.mpg,strive,2,AV,Pink_Noise_2_1.wav,Pink_Noise_2_2.wav,,,,,,,,,,,,,,,0,50,50,103,,,,,,,,,,,,,,,,,,,,,,,578.6221567629836,None,580.121978324838,None,581.5055212308653,None,strive,581.5055212308653,None,return,4.965955089777708,581.5888629257679,None,,,,,,,,,,,,,,,,,,,,,,,,,,,,,,,,,,,,,,,90,001,2023_Apr_28_1822,SpeechDraft1Carolyn_lessNoise_PlusLocalization,2021.2.3,59.962383042027575,
cheat.wav,cheat.mpg,cheat,5,A,Pink_Noise_5_1.wav,Pink_Noise_5_2.wav,,,,,,,,,,,,,,,0,51,51,53,,,,,,,,,,,,,,,,,,,,,,,586.5722323497757,None,588.0718378275633,None,589.4555021077394,None,"cheat
",589.4555021077394,None,return,4.135725500993431,589.5389607618563,None,,,,,,,,,,,,,,,,,,,,,,,,,,,,,,,,,,,,,,,90,001,2023_Apr_28_1822,SpeechDraft1Carolyn_lessNoise_PlusLocalization,2021.2.3,59.962383042027575,
dish.wav,dish.mpg,dish,1,A,Pink_Noise_1_1.wav,Pink_Noise_1_2.wav,,,,,,,,,,,,,,,0,52,52,13,,,,,,,,,,,,,,,,,,,,,,,593.7055361866951,None,595.205173803959,None,596.5888816840015,None,dish,596.5888816840015,None,return,1.7545563881285489,596.6721154847182,None,,,,,,,,,,,,,,,,,,,,,,,,,,,,,,,,,,,,,,,90,001,2023_Apr_28_1822,SpeechDraft1Carolyn_lessNoise_PlusLocalization,2021.2.3,59.962383042027575,
clot.wav,clot.mpg,clot,2,A,Pink_Noise_2_1.wav,Pink_Noise_2_2.wav,,,,,,,,,,,,,,,0,53,53,59,,,,,,,,,,,,,,,,,,,,,,,598.455401042942,None,599.9550155089237,None,601.3389997566119,None,"clot
",601.3389997566119,None,return,10.636550775263458,601.4221065128222,None,,,,,,,,,,,,,,,,,,,,,,,,,,,,,,,,,,,,,,,90,001,2023_Apr_28_1822,SpeechDraft1Carolyn_lessNoise_PlusLocalization,2021.2.3,59.962383042027575,
cape.wav,cape.mpg,cape,1,AV,Pink_Noise_1_1.wav,Pink_Noise_1_2.wav,,,,,,,,,,,,,,,0,54,54,63,,,,,,,,,,,,,,,,,,,,,,,612.088812856935,None,613.5888086259365,None,614.9724676669575,None,cap,614.9724676669575,None,return,11.675171961076558,615.0555513696745,None,,,,,,,,,,,,,,,,,,,,,,,,,,,,,,,,,,,,,,,90,001,2023_Apr_28_1822,SpeechDraft1Carolyn_lessNoise_PlusLocalization,2021.2.3,59.962383042027575,
cried.wav,cried.mpg,cried,6,A,Pink_Noise_6_1.wav,Pink_Noise_6_2.wav,,,,,,,,,,,,,,,0,55,55,12,,,,,,,,,,,,,,,,,,,,,,,626.7556312587112,None,628.2551305885427,None,629.6389648038894,None,dive,629.6389648038894,None,return,12.432715175207704,629.7221319968812,None,,,,,,,,,,,,,,,,,,,,,,,,,,,,,,,,,,,,,,,90,001,2023_Apr_28_1822,SpeechDraft1Carolyn_lessNoise_PlusLocalization,2021.2.3,59.962383042027575,
block.wav,block.mpg,block,4,AV,Pink_Noise_4_1.wav,Pink_Noise_4_2.wav,,,,,,,,,,,,,,,0,56,56,111,,,,,,,,,,,,,,,,,,,,,,,642.1724553206004,None,643.6720661679283,None,645.0555253545754,None,black,645.0555253545754,None,return,12.111579003743827,645.1390972216614,None,,,,,,,,,,,,,,,,,,,,,,,,,,,,,,,,,,,,,,,90,001,2023_Apr_28_1822,SpeechDraft1Carolyn_lessNoise_PlusLocalization,2021.2.3,59.962383042027575,
beam.wav,beam.mpg,beam,5,AV,Pink_Noise_5_1.wav,Pink_Noise_5_2.wav,,,,,,,,,,,,,,,0,57,57,115,,,,,,,,,,,,,,,,,,,,,,,657.2722702468745,None,658.7719013988972,None,660.1556370859034,None,beep,660.1556370859034,None,return,2.9077358548529446,660.2389555117115,None,,,,,,,,,,,,,,,,,,,,,,,,,,,,,,,,,,,,,,,90,001,2023_Apr_28_1822,SpeechDraft1Carolyn_lessNoise_PlusLocalization,2021.2.3,59.962383042027575,
dirt.wav,dirt.mpg,dirt,4,AV,Pink_Noise_4_1.wav,Pink_Noise_4_2.wav,,,,,,,,,,,,,,,0,58,58,101,,,,,,,,,,,,,,,,,,,,,,,663.1722899549641,None,664.6719167078845,None,666.0556820156053,None,dirty,666.0556820156053,None,return,5.031836305744946,666.1389533458278,None,,,,,,,,,,,,,,,,,,,,,,,,,,,,,,,,,,,,,,,90,001,2023_Apr_28_1822,SpeechDraft1Carolyn_lessNoise_PlusLocalization,2021.2.3,59.962383042027575,
faith.wav,faith.mpg,faith,4,AV,Pink_Noise_4_1.wav,Pink_Noise_4_2.wav,,,,,,,,,,,,,,,0,59,59,76,,,,,,,,,,,,,,,,,,,,,,,671.1889861719683,None,672.6887803175487,None,674.0721777835861,None,faith,674.0721777835861,None,return,15.815182693768293,674.1556308115833,None,,,,,,,,,,,,,,,,,,,,,,,,,,,,,,,,,,,,,,,90,001,2023_Apr_28_1822,SpeechDraft1Carolyn_lessNoise_PlusLocalization,2021.2.3,59.962383042027575,
clumps.wav,clumps.mpg,clumps,4,A,Pink_Noise_4_1.wav,Pink_Noise_4_2.wav,,,,,,,,,,,,,,,0,60,60,17,,,,,,,,,,,,,,,,,,,,,,,689.9889247105457,None,691.4901409298182,None,692.8723838087171,None,clumps,692.8723838087171,None,return,10.279134289827198,692.955557545647,None,,,,,,,,,,,,,,,,,,,,,,,,,,,,,,,,,,,,,,,90,001,2023_Apr_28_1822,SpeechDraft1Carolyn_lessNoise_PlusLocalization,2021.2.3,59.962383042027575,
dot.wav,dot.mpg,dot,3,AV,Pink_Noise_3_1.wav,Pink_Noise_3_2.wav,,,,,,,,,,,,,,,0,61,61,61,,,,,,,,,,,,,,,,,,,,,,,703.2556787505746,None,704.7721369927749,None,706.1389309945516,None,dot,706.1389309945516,None,return,4.204328903928399,706.2223559538834,None,,,,,,,,,,,,,,,,,,,,,,,,,,,,,,,,,,,,,,,90,001,2023_Apr_28_1822,SpeechDraft1Carolyn_lessNoise_PlusLocalization,2021.2.3,59.962383042027575,
feast.wav,feast.mpg,feast,6,A,Pink_Noise_6_1.wav,Pink_Noise_6_2.wav,,,,,,,,,,,,,,,0,62,62,49,,,,,,,,,,,,,,,,,,,,,,,710.4558202936314,None,711.955218964722,None,713.3390562417917,None,stink,713.3390562417917,None,return,6.788343884982169,713.4223407539539,None,,,,,,,,,,,,,,,,,,,,,,,,,,,,,,,,,,,,,,,90,001,2023_Apr_28_1822,SpeechDraft1Carolyn_lessNoise_PlusLocalization,2021.2.3,59.962383042027575,
cheek.wav,cheek.mpg,cheek,2,A,Pink_Noise_2_1.wav,Pink_Noise_2_2.wav,,,,,,,,,,,,,,,0,63,63,28,,,,,,,,,,,,,,,,,,,,,,,720.2389965527691,None,721.7390068299137,None,723.1224318696186,None,cheeck,723.1224318696186,None,return,7.941166783683002,723.2057082545944,None,,,,,,,,,,,,,,,,,,,,,,,,,,,,,,,,,,,,,,,90,001,2023_Apr_28_1822,SpeechDraft1Carolyn_lessNoise_PlusLocalization,2021.2.3,59.962383042027575,
roast.wav,roast.mpg,roast,1,A,Pink_Noise_1_1.wav,Pink_Noise_1_2.wav,,,,,,,,,,,,,,,0,64,64,36,,,,,,,,,,,,,,,,,,,,,,,731.1724107307382,None,732.6720725796185,None,734.0557309379801,None,roast,734.0557309379801,None,return,5.855796711985022,734.1390066077001,None,,,,,,,,,,,,,,,,,,,,,,,,,,,,,,,,,,,,,,,90,001,2023_Apr_28_1822,SpeechDraft1Carolyn_lessNoise_PlusLocalization,2021.2.3,59.962383042027575,
thief.wav,thief.mpg,thief,5,AV,Pink_Noise_5_1.wav,Pink_Noise_5_2.wav,,,,,,,,,,,,,,,0,65,65,60,,,,,,,,,,,,,,,,,,,,,,,740.0222984738648,None,741.5233059986494,None,742.9059898918495,None,theif,742.9059898918495,None,return,4.15772318886593,742.9891028227285,None,,,,,,,,,,,,,,,,,,,,,,,,,,,,,,,,,,,,,,,90,001,2023_Apr_28_1822,SpeechDraft1Carolyn_lessNoise_PlusLocalization,2021.2.3,59.962383042027575,
bye.wav,bye.mpg,bye,1,AV,Pink_Noise_1_1.wav,Pink_Noise_1_2.wav,,,,,,,,,,,,,,,0,66,66,119,,,,,,,,,,,,,,,,,,,,,,,747.1722949328832,None,748.6731112399139,None,750.0560561837628,None,bye,750.0560561837628,None,return,4.111533110029995,750.1391620095819,None,,,,,,,,,,,,,,,,,,,,,,,,,,,,,,,,,,,,,,,90,001,2023_Apr_28_1822,SpeechDraft1Carolyn_lessNoise_PlusLocalization,2021.2.3,59.962383042027575,
bath.wav,bath.mpg,bath,5,A,Pink_Noise_5_1.wav,Pink_Noise_5_2.wav,,,,,,,,,,,,,,,0,67,67,43,,,,,,,,,,,,,,,,,,,,,,,754.2724302047864,None,755.7887658537365,None,757.1727861259133,None,fact,757.1727861259133,None,return,4.930986735969782,757.2556969327852,None,,,,,,,,,,,,,,,,,,,,,,,,,,,,,,,,,,,,,,,90,001,2023_Apr_28_1822,SpeechDraft1Carolyn_lessNoise_PlusLocalization,2021.2.3,59.962383042027575,
bow.wav,bow.mpg,bow,6,AV,Pink_Noise_6_1.wav,Pink_Noise_6_2.wav,,,,,,,,,,,,,,,0,68,68,114,,,,,,,,,,,,,,,,,,,,,,,762.2058030548505,None,763.7221284867264,None,765.0889593567699,None,bow,765.0889593567699,None,return,4.374660435132682,765.1722567188554,None,,,,,,,,,,,,,,,,,,,,,,,,,,,,,,,,,,,,,,,90,001,2023_Apr_28_1822,SpeechDraft1Carolyn_lessNoise_PlusLocalization,2021.2.3,59.962383042027575,
fable.wav,fable.mpg,fable,5,A,Pink_Noise_5_1.wav,Pink_Noise_5_2.wav,,,,,,,,,,,,,,,0,69,69,6,,,,,,,,,,,,,,,,,,,,,,,769.5723762167618,None,771.0718760476448,None,772.4556109928526,None,maybe,772.4556109928526,None,return,6.255619679111987,772.5392229529098,None,,,,,,,,,,,,,,,,,,,,,,,,,,,,,,,,,,,,,,,90,001,2023_Apr_28_1822,SpeechDraft1Carolyn_lessNoise_PlusLocalization,2021.2.3,59.962383042027575,
clad.wav,clad.mpg,clad,6,AV,Pink_Noise_6_1.wav,Pink_Noise_6_2.wav,,,,,,,,,,,,,,,0,70,70,110,,,,,,,,,,,,,,,,,,,,,,,778.8224430708215,None,780.3555669956841,None,781.7391061629169,None,"glide
",781.7391061629169,None,return,11.500220583751798,781.8224325715564,None,,,,,,,,,,,,,,,,,,,,,,,,,,,,,,,,,,,,,,,90,001,2023_Apr_28_1822,SpeechDraft1Carolyn_lessNoise_PlusLocalization,2021.2.3,59.962383042027575,
round.wav,round.mpg,round,1,A,Pink_Noise_1_1.wav,Pink_Noise_1_2.wav,,,,,,,,,,,,,,,0,71,71,27,,,,,,,,,,,,,,,,,,,,,,,793.3559221597388,None,794.8721191138029,None,796.2391253807582,None,round,796.2391253807582,None,return,4.424176411237568,796.3225795417093,None,,,,,,,,,,,,,,,,,,,,,,,,,,,,,,,,,,,,,,,90,001,2023_Apr_28_1822,SpeechDraft1Carolyn_lessNoise_PlusLocalization,2021.2.3,59.962383042027575,
unit.wav,unit.mpg,unit,2,AV,Pink_Noise_2_1.wav,Pink_Noise_2_2.wav,,,,,,,,,,,,,,,0,72,72,92,,,,,,,,,,,,,,,,,,,,,,,800.7725167167373,None,802.2887610648759,None,803.6724831005558,None,unit,803.6724831005558,None,return,2.622892308048904,803.7559007336386,None,,,,,,,,,,,,,,,,,,,,,,,,,,,,,,,,,,,,,,,90,001,2023_Apr_28_1822,SpeechDraft1Carolyn_lessNoise_PlusLocalization,2021.2.3,59.962383042027575,
badge.wav,badge.mpg,badge,2,A,Pink_Noise_2_1.wav,Pink_Noise_2_2.wav,,,,,,,,,,,,,,,0,73,73,38,,,,,,,,,,,,,,,,,,,,,,,806.4058506558649,None,807.9223137269728,None,809.3060404527932,None,"badge
",809.3060404527932,None,return,4.501684576738626,809.3889941386878,None,,,,,,,,,,,,,,,,,,,,,,,,,,,,,,,,,,,,,,,90,001,2023_Apr_28_1822,SpeechDraft1Carolyn_lessNoise_PlusLocalization,2021.2.3,59.962383042027575,
dig.wav,dig.mpg,dig,4,AV,Pink_Noise_4_1.wav,Pink_Noise_4_2.wav,,,,,,,,,,,,,,,0,74,74,104,,,,,,,,,,,,,,,,,,,,,,,813.9223836706951,None,815.4551412947476,None,816.8390397406183,None,dig,816.8390397406183,None,return,4.544209328945726,816.92247307254,None,,,,,,,,,,,,,,,,,,,,,,,,,,,,,,,,,,,,,,,90,001,2023_Apr_28_1822,SpeechDraft1Carolyn_lessNoise_PlusLocalization,2021.2.3,59.962383042027575,
dash.wav,dash.mpg,dash,5,A,Pink_Noise_5_1.wav,Pink_Noise_5_2.wav,,,,,,,,,,,,,,,0,75,75,0,,,,,,,,,,,,,,,,,,,,,,,821.4891278087161,None,823.0055826245807,None,824.3891452755779,None,cash,824.3891452755779,None,return,3.6903845597989857,824.4725448465906,None,,,,,,,,,,,,,,,,,,,,,,,,,,,,,,,,,,,,,,,90,001,2023_Apr_28_1822,SpeechDraft1Carolyn_lessNoise_PlusLocalization,2021.2.3,59.962383042027575,
fleet.wav,fleet.mpg,fleet,3,A,Pink_Noise_3_1.wav,Pink_Noise_3_2.wav,,,,,,,,,,,,,,,0,76,76,33,,,,,,,,,,,,,,,,,,,,,,,828.1891220579855,None,829.7056012768298,None,831.0891157807782,None,pleet,831.0891157807782,None,return,4.325976734980941,831.1726597789675,None,,,,,,,,,,,,,,,,,,,,,,,,,,,,,,,,,,,,,,,90,001,2023_Apr_28_1822,SpeechDraft1Carolyn_lessNoise_PlusLocalization,2021.2.3,59.962383042027575,
chin.wav,chin.mpg,chin,5,A,Pink_Noise_5_1.wav,Pink_Noise_5_2.wav,,,,,,,,,,,,,,,0,77,77,2,,,,,,,,,,,,,,,,,,,,,,,835.5225042239763,None,837.0387266688049,None,838.4225687975995,None,change,838.4225687975995,None,return,2.3208384001627564,838.5058371727355,None,,,,,,,,,,,,,,,,,,,,,,,,,,,,,,,,,,,,,,,90,001,2023_Apr_28_1822,SpeechDraft1Carolyn_lessNoise_PlusLocalization,2021.2.3,59.962383042027575,
foil.wav,foil.mpg,foil,4,AV,Pink_Noise_4_1.wav,Pink_Noise_4_2.wav,,,,,,,,,,,,,,,0,78,78,80,,,,,,,,,,,,,,,,,,,,,,,840.8558200909756,None,842.3723433027044,None,843.7559490036219,None,foil,843.7559490036219,None,return,5.299718442838639,843.8391466038302,None,,,,,,,,,,,,,,,,,,,,,,,,,,,,,,,,,,,,,,,90,001,2023_Apr_28_1822,SpeechDraft1Carolyn_lessNoise_PlusLocalization,2021.2.3,59.962383042027575,
crate.wav,crate.mpg,crate,2,AV,Pink_Noise_2_1.wav,Pink_Noise_2_2.wav,,,,,,,,,,,,,,,0,79,79,100,,,,,,,,,,,,,,,,,,,,,,,849.1561060957611,None,850.6721750679426,None,852.0559311048128,None,crait,852.0559311048128,None,return,4.207604238763452,852.1391802947037,None,,,,,,,,,,,,,,,,,,,,,,,,,,,,,,,,,,,,,,,90,001,2023_Apr_28_1822,SpeechDraft1Carolyn_lessNoise_PlusLocalization,2021.2.3,59.962383042027575,
fun.wav,fun.mpg,fun,2,AV,Pink_Noise_2_1.wav,Pink_Noise_2_2.wav,,,,,,,,,,,,,,,0,80,80,98,,,,,,,,,,,,,,,,,,,,,,,856.3726389436051,None,857.8900624848902,None,859.272718377877,None,fun,859.272718377877,None,return,2.070808021351695,859.3558687078767,None,,,,,,,,,,,,,,,,,,,,,,,,,,,,,,,,,,,,,,,90,001,2023_Apr_28_1822,SpeechDraft1Carolyn_lessNoise_PlusLocalization,2021.2.3,59.962383042027575,
gulp.wav,gulp.mpg,gulp,1,A,Pink_Noise_1_1.wav,Pink_Noise_1_2.wav,,,,,,,,,,,,,,,0,81,81,54,,,,,,,,,,,,,,,,,,,,,,,861.45615034597,None,862.9721572669223,None,864.3558754427359,None,"gloat
",864.3558754427359,None,return,6.003552678972483,864.4391346815974,None,,,,,,,,,,,,,,,,,,,,,,,,,,,,,,,,,,,,,,,90,001,2023_Apr_28_1822,SpeechDraft1Carolyn_lessNoise_PlusLocalization,2021.2.3,59.962383042027575,
doll.wav,doll.mpg,doll,3,A,Pink_Noise_3_1.wav,Pink_Noise_3_2.wav,,,,,,,,,,,,,,,0,82,82,19,,,,,,,,,,,,,,,,,,,,,,,870.4725398295559,None,871.989202153869,None,873.3726845989004,None,"duh
",873.3726845989004,None,return,6.034651841968298,873.456032584887,None,,,,,,,,,,,,,,,,,,,,,,,,,,,,,,,,,,,,,,,90,001,2023_Apr_28_1822,SpeechDraft1Carolyn_lessNoise_PlusLocalization,2021.2.3,59.962383042027575,
cab.wav,cab.mpg,cab,5,AV,Pink_Noise_5_1.wav,Pink_Noise_5_2.wav,,,,,,,,,,,,,,,0,83,83,91,,,,,,,,,,,,,,,,,,,,,,,879.5227349619381,None,881.055986886844,None,882.4227372058667,None,cab,882.4227372058667,None,return,4.296889514196664,882.5059086196125,None,,,,,,,,,,,,,,,,,,,,,,,,,,,,,,,,,,,,,,,90,001,2023_Apr_28_1822,SpeechDraft1Carolyn_lessNoise_PlusLocalization,2021.2.3,59.962383042027575,
phase.wav,phase.mpg,phase,6,A,Pink_Noise_6_1.wav,Pink_Noise_6_2.wav,,,,,,,,,,,,,,,0,84,84,34,,,,,,,,,,,,,,,,,,,,,,,886.8227640707046,None,888.3389893695712,None,889.7227210756391,None,things,889.7227210756391,None,return,10.07682821713388,889.8058476098813,None,,,,,,,,,,,,,,,,,,,,,,,,,,,,,,,,,,,,,,,90,001,2023_Apr_28_1822,SpeechDraft1Carolyn_lessNoise_PlusLocalization,2021.2.3,59.962383042027575,
flop.wav,flop.mpg,flop,6,AV,Pink_Noise_6_1.wav,Pink_Noise_6_2.wav,,,,,,,,,,,,,,,0,85,85,74,,,,,,,,,,,,,,,,,,,,,,,899.9061078419909,None,901.4221667987294,None,902.8058788906783,None,flop,902.8058788906783,None,return,2.505415577907115,902.8893827507272,None,,,,,,,,,,,,,,,,,,,,,,,,,,,,,,,,,,,,,,,90,001,2023_Apr_28_1822,SpeechDraft1Carolyn_lessNoise_PlusLocalization,2021.2.3,59.962383042027575,
bible.wav,bible.mpg,bible,4,AV,Pink_Noise_4_1.wav,Pink_Noise_4_2.wav,,,,,,,,,,,,,,,0,86,86,102,,,,,,,,,,,,,,,,,,,,,,,905.4226693408564,None,906.9389799549244,None,908.3223809585907,None,bible,908.3223809585907,None,return,5.1408284972421825,908.4060632749461,None,,,,,,,,,,,,,,,,,,,,,,,,,,,,,,,,,,,,,,,90,001,2023_Apr_28_1822,SpeechDraft1Carolyn_lessNoise_PlusLocalization,2021.2.3,59.962383042027575,
cure.wav,cure.mpg,cure,2,A,Pink_Noise_2_1.wav,Pink_Noise_2_2.wav,,,,,,,,,,,,,,,0,87,87,23,,,,,,,,,,,,,,,,,,,,,,,913.572637823876,None,915.0890618707053,None,916.4726928225718,None,cure,916.4726928225718,None,return,3.806826157029718,916.555969634559,None,,,,,,,,,,,,,,,,,,,,,,,,,,,,,,,,,,,,,,,90,001,2023_Apr_28_1822,SpeechDraft1Carolyn_lessNoise_PlusLocalization,2021.2.3,59.962383042027575,
gift.wav,gift.mpg,gift,5,AV,Pink_Noise_5_1.wav,Pink_Noise_5_2.wav,,,,,,,,,,,,,,,0,88,88,72,,,,,,,,,,,,,,,,,,,,,,,920.3892774516717,None,921.906184904743,None,923.2893168977462,None,gift,923.2893168977462,None,return,2.093913878314197,923.3727435758337,None,,,,,,,,,,,,,,,,,,,,,,,,,,,,,,,,,,,,,,,90,001,2023_Apr_28_1822,SpeechDraft1Carolyn_lessNoise_PlusLocalization,2021.2.3,59.962383042027575,
clap.wav,clap.mpg,clap,3,A,Pink_Noise_3_1.wav,Pink_Noise_3_2.wav,,,,,,,,,,,,,,,0,89,89,11,,,,,,,,,,,,,,,,,,,,,,,925.4893793566152,None,927.0055214418098,None,928.3893045317382,None,clap,928.3893045317382,None,return,1.3301531439647079,928.4726476897486,None,,,,,,,,,,,,,,,,,,,,,,,,,,,,,,,,,,,,,,,90,001,2023_Apr_28_1822,SpeechDraft1Carolyn_lessNoise_PlusLocalization,2021.2.3,59.962383042027575,
flock.wav,flock.mpg,flock,4,A,Pink_Noise_4_1.wav,Pink_Noise_4_2.wav,,,,,,,,,,,,,,,0,90,90,3,,,,,,,,,,,,,,,,,,,,,,,929.8227938637137,None,931.3394848466851,None,932.722823720891,None,fly,932.722823720891,None,return,4.16465789405629,932.8060776828788,None,,,,,,,,,,,,,,,,,,,,,,,,,,,,,,,,,,,,,,,90,001,2023_Apr_28_1822,SpeechDraft1Carolyn_lessNoise_PlusLocalization,2021.2.3,59.962383042027575,
bunch.wav,bunch.mpg,bunch,5,A,Pink_Noise_5_1.wav,Pink_Noise_5_2.wav,,,,,,,,,,,,,,,0,91,91,18,,,,,,,,,,,,,,,,,,,,,,,936.9891876955517,None,938.5058792019263,None,939.8894542898051,None,"munch
",939.8894542898051,None,return,3.4859829926863313,939.9727058368735,None,,,,,,,,,,,,,,,,,,,,,,,,,,,,,,,,,,,,,,,90,001,2023_Apr_28_1822,SpeechDraft1Carolyn_lessNoise_PlusLocalization,2021.2.3,59.962383042027575,
drill.wav,drill.mpg,drill,3,A,Pink_Noise_3_1.wav,Pink_Noise_3_2.wav,,,,,,,,,,,,,,,0,92,92,15,,,,,,,,,,,,,,,,,,,,,,,943.489437227603,None,945.0056594717316,None,946.389362662565,None,drill,946.389362662565,None,return,3.593984437175095,946.4726848686114,None,,,,,,,,,,,,,,,,,,,,,,,,,,,,,,,,,,,,,,,90,001,2023_Apr_28_1822,SpeechDraft1Carolyn_lessNoise_PlusLocalization,2021.2.3,59.962383042027575,
foot.wav,foot.mpg,foot,6,AV,Pink_Noise_6_1.wav,Pink_Noise_6_2.wav,,,,,,,,,,,,,,,0,93,93,79,,,,,,,,,,,,,,,,,,,,,,,950.0895939017646,None,951.6057726768777,None,952.989465021994,None,"wrist
",952.989465021994,None,return,8.770177694037557,953.0725037669763,None,,,,,,,,,,,,,,,,,,,,,,,,,,,,,,,,,,,,,,,90,001,2023_Apr_28_1822,SpeechDraft1Carolyn_lessNoise_PlusLocalization,2021.2.3,59.962383042027575,
blue.wav,blue.mpg,blue,2,A,Pink_Noise_2_1.wav,Pink_Noise_2_2.wav,,,,,,,,,,,,,,,0,94,94,37,,,,,,,,,,,,,,,,,,,,,,,961.8728112629615,None,963.4057064475492,None,964.7892333827913,None,blue,964.7892333827913,None,return,10.393841938115656,964.8728191326372,None,,,,,,,,,,,,,,,,,,,,,,,,,,,,,,,,,,,,,,,90,001,2023_Apr_28_1822,SpeechDraft1Carolyn_lessNoise_PlusLocalization,2021.2.3,59.962383042027575,
clutch.wav,clutch.mpg,clutch,2,AV,Pink_Noise_2_1.wav,Pink_Noise_2_2.wav,,,,,,,,,,,,,,,0,95,95,97,,,,,,,,,,,,,,,,,,,,,,,975.2896431707777,None,976.8070669719018,None,978.1893788347952,None,clutch,978.1893788347952,None,return,3.209951652213931,978.2727243117988,None,,,,,,,,,,,,,,,,,,,,,,,,,,,,,,,,,,,,,,,90,001,2023_Apr_28_1822,SpeechDraft1Carolyn_lessNoise_PlusLocalization,2021.2.3,59.962383042027575,
rod.wav,rod.mpg,rod,4,A,Pink_Noise_4_1.wav,Pink_Noise_4_2.wav,,,,,,,,,,,,,,,0,96,96,57,,,,,,,,,,,,,,,,,,,,,,,981.5060500619002,None,983.0221630968153,None,984.4063652819023,None,"drive
",984.4063652819023,None,return,4.201327254995704,984.4893653579056,None,,,,,,,,,,,,,,,,,,,,,,,,,,,,,,,,,,,,,,,90,001,2023_Apr_28_1822,SpeechDraft1Carolyn_lessNoise_PlusLocalization,2021.2.3,59.962383042027575,
bright.wav,bright.mpg,bright,1,A,Pink_Noise_1_1.wav,Pink_Noise_1_2.wav,,,,,,,,,,,,,,,0,97,97,50,,,,,,,,,,,,,,,,,,,,,,,988.7226709416136,None,990.2390246088617,None,991.6225905548781,None,"bight
",991.6225905548781,None,return,4.784560556989163,991.7061257688329,None,,,,,,,,,,,,,,,,,,,,,,,,,,,,,,,,,,,,,,,90,001,2023_Apr_28_1822,SpeechDraft1Carolyn_lessNoise_PlusLocalization,2021.2.3,59.962383042027575,
ton.wav,ton.mpg,ton,3,AV,Pink_Noise_3_1.wav,Pink_Noise_3_2.wav,,,,,,,,,,,,,,,0,98,98,68,,,,,,,,,,,,,,,,,,,,,,,996.5225877379999,None,998.0557231996208,None,999.4393745637499,None,tounge,999.4393745637499,None,return,5.21596455713734,999.5228581116535,None,,,,,,,,,,,,,,,,,,,,,,,,,,,,,,,,,,,,,,,90,001,2023_Apr_28_1822,SpeechDraft1Carolyn_lessNoise_PlusLocalization,2021.2.3,59.962383042027575,
rid.wav,rid.mpg,rid,3,AV,Pink_Noise_3_1.wav,Pink_Noise_3_2.wav,,,,,,,,,,,,,,,0,99,99,81,,,,,,,,,,,,,,,,,,,,,,,1004.756226206664,None,1006.2726991036907,None,1007.6562261828221,None,red,1007.6562261828221,None,return,1.327315443661064,1007.7393582067452,None,,,,,,,,,,,,,,,,,,,,,,,,,,,,,,,,,,,,,,,90,001,2023_Apr_28_1822,SpeechDraft1Carolyn_lessNoise_PlusLocalization,2021.2.3,59.962383042027575,
bruise.wav,bruise.mpg,bruise,6,A,Pink_Noise_6_1.wav,Pink_Noise_6_2.wav,,,,,,,,,,,,,,,0,100,100,25,,,,,,,,,,,,,,,,,,,,,,,1009.0894160117023,None,1010.6056580096483,None,1011.9893548199907,None,bleech,1011.9893548199907,None,return,3.6257581878453493,1012.0728951697238,None,,,,,,,,,,,,,,,,,,,,,,,,,,,,,,,,,,,,,,,90,001,2023_Apr_28_1822,SpeechDraft1Carolyn_lessNoise_PlusLocalization,2021.2.3,59.962383042027575,
cube.wav,cube.mpg,cube,2,AV,Pink_Noise_2_1.wav,Pink_Noise_2_2.wav,,,,,,,,,,,,,,,0,101,101,99,,,,,,,,,,,,,,,,,,,,,,,1015.7228570696898,None,1017.2391337417066,None,1018.622790586669,None,cute,1018.622790586669,None,return,7.144540403038263,1018.7061609355733,None,,,,,,,,,,,,,,,,,,,,,,,,,,,,,,,,,,,,,,,90,001,2023_Apr_28_1822,SpeechDraft1Carolyn_lessNoise_PlusLocalization,2021.2.3,59.962383042027575,
deem.wav,deem.mpg,deem,2,A,Pink_Noise_2_1.wav,Pink_Noise_2_2.wav,,,,,,,,,,,,,,,0,102,102,14,,,,,,,,,,,,,,,,,,,,,,,1025.8727084966376,None,1027.3891202397645,None,1028.7728537409566,None,deen,1028.7728537409566,None,return,2.466502257157117,1028.8561673937365,None,,,,,,,,,,,,,,,,,,,,,,,,,,,,,,,,,,,,,,,90,001,2023_Apr_28_1822,SpeechDraft1Carolyn_lessNoise_PlusLocalization,2021.2.3,59.962383042027575,
wind.wav,wind.mpg,wind,5,AV,Pink_Noise_5_1.wav,Pink_Noise_5_2.wav,,,,,,,,,,,,,,,0,103,103,113,,,,,,,,,,,,,,,,,,,,,,,1031.339644816704,None,1032.872466344852,None,1034.2560940799303,None,waste,1034.2560940799303,None,return,7.239178125746548,1034.3396199760027,None,,,,,,,,,,,,,,,,,,,,,,,,,,,,,,,,,,,,,,,90,001,2023_Apr_28_1822,SpeechDraft1Carolyn_lessNoise_PlusLocalization,2021.2.3,59.962383042027575,
crop.wav,crop.mpg,crop,3,A,Pink_Noise_3_1.wav,Pink_Noise_3_2.wav,,,,,,,,,,,,,,,0,104,104,21,,,,,,,,,,,,,,,,,,,,,,,1041.6061152708717,None,1043.1225229608826,None,1044.506106190849,None,cry,1044.506106190849,None,return,2.1573308329097927,1044.589450783562,None,,,,,,,,,,,,,,,,,,,,,,,,,,,,,,,,,,,,,,,90,001,2023_Apr_28_1822,SpeechDraft1Carolyn_lessNoise_PlusLocalization,2021.2.3,59.962383042027575,
tear.wav,tear.mpg,tear,1,AV,Pink_Noise_1_1.wav,Pink_Noise_1_2.wav,,,,,,,,,,,,,,,0,105,105,94,,,,,,,,,,,,,,,,,,,,,,,1046.7730568395928,None,1048.289084911812,None,1049.6726667336188,None,"tear
",1049.6726667336188,None,return,3.7185452496632934,1049.7561399219558,None,,,,,,,,,,,,,,,,,,,,,,,,,,,,,,,,,,,,,,,90,001,2023_Apr_28_1822,SpeechDraft1Carolyn_lessNoise_PlusLocalization,2021.2.3,59.962383042027575,
buy.wav,buy.mpg,buy,6,A,Pink_Noise_6_1.wav,Pink_Noise_6_2.wav,,,,,,,,,,,,,,,0,106,106,31,,,,,,,,,,,,,,,,,,,,,,,1053.5061784218997,None,1055.0390066485852,None,1056.4228360019624,None,by,1056.4228360019624,None,return,1.4965702281333506,1056.5061838659458,None,,,,,,,,,,,,,,,,,,,,,,,,,,,,,,,,,,,,,,,90,001,2023_Apr_28_1822,SpeechDraft1Carolyn_lessNoise_PlusLocalization,2021.2.3,59.962383042027575,
dump.wav,dump.mpg,dump,3,AV,Pink_Noise_3_1.wav,Pink_Noise_3_2.wav,,,,,,,,,,,,,,,0,107,107,75,,,,,,,,,,,,,,,,,,,,,,,1058.0227709366009,None,1059.5393026955426,None,1060.922701493837,None,dump,1060.922701493837,None,return,5.8442048341967165,1061.0064490567893,None,,,,,,,,,,,,,,,,,,,,,,,,,,,,,,,,,,,,,,,90,001,2023_Apr_28_1822,SpeechDraft1Carolyn_lessNoise_PlusLocalization,2021.2.3,59.962383042027575,
draw.wav,draw.mpg,draw,4,AV,Pink_Noise_4_1.wav,Pink_Noise_4_2.wav,,,,,,,,,,,,,,,0,108,108,82,,,,,,,,,,,,,,,,,,,,,,,1066.8729491829872,None,1068.3893323997036,None,1069.7728871195577,None,"draw
",1069.7728871195577,None,return,2.354563571047038,1069.8561096019112,None,,,,,,,,,,,,,,,,,,,,,,,,,,,,,,,,,,,,,,,90,001,2023_Apr_28_1822,SpeechDraft1Carolyn_lessNoise_PlusLocalization,2021.2.3,59.962383042027575,
pants.wav,pants.mpg,pants,3,A,Pink_Noise_3_1.wav,Pink_Noise_3_2.wav,,,,,,,,,,,,,,,0,109,109,22,,,,,,,,,,,,,,,,,,,,,,,1072.2396288979799,None,1073.7726575876586,None,1075.156356961932,None,pants,1075.156356961932,None,return,1.81101666809991,1075.239596173633,None,,,,,,,,,,,,,,,,,,,,,,,,,,,,,,,,,,,,,,,90,001,2023_Apr_28_1822,SpeechDraft1Carolyn_lessNoise_PlusLocalization,2021.2.3,59.962383042027575,
thorn.wav,thorn.mpg,thorn,3,AV,Pink_Noise_3_1.wav,Pink_Noise_3_2.wav,,,,,,,,,,,,,,,0,110,110,67,,,,,,,,,,,,,,,,,,,,,,,1077.072982904967,None,1078.5890110735781,None,1079.972697515972,None,thorn,1079.972697515972,None,return,3.1305414037778974,1080.0561998849735,None,,,,,,,,,,,,,,,,,,,,,,,,,,,,,,,,,,,,,,,90,001,2023_Apr_28_1822,SpeechDraft1Carolyn_lessNoise_PlusLocalization,2021.2.3,59.962383042027575,
grail.wav,grail.mpg,grail,5,AV,Pink_Noise_5_1.wav,Pink_Noise_5_2.wav,,,,,,,,,,,,,,,0,111,111,109,,,,,,,,,,,,,,,,,,,,,,,1083.206111708656,None,1084.7224484225735,None,1086.105955787003,None,crawl,1086.105955787003,None,return,3.5733778248541057,1086.189479237888,None,,,,,,,,,,,,,,,,,,,,,,,,,,,,,,,,,,,,,,,90,001,2023_Apr_28_1822,SpeechDraft1Carolyn_lessNoise_PlusLocalization,2021.2.3,59.962383042027575,
client.wav,client.mpg,client,5,AV,Pink_Noise_5_1.wav,Pink_Noise_5_2.wav,,,,,,,,,,,,,,,0,112,112,93,,,,,,,,,,,,,,,,,,,,,,,1089.7896402026527,None,1091.3058259566315,None,1092.6896200627089,None,lion,1092.6896200627089,None,return,2.6219112388789654,1092.7728377836756,None,,,,,,,,,,,,,,,,,,,,,,,,,,,,,,,,,,,,,,,90,001,2023_Apr_28_1822,SpeechDraft1Carolyn_lessNoise_PlusLocalization,2021.2.3,59.962383042027575,
flush.wav,flush.mpg,flush,1,AV,Pink_Noise_1_1.wav,Pink_Noise_1_2.wav,,,,,,,,,,,,,,,0,113,113,96,,,,,,,,,,,,,,,,,,,,,,,1095.423025926575,None,1096.9560515265912,None,1098.3395293615758,None,flusj,1098.3395293615758,None,return,4.475671243388206,1098.4230225398205,None,,,,,,,,,,,,,,,,,,,,,,,,,,,,,,,,,,,,,,,90,001,2023_Apr_28_1822,SpeechDraft1Carolyn_lessNoise_PlusLocalization,2021.2.3,59.962383042027575,
floor.wav,floor.mpg,floor,2,AV,Pink_Noise_2_1.wav,Pink_Noise_2_2.wav,,,,,,,,,,,,,,,0,114,114,86,,,,,,,,,,,,,,,,,,,,,,,1102.9230321766809,None,1104.4391795475967,None,1105.8229729868472,None,floor,1105.8229729868472,None,return,4.416495175100863,1105.9063157597557,None,,,,,,,,,,,,,,,,,,,,,,,,,,,,,,,,,,,,,,,90,001,2023_Apr_28_1822,SpeechDraft1Carolyn_lessNoise_PlusLocalization,2021.2.3,59.962383042027575,
blimp.wav,blimp.mpg,blimp,3,AV,Pink_Noise_3_1.wav,Pink_Noise_3_2.wav,,,,,,,,,,,,,,,0,115,115,116,,,,,,,,,,,,,,,,,,,,,,,1110.339552148711,None,1111.8728133225814,None,1113.2563141477294,None,blimp,1113.2563141477294,None,return,5.239282598719001,1113.3395107565448,None,,,,,,,,,,,,,,,,,,,,,,,,,,,,,,,,,,,,,,,90,001,2023_Apr_28_1822,SpeechDraft1Carolyn_lessNoise_PlusLocalization,2021.2.3,59.962383042027575,
blast.wav,blast.mpg,blast,5,A,Pink_Noise_5_1.wav,Pink_Noise_5_2.wav,,,,,,,,,,,,,,,0,116,116,30,,,,,,,,,,,,,,,,,,,,,,,1118.6063206358813,None,1120.1225563427433,None,1121.5064065749757,None,last,1121.5064065749757,None,return,2.1089955531060696,1121.5896649765782,None,,,,,,,,,,,,,,,,,,,,,,,,,,,,,,,,,,,,,,,90,001,2023_Apr_28_1822,SpeechDraft1Carolyn_lessNoise_PlusLocalization,2021.2.3,59.962383042027575,
drain.wav,drain.mpg,drain,6,A,Pink_Noise_6_1.wav,Pink_Noise_6_2.wav,,,,,,,,,,,,,,,0,117,117,4,,,,,,,,,,,,,,,,,,,,,,,1123.7229657587595,None,1125.239207350649,None,1126.6228939569555,None,sound,1126.6228939569555,None,return,4.416449663694948,1126.706357575953,None,,,,,,,,,,,,,,,,,,,,,,,,,,,,,,,,,,,,,,,90,001,2023_Apr_28_1822,SpeechDraft1Carolyn_lessNoise_PlusLocalization,2021.2.3,59.962383042027575,
brown.wav,brown.mpg,brown,6,AV,Pink_Noise_6_1.wav,Pink_Noise_6_2.wav,,,,,,,,,,,,,,,0,118,118,107,,,,,,,,,,,,,,,,,,,,,,,1131.139658455737,None,1132.656905581709,None,1134.039546740707,None,browm,1134.039546740707,None,return,2.424127492122352,1134.1229021539912,None,,,,,,,,,,,,,,,,,,,,,,,,,,,,,,,,,,,,,,,90,001,2023_Apr_28_1822,SpeechDraft1Carolyn_lessNoise_PlusLocalization,2021.2.3,59.962383042027575,
swayed.wav,swayed.mpg,swayed,4,A,Pink_Noise_4_1.wav,Pink_Noise_4_2.wav,,,,,,,,,,,,,,,0,119,119,42,,,,,,,,,,,,,,,,,,,,,,,1136.5729975895956,None,1138.0892096469179,None,1139.4731666967273,None,sway,1139.4731666967273,None,return,2.58270627213642,1139.556099317968,None,,,,,,,,,,,,,,,,,,,,,,,,,,,,,,,,,,,,,,,90,001,2023_Apr_28_1822,SpeechDraft1Carolyn_lessNoise_PlusLocalization,2021.2.3,59.962383042027575,
,,,,,,,,,,,,,,,,,,,,,,,,,,,,,,,,,,,,,,,,,,,,,,,,,,,,,,,,,,,,,,,,,,space,17.914330347906798,1142.2563991737552,None,,,,,,,,,,,,,,,,,,,,,,,,,,,,,90,001,2023_Apr_28_1822,SpeechDraft1Carolyn_lessNoise_PlusLocalization,2021.2.3,59.962383042027575,
,,,,,,,,center,0.0,6,ch1Sound_localizationTask.wav,0.0,"(952, 878)","(-8,-202)",0,-338,,,,,,,,,0,0,0,3,,,,,,,,,,,,,,,,,,,,,,,,,,,,,,,,,,,,,,,,,,1142.2563991737552,None,1160.206191350706,None,1161.3060466307215,None,1162.239536357578,None,1.216931216931217,2.918912895023823,1162.239536357578,None,,,,,,,,,,,,,,,,,90,001,2023_Apr_28_1822,SpeechDraft1Carolyn_lessNoise_PlusLocalization,2021.2.3,59.962383042027575,
,,,,,,,,nearRight,6.5,0,ch1Sound_localizationTask.wav,6.5,"(1047, 878)","(87, -202)",95,-338,,,,,,,,,0,1,1,4,,,,,,,,,,,,,,,,,,,,,,,,,,,,,,,,,,,,,,,,,,,,1165.1732711708173,None,1166.2725742878392,None,1167.2060734019615,None,1.4544973544973545,2.1994847571477294,1167.2060734019615,None,,,,,,,,,,,,,,,,,90,001,2023_Apr_28_1822,SpeechDraft1Carolyn_lessNoise_PlusLocalization,2021.2.3,59.962383042027575,
,,,,,,,,farLeft,-19.1,5,ch1Sound_localizationTask.wav,-19.1,"(667, 878)","(-293,-202)",-285,-338,,,,,,,,,0,2,2,0,,,,,,,,,,,,,,,,,,,,,,,,,,,,,,,,,,,,,,,,,,,,1169.4065963667817,None,1170.5062148598954,None,1171.4394139656797,None,1.193121693121693,1.5492171421647072,1171.4394139656797,None,,,,,,,,,,,,,,,,,90,001,2023_Apr_28_1822,SpeechDraft1Carolyn_lessNoise_PlusLocalization,2021.2.3,59.962383042027575,
,,,,,,,,farRight,19.1,4,ch1Sound_localizationTask.wav,19.1,"(1237, 878)","(277,-202)",285,-338,,,,,,,,,0,3,3,6,,,,,,,,,,,,,,,,,,,,,,,,,,,,,,,,,,,,,,,,,,,,1172.990190579556,None,1174.0896126329899,None,1175.0225377408788,None,1.726984126984127,1.283647852949798,1175.0225377408788,None,,,,,,,,,,,,,,,,,90,001,2023_Apr_28_1822,SpeechDraft1Carolyn_lessNoise_PlusLocalization,2021.2.3,59.962383042027575,
,,,,,,,,midLeft,-13.0,2,ch1Sound_localizationTask.wav,-13.0,"(762, 878)","(-198,-202)",-190,-338,,,,,,,,,0,4,4,1,,,,,,,,,,,,,,,,,,,,,,,,,,,,,,,,,,,,,,,,,,,,1176.3231975226663,None,1177.422626979649,None,1178.3558544539846,None,1.2322751322751322,1.9498083237558603,1178.3558544539846,None,,,,,,,,,,,,,,,,,90,001,2023_Apr_28_1822,SpeechDraft1Carolyn_lessNoise_PlusLocalization,2021.2.3,59.962383042027575,
,,,,,,,,farLeft,-19.1,5,ch1Sound_localizationTask.wav,-19.1,"(667, 878)","(-293,-202)",-285,-338,,,,,,,,,0,5,5,0,,,,,,,,,,,,,,,,,,,,,,,,,,,,,,,,,,,,,,,,,,,,1180.3079431448132,None,1181.4226188375615,None,1182.3394213248976,None,1.2809523809523808,1.0329721830785275,1182.3394213248976,None,,,,,,,,,,,,,,,,,90,001,2023_Apr_28_1822,SpeechDraft1Carolyn_lessNoise_PlusLocalization,2021.2.3,59.962383042027575,
,,,,,,,,nearLeft,-6.5,1,ch1Sound_localizationTask.wav,-6.5,"(857, 878)","(-103,-202)",-95,-338,,,,,,,,,0,6,6,2,,,,,,,,,,,,,,,,,,,,,,,,,,,,,,,,,,,,,,,,,,,,1183.3742995886132,None,1184.4893423100002,None,1185.405835971702,None,1.2878306878306878,0.7999385250732303,1185.405835971702,None,,,,,,,,,,,,,,,,,90,001,2023_Apr_28_1822,SpeechDraft1Carolyn_lessNoise_PlusLocalization,2021.2.3,59.962383042027575,
,,,,,,,,farRight,19.1,4,ch1Sound_localizationTask.wav,19.1,"(1237, 878)","(277,-202)",285,-338,,,,,,,,,1,0,7,6,,,,,,,,,,,,,,,,,,,,,,,,,,,,,,,,,,,,,,,,,,,,1186.2231663316488,None,1187.3227912508883,None,1188.256034496706,None,1.6613756613756614,1.2994793131947517,1188.256034496706,None,,,,,,,,,,,,,,,,,90,001,2023_Apr_28_1822,SpeechDraft1Carolyn_lessNoise_PlusLocalization,2021.2.3,59.962383042027575,
,,,,,,,,farLeft,-19.1,5,ch1Sound_localizationTask.wav,-19.1,"(667, 878)","(-293,-202)",-285,-338,,,,,,,,,1,1,8,0,,,,,,,,,,,,,,,,,,,,,,,,,,,,,,,,,,,,,,,,,,,,1189.5576224136166,None,1190.673075185623,None,1191.5894450806081,None,1.11005291005291,1.4176323302090168,1191.5894450806081,None,,,,,,,,,,,,,,,,,90,001,2023_Apr_28_1822,SpeechDraft1Carolyn_lessNoise_PlusLocalization,2021.2.3,59.962383042027575,
,,,,,,,,farLeft,-19.1,5,ch1Sound_localizationTask.wav,-19.1,"(667, 878)","(-293,-202)",-285,-338,,,,,,,,,1,2,9,0,,,,,,,,,,,,,,,,,,,,,,,,,,,,,,,,,,,,,,,,,,,,1193.022970475722,None,1194.1227335319854,None,1195.056031009648,None,1.1105820105820106,0.6174199730157852,1195.056031009648,None,,,,,,,,,,,,,,,,,90,001,2023_Apr_28_1822,SpeechDraft1Carolyn_lessNoise_PlusLocalization,2021.2.3,59.962383042027575,
,,,,,,,,nearLeft,-6.5,1,ch1Sound_localizationTask.wav,-6.5,"(857, 878)","(-103,-202)",-95,-338,,,,,,,,,1,3,10,2,,,,,,,,,,,,,,,,,,,,,,,,,,,,,,,,,,,,,,,,,,,,1195.689767997712,None,1196.7896849857643,None,1197.7224835776724,None,1.2751322751322751,0.9000067273154855,1197.7224835776724,None,,,,,,,,,,,,,,,,,90,001,2023_Apr_28_1822,SpeechDraft1Carolyn_lessNoise_PlusLocalization,2021.2.3,59.962383042027575,
,,,,,,,,midLeft,-13.0,2,ch1Sound_localizationTask.wav,-13.0,"(762, 878)","(-198,-202)",-190,-338,,,,,,,,,1,4,11,1,,,,,,,,,,,,,,,,,,,,,,,,,,,,,,,,,,,,,,,,,,,,1198.6247287257574,None,1199.7395456698723,None,1200.656213989947,None,1.1317460317460317,1.3165711648762226,1200.656213989947,None,,,,,,,,,,,,,,,,,90,001,2023_Apr_28_1822,SpeechDraft1Carolyn_lessNoise_PlusLocalization,2021.2.3,59.962383042027575,
,,,,,,,,midLeft,-13.0,2,ch1Sound_localizationTask.wav,-13.0,"(762, 878)","(-198,-202)",-190,-338,,,,,,,,,1,5,12,1,,,,,,,,,,,,,,,,,,,,,,,,,,,,,,,,,,,,,,,,,,,,1201.973940343596,None,1203.0726959067397,None,1204.0061811925843,None,1.2423280423280423,0.9165100948885083,1204.0061811925843,None,,,,,,,,,,,,,,,,,90,001,2023_Apr_28_1822,SpeechDraft1Carolyn_lessNoise_PlusLocalization,2021.2.3,59.962383042027575,
,,,,,,,,farRight,19.1,4,ch1Sound_localizationTask.wav,19.1,"(1237, 878)","(277,-202)",285,-338,,,,,,,,,1,6,13,6,,,,,,,,,,,,,,,,,,,,,,,,,,,,,,,,,,,,,,,,,,,,1204.9239627928473,None,1206.0230236286297,None,1206.9559528767131,None,1.6603174603174602,0.8507406730204821,1206.9559528767131,None,,,,,,,,,,,,,,,,,90,001,2023_Apr_28_1822,SpeechDraft1Carolyn_lessNoise_PlusLocalization,2021.2.3,59.962383042027575,
,,,,,,,,midLeft,-13.0,2,ch1Sound_localizationTask.wav,-13.0,"(762, 878)","(-198,-202)",-190,-338,,,,,,,,,2,0,14,1,,,,,,,,,,,,,,,,,,,,,,,,,,,,,,,,,,,,,,,,,,,,1207.8230354837142,None,1208.9226496359333,None,1209.8560895677656,None,1.3275132275132275,0.7816624357365072,1209.8560895677656,None,,,,,,,,,,,,,,,,,90,001,2023_Apr_28_1822,SpeechDraft1Carolyn_lessNoise_PlusLocalization,2021.2.3,59.962383042027575,
,,,,,,,,center,0.0,6,ch1Sound_localizationTask.wav,0.0,"(952, 878)","(-8,-202)",0,-338,,,,,,,,,2,1,15,3,,,,,,,,,,,,,,,,,,,,,,,,,,,,,,,,,,,,,,,,,,,,1210.6401960719377,None,1211.739388808608,None,1212.6726541440003,None,1.4798941798941798,0.8828826369717717,1212.6726541440003,None,,,,,,,,,,,,,,,,,90,001,2023_Apr_28_1822,SpeechDraft1Carolyn_lessNoise_PlusLocalization,2021.2.3,59.962383042027575,
,,,,,,,,center,0.0,6,ch1Sound_localizationTask.wav,0.0,"(952, 878)","(-8,-202)",0,-338,,,,,,,,,2,2,16,3,,,,,,,,,,,,,,,,,,,,,,,,,,,,,,,,,,,,,,,,,,,,1213.5569635466672,None,1214.6560965459794,None,1215.589231732767,None,1.4195767195767197,0.7503997660242021,1215.589231732767,None,,,,,,,,,,,,,,,,,90,001,2023_Apr_28_1822,SpeechDraft1Carolyn_lessNoise_PlusLocalization,2021.2.3,59.962383042027575,
,,,,,,,,nearRight,6.5,0,ch1Sound_localizationTask.wav,6.5,"(1047, 878)","(87, -202)",95,-338,,,,,,,,,2,3,17,4,,,,,,,,,,,,,,,,,,,,,,,,,,,,,,,,,,,,,,,,,,,,1216.3412038828246,None,1217.4561867685989,None,1218.3726660748944,None,1.588888888888889,0.8669093758799136,1218.3726660748944,None,,,,,,,,,,,,,,,,,90,001,2023_Apr_28_1822,SpeechDraft1Carolyn_lessNoise_PlusLocalization,2021.2.3,59.962383042027575,
,,,,,,,,nearLeft,-6.5,1,ch1Sound_localizationTask.wav,-6.5,"(857, 878)","(-103,-202)",-95,-338,,,,,,,,,2,4,18,2,,,,,,,,,,,,,,,,,,,,,,,,,,,,,,,,,,,,,,,,,,,,1219.2408329406753,None,1220.3561006849632,None,1221.2729560318403,None,1.3047619047619048,0.7172120790928602,1221.2729560318403,None,,,,,,,,,,,,,,,,,90,001,2023_Apr_28_1822,SpeechDraft1Carolyn_lessNoise_PlusLocalization,2021.2.3,59.962383042027575,
,,,,,,,,nearRight,6.5,0,ch1Sound_localizationTask.wav,6.5,"(1047, 878)","(87, -202)",95,-338,,,,,,,,,2,5,19,4,,,,,,,,,,,,,,,,,,,,,,,,,,,,,,,,,,,,,,,,,,,,1222.0063577038236,None,1223.1062875469215,None,1224.0394675247371,None,1.5883597883597882,0.7325600278563797,1224.0394675247371,None,,,,,,,,,,,,,,,,,90,001,2023_Apr_28_1822,SpeechDraft1Carolyn_lessNoise_PlusLocalization,2021.2.3,59.962383042027575,
,,,,,,,,midRight,13.0,3,ch1Sound_localizationTask.wav,13.0,"(1142, 878)","(182, -202)",190,-338,,,,,,,,,2,6,20,5,,,,,,,,,,,,,,,,,,,,,,,,,,,,,,,,,,,,,,,,,,,,1224.7745470367372,None,1225.88958858978,None,1226.8060641605407,None,1.6724867724867725,0.6334796259179711,1226.8060641605407,None,,,,,,,,,,,,,,,,,90,001,2023_Apr_28_1822,SpeechDraft1Carolyn_lessNoise_PlusLocalization,2021.2.3,59.962383042027575,
,,,,,,,,nearRight,6.5,0,ch1Sound_localizationTask.wav,6.5,"(1047, 878)","(87, -202)",95,-338,,,,,,,,,3,0,21,4,,,,,,,,,,,,,,,,,,,,,,,,,,,,,,,,,,,,,,,,,,,,1227.4407801185735,None,1228.5562245207839,None,1229.4727475917898,None,1.4772486772486773,0.6667567249387503,1229.4727475917898,None,,,,,,,,,,,,,,,,,90,001,2023_Apr_28_1822,SpeechDraft1Carolyn_lessNoise_PlusLocalization,2021.2.3,59.962383042027575,
,,,,,,,,midRight,13.0,3,ch1Sound_localizationTask.wav,13.0,"(1142, 878)","(182, -202)",190,-338,,,,,,,,,3,1,22,5,,,,,,,,,,,,,,,,,,,,,,,,,,,,,,,,,,,,,,,,,,,,1230.1402912759222,None,1231.2396175577305,None,1232.1727786767296,None,1.6957671957671958,0.8327046278864145,1232.1727786767296,None,,,,,,,,,,,,,,,,,90,001,2023_Apr_28_1822,SpeechDraft1Carolyn_lessNoise_PlusLocalization,2021.2.3,59.962383042027575,
,,,,,,,,center,0.0,6,ch1Sound_localizationTask.wav,0.0,"(952, 878)","(-8,-202)",0,-338,,,,,,,,,3,2,23,3,,,,,,,,,,,,,,,,,,,,,,,,,,,,,,,,,,,,,,,,,,,,1233.0073748067953,None,1234.1062816078775,None,1235.0395016726106,None,1.3936507936507936,0.7662227712571621,1235.0395016726106,None,,,,,,,,,,,,,,,,,90,001,2023_Apr_28_1822,SpeechDraft1Carolyn_lessNoise_PlusLocalization,2021.2.3,59.962383042027575,
,,,,,,,,farLeft,-19.1,5,ch1Sound_localizationTask.wav,-19.1,"(667, 878)","(-293,-202)",-285,-338,,,,,,,,,3,3,24,0,,,,,,,,,,,,,,,,,,,,,,,,,,,,,,,,,,,,,,,,,,,,1235.8071423419751,None,1236.9062707037665,None,1237.839302753564,None,1.2089947089947088,0.8834403618238866,1237.839302753564,None,,,,,,,,,,,,,,,,,90,001,2023_Apr_28_1822,SpeechDraft1Carolyn_lessNoise_PlusLocalization,2021.2.3,59.962383042027575,
,,,,,,,,nearRight,6.5,0,ch1Sound_localizationTask.wav,6.5,"(1047, 878)","(87, -202)",95,-338,,,,,,,,,3,4,25,4,,,,,,,,,,,,,,,,,,,,,,,,,,,,,,,,,,,,,,,,,,,,1238.7243735138327,None,1239.839523985982,None,1240.7562306066975,None,1.5724867724867724,0.6831014016643167,1240.7562306066975,None,,,,,,,,,,,,,,,,,90,001,2023_Apr_28_1822,SpeechDraft1Carolyn_lessNoise_PlusLocalization,2021.2.3,59.962383042027575,
,,,,,,,,nearRight,6.5,0,ch1Sound_localizationTask.wav,6.5,"(1047, 878)","(87, -202)",95,-338,,,,,,,,,3,5,26,4,,,,,,,,,,,,,,,,,,,,,,,,,,,,,,,,,,,,,,,,,,,,1241.441386286635,None,1242.5560061056167,None,1243.4727248698473,None,1.5015873015873016,0.8673870679922402,1243.4727248698473,None,,,,,,,,,,,,,,,,,90,001,2023_Apr_28_1822,SpeechDraft1Carolyn_lessNoise_PlusLocalization,2021.2.3,59.962383042027575,
,,,,,,,,nearLeft,-6.5,1,ch1Sound_localizationTask.wav,-6.5,"(857, 878)","(-103,-202)",-95,-338,,,,,,,,,3,6,27,2,,,,,,,,,,,,,,,,,,,,,,,,,,,,,,,,,,,,,,,,,,,,1244.3412193357944,None,1245.4563234169036,None,1246.3729012035765,None,1.3708994708994708,0.566634391900152,1246.3729012035765,None,,,,,,,,,,,,,,,,,90,001,2023_Apr_28_1822,SpeechDraft1Carolyn_lessNoise_PlusLocalization,2021.2.3,59.962383042027575,
,,,,,,,,farRight,19.1,4,ch1Sound_localizationTask.wav,19.1,"(1237, 878)","(277,-202)",285,-338,,,,,,,,,4,0,28,6,,,,,,,,,,,,,,,,,,,,,,,,,,,,,,,,,,,,,,,,,,,,1246.9565359908156,None,1248.0560804656707,None,1248.9894777308218,None,1.651851851851852,0.6836735289543867,1248.9894777308218,None,,,,,,,,,,,,,,,,,90,001,2023_Apr_28_1822,SpeechDraft1Carolyn_lessNoise_PlusLocalization,2021.2.3,59.962383042027575,
,,,,,,,,midRight,13.0,3,ch1Sound_localizationTask.wav,13.0,"(1142, 878)","(182, -202)",190,-338,,,,,,,,,4,1,29,5,,,,,,,,,,,,,,,,,,,,,,,,,,,,,,,,,,,,,,,,,,,,1249.6900204536505,None,1250.7893721708097,None,1251.7227251129225,None,1.6619047619047618,0.6669937702827156,1251.7227251129225,None,,,,,,,,,,,,,,,,,90,001,2023_Apr_28_1822,SpeechDraft1Carolyn_lessNoise_PlusLocalization,2021.2.3,59.962383042027575,
,,,,,,,,farLeft,-19.1,5,ch1Sound_localizationTask.wav,-19.1,"(667, 878)","(-293,-202)",-285,-338,,,,,,,,,4,2,30,0,,,,,,,,,,,,,,,,,,,,,,,,,,,,,,,,,,,,,,,,,,,,1252.3913595909253,None,1253.5062291119248,None,1254.422989894636,None,1.2952380952380953,0.8501657010056078,1254.422989894636,None,,,,,,,,,,,,,,,,,90,001,2023_Apr_28_1822,SpeechDraft1Carolyn_lessNoise_PlusLocalization,2021.2.3,59.962383042027575,
,,,,,,,,midRight,13.0,3,ch1Sound_localizationTask.wav,13.0,"(1142, 878)","(182, -202)",190,-338,,,,,,,,,4,3,31,5,,,,,,,,,,,,,,,,,,,,,,,,,,,,,,,,,,,,,,,,,,,,1255.2743833786808,None,1256.3894212939776,None,1257.305935480632,None,1.6814814814814816,0.7658981448039412,1257.305935480632,None,,,,,,,,,,,,,,,,,90,001,2023_Apr_28_1822,SpeechDraft1Carolyn_lessNoise_PlusLocalization,2021.2.3,59.962383042027575,
,,,,,,,,nearLeft,-6.5,1,ch1Sound_localizationTask.wav,-6.5,"(857, 878)","(-103,-202)",-95,-338,,,,,,,,,4,4,32,2,,,,,,,,,,,,,,,,,,,,,,,,,,,,,,,,,,,,,,,,,,,,1258.0751365297474,None,1259.1895767739043,None,1260.1062045306899,None,1.273015873015873,1.0986197679303586,1260.1062045306899,None,,,,,,,,,,,,,,,,,90,001,2023_Apr_28_1822,SpeechDraft1Carolyn_lessNoise_PlusLocalization,2021.2.3,59.962383042027575,
,,,,,,,,farRight,19.1,4,ch1Sound_localizationTask.wav,19.1,"(1237, 878)","(277,-202)",285,-338,,,,,,,,,4,5,33,6,,,,,,,,,,,,,,,,,,,,,,,,,,,,,,,,,,,,,,,,,,,,1261.207161561586,None,1262.306366916746,None,1263.239499937743,None,1.708994708994709,0.6817905809730291,1263.239499937743,None,,,,,,,,,,,,,,,,,90,001,2023_Apr_28_1822,SpeechDraft1Carolyn_lessNoise_PlusLocalization,2021.2.3,59.962383042027575,
,,,,,,,,midRight,13.0,3,ch1Sound_localizationTask.wav,13.0,"(1142, 878)","(182, -202)",190,-338,,,,,,,,,4,6,34,5,,,,,,,,,,,,,,,,,,,,,,,,,,,,,,,,,,,,,,,,,,,,1263.9235277599655,None,1265.022889347747,None,1265.9561185766943,None,1.5158730158730158,0.748712305445224,1265.9561185766943,None,,,,,,,,,,,,,,,,,90,001,2023_Apr_28_1822,SpeechDraft1Carolyn_lessNoise_PlusLocalization,2021.2.3,59.962383042027575,
,,,,,,,,center,0.0,6,ch1Sound_localizationTask.wav,0.0,"(952, 878)","(-8,-202)",0,-338,,,,,,,,,5,0,35,3,,,,,,,,,,,,,,,,,,,,,,,,,,,,,,,,,,,,,,,,,,,,1266.7073342888616,None,1267.8226819545962,None,1268.7392532629892,None,1.3941798941798942,0.5663119163364172,1268.7392532629892,None,,,,,,,,,,,,,,,,,90,001,2023_Apr_28_1822,SpeechDraft1Carolyn_lessNoise_PlusLocalization,2021.2.3,59.962383042027575,
,,,,,,,,nearLeft,-6.5,1,ch1Sound_localizationTask.wav,-6.5,"(857, 878)","(-103,-202)",-95,-338,,,,,,,,,5,1,36,2,,,,,,,,,,,,,,,,,,,,,,,,,,,,,,,,,,,,,,,,,,,,1269.3081154315732,None,1270.422729855869,None,1271.339546511881,None,1.2380952380952381,0.7340971897356212,1271.339546511881,None,,,,,,,,,,,,,,,,,90,001,2023_Apr_28_1822,SpeechDraft1Carolyn_lessNoise_PlusLocalization,2021.2.3,59.962383042027575,
,,,,,,,,nearLeft,-6.5,1,ch1Sound_localizationTask.wav,-6.5,"(857, 878)","(-103,-202)",-95,-338,,,,,,,,,5,2,37,2,,,,,,,,,,,,,,,,,,,,,,,,,,,,,,,,,,,,,,,,,,,,1272.0744798127562,None,1273.1894490229897,None,1274.1060593486764,None,1.353968253968254,0.7831260496750474,1274.1060593486764,None,,,,,,,,,,,,,,,,,90,001,2023_Apr_28_1822,SpeechDraft1Carolyn_lessNoise_PlusLocalization,2021.2.3,59.962383042027575,
,,,,,,,,center,0.0,6,ch1Sound_localizationTask.wav,0.0,"(952, 878)","(-8,-202)",0,-338,,,,,,,,,5,3,38,3,,,,,,,,,,,,,,,,,,,,,,,,,,,,,,,,,,,,,,,,,,,,1274.891078245826,None,1276.0060169738717,None,1276.9230162338354,None,1.4767195767195767,0.6831883951090276,1276.9230162338354,None,,,,,,,,,,,,,,,,,90,001,2023_Apr_28_1822,SpeechDraft1Carolyn_lessNoise_PlusLocalization,2021.2.3,59.962383042027575,
,,,,,,,,farRight,19.1,4,ch1Sound_localizationTask.wav,19.1,"(1237, 878)","(277,-202)",285,-338,,,,,,,,,5,4,39,6,,,,,,,,,,,,,,,,,,,,,,,,,,,,,,,,,,,,,,,,,,,,1277.6073365858756,None,1278.7229574518278,None,1279.6395526286215,None,1.7031746031746031,0.9648654470220208,1279.6395526286215,None,,,,,,,,,,,,,,,,,90,001,2023_Apr_28_1822,SpeechDraft1Carolyn_lessNoise_PlusLocalization,2021.2.3,59.962383042027575,
,,,,,,,,midRight,13.0,3,ch1Sound_localizationTask.wav,13.0,"(1142, 878)","(182, -202)",190,-338,,,,,,,,,5,5,40,5,,,,,,,,,,,,,,,,,,,,,,,,,,,,,,,,,,,,,,,,,,,,1280.6070666327141,None,1281.7062737769447,None,1282.6395820565522,None,1.5026455026455028,0.7492436761967838,1282.6395820565522,None,,,,,,,,,,,,,,,,,90,001,2023_Apr_28_1822,SpeechDraft1Carolyn_lessNoise_PlusLocalization,2021.2.3,59.962383042027575,
,,,,,,,,farLeft,-19.1,5,ch1Sound_localizationTask.wav,-19.1,"(667, 878)","(-293,-202)",-285,-338,,,,,,,,,5,6,41,0,,,,,,,,,,,,,,,,,,,,,,,,,,,,,,,,,,,,,,,,,,,,1283.3910891888663,None,1284.506421005819,None,1285.4227416799404,None,1.1264550264550266,1.0348770339041948,1285.4227416799404,None,,,,,,,,,,,,,,,,,90,001,2023_Apr_28_1822,SpeechDraft1Carolyn_lessNoise_PlusLocalization,2021.2.3,59.962383042027575,
,,,,,,,,farRight,19.1,4,ch1Sound_localizationTask.wav,19.1,"(1237, 878)","(277,-202)",285,-338,,,,,,,,,6,0,42,6,,,,,,,,,,,,,,,,,,,,,,,,,,,,,,,,,,,,,,,,,,,,1286.4732321435586,None,1287.5729012787342,None,1288.5062542119995,None,1.8206349206349206,1.050327181816101,1288.5062542119995,None,,,,,,,,,,,,,,,,,90,001,2023_Apr_28_1822,SpeechDraft1Carolyn_lessNoise_PlusLocalization,2021.2.3,59.962383042027575,
,,,,,,,,midRight,13.0,3,ch1Sound_localizationTask.wav,13.0,"(1142, 878)","(182, -202)",190,-338,,,,,,,,,6,1,43,5,,,,,,,,,,,,,,,,,,,,,,,,,,,,,,,,,,,,,,,,,,,,1289.557707614731,None,1290.6728521296754,None,1291.5896816495806,None,1.4968253968253968,0.6684928191825747,1291.5896816495806,None,,,,,,,,,,,,,,,,,90,001,2023_Apr_28_1822,SpeechDraft1Carolyn_lessNoise_PlusLocalization,2021.2.3,59.962383042027575,
,,,,,,,,nearLeft,-6.5,1,ch1Sound_localizationTask.wav,-6.5,"(857, 878)","(-103,-202)",-95,-338,,,,,,,,,6,2,44,2,,,,,,,,,,,,,,,,,,,,,,,,,,,,,,,,,,,,,,,,,,,,1292.2731940108351,None,1293.3728170609102,None,1294.30617682077,None,1.173015873015873,0.8333682008087635,1294.30617682077,None,,,,,,,,,,,,,,,,,90,001,2023_Apr_28_1822,SpeechDraft1Carolyn_lessNoise_PlusLocalization,2021.2.3,59.962383042027575,
,,,,,,,,center,0.0,6,ch1Sound_localizationTask.wav,0.0,"(952, 878)","(-8,-202)",0,-338,,,,,,,,,6,3,45,3,,,,,,,,,,,,,,,,,,,,,,,,,,,,,,,,,,,,,,,,,,,,1295.1416896795854,None,1296.256263020914,None,1297.1728260898963,None,1.5095238095238095,0.699737710878253,1297.1728260898963,None,,,,,,,,,,,,,,,,,90,001,2023_Apr_28_1822,SpeechDraft1Carolyn_lessNoise_PlusLocalization,2021.2.3,59.962383042027575,
,,,,,,,,farLeft,-19.1,5,ch1Sound_localizationTask.wav,-19.1,"(667, 878)","(-293,-202)",-285,-338,,,,,,,,,6,4,46,0,,,,,,,,,,,,,,,,,,,,,,,,,,,,,,,,,,,,,,,,,,,,1297.8737398437224,None,1298.972804861609,None,1299.906051856,None,1.1708994708994709,0.7998588751070201,1299.906051856,None,,,,,,,,,,,,,,,,,90,001,2023_Apr_28_1822,SpeechDraft1Carolyn_lessNoise_PlusLocalization,2021.2.3,59.962383042027575,
,,,,,,,,farRight,19.1,4,ch1Sound_localizationTask.wav,19.1,"(1237, 878)","(277,-202)",285,-338,,,,,,,,,6,5,47,6,,,,,,,,,,,,,,,,,,,,,,,,,,,,,,,,,,,,,,,,,,,,1300.7086437968537,None,1301.8228798299097,None,1302.739370116964,None,1.6947089947089946,0.7166182179935277,1302.739370116964,None,,,,,,,,,,,,,,,,,90,001,2023_Apr_28_1822,SpeechDraft1Carolyn_lessNoise_PlusLocalization,2021.2.3,59.962383042027575,
,,,,,,,,midRight,13.0,3,ch1Sound_localizationTask.wav,13.0,"(1142, 878)","(182, -202)",190,-338,,,,,,,,,6,6,48,5,,,,,,,,,,,,,,,,,,,,,,,,,,,,,,,,,,,,,,,,,,,,1303.4577054185793,None,1304.572872178629,None,1305.4895193078555,None,1.4878306878306877,0.6001969259232283,1305.4895193078555,None,,,,,,,,,,,,,,,,,90,001,2023_Apr_28_1822,SpeechDraft1Carolyn_lessNoise_PlusLocalization,2021.2.3,59.962383042027575,
,,,,,,,,midLeft,-13.0,2,ch1Sound_localizationTask.wav,-13.0,"(762, 878)","(-198,-202)",-190,-338,,,,,,,,,7,0,49,1,,,,,,,,,,,,,,,,,,,,,,,,,,,,,,,,,,,,,,,,,,,,1306.0910937227309,None,1307.2061664168723,None,1308.1227506836876,None,1.133862433862434,0.9182181870564818,1308.1227506836876,None,,,,,,,,,,,,,,,,,90,001,2023_Apr_28_1822,SpeechDraft1Carolyn_lessNoise_PlusLocalization,2021.2.3,59.962383042027575,
,,,,,,,,midLeft,-13.0,2,ch1Sound_localizationTask.wav,-13.0,"(762, 878)","(-198,-202)",-190,-338,,,,,,,,,7,1,50,1,,,,,,,,,,,,,,,,,,,,,,,,,,,,,,,,,,,,,,,,,,,,1309.0567164728418,None,1310.1560291349888,None,1311.0895826877095,None,1.2936507936507937,0.6847273036837578,1311.0895826877095,None,,,,,,,,,,,,,,,,,90,001,2023_Apr_28_1822,SpeechDraft1Carolyn_lessNoise_PlusLocalization,2021.2.3,59.962383042027575,
,,,,,,,,center,0.0,6,ch1Sound_localizationTask.wav,0.0,"(952, 878)","(-8,-202)",0,-338,,,,,,,,,7,2,51,3,,,,,,,,,,,,,,,,,,,,,,,,,,,,,,,,,,,,,,,,,,,,1311.7897931458429,None,1312.8895498015918,None,1313.822835974861,None,1.5026455026455028,0.950980382040143,1313.822835974861,None,,,,,,,,,,,,,,,,,90,001,2023_Apr_28_1822,SpeechDraft1Carolyn_lessNoise_PlusLocalization,2021.2.3,59.962383042027575,
,,,,,,,,nearRight,6.5,0,ch1Sound_localizationTask.wav,6.5,"(1047, 878)","(87, -202)",95,-338,,,,,,,,,7,3,52,4,,,,,,,,,,,,,,,,,,,,,,,,,,,,,,,,,,,,,,,,,,,,1314.7743846187368,None,1315.8728642365895,None,1316.8063261485659,None,1.6894179894179895,1.1156933619640768,1316.8063261485659,None,,,,,,,,,,,,,,,,,90,001,2023_Apr_28_1822,SpeechDraft1Carolyn_lessNoise_PlusLocalization,2021.2.3,59.962383042027575,
,,,,,,,,midLeft,-13.0,2,ch1Sound_localizationTask.wav,-13.0,"(762, 878)","(-198,-202)",-190,-338,,,,,,,,,7,4,53,1,,,,,,,,,,,,,,,,,,,,,,,,,,,,,,,,,,,,,,,,,,,,1317.9236883749254,None,1319.022679891903,None,1319.9563028537668,None,1.3169312169312168,0.765764816198498,1319.9563028537668,None,,,,,,,,,,,,,,,,,90,001,2023_Apr_28_1822,SpeechDraft1Carolyn_lessNoise_PlusLocalization,2021.2.3,59.962383042027575,
,,,,,,,,midLeft,-13.0,2,ch1Sound_localizationTask.wav,-13.0,"(762, 878)","(-198,-202)",-190,-338,,,,,,,,,7,5,54,1,,,,,,,,,,,,,,,,,,,,,,,,,,,,,,,,,,,,,,,,,,,,1320.7398817609064,None,1321.8395029609092,None,1322.7727570720017,None,1.248148148148148,0.7831376078538597,1322.7727570720017,None,,,,,,,,,,,,,,,,,90,001,2023_Apr_28_1822,SpeechDraft1Carolyn_lessNoise_PlusLocalization,2021.2.3,59.962383042027575,
,,,,,,,,nearRight,6.5,0,ch1Sound_localizationTask.wav,6.5,"(1047, 878)","(87, -202)",95,-338,,,,,,,,,7,6,55,4,,,,,,,,,,,,,,,,,,,,,,,,,,,,,,,,,,,,,,,,,,,,1323.5575238997117,None,1324.6730804326944,None,1325.58970700996,None,1.4703703703703703,1.3168389615602791,1325.58970700996,None,,,,,,,,,,,,,,,,,90,001,2023_Apr_28_1822,SpeechDraft1Carolyn_lessNoise_PlusLocalization,2021.2.3,59.962383042027575,
,,,,,,,,,,,,,,,,,,,,,,,,,,,,,,,,,,,,,,,,,,,,,,,,,,,,,,,,,,,,,,,,,,,,,,,,,,,,,,,,,,space,12.852969815954566,1326.9899665885605,None,,,,,,,,,,,,,90,001,2023_Apr_28_1822,SpeechDraft1Carolyn_lessNoise_PlusLocalization,2021.2.3,59.962383042027575,
,,,,,,,,nearRight,6.5,0,ch1Sound_localizationTask.wav,6.5,"(1047, 878)","(87, -202)",95,-338,,,,,,,,,,,,,0,0,0,4,,,,,,,,,,,,,,,,,,,,,,,,,,,,,,,,,,,,,,,,1339.8897211346775,None,,,1342.9228263506666,None,1.5571428571428572,1.2370299883186817,1342.9228263506666,None,,,,,1326.9899665885605,None,1340.8899912545457,None,1341.0732702328824,1341.0897643738426,,,,,,,90,001,2023_Apr_28_1822,SpeechDraft1Carolyn_lessNoise_PlusLocalization,2021.2.3,59.962383042027575,
,,,,,,,,nearLeft,-6.5,1,ch1Sound_localizationTask.wav,-6.5,"(857, 878)","(-103,-202)",-95,-338,,,,,,,,,,,,,0,1,1,2,,,,,,,,,,,,,,,,,,,,,,,,,,,,,,,,,,,,,,,,1344.1577088478953,None,,,1347.1894324747846,None,1.433862433862434,1.7167280623689294,1347.1894324747846,None,,,,,,,1345.173259515781,None,1345.3567052856088,1345.3733147275634,,,,,,,90,001,2023_Apr_28_1822,SpeechDraft1Carolyn_lessNoise_PlusLocalization,2021.2.3,59.962383042027575,
,,,,,,,,farLeft,-19.1,5,ch1Sound_localizationTask.wav,-19.1,"(667, 878)","(-293,-202)",-285,-338,,,,,,,,,,,,,0,2,2,0,,,,,,,,,,,,,,,,,,,,,,,,,,,,,,,,,,,,,,,,1348.9235035157762,None,,,1351.9397863699123,None,1.3465608465608465,1.0001155696809292,1351.9397863699123,None,,,,,,,1349.9231489775702,None,1350.1065978249535,1350.123358244542,,,,,,,90,001,2023_Apr_28_1822,SpeechDraft1Carolyn_lessNoise_PlusLocalization,2021.2.3,59.962383042027575,
,,,,,,,,center,0.0,6,ch1Sound_localizationTask.wav,0.0,"(952, 878)","(-8,-202)",0,-338,,,,,,,,,,,,,0,3,3,3,,,,,,,,,,,,,,,,,,,,,,,,,,,,,,,,,,,,,,,,1352.9566799695604,None,,,1355.9729956896044,None,1.5121693121693123,1.0161100537516177,1355.9729956896044,None,,,,,,,1353.9567628586665,None,1354.1399706946686,1354.1565524516627,,,,,,,90,001,2023_Apr_28_1822,SpeechDraft1Carolyn_lessNoise_PlusLocalization,2021.2.3,59.962383042027575,
,,,,,,,,center,0.0,6,ch1Sound_localizationTask.wav,0.0,"(952, 878)","(-8,-202)",0,-338,,,,,,,,,,,,,0,4,4,3,,,,,,,,,,,,,,,,,,,,,,,,,,,,,,,,,,,,,,,,1356.991029843688,None,,,1360.0228859288618,None,1.482010582010582,0.8323883721604943,1360.0228859288618,None,,,,,,,1358.0066603547893,None,1358.1897795656696,1358.206642748788,,,,,,,90,001,2023_Apr_28_1822,SpeechDraft1Carolyn_lessNoise_PlusLocalization,2021.2.3,59.962383042027575,
,,,,,,,,midLeft,-13.0,2,ch1Sound_localizationTask.wav,-13.0,"(762, 878)","(-198,-202)",-190,-338,,,,,,,,,,,,,0,5,5,1,,,,,,,,,,,,,,,,,,,,,,,,,,,,,,,,,,,,,,,,1360.8569881296717,None,,,1363.8730211877264,None,1.3984126984126983,0.9319996233098209,1363.8730211877264,None,,,,,,,1361.8567051668651,None,1362.0400524376892,1362.0569379259832,,,,,,,90,001,2023_Apr_28_1822,SpeechDraft1Carolyn_lessNoise_PlusLocalization,2021.2.3,59.962383042027575,
,,,,,,,,center,0.0,6,ch1Sound_localizationTask.wav,0.0,"(952, 878)","(-8,-202)",0,-338,,,,,,,,,,,,,0,6,6,3,,,,,,,,,,,,,,,,,,,,,,,,,,,,,,,,,,,,,,,,1364.8075255178846,None,,,1367.8229386275634,None,1.4957671957671956,0.6324079819023609,1367.8229386275634,None,,,,,,,1365.8067153985612,None,1365.9897931218147,1366.0066387886181,,,,,,,90,001,2023_Apr_28_1822,SpeechDraft1Carolyn_lessNoise_PlusLocalization,2021.2.3,59.962383042027575,
,,,,,,,,nearLeft,-6.5,1,ch1Sound_localizationTask.wav,-6.5,"(857, 878)","(-103,-202)",-95,-338,,,,,,,,,,,,,1,0,7,2,,,,,,,,,,,,,,,,,,,,,,,,,,,,,,,,,,,,,,,,1368.4572709598579,None,,,1371.472929823678,None,1.453968253968254,0.6660594302229583,1371.472929823678,None,,,,,,,1369.4565851087682,None,1369.6398955206387,1369.656643443741,,,,,,,90,001,2023_Apr_28_1822,SpeechDraft1Carolyn_lessNoise_PlusLocalization,2021.2.3,59.962383042027575,
,,,,,,,,nearRight,6.5,0,ch1Sound_localizationTask.wav,6.5,"(1047, 878)","(87, -202)",95,-338,,,,,,,,,,,,,1,1,8,4,,,,,,,,,,,,,,,,,,,,,,,,,,,,,,,,,,,,,,,,1372.141037019901,None,,,1375.1731012547389,None,1.5687830687830688,1.0498264590278268,1375.1731012547389,None,,,,,,,1373.156577898655,None,1373.3399769957177,1373.356355228927,,,,,,,90,001,2023_Apr_28_1822,SpeechDraft1Carolyn_lessNoise_PlusLocalization,2021.2.3,59.962383042027575,
,,,,,,,,midRight,13.0,3,ch1Sound_localizationTask.wav,13.0,"(1142, 878)","(182, -202)",190,-338,,,,,,,,,,,,,1,2,9,5,,,,,,,,,,,,,,,,,,,,,,,,,,,,,,,,,,,,,,,,1376.224440314807,None,,,1379.2561909798533,None,1.585185185185185,0.6843597400002182,1379.2561909798533,None,,,,,,,1377.239982756786,None,1377.4232274405658,1377.4400576939806,,,,,,,90,001,2023_Apr_28_1822,SpeechDraft1Carolyn_lessNoise_PlusLocalization,2021.2.3,59.962383042027575,
,,,,,,,,center,0.0,6,ch1Sound_localizationTask.wav,0.0,"(952, 878)","(-8,-202)",0,-338,,,,,,,,,,,,,1,3,10,3,,,,,,,,,,,,,,,,,,,,,,,,,,,,,,,,,,,,,,,,1379.956668887753,None,,,1382.973174189683,None,1.5,0.682331012096256,1382.973174189683,None,,,,,,,1380.956664276775,None,1381.140002942644,1381.156818636693,,,,,,,90,001,2023_Apr_28_1822,SpeechDraft1Carolyn_lessNoise_PlusLocalization,2021.2.3,59.962383042027575,
,,,,,,,,farLeft,-19.1,5,ch1Sound_localizationTask.wav,-19.1,"(667, 878)","(-293,-202)",-285,-338,,,,,,,,,,,,,1,4,11,0,,,,,,,,,,,,,,,,,,,,,,,,,,,,,,,,,,,,,,,,1383.6574794319458,None,,,1386.6728777326643,None,1.3476190476190477,1.3819967727176845,1386.6728777326643,None,,,,,,,1384.6566973817535,None,1384.8399164197035,1384.856539179571,,,,,,,90,001,2023_Apr_28_1822,SpeechDraft1Carolyn_lessNoise_PlusLocalization,2021.2.3,59.962383042027575,
,,,,,,,,farLeft,-19.1,5,ch1Sound_localizationTask.wav,-19.1,"(667, 878)","(-293,-202)",-285,-338,,,,,,,,,,,,,1,5,12,0,,,,,,,,,,,,,,,,,,,,,,,,,,,,,,,,,,,,,,,,1388.057711751666,None,,,1391.0899215526879,None,1.3687830687830687,0.9796382822096348,1391.0899215526879,None,,,,,,,1389.073172993958,None,1389.256585974712,1389.2732469919138,,,,,,,90,001,2023_Apr_28_1822,SpeechDraft1Carolyn_lessNoise_PlusLocalization,2021.2.3,59.962383042027575,
,,,,,,,,farRight,19.1,4,ch1Sound_localizationTask.wav,19.1,"(1237, 878)","(277,-202)",285,-338,,,,,,,,,,,,,1,6,13,6,,,,,,,,,,,,,,,,,,,,,,,,,,,,,,,,,,,,,,,,1392.0899954210036,None,,,1395.1062562027946,None,1.6317460317460317,0.6334878029301763,1395.1062562027946,None,,,,,,,1393.0901349037886,None,1393.2733913785778,1393.2899727816693,,,,,,,90,001,2023_Apr_28_1822,SpeechDraft1Carolyn_lessNoise_PlusLocalization,2021.2.3,59.962383042027575,
,,,,,,,,nearRight,6.5,0,ch1Sound_localizationTask.wav,6.5,"(1047, 878)","(87, -202)",95,-338,,,,,,,,,,,,,2,0,14,4,,,,,,,,,,,,,,,,,,,,,,,,,,,,,,,,,,,,,,,,1395.7415077518672,None,,,1398.7730807536282,None,1.5455026455026455,0.5501520689576864,1398.7730807536282,None,,,,,,,1396.7565122009255,None,1396.939995922614,1396.9565322529525,,,,,,,90,001,2023_Apr_28_1822,SpeechDraft1Carolyn_lessNoise_PlusLocalization,2021.2.3,59.962383042027575,
,,,,,,,,center,0.0,6,ch1Sound_localizationTask.wav,0.0,"(952, 878)","(-8,-202)",0,-338,,,,,,,,,,,,,2,1,15,3,,,,,,,,,,,,,,,,,,,,,,,,,,,,,,,,,,,,,,,,1399.324490387924,None,,,1402.3565519158728,None,1.4772486772486773,0.48303411016240716,1402.3565519158728,None,,,,,,,1400.3399010975845,None,1400.523179715965,1400.5399257508107,,,,,,,90,001,2023_Apr_28_1822,SpeechDraft1Carolyn_lessNoise_PlusLocalization,2021.2.3,59.962383042027575,
,,,,,,,,nearLeft,-6.5,1,ch1Sound_localizationTask.wav,-6.5,"(857, 878)","(-103,-202)",-95,-338,,,,,,,,,,,,,2,2,16,2,,,,,,,,,,,,,,,,,,,,,,,,,,,,,,,,,,,,,,,,1402.8409808469005,None,,,1405.873251051642,None,1.4312169312169312,0.5499135148711503,1405.873251051642,None,,,,,,,1403.8566489815712,None,1404.0401231939904,1404.0565571147017,,,,,,,90,001,2023_Apr_28_1822,SpeechDraft1Carolyn_lessNoise_PlusLocalization,2021.2.3,59.962383042027575,
,,,,,,,,nearLeft,-6.5,1,ch1Sound_localizationTask.wav,-6.5,"(857, 878)","(-103,-202)",-95,-338,,,,,,,,,,,,,2,3,17,2,,,,,,,,,,,,,,,,,,,,,,,,,,,,,,,,,,,,,,,,1406.4245621156879,None,,,1409.4563911468722,None,1.4555555555555555,0.5162920588627458,1409.4563911468722,None,,,,,,,1407.4400312756188,None,1407.623346337583,1407.6400765748695,,,,,,,90,001,2023_Apr_28_1822,SpeechDraft1Carolyn_lessNoise_PlusLocalization,2021.2.3,59.962383042027575,
,,,,,,,,center,0.0,6,ch1Sound_localizationTask.wav,0.0,"(952, 878)","(-8,-202)",0,-338,,,,,,,,,,,,,2,4,18,3,,,,,,,,,,,,,,,,,,,,,,,,,,,,,,,,,,,,,,,,1409.974365749862,None,,,1413.0062283379957,None,1.511111111111111,0.8168984269723296,1413.0062283379957,None,,,,,,,1410.990058209747,None,1411.173422717955,1411.1900317687541,,,,,,,90,001,2023_Apr_28_1822,SpeechDraft1Carolyn_lessNoise_PlusLocalization,2021.2.3,59.962383042027575,
,,,,,,,,nearLeft,-6.5,1,ch1Sound_localizationTask.wav,-6.5,"(857, 878)","(-103,-202)",-95,-338,,,,,,,,,,,,,2,5,19,2,,,,,,,,,,,,,,,,,,,,,,,,,,,,,,,,,,,,,,,,1413.8245891346596,None,,,1416.8564699287526,None,1.456084656084656,0.5492918780073524,1416.8564699287526,None,,,,,,,1414.840052783955,None,1415.0231034168974,1415.040156475734,,,,,,,90,001,2023_Apr_28_1822,SpeechDraft1Carolyn_lessNoise_PlusLocalization,2021.2.3,59.962383042027575,
,,,,,,,,farRight,19.1,4,ch1Sound_localizationTask.wav,19.1,"(1237, 878)","(277,-202)",285,-338,,,,,,,,,,,,,2,6,20,6,,,,,,,,,,,,,,,,,,,,,,,,,,,,,,,,,,,,,,,,1417.4072854798287,None,,,1420.4229972488247,None,1.6693121693121693,1.1502933618612587,1420.4229972488247,None,,,,,,,1418.4066638145596,None,1418.590032205917,1418.6067391829565,,,,,,,90,001,2023_Apr_28_1822,SpeechDraft1Carolyn_lessNoise_PlusLocalization,2021.2.3,59.962383042027575,
,,,,,,,,midLeft,-13.0,2,ch1Sound_localizationTask.wav,-13.0,"(762, 878)","(-198,-202)",-190,-338,,,,,,,,,,,,,3,0,21,1,,,,,,,,,,,,,,,,,,,,,,,,,,,,,,,,,,,,,,,,1421.5743258637376,None,,,1424.5896000936627,None,1.426984126984127,1.2656785231083632,1424.5896000936627,None,,,,,,,1422.5731751928106,None,1422.7568355286494,1422.7733842725866,,,,,,,90,001,2023_Apr_28_1822,SpeechDraft1Carolyn_lessNoise_PlusLocalization,2021.2.3,59.962383042027575,
,,,,,,,,midLeft,-13.0,2,ch1Sound_localizationTask.wav,-13.0,"(762, 878)","(-198,-202)",-190,-338,,,,,,,,,,,,,3,1,22,1,,,,,,,,,,,,,,,,,,,,,,,,,,,,,,,,,,,,,,,,1425.8567999727093,None,,,1428.8729729936458,None,1.4190476190476191,0.6321809478104115,1428.8729729936458,None,,,,,,,1426.8564600679092,None,1427.0400629788637,1427.056494673714,,,,,,,90,001,2023_Apr_28_1822,SpeechDraft1Carolyn_lessNoise_PlusLocalization,2021.2.3,59.962383042027575,
,,,,,,,,farRight,19.1,4,ch1Sound_localizationTask.wav,19.1,"(1237, 878)","(277,-202)",285,-338,,,,,,,,,,,,,3,2,23,6,,,,,,,,,,,,,,,,,,,,,,,,,,,,,,,,,,,,,,,,1429.5073127439246,None,,,1432.5229967026971,None,1.6682539682539683,1.16530747897923,1432.5229967026971,None,,,,,,,1430.5066361008212,None,1430.6901289029047,1430.7065920126624,,,,,,,90,001,2023_Apr_28_1822,SpeechDraft1Carolyn_lessNoise_PlusLocalization,2021.2.3,59.962383042027575,
,,,,,,,,midRight,13.0,3,ch1Sound_localizationTask.wav,13.0,"(1142, 878)","(182, -202)",190,-338,,,,,,,,,,,,,3,3,24,5,,,,,,,,,,,,,,,,,,,,,,,,,,,,,,,,,,,,,,,,1433.690732757561,None,,,1436.7063606828451,None,1.5915343915343916,0.682978630065918,1436.7063606828451,None,,,,,,,1434.6898622126319,None,1434.873348238878,1434.8900454877876,,,,,,,90,001,2023_Apr_28_1822,SpeechDraft1Carolyn_lessNoise_PlusLocalization,2021.2.3,59.962383042027575,
,,,,,,,,nearLeft,-6.5,1,ch1Sound_localizationTask.wav,-6.5,"(857, 878)","(-103,-202)",-95,-338,,,,,,,,,,,,,3,4,25,2,,,,,,,,,,,,,,,,,,,,,,,,,,,,,,,,,,,,,,,,1437.3908266285434,None,,,1440.4062845176086,None,1.4238095238095239,0.6839167973957956,1440.4062845176086,None,,,,,,,1438.3901647259481,None,1438.573363385629,1438.5901948115788,,,,,,,90,001,2023_Apr_28_1822,SpeechDraft1Carolyn_lessNoise_PlusLocalization,2021.2.3,59.962383042027575,
,,,,,,,,farRight,19.1,4,ch1Sound_localizationTask.wav,19.1,"(1237, 878)","(277,-202)",285,-338,,,,,,,,,,,,,3,5,26,6,,,,,,,,,,,,,,,,,,,,,,,,,,,,,,,,,,,,,,,,1441.106922713574,None,,,1444.1231517735869,None,1.6455026455026456,1.2509536547586322,1444.1231517735869,None,,,,,,,1442.1067755585536,None,1442.2901384378783,1442.3065686780028,,,,,,,90,001,2023_Apr_28_1822,SpeechDraft1Carolyn_lessNoise_PlusLocalization,2021.2.3,59.962383042027575,
,,,,,,,,farRight,19.1,4,ch1Sound_localizationTask.wav,19.1,"(1237, 878)","(277,-202)",285,-338,,,,,,,,,,,,,3,6,27,6,,,,,,,,,,,,,,,,,,,,,,,,,,,,,,,,,,,,,,,,1445.390095305629,None,,,1448.4063950967975,None,1.6645502645502646,0.5155417313799262,1448.4063950967975,None,,,,,,,1446.389858880546,None,1446.5734588168561,1446.5900778509676,,,,,,,90,001,2023_Apr_28_1822,SpeechDraft1Carolyn_lessNoise_PlusLocalization,2021.2.3,59.962383042027575,
,,,,,,,,nearLeft,-6.5,1,ch1Sound_localizationTask.wav,-6.5,"(857, 878)","(-103,-202)",-95,-338,,,,,,,,,,,,,4,0,28,2,,,,,,,,,,,,,,,,,,,,,,,,,,,,,,,,,,,,,,,,1448.9250366808847,None,,,1451.9564780788496,None,1.4216931216931217,1.334846941754222,1451.9564780788496,None,,,,,,,1449.940457906574,None,1450.1233508829027,1450.1400754428469,,,,,,,90,001,2023_Apr_28_1822,SpeechDraft1Carolyn_lessNoise_PlusLocalization,2021.2.3,59.962383042027575,
,,,,,,,,farRight,19.1,4,ch1Sound_localizationTask.wav,19.1,"(1237, 878)","(277,-202)",285,-338,,,,,,,,,,,,,4,1,29,6,,,,,,,,,,,,,,,,,,,,,,,,,,,,,,,,,,,,,,,,1453.306799185928,None,,,1456.3232193808071,None,1.6375661375661377,0.9994186409749091,1456.3232193808071,None,,,,,,,1454.3067423636094,None,1454.4899033587426,1454.506733242888,,,,,,,90,001,2023_Apr_28_1822,SpeechDraft1Carolyn_lessNoise_PlusLocalization,2021.2.3,59.962383042027575,
,,,,,,,,farRight,19.1,4,ch1Sound_localizationTask.wav,19.1,"(1237, 878)","(277,-202)",285,-338,,,,,,,,,,,,,4,2,30,6,,,,,,,,,,,,,,,,,,,,,,,,,,,,,,,,,,,,,,,,1457.3247872027569,None,,,1460.3565290439874,None,1.6428571428571428,0.48400569101795554,1460.3565290439874,None,,,,,,,1458.3401451446116,None,1458.5235377177596,1458.5401758188382,,,,,,,90,001,2023_Apr_28_1822,SpeechDraft1Carolyn_lessNoise_PlusLocalization,2021.2.3,59.962383042027575,
,,,,,,,,midRight,13.0,3,ch1Sound_localizationTask.wav,13.0,"(1142, 878)","(182, -202)",190,-338,,,,,,,,,,,,,4,3,31,5,,,,,,,,,,,,,,,,,,,,,,,,,,,,,,,,,,,,,,,,1460.8415352557786,None,,,1463.8733195448294,None,1.5873015873015874,0.5163408629596233,1463.8733195448294,None,,,,,,,1461.8567384518683,None,1462.0400134818628,1462.0566601189785,,,,,,,90,001,2023_Apr_28_1822,SpeechDraft1Carolyn_lessNoise_PlusLocalization,2021.2.3,59.962383042027575,
,,,,,,,,nearRight,6.5,0,ch1Sound_localizationTask.wav,6.5,"(1047, 878)","(87, -202)",95,-338,,,,,,,,,,,,,4,4,32,4,,,,,,,,,,,,,,,,,,,,,,,,,,,,,,,,,,,,,,,,1464.3909200797789,None,,,1467.423120193649,None,1.5534391534391534,1.233502026181668,1467.423120193649,None,,,,,,,1465.4068474075757,None,1465.5901897586882,1465.6067428477108,,,,,,,90,001,2023_Apr_28_1822,SpeechDraft1Carolyn_lessNoise_PlusLocalization,2021.2.3,59.962383042027575,
,,,,,,,,midRight,13.0,3,ch1Sound_localizationTask.wav,13.0,"(1142, 878)","(182, -202)",190,-338,,,,,,,,,,,,,4,5,33,5,,,,,,,,,,,,,,,,,,,,,,,,,,,,,,,,,,,,,,,,1468.6734962458722,None,,,1471.6898437896743,None,1.625925925925926,0.799450277350843,1471.6898437896743,None,,,,,,,1469.6733701629564,None,1469.8567250017077,1469.8733871555887,,,,,,,90,001,2023_Apr_28_1822,SpeechDraft1Carolyn_lessNoise_PlusLocalization,2021.2.3,59.962383042027575,
,,,,,,,,midRight,13.0,3,ch1Sound_localizationTask.wav,13.0,"(1142, 878)","(182, -202)",190,-338,,,,,,,,,,,,,4,6,34,5,,,,,,,,,,,,,,,,,,,,,,,,,,,,,,,,,,,,,,,,1472.5068586589769,None,,,1475.5230833496898,None,1.6174603174603175,0.5826982227154076,1475.5230833496898,None,,,,,,,1473.5068054357544,None,1473.6901787198149,1473.7068769526668,,,,,,,90,001,2023_Apr_28_1822,SpeechDraft1Carolyn_lessNoise_PlusLocalization,2021.2.3,59.962383042027575,
,,,,,,,,midLeft,-13.0,2,ch1Sound_localizationTask.wav,-13.0,"(762, 878)","(-198,-202)",-190,-338,,,,,,,,,,,,,5,0,35,1,,,,,,,,,,,,,,,,,,,,,,,,,,,,,,,,,,,,,,,,1476.1076565166004,None,,,1479.1398214329965,None,1.3465608465608465,1.0173112442716956,1479.1398214329965,None,,,,,,,1477.1233943966217,None,1477.3067508898675,1477.3234401675873,,,,,,,90,001,2023_Apr_28_1822,SpeechDraft1Carolyn_lessNoise_PlusLocalization,2021.2.3,59.962383042027575,
,,,,,,,,midLeft,-13.0,2,ch1Sound_localizationTask.wav,-13.0,"(762, 878)","(-198,-202)",-190,-338,,,,,,,,,,,,,5,1,36,1,,,,,,,,,,,,,,,,,,,,,,,,,,,,,,,,,,,,,,,,1480.1735915299505,None,,,1483.189666905906,None,1.411111111111111,1.0001658368855715,1483.189666905906,None,,,,,,,1481.1737132999115,None,1481.35670799762,1481.3732897327282,,,,,,,90,001,2023_Apr_28_1822,SpeechDraft1Carolyn_lessNoise_PlusLocalization,2021.2.3,59.962383042027575,
,,,,,,,,farLeft,-19.1,5,ch1Sound_localizationTask.wav,-19.1,"(667, 878)","(-293,-202)",-285,-338,,,,,,,,,,,,,5,2,37,0,,,,,,,,,,,,,,,,,,,,,,,,,,,,,,,,,,,,,,,,1484.1911454875953,None,,,1487.223228749819,None,1.3793650793650793,0.9165563937276602,1487.223228749819,None,,,,,,,1485.2067353306338,None,1485.3902673400007,1485.406609932892,,,,,,,90,001,2023_Apr_28_1822,SpeechDraft1Carolyn_lessNoise_PlusLocalization,2021.2.3,59.962383042027575,
,,,,,,,,midLeft,-13.0,2,ch1Sound_localizationTask.wav,-13.0,"(762, 878)","(-198,-202)",-190,-338,,,,,,,,,,,,,5,3,38,1,,,,,,,,,,,,,,,,,,,,,,,,,,,,,,,,,,,,,,,,1488.141184964683,None,,,1491.173320560716,None,1.42010582010582,0.6672662380151451,1491.173320560716,None,,,,,,,1489.1566941826604,None,1489.3402545987628,1489.356715825852,,,,,,,90,001,2023_Apr_28_1822,SpeechDraft1Carolyn_lessNoise_PlusLocalization,2021.2.3,59.962383042027575,
,,,,,,,,nearRight,6.5,0,ch1Sound_localizationTask.wav,6.5,"(1047, 878)","(87, -202)",95,-338,,,,,,,,,,,,,5,4,39,4,,,,,,,,,,,,,,,,,,,,,,,,,,,,,,,,,,,,,,,,1491.8568174629472,None,,,1494.8731897319667,None,1.538095238095238,0.6158335511572659,1494.8731897319667,None,,,,,,,1492.8566571925767,None,1493.0399630987085,1493.056800112594,,,,,,,90,001,2023_Apr_28_1822,SpeechDraft1Carolyn_lessNoise_PlusLocalization,2021.2.3,59.962383042027575,
,,,,,,,,midRight,13.0,3,ch1Sound_localizationTask.wav,13.0,"(1142, 878)","(182, -202)",190,-338,,,,,,,,,,,,,5,5,40,5,,,,,,,,,,,,,,,,,,,,,,,,,,,,,,,,,,,,,,,,1495.490922210738,None,,,1498.506427042652,None,1.5756613756613755,0.8163884291425347,1498.506427042652,None,,,,,,,1496.4900553375483,None,1496.67331142677,1496.6901637716219,,,,,,,90,001,2023_Apr_28_1822,SpeechDraft1Carolyn_lessNoise_PlusLocalization,2021.2.3,59.962383042027575,
,,,,,,,,farLeft,-19.1,5,ch1Sound_localizationTask.wav,-19.1,"(667, 878)","(-293,-202)",-285,-338,,,,,,,,,,,,,5,6,41,0,,,,,,,,,,,,,,,,,,,,,,,,,,,,,,,,,,,,,,,,1499.3249698476866,None,,,1502.356334048789,None,1.4095238095238094,1.0326423598453403,1502.356334048789,None,,,,,,,1500.3400778025389,None,1500.523402351886,1500.5400872626342,,,,,,,90,001,2023_Apr_28_1822,SpeechDraft1Carolyn_lessNoise_PlusLocalization,2021.2.3,59.962383042027575,
,,,,,,,,center,0.0,6,ch1Sound_localizationTask.wav,0.0,"(952, 878)","(-8,-202)",0,-338,,,,,,,,,,,,,6,0,42,3,,,,,,,,,,,,,,,,,,,,,,,,,,,,,,,,,,,,,,,,1503.3912103408948,None,,,1506.406535858754,None,1.4714285714285715,0.7997415950521827,1506.406535858754,None,,,,,,,1504.3900487157516,None,1504.573571565561,1504.59008403169,,,,,,,90,001,2023_Apr_28_1822,SpeechDraft1Carolyn_lessNoise_PlusLocalization,2021.2.3,59.962383042027575,
,,,,,,,,midRight,13.0,3,ch1Sound_localizationTask.wav,13.0,"(1142, 878)","(182, -202)",190,-338,,,,,,,,,,,,,6,1,43,5,,,,,,,,,,,,,,,,,,,,,,,,,,,,,,,,,,,,,,,,1507.208028553985,None,,,1510.2398099289276,None,1.574074074074074,0.4835286680608988,1510.2398099289276,None,,,,,,,1508.2236387985758,None,1508.4067934425548,1508.4236022899859,,,,,,,90,001,2023_Apr_28_1822,SpeechDraft1Carolyn_lessNoise_PlusLocalization,2021.2.3,59.962383042027575,
,,,,,,,,nearRight,6.5,0,ch1Sound_localizationTask.wav,6.5,"(1047, 878)","(87, -202)",95,-338,,,,,,,,,,,,,6,2,44,4,,,,,,,,,,,,,,,,,,,,,,,,,,,,,,,,,,,,,,,,1510.7245385479182,None,,,1513.7566767809913,None,1.5306878306878307,0.8490546611137688,1513.7566767809913,None,,,,,,,1511.7403799407184,None,1511.9234434817918,1511.9404125455767,,,,,,,90,001,2023_Apr_28_1822,SpeechDraft1Carolyn_lessNoise_PlusLocalization,2021.2.3,59.962383042027575,
,,,,,,,,nearRight,6.5,0,ch1Sound_localizationTask.wav,6.5,"(1047, 878)","(87, -202)",95,-338,,,,,,,,,,,,,6,3,45,4,,,,,,,,,,,,,,,,,,,,,,,,,,,,,,,,,,,,,,,,1514.607237844728,None,,,1517.6232936568558,None,1.5407407407407407,0.7329869098030031,1517.6232936568558,None,,,,,,,1515.6068276469596,None,1515.7902555605397,1515.8067313069478,,,,,,,90,001,2023_Apr_28_1822,SpeechDraft1Carolyn_lessNoise_PlusLocalization,2021.2.3,59.962383042027575,
,,,,,,,,farRight,19.1,4,ch1Sound_localizationTask.wav,19.1,"(1237, 878)","(277,-202)",285,-338,,,,,,,,,,,,,6,4,46,6,,,,,,,,,,,,,,,,,,,,,,,,,,,,,,,,,,,,,,,,1518.3580693146214,None,,,1521.3900067438371,None,1.6544973544973545,1.482638387940824,1521.3900067438371,None,,,,,,,1519.3734574667178,None,1519.556726823561,1519.5734470868483,,,,,,,90,001,2023_Apr_28_1822,SpeechDraft1Carolyn_lessNoise_PlusLocalization,2021.2.3,59.962383042027575,
,,,,,,,,midRight,13.0,3,ch1Sound_localizationTask.wav,13.0,"(1142, 878)","(182, -202)",190,-338,,,,,,,,,,,,,6,5,47,5,,,,,,,,,,,,,,,,,,,,,,,,,,,,,,,,,,,,,,,,1522.8749145786278,None,,,1525.9065415179357,None,1.5925925925925926,0.6002479810267687,1525.9065415179357,None,,,,,,,1523.8900941568427,None,1524.0733715849929,1524.0901631736197,,,,,,,90,001,2023_Apr_28_1822,SpeechDraft1Carolyn_lessNoise_PlusLocalization,2021.2.3,59.962383042027575,
,,,,,,,,midLeft,-13.0,2,ch1Sound_localizationTask.wav,-13.0,"(762, 878)","(-198,-202)",-190,-338,,,,,,,,,,,,,6,6,48,1,,,,,,,,,,,,,,,,,,,,,,,,,,,,,,,,,,,,,,,,1526.5078752776608,None,,,1529.5398480226286,None,1.3820105820105821,0.9505131682381034,1529.5398480226286,None,,,,,,,1527.5236344789155,None,1527.706952021923,1527.7234514839947,,,,,,,90,001,2023_Apr_28_1822,SpeechDraft1Carolyn_lessNoise_PlusLocalization,2021.2.3,59.962383042027575,
,,,,,,,,farLeft,-19.1,5,ch1Sound_localizationTask.wav,-19.1,"(667, 878)","(-293,-202)",-285,-338,,,,,,,,,,,,,7,0,49,0,,,,,,,,,,,,,,,,,,,,,,,,,,,,,,,,,,,,,,,,1530.50681556575,None,,,1533.523163810838,None,1.3375661375661376,2.3658490078523755,1533.523163810838,None,,,,,,,1531.5070585436188,None,1531.690071879886,1531.7070326209068,,,,,,,90,001,2023_Apr_28_1822,SpeechDraft1Carolyn_lessNoise_PlusLocalization,2021.2.3,59.962383042027575,
,,,,,,,,nearLeft,-6.5,1,ch1Sound_localizationTask.wav,-6.5,"(857, 878)","(-103,-202)",-95,-338,,,,,,,,,,,,,7,1,50,2,,,,,,,,,,,,,,,,,,,,,,,,,,,,,,,,,,,,,,,,1535.8913437449373,None,,,1538.9232352226973,None,1.4386243386243387,0.6169736473821104,1538.9232352226973,None,,,,,,,1536.9067653445527,None,1537.0903359628282,1537.1068648598157,,,,,,,90,001,2023_Apr_28_1822,SpeechDraft1Carolyn_lessNoise_PlusLocalization,2021.2.3,59.962383042027575,
,,,,,,,,midLeft,-13.0,2,ch1Sound_localizationTask.wav,-13.0,"(762, 878)","(-198,-202)",-190,-338,,,,,,,,,,,,,7,2,51,1,,,,,,,,,,,,,,,,,,,,,,,,,,,,,,,,,,,,,,,,1539.5414836956188,None,,,1542.5733709177002,None,1.362962962962963,0.5498661771416664,1542.5733709177002,None,,,,,,,1540.5567485648207,None,1540.7402094206773,1540.7569334199652,,,,,,,90,001,2023_Apr_28_1822,SpeechDraft1Carolyn_lessNoise_PlusLocalization,2021.2.3,59.962383042027575,
,,,,,,,,nearRight,6.5,0,ch1Sound_localizationTask.wav,6.5,"(1047, 878)","(87, -202)",95,-338,,,,,,,,,,,,,7,3,52,4,,,,,,,,,,,,,,,,,,,,,,,,,,,,,,,,,,,,,,,,1543.1402098266408,None,,,1546.1565775759518,None,1.5349206349206348,0.766127185896039,1546.1565775759518,None,,,,,,,1544.1402634917758,None,1544.3235288197175,1544.3401862746105,,,,,,,90,001,2023_Apr_28_1822,SpeechDraft1Carolyn_lessNoise_PlusLocalization,2021.2.3,59.962383042027575,
,,,,,,,,farLeft,-19.1,5,ch1Sound_localizationTask.wav,-19.1,"(667, 878)","(-293,-202)",-285,-338,,,,,,,,,,,,,7,4,53,0,,,,,,,,,,,,,,,,,,,,,,,,,,,,,,,,,,,,,,,,1546.9242089679465,None,,,1549.9397341478616,None,1.3216931216931216,0.9996289052069187,1549.9397341478616,None,,,,,,,1547.923449685797,None,1548.106656695716,1548.1233402406797,,,,,,,90,001,2023_Apr_28_1822,SpeechDraft1Carolyn_lessNoise_PlusLocalization,2021.2.3,59.962383042027575,
,,,,,,,,farLeft,-19.1,5,ch1Sound_localizationTask.wav,-19.1,"(667, 878)","(-293,-202)",-285,-338,,,,,,,,,,,,,7,5,54,0,,,,,,,,,,,,,,,,,,,,,,,,,,,,,,,,,,,,,,,,1550.941413093824,None,,,1553.9730974137783,None,1.3666666666666667,0.5833034883253276,1553.9730974137783,None,,,,,,,1551.9569637258537,None,1552.140289124567,1552.1569092529826,,,,,,,90,001,2023_Apr_28_1822,SpeechDraft1Carolyn_lessNoise_PlusLocalization,2021.2.3,59.962383042027575,
,,,,,,,,center,0.0,6,ch1Sound_localizationTask.wav,0.0,"(952, 878)","(-8,-202)",0,-338,,,,,,,,,,,,,7,6,55,3,,,,,,,,,,,,,,,,,,,,,,,,,,,,,,,,,,,,,,,,1554.5579571286216,None,,,1557.5898536955938,None,1.508994708994709,0.4836749234236777,1557.5898536955938,None,,,,,,,1555.5734352739528,None,1555.7568531767465,1555.7734169107862,,,,,,,90,001,2023_Apr_28_1822,SpeechDraft1Carolyn_lessNoise_PlusLocalization,2021.2.3,59.962383042027575,
,,,,,,,,,,,,,,,,,,,,,,,,,,,,,,,,,,,,,,,,,,,,,,,,,,,,,,,,,,,,,,,,,,,,,,,,,,,,,,,,,,,,,,,,,,,,1558.0750683797523,None,c,184.43374512717128,1559.0569352558814,None,90,001,2023_Apr_28_1822,SpeechDraft1Carolyn_lessNoise_PlusLocalization,2021.2.3,59.962383042027575,
