Audio_Only_Files,Video_Files,Original_Word_List,noiseLevelCode,conditionCodes,noiseLevelFile1,noiseLevelFile2,InstrTextVar,targetSpeakerName,targetSpeakerEccen,targetSpkrChannel,targetSpkrSound,targetVisualDegrees,visStimLoc,visStimLoc2,visStimW,visStimH,practiceTrials.thisRepN,practiceTrials.thisTrialN,practiceTrials.thisN,practiceTrials.thisIndex,trials.thisRepN,trials.thisTrialN,trials.thisN,trials.thisIndex,audLocalLoop.thisRepN,audLocalLoop.thisTrialN,audLocalLoop.thisN,audLocalLoop.thisIndex,visualLocalLoop.thisRepN,visualLocalLoop.thisTrialN,visualLocalLoop.thisN,visualLocalLoop.thisIndex,letsGoAlready.keys,letsGoAlready.rt,letsGoAlready.started,letsGoAlready.stopped,text_2.started,text_2.stopped,text_3.started,text_3.stopped,key_resp_2.keys,key_resp_2.rt,key_resp_2.started,key_resp_2.stopped,text_5.started,text_5.stopped,fixCross.started,fixCross.stopped,fixCross2.started,fixCross2.stopped,answerPrompt.started,answerPrompt.stopped,getAnswer.text,getAnswer.started,getAnswer.stopped,goToNext.keys,goToNext.rt,goToNext.started,goToNext.stopped,stretchBreakTxrt.started,stretchBreakTxrt.stopped,key_resp_3.keys,key_resp_3.rt,key_resp_3.started,key_resp_3.stopped,letsGoLocal.keys,letsGoLocal.rt,letsGoLocal.started,letsGoLocal.stopped,text_4.started,text_4.stopped,prepFixTxt.started,prepFixTxt.stopped,prepFixTxt_2.started,prepFixTxt_2.stopped,respPromptLocal.started,respPromptLocal.stopped,slider.response,slider.rt,slider.started,slider.stopped,letsGoLocal_2.keys,letsGoLocal_2.rt,letsGoLocal_2.started,letsGoLocal_2.stopped,text_7.started,text_7.stopped,prepFixTxt_3.started,prepFixTxt_3.stopped,grating.started,grating.stopped,exitTxt.started,exitTxt.stopped,key_resp.keys,key_resp.rt,key_resp.started,key_resp.stopped,participant,session,date,expName,psychopyVersion,frameRate,
,,,,,,,,,,,,,,,,,,,,,,,,,,,,,,,,,space,15.521298551931977,14.019751658197492,None,,,,,,,,,,,,,,,,,,,,,,,,,,,,,,,,,,,,,,,,,,,,,,,,,,,,,,,,,,,,,,91,001,2023_May_03_1421,SpeechDraft1Carolyn_lessNoise_PlusLocalization,2021.2.3,60.08027266753204,
,,,,,,,,,,,,,,,,,,,,,,,,,,,,,,,,,,,,,14.019751658197492,None,29.66947148926556,None,space,7.616112037096173,29.852877787314355,None,,,,,,,,,,,,,,,,,,,,,,,,,,,,,,,,,,,,,,,,,,,,,,,,,,,,,,91,001,2023_May_03_1421,SpeechDraft1Carolyn_lessNoise_PlusLocalization,2021.2.3,60.08027266753204,
ash.wav,ash.mpg,ash,1,A,Pink_Noise_1_1.wav,Pink_Noise_1_2.wav,"This is an example of an

AUDIO trial",,,,,,,,,,0,0,0,0,,,,,,,,,,,,,,,,,,,,,,,,,37.51935575110838,None,38.50286271004006,None,41.81920028710738,None,43.20301510533318,None,"ash
",43.20301510533318,None,return,6.1505647879093885,43.28635567612946,None,,,,,,,,,,,,,,,,,,,,,,,,,,,,,,,,,,,,,,,91,001,2023_May_03_1421,SpeechDraft1Carolyn_lessNoise_PlusLocalization,2021.2.3,60.08027266753204,
ash.wav,ash.mpg,ash,1,AV,Pink_Noise_1_1.wav,Pink_Noise_1_2.wav,"This is an example of an

AUDIO + VIDEO  trial",,,,,,,,,,0,1,1,1,,,,,,,,,,,,,,,,,,,,,,,,,49.502629386261106,None,50.50285076024011,None,52.00277167232707,None,53.38619171222672,None,ash,53.38619171222672,None,return,3.8312664814293385,53.46967033017427,None,,,,,,,,,,,,,,,,,,,,,,,,,,,,,,,,,,,,,,,91,001,2023_May_03_1421,SpeechDraft1Carolyn_lessNoise_PlusLocalization,2021.2.3,60.08027266753204,
,,,,,,,,,,,,,,,,,,,,,,,,,,,,,,,,,,,,,,,,,,,,,,,,,,,,,,,,,,,,57.336809957399964,None,space,14.717345253098756,57.51963720936328,None,,,,,,,,,,,,,,,,,,,,,,,,,,,,,,,,,91,001,2023_May_03_1421,SpeechDraft1Carolyn_lessNoise_PlusLocalization,2021.2.3,60.08027266753204,
bust.wav,bust.mpg,bust,2,A,Pink_Noise_2_1.wav,Pink_Noise_2_2.wav,,,,,,,,,,,,,,,0,0,0,38,,,,,,,,,,,,,,,,,,,,,,,72.30262219812721,None,73.7859949474223,None,75.16960086999461,None,bust,75.16960086999461,None,return,3.4401264768093824,75.25298394542187,None,,,,,,,,,,,,,,,,,,,,,,,,,,,,,,,,,,,,,,,91,001,2023_May_03_1421,SpeechDraft1Carolyn_lessNoise_PlusLocalization,2021.2.3,60.08027266753204,
shed.wav,shed.mpg,shed,2,AV,Pink_Noise_2_1.wav,Pink_Noise_2_2.wav,,,,,,,,,,,,,,,0,1,1,87,,,,,,,,,,,,,,,,,,,,,,,78.71960590034723,None,80.2192616770044,None,81.6028230059892,None,shed,81.6028230059892,None,return,2.990562617778778,81.68638979410753,None,,,,,,,,,,,,,,,,,,,,,,,,,,,,,,,,,,,,,,,91,001,2023_May_03_1421,SpeechDraft1Carolyn_lessNoise_PlusLocalization,2021.2.3,60.08027266753204,
blob.wav,blob.mpg,blob,4,AV,Pink_Noise_4_1.wav,Pink_Noise_4_2.wav,,,,,,,,,,,,,,,0,2,2,65,,,,,,,,,,,,,,,,,,,,,,,84.70294703217223,None,86.20263563422486,None,87.58637532033026,None,lab,87.58637532033026,None,return,6.543286237865686,87.66964343423024,None,,,,,,,,,,,,,,,,,,,,,,,,,,,,,,,,,,,,,,,91,001,2023_May_03_1421,SpeechDraft1Carolyn_lessNoise_PlusLocalization,2021.2.3,60.08027266753204,
flank.wav,flank.mpg,flank,1,A,Pink_Noise_1_1.wav,Pink_Noise_1_2.wav,,,,,,,,,,,,,,,0,3,3,48,,,,,,,,,,,,,,,,,,,,,,,94.23632435733452,None,95.73607554007322,None,97.1195992929861,None,"flake
",97.1195992929861,None,return,3.5859219930134714,97.20303320139647,None,,,,,,,,,,,,,,,,,,,,,,,,,,,,,,,,,,,,,,,91,001,2023_May_03_1421,SpeechDraft1Carolyn_lessNoise_PlusLocalization,2021.2.3,60.08027266753204,
ham.wav,ham.mpg,ham,6,AV,Pink_Noise_6_1.wav,Pink_Noise_6_2.wav,,,,,,,,,,,,,,,0,4,4,67,,,,,,,,,,,,,,,,,,,,,,,100.81962165702134,None,102.31931140925735,None,103.70307310437784,None,ant,103.70307310437784,None,return,5.890665334183723,103.78640422038734,None,,,,,,,,,,,,,,,,,,,,,,,,,,,,,,,,,,,,,,,91,001,2023_May_03_1421,SpeechDraft1Carolyn_lessNoise_PlusLocalization,2021.2.3,60.08027266753204,
flight.wav,flight.mpg,flight,4,A,Pink_Noise_4_1.wav,Pink_Noise_4_2.wav,,,,,,,,,,,,,,,0,5,5,39,,,,,,,,,,,,,,,,,,,,,,,109.70303708035499,None,111.20264184940606,None,112.58637309912592,None,"flight
",112.58637309912592,None,return,3.1032195007428527,112.66971919406205,None,,,,,,,,,,,,,,,,,,,,,,,,,,,,,,,,,,,,,,,91,001,2023_May_03_1421,SpeechDraft1Carolyn_lessNoise_PlusLocalization,2021.2.3,60.08027266753204,
germ.wav,germ.mpg,germ,6,AV,Pink_Noise_6_1.wav,Pink_Noise_6_2.wav,,,,,,,,,,,,,,,0,6,6,71,,,,,,,,,,,,,,,,,,,,,,,115.80293395323679,None,117.30265929922462,None,118.68626413913444,None,job,118.68626413913444,None,return,20.115320699755102,118.76982020027936,None,,,,,,,,,,,,,,,,,,,,,,,,,,,,,,,,,,,,,,,91,001,2023_May_03_1421,SpeechDraft1Carolyn_lessNoise_PlusLocalization,2021.2.3,60.08027266753204,
clam.wav,clam.mpg,clam,6,AV,Pink_Noise_6_1.wav,Pink_Noise_6_2.wav,,,,,,,,,,,,,,,0,7,7,112,,,,,,,,,,,,,,,,,,,,,,,138.90312107698992,None,140.40265970723704,None,141.78631271701306,None,nap,141.78631271701306,None,return,8.57530572777614,141.8696573060006,None,,,,,,,,,,,,,,,,,,,,,,,,,,,,,,,,,,,,,,,91,001,2023_May_03_1421,SpeechDraft1Carolyn_lessNoise_PlusLocalization,2021.2.3,60.08027266753204,
coil.wav,coil.mpg,coil,4,AV,Pink_Noise_4_1.wav,Pink_Noise_4_2.wav,,,,,,,,,,,,,,,0,8,8,85,,,,,,,,,,,,,,,,,,,,,,,150.46964661125094,None,151.96931094303727,None,153.35307398624718,None,quill,153.35307398624718,None,return,6.6247115037404,153.4363482091576,None,,,,,,,,,,,,,,,,,,,,,,,,,,,,,,,,,,,,,,,91,001,2023_May_03_1421,SpeechDraft1Carolyn_lessNoise_PlusLocalization,2021.2.3,60.08027266753204,
beg.wav,beg.mpg,beg,3,A,Pink_Noise_3_1.wav,Pink_Noise_3_2.wav,,,,,,,,,,,,,,,0,9,9,7,,,,,,,,,,,,,,,,,,,,,,,160.08660686621442,None,161.5860362900421,None,162.96979642799124,None,bounty,162.96979642799124,None,return,8.663976769894361,163.0530339423567,None,,,,,,,,,,,,,,,,,,,,,,,,,,,,,,,,,,,,,,,91,001,2023_May_03_1421,SpeechDraft1Carolyn_lessNoise_PlusLocalization,2021.2.3,60.08027266753204,
fraud.wav,fraud.mpg,fraud,6,AV,Pink_Noise_6_1.wav,Pink_Noise_6_2.wav,,,,,,,,,,,,,,,0,10,10,64,,,,,,,,,,,,,,,,,,,,,,,171.73647844418883,None,173.2361051281914,None,174.61965341307223,None,lock,174.61965341307223,None,return,6.173898352775723,174.7031443263404,None,,,,,,,,,,,,,,,,,,,,,,,,,,,,,,,,,,,,,,,91,001,2023_May_03_1421,SpeechDraft1Carolyn_lessNoise_PlusLocalization,2021.2.3,60.08027266753204,
crane.wav,crane.mpg,crane,6,A,Pink_Noise_6_1.wav,Pink_Noise_6_2.wav,,,,,,,,,,,,,,,0,11,11,6,,,,,,,,,,,,,,,,,,,,,,,180.90321562206373,None,182.4027878511697,None,183.7865161872469,None,lid,183.7865161872469,None,return,5.9271339401602745,183.86977746803313,None,,,,,,,,,,,,,,,,,,,,,,,,,,,,,,,,,,,,,,,91,001,2023_May_03_1421,SpeechDraft1Carolyn_lessNoise_PlusLocalization,2021.2.3,60.08027266753204,
bias.wav,bias.mpg,bias,4,A,Pink_Noise_4_1.wav,Pink_Noise_4_2.wav,,,,,,,,,,,,,,,0,12,12,1,,,,,,,,,,,,,,,,,,,,,,,189.8198287091218,None,191.31958235241473,None,192.7031598193571,None,ice,192.7031598193571,None,return,3.8104803976602852,192.78648386709392,None,,,,,,,,,,,,,,,,,,,,,,,,,,,,,,,,,,,,,,,91,001,2023_May_03_1421,SpeechDraft1Carolyn_lessNoise_PlusLocalization,2021.2.3,60.08027266753204,
damp.wav,damp.mpg,damp,4,AV,Pink_Noise_4_1.wav,Pink_Noise_4_2.wav,,,,,,,,,,,,,,,0,13,13,108,,,,,,,,,,,,,,,,,,,,,,,196.61977596906945,None,198.1194200972095,None,199.50315209431574,None,damp,199.50315209431574,None,return,5.498520290944725,199.58656746102497,None,,,,,,,,,,,,,,,,,,,,,,,,,,,,,,,,,,,,,,,91,001,2023_May_03_1421,SpeechDraft1Carolyn_lessNoise_PlusLocalization,2021.2.3,60.08027266753204,
greek.wav,greek.mpg,greek,4,A,Pink_Noise_4_1.wav,Pink_Noise_4_2.wav,,,,,,,,,,,,,,,0,14,14,17,,,,,,,,,,,,,,,,,,,,,,,205.10315937642008,None,206.60282543115318,None,207.98645009938627,None,greek,207.98645009938627,None,return,3.879042982123792,208.0699035343714,None,,,,,,,,,,,,,,,,,,,,,,,,,,,,,,,,,,,,,,,91,001,2023_May_03_1421,SpeechDraft1Carolyn_lessNoise_PlusLocalization,2021.2.3,60.08027266753204,
news.wav,news.mpg,news,6,AV,Pink_Noise_6_1.wav,Pink_Noise_6_2.wav,,,,,,,,,,,,,,,0,15,15,102,,,,,,,,,,,,,,,,,,,,,,,211.9698002813384,None,213.46949843643233,None,214.85316038737074,None,loose,214.85316038737074,None,return,19.99653474614024,214.9364792983979,None,,,,,,,,,,,,,,,,,,,,,,,,,,,,,,,,,,,,,,,91,001,2023_May_03_1421,SpeechDraft1Carolyn_lessNoise_PlusLocalization,2021.2.3,60.08027266753204,
dry.wav,dry.mpg,dry,5,A,Pink_Noise_5_1.wav,Pink_Noise_5_2.wav,,,,,,,,,,,,,,,0,16,16,20,,,,,,,,,,,,,,,,,,,,,,,234.95324146328494,None,236.4529108433053,None,237.8364370004274,None,"yarn
",237.8364370004274,None,return,4.485063741914928,237.91986915143207,None,,,,,,,,,,,,,,,,,,,,,,,,,,,,,,,,,,,,,,,91,001,2023_May_03_1421,SpeechDraft1Carolyn_lessNoise_PlusLocalization,2021.2.3,60.08027266753204,
bed.wav,bed.mpg,bed,2,AV,Pink_Noise_2_1.wav,Pink_Noise_2_2.wav,,,,,,,,,,,,,,,0,17,17,95,,,,,,,,,,,,,,,,,,,,,,,242.43659710139036,None,243.9361807173118,None,245.31978143239394,None,bed,245.31978143239394,None,return,3.2819040501490235,245.40313215600327,None,,,,,,,,,,,,,,,,,,,,,,,,,,,,,,,,,,,,,,,91,001,2023_May_03_1421,SpeechDraft1Carolyn_lessNoise_PlusLocalization,2021.2.3,60.08027266753204,
bird.wav,bird.mpg,bird,2,A,Pink_Noise_2_1.wav,Pink_Noise_2_2.wav,,,,,,,,,,,,,,,0,18,18,40,,,,,,,,,,,,,,,,,,,,,,,248.70346932206303,None,250.20289008924738,None,251.58657217398286,None,bird,251.58657217398286,None,return,3.1111043710261583,251.66984150698408,None,,,,,,,,,,,,,,,,,,,,,,,,,,,,,,,,,,,,,,,91,001,2023_May_03_1421,SpeechDraft1Carolyn_lessNoise_PlusLocalization,2021.2.3,60.08027266753204,
bridge.wav,bridge.mpg,bridge,5,A,Pink_Noise_5_1.wav,Pink_Noise_5_2.wav,,,,,,,,,,,,,,,0,19,19,36,,,,,,,,,,,,,,,,,,,,,,,254.80312037700787,None,256.3028685403988,None,257.6865285942331,None,"bridge
",257.6865285942331,None,return,7.250938950106502,257.7699965070933,None,,,,,,,,,,,,,,,,,,,,,,,,,,,,,,,,,,,,,,,91,001,2023_May_03_1421,SpeechDraft1Carolyn_lessNoise_PlusLocalization,2021.2.3,60.08027266753204,
smack.wav,smack.mpg,smack,4,A,Pink_Noise_4_1.wav,Pink_Noise_4_2.wav,,,,,,,,,,,,,,,0,20,20,34,,,,,,,,,,,,,,,,,,,,,,,265.0533045390621,None,266.5528826951049,None,267.9366574110463,None,inspect,267.9366574110463,None,return,5.0331627312116325,268.0198972723447,None,,,,,,,,,,,,,,,,,,,,,,,,,,,,,,,,,,,,,,,91,001,2023_May_03_1421,SpeechDraft1Carolyn_lessNoise_PlusLocalization,2021.2.3,60.08027266753204,
bowl.wav,bowl.mpg,bowl,4,AV,Pink_Noise_4_1.wav,Pink_Noise_4_2.wav,,,,,,,,,,,,,,,0,21,21,119,,,,,,,,,,,,,,,,,,,,,,,273.069939091336,None,274.56959745520726,None,275.9533808133565,None,blow,275.9533808133565,None,return,4.1283143679611385,276.03661464806646,None,,,,,,,,,,,,,,,,,,,,,,,,,,,,,,,,,,,,,,,91,001,2023_May_03_1421,SpeechDraft1Carolyn_lessNoise_PlusLocalization,2021.2.3,60.08027266753204,
beard.wav,beard.mpg,beard,6,A,Pink_Noise_6_1.wav,Pink_Noise_6_2.wav,,,,,,,,,,,,,,,0,22,22,13,,,,,,,,,,,,,,,,,,,,,,,280.1867120494135,None,281.68619013018906,None,283.0698360661045,None,rich,283.0698360661045,None,return,6.475556335411966,283.1533615682274,None,,,,,,,,,,,,,,,,,,,,,,,,,,,,,,,,,,,,,,,91,001,2023_May_03_1421,SpeechDraft1Carolyn_lessNoise_PlusLocalization,2021.2.3,60.08027266753204,
coal.wav,coal.mpg,coal,5,AV,Pink_Noise_5_1.wav,Pink_Noise_5_2.wav,,,,,,,,,,,,,,,0,23,23,60,,,,,,,,,,,,,,,,,,,,,,,289.6534811393358,None,291.15293605811894,None,292.5364129380323,None,"coal
",292.5364129380323,None,return,4.535749156028032,292.62117520626634,None,,,,,,,,,,,,,,,,,,,,,,,,,,,,,,,,,,,,,,,91,001,2023_May_03_1421,SpeechDraft1Carolyn_lessNoise_PlusLocalization,2021.2.3,60.08027266753204,
swamp.wav,swamp.mpg,swamp,4,AV,Pink_Noise_4_1.wav,Pink_Noise_4_2.wav,,,,,,,,,,,,,,,0,24,24,113,,,,,,,,,,,,,,,,,,,,,,,297.18663915013894,None,298.6862559639849,None,300.07003089319915,None,swamp,300.07003089319915,None,return,9.603711184114218,300.1532198903151,None,,,,,,,,,,,,,,,,,,,,,,,,,,,,,,,,,,,,,,,91,001,2023_May_03_1421,SpeechDraft1Carolyn_lessNoise_PlusLocalization,2021.2.3,60.08027266753204,
buff.wav,buff.mpg,buff,6,A,Pink_Noise_6_1.wav,Pink_Noise_6_2.wav,,,,,,,,,,,,,,,0,25,25,14,,,,,,,,,,,,,,,,,,,,,,,309.78669500537217,None,311.28622341621667,None,312.67009336315095,None,caught,312.67009336315095,None,return,12.923785076010972,312.7532678912394,None,,,,,,,,,,,,,,,,,,,,,,,,,,,,,,,,,,,,,,,91,001,2023_May_03_1421,SpeechDraft1Carolyn_lessNoise_PlusLocalization,2021.2.3,60.08027266753204,
client.wav,client.mpg,client,3,A,Pink_Noise_3_1.wav,Pink_Noise_3_2.wav,,,,,,,,,,,,,,,0,26,26,42,,,,,,,,,,,,,,,,,,,,,,,325.70325336419046,None,327.2029553381726,None,328.5866140103899,None,client,328.5866140103899,None,return,10.215098870918155,328.669952776283,None,,,,,,,,,,,,,,,,,,,,,,,,,,,,,,,,,,,,,,,91,001,2023_May_03_1421,SpeechDraft1Carolyn_lessNoise_PlusLocalization,2021.2.3,60.08027266753204,
drink.wav,drink.mpg,drink,1,AV,Pink_Noise_1_1.wav,Pink_Noise_1_2.wav,,,,,,,,,,,,,,,0,27,27,117,,,,,,,,,,,,,,,,,,,,,,,338.90343732433394,None,340.4029520000331,None,341.7865084670484,None,"drink
",341.7865084670484,None,return,8.902915360871702,341.87001515412703,None,,,,,,,,,,,,,,,,,,,,,,,,,,,,,,,,,,,,,,,91,001,2023_May_03_1421,SpeechDraft1Carolyn_lessNoise_PlusLocalization,2021.2.3,60.08027266753204,
dice.wav,dice.mpg,dice,3,A,Pink_Noise_3_1.wav,Pink_Noise_3_2.wav,,,,,,,,,,,,,,,0,28,28,41,,,,,,,,,,,,,,,,,,,,,,,350.8033170881681,None,352.30300527531654,None,353.68661568313837,None,"dice
",353.68661568313837,None,return,4.6189458607696,353.770035315305,None,,,,,,,,,,,,,,,,,,,,,,,,,,,,,,,,,,,,,,,91,001,2023_May_03_1421,SpeechDraft1Carolyn_lessNoise_PlusLocalization,2021.2.3,60.08027266753204,
beer.wav,beer.mpg,beer,1,A,Pink_Noise_1_1.wav,Pink_Noise_1_2.wav,,,,,,,,,,,,,,,0,29,29,31,,,,,,,,,,,,,,,,,,,,,,,358.4200241509825,None,359.91966088023037,None,361.30342357000336,None,beer,361.30342357000336,None,return,3.690386134199798,361.38670187909156,None,,,,,,,,,,,,,,,,,,,,,,,,,,,,,,,,,,,,,,,91,001,2023_May_03_1421,SpeechDraft1Carolyn_lessNoise_PlusLocalization,2021.2.3,60.08027266753204,
fond.wav,fond.mpg,fond,3,AV,Pink_Noise_3_1.wav,Pink_Noise_3_2.wav,,,,,,,,,,,,,,,0,30,30,101,,,,,,,,,,,,,,,,,,,,,,,365.1033396353014,None,366.6029172502458,None,367.9867759142071,None,"violent
",367.9867759142071,None,return,10.950895949732512,368.0700405864045,None,,,,,,,,,,,,,,,,,,,,,,,,,,,,,,,,,,,,,,,91,001,2023_May_03_1421,SpeechDraft1Carolyn_lessNoise_PlusLocalization,2021.2.3,60.08027266753204,
bruise.wav,bruise.mpg,bruise,2,A,Pink_Noise_2_1.wav,Pink_Noise_2_2.wav,,,,,,,,,,,,,,,0,31,31,58,,,,,,,,,,,,,,,,,,,,,,,379.0532981241122,None,380.55307916225865,None,381.93679204117507,None,bruise,381.93679204117507,None,return,5.504892019089311,382.0200800220482,None,,,,,,,,,,,,,,,,,,,,,,,,,,,,,,,,,,,,,,,91,001,2023_May_03_1421,SpeechDraft1Carolyn_lessNoise_PlusLocalization,2021.2.3,60.08027266753204,
vest.wav,vest.mpg,vest,1,AV,Pink_Noise_1_1.wav,Pink_Noise_1_2.wav,,,,,,,,,,,,,,,0,32,32,91,,,,,,,,,,,,,,,,,,,,,,,387.55334926536307,None,389.0530875599943,None,390.4366230010055,None,"fast
",390.4366230010055,None,return,8.236965288873762,390.5199674782343,None,,,,,,,,,,,,,,,,,,,,,,,,,,,,,,,,,,,,,,,91,001,2023_May_03_1421,SpeechDraft1Carolyn_lessNoise_PlusLocalization,2021.2.3,60.08027266753204,
clumps.wav,clumps.mpg,clumps,5,AV,Pink_Noise_5_1.wav,Pink_Noise_5_2.wav,,,,,,,,,,,,,,,0,33,33,116,,,,,,,,,,,,,,,,,,,,,,,398.786697098054,None,400.2864896771498,None,401.67002044338733,None,clubs,401.67002044338733,None,return,4.371577630750835,401.75343851931393,None,,,,,,,,,,,,,,,,,,,,,,,,,,,,,,,,,,,,,,,91,001,2023_May_03_1421,SpeechDraft1Carolyn_lessNoise_PlusLocalization,2021.2.3,60.08027266753204,
count.wav,count.mpg,count,3,AV,Pink_Noise_3_1.wav,Pink_Noise_3_2.wav,,,,,,,,,,,,,,,0,34,34,99,,,,,,,,,,,,,,,,,,,,,,,406.15340163419023,None,407.6530221593566,None,409.0368263251148,None,count,409.0368263251148,None,return,4.86076097143814,409.12016547098756,None,,,,,,,,,,,,,,,,,,,,,,,,,,,,,,,,,,,,,,,91,001,2023_May_03_1421,SpeechDraft1Carolyn_lessNoise_PlusLocalization,2021.2.3,60.08027266753204,
chest.wav,chest.mpg,chest,5,AV,Pink_Noise_5_1.wav,Pink_Noise_5_2.wav,,,,,,,,,,,,,,,0,35,35,92,,,,,,,,,,,,,,,,,,,,,,,414.00349927926436,None,415.5030344664119,None,416.88676192006096,None,chest,416.88676192006096,None,return,3.970853847451508,416.97008601017296,None,,,,,,,,,,,,,,,,,,,,,,,,,,,,,,,,,,,,,,,91,001,2023_May_03_1421,SpeechDraft1Carolyn_lessNoise_PlusLocalization,2021.2.3,60.08027266753204,
grunt.wav,grunt.mpg,grunt,6,A,Pink_Noise_6_1.wav,Pink_Noise_6_2.wav,,,,,,,,,,,,,,,0,36,36,49,,,,,,,,,,,,,,,,,,,,,,,420.97018358903006,None,422.4696888900362,None,423.85349140129983,None,chart,423.85349140129983,None,return,4.460042539052665,423.9368841270916,None,,,,,,,,,,,,,,,,,,,,,,,,,,,,,,,,,,,,,,,91,001,2023_May_03_1421,SpeechDraft1Carolyn_lessNoise_PlusLocalization,2021.2.3,60.08027266753204,
fate.wav,fate.mpg,fate,4,A,Pink_Noise_4_1.wav,Pink_Noise_4_2.wav,,,,,,,,,,,,,,,0,37,37,0,,,,,,,,,,,,,,,,,,,,,,,428.4200749662705,None,429.9197036260739,None,431.3033304591663,None,fate,431.3033304591663,None,return,2.5461699892766774,431.38680773833767,None,,,,,,,,,,,,,,,,,,,,,,,,,,,,,,,,,,,,,,,91,001,2023_May_03_1421,SpeechDraft1Carolyn_lessNoise_PlusLocalization,2021.2.3,60.08027266753204,
bean.wav,bean.mpg,bean,5,AV,Pink_Noise_5_1.wav,Pink_Noise_5_2.wav,,,,,,,,,,,,,,,0,38,38,110,,,,,,,,,,,,,,,,,,,,,,,433.9534165193327,None,435.4532054322772,None,436.8366719381884,None,beak,436.8366719381884,None,return,4.428943295031786,436.92005227832124,None,,,,,,,,,,,,,,,,,,,,,,,,,,,,,,,,,,,,,,,91,001,2023_May_03_1421,SpeechDraft1Carolyn_lessNoise_PlusLocalization,2021.2.3,60.08027266753204,
bunch.wav,bunch.mpg,bunch,5,AV,Pink_Noise_5_1.wav,Pink_Noise_5_2.wav,,,,,,,,,,,,,,,0,39,39,94,,,,,,,,,,,,,,,,,,,,,,,441.37014538701624,None,442.86973445722833,None,444.2535171462223,None,"butch
",444.2535171462223,None,return,8.868136170785874,444.3367972690612,None,,,,,,,,,,,,,,,,,,,,,,,,,,,,,,,,,,,,,,,91,001,2023_May_03_1421,SpeechDraft1Carolyn_lessNoise_PlusLocalization,2021.2.3,60.08027266753204,
swan.wav,swan.mpg,swan,5,AV,Pink_Noise_5_1.wav,Pink_Noise_5_2.wav,,,,,,,,,,,,,,,0,40,40,86,,,,,,,,,,,,,,,,,,,,,,,453.236755724065,None,454.7364335213788,None,456.11998107098043,None,"swan
",456.11998107098043,None,return,3.2331951381638646,456.20374461309984,None,,,,,,,,,,,,,,,,,,,,,,,,,,,,,,,,,,,,,,,91,001,2023_May_03_1421,SpeechDraft1Carolyn_lessNoise_PlusLocalization,2021.2.3,60.08027266753204,
coat.wav,coat.mpg,coat,1,A,Pink_Noise_1_1.wav,Pink_Noise_1_2.wav,,,,,,,,,,,,,,,0,41,41,11,,,,,,,,,,,,,,,,,,,,,,,459.47018372407183,None,460.9697603341192,None,462.3536908091046,None,"coat
",462.3536908091046,None,return,2.968131866771728,462.43681713938713,None,,,,,,,,,,,,,,,,,,,,,,,,,,,,,,,,,,,,,,,91,001,2023_May_03_1421,SpeechDraft1Carolyn_lessNoise_PlusLocalization,2021.2.3,60.08027266753204,
guide.wav,guide.mpg,guide,5,A,Pink_Noise_5_1.wav,Pink_Noise_5_2.wav,,,,,,,,,,,,,,,0,42,42,43,,,,,,,,,,,,,,,,,,,,,,,465.43677638005465,None,466.93645529216155,None,468.32013974897563,None,dollar,468.32013974897563,None,return,6.009036004077643,468.419945592992,None,,,,,,,,,,,,,,,,,,,,,,,,,,,,,,,,,,,,,,,91,001,2023_May_03_1421,SpeechDraft1Carolyn_lessNoise_PlusLocalization,2021.2.3,60.08027266753204,
drug.wav,drug.mpg,drug,1,A,Pink_Noise_1_1.wav,Pink_Noise_1_2.wav,,,,,,,,,,,,,,,0,43,43,22,,,,,,,,,,,,,,,,,,,,,,,474.4534900742583,None,475.95327375642955,None,477.3368078870699,None,drug,477.3368078870699,None,return,3.4728547376580536,477.42016491899267,None,,,,,,,,,,,,,,,,,,,,,,,,,,,,,,,,,,,,,,,91,001,2023_May_03_1421,SpeechDraft1Carolyn_lessNoise_PlusLocalization,2021.2.3,60.08027266753204,
gaze.wav,gaze.mpg,gaze,2,AV,Pink_Noise_2_1.wav,Pink_Noise_2_2.wav,,,,,,,,,,,,,,,0,44,44,66,,,,,,,,,,,,,,,,,,,,,,,480.92020578403026,None,482.41989298537374,None,483.80339658726007,None,gaze,483.80339658726007,None,return,5.446089802775532,483.88688313914463,None,,,,,,,,,,,,,,,,,,,,,,,,,,,,,,,,,,,,,,,91,001,2023_May_03_1421,SpeechDraft1Carolyn_lessNoise_PlusLocalization,2021.2.3,60.08027266753204,
burn.wav,burn.mpg,burn,5,A,Pink_Noise_5_1.wav,Pink_Noise_5_2.wav,,,,,,,,,,,,,,,0,45,45,50,,,,,,,,,,,,,,,,,,,,,,,489.3534893700853,None,490.8531616232358,None,492.23684577504173,None,throw,492.23684577504173,None,return,2.7729034712538123,492.32022589817643,None,,,,,,,,,,,,,,,,,,,,,,,,,,,,,,,,,,,,,,,91,001,2023_May_03_1421,SpeechDraft1Carolyn_lessNoise_PlusLocalization,2021.2.3,60.08027266753204,
glass.wav,glass.mpg,glass,2,AV,Pink_Noise_2_1.wav,Pink_Noise_2_2.wav,,,,,,,,,,,,,,,0,46,46,70,,,,,,,,,,,,,,,,,,,,,,,495.120125788264,None,496.61994805233553,None,498.00337598705664,None,glass,498.00337598705664,None,return,6.15000124881044,498.08691667206585,None,,,,,,,,,,,,,,,,,,,,,,,,,,,,,,,,,,,,,,,91,001,2023_May_03_1421,SpeechDraft1Carolyn_lessNoise_PlusLocalization,2021.2.3,60.08027266753204,
cab.wav,cab.mpg,cab,2,A,Pink_Noise_2_1.wav,Pink_Noise_2_2.wav,,,,,,,,,,,,,,,0,47,47,46,,,,,,,,,,,,,,,,,,,,,,,504.25362173328176,None,505.7535386933014,None,507.13696655537933,None,can,507.13696655537933,None,return,3.1446275506168604,507.22029405320063,None,,,,,,,,,,,,,,,,,,,,,,,,,,,,,,,,,,,,,,,91,001,2023_May_03_1421,SpeechDraft1Carolyn_lessNoise_PlusLocalization,2021.2.3,60.08027266753204,
hug.wav,hug.mpg,hug,5,AV,Pink_Noise_5_1.wav,Pink_Noise_5_2.wav,,,,,,,,,,,,,,,0,48,48,106,,,,,,,,,,,,,,,,,,,,,,,510.38711011223495,None,511.88655758835375,None,513.270159965381,None,hug,513.270159965381,None,return,3.3314290642738342,513.3535076524131,None,,,,,,,,,,,,,,,,,,,,,,,,,,,,,,,,,,,,,,,91,001,2023_May_03_1421,SpeechDraft1Carolyn_lessNoise_PlusLocalization,2021.2.3,60.08027266753204,
fan.wav,fan.mpg,fan,1,AV,Pink_Noise_1_1.wav,Pink_Noise_1_2.wav,,,,,,,,,,,,,,,0,49,49,97,,,,,,,,,,,,,,,,,,,,,,,516.7035396900028,None,518.2036106763408,None,519.5867150872946,None,fan,519.5867150872946,None,return,4.574658376164734,519.6702508400194,None,,,,,,,,,,,,,,,,,,,,,,,,,,,,,,,,,,,,,,,91,001,2023_May_03_1421,SpeechDraft1Carolyn_lessNoise_PlusLocalization,2021.2.3,60.08027266753204,
dumb.wav,dumb.mpg,dumb,6,AV,Pink_Noise_6_1.wav,Pink_Noise_6_2.wav,,,,,,,,,,,,,,,0,50,50,74,,,,,,,,,,,,,,,,,,,,,,,524.2705074483529,None,525.7699406272732,None,527.1534664882347,None,dump,527.1534664882347,None,return,7.424046340864152,527.236978976056,None,,,,,,,,,,,,,,,,,,,,,,,,,,,,,,,,,,,,,,,91,001,2023_May_03_1421,SpeechDraft1Carolyn_lessNoise_PlusLocalization,2021.2.3,60.08027266753204,
drunk.wav,drunk.mpg,drunk,1,AV,Pink_Noise_1_1.wav,Pink_Noise_1_2.wav,,,,,,,,,,,,,,,0,51,51,63,,,,,,,,,,,,,,,,,,,,,,,534.6869536312297,None,536.186561266426,None,537.5702063064091,None,"drug
",537.5702063064091,None,return,6.351418227888644,537.6535042640753,None,,,,,,,,,,,,,,,,,,,,,,,,,,,,,,,,,,,,,,,91,001,2023_May_03_1421,SpeechDraft1Carolyn_lessNoise_PlusLocalization,2021.2.3,60.08027266753204,
dash.wav,dash.mpg,dash,2,A,Pink_Noise_2_1.wav,Pink_Noise_2_2.wav,,,,,,,,,,,,,,,0,52,52,28,,,,,,,,,,,,,,,,,,,,,,,544.0370081490837,None,545.5364783140831,None,546.9201983162202,None,dash,546.9201983162202,None,return,1.8252212088555098,547.0036977003329,None,,,,,,,,,,,,,,,,,,,,,,,,,,,,,,,,,,,,,,,91,001,2023_May_03_1421,SpeechDraft1Carolyn_lessNoise_PlusLocalization,2021.2.3,60.08027266753204,
bun.wav,bun.mpg,bun,1,A,Pink_Noise_1_1.wav,Pink_Noise_1_2.wav,,,,,,,,,,,,,,,0,53,53,55,,,,,,,,,,,,,,,,,,,,,,,548.853636266198,None,550.3535165032372,None,551.7370188240893,None,fun,551.7370188240893,None,return,1.624481847975403,551.8204513411038,None,,,,,,,,,,,,,,,,,,,,,,,,,,,,,,,,,,,,,,,91,001,2023_May_03_1421,SpeechDraft1Carolyn_lessNoise_PlusLocalization,2021.2.3,60.08027266753204,
solve.wav,solve.mpg,solve,3,AV,Pink_Noise_3_1.wav,Pink_Noise_3_2.wav,,,,,,,,,,,,,,,0,54,54,80,,,,,,,,,,,,,,,,,,,,,,,553.4702682034113,None,554.9700882872567,None,556.3535711211152,None,salt,556.3535711211152,None,return,3.4080061400309205,556.436917512212,None,,,,,,,,,,,,,,,,,,,,,,,,,,,,,,,,,,,,,,,91,001,2023_May_03_1421,SpeechDraft1Carolyn_lessNoise_PlusLocalization,2021.2.3,60.08027266753204,
care.wav,care.mpg,care,3,AV,Pink_Noise_3_1.wav,Pink_Noise_3_2.wav,,,,,,,,,,,,,,,0,55,55,103,,,,,,,,,,,,,,,,,,,,,,,559.8703073300421,None,561.3700010012835,None,562.7535974853672,None,care,562.7535974853672,None,return,3.888085173908621,562.8369299434125,None,,,,,,,,,,,,,,,,,,,,,,,,,,,,,,,,,,,,,,,91,001,2023_May_03_1421,SpeechDraft1Carolyn_lessNoise_PlusLocalization,2021.2.3,60.08027266753204,
axe.wav,axe.mpg,axe,4,A,Pink_Noise_4_1.wav,Pink_Noise_4_2.wav,,,,,,,,,,,,,,,0,56,56,30,,,,,,,,,,,,,,,,,,,,,,,566.7536363201216,None,568.253366230987,None,569.637034971267,None,axe,569.637034971267,None,return,3.060690486803651,569.7202354981564,None,,,,,,,,,,,,,,,,,,,,,,,,,,,,,,,,,,,,,,,91,001,2023_May_03_1421,SpeechDraft1Carolyn_lessNoise_PlusLocalization,2021.2.3,60.08027266753204,
giant.wav,giant.mpg,giant,1,A,Pink_Noise_1_1.wav,Pink_Noise_1_2.wav,,,,,,,,,,,,,,,0,57,57,3,,,,,,,,,,,,,,,,,,,,,,,572.8035913091153,None,574.3032917412929,None,575.6869445573539,None,giant,575.6869445573539,None,return,2.506798816844821,575.770293656271,None,,,,,,,,,,,,,,,,,,,,,,,,,,,,,,,,,,,,,,,91,001,2023_May_03_1421,SpeechDraft1Carolyn_lessNoise_PlusLocalization,2021.2.3,60.08027266753204,
sake.wav,sake.mpg,sake,5,AV,Pink_Noise_5_1.wav,Pink_Noise_5_2.wav,,,,,,,,,,,,,,,0,58,58,76,,,,,,,,,,,,,,,,,,,,,,,578.3035928690806,None,579.8033090280369,None,581.1870846729726,None,sick,581.1870846729726,None,return,5.158177284989506,581.2867676820606,None,,,,,,,,,,,,,,,,,,,,,,,,,,,,,,,,,,,,,,,91,001,2023_May_03_1421,SpeechDraft1Carolyn_lessNoise_PlusLocalization,2021.2.3,60.08027266753204,
dump.wav,dump.mpg,dump,5,A,Pink_Noise_5_1.wav,Pink_Noise_5_2.wav,,,,,,,,,,,,,,,0,59,59,25,,,,,,,,,,,,,,,,,,,,,,,586.4703533882275,None,587.9699325230904,None,589.3536628461443,None,dove,589.3536628461443,None,return,4.591972716152668,589.4369609821588,None,,,,,,,,,,,,,,,,,,,,,,,,,,,,,,,,,,,,,,,91,001,2023_May_03_1421,SpeechDraft1Carolyn_lessNoise_PlusLocalization,2021.2.3,60.08027266753204,
beam.wav,beam.mpg,beam,2,A,Pink_Noise_2_1.wav,Pink_Noise_2_2.wav,,,,,,,,,,,,,,,0,60,60,19,,,,,,,,,,,,,,,,,,,,,,,594.0537057770416,None,595.553381269332,None,596.9370467890985,None,fiend ,596.9370467890985,None,return,13.496551575139165,597.0204656929709,None,,,,,,,,,,,,,,,,,,,,,,,,,,,,,,,,,,,,,,,91,001,2023_May_03_1421,SpeechDraft1Carolyn_lessNoise_PlusLocalization,2021.2.3,60.08027266753204,
cycle.wav,cycle.mpg,cycle,3,A,Pink_Noise_3_1.wav,Pink_Noise_3_2.wav,,,,,,,,,,,,,,,0,61,61,33,,,,,,,,,,,,,,,,,,,,,,,610.537182316184,None,612.0534749194048,None,613.4370019580238,None,cycle,613.4370019580238,None,return,3.0045423451811075,613.5203829370439,None,,,,,,,,,,,,,,,,,,,,,,,,,,,,,,,,,,,,,,,91,001,2023_May_03_1421,SpeechDraft1Carolyn_lessNoise_PlusLocalization,2021.2.3,60.08027266753204,
traps.wav,traps.mpg,traps,2,A,Pink_Noise_2_1.wav,Pink_Noise_2_2.wav,,,,,,,,,,,,,,,0,62,62,54,,,,,,,,,,,,,,,,,,,,,,,616.5537806153297,None,618.0537620731629,None,619.4371157633141,None,"traps
",619.4371157633141,None,return,5.252602490130812,619.5203217342496,None,,,,,,,,,,,,,,,,,,,,,,,,,,,,,,,,,,,,,,,91,001,2023_May_03_1421,SpeechDraft1Carolyn_lessNoise_PlusLocalization,2021.2.3,60.08027266753204,
fad.wav,fad.mpg,fad,1,AV,Pink_Noise_1_1.wav,Pink_Noise_1_2.wav,,,,,,,,,,,,,,,0,63,63,109,,,,,,,,,,,,,,,,,,,,,,,624.8039706652053,None,626.3033477622084,None,627.6870541223325,None,fad,627.6870541223325,None,return,2.706642535980791,627.7704342193902,None,,,,,,,,,,,,,,,,,,,,,,,,,,,,,,,,,,,,,,,91,001,2023_May_03_1421,SpeechDraft1Carolyn_lessNoise_PlusLocalization,2021.2.3,60.08027266753204,
beef.wav,beef.mpg,beef,6,A,Pink_Noise_6_1.wav,Pink_Noise_6_2.wav,,,,,,,,,,,,,,,0,64,64,37,,,,,,,,,,,,,,,,,,,,,,,630.5037600900978,None,632.0047731283121,None,633.3870628322475,None,fuse,633.3870628322475,None,return,6.430605521891266,633.4703252562322,None,,,,,,,,,,,,,,,,,,,,,,,,,,,,,,,,,,,,,,,91,001,2023_May_03_1421,SpeechDraft1Carolyn_lessNoise_PlusLocalization,2021.2.3,60.08027266753204,
fame.wav,fame.mpg,fame,4,AV,Pink_Noise_4_1.wav,Pink_Noise_4_2.wav,,,,,,,,,,,,,,,0,65,65,118,,,,,,,,,,,,,,,,,,,,,,,639.9204131402075,None,641.4217775203288,None,642.8037018030882,None,"fame
",642.8037018030882,None,return,2.301781757734716,642.8871090682223,None,,,,,,,,,,,,,,,,,,,,,,,,,,,,,,,,,,,,,,,91,001,2023_May_03_1421,SpeechDraft1Carolyn_lessNoise_PlusLocalization,2021.2.3,60.08027266753204,
phase.wav,phase.mpg,phase,6,A,Pink_Noise_6_1.wav,Pink_Noise_6_2.wav,,,,,,,,,,,,,,,0,66,66,16,,,,,,,,,,,,,,,,,,,,,,,645.2204173710197,None,646.7202250133269,None,648.1037547080778,None,days,648.1037547080778,None,return,8.137865731026977,648.1870644814335,None,,,,,,,,,,,,,,,,,,,,,,,,,,,,,,,,,,,,,,,91,001,2023_May_03_1421,SpeechDraft1Carolyn_lessNoise_PlusLocalization,2021.2.3,60.08027266753204,
flex.wav,flex.mpg,flex,4,A,Pink_Noise_4_1.wav,Pink_Noise_4_2.wav,,,,,,,,,,,,,,,0,67,67,8,,,,,,,,,,,,,,,,,,,,,,,656.353874776978,None,657.8700516363606,None,659.2537343432195,None,flight,659.2537343432195,None,return,8.723869147710502,659.3371947901323,None,,,,,,,,,,,,,,,,,,,,,,,,,,,,,,,,,,,,,,,91,001,2023_May_03_1421,SpeechDraft1Carolyn_lessNoise_PlusLocalization,2021.2.3,60.08027266753204,
fee.wav,fee.mpg,fee,3,A,Pink_Noise_3_1.wav,Pink_Noise_3_2.wav,,,,,,,,,,,,,,,0,68,68,45,,,,,,,,,,,,,,,,,,,,,,,668.087325131055,None,669.6039190101437,None,670.9870927063748,None,key,670.9870927063748,None,return,3.158550132997334,671.07037615031,None,,,,,,,,,,,,,,,,,,,,,,,,,,,,,,,,,,,,,,,91,001,2023_May_03_1421,SpeechDraft1Carolyn_lessNoise_PlusLocalization,2021.2.3,60.08027266753204,
gram.wav,gram.mpg,gram,4,A,Pink_Noise_4_1.wav,Pink_Noise_4_2.wav,,,,,,,,,,,,,,,0,69,69,52,,,,,,,,,,,,,,,,,,,,,,,674.2536857239902,None,675.7538954080082,None,677.1371271680109,None,grand,677.1371271680109,None,return,2.2725056363269687,677.2204665741883,None,,,,,,,,,,,,,,,,,,,,,,,,,,,,,,,,,,,,,,,91,001,2023_May_03_1421,SpeechDraft1Carolyn_lessNoise_PlusLocalization,2021.2.3,60.08027266753204,
guest.wav,guest.mpg,guest,5,A,Pink_Noise_5_1.wav,Pink_Noise_5_2.wav,,,,,,,,,,,,,,,0,70,70,26,,,,,,,,,,,,,,,,,,,,,,,679.5205081594177,None,681.0366382272914,None,682.4205391532741,None,"guest
",682.4205391532741,None,return,2.501253561116755,682.5036654961295,None,,,,,,,,,,,,,,,,,,,,,,,,,,,,,,,,,,,,,,,91,001,2023_May_03_1421,SpeechDraft1Carolyn_lessNoise_PlusLocalization,2021.2.3,60.08027266753204,
thief.wav,thief.mpg,thief,1,A,Pink_Noise_1_1.wav,Pink_Noise_1_2.wav,,,,,,,,,,,,,,,0,71,71,10,,,,,,,,,,,,,,,,,,,,,,,685.0372293302789,None,686.5701966984197,None,687.9538502283394,None,thief,687.9538502283394,None,return,2.1116924951784313,688.0372487083077,None,,,,,,,,,,,,,,,,,,,,,,,,,,,,,,,,,,,,,,,91,001,2023_May_03_1421,SpeechDraft1Carolyn_lessNoise_PlusLocalization,2021.2.3,60.08027266753204,
oats.wav,oats.mpg,oats,3,A,Pink_Noise_3_1.wav,Pink_Noise_3_2.wav,,,,,,,,,,,,,,,0,72,72,21,,,,,,,,,,,,,,,,,,,,,,,690.170455750078,None,691.6868096580729,None,693.0706105842255,None,"birds
",693.0706105842255,None,return,4.0031578852795064,693.1537802782841,None,,,,,,,,,,,,,,,,,,,,,,,,,,,,,,,,,,,,,,,91,001,2023_May_03_1421,SpeechDraft1Carolyn_lessNoise_PlusLocalization,2021.2.3,60.08027266753204,
fly.wav,fly.mpg,fly,3,AV,Pink_Noise_3_1.wav,Pink_Noise_3_2.wav,,,,,,,,,,,,,,,0,73,73,88,,,,,,,,,,,,,,,,,,,,,,,697.1873397650197,None,698.6890174429864,None,700.0704348292202,None,fly,700.0704348292202,None,return,5.227160125039518,700.153776540421,None,,,,,,,,,,,,,,,,,,,,,,,,,,,,,,,,,,,,,,,91,001,2023_May_03_1421,SpeechDraft1Carolyn_lessNoise_PlusLocalization,2021.2.3,60.08027266753204,
beige.wav,beige.mpg,beige,2,AV,Pink_Noise_2_1.wav,Pink_Noise_2_2.wav,,,,,,,,,,,,,,,0,74,74,98,,,,,,,,,,,,,,,,,,,,,,,705.4038068964146,None,706.9203630150296,None,708.3038755552843,None,beige,708.3038755552843,None,return,3.0818552430719137,708.387156906072,None,,,,,,,,,,,,,,,,,,,,,,,,,,,,,,,,,,,,,,,91,001,2023_May_03_1421,SpeechDraft1Carolyn_lessNoise_PlusLocalization,2021.2.3,60.08027266753204,
cheek.wav,cheek.mpg,cheek,4,A,Pink_Noise_4_1.wav,Pink_Noise_4_2.wav,,,,,,,,,,,,,,,0,75,75,18,,,,,,,,,,,,,,,,,,,,,,,711.4872001302429,None,712.988036419265,None,714.3705048570409,None,cheek,714.3705048570409,None,return,3.9111119410954416,714.4538091402501,None,,,,,,,,,,,,,,,,,,,,,,,,,,,,,,,,,,,,,,,91,001,2023_May_03_1421,SpeechDraft1Carolyn_lessNoise_PlusLocalization,2021.2.3,60.08027266753204,
bill.wav,bill.mpg,bill,6,A,Pink_Noise_6_1.wav,Pink_Noise_6_2.wav,,,,,,,,,,,,,,,0,76,76,53,,,,,,,,,,,,,,,,,,,,,,,718.3872212353162,None,719.9034481910057,None,721.2873229500838,None,rude,721.2873229500838,None,return,4.86632125498727,721.3707008929923,None,,,,,,,,,,,,,,,,,,,,,,,,,,,,,,,,,,,,,,,91,001,2023_May_03_1421,SpeechDraft1Carolyn_lessNoise_PlusLocalization,2021.2.3,60.08027266753204,
belt.wav,belt.mpg,belt,2,AV,Pink_Noise_2_1.wav,Pink_Noise_2_2.wav,,,,,,,,,,,,,,,0,77,77,115,,,,,,,,,,,,,,,,,,,,,,,726.254422577098,None,727.7703056903556,None,729.153936387971,None,belt,729.153936387971,None,return,2.5597061519511044,729.2372064921074,None,,,,,,,,,,,,,,,,,,,,,,,,,,,,,,,,,,,,,,,91,001,2023_May_03_1421,SpeechDraft1Carolyn_lessNoise_PlusLocalization,2021.2.3,60.08027266753204,
boil.wav,boil.mpg,boil,1,A,Pink_Noise_1_1.wav,Pink_Noise_1_2.wav,,,,,,,,,,,,,,,0,78,78,23,,,,,,,,,,,,,,,,,,,,,,,731.8205910292454,None,733.336869745981,None,734.7206069682725,None,boil,734.7206069682725,None,return,5.28919844282791,734.8037959262729,None,,,,,,,,,,,,,,,,,,,,,,,,,,,,,,,,,,,,,,,91,001,2023_May_03_1421,SpeechDraft1Carolyn_lessNoise_PlusLocalization,2021.2.3,60.08027266753204,
blend.wav,blend.mpg,blend,4,AV,Pink_Noise_4_1.wav,Pink_Noise_4_2.wav,,,,,,,,,,,,,,,0,79,79,79,,,,,,,,,,,,,,,,,,,,,,,740.120532930363,None,741.6369147449732,None,743.0204405882396,None,"bled
",743.0204405882396,None,return,4.469060556963086,743.1038663252257,None,,,,,,,,,,,,,,,,,,,,,,,,,,,,,,,,,,,,,,,91,001,2023_May_03_1421,SpeechDraft1Carolyn_lessNoise_PlusLocalization,2021.2.3,60.08027266753204,
deal.wav,deal.mpg,deal,4,AV,Pink_Noise_4_1.wav,Pink_Noise_4_2.wav,,,,,,,,,,,,,,,0,80,80,61,,,,,,,,,,,,,,,,,,,,,,,747.603924323339,None,749.1201986810192,None,750.5038257343695,None,kill,750.5038257343695,None,return,5.289817904122174,750.5872321380302,None,,,,,,,,,,,,,,,,,,,,,,,,,,,,,,,,,,,,,,,91,001,2023_May_03_1421,SpeechDraft1Carolyn_lessNoise_PlusLocalization,2021.2.3,60.08027266753204,
drag.wav,drag.mpg,drag,4,A,Pink_Noise_4_1.wav,Pink_Noise_4_2.wav,,,,,,,,,,,,,,,0,81,81,5,,,,,,,,,,,,,,,,,,,,,,,755.9039031020366,None,757.4201597240753,None,758.8038868810982,None,drag,758.8038868810982,None,return,2.4536672262474895,758.8872804050334,None,,,,,,,,,,,,,,,,,,,,,,,,,,,,,,,,,,,,,,,91,001,2023_May_03_1421,SpeechDraft1Carolyn_lessNoise_PlusLocalization,2021.2.3,60.08027266753204,
fold.wav,fold.mpg,fold,5,AV,Pink_Noise_5_1.wav,Pink_Noise_5_2.wav,,,,,,,,,,,,,,,0,82,82,72,,,,,,,,,,,,,,,,,,,,,,,761.3705783132464,None,762.8870766172186,None,764.2704483279958,None,full,764.2704483279958,None,return,5.691021365113556,764.3539992212318,None,,,,,,,,,,,,,,,,,,,,,,,,,,,,,,,,,,,,,,,91,001,2023_May_03_1421,SpeechDraft1Carolyn_lessNoise_PlusLocalization,2021.2.3,60.08027266753204,
grade.wav,grade.mpg,grade,3,AV,Pink_Noise_3_1.wav,Pink_Noise_3_2.wav,,,,,,,,,,,,,,,0,83,83,105,,,,,,,,,,,,,,,,,,,,,,,770.0704977139831,None,771.588220495265,None,772.970650549978,None,grade,772.970650549978,None,return,2.695044031832367,773.0538906040601,None,,,,,,,,,,,,,,,,,,,,,,,,,,,,,,,,,,,,,,,91,001,2023_May_03_1421,SpeechDraft1Carolyn_lessNoise_PlusLocalization,2021.2.3,60.08027266753204,
fierce.wav,fierce.mpg,fierce,6,AV,Pink_Noise_6_1.wav,Pink_Noise_6_2.wav,,,,,,,,,,,,,,,0,84,84,73,,,,,,,,,,,,,,,,,,,,,,,775.7705246191472,None,777.2870106152259,None,778.6705528181046,None,fruits,778.6705528181046,None,return,7.763052056077868,778.7540008793585,None,,,,,,,,,,,,,,,,,,,,,,,,,,,,,,,,,,,,,,,91,001,2023_May_03_1421,SpeechDraft1Carolyn_lessNoise_PlusLocalization,2021.2.3,60.08027266753204,
chase.wav,chase.mpg,chase,1,AV,Pink_Noise_1_1.wav,Pink_Noise_1_2.wav,,,,,,,,,,,,,,,0,85,85,93,,,,,,,,,,,,,,,,,,,,,,,786.5372307202779,None,788.0535956979729,None,789.4373710174114,None,chase,789.4373710174114,None,return,2.828229196369648,789.5207044850104,None,,,,,,,,,,,,,,,,,,,,,,,,,,,,,,,,,,,,,,,91,001,2023_May_03_1421,SpeechDraft1Carolyn_lessNoise_PlusLocalization,2021.2.3,60.08027266753204,
thorn.wav,thorn.mpg,thorn,1,AV,Pink_Noise_1_1.wav,Pink_Noise_1_2.wav,,,,,,,,,,,,,,,0,86,86,84,,,,,,,,,,,,,,,,,,,,,,,792.3706623353064,None,793.8869153503329,None,795.2705184491351,None,"thorn
",795.2705184491351,None,return,4.6029564631171525,795.3539758701809,None,,,,,,,,,,,,,,,,,,,,,,,,,,,,,,,,,,,,,,,91,001,2023_May_03_1421,SpeechDraft1Carolyn_lessNoise_PlusLocalization,2021.2.3,60.08027266753204,
lost.wav,lost.mpg,lost,3,A,Pink_Noise_3_1.wav,Pink_Noise_3_2.wav,,,,,,,,,,,,,,,0,87,87,47,,,,,,,,,,,,,,,,,,,,,,,799.9872939949855,None,801.5037433044054,None,802.8873315462843,None,lost,802.8873315462843,None,return,2.9623174970038235,802.970631076023,None,,,,,,,,,,,,,,,,,,,,,,,,,,,,,,,,,,,,,,,91,001,2023_May_03_1421,SpeechDraft1Carolyn_lessNoise_PlusLocalization,2021.2.3,60.08027266753204,
fault.wav,fault.mpg,fault,2,A,Pink_Noise_2_1.wav,Pink_Noise_2_2.wav,,,,,,,,,,,,,,,0,88,88,51,,,,,,,,,,,,,,,,,,,,,,,805.9539656531997,None,807.4701419612393,None,808.8540975190699,None,fault,808.8540975190699,None,return,3.4997181836515665,808.9373162640259,None,,,,,,,,,,,,,,,,,,,,,,,,,,,,,,,,,,,,,,,91,001,2023_May_03_1421,SpeechDraft1Carolyn_lessNoise_PlusLocalization,2021.2.3,60.08027266753204,
toast.wav,toast.mpg,toast,3,AV,Pink_Noise_3_1.wav,Pink_Noise_3_2.wav,,,,,,,,,,,,,,,0,89,89,69,,,,,,,,,,,,,,,,,,,,,,,812.453915423248,None,813.9869688870385,None,815.3707037693821,None,"toast
",815.3707037693821,None,return,1.8870522398501635,815.4538888293318,None,,,,,,,,,,,,,,,,,,,,,,,,,,,,,,,,,,,,,,,91,001,2023_May_03_1421,SpeechDraft1Carolyn_lessNoise_PlusLocalization,2021.2.3,60.08027266753204,
grace.wav,grace.mpg,grace,3,A,Pink_Noise_3_1.wav,Pink_Noise_3_2.wav,,,,,,,,,,,,,,,0,90,90,9,,,,,,,,,,,,,,,,,,,,,,,817.3707408211194,None,818.8869081903249,None,820.2706648493186,None,gris,820.2706648493186,None,return,17.906987513415515,820.3540256242268,None,,,,,,,,,,,,,,,,,,,,,,,,,,,,,,,,,,,,,,,91,001,2023_May_03_1421,SpeechDraft1Carolyn_lessNoise_PlusLocalization,2021.2.3,60.08027266753204,
coy.wav,coy.mpg,coy,1,AV,Pink_Noise_1_1.wav,Pink_Noise_1_2.wav,,,,,,,,,,,,,,,0,91,91,75,,,,,,,,,,,,,,,,,,,,,,,838.2873904230073,None,839.8037541620433,None,841.1873077680357,None,coy,841.1873077680357,None,return,3.1101984418928623,841.2707465230487,None,,,,,,,,,,,,,,,,,,,,,,,,,,,,,,,,,,,,,,,91,001,2023_May_03_1421,SpeechDraft1Carolyn_lessNoise_PlusLocalization,2021.2.3,60.08027266753204,
ditch.wav,ditch.mpg,ditch,5,A,Pink_Noise_5_1.wav,Pink_Noise_5_2.wav,,,,,,,,,,,,,,,0,92,92,35,,,,,,,,,,,,,,,,,,,,,,,844.4040336231701,None,845.9204130959697,None,847.3040019222535,None,dish,847.3040019222535,None,return,2.2255516070872545,847.38737404719,None,,,,,,,,,,,,,,,,,,,,,,,,,,,,,,,,,,,,,,,91,001,2023_May_03_1421,SpeechDraft1Carolyn_lessNoise_PlusLocalization,2021.2.3,60.08027266753204,
dot.wav,dot.mpg,dot,1,A,Pink_Noise_1_1.wav,Pink_Noise_1_2.wav,,,,,,,,,,,,,,,0,93,93,32,,,,,,,,,,,,,,,,,,,,,,,849.63743278943,None,851.1535392231308,None,852.5373804182746,None,dot,852.5373804182746,None,return,1.6723182420246303,852.6207083771005,None,,,,,,,,,,,,,,,,,,,,,,,,,,,,,,,,,,,,,,,91,001,2023_May_03_1421,SpeechDraft1Carolyn_lessNoise_PlusLocalization,2021.2.3,60.08027266753204,
clash.wav,clash.mpg,clash,6,A,Pink_Noise_6_1.wav,Pink_Noise_6_2.wav,,,,,,,,,,,,,,,0,94,94,2,,,,,,,,,,,,,,,,,,,,,,,854.3207117849961,None,855.8374092271551,None,857.2207485083491,None,"gnash
",857.2207485083491,None,return,5.700772906187922,857.3041382320225,None,,,,,,,,,,,,,,,,,,,,,,,,,,,,,,,,,,,,,,,91,001,2023_May_03_1421,SpeechDraft1Carolyn_lessNoise_PlusLocalization,2021.2.3,60.08027266753204,
ghost.wav,ghost.mpg,ghost,3,A,Pink_Noise_3_1.wav,Pink_Noise_3_2.wav,,,,,,,,,,,,,,,0,95,95,29,,,,,,,,,,,,,,,,,,,,,,,863.0373600353487,None,864.5536951990798,None,865.9375685490668,None,ghost,865.9375685490668,None,return,4.1922755553387105,866.0206776172854,None,,,,,,,,,,,,,,,,,,,,,,,,,,,,,,,,,,,,,,,91,001,2023_May_03_1421,SpeechDraft1Carolyn_lessNoise_PlusLocalization,2021.2.3,60.08027266753204,
carve.wav,carve.mpg,carve,6,AV,Pink_Noise_6_1.wav,Pink_Noise_6_2.wav,,,,,,,,,,,,,,,0,96,96,81,,,,,,,,,,,,,,,,,,,,,,,870.2373638544232,None,871.753789447248,None,873.137382271234,None,love,873.137382271234,None,return,3.6641718088649213,873.2207581312396,None,,,,,,,,,,,,,,,,,,,,,,,,,,,,,,,,,,,,,,,91,001,2023_May_03_1421,SpeechDraft1Carolyn_lessNoise_PlusLocalization,2021.2.3,60.08027266753204,
fifth.wav,fifth.mpg,fifth,5,A,Pink_Noise_5_1.wav,Pink_Noise_5_2.wav,,,,,,,,,,,,,,,0,97,97,57,,,,,,,,,,,,,,,,,,,,,,,876.9042545310222,None,878.4203428840265,None,879.8040721430443,None,boot,879.8040721430443,None,return,3.197525787167251,879.8873941083439,None,,,,,,,,,,,,,,,,,,,,,,,,,,,,,,,,,,,,,,,91,001,2023_May_03_1421,SpeechDraft1Carolyn_lessNoise_PlusLocalization,2021.2.3,60.08027266753204,
flick.wav,flick.mpg,flick,1,A,Pink_Noise_1_1.wav,Pink_Noise_1_2.wav,,,,,,,,,,,,,,,0,98,98,44,,,,,,,,,,,,,,,,,,,,,,,883.1042358521372,None,884.6216413793154,None,886.0040565989912,None,flick,886.0040565989912,None,return,2.237599990796298,886.08732492337,None,,,,,,,,,,,,,,,,,,,,,,,,,,,,,,,,,,,,,,,91,001,2023_May_03_1421,SpeechDraft1Carolyn_lessNoise_PlusLocalization,2021.2.3,60.08027266753204,
cook.wav,cook.mpg,cook,2,A,Pink_Noise_2_1.wav,Pink_Noise_2_2.wav,,,,,,,,,,,,,,,0,99,99,4,,,,,,,,,,,,,,,,,,,,,,,888.3540175822563,None,889.8870767350309,None,891.2540501770563,None,cook,891.2540501770563,None,return,2.2594677968882024,891.3374619833194,None,,,,,,,,,,,,,,,,,,,,,,,,,,,,,,,,,,,,,,,91,001,2023_May_03_1421,SpeechDraft1Carolyn_lessNoise_PlusLocalization,2021.2.3,60.08027266753204,
brow.wav,brow.mpg,brow,6,A,Pink_Noise_6_1.wav,Pink_Noise_6_2.wav,,,,,,,,,,,,,,,0,100,100,15,,,,,,,,,,,,,,,,,,,,,,,893.6208504401147,None,895.1372249391861,None,896.5208463780582,None,round,896.5208463780582,None,return,4.672724838834256,896.6043356521986,None,,,,,,,,,,,,,,,,,,,,,,,,,,,,,,,,,,,,,,,91,001,2023_May_03_1421,SpeechDraft1Carolyn_lessNoise_PlusLocalization,2021.2.3,60.08027266753204,
break.wav,break.mpg,break,6,A,Pink_Noise_6_1.wav,Pink_Noise_6_2.wav,,,,,,,,,,,,,,,0,101,101,56,,,,,,,,,,,,,,,,,,,,,,,901.3041710844263,None,902.8204757394269,None,904.2041034433059,None,make,904.2041034433059,None,return,2.3815133939497173,904.2874638820067,None,,,,,,,,,,,,,,,,,,,,,,,,,,,,,,,,,,,,,,,91,001,2023_May_03_1421,SpeechDraft1Carolyn_lessNoise_PlusLocalization,2021.2.3,60.08027266753204,
click.wav,click.mpg,click,1,AV,Pink_Noise_1_1.wav,Pink_Noise_1_2.wav,,,,,,,,,,,,,,,0,102,102,89,,,,,,,,,,,,,,,,,,,,,,,906.6873790300451,None,908.2039362960495,None,909.5873348051682,None,click,909.5873348051682,None,return,2.0301992702297866,909.6707875030115,None,,,,,,,,,,,,,,,,,,,,,,,,,,,,,,,,,,,,,,,91,001,2023_May_03_1421,SpeechDraft1Carolyn_lessNoise_PlusLocalization,2021.2.3,60.08027266753204,
teen.wav,teen.mpg,teen,1,AV,Pink_Noise_1_1.wav,Pink_Noise_1_2.wav,,,,,,,,,,,,,,,0,103,103,77,,,,,,,,,,,,,,,,,,,,,,,911.7372613539919,None,913.2540720524266,None,914.6374086970463,None,teen,914.6374086970463,None,return,1.64418950304389,914.7207372710109,None,,,,,,,,,,,,,,,,,,,,,,,,,,,,,,,,,,,,,,,91,001,2023_May_03_1421,SpeechDraft1Carolyn_lessNoise_PlusLocalization,2021.2.3,60.08027266753204,
glove.wav,glove.mpg,glove,4,AV,Pink_Noise_4_1.wav,Pink_Noise_4_2.wav,,,,,,,,,,,,,,,0,104,104,104,,,,,,,,,,,,,,,,,,,,,,,916.3874596981332,None,917.9045933494344,None,919.2874393803068,None,glove,919.2874393803068,None,return,6.514102243818343,919.3708267370239,None,,,,,,,,,,,,,,,,,,,,,,,,,,,,,,,,,,,,,,,91,001,2023_May_03_1421,SpeechDraft1Carolyn_lessNoise_PlusLocalization,2021.2.3,60.08027266753204,
curl.wav,curl.mpg,curl,5,A,Pink_Noise_5_1.wav,Pink_Noise_5_2.wav,,,,,,,,,,,,,,,0,105,105,27,,,,,,,,,,,,,,,,,,,,,,,925.9041987210512,None,927.4204209414311,None,928.8041224353947,None,curl,928.8041224353947,None,return,3.7736505051143467,928.8873994261958,None,,,,,,,,,,,,,,,,,,,,,,,,,,,,,,,,,,,,,,,91,001,2023_May_03_1421,SpeechDraft1Carolyn_lessNoise_PlusLocalization,2021.2.3,60.08027266753204,
grass.wav,grass.mpg,grass,3,A,Pink_Noise_3_1.wav,Pink_Noise_3_2.wav,,,,,,,,,,,,,,,0,106,106,12,,,,,,,,,,,,,,,,,,,,,,,932.6874498394318,None,934.2205716259778,None,935.6041465443559,None,grass,935.6041465443559,None,return,1.789508590940386,935.6874926150776,None,,,,,,,,,,,,,,,,,,,,,,,,,,,,,,,,,,,,,,,91,001,2023_May_03_1421,SpeechDraft1Carolyn_lessNoise_PlusLocalization,2021.2.3,60.08027266753204,
den.wav,den.mpg,den,2,AV,Pink_Noise_2_1.wav,Pink_Noise_2_2.wav,,,,,,,,,,,,,,,0,107,107,82,,,,,,,,,,,,,,,,,,,,,,,937.5040803961456,None,939.0205246713012,None,940.404103313107,None,dead,940.404103313107,None,return,2.0613851766102016,940.48752698116,None,,,,,,,,,,,,,,,,,,,,,,,,,,,,,,,,,,,,,,,91,001,2023_May_03_1421,SpeechDraft1Carolyn_lessNoise_PlusLocalization,2021.2.3,60.08027266753204,
slick.wav,slick.mpg,slick,2,A,Pink_Noise_2_1.wav,Pink_Noise_2_2.wav,,,,,,,,,,,,,,,0,108,108,24,,,,,,,,,,,,,,,,,,,,,,,942.5708083664067,None,944.0871394900605,None,945.4707727753557,None,slick,945.4707727753557,None,return,2.7069121720269322,945.5541702713817,None,,,,,,,,,,,,,,,,,,,,,,,,,,,,,,,,,,,,,,,91,001,2023_May_03_1421,SpeechDraft1Carolyn_lessNoise_PlusLocalization,2021.2.3,60.08027266753204,
fade.wav,fade.mpg,fade,6,AV,Pink_Noise_6_1.wav,Pink_Noise_6_2.wav,,,,,,,,,,,,,,,0,109,109,96,,,,,,,,,,,,,,,,,,,,,,,948.2874795030802,None,949.8038500612602,None,951.187386077363,None,"fake
",951.187386077363,None,return,2.469993745908141,951.2709353254177,None,,,,,,,,,,,,,,,,,,,,,,,,,,,,,,,,,,,,,,,91,001,2023_May_03_1421,SpeechDraft1Carolyn_lessNoise_PlusLocalization,2021.2.3,60.08027266753204,
blame.wav,blame.mpg,blame,6,AV,Pink_Noise_6_1.wav,Pink_Noise_6_2.wav,,,,,,,,,,,,,,,0,110,110,62,,,,,,,,,,,,,,,,,,,,,,,953.7708342741244,None,955.2871872480027,None,956.6707758130506,None,blame,956.6707758130506,None,return,2.138830102980137,956.7541900901124,None,,,,,,,,,,,,,,,,,,,,,,,,,,,,,,,,,,,,,,,91,001,2023_May_03_1421,SpeechDraft1Carolyn_lessNoise_PlusLocalization,2021.2.3,60.08027266753204,
brief.wav,brief.mpg,brief,3,AV,Pink_Noise_3_1.wav,Pink_Noise_3_2.wav,,,,,,,,,,,,,,,0,111,111,100,,,,,,,,,,,,,,,,,,,,,,,958.9208588772453,None,960.4371658330783,None,961.8209018642083,None,brief,961.8209018642083,None,return,2.9889764320105314,961.9040682842024,None,,,,,,,,,,,,,,,,,,,,,,,,,,,,,,,,,,,,,,,91,001,2023_May_03_1421,SpeechDraft1Carolyn_lessNoise_PlusLocalization,2021.2.3,60.08027266753204,
crew.wav,crew.mpg,crew,2,AV,Pink_Noise_2_1.wav,Pink_Noise_2_2.wav,,,,,,,,,,,,,,,0,112,112,68,,,,,,,,,,,,,,,,,,,,,,,964.921037373133,None,966.4386525782757,None,967.8208506340161,None,"crew
",967.8208506340161,None,return,2.4686956759542227,967.9042223393917,None,,,,,,,,,,,,,,,,,,,,,,,,,,,,,,,,,,,,,,,91,001,2023_May_03_1421,SpeechDraft1Carolyn_lessNoise_PlusLocalization,2021.2.3,60.08027266753204,
frost.wav,frost.mpg,frost,5,A,Pink_Noise_5_1.wav,Pink_Noise_5_2.wav,,,,,,,,,,,,,,,0,113,113,59,,,,,,,,,,,,,,,,,,,,,,,970.4040931030177,None,971.9203898301348,None,973.3041631584056,None,"lost
",973.3041631584056,None,return,6.617168502882123,973.3877635169774,None,,,,,,,,,,,,,,,,,,,,,,,,,,,,,,,,,,,,,,,91,001,2023_May_03_1421,SpeechDraft1Carolyn_lessNoise_PlusLocalization,2021.2.3,60.08027266753204,
clerk.wav,clerk.mpg,clerk,2,AV,Pink_Noise_2_1.wav,Pink_Noise_2_2.wav,,,,,,,,,,,,,,,0,114,114,107,,,,,,,,,,,,,,,,,,,,,,,980.0374488784,None,981.5706463651732,None,982.9542399412021,None,clerk,982.9542399412021,None,return,2.3114403262734413,983.037502901163,None,,,,,,,,,,,,,,,,,,,,,,,,,,,,,,,,,,,,,,,91,001,2023_May_03_1421,SpeechDraft1Carolyn_lessNoise_PlusLocalization,2021.2.3,60.08027266753204,
fish.wav,fish.mpg,fish,2,AV,Pink_Noise_2_1.wav,Pink_Noise_2_2.wav,,,,,,,,,,,,,,,0,115,115,90,,,,,,,,,,,,,,,,,,,,,,,985.3708333983086,None,986.8872026330791,None,988.270989628043,None,fish,988.270989628043,None,return,1.698813389055431,988.3542034821585,None,,,,,,,,,,,,,,,,,,,,,,,,,,,,,,,,,,,,,,,91,001,2023_May_03_1421,SpeechDraft1Carolyn_lessNoise_PlusLocalization,2021.2.3,60.08027266753204,
crook.wav,crook.mpg,crook,3,AV,Pink_Noise_3_1.wav,Pink_Noise_3_2.wav,,,,,,,,,,,,,,,0,116,116,111,,,,,,,,,,,,,,,,,,,,,,,990.0709064970724,None,991.5872306292877,None,992.9708377690986,None,crook,992.9708377690986,None,return,2.9106406588107347,993.0542891370133,None,,,,,,,,,,,,,,,,,,,,,,,,,,,,,,,,,,,,,,,91,001,2023_May_03_1421,SpeechDraft1Carolyn_lessNoise_PlusLocalization,2021.2.3,60.08027266753204,
aunt.wav,aunt.mpg,aunt,3,AV,Pink_Noise_3_1.wav,Pink_Noise_3_2.wav,,,,,,,,,,,,,,,0,117,117,78,,,,,,,,,,,,,,,,,,,,,,,995.9875214700587,None,997.5205547381192,None,998.9041890529916,None,aunt,998.9041890529916,None,return,5.80931184720248,998.9876175713725,None,,,,,,,,,,,,,,,,,,,,,,,,,,,,,,,,,,,,,,,91,001,2023_May_03_1421,SpeechDraft1Carolyn_lessNoise_PlusLocalization,2021.2.3,60.08027266753204,
pledge.wav,pledge.mpg,pledge,4,AV,Pink_Noise_4_1.wav,Pink_Noise_4_2.wav,,,,,,,,,,,,,,,0,118,118,83,,,,,,,,,,,,,,,,,,,,,,,1004.8209134163335,None,1006.337285479065,None,1007.7207332360558,None,ledge,1007.7207332360558,None,return,6.87258314108476,1007.8044198080897,None,,,,,,,,,,,,,,,,,,,,,,,,,,,,,,,,,,,,,,,91,001,2023_May_03_1421,SpeechDraft1Carolyn_lessNoise_PlusLocalization,2021.2.3,60.08027266753204,
base.wav,base.mpg,base,5,AV,Pink_Noise_5_1.wav,Pink_Noise_5_2.wav,,,,,,,,,,,,,,,0,119,119,114,,,,,,,,,,,,,,,,,,,,,,,1014.7041958291084,None,1016.2373516061343,None,1017.6209360351786,None,beast,1017.6209360351786,None,return,3.732767620123923,1017.7042459109798,None,,,,,,,,,,,,,,,,,,,,,,,,,,,,,,,,,,,,,,,91,001,2023_May_03_1421,SpeechDraft1Carolyn_lessNoise_PlusLocalization,2021.2.3,60.08027266753204,
,,,,,,,,,,,,,,,,,,,,,,,,,,,,,,,,,,,,,,,,,,,,,,,,,,,,,,,,,,,,,,,,,,space,44.87467697355896,1021.5542746982537,None,,,,,,,,,,,,,,,,,,,,,,,,,,,,,91,001,2023_May_03_1421,SpeechDraft1Carolyn_lessNoise_PlusLocalization,2021.2.3,60.08027266753204,
,,,,,,,,midLeft,-13.0,2,ch1Sound_localizationTask.wav,-13.0,"(762, 878)","(-198,-202)",-190,-338,,,,,,,,,0,0,0,1,,,,,,,,,,,,,,,,,,,,,,,,,,,,,,,,,,,,,,,,,,1021.5542746982537,None,1066.470916573424,None,1067.5725155309774,None,1068.5038501741365,None,1.3915343915343916,2.887177376076579,1068.5038501741365,None,,,,,,,,,,,,,,,,,91,001,2023_May_03_1421,SpeechDraft1Carolyn_lessNoise_PlusLocalization,2021.2.3,60.08027266753204,
,,,,,,,,midRight,13.0,3,ch1Sound_localizationTask.wav,13.0,"(1142, 878)","(182, -202)",190,-338,,,,,,,,,0,1,1,5,,,,,,,,,,,,,,,,,,,,,,,,,,,,,,,,,,,,,,,,,,,,1071.388670056127,None,1072.4874590863474,None,1073.4207773120143,None,1.5735449735449736,1.1333005060441792,1073.4207773120143,None,,,,,,,,,,,,,,,,,91,001,2023_May_03_1421,SpeechDraft1Carolyn_lessNoise_PlusLocalization,2021.2.3,60.08027266753204,
,,,,,,,,nearLeft,-6.5,1,ch1Sound_localizationTask.wav,-6.5,"(857, 878)","(-103,-202)",-95,-338,,,,,,,,,0,2,2,2,,,,,,,,,,,,,,,,,,,,,,,,,,,,,,,,,,,,,,,,,,,,1074.5551659204066,None,1075.6542511400767,None,1076.5873997793533,None,1.3936507936507936,1.2181152319535613,1076.5873997793533,None,,,,,,,,,,,,,,,,,91,001,2023_May_03_1421,SpeechDraft1Carolyn_lessNoise_PlusLocalization,2021.2.3,60.08027266753204,
,,,,,,,,nearRight,6.5,0,ch1Sound_localizationTask.wav,6.5,"(1047, 878)","(87, -202)",95,-338,,,,,,,,,0,3,3,4,,,,,,,,,,,,,,,,,,,,,,,,,,,,,,,,,,,,,,,,,,,,1077.820872349199,None,1078.9206863781437,None,1079.854210369289,None,1.5582010582010581,0.9840964539907873,1079.854210369289,None,,,,,,,,,,,,,,,,,91,001,2023_May_03_1421,SpeechDraft1Carolyn_lessNoise_PlusLocalization,2021.2.3,60.08027266753204,
,,,,,,,,nearRight,6.5,0,ch1Sound_localizationTask.wav,6.5,"(1047, 878)","(87, -202)",95,-338,,,,,,,,,0,4,4,4,,,,,,,,,,,,,,,,,,,,,,,,,,,,,,,,,,,,,,,,,,,,1080.8544255723245,None,1081.9540837202221,None,1082.8874477311037,None,1.5074074074074075,0.6667502941563725,1082.8874477311037,None,,,,,,,,,,,,,,,,,91,001,2023_May_03_1421,SpeechDraft1Carolyn_lessNoise_PlusLocalization,2021.2.3,60.08027266753204,
,,,,,,,,farLeft,-19.1,5,ch1Sound_localizationTask.wav,-19.1,"(667, 878)","(-293,-202)",-285,-338,,,,,,,,,0,5,5,0,,,,,,,,,,,,,,,,,,,,,,,,,,,,,,,,,,,,,,,,,,,,1083.5712747210637,None,1084.6707836110145,None,1085.6040251450613,None,1.2878306878306878,1.0676340591162443,1085.6040251450613,None,,,,,,,,,,,,,,,,,91,001,2023_May_03_1421,SpeechDraft1Carolyn_lessNoise_PlusLocalization,2021.2.3,60.08027266753204,
,,,,,,,,center,0.0,6,ch1Sound_localizationTask.wav,0.0,"(952, 878)","(-8,-202)",0,-338,,,,,,,,,0,6,6,3,,,,,,,,,,,,,,,,,,,,,,,,,,,,,,,,,,,,,,,,,,,,1086.688131143339,None,1087.7873273072764,None,1088.7208799701184,None,1.4894179894179893,0.9333180440589786,1088.7208799701184,None,,,,,,,,,,,,,,,,,91,001,2023_May_03_1421,SpeechDraft1Carolyn_lessNoise_PlusLocalization,2021.2.3,60.08027266753204,
,,,,,,,,farLeft,-19.1,5,ch1Sound_localizationTask.wav,-19.1,"(667, 878)","(-293,-202)",-285,-338,,,,,,,,,1,0,7,0,,,,,,,,,,,,,,,,,,,,,,,,,,,,,,,,,,,,,,,,,,,,1089.655737936031,None,1090.770851987414,None,1091.6875232332386,None,1.2449735449735448,0.9026806349866092,1091.6875232332386,None,,,,,,,,,,,,,,,,,91,001,2023_May_03_1421,SpeechDraft1Carolyn_lessNoise_PlusLocalization,2021.2.3,60.08027266753204,
,,,,,,,,center,0.0,6,ch1Sound_localizationTask.wav,0.0,"(952, 878)","(-8,-202)",0,-338,,,,,,,,,1,1,8,3,,,,,,,,,,,,,,,,,,,,,,,,,,,,,,,,,,,,,,,,,,,,1092.6043529124,None,1093.7040406311862,None,1094.63738599699,None,1.4814814814814814,0.9166503828018904,1094.63738599699,None,,,,,,,,,,,,,,,,,91,001,2023_May_03_1421,SpeechDraft1Carolyn_lessNoise_PlusLocalization,2021.2.3,60.08027266753204,
,,,,,,,,farRight,19.1,4,ch1Sound_localizationTask.wav,19.1,"(1237, 878)","(277,-202)",285,-338,,,,,,,,,1,2,9,6,,,,,,,,,,,,,,,,,,,,,,,,,,,,,,,,,,,,,,,,,,,,1095.5709980512038,None,1096.6708461232483,None,1097.6040177610703,None,1.6523809523809523,0.8162222090177238,1097.6040177610703,None,,,,,,,,,,,,,,,,,91,001,2023_May_03_1421,SpeechDraft1Carolyn_lessNoise_PlusLocalization,2021.2.3,60.08027266753204,
,,,,,,,,midRight,13.0,3,ch1Sound_localizationTask.wav,13.0,"(1142, 878)","(182, -202)",190,-338,,,,,,,,,1,3,10,5,,,,,,,,,,,,,,,,,,,,,,,,,,,,,,,,,,,,,,,,,,,,1098.421731446404,None,1099.5209829970263,None,1100.4542263820767,None,1.5116402116402117,0.7495623901486397,1100.4542263820767,None,,,,,,,,,,,,,,,,,91,001,2023_May_03_1421,SpeechDraft1Carolyn_lessNoise_PlusLocalization,2021.2.3,60.08027266753204,
,,,,,,,,nearRight,6.5,0,ch1Sound_localizationTask.wav,6.5,"(1047, 878)","(87, -202)",95,-338,,,,,,,,,1,4,11,4,,,,,,,,,,,,,,,,,,,,,,,,,,,,,,,,,,,,,,,,,,,,1101.2051759222522,None,1102.304244081024,None,1103.2374927592464,None,1.5566137566137566,0.49964475678279996,1103.2374927592464,None,,,,,,,,,,,,,,,,,91,001,2023_May_03_1421,SpeechDraft1Carolyn_lessNoise_PlusLocalization,2021.2.3,60.08027266753204,
,,,,,,,,midLeft,-13.0,2,ch1Sound_localizationTask.wav,-13.0,"(762, 878)","(-198,-202)",-190,-338,,,,,,,,,1,5,12,1,,,,,,,,,,,,,,,,,,,,,,,,,,,,,,,,,,,,,,,,,,,,1103.7390589853749,None,1104.8540560100228,None,1105.7706364830956,None,1.3375661375661376,0.8513499121181667,1105.7706364830956,None,,,,,,,,,,,,,,,,,91,001,2023_May_03_1421,SpeechDraft1Carolyn_lessNoise_PlusLocalization,2021.2.3,60.08027266753204,
,,,,,,,,farLeft,-19.1,5,ch1Sound_localizationTask.wav,-19.1,"(667, 878)","(-293,-202)",-285,-338,,,,,,,,,1,6,13,0,,,,,,,,,,,,,,,,,,,,,,,,,,,,,,,,,,,,,,,,,,,,1106.6380227413028,None,1107.7373091713525,None,1108.6708814310841,None,1.2804232804232805,0.7177797737531364,1108.6708814310841,None,,,,,,,,,,,,,,,,,91,001,2023_May_03_1421,SpeechDraft1Carolyn_lessNoise_PlusLocalization,2021.2.3,60.08027266753204,
,,,,,,,,farRight,19.1,4,ch1Sound_localizationTask.wav,19.1,"(1237, 878)","(277,-202)",285,-338,,,,,,,,,2,0,14,6,,,,,,,,,,,,,,,,,,,,,,,,,,,,,,,,,,,,,,,,,,,,1109.4044162603095,None,1110.5042814491317,None,1111.4373289672658,None,1.6052910052910052,0.9501789449714124,1111.4373289672658,None,,,,,,,,,,,,,,,,,91,001,2023_May_03_1421,SpeechDraft1Carolyn_lessNoise_PlusLocalization,2021.2.3,60.08027266753204,
,,,,,,,,center,0.0,6,ch1Sound_localizationTask.wav,0.0,"(952, 878)","(-8,-202)",0,-338,,,,,,,,,2,1,15,3,,,,,,,,,,,,,,,,,,,,,,,,,,,,,,,,,,,,,,,,,,,,1112.4043950634077,None,1113.5041262470186,None,1114.4372883080505,None,1.4825396825396826,0.7164740148000419,1114.4372883080505,None,,,,,,,,,,,,,,,,,91,001,2023_May_03_1421,SpeechDraft1Carolyn_lessNoise_PlusLocalization,2021.2.3,60.08027266753204,
,,,,,,,,farRight,19.1,4,ch1Sound_localizationTask.wav,19.1,"(1237, 878)","(277,-202)",285,-338,,,,,,,,,2,2,16,6,,,,,,,,,,,,,,,,,,,,,,,,,,,,,,,,,,,,,,,,,,,,1115.1554139861837,None,1116.2543218433857,None,1117.1874782363884,None,1.6486772486772487,0.7476733960211277,1117.1874782363884,None,,,,,,,,,,,,,,,,,91,001,2023_May_03_1421,SpeechDraft1Carolyn_lessNoise_PlusLocalization,2021.2.3,60.08027266753204,
,,,,,,,,nearLeft,-6.5,1,ch1Sound_localizationTask.wav,-6.5,"(857, 878)","(-103,-202)",-95,-338,,,,,,,,,2,3,17,2,,,,,,,,,,,,,,,,,,,,,,,,,,,,,,,,,,,,,,,,,,,,1117.9383713151328,None,1119.0375283583999,None,1119.9707930143923,None,1.3952380952380952,0.7662699650973082,1119.9707930143923,None,,,,,,,,,,,,,,,,,91,001,2023_May_03_1421,SpeechDraft1Carolyn_lessNoise_PlusLocalization,2021.2.3,60.08027266753204,
,,,,,,,,midLeft,-13.0,2,ch1Sound_localizationTask.wav,-13.0,"(762, 878)","(-198,-202)",-190,-338,,,,,,,,,2,4,18,1,,,,,,,,,,,,,,,,,,,,,,,,,,,,,,,,,,,,,,,,,,,,1120.7385092633776,None,1121.8376309112646,None,1122.770789870061,None,1.3587301587301588,0.7821321464143693,1122.770789870061,None,,,,,,,,,,,,,,,,,91,001,2023_May_03_1421,SpeechDraft1Carolyn_lessNoise_PlusLocalization,2021.2.3,60.08027266753204,
,,,,,,,,midRight,13.0,3,ch1Sound_localizationTask.wav,13.0,"(1142, 878)","(182, -202)",190,-338,,,,,,,,,2,5,19,5,,,,,,,,,,,,,,,,,,,,,,,,,,,,,,,,,,,,,,,,,,,,1123.5547832921147,None,1124.6542976093479,None,1125.5874938592315,None,1.519047619047619,0.41861074417829514,1125.5874938592315,None,,,,,,,,,,,,,,,,,91,001,2023_May_03_1421,SpeechDraft1Carolyn_lessNoise_PlusLocalization,2021.2.3,60.08027266753204,
,,,,,,,,midLeft,-13.0,2,ch1Sound_localizationTask.wav,-13.0,"(762, 878)","(-198,-202)",-190,-338,,,,,,,,,2,6,20,1,,,,,,,,,,,,,,,,,,,,,,,,,,,,,,,,,,,,,,,,,,,,1126.0211170329712,None,1127.120771496091,None,1128.0543128671125,None,1.301058201058201,0.8663176218979061,1128.0543128671125,None,,,,,,,,,,,,,,,,,91,001,2023_May_03_1421,SpeechDraft1Carolyn_lessNoise_PlusLocalization,2021.2.3,60.08027266753204,
,,,,,,,,farLeft,-19.1,5,ch1Sound_localizationTask.wav,-19.1,"(667, 878)","(-293,-202)",-285,-338,,,,,,,,,3,0,21,0,,,,,,,,,,,,,,,,,,,,,,,,,,,,,,,,,,,,,,,,,,,,1128.921561751049,None,1130.020978925284,None,1130.9540805220604,None,1.3412698412698414,0.6155413696542382,1130.9540805220604,None,,,,,,,,,,,,,,,,,91,001,2023_May_03_1421,SpeechDraft1Carolyn_lessNoise_PlusLocalization,2021.2.3,60.08027266753204,
,,,,,,,,nearRight,6.5,0,ch1Sound_localizationTask.wav,6.5,"(1047, 878)","(87, -202)",95,-338,,,,,,,,,3,1,22,4,,,,,,,,,,,,,,,,,,,,,,,,,,,,,,,,,,,,,,,,,,,,1131.5714898933657,None,1132.6707805283368,None,1133.6040190942585,None,1.5708994708994708,0.6324006300419569,1133.6040190942585,None,,,,,,,,,,,,,,,,,91,001,2023_May_03_1421,SpeechDraft1Carolyn_lessNoise_PlusLocalization,2021.2.3,60.08027266753204,
,,,,,,,,farRight,19.1,4,ch1Sound_localizationTask.wav,19.1,"(1237, 878)","(277,-202)",285,-338,,,,,,,,,3,2,23,6,,,,,,,,,,,,,,,,,,,,,,,,,,,,,,,,,,,,,,,,,,,,1134.2383624650538,None,1135.3373925033957,None,1136.270764704328,None,1.6465608465608466,0.8343276348896325,1136.270764704328,None,,,,,,,,,,,,,,,,,91,001,2023_May_03_1421,SpeechDraft1Carolyn_lessNoise_PlusLocalization,2021.2.3,60.08027266753204,
,,,,,,,,nearRight,6.5,0,ch1Sound_localizationTask.wav,6.5,"(1047, 878)","(87, -202)",95,-338,,,,,,,,,3,3,24,4,,,,,,,,,,,,,,,,,,,,,,,,,,,,,,,,,,,,,,,,,,,,1137.1210788483731,None,1138.220933538396,None,1139.1540603730828,None,1.4730158730158731,0.4824340846389532,1139.1540603730828,None,,,,,,,,,,,,,,,,,91,001,2023_May_03_1421,SpeechDraft1Carolyn_lessNoise_PlusLocalization,2021.2.3,60.08027266753204,
,,,,,,,,nearLeft,-6.5,1,ch1Sound_localizationTask.wav,-6.5,"(857, 878)","(-103,-202)",-95,-338,,,,,,,,,3,4,25,2,,,,,,,,,,,,,,,,,,,,,,,,,,,,,,,,,,,,,,,,,,,,1139.6387578663416,None,1140.7375328331254,None,1141.6710377493873,None,1.474074074074074,0.5828275429084897,1141.6710377493873,None,,,,,,,,,,,,,,,,,91,001,2023_May_03_1421,SpeechDraft1Carolyn_lessNoise_PlusLocalization,2021.2.3,60.08027266753204,
,,,,,,,,midLeft,-13.0,2,ch1Sound_localizationTask.wav,-13.0,"(762, 878)","(-198,-202)",-190,-338,,,,,,,,,3,5,26,1,,,,,,,,,,,,,,,,,,,,,,,,,,,,,,,,,,,,,,,,,,,,1142.2552254521288,None,1143.354104717262,None,1144.28753302712,None,1.348148148148148,0.8345324490219355,1144.28753302712,None,,,,,,,,,,,,,,,,,91,001,2023_May_03_1421,SpeechDraft1Carolyn_lessNoise_PlusLocalization,2021.2.3,60.08027266753204,
,,,,,,,,farRight,19.1,4,ch1Sound_localizationTask.wav,19.1,"(1237, 878)","(277,-202)",285,-338,,,,,,,,,3,6,27,6,,,,,,,,,,,,,,,,,,,,,,,,,,,,,,,,,,,,,,,,,,,,1145.137795377057,None,1146.2376888194121,None,1147.170723034069,None,1.6582010582010582,0.6836612592451274,1147.170723034069,None,,,,,,,,,,,,,,,,,91,001,2023_May_03_1421,SpeechDraft1Carolyn_lessNoise_PlusLocalization,2021.2.3,60.08027266753204,
,,,,,,,,midRight,13.0,3,ch1Sound_localizationTask.wav,13.0,"(1142, 878)","(182, -202)",190,-338,,,,,,,,,4,0,28,5,,,,,,,,,,,,,,,,,,,,,,,,,,,,,,,,,,,,,,,,,,,,1147.8714572950266,None,1148.9708439754322,None,1149.9040676341392,None,1.505820105820106,0.7821471649222076,1149.9040676341392,None,,,,,,,,,,,,,,,,,91,001,2023_May_03_1421,SpeechDraft1Carolyn_lessNoise_PlusLocalization,2021.2.3,60.08027266753204,
,,,,,,,,center,0.0,6,ch1Sound_localizationTask.wav,0.0,"(952, 878)","(-8,-202)",0,-338,,,,,,,,,4,1,29,3,,,,,,,,,,,,,,,,,,,,,,,,,,,,,,,,,,,,,,,,,,,,1150.6877799332142,None,1151.7874797242694,None,1152.7210942660458,None,1.4862433862433861,1.1329530249349773,1152.7210942660458,None,,,,,,,,,,,,,,,,,91,001,2023_May_03_1421,SpeechDraft1Carolyn_lessNoise_PlusLocalization,2021.2.3,60.08027266753204,
,,,,,,,,center,0.0,6,ch1Sound_localizationTask.wav,0.0,"(952, 878)","(-8,-202)",0,-338,,,,,,,,,4,2,30,3,,,,,,,,,,,,,,,,,,,,,,,,,,,,,,,,,,,,,,,,,,,,1153.8552344073541,None,1154.9542806632817,None,1155.887469121255,None,1.4873015873015873,0.681972763966769,1155.887469121255,None,,,,,,,,,,,,,,,,,91,001,2023_May_03_1421,SpeechDraft1Carolyn_lessNoise_PlusLocalization,2021.2.3,60.08027266753204,
,,,,,,,,midRight,13.0,3,ch1Sound_localizationTask.wav,13.0,"(1142, 878)","(182, -202)",190,-338,,,,,,,,,4,3,31,5,,,,,,,,,,,,,,,,,,,,,,,,,,,,,,,,,,,,,,,,,,,,1156.571183779277,None,1157.6709813443013,None,1158.6041010222398,None,1.5793650793650795,0.5500130290165544,1158.6041010222398,None,,,,,,,,,,,,,,,,,91,001,2023_May_03_1421,SpeechDraft1Carolyn_lessNoise_PlusLocalization,2021.2.3,60.08027266753204,
,,,,,,,,nearLeft,-6.5,1,ch1Sound_localizationTask.wav,-6.5,"(857, 878)","(-103,-202)",-95,-338,,,,,,,,,4,4,32,2,,,,,,,,,,,,,,,,,,,,,,,,,,,,,,,,,,,,,,,,,,,,1159.1551194041967,None,1160.2543042870238,None,1161.1874966132455,None,1.4037037037037037,0.8334764647297561,1161.1874966132455,None,,,,,,,,,,,,,,,,,91,001,2023_May_03_1421,SpeechDraft1Carolyn_lessNoise_PlusLocalization,2021.2.3,60.08027266753204,
,,,,,,,,farRight,19.1,4,ch1Sound_localizationTask.wav,19.1,"(1237, 878)","(277,-202)",285,-338,,,,,,,,,4,5,33,6,,,,,,,,,,,,,,,,,,,,,,,,,,,,,,,,,,,,,,,,,,,,1162.0380916171707,None,1163.1377616613172,None,1164.0709224622697,None,1.6333333333333333,0.7327932808548212,1164.0709224622697,None,,,,,,,,,,,,,,,,,91,001,2023_May_03_1421,SpeechDraft1Carolyn_lessNoise_PlusLocalization,2021.2.3,60.08027266753204,
,,,,,,,,farLeft,-19.1,5,ch1Sound_localizationTask.wav,-19.1,"(667, 878)","(-293,-202)",-285,-338,,,,,,,,,4,6,34,0,,,,,,,,,,,,,,,,,,,,,,,,,,,,,,,,,,,,,,,,,,,,1164.805452408269,None,1165.9041862799786,None,1166.837367693428,None,1.2804232804232805,0.8159571127034724,1166.837367693428,None,,,,,,,,,,,,,,,,,91,001,2023_May_03_1421,SpeechDraft1Carolyn_lessNoise_PlusLocalization,2021.2.3,60.08027266753204,
,,,,,,,,midRight,13.0,3,ch1Sound_localizationTask.wav,13.0,"(1142, 878)","(182, -202)",190,-338,,,,,,,,,5,0,35,5,,,,,,,,,,,,,,,,,,,,,,,,,,,,,,,,,,,,,,,,,,,,1167.654919254128,None,1168.7542282980867,None,1169.687460645102,None,1.5894179894179894,0.632837968878448,1169.687460645102,None,,,,,,,,,,,,,,,,,91,001,2023_May_03_1421,SpeechDraft1Carolyn_lessNoise_PlusLocalization,2021.2.3,60.08027266753204,
,,,,,,,,center,0.0,6,ch1Sound_localizationTask.wav,0.0,"(952, 878)","(-8,-202)",0,-338,,,,,,,,,5,1,36,3,,,,,,,,,,,,,,,,,,,,,,,,,,,,,,,,,,,,,,,,,,,,1170.3212672714144,None,1171.4208639403805,None,1172.3540751300752,None,1.4005291005291005,0.48250001994892955,1172.3540751300752,None,,,,,,,,,,,,,,,,,91,001,2023_May_03_1421,SpeechDraft1Carolyn_lessNoise_PlusLocalization,2021.2.3,60.08027266753204,
,,,,,,,,nearRight,6.5,0,ch1Sound_localizationTask.wav,6.5,"(1047, 878)","(87, -202)",95,-338,,,,,,,,,5,2,37,4,,,,,,,,,,,,,,,,,,,,,,,,,,,,,,,,,,,,,,,,,,,,1172.8379036383703,None,1173.9375281622633,None,1174.8709089322947,None,1.5793650793650795,0.5322698359377682,1174.8709089322947,None,,,,,,,,,,,,,,,,,91,001,2023_May_03_1421,SpeechDraft1Carolyn_lessNoise_PlusLocalization,2021.2.3,60.08027266753204,
,,,,,,,,nearLeft,-6.5,1,ch1Sound_localizationTask.wav,-6.5,"(857, 878)","(-103,-202)",-95,-338,,,,,,,,,5,3,38,2,,,,,,,,,,,,,,,,,,,,,,,,,,,,,,,,,,,,,,,,,,,,1175.4044670532458,None,1176.50419779215,None,1177.437636487186,None,1.4375661375661375,0.5503760897554457,1177.437636487186,None,,,,,,,,,,,,,,,,,91,001,2023_May_03_1421,SpeechDraft1Carolyn_lessNoise_PlusLocalization,2021.2.3,60.08027266753204,
,,,,,,,,midLeft,-13.0,2,ch1Sound_localizationTask.wav,-13.0,"(762, 878)","(-198,-202)",-190,-338,,,,,,,,,5,4,39,1,,,,,,,,,,,,,,,,,,,,,,,,,,,,,,,,,,,,,,,,,,,,1178.0044613191858,None,1179.1041880692355,None,1180.0375940492377,None,1.271957671957672,0.6506477040238678,1180.0375940492377,None,,,,,,,,,,,,,,,,,91,001,2023_May_03_1421,SpeechDraft1Carolyn_lessNoise_PlusLocalization,2021.2.3,60.08027266753204,
,,,,,,,,nearRight,6.5,0,ch1Sound_localizationTask.wav,6.5,"(1047, 878)","(87, -202)",95,-338,,,,,,,,,5,5,40,4,,,,,,,,,,,,,,,,,,,,,,,,,,,,,,,,,,,,,,,,,,,,1180.7045407393016,None,1181.8042348120362,None,1182.737576519139,None,1.5195767195767196,0.28525200486183167,1182.737576519139,None,,,,,,,,,,,,,,,,,91,001,2023_May_03_1421,SpeechDraft1Carolyn_lessNoise_PlusLocalization,2021.2.3,60.08027266753204,
,,,,,,,,nearLeft,-6.5,1,ch1Sound_localizationTask.wav,-6.5,"(857, 878)","(-103,-202)",-95,-338,,,,,,,,,5,6,41,2,,,,,,,,,,,,,,,,,,,,,,,,,,,,,,,,,,,,,,,,,,,,1183.03805990424,None,1184.1375667559914,None,1185.070951210335,None,1.4216931216931217,0.4664629530161619,1185.070951210335,None,,,,,,,,,,,,,,,,,91,001,2023_May_03_1421,SpeechDraft1Carolyn_lessNoise_PlusLocalization,2021.2.3,60.08027266753204,
,,,,,,,,midLeft,-13.0,2,ch1Sound_localizationTask.wav,-13.0,"(762, 878)","(-198,-202)",-190,-338,,,,,,,,,6,0,42,1,,,,,,,,,,,,,,,,,,,,,,,,,,,,,,,,,,,,,,,,,,,,1185.538446787279,None,1186.637647035066,None,1187.5707168150693,None,1.3026455026455026,0.7167094280011952,1187.5707168150693,None,,,,,,,,,,,,,,,,,91,001,2023_May_03_1421,SpeechDraft1Carolyn_lessNoise_PlusLocalization,2021.2.3,60.08027266753204,
,,,,,,,,midRight,13.0,3,ch1Sound_localizationTask.wav,13.0,"(1142, 878)","(182, -202)",190,-338,,,,,,,,,6,1,43,5,,,,,,,,,,,,,,,,,,,,,,,,,,,,,,,,,,,,,,,,,,,,1188.2892012740485,None,1189.4042644333094,None,1190.3208593553863,None,1.5841269841269843,0.681817642878741,1190.3208593553863,None,,,,,,,,,,,,,,,,,91,001,2023_May_03_1421,SpeechDraft1Carolyn_lessNoise_PlusLocalization,2021.2.3,60.08027266753204,
,,,,,,,,center,0.0,6,ch1Sound_localizationTask.wav,0.0,"(952, 878)","(-8,-202)",0,-338,,,,,,,,,6,2,44,3,,,,,,,,,,,,,,,,,,,,,,,,,,,,,,,,,,,,,,,,,,,,1191.004446009174,None,1192.1042472971603,None,1193.037468733266,None,1.4730158730158731,0.6494394708424807,1193.037468733266,None,,,,,,,,,,,,,,,,,91,001,2023_May_03_1421,SpeechDraft1Carolyn_lessNoise_PlusLocalization,2021.2.3,60.08027266753204,
,,,,,,,,farLeft,-19.1,5,ch1Sound_localizationTask.wav,-19.1,"(667, 878)","(-293,-202)",-285,-338,,,,,,,,,6,3,45,0,,,,,,,,,,,,,,,,,,,,,,,,,,,,,,,,,,,,,,,,,,,,1193.688032999169,None,1194.7876272820868,None,1195.7209757589735,None,1.307936507936508,0.7162023358978331,1195.7209757589735,None,,,,,,,,,,,,,,,,,91,001,2023_May_03_1421,SpeechDraft1Carolyn_lessNoise_PlusLocalization,2021.2.3,60.08027266753204,
,,,,,,,,farRight,19.1,4,ch1Sound_localizationTask.wav,19.1,"(1237, 878)","(277,-202)",285,-338,,,,,,,,,6,4,46,6,,,,,,,,,,,,,,,,,,,,,,,,,,,,,,,,,,,,,,,,,,,,1196.4386282609776,None,1197.537557973992,None,1198.470924958121,None,1.6222222222222222,0.9488472817465663,1198.470924958121,None,,,,,,,,,,,,,,,,,91,001,2023_May_03_1421,SpeechDraft1Carolyn_lessNoise_PlusLocalization,2021.2.3,60.08027266753204,
,,,,,,,,midLeft,-13.0,2,ch1Sound_localizationTask.wav,-13.0,"(762, 878)","(-198,-202)",-190,-338,,,,,,,,,6,5,47,1,,,,,,,,,,,,,,,,,,,,,,,,,,,,,,,,,,,,,,,,,,,,1199.4211952444166,None,1200.5209871293046,None,1201.4542976929806,None,1.3132275132275133,1.0837078308686614,1201.4542976929806,None,,,,,,,,,,,,,,,,,91,001,2023_May_03_1421,SpeechDraft1Carolyn_lessNoise_PlusLocalization,2021.2.3,60.08027266753204,
,,,,,,,,nearRight,6.5,0,ch1Sound_localizationTask.wav,6.5,"(1047, 878)","(87, -202)",95,-338,,,,,,,,,6,6,48,4,,,,,,,,,,,,,,,,,,,,,,,,,,,,,,,,,,,,,,,,,,,,1202.5545272533782,None,1203.6542928609997,None,1204.5874869590625,None,1.5285714285714285,0.816204315982759,1204.5874869590625,None,,,,,,,,,,,,,,,,,91,001,2023_May_03_1421,SpeechDraft1Carolyn_lessNoise_PlusLocalization,2021.2.3,60.08027266753204,
,,,,,,,,farLeft,-19.1,5,ch1Sound_localizationTask.wav,-19.1,"(667, 878)","(-293,-202)",-285,-338,,,,,,,,,7,0,49,0,,,,,,,,,,,,,,,,,,,,,,,,,,,,,,,,,,,,,,,,,,,,1205.4048424940556,None,1206.5041980803944,None,1207.437598075252,None,1.283068783068783,0.9677874753251672,1207.437598075252,None,,,,,,,,,,,,,,,,,91,001,2023_May_03_1421,SpeechDraft1Carolyn_lessNoise_PlusLocalization,2021.2.3,60.08027266753204,
,,,,,,,,farRight,19.1,4,ch1Sound_localizationTask.wav,19.1,"(1237, 878)","(277,-202)",285,-338,,,,,,,,,7,1,50,6,,,,,,,,,,,,,,,,,,,,,,,,,,,,,,,,,,,,,,,,,,,,1208.4211401320063,None,1209.520913720131,None,1210.4542414844036,None,1.6666666666666667,0.8497375170700252,1210.4542414844036,None,,,,,,,,,,,,,,,,,91,001,2023_May_03_1421,SpeechDraft1Carolyn_lessNoise_PlusLocalization,2021.2.3,60.08027266753204,
,,,,,,,,nearLeft,-6.5,1,ch1Sound_localizationTask.wav,-6.5,"(857, 878)","(-103,-202)",-95,-338,,,,,,,,,7,2,51,2,,,,,,,,,,,,,,,,,,,,,,,,,,,,,,,,,,,,,,,,,,,,1211.3048220882192,None,1212.4043433503248,None,1213.3374614953063,None,1.4211640211640213,0.6995993722230196,1213.3374614953063,None,,,,,,,,,,,,,,,,,91,001,2023_May_03_1421,SpeechDraft1Carolyn_lessNoise_PlusLocalization,2021.2.3,60.08027266753204,
,,,,,,,,midRight,13.0,3,ch1Sound_localizationTask.wav,13.0,"(1142, 878)","(182, -202)",190,-338,,,,,,,,,7,3,52,5,,,,,,,,,,,,,,,,,,,,,,,,,,,,,,,,,,,,,,,,,,,,1214.0382269993424,None,1215.1375401671976,None,1216.0709959031083,None,1.5703703703703704,0.598839973565191,1216.0709959031083,None,,,,,,,,,,,,,,,,,91,001,2023_May_03_1421,SpeechDraft1Carolyn_lessNoise_PlusLocalization,2021.2.3,60.08027266753204,
,,,,,,,,nearLeft,-6.5,1,ch1Sound_localizationTask.wav,-6.5,"(857, 878)","(-103,-202)",-95,-338,,,,,,,,,7,4,53,2,,,,,,,,,,,,,,,,,,,,,,,,,,,,,,,,,,,,,,,,,,,,1216.6723529752344,None,1217.7877403991297,None,1218.7043789969757,None,1.4243386243386245,0.749643821734935,1218.7043789969757,None,,,,,,,,,,,,,,,,,91,001,2023_May_03_1421,SpeechDraft1Carolyn_lessNoise_PlusLocalization,2021.2.3,60.08027266753204,
,,,,,,,,center,0.0,6,ch1Sound_localizationTask.wav,0.0,"(952, 878)","(-8,-202)",0,-338,,,,,,,,,7,5,54,3,,,,,,,,,,,,,,,,,,,,,,,,,,,,,,,,,,,,,,,,,,,,1219.4550132160075,None,1220.5541390404105,None,1221.4877321100794,None,1.5206349206349206,0.6992630860768259,1221.4877321100794,None,,,,,,,,,,,,,,,,,91,001,2023_May_03_1421,SpeechDraft1Carolyn_lessNoise_PlusLocalization,2021.2.3,60.08027266753204,
,,,,,,,,farLeft,-19.1,5,ch1Sound_localizationTask.wav,-19.1,"(667, 878)","(-293,-202)",-285,-338,,,,,,,,,7,6,55,0,,,,,,,,,,,,,,,,,,,,,,,,,,,,,,,,,,,,,,,,,,,,1222.1883993791416,None,1223.2875474491157,None,1224.2208573343232,None,1.2947089947089947,0.866903122048825,1224.2208573343232,None,,,,,,,,,,,,,,,,,91,001,2023_May_03_1421,SpeechDraft1Carolyn_lessNoise_PlusLocalization,2021.2.3,60.08027266753204,
,,,,,,,,,,,,,,,,,,,,,,,,,,,,,,,,,,,,,,,,,,,,,,,,,,,,,,,,,,,,,,,,,,,,,,,,,,,,,,,,,,space,27.68911460088566,1225.1878493763506,None,,,,,,,,,,,,,91,001,2023_May_03_1421,SpeechDraft1Carolyn_lessNoise_PlusLocalization,2021.2.3,60.08027266753204,
,,,,,,,,nearLeft,-6.5,1,ch1Sound_localizationTask.wav,-6.5,"(857, 878)","(-103,-202)",-95,-338,,,,,,,,,,,,,0,0,0,2,,,,,,,,,,,,,,,,,,,,,,,,,,,,,,,,,,,,,,,,1252.9209404690191,None,,,1255.9541461523622,None,1.438095238095238,1.2186637800186872,1255.9541461523622,None,,,,,1225.1878493763506,None,1253.9214844182134,None,1254.1046335082501,1254.1212318809703,,,,,,,91,001,2023_May_03_1421,SpeechDraft1Carolyn_lessNoise_PlusLocalization,2021.2.3,60.08027266753204,
,,,,,,,,midRight,13.0,3,ch1Sound_localizationTask.wav,13.0,"(1142, 878)","(182, -202)",190,-338,,,,,,,,,,,,,0,1,1,5,,,,,,,,,,,,,,,,,,,,,,,,,,,,,,,,,,,,,,,,1257.1715070032515,None,,,1260.1876313020475,None,1.5957671957671957,0.8494961857795715,1260.1876313020475,None,,,,,,,1258.1711790403351,None,1258.3546215831302,1258.3713699672371,,,,,,,91,001,2023_May_03_1421,SpeechDraft1Carolyn_lessNoise_PlusLocalization,2021.2.3,60.08027266753204,
,,,,,,,,nearLeft,-6.5,1,ch1Sound_localizationTask.wav,-6.5,"(857, 878)","(-103,-202)",-95,-338,,,,,,,,,,,,,0,2,2,2,,,,,,,,,,,,,,,,,,,,,,,,,,,,,,,,,,,,,,,,1261.0384337590076,None,,,1264.0543651813641,None,1.438095238095238,0.9162023942917585,1264.0543651813641,None,,,,,,,1262.0379287423566,None,1262.2212749491446,1262.2380662951618,,,,,,,91,001,2023_May_03_1421,SpeechDraft1Carolyn_lessNoise_PlusLocalization,2021.2.3,60.08027266753204,
,,,,,,,,midLeft,-13.0,2,ch1Sound_localizationTask.wav,-13.0,"(762, 878)","(-198,-202)",-190,-338,,,,,,,,,,,,,0,3,3,1,,,,,,,,,,,,,,,,,,,,,,,,,,,,,,,,,,,,,,,,1264.9713668553159,None,,,1267.9876475050114,None,1.397883597883598,0.7664313837885857,1267.9876475050114,None,,,,,,,1265.9712985213846,None,1266.1546886172146,1266.171477457974,,,,,,,91,001,2023_May_03_1421,SpeechDraft1Carolyn_lessNoise_PlusLocalization,2021.2.3,60.08027266753204,
,,,,,,,,farRight,19.1,4,ch1Sound_localizationTask.wav,19.1,"(1237, 878)","(277,-202)",285,-338,,,,,,,,,,,,,0,4,4,6,,,,,,,,,,,,,,,,,,,,,,,,,,,,,,,,,,,,,,,,1268.7713193204254,None,,,1271.787711462006,None,1.680952380952381,0.8494588220492005,1271.787711462006,None,,,,,,,1269.7714638411999,None,1269.9546095151454,1269.9713355260901,,,,,,,91,001,2023_May_03_1421,SpeechDraft1Carolyn_lessNoise_PlusLocalization,2021.2.3,60.08027266753204,
,,,,,,,,farLeft,-19.1,5,ch1Sound_localizationTask.wav,-19.1,"(667, 878)","(-293,-202)",-285,-338,,,,,,,,,,,,,0,5,5,0,,,,,,,,,,,,,,,,,,,,,,,,,,,,,,,,,,,,,,,,1272.639115460217,None,,,1275.6710242801346,None,1.325925925925926,0.9508295441046357,1275.6710242801346,None,,,,,,,1273.6545431572013,None,1273.8378735003062,1273.854599156417,,,,,,,91,001,2023_May_03_1421,SpeechDraft1Carolyn_lessNoise_PlusLocalization,2021.2.3,60.08027266753204,
,,,,,,,,nearRight,6.5,0,ch1Sound_localizationTask.wav,6.5,"(1047, 878)","(87, -202)",95,-338,,,,,,,,,,,,,0,6,6,4,,,,,,,,,,,,,,,,,,,,,,,,,,,,,,,,,,,,,,,,1276.6379490443505,None,,,1279.6543025812134,None,1.5544973544973546,1.0836861580610275,1279.6543025812134,None,,,,,,,1277.6380721833557,None,1277.8213439621031,1277.8380603333935,,,,,,,91,001,2023_May_03_1421,SpeechDraft1Carolyn_lessNoise_PlusLocalization,2021.2.3,60.08027266753204,
,,,,,,,,nearRight,6.5,0,ch1Sound_localizationTask.wav,6.5,"(1047, 878)","(87, -202)",95,-338,,,,,,,,,,,,,1,0,7,4,,,,,,,,,,,,,,,,,,,,,,,,,,,,,,,,,,,,,,,,1280.754670615308,None,,,1283.7709423634224,None,1.5455026455026455,0.7998606902547181,1283.7709423634224,None,,,,,,,1281.754670993425,None,1281.9379725861363,1281.954612697009,,,,,,,91,001,2023_May_03_1421,SpeechDraft1Carolyn_lessNoise_PlusLocalization,2021.2.3,60.08027266753204,
,,,,,,,,center,0.0,6,ch1Sound_localizationTask.wav,0.0,"(952, 878)","(-8,-202)",0,-338,,,,,,,,,,,,,1,1,8,3,,,,,,,,,,,,,,,,,,,,,,,,,,,,,,,,,,,,,,,,1284.57235304825,None,,,1287.6042316961102,None,1.4973544973544972,0.5662190187722445,1287.6042316961102,None,,,,,,,1285.5880812113173,None,1285.7713473304175,1285.7878834502771,,,,,,,91,001,2023_May_03_1421,SpeechDraft1Carolyn_lessNoise_PlusLocalization,2021.2.3,60.08027266753204,
,,,,,,,,nearRight,6.5,0,ch1Sound_localizationTask.wav,6.5,"(1047, 878)","(87, -202)",95,-338,,,,,,,,,,,,,1,2,9,4,,,,,,,,,,,,,,,,,,,,,,,,,,,,,,,,,,,,,,,,1288.171283312142,None,,,1291.1876069363207,None,1.5560846560846562,0.8491956652142107,1291.1876069363207,None,,,,,,,1289.1712757903151,None,1289.3546320972964,1289.3713101083413,,,,,,,91,001,2023_May_03_1421,SpeechDraft1Carolyn_lessNoise_PlusLocalization,2021.2.3,60.08027266753204,
,,,,,,,,farRight,19.1,4,ch1Sound_localizationTask.wav,19.1,"(1237, 878)","(277,-202)",285,-338,,,,,,,,,,,,,1,3,10,6,,,,,,,,,,,,,,,,,,,,,,,,,,,,,,,,,,,,,,,,1292.0382765741087,None,,,1295.0544255971909,None,1.6666666666666667,0.76559964613989,1295.0544255971909,None,,,,,,,1293.0380797320977,None,1293.2212403281592,1293.2379020070657,,,,,,,91,001,2023_May_03_1421,SpeechDraft1Carolyn_lessNoise_PlusLocalization,2021.2.3,60.08027266753204,
,,,,,,,,midRight,13.0,3,ch1Sound_localizationTask.wav,13.0,"(1142, 878)","(182, -202)",190,-338,,,,,,,,,,,,,1,4,11,5,,,,,,,,,,,,,,,,,,,,,,,,,,,,,,,,,,,,,,,,1295.8213466620073,None,,,1298.8376091551036,None,1.601058201058201,0.9323510639369488,1298.8376091551036,None,,,,,,,1296.8213140042499,None,1297.0046074101701,1297.0213143932633,,,,,,,91,001,2023_May_03_1421,SpeechDraft1Carolyn_lessNoise_PlusLocalization,2021.2.3,60.08027266753204,
,,,,,,,,center,0.0,6,ch1Sound_localizationTask.wav,0.0,"(952, 878)","(-8,-202)",0,-338,,,,,,,,,,,,,1,5,12,3,,,,,,,,,,,,,,,,,,,,,,,,,,,,,,,,,,,,,,,,1299.7714049792849,None,,,1302.7874748720787,None,1.4936507936507937,0.8991264831274748,1302.7874748720787,None,,,,,,,1300.7713100402616,None,1300.954616329167,1300.971396732144,,,,,,,91,001,2023_May_03_1421,SpeechDraft1Carolyn_lessNoise_PlusLocalization,2021.2.3,60.08027266753204,
,,,,,,,,nearRight,6.5,0,ch1Sound_localizationTask.wav,6.5,"(1047, 878)","(87, -202)",95,-338,,,,,,,,,,,,,1,6,13,4,,,,,,,,,,,,,,,,,,,,,,,,,,,,,,,,,,,,,,,,1303.6879387632944,None,,,1306.7043724060059,None,1.5613756613756613,0.6492040599696338,1306.7043724060059,None,,,,,,,1304.687964485027,None,1304.871206435375,1304.8879994889721,,,,,,,91,001,2023_May_03_1421,SpeechDraft1Carolyn_lessNoise_PlusLocalization,2021.2.3,60.08027266753204,
,,,,,,,,midLeft,-13.0,2,ch1Sound_localizationTask.wav,-13.0,"(762, 878)","(-198,-202)",-190,-338,,,,,,,,,,,,,2,0,14,1,,,,,,,,,,,,,,,,,,,,,,,,,,,,,,,,,,,,,,,,1307.354929315392,None,,,1310.3709617340937,None,1.3973544973544973,0.8318491829559207,1310.3709617340937,None,,,,,,,1308.3546697511338,None,1308.53802051628,1308.5546171232127,,,,,,,91,001,2023_May_03_1421,SpeechDraft1Carolyn_lessNoise_PlusLocalization,2021.2.3,60.08027266753204,
,,,,,,,,farLeft,-19.1,5,ch1Sound_localizationTask.wav,-19.1,"(667, 878)","(-293,-202)",-285,-338,,,,,,,,,,,,,2,1,15,0,,,,,,,,,,,,,,,,,,,,,,,,,,,,,,,,,,,,,,,,1311.2047926792875,None,,,1314.2211065404117,None,1.374074074074074,0.6993543477728963,1314.2211065404117,None,,,,,,,1312.2046384471469,None,1312.3879423611797,1312.4046842344105,,,,,,,91,001,2023_May_03_1421,SpeechDraft1Carolyn_lessNoise_PlusLocalization,2021.2.3,60.08027266753204,
,,,,,,,,farLeft,-19.1,5,ch1Sound_localizationTask.wav,-19.1,"(667, 878)","(-293,-202)",-285,-338,,,,,,,,,,,,,2,2,16,0,,,,,,,,,,,,,,,,,,,,,,,,,,,,,,,,,,,,,,,,1314.9213378312998,None,,,1317.937667739112,None,1.3735449735449734,0.49871160881593823,1317.937667739112,None,,,,,,,1315.9214143613353,None,1316.10463421233,1316.121441968251,,,,,,,91,001,2023_May_03_1421,SpeechDraft1Carolyn_lessNoise_PlusLocalization,2021.2.3,60.08027266753204,
,,,,,,,,midLeft,-13.0,2,ch1Sound_localizationTask.wav,-13.0,"(762, 878)","(-198,-202)",-190,-338,,,,,,,,,,,,,2,3,17,1,,,,,,,,,,,,,,,,,,,,,,,,,,,,,,,,,,,,,,,,1318.438689689152,None,,,1321.4544734503143,None,1.4174603174603175,0.9318646467290819,1321.4544734503143,None,,,,,,,1319.438125493005,None,1319.6213094950654,1319.6379449511878,,,,,,,91,001,2023_May_03_1421,SpeechDraft1Carolyn_lessNoise_PlusLocalization,2021.2.3,60.08027266753204,
,,,,,,,,center,0.0,6,ch1Sound_localizationTask.wav,0.0,"(952, 878)","(-8,-202)",0,-338,,,,,,,,,,,,,2,4,18,3,,,,,,,,,,,,,,,,,,,,,,,,,,,,,,,,,,,,,,,,1322.3881391650066,None,,,1325.4044345063157,None,1.5132275132275133,0.7656523380428553,1325.4044345063157,None,,,,,,,1323.3880361793563,None,1323.5714577492326,1323.5880762231536,,,,,,,91,001,2023_May_03_1421,SpeechDraft1Carolyn_lessNoise_PlusLocalization,2021.2.3,60.08027266753204,
,,,,,,,,farLeft,-19.1,5,ch1Sound_localizationTask.wav,-19.1,"(667, 878)","(-293,-202)",-285,-338,,,,,,,,,,,,,2,5,19,0,,,,,,,,,,,,,,,,,,,,,,,,,,,,,,,,,,,,,,,,1326.172919924371,None,,,1329.2043340541422,None,1.3444444444444446,0.7984300097450614,1329.2043340541422,None,,,,,,,1327.1880573430099,None,1327.3715601773001,1327.3880397411995,,,,,,,91,001,2023_May_03_1421,SpeechDraft1Carolyn_lessNoise_PlusLocalization,2021.2.3,60.08027266753204,
,,,,,,,,farRight,19.1,4,ch1Sound_localizationTask.wav,19.1,"(1237, 878)","(277,-202)",285,-338,,,,,,,,,,,,,2,6,20,6,,,,,,,,,,,,,,,,,,,,,,,,,,,,,,,,,,,,,,,,1330.0047249291092,None,,,1333.0213088062592,None,1.644973544973545,0.6327775400131941,1333.0213088062592,None,,,,,,,1331.0047579579987,None,1331.187952007167,1331.2047244850546,,,,,,,91,001,2023_May_03_1421,SpeechDraft1Carolyn_lessNoise_PlusLocalization,2021.2.3,60.08027266753204,
,,,,,,,,farRight,19.1,4,ch1Sound_localizationTask.wav,19.1,"(1237, 878)","(277,-202)",285,-338,,,,,,,,,,,,,3,0,21,6,,,,,,,,,,,,,,,,,,,,,,,,,,,,,,,,,,,,,,,,1333.6550025600009,None,,,1336.6710869711824,None,1.6608465608465608,1.0164567837491632,1336.6710869711824,None,,,,,,,1334.6547486600466,None,1334.837991928216,1334.8547427272424,,,,,,,91,001,2023_May_03_1421,SpeechDraft1Carolyn_lessNoise_PlusLocalization,2021.2.3,60.08027266753204,
,,,,,,,,nearLeft,-6.5,1,ch1Sound_localizationTask.wav,-6.5,"(857, 878)","(-103,-202)",-95,-338,,,,,,,,,,,,,3,1,22,2,,,,,,,,,,,,,,,,,,,,,,,,,,,,,,,,,,,,,,,,1337.704916142393,None,,,1340.72115755314,None,1.4439153439153438,0.74997637886554,1340.72115755314,None,,,,,,,1338.704690598417,None,1338.8880230314098,1338.9046126771718,,,,,,,91,001,2023_May_03_1421,SpeechDraft1Carolyn_lessNoise_PlusLocalization,2021.2.3,60.08027266753204,
,,,,,,,,midRight,13.0,3,ch1Sound_localizationTask.wav,13.0,"(1142, 878)","(182, -202)",190,-338,,,,,,,,,,,,,3,2,23,5,,,,,,,,,,,,,,,,,,,,,,,,,,,,,,,,,,,,,,,,1341.488032637164,None,,,1344.5044228350744,None,1.6031746031746033,0.7146740877069533,1344.5044228350744,None,,,,,,,1342.4880183660425,None,1342.6713600591756,1342.6880650660023,,,,,,,91,001,2023_May_03_1421,SpeechDraft1Carolyn_lessNoise_PlusLocalization,2021.2.3,60.08027266753204,
,,,,,,,,farLeft,-19.1,5,ch1Sound_localizationTask.wav,-19.1,"(667, 878)","(-293,-202)",-285,-338,,,,,,,,,,,,,3,3,24,0,,,,,,,,,,,,,,,,,,,,,,,,,,,,,,,,,,,,,,,,1345.2212928603403,None,,,1348.2376156551763,None,1.3306878306878307,0.683095240034163,1348.2376156551763,None,,,,,,,1346.2213246230967,None,1346.4047118583694,1346.421321769245,,,,,,,91,001,2023_May_03_1421,SpeechDraft1Carolyn_lessNoise_PlusLocalization,2021.2.3,60.08027266753204,
,,,,,,,,midRight,13.0,3,ch1Sound_localizationTask.wav,13.0,"(1142, 878)","(182, -202)",190,-338,,,,,,,,,,,,,3,4,25,5,,,,,,,,,,,,,,,,,,,,,,,,,,,,,,,,,,,,,,,,1348.9381461674348,None,,,1351.9544272101484,None,1.5904761904761906,0.9165991428308189,1351.9544272101484,None,,,,,,,1349.9380846130662,None,1350.121395368129,1350.138083955273,,,,,,,91,001,2023_May_03_1421,SpeechDraft1Carolyn_lessNoise_PlusLocalization,2021.2.3,60.08027266753204,
,,,,,,,,farRight,19.1,4,ch1Sound_localizationTask.wav,19.1,"(1237, 878)","(277,-202)",285,-338,,,,,,,,,,,,,3,5,26,6,,,,,,,,,,,,,,,,,,,,,,,,,,,,,,,,,,,,,,,,1352.8727648654021,None,,,1355.9043215559795,None,1.656084656084656,0.5990590192377567,1355.9043215559795,None,,,,,,,1353.8880609790795,None,1354.071527492255,1354.0880522532389,,,,,,,91,001,2023_May_03_1421,SpeechDraft1Carolyn_lessNoise_PlusLocalization,2021.2.3,60.08027266753204,
,,,,,,,,center,0.0,6,ch1Sound_localizationTask.wav,0.0,"(952, 878)","(-8,-202)",0,-338,,,,,,,,,,,,,3,6,27,3,,,,,,,,,,,,,,,,,,,,,,,,,,,,,,,,,,,,,,,,1356.5052170432173,None,,,1359.5211389632896,None,1.4925925925925925,0.8986237859353423,1359.5211389632896,None,,,,,,,1357.5049334070645,None,1357.688009086065,1357.7047894219868,,,,,,,91,001,2023_May_03_1421,SpeechDraft1Carolyn_lessNoise_PlusLocalization,2021.2.3,60.08027266753204,
,,,,,,,,midLeft,-13.0,2,ch1Sound_localizationTask.wav,-13.0,"(762, 878)","(-198,-202)",-190,-338,,,,,,,,,,,,,4,0,28,1,,,,,,,,,,,,,,,,,,,,,,,,,,,,,,,,,,,,,,,,1360.4213415472768,None,,,1363.4378062053584,None,1.4010582010582011,0.8000994478352368,1363.4378062053584,None,,,,,,,1361.4214562950656,None,1361.6046170042828,1361.621420179028,,,,,,,91,001,2023_May_03_1421,SpeechDraft1Carolyn_lessNoise_PlusLocalization,2021.2.3,60.08027266753204,
,,,,,,,,farRight,19.1,4,ch1Sound_localizationTask.wav,19.1,"(1237, 878)","(277,-202)",285,-338,,,,,,,,,,,,,4,1,29,6,,,,,,,,,,,,,,,,,,,,,,,,,,,,,,,,,,,,,,,,1364.2388420291245,None,,,1367.2544653699733,None,1.6677248677248677,0.6487851999700069,1367.2544653699733,None,,,,,,,1365.238057214301,None,1365.4213447151706,1365.4380161520094,,,,,,,91,001,2023_May_03_1421,SpeechDraft1Carolyn_lessNoise_PlusLocalization,2021.2.3,60.08027266753204,
,,,,,,,,midLeft,-13.0,2,ch1Sound_localizationTask.wav,-13.0,"(762, 878)","(-198,-202)",-190,-338,,,,,,,,,,,,,4,2,30,1,,,,,,,,,,,,,,,,,,,,,,,,,,,,,,,,,,,,,,,,1367.9047287623398,None,,,1370.9211480501108,None,1.4042328042328043,0.8183369468897581,1370.9211480501108,None,,,,,,,1368.904759857338,None,1369.088033972308,1369.1046535903588,,,,,,,91,001,2023_May_03_1421,SpeechDraft1Carolyn_lessNoise_PlusLocalization,2021.2.3,60.08027266753204,
,,,,,,,,nearRight,6.5,0,ch1Sound_localizationTask.wav,6.5,"(1047, 878)","(87, -202)",95,-338,,,,,,,,,,,,,4,3,31,4,,,,,,,,,,,,,,,,,,,,,,,,,,,,,,,,,,,,,,,,1371.7548235310242,None,,,1374.771157602314,None,1.5497354497354499,0.7167853657156229,1374.771157602314,None,,,,,,,1372.7547511314042,None,1372.9380456511863,1372.9547777762637,,,,,,,91,001,2023_May_03_1421,SpeechDraft1Carolyn_lessNoise_PlusLocalization,2021.2.3,60.08027266753204,
,,,,,,,,midLeft,-13.0,2,ch1Sound_localizationTask.wav,-13.0,"(762, 878)","(-198,-202)",-190,-338,,,,,,,,,,,,,4,4,32,1,,,,,,,,,,,,,,,,,,,,,,,,,,,,,,,,,,,,,,,,1375.488677564077,None,,,1378.504507692065,None,1.392063492063492,0.8001959803514183,1378.504507692065,None,,,,,,,1376.4880979764275,None,1376.6714029181749,1376.6882747551426,,,,,,,91,001,2023_May_03_1421,SpeechDraft1Carolyn_lessNoise_PlusLocalization,2021.2.3,60.08027266753204,
,,,,,,,,midRight,13.0,3,ch1Sound_localizationTask.wav,13.0,"(1142, 878)","(182, -202)",190,-338,,,,,,,,,,,,,4,5,33,5,,,,,,,,,,,,,,,,,,,,,,,,,,,,,,,,,,,,,,,,1379.3213731059805,None,,,1382.3378993491642,None,1.6037037037037036,0.7835784400813282,1382.3378993491642,None,,,,,,,1380.3213801113889,None,1380.5047643813305,1380.5214450713247,,,,,,,91,001,2023_May_03_1421,SpeechDraft1Carolyn_lessNoise_PlusLocalization,2021.2.3,60.08027266753204,
,,,,,,,,center,0.0,6,ch1Sound_localizationTask.wav,0.0,"(952, 878)","(-8,-202)",0,-338,,,,,,,,,,,,,4,6,34,3,,,,,,,,,,,,,,,,,,,,,,,,,,,,,,,,,,,,,,,,1383.1381052993238,None,,,1386.1546269552782,None,1.4915343915343915,0.7490651528351009,1386.1546269552782,None,,,,,,,1384.138050659094,None,1384.321404489223,1384.3380827531219,,,,,,,91,001,2023_May_03_1421,SpeechDraft1Carolyn_lessNoise_PlusLocalization,2021.2.3,60.08027266753204,
,,,,,,,,midLeft,-13.0,2,ch1Sound_localizationTask.wav,-13.0,"(762, 878)","(-198,-202)",-190,-338,,,,,,,,,,,,,5,0,35,1,,,,,,,,,,,,,,,,,,,,,,,,,,,,,,,,,,,,,,,,1386.9048979533836,None,,,1389.9211097471416,None,1.4068783068783068,0.7505766851827502,1389.9211097471416,None,,,,,,,1387.904754335992,None,1388.0880546872504,1388.1047479431145,,,,,,,91,001,2023_May_03_1421,SpeechDraft1Carolyn_lessNoise_PlusLocalization,2021.2.3,60.08027266753204,
,,,,,,,,nearLeft,-6.5,1,ch1Sound_localizationTask.wav,-6.5,"(857, 878)","(-103,-202)",-95,-338,,,,,,,,,,,,,5,1,36,2,,,,,,,,,,,,,,,,,,,,,,,,,,,,,,,,,,,,,,,,1390.6881739012897,None,,,1393.7044216543436,None,1.4582010582010583,0.5997895188629627,1393.7044216543436,None,,,,,,,1391.6881584320217,None,1391.8713856982067,1391.8880900242366,,,,,,,91,001,2023_May_03_1421,SpeechDraft1Carolyn_lessNoise_PlusLocalization,2021.2.3,60.08027266753204,
,,,,,,,,farRight,19.1,4,ch1Sound_localizationTask.wav,19.1,"(1237, 878)","(277,-202)",285,-338,,,,,,,,,,,,,5,2,37,6,,,,,,,,,,,,,,,,,,,,,,,,,,,,,,,,,,,,,,,,1394.3052075821906,None,,,1397.3211361551657,None,1.6582010582010582,0.7156135700643063,1397.3211361551657,None,,,,,,,1395.3047394822352,None,1395.4881466743536,1395.5047493972816,,,,,,,91,001,2023_May_03_1421,SpeechDraft1Carolyn_lessNoise_PlusLocalization,2021.2.3,60.08027266753204,
,,,,,,,,midRight,13.0,3,ch1Sound_localizationTask.wav,13.0,"(1142, 878)","(182, -202)",190,-338,,,,,,,,,,,,,5,3,38,5,,,,,,,,,,,,,,,,,,,,,,,,,,,,,,,,,,,,,,,,1398.0395021750592,None,,,1401.0713329422288,None,1.615873015873016,0.7498274762183428,1401.0713329422288,None,,,,,,,1399.0547787020914,None,1399.238145699259,1399.254730750341,,,,,,,91,001,2023_May_03_1421,SpeechDraft1Carolyn_lessNoise_PlusLocalization,2021.2.3,60.08027266753204,
,,,,,,,,midRight,13.0,3,ch1Sound_localizationTask.wav,13.0,"(1142, 878)","(182, -202)",190,-338,,,,,,,,,,,,,5,4,39,5,,,,,,,,,,,,,,,,,,,,,,,,,,,,,,,,,,,,,,,,1401.8218181612901,None,,,1404.8378148372285,None,1.5756613756613755,0.7994524128735065,1404.8378148372285,None,,,,,,,1402.821432496421,None,1403.0048305629753,1403.021393806208,,,,,,,91,001,2023_May_03_1421,SpeechDraft1Carolyn_lessNoise_PlusLocalization,2021.2.3,60.08027266753204,
,,,,,,,,center,0.0,6,ch1Sound_localizationTask.wav,0.0,"(952, 878)","(-8,-202)",0,-338,,,,,,,,,,,,,5,5,40,3,,,,,,,,,,,,,,,,,,,,,,,,,,,,,,,,,,,,,,,,1405.6381206330843,None,,,1408.654520336073,None,1.511111111111111,0.9661392830312252,1408.654520336073,None,,,,,,,1406.638092069421,None,1406.8214567513205,1406.8381420942023,,,,,,,91,001,2023_May_03_1421,SpeechDraft1Carolyn_lessNoise_PlusLocalization,2021.2.3,60.08027266753204,
,,,,,,,,center,0.0,6,ch1Sound_localizationTask.wav,0.0,"(952, 878)","(-8,-202)",0,-338,,,,,,,,,,,,,5,6,41,3,,,,,,,,,,,,,,,,,,,,,,,,,,,,,,,,,,,,,,,,1409.6216436270624,None,,,1412.637829604093,None,1.508994708994709,0.9156302707269788,1412.637829604093,None,,,,,,,1410.6215244210325,None,1410.804745499976,1410.8215305861086,,,,,,,91,001,2023_May_03_1421,SpeechDraft1Carolyn_lessNoise_PlusLocalization,2021.2.3,60.08027266753204,
,,,,,,,,nearLeft,-6.5,1,ch1Sound_localizationTask.wav,-6.5,"(857, 878)","(-103,-202)",-95,-338,,,,,,,,,,,,,6,0,42,2,,,,,,,,,,,,,,,,,,,,,,,,,,,,,,,,,,,,,,,,1413.554819652345,None,,,1416.5712483460084,None,1.4566137566137567,0.9336236449889839,1416.5712483460084,None,,,,,,,1414.5548543720506,None,1414.7380728879943,1414.754809024278,,,,,,,91,001,2023_May_03_1421,SpeechDraft1Carolyn_lessNoise_PlusLocalization,2021.2.3,60.08027266753204,
,,,,,,,,nearRight,6.5,0,ch1Sound_localizationTask.wav,6.5,"(1047, 878)","(87, -202)",95,-338,,,,,,,,,,,,,6,1,43,4,,,,,,,,,,,,,,,,,,,,,,,,,,,,,,,,,,,,,,,,1417.5215996252373,None,,,1420.5379195762798,None,1.5412698412698411,0.7338414490222931,1420.5379195762798,None,,,,,,,1418.5214285352267,None,1418.7048382139765,1418.7214699289761,,,,,,,91,001,2023_May_03_1421,SpeechDraft1Carolyn_lessNoise_PlusLocalization,2021.2.3,60.08027266753204,
,,,,,,,,farLeft,-19.1,5,ch1Sound_localizationTask.wav,-19.1,"(667, 878)","(-293,-202)",-285,-338,,,,,,,,,,,,,6,2,44,0,,,,,,,,,,,,,,,,,,,,,,,,,,,,,,,,,,,,,,,,1421.2881571790203,None,,,1424.3045178782195,None,1.3423280423280424,0.8344258889555931,1424.3045178782195,None,,,,,,,1422.2881778222509,None,1422.4716046722606,1422.488105754368,,,,,,,91,001,2023_May_03_1421,SpeechDraft1Carolyn_lessNoise_PlusLocalization,2021.2.3,60.08027266753204,
,,,,,,,,midLeft,-13.0,2,ch1Sound_localizationTask.wav,-13.0,"(762, 878)","(-198,-202)",-190,-338,,,,,,,,,,,,,6,3,45,1,,,,,,,,,,,,,,,,,,,,,,,,,,,,,,,,,,,,,,,,1425.15479681734,None,,,1428.1711164354347,None,1.4,0.8653059448115528,1428.1711164354347,None,,,,,,,1426.1548436330631,None,1426.3381732413545,1426.3547831210308,,,,,,,91,001,2023_May_03_1421,SpeechDraft1Carolyn_lessNoise_PlusLocalization,2021.2.3,60.08027266753204,
,,,,,,,,midRight,13.0,3,ch1Sound_localizationTask.wav,13.0,"(1142, 878)","(182, -202)",190,-338,,,,,,,,,,,,,6,4,46,5,,,,,,,,,,,,,,,,,,,,,,,,,,,,,,,,,,,,,,,,1429.038751060143,None,,,1432.0545775373466,None,1.5878306878306878,0.7498185653239489,1432.0545775373466,None,,,,,,,1430.038097990211,None,1430.2214385690168,1430.2381062791683,,,,,,,91,001,2023_May_03_1421,SpeechDraft1Carolyn_lessNoise_PlusLocalization,2021.2.3,60.08027266753204,
,,,,,,,,farLeft,-19.1,5,ch1Sound_localizationTask.wav,-19.1,"(667, 878)","(-293,-202)",-285,-338,,,,,,,,,,,,,6,5,47,0,,,,,,,,,,,,,,,,,,,,,,,,,,,,,,,,,,,,,,,,1432.8051491882652,None,,,1435.8212149119936,None,1.3423280423280424,0.7819246239960194,1435.8212149119936,None,,,,,,,1433.804829673376,None,1433.9881126671098,1434.0048878681846,,,,,,,91,001,2023_May_03_1421,SpeechDraft1Carolyn_lessNoise_PlusLocalization,2021.2.3,60.08027266753204,
,,,,,,,,nearRight,6.5,0,ch1Sound_localizationTask.wav,6.5,"(1047, 878)","(87, -202)",95,-338,,,,,,,,,,,,,6,6,48,4,,,,,,,,,,,,,,,,,,,,,,,,,,,,,,,,,,,,,,,,1436.6049396130256,None,,,1439.621234621387,None,1.5465608465608467,0.9151179967448115,1439.621234621387,None,,,,,,,1437.604785496369,None,1437.788105153013,1437.8047520969994,,,,,,,91,001,2023_May_03_1421,SpeechDraft1Carolyn_lessNoise_PlusLocalization,2021.2.3,60.08027266753204,
,,,,,,,,farRight,19.1,4,ch1Sound_localizationTask.wav,19.1,"(1237, 878)","(277,-202)",285,-338,,,,,,,,,,,,,7,0,49,6,,,,,,,,,,,,,,,,,,,,,,,,,,,,,,,,,,,,,,,,1440.5381529871374,None,,,1443.5544871683232,None,1.698941798941799,0.7826877268962562,1443.5544871683232,None,,,,,,,1441.5381143852137,None,1441.7214732212014,1441.7381443912163,,,,,,,91,001,2023_May_03_1421,SpeechDraft1Carolyn_lessNoise_PlusLocalization,2021.2.3,60.08027266753204,
,,,,,,,,nearLeft,-6.5,1,ch1Sound_localizationTask.wav,-6.5,"(857, 878)","(-103,-202)",-95,-338,,,,,,,,,,,,,7,1,50,2,,,,,,,,,,,,,,,,,,,,,,,,,,,,,,,,,,,,,,,,1444.3384275352582,None,,,1447.3546416992322,None,1.4428571428571428,1.0329514658078551,1447.3546416992322,None,,,,,,,1445.3383326083422,None,1445.5216344441287,1445.538170746062,,,,,,,91,001,2023_May_03_1421,SpeechDraft1Carolyn_lessNoise_PlusLocalization,2021.2.3,60.08027266753204,
,,,,,,,,nearLeft,-6.5,1,ch1Sound_localizationTask.wav,-6.5,"(857, 878)","(-103,-202)",-95,-338,,,,,,,,,,,,,7,2,51,2,,,,,,,,,,,,,,,,,,,,,,,,,,,,,,,,,,,,,,,,1448.388908663299,None,,,1451.4044955093414,None,1.4507936507936507,0.6324506658129394,1451.4044955093414,None,,,,,,,1449.3881798041984,None,1449.5714831622317,1449.5882321172394,,,,,,,91,001,2023_May_03_1421,SpeechDraft1Carolyn_lessNoise_PlusLocalization,2021.2.3,60.08027266753204,
,,,,,,,,nearLeft,-6.5,1,ch1Sound_localizationTask.wav,-6.5,"(857, 878)","(-103,-202)",-95,-338,,,,,,,,,,,,,7,3,52,2,,,,,,,,,,,,,,,,,,,,,,,,,,,,,,,,,,,,,,,,1452.0385178872384,None,,,1455.0546825043857,None,1.4439153439153438,0.8329147580079734,1455.0546825043857,None,,,,,,,1453.038240188267,None,1453.2214520042762,1453.2382782483473,,,,,,,91,001,2023_May_03_1421,SpeechDraft1Carolyn_lessNoise_PlusLocalization,2021.2.3,60.08027266753204,
,,,,,,,,center,0.0,6,ch1Sound_localizationTask.wav,0.0,"(952, 878)","(-8,-202)",0,-338,,,,,,,,,,,,,7,4,53,3,,,,,,,,,,,,,,,,,,,,,,,,,,,,,,,,,,,,,,,,1455.8886676272377,None,,,1458.904593648389,None,1.4978835978835978,0.7497305041179061,1458.904593648389,None,,,,,,,1456.8881265083328,None,1457.0714253121987,1457.088119322434,,,,,,,91,001,2023_May_03_1421,SpeechDraft1Carolyn_lessNoise_PlusLocalization,2021.2.3,60.08027266753204,
,,,,,,,,farLeft,-19.1,5,ch1Sound_localizationTask.wav,-19.1,"(667, 878)","(-293,-202)",-285,-338,,,,,,,,,,,,,7,5,54,0,,,,,,,,,,,,,,,,,,,,,,,,,,,,,,,,,,,,,,,,1459.6561037329957,None,,,1462.6879358412698,None,1.3417989417989418,0.6510697961784899,1462.6879358412698,None,,,,,,,1460.6715650991537,None,1460.8549079312943,1460.8714927900583,,,,,,,91,001,2023_May_03_1421,SpeechDraft1Carolyn_lessNoise_PlusLocalization,2021.2.3,60.08027266753204,
,,,,,,,,nearRight,6.5,0,ch1Sound_localizationTask.wav,6.5,"(1047, 878)","(87, -202)",95,-338,,,,,,,,,,,,,7,6,55,4,,,,,,,,,,,,,,,,,,,,,,,,,,,,,,,,,,,,,,,,1463.354917848017,None,,,1466.3712353962474,None,1.5518518518518518,0.5496651981957257,1466.3712353962474,None,,,,,,,1464.354852784425,None,1464.5381288863719,1464.554798355326,,,,,,,91,001,2023_May_03_1421,SpeechDraft1Carolyn_lessNoise_PlusLocalization,2021.2.3,60.08027266753204,
,,,,,,,,,,,,,,,,,,,,,,,,,,,,,,,,,,,,,,,,,,,,,,,,,,,,,,,,,,,,,,,,,,,,,,,,,,,,,,,,,,,,,,,,,,,,1466.9222965161316,None,c,145.020075682085,1467.9049391723238,None,91,001,2023_May_03_1421,SpeechDraft1Carolyn_lessNoise_PlusLocalization,2021.2.3,60.08027266753204,
