Audio_Only_Files,Video_Files,Original_Word_List,noiseLevelCode,conditionCodes,noiseLevelFile1,noiseLevelFile2,InstrTextVar,targetSpeakerName,targetSpeakerEccen,targetSpkrChannel,targetSpkrSound,targetVisualDegrees,visStimLoc,visStimLoc2,visStimW,visStimH,practiceTrials.thisRepN,practiceTrials.thisTrialN,practiceTrials.thisN,practiceTrials.thisIndex,trials.thisRepN,trials.thisTrialN,trials.thisN,trials.thisIndex,audLocalLoop.thisRepN,audLocalLoop.thisTrialN,audLocalLoop.thisN,audLocalLoop.thisIndex,visualLocalLoop.thisRepN,visualLocalLoop.thisTrialN,visualLocalLoop.thisN,visualLocalLoop.thisIndex,letsGoAlready.keys,letsGoAlready.rt,letsGoAlready.started,letsGoAlready.stopped,text_2.started,text_2.stopped,text_3.started,text_3.stopped,key_resp_2.keys,key_resp_2.rt,key_resp_2.started,key_resp_2.stopped,text_5.started,text_5.stopped,fixCross.started,fixCross.stopped,fixCross2.started,fixCross2.stopped,answerPrompt.started,answerPrompt.stopped,getAnswer.text,getAnswer.started,getAnswer.stopped,goToNext.keys,goToNext.rt,goToNext.started,goToNext.stopped,stretchBreakTxrt.started,stretchBreakTxrt.stopped,key_resp_3.keys,key_resp_3.rt,key_resp_3.started,key_resp_3.stopped,letsGoLocal.keys,letsGoLocal.rt,letsGoLocal.started,letsGoLocal.stopped,text_4.started,text_4.stopped,prepFixTxt.started,prepFixTxt.stopped,prepFixTxt_2.started,prepFixTxt_2.stopped,respPromptLocal.started,respPromptLocal.stopped,slider.response,slider.rt,slider.started,slider.stopped,letsGoLocal_2.keys,letsGoLocal_2.rt,letsGoLocal_2.started,letsGoLocal_2.stopped,text_7.started,text_7.stopped,prepFixTxt_3.started,prepFixTxt_3.stopped,grating.started,grating.stopped,exitTxt.started,exitTxt.stopped,key_resp.keys,key_resp.rt,key_resp.started,key_resp.stopped,participant,session,date,expName,psychopyVersion,frameRate,
,,,,,,,,,,,,,,,,,,,,,,,,,,,,,,,,,space,29.274943590164185,140.0547096990049,None,,,,,,,,,,,,,,,,,,,,,,,,,,,,,,,,,,,,,,,,,,,,,,,,,,,,,,,,,,,,,,92,001,2023_May_04_1425,SpeechDraft1Carolyn_lessNoise_PlusLocalization,2021.2.3,59.898895695829225,
,,,,,,,,,,,,,,,,,,,,,,,,,,,,,,,,,,,,,140.0547096990049,None,169.45491326926276,None,space,10.443875410128385,169.63782212510705,None,,,,,,,,,,,,,,,,,,,,,,,,,,,,,,,,,,,,,,,,,,,,,,,,,,,,,,92,001,2023_May_04_1425,SpeechDraft1Carolyn_lessNoise_PlusLocalization,2021.2.3,59.898895695829225,
ash.wav,ash.mpg,ash,1,A,Pink_Noise_1_1.wav,Pink_Noise_1_2.wav,"This is an example of an

AUDIO trial",,,,,,,,,,0,0,0,0,,,,,,,,,,,,,,,,,,,,,,,,,180.13757505826652,None,181.12114652618766,None,184.4710684819147,None,185.85455094091594,None,ash,185.85455094091594,None,return,1.8477616319432855,185.9379057479091,None,,,,,,,,,,,,,,,,,,,,,,,,,,,,,,,,,,,,,,,92,001,2023_May_04_1425,SpeechDraft1Carolyn_lessNoise_PlusLocalization,2021.2.3,59.898895695829225,
ash.wav,ash.mpg,ash,1,AV,Pink_Noise_1_1.wav,Pink_Noise_1_2.wav,"This is an example of an

AUDIO + VIDEO  trial",,,,,,,,,,0,1,1,1,,,,,,,,,,,,,,,,,,,,,,,,,187.82087267795578,None,188.82135413121432,None,190.3210700461641,None,191.70458863908425,None,"ash
",191.70458863908425,None,return,1.6698188288137317,191.78784994920716,None,,,,,,,,,,,,,,,,,,,,,,,,,,,,,,,,,,,,,,,92,001,2023_May_04_1425,SpeechDraft1Carolyn_lessNoise_PlusLocalization,2021.2.3,59.898895695829225,
,,,,,,,,,,,,,,,,,,,,,,,,,,,,,,,,,,,,,,,,,,,,,,,,,,,,,,,,,,,,193.5043050982058,None,space,21.17777337739244,193.6878907182254,None,,,,,,,,,,,,,,,,,,,,,,,,,,,,,,,,,92,001,2023_May_04_1425,SpeechDraft1Carolyn_lessNoise_PlusLocalization,2021.2.3,59.898895695829225,
flair.wav,flair.mpg,flair,4,A,Pink_Noise_4_1.wav,Pink_Noise_4_2.wav,,,,,,,,,,,,,,,0,0,0,50,,,,,,,,,,,,,,,,,,,,,,,214.92093957401812,None,216.42119044810534,None,217.78803133033216,None,lay,217.78803133033216,None,return,1.7064575240947306,217.87132601998746,None,,,,,,,,,,,,,,,,,,,,,,,,,,,,,,,,,,,,,,,92,001,2023_May_04_1425,SpeechDraft1Carolyn_lessNoise_PlusLocalization,2021.2.3,59.898895695829225,
tense.wav,tense.mpg,tense,2,AV,Pink_Noise_2_1.wav,Pink_Noise_2_2.wav,,,,,,,,,,,,,,,0,1,1,109,,,,,,,,,,,,,,,,,,,,,,,219.60467447992414,None,221.12090931134298,None,222.5045997579582,None,tents,222.5045997579582,None,return,3.277488010004163,222.58817567303777,None,,,,,,,,,,,,,,,,,,,,,,,,,,,,,,,,,,,,,,,92,001,2023_May_04_1425,SpeechDraft1Carolyn_lessNoise_PlusLocalization,2021.2.3,59.898895695829225,
fad.wav,fad.mpg,fad,2,AV,Pink_Noise_2_1.wav,Pink_Noise_2_2.wav,,,,,,,,,,,,,,,0,2,2,90,,,,,,,,,,,,,,,,,,,,,,,225.88807304995134,None,227.38962895609438,None,228.77129556890577,None,bed,228.77129556890577,None,return,3.115264290943742,228.8545515681617,None,,,,,,,,,,,,,,,,,,,,,,,,,,,,,,,,,,,,,,,92,001,2023_May_04_1425,SpeechDraft1Carolyn_lessNoise_PlusLocalization,2021.2.3,59.898895695829225,
belt.wav,belt.mpg,belt,6,A,Pink_Noise_6_1.wav,Pink_Noise_6_2.wav,,,,,,,,,,,,,,,0,3,3,44,,,,,,,,,,,,,,,,,,,,,,,231.98825355432928,None,233.50432562828064,None,234.8880587783642,None,ten,234.8880587783642,None,return,4.830553283914924,234.97126810532063,None,,,,,,,,,,,,,,,,,,,,,,,,,,,,,,,,,,,,,,,92,001,2023_May_04_1425,SpeechDraft1Carolyn_lessNoise_PlusLocalization,2021.2.3,59.898895695829225,
dim.wav,dim.mpg,dim,3,AV,Pink_Noise_3_1.wav,Pink_Noise_3_2.wav,,,,,,,,,,,,,,,0,4,4,87,,,,,,,,,,,,,,,,,,,,,,,239.82129556732252,None,241.32262662192807,None,242.70472039608285,None,dim,242.70472039608285,None,return,1.38987140590325,242.78794372826815,None,,,,,,,,,,,,,,,,,,,,,,,,,,,,,,,,,,,,,,,92,001,2023_May_04_1425,SpeechDraft1Carolyn_lessNoise_PlusLocalization,2021.2.3,59.898895695829225,
check.wav,check.mpg,check,4,A,Pink_Noise_4_1.wav,Pink_Noise_4_2.wav,,,,,,,,,,,,,,,0,5,5,48,,,,,,,,,,,,,,,,,,,,,,,244.20469511300325,None,245.70504422020167,None,247.08797380514443,None,check,247.08797380514443,None,return,1.6943168891593814,247.17137175006792,None,,,,,,,,,,,,,,,,,,,,,,,,,,,,,,,,,,,,,,,92,001,2023_May_04_1425,SpeechDraft1Carolyn_lessNoise_PlusLocalization,2021.2.3,59.898895695829225,
bottle.wav,bottle.mpg,bottle,1,AV,Pink_Noise_1_1.wav,Pink_Noise_1_2.wav,,,,,,,,,,,,,,,0,6,6,94,,,,,,,,,,,,,,,,,,,,,,,248.88791826926172,None,250.38770873006433,None,251.77135026827455,None,bottle,251.77135026827455,None,return,5.659042520914227,251.85465443413705,None,,,,,,,,,,,,,,,,,,,,,,,,,,,,,,,,,,,,,,,92,001,2023_May_04_1425,SpeechDraft1Carolyn_lessNoise_PlusLocalization,2021.2.3,59.898895695829225,
frog.wav,frog.mpg,frog,1,A,Pink_Noise_1_1.wav,Pink_Noise_1_2.wav,,,,,,,,,,,,,,,0,7,7,55,,,,,,,,,,,,,,,,,,,,,,,257.5379730472341,None,259.0544665111229,None,260.4214071650058,None,shrug,260.4214071650058,None,return,3.312967990990728,260.50474964501336,None,,,,,,,,,,,,,,,,,,,,,,,,,,,,,,,,,,,,,,,92,001,2023_May_04_1425,SpeechDraft1Carolyn_lessNoise_PlusLocalization,2021.2.3,59.898895695829225,
flex.wav,flex.mpg,flex,4,A,Pink_Noise_4_1.wav,Pink_Noise_4_2.wav,,,,,,,,,,,,,,,0,8,8,18,,,,,,,,,,,,,,,,,,,,,,,263.83811141503975,None,265.35433013923466,None,266.73801358323544,None,must,266.73801358323544,None,return,3.5963681298308074,266.82137388316914,None,,,,,,,,,,,,,,,,,,,,,,,,,,,,,,,,,,,,,,,92,001,2023_May_04_1425,SpeechDraft1Carolyn_lessNoise_PlusLocalization,2021.2.3,59.898895695829225,
grief.wav,grief.mpg,grief,5,A,Pink_Noise_5_1.wav,Pink_Noise_5_2.wav,,,,,,,,,,,,,,,0,9,9,6,,,,,,,,,,,,,,,,,,,,,,,270.4380305153318,None,271.9377079922706,None,273.32144031627104,None,read,273.32144031627104,None,return,1.5570281688123941,273.40478833206,None,,,,,,,,,,,,,,,,,,,,,,,,,,,,,,,,,,,,,,,92,001,2023_May_04_1425,SpeechDraft1Carolyn_lessNoise_PlusLocalization,2021.2.3,59.898895695829225,
lost.wav,lost.mpg,lost,4,A,Pink_Noise_4_1.wav,Pink_Noise_4_2.wav,,,,,,,,,,,,,,,0,10,10,12,,,,,,,,,,,,,,,,,,,,,,,274.9879858442582,None,276.48957785312086,None,277.8713142783381,None,floors,277.8713142783381,None,return,3.6629941151477396,277.954717725981,None,,,,,,,,,,,,,,,,,,,,,,,,,,,,,,,,,,,,,,,92,001,2023_May_04_1425,SpeechDraft1Carolyn_lessNoise_PlusLocalization,2021.2.3,59.898895695829225,
blond.wav,blond.mpg,blond,4,A,Pink_Noise_4_1.wav,Pink_Noise_4_2.wav,,,,,,,,,,,,,,,0,11,11,7,,,,,,,,,,,,,,,,,,,,,,,281.63797865621746,None,283.1377306962386,None,284.5213763602078,None,lard,284.5213763602078,None,return,4.0129443453624845,284.6047657732852,None,,,,,,,,,,,,,,,,,,,,,,,,,,,,,,,,,,,,,,,92,001,2023_May_04_1425,SpeechDraft1Carolyn_lessNoise_PlusLocalization,2021.2.3,59.898895695829225,
fan.wav,fan.mpg,fan,1,A,Pink_Noise_1_1.wav,Pink_Noise_1_2.wav,,,,,,,,,,,,,,,0,12,12,21,,,,,,,,,,,,,,,,,,,,,,,288.63799876114354,None,290.1544266012497,None,291.5381387802772,None,fam,291.5381387802772,None,return,6.9804906733334064,291.6213071383536,None,,,,,,,,,,,,,,,,,,,,,,,,,,,,,,,,,,,,,,,92,001,2023_May_04_1425,SpeechDraft1Carolyn_lessNoise_PlusLocalization,2021.2.3,59.898895695829225,
grill.wav,grill.mpg,grill,4,AV,Pink_Noise_4_1.wav,Pink_Noise_4_2.wav,,,,,,,,,,,,,,,0,13,13,98,,,,,,,,,,,,,,,,,,,,,,,298.6214230330661,None,300.12232817336917,None,301.5049390010536,None,"grill
",301.5049390010536,None,return,2.4696099809370935,301.5880566490814,None,,,,,,,,,,,,,,,,,,,,,,,,,,,,,,,,,,,,,,,92,001,2023_May_04_1425,SpeechDraft1Carolyn_lessNoise_PlusLocalization,2021.2.3,59.898895695829225,
bound.wav,bound.mpg,bound,4,AV,Pink_Noise_4_1.wav,Pink_Noise_4_2.wav,,,,,,,,,,,,,,,0,14,14,88,,,,,,,,,,,,,,,,,,,,,,,304.08812213502824,None,305.5877135382034,None,306.9713339842856,None,bone,306.9713339842856,None,return,1.5629356745630503,307.05478693312034,None,,,,,,,,,,,,,,,,,,,,,,,,,,,,,,,,,,,,,,,92,001,2023_May_04_1425,SpeechDraft1Carolyn_lessNoise_PlusLocalization,2021.2.3,59.898895695829225,
two.wav,two.mpg,two,2,AV,Pink_Noise_2_1.wav,Pink_Noise_2_2.wav,,,,,,,,,,,,,,,0,15,15,107,,,,,,,,,,,,,,,,,,,,,,,308.6380969793536,None,310.13780032424256,None,311.5214817239903,None,two,311.5214817239903,None,return,1.1329862819984555,311.6048089219257,None,,,,,,,,,,,,,,,,,,,,,,,,,,,,,,,,,,,,,,,92,001,2023_May_04_1425,SpeechDraft1Carolyn_lessNoise_PlusLocalization,2021.2.3,59.898895695829225,
bell.wav,bell.mpg,bell,3,A,Pink_Noise_3_1.wav,Pink_Noise_3_2.wav,,,,,,,,,,,,,,,0,16,16,49,,,,,,,,,,,,,,,,,,,,,,,312.7547081322409,None,314.25442285928875,None,315.6380857829936,None,bell,315.6380857829936,None,return,1.3122107326053083,315.7214633873664,None,,,,,,,,,,,,,,,,,,,,,,,,,,,,,,,,,,,,,,,92,001,2023_May_04_1425,SpeechDraft1Carolyn_lessNoise_PlusLocalization,2021.2.3,59.898895695829225,
dent.wav,dent.mpg,dent,3,AV,Pink_Noise_3_1.wav,Pink_Noise_3_2.wav,,,,,,,,,,,,,,,0,17,17,115,,,,,,,,,,,,,,,,,,,,,,,317.05500374827534,None,318.571159302257,None,319.9547341731377,None,"dent
",319.9547341731377,None,return,2.251574910245836,320.0380872520618,None,,,,,,,,,,,,,,,,,,,,,,,,,,,,,,,,,,,,,,,92,001,2023_May_04_1425,SpeechDraft1Carolyn_lessNoise_PlusLocalization,2021.2.3,59.898895695829225,
slush.wav,slush.mpg,slush,5,A,Pink_Noise_5_1.wav,Pink_Noise_5_2.wav,,,,,,,,,,,,,,,0,18,18,1,,,,,,,,,,,,,,,,,,,,,,,322.3214552090503,None,323.83799400692806,None,325.22145906835794,None,snatch,325.22145906835794,None,return,3.3289513806812465,325.3047514301725,None,,,,,,,,,,,,,,,,,,,,,,,,,,,,,,,,,,,,,,,92,001,2023_May_04_1425,SpeechDraft1Carolyn_lessNoise_PlusLocalization,2021.2.3,59.898895695829225,
built.wav,built.mpg,built,4,AV,Pink_Noise_4_1.wav,Pink_Noise_4_2.wav,,,,,,,,,,,,,,,0,19,19,72,,,,,,,,,,,,,,,,,,,,,,,328.6547056892887,None,330.15457457304,None,331.5381136853248,None,bit,331.5381136853248,None,return,1.2762309429235756,331.6214301693253,None,,,,,,,,,,,,,,,,,,,,,,,,,,,,,,,,,,,,,,,92,001,2023_May_04_1425,SpeechDraft1Carolyn_lessNoise_PlusLocalization,2021.2.3,59.898895695829225,
blink.wav,blink.mpg,blink,2,A,Pink_Noise_2_1.wav,Pink_Noise_2_2.wav,,,,,,,,,,,,,,,0,20,20,57,,,,,,,,,,,,,,,,,,,,,,,332.92166328802705,None,334.4378903810866,None,335.8213861263357,None,blink,335.8213861263357,None,return,1.312903890851885,335.9048119899817,None,,,,,,,,,,,,,,,,,,,,,,,,,,,,,,,,,,,,,,,92,001,2023_May_04_1425,SpeechDraft1Carolyn_lessNoise_PlusLocalization,2021.2.3,59.898895695829225,
brake.wav,brake.mpg,brake,2,AV,Pink_Noise_2_1.wav,Pink_Noise_2_2.wav,,,,,,,,,,,,,,,0,21,21,86,,,,,,,,,,,,,,,,,,,,,,,337.2381876213476,None,338.73796559823677,None,340.12142613437027,None,"brick
",340.12142613437027,None,return,3.916912483982742,340.2047440400347,None,,,,,,,,,,,,,,,,,,,,,,,,,,,,,,,,,,,,,,,92,001,2023_May_04_1425,SpeechDraft1Carolyn_lessNoise_PlusLocalization,2021.2.3,59.898895695829225,
eat.wav,eat.mpg,eat,3,AV,Pink_Noise_3_1.wav,Pink_Noise_3_2.wav,,,,,,,,,,,,,,,0,22,22,66,,,,,,,,,,,,,,,,,,,,,,,344.15485228411853,None,345.65453191427514,None,347.038007250987,None,"eat
",347.038007250987,None,return,0.7362091527320445,347.121485483367,None,,,,,,,,,,,,,,,,,,,,,,,,,,,,,,,,,,,,,,,92,001,2023_May_04_1425,SpeechDraft1Carolyn_lessNoise_PlusLocalization,2021.2.3,59.898895695829225,
tear.wav,tear.mpg,tear,5,AV,Pink_Noise_5_1.wav,Pink_Noise_5_2.wav,,,,,,,,,,,,,,,0,23,23,117,,,,,,,,,,,,,,,,,,,,,,,347.90512873325497,None,349.4212877843529,None,350.80484180990607,None,hair,350.80484180990607,None,return,1.5375148029997945,350.8881449121982,None,,,,,,,,,,,,,,,,,,,,,,,,,,,,,,,,,,,,,,,92,001,2023_May_04_1425,SpeechDraft1Carolyn_lessNoise_PlusLocalization,2021.2.3,59.898895695829225,
toy.wav,toy.mpg,toy,2,AV,Pink_Noise_2_1.wav,Pink_Noise_2_2.wav,,,,,,,,,,,,,,,0,24,24,102,,,,,,,,,,,,,,,,,,,,,,,352.45482668699697,None,353.9712030743249,None,355.3547729891725,None,toy,355.3547729891725,None,return,1.2915949020534754,355.4381045550108,None,,,,,,,,,,,,,,,,,,,,,,,,,,,,,,,,,,,,,,,92,001,2023_May_04_1425,SpeechDraft1Carolyn_lessNoise_PlusLocalization,2021.2.3,59.898895695829225,
castle.wav,castle.mpg,castle,4,AV,Pink_Noise_4_1.wav,Pink_Noise_4_2.wav,,,,,,,,,,,,,,,0,25,25,106,,,,,,,,,,,,,,,,,,,,,,,356.754868531134,None,358.2548770192079,None,359.6381846992299,None,"passport
",359.6381846992299,None,return,2.7682361202314496,359.72143157897517,None,,,,,,,,,,,,,,,,,,,,,,,,,,,,,,,,,,,,,,,92,001,2023_May_04_1425,SpeechDraft1Carolyn_lessNoise_PlusLocalization,2021.2.3,59.898895695829225,
cape.wav,cape.mpg,cape,4,A,Pink_Noise_4_1.wav,Pink_Noise_4_2.wav,,,,,,,,,,,,,,,0,26,26,0,,,,,,,,,,,,,,,,,,,,,,,362.5214152452536,None,364.03782235318795,None,365.4214757280424,None,cake,365.4214757280424,None,return,1.2088192841038108,365.50486802496016,None,,,,,,,,,,,,,,,,,,,,,,,,,,,,,,,,,,,,,,,92,001,2023_May_04_1425,SpeechDraft1Carolyn_lessNoise_PlusLocalization,2021.2.3,59.898895695829225,
fable.wav,fable.mpg,fable,1,AV,Pink_Noise_1_1.wav,Pink_Noise_1_2.wav,,,,,,,,,,,,,,,0,27,27,91,,,,,,,,,,,,,,,,,,,,,,,366.7381762173027,None,368.23790284013376,None,369.6214655363001,None,fable,369.6214655363001,None,return,1.4569869856350124,369.7048030933365,None,,,,,,,,,,,,,,,,,,,,,,,,,,,,,,,,,,,,,,,92,001,2023_May_04_1425,SpeechDraft1Carolyn_lessNoise_PlusLocalization,2021.2.3,59.898895695829225,
cult.wav,cult.mpg,cult,2,A,Pink_Noise_2_1.wav,Pink_Noise_2_2.wav,,,,,,,,,,,,,,,0,28,28,38,,,,,,,,,,,,,,,,,,,,,,,371.18809792306274,None,372.68798624305055,None,374.07149125402793,None,"cult
",374.07149125402793,None,return,1.102858457248658,374.15480636432767,None,,,,,,,,,,,,,,,,,,,,,,,,,,,,,,,,,,,,,,,92,001,2023_May_04_1425,SpeechDraft1Carolyn_lessNoise_PlusLocalization,2021.2.3,59.898895695829225,
cease.wav,cease.mpg,cease,1,AV,Pink_Noise_1_1.wav,Pink_Noise_1_2.wav,,,,,,,,,,,,,,,0,29,29,65,,,,,,,,,,,,,,,,,,,,,,,375.28824231307954,None,376.7893561529927,None,378.17159103928134,None,cease,378.17159103928134,None,return,5.610514299944043,378.2551771942526,None,,,,,,,,,,,,,,,,,,,,,,,,,,,,,,,,,,,,,,,92,001,2023_May_04_1425,SpeechDraft1Carolyn_lessNoise_PlusLocalization,2021.2.3,59.898895695829225,
cook.wav,cook.mpg,cook,6,A,Pink_Noise_6_1.wav,Pink_Noise_6_2.wav,,,,,,,,,,,,,,,0,30,30,30,,,,,,,,,,,,,,,,,,,,,,,383.8881622091867,None,385.40456342697144,None,386.7881490010768,None,"hell
",386.7881490010768,None,return,11.434120755176991,386.87156774429604,None,,,,,,,,,,,,,,,,,,,,,,,,,,,,,,,,,,,,,,,92,001,2023_May_04_1425,SpeechDraft1Carolyn_lessNoise_PlusLocalization,2021.2.3,59.898895695829225,
swamp.wav,swamp.mpg,swamp,6,AV,Pink_Noise_6_1.wav,Pink_Noise_6_2.wav,,,,,,,,,,,,,,,0,31,31,114,,,,,,,,,,,,,,,,,,,,,,,398.33818511711434,None,399.8545478042215,None,401.2215447202325,None,"mom
",401.2215447202325,None,return,5.152759041171521,401.3048976599239,None,,,,,,,,,,,,,,,,,,,,,,,,,,,,,,,,,,,,,,,92,001,2023_May_04_1425,SpeechDraft1Carolyn_lessNoise_PlusLocalization,2021.2.3,59.898895695829225,
flu.wav,flu.mpg,flu,6,AV,Pink_Noise_6_1.wav,Pink_Noise_6_2.wav,,,,,,,,,,,,,,,0,32,32,105,,,,,,,,,,,,,,,,,,,,,,,406.48825834318995,None,408.0045050191693,None,409.38834333699197,None,be,409.38834333699197,None,return,1.8420383110642433,409.471660469193,None,,,,,,,,,,,,,,,,,,,,,,,,,,,,,,,,,,,,,,,92,001,2023_May_04_1425,SpeechDraft1Carolyn_lessNoise_PlusLocalization,2021.2.3,59.898895695829225,
freeze.wav,freeze.mpg,freeze,2,A,Pink_Noise_2_1.wav,Pink_Noise_2_2.wav,,,,,,,,,,,,,,,0,33,33,14,,,,,,,,,,,,,,,,,,,,,,,411.3382042539306,None,412.85455711511895,None,414.23851095093414,None,freeze,414.23851095093414,None,return,1.6722035240381956,414.3215735950507,None,,,,,,,,,,,,,,,,,,,,,,,,,,,,,,,,,,,,,,,92,001,2023_May_04_1425,SpeechDraft1Carolyn_lessNoise_PlusLocalization,2021.2.3,59.898895695829225,
gulf.wav,gulf.mpg,gulf,6,A,Pink_Noise_6_1.wav,Pink_Noise_6_2.wav,,,,,,,,,,,,,,,0,34,34,34,,,,,,,,,,,,,,,,,,,,,,,416.02168526221067,None,417.53791176201776,None,418.9216645970009,None,hell,418.9216645970009,None,return,6.388760556932539,419.00501184910536,None,,,,,,,,,,,,,,,,,,,,,,,,,,,,,,,,,,,,,,,92,001,2023_May_04_1425,SpeechDraft1Carolyn_lessNoise_PlusLocalization,2021.2.3,59.898895695829225,
curb.wav,curb.mpg,curb,5,AV,Pink_Noise_5_1.wav,Pink_Noise_5_2.wav,,,,,,,,,,,,,,,0,35,35,110,,,,,,,,,,,,,,,,,,,,,,,425.4216370712966,None,426.9546811999753,None,428.3381222472526,None,row,428.3381222472526,None,return,3.7641634359024465,428.4215695653111,None,,,,,,,,,,,,,,,,,,,,,,,,,,,,,,,,,,,,,,,92,001,2023_May_04_1425,SpeechDraft1Carolyn_lessNoise_PlusLocalization,2021.2.3,59.898895695829225,
blank.wav,blank.mpg,blank,3,AV,Pink_Noise_3_1.wav,Pink_Noise_3_2.wav,,,,,,,,,,,,,,,0,36,36,68,,,,,,,,,,,,,,,,,,,,,,,432.20506545109674,None,433.72134157828987,None,435.10485370317474,None,"blank
",435.10485370317474,None,return,1.9173137629404664,435.18835846101865,None,,,,,,,,,,,,,,,,,,,,,,,,,,,,,,,,,,,,,,,92,001,2023_May_04_1425,SpeechDraft1Carolyn_lessNoise_PlusLocalization,2021.2.3,59.898895695829225,
grin.wav,grin.mpg,grin,6,AV,Pink_Noise_6_1.wav,Pink_Noise_6_2.wav,,,,,,,,,,,,,,,0,37,37,96,,,,,,,,,,,,,,,,,,,,,,,437.1382235493511,None,438.6547878300771,None,440.038243771065,None,"rain
",440.038243771065,None,return,1.3200712045654655,440.121594209224,None,,,,,,,,,,,,,,,,,,,,,,,,,,,,,,,,,,,,,,,92,001,2023_May_04_1425,SpeechDraft1Carolyn_lessNoise_PlusLocalization,2021.2.3,59.898895695829225,
beige.wav,beige.mpg,beige,2,AV,Pink_Noise_2_1.wav,Pink_Noise_2_2.wav,,,,,,,,,,,,,,,0,38,38,99,,,,,,,,,,,,,,,,,,,,,,,441.47165944613516,None,442.98794001713395,None,444.3715434842743,None,beige,444.3715434842743,None,return,1.3388387328013778,444.45494000893086,None,,,,,,,,,,,,,,,,,,,,,,,,,,,,,,,,,,,,,,,92,001,2023_May_04_1425,SpeechDraft1Carolyn_lessNoise_PlusLocalization,2021.2.3,59.898895695829225,
cup.wav,cup.mpg,cup,2,A,Pink_Noise_2_1.wav,Pink_Noise_2_2.wav,,,,,,,,,,,,,,,0,39,39,56,,,,,,,,,,,,,,,,,,,,,,,445.82165170507506,None,447.33797568595037,None,448.7216356880963,None,cup,448.7216356880963,None,return,1.1487814956344664,448.80498107429594,None,,,,,,,,,,,,,,,,,,,,,,,,,,,,,,,,,,,,,,,92,001,2023_May_04_1425,SpeechDraft1Carolyn_lessNoise_PlusLocalization,2021.2.3,59.898895695829225,
client.wav,client.mpg,client,5,AV,Pink_Noise_5_1.wav,Pink_Noise_5_2.wav,,,,,,,,,,,,,,,0,40,40,95,,,,,,,,,,,,,,,,,,,,,,,449.97181066917256,None,451.488005515188,None,452.8550593429245,None,quiet,452.8550593429245,None,return,2.5752999782562256,452.9383859699592,None,,,,,,,,,,,,,,,,,,,,,,,,,,,,,,,,,,,,,,,92,001,2023_May_04_1425,SpeechDraft1Carolyn_lessNoise_PlusLocalization,2021.2.3,59.898895695829225,
fall.wav,fall.mpg,fall,4,A,Pink_Noise_4_1.wav,Pink_Noise_4_2.wav,,,,,,,,,,,,,,,0,41,41,39,,,,,,,,,,,,,,,,,,,,,,,455.53840612992644,None,457.0546304299496,None,458.4383549373597,None,long,458.4383549373597,None,return,2.695906988810748,458.52175660897046,None,,,,,,,,,,,,,,,,,,,,,,,,,,,,,,,,,,,,,,,92,001,2023_May_04_1425,SpeechDraft1Carolyn_lessNoise_PlusLocalization,2021.2.3,59.898895695829225,
shock.wav,shock.mpg,shock,4,AV,Pink_Noise_4_1.wav,Pink_Noise_4_2.wav,,,,,,,,,,,,,,,0,42,42,79,,,,,,,,,,,,,,,,,,,,,,,461.2382979062386,None,462.7549311602488,None,464.1382738240063,None,shark,464.1382738240063,None,return,1.508006997872144,464.2216819250025,None,,,,,,,,,,,,,,,,,,,,,,,,,,,,,,,,,,,,,,,92,001,2023_May_04_1425,SpeechDraft1Carolyn_lessNoise_PlusLocalization,2021.2.3,59.898895695829225,
greed.wav,greed.mpg,greed,6,AV,Pink_Noise_6_1.wav,Pink_Noise_6_2.wav,,,,,,,,,,,,,,,0,43,43,78,,,,,,,,,,,,,,,,,,,,,,,465.75497930310667,None,467.2556923981756,None,468.63835210027173,None,mill,468.63835210027173,None,return,3.640217192005366,468.7215891610831,None,,,,,,,,,,,,,,,,,,,,,,,,,,,,,,,,,,,,,,,92,001,2023_May_04_1425,SpeechDraft1Carolyn_lessNoise_PlusLocalization,2021.2.3,59.898895695829225,
gas.wav,gas.mpg,gas,3,AV,Pink_Noise_3_1.wav,Pink_Noise_3_2.wav,,,,,,,,,,,,,,,0,44,44,113,,,,,,,,,,,,,,,,,,,,,,,472.3883050819859,None,473.9047851441428,None,475.28827126603574,None,"dance
",475.28827126603574,None,return,1.1339870900847018,475.3716899151914,None,,,,,,,,,,,,,,,,,,,,,,,,,,,,,,,,,,,,,,,92,001,2023_May_04_1425,SpeechDraft1Carolyn_lessNoise_PlusLocalization,2021.2.3,59.898895695829225,
beam.wav,beam.mpg,beam,4,AV,Pink_Noise_4_1.wav,Pink_Noise_4_2.wav,,,,,,,,,,,,,,,0,45,45,69,,,,,,,,,,,,,,,,,,,,,,,476.5383132211864,None,478.0548731070012,None,479.43830808531493,None,leave,479.43830808531493,None,return,1.0880234511569142,479.5216242382303,None,,,,,,,,,,,,,,,,,,,,,,,,,,,,,,,,,,,,,,,92,001,2023_May_04_1425,SpeechDraft1Carolyn_lessNoise_PlusLocalization,2021.2.3,59.898895695829225,
croak.wav,croak.mpg,croak,3,AV,Pink_Noise_3_1.wav,Pink_Noise_3_2.wav,,,,,,,,,,,,,,,0,46,46,93,,,,,,,,,,,,,,,,,,,,,,,480.6384131773375,None,482.15476719103754,None,483.53833238594234,None,croak,483.53833238594234,None,return,1.4760466646403074,483.62161050224677,None,,,,,,,,,,,,,,,,,,,,,,,,,,,,,,,,,,,,,,,92,001,2023_May_04_1425,SpeechDraft1Carolyn_lessNoise_PlusLocalization,2021.2.3,59.898895695829225,
swayed.wav,swayed.mpg,swayed,6,AV,Pink_Noise_6_1.wav,Pink_Noise_6_2.wav,,,,,,,,,,,,,,,0,47,47,84,,,,,,,,,,,,,,,,,,,,,,,485.12179813394323,None,486.63807808607817,None,488.02168355928734,None,bill,488.02168355928734,None,return,1.6886411057785153,488.1052045240067,None,,,,,,,,,,,,,,,,,,,,,,,,,,,,,,,,,,,,,,,92,001,2023_May_04_1425,SpeechDraft1Carolyn_lessNoise_PlusLocalization,2021.2.3,59.898895695829225,
boss.wav,boss.mpg,boss,5,A,Pink_Noise_5_1.wav,Pink_Noise_5_2.wav,,,,,,,,,,,,,,,0,48,48,10,,,,,,,,,,,,,,,,,,,,,,,489.82168032135814,None,491.338020961266,None,492.70506592234597,None,"was
",492.70506592234597,None,return,1.2853010562248528,492.78837038530037,None,,,,,,,,,,,,,,,,,,,,,,,,,,,,,,,,,,,,,,,92,001,2023_May_04_1425,SpeechDraft1Carolyn_lessNoise_PlusLocalization,2021.2.3,59.898895695829225,
coin.wav,coin.mpg,coin,3,A,Pink_Noise_3_1.wav,Pink_Noise_3_2.wav,,,,,,,,,,,,,,,0,49,49,47,,,,,,,,,,,,,,,,,,,,,,,494.1050375732593,None,495.62142252502963,None,497.0052234400064,None,coin,497.0052234400064,None,return,1.297282218001783,497.08841800130904,None,,,,,,,,,,,,,,,,,,,,,,,,,,,,,,,,,,,,,,,92,001,2023_May_04_1425,SpeechDraft1Carolyn_lessNoise_PlusLocalization,2021.2.3,59.898895695829225,
deed.wav,deed.mpg,deed,1,A,Pink_Noise_1_1.wav,Pink_Noise_1_2.wav,,,,,,,,,,,,,,,0,50,50,46,,,,,,,,,,,,,,,,,,,,,,,498.40510902600363,None,499.92147949011996,None,501.30506408028305,None,"deed
",501.30506408028305,None,return,1.6853540111333132,501.38831012509763,None,,,,,,,,,,,,,,,,,,,,,,,,,,,,,,,,,,,,,,,92,001,2023_May_04_1425,SpeechDraft1Carolyn_lessNoise_PlusLocalization,2021.2.3,59.898895695829225,
deal.wav,deal.mpg,deal,2,A,Pink_Noise_2_1.wav,Pink_Noise_2_2.wav,,,,,,,,,,,,,,,0,51,51,36,,,,,,,,,,,,,,,,,,,,,,,503.1050743502565,None,504.6213063611649,None,506.00514491507784,None,deal,506.00514491507784,None,return,1.2334098289720714,506.0883283922449,None,,,,,,,,,,,,,,,,,,,,,,,,,,,,,,,,,,,,,,,92,001,2023_May_04_1425,SpeechDraft1Carolyn_lessNoise_PlusLocalization,2021.2.3,59.898895695829225,
ball.wav,ball.mpg,ball,1,A,Pink_Noise_1_1.wav,Pink_Noise_1_2.wav,,,,,,,,,,,,,,,0,52,52,31,,,,,,,,,,,,,,,,,,,,,,,507.3385548312217,None,508.854753931053,None,510.23842643899843,None,bug,510.23842643899843,None,return,4.479901983868331,510.32182418135926,None,,,,,,,,,,,,,,,,,,,,,,,,,,,,,,,,,,,,,,,92,001,2023_May_04_1425,SpeechDraft1Carolyn_lessNoise_PlusLocalization,2021.2.3,59.898895695829225,
golf.wav,golf.mpg,golf,1,AV,Pink_Noise_1_1.wav,Pink_Noise_1_2.wav,,,,,,,,,,,,,,,0,53,53,61,,,,,,,,,,,,,,,,,,,,,,,514.8217350831255,None,516.3381405160762,None,517.7217551441863,None,golf,517.7217551441863,None,return,1.356526322197169,517.8053029519506,None,,,,,,,,,,,,,,,,,,,,,,,,,,,,,,,,,,,,,,,92,001,2023_May_04_1425,SpeechDraft1Carolyn_lessNoise_PlusLocalization,2021.2.3,59.898895695829225,
fraud.wav,fraud.mpg,fraud,1,AV,Pink_Noise_1_1.wav,Pink_Noise_1_2.wav,,,,,,,,,,,,,,,0,54,54,70,,,,,,,,,,,,,,,,,,,,,,,519.1883749803528,None,520.7046986371279,None,522.0884648771025,None,"fraud
",522.0884648771025,None,return,3.9339680522680283,522.171701557003,None,,,,,,,,,,,,,,,,,,,,,,,,,,,,,,,,,,,,,,,92,001,2023_May_04_1425,SpeechDraft1Carolyn_lessNoise_PlusLocalization,2021.2.3,59.898895695829225,
clown.wav,clown.mpg,clown,5,A,Pink_Noise_5_1.wav,Pink_Noise_5_2.wav,,,,,,,,,,,,,,,0,55,55,24,,,,,,,,,,,,,,,,,,,,,,,526.1383679592982,None,527.6548842489719,None,529.0384736233391,None,mum,529.0384736233391,None,return,3.4240281670354307,529.121783781331,None,,,,,,,,,,,,,,,,,,,,,,,,,,,,,,,,,,,,,,,92,001,2023_May_04_1425,SpeechDraft1Carolyn_lessNoise_PlusLocalization,2021.2.3,59.898895695829225,
swan.wav,swan.mpg,swan,3,AV,Pink_Noise_3_1.wav,Pink_Noise_3_2.wav,,,,,,,,,,,,,,,0,56,56,83,,,,,,,,,,,,,,,,,,,,,,,532.5718752341345,None,534.088271944318,None,535.4717804300599,None,"swerve
",535.4717804300599,None,return,2.9346267199143767,535.5550454570912,None,,,,,,,,,,,,,,,,,,,,,,,,,,,,,,,,,,,,,,,92,001,2023_May_04_1425,SpeechDraft1Carolyn_lessNoise_PlusLocalization,2021.2.3,59.898895695829225,
blind.wav,blind.mpg,blind,6,A,Pink_Noise_6_1.wav,Pink_Noise_6_2.wav,,,,,,,,,,,,,,,0,57,57,26,,,,,,,,,,,,,,,,,,,,,,,538.5218626200221,None,540.0380989010446,None,541.42177991895,None,love,541.42177991895,None,return,2.8487522648647428,541.5051075392403,None,,,,,,,,,,,,,,,,,,,,,,,,,,,,,,,,,,,,,,,92,001,2023_May_04_1425,SpeechDraft1Carolyn_lessNoise_PlusLocalization,2021.2.3,59.898895695829225,
clock.wav,clock.mpg,clock,1,A,Pink_Noise_1_1.wav,Pink_Noise_1_2.wav,,,,,,,,,,,,,,,0,58,58,8,,,,,,,,,,,,,,,,,,,,,,,544.3718144102022,None,545.8882038053125,None,547.2717886311002,None,clock,547.2717886311002,None,return,1.2784835738129914,547.3551828693599,None,,,,,,,,,,,,,,,,,,,,,,,,,,,,,,,,,,,,,,,92,001,2023_May_04_1425,SpeechDraft1Carolyn_lessNoise_PlusLocalization,2021.2.3,59.898895695829225,
broad.wav,broad.mpg,broad,4,AV,Pink_Noise_4_1.wav,Pink_Noise_4_2.wav,,,,,,,,,,,,,,,0,59,59,76,,,,,,,,,,,,,,,,,,,,,,,548.6552038472146,None,550.1716600460932,None,551.5554182059132,None,fraud,551.5554182059132,None,return,7.531152990180999,551.6384943029843,None,,,,,,,,,,,,,,,,,,,,,,,,,,,,,,,,,,,,,,,92,001,2023_May_04_1425,SpeechDraft1Carolyn_lessNoise_PlusLocalization,2021.2.3,59.898895695829225,
thorn.wav,thorn.mpg,thorn,2,A,Pink_Noise_2_1.wav,Pink_Noise_2_2.wav,,,,,,,,,,,,,,,0,60,60,53,,,,,,,,,,,,,,,,,,,,,,,559.1884270971641,None,560.7047849353403,None,562.0884159631096,None,door,562.0884159631096,None,return,1.0218594297766685,562.1719012842514,None,,,,,,,,,,,,,,,,,,,,,,,,,,,,,,,,,,,,,,,92,001,2023_May_04_1425,SpeechDraft1Carolyn_lessNoise_PlusLocalization,2021.2.3,59.898895695829225,
flirt.wav,flirt.mpg,flirt,6,A,Pink_Noise_6_1.wav,Pink_Noise_6_2.wav,,,,,,,,,,,,,,,0,61,61,59,,,,,,,,,,,,,,,,,,,,,,,563.2218422209844,None,564.7380884643644,None,566.1218903409317,None,kid,566.1218903409317,None,return,1.620505881961435,566.2051606792957,None,,,,,,,,,,,,,,,,,,,,,,,,,,,,,,,,,,,,,,,92,001,2023_May_04_1425,SpeechDraft1Carolyn_lessNoise_PlusLocalization,2021.2.3,59.898895695829225,
crowd.wav,crowd.mpg,crowd,2,A,Pink_Noise_2_1.wav,Pink_Noise_2_2.wav,,,,,,,,,,,,,,,0,62,62,29,,,,,,,,,,,,,,,,,,,,,,,567.855126215145,None,569.3715467411093,None,570.7554064290598,None,proud,570.7554064290598,None,return,1.97919631190598,570.8384863180108,None,,,,,,,,,,,,,,,,,,,,,,,,,,,,,,,,,,,,,,,92,001,2023_May_04_1425,SpeechDraft1Carolyn_lessNoise_PlusLocalization,2021.2.3,59.898895695829225,
coast.wav,coast.mpg,coast,3,A,Pink_Noise_3_1.wav,Pink_Noise_3_2.wav,,,,,,,,,,,,,,,0,63,63,51,,,,,,,,,,,,,,,,,,,,,,,572.8385673742741,None,574.3548296629451,None,575.7385344123468,None,toast,575.7385344123468,None,return,0.9558370281010866,575.8219369142316,None,,,,,,,,,,,,,,,,,,,,,,,,,,,,,,,,,,,,,,,92,001,2023_May_04_1425,SpeechDraft1Carolyn_lessNoise_PlusLocalization,2021.2.3,59.898895695829225,
cream.wav,cream.mpg,cream,5,A,Pink_Noise_5_1.wav,Pink_Noise_5_2.wav,,,,,,,,,,,,,,,0,64,64,41,,,,,,,,,,,,,,,,,,,,,,,576.805211013183,None,578.3214772962965,None,579.7051596511155,None,feel,579.7051596511155,None,return,3.5410776510834694,579.788711943198,None,,,,,,,,,,,,,,,,,,,,,,,,,,,,,,,,,,,,,,,92,001,2023_May_04_1425,SpeechDraft1Carolyn_lessNoise_PlusLocalization,2021.2.3,59.898895695829225,
fried.wav,fried.mpg,fried,5,A,Pink_Noise_5_1.wav,Pink_Noise_5_2.wav,,,,,,,,,,,,,,,0,65,65,15,,,,,,,,,,,,,,,,,,,,,,,583.3552614510991,None,584.8717917380854,None,586.255360528361,None,ride,586.255360528361,None,return,1.3750080442987382,586.3386812983081,None,,,,,,,,,,,,,,,,,,,,,,,,,,,,,,,,,,,,,,,92,001,2023_May_04_1425,SpeechDraft1Carolyn_lessNoise_PlusLocalization,2021.2.3,59.898895695829225,
deck.wav,deck.mpg,deck,1,A,Pink_Noise_1_1.wav,Pink_Noise_1_2.wav,,,,,,,,,,,,,,,0,66,66,35,,,,,,,,,,,,,,,,,,,,,,,587.738428327255,None,589.2549640429206,None,590.6385153373703,None,"deck
",590.6385153373703,None,return,1.3677487489767373,590.7219198402017,None,,,,,,,,,,,,,,,,,,,,,,,,,,,,,,,,,,,,,,,92,001,2023_May_04_1425,SpeechDraft1Carolyn_lessNoise_PlusLocalization,2021.2.3,59.898895695829225,
fetch.wav,fetch.mpg,fetch,2,A,Pink_Noise_2_1.wav,Pink_Noise_2_2.wav,,,,,,,,,,,,,,,0,67,67,17,,,,,,,,,,,,,,,,,,,,,,,592.121871276293,None,593.6385310720652,None,595.0219224719331,None,fetch,595.0219224719331,None,return,1.544360987842083,595.1053090281785,None,,,,,,,,,,,,,,,,,,,,,,,,,,,,,,,,,,,,,,,92,001,2023_May_04_1425,SpeechDraft1Carolyn_lessNoise_PlusLocalization,2021.2.3,59.898895695829225,
cross.wav,cross.mpg,cross,1,AV,Pink_Noise_1_1.wav,Pink_Noise_1_2.wav,,,,,,,,,,,,,,,0,68,68,63,,,,,,,,,,,,,,,,,,,,,,,596.6719399970025,None,598.1882791272365,None,599.5719365151599,None,cross,599.5719365151599,None,return,1.4423456792719662,599.6553380000405,None,,,,,,,,,,,,,,,,,,,,,,,,,,,,,,,,,,,,,,,92,001,2023_May_04_1425,SpeechDraft1Carolyn_lessNoise_PlusLocalization,2021.2.3,59.898895695829225,
awe.wav,awe.mpg,awe,3,A,Pink_Noise_3_1.wav,Pink_Noise_3_2.wav,,,,,,,,,,,,,,,0,69,69,13,,,,,,,,,,,,,,,,,,,,,,,601.1218780702911,None,602.638217322994,None,604.0218959269114,None,awe,604.0218959269114,None,return,1.8325278502888978,604.1052439291961,None,,,,,,,,,,,,,,,,,,,,,,,,,,,,,,,,,,,,,,,92,001,2023_May_04_1425,SpeechDraft1Carolyn_lessNoise_PlusLocalization,2021.2.3,59.898895695829225,
chess.wav,chess.mpg,chess,6,AV,Pink_Noise_6_1.wav,Pink_Noise_6_2.wav,,,,,,,,,,,,,,,0,70,70,103,,,,,,,,,,,,,,,,,,,,,,,605.9551881151274,None,607.4717904450372,None,608.8552398509346,None,chess,608.8552398509346,None,return,1.3752088621258736,608.938531499356,None,,,,,,,,,,,,,,,,,,,,,,,,,,,,,,,,,,,,,,,92,001,2023_May_04_1425,SpeechDraft1Carolyn_lessNoise_PlusLocalization,2021.2.3,59.898895695829225,
live.wav,live.mpg,live,4,AV,Pink_Noise_4_1.wav,Pink_Noise_4_2.wav,,,,,,,,,,,,,,,0,71,71,112,,,,,,,,,,,,,,,,,,,,,,,610.3385703242384,None,611.8550501451828,None,613.2385494350456,None,"loath
",613.2385494350456,None,return,1.319640327244997,613.3220275011845,None,,,,,,,,,,,,,,,,,,,,,,,,,,,,,,,,,,,,,,,92,001,2023_May_04_1425,SpeechDraft1Carolyn_lessNoise_PlusLocalization,2021.2.3,59.898895695829225,
thief.wav,thief.mpg,thief,2,AV,Pink_Noise_2_1.wav,Pink_Noise_2_2.wav,,,,,,,,,,,,,,,0,72,72,116,,,,,,,,,,,,,,,,,,,,,,,614.6719998903573,None,616.2050070599653,None,617.5886569730937,None,feet,617.5886569730937,None,return,1.04985604993999,617.6719286949374,None,,,,,,,,,,,,,,,,,,,,,,,,,,,,,,,,,,,,,,,92,001,2023_May_04_1425,SpeechDraft1Carolyn_lessNoise_PlusLocalization,2021.2.3,59.898895695829225,
bank.wav,bank.mpg,bank,5,AV,Pink_Noise_5_1.wav,Pink_Noise_5_2.wav,,,,,,,,,,,,,,,0,73,73,100,,,,,,,,,,,,,,,,,,,,,,,618.73859980423,None,620.2549472171813,None,621.6386750461534,None,ale,621.6386750461534,None,return,8.495685719884932,621.7220033379272,None,,,,,,,,,,,,,,,,,,,,,,,,,,,,,,,,,,,,,,,92,001,2023_May_04_1425,SpeechDraft1Carolyn_lessNoise_PlusLocalization,2021.2.3,59.898895695829225,
gloom.wav,gloom.mpg,gloom,5,AV,Pink_Noise_5_1.wav,Pink_Noise_5_2.wav,,,,,,,,,,,,,,,0,74,74,119,,,,,,,,,,,,,,,,,,,,,,,630.2386851813644,None,631.7717142621987,None,633.1551835169084,None,green,633.1551835169084,None,return,3.611096861306578,633.2385687590577,None,,,,,,,,,,,,,,,,,,,,,,,,,,,,,,,,,,,,,,,92,001,2023_May_04_1425,SpeechDraft1Carolyn_lessNoise_PlusLocalization,2021.2.3,59.898895695829225,
dope.wav,dope.mpg,dope,6,A,Pink_Noise_6_1.wav,Pink_Noise_6_2.wav,,,,,,,,,,,,,,,0,75,75,23,,,,,,,,,,,,,,,,,,,,,,,636.8719890662469,None,638.3882367792539,None,639.7720078490674,None,bit,639.7720078490674,None,return,1.7622981858439744,639.8553882190026,None,,,,,,,,,,,,,,,,,,,,,,,,,,,,,,,,,,,,,,,92,001,2023_May_04_1425,SpeechDraft1Carolyn_lessNoise_PlusLocalization,2021.2.3,59.898895695829225,
curl.wav,curl.mpg,curl,3,AV,Pink_Noise_3_1.wav,Pink_Noise_3_2.wav,,,,,,,,,,,,,,,0,76,76,80,,,,,,,,,,,,,,,,,,,,,,,641.6386554050259,None,643.1549320193008,None,644.5386382052675,None,curl,644.5386382052675,None,return,1.3558504260145128,644.6219186652452,None,,,,,,,,,,,,,,,,,,,,,,,,,,,,,,,,,,,,,,,92,001,2023_May_04_1425,SpeechDraft1Carolyn_lessNoise_PlusLocalization,2021.2.3,59.898895695829225,
blame.wav,blame.mpg,blame,1,AV,Pink_Noise_1_1.wav,Pink_Noise_1_2.wav,,,,,,,,,,,,,,,0,77,77,104,,,,,,,,,,,,,,,,,,,,,,,646.0053058979101,None,647.5382247669622,None,648.9219077480957,None,bling,648.9219077480957,None,return,1.7642036038450897,649.0054542310536,None,,,,,,,,,,,,,,,,,,,,,,,,,,,,,,,,,,,,,,,92,001,2023_May_04_1425,SpeechDraft1Carolyn_lessNoise_PlusLocalization,2021.2.3,59.898895695829225,
camp.wav,camp.mpg,camp,6,AV,Pink_Noise_6_1.wav,Pink_Noise_6_2.wav,,,,,,,,,,,,,,,0,78,78,108,,,,,,,,,,,,,,,,,,,,,,,650.7886260072701,None,652.3050487139262,None,653.6886362200603,None,let,653.6886362200603,None,return,2.5898391399532557,653.7719643092714,None,,,,,,,,,,,,,,,,,,,,,,,,,,,,,,,,,,,,,,,92,001,2023_May_04_1425,SpeechDraft1Carolyn_lessNoise_PlusLocalization,2021.2.3,59.898895695829225,
eight.wav,eight.mpg,eight,4,A,Pink_Noise_4_1.wav,Pink_Noise_4_2.wav,,,,,,,,,,,,,,,0,79,79,2,,,,,,,,,,,,,,,,,,,,,,,656.3886623443104,None,657.9048672351055,None,659.288978622295,None,ate,659.288978622295,None,return,1.1977596180513501,659.3719006972387,None,,,,,,,,,,,,,,,,,,,,,,,,,,,,,,,,,,,,,,,92,001,2023_May_04_1425,SpeechDraft1Carolyn_lessNoise_PlusLocalization,2021.2.3,59.898895695829225,
cube.wav,cube.mpg,cube,5,A,Pink_Noise_5_1.wav,Pink_Noise_5_2.wav,,,,,,,,,,,,,,,0,80,80,43,,,,,,,,,,,,,,,,,,,,,,,660.5887822252698,None,662.1217345371842,None,663.5053049661219,None,cheers,663.5053049661219,None,return,1.6610117508098483,663.5886616893113,None,,,,,,,,,,,,,,,,,,,,,,,,,,,,,,,,,,,,,,,92,001,2023_May_04_1425,SpeechDraft1Carolyn_lessNoise_PlusLocalization,2021.2.3,59.898895695829225,
curve.wav,curve.mpg,curve,2,A,Pink_Noise_2_1.wav,Pink_Noise_2_2.wav,,,,,,,,,,,,,,,0,81,81,20,,,,,,,,,,,,,,,,,,,,,,,665.2720658220351,None,666.788387530949,None,668.1720058070496,None,curl,668.1720058070496,None,return,1.8904362861067057,668.2553407279775,None,,,,,,,,,,,,,,,,,,,,,,,,,,,,,,,,,,,,,,,92,001,2023_May_04_1425,SpeechDraft1Carolyn_lessNoise_PlusLocalization,2021.2.3,59.898895695829225,
cliff.wav,cliff.mpg,cliff,2,AV,Pink_Noise_2_1.wav,Pink_Noise_2_2.wav,,,,,,,,,,,,,,,0,82,82,89,,,,,,,,,,,,,,,,,,,,,,,670.1720405719243,None,671.6883593653329,None,673.0719322739169,None,cliche,673.0719322739169,None,return,3.7102973610162735,673.1553593110293,None,,,,,,,,,,,,,,,,,,,,,,,,,,,,,,,,,,,,,,,92,001,2023_May_04_1425,SpeechDraft1Carolyn_lessNoise_PlusLocalization,2021.2.3,59.898895695829225,
bench.wav,bench.mpg,bench,5,AV,Pink_Noise_5_1.wav,Pink_Noise_5_2.wav,,,,,,,,,,,,,,,0,83,83,64,,,,,,,,,,,,,,,,,,,,,,,676.8886664863676,None,678.4050993220881,None,679.7886791620404,None,bench,679.7886791620404,None,return,1.4658046830445528,679.8719862429425,None,,,,,,,,,,,,,,,,,,,,,,,,,,,,,,,,,,,,,,,92,001,2023_May_04_1425,SpeechDraft1Carolyn_lessNoise_PlusLocalization,2021.2.3,59.898895695829225,
desk.wav,desk.mpg,desk,6,A,Pink_Noise_6_1.wav,Pink_Noise_6_2.wav,,,,,,,,,,,,,,,0,84,84,45,,,,,,,,,,,,,,,,,,,,,,,681.3558699311689,None,682.8884946010076,None,684.2719976850785,None,rain,684.2719976850785,None,return,1.038172957021743,684.3554937280715,None,,,,,,,,,,,,,,,,,,,,,,,,,,,,,,,,,,,,,,,92,001,2023_May_04_1425,SpeechDraft1Carolyn_lessNoise_PlusLocalization,2021.2.3,59.898895695829225,
chain.wav,chain.mpg,chain,1,A,Pink_Noise_1_1.wav,Pink_Noise_1_2.wav,,,,,,,,,,,,,,,0,85,85,11,,,,,,,,,,,,,,,,,,,,,,,685.4220823380165,None,686.9716015392914,None,688.338701131288,None,chain,688.338701131288,None,return,1.1875544730573893,688.4220828041434,None,,,,,,,,,,,,,,,,,,,,,,,,,,,,,,,,,,,,,,,92,001,2023_May_04_1425,SpeechDraft1Carolyn_lessNoise_PlusLocalization,2021.2.3,59.898895695829225,
chow.wav,chow.mpg,chow,1,A,Pink_Noise_1_1.wav,Pink_Noise_1_2.wav,,,,,,,,,,,,,,,0,86,86,19,,,,,,,,,,,,,,,,,,,,,,,689.6386203179136,None,691.1549960160628,None,692.5390351261012,None,child,692.5390351261012,None,return,1.1637562839314342,692.6219877870753,None,,,,,,,,,,,,,,,,,,,,,,,,,,,,,,,,,,,,,,,92,001,2023_May_04_1425,SpeechDraft1Carolyn_lessNoise_PlusLocalization,2021.2.3,59.898895695829225,
cow.wav,cow.mpg,cow,1,AV,Pink_Noise_1_1.wav,Pink_Noise_1_2.wav,,,,,,,,,,,,,,,0,87,87,92,,,,,,,,,,,,,,,,,,,,,,,693.8054059562273,None,695.3217935720459,None,696.70547248004,None,cow,696.70547248004,None,return,0.9330573123879731,696.7887254282832,None,,,,,,,,,,,,,,,,,,,,,,,,,,,,,,,,,,,,,,,92,001,2023_May_04_1425,SpeechDraft1Carolyn_lessNoise_PlusLocalization,2021.2.3,59.898895695829225,
broom.wav,broom.mpg,broom,6,AV,Pink_Noise_6_1.wav,Pink_Noise_6_2.wav,,,,,,,,,,,,,,,0,88,88,60,,,,,,,,,,,,,,,,,,,,,,,697.7387243392877,None,699.2554014660418,None,700.638757372275,None,bling,700.638757372275,None,return,2.29567445628345,700.7220385069959,None,,,,,,,,,,,,,,,,,,,,,,,,,,,,,,,,,,,,,,,92,001,2023_May_04_1425,SpeechDraft1Carolyn_lessNoise_PlusLocalization,2021.2.3,59.898895695829225,
bone.wav,bone.mpg,bone,5,AV,Pink_Noise_5_1.wav,Pink_Noise_5_2.wav,,,,,,,,,,,,,,,0,89,89,81,,,,,,,,,,,,,,,,,,,,,,,703.0387819963507,None,704.588528458029,None,705.9720528861508,None,rogue,705.9720528861508,None,return,1.2822505659423769,706.0555235319771,None,,,,,,,,,,,,,,,,,,,,,,,,,,,,,,,,,,,,,,,92,001,2023_May_04_1425,SpeechDraft1Carolyn_lessNoise_PlusLocalization,2021.2.3,59.898895695829225,
your.wav,your.mpg,your,3,A,Pink_Noise_3_1.wav,Pink_Noise_3_2.wav,,,,,,,,,,,,,,,0,90,90,3,,,,,,,,,,,,,,,,,,,,,,,707.3554456760176,None,708.8724363222718,None,710.25541677,None,york,710.25541677,None,return,1.8789804158732295,710.3386992909946,None,,,,,,,,,,,,,,,,,,,,,,,,,,,,,,,,,,,,,,,92,001,2023_May_04_1425,SpeechDraft1Carolyn_lessNoise_PlusLocalization,2021.2.3,59.898895695829225,
cleft.wav,cleft.mpg,cleft,4,AV,Pink_Noise_4_1.wav,Pink_Noise_4_2.wav,,,,,,,,,,,,,,,0,91,91,67,,,,,,,,,,,,,,,,,,,,,,,712.2387644029222,None,713.7718487922102,None,715.1554534309544,None,clench,715.1554534309544,None,return,1.3390020681545138,715.2388128000312,None,,,,,,,,,,,,,,,,,,,,,,,,,,,,,,,,,,,,,,,92,001,2023_May_04_1425,SpeechDraft1Carolyn_lessNoise_PlusLocalization,2021.2.3,59.898895695829225,
aunt.wav,aunt.mpg,aunt,3,A,Pink_Noise_3_1.wav,Pink_Noise_3_2.wav,,,,,,,,,,,,,,,0,92,92,5,,,,,,,,,,,,,,,,,,,,,,,716.6054596952163,None,718.1217866530642,None,719.5054833153263,None,heart,719.5054833153263,None,return,10.38902913639322,719.588761636056,None,,,,,,,,,,,,,,,,,,,,,,,,,,,,,,,,,,,,,,,92,001,2023_May_04_1425,SpeechDraft1Carolyn_lessNoise_PlusLocalization,2021.2.3,59.898895695829225,
blend.wav,blend.mpg,blend,6,A,Pink_Noise_6_1.wav,Pink_Noise_6_2.wav,,,,,,,,,,,,,,,0,93,93,52,,,,,,,,,,,,,,,,,,,,,,,730.0055666272528,None,731.5383887272328,None,732.9221269171685,None,rain,732.9221269171685,None,return,2.0280434992164373,733.0056190402247,None,,,,,,,,,,,,,,,,,,,,,,,,,,,,,,,,,,,,,,,92,001,2023_May_04_1425,SpeechDraft1Carolyn_lessNoise_PlusLocalization,2021.2.3,59.898895695829225,
dull.wav,dull.mpg,dull,6,A,Pink_Noise_6_1.wav,Pink_Noise_6_2.wav,,,,,,,,,,,,,,,0,94,94,22,,,,,,,,,,,,,,,,,,,,,,,735.0555632892065,None,736.5883688852191,None,737.9729815791361,None,"dog
",737.9729815791361,None,return,11.434127521235496,738.0555479452014,None,,,,,,,,,,,,,,,,,,,,,,,,,,,,,,,,,,,,,,,92,001,2023_May_04_1425,SpeechDraft1Carolyn_lessNoise_PlusLocalization,2021.2.3,59.898895695829225,
bath.wav,bath.mpg,bath,6,AV,Pink_Noise_6_1.wav,Pink_Noise_6_2.wav,,,,,,,,,,,,,,,0,95,95,111,,,,,,,,,,,,,,,,,,,,,,,749.5221142703667,None,751.0551458429545,None,752.4387719132937,None,man,752.4387719132937,None,return,1.0556705938652158,752.5221302593127,None,,,,,,,,,,,,,,,,,,,,,,,,,,,,,,,,,,,,,,,92,001,2023_May_04_1425,SpeechDraft1Carolyn_lessNoise_PlusLocalization,2021.2.3,59.898895695829225,
die.wav,die.mpg,die,2,A,Pink_Noise_2_1.wav,Pink_Noise_2_2.wav,,,,,,,,,,,,,,,0,96,96,37,,,,,,,,,,,,,,,,,,,,,,,753.6054294682108,None,755.1387081681751,None,756.5221090852283,None,die,756.5221090852283,None,return,1.3802676512859762,756.6054691863246,None,,,,,,,,,,,,,,,,,,,,,,,,,,,,,,,,,,,,,,,92,001,2023_May_04_1425,SpeechDraft1Carolyn_lessNoise_PlusLocalization,2021.2.3,59.898895695829225,
bib.wav,bib.mpg,bib,5,A,Pink_Noise_5_1.wav,Pink_Noise_5_2.wav,,,,,,,,,,,,,,,0,97,97,4,,,,,,,,,,,,,,,,,,,,,,,758.0053595681675,None,759.5383399110287,None,760.9055872112513,None,fig,760.9055872112513,None,return,5.132950834929943,760.9888331652619,None,,,,,,,,,,,,,,,,,,,,,,,,,,,,,,,,,,,,,,,92,001,2023_May_04_1425,SpeechDraft1Carolyn_lessNoise_PlusLocalization,2021.2.3,59.898895695829225,
fun.wav,fun.mpg,fun,5,AV,Pink_Noise_5_1.wav,Pink_Noise_5_2.wav,,,,,,,,,,,,,,,0,98,98,73,,,,,,,,,,,,,,,,,,,,,,,766.1388348280452,None,767.6717700739391,None,769.055547658354,None,"mark
",769.055547658354,None,return,1.102837573736906,769.1388289211318,None,,,,,,,,,,,,,,,,,,,,,,,,,,,,,,,,,,,,,,,92,001,2023_May_04_1425,SpeechDraft1Carolyn_lessNoise_PlusLocalization,2021.2.3,59.898895695829225,
gab.wav,gab.mpg,gab,3,AV,Pink_Noise_3_1.wav,Pink_Noise_3_2.wav,,,,,,,,,,,,,,,0,99,99,71,,,,,,,,,,,,,,,,,,,,,,,770.2721272129565,None,771.8052859851159,None,773.172136106994,None,cam,773.172136106994,None,return,16.514000181108713,773.2717578699812,None,,,,,,,,,,,,,,,,,,,,,,,,,,,,,,,,,,,,,,,92,001,2023_May_04_1425,SpeechDraft1Carolyn_lessNoise_PlusLocalization,2021.2.3,59.898895695829225,
beat.wav,beat.mpg,beat,5,A,Pink_Noise_5_1.wav,Pink_Noise_5_2.wav,,,,,,,,,,,,,,,0,100,100,54,,,,,,,,,,,,,,,,,,,,,,,789.8055523503572,None,791.3388993479311,None,792.7222094060853,None,reach,792.7222094060853,None,return,7.212036503944546,792.8056391691789,None,,,,,,,,,,,,,,,,,,,,,,,,,,,,,,,,,,,,,,,92,001,2023_May_04_1425,SpeechDraft1Carolyn_lessNoise_PlusLocalization,2021.2.3,59.898895695829225,
cramp.wav,cramp.mpg,cramp,3,A,Pink_Noise_3_1.wav,Pink_Noise_3_2.wav,,,,,,,,,,,,,,,0,101,101,58,,,,,,,,,,,,,,,,,,,,,,,800.038800295908,None,801.5718268090859,None,802.955612316262,None,crail,802.955612316262,None,return,3.2908840188756585,803.0390315949917,None,,,,,,,,,,,,,,,,,,,,,,,,,,,,,,,,,,,,,,,92,001,2023_May_04_1425,SpeechDraft1Carolyn_lessNoise_PlusLocalization,2021.2.3,59.898895695829225,
paid.wav,paid.mpg,paid,1,A,Pink_Noise_1_1.wav,Pink_Noise_1_2.wav,,,,,,,,,,,,,,,0,102,102,28,,,,,,,,,,,,,,,,,,,,,,,806.3556194431148,None,807.9053051741794,None,809.2888800250366,None,paid,809.2888800250366,None,return,4.293298349250108,809.3723571561277,None,,,,,,,,,,,,,,,,,,,,,,,,,,,,,,,,,,,,,,,92,001,2023_May_04_1425,SpeechDraft1Carolyn_lessNoise_PlusLocalization,2021.2.3,59.898895695829225,
cope.wav,cope.mpg,cope,4,AV,Pink_Noise_4_1.wav,Pink_Noise_4_2.wav,,,,,,,,,,,,,,,0,103,103,97,,,,,,,,,,,,,,,,,,,,,,,813.6888544950634,None,815.2218682123348,None,816.588884727098,None,coat,816.588884727098,None,return,1.5214536390267313,816.6722062542103,None,,,,,,,,,,,,,,,,,,,,,,,,,,,,,,,,,,,,,,,92,001,2023_May_04_1425,SpeechDraft1Carolyn_lessNoise_PlusLocalization,2021.2.3,59.898895695829225,
tank.wav,tank.mpg,tank,2,AV,Pink_Noise_2_1.wav,Pink_Noise_2_2.wav,,,,,,,,,,,,,,,0,104,104,85,,,,,,,,,,,,,,,,,,,,,,,818.2221492431127,None,819.7387426542118,None,821.1222833972424,None,tech,821.1222833972424,None,return,1.7802692400291562,821.2055172403343,None,,,,,,,,,,,,,,,,,,,,,,,,,,,,,,,,,,,,,,,92,001,2023_May_04_1425,SpeechDraft1Carolyn_lessNoise_PlusLocalization,2021.2.3,59.898895695829225,
pike.wav,pike.mpg,pike,6,AV,Pink_Noise_6_1.wav,Pink_Noise_6_2.wav,,,,,,,,,,,,,,,0,105,105,62,,,,,,,,,,,,,,,,,,,,,,,823.0054823681712,None,824.521873428952,None,825.905513484031,None,type,825.905513484031,None,return,1.6928180060349405,825.9888532883488,None,,,,,,,,,,,,,,,,,,,,,,,,,,,,,,,,,,,,,,,92,001,2023_May_04_1425,SpeechDraft1Carolyn_lessNoise_PlusLocalization,2021.2.3,59.898895695829225,
gaze.wav,gaze.mpg,gaze,3,A,Pink_Noise_3_1.wav,Pink_Noise_3_2.wav,,,,,,,,,,,,,,,0,106,106,33,,,,,,,,,,,,,,,,,,,,,,,827.705545604229,None,829.2387021100149,None,830.6056356481276,None,gaze,830.6056356481276,None,return,1.0569145129993558,830.6888444209471,None,,,,,,,,,,,,,,,,,,,,,,,,,,,,,,,,,,,,,,,92,001,2023_May_04_1425,SpeechDraft1Carolyn_lessNoise_PlusLocalization,2021.2.3,59.898895695829225,
rent.wav,rent.mpg,rent,3,A,Pink_Noise_3_1.wav,Pink_Noise_3_2.wav,,,,,,,,,,,,,,,0,107,107,27,,,,,,,,,,,,,,,,,,,,,,,831.77224475611,None,833.2885625022464,None,834.6723192962818,None,bent,834.6723192962818,None,return,1.9260696722194552,834.7556438413449,None,,,,,,,,,,,,,,,,,,,,,,,,,,,,,,,,,,,,,,,92,001,2023_May_04_1425,SpeechDraft1Carolyn_lessNoise_PlusLocalization,2021.2.3,59.898895695829225,
gone.wav,gone.mpg,gone,1,AV,Pink_Noise_1_1.wav,Pink_Noise_1_2.wav,,,,,,,,,,,,,,,0,108,108,74,,,,,,,,,,,,,,,,,,,,,,,836.7055563512258,None,838.2219940721989,None,839.6054508970119,None,gone,839.6054508970119,None,return,1.2166714840568602,839.6890017590486,None,,,,,,,,,,,,,,,,,,,,,,,,,,,,,,,,,,,,,,,92,001,2023_May_04_1425,SpeechDraft1Carolyn_lessNoise_PlusLocalization,2021.2.3,59.898895695829225,
file.wav,file.mpg,file,6,A,Pink_Noise_6_1.wav,Pink_Noise_6_2.wav,,,,,,,,,,,,,,,0,109,109,32,,,,,,,,,,,,,,,,,,,,,,,840.9223302351311,None,842.4407116011716,None,843.8222120329738,None,"high
",843.8222120329738,None,return,2.9520020936615765,843.9056547740474,None,,,,,,,,,,,,,,,,,,,,,,,,,,,,,,,,,,,,,,,92,001,2023_May_04_1425,SpeechDraft1Carolyn_lessNoise_PlusLocalization,2021.2.3,59.898895695829225,
base.wav,base.mpg,base,3,AV,Pink_Noise_3_1.wav,Pink_Noise_3_2.wav,,,,,,,,,,,,,,,0,110,110,75,,,,,,,,,,,,,,,,,,,,,,,846.8890093499795,None,848.4386239843443,None,849.8223716309294,None,face,849.8223716309294,None,return,1.048073974903673,849.9056188859977,None,,,,,,,,,,,,,,,,,,,,,,,,,,,,,,,,,,,,,,,92,001,2023_May_04_1425,SpeechDraft1Carolyn_lessNoise_PlusLocalization,2021.2.3,59.898895695829225,
clog.wav,clog.mpg,clog,5,A,Pink_Noise_5_1.wav,Pink_Noise_5_2.wav,,,,,,,,,,,,,,,0,111,111,9,,,,,,,,,,,,,,,,,,,,,,,850.9722954700701,None,852.5054438952357,None,853.872394411359,None,paw,853.872394411359,None,return,1.0781001187860966,853.9556105113588,None,,,,,,,,,,,,,,,,,,,,,,,,,,,,,,,,,,,,,,,92,001,2023_May_04_1425,SpeechDraft1Carolyn_lessNoise_PlusLocalization,2021.2.3,59.898895695829225,
pipe.wav,pipe.mpg,pipe,4,A,Pink_Noise_4_1.wav,Pink_Noise_4_2.wav,,,,,,,,,,,,,,,0,112,112,40,,,,,,,,,,,,,,,,,,,,,,,855.0556205939502,None,856.5885639712214,None,857.9741992480122,None,tight,857.9741992480122,None,return,1.4100117040798068,858.0556603521109,None,,,,,,,,,,,,,,,,,,,,,,,,,,,,,,,,,,,,,,,92,001,2023_May_04_1425,SpeechDraft1Carolyn_lessNoise_PlusLocalization,2021.2.3,59.898895695829225,
grant.wav,grant.mpg,grant,4,A,Pink_Noise_4_1.wav,Pink_Noise_4_2.wav,,,,,,,,,,,,,,,0,113,113,16,,,,,,,,,,,,,,,,,,,,,,,859.4889788632281,None,861.0053203902207,None,862.3902814909816,None,"rent
",862.3902814909816,None,return,1.0013185157440603,862.4723428422585,None,,,,,,,,,,,,,,,,,,,,,,,,,,,,,,,,,,,,,,,92,001,2023_May_04_1425,SpeechDraft1Carolyn_lessNoise_PlusLocalization,2021.2.3,59.898895695829225,
skull.wav,skull.mpg,skull,2,AV,Pink_Noise_2_1.wav,Pink_Noise_2_2.wav,,,,,,,,,,,,,,,0,114,114,118,,,,,,,,,,,,,,,,,,,,,,,863.5057038213126,None,865.0385620533489,None,866.4054550970905,None,skull,866.4054550970905,None,return,1.4086955939419568,866.4889584733173,None,,,,,,,,,,,,,,,,,,,,,,,,,,,,,,,,,,,,,,,92,001,2023_May_04_1425,SpeechDraft1Carolyn_lessNoise_PlusLocalization,2021.2.3,59.898895695829225,
fake.wav,fake.mpg,fake,5,AV,Pink_Noise_5_1.wav,Pink_Noise_5_2.wav,,,,,,,,,,,,,,,0,115,115,82,,,,,,,,,,,,,,,,,,,,,,,867.9222411322407,None,869.4721701242961,None,870.8555771079846,None,beat,870.8555771079846,None,return,4.542666562367231,870.938979701139,None,,,,,,,,,,,,,,,,,,,,,,,,,,,,,,,,,,,,,,,92,001,2023_May_04_1425,SpeechDraft1Carolyn_lessNoise_PlusLocalization,2021.2.3,59.898895695829225,
fish.wav,fish.mpg,fish,3,A,Pink_Noise_3_1.wav,Pink_Noise_3_2.wav,,,,,,,,,,,,,,,0,116,116,42,,,,,,,,,,,,,,,,,,,,,,,875.5055861370638,None,877.0386077109724,None,878.4224988361821,None,fish,878.4224988361821,None,return,1.656245213933289,878.5055826841854,None,,,,,,,,,,,,,,,,,,,,,,,,,,,,,,,,,,,,,,,92,001,2023_May_04_1425,SpeechDraft1Carolyn_lessNoise_PlusLocalization,2021.2.3,59.898895695829225,
bloat.wav,bloat.mpg,bloat,1,A,Pink_Noise_1_1.wav,Pink_Noise_1_2.wav,,,,,,,,,,,,,,,0,117,117,25,,,,,,,,,,,,,,,,,,,,,,,880.1889510480687,None,881.7218910222873,None,883.1057394151576,None,gloat,883.1057394151576,None,return,1.348833817988634,883.1889818641357,None,,,,,,,,,,,,,,,,,,,,,,,,,,,,,,,,,,,,,,,92,001,2023_May_04_1425,SpeechDraft1Carolyn_lessNoise_PlusLocalization,2021.2.3,59.898895695829225,
strive.wav,strive.mpg,strive,1,AV,Pink_Noise_1_1.wav,Pink_Noise_1_2.wav,,,,,,,,,,,,,,,0,118,118,101,,,,,,,,,,,,,,,,,,,,,,,884.5558846071362,None,886.0887069101445,None,887.472372550983,None,strive,887.472372550983,None,return,1.4217734290286899,887.5559541229159,None,,,,,,,,,,,,,,,,,,,,,,,,,,,,,,,,,,,,,,,92,001,2023_May_04_1425,SpeechDraft1Carolyn_lessNoise_PlusLocalization,2021.2.3,59.898895695829225,
crew.wav,crew.mpg,crew,5,AV,Pink_Noise_5_1.wav,Pink_Noise_5_2.wav,,,,,,,,,,,,,,,0,119,119,77,,,,,,,,,,,,,,,,,,,,,,,889.0056163500994,None,890.5392170371488,None,891.9225238091312,None,crew,891.9225238091312,None,return,0.9562432765960693,892.005636672955,None,,,,,,,,,,,,,,,,,,,,,,,,,,,,,,,,,,,,,,,92,001,2023_May_04_1425,SpeechDraft1Carolyn_lessNoise_PlusLocalization,2021.2.3,59.898895695829225,
,,,,,,,,,,,,,,,,,,,,,,,,,,,,,,,,,,,,,,,,,,,,,,,,,,,,,,,,,,,,,,,,,,space,32.25668853567913,893.089009381365,None,,,,,,,,,,,,,,,,,,,,,,,,,,,,,92,001,2023_May_04_1425,SpeechDraft1Carolyn_lessNoise_PlusLocalization,2021.2.3,59.898895695829225,
,,,,,,,,midRight,13.0,3,ch1Sound_localizationTask.wav,13.0,"(1142, 878)","(182, -202)",190,-338,,,,,,,,,0,0,0,5,,,,,,,,,,,,,,,,,,,,,,,,,,,,,,,,,,,,,,,,,,893.089009381365,None,925.3889716169797,None,926.5059338733554,None,927.4221127983183,None,1.5116402116402117,7.0019709430634975,927.4221127983183,None,,,,,,,,,,,,,,,,,92,001,2023_May_04_1425,SpeechDraft1Carolyn_lessNoise_PlusLocalization,2021.2.3,59.898895695829225,
,,,,,,,,nearLeft,-6.5,1,ch1Sound_localizationTask.wav,-6.5,"(857, 878)","(-103,-202)",-95,-338,,,,,,,,,0,1,1,2,,,,,,,,,,,,,,,,,,,,,,,,,,,,,,,,,,,,,,,,,,,,934.4240860790014,None,935.5388656379655,None,936.4555461392738,None,1.4047619047619047,2.133611646015197,936.4555461392738,None,,,,,,,,,,,,,,,,,92,001,2023_May_04_1425,SpeechDraft1Carolyn_lessNoise_PlusLocalization,2021.2.3,59.898895695829225,
,,,,,,,,midLeft,-13.0,2,ch1Sound_localizationTask.wav,-13.0,"(762, 878)","(-198,-202)",-190,-338,,,,,,,,,0,2,2,1,,,,,,,,,,,,,,,,,,,,,,,,,,,,,,,,,,,,,,,,,,,,938.6054698061198,None,939.7055758512579,None,940.6222003242001,None,1.2306878306878306,0.732940630055964,940.6222003242001,None,,,,,,,,,,,,,,,,,92,001,2023_May_04_1425,SpeechDraft1Carolyn_lessNoise_PlusLocalization,2021.2.3,59.898895695829225,
,,,,,,,,farRight,19.1,4,ch1Sound_localizationTask.wav,19.1,"(1237, 878)","(277,-202)",285,-338,,,,,,,,,0,3,3,6,,,,,,,,,,,,,,,,,,,,,,,,,,,,,,,,,,,,,,,,,,,,941.3571613370441,None,942.4722498399206,None,943.3890262199566,None,1.6185185185185185,0.9494623197242618,943.3890262199566,None,,,,,,,,,,,,,,,,,92,001,2023_May_04_1425,SpeechDraft1Carolyn_lessNoise_PlusLocalization,2021.2.3,59.898895695829225,
,,,,,,,,midRight,13.0,3,ch1Sound_localizationTask.wav,13.0,"(1142, 878)","(182, -202)",190,-338,,,,,,,,,0,4,4,5,,,,,,,,,,,,,,,,,,,,,,,,,,,,,,,,,,,,,,,,,,,,944.3401703559794,None,945.4388974639587,None,946.3723381310701,None,1.4814814814814814,0.7162930001504719,946.3723381310701,None,,,,,,,,,,,,,,,,,92,001,2023_May_04_1425,SpeechDraft1Carolyn_lessNoise_PlusLocalization,2021.2.3,59.898895695829225,
,,,,,,,,farRight,19.1,4,ch1Sound_localizationTask.wav,19.1,"(1237, 878)","(277,-202)",285,-338,,,,,,,,,0,5,5,6,,,,,,,,,,,,,,,,,,,,,,,,,,,,,,,,,,,,,,,,,,,,947.1057946169749,None,948.2055620471947,None,949.1388737121597,None,1.6428571428571428,0.7821900472044945,949.1388737121597,None,,,,,,,,,,,,,,,,,92,001,2023_May_04_1425,SpeechDraft1Carolyn_lessNoise_PlusLocalization,2021.2.3,59.898895695829225,
,,,,,,,,center,0.0,6,ch1Sound_localizationTask.wav,0.0,"(952, 878)","(-8,-202)",0,-338,,,,,,,,,0,6,6,3,,,,,,,,,,,,,,,,,,,,,,,,,,,,,,,,,,,,,,,,,,,,949.9241860322654,None,951.0388020710088,None,951.9555269079283,None,1.3396825396825398,0.7830237708985806,951.9555269079283,None,,,,,,,,,,,,,,,,,92,001,2023_May_04_1425,SpeechDraft1Carolyn_lessNoise_PlusLocalization,2021.2.3,59.898895695829225,
,,,,,,,,center,0.0,6,ch1Sound_localizationTask.wav,0.0,"(952, 878)","(-8,-202)",0,-338,,,,,,,,,1,0,7,3,,,,,,,,,,,,,,,,,,,,,,,,,,,,,,,,,,,,,,,,,,,,952.7406372451223,None,953.8555319900624,None,954.7722068759613,None,1.3968253968253967,1.8332840506918728,954.7722068759613,None,,,,,,,,,,,,,,,,,92,001,2023_May_04_1425,SpeechDraft1Carolyn_lessNoise_PlusLocalization,2021.2.3,59.898895695829225,
,,,,,,,,center,0.0,6,ch1Sound_localizationTask.wav,0.0,"(952, 878)","(-8,-202)",0,-338,,,,,,,,,1,1,8,3,,,,,,,,,,,,,,,,,,,,,,,,,,,,,,,,,,,,,,,,,,,,956.622495837044,None,957.7222893382423,None,958.6554282503203,None,1.4185185185185185,0.9832535209134221,958.6554282503203,None,,,,,,,,,,,,,,,,,92,001,2023_May_04_1425,SpeechDraft1Carolyn_lessNoise_PlusLocalization,2021.2.3,59.898895695829225,
,,,,,,,,farRight,19.1,4,ch1Sound_localizationTask.wav,19.1,"(1237, 878)","(277,-202)",285,-338,,,,,,,,,1,2,9,6,,,,,,,,,,,,,,,,,,,,,,,,,,,,,,,,,,,,,,,,,,,,959.6558063812554,None,960.7554649342783,None,961.6888496573083,None,1.638095238095238,0.5486805192194879,961.6888496573083,None,,,,,,,,,,,,,,,,,92,001,2023_May_04_1425,SpeechDraft1Carolyn_lessNoise_PlusLocalization,2021.2.3,59.898895695829225,
,,,,,,,,nearLeft,-6.5,1,ch1Sound_localizationTask.wav,-6.5,"(857, 878)","(-103,-202)",-95,-338,,,,,,,,,1,3,10,2,,,,,,,,,,,,,,,,,,,,,,,,,,,,,,,,,,,,,,,,,,,,962.2396439262666,None,963.338782754261,None,964.2720252792351,None,1.3063492063492064,1.7001565070822835,964.2720252792351,None,,,,,,,,,,,,,,,,,92,001,2023_May_04_1425,SpeechDraft1Carolyn_lessNoise_PlusLocalization,2021.2.3,59.898895695829225,
,,,,,,,,center,0.0,6,ch1Sound_localizationTask.wav,0.0,"(952, 878)","(-8,-202)",0,-338,,,,,,,,,1,4,11,3,,,,,,,,,,,,,,,,,,,,,,,,,,,,,,,,,,,,,,,,,,,,965.9893190641887,None,967.0888586072251,None,968.0220164740458,None,1.3031746031746032,0.999543848913163,968.0220164740458,None,,,,,,,,,,,,,,,,,92,001,2023_May_04_1425,SpeechDraft1Carolyn_lessNoise_PlusLocalization,2021.2.3,59.898895695829225,
,,,,,,,,farLeft,-19.1,5,ch1Sound_localizationTask.wav,-19.1,"(667, 878)","(-293,-202)",-285,-338,,,,,,,,,1,5,12,0,,,,,,,,,,,,,,,,,,,,,,,,,,,,,,,,,,,,,,,,,,,,969.0391144012101,None,970.1388345472515,None,971.0722010289319,None,1.1481481481481481,1.3496442129835486,971.0722010289319,None,,,,,,,,,,,,,,,,,92,001,2023_May_04_1425,SpeechDraft1Carolyn_lessNoise_PlusLocalization,2021.2.3,59.898895695829225,
,,,,,,,,midLeft,-13.0,2,ch1Sound_localizationTask.wav,-13.0,"(762, 878)","(-198,-202)",-190,-338,,,,,,,,,1,6,13,1,,,,,,,,,,,,,,,,,,,,,,,,,,,,,,,,,,,,,,,,,,,,972.4393033739179,None,973.5387052050792,None,974.4723394890316,None,1.1206349206349207,0.31610500207170844,974.4723394890316,None,,,,,,,,,,,,,,,,,92,001,2023_May_04_1425,SpeechDraft1Carolyn_lessNoise_PlusLocalization,2021.2.3,59.898895695829225,
,,,,,,,,farLeft,-19.1,5,ch1Sound_localizationTask.wav,-19.1,"(667, 878)","(-293,-202)",-285,-338,,,,,,,,,2,0,14,0,,,,,,,,,,,,,,,,,,,,,,,,,,,,,,,,,,,,,,,,,,,,974.789940556977,None,975.888935752213,None,976.8223006911576,None,1.1206349206349207,0.4829698479734361,976.8223006911576,None,,,,,,,,,,,,,,,,,92,001,2023_May_04_1425,SpeechDraft1Carolyn_lessNoise_PlusLocalization,2021.2.3,59.898895695829225,
,,,,,,,,nearRight,6.5,0,ch1Sound_localizationTask.wav,6.5,"(1047, 878)","(87, -202)",95,-338,,,,,,,,,2,1,15,4,,,,,,,,,,,,,,,,,,,,,,,,,,,,,,,,,,,,,,,,,,,,977.3071782360785,None,978.4223430990241,None,979.3388948519714,None,1.4767195767195767,2.8990896018221974,979.3388948519714,None,,,,,,,,,,,,,,,,,92,001,2023_May_04_1425,SpeechDraft1Carolyn_lessNoise_PlusLocalization,2021.2.3,59.898895695829225,
,,,,,,,,center,0.0,6,ch1Sound_localizationTask.wav,0.0,"(952, 878)","(-8,-202)",0,-338,,,,,,,,,2,2,16,3,,,,,,,,,,,,,,,,,,,,,,,,,,,,,,,,,,,,,,,,,,,,982.2402365510352,None,983.3388493680395,None,984.2721663261764,None,1.364021164021164,0.9339950690045953,984.2721663261764,None,,,,,,,,,,,,,,,,,92,001,2023_May_04_1425,SpeechDraft1Carolyn_lessNoise_PlusLocalization,2021.2.3,59.898895695829225,
,,,,,,,,nearRight,6.5,0,ch1Sound_localizationTask.wav,6.5,"(1047, 878)","(87, -202)",95,-338,,,,,,,,,2,3,17,4,,,,,,,,,,,,,,,,,,,,,,,,,,,,,,,,,,,,,,,,,,,,985.2225366961211,None,986.3224146142602,None,987.2554812273011,None,1.46984126984127,0.7993334801867604,987.2554812273011,None,,,,,,,,,,,,,,,,,92,001,2023_May_04_1425,SpeechDraft1Carolyn_lessNoise_PlusLocalization,2021.2.3,59.898895695829225,
,,,,,,,,farRight,19.1,4,ch1Sound_localizationTask.wav,19.1,"(1237, 878)","(277,-202)",285,-338,,,,,,,,,2,4,18,6,,,,,,,,,,,,,,,,,,,,,,,,,,,,,,,,,,,,,,,,,,,,988.0567524409853,None,989.1555958143435,None,990.0889159492217,None,1.5724867724867724,0.782206195872277,990.0889159492217,None,,,,,,,,,,,,,,,,,92,001,2023_May_04_1425,SpeechDraft1Carolyn_lessNoise_PlusLocalization,2021.2.3,59.898895695829225,
,,,,,,,,midLeft,-13.0,2,ch1Sound_localizationTask.wav,-13.0,"(762, 878)","(-198,-202)",-190,-338,,,,,,,,,2,5,19,1,,,,,,,,,,,,,,,,,,,,,,,,,,,,,,,,,,,,,,,,,,,,990.8734029773623,None,991.9721647249535,None,992.9054546710104,None,1.2502645502645502,1.015993908047676,992.9054546710104,None,,,,,,,,,,,,,,,,,92,001,2023_May_04_1425,SpeechDraft1Carolyn_lessNoise_PlusLocalization,2021.2.3,59.898895695829225,
,,,,,,,,midRight,13.0,3,ch1Sound_localizationTask.wav,13.0,"(1142, 878)","(182, -202)",190,-338,,,,,,,,,2,6,20,5,,,,,,,,,,,,,,,,,,,,,,,,,,,,,,,,,,,,,,,,,,,,993.9234712570906,None,995.0221852641553,None,995.9555182871409,None,1.4846560846560846,0.9164278190582991,995.9555182871409,None,,,,,,,,,,,,,,,,,92,001,2023_May_04_1425,SpeechDraft1Carolyn_lessNoise_PlusLocalization,2021.2.3,59.898895695829225,
,,,,,,,,nearRight,6.5,0,ch1Sound_localizationTask.wav,6.5,"(1047, 878)","(87, -202)",95,-338,,,,,,,,,3,0,21,4,,,,,,,,,,,,,,,,,,,,,,,,,,,,,,,,,,,,,,,,,,,,996.8736416702159,None,997.98878566036,None,998.9056474952959,None,1.5349206349206348,2.5658549540676177,998.9056474952959,None,,,,,,,,,,,,,,,,,92,001,2023_May_04_1425,SpeechDraft1Carolyn_lessNoise_PlusLocalization,2021.2.3,59.898895695829225,
,,,,,,,,nearLeft,-6.5,1,ch1Sound_localizationTask.wav,-6.5,"(857, 878)","(-103,-202)",-95,-338,,,,,,,,,3,1,22,2,,,,,,,,,,,,,,,,,,,,,,,,,,,,,,,,,,,,,,,,,,,,1001.4732101382688,None,1002.572146999184,None,1003.5057871099561,None,1.2915343915343915,1.0291891936212778,1003.5057871099561,None,,,,,,,,,,,,,,,,,92,001,2023_May_04_1425,SpeechDraft1Carolyn_lessNoise_PlusLocalization,2021.2.3,59.898895695829225,
,,,,,,,,nearLeft,-6.5,1,ch1Sound_localizationTask.wav,-6.5,"(857, 878)","(-103,-202)",-95,-338,,,,,,,,,3,2,23,2,,,,,,,,,,,,,,,,,,,,,,,,,,,,,,,,,,,,,,,,,,,,1004.5402173190378,None,1005.6556238001212,None,1006.5723254731856,None,1.3174603174603174,0.6658618431538343,1006.5723254731856,None,,,,,,,,,,,,,,,,,92,001,2023_May_04_1425,SpeechDraft1Carolyn_lessNoise_PlusLocalization,2021.2.3,59.898895695829225,
,,,,,,,,midLeft,-13.0,2,ch1Sound_localizationTask.wav,-13.0,"(762, 878)","(-198,-202)",-190,-338,,,,,,,,,3,3,24,1,,,,,,,,,,,,,,,,,,,,,,,,,,,,,,,,,,,,,,,,,,,,1007.240218302235,None,1008.339014749974,None,1009.2722877841443,None,1.228042328042328,1.1825229721143842,1009.2722877841443,None,,,,,,,,,,,,,,,,,92,001,2023_May_04_1425,SpeechDraft1Carolyn_lessNoise_PlusLocalization,2021.2.3,59.898895695829225,
,,,,,,,,midLeft,-13.0,2,ch1Sound_localizationTask.wav,-13.0,"(762, 878)","(-198,-202)",-190,-338,,,,,,,,,3,4,25,1,,,,,,,,,,,,,,,,,,,,,,,,,,,,,,,,,,,,,,,,,,,,1010.4570289989933,None,1011.5724099110812,None,1012.4890773883089,None,1.16984126984127,0.8324628691188991,1012.4890773883089,None,,,,,,,,,,,,,,,,,92,001,2023_May_04_1425,SpeechDraft1Carolyn_lessNoise_PlusLocalization,2021.2.3,59.898895695829225,
,,,,,,,,midLeft,-13.0,2,ch1Sound_localizationTask.wav,-13.0,"(762, 878)","(-198,-202)",-190,-338,,,,,,,,,3,5,26,1,,,,,,,,,,,,,,,,,,,,,,,,,,,,,,,,,,,,,,,,,,,,1013.3237356571481,None,1014.4390063690953,None,1015.355588415172,None,1.1185185185185185,0.5827585919760168,1015.355588415172,None,,,,,,,,,,,,,,,,,92,001,2023_May_04_1425,SpeechDraft1Carolyn_lessNoise_PlusLocalization,2021.2.3,59.898895695829225,
,,,,,,,,nearLeft,-6.5,1,ch1Sound_localizationTask.wav,-6.5,"(857, 878)","(-103,-202)",-95,-338,,,,,,,,,3,6,27,2,,,,,,,,,,,,,,,,,,,,,,,,,,,,,,,,,,,,,,,,,,,,1015.9403847861104,None,1017.0555951730348,None,1017.9722344493493,None,1.1994708994708994,0.8492273818701506,1017.9722344493493,None,,,,,,,,,,,,,,,,,92,001,2023_May_04_1425,SpeechDraft1Carolyn_lessNoise_PlusLocalization,2021.2.3,59.898895695829225,
,,,,,,,,nearRight,6.5,0,ch1Sound_localizationTask.wav,6.5,"(1047, 878)","(87, -202)",95,-338,,,,,,,,,4,0,28,4,,,,,,,,,,,,,,,,,,,,,,,,,,,,,,,,,,,,,,,,,,,,1018.8231321950443,None,1019.9221945321187,None,1020.8556226710789,None,1.3497354497354497,0.8675655997358263,1020.8556226710789,None,,,,,,,,,,,,,,,,,92,001,2023_May_04_1425,SpeechDraft1Carolyn_lessNoise_PlusLocalization,2021.2.3,59.898895695829225,
,,,,,,,,midRight,13.0,3,ch1Sound_localizationTask.wav,13.0,"(1142, 878)","(182, -202)",190,-338,,,,,,,,,4,1,29,5,,,,,,,,,,,,,,,,,,,,,,,,,,,,,,,,,,,,,,,,,,,,1021.7392191472463,None,1022.8388572991826,None,1023.7723459941335,None,1.4968253968253968,0.949040746781975,1023.7723459941335,None,,,,,,,,,,,,,,,,,92,001,2023_May_04_1425,SpeechDraft1Carolyn_lessNoise_PlusLocalization,2021.2.3,59.898895695829225,
,,,,,,,,nearLeft,-6.5,1,ch1Sound_localizationTask.wav,-6.5,"(857, 878)","(-103,-202)",-95,-338,,,,,,,,,4,2,30,2,,,,,,,,,,,,,,,,,,,,,,,,,,,,,,,,,,,,,,,,,,,,1024.7237222469412,None,1025.8390223123133,None,1026.7557478751987,None,1.276190476190476,0.6824696315452456,1026.7557478751987,None,,,,,,,,,,,,,,,,,92,001,2023_May_04_1425,SpeechDraft1Carolyn_lessNoise_PlusLocalization,2021.2.3,59.898895695829225,
,,,,,,,,midRight,13.0,3,ch1Sound_localizationTask.wav,13.0,"(1142, 878)","(182, -202)",190,-338,,,,,,,,,4,3,31,5,,,,,,,,,,,,,,,,,,,,,,,,,,,,,,,,,,,,,,,,,,,,1027.4404693152755,None,1028.5557278292254,None,1029.4722605962306,None,1.492063492063492,0.8162122969515622,1029.4722605962306,None,,,,,,,,,,,,,,,,,92,001,2023_May_04_1425,SpeechDraft1Carolyn_lessNoise_PlusLocalization,2021.2.3,59.898895695829225,
,,,,,,,,center,0.0,6,ch1Sound_localizationTask.wav,0.0,"(952, 878)","(-8,-202)",0,-338,,,,,,,,,4,4,32,3,,,,,,,,,,,,,,,,,,,,,,,,,,,,,,,,,,,,,,,,,,,,1030.290379120037,None,1031.4058890109882,None,1032.322387708351,None,1.4857142857142858,1.3998620831407607,1032.322387708351,None,,,,,,,,,,,,,,,,,92,001,2023_May_04_1425,SpeechDraft1Carolyn_lessNoise_PlusLocalization,2021.2.3,59.898895695829225,
,,,,,,,,midLeft,-13.0,2,ch1Sound_localizationTask.wav,-13.0,"(762, 878)","(-198,-202)",-190,-338,,,,,,,,,4,5,33,1,,,,,,,,,,,,,,,,,,,,,,,,,,,,,,,,,,,,,,,,,,,,1033.7240186310373,None,1034.839106996078,None,1035.755788163282,None,1.1894179894179895,0.6317065828479826,1035.755788163282,None,,,,,,,,,,,,,,,,,92,001,2023_May_04_1425,SpeechDraft1Carolyn_lessNoise_PlusLocalization,2021.2.3,59.898895695829225,
,,,,,,,,farLeft,-19.1,5,ch1Sound_localizationTask.wav,-19.1,"(667, 878)","(-293,-202)",-285,-338,,,,,,,,,4,6,34,0,,,,,,,,,,,,,,,,,,,,,,,,,,,,,,,,,,,,,,,,,,,,1036.405631564092,None,1037.5055620712228,None,1038.4223103229888,None,1.1137566137566137,0.6499850619584322,1038.4223103229888,None,,,,,,,,,,,,,,,,,92,001,2023_May_04_1425,SpeechDraft1Carolyn_lessNoise_PlusLocalization,2021.2.3,59.898895695829225,
,,,,,,,,center,0.0,6,ch1Sound_localizationTask.wav,0.0,"(952, 878)","(-8,-202)",0,-338,,,,,,,,,5,0,35,3,,,,,,,,,,,,,,,,,,,,,,,,,,,,,,,,,,,,,,,,,,,,1039.0739133879542,None,1040.1889210869558,None,1041.1056597791612,None,1.4894179894179893,0.7171766301617026,1041.1056597791612,None,,,,,,,,,,,,,,,,,92,001,2023_May_04_1425,SpeechDraft1Carolyn_lessNoise_PlusLocalization,2021.2.3,59.898895695829225,
,,,,,,,,midLeft,-13.0,2,ch1Sound_localizationTask.wav,-13.0,"(762, 878)","(-198,-202)",-190,-338,,,,,,,,,5,1,36,1,,,,,,,,,,,,,,,,,,,,,,,,,,,,,,,,,,,,,,,,,,,,1041.8395113991573,None,1042.9391661081463,None,1043.8721651183441,None,1.237037037037037,0.649740765336901,1043.8721651183441,None,,,,,,,,,,,,,,,,,92,001,2023_May_04_1425,SpeechDraft1Carolyn_lessNoise_PlusLocalization,2021.2.3,59.898895695829225,
,,,,,,,,nearLeft,-6.5,1,ch1Sound_localizationTask.wav,-6.5,"(857, 878)","(-103,-202)",-95,-338,,,,,,,,,5,2,37,2,,,,,,,,,,,,,,,,,,,,,,,,,,,,,,,,,,,,,,,,,,,,1044.5246556592174,None,1045.638968706131,None,1046.5556075023487,None,1.3529100529100528,0.6653417889028788,1046.5556075023487,None,,,,,,,,,,,,,,,,,92,001,2023_May_04_1425,SpeechDraft1Carolyn_lessNoise_PlusLocalization,2021.2.3,59.898895695829225,
,,,,,,,,farRight,19.1,4,ch1Sound_localizationTask.wav,19.1,"(1237, 878)","(277,-202)",285,-338,,,,,,,,,5,3,38,6,,,,,,,,,,,,,,,,,,,,,,,,,,,,,,,,,,,,,,,,,,,,1047.2230651169084,None,1048.3222858062945,None,1049.255809610244,None,1.5925925925925926,0.8485789131373167,1049.255809610244,None,,,,,,,,,,,,,,,,,92,001,2023_May_04_1425,SpeechDraft1Carolyn_lessNoise_PlusLocalization,2021.2.3,59.898895695829225,
,,,,,,,,farRight,19.1,4,ch1Sound_localizationTask.wav,19.1,"(1237, 878)","(277,-202)",285,-338,,,,,,,,,5,4,39,6,,,,,,,,,,,,,,,,,,,,,,,,,,,,,,,,,,,,,,,,,,,,1050.1066234102473,None,1051.2057799641043,None,1052.1390011529438,None,1.5105820105820107,0.6821625577285886,1052.1390011529438,None,,,,,,,,,,,,,,,,,92,001,2023_May_04_1425,SpeechDraft1Carolyn_lessNoise_PlusLocalization,2021.2.3,59.898895695829225,
,,,,,,,,nearRight,6.5,0,ch1Sound_localizationTask.wav,6.5,"(1047, 878)","(87, -202)",95,-338,,,,,,,,,5,5,40,4,,,,,,,,,,,,,,,,,,,,,,,,,,,,,,,,,,,,,,,,,,,,1052.8229297283106,None,1053.9222968961112,None,1054.8555349912494,None,1.498941798941799,0.5344056189060211,1054.8555349912494,None,,,,,,,,,,,,,,,,,92,001,2023_May_04_1425,SpeechDraft1Carolyn_lessNoise_PlusLocalization,2021.2.3,59.898895695829225,
,,,,,,,,farLeft,-19.1,5,ch1Sound_localizationTask.wav,-19.1,"(667, 878)","(-293,-202)",-285,-338,,,,,,,,,5,6,41,0,,,,,,,,,,,,,,,,,,,,,,,,,,,,,,,,,,,,,,,,,,,,1055.4059932860546,None,1056.5057488502935,None,1057.439123265911,None,1.2216931216931217,0.6315906131640077,1057.439123265911,None,,,,,,,,,,,,,,,,,92,001,2023_May_04_1425,SpeechDraft1Carolyn_lessNoise_PlusLocalization,2021.2.3,59.898895695829225,
,,,,,,,,farLeft,-19.1,5,ch1Sound_localizationTask.wav,-19.1,"(667, 878)","(-293,-202)",-285,-338,,,,,,,,,6,0,42,0,,,,,,,,,,,,,,,,,,,,,,,,,,,,,,,,,,,,,,,,,,,,1058.0732289780863,None,1059.1723781870678,None,1060.1054945611395,None,1.198941798941799,0.7661181958392262,1060.1054945611395,None,,,,,,,,,,,,,,,,,92,001,2023_May_04_1425,SpeechDraft1Carolyn_lessNoise_PlusLocalization,2021.2.3,59.898895695829225,
,,,,,,,,center,0.0,6,ch1Sound_localizationTask.wav,0.0,"(952, 878)","(-8,-202)",0,-338,,,,,,,,,6,1,43,3,,,,,,,,,,,,,,,,,,,,,,,,,,,,,,,,,,,,,,,,,,,,1060.8742684670724,None,1061.9890350201167,None,1062.9055794971064,None,1.4957671957671956,0.6498608561232686,1062.9055794971064,None,,,,,,,,,,,,,,,,,92,001,2023_May_04_1425,SpeechDraft1Carolyn_lessNoise_PlusLocalization,2021.2.3,59.898895695829225,
,,,,,,,,farRight,19.1,4,ch1Sound_localizationTask.wav,19.1,"(1237, 878)","(277,-202)",285,-338,,,,,,,,,6,2,44,6,,,,,,,,,,,,,,,,,,,,,,,,,,,,,,,,,,,,,,,,,,,,1063.55774748791,None,1064.6723883929662,None,1065.5889461031184,None,1.5941798941798941,0.6662282939068973,1065.5889461031184,None,,,,,,,,,,,,,,,,,92,001,2023_May_04_1425,SpeechDraft1Carolyn_lessNoise_PlusLocalization,2021.2.3,59.898895695829225,
,,,,,,,,nearRight,6.5,0,ch1Sound_localizationTask.wav,6.5,"(1047, 878)","(87, -202)",95,-338,,,,,,,,,6,3,45,4,,,,,,,,,,,,,,,,,,,,,,,,,,,,,,,,,,,,,,,,,,,,1066.2567285443656,None,1067.3556852629408,None,1068.2890445119701,None,1.4666666666666668,0.6333252061158419,1068.2890445119701,None,,,,,,,,,,,,,,,,,92,001,2023_May_04_1425,SpeechDraft1Carolyn_lessNoise_PlusLocalization,2021.2.3,59.898895695829225,
,,,,,,,,farLeft,-19.1,5,ch1Sound_localizationTask.wav,-19.1,"(667, 878)","(-293,-202)",-285,-338,,,,,,,,,6,4,46,0,,,,,,,,,,,,,,,,,,,,,,,,,,,,,,,,,,,,,,,,,,,,1068.9237968809903,None,1070.039089010097,None,1070.955824054312,None,1.1280423280423282,0.7320948941633105,1070.955824054312,None,,,,,,,,,,,,,,,,,92,001,2023_May_04_1425,SpeechDraft1Carolyn_lessNoise_PlusLocalization,2021.2.3,59.898895695829225,
,,,,,,,,nearLeft,-6.5,1,ch1Sound_localizationTask.wav,-6.5,"(857, 878)","(-103,-202)",-95,-338,,,,,,,,,6,5,47,2,,,,,,,,,,,,,,,,,,,,,,,,,,,,,,,,,,,,,,,,,,,,1071.6902102399617,None,1072.7891094572842,None,1073.7223607692868,None,1.3592592592592592,1.0000296072103083,1073.7223607692868,None,,,,,,,,,,,,,,,,,92,001,2023_May_04_1425,SpeechDraft1Carolyn_lessNoise_PlusLocalization,2021.2.3,59.898895695829225,
,,,,,,,,midRight,13.0,3,ch1Sound_localizationTask.wav,13.0,"(1142, 878)","(182, -202)",190,-338,,,,,,,,,6,6,48,5,,,,,,,,,,,,,,,,,,,,,,,,,,,,,,,,,,,,,,,,,,,,1074.7393971490674,None,1075.8389627570286,None,1076.7724057980813,None,1.596825396825397,0.566607132088393,1076.7724057980813,None,,,,,,,,,,,,,,,,,92,001,2023_May_04_1425,SpeechDraft1Carolyn_lessNoise_PlusLocalization,2021.2.3,59.898895695829225,
,,,,,,,,farLeft,-19.1,5,ch1Sound_localizationTask.wav,-19.1,"(667, 878)","(-293,-202)",-285,-338,,,,,,,,,7,0,49,0,,,,,,,,,,,,,,,,,,,,,,,,,,,,,,,,,,,,,,,,,,,,1077.3407566803508,None,1078.4558466570452,None,1079.3723269361071,None,1.1582010582010582,0.5829958356916904,1079.3723269361071,None,,,,,,,,,,,,,,,,,92,001,2023_May_04_1425,SpeechDraft1Carolyn_lessNoise_PlusLocalization,2021.2.3,59.898895695829225,
,,,,,,,,farRight,19.1,4,ch1Sound_localizationTask.wav,19.1,"(1237, 878)","(277,-202)",285,-338,,,,,,,,,7,1,50,6,,,,,,,,,,,,,,,,,,,,,,,,,,,,,,,,,,,,,,,,,,,,1079.972733090166,None,1081.0723915072158,None,1082.0057077119127,None,1.5518518518518518,0.5660865399986506,1082.0057077119127,None,,,,,,,,,,,,,,,,,92,001,2023_May_04_1425,SpeechDraft1Carolyn_lessNoise_PlusLocalization,2021.2.3,59.898895695829225,
,,,,,,,,nearRight,6.5,0,ch1Sound_localizationTask.wav,6.5,"(1047, 878)","(87, -202)",95,-338,,,,,,,,,7,2,51,4,,,,,,,,,,,,,,,,,,,,,,,,,,,,,,,,,,,,,,,,,,,,1082.5743351923302,None,1083.688969722949,None,1084.6057277913205,None,1.4248677248677248,0.932604881003499,1084.6057277913205,None,,,,,,,,,,,,,,,,,92,001,2023_May_04_1425,SpeechDraft1Carolyn_lessNoise_PlusLocalization,2021.2.3,59.898895695829225,
,,,,,,,,midRight,13.0,3,ch1Sound_localizationTask.wav,13.0,"(1142, 878)","(182, -202)",190,-338,,,,,,,,,7,3,52,5,,,,,,,,,,,,,,,,,,,,,,,,,,,,,,,,,,,,,,,,,,,,1085.5400630021468,None,1086.63913885504,None,1087.572297778912,None,1.4962962962962962,0.5993830868974328,1087.572297778912,None,,,,,,,,,,,,,,,,,92,001,2023_May_04_1425,SpeechDraft1Carolyn_lessNoise_PlusLocalization,2021.2.3,59.898895695829225,
,,,,,,,,nearRight,6.5,0,ch1Sound_localizationTask.wav,6.5,"(1047, 878)","(87, -202)",95,-338,,,,,,,,,7,4,53,4,,,,,,,,,,,,,,,,,,,,,,,,,,,,,,,,,,,,,,,,,,,,1088.173957635183,None,1089.2891138703562,None,1090.205772053916,None,1.4962962962962962,0.7832756377756596,1090.205772053916,None,,,,,,,,,,,,,,,,,92,001,2023_May_04_1425,SpeechDraft1Carolyn_lessNoise_PlusLocalization,2021.2.3,59.898895695829225,
,,,,,,,,farLeft,-19.1,5,ch1Sound_localizationTask.wav,-19.1,"(667, 878)","(-293,-202)",-285,-338,,,,,,,,,7,5,54,0,,,,,,,,,,,,,,,,,,,,,,,,,,,,,,,,,,,,,,,,,,,,1090.9901148672216,None,1092.0890688700601,None,1093.0224253190681,None,1.1037037037037036,0.6325958091765642,1093.0224253190681,None,,,,,,,,,,,,,,,,,92,001,2023_May_04_1425,SpeechDraft1Carolyn_lessNoise_PlusLocalization,2021.2.3,59.898895695829225,
,,,,,,,,midRight,13.0,3,ch1Sound_localizationTask.wav,13.0,"(1142, 878)","(182, -202)",190,-338,,,,,,,,,7,6,55,5,,,,,,,,,,,,,,,,,,,,,,,,,,,,,,,,,,,,,,,,,,,,1093.657197822351,None,1094.7724466170184,None,1095.6888531711884,None,1.4994708994708994,0.6164391404017806,1095.6888531711884,None,,,,,,,,,,,,,,,,,92,001,2023_May_04_1425,SpeechDraft1Carolyn_lessNoise_PlusLocalization,2021.2.3,59.898895695829225,
,,,,,,,,,,,,,,,,,,,,,,,,,,,,,,,,,,,,,,,,,,,,,,,,,,,,,,,,,,,,,,,,,,,,,,,,,,,,,,,,,,space,16.363660795148462,1096.4060807470232,None,,,,,,,,,,,,,92,001,2023_May_04_1425,SpeechDraft1Carolyn_lessNoise_PlusLocalization,2021.2.3,59.898895695829225,
,,,,,,,,nearRight,6.5,0,ch1Sound_localizationTask.wav,6.5,"(1047, 878)","(87, -202)",95,-338,,,,,,,,,,,,,0,0,0,4,,,,,,,,,,,,,,,,,,,,,,,,,,,,,,,,,,,,,,,,1112.8057262189686,None,,,1115.8390251700766,None,1.5671957671957673,1.6026858109980822,1115.8390251700766,None,,,,,1096.4060807470232,None,1113.8061963301152,None,1113.9894496193156,1114.0061023393646,,,,,,,92,001,2023_May_04_1425,SpeechDraft1Carolyn_lessNoise_PlusLocalization,2021.2.3,59.898895695829225,
,,,,,,,,midLeft,-13.0,2,ch1Sound_localizationTask.wav,-13.0,"(762, 878)","(-198,-202)",-190,-338,,,,,,,,,,,,,0,1,1,1,,,,,,,,,,,,,,,,,,,,,,,,,,,,,,,,,,,,,,,,1117.4409353663214,None,,,1120.472454677336,None,1.3746031746031746,1.6822445248253644,1120.472454677336,None,,,,,,,1118.456072517205,None,1118.6393695203587,1118.6561432899907,,,,,,,92,001,2023_May_04_1425,SpeechDraft1Carolyn_lessNoise_PlusLocalization,2021.2.3,59.898895695829225,
,,,,,,,,farLeft,-19.1,5,ch1Sound_localizationTask.wav,-19.1,"(667, 878)","(-293,-202)",-285,-338,,,,,,,,,,,,,0,2,2,0,,,,,,,,,,,,,,,,,,,,,,,,,,,,,,,,,,,,,,,,1122.1568120229058,None,,,1125.172534244135,None,1.3433862433862434,0.9153149160556495,1125.172534244135,None,,,,,,,1123.156185313128,None,1123.339411277324,1123.3561514159665,,,,,,,92,001,2023_May_04_1425,SpeechDraft1Carolyn_lessNoise_PlusLocalization,2021.2.3,59.898895695829225,
,,,,,,,,midLeft,-13.0,2,ch1Sound_localizationTask.wav,-13.0,"(762, 878)","(-198,-202)",-190,-338,,,,,,,,,,,,,0,3,3,1,,,,,,,,,,,,,,,,,,,,,,,,,,,,,,,,,,,,,,,,1126.0897769061849,None,,,1129.105755281169,None,1.3904761904761904,1.199718136806041,1129.105755281169,None,,,,,,,1127.0893931062892,None,1127.2727521830238,1127.2894310979173,,,,,,,92,001,2023_May_04_1425,SpeechDraft1Carolyn_lessNoise_PlusLocalization,2021.2.3,59.898895695829225,
,,,,,,,,farLeft,-19.1,5,ch1Sound_localizationTask.wav,-19.1,"(667, 878)","(-293,-202)",-285,-338,,,,,,,,,,,,,0,4,4,0,,,,,,,,,,,,,,,,,,,,,,,,,,,,,,,,,,,,,,,,1130.3076159092598,None,,,1133.3390991939232,None,1.3380952380952382,0.5663307392969728,1133.3390991939232,None,,,,,,,1131.3226626259275,None,1131.5061133960262,1131.522701181937,,,,,,,92,001,2023_May_04_1425,SpeechDraft1Carolyn_lessNoise_PlusLocalization,2021.2.3,59.898895695829225,
,,,,,,,,farLeft,-19.1,5,ch1Sound_localizationTask.wav,-19.1,"(667, 878)","(-293,-202)",-285,-338,,,,,,,,,,,,,0,5,5,0,,,,,,,,,,,,,,,,,,,,,,,,,,,,,,,,,,,,,,,,1133.907458763104,None,,,1136.939179866109,None,1.3502645502645503,0.24954550666734576,1136.939179866109,None,,,,,,,1134.9228939372115,None,1135.1059817592613,1135.1228050119244,,,,,,,92,001,2023_May_04_1425,SpeechDraft1Carolyn_lessNoise_PlusLocalization,2021.2.3,59.898895695829225,
,,,,,,,,farLeft,-19.1,5,ch1Sound_localizationTask.wav,-19.1,"(667, 878)","(-293,-202)",-285,-338,,,,,,,,,,,,,0,6,6,0,,,,,,,,,,,,,,,,,,,,,,,,,,,,,,,,,,,,,,,,1137.1905750520527,None,,,1140.2057878500782,None,1.3502645502645503,0.46605663606896996,1140.2057878500782,None,,,,,,,1138.1893842741847,None,1138.3728372370824,1138.3893977510743,,,,,,,92,001,2023_May_04_1425,SpeechDraft1Carolyn_lessNoise_PlusLocalization,2021.2.3,59.898895695829225,
,,,,,,,,midRight,13.0,3,ch1Sound_localizationTask.wav,13.0,"(1142, 878)","(182, -202)",190,-338,,,,,,,,,,,,,1,0,7,5,,,,,,,,,,,,,,,,,,,,,,,,,,,,,,,,,,,,,,,,1140.6735306060873,None,,,1143.6891864752397,None,1.5894179894179894,1.3826381810940802,1143.6891864752397,None,,,,,,,1141.672650475055,None,1141.856163694989,1141.8726701573469,,,,,,,92,001,2023_May_04_1425,SpeechDraft1Carolyn_lessNoise_PlusLocalization,2021.2.3,59.898895695829225,
,,,,,,,,farRight,19.1,4,ch1Sound_localizationTask.wav,19.1,"(1237, 878)","(277,-202)",285,-338,,,,,,,,,,,,,1,1,8,6,,,,,,,,,,,,,,,,,,,,,,,,,,,,,,,,,,,,,,,,1145.0740102301352,None,,,1148.1057388512418,None,1.6238095238095238,1.8500612159259617,1148.1057388512418,None,,,,,,,1146.0894550709054,None,1146.2728504380211,1146.2893883083016,,,,,,,92,001,2023_May_04_1425,SpeechDraft1Carolyn_lessNoise_PlusLocalization,2021.2.3,59.898895695829225,
,,,,,,,,farRight,19.1,4,ch1Sound_localizationTask.wav,19.1,"(1237, 878)","(277,-202)",285,-338,,,,,,,,,,,,,1,2,9,6,,,,,,,,,,,,,,,,,,,,,,,,,,,,,,,,,,,,,,,,1149.9574270593002,None,,,1152.9891709429212,None,1.6825396825396826,0.6988823381252587,1152.9891709429212,None,,,,,,,1150.9727981942706,None,1151.1561878630891,1151.17271106923,,,,,,,92,001,2023_May_04_1425,SpeechDraft1Carolyn_lessNoise_PlusLocalization,2021.2.3,59.898895695829225,
,,,,,,,,nearRight,6.5,0,ch1Sound_localizationTask.wav,6.5,"(1047, 878)","(87, -202)",95,-338,,,,,,,,,,,,,1,3,10,4,,,,,,,,,,,,,,,,,,,,,,,,,,,,,,,,,,,,,,,,1153.690645951312,None,,,1156.722406168934,None,1.5534391534391534,1.0819724728353322,1156.722406168934,None,,,,,,,1154.706160900183,None,1154.8896734663285,1154.9060201290995,,,,,,,92,001,2023_May_04_1425,SpeechDraft1Carolyn_lessNoise_PlusLocalization,2021.2.3,59.898895695829225,
,,,,,,,,farRight,19.1,4,ch1Sound_localizationTask.wav,19.1,"(1237, 878)","(277,-202)",285,-338,,,,,,,,,,,,,1,4,11,6,,,,,,,,,,,,,,,,,,,,,,,,,,,,,,,,,,,,,,,,1157.8064872543328,None,,,1160.822441985365,None,1.6783068783068784,0.5326996562071145,1160.822441985365,None,,,,,,,1158.8061581929214,None,1158.9895354690962,1159.0061727473512,,,,,,,92,001,2023_May_04_1425,SpeechDraft1Carolyn_lessNoise_PlusLocalization,2021.2.3,59.898895695829225,
,,,,,,,,midRight,13.0,3,ch1Sound_localizationTask.wav,13.0,"(1142, 878)","(182, -202)",190,-338,,,,,,,,,,,,,1,5,12,5,,,,,,,,,,,,,,,,,,,,,,,,,,,,,,,,,,,,,,,,1161.3573354240507,None,,,1164.3894068850204,None,1.5814814814814815,1.3989147832617164,1164.3894068850204,None,,,,,,,1162.3727435972542,None,1162.5560321332887,1162.5727383741178,,,,,,,92,001,2023_May_04_1425,SpeechDraft1Carolyn_lessNoise_PlusLocalization,2021.2.3,59.898895695829225,
,,,,,,,,midRight,13.0,3,ch1Sound_localizationTask.wav,13.0,"(1142, 878)","(182, -202)",190,-338,,,,,,,,,,,,,1,6,13,5,,,,,,,,,,,,,,,,,,,,,,,,,,,,,,,,,,,,,,,,1165.806394925341,None,,,1168.8225661069155,None,1.5783068783068783,0.6663082512095571,1168.8225661069155,None,,,,,,,1166.8061929340474,None,1166.9895730949938,1167.006262006238,,,,,,,92,001,2023_May_04_1425,SpeechDraft1Carolyn_lessNoise_PlusLocalization,2021.2.3,59.898895695829225,
,,,,,,,,nearLeft,-6.5,1,ch1Sound_localizationTask.wav,-6.5,"(857, 878)","(-103,-202)",-95,-338,,,,,,,,,,,,,2,0,14,2,,,,,,,,,,,,,,,,,,,,,,,,,,,,,,,,,,,,,,,,1169.5062163663097,None,,,1172.5227974839509,None,1.4375661375661375,1.1999756060540676,1172.5227974839509,None,,,,,,,1170.5061402162537,None,1170.6895820540376,1170.7060833852738,,,,,,,92,001,2023_May_04_1425,SpeechDraft1Carolyn_lessNoise_PlusLocalization,2021.2.3,59.898895695829225,
,,,,,,,,farRight,19.1,4,ch1Sound_localizationTask.wav,19.1,"(1237, 878)","(277,-202)",285,-338,,,,,,,,,,,,,2,1,15,6,,,,,,,,,,,,,,,,,,,,,,,,,,,,,,,,,,,,,,,,1173.7241292279214,None,,,1176.7558205663227,None,1.6222222222222222,1.0492218360304832,1176.7558205663227,None,,,,,,,1174.7394408923574,None,1174.9227761710063,1174.9395562303253,,,,,,,92,001,2023_May_04_1425,SpeechDraft1Carolyn_lessNoise_PlusLocalization,2021.2.3,59.898895695829225,
,,,,,,,,midLeft,-13.0,2,ch1Sound_localizationTask.wav,-13.0,"(762, 878)","(-198,-202)",-190,-338,,,,,,,,,,,,,2,2,16,1,,,,,,,,,,,,,,,,,,,,,,,,,,,,,,,,,,,,,,,,1177.807080799248,None,,,1180.8226283229887,None,1.3814814814814815,1.2652840400114655,1180.8226283229887,None,,,,,,,1178.806153035257,None,1178.989468892105,1179.0061060120352,,,,,,,92,001,2023_May_04_1425,SpeechDraft1Carolyn_lessNoise_PlusLocalization,2021.2.3,59.898895695829225,
,,,,,,,,nearLeft,-6.5,1,ch1Sound_localizationTask.wav,-6.5,"(857, 878)","(-103,-202)",-95,-338,,,,,,,,,,,,,2,3,17,2,,,,,,,,,,,,,,,,,,,,,,,,,,,,,,,,,,,,,,,,1182.090646685101,None,,,1185.1225181119516,None,1.4439153439153438,1.1662695300765336,1185.1225181119516,None,,,,,,,1183.1061058631167,None,1183.289503195323,1183.3060931302607,,,,,,,92,001,2023_May_04_1425,SpeechDraft1Carolyn_lessNoise_PlusLocalization,2021.2.3,59.898895695829225,
,,,,,,,,center,0.0,6,ch1Sound_localizationTask.wav,0.0,"(952, 878)","(-8,-202)",0,-338,,,,,,,,,,,,,2,4,18,3,,,,,,,,,,,,,,,,,,,,,,,,,,,,,,,,,,,,,,,,1186.291127609089,None,,,1189.322778802365,None,1.5015873015873016,1.097468504216522,1189.322778802365,None,,,,,,,1187.306131070014,None,1187.4894850002602,1187.5061433399096,,,,,,,92,001,2023_May_04_1425,SpeechDraft1Carolyn_lessNoise_PlusLocalization,2021.2.3,59.898895695829225,
,,,,,,,,farRight,19.1,4,ch1Sound_localizationTask.wav,19.1,"(1237, 878)","(277,-202)",285,-338,,,,,,,,,,,,,2,5,19,6,,,,,,,,,,,,,,,,,,,,,,,,,,,,,,,,,,,,,,,,1190.4232936841436,None,,,1193.4391405791976,None,1.6767195767195768,3.2999789202585816,1193.4391405791976,None,,,,,,,1191.4230993301608,None,1191.6061969753355,1191.622794941999,,,,,,,92,001,2023_May_04_1425,SpeechDraft1Carolyn_lessNoise_PlusLocalization,2021.2.3,59.898895695829225,
,,,,,,,,farRight,19.1,4,ch1Sound_localizationTask.wav,19.1,"(1237, 878)","(277,-202)",285,-338,,,,,,,,,,,,,2,6,20,6,,,,,,,,,,,,,,,,,,,,,,,,,,,,,,,,,,,,,,,,1196.7561573889107,None,,,1199.7726307380944,None,1.635978835978836,1.16636060224846,1199.7726307380944,None,,,,,,,1197.7561875549145,None,1197.9395114020444,1197.9561376841739,,,,,,,92,001,2023_May_04_1425,SpeechDraft1Carolyn_lessNoise_PlusLocalization,2021.2.3,59.898895695829225,
,,,,,,,,nearRight,6.5,0,ch1Sound_localizationTask.wav,6.5,"(1047, 878)","(87, -202)",95,-338,,,,,,,,,,,,,3,0,21,4,,,,,,,,,,,,,,,,,,,,,,,,,,,,,,,,,,,,,,,,1200.956578664016,None,,,1203.9725667592138,None,1.5645502645502645,2.3992300368845463,1203.9725667592138,None,,,,,,,1201.9560503591783,None,1202.139581845142,1202.1561812520958,,,,,,,92,001,2023_May_04_1425,SpeechDraft1Carolyn_lessNoise_PlusLocalization,2021.2.3,59.898895695829225,
,,,,,,,,midLeft,-13.0,2,ch1Sound_localizationTask.wav,-13.0,"(762, 878)","(-198,-202)",-190,-338,,,,,,,,,,,,,3,1,22,1,,,,,,,,,,,,,,,,,,,,,,,,,,,,,,,,,,,,,,,,1206.3736727442592,None,,,1209.3893091259524,None,1.384126984126984,1.4985535889863968,1209.3893091259524,None,,,,,,,1207.3728549769148,None,1207.5562491011806,1207.5728633380495,,,,,,,92,001,2023_May_04_1425,SpeechDraft1Carolyn_lessNoise_PlusLocalization,2021.2.3,59.898895695829225,
,,,,,,,,center,0.0,6,ch1Sound_localizationTask.wav,0.0,"(952, 878)","(-8,-202)",0,-338,,,,,,,,,,,,,3,2,23,3,,,,,,,,,,,,,,,,,,,,,,,,,,,,,,,,,,,,,,,,1210.8905670209788,None,,,1213.906074643135,None,1.507936507936508,1.43278698483482,1213.906074643135,None,,,,,,,1211.8896887311712,None,1212.073042608332,1212.089558579959,,,,,,,92,001,2023_May_04_1425,SpeechDraft1Carolyn_lessNoise_PlusLocalization,2021.2.3,59.898895695829225,
,,,,,,,,nearLeft,-6.5,1,ch1Sound_localizationTask.wav,-6.5,"(857, 878)","(-103,-202)",-95,-338,,,,,,,,,,,,,3,3,24,2,,,,,,,,,,,,,,,,,,,,,,,,,,,,,,,,,,,,,,,,1215.3407693970948,None,,,1218.3726936769672,None,1.4613756613756614,1.7669517081230879,1218.3726936769672,None,,,,,,,1216.3560420949943,None,1216.5394845120609,1216.5561343100853,,,,,,,92,001,2023_May_04_1425,SpeechDraft1Carolyn_lessNoise_PlusLocalization,2021.2.3,59.898895695829225,
,,,,,,,,nearRight,6.5,0,ch1Sound_localizationTask.wav,6.5,"(1047, 878)","(87, -202)",95,-338,,,,,,,,,,,,,3,4,25,4,,,,,,,,,,,,,,,,,,,,,,,,,,,,,,,,,,,,,,,,1220.1562448190525,None,,,1223.1725015160628,None,1.5582010582010581,1.5991942049004138,1223.1725015160628,None,,,,,,,1221.1561618302949,None,1221.3395857410505,1221.356165170204,,,,,,,92,001,2023_May_04_1425,SpeechDraft1Carolyn_lessNoise_PlusLocalization,2021.2.3,59.898895695829225,
,,,,,,,,center,0.0,6,ch1Sound_localizationTask.wav,0.0,"(952, 878)","(-8,-202)",0,-338,,,,,,,,,,,,,3,5,26,3,,,,,,,,,,,,,,,,,,,,,,,,,,,,,,,,,,,,,,,,1224.7741601681337,None,,,1227.8060884699225,None,1.5005291005291004,1.0660573849454522,1227.8060884699225,None,,,,,,,1225.7895849300548,None,1225.972984609194,1225.9895852613263,,,,,,,92,001,2023_May_04_1425,SpeechDraft1Carolyn_lessNoise_PlusLocalization,2021.2.3,59.898895695829225,
,,,,,,,,nearRight,6.5,0,ch1Sound_localizationTask.wav,6.5,"(1047, 878)","(87, -202)",95,-338,,,,,,,,,,,,,3,6,27,4,,,,,,,,,,,,,,,,,,,,,,,,,,,,,,,,,,,,,,,,1228.8734689173289,None,,,1231.8894453141838,None,1.544973544973545,0.7832657191902399,1231.8894453141838,None,,,,,,,1229.8729519732296,None,1230.0562289850786,1230.0729506681673,,,,,,,92,001,2023_May_04_1425,SpeechDraft1Carolyn_lessNoise_PlusLocalization,2021.2.3,59.898895695829225,
,,,,,,,,midLeft,-13.0,2,ch1Sound_localizationTask.wav,-13.0,"(762, 878)","(-198,-202)",-190,-338,,,,,,,,,,,,,4,0,28,1,,,,,,,,,,,,,,,,,,,,,,,,,,,,,,,,,,,,,,,,1232.6749335192144,None,,,1235.705981375184,None,1.3333333333333333,1.1490831803530455,1235.705981375184,None,,,,,,,1233.689492117148,None,1233.8728436999954,1233.8895180113614,,,,,,,92,001,2023_May_04_1425,SpeechDraft1Carolyn_lessNoise_PlusLocalization,2021.2.3,59.898895695829225,
,,,,,,,,midRight,13.0,3,ch1Sound_localizationTask.wav,13.0,"(1142, 878)","(182, -202)",190,-338,,,,,,,,,,,,,4,1,29,5,,,,,,,,,,,,,,,,,,,,,,,,,,,,,,,,,,,,,,,,1236.8571326760575,None,,,1239.8726639659144,None,1.633862433862434,1.7662370358593762,1239.8726639659144,None,,,,,,,1237.8562265220098,None,1238.039655603934,1238.056342355907,,,,,,,92,001,2023_May_04_1425,SpeechDraft1Carolyn_lessNoise_PlusLocalization,2021.2.3,59.898895695829225,
,,,,,,,,farLeft,-19.1,5,ch1Sound_localizationTask.wav,-19.1,"(667, 878)","(-293,-202)",-285,-338,,,,,,,,,,,,,4,2,30,0,,,,,,,,,,,,,,,,,,,,,,,,,,,,,,,,,,,,,,,,1241.6405229209922,None,,,1244.655979159288,None,1.3365079365079366,1.3161783958785236,1244.655979159288,None,,,,,,,1242.6396182309836,None,1242.822956325952,1242.8395749903284,,,,,,,92,001,2023_May_04_1425,SpeechDraft1Carolyn_lessNoise_PlusLocalization,2021.2.3,59.898895695829225,
,,,,,,,,farLeft,-19.1,5,ch1Sound_localizationTask.wav,-19.1,"(667, 878)","(-293,-202)",-285,-338,,,,,,,,,,,,,4,3,31,0,,,,,,,,,,,,,,,,,,,,,,,,,,,,,,,,,,,,,,,,1245.989654591307,None,,,1249.0058349110186,None,1.2645502645502646,0.7493463517166674,1249.0058349110186,None,,,,,,,1246.9895143313333,None,1247.1729832971469,1247.1895476859063,,,,,,,92,001,2023_May_04_1425,SpeechDraft1Carolyn_lessNoise_PlusLocalization,2021.2.3,59.898895695829225,
,,,,,,,,midLeft,-13.0,2,ch1Sound_localizationTask.wav,-13.0,"(762, 878)","(-198,-202)",-190,-338,,,,,,,,,,,,,4,4,32,1,,,,,,,,,,,,,,,,,,,,,,,,,,,,,,,,,,,,,,,,1249.7574301213026,None,,,1252.789350328967,None,1.3894179894179894,1.3321445994079113,1252.789350328967,None,,,,,,,1250.7728230790235,None,1250.9562631533481,1250.9728210032918,,,,,,,92,001,2023_May_04_1425,SpeechDraft1Carolyn_lessNoise_PlusLocalization,2021.2.3,59.898895695829225,
,,,,,,,,nearLeft,-6.5,1,ch1Sound_localizationTask.wav,-6.5,"(857, 878)","(-103,-202)",-95,-338,,,,,,,,,,,,,4,5,33,2,,,,,,,,,,,,,,,,,,,,,,,,,,,,,,,,,,,,,,,,1254.124146386981,None,,,1257.1561242523603,None,1.4587301587301587,1.2156848688609898,1257.1561242523603,None,,,,,,,1255.139687876217,None,1255.3229600521736,1255.3396710199304,,,,,,,92,001,2023_May_04_1425,SpeechDraft1Carolyn_lessNoise_PlusLocalization,2021.2.3,59.898895695829225,
,,,,,,,,midRight,13.0,3,ch1Sound_localizationTask.wav,13.0,"(1142, 878)","(182, -202)",190,-338,,,,,,,,,,,,,4,6,34,5,,,,,,,,,,,,,,,,,,,,,,,,,,,,,,,,,,,,,,,,1258.3737082849257,None,,,1261.3894019671716,None,1.6534391534391535,1.1823606872931123,1261.3894019671716,None,,,,,,,1259.3729042992927,None,1259.5563738392666,1259.5730752013624,,,,,,,92,001,2023_May_04_1425,SpeechDraft1Carolyn_lessNoise_PlusLocalization,2021.2.3,59.898895695829225,
,,,,,,,,nearLeft,-6.5,1,ch1Sound_localizationTask.wav,-6.5,"(857, 878)","(-103,-202)",-95,-338,,,,,,,,,,,,,5,0,35,2,,,,,,,,,,,,,,,,,,,,,,,,,,,,,,,,,,,,,,,,1262.5746531290933,None,,,1265.6060474603437,None,1.4423280423280422,1.848863841034472,1265.6060474603437,None,,,,,,,1263.5896761082113,None,1263.7729117409326,1263.7896196101792,,,,,,,92,001,2023_May_04_1425,SpeechDraft1Carolyn_lessNoise_PlusLocalization,2021.2.3,59.898895695829225,
,,,,,,,,center,0.0,6,ch1Sound_localizationTask.wav,0.0,"(952, 878)","(-8,-202)",0,-338,,,,,,,,,,,,,5,1,36,3,,,,,,,,,,,,,,,,,,,,,,,,,,,,,,,,,,,,,,,,1267.4577425960451,None,,,1270.4893784392625,None,1.5216931216931218,0.766496704891324,1270.4893784392625,None,,,,,,,1268.4730663141236,None,1268.6562692420557,1268.673077388201,,,,,,,92,001,2023_May_04_1425,SpeechDraft1Carolyn_lessNoise_PlusLocalization,2021.2.3,59.898895695829225,
,,,,,,,,farLeft,-19.1,5,ch1Sound_localizationTask.wav,-19.1,"(667, 878)","(-293,-202)",-285,-338,,,,,,,,,,,,,5,2,37,0,,,,,,,,,,,,,,,,,,,,,,,,,,,,,,,,,,,,,,,,1271.2577290423214,None,,,1274.289349831175,None,1.2804232804232805,1.3330428577028215,1274.289349831175,None,,,,,,,1272.2729954882525,None,1272.456359227188,1272.4730054950342,,,,,,,92,001,2023_May_04_1425,SpeechDraft1Carolyn_lessNoise_PlusLocalization,2021.2.3,59.898895695829225,
,,,,,,,,farLeft,-19.1,5,ch1Sound_localizationTask.wav,-19.1,"(667, 878)","(-293,-202)",-285,-338,,,,,,,,,,,,,5,3,38,0,,,,,,,,,,,,,,,,,,,,,,,,,,,,,,,,,,,,,,,,1275.624227442313,None,,,1278.6561116189696,None,1.3645502645502645,1.2008375441655517,1278.6561116189696,None,,,,,,,1276.6396470391192,None,1276.8229621541686,1276.8396416082978,,,,,,,92,001,2023_May_04_1425,SpeechDraft1Carolyn_lessNoise_PlusLocalization,2021.2.3,59.898895695829225,
,,,,,,,,center,0.0,6,ch1Sound_localizationTask.wav,0.0,"(952, 878)","(-8,-202)",0,-338,,,,,,,,,,,,,5,4,39,3,,,,,,,,,,,,,,,,,,,,,,,,,,,,,,,,,,,,,,,,1279.8729491452686,None,,,1282.8892929172143,None,1.5216931216931218,3.6338936290703714,1282.8892929172143,None,,,,,,,1280.873085648287,None,1281.0563059253618,1281.0729925129563,,,,,,,92,001,2023_May_04_1425,SpeechDraft1Carolyn_lessNoise_PlusLocalization,2021.2.3,59.898895695829225,
,,,,,,,,nearRight,6.5,0,ch1Sound_localizationTask.wav,6.5,"(1047, 878)","(87, -202)",95,-338,,,,,,,,,,,,,5,5,40,4,,,,,,,,,,,,,,,,,,,,,,,,,,,,,,,,,,,,,,,,1286.5399418040179,None,,,1289.5560778533109,None,1.5645502645502645,1.6168339778669178,1289.5560778533109,None,,,,,,,1287.5398684591055,None,1287.7229776233435,1287.7397278980352,,,,,,,92,001,2023_May_04_1425,SpeechDraft1Carolyn_lessNoise_PlusLocalization,2021.2.3,59.898895695829225,
,,,,,,,,midRight,13.0,3,ch1Sound_localizationTask.wav,13.0,"(1142, 878)","(182, -202)",190,-338,,,,,,,,,,,,,5,6,41,5,,,,,,,,,,,,,,,,,,,,,,,,,,,,,,,,,,,,,,,,1291.1898515499197,None,,,1294.206233584322,None,1.6412698412698412,1.6662080511450768,1294.206233584322,None,,,,,,,1292.1896463991143,None,1292.3729310082272,1292.3897520760074,,,,,,,92,001,2023_May_04_1425,SpeechDraft1Carolyn_lessNoise_PlusLocalization,2021.2.3,59.898895695829225,
,,,,,,,,midRight,13.0,3,ch1Sound_localizationTask.wav,13.0,"(1142, 878)","(182, -202)",190,-338,,,,,,,,,,,,,6,0,42,5,,,,,,,,,,,,,,,,,,,,,,,,,,,,,,,,,,,,,,,,1295.8749461909756,None,,,1298.905944172293,None,1.5857142857142859,0.799439821857959,1298.905944172293,None,,,,,,,1296.8895870163105,None,1297.0729527343065,1297.0896192672662,,,,,,,92,001,2023_May_04_1425,SpeechDraft1Carolyn_lessNoise_PlusLocalization,2021.2.3,59.898895695829225,
,,,,,,,,center,0.0,6,ch1Sound_localizationTask.wav,0.0,"(952, 878)","(-8,-202)",0,-338,,,,,,,,,,,,,6,1,43,3,,,,,,,,,,,,,,,,,,,,,,,,,,,,,,,,,,,,,,,,1299.7076435801573,None,,,1302.7395070572384,None,1.5074074074074075,1.2656671423465014,1302.7395070572384,None,,,,,,,1300.7230557361618,None,1300.9063746393658,1300.922983694356,,,,,,,92,001,2023_May_04_1425,SpeechDraft1Carolyn_lessNoise_PlusLocalization,2021.2.3,59.898895695829225,
,,,,,,,,midLeft,-13.0,2,ch1Sound_localizationTask.wav,-13.0,"(762, 878)","(-198,-202)",-190,-338,,,,,,,,,,,,,6,2,44,1,,,,,,,,,,,,,,,,,,,,,,,,,,,,,,,,,,,,,,,,1304.0077854623087,None,,,1307.0393904321827,None,1.380952380952381,1.0996803501620889,1307.0393904321827,None,,,,,,,1305.0228614509106,None,1305.2063139569946,1305.2229175711982,,,,,,,92,001,2023_May_04_1425,SpeechDraft1Carolyn_lessNoise_PlusLocalization,2021.2.3,59.898895695829225,
,,,,,,,,center,0.0,6,ch1Sound_localizationTask.wav,0.0,"(952, 878)","(-8,-202)",0,-338,,,,,,,,,,,,,6,3,45,3,,,,,,,,,,,,,,,,,,,,,,,,,,,,,,,,,,,,,,,,1308.1409714249894,None,,,1311.1727770399302,None,1.494179894179894,1.2661811602301896,1311.1727770399302,None,,,,,,,1309.1563132852316,None,1309.339600702282,1309.3562958301045,,,,,,,92,001,2023_May_04_1425,SpeechDraft1Carolyn_lessNoise_PlusLocalization,2021.2.3,59.898895695829225,
,,,,,,,,nearRight,6.5,0,ch1Sound_localizationTask.wav,6.5,"(1047, 878)","(87, -202)",95,-338,,,,,,,,,,,,,6,4,46,4,,,,,,,,,,,,,,,,,,,,,,,,,,,,,,,,,,,,,,,,1312.4406648282893,None,,,1315.4560027909465,None,1.5507936507936508,0.9660953022539616,1315.4560027909465,None,,,,,,,1313.4397313939407,None,1313.623033918906,1313.6396752120927,,,,,,,92,001,2023_May_04_1425,SpeechDraft1Carolyn_lessNoise_PlusLocalization,2021.2.3,59.898895695829225,
,,,,,,,,center,0.0,6,ch1Sound_localizationTask.wav,0.0,"(952, 878)","(-8,-202)",0,-338,,,,,,,,,,,,,6,5,47,3,,,,,,,,,,,,,,,,,,,,,,,,,,,,,,,,,,,,,,,,1316.4249377441593,None,,,1319.4560466562398,None,1.5047619047619047,1.0998037410899997,1319.4560466562398,None,,,,,,,1317.4397235130891,None,1317.622953610029,1317.639704786241,,,,,,,92,001,2023_May_04_1425,SpeechDraft1Carolyn_lessNoise_PlusLocalization,2021.2.3,59.898895695829225,
,,,,,,,,midRight,13.0,3,ch1Sound_localizationTask.wav,13.0,"(1142, 878)","(182, -202)",190,-338,,,,,,,,,,,,,6,6,48,5,,,,,,,,,,,,,,,,,,,,,,,,,,,,,,,,,,,,,,,,1320.5572389652953,None,,,1323.5727518103085,None,1.656084656084656,1.8318148632533848,1323.5727518103085,None,,,,,,,1321.5563701731153,None,1321.7397720380686,1321.756367458962,,,,,,,92,001,2023_May_04_1425,SpeechDraft1Carolyn_lessNoise_PlusLocalization,2021.2.3,59.898895695829225,
,,,,,,,,nearLeft,-6.5,1,ch1Sound_localizationTask.wav,-6.5,"(857, 878)","(-103,-202)",-95,-338,,,,,,,,,,,,,7,0,49,2,,,,,,,,,,,,,,,,,,,,,,,,,,,,,,,,,,,,,,,,1325.4082329161465,None,,,1328.43937601801,None,1.4417989417989419,1.0826804866082966,1328.43937601801,None,,,,,,,1326.4230042011477,None,1326.6064229812473,1326.6230057529174,,,,,,,92,001,2023_May_04_1425,SpeechDraft1Carolyn_lessNoise_PlusLocalization,2021.2.3,59.898895695829225,
,,,,,,,,nearLeft,-6.5,1,ch1Sound_localizationTask.wav,-6.5,"(857, 878)","(-103,-202)",-95,-338,,,,,,,,,,,,,7,1,50,2,,,,,,,,,,,,,,,,,,,,,,,,,,,,,,,,,,,,,,,,1329.5245251730084,None,,,1332.5559543240815,None,1.4312169312169312,0.81628772104159,1332.5559543240815,None,,,,,,,1330.539786849171,None,1330.7232204959728,1330.739771020133,,,,,,,92,001,2023_May_04_1425,SpeechDraft1Carolyn_lessNoise_PlusLocalization,2021.2.3,59.898895695829225,
,,,,,,,,nearRight,6.5,0,ch1Sound_localizationTask.wav,6.5,"(1047, 878)","(87, -202)",95,-338,,,,,,,,,,,,,7,2,51,4,,,,,,,,,,,,,,,,,,,,,,,,,,,,,,,,,,,,,,,,1333.374198350124,None,,,1336.4062815359794,None,1.5518518518518518,1.0669784871861339,1336.4062815359794,None,,,,,,,1334.3897862671874,None,1334.573125783354,1334.589719677344,,,,,,,92,001,2023_May_04_1425,SpeechDraft1Carolyn_lessNoise_PlusLocalization,2021.2.3,59.898895695829225,
,,,,,,,,farRight,19.1,4,ch1Sound_localizationTask.wav,19.1,"(1237, 878)","(277,-202)",285,-338,,,,,,,,,,,,,7,3,52,6,,,,,,,,,,,,,,,,,,,,,,,,,,,,,,,,,,,,,,,,1337.4898435981013,None,,,1340.5061045940965,None,1.6312169312169313,1.3831417257897556,1340.5061045940965,None,,,,,,,1338.48971264204,None,1338.6731326291338,1338.689686355181,,,,,,,92,001,2023_May_04_1425,SpeechDraft1Carolyn_lessNoise_PlusLocalization,2021.2.3,59.898895695829225,
,,,,,,,,nearLeft,-6.5,1,ch1Sound_localizationTask.wav,-6.5,"(857, 878)","(-103,-202)",-95,-338,,,,,,,,,,,,,7,4,53,2,,,,,,,,,,,,,,,,,,,,,,,,,,,,,,,,,,,,,,,,1341.8909582681954,None,,,1344.9227993041277,None,1.433862433862434,1.4821785259991884,1344.9227993041277,None,,,,,,,1342.9063264639117,None,1343.0897246683016,1343.1063643679954,,,,,,,92,001,2023_May_04_1425,SpeechDraft1Carolyn_lessNoise_PlusLocalization,2021.2.3,59.898895695829225,
,,,,,,,,midLeft,-13.0,2,ch1Sound_localizationTask.wav,-13.0,"(762, 878)","(-198,-202)",-190,-338,,,,,,,,,,,,,7,5,54,1,,,,,,,,,,,,,,,,,,,,,,,,,,,,,,,,,,,,,,,,1346.407037536148,None,,,1349.4229464549571,None,1.3698412698412699,1.8844663971103728,1349.4229464549571,None,,,,,,,1347.4064614921808,None,1347.589765733108,1347.606446874328,,,,,,,92,001,2023_May_04_1425,SpeechDraft1Carolyn_lessNoise_PlusLocalization,2021.2.3,59.898895695829225,
,,,,,,,,farRight,19.1,4,ch1Sound_localizationTask.wav,19.1,"(1237, 878)","(277,-202)",285,-338,,,,,,,,,,,,,7,6,55,6,,,,,,,,,,,,,,,,,,,,,,,,,,,,,,,,,,,,,,,,1351.3231998211704,None,,,1354.339609371964,None,1.6322751322751323,1.265243252273649,1354.339609371964,None,,,,,,,1352.3230860149488,None,1352.506424389314,1352.5231278152205,,,,,,,92,001,2023_May_04_1425,SpeechDraft1Carolyn_lessNoise_PlusLocalization,2021.2.3,59.898895695829225,
,,,,,,,,,,,,,,,,,,,,,,,,,,,,,,,,,,,,,,,,,,,,,,,,,,,,,,,,,,,,,,,,,,,,,,,,,,,,,,,,,,,,,,,,,,,,1355.6077701831236,None,c,88.04377884510905,1356.5898552760482,None,92,001,2023_May_04_1425,SpeechDraft1Carolyn_lessNoise_PlusLocalization,2021.2.3,59.898895695829225,
