Audio_Only_Files,Video_Files,Original_Word_List,noiseLevelCode,conditionCodes,noiseLevelFile1,noiseLevelFile2,InstrTextVar,targetSpeakerName,targetSpeakerEccen,targetSpkrChannel,targetSpkrSound,targetVisualDegrees,visStimLoc,visStimLoc2,visStimW,visStimH,practiceTrials.thisRepN,practiceTrials.thisTrialN,practiceTrials.thisN,practiceTrials.thisIndex,trials.thisRepN,trials.thisTrialN,trials.thisN,trials.thisIndex,audLocalLoop.thisRepN,audLocalLoop.thisTrialN,audLocalLoop.thisN,audLocalLoop.thisIndex,visualLocalLoop.thisRepN,visualLocalLoop.thisTrialN,visualLocalLoop.thisN,visualLocalLoop.thisIndex,letsGoAlready.keys,letsGoAlready.rt,letsGoAlready.started,letsGoAlready.stopped,text_2.started,text_2.stopped,text_3.started,text_3.stopped,key_resp_2.keys,key_resp_2.rt,key_resp_2.started,key_resp_2.stopped,text_5.started,text_5.stopped,fixCross.started,fixCross.stopped,fixCross2.started,fixCross2.stopped,answerPrompt.started,answerPrompt.stopped,getAnswer.text,getAnswer.started,getAnswer.stopped,goToNext.keys,goToNext.rt,goToNext.started,goToNext.stopped,stretchBreakTxrt.started,stretchBreakTxrt.stopped,key_resp_3.keys,key_resp_3.rt,key_resp_3.started,key_resp_3.stopped,letsGoLocal.keys,letsGoLocal.rt,letsGoLocal.started,letsGoLocal.stopped,text_4.started,text_4.stopped,prepFixTxt.started,prepFixTxt.stopped,prepFixTxt_2.started,prepFixTxt_2.stopped,respPromptLocal.started,respPromptLocal.stopped,slider.response,slider.rt,slider.started,slider.stopped,letsGoLocal_2.keys,letsGoLocal_2.rt,letsGoLocal_2.started,letsGoLocal_2.stopped,text_7.started,text_7.stopped,prepFixTxt_3.started,prepFixTxt_3.stopped,grating.started,grating.stopped,exitTxt.started,exitTxt.stopped,key_resp.keys,key_resp.rt,key_resp.started,key_resp.stopped,participant,session,date,expName,psychopyVersion,frameRate,
,,,,,,,,,,,,,,,,,,,,,,,,,,,,,,,,,space,12.606813272926956,12.210981107316911,None,,,,,,,,,,,,,,,,,,,,,,,,,,,,,,,,,,,,,,,,,,,,,,,,,,,,,,,,,,,,,,93,001,2023_May_04_1712,SpeechDraft1Carolyn_lessNoise_PlusLocalization,2021.2.3,60.00142803089072,
,,,,,,,,,,,,,,,,,,,,,,,,,,,,,,,,,,,,,12.210981107316911,None,24.96083125611767,None,space,9.41800900734961,25.127802854403853,None,,,,,,,,,,,,,,,,,,,,,,,,,,,,,,,,,,,,,,,,,,,,,,,,,,,,,,93,001,2023_May_04_1712,SpeechDraft1Carolyn_lessNoise_PlusLocalization,2021.2.3,60.00142803089072,
ash.wav,ash.mpg,ash,1,A,Pink_Noise_1_1.wav,Pink_Noise_1_2.wav,"This is an example of an

AUDIO trial",,,,,,,,,,0,0,0,0,,,,,,,,,,,,,,,,,,,,,,,,,34.59481847425923,None,35.59446212928742,None,38.84419116796926,None,40.22952642617747,None,etch,40.22952642617747,None,return,7.498757283203304,40.31116358935833,None,,,,,,,,,,,,,,,,,,,,,,,,,,,,,,,,,,,,,,,93,001,2023_May_04_1712,SpeechDraft1Carolyn_lessNoise_PlusLocalization,2021.2.3,60.00142803089072,
ash.wav,ash.mpg,ash,1,AV,Pink_Noise_1_1.wav,Pink_Noise_1_2.wav,"This is an example of an

AUDIO + VIDEO  trial",,,,,,,,,,0,1,1,1,,,,,,,,,,,,,,,,,,,,,,,,,47.84416024526581,None,48.84460838139057,None,50.328810876235366,None,51.71108659822494,None,"ash
",51.71108659822494,None,return,3.150927367154509,51.7948809331283,None,,,,,,,,,,,,,,,,,,,,,,,,,,,,,,,,,,,,,,,93,001,2023_May_04_1712,SpeechDraft1Carolyn_lessNoise_PlusLocalization,2021.2.3,60.00142803089072,
,,,,,,,,,,,,,,,,,,,,,,,,,,,,,,,,,,,,,,,,,,,,,,,,,,,,,,,,,,,,54.994085857179016,None,space,11.087940452620387,55.177994021214545,None,,,,,,,,,,,,,,,,,,,,,,,,,,,,,,,,,93,001,2023_May_04_1712,SpeechDraft1Carolyn_lessNoise_PlusLocalization,2021.2.3,60.00142803089072,
cube.wav,cube.mpg,cube,6,AV,Pink_Noise_6_1.wav,Pink_Noise_6_2.wav,,,,,,,,,,,,,,,0,0,0,90,,,,,,,,,,,,,,,,,,,,,,,66.32762059010565,None,67.81092524016276,None,69.1947006243281,None,soup,69.1947006243281,None,return,2.803855782840401,69.27795489830896,None,,,,,,,,,,,,,,,,,,,,,,,,,,,,,,,,,,,,,,,93,001,2023_May_04_1712,SpeechDraft1Carolyn_lessNoise_PlusLocalization,2021.2.3,60.00142803089072,
dwell.wav,dwell.mpg,dwell,6,AV,Pink_Noise_6_1.wav,Pink_Noise_6_2.wav,,,,,,,,,,,,,,,0,1,1,100,,,,,,,,,,,,,,,,,,,,,,,72.11116493307054,None,73.6110457549803,None,74.99438668927178,None,wealth,74.99438668927178,None,return,1.9958138540387154,75.07799647236243,None,,,,,,,,,,,,,,,,,,,,,,,,,,,,,,,,,,,,,,,93,001,2023_May_04_1712,SpeechDraft1Carolyn_lessNoise_PlusLocalization,2021.2.3,60.00142803089072,
mold.wav,mold.mpg,mold,4,AV,Pink_Noise_4_1.wav,Pink_Noise_4_2.wav,,,,,,,,,,,,,,,0,2,2,116,,,,,,,,,,,,,,,,,,,,,,,77.09464571811259,None,78.59428637940437,None,79.97784341638908,None,bold,79.97784341638908,None,return,1.2285927650518715,80.06122079724446,None,,,,,,,,,,,,,,,,,,,,,,,,,,,,,,,,,,,,,,,93,001,2023_May_04_1712,SpeechDraft1Carolyn_lessNoise_PlusLocalization,2021.2.3,60.00142803089072,
roast.wav,roast.mpg,roast,3,A,Pink_Noise_3_1.wav,Pink_Noise_3_2.wav,,,,,,,,,,,,,,,0,3,3,22,,,,,,,,,,,,,,,,,,,,,,,81.31120748538524,None,82.81103215739131,None,84.19456815999001,None,roast,84.19456815999001,None,return,2.4278104519471526,84.27803822932765,None,,,,,,,,,,,,,,,,,,,,,,,,,,,,,,,,,,,,,,,93,001,2023_May_04_1712,SpeechDraft1Carolyn_lessNoise_PlusLocalization,2021.2.3,60.00142803089072,
fresh.wav,fresh.mpg,fresh,1,A,Pink_Noise_1_1.wav,Pink_Noise_1_2.wav,,,,,,,,,,,,,,,0,4,4,19,,,,,,,,,,,,,,,,,,,,,,,86.72805275116116,None,88.22777773719281,None,89.62767942110077,None,fresh,89.62767942110077,None,return,0.7712137312628329,89.69462505308911,None,,,,,,,,,,,,,,,,,,,,,,,,,,,,,,,,,,,,,,,93,001,2023_May_04_1712,SpeechDraft1Carolyn_lessNoise_PlusLocalization,2021.2.3,60.00142803089072,
bridge.wav,bridge.mpg,bridge,6,A,Pink_Noise_6_1.wav,Pink_Noise_6_2.wav,,,,,,,,,,,,,,,0,5,5,54,,,,,,,,,,,,,,,,,,,,,,,90.49469451606274,None,92.01104397326708,None,93.39480561716482,None,rich,93.39480561716482,None,return,0.892010856885463,93.47782208630815,None,,,,,,,,,,,,,,,,,,,,,,,,,,,,,,,,,,,,,,,93,001,2023_May_04_1712,SpeechDraft1Carolyn_lessNoise_PlusLocalization,2021.2.3,60.00142803089072,
bay.wav,bay.mpg,bay,5,AV,Pink_Noise_5_1.wav,Pink_Noise_5_2.wav,,,,,,,,,,,,,,,0,6,6,86,,,,,,,,,,,,,,,,,,,,,,,94.39455794822425,None,95.89433687413111,None,97.27797508239746,None,bear,97.27797508239746,None,return,2.016669324133545,97.3611991694197,None,,,,,,,,,,,,,,,,,,,,,,,,,,,,,,,,,,,,,,,93,001,2023_May_04_1712,SpeechDraft1Carolyn_lessNoise_PlusLocalization,2021.2.3,60.00142803089072,
bath.wav,bath.mpg,bath,1,A,Pink_Noise_1_1.wav,Pink_Noise_1_2.wav,,,,,,,,,,,,,,,0,7,7,10,,,,,,,,,,,,,,,,,,,,,,,99.39463052526116,None,100.89417371107265,None,102.27793004643172,None,bath,102.27793004643172,None,return,1.2725247470661998,102.36136919399723,None,,,,,,,,,,,,,,,,,,,,,,,,,,,,,,,,,,,,,,,93,001,2023_May_04_1712,SpeechDraft1Carolyn_lessNoise_PlusLocalization,2021.2.3,60.00142803089072,
coup.wav,coup.mpg,coup,2,A,Pink_Noise_2_1.wav,Pink_Noise_2_2.wav,,,,,,,,,,,,,,,0,8,8,32,,,,,,,,,,,,,,,,,,,,,,,103.66132503328845,None,105.16101864539087,None,106.5446414812468,None,cooth,106.5446414812468,None,return,1.9659952786751091,106.62788795400411,None,,,,,,,,,,,,,,,,,,,,,,,,,,,,,,,,,,,,,,,93,001,2023_May_04_1712,SpeechDraft1Carolyn_lessNoise_PlusLocalization,2021.2.3,60.00142803089072,
coal.wav,coal.mpg,coal,1,A,Pink_Noise_1_1.wav,Pink_Noise_1_2.wav,,,,,,,,,,,,,,,0,9,9,11,,,,,,,,,,,,,,,,,,,,,,,108.61139216925949,None,110.11103763338178,None,111.49467491917312,None,cloak,111.49467491917312,None,return,2.127734953071922,111.57808449026197,None,,,,,,,,,,,,,,,,,,,,,,,,,,,,,,,,,,,,,,,93,001,2023_May_04_1712,SpeechDraft1Carolyn_lessNoise_PlusLocalization,2021.2.3,60.00142803089072,
gown.wav,gown.mpg,gown,4,A,Pink_Noise_4_1.wav,Pink_Noise_4_2.wav,,,,,,,,,,,,,,,0,10,10,0,,,,,,,,,,,,,,,,,,,,,,,113.7288644821383,None,115.22760985698551,None,116.61143387621269,None,"arrow
",116.61143387621269,None,return,1.0351518439128995,116.69466186733916,None,,,,,,,,,,,,,,,,,,,,,,,,,,,,,,,,,,,,,,,93,001,2023_May_04_1712,SpeechDraft1Carolyn_lessNoise_PlusLocalization,2021.2.3,60.00142803089072,
check.wav,check.mpg,check,6,A,Pink_Noise_6_1.wav,Pink_Noise_6_2.wav,,,,,,,,,,,,,,,0,11,11,21,,,,,,,,,,,,,,,,,,,,,,,117.76123976102099,None,119.26118660718203,None,120.64466118812561,None,chest,120.64466118812561,None,return,1.0659607532434165,120.72793968906626,None,,,,,,,,,,,,,,,,,,,,,,,,,,,,,,,,,,,,,,,93,001,2023_May_04_1712,SpeechDraft1Carolyn_lessNoise_PlusLocalization,2021.2.3,60.00142803089072,
fuse.wav,fuse.mpg,fuse,1,AV,Pink_Noise_1_1.wav,Pink_Noise_1_2.wav,,,,,,,,,,,,,,,0,12,12,76,,,,,,,,,,,,,,,,,,,,,,,121.81130872527137,None,123.3110660542734,None,124.69450484914705,None,fuse,124.69450484914705,None,return,0.9999081627465785,124.7779963822104,None,,,,,,,,,,,,,,,,,,,,,,,,,,,,,,,,,,,,,,,93,001,2023_May_04_1712,SpeechDraft1Carolyn_lessNoise_PlusLocalization,2021.2.3,60.00142803089072,
clothe.wav,clothe.mpg,clothe,3,A,Pink_Noise_3_1.wav,Pink_Noise_3_2.wav,,,,,,,,,,,,,,,0,13,13,38,,,,,,,,,,,,,,,,,,,,,,,125.79462616005912,None,127.2943652193062,None,128.67792800907046,None,"close
",128.67792800907046,None,return,1.5363424704410136,128.76147178607062,None,,,,,,,,,,,,,,,,,,,,,,,,,,,,,,,,,,,,,,,93,001,2023_May_04_1712,SpeechDraft1Carolyn_lessNoise_PlusLocalization,2021.2.3,60.00142803089072,
flop.wav,flop.mpg,flop,4,A,Pink_Noise_4_1.wav,Pink_Noise_4_2.wav,,,,,,,,,,,,,,,0,14,14,47,,,,,,,,,,,,,,,,,,,,,,,130.32805083226413,None,131.82750516198575,None,133.2113716560416,None,flask,133.2113716560416,None,return,0.9232525830157101,133.2946696211584,None,,,,,,,,,,,,,,,,,,,,,,,,,,,,,,,,,,,,,,,93,001,2023_May_04_1712,SpeechDraft1Carolyn_lessNoise_PlusLocalization,2021.2.3,60.00142803089072,
freeze.wav,freeze.mpg,freeze,6,A,Pink_Noise_6_1.wav,Pink_Noise_6_2.wav,,,,,,,,,,,,,,,0,15,15,7,,,,,,,,,,,,,,,,,,,,,,,134.2446604273282,None,135.74432045826688,None,137.12803505500779,None,basement,137.12803505500779,None,return,1.2144684810191393,137.21133903600276,None,,,,,,,,,,,,,,,,,,,,,,,,,,,,,,,,,,,,,,,93,001,2023_May_04_1712,SpeechDraft1Carolyn_lessNoise_PlusLocalization,2021.2.3,60.00142803089072,
crane.wav,crane.mpg,crane,3,A,Pink_Noise_3_1.wav,Pink_Noise_3_2.wav,,,,,,,,,,,,,,,0,16,16,20,,,,,,,,,,,,,,,,,,,,,,,138.44501031329855,None,139.94429663103074,None,141.32791389431804,None,pray,141.32791389431804,None,return,1.6144045740365982,141.41140373935923,None,,,,,,,,,,,,,,,,,,,,,,,,,,,,,,,,,,,,,,,93,001,2023_May_04_1712,SpeechDraft1Carolyn_lessNoise_PlusLocalization,2021.2.3,60.00142803089072,
count.wav,count.mpg,count,5,A,Pink_Noise_5_1.wav,Pink_Noise_5_2.wav,,,,,,,,,,,,,,,0,17,17,40,,,,,,,,,,,,,,,,,,,,,,,143.0446582720615,None,144.5444716801867,None,145.9279176373966,None,melt,145.9279176373966,None,return,0.8542884336784482,146.01150689506903,None,,,,,,,,,,,,,,,,,,,,,,,,,,,,,,,,,,,,,,,93,001,2023_May_04_1712,SpeechDraft1Carolyn_lessNoise_PlusLocalization,2021.2.3,60.00142803089072,
blue.wav,blue.mpg,blue,3,A,Pink_Noise_3_1.wav,Pink_Noise_3_2.wav,,,,,,,,,,,,,,,0,18,18,8,,,,,,,,,,,,,,,,,,,,,,,146.89475300721824,None,148.39436535630375,None,149.77802486531436,None,"loop
",149.77802486531436,None,return,1.4843431650660932,149.86148071708158,None,,,,,,,,,,,,,,,,,,,,,,,,,,,,,,,,,,,,,,,93,001,2023_May_04_1712,SpeechDraft1Carolyn_lessNoise_PlusLocalization,2021.2.3,60.00142803089072,
drink.wav,drink.mpg,drink,5,AV,Pink_Noise_5_1.wav,Pink_Noise_5_2.wav,,,,,,,,,,,,,,,0,19,19,109,,,,,,,,,,,,,,,,,,,,,,,151.377935572993,None,152.8776918873191,None,154.26126338820904,None,straight,154.26126338820904,None,return,1.9131360668689013,154.34475484024733,None,,,,,,,,,,,,,,,,,,,,,,,,,,,,,,,,,,,,,,,93,001,2023_May_04_1712,SpeechDraft1Carolyn_lessNoise_PlusLocalization,2021.2.3,60.00142803089072,
guess.wav,guess.mpg,guess,6,A,Pink_Noise_6_1.wav,Pink_Noise_6_2.wav,,,,,,,,,,,,,,,0,20,20,17,,,,,,,,,,,,,,,,,,,,,,,156.2780472789891,None,157.7777094943449,None,159.16127153439447,None,fence,159.16127153439447,None,return,1.757120553869754,159.24489965243265,None,,,,,,,,,,,,,,,,,,,,,,,,,,,,,,,,,,,,,,,93,001,2023_May_04_1712,SpeechDraft1Carolyn_lessNoise_PlusLocalization,2021.2.3,60.00142803089072,
fade.wav,fade.mpg,fade,5,A,Pink_Noise_5_1.wav,Pink_Noise_5_2.wav,,,,,,,,,,,,,,,0,21,21,37,,,,,,,,,,,,,,,,,,,,,,,161.02795867435634,None,162.52788984542713,None,163.91132821841165,None,cane,163.91132821841165,None,return,0.8152220319025218,163.9946949062869,None,,,,,,,,,,,,,,,,,,,,,,,,,,,,,,,,,,,,,,,93,001,2023_May_04_1712,SpeechDraft1Carolyn_lessNoise_PlusLocalization,2021.2.3,60.00142803089072,
gust.wav,gust.mpg,gust,4,AV,Pink_Noise_4_1.wav,Pink_Noise_4_2.wav,,,,,,,,,,,,,,,0,22,22,99,,,,,,,,,,,,,,,,,,,,,,,164.82809377415106,None,166.32768517034128,None,167.71122878603637,None,gust,167.71122878603637,None,return,0.6633303500711918,167.79459585109726,None,,,,,,,,,,,,,,,,,,,,,,,,,,,,,,,,,,,,,,,93,001,2023_May_04_1712,SpeechDraft1Carolyn_lessNoise_PlusLocalization,2021.2.3,60.00142803089072,
cope.wav,cope.mpg,cope,4,A,Pink_Noise_4_1.wav,Pink_Noise_4_2.wav,,,,,,,,,,,,,,,0,23,23,41,,,,,,,,,,,,,,,,,,,,,,,168.4781082160771,None,169.97774082235992,None,171.3613566653803,None,"coat
",171.3613566653803,None,return,0.7010251968167722,171.44477995019406,None,,,,,,,,,,,,,,,,,,,,,,,,,,,,,,,,,,,,,,,93,001,2023_May_04_1712,SpeechDraft1Carolyn_lessNoise_PlusLocalization,2021.2.3,60.00142803089072,
chunk.wav,chunk.mpg,chunk,6,AV,Pink_Noise_6_1.wav,Pink_Noise_6_2.wav,,,,,,,,,,,,,,,0,24,24,115,,,,,,,,,,,,,,,,,,,,,,,172.1780079100281,None,173.6777073731646,None,175.06122089317068,None,charge,175.06122089317068,None,return,1.9770250180736184,175.14480503322557,None,,,,,,,,,,,,,,,,,,,,,,,,,,,,,,,,,,,,,,,93,001,2023_May_04_1712,SpeechDraft1Carolyn_lessNoise_PlusLocalization,2021.2.3,60.00142803089072,
ban.wav,ban.mpg,ban,5,A,Pink_Noise_5_1.wav,Pink_Noise_5_2.wav,,,,,,,,,,,,,,,0,25,25,2,,,,,,,,,,,,,,,,,,,,,,,177.1447157803923,None,178.64448284404352,None,180.02812064206228,None,nail,180.02812064206228,None,return,0.9383773980662227,180.11153406230733,None,,,,,,,,,,,,,,,,,,,,,,,,,,,,,,,,,,,,,,,93,001,2023_May_04_1712,SpeechDraft1Carolyn_lessNoise_PlusLocalization,2021.2.3,60.00142803089072,
fault.wav,fault.mpg,fault,4,A,Pink_Noise_4_1.wav,Pink_Noise_4_2.wav,,,,,,,,,,,,,,,0,26,26,26,,,,,,,,,,,,,,,,,,,,,,,181.07820841111243,None,182.57762636523694,None,183.96144446916878,None,part,183.96144446916878,None,return,6.165201930794865,184.04468893399462,None,,,,,,,,,,,,,,,,,,,,,,,,,,,,,,,,,,,,,,,93,001,2023_May_04_1712,SpeechDraft1Carolyn_lessNoise_PlusLocalization,2021.2.3,60.00142803089072,
aunt.wav,aunt.mpg,aunt,2,AV,Pink_Noise_2_1.wav,Pink_Noise_2_2.wav,,,,,,,,,,,,,,,0,27,27,65,,,,,,,,,,,,,,,,,,,,,,,190.2280763220042,None,191.72774974629283,None,193.11134100705385,None,art,193.11134100705385,None,return,0.7911502150818706,193.1946721430868,None,,,,,,,,,,,,,,,,,,,,,,,,,,,,,,,,,,,,,,,93,001,2023_May_04_1712,SpeechDraft1Carolyn_lessNoise_PlusLocalization,2021.2.3,60.00142803089072,
bird.wav,bird.mpg,bird,6,A,Pink_Noise_6_1.wav,Pink_Noise_6_2.wav,,,,,,,,,,,,,,,0,28,28,52,,,,,,,,,,,,,,,,,,,,,,,194.0115006393753,None,195.5109728979878,None,196.89479125617072,None,bird,196.89479125617072,None,return,1.9437741027213633,196.97801246400923,None,,,,,,,,,,,,,,,,,,,,,,,,,,,,,,,,,,,,,,,93,001,2023_May_04_1712,SpeechDraft1Carolyn_lessNoise_PlusLocalization,2021.2.3,60.00142803089072,
flick.wav,flick.mpg,flick,5,AV,Pink_Noise_5_1.wav,Pink_Noise_5_2.wav,,,,,,,,,,,,,,,0,29,29,68,,,,,,,,,,,,,,,,,,,,,,,198.94474608730525,None,200.4444325082004,None,201.8279431629926,None,"fix
",201.8279431629926,None,return,1.4022098421119153,201.91159699996933,None,,,,,,,,,,,,,,,,,,,,,,,,,,,,,,,,,,,,,,,93,001,2023_May_04_1712,SpeechDraft1Carolyn_lessNoise_PlusLocalization,2021.2.3,60.00142803089072,
gram.wav,gram.mpg,gram,6,AV,Pink_Noise_6_1.wav,Pink_Noise_6_2.wav,,,,,,,,,,,,,,,0,30,30,80,,,,,,,,,,,,,,,,,,,,,,,203.34475162625313,None,204.84438757505268,None,206.22790056327358,None,grape,206.22790056327358,None,return,1.0743679231964052,206.31154283229262,None,,,,,,,,,,,,,,,,,,,,,,,,,,,,,,,,,,,,,,,93,001,2023_May_04_1712,SpeechDraft1Carolyn_lessNoise_PlusLocalization,2021.2.3,60.00142803089072,
cheer.wav,cheer.mpg,cheer,4,AV,Pink_Noise_4_1.wav,Pink_Noise_4_2.wav,,,,,,,,,,,,,,,0,31,31,110,,,,,,,,,,,,,,,,,,,,,,,207.41150466213003,None,208.911057560239,None,210.29463093122467,None,cheer,210.29463093122467,None,return,0.9917698502540588,210.37806017138064,None,,,,,,,,,,,,,,,,,,,,,,,,,,,,,,,,,,,,,,,93,001,2023_May_04_1712,SpeechDraft1Carolyn_lessNoise_PlusLocalization,2021.2.3,60.00142803089072,
guide.wav,guide.mpg,guide,3,A,Pink_Noise_3_1.wav,Pink_Noise_3_2.wav,,,,,,,,,,,,,,,0,32,32,48,,,,,,,,,,,,,,,,,,,,,,,211.39473153697327,None,212.89456442231312,None,214.27813728200272,None,guide,214.27813728200272,None,return,1.3123934944160283,214.3614102783613,None,,,,,,,,,,,,,,,,,,,,,,,,,,,,,,,,,,,,,,,93,001,2023_May_04_1712,SpeechDraft1Carolyn_lessNoise_PlusLocalization,2021.2.3,60.00142803089072,
dual.wav,dual.mpg,dual,4,A,Pink_Noise_4_1.wav,Pink_Noise_4_2.wav,,,,,,,,,,,,,,,0,33,33,50,,,,,,,,,,,,,,,,,,,,,,,215.69486465211958,None,217.19439668906853,None,218.57817075913772,None,wood,218.57817075913772,None,return,1.0443642111495137,218.66144560230896,None,,,,,,,,,,,,,,,,,,,,,,,,,,,,,,,,,,,,,,,93,001,2023_May_04_1712,SpeechDraft1Carolyn_lessNoise_PlusLocalization,2021.2.3,60.00142803089072,
damp.wav,damp.mpg,damp,1,A,Pink_Noise_1_1.wav,Pink_Noise_1_2.wav,,,,,,,,,,,,,,,0,34,34,36,,,,,,,,,,,,,,,,,,,,,,,219.72817886201665,None,221.2278721970506,None,222.6113809933886,None,damp,222.6113809933886,None,return,0.9150466369464993,222.69491643738002,None,,,,,,,,,,,,,,,,,,,,,,,,,,,,,,,,,,,,,,,93,001,2023_May_04_1712,SpeechDraft1Carolyn_lessNoise_PlusLocalization,2021.2.3,60.00142803089072,
flirt.wav,flirt.mpg,flirt,2,A,Pink_Noise_2_1.wav,Pink_Noise_2_2.wav,,,,,,,,,,,,,,,0,35,35,27,,,,,,,,,,,,,,,,,,,,,,,223.62811851128936,None,225.12777405930683,None,226.5115731144324,None,fruit,226.5115731144324,None,return,1.0392531431280077,226.5948035554029,None,,,,,,,,,,,,,,,,,,,,,,,,,,,,,,,,,,,,,,,93,001,2023_May_04_1712,SpeechDraft1Carolyn_lessNoise_PlusLocalization,2021.2.3,60.00142803089072,
blaze.wav,blaze.mpg,blaze,2,A,Pink_Noise_2_1.wav,Pink_Noise_2_2.wav,,,,,,,,,,,,,,,0,36,36,29,,,,,,,,,,,,,,,,,,,,,,,227.66146069997922,None,229.16124128038064,None,230.5449023381807,None,lays,230.5449023381807,None,return,4.589810309931636,230.62808247236535,None,,,,,,,,,,,,,,,,,,,,,,,,,,,,,,,,,,,,,,,93,001,2023_May_04_1712,SpeechDraft1Carolyn_lessNoise_PlusLocalization,2021.2.3,60.00142803089072,
broil.wav,broil.mpg,broil,4,AV,Pink_Noise_4_1.wav,Pink_Noise_4_2.wav,,,,,,,,,,,,,,,0,37,37,73,,,,,,,,,,,,,,,,,,,,,,,235.2448357543908,None,236.7446204102598,None,238.128220168408,None,broil,238.128220168408,None,return,1.4621670939959586,238.21168440021574,None,,,,,,,,,,,,,,,,,,,,,,,,,,,,,,,,,,,,,,,93,001,2023_May_04_1712,SpeechDraft1Carolyn_lessNoise_PlusLocalization,2021.2.3,60.00142803089072,
dash.wav,dash.mpg,dash,5,A,Pink_Noise_5_1.wav,Pink_Noise_5_2.wav,,,,,,,,,,,,,,,0,38,38,51,,,,,,,,,,,,,,,,,,,,,,,239.6947320443578,None,241.194808521308,None,242.57806354900822,None,dash,242.57806354900822,None,return,0.8602897641249001,242.66151208104566,None,,,,,,,,,,,,,,,,,,,,,,,,,,,,,,,,,,,,,,,93,001,2023_May_04_1712,SpeechDraft1Carolyn_lessNoise_PlusLocalization,2021.2.3,60.00142803089072,
mass.wav,mass.mpg,mass,5,A,Pink_Noise_5_1.wav,Pink_Noise_5_2.wav,,,,,,,,,,,,,,,0,39,39,16,,,,,,,,,,,,,,,,,,,,,,,243.54485524306074,None,245.04468487622216,None,246.4280560822226,None,next,246.4280560822226,None,return,0.9783661956898868,246.51144894538447,None,,,,,,,,,,,,,,,,,,,,,,,,,,,,,,,,,,,,,,,93,001,2023_May_04_1712,SpeechDraft1Carolyn_lessNoise_PlusLocalization,2021.2.3,60.00142803089072,
coast.wav,coast.mpg,coast,2,A,Pink_Noise_2_1.wav,Pink_Noise_2_2.wav,,,,,,,,,,,,,,,0,40,40,23,,,,,,,,,,,,,,,,,,,,,,,247.5115816402249,None,249.01118508540094,None,250.3948685512878,None,toast,250.3948685512878,None,return,0.8437015269882977,250.47812708327547,None,,,,,,,,,,,,,,,,,,,,,,,,,,,,,,,,,,,,,,,93,001,2023_May_04_1712,SpeechDraft1Carolyn_lessNoise_PlusLocalization,2021.2.3,60.00142803089072,
eve.wav,eve.mpg,eve,1,AV,Pink_Noise_1_1.wav,Pink_Noise_1_2.wav,,,,,,,,,,,,,,,0,41,41,81,,,,,,,,,,,,,,,,,,,,,,,251.34483785927296,None,252.84441599901766,None,254.2279162942432,None,eve,254.2279162942432,None,return,0.8824347513727844,254.31147842109203,None,,,,,,,,,,,,,,,,,,,,,,,,,,,,,,,,,,,,,,,93,001,2023_May_04_1712,SpeechDraft1Carolyn_lessNoise_PlusLocalization,2021.2.3,60.00142803089072,
climb.wav,climb.mpg,climb,6,A,Pink_Noise_6_1.wav,Pink_Noise_6_2.wav,,,,,,,,,,,,,,,0,42,42,57,,,,,,,,,,,,,,,,,,,,,,,255.21156903123483,None,256.7110134791583,None,258.0948023973033,None,wash,258.0948023973033,None,return,0.9437104291282594,258.1781009864062,None,,,,,,,,,,,,,,,,,,,,,,,,,,,,,,,,,,,,,,,93,001,2023_May_04_1712,SpeechDraft1Carolyn_lessNoise_PlusLocalization,2021.2.3,60.00142803089072,
blind.wav,blind.mpg,blind,2,AV,Pink_Noise_2_1.wav,Pink_Noise_2_2.wav,,,,,,,,,,,,,,,0,43,43,93,,,,,,,,,,,,,,,,,,,,,,,259.1447875783779,None,260.64449504297227,None,262.02826013509184,None,"blind
",262.02826013509184,None,return,0.9863051120191813,262.1115022683516,None,,,,,,,,,,,,,,,,,,,,,,,,,,,,,,,,,,,,,,,93,001,2023_May_04_1712,SpeechDraft1Carolyn_lessNoise_PlusLocalization,2021.2.3,60.00142803089072,
brick.wav,brick.mpg,brick,1,A,Pink_Noise_1_1.wav,Pink_Noise_1_2.wav,,,,,,,,,,,,,,,0,44,44,58,,,,,,,,,,,,,,,,,,,,,,,263.1282837712206,None,264.62840310810134,None,266.0114636402577,None,brick,266.0114636402577,None,return,0.9310515229590237,266.09481462743133,None,,,,,,,,,,,,,,,,,,,,,,,,,,,,,,,,,,,,,,,93,001,2023_May_04_1712,SpeechDraft1Carolyn_lessNoise_PlusLocalization,2021.2.3,60.00142803089072,
gut.wav,gut.mpg,gut,4,A,Pink_Noise_4_1.wav,Pink_Noise_4_2.wav,,,,,,,,,,,,,,,0,45,45,55,,,,,,,,,,,,,,,,,,,,,,,267.0449503753334,None,268.5445330142975,None,269.9283530372195,None,"gut
",269.9283530372195,None,return,0.6863085268996656,270.0115000680089,None,,,,,,,,,,,,,,,,,,,,,,,,,,,,,,,,,,,,,,,93,001,2023_May_04_1712,SpeechDraft1Carolyn_lessNoise_PlusLocalization,2021.2.3,60.00142803089072,
grown.wav,grown.mpg,grown,6,AV,Pink_Noise_6_1.wav,Pink_Noise_6_2.wav,,,,,,,,,,,,,,,0,46,46,61,,,,,,,,,,,,,,,,,,,,,,,270.72810699697584,None,272.22999147698283,None,273.61145873507485,None,road,273.61145873507485,None,return,0.7149231010116637,273.6949464180507,None,,,,,,,,,,,,,,,,,,,,,,,,,,,,,,,,,,,,,,,93,001,2023_May_04_1712,SpeechDraft1Carolyn_lessNoise_PlusLocalization,2021.2.3,60.00142803089072,
chew.wav,chew.mpg,chew,2,A,Pink_Noise_2_1.wav,Pink_Noise_2_2.wav,,,,,,,,,,,,,,,0,47,47,9,,,,,,,,,,,,,,,,,,,,,,,274.42821533605456,None,275.92784743430093,None,277.3116429760121,None,chew,277.3116429760121,None,return,0.7269553388468921,277.3948437171057,None,,,,,,,,,,,,,,,,,,,,,,,,,,,,,,,,,,,,,,,93,001,2023_May_04_1712,SpeechDraft1Carolyn_lessNoise_PlusLocalization,2021.2.3,60.00142803089072,
wild.wav,wild.mpg,wild,2,A,Pink_Noise_2_1.wav,Pink_Noise_2_2.wav,,,,,,,,,,,,,,,0,48,48,49,,,,,,,,,,,,,,,,,,,,,,,278.1448575411923,None,279.6444952832535,None,281.0282832640223,None,wild,281.0282832640223,None,return,0.666181106120348,281.11169294221327,None,,,,,,,,,,,,,,,,,,,,,,,,,,,,,,,,,,,,,,,93,001,2023_May_04_1712,SpeechDraft1Carolyn_lessNoise_PlusLocalization,2021.2.3,60.00142803089072,
dusk.wav,dusk.mpg,dusk,1,A,Pink_Noise_1_1.wav,Pink_Noise_1_2.wav,,,,,,,,,,,,,,,0,49,49,35,,,,,,,,,,,,,,,,,,,,,,,281.7949844961986,None,283.2946970462799,None,284.6784284301102,None,dusk,284.6784284301102,None,return,0.8803868507966399,284.7615089653991,None,,,,,,,,,,,,,,,,,,,,,,,,,,,,,,,,,,,,,,,93,001,2023_May_04_1712,SpeechDraft1Carolyn_lessNoise_PlusLocalization,2021.2.3,60.00142803089072,
grain.wav,grain.mpg,grain,1,AV,Pink_Noise_1_1.wav,Pink_Noise_1_2.wav,,,,,,,,,,,,,,,0,50,50,114,,,,,,,,,,,,,,,,,,,,,,,285.6615121969953,None,287.1611777571961,None,288.54487214935943,None,"grain
",288.54487214935943,None,return,0.9335753060877323,288.6282259351574,None,,,,,,,,,,,,,,,,,,,,,,,,,,,,,,,,,,,,,,,93,001,2023_May_04_1712,SpeechDraft1Carolyn_lessNoise_PlusLocalization,2021.2.3,60.00142803089072,
cheat.wav,cheat.mpg,cheat,3,AV,Pink_Noise_3_1.wav,Pink_Noise_3_2.wav,,,,,,,,,,,,,,,0,51,51,69,,,,,,,,,,,,,,,,,,,,,,,289.5948743112385,None,291.0948522700928,None,292.4782996880822,None,cheat,292.4782996880822,None,return,0.86431689793244,292.5615141731687,None,,,,,,,,,,,,,,,,,,,,,,,,,,,,,,,,,,,,,,,93,001,2023_May_04_1712,SpeechDraft1Carolyn_lessNoise_PlusLocalization,2021.2.3,60.00142803089072,
flight.wav,flight.mpg,flight,2,AV,Pink_Noise_2_1.wav,Pink_Noise_2_2.wav,,,,,,,,,,,,,,,0,52,52,64,,,,,,,,,,,,,,,,,,,,,,,293.44501742813736,None,294.9444409213029,None,296.3281682683155,None,flight,296.3281682683155,None,return,1.022345781326294,296.41155189834535,None,,,,,,,,,,,,,,,,,,,,,,,,,,,,,,,,,,,,,,,93,001,2023_May_04_1712,SpeechDraft1Carolyn_lessNoise_PlusLocalization,2021.2.3,60.00142803089072,
dock.wav,dock.mpg,dock,1,AV,Pink_Noise_1_1.wav,Pink_Noise_1_2.wav,,,,,,,,,,,,,,,0,53,53,74,,,,,,,,,,,,,,,,,,,,,,,297.4616333153099,None,298.9612150862813,None,300.34485971322283,None,dock,300.34485971322283,None,return,0.861298437230289,300.44453311432153,None,,,,,,,,,,,,,,,,,,,,,,,,,,,,,,,,,,,,,,,93,001,2023_May_04_1712,SpeechDraft1Carolyn_lessNoise_PlusLocalization,2021.2.3,60.00142803089072,
beard.wav,beard.mpg,beard,4,AV,Pink_Noise_4_1.wav,Pink_Noise_4_2.wav,,,,,,,,,,,,,,,0,54,54,71,,,,,,,,,,,,,,,,,,,,,,,301.3283449681476,None,302.8443829109892,None,304.2116265143268,None,milk,304.2116265143268,None,return,2.4829809991642833,304.2949130269699,None,,,,,,,,,,,,,,,,,,,,,,,,,,,,,,,,,,,,,,,93,001,2023_May_04_1712,SpeechDraft1Carolyn_lessNoise_PlusLocalization,2021.2.3,60.00142803089072,
bet.wav,bet.mpg,bet,4,AV,Pink_Noise_4_1.wav,Pink_Noise_4_2.wav,,,,,,,,,,,,,,,0,55,55,119,,,,,,,,,,,,,,,,,,,,,,,306.79484240710735,None,308.29468963108957,None,309.67809836613014,None,bat,309.67809836613014,None,return,0.9441312360577285,309.7616926971823,None,,,,,,,,,,,,,,,,,,,,,,,,,,,,,,,,,,,,,,,93,001,2023_May_04_1712,SpeechDraft1Carolyn_lessNoise_PlusLocalization,2021.2.3,60.00142803089072,
blast.wav,blast.mpg,blast,4,A,Pink_Noise_4_1.wav,Pink_Noise_4_2.wav,,,,,,,,,,,,,,,0,56,56,56,,,,,,,,,,,,,,,,,,,,,,,310.7283700881526,None,312.22806892637163,None,313.61147560412064,None,last,313.61147560412064,None,return,0.6588889537379146,313.6949082412757,None,,,,,,,,,,,,,,,,,,,,,,,,,,,,,,,,,,,,,,,93,001,2023_May_04_1712,SpeechDraft1Carolyn_lessNoise_PlusLocalization,2021.2.3,60.00142803089072,
bib.wav,bib.mpg,bib,3,AV,Pink_Noise_3_1.wav,Pink_Noise_3_2.wav,,,,,,,,,,,,,,,0,57,57,106,,,,,,,,,,,,,,,,,,,,,,,314.37821180932224,None,315.87802956905216,None,317.26146181533113,None,build,317.26146181533113,None,return,0.7768688509240746,317.3449450400658,None,,,,,,,,,,,,,,,,,,,,,,,,,,,,,,,,,,,,,,,93,001,2023_May_04_1712,SpeechDraft1Carolyn_lessNoise_PlusLocalization,2021.2.3,60.00142803089072,
fluff.wav,fluff.mpg,fluff,4,AV,Pink_Noise_4_1.wav,Pink_Noise_4_2.wav,,,,,,,,,,,,,,,0,58,58,60,,,,,,,,,,,,,,,,,,,,,,,318.1448899260722,None,319.6446113041602,None,321.0281689162366,None,flush,321.0281689162366,None,return,0.8262269799597561,321.1115797064267,None,,,,,,,,,,,,,,,,,,,,,,,,,,,,,,,,,,,,,,,93,001,2023_May_04_1712,SpeechDraft1Carolyn_lessNoise_PlusLocalization,2021.2.3,60.00142803089072,
beam.wav,beam.mpg,beam,3,AV,Pink_Noise_3_1.wav,Pink_Noise_3_2.wav,,,,,,,,,,,,,,,0,59,59,112,,,,,,,,,,,,,,,,,,,,,,,321.96179798804224,None,323.46116206003353,None,324.84496447630227,None,"mean
",324.84496447630227,None,return,1.8015936333686113,324.9281945452094,None,,,,,,,,,,,,,,,,,,,,,,,,,,,,,,,,,,,,,,,93,001,2023_May_04_1712,SpeechDraft1Carolyn_lessNoise_PlusLocalization,2021.2.3,60.00142803089072,
round.wav,round.mpg,round,2,AV,Pink_Noise_2_1.wav,Pink_Noise_2_2.wav,,,,,,,,,,,,,,,0,60,60,82,,,,,,,,,,,,,,,,,,,,,,,326.7615325851366,None,328.277975267265,None,329.64495142316446,None,railed,329.64495142316446,None,return,1.3296187580563128,329.728234260343,None,,,,,,,,,,,,,,,,,,,,,,,,,,,,,,,,,,,,,,,93,001,2023_May_04_1712,SpeechDraft1Carolyn_lessNoise_PlusLocalization,2021.2.3,60.00142803089072,
fruit.wav,fruit.mpg,fruit,5,AV,Pink_Noise_5_1.wav,Pink_Noise_5_2.wav,,,,,,,,,,,,,,,0,61,61,113,,,,,,,,,,,,,,,,,,,,,,,331.0784517303109,None,332.5798935093917,None,333.96145243011415,None,fruit,333.96145243011415,None,return,1.012985864188522,334.0448716590181,None,,,,,,,,,,,,,,,,,,,,,,,,,,,,,,,,,,,,,,,93,001,2023_May_04_1712,SpeechDraft1Carolyn_lessNoise_PlusLocalization,2021.2.3,60.00142803089072,
chomp.wav,chomp.mpg,chomp,6,A,Pink_Noise_6_1.wav,Pink_Noise_6_2.wav,,,,,,,,,,,,,,,0,62,62,15,,,,,,,,,,,,,,,,,,,,,,,335.0781493592076,None,336.57791086426005,None,337.96160637633875,None,charge,337.96160637633875,None,return,1.8768358156085014,338.0449544279836,None,,,,,,,,,,,,,,,,,,,,,,,,,,,,,,,,,,,,,,,93,001,2023_May_04_1712,SpeechDraft1Carolyn_lessNoise_PlusLocalization,2021.2.3,60.00142803089072,
bin.wav,bin.mpg,bin,1,A,Pink_Noise_1_1.wav,Pink_Noise_1_2.wav,,,,,,,,,,,,,,,0,63,63,53,,,,,,,,,,,,,,,,,,,,,,,339.9449616931379,None,341.461318093352,None,342.84497667709365,None,bin,342.84497667709365,None,return,0.9775635567493737,342.9282615403645,None,,,,,,,,,,,,,,,,,,,,,,,,,,,,,,,,,,,,,,,93,001,2023_May_04_1712,SpeechDraft1Carolyn_lessNoise_PlusLocalization,2021.2.3,60.00142803089072,
grave.wav,grave.mpg,grave,3,AV,Pink_Noise_3_1.wav,Pink_Noise_3_2.wav,,,,,,,,,,,,,,,0,64,64,62,,,,,,,,,,,,,,,,,,,,,,,343.92840560199693,None,345.44471757207066,None,346.8281712150201,None,"grave
",346.8281712150201,None,return,1.0340421730652452,346.91176991537213,None,,,,,,,,,,,,,,,,,,,,,,,,,,,,,,,,,,,,,,,93,001,2023_May_04_1712,SpeechDraft1Carolyn_lessNoise_PlusLocalization,2021.2.3,60.00142803089072,
bring.wav,bring.mpg,bring,3,AV,Pink_Noise_3_1.wav,Pink_Noise_3_2.wav,,,,,,,,,,,,,,,0,65,65,117,,,,,,,,,,,,,,,,,,,,,,,347.97838186332956,None,349.4945337353274,None,350.8783574621193,None,grain,350.8783574621193,None,return,1.2563516702502966,350.96157968742773,None,,,,,,,,,,,,,,,,,,,,,,,,,,,,,,,,,,,,,,,93,001,2023_May_04_1712,SpeechDraft1Carolyn_lessNoise_PlusLocalization,2021.2.3,60.00142803089072,
drum.wav,drum.mpg,drum,4,AV,Pink_Noise_4_1.wav,Pink_Noise_4_2.wav,,,,,,,,,,,,,,,0,66,66,85,,,,,,,,,,,,,,,,,,,,,,,352.2451427252963,None,353.7615978834219,None,355.1449129781686,None,"drum
",355.1449129781686,None,return,1.1015692171640694,355.22823307616636,None,,,,,,,,,,,,,,,,,,,,,,,,,,,,,,,,,,,,,,,93,001,2023_May_04_1712,SpeechDraft1Carolyn_lessNoise_PlusLocalization,2021.2.3,60.00142803089072,
cloud.wav,cloud.mpg,cloud,3,AV,Pink_Noise_3_1.wav,Pink_Noise_3_2.wav,,,,,,,,,,,,,,,0,67,67,101,,,,,,,,,,,,,,,,,,,,,,,356.36163502233103,None,357.8780117412098,None,359.26157257007435,None,cloud,359.26157257007435,None,return,0.9767655339092016,359.34503039717674,None,,,,,,,,,,,,,,,,,,,,,,,,,,,,,,,,,,,,,,,93,001,2023_May_04_1712,SpeechDraft1Carolyn_lessNoise_PlusLocalization,2021.2.3,60.00142803089072,
cop.wav,cop.mpg,cop,3,AV,Pink_Noise_3_1.wav,Pink_Noise_3_2.wav,,,,,,,,,,,,,,,0,68,68,92,,,,,,,,,,,,,,,,,,,,,,,360.34510317025706,None,361.86127430107445,None,363.24504410102963,None,cop,363.24504410102963,None,return,0.7935146032832563,363.32834733230993,None,,,,,,,,,,,,,,,,,,,,,,,,,,,,,,,,,,,,,,,93,001,2023_May_04_1712,SpeechDraft1Carolyn_lessNoise_PlusLocalization,2021.2.3,60.00142803089072,
gab.wav,gab.mpg,gab,2,AV,Pink_Noise_2_1.wav,Pink_Noise_2_2.wav,,,,,,,,,,,,,,,0,69,69,75,,,,,,,,,,,,,,,,,,,,,,,364.14499795623124,None,365.64466735115275,None,367.0281518041156,None,gap,367.0281518041156,None,return,2.594181302934885,367.11161502916366,None,,,,,,,,,,,,,,,,,,,,,,,,,,,,,,,,,,,,,,,93,001,2023_May_04_1712,SpeechDraft1Carolyn_lessNoise_PlusLocalization,2021.2.3,60.00142803089072,
cough.wav,cough.mpg,cough,4,AV,Pink_Noise_4_1.wav,Pink_Noise_4_2.wav,,,,,,,,,,,,,,,0,70,70,89,,,,,,,,,,,,,,,,,,,,,,,369.7283828272484,None,371.24468642519787,None,372.62840354209766,None,cough,372.62840354209766,None,return,1.410201296210289,372.7116372361779,None,,,,,,,,,,,,,,,,,,,,,,,,,,,,,,,,,,,,,,,93,001,2023_May_04_1712,SpeechDraft1Carolyn_lessNoise_PlusLocalization,2021.2.3,60.00142803089072,
bribe.wav,bribe.mpg,bribe,5,AV,Pink_Noise_5_1.wav,Pink_Noise_5_2.wav,,,,,,,,,,,,,,,0,71,71,79,,,,,,,,,,,,,,,,,,,,,,,374.1448902101256,None,375.6451128493063,None,377.0281772031449,None,"bribe
",377.0281772031449,None,return,1.049901015125215,377.1119111762382,None,,,,,,,,,,,,,,,,,,,,,,,,,,,,,,,,,,,,,,,93,001,2023_May_04_1712,SpeechDraft1Carolyn_lessNoise_PlusLocalization,2021.2.3,60.00142803089072,
grail.wav,grail.mpg,grail,5,AV,Pink_Noise_5_1.wav,Pink_Noise_5_2.wav,,,,,,,,,,,,,,,0,72,72,78,,,,,,,,,,,,,,,,,,,,,,,378.1950345854275,None,379.7113934722729,None,381.09493632335216,None,rail,381.09493632335216,None,return,0.8554880730807781,381.1784134260379,None,,,,,,,,,,,,,,,,,,,,,,,,,,,,,,,,,,,,,,,93,001,2023_May_04_1712,SpeechDraft1Carolyn_lessNoise_PlusLocalization,2021.2.3,60.00142803089072,
den.wav,den.mpg,den,6,AV,Pink_Noise_6_1.wav,Pink_Noise_6_2.wav,,,,,,,,,,,,,,,0,73,73,97,,,,,,,,,,,,,,,,,,,,,,,382.06178383529186,None,383.57819729298353,None,384.96146399434656,None,damp,384.96146399434656,None,return,1.0607716459780931,385.0450271293521,None,,,,,,,,,,,,,,,,,,,,,,,,,,,,,,,,,,,,,,,93,001,2023_May_04_1712,SpeechDraft1Carolyn_lessNoise_PlusLocalization,2021.2.3,60.00142803089072,
greed.wav,greed.mpg,greed,1,A,Pink_Noise_1_1.wav,Pink_Noise_1_2.wav,,,,,,,,,,,,,,,0,74,74,46,,,,,,,,,,,,,,,,,,,,,,,386.12827471038327,None,387.64463726617396,None,389.02853350900114,None,"greed
",389.02853350900114,None,return,1.4021345567889512,389.1116736042313,None,,,,,,,,,,,,,,,,,,,,,,,,,,,,,,,,,,,,,,,93,001,2023_May_04_1712,SpeechDraft1Carolyn_lessNoise_PlusLocalization,2021.2.3,60.00142803089072,
dry.wav,dry.mpg,dry,4,A,Pink_Noise_4_1.wav,Pink_Noise_4_2.wav,,,,,,,,,,,,,,,0,75,75,25,,,,,,,,,,,,,,,,,,,,,,,390.54499659407884,None,392.0615764632821,None,393.4450858379714,None,"dry
",393.4450858379714,None,return,0.7854448650032282,393.52834821818396,None,,,,,,,,,,,,,,,,,,,,,,,,,,,,,,,,,,,,,,,93,001,2023_May_04_1712,SpeechDraft1Carolyn_lessNoise_PlusLocalization,2021.2.3,60.00142803089072,
fed.wav,fed.mpg,fed,1,AV,Pink_Noise_1_1.wav,Pink_Noise_1_2.wav,,,,,,,,,,,,,,,0,76,76,107,,,,,,,,,,,,,,,,,,,,,,,394.3449776521884,None,395.86146292230114,None,397.24502456141636,None,fed,397.24502456141636,None,return,0.8656027889810503,397.3284503882751,None,,,,,,,,,,,,,,,,,,,,,,,,,,,,,,,,,,,,,,,93,001,2023_May_04_1712,SpeechDraft1Carolyn_lessNoise_PlusLocalization,2021.2.3,60.00142803089072,
brief.wav,brief.mpg,brief,1,A,Pink_Noise_1_1.wav,Pink_Noise_1_2.wav,,,,,,,,,,,,,,,0,77,77,44,,,,,,,,,,,,,,,,,,,,,,,398.2116522192955,None,399.72803866909817,None,401.11165546020493,None,brief,401.11165546020493,None,return,0.8066540993750095,401.195216587279,None,,,,,,,,,,,,,,,,,,,,,,,,,,,,,,,,,,,,,,,93,001,2023_May_04_1712,SpeechDraft1Carolyn_lessNoise_PlusLocalization,2021.2.3,60.00142803089072,
clap.wav,clap.mpg,clap,1,AV,Pink_Noise_1_1.wav,Pink_Noise_1_2.wav,,,,,,,,,,,,,,,0,78,78,66,,,,,,,,,,,,,,,,,,,,,,,402.02842861041427,None,403.54486607015133,None,404.9284794861451,None,clap,404.9284794861451,None,return,0.9980902252718806,405.01178269740194,None,,,,,,,,,,,,,,,,,,,,,,,,,,,,,,,,,,,,,,,93,001,2023_May_04_1712,SpeechDraft1Carolyn_lessNoise_PlusLocalization,2021.2.3,60.00142803089072,
flat.wav,flat.mpg,flat,5,A,Pink_Noise_5_1.wav,Pink_Noise_5_2.wav,,,,,,,,,,,,,,,0,79,79,12,,,,,,,,,,,,,,,,,,,,,,,406.02853629319,None,407.5446475050412,None,408.9284910503775,None,"clap
",408.9284910503775,None,return,1.549938476178795,409.01187813840806,None,,,,,,,,,,,,,,,,,,,,,,,,,,,,,,,,,,,,,,,93,001,2023_May_04_1712,SpeechDraft1Carolyn_lessNoise_PlusLocalization,2021.2.3,60.00142803089072,
drill.wav,drill.mpg,drill,3,A,Pink_Noise_3_1.wav,Pink_Noise_3_2.wav,,,,,,,,,,,,,,,0,80,80,33,,,,,,,,,,,,,,,,,,,,,,,410.5952525092289,None,412.11124441726133,None,413.4951795740053,None,"drill
",413.4951795740053,None,return,0.9353609411045909,413.5784487002529,None,,,,,,,,,,,,,,,,,,,,,,,,,,,,,,,,,,,,,,,93,001,2023_May_04_1712,SpeechDraft1Carolyn_lessNoise_PlusLocalization,2021.2.3,60.00142803089072,
deed.wav,deed.mpg,deed,1,A,Pink_Noise_1_1.wav,Pink_Noise_1_2.wav,,,,,,,,,,,,,,,0,81,81,59,,,,,,,,,,,,,,,,,,,,,,,414.54504422610626,None,416.044944497291,None,417.4283704464324,None,"deed
",417.4283704464324,None,return,1.2340878141112626,417.5117252203636,None,,,,,,,,,,,,,,,,,,,,,,,,,,,,,,,,,,,,,,,93,001,2023_May_04_1712,SpeechDraft1Carolyn_lessNoise_PlusLocalization,2021.2.3,60.00142803089072,
cramp.wav,cramp.mpg,cramp,3,A,Pink_Noise_3_1.wav,Pink_Noise_3_2.wav,,,,,,,,,,,,,,,0,82,82,39,,,,,,,,,,,,,,,,,,,,,,,418.77835698006675,None,420.27815353823826,None,421.66164187621325,None,cramp,421.66164187621325,None,return,1.112593173980713,421.74525651242584,None,,,,,,,,,,,,,,,,,,,,,,,,,,,,,,,,,,,,,,,93,001,2023_May_04_1712,SpeechDraft1Carolyn_lessNoise_PlusLocalization,2021.2.3,60.00142803089072,
fond.wav,fond.mpg,fond,3,AV,Pink_Noise_3_1.wav,Pink_Noise_3_2.wav,,,,,,,,,,,,,,,0,83,83,67,,,,,,,,,,,,,,,,,,,,,,,422.87833655718714,None,424.394743708428,None,425.77850252902135,None,find,425.77850252902135,None,return,0.7720650099217892,425.8617306682281,None,,,,,,,,,,,,,,,,,,,,,,,,,,,,,,,,,,,,,,,93,001,2023_May_04_1712,SpeechDraft1Carolyn_lessNoise_PlusLocalization,2021.2.3,60.00142803089072,
chop.wav,chop.mpg,chop,5,AV,Pink_Noise_5_1.wav,Pink_Noise_5_2.wav,,,,,,,,,,,,,,,0,84,84,94,,,,,,,,,,,,,,,,,,,,,,,426.6618682499975,None,428.1780016804114,None,429.56169083109125,None,"chop
",429.56169083109125,None,return,1.052642596885562,429.6451672632247,None,,,,,,,,,,,,,,,,,,,,,,,,,,,,,,,,,,,,,,,93,001,2023_May_04_1712,SpeechDraft1Carolyn_lessNoise_PlusLocalization,2021.2.3,60.00142803089072,
bean.wav,bean.mpg,bean,2,AV,Pink_Noise_2_1.wav,Pink_Noise_2_2.wav,,,,,,,,,,,,,,,0,85,85,87,,,,,,,,,,,,,,,,,,,,,,,430.72847279906273,None,432.2614576383494,None,433.6449070600793,None,"bean
",433.6449070600793,None,return,1.369328108150512,433.7284843120724,None,,,,,,,,,,,,,,,,,,,,,,,,,,,,,,,,,,,,,,,93,001,2023_May_04_1712,SpeechDraft1Carolyn_lessNoise_PlusLocalization,2021.2.3,60.00142803089072,
drag.wav,drag.mpg,drag,5,AV,Pink_Noise_5_1.wav,Pink_Noise_5_2.wav,,,,,,,,,,,,,,,0,86,86,72,,,,,,,,,,,,,,,,,,,,,,,435.12844693800434,None,436.6447193091735,None,438.0284407683648,None,drag,438.0284407683648,None,return,1.3939623180776834,438.11183721898124,None,,,,,,,,,,,,,,,,,,,,,,,,,,,,,,,,,,,,,,,93,001,2023_May_04_1712,SpeechDraft1Carolyn_lessNoise_PlusLocalization,2021.2.3,60.00142803089072,
fool.wav,fool.mpg,fool,5,AV,Pink_Noise_5_1.wav,Pink_Noise_5_2.wav,,,,,,,,,,,,,,,0,87,87,118,,,,,,,,,,,,,,,,,,,,,,,439.52853932837024,None,441.0291969901882,None,442.41184190521017,None,four,442.41184190521017,None,return,1.6908101462759078,442.4951173751615,None,,,,,,,,,,,,,,,,,,,,,,,,,,,,,,,,,,,,,,,93,001,2023_May_04_1712,SpeechDraft1Carolyn_lessNoise_PlusLocalization,2021.2.3,60.00142803089072,
dark.wav,dark.mpg,dark,3,A,Pink_Noise_3_1.wav,Pink_Noise_3_2.wav,,,,,,,,,,,,,,,0,88,88,31,,,,,,,,,,,,,,,,,,,,,,,444.2117723012343,None,445.72795850224793,None,447.1118313120678,None,"dark
",447.1118313120678,None,return,0.7026560539379716,447.1951352772303,None,,,,,,,,,,,,,,,,,,,,,,,,,,,,,,,,,,,,,,,93,001,2023_May_04_1712,SpeechDraft1Carolyn_lessNoise_PlusLocalization,2021.2.3,60.00142803089072,
cash.wav,cash.mpg,cash,4,AV,Pink_Noise_4_1.wav,Pink_Noise_4_2.wav,,,,,,,,,,,,,,,0,89,89,95,,,,,,,,,,,,,,,,,,,,,,,447.92832927498966,None,449.44482843298465,None,450.828254731372,None,hash,450.828254731372,None,return,2.5301656210795045,450.91176263429224,None,,,,,,,,,,,,,,,,,,,,,,,,,,,,,,,,,,,,,,,93,001,2023_May_04_1712,SpeechDraft1Carolyn_lessNoise_PlusLocalization,2021.2.3,60.00142803089072,
brown.wav,brown.mpg,brown,6,A,Pink_Noise_6_1.wav,Pink_Noise_6_2.wav,,,,,,,,,,,,,,,0,90,90,24,,,,,,,,,,,,,,,,,,,,,,,453.46179739711806,None,454.996153827291,None,456.3783487309702,None,wild,456.3783487309702,None,return,1.7721238783560693,456.4617528282106,None,,,,,,,,,,,,,,,,,,,,,,,,,,,,,,,,,,,,,,,93,001,2023_May_04_1712,SpeechDraft1Carolyn_lessNoise_PlusLocalization,2021.2.3,60.00142803089072,
flag.wav,flag.mpg,flag,2,A,Pink_Noise_2_1.wav,Pink_Noise_2_2.wav,,,,,,,,,,,,,,,0,91,91,34,,,,,,,,,,,,,,,,,,,,,,,458.26191195100546,None,459.7781471312046,None,461.16181633016095,None,flag,461.16181633016095,None,return,0.6205568918958306,461.2452568979934,None,,,,,,,,,,,,,,,,,,,,,,,,,,,,,,,,,,,,,,,93,001,2023_May_04_1712,SpeechDraft1Carolyn_lessNoise_PlusLocalization,2021.2.3,60.00142803089072,
doom.wav,doom.mpg,doom,4,A,Pink_Noise_4_1.wav,Pink_Noise_4_2.wav,,,,,,,,,,,,,,,0,92,92,14,,,,,,,,,,,,,,,,,,,,,,,461.8951353300363,None,463.4115000013262,None,464.79510243516415,None,doomed,464.79510243516415,None,return,0.899550402071327,464.8784524872899,None,,,,,,,,,,,,,,,,,,,,,,,,,,,,,,,,,,,,,,,93,001,2023_May_04_1712,SpeechDraft1Carolyn_lessNoise_PlusLocalization,2021.2.3,60.00142803089072,
clash.wav,clash.mpg,clash,5,AV,Pink_Noise_5_1.wav,Pink_Noise_5_2.wav,,,,,,,,,,,,,,,0,93,93,105,,,,,,,,,,,,,,,,,,,,,,,465.7952609229833,None,467.31273397337645,None,468.69509468926117,None,lash,468.69509468926117,None,return,0.8713289899751544,468.7785682710819,None,,,,,,,,,,,,,,,,,,,,,,,,,,,,,,,,,,,,,,,93,001,2023_May_04_1712,SpeechDraft1Carolyn_lessNoise_PlusLocalization,2021.2.3,60.00142803089072,
sake.wav,sake.mpg,sake,1,AV,Pink_Noise_1_1.wav,Pink_Noise_1_2.wav,,,,,,,,,,,,,,,0,94,94,88,,,,,,,,,,,,,,,,,,,,,,,469.67847521137446,None,471.21151936613023,None,472.59512374410406,None,"sick
",472.59512374410406,None,return,1.019421970937401,472.678390648216,None,,,,,,,,,,,,,,,,,,,,,,,,,,,,,,,,,,,,,,,93,001,2023_May_04_1712,SpeechDraft1Carolyn_lessNoise_PlusLocalization,2021.2.3,60.00142803089072,
bar.wav,bar.mpg,bar,2,A,Pink_Noise_2_1.wav,Pink_Noise_2_2.wav,,,,,,,,,,,,,,,0,95,95,4,,,,,,,,,,,,,,,,,,,,,,,473.728830547072,None,475.26157047599554,None,476.64509826432914,None,barf,476.64509826432914,None,return,0.7212362852878869,476.7285522944294,None,,,,,,,,,,,,,,,,,,,,,,,,,,,,,,,,,,,,,,,93,001,2023_May_04_1712,SpeechDraft1Carolyn_lessNoise_PlusLocalization,2021.2.3,60.00142803089072,
book.wav,book.mpg,book,2,AV,Pink_Noise_2_1.wav,Pink_Noise_2_2.wav,,,,,,,,,,,,,,,0,96,96,98,,,,,,,,,,,,,,,,,,,,,,,477.4783374280669,None,478.99483956117183,None,480.378357865382,None,book,480.378357865382,None,return,0.9239373938180506,480.46214721212164,None,,,,,,,,,,,,,,,,,,,,,,,,,,,,,,,,,,,,,,,93,001,2023_May_04_1712,SpeechDraft1Carolyn_lessNoise_PlusLocalization,2021.2.3,60.00142803089072,
gem.wav,gem.mpg,gem,5,A,Pink_Noise_5_1.wav,Pink_Noise_5_2.wav,,,,,,,,,,,,,,,0,97,97,30,,,,,,,,,,,,,,,,,,,,,,,481.4117834731005,None,482.9281304203905,None,484.31180904526263,None,jump,484.31180904526263,None,return,1.2785297241061926,484.39527753414586,None,,,,,,,,,,,,,,,,,,,,,,,,,,,,,,,,,,,,,,,93,001,2023_May_04_1712,SpeechDraft1Carolyn_lessNoise_PlusLocalization,2021.2.3,60.00142803089072,
blunt.wav,blunt.mpg,blunt,6,AV,Pink_Noise_6_1.wav,Pink_Noise_6_2.wav,,,,,,,,,,,,,,,0,98,98,111,,,,,,,,,,,,,,,,,,,,,,,485.69515262311324,None,487.2116212011315,None,488.59498155815527,None,"blood
",488.59498155815527,None,return,1.203365903813392,488.67844513012096,None,,,,,,,,,,,,,,,,,,,,,,,,,,,,,,,,,,,,,,,93,001,2023_May_04_1712,SpeechDraft1Carolyn_lessNoise_PlusLocalization,2021.2.3,60.00142803089072,
gang.wav,gang.mpg,gang,3,A,Pink_Noise_3_1.wav,Pink_Noise_3_2.wav,,,,,,,,,,,,,,,0,99,99,45,,,,,,,,,,,,,,,,,,,,,,,489.91179372929037,None,491.42825873428956,None,492.8119899472222,None,gaze,492.8119899472222,None,return,2.378714493010193,492.8951129950583,None,,,,,,,,,,,,,,,,,,,,,,,,,,,,,,,,,,,,,,,93,001,2023_May_04_1712,SpeechDraft1Carolyn_lessNoise_PlusLocalization,2021.2.3,60.00142803089072,
cleft.wav,cleft.mpg,cleft,2,AV,Pink_Noise_2_1.wav,Pink_Noise_2_2.wav,,,,,,,,,,,,,,,0,100,100,63,,,,,,,,,,,,,,,,,,,,,,,495.29515987308696,None,496.8282513814047,None,498.212142969016,None,cleft,498.212142969016,None,return,1.0666469107382,498.2952044350095,None,,,,,,,,,,,,,,,,,,,,,,,,,,,,,,,,,,,,,,,93,001,2023_May_04_1712,SpeechDraft1Carolyn_lessNoise_PlusLocalization,2021.2.3,60.00142803089072,
draft.wav,draft.mpg,draft,6,AV,Pink_Noise_6_1.wav,Pink_Noise_6_2.wav,,,,,,,,,,,,,,,0,101,101,108,,,,,,,,,,,,,,,,,,,,,,,499.37846101401374,None,500.9782481533475,None,502.3618664583191,None,giraffe,502.3618664583191,None,return,1.5406673378311098,502.445279491134,None,,,,,,,,,,,,,,,,,,,,,,,,,,,,,,,,,,,,,,,93,001,2023_May_04_1712,SpeechDraft1Carolyn_lessNoise_PlusLocalization,2021.2.3,60.00142803089072,
druid.wav,druid.mpg,druid,5,A,Pink_Noise_5_1.wav,Pink_Noise_5_2.wav,,,,,,,,,,,,,,,0,102,102,13,,,,,,,,,,,,,,,,,,,,,,,504.0117340814322,None,505.52819952601567,None,506.91183233400807,None,jewel,506.91183233400807,None,return,0.8945458699017763,506.9952558730729,None,,,,,,,,,,,,,,,,,,,,,,,,,,,,,,,,,,,,,,,93,001,2023_May_04_1712,SpeechDraft1Carolyn_lessNoise_PlusLocalization,2021.2.3,60.00142803089072,
glad.wav,glad.mpg,glad,3,A,Pink_Noise_3_1.wav,Pink_Noise_3_2.wav,,,,,,,,,,,,,,,0,103,103,5,,,,,,,,,,,,,,,,,,,,,,,507.9118497213349,None,509.4283575601876,None,510.8118747211993,None,glad,510.8118747211993,None,return,0.8908399138599634,510.89516510022804,None,,,,,,,,,,,,,,,,,,,,,,,,,,,,,,,,,,,,,,,93,001,2023_May_04_1712,SpeechDraft1Carolyn_lessNoise_PlusLocalization,2021.2.3,60.00142803089072,
dish.wav,dish.mpg,dish,3,AV,Pink_Noise_3_1.wav,Pink_Noise_3_2.wav,,,,,,,,,,,,,,,0,104,104,84,,,,,,,,,,,,,,,,,,,,,,,511.8118967502378,None,513.3281000261195,None,514.71172751626,None,dish,514.71172751626,None,return,0.9583772080950439,514.7954288101755,None,,,,,,,,,,,,,,,,,,,,,,,,,,,,,,,,,,,,,,,93,001,2023_May_04_1712,SpeechDraft1Carolyn_lessNoise_PlusLocalization,2021.2.3,60.00142803089072,
bruise.wav,bruise.mpg,bruise,1,AV,Pink_Noise_1_1.wav,Pink_Noise_1_2.wav,,,,,,,,,,,,,,,0,105,105,77,,,,,,,,,,,,,,,,,,,,,,,515.7785767223686,None,517.2947397441603,None,518.6785534583032,None,bruise,518.6785534583032,None,return,0.959561272058636,518.762232917361,None,,,,,,,,,,,,,,,,,,,,,,,,,,,,,,,,,,,,,,,93,001,2023_May_04_1712,SpeechDraft1Carolyn_lessNoise_PlusLocalization,2021.2.3,60.00142803089072,
clutch.wav,clutch.mpg,clutch,1,AV,Pink_Noise_1_1.wav,Pink_Noise_1_2.wav,,,,,,,,,,,,,,,0,106,106,91,,,,,,,,,,,,,,,,,,,,,,,519.7451550890692,None,521.2615865333937,None,522.645131694153,None,clutch,522.645131694153,None,return,1.1611141660250723,522.7286676331423,None,,,,,,,,,,,,,,,,,,,,,,,,,,,,,,,,,,,,,,,93,001,2023_May_04_1712,SpeechDraft1Carolyn_lessNoise_PlusLocalization,2021.2.3,60.00142803089072,
crank.wav,crank.mpg,crank,5,A,Pink_Noise_5_1.wav,Pink_Noise_5_2.wav,,,,,,,,,,,,,,,0,107,107,28,,,,,,,,,,,,,,,,,,,,,,,523.9118527132086,None,525.4450304773636,None,526.8285702643916,None,prayed,526.8285702643916,None,return,1.1220468073152006,526.9118478503078,None,,,,,,,,,,,,,,,,,,,,,,,,,,,,,,,,,,,,,,,93,001,2023_May_04_1712,SpeechDraft1Carolyn_lessNoise_PlusLocalization,2021.2.3,60.00142803089072,
dare.wav,dare.mpg,dare,6,A,Pink_Noise_6_1.wav,Pink_Noise_6_2.wav,,,,,,,,,,,,,,,0,108,108,42,,,,,,,,,,,,,,,,,,,,,,,528.0618074042723,None,529.5781660852954,None,530.961837365292,None,milk,530.961837365292,None,return,0.8283828147687018,531.0454105623066,None,,,,,,,,,,,,,,,,,,,,,,,,,,,,,,,,,,,,,,,93,001,2023_May_04_1712,SpeechDraft1Carolyn_lessNoise_PlusLocalization,2021.2.3,60.00142803089072,
bleed.wav,bleed.mpg,bleed,2,AV,Pink_Noise_2_1.wav,Pink_Noise_2_2.wav,,,,,,,,,,,,,,,0,109,109,70,,,,,,,,,,,,,,,,,,,,,,,531.8953357022256,None,533.428154730238,None,534.8118210281245,None,bleed,534.8118210281245,None,return,1.162570723798126,534.8952620662749,None,,,,,,,,,,,,,,,,,,,,,,,,,,,,,,,,,,,,,,,93,001,2023_May_04_1712,SpeechDraft1Carolyn_lessNoise_PlusLocalization,2021.2.3,60.00142803089072,
duct.wav,duct.mpg,duct,5,A,Pink_Noise_5_1.wav,Pink_Noise_5_2.wav,,,,,,,,,,,,,,,0,110,110,3,,,,,,,,,,,,,,,,,,,,,,,536.0785228242166,None,537.6117444583215,None,538.9950866783038,None,gut,538.9950866783038,None,return,0.8912884872406721,539.078560621012,None,,,,,,,,,,,,,,,,,,,,,,,,,,,,,,,,,,,,,,,93,001,2023_May_04_1712,SpeechDraft1Carolyn_lessNoise_PlusLocalization,2021.2.3,60.00142803089072,
bathe.wav,bathe.mpg,bathe,2,AV,Pink_Noise_2_1.wav,Pink_Noise_2_2.wav,,,,,,,,,,,,,,,0,111,111,83,,,,,,,,,,,,,,,,,,,,,,,539.9952095262706,None,541.5116913979873,None,542.8952807891183,None,bath,542.8952807891183,None,return,1.4552789088338614,542.9785823421553,None,,,,,,,,,,,,,,,,,,,,,,,,,,,,,,,,,,,,,,,93,001,2023_May_04_1712,SpeechDraft1Carolyn_lessNoise_PlusLocalization,2021.2.3,60.00142803089072,
flex.wav,flex.mpg,flex,4,A,Pink_Noise_4_1.wav,Pink_Noise_4_2.wav,,,,,,,,,,,,,,,0,112,112,6,,,,,,,,,,,,,,,,,,,,,,,544.461882061325,None,545.995114384219,None,547.3786314399913,None,lights,547.3786314399913,None,return,1.6120018502697349,547.461843336001,None,,,,,,,,,,,,,,,,,,,,,,,,,,,,,,,,,,,,,,,93,001,2023_May_04_1712,SpeechDraft1Carolyn_lessNoise_PlusLocalization,2021.2.3,60.00142803089072,
chow.wav,chow.mpg,chow,3,AV,Pink_Noise_3_1.wav,Pink_Noise_3_2.wav,,,,,,,,,,,,,,,0,113,113,96,,,,,,,,,,,,,,,,,,,,,,,549.0952115370892,None,550.6281568403356,None,552.0119079011492,None,child,552.0119079011492,None,return,1.2986434348858893,552.0952474842779,None,,,,,,,,,,,,,,,,,,,,,,,,,,,,,,,,,,,,,,,93,001,2023_May_04_1712,SpeechDraft1Carolyn_lessNoise_PlusLocalization,2021.2.3,60.00142803089072,
fifth.wav,fifth.mpg,fifth,6,A,Pink_Noise_6_1.wav,Pink_Noise_6_2.wav,,,,,,,,,,,,,,,0,114,114,43,,,,,,,,,,,,,,,,,,,,,,,553.4119253251702,None,554.944901320152,None,556.3286972502246,None,lick,556.3286972502246,None,return,1.7740224949084222,556.4118544850498,None,,,,,,,,,,,,,,,,,,,,,,,,,,,,,,,,,,,,,,,93,001,2023_May_04_1712,SpeechDraft1Carolyn_lessNoise_PlusLocalization,2021.2.3,60.00142803089072,
cell.wav,cell.mpg,cell,6,AV,Pink_Noise_6_1.wav,Pink_Noise_6_2.wav,,,,,,,,,,,,,,,0,115,115,103,,,,,,,,,,,,,,,,,,,,,,,558.212034181226,None,559.7302204524167,None,561.1118624131195,None,snail,561.1118624131195,None,return,1.422740879934281,561.1951618473977,None,,,,,,,,,,,,,,,,,,,,,,,,,,,,,,,,,,,,,,,93,001,2023_May_04_1712,SpeechDraft1Carolyn_lessNoise_PlusLocalization,2021.2.3,60.00142803089072,
floor.wav,floor.mpg,floor,1,AV,Pink_Noise_1_1.wav,Pink_Noise_1_2.wav,,,,,,,,,,,,,,,0,116,116,102,,,,,,,,,,,,,,,,,,,,,,,562.6453448492102,None,564.1617982732132,None,565.5451658354141,None,"floor
",565.5451658354141,None,return,1.2211392358876765,565.6286606681533,None,,,,,,,,,,,,,,,,,,,,,,,,,,,,,,,,,,,,,,,93,001,2023_May_04_1712,SpeechDraft1Carolyn_lessNoise_PlusLocalization,2021.2.3,60.00142803089072,
broke.wav,broke.mpg,broke,6,AV,Pink_Noise_6_1.wav,Pink_Noise_6_2.wav,,,,,,,,,,,,,,,0,117,117,104,,,,,,,,,,,,,,,,,,,,,,,566.8785267272033,None,568.4115862431936,None,569.7950687180273,None,boat,569.7950687180273,None,return,0.7073336038738489,569.8785642101429,None,,,,,,,,,,,,,,,,,,,,,,,,,,,,,,,,,,,,,,,93,001,2023_May_04_1712,SpeechDraft1Carolyn_lessNoise_PlusLocalization,2021.2.3,60.00142803089072,
glove.wav,glove.mpg,glove,2,A,Pink_Noise_2_1.wav,Pink_Noise_2_2.wav,,,,,,,,,,,,,,,0,118,118,18,,,,,,,,,,,,,,,,,,,,,,,570.6119384793565,None,572.161641839426,None,573.5464722099714,None,glove,573.5464722099714,None,return,0.9971757768653333,573.6286801174283,None,,,,,,,,,,,,,,,,,,,,,,,,,,,,,,,,,,,,,,,93,001,2023_May_04_1712,SpeechDraft1Carolyn_lessNoise_PlusLocalization,2021.2.3,60.00142803089072,
greek.wav,greek.mpg,greek,2,A,Pink_Noise_2_1.wav,Pink_Noise_2_2.wav,,,,,,,,,,,,,,,0,119,119,1,,,,,,,,,,,,,,,,,,,,,,,574.6453083683737,None,576.178254282102,None,577.5619668089785,None,greek,577.5619668089785,None,return,1.3806268870830536,577.6452073790133,None,,,,,,,,,,,,,,,,,,,,,,,,,,,,,,,,,,,,,,,93,001,2023_May_04_1712,SpeechDraft1Carolyn_lessNoise_PlusLocalization,2021.2.3,60.00142803089072,
,,,,,,,,,,,,,,,,,,,,,,,,,,,,,,,,,,,,,,,,,,,,,,,,,,,,,,,,,,,,,,,,,,space,20.033397555351257,579.1285423962399,None,,,,,,,,,,,,,,,,,,,,,,,,,,,,,93,001,2023_May_04_1712,SpeechDraft1Carolyn_lessNoise_PlusLocalization,2021.2.3,60.00142803089072,
,,,,,,,,midLeft,-13.0,2,ch1Sound_localizationTask.wav,-13.0,"(762, 878)","(-198,-202)",-190,-338,,,,,,,,,0,0,0,1,,,,,,,,,,,,,,,,,,,,,,,,,,,,,,,,,,,,,,,,,,579.1285423962399,None,599.1952124349773,None,600.2951431092806,None,601.228490495123,None,1.3412698412698414,3.851510277017951,601.228490495123,None,,,,,,,,,,,,,,,,,93,001,2023_May_04_1712,SpeechDraft1Carolyn_lessNoise_PlusLocalization,2021.2.3,60.00142803089072,
,,,,,,,,farRight,19.1,4,ch1Sound_localizationTask.wav,19.1,"(1237, 878)","(277,-202)",285,-338,,,,,,,,,0,1,1,6,,,,,,,,,,,,,,,,,,,,,,,,,,,,,,,,,,,,,,,,,,,,605.0803159913048,None,606.1949535124004,None,607.1116681252606,None,1.7412698412698413,2.3994018957018852,607.1116681252606,None,,,,,,,,,,,,,,,,,93,001,2023_May_04_1712,SpeechDraft1Carolyn_lessNoise_PlusLocalization,2021.2.3,60.00142803089072,
,,,,,,,,midLeft,-13.0,2,ch1Sound_localizationTask.wav,-13.0,"(762, 878)","(-198,-202)",-190,-338,,,,,,,,,0,2,2,1,,,,,,,,,,,,,,,,,,,,,,,,,,,,,,,,,,,,,,,,,,,,609.5124736232683,None,610.6115166731179,None,611.5450743711554,None,1.2211640211640211,1.449716404080391,611.5450743711554,None,,,,,,,,,,,,,,,,,93,001,2023_May_04_1712,SpeechDraft1Carolyn_lessNoise_PlusLocalization,2021.2.3,60.00142803089072,
,,,,,,,,midLeft,-13.0,2,ch1Sound_localizationTask.wav,-13.0,"(762, 878)","(-198,-202)",-190,-338,,,,,,,,,0,3,3,1,,,,,,,,,,,,,,,,,,,,,,,,,,,,,,,,,,,,,,,,,,,,613.0124125783332,None,614.1116134850308,None,615.0450618071482,None,1.2507936507936508,0.9333035699091852,615.0450618071482,None,,,,,,,,,,,,,,,,,93,001,2023_May_04_1712,SpeechDraft1Carolyn_lessNoise_PlusLocalization,2021.2.3,60.00142803089072,
,,,,,,,,farLeft,-19.1,5,ch1Sound_localizationTask.wav,-19.1,"(667, 878)","(-293,-202)",-285,-338,,,,,,,,,0,4,4,0,,,,,,,,,,,,,,,,,,,,,,,,,,,,,,,,,,,,,,,,,,,,615.979879999999,None,617.0950102233328,None,618.011595077347,None,1.2587301587301587,0.7493819775991142,618.011595077347,None,,,,,,,,,,,,,,,,,93,001,2023_May_04_1712,SpeechDraft1Carolyn_lessNoise_PlusLocalization,2021.2.3,60.00142803089072,
,,,,,,,,farLeft,-19.1,5,ch1Sound_localizationTask.wav,-19.1,"(667, 878)","(-293,-202)",-285,-338,,,,,,,,,0,5,5,0,,,,,,,,,,,,,,,,,,,,,,,,,,,,,,,,,,,,,,,,,,,,618.7625179192983,None,619.8618084690534,None,620.7950468170457,None,1.2851851851851852,0.8821476069279015,620.7950468170457,None,,,,,,,,,,,,,,,,,93,001,2023_May_04_1712,SpeechDraft1Carolyn_lessNoise_PlusLocalization,2021.2.3,60.00142803089072,
,,,,,,,,farRight,19.1,4,ch1Sound_localizationTask.wav,19.1,"(1237, 878)","(277,-202)",285,-338,,,,,,,,,0,6,6,6,,,,,,,,,,,,,,,,,,,,,,,,,,,,,,,,,,,,,,,,,,,,621.6796192200854,None,622.7950266641565,None,623.7116399551742,None,1.8005291005291006,1.18286691326648,623.7116399551742,None,,,,,,,,,,,,,,,,,93,001,2023_May_04_1712,SpeechDraft1Carolyn_lessNoise_PlusLocalization,2021.2.3,60.00142803089072,
,,,,,,,,midLeft,-13.0,2,ch1Sound_localizationTask.wav,-13.0,"(762, 878)","(-198,-202)",-190,-338,,,,,,,,,1,0,7,1,,,,,,,,,,,,,,,,,,,,,,,,,,,,,,,,,,,,,,,,,,,,624.8965387423523,None,626.011584982276,None,626.928304084111,None,1.312169312169312,0.9843520671129227,626.928304084111,None,,,,,,,,,,,,,,,,,93,001,2023_May_04_1712,SpeechDraft1Carolyn_lessNoise_PlusLocalization,2021.2.3,60.00142803089072,
,,,,,,,,nearLeft,-6.5,1,ch1Sound_localizationTask.wav,-6.5,"(857, 878)","(-103,-202)",-95,-338,,,,,,,,,1,1,8,2,,,,,,,,,,,,,,,,,,,,,,,,,,,,,,,,,,,,,,,,,,,,627.9288134262897,None,629.0284633701667,None,629.9616955001839,None,1.46984126984127,1.0496745710261166,629.9616955001839,None,,,,,,,,,,,,,,,,,93,001,2023_May_04_1712,SpeechDraft1Carolyn_lessNoise_PlusLocalization,2021.2.3,60.00142803089072,
,,,,,,,,farLeft,-19.1,5,ch1Sound_localizationTask.wav,-19.1,"(667, 878)","(-293,-202)",-285,-338,,,,,,,,,1,2,9,0,,,,,,,,,,,,,,,,,,,,,,,,,,,,,,,,,,,,,,,,,,,,631.0127090471797,None,632.1117085381411,None,633.0450093732215,None,1.3507936507936509,0.8157415403984487,633.0450093732215,None,,,,,,,,,,,,,,,,,93,001,2023_May_04_1712,SpeechDraft1Carolyn_lessNoise_PlusLocalization,2021.2.3,60.00142803089072,
,,,,,,,,farRight,19.1,4,ch1Sound_localizationTask.wav,19.1,"(1237, 878)","(277,-202)",285,-338,,,,,,,,,1,3,10,6,,,,,,,,,,,,,,,,,,,,,,,,,,,,,,,,,,,,,,,,,,,,633.8626531283371,None,634.9616759382188,None,635.8951713009737,None,1.6555555555555554,1.016227806918323,635.8951713009737,None,,,,,,,,,,,,,,,,,93,001,2023_May_04_1712,SpeechDraft1Carolyn_lessNoise_PlusLocalization,2021.2.3,60.00142803089072,
,,,,,,,,midRight,13.0,3,ch1Sound_localizationTask.wav,13.0,"(1142, 878)","(182, -202)",190,-338,,,,,,,,,1,4,11,5,,,,,,,,,,,,,,,,,,,,,,,,,,,,,,,,,,,,,,,,,,,,636.9286778750829,None,638.0284989699721,None,638.9617463513277,None,1.516931216931217,1.0162810874171555,638.9617463513277,None,,,,,,,,,,,,,,,,,93,001,2023_May_04_1712,SpeechDraft1Carolyn_lessNoise_PlusLocalization,2021.2.3,60.00142803089072,
,,,,,,,,farLeft,-19.1,5,ch1Sound_localizationTask.wav,-19.1,"(667, 878)","(-293,-202)",-285,-338,,,,,,,,,1,5,12,0,,,,,,,,,,,,,,,,,,,,,,,,,,,,,,,,,,,,,,,,,,,,639.9790542763658,None,641.0785178751685,None,642.0116874151863,None,1.3894179894179894,0.699642825871706,642.0116874151863,None,,,,,,,,,,,,,,,,,93,001,2023_May_04_1712,SpeechDraft1Carolyn_lessNoise_PlusLocalization,2021.2.3,60.00142803089072,
,,,,,,,,nearLeft,-6.5,1,ch1Sound_localizationTask.wav,-6.5,"(857, 878)","(-103,-202)",-95,-338,,,,,,,,,1,6,13,2,,,,,,,,,,,,,,,,,,,,,,,,,,,,,,,,,,,,,,,,,,,,642.7134334440343,None,643.8284655390307,None,644.7452791971155,None,1.4994708994708994,1.084910299628973,644.7452791971155,None,,,,,,,,,,,,,,,,,93,001,2023_May_04_1712,SpeechDraft1Carolyn_lessNoise_PlusLocalization,2021.2.3,60.00142803089072,
,,,,,,,,nearLeft,-6.5,1,ch1Sound_localizationTask.wav,-6.5,"(857, 878)","(-103,-202)",-95,-338,,,,,,,,,2,0,14,2,,,,,,,,,,,,,,,,,,,,,,,,,,,,,,,,,,,,,,,,,,,,645.8455576780252,None,646.9451712723821,None,647.8782944954,None,1.4793650793650794,0.5673241862095892,647.8782944954,None,,,,,,,,,,,,,,,,,93,001,2023_May_04_1712,SpeechDraft1Carolyn_lessNoise_PlusLocalization,2021.2.3,60.00142803089072,
,,,,,,,,midLeft,-13.0,2,ch1Sound_localizationTask.wav,-13.0,"(762, 878)","(-198,-202)",-190,-338,,,,,,,,,2,1,15,1,,,,,,,,,,,,,,,,,,,,,,,,,,,,,,,,,,,,,,,,,,,,648.4469716814347,None,649.5617899401113,None,650.47856929712,None,1.3645502645502645,0.5829297490417957,650.47856929712,None,,,,,,,,,,,,,,,,,93,001,2023_May_04_1712,SpeechDraft1Carolyn_lessNoise_PlusLocalization,2021.2.3,60.00142803089072,
,,,,,,,,center,0.0,6,ch1Sound_localizationTask.wav,0.0,"(952, 878)","(-8,-202)",0,-338,,,,,,,,,2,2,16,3,,,,,,,,,,,,,,,,,,,,,,,,,,,,,,,,,,,,,,,,,,,,651.0631764130667,None,652.1783437342383,None,653.0950190452859,None,1.4925925925925925,0.882965933997184,653.0950190452859,None,,,,,,,,,,,,,,,,,93,001,2023_May_04_1712,SpeechDraft1Carolyn_lessNoise_PlusLocalization,2021.2.3,60.00142803089072,
,,,,,,,,midRight,13.0,3,ch1Sound_localizationTask.wav,13.0,"(1142, 878)","(182, -202)",190,-338,,,,,,,,,2,3,17,5,,,,,,,,,,,,,,,,,,,,,,,,,,,,,,,,,,,,,,,,,,,,653.9799510622397,None,655.0952193960547,None,656.011796575971,None,1.538095238095238,0.9324510036967695,656.011796575971,None,,,,,,,,,,,,,,,,,93,001,2023_May_04_1712,SpeechDraft1Carolyn_lessNoise_PlusLocalization,2021.2.3,60.00142803089072,
,,,,,,,,center,0.0,6,ch1Sound_localizationTask.wav,0.0,"(952, 878)","(-8,-202)",0,-338,,,,,,,,,2,4,18,3,,,,,,,,,,,,,,,,,,,,,,,,,,,,,,,,,,,,,,,,,,,,656.9459280241281,None,658.0450396300294,None,658.9784798282199,None,1.4894179894179893,0.7665884550660849,658.9784798282199,None,,,,,,,,,,,,,,,,,93,001,2023_May_04_1712,SpeechDraft1Carolyn_lessNoise_PlusLocalization,2021.2.3,60.00142803089072,
,,,,,,,,center,0.0,6,ch1Sound_localizationTask.wav,0.0,"(952, 878)","(-8,-202)",0,-338,,,,,,,,,2,5,19,3,,,,,,,,,,,,,,,,,,,,,,,,,,,,,,,,,,,,,,,,,,,,659.7466086973436,None,660.862016519066,None,661.7785469111986,None,1.5042328042328044,0.6662988015450537,661.7785469111986,None,,,,,,,,,,,,,,,,,93,001,2023_May_04_1712,SpeechDraft1Carolyn_lessNoise_PlusLocalization,2021.2.3,60.00142803089072,
,,,,,,,,center,0.0,6,ch1Sound_localizationTask.wav,0.0,"(952, 878)","(-8,-202)",0,-338,,,,,,,,,2,6,20,3,,,,,,,,,,,,,,,,,,,,,,,,,,,,,,,,,,,,,,,,,,,,662.4459200333804,None,663.5450048511848,None,664.4784715431742,None,1.4936507936507937,0.5656857769936323,664.4784715431742,None,,,,,,,,,,,,,,,,,93,001,2023_May_04_1712,SpeechDraft1Carolyn_lessNoise_PlusLocalization,2021.2.3,60.00142803089072,
,,,,,,,,midRight,13.0,3,ch1Sound_localizationTask.wav,13.0,"(1142, 878)","(182, -202)",190,-338,,,,,,,,,3,0,21,5,,,,,,,,,,,,,,,,,,,,,,,,,,,,,,,,,,,,,,,,,,,,665.0474725100212,None,666.1618264922872,None,667.0784801491536,None,1.5677248677248676,0.9661079491488636,667.0784801491536,None,,,,,,,,,,,,,,,,,93,001,2023_May_04_1712,SpeechDraft1Carolyn_lessNoise_PlusLocalization,2021.2.3,60.00142803089072,
,,,,,,,,nearRight,6.5,0,ch1Sound_localizationTask.wav,6.5,"(1047, 878)","(87, -202)",95,-338,,,,,,,,,3,1,22,4,,,,,,,,,,,,,,,,,,,,,,,,,,,,,,,,,,,,,,,,,,,,668.0469783083536,None,669.1617838251404,None,670.0784171973355,None,1.5185185185185186,0.9331024428829551,670.0784171973355,None,,,,,,,,,,,,,,,,,93,001,2023_May_04_1712,SpeechDraft1Carolyn_lessNoise_PlusLocalization,2021.2.3,60.00142803089072,
,,,,,,,,farRight,19.1,4,ch1Sound_localizationTask.wav,19.1,"(1237, 878)","(277,-202)",285,-338,,,,,,,,,3,2,23,6,,,,,,,,,,,,,,,,,,,,,,,,,,,,,,,,,,,,,,,,,,,,671.0133352172561,None,672.1285235192627,None,673.0452053030021,None,1.528042328042328,0.4153973259963095,673.0452053030021,None,,,,,,,,,,,,,,,,,93,001,2023_May_04_1712,SpeechDraft1Carolyn_lessNoise_PlusLocalization,2021.2.3,60.00142803089072,
,,,,,,,,nearLeft,-6.5,1,ch1Sound_localizationTask.wav,-6.5,"(857, 878)","(-103,-202)",-95,-338,,,,,,,,,3,3,24,2,,,,,,,,,,,,,,,,,,,,,,,,,,,,,,,,,,,,,,,,,,,,673.4626349662431,None,674.5617771940306,None,675.4951714612544,None,1.4656084656084656,0.766362838447094,675.4951714612544,None,,,,,,,,,,,,,,,,,93,001,2023_May_04_1712,SpeechDraft1Carolyn_lessNoise_PlusLocalization,2021.2.3,60.00142803089072,
,,,,,,,,nearRight,6.5,0,ch1Sound_localizationTask.wav,6.5,"(1047, 878)","(87, -202)",95,-338,,,,,,,,,3,4,25,4,,,,,,,,,,,,,,,,,,,,,,,,,,,,,,,,,,,,,,,,,,,,676.2632628432475,None,677.3785089631565,None,678.2952851434238,None,1.5,0.7161876512691379,678.2952851434238,None,,,,,,,,,,,,,,,,,93,001,2023_May_04_1712,SpeechDraft1Carolyn_lessNoise_PlusLocalization,2021.2.3,60.00142803089072,
,,,,,,,,farRight,19.1,4,ch1Sound_localizationTask.wav,19.1,"(1237, 878)","(277,-202)",285,-338,,,,,,,,,3,5,26,6,,,,,,,,,,,,,,,,,,,,,,,,,,,,,,,,,,,,,,,,,,,,679.0137640750036,None,680.1286898613907,None,681.0453727520071,None,1.6216931216931219,0.8823729967698455,681.0453727520071,None,,,,,,,,,,,,,,,,,93,001,2023_May_04_1712,SpeechDraft1Carolyn_lessNoise_PlusLocalization,2021.2.3,60.00142803089072,
,,,,,,,,midRight,13.0,3,ch1Sound_localizationTask.wav,13.0,"(1142, 878)","(182, -202)",190,-338,,,,,,,,,3,6,27,5,,,,,,,,,,,,,,,,,,,,,,,,,,,,,,,,,,,,,,,,,,,,681.9300061981194,None,683.0453006401658,None,683.9617695622146,None,1.5645502645502645,0.6163657526485622,683.9617695622146,None,,,,,,,,,,,,,,,,,93,001,2023_May_04_1712,SpeechDraft1Carolyn_lessNoise_PlusLocalization,2021.2.3,60.00142803089072,
,,,,,,,,nearLeft,-6.5,1,ch1Sound_localizationTask.wav,-6.5,"(857, 878)","(-103,-202)",-95,-338,,,,,,,,,4,0,28,2,,,,,,,,,,,,,,,,,,,,,,,,,,,,,,,,,,,,,,,,,,,,684.5794050260447,None,685.6785145383328,None,686.6119395471178,None,1.4798941798941798,0.7488924749195576,686.6119395471178,None,,,,,,,,,,,,,,,,,93,001,2023_May_04_1712,SpeechDraft1Carolyn_lessNoise_PlusLocalization,2021.2.3,60.00142803089072,
,,,,,,,,nearLeft,-6.5,1,ch1Sound_localizationTask.wav,-6.5,"(857, 878)","(-103,-202)",-95,-338,,,,,,,,,4,1,29,2,,,,,,,,,,,,,,,,,,,,,,,,,,,,,,,,,,,,,,,,,,,,687.3627127120271,None,688.4617443662137,None,689.3950628573075,None,1.4317460317460318,0.6161176459863782,689.3950628573075,None,,,,,,,,,,,,,,,,,93,001,2023_May_04_1712,SpeechDraft1Carolyn_lessNoise_PlusLocalization,2021.2.3,60.00142803089072,
,,,,,,,,midRight,13.0,3,ch1Sound_localizationTask.wav,13.0,"(1142, 878)","(182, -202)",190,-338,,,,,,,,,4,2,30,5,,,,,,,,,,,,,,,,,,,,,,,,,,,,,,,,,,,,,,,,,,,,690.0134964841418,None,691.1284882202744,None,692.0452568922192,None,1.6047619047619048,0.7499425848945975,692.0452568922192,None,,,,,,,,,,,,,,,,,93,001,2023_May_04_1712,SpeechDraft1Carolyn_lessNoise_PlusLocalization,2021.2.3,60.00142803089072,
,,,,,,,,midLeft,-13.0,2,ch1Sound_localizationTask.wav,-13.0,"(762, 878)","(-198,-202)",-190,-338,,,,,,,,,4,3,31,1,,,,,,,,,,,,,,,,,,,,,,,,,,,,,,,,,,,,,,,,,,,,692.8121881233528,None,693.9118217411451,None,694.8451077383943,None,1.342857142857143,0.8654002211987972,694.8451077383943,None,,,,,,,,,,,,,,,,,93,001,2023_May_04_1712,SpeechDraft1Carolyn_lessNoise_PlusLocalization,2021.2.3,60.00142803089072,
,,,,,,,,midLeft,-13.0,2,ch1Sound_localizationTask.wav,-13.0,"(762, 878)","(-198,-202)",-190,-338,,,,,,,,,4,4,32,1,,,,,,,,,,,,,,,,,,,,,,,,,,,,,,,,,,,,,,,,,,,,695.7128242943436,None,696.8118019471876,None,697.7451673313044,None,1.319047619047619,0.7154408968053758,697.7451673313044,None,,,,,,,,,,,,,,,,,93,001,2023_May_04_1712,SpeechDraft1Carolyn_lessNoise_PlusLocalization,2021.2.3,60.00142803089072,
,,,,,,,,midRight,13.0,3,ch1Sound_localizationTask.wav,13.0,"(1142, 878)","(182, -202)",190,-338,,,,,,,,,4,5,33,5,,,,,,,,,,,,,,,,,,,,,,,,,,,,,,,,,,,,,,,,,,,,698.4623242411762,None,699.5618456359953,None,700.4951343364082,None,1.626984126984127,0.7505028718151152,700.4951343364082,None,,,,,,,,,,,,,,,,,93,001,2023_May_04_1712,SpeechDraft1Carolyn_lessNoise_PlusLocalization,2021.2.3,60.00142803089072,
,,,,,,,,center,0.0,6,ch1Sound_localizationTask.wav,0.0,"(952, 878)","(-8,-202)",0,-338,,,,,,,,,4,6,34,3,,,,,,,,,,,,,,,,,,,,,,,,,,,,,,,,,,,,,,,,,,,,701.262195429299,None,702.3619908592664,None,703.2951297503896,None,1.3947089947089948,1.2355279047042131,703.2951297503896,None,,,,,,,,,,,,,,,,,93,001,2023_May_04_1712,SpeechDraft1Carolyn_lessNoise_PlusLocalization,2021.2.3,60.00142803089072,
,,,,,,,,farRight,19.1,4,ch1Sound_localizationTask.wav,19.1,"(1237, 878)","(277,-202)",285,-338,,,,,,,,,5,0,35,6,,,,,,,,,,,,,,,,,,,,,,,,,,,,,,,,,,,,,,,,,,,,704.5456061232835,None,705.6451685940847,None,706.5784159940667,None,1.7253968253968255,0.532807232812047,706.5784159940667,None,,,,,,,,,,,,,,,,,93,001,2023_May_04_1712,SpeechDraft1Carolyn_lessNoise_PlusLocalization,2021.2.3,60.00142803089072,
,,,,,,,,midRight,13.0,3,ch1Sound_localizationTask.wav,13.0,"(1142, 878)","(182, -202)",190,-338,,,,,,,,,5,1,36,5,,,,,,,,,,,,,,,,,,,,,,,,,,,,,,,,,,,,,,,,,,,,707.112985484302,None,708.2120272321627,None,709.1450634133071,None,1.6285714285714286,0.616220286116004,709.1450634133071,None,,,,,,,,,,,,,,,,,93,001,2023_May_04_1712,SpeechDraft1Carolyn_lessNoise_PlusLocalization,2021.2.3,60.00142803089072,
,,,,,,,,farRight,19.1,4,ch1Sound_localizationTask.wav,19.1,"(1237, 878)","(277,-202)",285,-338,,,,,,,,,5,2,37,6,,,,,,,,,,,,,,,,,,,,,,,,,,,,,,,,,,,,,,,,,,,,709.7628356423229,None,710.8617751849815,None,711.7952146953903,None,1.6222222222222222,0.5808402542024851,711.7952146953903,None,,,,,,,,,,,,,,,,,93,001,2023_May_04_1712,SpeechDraft1Carolyn_lessNoise_PlusLocalization,2021.2.3,60.00142803089072,
,,,,,,,,nearLeft,-6.5,1,ch1Sound_localizationTask.wav,-6.5,"(857, 878)","(-103,-202)",-95,-338,,,,,,,,,5,3,38,2,,,,,,,,,,,,,,,,,,,,,,,,,,,,,,,,,,,,,,,,,,,,712.3792275390588,None,713.4785938351415,None,714.4119202713482,None,1.4523809523809523,0.6823196541517973,714.4119202713482,None,,,,,,,,,,,,,,,,,93,001,2023_May_04_1712,SpeechDraft1Carolyn_lessNoise_PlusLocalization,2021.2.3,60.00142803089072,
,,,,,,,,midLeft,-13.0,2,ch1Sound_localizationTask.wav,-13.0,"(762, 878)","(-198,-202)",-190,-338,,,,,,,,,5,4,39,1,,,,,,,,,,,,,,,,,,,,,,,,,,,,,,,,,,,,,,,,,,,,715.0956716542132,None,716.1952174929902,None,717.1286346181296,None,1.4153439153439153,0.499910619109869,717.1286346181296,None,,,,,,,,,,,,,,,,,93,001,2023_May_04_1712,SpeechDraft1Carolyn_lessNoise_PlusLocalization,2021.2.3,60.00142803089072,
,,,,,,,,nearLeft,-6.5,1,ch1Sound_localizationTask.wav,-6.5,"(857, 878)","(-103,-202)",-95,-338,,,,,,,,,5,5,40,2,,,,,,,,,,,,,,,,,,,,,,,,,,,,,,,,,,,,,,,,,,,,717.645622253418,None,718.7453550761566,None,719.6785949571058,None,1.4613756613756614,0.6990777426399291,719.6785949571058,None,,,,,,,,,,,,,,,,,93,001,2023_May_04_1712,SpeechDraft1Carolyn_lessNoise_PlusLocalization,2021.2.3,60.00142803089072,
,,,,,,,,farRight,19.1,4,ch1Sound_localizationTask.wav,19.1,"(1237, 878)","(277,-202)",285,-338,,,,,,,,,5,6,41,6,,,,,,,,,,,,,,,,,,,,,,,,,,,,,,,,,,,,,,,,,,,,720.3802545731887,None,721.4953021262772,None,722.4120747749694,None,1.6306878306878307,0.532057624310255,722.4120747749694,None,,,,,,,,,,,,,,,,,93,001,2023_May_04_1712,SpeechDraft1Carolyn_lessNoise_PlusLocalization,2021.2.3,60.00142803089072,
,,,,,,,,farLeft,-19.1,5,ch1Sound_localizationTask.wav,-19.1,"(667, 878)","(-293,-202)",-285,-338,,,,,,,,,6,0,42,0,,,,,,,,,,,,,,,,,,,,,,,,,,,,,,,,,,,,,,,,,,,,722.9457595371641,None,724.0451835501008,None,724.9785785931163,None,1.3719576719576718,0.7327950582839549,724.9785785931163,None,,,,,,,,,,,,,,,,,93,001,2023_May_04_1712,SpeechDraft1Carolyn_lessNoise_PlusLocalization,2021.2.3,60.00142803089072,
,,,,,,,,nearRight,6.5,0,ch1Sound_localizationTask.wav,6.5,"(1047, 878)","(87, -202)",95,-338,,,,,,,,,6,1,43,4,,,,,,,,,,,,,,,,,,,,,,,,,,,,,,,,,,,,,,,,,,,,725.7130122291856,None,726.8119084970094,None,727.7452458473854,None,1.5232804232804233,0.4827743317000568,727.7452458473854,None,,,,,,,,,,,,,,,,,93,001,2023_May_04_1712,SpeechDraft1Carolyn_lessNoise_PlusLocalization,2021.2.3,60.00142803089072,
,,,,,,,,nearRight,6.5,0,ch1Sound_localizationTask.wav,6.5,"(1047, 878)","(87, -202)",95,-338,,,,,,,,,6,2,44,4,,,,,,,,,,,,,,,,,,,,,,,,,,,,,,,,,,,,,,,,,,,,728.2291132281534,None,729.3284094324335,None,730.2618835591711,None,1.5037037037037035,0.5163213293999434,730.2618835591711,None,,,,,,,,,,,,,,,,,93,001,2023_May_04_1712,SpeechDraft1Carolyn_lessNoise_PlusLocalization,2021.2.3,60.00142803089072,
,,,,,,,,nearRight,6.5,0,ch1Sound_localizationTask.wav,6.5,"(1047, 878)","(87, -202)",95,-338,,,,,,,,,6,3,45,4,,,,,,,,,,,,,,,,,,,,,,,,,,,,,,,,,,,,,,,,,,,,730.779742973391,None,731.8785033952445,None,732.8120091650635,None,1.5037037037037035,0.16693018190562725,732.8120091650635,None,,,,,,,,,,,,,,,,,93,001,2023_May_04_1712,SpeechDraft1Carolyn_lessNoise_PlusLocalization,2021.2.3,60.00142803089072,
,,,,,,,,nearRight,6.5,0,ch1Sound_localizationTask.wav,6.5,"(1047, 878)","(87, -202)",95,-338,,,,,,,,,6,4,46,4,,,,,,,,,,,,,,,,,,,,,,,,,,,,,,,,,,,,,,,,,,,,732.9796695173718,None,734.0786959663965,None,735.0118649890646,None,1.5005291005291004,0.5999870849773288,735.0118649890646,None,,,,,,,,,,,,,,,,,93,001,2023_May_04_1712,SpeechDraft1Carolyn_lessNoise_PlusLocalization,2021.2.3,60.00142803089072,
,,,,,,,,nearRight,6.5,0,ch1Sound_localizationTask.wav,6.5,"(1047, 878)","(87, -202)",95,-338,,,,,,,,,6,5,47,4,,,,,,,,,,,,,,,,,,,,,,,,,,,,,,,,,,,,,,,,,,,,735.6135521680117,None,736.7286375910044,None,737.6451213783585,None,1.5243386243386243,0.7825011578388512,737.6451213783585,None,,,,,,,,,,,,,,,,,93,001,2023_May_04_1712,SpeechDraft1Carolyn_lessNoise_PlusLocalization,2021.2.3,60.00142803089072,
,,,,,,,,center,0.0,6,ch1Sound_localizationTask.wav,0.0,"(952, 878)","(-8,-202)",0,-338,,,,,,,,,6,6,48,3,,,,,,,,,,,,,,,,,,,,,,,,,,,,,,,,,,,,,,,,,,,,738.429207734298,None,739.5285228453577,None,740.4622933361679,None,1.4783068783068782,0.44895602809265256,740.4622933361679,None,,,,,,,,,,,,,,,,,93,001,2023_May_04_1712,SpeechDraft1Carolyn_lessNoise_PlusLocalization,2021.2.3,60.00142803089072,
,,,,,,,,center,0.0,6,ch1Sound_localizationTask.wav,0.0,"(952, 878)","(-8,-202)",0,-338,,,,,,,,,7,0,49,3,,,,,,,,,,,,,,,,,,,,,,,,,,,,,,,,,,,,,,,,,,,,740.912609886378,None,742.0118932053447,None,742.9452174920589,None,1.4804232804232804,0.8511616992764175,742.9452174920589,None,,,,,,,,,,,,,,,,,93,001,2023_May_04_1712,SpeechDraft1Carolyn_lessNoise_PlusLocalization,2021.2.3,60.00142803089072,
,,,,,,,,farLeft,-19.1,5,ch1Sound_localizationTask.wav,-19.1,"(667, 878)","(-293,-202)",-285,-338,,,,,,,,,7,1,50,0,,,,,,,,,,,,,,,,,,,,,,,,,,,,,,,,,,,,,,,,,,,,743.8133285292424,None,744.9285312229767,None,745.8452037633397,None,1.3338624338624339,0.615570470225066,745.8452037633397,None,,,,,,,,,,,,,,,,,93,001,2023_May_04_1712,SpeechDraft1Carolyn_lessNoise_PlusLocalization,2021.2.3,60.00142803089072,
,,,,,,,,center,0.0,6,ch1Sound_localizationTask.wav,0.0,"(952, 878)","(-8,-202)",0,-338,,,,,,,,,7,2,51,3,,,,,,,,,,,,,,,,,,,,,,,,,,,,,,,,,,,,,,,,,,,,746.4624346471392,None,747.5617685401812,None,748.4951859153807,None,1.5010582010582012,0.6994889550842345,748.4951859153807,None,,,,,,,,,,,,,,,,,93,001,2023_May_04_1712,SpeechDraft1Carolyn_lessNoise_PlusLocalization,2021.2.3,60.00142803089072,
,,,,,,,,nearRight,6.5,0,ch1Sound_localizationTask.wav,6.5,"(1047, 878)","(87, -202)",95,-338,,,,,,,,,7,3,52,4,,,,,,,,,,,,,,,,,,,,,,,,,,,,,,,,,,,,,,,,,,,,749.1968695223331,None,750.3120308653452,None,751.2285601883195,None,1.5031746031746032,0.5336922560818493,751.2285601883195,None,,,,,,,,,,,,,,,,,93,001,2023_May_04_1712,SpeechDraft1Carolyn_lessNoise_PlusLocalization,2021.2.3,60.00142803089072,
,,,,,,,,farLeft,-19.1,5,ch1Sound_localizationTask.wav,-19.1,"(667, 878)","(-293,-202)",-285,-338,,,,,,,,,7,4,53,0,,,,,,,,,,,,,,,,,,,,,,,,,,,,,,,,,,,,,,,,,,,,751.7791512901895,None,752.878581513185,None,753.8120635789819,None,1.3624338624338623,0.566978707909584,753.8120635789819,None,,,,,,,,,,,,,,,,,93,001,2023_May_04_1712,SpeechDraft1Carolyn_lessNoise_PlusLocalization,2021.2.3,60.00142803089072,
,,,,,,,,farLeft,-19.1,5,ch1Sound_localizationTask.wav,-19.1,"(667, 878)","(-293,-202)",-285,-338,,,,,,,,,7,5,54,0,,,,,,,,,,,,,,,,,,,,,,,,,,,,,,,,,,,,,,,,,,,,754.3801597249694,None,755.4952946850099,None,756.4120243443176,None,1.301058201058201,0.5659254216589034,756.4120243443176,None,,,,,,,,,,,,,,,,,93,001,2023_May_04_1712,SpeechDraft1Carolyn_lessNoise_PlusLocalization,2021.2.3,60.00142803089072,
,,,,,,,,midRight,13.0,3,ch1Sound_localizationTask.wav,13.0,"(1142, 878)","(182, -202)",190,-338,,,,,,,,,7,6,55,5,,,,,,,,,,,,,,,,,,,,,,,,,,,,,,,,,,,,,,,,,,,,756.9790649903007,None,758.0785881113261,None,759.012062150985,None,1.546031746031746,1.0989993219263852,759.012062150985,None,,,,,,,,,,,,,,,,,93,001,2023_May_04_1712,SpeechDraft1Carolyn_lessNoise_PlusLocalization,2021.2.3,60.00142803089072,
,,,,,,,,,,,,,,,,,,,,,,,,,,,,,,,,,,,,,,,,,,,,,,,,,,,,,,,,,,,,,,,,,,,,,,,,,,,,,,,,,,space,31.366474776063114,760.195523028262,None,,,,,,,,,,,,,93,001,2023_May_04_1712,SpeechDraft1Carolyn_lessNoise_PlusLocalization,2021.2.3,60.00142803089072,
,,,,,,,,nearRight,6.5,0,ch1Sound_localizationTask.wav,6.5,"(1047, 878)","(87, -202)",95,-338,,,,,,,,,,,,,0,0,0,4,,,,,,,,,,,,,,,,,,,,,,,,,,,,,,,,,,,,,,,,791.595182327088,None,,,794.628600451164,None,1.5777777777777777,0.9533859710209072,794.628600451164,None,,,,,760.195523028262,None,792.5956667903811,None,792.7790863332339,792.7957294960506,,,,,,,93,001,2023_May_04_1712,SpeechDraft1Carolyn_lessNoise_PlusLocalization,2021.2.3,60.00142803089072,
,,,,,,,,midRight,13.0,3,ch1Sound_localizationTask.wav,13.0,"(1142, 878)","(182, -202)",190,-338,,,,,,,,,,,,,0,1,1,5,,,,,,,,,,,,,,,,,,,,,,,,,,,,,,,,,,,,,,,,795.580217059236,None,,,798.6121133710258,None,1.6,0.9491799818351865,798.6121133710258,None,,,,,,,796.5955040100962,None,796.7788917203434,796.7955537610687,,,,,,,93,001,2023_May_04_1712,SpeechDraft1Carolyn_lessNoise_PlusLocalization,2021.2.3,60.00142803089072,
,,,,,,,,nearRight,6.5,0,ch1Sound_localizationTask.wav,6.5,"(1047, 878)","(87, -202)",95,-338,,,,,,,,,,,,,0,2,2,4,,,,,,,,,,,,,,,,,,,,,,,,,,,,,,,,,,,,,,,,799.5628582783975,None,,,802.5787072451785,None,1.5518518518518518,0.8819995019584894,802.5787072451785,None,,,,,,,800.5622496600263,None,800.7456372012384,800.7622362123802,,,,,,,93,001,2023_May_04_1712,SpeechDraft1Carolyn_lessNoise_PlusLocalization,2021.2.3,60.00142803089072,
,,,,,,,,nearRight,6.5,0,ch1Sound_localizationTask.wav,6.5,"(1047, 878)","(87, -202)",95,-338,,,,,,,,,,,,,0,3,3,4,,,,,,,,,,,,,,,,,,,,,,,,,,,,,,,,,,,,,,,,803.4629284720868,None,,,806.4785869433545,None,1.5534391534391534,0.6990806697867811,806.4785869433545,None,,,,,,,804.462169948034,None,804.6456512673758,804.6621932974085,,,,,,,93,001,2023_May_04_1712,SpeechDraft1Carolyn_lessNoise_PlusLocalization,2021.2.3,60.00142803089072,
,,,,,,,,nearRight,6.5,0,ch1Sound_localizationTask.wav,6.5,"(1047, 878)","(87, -202)",95,-338,,,,,,,,,,,,,0,4,4,4,,,,,,,,,,,,,,,,,,,,,,,,,,,,,,,,,,,,,,,,807.1800896134228,None,,,810.2121644560248,None,1.5476190476190477,0.6321917409077287,810.2121644560248,None,,,,,,,808.1956820660271,None,808.3789895810187,808.3957027732395,,,,,,,93,001,2023_May_04_1712,SpeechDraft1Carolyn_lessNoise_PlusLocalization,2021.2.3,60.00142803089072,
,,,,,,,,nearLeft,-6.5,1,ch1Sound_localizationTask.wav,-6.5,"(857, 878)","(-103,-202)",-95,-338,,,,,,,,,,,,,0,5,5,2,,,,,,,,,,,,,,,,,,,,,,,,,,,,,,,,,,,,,,,,810.846223612316,None,,,813.8620590101928,None,1.4544973544973545,0.8993344800546765,813.8620590101928,None,,,,,,,811.8456507353112,None,812.0289524570107,812.0456775622442,,,,,,,93,001,2023_May_04_1712,SpeechDraft1Carolyn_lessNoise_PlusLocalization,2021.2.3,60.00142803089072,
,,,,,,,,farLeft,-19.1,5,ch1Sound_localizationTask.wav,-19.1,"(667, 878)","(-293,-202)",-285,-338,,,,,,,,,,,,,0,6,6,0,,,,,,,,,,,,,,,,,,,,,,,,,,,,,,,,,,,,,,,,814.7636523330584,None,,,817.7951862323098,None,1.3391534391534392,0.8819811432622373,817.7951862323098,None,,,,,,,815.7789405970834,None,815.9624034841545,815.9788430160843,,,,,,,93,001,2023_May_04_1712,SpeechDraft1Carolyn_lessNoise_PlusLocalization,2021.2.3,60.00142803089072,
,,,,,,,,nearLeft,-6.5,1,ch1Sound_localizationTask.wav,-6.5,"(857, 878)","(-103,-202)",-95,-338,,,,,,,,,,,,,1,0,7,2,,,,,,,,,,,,,,,,,,,,,,,,,,,,,,,,,,,,,,,,818.6795097663999,None,,,821.6953174923547,None,1.4455026455026454,0.933037169277668,821.6953174923547,None,,,,,,,819.6790173361078,None,819.8622501799837,819.8789367051795,,,,,,,93,001,2023_May_04_1712,SpeechDraft1Carolyn_lessNoise_PlusLocalization,2021.2.3,60.00142803089072,
,,,,,,,,midRight,13.0,3,ch1Sound_localizationTask.wav,13.0,"(1142, 878)","(182, -202)",190,-338,,,,,,,,,,,,,1,1,8,5,,,,,,,,,,,,,,,,,,,,,,,,,,,,,,,,,,,,,,,,822.6293951431289,None,,,825.6454095193185,None,1.6084656084656084,0.884195274207741,825.6454095193185,None,,,,,,,823.6289670011029,None,823.8122931253165,823.8289902843535,,,,,,,93,001,2023_May_04_1712,SpeechDraft1Carolyn_lessNoise_PlusLocalization,2021.2.3,60.00142803089072,
,,,,,,,,midRight,13.0,3,ch1Sound_localizationTask.wav,13.0,"(1142, 878)","(182, -202)",190,-338,,,,,,,,,,,,,1,2,9,5,,,,,,,,,,,,,,,,,,,,,,,,,,,,,,,,,,,,,,,,826.5457613412291,None,,,829.5619557001628,None,1.5957671957671957,0.7327628307975829,829.5619557001628,None,,,,,,,827.5456622890197,None,827.7289176699705,827.745665546041,,,,,,,93,001,2023_May_04_1712,SpeechDraft1Carolyn_lessNoise_PlusLocalization,2021.2.3,60.00142803089072,
,,,,,,,,midLeft,-13.0,2,ch1Sound_localizationTask.wav,-13.0,"(762, 878)","(-198,-202)",-190,-338,,,,,,,,,,,,,1,3,10,1,,,,,,,,,,,,,,,,,,,,,,,,,,,,,,,,,,,,,,,,830.296161502134,None,,,833.3121733171865,None,1.4079365079365078,1.1659999559633434,833.3121733171865,None,,,,,,,831.2956019481644,None,831.4790078210644,831.4955981140956,,,,,,,93,001,2023_May_04_1712,SpeechDraft1Carolyn_lessNoise_PlusLocalization,2021.2.3,60.00142803089072,
,,,,,,,,nearRight,6.5,0,ch1Sound_localizationTask.wav,6.5,"(1047, 878)","(87, -202)",95,-338,,,,,,,,,,,,,1,4,11,4,,,,,,,,,,,,,,,,,,,,,,,,,,,,,,,,,,,,,,,,834.479244006332,None,,,837.495333977975,None,1.5687830687830688,0.8154223700985312,837.495333977975,None,,,,,,,835.4790658233687,None,835.6622976362705,835.678999800235,,,,,,,93,001,2023_May_04_1712,SpeechDraft1Carolyn_lessNoise_PlusLocalization,2021.2.3,60.00142803089072,
,,,,,,,,midRight,13.0,3,ch1Sound_localizationTask.wav,13.0,"(1142, 878)","(182, -202)",190,-338,,,,,,,,,,,,,1,5,12,5,,,,,,,,,,,,,,,,,,,,,,,,,,,,,,,,,,,,,,,,838.3123855390586,None,,,841.3287624074146,None,1.5925925925925926,0.7827854719944298,841.3287624074146,None,,,,,,,839.3123927400447,None,839.495635677129,839.5123765342869,,,,,,,93,001,2023_May_04_1712,SpeechDraft1Carolyn_lessNoise_PlusLocalization,2021.2.3,60.00142803089072,
,,,,,,,,center,0.0,6,ch1Sound_localizationTask.wav,0.0,"(952, 878)","(-8,-202)",0,-338,,,,,,,,,,,,,1,6,13,3,,,,,,,,,,,,,,,,,,,,,,,,,,,,,,,,,,,,,,,,842.112636918202,None,,,845.1287235431373,None,1.4947089947089947,0.6995665589347482,845.1287235431373,None,,,,,,,843.1123901172541,None,843.2957969661802,843.3123943652026,,,,,,,93,001,2023_May_04_1712,SpeechDraft1Carolyn_lessNoise_PlusLocalization,2021.2.3,60.00142803089072,
,,,,,,,,farLeft,-19.1,5,ch1Sound_localizationTask.wav,-19.1,"(667, 878)","(-293,-202)",-285,-338,,,,,,,,,,,,,2,0,14,0,,,,,,,,,,,,,,,,,,,,,,,,,,,,,,,,,,,,,,,,845.8297530240379,None,,,848.8454025341198,None,1.3333333333333333,0.8824251908808947,848.8454025341198,None,,,,,,,846.8289743009955,None,847.0124356192537,847.0289496229962,,,,,,,93,001,2023_May_04_1712,SpeechDraft1Carolyn_lessNoise_PlusLocalization,2021.2.3,60.00142803089072,
,,,,,,,,midRight,13.0,3,ch1Sound_localizationTask.wav,13.0,"(1142, 878)","(182, -202)",190,-338,,,,,,,,,,,,,2,1,15,5,,,,,,,,,,,,,,,,,,,,,,,,,,,,,,,,,,,,,,,,849.7291116211563,None,,,852.7453930540942,None,1.6037037037037036,0.7834885371848941,852.7453930540942,None,,,,,,,850.7289682980627,None,850.9123492660001,850.9290379281156,,,,,,,93,001,2023_May_04_1712,SpeechDraft1Carolyn_lessNoise_PlusLocalization,2021.2.3,60.00142803089072,
,,,,,,,,farLeft,-19.1,5,ch1Sound_localizationTask.wav,-19.1,"(667, 878)","(-293,-202)",-285,-338,,,,,,,,,,,,,2,2,16,0,,,,,,,,,,,,,,,,,,,,,,,,,,,,,,,,,,,,,,,,853.5455671600066,None,,,856.5618926510215,None,1.3354497354497354,1.1834100168198347,856.5618926510215,None,,,,,,,854.545683356002,None,854.7289159572683,854.7456954792142,,,,,,,93,001,2023_May_04_1712,SpeechDraft1Carolyn_lessNoise_PlusLocalization,2021.2.3,60.00142803089072,
,,,,,,,,farRight,19.1,4,ch1Sound_localizationTask.wav,19.1,"(1237, 878)","(277,-202)",285,-338,,,,,,,,,,,,,2,3,17,6,,,,,,,,,,,,,,,,,,,,,,,,,,,,,,,,,,,,,,,,857.7625144761987,None,,,860.7787231132388,None,1.6666666666666667,1.0325524033978581,860.7787231132388,None,,,,,,,858.7623418932781,None,858.9456771002151,858.9623402333818,,,,,,,93,001,2023_May_04_1712,SpeechDraft1Carolyn_lessNoise_PlusLocalization,2021.2.3,60.00142803089072,
,,,,,,,,nearRight,6.5,0,ch1Sound_localizationTask.wav,6.5,"(1047, 878)","(87, -202)",95,-338,,,,,,,,,,,,,2,4,18,4,,,,,,,,,,,,,,,,,,,,,,,,,,,,,,,,,,,,,,,,861.8130059530959,None,,,864.8286055913195,None,1.5481481481481483,1.4318410819396377,864.8286055913195,None,,,,,,,862.8124321573414,None,862.9957127822563,863.0123444152996,,,,,,,93,001,2023_May_04_1712,SpeechDraft1Carolyn_lessNoise_PlusLocalization,2021.2.3,60.00142803089072,
,,,,,,,,midLeft,-13.0,2,ch1Sound_localizationTask.wav,-13.0,"(762, 878)","(-198,-202)",-190,-338,,,,,,,,,,,,,2,5,19,1,,,,,,,,,,,,,,,,,,,,,,,,,,,,,,,,,,,,,,,,866.2624965449795,None,,,869.2788669522852,None,1.3746031746031746,0.7992692058905959,869.2788669522852,None,,,,,,,867.2624146793969,None,867.4457398243248,867.4625217011198,,,,,,,93,001,2023_May_04_1712,SpeechDraft1Carolyn_lessNoise_PlusLocalization,2021.2.3,60.00142803089072,
,,,,,,,,farLeft,-19.1,5,ch1Sound_localizationTask.wav,-19.1,"(667, 878)","(-293,-202)",-285,-338,,,,,,,,,,,,,2,6,20,0,,,,,,,,,,,,,,,,,,,,,,,,,,,,,,,,,,,,,,,,870.0800384832546,None,,,873.1119462251663,None,1.3375661375661376,0.8321386333554983,873.1119462251663,None,,,,,,,871.0956696714275,None,871.2790875784121,871.2957045552321,,,,,,,93,001,2023_May_04_1712,SpeechDraft1Carolyn_lessNoise_PlusLocalization,2021.2.3,60.00142803089072,
,,,,,,,,nearRight,6.5,0,ch1Sound_localizationTask.wav,6.5,"(1047, 878)","(87, -202)",95,-338,,,,,,,,,,,,,3,0,21,4,,,,,,,,,,,,,,,,,,,,,,,,,,,,,,,,,,,,,,,,873.9458055472933,None,,,876.9620244000107,None,1.555026455026455,1.0658729211427271,876.9620244000107,None,,,,,,,874.9456448783167,None,875.1290319990367,875.1457368051633,,,,,,,93,001,2023_May_04_1712,SpeechDraft1Carolyn_lessNoise_PlusLocalization,2021.2.3,60.00142803089072,
,,,,,,,,nearLeft,-6.5,1,ch1Sound_localizationTask.wav,-6.5,"(857, 878)","(-103,-202)",-95,-338,,,,,,,,,,,,,3,1,22,2,,,,,,,,,,,,,,,,,,,,,,,,,,,,,,,,,,,,,,,,878.0296130520292,None,,,881.0454230592586,None,1.446031746031746,0.8325763093307614,881.0454230592586,None,,,,,,,879.0290798763745,None,879.212510147132,879.2290314100683,,,,,,,93,001,2023_May_04_1712,SpeechDraft1Carolyn_lessNoise_PlusLocalization,2021.2.3,60.00142803089072,
,,,,,,,,farRight,19.1,4,ch1Sound_localizationTask.wav,19.1,"(1237, 878)","(277,-202)",285,-338,,,,,,,,,,,,,3,2,23,6,,,,,,,,,,,,,,,,,,,,,,,,,,,,,,,,,,,,,,,,881.8795107281767,None,,,884.8955084481277,None,1.6582010582010582,1.0668689971789718,884.8955084481277,None,,,,,,,882.8789918343537,None,883.0623870622367,883.0789828822017,,,,,,,93,001,2023_May_04_1712,SpeechDraft1Carolyn_lessNoise_PlusLocalization,2021.2.3,60.00142803089072,
,,,,,,,,midRight,13.0,3,ch1Sound_localizationTask.wav,13.0,"(1142, 878)","(182, -202)",190,-338,,,,,,,,,,,,,3,3,24,5,,,,,,,,,,,,,,,,,,,,,,,,,,,,,,,,,,,,,,,,885.963436733,None,,,888.9789338200353,None,1.5989417989417989,0.7316397130489349,888.9789338200353,None,,,,,,,886.9623383129947,None,887.1456905291416,887.1622742181644,,,,,,,93,001,2023_May_04_1712,SpeechDraft1Carolyn_lessNoise_PlusLocalization,2021.2.3,60.00142803089072,
,,,,,,,,farRight,19.1,4,ch1Sound_localizationTask.wav,19.1,"(1237, 878)","(277,-202)",285,-338,,,,,,,,,,,,,3,4,25,6,,,,,,,,,,,,,,,,,,,,,,,,,,,,,,,,,,,,,,,,889.7127407439984,None,,,892.7286265944131,None,1.6671957671957671,1.0851910789497197,892.7286265944131,None,,,,,,,890.712537790183,None,890.8957916982472,890.9123765882105,,,,,,,93,001,2023_May_04_1712,SpeechDraft1Carolyn_lessNoise_PlusLocalization,2021.2.3,60.00142803089072,
,,,,,,,,center,0.0,6,ch1Sound_localizationTask.wav,0.0,"(952, 878)","(-8,-202)",0,-338,,,,,,,,,,,,,3,5,26,3,,,,,,,,,,,,,,,,,,,,,,,,,,,,,,,,,,,,,,,,893.8300799340941,None,,,896.8454663073644,None,1.498941798941799,0.9149004928767681,896.8454663073644,None,,,,,,,894.8290353324264,None,895.0125369452871,895.0290582883172,,,,,,,93,001,2023_May_04_1712,SpeechDraft1Carolyn_lessNoise_PlusLocalization,2021.2.3,60.00142803089072,
,,,,,,,,midLeft,-13.0,2,ch1Sound_localizationTask.wav,-13.0,"(762, 878)","(-198,-202)",-190,-338,,,,,,,,,,,,,3,6,27,1,,,,,,,,,,,,,,,,,,,,,,,,,,,,,,,,,,,,,,,,897.7625490701757,None,,,900.7788807512261,None,1.4174603174603175,0.6654523652978241,900.7788807512261,None,,,,,,,898.7625034460798,None,898.9458267302252,898.9625255712308,,,,,,,93,001,2023_May_04_1712,SpeechDraft1Carolyn_lessNoise_PlusLocalization,2021.2.3,60.00142803089072,
,,,,,,,,center,0.0,6,ch1Sound_localizationTask.wav,0.0,"(952, 878)","(-8,-202)",0,-338,,,,,,,,,,,,,4,0,28,3,,,,,,,,,,,,,,,,,,,,,,,,,,,,,,,,,,,,,,,,901.4458710593171,None,,,904.4620817610994,None,1.502116402116402,0.8654656852595508,904.4620817610994,None,,,,,,,902.4458192512393,None,902.6289533851668,902.6457392643206,,,,,,,93,001,2023_May_04_1712,SpeechDraft1Carolyn_lessNoise_PlusLocalization,2021.2.3,60.00142803089072,
,,,,,,,,center,0.0,6,ch1Sound_localizationTask.wav,0.0,"(952, 878)","(-8,-202)",0,-338,,,,,,,,,,,,,4,1,29,3,,,,,,,,,,,,,,,,,,,,,,,,,,,,,,,,,,,,,,,,905.3291249740869,None,,,908.3454702170566,None,1.4841269841269842,0.7504228157922626,908.3454702170566,None,,,,,,,906.3290940374136,None,906.5123283714056,906.5292273713276,,,,,,,93,001,2023_May_04_1712,SpeechDraft1Carolyn_lessNoise_PlusLocalization,2021.2.3,60.00142803089072,
,,,,,,,,farRight,19.1,4,ch1Sound_localizationTask.wav,19.1,"(1237, 878)","(277,-202)",285,-338,,,,,,,,,,,,,4,2,30,6,,,,,,,,,,,,,,,,,,,,,,,,,,,,,,,,,,,,,,,,909.1123311789706,None,,,912.1287447260693,None,1.6407407407407408,0.8993640411645174,912.1287447260693,None,,,,,,,910.1124258050695,None,910.2959249094129,910.312312505208,,,,,,,93,001,2023_May_04_1712,SpeechDraft1Carolyn_lessNoise_PlusLocalization,2021.2.3,60.00142803089072,
,,,,,,,,farLeft,-19.1,5,ch1Sound_localizationTask.wav,-19.1,"(667, 878)","(-293,-202)",-285,-338,,,,,,,,,,,,,4,3,31,0,,,,,,,,,,,,,,,,,,,,,,,,,,,,,,,,,,,,,,,,913.0299154603854,None,,,916.0455640153959,None,1.3021164021164022,0.8316137501969934,916.0455640153959,None,,,,,,,914.0292006353848,None,914.2124485000968,914.2290675011463,,,,,,,93,001,2023_May_04_1712,SpeechDraft1Carolyn_lessNoise_PlusLocalization,2021.2.3,60.00142803089072,
,,,,,,,,farLeft,-19.1,5,ch1Sound_localizationTask.wav,-19.1,"(667, 878)","(-293,-202)",-285,-338,,,,,,,,,,,,,4,4,32,0,,,,,,,,,,,,,,,,,,,,,,,,,,,,,,,,,,,,,,,,916.8792362050153,None,,,919.8953797151335,None,1.3703703703703702,0.7646431918255985,919.8953797151335,None,,,,,,,917.8790552183054,None,918.0625090124086,918.0790712679736,,,,,,,93,001,2023_May_04_1712,SpeechDraft1Carolyn_lessNoise_PlusLocalization,2021.2.3,60.00142803089072,
,,,,,,,,center,0.0,6,ch1Sound_localizationTask.wav,0.0,"(952, 878)","(-8,-202)",0,-338,,,,,,,,,,,,,4,5,33,3,,,,,,,,,,,,,,,,,,,,,,,,,,,,,,,,,,,,,,,,920.6625481559895,None,,,923.678907991387,None,1.5015873015873016,0.7529938821680844,923.678907991387,None,,,,,,,921.6623921743594,None,921.8458285992965,921.8624100130983,,,,,,,93,001,2023_May_04_1712,SpeechDraft1Carolyn_lessNoise_PlusLocalization,2021.2.3,60.00142803089072,
,,,,,,,,farRight,19.1,4,ch1Sound_localizationTask.wav,19.1,"(1237, 878)","(277,-202)",285,-338,,,,,,,,,,,,,4,6,34,6,,,,,,,,,,,,,,,,,,,,,,,,,,,,,,,,,,,,,,,,924.4459936521016,None,,,927.4622479211539,None,1.6835978835978835,0.5986070269718766,927.4622479211539,None,,,,,,,925.4459004811943,None,925.6290811803192,925.6457422720268,,,,,,,93,001,2023_May_04_1712,SpeechDraft1Carolyn_lessNoise_PlusLocalization,2021.2.3,60.00142803089072,
,,,,,,,,midLeft,-13.0,2,ch1Sound_localizationTask.wav,-13.0,"(762, 878)","(-198,-202)",-190,-338,,,,,,,,,,,,,5,0,35,1,,,,,,,,,,,,,,,,,,,,,,,,,,,,,,,,,,,,,,,,928.0626751133241,None,,,931.0789538961835,None,1.3878306878306879,0.8660477641969919,931.0789538961835,None,,,,,,,929.0624960931018,None,929.2456958643161,929.2624691962264,,,,,,,93,001,2023_May_04_1712,SpeechDraft1Carolyn_lessNoise_PlusLocalization,2021.2.3,60.00142803089072,
,,,,,,,,center,0.0,6,ch1Sound_localizationTask.wav,0.0,"(952, 878)","(-8,-202)",0,-338,,,,,,,,,,,,,5,1,36,3,,,,,,,,,,,,,,,,,,,,,,,,,,,,,,,,,,,,,,,,931.9466859162785,None,,,934.9621421783231,None,1.4978835978835978,1.600153286010027,934.9621421783231,None,,,,,,,932.9458045540377,None,933.1291218693368,933.1457673003897,,,,,,,93,001,2023_May_04_1712,SpeechDraft1Carolyn_lessNoise_PlusLocalization,2021.2.3,60.00142803089072,
,,,,,,,,farLeft,-19.1,5,ch1Sound_localizationTask.wav,-19.1,"(667, 878)","(-293,-202)",-285,-338,,,,,,,,,,,,,5,2,37,0,,,,,,,,,,,,,,,,,,,,,,,,,,,,,,,,,,,,,,,,936.5640014992096,None,,,939.5957239172421,None,1.3338624338624339,0.7828225628472865,939.5957239172421,None,,,,,,,937.5790858170949,None,937.7623520162888,937.7790878312662,,,,,,,93,001,2023_May_04_1712,SpeechDraft1Carolyn_lessNoise_PlusLocalization,2021.2.3,60.00142803089072,
,,,,,,,,midRight,13.0,3,ch1Sound_localizationTask.wav,13.0,"(1142, 878)","(182, -202)",190,-338,,,,,,,,,,,,,5,3,38,5,,,,,,,,,,,,,,,,,,,,,,,,,,,,,,,,,,,,,,,,940.3802965520881,None,,,943.4124590232968,None,1.6232804232804234,0.831277527846396,943.4124590232968,None,,,,,,,941.395813643001,None,941.5792093332857,941.5960834752768,,,,,,,93,001,2023_May_04_1712,SpeechDraft1Carolyn_lessNoise_PlusLocalization,2021.2.3,60.00142803089072,
,,,,,,,,midLeft,-13.0,2,ch1Sound_localizationTask.wav,-13.0,"(762, 878)","(-198,-202)",-190,-338,,,,,,,,,,,,,5,4,39,1,,,,,,,,,,,,,,,,,,,,,,,,,,,,,,,,,,,,,,,,944.2459509624168,None,,,947.2621744014323,None,1.3761904761904762,1.1658899947069585,947.2621744014323,None,,,,,,,945.24583980022,None,945.4290570383891,945.445930632297,,,,,,,93,001,2023_May_04_1712,SpeechDraft1Carolyn_lessNoise_PlusLocalization,2021.2.3,60.00142803089072,
,,,,,,,,nearRight,6.5,0,ch1Sound_localizationTask.wav,6.5,"(1047, 878)","(87, -202)",95,-338,,,,,,,,,,,,,5,5,40,4,,,,,,,,,,,,,,,,,,,,,,,,,,,,,,,,,,,,,,,,948.4295419072732,None,,,951.4455109722912,None,1.5592592592592593,0.932560701854527,951.4455109722912,None,,,,,,,949.4292250052094,None,949.6124853580259,949.6291123502888,,,,,,,93,001,2023_May_04_1712,SpeechDraft1Carolyn_lessNoise_PlusLocalization,2021.2.3,60.00142803089072,
,,,,,,,,midLeft,-13.0,2,ch1Sound_localizationTask.wav,-13.0,"(762, 878)","(-198,-202)",-190,-338,,,,,,,,,,,,,5,6,41,1,,,,,,,,,,,,,,,,,,,,,,,,,,,,,,,,,,,,,,,,952.3794351941906,None,,,955.3957018903457,None,1.384126984126984,0.6658368231728673,955.3957018903457,None,,,,,,,953.3793272883631,None,953.5624515684322,953.5792205473408,,,,,,,93,001,2023_May_04_1712,SpeechDraft1Carolyn_lessNoise_PlusLocalization,2021.2.3,60.00142803089072,
,,,,,,,,nearLeft,-6.5,1,ch1Sound_localizationTask.wav,-6.5,"(857, 878)","(-103,-202)",-95,-338,,,,,,,,,,,,,6,0,42,2,,,,,,,,,,,,,,,,,,,,,,,,,,,,,,,,,,,,,,,,956.0629010512494,None,,,959.0789763540961,None,1.4402116402116403,0.9153650030493736,959.0789763540961,None,,,,,,,957.0625222870149,None,957.245826903265,957.2626235820353,,,,,,,93,001,2023_May_04_1712,SpeechDraft1Carolyn_lessNoise_PlusLocalization,2021.2.3,60.00142803089072,
,,,,,,,,nearLeft,-6.5,1,ch1Sound_localizationTask.wav,-6.5,"(857, 878)","(-103,-202)",-95,-338,,,,,,,,,,,,,6,1,43,2,,,,,,,,,,,,,,,,,,,,,,,,,,,,,,,,,,,,,,,,959.9961267132312,None,,,963.0123299569823,None,1.4497354497354498,0.7483299290761352,963.0123299569823,None,,,,,,,960.9957861951552,None,961.1790806660429,961.1957779764198,,,,,,,93,001,2023_May_04_1712,SpeechDraft1Carolyn_lessNoise_PlusLocalization,2021.2.3,60.00142803089072,
,,,,,,,,farRight,19.1,4,ch1Sound_localizationTask.wav,19.1,"(1237, 878)","(277,-202)",285,-338,,,,,,,,,,,,,6,2,44,6,,,,,,,,,,,,,,,,,,,,,,,,,,,,,,,,,,,,,,,,963.7632923382334,None,,,966.7788917901926,None,1.6486772486772487,1.04943519923836,966.7788917901926,None,,,,,,,964.7625708570704,None,964.9459496801719,964.9624469601549,,,,,,,93,001,2023_May_04_1712,SpeechDraft1Carolyn_lessNoise_PlusLocalization,2021.2.3,60.00142803089072,
,,,,,,,,farLeft,-19.1,5,ch1Sound_localizationTask.wav,-19.1,"(667, 878)","(-293,-202)",-285,-338,,,,,,,,,,,,,6,3,45,0,,,,,,,,,,,,,,,,,,,,,,,,,,,,,,,,,,,,,,,,967.8298799414188,None,,,970.8455607132055,None,1.3227513227513228,1.0650785630568862,970.8455607132055,None,,,,,,,968.8293138681911,None,969.0125261261128,969.0291763730347,,,,,,,93,001,2023_May_04_1712,SpeechDraft1Carolyn_lessNoise_PlusLocalization,2021.2.3,60.00142803089072,
,,,,,,,,nearLeft,-6.5,1,ch1Sound_localizationTask.wav,-6.5,"(857, 878)","(-103,-202)",-95,-338,,,,,,,,,,,,,6,4,46,2,,,,,,,,,,,,,,,,,,,,,,,,,,,,,,,,,,,,,,,,971.9128113402985,None,,,974.9287263881415,None,1.4375661375661375,0.7320012897253036,974.9287263881415,None,,,,,,,972.9126680190675,None,973.0959808900952,973.112631441094,,,,,,,93,001,2023_May_04_1712,SpeechDraft1Carolyn_lessNoise_PlusLocalization,2021.2.3,60.00142803089072,
,,,,,,,,nearLeft,-6.5,1,ch1Sound_localizationTask.wav,-6.5,"(857, 878)","(-103,-202)",-95,-338,,,,,,,,,,,,,6,5,47,2,,,,,,,,,,,,,,,,,,,,,,,,,,,,,,,,,,,,,,,,975.6625753124245,None,,,978.6787654403597,None,1.4492063492063492,0.7982382867485285,978.6787654403597,None,,,,,,,976.6623679082841,None,976.8458396112546,976.8624347890727,,,,,,,93,001,2023_May_04_1712,SpeechDraft1Carolyn_lessNoise_PlusLocalization,2021.2.3,60.00142803089072,
,,,,,,,,nearLeft,-6.5,1,ch1Sound_localizationTask.wav,-6.5,"(857, 878)","(-103,-202)",-95,-338,,,,,,,,,,,,,6,6,48,2,,,,,,,,,,,,,,,,,,,,,,,,,,,,,,,,,,,,,,,,979.4793358664028,None,,,982.495336888358,None,1.4613756613756614,0.6831276272423565,982.495336888358,None,,,,,,,980.4790966082364,None,980.6626335210167,980.6790893580765,,,,,,,93,001,2023_May_04_1712,SpeechDraft1Carolyn_lessNoise_PlusLocalization,2021.2.3,60.00142803089072,
,,,,,,,,midRight,13.0,3,ch1Sound_localizationTask.wav,13.0,"(1142, 878)","(182, -202)",190,-338,,,,,,,,,,,,,7,0,49,5,,,,,,,,,,,,,,,,,,,,,,,,,,,,,,,,,,,,,,,,983.1960284342058,None,,,986.2122087813914,None,1.58994708994709,0.9323344002477825,986.2122087813914,None,,,,,,,984.1959716961719,None,984.3791442052461,984.3958754981868,,,,,,,93,001,2023_May_04_1712,SpeechDraft1Carolyn_lessNoise_PlusLocalization,2021.2.3,60.00142803089072,
,,,,,,,,midLeft,-13.0,2,ch1Sound_localizationTask.wav,-13.0,"(762, 878)","(-198,-202)",-190,-338,,,,,,,,,,,,,7,1,50,1,,,,,,,,,,,,,,,,,,,,,,,,,,,,,,,,,,,,,,,,987.1462043751962,None,,,990.1622840212658,None,1.3867724867724869,0.8163459380157292,990.1622840212658,None,,,,,,,988.1458540200256,None,988.3291359650902,988.3459952641279,,,,,,,93,001,2023_May_04_1712,SpeechDraft1Carolyn_lessNoise_PlusLocalization,2021.2.3,60.00142803089072,
,,,,,,,,midLeft,-13.0,2,ch1Sound_localizationTask.wav,-13.0,"(762, 878)","(-198,-202)",-190,-338,,,,,,,,,,,,,7,2,51,1,,,,,,,,,,,,,,,,,,,,,,,,,,,,,,,,,,,,,,,,990.9799650330096,None,,,993.995577020105,None,1.408994708994709,0.6324770618230104,993.995577020105,None,,,,,,,991.9791193460114,None,992.1625504624099,992.179170015268,,,,,,,93,001,2023_May_04_1712,SpeechDraft1Carolyn_lessNoise_PlusLocalization,2021.2.3,60.00142803089072,
,,,,,,,,center,0.0,6,ch1Sound_localizationTask.wav,0.0,"(952, 878)","(-8,-202)",0,-338,,,,,,,,,,,,,7,3,52,3,,,,,,,,,,,,,,,,,,,,,,,,,,,,,,,,,,,,,,,,994.6293946201913,None,,,997.6456139250658,None,1.483068783068783,0.6315020089969039,997.6456139250658,None,,,,,,,995.629208877217,None,995.8125097593293,995.8293238203041,,,,,,,93,001,2023_May_04_1712,SpeechDraft1Carolyn_lessNoise_PlusLocalization,2021.2.3,60.00142803089072,
,,,,,,,,center,0.0,6,ch1Sound_localizationTask.wav,0.0,"(952, 878)","(-8,-202)",0,-338,,,,,,,,,,,,,7,4,53,3,,,,,,,,,,,,,,,,,,,,,,,,,,,,,,,,,,,,,,,,998.2791531030089,None,,,1001.2956936322153,None,1.5132275132275133,0.581889237742871,1001.2956936322153,None,,,,,,,999.2792286472395,None,999.4627562542446,999.4791632220149,,,,,,,93,001,2023_May_04_1712,SpeechDraft1Carolyn_lessNoise_PlusLocalization,2021.2.3,60.00142803089072,
,,,,,,,,farRight,19.1,4,ch1Sound_localizationTask.wav,19.1,"(1237, 878)","(277,-202)",285,-338,,,,,,,,,,,,,7,5,54,6,,,,,,,,,,,,,,,,,,,,,,,,,,,,,,,,,,,,,,,,1001.8792192470282,None,,,1004.8954756413586,None,1.6365079365079365,0.547882336191833,1004.8954756413586,None,,,,,,,1002.8792286403477,None,1003.0625939504243,1003.0792143410072,,,,,,,93,001,2023_May_04_1712,SpeechDraft1Carolyn_lessNoise_PlusLocalization,2021.2.3,60.00142803089072,
,,,,,,,,farRight,19.1,4,ch1Sound_localizationTask.wav,19.1,"(1237, 878)","(277,-202)",285,-338,,,,,,,,,,,,,7,6,55,6,,,,,,,,,,,,,,,,,,,,,,,,,,,,,,,,,,,,,,,,1005.4459181521088,None,,,1008.4622880374081,None,1.6603174603174602,0.9165690150111914,1008.4622880374081,None,,,,,,,1006.445847781375,None,1006.6292425361462,1006.6458467710763,,,,,,,93,001,2023_May_04_1712,SpeechDraft1Carolyn_lessNoise_PlusLocalization,2021.2.3,60.00142803089072,
,,,,,,,,,,,,,,,,,,,,,,,,,,,,,,,,,,,,,,,,,,,,,,,,,,,,,,,,,,,,,,,,,,,,,,,,,,,,,,,,,,,,,,,,,,,,1009.395564601291,None,c,99.00703926710412,1010.3627501581796,None,93,001,2023_May_04_1712,SpeechDraft1Carolyn_lessNoise_PlusLocalization,2021.2.3,60.00142803089072,
