Audio_Only_Files,Video_Files,Original_Word_List,noiseLevelCode,conditionCodes,noiseLevelFile1,noiseLevelFile2,InstrTextVar,targetSpeakerName,targetSpeakerEccen,targetSpkrChannel,targetSpkrSound,targetVisualDegrees,visStimLoc,visStimLoc2,visStimW,visStimH,practiceTrials.thisRepN,practiceTrials.thisTrialN,practiceTrials.thisN,practiceTrials.thisIndex,trials.thisRepN,trials.thisTrialN,trials.thisN,trials.thisIndex,audLocalLoop.thisRepN,audLocalLoop.thisTrialN,audLocalLoop.thisN,audLocalLoop.thisIndex,visualLocalLoop.thisRepN,visualLocalLoop.thisTrialN,visualLocalLoop.thisN,visualLocalLoop.thisIndex,letsGoAlready.keys,letsGoAlready.rt,letsGoAlready.started,letsGoAlready.stopped,text_2.started,text_2.stopped,text_3.started,text_3.stopped,key_resp_2.keys,key_resp_2.rt,key_resp_2.started,key_resp_2.stopped,text_5.started,text_5.stopped,fixCross.started,fixCross.stopped,fixCross2.started,fixCross2.stopped,answerPrompt.started,answerPrompt.stopped,getAnswer.text,getAnswer.started,getAnswer.stopped,goToNext.keys,goToNext.rt,goToNext.started,goToNext.stopped,stretchBreakTxrt.started,stretchBreakTxrt.stopped,key_resp_3.keys,key_resp_3.rt,key_resp_3.started,key_resp_3.stopped,letsGoLocal.keys,letsGoLocal.rt,letsGoLocal.started,letsGoLocal.stopped,text_4.started,text_4.stopped,prepFixTxt.started,prepFixTxt.stopped,prepFixTxt_2.started,prepFixTxt_2.stopped,respPromptLocal.started,respPromptLocal.stopped,slider.response,slider.rt,slider.started,slider.stopped,letsGoLocal_2.keys,letsGoLocal_2.rt,letsGoLocal_2.started,letsGoLocal_2.stopped,text_7.started,text_7.stopped,prepFixTxt_3.started,prepFixTxt_3.stopped,grating.started,grating.stopped,exitTxt.started,exitTxt.stopped,key_resp.keys,key_resp.rt,key_resp.started,key_resp.stopped,participant,session,date,expName,psychopyVersion,frameRate,
,,,,,,,,,,,,,,,,,,,,,,,,,,,,,,,,,space,8.526232933159918,13.139693733304739,None,,,,,,,,,,,,,,,,,,,,,,,,,,,,,,,,,,,,,,,,,,,,,,,,,,,,,,,,,,,,,,94,001,2023_May_05_1750,SpeechDraft1Carolyn_lessNoise_PlusLocalization,2021.2.3,60.03033658604913,
,,,,,,,,,,,,,,,,,,,,,,,,,,,,,,,,,,,,,13.139693733304739,None,21.789878060109913,None,space,9.73307218728587,21.97296420717612,None,,,,,,,,,,,,,,,,,,,,,,,,,,,,,,,,,,,,,,,,,,,,,,,,,,,,,,94,001,2023_May_05_1750,SpeechDraft1Carolyn_lessNoise_PlusLocalization,2021.2.3,60.03033658604913,
ash.wav,ash.mpg,ash,1,A,Pink_Noise_1_1.wav,Pink_Noise_1_2.wav,"This is an example of an

AUDIO trial",,,,,,,,,,0,0,0,0,,,,,,,,,,,,,,,,,,,,,,,,,31.7562002572231,None,32.739712320268154,None,35.98946493305266,None,37.35666415607557,None,ash,37.35666415607557,None,return,6.354094307869673,37.439780740998685,None,,,,,,,,,,,,,,,,,,,,,,,,,,,,,,,,,,,,,,,94,001,2023_May_05_1750,SpeechDraft1Carolyn_lessNoise_PlusLocalization,2021.2.3,60.03033658604913,
ash.wav,ash.mpg,ash,1,AV,Pink_Noise_1_1.wav,Pink_Noise_1_2.wav,"This is an example of an

AUDIO + VIDEO  trial",,,,,,,,,,0,1,1,1,,,,,,,,,,,,,,,,,,,,,,,,,43.839286306872964,None,44.83974088123068,None,46.33931096922606,None,47.72309629712254,None,"ash
",47.72309629712254,None,return,3.0674279741942883,47.80645924899727,None,,,,,,,,,,,,,,,,,,,,,,,,,,,,,,,,,,,,,,,94,001,2023_May_05_1750,SpeechDraft1Carolyn_lessNoise_PlusLocalization,2021.2.3,60.03033658604913,
,,,,,,,,,,,,,,,,,,,,,,,,,,,,,,,,,,,,,,,,,,,,,,,,,,,,,,,,,,,,50.922905657906085,None,space,15.191428238991648,51.10645205806941,None,,,,,,,,,,,,,,,,,,,,,,,,,,,,,,,,,94,001,2023_May_05_1750,SpeechDraft1Carolyn_lessNoise_PlusLocalization,2021.2.3,60.03033658604913,
flog.wav,flog.mpg,flog,6,AV,Pink_Noise_6_1.wav,Pink_Noise_6_2.wav,,,,,,,,,,,,,,,0,0,0,112,,,,,,,,,,,,,,,,,,,,,,,66.35622185701504,None,67.83932587923482,None,69.22305033309385,None,"fog
",69.22305033309385,None,return,7.183563570026308,69.30631840229034,None,,,,,,,,,,,,,,,,,,,,,,,,,,,,,,,,,,,,,,,94,001,2023_May_05_1750,SpeechDraft1Carolyn_lessNoise_PlusLocalization,2021.2.3,60.03033658604913,
cart.wav,cart.mpg,cart,4,A,Pink_Noise_4_1.wav,Pink_Noise_4_2.wav,,,,,,,,,,,,,,,0,1,1,14,,,,,,,,,,,,,,,,,,,,,,,76.5231374623254,None,78.02279888605699,None,79.40646241186187,None,touch,79.40646241186187,None,return,5.808204778004438,79.48978371126577,None,,,,,,,,,,,,,,,,,,,,,,,,,,,,,,,,,,,,,,,94,001,2023_May_05_1750,SpeechDraft1Carolyn_lessNoise_PlusLocalization,2021.2.3,60.03033658604913,
fill.wav,fill.mpg,fill,5,A,Pink_Noise_5_1.wav,Pink_Noise_5_2.wav,,,,,,,,,,,,,,,0,2,2,48,,,,,,,,,,,,,,,,,,,,,,,85.32315640803427,None,86.82270168187097,None,88.20642738929018,None,this,88.20642738929018,None,return,7.559983520768583,88.28989455616102,None,,,,,,,,,,,,,,,,,,,,,,,,,,,,,,,,,,,,,,,94,001,2023_May_05_1750,SpeechDraft1Carolyn_lessNoise_PlusLocalization,2021.2.3,60.03033658604913,
fruit.wav,fruit.mpg,fruit,4,A,Pink_Noise_4_1.wav,Pink_Noise_4_2.wav,,,,,,,,,,,,,,,0,3,3,39,,,,,,,,,,,,,,,,,,,,,,,95.87329160701483,None,97.35797677002847,None,98.75634020101279,None,"reach
",98.75634020101279,None,return,3.1860144161619246,98.83984782826155,None,,,,,,,,,,,,,,,,,,,,,,,,,,,,,,,,,,,,,,,94,001,2023_May_05_1750,SpeechDraft1Carolyn_lessNoise_PlusLocalization,2021.2.3,60.03033658604913,
fix.wav,fix.mpg,fix,4,AV,Pink_Noise_4_1.wav,Pink_Noise_4_2.wav,,,,,,,,,,,,,,,0,4,4,88,,,,,,,,,,,,,,,,,,,,,,,102.05655781412497,None,103.55608436791226,None,104.93984845792875,None,fix,104.93984845792875,None,return,3.1546246889047325,105.02325961692259,None,,,,,,,,,,,,,,,,,,,,,,,,,,,,,,,,,,,,,,,94,001,2023_May_05_1750,SpeechDraft1Carolyn_lessNoise_PlusLocalization,2021.2.3,60.03033658604913,
fine.wav,fine.mpg,fine,5,A,Pink_Noise_5_1.wav,Pink_Noise_5_2.wav,,,,,,,,,,,,,,,0,5,5,0,,,,,,,,,,,,,,,,,,,,,,,108.20651546027511,None,109.70619227504358,None,111.09014629991725,None,touch,111.09014629991725,None,return,4.692634939216077,111.17326699802652,None,,,,,,,,,,,,,,,,,,,,,,,,,,,,,,,,,,,,,,,94,001,2023_May_05_1750,SpeechDraft1Carolyn_lessNoise_PlusLocalization,2021.2.3,60.03033658604913,
fuse.wav,fuse.mpg,fuse,1,A,Pink_Noise_1_1.wav,Pink_Noise_1_2.wav,,,,,,,,,,,,,,,0,6,6,43,,,,,,,,,,,,,,,,,,,,,,,115.88991329912096,None,117.38948584906757,None,118.77333602122962,None,fuse,118.77333602122962,None,return,1.6736494661308825,118.85650590108708,None,,,,,,,,,,,,,,,,,,,,,,,,,,,,,,,,,,,,,,,94,001,2023_May_05_1750,SpeechDraft1Carolyn_lessNoise_PlusLocalization,2021.2.3,60.03033658604913,
ask.wav,ask.mpg,ask,5,AV,Pink_Noise_5_1.wav,Pink_Noise_5_2.wav,,,,,,,,,,,,,,,0,7,7,67,,,,,,,,,,,,,,,,,,,,,,,120.55648991791531,None,122.05625913804397,None,123.43988989014179,None,asking,123.43988989014179,None,return,4.542735633905977,123.52317386586219,None,,,,,,,,,,,,,,,,,,,,,,,,,,,,,,,,,,,,,,,94,001,2023_May_05_1750,SpeechDraft1Carolyn_lessNoise_PlusLocalization,2021.2.3,60.03033658604913,
freeze.wav,freeze.mpg,freeze,1,AV,Pink_Noise_1_1.wav,Pink_Noise_1_2.wav,,,,,,,,,,,,,,,0,8,8,95,,,,,,,,,,,,,,,,,,,,,,,128.08983562793583,None,129.58959087915719,None,130.97313577588648,None,freeze,130.97313577588648,None,return,3.2090951004065573,131.0568294362165,None,,,,,,,,,,,,,,,,,,,,,,,,,,,,,,,,,,,,,,,94,001,2023_May_05_1750,SpeechDraft1Carolyn_lessNoise_PlusLocalization,2021.2.3,60.03033658604913,
crash.wav,crash.mpg,crash,2,A,Pink_Noise_2_1.wav,Pink_Noise_2_2.wav,,,,,,,,,,,,,,,0,9,9,3,,,,,,,,,,,,,,,,,,,,,,,134.28979818802327,None,135.7895791879855,None,137.1731614312157,None,crash,137.1731614312157,None,return,1.3055443321354687,137.25659651122987,None,,,,,,,,,,,,,,,,,,,,,,,,,,,,,,,,,,,,,,,94,001,2023_May_05_1750,SpeechDraft1Carolyn_lessNoise_PlusLocalization,2021.2.3,60.03033658604913,
fog.wav,fog.mpg,fog,6,A,Pink_Noise_6_1.wav,Pink_Noise_6_2.wav,,,,,,,,,,,,,,,0,10,10,17,,,,,,,,,,,,,,,,,,,,,,,138.5899218870327,None,140.08948133699596,None,141.4734182069078,None,rash,141.4734182069078,None,return,2.029368436895311,141.55654595326632,None,,,,,,,,,,,,,,,,,,,,,,,,,,,,,,,,,,,,,,,94,001,2023_May_05_1750,SpeechDraft1Carolyn_lessNoise_PlusLocalization,2021.2.3,60.03033658604913,
ball.wav,ball.mpg,ball,5,AV,Pink_Noise_5_1.wav,Pink_Noise_5_2.wav,,,,,,,,,,,,,,,0,11,11,63,,,,,,,,,,,,,,,,,,,,,,,143.60649880720302,None,145.1062313108705,None,146.48980867816135,None,ball,146.48980867816135,None,return,3.2446870137937367,146.57321644295007,None,,,,,,,,,,,,,,,,,,,,,,,,,,,,,,,,,,,,,,,94,001,2023_May_05_1750,SpeechDraft1Carolyn_lessNoise_PlusLocalization,2021.2.3,60.03033658604913,
cross.wav,cross.mpg,cross,2,AV,Pink_Noise_2_1.wav,Pink_Noise_2_2.wav,,,,,,,,,,,,,,,0,12,12,111,,,,,,,,,,,,,,,,,,,,,,,149.8399857110344,None,151.3395192893222,None,152.72335324902087,None,cross,152.72335324902087,None,return,1.8113716910593212,152.8064814019017,None,,,,,,,,,,,,,,,,,,,,,,,,,,,,,,,,,,,,,,,94,001,2023_May_05_1750,SpeechDraft1Carolyn_lessNoise_PlusLocalization,2021.2.3,60.03033658604913,
cling.wav,cling.mpg,cling,2,AV,Pink_Noise_2_1.wav,Pink_Noise_2_2.wav,,,,,,,,,,,,,,,0,13,13,107,,,,,,,,,,,,,,,,,,,,,,,154.63990733912215,None,156.13950795307755,None,157.52332874108106,None,cling,157.52332874108106,None,return,2.179448045324534,157.60649870010093,None,,,,,,,,,,,,,,,,,,,,,,,,,,,,,,,,,,,,,,,94,001,2023_May_05_1750,SpeechDraft1Carolyn_lessNoise_PlusLocalization,2021.2.3,60.03033658604913,
drab.wav,drab.mpg,drab,2,AV,Pink_Noise_2_1.wav,Pink_Noise_2_2.wav,,,,,,,,,,,,,,,0,14,14,101,,,,,,,,,,,,,,,,,,,,,,,159.8067106809467,None,161.30616070097312,None,162.68992171809077,None,drag,162.68992171809077,None,return,1.7165720569901168,162.77332024089992,None,,,,,,,,,,,,,,,,,,,,,,,,,,,,,,,,,,,,,,,94,001,2023_May_05_1750,SpeechDraft1Carolyn_lessNoise_PlusLocalization,2021.2.3,60.03033658604913,
flock.wav,flock.mpg,flock,2,A,Pink_Noise_2_1.wav,Pink_Noise_2_2.wav,,,,,,,,,,,,,,,0,15,15,5,,,,,,,,,,,,,,,,,,,,,,,164.50657289102674,None,166.00622934428975,None,167.39002419030294,None,flock,167.39002419030294,None,return,4.112621458712965,167.47325724503025,None,,,,,,,,,,,,,,,,,,,,,,,,,,,,,,,,,,,,,,,94,001,2023_May_05_1750,SpeechDraft1Carolyn_lessNoise_PlusLocalization,2021.2.3,60.03033658604913,
crust.wav,crust.mpg,crust,6,AV,Pink_Noise_6_1.wav,Pink_Noise_6_2.wav,,,,,,,,,,,,,,,0,16,16,84,,,,,,,,,,,,,,,,,,,,,,,171.60669644689187,None,173.10626814188436,None,174.4898221422918,None,crust,174.4898221422918,None,return,7.724845251068473,174.57324013486505,None,,,,,,,,,,,,,,,,,,,,,,,,,,,,,,,,,,,,,,,94,001,2023_May_05_1750,SpeechDraft1Carolyn_lessNoise_PlusLocalization,2021.2.3,60.03033658604913,
jam.wav,jam.mpg,jam,5,A,Pink_Noise_5_1.wav,Pink_Noise_5_2.wav,,,,,,,,,,,,,,,0,17,17,21,,,,,,,,,,,,,,,,,,,,,,,182.32329687988386,None,183.82283718232065,None,185.2230676598847,None,jam,185.2230676598847,None,return,3.3118951250799,185.2899821503088,None,,,,,,,,,,,,,,,,,,,,,,,,,,,,,,,,,,,,,,,94,001,2023_May_05_1750,SpeechDraft1Carolyn_lessNoise_PlusLocalization,2021.2.3,60.03033658604913,
grant.wav,grant.mpg,grant,6,AV,Pink_Noise_6_1.wav,Pink_Noise_6_2.wav,,,,,,,,,,,,,,,0,18,18,76,,,,,,,,,,,,,,,,,,,,,,,188.62322247819975,None,190.1228653253056,None,191.50663274200633,None,cross,191.50663274200633,None,return,1.9878268232569098,191.59001517109573,None,,,,,,,,,,,,,,,,,,,,,,,,,,,,,,,,,,,,,,,94,001,2023_May_05_1750,SpeechDraft1Carolyn_lessNoise_PlusLocalization,2021.2.3,60.03033658604913,
groan.wav,groan.mpg,groan,1,AV,Pink_Noise_1_1.wav,Pink_Noise_1_2.wav,,,,,,,,,,,,,,,0,19,19,108,,,,,,,,,,,,,,,,,,,,,,,193.6066462788731,None,195.10620192904025,None,196.4900385159999,None,grow,196.4900385159999,None,return,2.1166719528846443,196.57321428507566,None,,,,,,,,,,,,,,,,,,,,,,,,,,,,,,,,,,,,,,,94,001,2023_May_05_1750,SpeechDraft1Carolyn_lessNoise_PlusLocalization,2021.2.3,60.03033658604913,
wear.wav,wear.mpg,wear,2,AV,Pink_Noise_2_1.wav,Pink_Noise_2_2.wav,,,,,,,,,,,,,,,0,20,20,65,,,,,,,,,,,,,,,,,,,,,,,198.7065899069421,None,200.20647836197168,None,201.5898204469122,None,weat,201.5898204469122,None,return,1.248627610038966,201.67338804807514,None,,,,,,,,,,,,,,,,,,,,,,,,,,,,,,,,,,,,,,,94,001,2023_May_05_1750,SpeechDraft1Carolyn_lessNoise_PlusLocalization,2021.2.3,60.03033658604913,
calm.wav,calm.mpg,calm,4,A,Pink_Noise_4_1.wav,Pink_Noise_4_2.wav,,,,,,,,,,,,,,,0,21,21,46,,,,,,,,,,,,,,,,,,,,,,,202.93998900195584,None,204.4395889681764,None,205.8232954610139,None,"calm
",205.8232954610139,None,return,2.351184096187353,205.9066991340369,None,,,,,,,,,,,,,,,,,,,,,,,,,,,,,,,,,,,,,,,94,001,2023_May_05_1750,SpeechDraft1Carolyn_lessNoise_PlusLocalization,2021.2.3,60.03033658604913,
gift.wav,gift.mpg,gift,4,AV,Pink_Noise_4_1.wav,Pink_Noise_4_2.wav,,,,,,,,,,,,,,,0,22,22,119,,,,,,,,,,,,,,,,,,,,,,,208.28997253393754,None,209.78983713220805,None,211.17321903910488,None,"gift
",211.17321903910488,None,return,4.201333065982908,211.25654291920364,None,,,,,,,,,,,,,,,,,,,,,,,,,,,,,,,,,,,,,,,94,001,2023_May_05_1750,SpeechDraft1Carolyn_lessNoise_PlusLocalization,2021.2.3,60.03033658604913,
rent.wav,rent.mpg,rent,6,A,Pink_Noise_6_1.wav,Pink_Noise_6_2.wav,,,,,,,,,,,,,,,0,23,23,49,,,,,,,,,,,,,,,,,,,,,,,215.4900101199746,None,216.989560096059,None,218.37349482392892,None,"touch
",218.37349482392892,None,return,3.21729050995782,218.45659111626446,None,,,,,,,,,,,,,,,,,,,,,,,,,,,,,,,,,,,,,,,94,001,2023_May_05_1750,SpeechDraft1Carolyn_lessNoise_PlusLocalization,2021.2.3,60.03033658604913,
blend.wav,blend.mpg,blend,5,A,Pink_Noise_5_1.wav,Pink_Noise_5_2.wav,,,,,,,,,,,,,,,0,24,24,25,,,,,,,,,,,,,,,,,,,,,,,221.70662137120962,None,223.20633788825944,None,224.5900942129083,None,lent,224.5900942129083,None,return,4.8806077293120325,224.67337879398838,None,,,,,,,,,,,,,,,,,,,,,,,,,,,,,,,,,,,,,,,94,001,2023_May_05_1750,SpeechDraft1Carolyn_lessNoise_PlusLocalization,2021.2.3,60.03033658604913,
clad.wav,clad.mpg,clad,5,A,Pink_Noise_5_1.wav,Pink_Noise_5_2.wav,,,,,,,,,,,,,,,0,25,25,44,,,,,,,,,,,,,,,,,,,,,,,229.5733360182494,None,231.07314989110455,None,232.45667131105438,None,cry,232.45667131105438,None,return,2.477904910221696,232.5400201859884,None,,,,,,,,,,,,,,,,,,,,,,,,,,,,,,,,,,,,,,,94,001,2023_May_05_1750,SpeechDraft1Carolyn_lessNoise_PlusLocalization,2021.2.3,60.03033658604913,
bread.wav,bread.mpg,bread,2,A,Pink_Noise_2_1.wav,Pink_Noise_2_2.wav,,,,,,,,,,,,,,,0,26,26,27,,,,,,,,,,,,,,,,,,,,,,,235.04016750492156,None,236.54138562688604,None,237.9235887429677,None,"red
",237.9235887429677,None,return,1.4031000109389424,238.00678295828402,None,,,,,,,,,,,,,,,,,,,,,,,,,,,,,,,,,,,,,,,94,001,2023_May_05_1750,SpeechDraft1Carolyn_lessNoise_PlusLocalization,2021.2.3,60.03033658604913,
cure.wav,cure.mpg,cure,3,A,Pink_Noise_3_1.wav,Pink_Noise_3_2.wav,,,,,,,,,,,,,,,0,27,27,18,,,,,,,,,,,,,,,,,,,,,,,239.43992457725108,None,240.93954140832648,None,242.32334539713338,None,cure,242.32334539713338,None,return,3.9391396553255618,242.40684442594647,None,,,,,,,,,,,,,,,,,,,,,,,,,,,,,,,,,,,,,,,94,001,2023_May_05_1750,SpeechDraft1Carolyn_lessNoise_PlusLocalization,2021.2.3,60.03033658604913,
flesh.wav,flesh.mpg,flesh,6,AV,Pink_Noise_6_1.wav,Pink_Noise_6_2.wav,,,,,,,,,,,,,,,0,28,28,116,,,,,,,,,,,,,,,,,,,,,,,246.37331544188783,None,247.87309560505673,None,249.25672181788832,None,flash,249.25672181788832,None,return,3.5977661670185626,249.34013991430402,None,,,,,,,,,,,,,,,,,,,,,,,,,,,,,,,,,,,,,,,94,001,2023_May_05_1750,SpeechDraft1Carolyn_lessNoise_PlusLocalization,2021.2.3,60.03033658604913,
crisp.wav,crisp.mpg,crisp,2,A,Pink_Noise_2_1.wav,Pink_Noise_2_2.wav,,,,,,,,,,,,,,,0,29,29,13,,,,,,,,,,,,,,,,,,,,,,,252.95672093797475,None,254.45630626613274,None,255.84004465211183,None,crisp,255.84004465211183,None,return,4.054473403841257,255.9234085502103,None,,,,,,,,,,,,,,,,,,,,,,,,,,,,,,,,,,,,,,,94,001,2023_May_05_1750,SpeechDraft1Carolyn_lessNoise_PlusLocalization,2021.2.3,60.03033658604913,
beast.wav,beast.mpg,beast,3,A,Pink_Noise_3_1.wav,Pink_Noise_3_2.wav,,,,,,,,,,,,,,,0,30,30,24,,,,,,,,,,,,,,,,,,,,,,,260.0068473899737,None,261.5065380060114,None,262.8900260850787,None,feast,262.8900260850787,None,return,3.3325708429329097,262.9733890988864,None,,,,,,,,,,,,,,,,,,,,,,,,,,,,,,,,,,,,,,,94,001,2023_May_05_1750,SpeechDraft1Carolyn_lessNoise_PlusLocalization,2021.2.3,60.03033658604913,
toy.wav,toy.mpg,toy,3,A,Pink_Noise_3_1.wav,Pink_Noise_3_2.wav,,,,,,,,,,,,,,,0,31,31,45,,,,,,,,,,,,,,,,,,,,,,,266.3233578391373,None,267.8232872770168,None,269.20671507995576,None,toy,269.20671507995576,None,return,2.399963657837361,269.29005797719583,None,,,,,,,,,,,,,,,,,,,,,,,,,,,,,,,,,,,,,,,94,001,2023_May_05_1750,SpeechDraft1Carolyn_lessNoise_PlusLocalization,2021.2.3,60.03033658604913,
strive.wav,strive.mpg,strive,5,AV,Pink_Noise_5_1.wav,Pink_Noise_5_2.wav,,,,,,,,,,,,,,,0,32,32,62,,,,,,,,,,,,,,,,,,,,,,,271.7069440712221,None,273.2064567892812,None,274.5898811290972,None,"str
",274.5898811290972,None,return,35.58455830672756,274.67340153828263,None,,,,,,,,,,,,,,,,,,,,,,,,,,,,,,,,,,,,,,,94,001,2023_May_05_1750,SpeechDraft1Carolyn_lessNoise_PlusLocalization,2021.2.3,60.03033658604913,
cake.wav,cake.mpg,cake,6,A,Pink_Noise_6_1.wav,Pink_Noise_6_2.wav,,,,,,,,,,,,,,,0,33,33,36,,,,,,,,,,,,,,,,,,,,,,,310.2901034629904,None,311.80647589592263,None,313.1903083352372,None,"
",313.1903083352372,None,return,1.9524635458365083,313.27341852290556,None,,,,,,,,,,,,,,,,,,,,,,,,,,,,,,,,,,,,,,,94,001,2023_May_05_1750,SpeechDraft1Carolyn_lessNoise_PlusLocalization,2021.2.3,60.03033658604913,
duck.wav,duck.mpg,duck,2,A,Pink_Noise_2_1.wav,Pink_Noise_2_2.wav,,,,,,,,,,,,,,,0,34,34,19,,,,,,,,,,,,,,,,,,,,,,,315.27343348320574,None,316.77318035112694,None,318.15672449115664,None,duck,318.15672449115664,None,return,2.537751644849777,318.2401346359402,None,,,,,,,,,,,,,,,,,,,,,,,,,,,,,,,,,,,,,,,94,001,2023_May_05_1750,SpeechDraft1Carolyn_lessNoise_PlusLocalization,2021.2.3,60.03033658604913,
frog.wav,frog.mpg,frog,5,A,Pink_Noise_5_1.wav,Pink_Noise_5_2.wav,,,,,,,,,,,,,,,0,35,35,22,,,,,,,,,,,,,,,,,,,,,,,320.80675105331466,None,322.3066340442747,None,323.6900901021436,None,"fog
",323.6900901021436,None,return,3.6844401070848107,323.7733874740079,None,,,,,,,,,,,,,,,,,,,,,,,,,,,,,,,,,,,,,,,94,001,2023_May_05_1750,SpeechDraft1Carolyn_lessNoise_PlusLocalization,2021.2.3,60.03033658604913,
buzz.wav,buzz.mpg,buzz,4,AV,Pink_Noise_4_1.wav,Pink_Noise_4_2.wav,,,,,,,,,,,,,,,0,36,36,68,,,,,,,,,,,,,,,,,,,,,,,327.49031272297725,None,328.9905794621445,None,330.3734404472634,None,buzz,330.3734404472634,None,return,3.3450530492700636,330.4568340429105,None,,,,,,,,,,,,,,,,,,,,,,,,,,,,,,,,,,,,,,,94,001,2023_May_05_1750,SpeechDraft1Carolyn_lessNoise_PlusLocalization,2021.2.3,60.03033658604913,
fear.wav,fear.mpg,fear,4,AV,Pink_Noise_4_1.wav,Pink_Noise_4_2.wav,,,,,,,,,,,,,,,0,37,37,79,,,,,,,,,,,,,,,,,,,,,,,333.823528053239,None,335.3397366371937,None,336.72343788901344,None,fear,336.72343788901344,None,return,1.6431185137480497,336.8067650143057,None,,,,,,,,,,,,,,,,,,,,,,,,,,,,,,,,,,,,,,,94,001,2023_May_05_1750,SpeechDraft1Carolyn_lessNoise_PlusLocalization,2021.2.3,60.03033658604913,
grab.wav,grab.mpg,grab,5,AV,Pink_Noise_5_1.wav,Pink_Noise_5_2.wav,,,,,,,,,,,,,,,0,38,38,97,,,,,,,,,,,,,,,,,,,,,,,338.4735955023207,None,339.98994728922844,None,341.3735908991657,None,"grab
",341.3735908991657,None,return,3.737075475975871,341.4568053162657,None,,,,,,,,,,,,,,,,,,,,,,,,,,,,,,,,,,,,,,,94,001,2023_May_05_1750,SpeechDraft1Carolyn_lessNoise_PlusLocalization,2021.2.3,60.03033658604913,
brand.wav,brand.mpg,brand,1,A,Pink_Noise_1_1.wav,Pink_Noise_1_2.wav,,,,,,,,,,,,,,,0,39,39,2,,,,,,,,,,,,,,,,,,,,,,,345.2234620801173,None,346.7232154500671,None,348.1070201830007,None,brand,348.1070201830007,None,return,3.3558276523835957,348.19018740113825,None,,,,,,,,,,,,,,,,,,,,,,,,,,,,,,,,,,,,,,,94,001,2023_May_05_1750,SpeechDraft1Carolyn_lessNoise_PlusLocalization,2021.2.3,60.03033658604913,
grain.wav,grain.mpg,grain,5,A,Pink_Noise_5_1.wav,Pink_Noise_5_2.wav,,,,,,,,,,,,,,,0,40,40,37,,,,,,,,,,,,,,,,,,,,,,,351.5736207962036,None,353.07323891622946,None,354.4570308192633,None,crash,354.4570308192633,None,return,3.493719318881631,354.5401742970571,None,,,,,,,,,,,,,,,,,,,,,,,,,,,,,,,,,,,,,,,94,001,2023_May_05_1750,SpeechDraft1Carolyn_lessNoise_PlusLocalization,2021.2.3,60.03033658604913,
clay.wav,clay.mpg,clay,2,AV,Pink_Noise_2_1.wav,Pink_Noise_2_2.wav,,,,,,,,,,,,,,,0,41,41,72,,,,,,,,,,,,,,,,,,,,,,,358.05678884126246,None,359.5733092222363,None,360.9402142772451,None,clang,360.9402142772451,None,return,5.73857095092535,361.0235439762473,None,,,,,,,,,,,,,,,,,,,,,,,,,,,,,,,,,,,,,,,94,001,2023_May_05_1750,SpeechDraft1Carolyn_lessNoise_PlusLocalization,2021.2.3,60.03033658604913,
bump.wav,bump.mpg,bump,4,A,Pink_Noise_4_1.wav,Pink_Noise_4_2.wav,,,,,,,,,,,,,,,0,42,42,10,,,,,,,,,,,,,,,,,,,,,,,366.7901114812121,None,368.3065349571407,None,369.69028061814606,None,boat,369.69028061814606,None,return,5.0443790587596595,369.77349211089313,None,,,,,,,,,,,,,,,,,,,,,,,,,,,,,,,,,,,,,,,94,001,2023_May_05_1750,SpeechDraft1Carolyn_lessNoise_PlusLocalization,2021.2.3,60.03033658604913,
burn.wav,burn.mpg,burn,5,A,Pink_Noise_5_1.wav,Pink_Noise_5_2.wav,,,,,,,,,,,,,,,0,43,43,55,,,,,,,,,,,,,,,,,,,,,,,374.84014235110953,None,376.33974710619077,None,377.72358110686764,None,"grow
",377.72358110686764,None,return,2.0349086560308933,377.8069681492634,None,,,,,,,,,,,,,,,,,,,,,,,,,,,,,,,,,,,,,,,94,001,2023_May_05_1750,SpeechDraft1Carolyn_lessNoise_PlusLocalization,2021.2.3,60.03033658604913,
chump.wav,chump.mpg,chump,1,A,Pink_Noise_1_1.wav,Pink_Noise_1_2.wav,,,,,,,,,,,,,,,0,44,44,40,,,,,,,,,,,,,,,,,,,,,,,379.87358624115586,None,381.37312692031264,None,382.75703713530675,None,chunk,382.75703713530675,None,return,3.673903744202107,382.8401125250384,None,,,,,,,,,,,,,,,,,,,,,,,,,,,,,,,,,,,,,,,94,001,2023_May_05_1750,SpeechDraft1Carolyn_lessNoise_PlusLocalization,2021.2.3,60.03033658604913,
grip.wav,grip.mpg,grip,4,AV,Pink_Noise_4_1.wav,Pink_Noise_4_2.wav,,,,,,,,,,,,,,,0,45,45,85,,,,,,,,,,,,,,,,,,,,,,,386.54034456331283,None,388.040246383287,None,389.42369425529614,None,grip,389.42369425529614,None,return,2.0709960400126874,389.5068885162473,None,,,,,,,,,,,,,,,,,,,,,,,,,,,,,,,,,,,,,,,94,001,2023_May_05_1750,SpeechDraft1Carolyn_lessNoise_PlusLocalization,2021.2.3,60.03033658604913,
belt.wav,belt.mpg,belt,5,AV,Pink_Noise_5_1.wav,Pink_Noise_5_2.wav,,,,,,,,,,,,,,,0,46,46,64,,,,,,,,,,,,,,,,,,,,,,,391.60695778625086,None,393.10668816929683,None,394.49009475903586,None,met,394.49009475903586,None,return,2.7324363379739225,394.57354223309085,None,,,,,,,,,,,,,,,,,,,,,,,,,,,,,,,,,,,,,,,94,001,2023_May_05_1750,SpeechDraft1Carolyn_lessNoise_PlusLocalization,2021.2.3,60.03033658604913,
chip.wav,chip.mpg,chip,5,AV,Pink_Noise_5_1.wav,Pink_Noise_5_2.wav,,,,,,,,,,,,,,,0,47,47,80,,,,,,,,,,,,,,,,,,,,,,,397.32354770507663,None,398.8399106650613,None,400.2235577139072,None,chip,400.2235577139072,None,return,2.575097212102264,400.3068474470638,None,,,,,,,,,,,,,,,,,,,,,,,,,,,,,,,,,,,,,,,94,001,2023_May_05_1750,SpeechDraft1Carolyn_lessNoise_PlusLocalization,2021.2.3,60.03033658604913,
gross.wav,gross.mpg,gross,1,AV,Pink_Noise_1_1.wav,Pink_Noise_1_2.wav,,,,,,,,,,,,,,,0,48,48,100,,,,,,,,,,,,,,,,,,,,,,,402.9069623500109,None,404.4233649522066,None,405.80689356988296,None,gross,405.80689356988296,None,return,3.8076857277192175,405.8902938431129,None,,,,,,,,,,,,,,,,,,,,,,,,,,,,,,,,,,,,,,,94,001,2023_May_05_1750,SpeechDraft1Carolyn_lessNoise_PlusLocalization,2021.2.3,60.03033658604913,
leapt.wav,leapt.mpg,leapt,2,A,Pink_Noise_2_1.wav,Pink_Noise_2_2.wav,,,,,,,,,,,,,,,0,49,49,35,,,,,,,,,,,,,,,,,,,,,,,409.72360099013895,None,411.2233624472283,None,412.6070092129521,None,left,412.6070092129521,None,return,6.8558204639703035,412.6902107610367,None,,,,,,,,,,,,,,,,,,,,,,,,,,,,,,,,,,,,,,,94,001,2023_May_05_1750,SpeechDraft1Carolyn_lessNoise_PlusLocalization,2021.2.3,60.03033658604913,
gab.wav,gab.mpg,gab,3,AV,Pink_Noise_3_1.wav,Pink_Noise_3_2.wav,,,,,,,,,,,,,,,0,50,50,87,,,,,,,,,,,,,,,,,,,,,,,419.57367874728516,None,421.0731744989753,None,422.4570817621425,None,gap,422.4570817621425,None,return,2.3496008734218776,422.54037816030905,None,,,,,,,,,,,,,,,,,,,,,,,,,,,,,,,,,,,,,,,94,001,2023_May_05_1750,SpeechDraft1Carolyn_lessNoise_PlusLocalization,2021.2.3,60.03033658604913,
ghost.wav,ghost.mpg,ghost,2,A,Pink_Noise_2_1.wav,Pink_Noise_2_2.wav,,,,,,,,,,,,,,,0,51,51,33,,,,,,,,,,,,,,,,,,,,,,,424.90723509527743,None,426.42325570899993,None,427.80693765496835,None,"ghost
",427.80693765496835,None,return,3.9516462408937514,427.89026715187356,None,,,,,,,,,,,,,,,,,,,,,,,,,,,,,,,,,,,,,,,94,001,2023_May_05_1750,SpeechDraft1Carolyn_lessNoise_PlusLocalization,2021.2.3,60.03033658604913,
damp.wav,damp.mpg,damp,3,AV,Pink_Noise_3_1.wav,Pink_Noise_3_2.wav,,,,,,,,,,,,,,,0,52,52,109,,,,,,,,,,,,,,,,,,,,,,,431.8735350179486,None,433.3734817551449,None,434.75696256989613,None,damp,434.75696256989613,None,return,1.8095638221129775,434.84031489118934,None,,,,,,,,,,,,,,,,,,,,,,,,,,,,,,,,,,,,,,,94,001,2023_May_05_1750,SpeechDraft1Carolyn_lessNoise_PlusLocalization,2021.2.3,60.03033658604913,
style.wav,style.mpg,style,3,AV,Pink_Noise_3_1.wav,Pink_Noise_3_2.wav,,,,,,,,,,,,,,,0,53,53,104,,,,,,,,,,,,,,,,,,,,,,,436.67387509392574,None,438.17327457806095,None,439.5570919611491,None,style,439.5570919611491,None,return,5.777492078952491,439.640366808977,None,,,,,,,,,,,,,,,,,,,,,,,,,,,,,,,,,,,,,,,94,001,2023_May_05_1750,SpeechDraft1Carolyn_lessNoise_PlusLocalization,2021.2.3,60.03033658604913,
blade.wav,blade.mpg,blade,6,A,Pink_Noise_6_1.wav,Pink_Noise_6_2.wav,,,,,,,,,,,,,,,0,54,54,41,,,,,,,,,,,,,,,,,,,,,,,445.4406652143225,None,446.95670724101365,None,448.34048985829577,None,,448.34048985829577,None,return,1.482439530082047,448.42370932688937,None,,,,,,,,,,,,,,,,,,,,,,,,,,,,,,,,,,,,,,,94,001,2023_May_05_1750,SpeechDraft1Carolyn_lessNoise_PlusLocalization,2021.2.3,60.03033658604913,
chomp.wav,chomp.mpg,chomp,3,A,Pink_Noise_3_1.wav,Pink_Noise_3_2.wav,,,,,,,,,,,,,,,0,55,55,47,,,,,,,,,,,,,,,,,,,,,,,449.9249301222153,None,451.44014324527234,None,452.82381126703694,None,chug,452.82381126703694,None,return,4.726920779794455,452.90698478603736,None,,,,,,,,,,,,,,,,,,,,,,,,,,,,,,,,,,,,,,,94,001,2023_May_05_1750,SpeechDraft1Carolyn_lessNoise_PlusLocalization,2021.2.3,60.03033658604913,
druid.wav,druid.mpg,druid,4,AV,Pink_Noise_4_1.wav,Pink_Noise_4_2.wav,,,,,,,,,,,,,,,0,56,56,92,,,,,,,,,,,,,,,,,,,,,,,457.6571605489589,None,459.15685871522874,None,460.54031261615455,None,jewelry,460.54031261615455,None,return,3.3462302796542645,460.62370771402493,None,,,,,,,,,,,,,,,,,,,,,,,,,,,,,,,,,,,,,,,94,001,2023_May_05_1750,SpeechDraft1Carolyn_lessNoise_PlusLocalization,2021.2.3,60.03033658604913,
roast.wav,roast.mpg,roast,4,A,Pink_Noise_4_1.wav,Pink_Noise_4_2.wav,,,,,,,,,,,,,,,0,57,57,16,,,,,,,,,,,,,,,,,,,,,,,463.9902585269883,None,465.48996039899066,None,466.873720579315,None,ghost,466.873720579315,None,return,2.3649212270975113,466.9570311610587,None,,,,,,,,,,,,,,,,,,,,,,,,,,,,,,,,,,,,,,,94,001,2023_May_05_1750,SpeechDraft1Carolyn_lessNoise_PlusLocalization,2021.2.3,60.03033658604913,
dish.wav,dish.mpg,dish,4,AV,Pink_Noise_4_1.wav,Pink_Noise_4_2.wav,,,,,,,,,,,,,,,0,58,58,73,,,,,,,,,,,,,,,,,,,,,,,469.3403978901915,None,470.8400356741622,None,472.2236130340025,None,dish,472.2236130340025,None,return,2.207018320914358,472.30702193500474,None,,,,,,,,,,,,,,,,,,,,,,,,,,,,,,,,,,,,,,,94,001,2023_May_05_1750,SpeechDraft1Carolyn_lessNoise_PlusLocalization,2021.2.3,60.03033658604913,
phase.wav,phase.mpg,phase,5,AV,Pink_Noise_5_1.wav,Pink_Noise_5_2.wav,,,,,,,,,,,,,,,0,59,59,106,,,,,,,,,,,,,,,,,,,,,,,474.54040535120293,None,476.05662357015535,None,477.4402383659035,None,face,477.4402383659035,None,return,4.566208054777235,477.52375380229205,None,,,,,,,,,,,,,,,,,,,,,,,,,,,,,,,,,,,,,,,94,001,2023_May_05_1750,SpeechDraft1Carolyn_lessNoise_PlusLocalization,2021.2.3,60.03033658604913,
hit.wav,hit.mpg,hit,4,A,Pink_Noise_4_1.wav,Pink_Noise_4_2.wav,,,,,,,,,,,,,,,0,60,60,54,,,,,,,,,,,,,,,,,,,,,,,482.10701348120347,None,483.6066372501664,None,484.9904338158667,None,fit,484.9904338158667,None,return,2.2081755283288658,485.073796837125,None,,,,,,,,,,,,,,,,,,,,,,,,,,,,,,,,,,,,,,,94,001,2023_May_05_1750,SpeechDraft1Carolyn_lessNoise_PlusLocalization,2021.2.3,60.03033658604913,
build.wav,build.mpg,build,1,A,Pink_Noise_1_1.wav,Pink_Noise_1_2.wav,,,,,,,,,,,,,,,0,61,61,20,,,,,,,,,,,,,,,,,,,,,,,487.3070141142234,None,488.8234238671139,None,490.20725774625316,None,build,490.20725774625316,None,return,2.1114268670789897,490.2904589623213,None,,,,,,,,,,,,,,,,,,,,,,,,,,,,,,,,,,,,,,,94,001,2023_May_05_1750,SpeechDraft1Carolyn_lessNoise_PlusLocalization,2021.2.3,60.03033658604913,
bath.wav,bath.mpg,bath,5,AV,Pink_Noise_5_1.wav,Pink_Noise_5_2.wav,,,,,,,,,,,,,,,0,62,62,66,,,,,,,,,,,,,,,,,,,,,,,492.42387805506587,None,493.92362269805744,None,495.3071133121848,None,"math
",495.3071133121848,None,return,2.6194860260002315,495.39039720688015,None,,,,,,,,,,,,,,,,,,,,,,,,,,,,,,,,,,,,,,,94,001,2023_May_05_1750,SpeechDraft1Carolyn_lessNoise_PlusLocalization,2021.2.3,60.03033658604913,
code.wav,code.mpg,code,2,A,Pink_Noise_2_1.wav,Pink_Noise_2_2.wav,,,,,,,,,,,,,,,0,63,63,1,,,,,,,,,,,,,,,,,,,,,,,498.0406830930151,None,499.5569258010946,None,500.94039324996993,None,"code
",500.94039324996993,None,return,2.0342257590964437,501.02366123721004,None,,,,,,,,,,,,,,,,,,,,,,,,,,,,,,,,,,,,,,,94,001,2023_May_05_1750,SpeechDraft1Carolyn_lessNoise_PlusLocalization,2021.2.3,60.03033658604913,
deck.wav,deck.mpg,deck,6,A,Pink_Noise_6_1.wav,Pink_Noise_6_2.wav,,,,,,,,,,,,,,,0,64,64,30,,,,,,,,,,,,,,,,,,,,,,,503.0903799762018,None,504.5900735273026,None,505.9737802762538,None,,505.9737802762538,None,return,0.7927432837896049,506.0571285933256,None,,,,,,,,,,,,,,,,,,,,,,,,,,,,,,,,,,,,,,,94,001,2023_May_05_1750,SpeechDraft1Carolyn_lessNoise_PlusLocalization,2021.2.3,60.03033658604913,
dull.wav,dull.mpg,dull,3,A,Pink_Noise_3_1.wav,Pink_Noise_3_2.wav,,,,,,,,,,,,,,,0,65,65,11,,,,,,,,,,,,,,,,,,,,,,,506.8751081433147,None,508.3900212459266,None,509.7736933073029,None,dull,509.7736933073029,None,return,5.176918881945312,509.8569739209488,None,,,,,,,,,,,,,,,,,,,,,,,,,,,,,,,,,,,,,,,94,001,2023_May_05_1750,SpeechDraft1Carolyn_lessNoise_PlusLocalization,2021.2.3,60.03033658604913,
gust.wav,gust.mpg,gust,3,AV,Pink_Noise_3_1.wav,Pink_Noise_3_2.wav,,,,,,,,,,,,,,,0,66,66,61,,,,,,,,,,,,,,,,,,,,,,,515.0571164190769,None,516.5570229981095,None,517.9404264981858,None,gust,517.9404264981858,None,return,2.3541480931453407,518.0237347912043,None,,,,,,,,,,,,,,,,,,,,,,,,,,,,,,,,,,,,,,,94,001,2023_May_05_1750,SpeechDraft1Carolyn_lessNoise_PlusLocalization,2021.2.3,60.03033658604913,
bench.wav,bench.mpg,bench,6,A,Pink_Noise_6_1.wav,Pink_Noise_6_2.wav,,,,,,,,,,,,,,,0,67,67,31,,,,,,,,,,,,,,,,,,,,,,,520.4071385911666,None,521.9069121088833,None,523.290458638221,None,punch,523.290458638221,None,return,2.3481699768453836,523.3737762151286,None,,,,,,,,,,,,,,,,,,,,,,,,,,,,,,,,,,,,,,,94,001,2023_May_05_1750,SpeechDraft1Carolyn_lessNoise_PlusLocalization,2021.2.3,60.03033658604913,
coin.wav,coin.mpg,coin,3,A,Pink_Noise_3_1.wav,Pink_Noise_3_2.wav,,,,,,,,,,,,,,,0,68,68,29,,,,,,,,,,,,,,,,,,,,,,,525.7403372880071,None,527.2567430539057,None,528.640629529953,None,"coiin
",528.640629529953,None,return,1.5022509898990393,528.7236305898987,None,,,,,,,,,,,,,,,,,,,,,,,,,,,,,,,,,,,,,,,94,001,2023_May_05_1750,SpeechDraft1Carolyn_lessNoise_PlusLocalization,2021.2.3,60.03033658604913,
peach.wav,peach.mpg,peach,2,AV,Pink_Noise_2_1.wav,Pink_Noise_2_2.wav,,,,,,,,,,,,,,,0,69,69,77,,,,,,,,,,,,,,,,,,,,,,,530.2572544128634,None,531.7734798830934,None,533.1569524742663,None,peach,533.1569524742663,None,return,1.745272722095251,533.2406113869511,None,,,,,,,,,,,,,,,,,,,,,,,,,,,,,,,,,,,,,,,94,001,2023_May_05_1750,SpeechDraft1Carolyn_lessNoise_PlusLocalization,2021.2.3,60.03033658604913,
feast.wav,feast.mpg,feast,5,AV,Pink_Noise_5_1.wav,Pink_Noise_5_2.wav,,,,,,,,,,,,,,,0,70,70,93,,,,,,,,,,,,,,,,,,,,,,,535.0070949750952,None,536.5235241111368,None,537.9070071959868,None,feet,537.9070071959868,None,return,1.539611762855202,537.9903666051105,None,,,,,,,,,,,,,,,,,,,,,,,,,,,,,,,,,,,,,,,94,001,2023_May_05_1750,SpeechDraft1Carolyn_lessNoise_PlusLocalization,2021.2.3,60.03033658604913,
bye.wav,bye.mpg,bye,1,A,Pink_Noise_1_1.wav,Pink_Noise_1_2.wav,,,,,,,,,,,,,,,0,71,71,59,,,,,,,,,,,,,,,,,,,,,,,539.5569910588674,None,541.0734231779352,None,542.4570846413262,None,buy,542.4570846413262,None,return,3.7815447840839624,542.540403323248,None,,,,,,,,,,,,,,,,,,,,,,,,,,,,,,,,,,,,,,,94,001,2023_May_05_1750,SpeechDraft1Carolyn_lessNoise_PlusLocalization,2021.2.3,60.03033658604913,
foam.wav,foam.mpg,foam,6,A,Pink_Noise_6_1.wav,Pink_Noise_6_2.wav,,,,,,,,,,,,,,,0,72,72,28,,,,,,,,,,,,,,,,,,,,,,,546.340494948905,None,547.8566547529772,None,549.2405759780668,None,gone,549.2405759780668,None,return,5.109954854939133,549.3239145660773,None,,,,,,,,,,,,,,,,,,,,,,,,,,,,,,,,,,,,,,,94,001,2023_May_05_1750,SpeechDraft1Carolyn_lessNoise_PlusLocalization,2021.2.3,60.03033658604913,
cramp.wav,cramp.mpg,cramp,2,AV,Pink_Noise_2_1.wav,Pink_Noise_2_2.wav,,,,,,,,,,,,,,,0,73,73,96,,,,,,,,,,,,,,,,,,,,,,,554.4573030481115,None,556.0067471670918,None,557.3903270941228,None,cramp,557.3903270941228,None,return,1.824248403776437,557.4737344300374,None,,,,,,,,,,,,,,,,,,,,,,,,,,,,,,,,,,,,,,,94,001,2023_May_05_1750,SpeechDraft1Carolyn_lessNoise_PlusLocalization,2021.2.3,60.03033658604913,
dance.wav,dance.mpg,dance,1,AV,Pink_Noise_1_1.wav,Pink_Noise_1_2.wav,,,,,,,,,,,,,,,0,74,74,75,,,,,,,,,,,,,,,,,,,,,,,559.3238575030118,None,560.8400050862692,None,562.2239646823145,None,dance,562.2239646823145,None,return,1.7990285782143474,562.307022461202,None,,,,,,,,,,,,,,,,,,,,,,,,,,,,,,,,,,,,,,,94,001,2023_May_05_1750,SpeechDraft1Carolyn_lessNoise_PlusLocalization,2021.2.3,60.03033658604913,
blow.wav,blow.mpg,blow,1,A,Pink_Noise_1_1.wav,Pink_Noise_1_2.wav,,,,,,,,,,,,,,,0,75,75,58,,,,,,,,,,,,,,,,,,,,,,,564.1238175858743,None,565.6399583029561,None,567.0239315531217,None,blow,567.0239315531217,None,return,1.3748418749310076,567.1071690279059,None,,,,,,,,,,,,,,,,,,,,,,,,,,,,,,,,,,,,,,,94,001,2023_May_05_1750,SpeechDraft1Carolyn_lessNoise_PlusLocalization,2021.2.3,60.03033658604913,
cord.wav,cord.mpg,cord,4,A,Pink_Noise_4_1.wav,Pink_Noise_4_2.wav,,,,,,,,,,,,,,,0,76,76,57,,,,,,,,,,,,,,,,,,,,,,,568.5072345212102,None,570.0234295171686,None,571.4072538372129,None,toy,571.4072538372129,None,return,1.2313088742084801,571.4905630089343,None,,,,,,,,,,,,,,,,,,,,,,,,,,,,,,,,,,,,,,,94,001,2023_May_05_1750,SpeechDraft1Carolyn_lessNoise_PlusLocalization,2021.2.3,60.03033658604913,
gun.wav,gun.mpg,gun,3,A,Pink_Noise_3_1.wav,Pink_Noise_3_2.wav,,,,,,,,,,,,,,,0,77,77,32,,,,,,,,,,,,,,,,,,,,,,,572.7403774531558,None,574.2567377090454,None,575.6405869820155,None,gun,575.6405869820155,None,return,1.3660976220853627,575.7238678229041,None,,,,,,,,,,,,,,,,,,,,,,,,,,,,,,,,,,,,,,,94,001,2023_May_05_1750,SpeechDraft1Carolyn_lessNoise_PlusLocalization,2021.2.3,60.03033658604913,
pop.wav,pop.mpg,pop,6,AV,Pink_Noise_6_1.wav,Pink_Noise_6_2.wav,,,,,,,,,,,,,,,0,78,78,99,,,,,,,,,,,,,,,,,,,,,,,577.1071641701274,None,578.6235556220636,None,580.007191455923,None,mop,580.007191455923,None,return,4.063454192131758,580.0904931831174,None,,,,,,,,,,,,,,,,,,,,,,,,,,,,,,,,,,,,,,,94,001,2023_May_05_1750,SpeechDraft1Carolyn_lessNoise_PlusLocalization,2021.2.3,60.03033658604913,
crime.wav,crime.mpg,crime,6,AV,Pink_Noise_6_1.wav,Pink_Noise_6_2.wav,,,,,,,,,,,,,,,0,79,79,83,,,,,,,,,,,,,,,,,,,,,,,584.1738071949221,None,585.7069630320184,None,587.0902878348716,None,"crime
",587.0902878348716,None,return,1.9000253081321716,587.17385856295,None,,,,,,,,,,,,,,,,,,,,,,,,,,,,,,,,,,,,,,,94,001,2023_May_05_1750,SpeechDraft1Carolyn_lessNoise_PlusLocalization,2021.2.3,60.03033658604913,
bright.wav,bright.mpg,bright,5,A,Pink_Noise_5_1.wav,Pink_Noise_5_2.wav,,,,,,,,,,,,,,,0,80,80,8,,,,,,,,,,,,,,,,,,,,,,,589.1071260301396,None,590.6235338589177,None,592.0071315811947,None,,592.0071315811947,None,return,2.8872389220632613,592.0906240930781,None,,,,,,,,,,,,,,,,,,,,,,,,,,,,,,,,,,,,,,,94,001,2023_May_05_1750,SpeechDraft1Carolyn_lessNoise_PlusLocalization,2021.2.3,60.03033658604913,
strike.wav,strike.mpg,strike,3,AV,Pink_Noise_3_1.wav,Pink_Noise_3_2.wav,,,,,,,,,,,,,,,0,81,81,89,,,,,,,,,,,,,,,,,,,,,,,595.007259093225,None,596.5239092041738,None,597.907136335969,None,stretch,597.907136335969,None,return,4.115416949149221,597.9905996052548,None,,,,,,,,,,,,,,,,,,,,,,,,,,,,,,,,,,,,,,,94,001,2023_May_05_1750,SpeechDraft1Carolyn_lessNoise_PlusLocalization,2021.2.3,60.03033658604913,
chore.wav,chore.mpg,chore,3,AV,Pink_Noise_3_1.wav,Pink_Noise_3_2.wav,,,,,,,,,,,,,,,0,82,82,113,,,,,,,,,,,,,,,,,,,,,,,602.1238232692704,None,603.6402672692202,None,605.0236603231169,None,troy,605.0236603231169,None,return,3.7264696350321174,605.1073879902251,None,,,,,,,,,,,,,,,,,,,,,,,,,,,,,,,,,,,,,,,94,001,2023_May_05_1750,SpeechDraft1Carolyn_lessNoise_PlusLocalization,2021.2.3,60.03033658604913,
box.wav,box.mpg,box,2,AV,Pink_Noise_2_1.wav,Pink_Noise_2_2.wav,,,,,,,,,,,,,,,0,83,83,105,,,,,,,,,,,,,,,,,,,,,,,608.8572202040814,None,610.3734391853213,None,611.7572503509,None,bugs,611.7572503509,None,return,4.43329958897084,611.8405971201137,None,,,,,,,,,,,,,,,,,,,,,,,,,,,,,,,,,,,,,,,94,001,2023_May_05_1750,SpeechDraft1Carolyn_lessNoise_PlusLocalization,2021.2.3,60.03033658604913,
count.wav,count.mpg,count,4,A,Pink_Noise_4_1.wav,Pink_Noise_4_2.wav,,,,,,,,,,,,,,,0,84,84,23,,,,,,,,,,,,,,,,,,,,,,,616.2905177623034,None,617.8069382980466,None,619.1905026640743,None,toast,619.1905026640743,None,return,2.160001076757908,619.2738941502757,None,,,,,,,,,,,,,,,,,,,,,,,,,,,,,,,,,,,,,,,94,001,2023_May_05_1750,SpeechDraft1Carolyn_lessNoise_PlusLocalization,2021.2.3,60.03033658604913,
greek.wav,greek.mpg,greek,1,A,Pink_Noise_1_1.wav,Pink_Noise_1_2.wav,,,,,,,,,,,,,,,0,85,85,6,,,,,,,,,,,,,,,,,,,,,,,621.457240450196,None,622.9902754588984,None,624.3738683611155,None,greek,624.3738683611155,None,return,1.84858154412359,624.457427166868,None,,,,,,,,,,,,,,,,,,,,,,,,,,,,,,,,,,,,,,,94,001,2023_May_05_1750,SpeechDraft1Carolyn_lessNoise_PlusLocalization,2021.2.3,60.03033658604913,
carve.wav,carve.mpg,carve,6,AV,Pink_Noise_6_1.wav,Pink_Noise_6_2.wav,,,,,,,,,,,,,,,0,86,86,117,,,,,,,,,,,,,,,,,,,,,,,626.3241534959525,None,627.8404047801159,None,629.2238840661012,None,love,629.2238840661012,None,return,2.3585092797875404,629.3073844932951,None,,,,,,,,,,,,,,,,,,,,,,,,,,,,,,,,,,,,,,,94,001,2023_May_05_1750,SpeechDraft1Carolyn_lessNoise_PlusLocalization,2021.2.3,60.03033658604913,
fit.wav,fit.mpg,fit,3,AV,Pink_Noise_3_1.wav,Pink_Noise_3_2.wav,,,,,,,,,,,,,,,0,87,87,78,,,,,,,,,,,,,,,,,,,,,,,631.6905978000723,None,633.2235838002525,None,634.6072248602286,None,fit,634.6072248602286,None,return,1.2473346930928528,634.6905422671698,None,,,,,,,,,,,,,,,,,,,,,,,,,,,,,,,,,,,,,,,94,001,2023_May_05_1750,SpeechDraft1Carolyn_lessNoise_PlusLocalization,2021.2.3,60.03033658604913,
tomb.wav,tomb.mpg,tomb,4,A,Pink_Noise_4_1.wav,Pink_Noise_4_2.wav,,,,,,,,,,,,,,,0,88,88,52,,,,,,,,,,,,,,,,,,,,,,,635.9572339081205,None,637.4904249212705,None,638.8739394070581,None,tool,638.8739394070581,None,return,1.1644669817760587,638.95741611626,None,,,,,,,,,,,,,,,,,,,,,,,,,,,,,,,,,,,,,,,94,001,2023_May_05_1750,SpeechDraft1Carolyn_lessNoise_PlusLocalization,2021.2.3,60.03033658604913,
dock.wav,dock.mpg,dock,3,A,Pink_Noise_3_1.wav,Pink_Noise_3_2.wav,,,,,,,,,,,,,,,0,89,89,50,,,,,,,,,,,,,,,,,,,,,,,640.1405071630143,None,641.6403072890826,None,643.0239043449983,None,"duck
",643.0239043449983,None,return,1.5184867321513593,643.1073976969346,None,,,,,,,,,,,,,,,,,,,,,,,,,,,,,,,,,,,,,,,94,001,2023_May_05_1750,SpeechDraft1Carolyn_lessNoise_PlusLocalization,2021.2.3,60.03033658604913,
squat.wav,squat.mpg,squat,3,AV,Pink_Noise_3_1.wav,Pink_Noise_3_2.wav,,,,,,,,,,,,,,,0,90,90,91,,,,,,,,,,,,,,,,,,,,,,,644.6571869822219,None,646.1739627378993,None,647.5578000028618,None,"squat
",647.5578000028618,None,return,8.5692940056324,647.64058930194,None,,,,,,,,,,,,,,,,,,,,,,,,,,,,,,,,,,,,,,,94,001,2023_May_05_1750,SpeechDraft1Carolyn_lessNoise_PlusLocalization,2021.2.3,60.03033658604913,
bass.wav,bass.mpg,bass,1,AV,Pink_Noise_1_1.wav,Pink_Noise_1_2.wav,,,,,,,,,,,,,,,0,91,91,90,,,,,,,,,,,,,,,,,,,,,,,656.2406553179026,None,657.7568760942668,None,659.140569627285,None,"base
",659.140569627285,None,return,1.2179652550257742,659.2239314299077,None,,,,,,,,,,,,,,,,,,,,,,,,,,,,,,,,,,,,,,,94,001,2023_May_05_1750,SpeechDraft1Carolyn_lessNoise_PlusLocalization,2021.2.3,60.03033658604913,
two.wav,two.mpg,two,2,A,Pink_Noise_2_1.wav,Pink_Noise_2_2.wav,,,,,,,,,,,,,,,0,92,92,7,,,,,,,,,,,,,,,,,,,,,,,660.4739044723101,None,661.9752828371711,None,663.3572777099907,None,"tomb
",663.3572777099907,None,return,2.617299075704068,663.4405991928652,None,,,,,,,,,,,,,,,,,,,,,,,,,,,,,,,,,,,,,,,94,001,2023_May_05_1750,SpeechDraft1Carolyn_lessNoise_PlusLocalization,2021.2.3,60.03033658604913,
earn.wav,earn.mpg,earn,1,AV,Pink_Noise_1_1.wav,Pink_Noise_1_2.wav,,,,,,,,,,,,,,,0,93,93,81,,,,,,,,,,,,,,,,,,,,,,,666.0905240019783,None,667.6071584769525,None,668.9904146962799,None,"earn
",668.9904146962799,None,return,1.5358800501562655,669.074007244315,None,,,,,,,,,,,,,,,,,,,,,,,,,,,,,,,,,,,,,,,94,001,2023_May_05_1750,SpeechDraft1Carolyn_lessNoise_PlusLocalization,2021.2.3,60.03033658604913,
coil.wav,coil.mpg,coil,3,AV,Pink_Noise_3_1.wav,Pink_Noise_3_2.wav,,,,,,,,,,,,,,,0,94,94,98,,,,,,,,,,,,,,,,,,,,,,,670.6407394739799,None,672.1741535211913,None,673.5573025578633,None,,673.5573025578633,None,return,4.289587929844856,673.6405121190473,None,,,,,,,,,,,,,,,,,,,,,,,,,,,,,,,,,,,,,,,94,001,2023_May_05_1750,SpeechDraft1Carolyn_lessNoise_PlusLocalization,2021.2.3,60.03033658604913,
choir.wav,choir.mpg,choir,4,AV,Pink_Noise_4_1.wav,Pink_Noise_4_2.wav,,,,,,,,,,,,,,,0,95,95,82,,,,,,,,,,,,,,,,,,,,,,,677.9574414012022,None,679.4904311369173,None,680.8739938801154,None,quiet,680.8739938801154,None,return,7.876647572033107,680.957229853142,None,,,,,,,,,,,,,,,,,,,,,,,,,,,,,,,,,,,,,,,94,001,2023_May_05_1750,SpeechDraft1Carolyn_lessNoise_PlusLocalization,2021.2.3,60.03033658604913,
draw.wav,draw.mpg,draw,1,AV,Pink_Noise_1_1.wav,Pink_Noise_1_2.wav,,,,,,,,,,,,,,,0,96,96,115,,,,,,,,,,,,,,,,,,,,,,,688.8572206832469,None,690.375104914885,None,691.7573038418777,None,"draw
",691.7573038418777,None,return,1.8172490098513663,691.8406156501733,None,,,,,,,,,,,,,,,,,,,,,,,,,,,,,,,,,,,,,,,94,001,2023_May_05_1750,SpeechDraft1Carolyn_lessNoise_PlusLocalization,2021.2.3,60.03033658604913,
ease.wav,ease.mpg,ease,6,AV,Pink_Noise_6_1.wav,Pink_Noise_6_2.wav,,,,,,,,,,,,,,,0,97,97,94,,,,,,,,,,,,,,,,,,,,,,,693.6905437079258,None,695.2070281160995,None,696.5906842988916,None,tease,696.5906842988916,None,return,4.816019060090184,696.6740881791338,None,,,,,,,,,,,,,,,,,,,,,,,,,,,,,,,,,,,,,,,94,001,2023_May_05_1750,SpeechDraft1Carolyn_lessNoise_PlusLocalization,2021.2.3,60.03033658604913,
dwell.wav,dwell.mpg,dwell,6,AV,Pink_Noise_6_1.wav,Pink_Noise_6_2.wav,,,,,,,,,,,,,,,0,98,98,74,,,,,,,,,,,,,,,,,,,,,,,701.5073196189478,None,703.0239500999451,None,704.4073217459954,None,"dwell
",704.4073217459954,None,return,4.551234962418675,704.4906460270286,None,,,,,,,,,,,,,,,,,,,,,,,,,,,,,,,,,,,,,,,94,001,2023_May_05_1750,SpeechDraft1Carolyn_lessNoise_PlusLocalization,2021.2.3,60.03033658604913,
bad.wav,bad.mpg,bad,1,A,Pink_Noise_1_1.wav,Pink_Noise_1_2.wav,,,,,,,,,,,,,,,0,99,99,26,,,,,,,,,,,,,,,,,,,,,,,709.0742491059937,None,710.6069308333099,None,711.9907587491907,None,"bad
",711.9907587491907,None,return,1.335625753737986,712.0742558222264,None,,,,,,,,,,,,,,,,,,,,,,,,,,,,,,,,,,,,,,,94,001,2023_May_05_1750,SpeechDraft1Carolyn_lessNoise_PlusLocalization,2021.2.3,60.03033658604913,
drop.wav,drop.mpg,drop,3,A,Pink_Noise_3_1.wav,Pink_Noise_3_2.wav,,,,,,,,,,,,,,,0,100,100,51,,,,,,,,,,,,,,,,,,,,,,,713.4407662139274,None,714.9735518759117,None,716.3574677510187,None,drunk,716.3574677510187,None,return,8.081074693705887,716.440797440242,None,,,,,,,,,,,,,,,,,,,,,,,,,,,,,,,,,,,,,,,94,001,2023_May_05_1750,SpeechDraft1Carolyn_lessNoise_PlusLocalization,2021.2.3,60.03033658604913,
fluent.wav,fluent.mpg,fluent,1,A,Pink_Noise_1_1.wav,Pink_Noise_1_2.wav,,,,,,,,,,,,,,,0,101,101,38,,,,,,,,,,,,,,,,,,,,,,,724.540835712105,None,726.0736021441408,None,727.4573163213208,None,fluid,727.4573163213208,None,return,2.2132646599784493,727.5406845370308,None,,,,,,,,,,,,,,,,,,,,,,,,,,,,,,,,,,,,,,,94,001,2023_May_05_1750,SpeechDraft1Carolyn_lessNoise_PlusLocalization,2021.2.3,60.03033658604913,
fierce.wav,fierce.mpg,fierce,3,AV,Pink_Noise_3_1.wav,Pink_Noise_3_2.wav,,,,,,,,,,,,,,,0,102,102,118,,,,,,,,,,,,,,,,,,,,,,,729.7740659420379,None,731.307120047044,None,732.6907719559968,None,"fierce
",732.6907719559968,None,return,1.68378991400823,732.7741076922975,None,,,,,,,,,,,,,,,,,,,,,,,,,,,,,,,,,,,,,,,94,001,2023_May_05_1750,SpeechDraft1Carolyn_lessNoise_PlusLocalization,2021.2.3,60.03033658604913,
glare.wav,glare.mpg,glare,4,AV,Pink_Noise_4_1.wav,Pink_Noise_4_2.wav,,,,,,,,,,,,,,,0,103,103,114,,,,,,,,,,,,,,,,,,,,,,,734.4908265201375,None,736.0070490068756,None,737.3907591658644,None,clair,737.3907591658644,None,return,11.343768366146833,737.4740892578848,None,,,,,,,,,,,,,,,,,,,,,,,,,,,,,,,,,,,,,,,94,001,2023_May_05_1750,SpeechDraft1Carolyn_lessNoise_PlusLocalization,2021.2.3,60.03033658604913,
bee.wav,bee.mpg,bee,2,AV,Pink_Noise_2_1.wav,Pink_Noise_2_2.wav,,,,,,,,,,,,,,,0,104,104,60,,,,,,,,,,,,,,,,,,,,,,,748.8407998438925,None,750.3571229223162,None,751.7405915269628,None,big,751.7405915269628,None,return,1.1617524093016982,751.8241246188991,None,,,,,,,,,,,,,,,,,,,,,,,,,,,,,,,,,,,,,,,94,001,2023_May_05_1750,SpeechDraft1Carolyn_lessNoise_PlusLocalization,2021.2.3,60.03033658604913,
dice.wav,dice.mpg,dice,6,A,Pink_Noise_6_1.wav,Pink_Noise_6_2.wav,,,,,,,,,,,,,,,0,105,105,56,,,,,,,,,,,,,,,,,,,,,,,753.0075986552984,None,754.5238589132205,None,755.9073617840186,None,,755.9073617840186,None,return,0.987122745718807,755.9907577391714,None,,,,,,,,,,,,,,,,,,,,,,,,,,,,,,,,,,,,,,,94,001,2023_May_05_1750,SpeechDraft1Carolyn_lessNoise_PlusLocalization,2021.2.3,60.03033658604913,
buff.wav,buff.mpg,buff,1,AV,Pink_Noise_1_1.wav,Pink_Noise_1_2.wav,,,,,,,,,,,,,,,0,106,106,102,,,,,,,,,,,,,,,,,,,,,,,757.0085506592877,None,758.5572465062141,None,759.9407329158857,None,buff,759.9407329158857,None,return,2.8738985168747604,760.0241358252242,None,,,,,,,,,,,,,,,,,,,,,,,,,,,,,,,,,,,,,,,94,001,2023_May_05_1750,SpeechDraft1Carolyn_lessNoise_PlusLocalization,2021.2.3,60.03033658604913,
gray.wav,gray.mpg,gray,1,AV,Pink_Noise_1_1.wav,Pink_Noise_1_2.wav,,,,,,,,,,,,,,,0,107,107,86,,,,,,,,,,,,,,,,,,,,,,,762.9241806869395,None,764.4570250040852,None,765.840829687193,None,grey,765.840829687193,None,return,0.8936262573115528,765.9242396410555,None,,,,,,,,,,,,,,,,,,,,,,,,,,,,,,,,,,,,,,,94,001,2023_May_05_1750,SpeechDraft1Carolyn_lessNoise_PlusLocalization,2021.2.3,60.03033658604913,
shut.wav,shut.mpg,shut,2,AV,Pink_Noise_2_1.wav,Pink_Noise_2_2.wav,,,,,,,,,,,,,,,0,108,108,71,,,,,,,,,,,,,,,,,,,,,,,766.8409193200059,None,768.373766511213,None,769.7574511491694,None,shut,769.7574511491694,None,return,1.2733482769690454,769.8407762879506,None,,,,,,,,,,,,,,,,,,,,,,,,,,,,,,,,,,,,,,,94,001,2023_May_05_1750,SpeechDraft1Carolyn_lessNoise_PlusLocalization,2021.2.3,60.03033658604913,
chant.wav,chant.mpg,chant,6,A,Pink_Noise_6_1.wav,Pink_Noise_6_2.wav,,,,,,,,,,,,,,,0,109,109,42,,,,,,,,,,,,,,,,,,,,,,,771.1408464172855,None,772.6572007611394,None,774.0409444603138,None,,774.0409444603138,None,return,0.8778087859973311,774.1240535611287,None,,,,,,,,,,,,,,,,,,,,,,,,,,,,,,,,,,,,,,,94,001,2023_May_05_1750,SpeechDraft1Carolyn_lessNoise_PlusLocalization,2021.2.3,60.03033658604913,
swamp.wav,swamp.mpg,swamp,2,A,Pink_Noise_2_1.wav,Pink_Noise_2_2.wav,,,,,,,,,,,,,,,0,110,110,15,,,,,,,,,,,,,,,,,,,,,,,775.0250088851899,None,776.5412252200767,None,777.9241509819403,None,swamp,777.9241509819403,None,return,2.8825585851445794,778.0074574830942,None,,,,,,,,,,,,,,,,,,,,,,,,,,,,,,,,,,,,,,,94,001,2023_May_05_1750,SpeechDraft1Carolyn_lessNoise_PlusLocalization,2021.2.3,60.03033658604913,
wind.wav,wind.mpg,wind,3,A,Pink_Noise_3_1.wav,Pink_Noise_3_2.wav,,,,,,,,,,,,,,,0,111,111,4,,,,,,,,,,,,,,,,,,,,,,,780.9076603879221,None,782.4404001012444,None,783.8241212931462,None,"wind
",783.8241212931462,None,return,2.5344576127827168,783.9074131241068,None,,,,,,,,,,,,,,,,,,,,,,,,,,,,,,,,,,,,,,,94,001,2023_May_05_1750,SpeechDraft1Carolyn_lessNoise_PlusLocalization,2021.2.3,60.03033658604913,
cup.wav,cup.mpg,cup,6,A,Pink_Noise_6_1.wav,Pink_Noise_6_2.wav,,,,,,,,,,,,,,,0,112,112,9,,,,,,,,,,,,,,,,,,,,,,,786.4741964070126,None,787.9905662368983,None,789.3742500501685,None,touch,789.3742500501685,None,return,4.408405832014978,789.4574674870819,None,,,,,,,,,,,,,,,,,,,,,,,,,,,,,,,,,,,,,,,94,001,2023_May_05_1750,SpeechDraft1Carolyn_lessNoise_PlusLocalization,2021.2.3,60.03033658604913,
nice.wav,nice.mpg,nice,1,A,Pink_Noise_1_1.wav,Pink_Noise_1_2.wav,,,,,,,,,,,,,,,0,113,113,12,,,,,,,,,,,,,,,,,,,,,,,793.8908934378996,None,795.4071080842987,None,796.7909216829576,None,nice,796.7909216829576,None,return,1.7758853272534907,796.8740945421159,None,,,,,,,,,,,,,,,,,,,,,,,,,,,,,,,,,,,,,,,94,001,2023_May_05_1750,SpeechDraft1Carolyn_lessNoise_PlusLocalization,2021.2.3,60.03033658604913,
flight.wav,flight.mpg,flight,1,AV,Pink_Noise_1_1.wav,Pink_Noise_1_2.wav,,,,,,,,,,,,,,,0,114,114,70,,,,,,,,,,,,,,,,,,,,,,,798.674175858032,None,800.207302309107,None,801.5917883259244,None,flight,801.5917883259244,None,return,1.9998781490139663,801.6740786321461,None,,,,,,,,,,,,,,,,,,,,,,,,,,,,,,,,,,,,,,,94,001,2023_May_05_1750,SpeechDraft1Carolyn_lessNoise_PlusLocalization,2021.2.3,60.03033658604913,
brick.wav,brick.mpg,brick,5,AV,Pink_Noise_5_1.wav,Pink_Noise_5_2.wav,,,,,,,,,,,,,,,0,115,115,69,,,,,,,,,,,,,,,,,,,,,,,803.6907118391246,None,805.2078404980712,None,806.5909826280549,None,brick,806.5909826280549,None,return,2.4954304192215204,806.6744588692673,None,,,,,,,,,,,,,,,,,,,,,,,,,,,,,,,,,,,,,,,94,001,2023_May_05_1750,SpeechDraft1Carolyn_lessNoise_PlusLocalization,2021.2.3,60.03033658604913,
steam.wav,steam.mpg,steam,4,AV,Pink_Noise_4_1.wav,Pink_Noise_4_2.wav,,,,,,,,,,,,,,,0,116,116,110,,,,,,,,,,,,,,,,,,,,,,,809.1907904478721,None,810.7239007703029,None,812.1075612851419,None,steam,812.1075612851419,None,return,4.907287247013301,812.1908737402409,None,,,,,,,,,,,,,,,,,,,,,,,,,,,,,,,,,,,,,,,94,001,2023_May_05_1750,SpeechDraft1Carolyn_lessNoise_PlusLocalization,2021.2.3,60.03033658604913,
budge.wav,budge.mpg,budge,5,A,Pink_Noise_5_1.wav,Pink_Noise_5_2.wav,,,,,,,,,,,,,,,0,117,117,53,,,,,,,,,,,,,,,,,,,,,,,817.1242190310732,None,818.6903483639471,None,820.0741611248814,None,bunch,820.0741611248814,None,return,8.692306999117136,820.1576124480926,None,,,,,,,,,,,,,,,,,,,,,,,,,,,,,,,,,,,,,,,94,001,2023_May_05_1750,SpeechDraft1Carolyn_lessNoise_PlusLocalization,2021.2.3,60.03033658604913,
cruel.wav,cruel.mpg,cruel,6,AV,Pink_Noise_6_1.wav,Pink_Noise_6_2.wav,,,,,,,,,,,,,,,0,118,118,103,,,,,,,,,,,,,,,,,,,,,,,828.8740991810337,None,830.3925818912685,None,831.7741014380008,None,cool,831.7741014380008,None,return,2.616502273827791,831.8575112242252,None,,,,,,,,,,,,,,,,,,,,,,,,,,,,,,,,,,,,,,,94,001,2023_May_05_1750,SpeechDraft1Carolyn_lessNoise_PlusLocalization,2021.2.3,60.03033658604913,
bone.wav,bone.mpg,bone,4,A,Pink_Noise_4_1.wav,Pink_Noise_4_2.wav,,,,,,,,,,,,,,,0,119,119,34,,,,,,,,,,,,,,,,,,,,,,,834.4908969393,None,836.0076068490744,None,837.3909629289992,None,bone,837.3909629289992,None,return,4.295693016145378,837.4742094241083,None,,,,,,,,,,,,,,,,,,,,,,,,,,,,,,,,,,,,,,,94,001,2023_May_05_1750,SpeechDraft1Carolyn_lessNoise_PlusLocalization,2021.2.3,60.03033658604913,
,,,,,,,,,,,,,,,,,,,,,,,,,,,,,,,,,,,,,,,,,,,,,,,,,,,,,,,,,,,,,,,,,,space,18.223071441985667,841.8907976793125,None,,,,,,,,,,,,,,,,,,,,,,,,,,,,,94,001,2023_May_05_1750,SpeechDraft1Carolyn_lessNoise_PlusLocalization,2021.2.3,60.03033658604913,
,,,,,,,,nearRight,6.5,0,ch1Sound_localizationTask.wav,6.5,"(1047, 878)","(87, -202)",95,-338,,,,,,,,,0,0,0,4,,,,,,,,,,,,,,,,,,,,,,,,,,,,,,,,,,,,,,,,,,841.8907976793125,None,860.1574808130972,None,861.2623347551562,None,862.1904739621095,None,1.488888888888889,3.1182978097349405,862.1904739621095,None,,,,,,,,,,,,,,,,,94,001,2023_May_05_1750,SpeechDraft1Carolyn_lessNoise_PlusLocalization,2021.2.3,60.03033658604913,
,,,,,,,,nearRight,6.5,0,ch1Sound_localizationTask.wav,6.5,"(1047, 878)","(87, -202)",95,-338,,,,,,,,,0,1,1,4,,,,,,,,,,,,,,,,,,,,,,,,,,,,,,,,,,,,,,,,,,,,865.3243651338853,None,866.4239317220636,None,867.3574388180859,None,1.5597883597883597,0.783112954813987,867.3574388180859,None,,,,,,,,,,,,,,,,,94,001,2023_May_05_1750,SpeechDraft1Carolyn_lessNoise_PlusLocalization,2021.2.3,60.03033658604913,
,,,,,,,,nearLeft,-6.5,1,ch1Sound_localizationTask.wav,-6.5,"(857, 878)","(-103,-202)",-95,-338,,,,,,,,,0,2,2,2,,,,,,,,,,,,,,,,,,,,,,,,,,,,,,,,,,,,,,,,,,,,868.1424423521385,None,869.2573215099983,None,870.1739883101545,None,1.5047619047619047,1.8001283765770495,870.1739883101545,None,,,,,,,,,,,,,,,,,94,001,2023_May_05_1750,SpeechDraft1Carolyn_lessNoise_PlusLocalization,2021.2.3,60.03033658604913,
,,,,,,,,nearRight,6.5,0,ch1Sound_localizationTask.wav,6.5,"(1047, 878)","(87, -202)",95,-338,,,,,,,,,0,3,3,4,,,,,,,,,,,,,,,,,,,,,,,,,,,,,,,,,,,,,,,,,,,,871.991207129322,None,873.0907679758966,None,874.0238649370149,None,1.6708994708994709,0.9660568968392909,874.0238649370149,None,,,,,,,,,,,,,,,,,94,001,2023_May_05_1750,SpeechDraft1Carolyn_lessNoise_PlusLocalization,2021.2.3,60.03033658604913,
,,,,,,,,nearLeft,-6.5,1,ch1Sound_localizationTask.wav,-6.5,"(857, 878)","(-103,-202)",-95,-338,,,,,,,,,0,4,4,2,,,,,,,,,,,,,,,,,,,,,,,,,,,,,,,,,,,,,,,,,,,,874.992925957311,None,876.1073648259044,None,877.0240347259678,None,1.3634920634920635,1.250174071174115,877.0240347259678,None,,,,,,,,,,,,,,,,,94,001,2023_May_05_1750,SpeechDraft1Carolyn_lessNoise_PlusLocalization,2021.2.3,60.03033658604913,
,,,,,,,,farLeft,-19.1,5,ch1Sound_localizationTask.wav,-19.1,"(667, 878)","(-293,-202)",-285,-338,,,,,,,,,0,5,5,0,,,,,,,,,,,,,,,,,,,,,,,,,,,,,,,,,,,,,,,,,,,,878.2911065220833,None,879.3906027660705,None,880.3240230991505,None,1.1148148148148147,1.2652574782259762,880.3240230991505,None,,,,,,,,,,,,,,,,,94,001,2023_May_05_1750,SpeechDraft1Carolyn_lessNoise_PlusLocalization,2021.2.3,60.03033658604913,
,,,,,,,,center,0.0,6,ch1Sound_localizationTask.wav,0.0,"(952, 878)","(-8,-202)",0,-338,,,,,,,,,0,6,6,3,,,,,,,,,,,,,,,,,,,,,,,,,,,,,,,,,,,,,,,,,,,,881.5914881350473,None,882.6905993851833,None,883.6238397578709,None,1.48994708994709,0.817246908787638,883.6238397578709,None,,,,,,,,,,,,,,,,,94,001,2023_May_05_1750,SpeechDraft1Carolyn_lessNoise_PlusLocalization,2021.2.3,60.03033658604913,
,,,,,,,,farRight,19.1,4,ch1Sound_localizationTask.wav,19.1,"(1237, 878)","(277,-202)",285,-338,,,,,,,,,1,0,7,6,,,,,,,,,,,,,,,,,,,,,,,,,,,,,,,,,,,,,,,,,,,,884.457528077066,None,885.5573080042377,None,886.4906498929486,None,1.9835978835978836,1.1833506980910897,886.4906498929486,None,,,,,,,,,,,,,,,,,94,001,2023_May_05_1750,SpeechDraft1Carolyn_lessNoise_PlusLocalization,2021.2.3,60.03033658604913,
,,,,,,,,farRight,19.1,4,ch1Sound_localizationTask.wav,19.1,"(1237, 878)","(277,-202)",285,-338,,,,,,,,,1,1,8,6,,,,,,,,,,,,,,,,,,,,,,,,,,,,,,,,,,,,,,,,,,,,887.6906663551927,None,888.7906039170921,None,889.7073833462782,None,1.9857142857142858,1.1506504653953016,889.7073833462782,None,,,,,,,,,,,,,,,,,94,001,2023_May_05_1750,SpeechDraft1Carolyn_lessNoise_PlusLocalization,2021.2.3,60.03033658604913,
,,,,,,,,nearLeft,-6.5,1,ch1Sound_localizationTask.wav,-6.5,"(857, 878)","(-103,-202)",-95,-338,,,,,,,,,1,2,9,2,,,,,,,,,,,,,,,,,,,,,,,,,,,,,,,,,,,,,,,,,,,,890.8744823681191,None,891.9739051801153,None,892.9074439750984,None,1.2550264550264552,1.0831002718769014,892.9074439750984,None,,,,,,,,,,,,,,,,,94,001,2023_May_05_1750,SpeechDraft1Carolyn_lessNoise_PlusLocalization,2021.2.3,60.03033658604913,
,,,,,,,,midRight,13.0,3,ch1Sound_localizationTask.wav,13.0,"(1142, 878)","(182, -202)",190,-338,,,,,,,,,1,3,10,5,,,,,,,,,,,,,,,,,,,,,,,,,,,,,,,,,,,,,,,,,,,,894.0077899401076,None,895.1073827110231,None,896.0404968960211,None,1.9756613756613757,1.084790226072073,896.0404968960211,None,,,,,,,,,,,,,,,,,94,001,2023_May_05_1750,SpeechDraft1Carolyn_lessNoise_PlusLocalization,2021.2.3,60.03033658604913,
,,,,,,,,farLeft,-19.1,5,ch1Sound_localizationTask.wav,-19.1,"(667, 878)","(-293,-202)",-285,-338,,,,,,,,,1,4,11,0,,,,,,,,,,,,,,,,,,,,,,,,,,,,,,,,,,,,,,,,,,,,897.1409298731014,None,898.2407631212845,None,899.1740385461599,None,1.019047619047619,1.0668771830387414,899.1740385461599,None,,,,,,,,,,,,,,,,,94,001,2023_May_05_1750,SpeechDraft1Carolyn_lessNoise_PlusLocalization,2021.2.3,60.03033658604913,
,,,,,,,,farRight,19.1,4,ch1Sound_localizationTask.wav,19.1,"(1237, 878)","(277,-202)",285,-338,,,,,,,,,1,5,12,6,,,,,,,,,,,,,,,,,,,,,,,,,,,,,,,,,,,,,,,,,,,,900.2577206729911,None,901.3572563049383,None,902.2906471970491,None,1.958201058201058,0.8007658957503736,902.2906471970491,None,,,,,,,,,,,,,,,,,94,001,2023_May_05_1750,SpeechDraft1Carolyn_lessNoise_PlusLocalization,2021.2.3,60.03033658604913,
,,,,,,,,nearLeft,-6.5,1,ch1Sound_localizationTask.wav,-6.5,"(857, 878)","(-103,-202)",-95,-338,,,,,,,,,1,6,13,2,,,,,,,,,,,,,,,,,,,,,,,,,,,,,,,,,,,,,,,,,,,,903.1078613898717,None,904.207159601152,None,905.1405809698626,None,1.0698412698412698,1.3352491408586502,905.1405809698626,None,,,,,,,,,,,,,,,,,94,001,2023_May_05_1750,SpeechDraft1Carolyn_lessNoise_PlusLocalization,2021.2.3,60.03033658604913,
,,,,,,,,nearRight,6.5,0,ch1Sound_localizationTask.wav,6.5,"(1047, 878)","(87, -202)",95,-338,,,,,,,,,2,0,14,4,,,,,,,,,,,,,,,,,,,,,,,,,,,,,,,,,,,,,,,,,,,,906.4912873832509,None,907.5908701512963,None,908.524111140985,None,1.4984126984126984,0.9172273110598326,908.524111140985,None,,,,,,,,,,,,,,,,,94,001,2023_May_05_1750,SpeechDraft1Carolyn_lessNoise_PlusLocalization,2021.2.3,60.03033658604913,
,,,,,,,,midRight,13.0,3,ch1Sound_localizationTask.wav,13.0,"(1142, 878)","(182, -202)",190,-338,,,,,,,,,2,1,15,5,,,,,,,,,,,,,,,,,,,,,,,,,,,,,,,,,,,,,,,,,,,,909.4578075939789,None,910.5573221510276,None,911.4908057153225,None,1.914814814814815,0.8177856812253594,911.4908057153225,None,,,,,,,,,,,,,,,,,94,001,2023_May_05_1750,SpeechDraft1Carolyn_lessNoise_PlusLocalization,2021.2.3,60.03033658604913,
,,,,,,,,nearRight,6.5,0,ch1Sound_localizationTask.wav,6.5,"(1047, 878)","(87, -202)",95,-338,,,,,,,,,2,2,16,4,,,,,,,,,,,,,,,,,,,,,,,,,,,,,,,,,,,,,,,,,,,,912.3243818809278,None,913.4241409478709,None,914.3574249478988,None,1.5132275132275133,0.7681401022709906,914.3574249478988,None,,,,,,,,,,,,,,,,,94,001,2023_May_05_1750,SpeechDraft1Carolyn_lessNoise_PlusLocalization,2021.2.3,60.03033658604913,
,,,,,,,,midLeft,-13.0,2,ch1Sound_localizationTask.wav,-13.0,"(762, 878)","(-198,-202)",-190,-338,,,,,,,,,2,3,17,1,,,,,,,,,,,,,,,,,,,,,,,,,,,,,,,,,,,,,,,,,,,,915.1410305039026,None,916.2407140922733,None,917.1740770069882,None,1.0931216931216932,0.7324218042194843,917.1740770069882,None,,,,,,,,,,,,,,,,,94,001,2023_May_05_1750,SpeechDraft1Carolyn_lessNoise_PlusLocalization,2021.2.3,60.03033658604913,
,,,,,,,,nearLeft,-6.5,1,ch1Sound_localizationTask.wav,-6.5,"(857, 878)","(-103,-202)",-95,-338,,,,,,,,,2,4,18,2,,,,,,,,,,,,,,,,,,,,,,,,,,,,,,,,,,,,,,,,,,,,917.9089522711001,None,919.0239766221493,None,919.940769250039,None,1.3227513227513228,0.6843134248629212,919.940769250039,None,,,,,,,,,,,,,,,,,94,001,2023_May_05_1750,SpeechDraft1Carolyn_lessNoise_PlusLocalization,2021.2.3,60.03033658604913,
,,,,,,,,center,0.0,6,ch1Sound_localizationTask.wav,0.0,"(952, 878)","(-8,-202)",0,-338,,,,,,,,,2,5,19,3,,,,,,,,,,,,,,,,,,,,,,,,,,,,,,,,,,,,,,,,,,,,920.6411767229438,None,921.7408090350218,None,922.6741098472849,None,1.4973544973544972,1.0328947780653834,922.6741098472849,None,,,,,,,,,,,,,,,,,94,001,2023_May_05_1750,SpeechDraft1Carolyn_lessNoise_PlusLocalization,2021.2.3,60.03033658604913,
,,,,,,,,midLeft,-13.0,2,ch1Sound_localizationTask.wav,-13.0,"(762, 878)","(-198,-202)",-190,-338,,,,,,,,,2,6,20,1,,,,,,,,,,,,,,,,,,,,,,,,,,,,,,,,,,,,,,,,,,,,923.7239714949392,None,924.8239960200153,None,925.7406667741016,None,1.2777777777777777,1.0331245618872344,925.7406667741016,None,,,,,,,,,,,,,,,,,94,001,2023_May_05_1750,SpeechDraft1Carolyn_lessNoise_PlusLocalization,2021.2.3,60.03033658604913,
,,,,,,,,farRight,19.1,4,ch1Sound_localizationTask.wav,19.1,"(1237, 878)","(277,-202)",285,-338,,,,,,,,,3,0,21,6,,,,,,,,,,,,,,,,,,,,,,,,,,,,,,,,,,,,,,,,,,,,926.7912830011919,None,927.8906216048636,None,928.8240320230834,None,1.8830687830687831,1.1167417708784342,928.8240320230834,None,,,,,,,,,,,,,,,,,94,001,2023_May_05_1750,SpeechDraft1Carolyn_lessNoise_PlusLocalization,2021.2.3,60.03033658604913,
,,,,,,,,farRight,19.1,4,ch1Sound_localizationTask.wav,19.1,"(1237, 878)","(277,-202)",285,-338,,,,,,,,,3,1,22,6,,,,,,,,,,,,,,,,,,,,,,,,,,,,,,,,,,,,,,,,,,,,929.957791778259,None,931.0573325608857,None,931.9905876913108,None,1.8830687830687831,0.44978847028687596,931.9905876913108,None,,,,,,,,,,,,,,,,,94,001,2023_May_05_1750,SpeechDraft1Carolyn_lessNoise_PlusLocalization,2021.2.3,60.03033658604913,
,,,,,,,,center,0.0,6,ch1Sound_localizationTask.wav,0.0,"(952, 878)","(-8,-202)",0,-338,,,,,,,,,3,2,23,3,,,,,,,,,,,,,,,,,,,,,,,,,,,,,,,,,,,,,,,,,,,,932.4417704651132,None,933.5408745752648,None,934.4740793933161,None,1.508994708994709,0.7851367290131748,934.4740793933161,None,,,,,,,,,,,,,,,,,94,001,2023_May_05_1750,SpeechDraft1Carolyn_lessNoise_PlusLocalization,2021.2.3,60.03033658604913,
,,,,,,,,farRight,19.1,4,ch1Sound_localizationTask.wav,19.1,"(1237, 878)","(277,-202)",285,-338,,,,,,,,,3,3,24,6,,,,,,,,,,,,,,,,,,,,,,,,,,,,,,,,,,,,,,,,,,,,935.274581620004,None,936.3741911491379,None,937.3072861582041,None,1.926984126984127,1.665979272685945,937.3072861582041,None,,,,,,,,,,,,,,,,,94,001,2023_May_05_1750,SpeechDraft1Carolyn_lessNoise_PlusLocalization,2021.2.3,60.03033658604913,
,,,,,,,,midRight,13.0,3,ch1Sound_localizationTask.wav,13.0,"(1142, 878)","(182, -202)",190,-338,,,,,,,,,3,4,25,5,,,,,,,,,,,,,,,,,,,,,,,,,,,,,,,,,,,,,,,,,,,,938.9913135953248,None,940.0905465818942,None,941.0240998980589,None,1.5206349206349206,1.000052945688367,941.0240998980589,None,,,,,,,,,,,,,,,,,94,001,2023_May_05_1750,SpeechDraft1Carolyn_lessNoise_PlusLocalization,2021.2.3,60.03033658604913,
,,,,,,,,midLeft,-13.0,2,ch1Sound_localizationTask.wav,-13.0,"(762, 878)","(-198,-202)",-190,-338,,,,,,,,,3,5,26,1,,,,,,,,,,,,,,,,,,,,,,,,,,,,,,,,,,,,,,,,,,,,942.0411795759574,None,943.1407080963254,None,944.0739381550811,None,1.1301587301587301,1.598915383219719,944.0739381550811,None,,,,,,,,,,,,,,,,,94,001,2023_May_05_1750,SpeechDraft1Carolyn_lessNoise_PlusLocalization,2021.2.3,60.03033658604913,
,,,,,,,,nearRight,6.5,0,ch1Sound_localizationTask.wav,6.5,"(1047, 878)","(87, -202)",95,-338,,,,,,,,,3,6,27,4,,,,,,,,,,,,,,,,,,,,,,,,,,,,,,,,,,,,,,,,,,,,945.6911587691866,None,946.7906539402902,None,947.7241874709725,None,1.5026455026455028,1.2658764072693884,947.7241874709725,None,,,,,,,,,,,,,,,,,94,001,2023_May_05_1750,SpeechDraft1Carolyn_lessNoise_PlusLocalization,2021.2.3,60.03033658604913,
,,,,,,,,nearLeft,-6.5,1,ch1Sound_localizationTask.wav,-6.5,"(857, 878)","(-103,-202)",-95,-338,,,,,,,,,4,0,28,2,,,,,,,,,,,,,,,,,,,,,,,,,,,,,,,,,,,,,,,,,,,,948.9922348922119,None,950.1074989251792,None,951.0239984779619,None,1.494179894179894,0.44960404420271516,951.0239984779619,None,,,,,,,,,,,,,,,,,94,001,2023_May_05_1750,SpeechDraft1Carolyn_lessNoise_PlusLocalization,2021.2.3,60.03033658604913,
,,,,,,,,midRight,13.0,3,ch1Sound_localizationTask.wav,13.0,"(1142, 878)","(182, -202)",190,-338,,,,,,,,,4,1,29,5,,,,,,,,,,,,,,,,,,,,,,,,,,,,,,,,,,,,,,,,,,,,951.4759139912203,None,952.5905999629758,None,953.5074003408663,None,1.5322751322751322,0.516561979893595,953.5074003408663,None,,,,,,,,,,,,,,,,,94,001,2023_May_05_1750,SpeechDraft1Carolyn_lessNoise_PlusLocalization,2021.2.3,60.03033658604913,
,,,,,,,,center,0.0,6,ch1Sound_localizationTask.wav,0.0,"(952, 878)","(-8,-202)",0,-338,,,,,,,,,4,2,30,3,,,,,,,,,,,,,,,,,,,,,,,,,,,,,,,,,,,,,,,,,,,,954.0410856711678,None,955.1409327532165,None,956.0742987073027,None,1.4978835978835978,0.8496862067840993,956.0742987073027,None,,,,,,,,,,,,,,,,,94,001,2023_May_05_1750,SpeechDraft1Carolyn_lessNoise_PlusLocalization,2021.2.3,60.03033658604913,
,,,,,,,,nearRight,6.5,0,ch1Sound_localizationTask.wav,6.5,"(1047, 878)","(87, -202)",95,-338,,,,,,,,,4,3,31,4,,,,,,,,,,,,,,,,,,,,,,,,,,,,,,,,,,,,,,,,,,,,956.9409448439255,None,958.0407595350407,None,958.9740748922341,None,1.546031746031746,0.683444928843528,958.9740748922341,None,,,,,,,,,,,,,,,,,94,001,2023_May_05_1750,SpeechDraft1Carolyn_lessNoise_PlusLocalization,2021.2.3,60.03033658604913,
,,,,,,,,nearLeft,-6.5,1,ch1Sound_localizationTask.wav,-6.5,"(857, 878)","(-103,-202)",-95,-338,,,,,,,,,4,4,32,2,,,,,,,,,,,,,,,,,,,,,,,,,,,,,,,,,,,,,,,,,,,,959.6743771079928,None,960.7741603981704,None,961.7075069802813,None,1.5052910052910053,0.8000496593303978,961.7075069802813,None,,,,,,,,,,,,,,,,,94,001,2023_May_05_1750,SpeechDraft1Carolyn_lessNoise_PlusLocalization,2021.2.3,60.03033658604913,
,,,,,,,,nearRight,6.5,0,ch1Sound_localizationTask.wav,6.5,"(1047, 878)","(87, -202)",95,-338,,,,,,,,,4,5,33,4,,,,,,,,,,,,,,,,,,,,,,,,,,,,,,,,,,,,,,,,,,,,962.5089900773019,None,963.6239881659858,None,964.5408316780813,None,1.5052910052910053,0.40065019903704524,964.5408316780813,None,,,,,,,,,,,,,,,,,94,001,2023_May_05_1750,SpeechDraft1Carolyn_lessNoise_PlusLocalization,2021.2.3,60.03033658604913,
,,,,,,,,midLeft,-13.0,2,ch1Sound_localizationTask.wav,-13.0,"(762, 878)","(-198,-202)",-190,-338,,,,,,,,,4,6,34,1,,,,,,,,,,,,,,,,,,,,,,,,,,,,,,,,,,,,,,,,,,,,964.9577241363004,None,966.0573718561791,None,966.990783222951,None,1.4047619047619047,0.6509799589402974,966.990783222951,None,,,,,,,,,,,,,,,,,94,001,2023_May_05_1750,SpeechDraft1Carolyn_lessNoise_PlusLocalization,2021.2.3,60.03033658604913,
,,,,,,,,midRight,13.0,3,ch1Sound_localizationTask.wav,13.0,"(1142, 878)","(182, -202)",190,-338,,,,,,,,,5,0,35,5,,,,,,,,,,,,,,,,,,,,,,,,,,,,,,,,,,,,,,,,,,,,967.6577489860356,None,968.7573576672003,None,969.6908380640671,None,1.6074074074074074,1.00098199211061,969.6908380640671,None,,,,,,,,,,,,,,,,,94,001,2023_May_05_1750,SpeechDraft1Carolyn_lessNoise_PlusLocalization,2021.2.3,60.03033658604913,
,,,,,,,,farLeft,-19.1,5,ch1Sound_localizationTask.wav,-19.1,"(667, 878)","(-293,-202)",-285,-338,,,,,,,,,5,1,36,0,,,,,,,,,,,,,,,,,,,,,,,,,,,,,,,,,,,,,,,,,,,,970.7078610658646,None,971.8074921751395,None,972.7407564879395,None,1.1597883597883598,1.3336772453039885,972.7407564879395,None,,,,,,,,,,,,,,,,,94,001,2023_May_05_1750,SpeechDraft1Carolyn_lessNoise_PlusLocalization,2021.2.3,60.03033658604913,
,,,,,,,,midRight,13.0,3,ch1Sound_localizationTask.wav,13.0,"(1142, 878)","(182, -202)",190,-338,,,,,,,,,5,2,37,5,,,,,,,,,,,,,,,,,,,,,,,,,,,,,,,,,,,,,,,,,,,,974.0913782413118,None,975.1908792052418,None,976.1239651399665,None,1.6677248677248677,1.617289642803371,976.1239651399665,None,,,,,,,,,,,,,,,,,94,001,2023_May_05_1750,SpeechDraft1Carolyn_lessNoise_PlusLocalization,2021.2.3,60.03033658604913,
,,,,,,,,center,0.0,6,ch1Sound_localizationTask.wav,0.0,"(952, 878)","(-8,-202)",0,-338,,,,,,,,,5,3,38,3,,,,,,,,,,,,,,,,,,,,,,,,,,,,,,,,,,,,,,,,,,,,977.7577663571574,None,978.857436066959,None,979.7908157510683,None,1.4883597883597883,1.5335942041128874,979.7908157510683,None,,,,,,,,,,,,,,,,,94,001,2023_May_05_1750,SpeechDraft1Carolyn_lessNoise_PlusLocalization,2021.2.3,60.03033658604913,
,,,,,,,,farRight,19.1,4,ch1Sound_localizationTask.wav,19.1,"(1237, 878)","(277,-202)",285,-338,,,,,,,,,5,4,39,6,,,,,,,,,,,,,,,,,,,,,,,,,,,,,,,,,,,,,,,,,,,,981.341100063175,None,982.4407278932631,None,983.3741282802075,None,1.812169312169312,0.6659568282775581,983.3741282802075,None,,,,,,,,,,,,,,,,,94,001,2023_May_05_1750,SpeechDraft1Carolyn_lessNoise_PlusLocalization,2021.2.3,60.03033658604913,
,,,,,,,,farRight,19.1,4,ch1Sound_localizationTask.wav,19.1,"(1237, 878)","(277,-202)",285,-338,,,,,,,,,5,5,40,6,,,,,,,,,,,,,,,,,,,,,,,,,,,,,,,,,,,,,,,,,,,,984.0426820712164,None,985.157277662307,None,986.0741551211104,None,1.8084656084656086,0.8166653411462903,986.0741551211104,None,,,,,,,,,,,,,,,,,94,001,2023_May_05_1750,SpeechDraft1Carolyn_lessNoise_PlusLocalization,2021.2.3,60.03033658604913,
,,,,,,,,midLeft,-13.0,2,ch1Sound_localizationTask.wav,-13.0,"(762, 878)","(-198,-202)",-190,-338,,,,,,,,,5,6,41,1,,,,,,,,,,,,,,,,,,,,,,,,,,,,,,,,,,,,,,,,,,,,986.9080678583123,None,988.0075023509562,None,988.940643904265,None,1.191005291005291,1.4001881070435047,988.940643904265,None,,,,,,,,,,,,,,,,,94,001,2023_May_05_1750,SpeechDraft1Carolyn_lessNoise_PlusLocalization,2021.2.3,60.03033658604913,
,,,,,,,,nearLeft,-6.5,1,ch1Sound_localizationTask.wav,-6.5,"(857, 878)","(-103,-202)",-95,-338,,,,,,,,,6,0,42,2,,,,,,,,,,,,,,,,,,,,,,,,,,,,,,,,,,,,,,,,,,,,990.3580575590022,None,991.4574289172888,None,992.3909655939788,None,1.1857142857142857,1.00068224593997,992.3909655939788,None,,,,,,,,,,,,,,,,,94,001,2023_May_05_1750,SpeechDraft1Carolyn_lessNoise_PlusLocalization,2021.2.3,60.03033658604913,
,,,,,,,,midRight,13.0,3,ch1Sound_localizationTask.wav,13.0,"(1142, 878)","(182, -202)",190,-338,,,,,,,,,6,1,43,5,,,,,,,,,,,,,,,,,,,,,,,,,,,,,,,,,,,,,,,,,,,,993.4078093608841,None,994.5074461800978,None,995.4407385392115,None,1.825925925925926,1.0673752762377262,995.4407385392115,None,,,,,,,,,,,,,,,,,94,001,2023_May_05_1750,SpeechDraft1Carolyn_lessNoise_PlusLocalization,2021.2.3,60.03033658604913,
,,,,,,,,midLeft,-13.0,2,ch1Sound_localizationTask.wav,-13.0,"(762, 878)","(-198,-202)",-190,-338,,,,,,,,,6,2,44,1,,,,,,,,,,,,,,,,,,,,,,,,,,,,,,,,,,,,,,,,,,,,996.5245082043111,None,997.6240902082063,None,998.5575041081756,None,1.2222222222222223,0.8023263849318027,998.5575041081756,None,,,,,,,,,,,,,,,,,94,001,2023_May_05_1750,SpeechDraft1Carolyn_lessNoise_PlusLocalization,2021.2.3,60.03033658604913,
,,,,,,,,midLeft,-13.0,2,ch1Sound_localizationTask.wav,-13.0,"(762, 878)","(-198,-202)",-190,-338,,,,,,,,,6,3,45,1,,,,,,,,,,,,,,,,,,,,,,,,,,,,,,,,,,,,,,,,,,,,999.3745912159793,None,1000.474357584957,None,1001.4073702530004,None,1.2111111111111112,0.9163994691334665,1001.4073702530004,None,,,,,,,,,,,,,,,,,94,001,2023_May_05_1750,SpeechDraft1Carolyn_lessNoise_PlusLocalization,2021.2.3,60.03033658604913,
,,,,,,,,farLeft,-19.1,5,ch1Sound_localizationTask.wav,-19.1,"(667, 878)","(-293,-202)",-285,-338,,,,,,,,,6,4,46,0,,,,,,,,,,,,,,,,,,,,,,,,,,,,,,,,,,,,,,,,,,,,1002.3256575912237,None,1003.4408684531227,None,1004.3574492949992,None,1.1751322751322753,0.6326667182147503,1004.3574492949992,None,,,,,,,,,,,,,,,,,94,001,2023_May_05_1750,SpeechDraft1Carolyn_lessNoise_PlusLocalization,2021.2.3,60.03033658604913,
,,,,,,,,farLeft,-19.1,5,ch1Sound_localizationTask.wav,-19.1,"(667, 878)","(-293,-202)",-285,-338,,,,,,,,,6,5,47,0,,,,,,,,,,,,,,,,,,,,,,,,,,,,,,,,,,,,,,,,,,,,1004.9932440780103,None,1006.1075227311812,None,1007.0242475760169,None,1.1455026455026456,0.6324233668856323,1007.0242475760169,None,,,,,,,,,,,,,,,,,94,001,2023_May_05_1750,SpeechDraft1Carolyn_lessNoise_PlusLocalization,2021.2.3,60.03033658604913,
,,,,,,,,midRight,13.0,3,ch1Sound_localizationTask.wav,13.0,"(1142, 878)","(182, -202)",190,-338,,,,,,,,,6,6,48,5,,,,,,,,,,,,,,,,,,,,,,,,,,,,,,,,,,,,,,,,,,,,1007.6585377170704,None,1008.7575211040676,None,1009.6908046132885,None,1.6830687830687832,0.8676582621410489,1009.6908046132885,None,,,,,,,,,,,,,,,,,94,001,2023_May_05_1750,SpeechDraft1Carolyn_lessNoise_PlusLocalization,2021.2.3,60.03033658604913,
,,,,,,,,center,0.0,6,ch1Sound_localizationTask.wav,0.0,"(952, 878)","(-8,-202)",0,-338,,,,,,,,,7,0,49,3,,,,,,,,,,,,,,,,,,,,,,,,,,,,,,,,,,,,,,,,,,,,1010.5743023632094,None,1011.6741040279157,None,1012.6073894030415,None,1.4952380952380953,0.6162264551967382,1012.6073894030415,None,,,,,,,,,,,,,,,,,94,001,2023_May_05_1750,SpeechDraft1Carolyn_lessNoise_PlusLocalization,2021.2.3,60.03033658604913,
,,,,,,,,farLeft,-19.1,5,ch1Sound_localizationTask.wav,-19.1,"(667, 878)","(-293,-202)",-285,-338,,,,,,,,,7,1,50,0,,,,,,,,,,,,,,,,,,,,,,,,,,,,,,,,,,,,,,,,,,,,1013.2258571260609,None,1014.3409257722087,None,1015.257302494254,None,1.276190476190476,0.8681077193468809,1015.257302494254,None,,,,,,,,,,,,,,,,,94,001,2023_May_05_1750,SpeechDraft1Carolyn_lessNoise_PlusLocalization,2021.2.3,60.03033658604913,
,,,,,,,,midLeft,-13.0,2,ch1Sound_localizationTask.wav,-13.0,"(762, 878)","(-198,-202)",-190,-338,,,,,,,,,7,2,51,1,,,,,,,,,,,,,,,,,,,,,,,,,,,,,,,,,,,,,,,,,,,,1016.141227113083,None,1017.2408698149957,None,1018.1741896350868,None,1.2566137566137567,0.6848524776287377,1018.1741896350868,None,,,,,,,,,,,,,,,,,94,001,2023_May_05_1750,SpeechDraft1Carolyn_lessNoise_PlusLocalization,2021.2.3,60.03033658604913,
,,,,,,,,center,0.0,6,ch1Sound_localizationTask.wav,0.0,"(952, 878)","(-8,-202)",0,-338,,,,,,,,,7,3,52,3,,,,,,,,,,,,,,,,,,,,,,,,,,,,,,,,,,,,,,,,,,,,1018.8748661591671,None,1019.9741000370122,None,1020.9075788771734,None,1.4952380952380953,1.0164673067629337,1020.9075788771734,None,,,,,,,,,,,,,,,,,94,001,2023_May_05_1750,SpeechDraft1Carolyn_lessNoise_PlusLocalization,2021.2.3,60.03033658604913,
,,,,,,,,farLeft,-19.1,5,ch1Sound_localizationTask.wav,-19.1,"(667, 878)","(-293,-202)",-285,-338,,,,,,,,,7,4,53,0,,,,,,,,,,,,,,,,,,,,,,,,,,,,,,,,,,,,,,,,,,,,1021.9256210052408,None,1023.0407346743159,None,1023.9575557298958,None,1.168783068783069,0.751044875010848,1023.9575557298958,None,,,,,,,,,,,,,,,,,94,001,2023_May_05_1750,SpeechDraft1Carolyn_lessNoise_PlusLocalization,2021.2.3,60.03033658604913,
,,,,,,,,farLeft,-19.1,5,ch1Sound_localizationTask.wav,-19.1,"(667, 878)","(-293,-202)",-285,-338,,,,,,,,,7,5,54,0,,,,,,,,,,,,,,,,,,,,,,,,,,,,,,,,,,,,,,,,,,,,1024.724657010287,None,1025.8242874369025,None,1026.7574927653186,None,1.1804232804232804,0.6324970750138164,1026.7574927653186,None,,,,,,,,,,,,,,,,,94,001,2023_May_05_1750,SpeechDraft1Carolyn_lessNoise_PlusLocalization,2021.2.3,60.03033658604913,
,,,,,,,,center,0.0,6,ch1Sound_localizationTask.wav,0.0,"(952, 878)","(-8,-202)",0,-338,,,,,,,,,7,6,55,3,,,,,,,,,,,,,,,,,,,,,,,,,,,,,,,,,,,,,,,,,,,,1027.393001877237,None,1028.5076350891031,None,1029.4242540462874,None,1.4904761904761905,1.216600552201271,1029.4242540462874,None,,,,,,,,,,,,,,,,,94,001,2023_May_05_1750,SpeechDraft1Carolyn_lessNoise_PlusLocalization,2021.2.3,60.03033658604913,
,,,,,,,,,,,,,,,,,,,,,,,,,,,,,,,,,,,,,,,,,,,,,,,,,,,,,,,,,,,,,,,,,,,,,,,,,,,,,,,,,,space,12.413418106269091,1030.7245440962724,None,,,,,,,,,,,,,94,001,2023_May_05_1750,SpeechDraft1Carolyn_lessNoise_PlusLocalization,2021.2.3,60.03033658604913,
,,,,,,,,nearLeft,-6.5,1,ch1Sound_localizationTask.wav,-6.5,"(857, 878)","(-103,-202)",-95,-338,,,,,,,,,,,,,0,0,0,2,,,,,,,,,,,,,,,,,,,,,,,,,,,,,,,,,,,,,,,,1043.1742158909328,None,,,1046.207483297214,None,1.4068783068783068,1.2380240419879556,1046.207483297214,None,,,,,1030.7245440962724,None,1044.1745171602815,None,1044.3579121832736,1044.3744453079998,,,,,,,94,001,2023_May_05_1750,SpeechDraft1Carolyn_lessNoise_PlusLocalization,2021.2.3,60.03033658604913,
,,,,,,,,farRight,19.1,4,ch1Sound_localizationTask.wav,19.1,"(1237, 878)","(277,-202)",285,-338,,,,,,,,,,,,,0,1,1,6,,,,,,,,,,,,,,,,,,,,,,,,,,,,,,,,,,,,,,,,1047.4580457722768,None,,,1050.4743162491359,None,1.6592592592592592,1.5323729310184717,1050.4743162491359,None,,,,,,,1048.4579782541841,None,1048.6411999799311,1048.6579878539778,,,,,,,94,001,2023_May_05_1750,SpeechDraft1Carolyn_lessNoise_PlusLocalization,2021.2.3,60.03033658604913,
,,,,,,,,midRight,13.0,3,ch1Sound_localizationTask.wav,13.0,"(1142, 878)","(182, -202)",190,-338,,,,,,,,,,,,,0,2,2,5,,,,,,,,,,,,,,,,,,,,,,,,,,,,,,,,,,,,,,,,1052.0086692692712,None,,,1055.0241923620924,None,1.5947089947089947,0.8997421669773757,1055.0241923620924,None,,,,,,,1053.0078301411122,None,1053.1911818073131,1053.20779697923,,,,,,,94,001,2023_May_05_1750,SpeechDraft1Carolyn_lessNoise_PlusLocalization,2021.2.3,60.03033658604913,
,,,,,,,,midRight,13.0,3,ch1Sound_localizationTask.wav,13.0,"(1142, 878)","(182, -202)",190,-338,,,,,,,,,,,,,0,3,3,5,,,,,,,,,,,,,,,,,,,,,,,,,,,,,,,,,,,,,,,,1055.9413003092632,None,,,1058.9575924240053,None,1.5947089947089947,0.5829463950358331,1058.9575924240053,None,,,,,,,1056.9411727259867,None,1057.1244973102584,1057.141166711226,,,,,,,94,001,2023_May_05_1750,SpeechDraft1Carolyn_lessNoise_PlusLocalization,2021.2.3,60.03033658604913,
,,,,,,,,farRight,19.1,4,ch1Sound_localizationTask.wav,19.1,"(1237, 878)","(277,-202)",285,-338,,,,,,,,,,,,,0,4,4,6,,,,,,,,,,,,,,,,,,,,,,,,,,,,,,,,,,,,,,,,1059.5423969379626,None,,,1062.5741411959752,None,1.6444444444444444,0.9652110552415252,1062.5741411959752,None,,,,,,,1060.55791929923,None,1060.741081646178,1060.7578335693106,,,,,,,94,001,2023_May_05_1750,SpeechDraft1Carolyn_lessNoise_PlusLocalization,2021.2.3,60.03033658604913,
,,,,,,,,nearLeft,-6.5,1,ch1Sound_localizationTask.wav,-6.5,"(857, 878)","(-103,-202)",-95,-338,,,,,,,,,,,,,0,5,5,2,,,,,,,,,,,,,,,,,,,,,,,,,,,,,,,,,,,,,,,,1063.5423926669173,None,,,1066.5740931411274,None,1.4714285714285715,1.2319866139441729,1066.5740931411274,None,,,,,,,1064.5578381940722,None,1064.741265336983,1064.7577524972148,,,,,,,94,001,2023_May_05_1750,SpeechDraft1Carolyn_lessNoise_PlusLocalization,2021.2.3,60.03033658604913,
,,,,,,,,midRight,13.0,3,ch1Sound_localizationTask.wav,13.0,"(1142, 878)","(182, -202)",190,-338,,,,,,,,,,,,,0,6,6,5,,,,,,,,,,,,,,,,,,,,,,,,,,,,,,,,,,,,,,,,1067.8087109043263,None,,,1070.8242284730077,None,1.6185185185185185,0.9338618740439415,1070.8242284730077,None,,,,,,,1068.8079043491744,None,1068.9912347169593,1069.0077493973076,,,,,,,94,001,2023_May_05_1750,SpeechDraft1Carolyn_lessNoise_PlusLocalization,2021.2.3,60.03033658604913,
,,,,,,,,center,0.0,6,ch1Sound_localizationTask.wav,0.0,"(952, 878)","(-8,-202)",0,-338,,,,,,,,,,,,,1,0,7,3,,,,,,,,,,,,,,,,,,,,,,,,,,,,,,,,,,,,,,,,1071.7745809121989,None,,,1074.7910144231282,None,1.5031746031746032,1.0150616196915507,1074.7910144231282,None,,,,,,,1072.7745164269581,None,1072.9578449660912,1072.9745968049392,,,,,,,94,001,2023_May_05_1750,SpeechDraft1Carolyn_lessNoise_PlusLocalization,2021.2.3,60.03033658604913,
,,,,,,,,midRight,13.0,3,ch1Sound_localizationTask.wav,13.0,"(1142, 878)","(182, -202)",190,-338,,,,,,,,,,,,,1,1,8,5,,,,,,,,,,,,,,,,,,,,,,,,,,,,,,,,,,,,,,,,1075.8088019620627,None,,,1078.8408656632528,None,1.5904761904761906,0.99942767014727,1078.8408656632528,None,,,,,,,1076.8245792640373,None,1077.007798917126,1077.0244385069236,,,,,,,94,001,2023_May_05_1750,SpeechDraft1Carolyn_lessNoise_PlusLocalization,2021.2.3,60.03033658604913,
,,,,,,,,midLeft,-13.0,2,ch1Sound_localizationTask.wav,-13.0,"(762, 878)","(-198,-202)",-190,-338,,,,,,,,,,,,,1,2,9,1,,,,,,,,,,,,,,,,,,,,,,,,,,,,,,,,,,,,,,,,1079.8419075342827,None,,,1082.8574998830445,None,1.3894179894179894,0.8833753177896142,1082.8574998830445,None,,,,,,,1080.841241311282,None,1081.0244637960568,1081.0411696839146,,,,,,,94,001,2023_May_05_1750,SpeechDraft1Carolyn_lessNoise_PlusLocalization,2021.2.3,60.03033658604913,
,,,,,,,,farRight,19.1,4,ch1Sound_localizationTask.wav,19.1,"(1237, 878)","(277,-202)",285,-338,,,,,,,,,,,,,1,3,10,6,,,,,,,,,,,,,,,,,,,,,,,,,,,,,,,,,,,,,,,,1083.7583101419732,None,,,1086.7742525069043,None,1.6523809523809523,0.7694773101247847,1086.7742525069043,None,,,,,,,1084.7580271549523,None,1084.941202714108,1084.9578325152397,,,,,,,94,001,2023_May_05_1750,SpeechDraft1Carolyn_lessNoise_PlusLocalization,2021.2.3,60.03033658604913,
,,,,,,,,farLeft,-19.1,5,ch1Sound_localizationTask.wav,-19.1,"(667, 878)","(-293,-202)",-285,-338,,,,,,,,,,,,,1,4,11,0,,,,,,,,,,,,,,,,,,,,,,,,,,,,,,,,,,,,,,,,1087.557787786238,None,,,1090.574356099125,None,1.2904761904761906,0.915775129571557,1090.574356099125,None,,,,,,,1088.5579136731103,None,1088.7411482320167,1088.7580181830563,,,,,,,94,001,2023_May_05_1750,SpeechDraft1Carolyn_lessNoise_PlusLocalization,2021.2.3,60.03033658604913,
,,,,,,,,nearLeft,-6.5,1,ch1Sound_localizationTask.wav,-6.5,"(857, 878)","(-103,-202)",-95,-338,,,,,,,,,,,,,1,5,12,2,,,,,,,,,,,,,,,,,,,,,,,,,,,,,,,,,,,,,,,,1091.5081148361787,None,,,1094.5243636053056,None,1.4433862433862434,0.8990851822309196,1094.5243636053056,None,,,,,,,1092.507935188245,None,1092.6912789912894,1092.7078399411403,,,,,,,94,001,2023_May_05_1750,SpeechDraft1Carolyn_lessNoise_PlusLocalization,2021.2.3,60.03033658604913,
,,,,,,,,farRight,19.1,4,ch1Sound_localizationTask.wav,19.1,"(1237, 878)","(277,-202)",285,-338,,,,,,,,,,,,,1,6,13,6,,,,,,,,,,,,,,,,,,,,,,,,,,,,,,,,,,,,,,,,1095.425960819237,None,,,1098.4575447109528,None,1.7021164021164021,0.8328211521729827,1098.4575447109528,None,,,,,,,1096.4412162760273,None,1096.624527435284,1096.6413001180626,,,,,,,94,001,2023_May_05_1750,SpeechDraft1Carolyn_lessNoise_PlusLocalization,2021.2.3,60.03033658604913,
,,,,,,,,nearLeft,-6.5,1,ch1Sound_localizationTask.wav,-6.5,"(857, 878)","(-103,-202)",-95,-338,,,,,,,,,,,,,2,0,14,2,,,,,,,,,,,,,,,,,,,,,,,,,,,,,,,,,,,,,,,,1099.292320779059,None,,,1102.324241163209,None,1.4243386243386245,0.9166330769658089,1102.324241163209,None,,,,,,,1100.307913749013,None,1100.4911848730408,1100.5077950051054,,,,,,,94,001,2023_May_05_1750,SpeechDraft1Carolyn_lessNoise_PlusLocalization,2021.2.3,60.03033658604913,
,,,,,,,,nearLeft,-6.5,1,ch1Sound_localizationTask.wav,-6.5,"(857, 878)","(-103,-202)",-95,-338,,,,,,,,,,,,,2,1,15,2,,,,,,,,,,,,,,,,,,,,,,,,,,,,,,,,,,,,,,,,1103.2426781440154,None,,,1106.2743979701772,None,1.4597883597883599,1.183336806949228,1106.2743979701772,None,,,,,,,1104.2579198558815,None,1104.4411231772974,1104.4578682589345,,,,,,,94,001,2023_May_05_1750,SpeechDraft1Carolyn_lessNoise_PlusLocalization,2021.2.3,60.03033658604913,
,,,,,,,,nearRight,6.5,0,ch1Sound_localizationTask.wav,6.5,"(1047, 878)","(87, -202)",95,-338,,,,,,,,,,,,,2,2,16,4,,,,,,,,,,,,,,,,,,,,,,,,,,,,,,,,,,,,,,,,1107.4750894331373,None,,,1110.4908131929114,None,1.5714285714285714,0.8336407761089504,1110.4908131929114,None,,,,,,,1108.4745508702472,None,1108.657814111095,1108.6745855892077,,,,,,,94,001,2023_May_05_1750,SpeechDraft1Carolyn_lessNoise_PlusLocalization,2021.2.3,60.03033658604913,
,,,,,,,,farLeft,-19.1,5,ch1Sound_localizationTask.wav,-19.1,"(667, 878)","(-293,-202)",-285,-338,,,,,,,,,,,,,2,3,17,0,,,,,,,,,,,,,,,,,,,,,,,,,,,,,,,,,,,,,,,,1111.3413399718702,None,,,1114.3576376242563,None,1.3047619047619048,0.9996511992067099,1114.3576376242563,None,,,,,,,1112.3411906450056,None,1112.524608460255,1112.5412789671682,,,,,,,94,001,2023_May_05_1750,SpeechDraft1Carolyn_lessNoise_PlusLocalization,2021.2.3,60.03033658604913,
,,,,,,,,midRight,13.0,3,ch1Sound_localizationTask.wav,13.0,"(1142, 878)","(182, -202)",190,-338,,,,,,,,,,,,,2,4,18,5,,,,,,,,,,,,,,,,,,,,,,,,,,,,,,,,,,,,,,,,1115.3748629260808,None,,,1118.3910466451198,None,1.6132275132275131,1.0321901449933648,1118.3910466451198,None,,,,,,,1116.3745657149702,None,1116.5579133029096,1116.574493594002,,,,,,,94,001,2023_May_05_1750,SpeechDraft1Carolyn_lessNoise_PlusLocalization,2021.2.3,60.03033658604913,
,,,,,,,,farLeft,-19.1,5,ch1Sound_localizationTask.wav,-19.1,"(667, 878)","(-293,-202)",-285,-338,,,,,,,,,,,,,2,5,19,0,,,,,,,,,,,,,,,,,,,,,,,,,,,,,,,,,,,,,,,,1119.4253122499213,None,,,1122.4408664191142,None,1.3058201058201058,0.8823054898530245,1122.4408664191142,None,,,,,,,1120.4248023699038,None,1120.607937131077,1120.6245992360637,,,,,,,94,001,2023_May_05_1750,SpeechDraft1Carolyn_lessNoise_PlusLocalization,2021.2.3,60.03033658604913,
,,,,,,,,midRight,13.0,3,ch1Sound_localizationTask.wav,13.0,"(1142, 878)","(182, -202)",190,-338,,,,,,,,,,,,,2,6,20,5,,,,,,,,,,,,,,,,,,,,,,,,,,,,,,,,,,,,,,,,1123.326125843916,None,,,1126.3575304280967,None,1.608994708994709,0.9822584558278322,1126.3575304280967,None,,,,,,,1124.3412946220487,None,1124.524619251024,1124.5411465899087,,,,,,,94,001,2023_May_05_1750,SpeechDraft1Carolyn_lessNoise_PlusLocalization,2021.2.3,60.03033658604913,
,,,,,,,,midLeft,-13.0,2,ch1Sound_localizationTask.wav,-13.0,"(762, 878)","(-198,-202)",-190,-338,,,,,,,,,,,,,3,0,21,1,,,,,,,,,,,,,,,,,,,,,,,,,,,,,,,,,,,,,,,,1127.3579681608826,None,,,1130.3744493280537,None,1.3941798941798942,0.6163566219620407,1130.3744493280537,None,,,,,,,1128.358048510272,None,1128.5413906769827,1128.5579578462057,,,,,,,94,001,2023_May_05_1750,SpeechDraft1Carolyn_lessNoise_PlusLocalization,2021.2.3,60.03033658604913,
,,,,,,,,farLeft,-19.1,5,ch1Sound_localizationTask.wav,-19.1,"(667, 878)","(-293,-202)",-285,-338,,,,,,,,,,,,,3,1,22,0,,,,,,,,,,,,,,,,,,,,,,,,,,,,,,,,,,,,,,,,1130.9926410219632,None,,,1134.0243011089042,None,1.3195767195767196,0.8993605761788785,1134.0243011089042,None,,,,,,,1132.0079984450713,None,1132.1913001378998,1132.2080448199995,,,,,,,94,001,2023_May_05_1750,SpeechDraft1Carolyn_lessNoise_PlusLocalization,2021.2.3,60.03033658604913,
,,,,,,,,farRight,19.1,4,ch1Sound_localizationTask.wav,19.1,"(1237, 878)","(277,-202)",285,-338,,,,,,,,,,,,,3,2,23,6,,,,,,,,,,,,,,,,,,,,,,,,,,,,,,,,,,,,,,,,1134.9258407410234,None,,,1137.9575307960622,None,1.6555555555555554,1.1663476857356727,1137.9575307960622,None,,,,,,,1135.9412503489293,None,1136.124637532048,1136.1412472571246,,,,,,,94,001,2023_May_05_1750,SpeechDraft1Carolyn_lessNoise_PlusLocalization,2021.2.3,60.03033658604913,
,,,,,,,,farRight,19.1,4,ch1Sound_localizationTask.wav,19.1,"(1237, 878)","(277,-202)",285,-338,,,,,,,,,,,,,3,3,24,6,,,,,,,,,,,,,,,,,,,,,,,,,,,,,,,,,,,,,,,,1139.126133127138,None,,,1142.1576465731487,None,1.6962962962962962,0.7824721410870552,1142.1576465731487,None,,,,,,,1140.1413306249306,None,1140.3246926460415,1140.3411752032116,,,,,,,94,001,2023_May_05_1750,SpeechDraft1Carolyn_lessNoise_PlusLocalization,2021.2.3,60.03033658604913,
,,,,,,,,center,0.0,6,ch1Sound_localizationTask.wav,0.0,"(952, 878)","(-8,-202)",0,-338,,,,,,,,,,,,,3,4,25,3,,,,,,,,,,,,,,,,,,,,,,,,,,,,,,,,,,,,,,,,1142.942416369915,None,,,1145.9743639728986,None,1.4925925925925925,0.9983363929204643,1145.9743639728986,None,,,,,,,1143.9579602140002,None,1144.141245204024,1144.1580035239458,,,,,,,94,001,2023_May_05_1750,SpeechDraft1Carolyn_lessNoise_PlusLocalization,2021.2.3,60.03033658604913,
,,,,,,,,nearLeft,-6.5,1,ch1Sound_localizationTask.wav,-6.5,"(857, 878)","(-103,-202)",-95,-338,,,,,,,,,,,,,3,5,26,2,,,,,,,,,,,,,,,,,,,,,,,,,,,,,,,,,,,,,,,,1146.9757763161324,None,,,1150.0077683790587,None,1.439153439153439,0.7479980234056711,1150.0077683790587,None,,,,,,,1147.9912545382977,None,1148.1745932442136,1148.1913267979398,,,,,,,94,001,2023_May_05_1750,SpeechDraft1Carolyn_lessNoise_PlusLocalization,2021.2.3,60.03033658604913,
,,,,,,,,farLeft,-19.1,5,ch1Sound_localizationTask.wav,-19.1,"(667, 878)","(-293,-202)",-285,-338,,,,,,,,,,,,,3,6,27,0,,,,,,,,,,,,,,,,,,,,,,,,,,,,,,,,,,,,,,,,1150.7592111378908,None,,,1153.7911373833194,None,1.2920634920634921,0.9329922189936042,1153.7911373833194,None,,,,,,,1151.7745423740707,None,1151.9579152730294,1151.9748107101768,,,,,,,94,001,2023_May_05_1750,SpeechDraft1Carolyn_lessNoise_PlusLocalization,2021.2.3,60.03033658604913,
,,,,,,,,midLeft,-13.0,2,ch1Sound_localizationTask.wav,-13.0,"(762, 878)","(-198,-202)",-190,-338,,,,,,,,,,,,,4,0,28,1,,,,,,,,,,,,,,,,,,,,,,,,,,,,,,,,,,,,,,,,1154.7413741210476,None,,,1157.757556810975,None,1.4232804232804233,1.2496890439651906,1157.757556810975,None,,,,,,,1155.741500928998,None,1155.9246194949374,1155.941305234097,,,,,,,94,001,2023_May_05_1750,SpeechDraft1Carolyn_lessNoise_PlusLocalization,2021.2.3,60.03033658604913,
,,,,,,,,nearRight,6.5,0,ch1Sound_localizationTask.wav,6.5,"(1047, 878)","(87, -202)",95,-338,,,,,,,,,,,,,4,1,29,4,,,,,,,,,,,,,,,,,,,,,,,,,,,,,,,,,,,,,,,,1159.0246541718952,None,,,1162.0410341583192,None,1.5613756613756613,0.9157446250319481,1162.0410341583192,None,,,,,,,1160.0246801679023,None,1160.2079916349612,1160.2247263640165,,,,,,,94,001,2023_May_05_1750,SpeechDraft1Carolyn_lessNoise_PlusLocalization,2021.2.3,60.03033658604913,
,,,,,,,,midRight,13.0,3,ch1Sound_localizationTask.wav,13.0,"(1142, 878)","(182, -202)",190,-338,,,,,,,,,,,,,4,2,30,5,,,,,,,,,,,,,,,,,,,,,,,,,,,,,,,,,,,,,,,,1162.959034995176,None,,,1165.9909197762609,None,1.615873015873016,0.6995903449133039,1165.9909197762609,None,,,,,,,1163.9747168598697,None,1164.1578509099782,1164.1746590491384,,,,,,,94,001,2023_May_05_1750,SpeechDraft1Carolyn_lessNoise_PlusLocalization,2021.2.3,60.03033658604913,
,,,,,,,,nearRight,6.5,0,ch1Sound_localizationTask.wav,6.5,"(1047, 878)","(87, -202)",95,-338,,,,,,,,,,,,,4,3,31,4,,,,,,,,,,,,,,,,,,,,,,,,,,,,,,,,,,,,,,,,1166.708101447206,None,,,1169.7244679499418,None,1.535978835978836,0.7656037020497024,1169.7244679499418,None,,,,,,,1167.7081287871115,None,1167.8913136119954,1167.9081023312174,,,,,,,94,001,2023_May_05_1750,SpeechDraft1Carolyn_lessNoise_PlusLocalization,2021.2.3,60.03033658604913,
,,,,,,,,nearRight,6.5,0,ch1Sound_localizationTask.wav,6.5,"(1047, 878)","(87, -202)",95,-338,,,,,,,,,,,,,4,4,32,4,,,,,,,,,,,,,,,,,,,,,,,,,,,,,,,,,,,,,,,,1170.4926408501342,None,,,1173.5244219149463,None,1.555026455026455,1.066121097188443,1173.5244219149463,None,,,,,,,1171.508006742224,None,1171.6913797771558,1171.7080685631372,,,,,,,94,001,2023_May_05_1750,SpeechDraft1Carolyn_lessNoise_PlusLocalization,2021.2.3,60.03033658604913,
,,,,,,,,center,0.0,6,ch1Sound_localizationTask.wav,0.0,"(952, 878)","(-8,-202)",0,-338,,,,,,,,,,,,,4,5,33,3,,,,,,,,,,,,,,,,,,,,,,,,,,,,,,,,,,,,,,,,1174.5926270782948,None,,,1177.6243064771406,None,1.51005291005291,0.9328184747137129,1177.6243064771406,None,,,,,,,1175.608003076166,None,1175.7913129259832,1175.8080178489909,,,,,,,94,001,2023_May_05_1750,SpeechDraft1Carolyn_lessNoise_PlusLocalization,2021.2.3,60.03033658604913,
,,,,,,,,center,0.0,6,ch1Sound_localizationTask.wav,0.0,"(952, 878)","(-8,-202)",0,-338,,,,,,,,,,,,,4,6,34,3,,,,,,,,,,,,,,,,,,,,,,,,,,,,,,,,,,,,,,,,1178.5599058531225,None,,,1181.5910714031197,None,1.5010582010582012,0.950392097234726,1181.5910714031197,None,,,,,,,1179.5746713010594,None,1179.7580120060593,1179.7747395131737,,,,,,,94,001,2023_May_05_1750,SpeechDraft1Carolyn_lessNoise_PlusLocalization,2021.2.3,60.03033658604913,
,,,,,,,,center,0.0,6,ch1Sound_localizationTask.wav,0.0,"(952, 878)","(-8,-202)",0,-338,,,,,,,,,,,,,5,0,35,3,,,,,,,,,,,,,,,,,,,,,,,,,,,,,,,,,,,,,,,,1182.5582865471952,None,,,1185.5745202810504,None,1.5010582010582012,1.5162525931373239,1185.5745202810504,None,,,,,,,1183.5580196268857,None,1183.7413170700893,1183.7582705612294,,,,,,,94,001,2023_May_05_1750,SpeechDraft1Carolyn_lessNoise_PlusLocalization,2021.2.3,60.03033658604913,
,,,,,,,,farRight,19.1,4,ch1Sound_localizationTask.wav,19.1,"(1237, 878)","(277,-202)",285,-338,,,,,,,,,,,,,5,1,36,6,,,,,,,,,,,,,,,,,,,,,,,,,,,,,,,,,,,,,,,,1187.0931413811632,None,,,1190.124406882096,None,1.6444444444444444,0.7825195370242,1190.124406882096,None,,,,,,,1188.1079872469418,None,1188.2913708072156,1188.3079898431897,,,,,,,94,001,2023_May_05_1750,SpeechDraft1Carolyn_lessNoise_PlusLocalization,2021.2.3,60.03033658604913,
,,,,,,,,midLeft,-13.0,2,ch1Sound_localizationTask.wav,-13.0,"(762, 878)","(-198,-202)",-190,-338,,,,,,,,,,,,,5,2,37,1,,,,,,,,,,,,,,,,,,,,,,,,,,,,,,,,,,,,,,,,1190.9093052502722,None,,,1193.941020307131,None,1.3825396825396825,0.8154385178349912,1193.941020307131,None,,,,,,,1191.92477384815,None,1192.108225374017,1192.1247429451905,,,,,,,94,001,2023_May_05_1750,SpeechDraft1Carolyn_lessNoise_PlusLocalization,2021.2.3,60.03033658604913,
,,,,,,,,center,0.0,6,ch1Sound_localizationTask.wav,0.0,"(952, 878)","(-8,-202)",0,-338,,,,,,,,,,,,,5,3,38,3,,,,,,,,,,,,,,,,,,,,,,,,,,,,,,,,,,,,,,,,1194.7588647608645,None,,,1197.7743294811808,None,1.5105820105820107,0.8827264602296054,1197.7743294811808,None,,,,,,,1195.758200575132,None,1195.9413280710578,1195.9579204120673,,,,,,,94,001,2023_May_05_1750,SpeechDraft1Carolyn_lessNoise_PlusLocalization,2021.2.3,60.03033658604913,
,,,,,,,,midRight,13.0,3,ch1Sound_localizationTask.wav,13.0,"(1142, 878)","(182, -202)",190,-338,,,,,,,,,,,,,5,4,39,5,,,,,,,,,,,,,,,,,,,,,,,,,,,,,,,,,,,,,,,,1198.6748548471369,None,,,1201.6913181878626,None,1.601058201058201,1.0826895078644156,1201.6913181878626,None,,,,,,,1199.6746774259955,None,1199.8579907491803,1199.8747269050218,,,,,,,94,001,2023_May_05_1750,SpeechDraft1Carolyn_lessNoise_PlusLocalization,2021.2.3,60.03033658604913,
,,,,,,,,nearRight,6.5,0,ch1Sound_localizationTask.wav,6.5,"(1047, 878)","(87, -202)",95,-338,,,,,,,,,,,,,5,5,40,4,,,,,,,,,,,,,,,,,,,,,,,,,,,,,,,,,,,,,,,,1202.7910581668839,None,,,1205.8076057001017,None,1.5582010582010581,0.9330379879102111,1205.8076057001017,None,,,,,,,1203.7913268390112,None,1203.9746718532406,1203.9913801620714,,,,,,,94,001,2023_May_05_1750,SpeechDraft1Carolyn_lessNoise_PlusLocalization,2021.2.3,60.03033658604913,
,,,,,,,,farLeft,-19.1,5,ch1Sound_localizationTask.wav,-19.1,"(667, 878)","(-293,-202)",-285,-338,,,,,,,,,,,,,5,6,41,0,,,,,,,,,,,,,,,,,,,,,,,,,,,,,,,,,,,,,,,,1206.7427414939739,None,,,1209.7743860231712,None,1.3137566137566137,0.8169157146476209,1209.7743860231712,None,,,,,,,1207.7580088339746,None,1207.941213180311,1207.958054635208,,,,,,,94,001,2023_May_05_1750,SpeechDraft1Carolyn_lessNoise_PlusLocalization,2021.2.3,60.03033658604913,
,,,,,,,,nearRight,6.5,0,ch1Sound_localizationTask.wav,6.5,"(1047, 878)","(87, -202)",95,-338,,,,,,,,,,,,,6,0,42,4,,,,,,,,,,,,,,,,,,,,,,,,,,,,,,,,,,,,,,,,1210.6081982292235,None,,,1213.6244614501484,None,1.5613756613756613,0.9827868901193142,1213.6244614501484,None,,,,,,,1211.608000817243,None,1211.7914410592057,1211.8079701559618,,,,,,,94,001,2023_May_05_1750,SpeechDraft1Carolyn_lessNoise_PlusLocalization,2021.2.3,60.03033658604913,
,,,,,,,,midLeft,-13.0,2,ch1Sound_localizationTask.wav,-13.0,"(762, 878)","(-198,-202)",-190,-338,,,,,,,,,,,,,6,1,43,1,,,,,,,,,,,,,,,,,,,,,,,,,,,,,,,,,,,,,,,,1214.6091837929562,None,,,1217.641083074268,None,1.361904761904762,0.8991131456568837,1217.641083074268,None,,,,,,,1215.62478684308,None,1215.808009553235,1215.8247694652528,,,,,,,94,001,2023_May_05_1750,SpeechDraft1Carolyn_lessNoise_PlusLocalization,2021.2.3,60.03033658604913,
,,,,,,,,midLeft,-13.0,2,ch1Sound_localizationTask.wav,-13.0,"(762, 878)","(-198,-202)",-190,-338,,,,,,,,,,,,,6,2,44,1,,,,,,,,,,,,,,,,,,,,,,,,,,,,,,,,,,,,,,,,1218.5428888420574,None,,,1221.5744615411386,None,1.4248677248677248,0.8331409860402346,1221.5744615411386,None,,,,,,,1219.5580597971566,None,1219.74138429109,1219.7580880541354,,,,,,,94,001,2023_May_05_1750,SpeechDraft1Carolyn_lessNoise_PlusLocalization,2021.2.3,60.03033658604913,
,,,,,,,,nearRight,6.5,0,ch1Sound_localizationTask.wav,6.5,"(1047, 878)","(87, -202)",95,-338,,,,,,,,,,,,,6,3,45,4,,,,,,,,,,,,,,,,,,,,,,,,,,,,,,,,,,,,,,,,1222.4096135660075,None,,,1225.4409805322066,None,1.5629629629629629,0.30159019073471427,1225.4409805322066,None,,,,,,,1223.424754962325,None,1223.6079568229616,1223.6246604961343,,,,,,,94,001,2023_May_05_1750,SpeechDraft1Carolyn_lessNoise_PlusLocalization,2021.2.3,60.03033658604913,
,,,,,,,,farLeft,-19.1,5,ch1Sound_localizationTask.wav,-19.1,"(667, 878)","(-293,-202)",-285,-338,,,,,,,,,,,,,6,4,46,0,,,,,,,,,,,,,,,,,,,,,,,,,,,,,,,,,,,,,,,,1225.758055754006,None,,,1228.7746273749508,None,1.3100529100529101,0.9327685553580523,1228.7746273749508,None,,,,,,,1226.758034575265,None,1226.9414341440424,1226.958018427249,,,,,,,94,001,2023_May_05_1750,SpeechDraft1Carolyn_lessNoise_PlusLocalization,2021.2.3,60.03033658604913,
,,,,,,,,farRight,19.1,4,ch1Sound_localizationTask.wav,19.1,"(1237, 878)","(277,-202)",285,-338,,,,,,,,,,,,,6,5,47,6,,,,,,,,,,,,,,,,,,,,,,,,,,,,,,,,,,,,,,,,1229.7092446042225,None,,,1232.7410924481228,None,1.6603174603174602,1.0329292980022728,1232.7410924481228,None,,,,,,,1230.724685918074,None,1230.9080669381656,1230.9248930509202,,,,,,,94,001,2023_May_05_1750,SpeechDraft1Carolyn_lessNoise_PlusLocalization,2021.2.3,60.03033658604913,
,,,,,,,,farLeft,-19.1,5,ch1Sound_localizationTask.wav,-19.1,"(667, 878)","(-293,-202)",-285,-338,,,,,,,,,,,,,6,6,48,0,,,,,,,,,,,,,,,,,,,,,,,,,,,,,,,,,,,,,,,,1233.7915537389927,None,,,1236.8076685122214,None,1.3650793650793651,0.8819073629565537,1236.8076685122214,None,,,,,,,1234.7914984701201,None,1234.9747623712756,1234.9914455362596,,,,,,,94,001,2023_May_05_1750,SpeechDraft1Carolyn_lessNoise_PlusLocalization,2021.2.3,60.03033658604913,
,,,,,,,,nearLeft,-6.5,1,ch1Sound_localizationTask.wav,-6.5,"(857, 878)","(-103,-202)",-95,-338,,,,,,,,,,,,,7,0,49,2,,,,,,,,,,,,,,,,,,,,,,,,,,,,,,,,,,,,,,,,1237.6929595670663,None,,,1240.7245221459307,None,1.4624338624338624,1.2162914471700788,1240.7245221459307,None,,,,,,,1238.7080656262115,None,1238.89132671291,1238.9081540070474,,,,,,,94,001,2023_May_05_1750,SpeechDraft1Carolyn_lessNoise_PlusLocalization,2021.2.3,60.03033658604913,
,,,,,,,,midLeft,-13.0,2,ch1Sound_localizationTask.wav,-13.0,"(762, 878)","(-198,-202)",-190,-338,,,,,,,,,,,,,7,1,50,1,,,,,,,,,,,,,,,,,,,,,,,,,,,,,,,,,,,,,,,,1241.958159733098,None,,,1244.9745275280438,None,1.3984126984126983,0.9323580167256296,1244.9745275280438,None,,,,,,,1242.9580346969888,None,1243.1414605663158,1243.158167409245,,,,,,,94,001,2023_May_05_1750,SpeechDraft1Carolyn_lessNoise_PlusLocalization,2021.2.3,60.03033658604913,
,,,,,,,,center,0.0,6,ch1Sound_localizationTask.wav,0.0,"(952, 878)","(-8,-202)",0,-338,,,,,,,,,,,,,7,2,51,3,,,,,,,,,,,,,,,,,,,,,,,,,,,,,,,,,,,,,,,,1245.9100496340543,None,,,1248.9411725299433,None,1.5010582010582012,0.7657464649528265,1248.9411725299433,None,,,,,,,1246.9246379532851,None,1247.1081720669754,1247.1247078701854,,,,,,,94,001,2023_May_05_1750,SpeechDraft1Carolyn_lessNoise_PlusLocalization,2021.2.3,60.03033658604913,
,,,,,,,,nearLeft,-6.5,1,ch1Sound_localizationTask.wav,-6.5,"(857, 878)","(-103,-202)",-95,-338,,,,,,,,,,,,,7,3,52,2,,,,,,,,,,,,,,,,,,,,,,,,,,,,,,,,,,,,,,,,1249.7096774559468,None,,,1252.7411050000228,None,1.425925925925926,0.732442154083401,1252.7411050000228,None,,,,,,,1250.7246830291115,None,1250.9080103980377,1250.9249850260094,,,,,,,94,001,2023_May_05_1750,SpeechDraft1Carolyn_lessNoise_PlusLocalization,2021.2.3,60.03033658604913,
,,,,,,,,midLeft,-13.0,2,ch1Sound_localizationTask.wav,-13.0,"(762, 878)","(-198,-202)",-190,-338,,,,,,,,,,,,,7,4,53,1,,,,,,,,,,,,,,,,,,,,,,,,,,,,,,,,,,,,,,,,1253.4756673178636,None,,,1256.491239441093,None,1.4343915343915343,0.5142348371446133,1256.491239441093,None,,,,,,,1254.4747356888838,None,1254.6580424611457,1254.6746833710931,,,,,,,94,001,2023_May_05_1750,SpeechDraft1Carolyn_lessNoise_PlusLocalization,2021.2.3,60.03033658604913,
,,,,,,,,center,0.0,6,ch1Sound_localizationTask.wav,0.0,"(952, 878)","(-8,-202)",0,-338,,,,,,,,,,,,,7,5,54,3,,,,,,,,,,,,,,,,,,,,,,,,,,,,,,,,,,,,,,,,1257.0096345040947,None,,,1260.041032956913,None,1.5010582010582012,1.1993856728076935,1260.041032956913,None,,,,,,,1258.0246866061352,None,1258.2079983600415,1258.2247123993002,,,,,,,94,001,2023_May_05_1750,SpeechDraft1Carolyn_lessNoise_PlusLocalization,2021.2.3,60.03033658604913,
,,,,,,,,nearRight,6.5,0,ch1Sound_localizationTask.wav,6.5,"(1047, 878)","(87, -202)",95,-338,,,,,,,,,,,,,7,6,55,4,,,,,,,,,,,,,,,,,,,,,,,,,,,,,,,,,,,,,,,,1261.2427812260576,None,,,1264.2743544359691,None,1.5481481481481483,0.7332319249399006,1264.2743544359691,None,,,,,,,1262.2580973710865,None,1262.4413980441168,1262.4581889212132,,,,,,,94,001,2023_May_05_1750,SpeechDraft1Carolyn_lessNoise_PlusLocalization,2021.2.3,60.03033658604913,
,,,,,,,,,,,,,,,,,,,,,,,,,,,,,,,,,,,,,,,,,,,,,,,,,,,,,,,,,,,,,,,,,,,,,,,,,,,,,,,,,,,,,,,,,,,,1265.0250009810552,None,c,1990.2177466452122,1266.0083107589744,None,94,001,2023_May_05_1750,SpeechDraft1Carolyn_lessNoise_PlusLocalization,2021.2.3,60.03033658604913,
