Audio_Only_Files,Video_Files,Original_Word_List,noiseLevelCode,conditionCodes,noiseLevelFile1,noiseLevelFile2,InstrTextVar,targetSpeakerName,targetSpeakerEccen,targetSpkrChannel,targetSpkrSound,targetVisualDegrees,visStimLoc,visStimLoc2,visStimW,visStimH,practiceTrials.thisRepN,practiceTrials.thisTrialN,practiceTrials.thisN,practiceTrials.thisIndex,trials.thisRepN,trials.thisTrialN,trials.thisN,trials.thisIndex,audLocalLoop.thisRepN,audLocalLoop.thisTrialN,audLocalLoop.thisN,audLocalLoop.thisIndex,visualLocalLoop.thisRepN,visualLocalLoop.thisTrialN,visualLocalLoop.thisN,visualLocalLoop.thisIndex,letsGoAlready.keys,letsGoAlready.rt,letsGoAlready.started,letsGoAlready.stopped,text_2.started,text_2.stopped,text_3.started,text_3.stopped,key_resp_2.keys,key_resp_2.rt,key_resp_2.started,key_resp_2.stopped,text_5.started,text_5.stopped,fixCross.started,fixCross.stopped,fixCross2.started,fixCross2.stopped,answerPrompt.started,answerPrompt.stopped,getAnswer.text,getAnswer.started,getAnswer.stopped,goToNext.keys,goToNext.rt,goToNext.started,goToNext.stopped,stretchBreakTxrt.started,stretchBreakTxrt.stopped,key_resp_3.keys,key_resp_3.rt,key_resp_3.started,key_resp_3.stopped,letsGoLocal.keys,letsGoLocal.rt,letsGoLocal.started,letsGoLocal.stopped,text_4.started,text_4.stopped,prepFixTxt.started,prepFixTxt.stopped,prepFixTxt_2.started,prepFixTxt_2.stopped,respPromptLocal.started,respPromptLocal.stopped,slider.response,slider.rt,slider.started,slider.stopped,letsGoLocal_2.keys,letsGoLocal_2.rt,letsGoLocal_2.started,letsGoLocal_2.stopped,text_7.started,text_7.stopped,prepFixTxt_3.started,prepFixTxt_3.stopped,grating.started,grating.stopped,exitTxt.started,exitTxt.stopped,key_resp.keys,key_resp.rt,key_resp.started,key_resp.stopped,participant,session,date,expName,psychopyVersion,frameRate,
,,,,,,,,,,,,,,,,,,,,,,,,,,,,,,,,,space,59.95103524899969,9.8705765420018,None,,,,,,,,,,,,,,,,,,,,,,,,,,,,,,,,,,,,,,,,,,,,,,,,,,,,,,,,,,,,,,95,001,2023_May_10_1257,SpeechDraft1Carolyn_lessNoise_PlusLocalization,2021.2.3,60.16996510858146,
,,,,,,,,,,,,,,,,,,,,,,,,,,,,,,,,,,,,,9.8705765420018,None,70.08973750000223,None,space,8.157001081999624,70.27266854200207,None,,,,,,,,,,,,,,,,,,,,,,,,,,,,,,,,,,,,,,,,,,,,,,,,,,,,,,95,001,2023_May_10_1257,SpeechDraft1Carolyn_lessNoise_PlusLocalization,2021.2.3,60.16996510858146,
ash.wav,ash.mpg,ash,1,A,Pink_Noise_1_1.wav,Pink_Noise_1_2.wav,"This is an example of an

AUDIO trial",,,,,,,,,,0,0,0,0,,,,,,,,,,,,,,,,,,,,,,,,,78.47813729200061,None,79.47148904200003,None,82.51334441700237,None,83.90547708400118,None,ash,83.90547708400118,None,return,5.081888331998925,83.98788729200169,None,,,,,,,,,,,,,,,,,,,,,,,,,,,,,,,,,,,,,,,95,001,2023_May_10_1257,SpeechDraft1Carolyn_lessNoise_PlusLocalization,2021.2.3,60.16996510858146,
ash.wav,ash.mpg,ash,1,AV,Pink_Noise_1_1.wav,Pink_Noise_1_2.wav,"This is an example of an

AUDIO + VIDEO  trial",,,,,,,,,,0,1,1,1,,,,,,,,,,,,,,,,,,,,,,,,,89.08824412499962,None,90.08867470900077,None,91.59629862500151,None,92.98877508400255,None,ash,92.98877508400255,None,return,14.142238374002773,93.07162674999927,None,,,,,,,,,,,,,,,,,,,,,,,,,,,,,,,,,,,,,,,95,001,2023_May_10_1257,SpeechDraft1Carolyn_lessNoise_PlusLocalization,2021.2.3,60.16996510858146,
,,,,,,,,,,,,,,,,,,,,,,,,,,,,,,,,,,,,,,,,,,,,,,,,,,,,,,,,,,,,107.23934041699977,None,space,9.158798831998865,107.43912895900212,None,,,,,,,,,,,,,,,,,,,,,,,,,,,,,,,,,95,001,2023_May_10_1257,SpeechDraft1Carolyn_lessNoise_PlusLocalization,2021.2.3,60.16996510858146,
fault.wav,fault.mpg,fault,6,AV,Pink_Noise_6_1.wav,Pink_Noise_6_2.wav,,,,,,,,,,,,,,,0,0,0,89,,,,,,,,,,,,,,,,,,,,,,,116.63724420899962,None,118.14829337500123,None,119.53801899999962,None,fun,119.53801899999962,None,return,8.240544249001687,119.62142600000152,None,,,,,,,,,,,,,,,,,,,,,,,,,,,,,,,,,,,,,,,95,001,2023_May_10_1257,SpeechDraft1Carolyn_lessNoise_PlusLocalization,2021.2.3,60.16996510858146,
jam.wav,jam.mpg,jam,3,AV,Pink_Noise_3_1.wav,Pink_Noise_3_2.wav,,,,,,,,,,,,,,,0,1,1,97,,,,,,,,,,,,,,,,,,,,,,,127.88825558400276,None,129.39821416700215,None,130.7883372920005,None,jam,130.7883372920005,None,return,14.21503283200218,130.8710720420022,None,,,,,,,,,,,,,,,,,,,,,,,,,,,,,,,,,,,,,,,95,001,2023_May_10_1257,SpeechDraft1Carolyn_lessNoise_PlusLocalization,2021.2.3,60.16996510858146,
claim.wav,claim.mpg,claim,4,A,Pink_Noise_4_1.wav,Pink_Noise_4_2.wav,,,,,,,,,,,,,,,0,2,2,8,,,,,,,,,,,,,,,,,,,,,,,145.10535670900208,None,146.61753875000068,None,148.02145233400006,None,play,148.02145233400006,None,return,4.844490666000638,148.1057355840021,None,,,,,,,,,,,,,,,,,,,,,,,,,,,,,,,,,,,,,,,95,001,2023_May_10_1257,SpeechDraft1Carolyn_lessNoise_PlusLocalization,2021.2.3,60.16996510858146,
giant.wav,giant.mpg,giant,6,A,Pink_Noise_6_1.wav,Pink_Noise_6_2.wav,,,,,,,,,,,,,,,0,3,3,47,,,,,,,,,,,,,,,,,,,,,,,152.97144229200057,None,154.4828902090012,None,155.8718570000019,None,lie,155.8718570000019,None,return,9.899442248999549,155.9547518340005,None,,,,,,,,,,,,,,,,,,,,,,,,,,,,,,,,,,,,,,,95,001,2023_May_10_1257,SpeechDraft1Carolyn_lessNoise_PlusLocalization,2021.2.3,60.16996510858146,
bring.wav,bring.mpg,bring,3,AV,Pink_Noise_3_1.wav,Pink_Noise_3_2.wav,,,,,,,,,,,,,,,0,4,4,90,,,,,,,,,,,,,,,,,,,,,,,165.87191208399963,None,167.38795733400184,None,168.7881460839999,None,pray,168.7881460839999,None,return,8.598614040998655,168.8716679169993,None,,,,,,,,,,,,,,,,,,,,,,,,,,,,,,,,,,,,,,,95,001,2023_May_10_1257,SpeechDraft1Carolyn_lessNoise_PlusLocalization,2021.2.3,60.16996510858146,
east.wav,east.mpg,east,1,A,Pink_Noise_1_1.wav,Pink_Noise_1_2.wav,,,,,,,,,,,,,,,0,5,5,55,,,,,,,,,,,,,,,,,,,,,,,177.48876987500262,None,179.00015391700072,None,180.38856750000195,None,aced,180.38856750000195,None,return,2.254733165998914,180.47158087500065,None,,,,,,,,,,,,,,,,,,,,,,,,,,,,,,,,,,,,,,,95,001,2023_May_10_1257,SpeechDraft1Carolyn_lessNoise_PlusLocalization,2021.2.3,60.16996510858146,
barn.wav,barn.mpg,barn,2,AV,Pink_Noise_2_1.wav,Pink_Noise_2_2.wav,,,,,,,,,,,,,,,0,6,6,111,,,,,,,,,,,,,,,,,,,,,,,182.7547787500007,None,184.2722464590006,None,185.67197099999976,None,sorry,185.67197099999976,None,return,2.627787041001284,185.75463325000237,None,,,,,,,,,,,,,,,,,,,,,,,,,,,,,,,,,,,,,,,95,001,2023_May_10_1257,SpeechDraft1Carolyn_lessNoise_PlusLocalization,2021.2.3,60.16996510858146,
dive.wav,dive.mpg,dive,6,A,Pink_Noise_6_1.wav,Pink_Noise_6_2.wav,,,,,,,,,,,,,,,0,7,7,12,,,,,,,,,,,,,,,,,,,,,,,188.40585841700158,None,189.92534449999948,None,191.32170708400008,None,tie,191.32170708400008,None,return,8.042026208000607,191.38842641700103,None,,,,,,,,,,,,,,,,,,,,,,,,,,,,,,,,,,,,,,,95,001,2023_May_10_1257,SpeechDraft1Carolyn_lessNoise_PlusLocalization,2021.2.3,60.16996510858146,
drink.wav,drink.mpg,drink,6,A,Pink_Noise_6_1.wav,Pink_Noise_6_2.wav,,,,,,,,,,,,,,,0,8,8,58,,,,,,,,,,,,,,,,,,,,,,,199.455075959002,None,200.97494229199947,None,202.37134695900022,None,a,202.37134695900022,None,return,11.246963958001288,202.4555836670006,None,,,,,,,,,,,,,,,,,,,,,,,,,,,,,,,,,,,,,,,95,001,2023_May_10_1257,SpeechDraft1Carolyn_lessNoise_PlusLocalization,2021.2.3,60.16996510858146,
beer.wav,beer.mpg,beer,6,A,Pink_Noise_6_1.wav,Pink_Noise_6_2.wav,,,,,,,,,,,,,,,0,9,9,35,,,,,,,,,,,,,,,,,,,,,,,213.72202933399967,None,215.236867292002,None,216.639136875001,None,"cant hear
",216.639136875001,None,return,13.668529874998057,216.72207541700118,None,,,,,,,,,,,,,,,,,,,,,,,,,,,,,,,,,,,,,,,95,001,2023_May_10_1257,SpeechDraft1Carolyn_lessNoise_PlusLocalization,2021.2.3,60.16996510858146,
flask.wav,flask.mpg,flask,1,AV,Pink_Noise_1_1.wav,Pink_Noise_1_2.wav,,,,,,,,,,,,,,,0,10,10,62,,,,,,,,,,,,,,,,,,,,,,,230.42158920899965,None,231.94168933400215,None,233.33862841700102,None,flask,233.33862841700102,None,return,3.7924958749972575,233.4222235840025,None,,,,,,,,,,,,,,,,,,,,,,,,,,,,,,,,,,,,,,,95,001,2023_May_10_1257,SpeechDraft1Carolyn_lessNoise_PlusLocalization,2021.2.3,60.16996510858146,
tool.wav,tool.mpg,tool,4,AV,Pink_Noise_4_1.wav,Pink_Noise_4_2.wav,,,,,,,,,,,,,,,0,11,11,100,,,,,,,,,,,,,,,,,,,,,,,237.23835208400124,None,238.75787625000157,None,240.1559956250021,None,tool,240.1559956250021,None,return,2.8402272910025204,240.2384749590019,None,,,,,,,,,,,,,,,,,,,,,,,,,,,,,,,,,,,,,,,95,001,2023_May_10_1257,SpeechDraft1Carolyn_lessNoise_PlusLocalization,2021.2.3,60.16996510858146,
clip.wav,clip.mpg,clip,4,A,Pink_Noise_4_1.wav,Pink_Noise_4_2.wav,,,,,,,,,,,,,,,0,12,12,40,,,,,,,,,,,,,,,,,,,,,,,243.10522566700092,None,244.62788704200284,None,246.02236208400063,None,clip,246.02236208400063,None,return,2.989777666000009,246.10494562500025,None,,,,,,,,,,,,,,,,,,,,,,,,,,,,,,,,,,,,,,,95,001,2023_May_10_1257,SpeechDraft1Carolyn_lessNoise_PlusLocalization,2021.2.3,60.16996510858146,
feast.wav,feast.mpg,feast,6,AV,Pink_Noise_6_1.wav,Pink_Noise_6_2.wav,,,,,,,,,,,,,,,0,13,13,113,,,,,,,,,,,,,,,,,,,,,,,249.1214021670021,None,250.64497066700278,None,252.03856045900102,None,dip,252.03856045900102,None,return,9.412585707003018,252.12227783400158,None,,,,,,,,,,,,,,,,,,,,,,,,,,,,,,,,,,,,,,,95,001,2023_May_10_1257,SpeechDraft1Carolyn_lessNoise_PlusLocalization,2021.2.3,60.16996510858146,
cup.wav,cup.mpg,cup,5,AV,Pink_Noise_5_1.wav,Pink_Noise_5_2.wav,,,,,,,,,,,,,,,0,14,14,74,,,,,,,,,,,,,,,,,,,,,,,261.55535675000283,None,263.0829415840017,None,264.47152887500124,None,"cut
",264.47152887500124,None,return,4.867961583000579,264.55489991700233,None,,,,,,,,,,,,,,,,,,,,,,,,,,,,,,,,,,,,,,,95,001,2023_May_10_1257,SpeechDraft1Carolyn_lessNoise_PlusLocalization,2021.2.3,60.16996510858146,
grass.wav,grass.mpg,grass,6,AV,Pink_Noise_6_1.wav,Pink_Noise_6_2.wav,,,,,,,,,,,,,,,0,15,15,85,,,,,,,,,,,,,,,,,,,,,,,269.45491116700214,None,270.97756233400287,None,272.3717042089993,None,trust,272.3717042089993,None,return,11.848035998998967,272.45496279200233,None,,,,,,,,,,,,,,,,,,,,,,,,,,,,,,,,,,,,,,,95,001,2023_May_10_1257,SpeechDraft1Carolyn_lessNoise_PlusLocalization,2021.2.3,60.16996510858146,
shrimp.wav,shrimp.mpg,shrimp,2,A,Pink_Noise_2_1.wav,Pink_Noise_2_2.wav,,,,,,,,,,,,,,,0,16,16,27,,,,,,,,,,,,,,,,,,,,,,,284.32253712500096,None,285.8454200840024,None,287.2386603340019,None,shrip,287.2386603340019,None,return,5.1811842910028645,287.3218554590021,None,,,,,,,,,,,,,,,,,,,,,,,,,,,,,,,,,,,,,,,95,001,2023_May_10_1257,SpeechDraft1Carolyn_lessNoise_PlusLocalization,2021.2.3,60.16996510858146,
chef.wav,chef.mpg,chef,4,A,Pink_Noise_4_1.wav,Pink_Noise_4_2.wav,,,,,,,,,,,,,,,0,17,17,43,,,,,,,,,,,,,,,,,,,,,,,292.5221933749999,None,294.0507661670017,None,295.4549058750017,None,shut,295.4549058750017,None,return,4.580433791001269,295.53867095900205,None,,,,,,,,,,,,,,,,,,,,,,,,,,,,,,,,,,,,,,,95,001,2023_May_10_1257,SpeechDraft1Carolyn_lessNoise_PlusLocalization,2021.2.3,60.16996510858146,
bench.wav,bench.mpg,bench,3,A,Pink_Noise_3_1.wav,Pink_Noise_3_2.wav,,,,,,,,,,,,,,,0,18,18,14,,,,,,,,,,,,,,,,,,,,,,,300.1390866670008,None,301.66652833400076,None,303.0552581250013,None,fetch,303.0552581250013,None,return,2.8285117489976983,303.13863499999934,None,,,,,,,,,,,,,,,,,,,,,,,,,,,,,,,,,,,,,,,95,001,2023_May_10_1257,SpeechDraft1Carolyn_lessNoise_PlusLocalization,2021.2.3,60.16996510858146,
gun.wav,gun.mpg,gun,5,AV,Pink_Noise_5_1.wav,Pink_Noise_5_2.wav,,,,,,,,,,,,,,,0,19,19,108,,,,,,,,,,,,,,,,,,,,,,,305.9886406250007,None,307.51983779200236,None,308.9218352499993,None,l,308.9218352499993,None,return,2.840828332999081,309.00631645900285,None,,,,,,,,,,,,,,,,,,,,,,,,,,,,,,,,,,,,,,,95,001,2023_May_10_1257,SpeechDraft1Carolyn_lessNoise_PlusLocalization,2021.2.3,60.16996510858146,
cling.wav,cling.mpg,cling,2,AV,Pink_Noise_2_1.wav,Pink_Noise_2_2.wav,,,,,,,,,,,,,,,0,20,20,109,,,,,,,,,,,,,,,,,,,,,,,311.871932500002,None,313.4019874170008,None,314.8055648340014,None,clay,314.8055648340014,None,return,2.3268025819998,314.8884142500028,None,,,,,,,,,,,,,,,,,,,,,,,,,,,,,,,,,,,,,,,95,001,2023_May_10_1257,SpeechDraft1Carolyn_lessNoise_PlusLocalization,2021.2.3,60.16996510858146,
gray.wav,gray.mpg,gray,6,AV,Pink_Noise_6_1.wav,Pink_Noise_6_2.wav,,,,,,,,,,,,,,,0,21,21,77,,,,,,,,,,,,,,,,,,,,,,,317.23832716700053,None,318.76975645900166,None,320.1718579590015,None,grape,320.1718579590015,None,return,3.4641131659991515,320.2551043750027,None,,,,,,,,,,,,,,,,,,,,,,,,,,,,,,,,,,,,,,,95,001,2023_May_10_1257,SpeechDraft1Carolyn_lessNoise_PlusLocalization,2021.2.3,60.16996510858146,
gust.wav,gust.mpg,gust,2,AV,Pink_Noise_2_1.wav,Pink_Noise_2_2.wav,,,,,,,,,,,,,,,0,22,22,92,,,,,,,,,,,,,,,,,,,,,,,323.7389678340005,None,325.2702100420029,None,326.67177425000045,None,"gust
",326.67177425000045,None,return,3.652123541000037,326.7550986250026,None,,,,,,,,,,,,,,,,,,,,,,,,,,,,,,,,,,,,,,,95,001,2023_May_10_1257,SpeechDraft1Carolyn_lessNoise_PlusLocalization,2021.2.3,60.16996510858146,
ask.wav,ask.mpg,ask,3,A,Pink_Noise_3_1.wav,Pink_Noise_3_2.wav,,,,,,,,,,,,,,,0,23,23,13,,,,,,,,,,,,,,,,,,,,,,,330.43855479200283,None,331.9706811249998,None,333.3715697500011,None,ask,333.3715697500011,None,return,1.6635247909980535,333.45576720900135,None,,,,,,,,,,,,,,,,,,,,,,,,,,,,,,,,,,,,,,,95,001,2023_May_10_1257,SpeechDraft1Carolyn_lessNoise_PlusLocalization,2021.2.3,60.16996510858146,
grunt.wav,grunt.mpg,grunt,1,AV,Pink_Noise_1_1.wav,Pink_Noise_1_2.wav,,,,,,,,,,,,,,,0,24,24,79,,,,,,,,,,,,,,,,,,,,,,,335.13923791699926,None,336.66794883400144,None,338.05600174999927,None,grunt,338.05600174999927,None,return,4.076783874999819,338.1385631250014,None,,,,,,,,,,,,,,,,,,,,,,,,,,,,,,,,,,,,,,,95,001,2023_May_10_1257,SpeechDraft1Carolyn_lessNoise_PlusLocalization,2021.2.3,60.16996510858146,
goose.wav,goose.mpg,goose,1,A,Pink_Noise_1_1.wav,Pink_Noise_1_2.wav,,,,,,,,,,,,,,,0,25,25,31,,,,,,,,,,,,,,,,,,,,,,,342.2383083750028,None,343.76916750000237,None,345.17177916700166,None,goose,345.17177916700166,None,return,2.207518623999931,345.25585241700173,None,,,,,,,,,,,,,,,,,,,,,,,,,,,,,,,,,,,,,,,95,001,2023_May_10_1257,SpeechDraft1Carolyn_lessNoise_PlusLocalization,2021.2.3,60.16996510858146,
due.wav,due.mpg,due,1,AV,Pink_Noise_1_1.wav,Pink_Noise_1_2.wav,,,,,,,,,,,,,,,0,26,26,71,,,,,,,,,,,,,,,,,,,,,,,347.48866612500206,None,349.022592917001,None,350.4219033750014,None,due,350.4219033750014,None,return,0.7582974580000155,350.5051159169998,None,,,,,,,,,,,,,,,,,,,,,,,,,,,,,,,,,,,,,,,95,001,2023_May_10_1257,SpeechDraft1Carolyn_lessNoise_PlusLocalization,2021.2.3,60.16996510858146,
gash.wav,gash.mpg,gash,3,A,Pink_Noise_3_1.wav,Pink_Noise_3_2.wav,,,,,,,,,,,,,,,0,27,27,56,,,,,,,,,,,,,,,,,,,,,,,351.2887839590003,None,352.8271999170029,None,354.2218962920015,None,gash,354.2218962920015,None,return,1.9899126250020345,354.30548541700045,None,,,,,,,,,,,,,,,,,,,,,,,,,,,,,,,,,,,,,,,95,001,2023_May_10_1257,SpeechDraft1Carolyn_lessNoise_PlusLocalization,2021.2.3,60.16996510858146,
dove.wav,dove.mpg,dove,5,AV,Pink_Noise_5_1.wav,Pink_Noise_5_2.wav,,,,,,,,,,,,,,,0,28,28,84,,,,,,,,,,,,,,,,,,,,,,,356.32217779200073,None,357.8562719590009,None,359.25536716699935,None,cant hear,359.25536716699935,None,return,6.660705416001292,359.3388160840004,None,,,,,,,,,,,,,,,,,,,,,,,,,,,,,,,,,,,,,,,95,001,2023_May_10_1257,SpeechDraft1Carolyn_lessNoise_PlusLocalization,2021.2.3,60.16996510858146,
buzz.wav,buzz.mpg,buzz,2,A,Pink_Noise_2_1.wav,Pink_Noise_2_2.wav,,,,,,,,,,,,,,,0,29,29,32,,,,,,,,,,,,,,,,,,,,,,,366.02190445900123,None,367.55915466700026,None,368.9559225840021,None,"buzz
",368.9559225840021,None,return,1.016227373998845,369.03925141700165,None,,,,,,,,,,,,,,,,,,,,,,,,,,,,,,,,,,,,,,,95,001,2023_May_10_1257,SpeechDraft1Carolyn_lessNoise_PlusLocalization,2021.2.3,60.16996510858146,
cliff.wav,cliff.mpg,cliff,3,AV,Pink_Noise_3_1.wav,Pink_Noise_3_2.wav,,,,,,,,,,,,,,,0,30,30,105,,,,,,,,,,,,,,,,,,,,,,,370.08873820900044,None,371.6248100840021,None,373.0220227919999,None,"clift
",373.0220227919999,None,return,5.318201833000785,373.10531362500114,None,,,,,,,,,,,,,,,,,,,,,,,,,,,,,,,,,,,,,,,95,001,2023_May_10_1257,SpeechDraft1Carolyn_lessNoise_PlusLocalization,2021.2.3,60.16996510858146,
clock.wav,clock.mpg,clock,2,AV,Pink_Noise_2_1.wav,Pink_Noise_2_2.wav,,,,,,,,,,,,,,,0,31,31,99,,,,,,,,,,,,,,,,,,,,,,,378.45497966699986,None,379.9907521669993,None,381.388681542001,None,clock,381.388681542001,None,return,2.1272704990005877,381.4723611670015,None,,,,,,,,,,,,,,,,,,,,,,,,,,,,,,,,,,,,,,,95,001,2023_May_10_1257,SpeechDraft1Carolyn_lessNoise_PlusLocalization,2021.2.3,60.16996510858146,
barge.wav,barge.mpg,barge,2,AV,Pink_Noise_2_1.wav,Pink_Noise_2_2.wav,,,,,,,,,,,,,,,0,32,32,98,,,,,,,,,,,,,,,,,,,,,,,383.6218257920009,None,385.15995529200154,None,386.5561559170019,None,barge,386.5561559170019,None,return,3.0410259989985207,386.63859945900185,None,,,,,,,,,,,,,,,,,,,,,,,,,,,,,,,,,,,,,,,95,001,2023_May_10_1257,SpeechDraft1Carolyn_lessNoise_PlusLocalization,2021.2.3,60.16996510858146,
broil.wav,broil.mpg,broil,1,AV,Pink_Noise_1_1.wav,Pink_Noise_1_2.wav,,,,,,,,,,,,,,,0,33,33,61,,,,,,,,,,,,,,,,,,,,,,,389.70523654200224,None,391.24573191700256,None,392.6385411670017,None,broyal,392.6385411670017,None,return,15.590470249000646,392.70525920900036,None,,,,,,,,,,,,,,,,,,,,,,,,,,,,,,,,,,,,,,,95,001,2023_May_10_1257,SpeechDraft1Carolyn_lessNoise_PlusLocalization,2021.2.3,60.16996510858146,
blast.wav,blast.mpg,blast,3,AV,Pink_Noise_3_1.wav,Pink_Noise_3_2.wav,,,,,,,,,,,,,,,0,34,34,106,,,,,,,,,,,,,,,,,,,,,,,408.3221718750028,None,409.86144558399974,None,411.25593375000244,None,vlast,411.25593375000244,None,return,2.8930577499995707,411.338747709,None,,,,,,,,,,,,,,,,,,,,,,,,,,,,,,,,,,,,,,,95,001,2023_May_10_1257,SpeechDraft1Carolyn_lessNoise_PlusLocalization,2021.2.3,60.16996510858146,
clash.wav,clash.mpg,clash,5,AV,Pink_Noise_5_1.wav,Pink_Noise_5_2.wav,,,,,,,,,,,,,,,0,35,35,70,,,,,,,,,,,,,,,,,,,,,,,414.25530483400144,None,415.7931735839993,None,417.1895312500019,None,"lash
",417.1895312500019,None,return,3.551870332998078,417.27190766700005,None,,,,,,,,,,,,,,,,,,,,,,,,,,,,,,,,,,,,,,,95,001,2023_May_10_1257,SpeechDraft1Carolyn_lessNoise_PlusLocalization,2021.2.3,60.16996510858146,
fish.wav,fish.mpg,fish,5,A,Pink_Noise_5_1.wav,Pink_Noise_5_2.wav,,,,,,,,,,,,,,,0,36,36,23,,,,,,,,,,,,,,,,,,,,,,,420.8553154170004,None,422.3986496670004,None,423.7892675840012,None,fish,423.7892675840012,None,return,7.35975579099977,423.8721806249996,None,,,,,,,,,,,,,,,,,,,,,,,,,,,,,,,,,,,,,,,95,001,2023_May_10_1257,SpeechDraft1Carolyn_lessNoise_PlusLocalization,2021.2.3,60.16996510858146,
file.wav,file.mpg,file,4,A,Pink_Noise_4_1.wav,Pink_Noise_4_2.wav,,,,,,,,,,,,,,,0,37,37,21,,,,,,,,,,,,,,,,,,,,,,,431.25573745899965,None,432.7948730419994,None,434.1897892500019,None,fire,434.1897892500019,None,return,2.399933331998909,434.27197375000105,None,,,,,,,,,,,,,,,,,,,,,,,,,,,,,,,,,,,,,,,95,001,2023_May_10_1257,SpeechDraft1Carolyn_lessNoise_PlusLocalization,2021.2.3,60.16996510858146,
bean.wav,bean.mpg,bean,1,AV,Pink_Noise_1_1.wav,Pink_Noise_1_2.wav,,,,,,,,,,,,,,,0,38,38,81,,,,,,,,,,,,,,,,,,,,,,,436.68949512499967,None,438.2293084590019,None,439.62242591700124,None,bean,439.62242591700124,None,return,3.0385964160013827,439.705332542002,None,,,,,,,,,,,,,,,,,,,,,,,,,,,,,,,,,,,,,,,95,001,2023_May_10_1257,SpeechDraft1Carolyn_lessNoise_PlusLocalization,2021.2.3,60.16996510858146,
druid.wav,druid.mpg,druid,6,AV,Pink_Noise_6_1.wav,Pink_Noise_6_2.wav,,,,,,,,,,,,,,,0,39,39,72,,,,,,,,,,,,,,,,,,,,,,,442.77234270900226,None,444.3169547920006,None,445.7058600840028,None,"jewellery
",445.7058600840028,None,return,5.066960541000299,445.78901187500014,None,,,,,,,,,,,,,,,,,,,,,,,,,,,,,,,,,,,,,,,95,001,2023_May_10_1257,SpeechDraft1Carolyn_lessNoise_PlusLocalization,2021.2.3,60.16996510858146,
fleet.wav,fleet.mpg,fleet,1,AV,Pink_Noise_1_1.wav,Pink_Noise_1_2.wav,,,,,,,,,,,,,,,0,40,40,67,,,,,,,,,,,,,,,,,,,,,,,450.8888017499994,None,452.4354348340021,None,453.8389213750015,None,fleet,453.8389213750015,None,return,3.461770375000924,453.92233699999997,None,,,,,,,,,,,,,,,,,,,,,,,,,,,,,,,,,,,,,,,95,001,2023_May_10_1257,SpeechDraft1Carolyn_lessNoise_PlusLocalization,2021.2.3,60.16996510858146,
bald.wav,bald.mpg,bald,5,AV,Pink_Noise_5_1.wav,Pink_Noise_5_2.wav,,,,,,,,,,,,,,,0,41,41,80,,,,,,,,,,,,,,,,,,,,,,,457.4063667500013,None,458.9526516670012,None,460.3558867089996,None,balls,460.3558867089996,None,return,5.993230248997861,460.43889712500095,None,,,,,,,,,,,,,,,,,,,,,,,,,,,,,,,,,,,,,,,95,001,2023_May_10_1257,SpeechDraft1Carolyn_lessNoise_PlusLocalization,2021.2.3,60.16996510858146,
flop.wav,flop.mpg,flop,5,A,Pink_Noise_5_1.wav,Pink_Noise_5_2.wav,,,,,,,,,,,,,,,0,42,42,45,,,,,,,,,,,,,,,,,,,,,,,466.4560158750028,None,468.0000276669998,None,469.3887479170007,None,flush,469.3887479170007,None,return,2.871855957000662,469.47225441699993,None,,,,,,,,,,,,,,,,,,,,,,,,,,,,,,,,,,,,,,,95,001,2023_May_10_1257,SpeechDraft1Carolyn_lessNoise_PlusLocalization,2021.2.3,60.16996510858146,
ease.wav,ease.mpg,ease,6,A,Pink_Noise_6_1.wav,Pink_Noise_6_2.wav,,,,,,,,,,,,,,,0,43,43,50,,,,,,,,,,,,,,,,,,,,,,,472.37210787500226,None,473.91997666700263,None,475.3221161670008,None,cant hear,475.3221161670008,None,return,3.794084916000429,475.4061422920022,None,,,,,,,,,,,,,,,,,,,,,,,,,,,,,,,,,,,,,,,95,001,2023_May_10_1257,SpeechDraft1Carolyn_lessNoise_PlusLocalization,2021.2.3,60.16996510858146,
script.wav,script.mpg,script,4,A,Pink_Noise_4_1.wav,Pink_Noise_4_2.wav,,,,,,,,,,,,,,,0,44,44,17,,,,,,,,,,,,,,,,,,,,,,,479.2222949170027,None,480.7705836669993,None,482.17235958400124,None,strip,482.17235958400124,None,return,11.409206249001727,482.23910029200124,None,,,,,,,,,,,,,,,,,,,,,,,,,,,,,,,,,,,,,,,95,001,2023_May_10_1257,SpeechDraft1Carolyn_lessNoise_PlusLocalization,2021.2.3,60.16996510858146,
drop.wav,drop.mpg,drop,3,AV,Pink_Noise_3_1.wav,Pink_Noise_3_2.wav,,,,,,,,,,,,,,,0,45,45,118,,,,,,,,,,,,,,,,,,,,,,,493.67231837500003,None,495.22202295900206,None,496.6229078340002,None,drop,496.6229078340002,None,return,8.126473873999203,496.7058972920022,None,,,,,,,,,,,,,,,,,,,,,,,,,,,,,,,,,,,,,,,95,001,2023_May_10_1257,SpeechDraft1Carolyn_lessNoise_PlusLocalization,2021.2.3,60.16996510858146,
frame.wav,frame.mpg,frame,2,A,Pink_Noise_2_1.wav,Pink_Noise_2_2.wav,,,,,,,,,,,,,,,0,46,46,0,,,,,,,,,,,,,,,,,,,,,,,504.8556740839995,None,506.4006625840011,None,507.8061582920018,None,"frame
",507.8061582920018,None,return,3.1835366240011354,507.888810542001,None,,,,,,,,,,,,,,,,,,,,,,,,,,,,,,,,,,,,,,,95,001,2023_May_10_1257,SpeechDraft1Carolyn_lessNoise_PlusLocalization,2021.2.3,60.16996510858146,
count.wav,count.mpg,count,1,A,Pink_Noise_1_1.wav,Pink_Noise_1_2.wav,,,,,,,,,,,,,,,0,47,47,16,,,,,,,,,,,,,,,,,,,,,,,511.1059978750018,None,512.655911959002,None,514.0562404170014,None,coat,514.0562404170014,None,return,2.252932666000561,514.1394854999999,None,,,,,,,,,,,,,,,,,,,,,,,,,,,,,,,,,,,,,,,95,001,2023_May_10_1257,SpeechDraft1Carolyn_lessNoise_PlusLocalization,2021.2.3,60.16996510858146,
film.wav,film.mpg,film,3,A,Pink_Noise_3_1.wav,Pink_Noise_3_2.wav,,,,,,,,,,,,,,,0,48,48,4,,,,,,,,,,,,,,,,,,,,,,,516.422255417001,None,517.9715303750017,None,519.3724111250012,None,fill,519.3724111250012,None,return,2.648580375000165,519.4558713750012,None,,,,,,,,,,,,,,,,,,,,,,,,,,,,,,,,,,,,,,,95,001,2023_May_10_1257,SpeechDraft1Carolyn_lessNoise_PlusLocalization,2021.2.3,60.16996510858146,
your.wav,your.mpg,your,3,AV,Pink_Noise_3_1.wav,Pink_Noise_3_2.wav,,,,,,,,,,,,,,,0,49,49,63,,,,,,,,,,,,,,,,,,,,,,,522.1229970420027,None,523.6737776250011,None,525.0723225420006,None,your,525.0723225420006,None,return,3.548334499999328,525.1561366250025,None,,,,,,,,,,,,,,,,,,,,,,,,,,,,,,,,,,,,,,,95,001,2023_May_10_1257,SpeechDraft1Carolyn_lessNoise_PlusLocalization,2021.2.3,60.16996510858146,
clad.wav,clad.mpg,clad,2,A,Pink_Noise_2_1.wav,Pink_Noise_2_2.wav,,,,,,,,,,,,,,,0,50,50,52,,,,,,,,,,,,,,,,,,,,,,,528.7228566670019,None,530.276530375002,None,531.6724682500026,None,clad,531.6724682500026,None,return,2.7801799989974825,531.7563081250009,None,,,,,,,,,,,,,,,,,,,,,,,,,,,,,,,,,,,,,,,95,001,2023_May_10_1257,SpeechDraft1Carolyn_lessNoise_PlusLocalization,2021.2.3,60.16996510858146,
eight.wav,eight.mpg,eight,4,AV,Pink_Noise_4_1.wav,Pink_Noise_4_2.wav,,,,,,,,,,,,,,,0,51,51,69,,,,,,,,,,,,,,,,,,,,,,,534.5563991670024,None,536.1133825420002,None,537.5058948750011,None,"it
",537.5058948750011,None,return,2.499897666002653,537.5726677500024,None,,,,,,,,,,,,,,,,,,,,,,,,,,,,,,,,,,,,,,,95,001,2023_May_10_1257,SpeechDraft1Carolyn_lessNoise_PlusLocalization,2021.2.3,60.16996510858146,
brake.wav,brake.mpg,brake,2,AV,Pink_Noise_2_1.wav,Pink_Noise_2_2.wav,,,,,,,,,,,,,,,0,52,52,64,,,,,,,,,,,,,,,,,,,,,,,540.105998125,None,541.6675359170004,None,543.0560641250013,None,break,543.0560641250013,None,return,2.525472040997556,543.1391859169998,None,,,,,,,,,,,,,,,,,,,,,,,,,,,,,,,,,,,,,,,95,001,2023_May_10_1257,SpeechDraft1Carolyn_lessNoise_PlusLocalization,2021.2.3,60.16996510858146,
farm.wav,farm.mpg,farm,6,AV,Pink_Noise_6_1.wav,Pink_Noise_6_2.wav,,,,,,,,,,,,,,,0,53,53,76,,,,,,,,,,,,,,,,,,,,,,,545.6891323750024,None,547.2495651669997,None,548.6390371250018,None,foam,548.6390371250018,None,return,3.4780742490002012,548.7226188340028,None,,,,,,,,,,,,,,,,,,,,,,,,,,,,,,,,,,,,,,,95,001,2023_May_10_1257,SpeechDraft1Carolyn_lessNoise_PlusLocalization,2021.2.3,60.16996510858146,
drill.wav,drill.mpg,drill,3,AV,Pink_Noise_3_1.wav,Pink_Noise_3_2.wav,,,,,,,,,,,,,,,0,54,54,82,,,,,,,,,,,,,,,,,,,,,,,552.2228819590018,None,553.7736320000004,None,555.1719809589995,None,"drill
",555.1719809589995,None,return,3.400334791000205,555.2563103339999,None,,,,,,,,,,,,,,,,,,,,,,,,,,,,,,,,,,,,,,,95,001,2023_May_10_1257,SpeechDraft1Carolyn_lessNoise_PlusLocalization,2021.2.3,60.16996510858146,
fad.wav,fad.mpg,fad,4,AV,Pink_Noise_4_1.wav,Pink_Noise_4_2.wav,,,,,,,,,,,,,,,0,55,55,116,,,,,,,,,,,,,,,,,,,,,,,558.6891492499999,None,560.2456840000013,None,561.6391344590011,None,fay,561.6391344590011,None,return,4.774366083001951,561.7223989170016,None,,,,,,,,,,,,,,,,,,,,,,,,,,,,,,,,,,,,,,,95,001,2023_May_10_1257,SpeechDraft1Carolyn_lessNoise_PlusLocalization,2021.2.3,60.16996510858146,
broom.wav,broom.mpg,broom,3,A,Pink_Noise_3_1.wav,Pink_Noise_3_2.wav,,,,,,,,,,,,,,,0,56,56,39,,,,,,,,,,,,,,,,,,,,,,,566.5222992090021,None,568.082590334001,None,569.4728510000023,None,brain,569.4728510000023,None,return,3.2684768330000225,569.5562686250014,None,,,,,,,,,,,,,,,,,,,,,,,,,,,,,,,,,,,,,,,95,001,2023_May_10_1257,SpeechDraft1Carolyn_lessNoise_PlusLocalization,2021.2.3,60.16996510858146,
wound.wav,wound.mpg,wound,1,A,Pink_Noise_1_1.wav,Pink_Noise_1_2.wav,,,,,,,,,,,,,,,0,57,57,2,,,,,,,,,,,,,,,,,,,,,,,572.8557396670003,None,574.4159517090011,None,575.8067345000018,None,wound,575.8067345000018,None,return,3.495544374000019,575.8892912920019,None,,,,,,,,,,,,,,,,,,,,,,,,,,,,,,,,,,,,,,,95,001,2023_May_10_1257,SpeechDraft1Carolyn_lessNoise_PlusLocalization,2021.2.3,60.16996510858146,
gulf.wav,gulf.mpg,gulf,4,A,Pink_Noise_4_1.wav,Pink_Noise_4_2.wav,,,,,,,,,,,,,,,0,58,58,5,,,,,,,,,,,,,,,,,,,,,,,579.405718459002,None,580.9655691250009,None,582.3558302500023,None,caught,582.3558302500023,None,return,5.362420165998628,582.4224788749998,None,,,,,,,,,,,,,,,,,,,,,,,,,,,,,,,,,,,,,,,95,001,2023_May_10_1257,SpeechDraft1Carolyn_lessNoise_PlusLocalization,2021.2.3,60.16996510858146,
stuck.wav,stuck.mpg,stuck,1,AV,Pink_Noise_1_1.wav,Pink_Noise_1_2.wav,,,,,,,,,,,,,,,0,59,59,104,,,,,,,,,,,,,,,,,,,,,,,587.806178625,None,589.3668460000008,None,590.7555768340026,None,stuck,590.7555768340026,None,return,3.4735074160016666,590.8394018750005,None,,,,,,,,,,,,,,,,,,,,,,,,,,,,,,,,,,,,,,,95,001,2023_May_10_1257,SpeechDraft1Carolyn_lessNoise_PlusLocalization,2021.2.3,60.16996510858146,
dual.wav,dual.mpg,dual,2,A,Pink_Noise_2_1.wav,Pink_Noise_2_2.wav,,,,,,,,,,,,,,,0,60,60,19,,,,,,,,,,,,,,,,,,,,,,,594.3395318340008,None,595.8974998750018,None,597.2891561249999,None,duo,597.2891561249999,None,return,3.46040045799964,597.3725553340009,None,,,,,,,,,,,,,,,,,,,,,,,,,,,,,,,,,,,,,,,95,001,2023_May_10_1257,SpeechDraft1Carolyn_lessNoise_PlusLocalization,2021.2.3,60.16996510858146,
rent.wav,rent.mpg,rent,6,A,Pink_Noise_6_1.wav,Pink_Noise_6_2.wav,,,,,,,,,,,,,,,0,61,61,37,,,,,,,,,,,,,,,,,,,,,,,600.8566721250027,None,602.4185721670001,None,603.8225268749993,None,late,603.8225268749993,None,return,3.686410791000526,603.9066012090007,None,,,,,,,,,,,,,,,,,,,,,,,,,,,,,,,,,,,,,,,95,001,2023_May_10_1257,SpeechDraft1Carolyn_lessNoise_PlusLocalization,2021.2.3,60.16996510858146,
gloom.wav,gloom.mpg,gloom,4,AV,Pink_Noise_4_1.wav,Pink_Noise_4_2.wav,,,,,,,,,,,,,,,0,62,62,75,,,,,,,,,,,,,,,,,,,,,,,607.6231342499996,None,609.1843927500013,None,610.5724709170026,None,gloom,610.5724709170026,None,return,3.6811642499997106,610.6559075420009,None,,,,,,,,,,,,,,,,,,,,,,,,,,,,,,,,,,,,,,,95,001,2023_May_10_1257,SpeechDraft1Carolyn_lessNoise_PlusLocalization,2021.2.3,60.16996510858146,
fly.wav,fly.mpg,fly,2,A,Pink_Noise_2_1.wav,Pink_Noise_2_2.wav,,,,,,,,,,,,,,,0,63,63,22,,,,,,,,,,,,,,,,,,,,,,,614.3565791670007,None,615.9183661250026,None,617.3232228750021,None,fly,617.3232228750021,None,return,2.9624149990013393,617.4067017920024,None,,,,,,,,,,,,,,,,,,,,,,,,,,,,,,,,,,,,,,,95,001,2023_May_10_1257,SpeechDraft1Carolyn_lessNoise_PlusLocalization,2021.2.3,60.16996510858146,
cope.wav,cope.mpg,cope,3,A,Pink_Noise_3_1.wav,Pink_Noise_3_2.wav,,,,,,,,,,,,,,,0,64,64,10,,,,,,,,,,,,,,,,,,,,,,,620.3894221670016,None,621.951952667001,None,623.3563182090002,None,cope,623.3563182090002,None,return,3.7061428320012055,623.4229673340014,None,,,,,,,,,,,,,,,,,,,,,,,,,,,,,,,,,,,,,,,95,001,2023_May_10_1257,SpeechDraft1Carolyn_lessNoise_PlusLocalization,2021.2.3,60.16996510858146,
grant.wav,grant.mpg,grant,6,AV,Pink_Noise_6_1.wav,Pink_Noise_6_2.wav,,,,,,,,,,,,,,,0,65,65,60,,,,,,,,,,,,,,,,,,,,,,,627.1559259999995,None,628.7210642499995,None,630.1226608340003,None,dress,630.1226608340003,None,return,2.315367957999115,630.2057875000028,None,,,,,,,,,,,,,,,,,,,,,,,,,,,,,,,,,,,,,,,95,001,2023_May_10_1257,SpeechDraft1Carolyn_lessNoise_PlusLocalization,2021.2.3,60.16996510858146,
nice.wav,nice.mpg,nice,6,A,Pink_Noise_6_1.wav,Pink_Noise_6_2.wav,,,,,,,,,,,,,,,0,66,66,38,,,,,,,,,,,,,,,,,,,,,,,632.5398957500001,None,634.1025428339999,None,635.5061223750017,None,cant hear,635.5061223750017,None,return,4.643797583001287,635.58943,None,,,,,,,,,,,,,,,,,,,,,,,,,,,,,,,,,,,,,,,95,001,2023_May_10_1257,SpeechDraft1Carolyn_lessNoise_PlusLocalization,2021.2.3,60.16996510858146,
cell.wav,cell.mpg,cell,5,AV,Pink_Noise_5_1.wav,Pink_Noise_5_2.wav,,,,,,,,,,,,,,,0,67,67,119,,,,,,,,,,,,,,,,,,,,,,,640.2560155000028,None,641.8268714590013,None,643.2231338750025,None,sa;e,643.2231338750025,None,return,1.2784235830004036,643.3068297089994,None,,,,,,,,,,,,,,,,,,,,,,,,,,,,,,,,,,,,,,,95,001,2023_May_10_1257,SpeechDraft1Carolyn_lessNoise_PlusLocalization,2021.2.3,60.16996510858146,
gown.wav,gown.mpg,gown,5,A,Pink_Noise_5_1.wav,Pink_Noise_5_2.wav,,,,,,,,,,,,,,,0,68,68,53,,,,,,,,,,,,,,,,,,,,,,,644.6068105000013,None,646.1745946250012,None,647.5725807500021,None,el,647.5725807500021,None,return,12.281307457000366,647.6560254169999,None,,,,,,,,,,,,,,,,,,,,,,,,,,,,,,,,,,,,,,,95,001,2023_May_10_1257,SpeechDraft1Carolyn_lessNoise_PlusLocalization,2021.2.3,60.16996510858146,
chord.wav,chord.mpg,chord,3,A,Pink_Noise_3_1.wav,Pink_Noise_3_2.wav,,,,,,,,,,,,,,,0,69,69,51,,,,,,,,,,,,,,,,,,,,,,,659.9567127920018,None,661.5248269590011,None,662.9232621250012,None,cord,662.9232621250012,None,return,2.9392705829995975,663.0061149169996,None,,,,,,,,,,,,,,,,,,,,,,,,,,,,,,,,,,,,,,,95,001,2023_May_10_1257,SpeechDraft1Carolyn_lessNoise_PlusLocalization,2021.2.3,60.16996510858146,
led.wav,led.mpg,led,2,AV,Pink_Noise_2_1.wav,Pink_Noise_2_2.wav,,,,,,,,,,,,,,,0,70,70,107,,,,,,,,,,,,,,,,,,,,,,,665.9726005000011,None,667.5440100000014,None,668.9394700420016,None,"blood
",668.9394700420016,None,return,1.0347338330029743,669.0226135000012,None,,,,,,,,,,,,,,,,,,,,,,,,,,,,,,,,,,,,,,,95,001,2023_May_10_1257,SpeechDraft1Carolyn_lessNoise_PlusLocalization,2021.2.3,60.16996510858146,
mars.wav,mars.mpg,mars,3,AV,Pink_Noise_3_1.wav,Pink_Noise_3_2.wav,,,,,,,,,,,,,,,0,71,71,65,,,,,,,,,,,,,,,,,,,,,,,670.0894079589998,None,671.6614431670023,None,673.0559536250003,None,"arse
",673.0559536250003,None,return,1.3498318739984825,673.1395464170018,None,,,,,,,,,,,,,,,,,,,,,,,,,,,,,,,,,,,,,,,95,001,2023_May_10_1257,SpeechDraft1Carolyn_lessNoise_PlusLocalization,2021.2.3,60.16996510858146,
greed.wav,greed.mpg,greed,2,A,Pink_Noise_2_1.wav,Pink_Noise_2_2.wav,,,,,,,,,,,,,,,0,72,72,41,,,,,,,,,,,,,,,,,,,,,,,674.5227531670025,None,676.0858726670012,None,677.489229625,None,"greed
",677.489229625,None,return,1.0688049999989744,677.5726155420016,None,,,,,,,,,,,,,,,,,,,,,,,,,,,,,,,,,,,,,,,95,001,2023_May_10_1257,SpeechDraft1Carolyn_lessNoise_PlusLocalization,2021.2.3,60.16996510858146,
chain.wav,chain.mpg,chain,2,A,Pink_Noise_2_1.wav,Pink_Noise_2_2.wav,,,,,,,,,,,,,,,0,73,73,57,,,,,,,,,,,,,,,,,,,,,,,678.6725802500005,None,680.2430184590012,None,681.6393986670009,None,"chain
",681.6393986670009,None,return,2.966648958001315,681.7228021670016,None,,,,,,,,,,,,,,,,,,,,,,,,,,,,,,,,,,,,,,,95,001,2023_May_10_1257,SpeechDraft1Carolyn_lessNoise_PlusLocalization,2021.2.3,60.16996510858146,
boil.wav,boil.mpg,boil,3,AV,Pink_Noise_3_1.wav,Pink_Noise_3_2.wav,,,,,,,,,,,,,,,0,74,74,91,,,,,,,,,,,,,,,,,,,,,,,684.722683750002,None,686.2948280000019,None,687.6892977919997,None,"boi;
",687.6892977919997,None,return,4.084977915998024,687.7725016250006,None,,,,,,,,,,,,,,,,,,,,,,,,,,,,,,,,,,,,,,,95,001,2023_May_10_1257,SpeechDraft1Carolyn_lessNoise_PlusLocalization,2021.2.3,60.16996510858146,
chart.wav,chart.mpg,chart,2,A,Pink_Noise_2_1.wav,Pink_Noise_2_2.wav,,,,,,,,,,,,,,,0,75,75,48,,,,,,,,,,,,,,,,,,,,,,,691.8896235840002,None,693.4643653750027,None,694.8564896250027,None,chart,694.8564896250027,None,return,1.453422706999845,694.9401266250024,None,,,,,,,,,,,,,,,,,,,,,,,,,,,,,,,,,,,,,,,95,001,2023_May_10_1257,SpeechDraft1Carolyn_lessNoise_PlusLocalization,2021.2.3,60.16996510858146,
cart.wav,cart.mpg,cart,1,A,Pink_Noise_1_1.wav,Pink_Noise_1_2.wav,,,,,,,,,,,,,,,0,76,76,25,,,,,,,,,,,,,,,,,,,,,,,696.4228303340024,None,697.9971332919995,None,699.3893845839993,None,cart,699.3893845839993,None,return,1.1446669580000162,699.4729942920021,None,,,,,,,,,,,,,,,,,,,,,,,,,,,,,,,,,,,,,,,95,001,2023_May_10_1257,SpeechDraft1Carolyn_lessNoise_PlusLocalization,2021.2.3,60.16996510858146,
brand.wav,brand.mpg,brand,5,A,Pink_Noise_5_1.wav,Pink_Noise_5_2.wav,,,,,,,,,,,,,,,0,77,77,18,,,,,,,,,,,,,,,,,,,,,,,700.6397285000021,None,702.215146417002,None,703.6062632920002,None,neck,703.6062632920002,None,return,7.424071790999733,703.6895378750014,None,,,,,,,,,,,,,,,,,,,,,,,,,,,,,,,,,,,,,,,95,001,2023_May_10_1257,SpeechDraft1Carolyn_lessNoise_PlusLocalization,2021.2.3,60.16996510858146,
fade.wav,fade.mpg,fade,1,A,Pink_Noise_1_1.wav,Pink_Noise_1_2.wav,,,,,,,,,,,,,,,0,78,78,46,,,,,,,,,,,,,,,,,,,,,,,711.1393992500016,None,712.7179576670023,None,714.1059778750023,None,fade,714.1059778750023,None,return,1.2683191659998556,714.1893305420017,None,,,,,,,,,,,,,,,,,,,,,,,,,,,,,,,,,,,,,,,95,001,2023_May_10_1257,SpeechDraft1Carolyn_lessNoise_PlusLocalization,2021.2.3,60.16996510858146,
grace.wav,grace.mpg,grace,2,A,Pink_Noise_2_1.wav,Pink_Noise_2_2.wav,,,,,,,,,,,,,,,0,79,79,1,,,,,,,,,,,,,,,,,,,,,,,715.4895624170022,None,717.0654286669997,None,718.4571556250012,None,grace,718.4571556250012,None,return,3.9582202909987245,718.5394825000003,None,,,,,,,,,,,,,,,,,,,,,,,,,,,,,,,,,,,,,,,95,001,2023_May_10_1257,SpeechDraft1Carolyn_lessNoise_PlusLocalization,2021.2.3,60.16996510858146,
booth.wav,booth.mpg,booth,5,A,Pink_Noise_5_1.wav,Pink_Noise_5_2.wav,,,,,,,,,,,,,,,0,80,80,28,,,,,,,,,,,,,,,,,,,,,,,722.522781292002,None,724.1074538339999,None,725.5064558750018,None,fish,725.5064558750018,None,return,6.323679540997546,725.5900899590015,None,,,,,,,,,,,,,,,,,,,,,,,,,,,,,,,,,,,,,,,95,001,2023_May_10_1257,SpeechDraft1Carolyn_lessNoise_PlusLocalization,2021.2.3,60.16996510858146,
birth.wav,birth.mpg,birth,6,A,Pink_Noise_6_1.wav,Pink_Noise_6_2.wav,,,,,,,,,,,,,,,0,81,81,59,,,,,,,,,,,,,,,,,,,,,,,731.9395601670003,None,733.5196927500001,None,734.9067833340014,None,low,734.9067833340014,None,return,8.80430474899913,734.9895693340004,None,,,,,,,,,,,,,,,,,,,,,,,,,,,,,,,,,,,,,,,95,001,2023_May_10_1257,SpeechDraft1Carolyn_lessNoise_PlusLocalization,2021.2.3,60.16996510858146,
float.wav,float.mpg,float,1,AV,Pink_Noise_1_1.wav,Pink_Noise_1_2.wav,,,,,,,,,,,,,,,0,82,82,78,,,,,,,,,,,,,,,,,,,,,,,743.8230455840021,None,745.4058149590019,None,746.8064236669998,None,float,746.8064236669998,None,return,3.23168266599896,746.8902128340014,None,,,,,,,,,,,,,,,,,,,,,,,,,,,,,,,,,,,,,,,95,001,2023_May_10_1257,SpeechDraft1Carolyn_lessNoise_PlusLocalization,2021.2.3,60.16996510858146,
fix.wav,fix.mpg,fix,5,AV,Pink_Noise_5_1.wav,Pink_Noise_5_2.wav,,,,,,,,,,,,,,,0,83,83,114,,,,,,,,,,,,,,,,,,,,,,,750.1402729590009,None,751.7282335840027,None,753.1230575840018,None,fix,753.1230575840018,None,return,3.0994731659993704,753.2064889590001,None,,,,,,,,,,,,,,,,,,,,,,,,,,,,,,,,,,,,,,,95,001,2023_May_10_1257,SpeechDraft1Carolyn_lessNoise_PlusLocalization,2021.2.3,60.16996510858146,
ban.wav,ban.mpg,ban,5,AV,Pink_Noise_5_1.wav,Pink_Noise_5_2.wav,,,,,,,,,,,,,,,0,84,84,88,,,,,,,,,,,,,,,,,,,,,,,756.3237284170027,None,757.9052324590011,None,759.3068007090005,None,ban,759.3068007090005,None,return,3.019941957998526,759.3900285000018,None,,,,,,,,,,,,,,,,,,,,,,,,,,,,,,,,,,,,,,,95,001,2023_May_10_1257,SpeechDraft1Carolyn_lessNoise_PlusLocalization,2021.2.3,60.16996510858146,
croak.wav,croak.mpg,croak,1,A,Pink_Noise_1_1.wav,Pink_Noise_1_2.wav,,,,,,,,,,,,,,,0,85,85,20,,,,,,,,,,,,,,,,,,,,,,,762.4396890000025,None,764.0226146250025,None,765.4232975840023,None,croak,765.4232975840023,None,return,6.231711790998816,765.5063353750011,None,,,,,,,,,,,,,,,,,,,,,,,,,,,,,,,,,,,,,,,95,001,2023_May_10_1257,SpeechDraft1Carolyn_lessNoise_PlusLocalization,2021.2.3,60.16996510858146,
birch.wav,birch.mpg,birch,1,A,Pink_Noise_1_1.wav,Pink_Noise_1_2.wav,,,,,,,,,,,,,,,0,86,86,15,,,,,,,,,,,,,,,,,,,,,,,771.7563602090013,None,773.3393410839999,None,774.7397252500014,None,berch,774.7397252500014,None,return,2.1549101660020824,774.8231325840025,None,,,,,,,,,,,,,,,,,,,,,,,,,,,,,,,,,,,,,,,95,001,2023_May_10_1257,SpeechDraft1Carolyn_lessNoise_PlusLocalization,2021.2.3,60.16996510858146,
flood.wav,flood.mpg,flood,5,A,Pink_Noise_5_1.wav,Pink_Noise_5_2.wav,,,,,,,,,,,,,,,0,87,87,11,,,,,,,,,,,,,,,,,,,,,,,777.0060160840003,None,778.5968217090012,None,779.9897717090025,None,kail,779.9897717090025,None,return,4.377101206999214,780.0730550000007,None,,,,,,,,,,,,,,,,,,,,,,,,,,,,,,,,,,,,,,,95,001,2023_May_10_1257,SpeechDraft1Carolyn_lessNoise_PlusLocalization,2021.2.3,60.16996510858146,
ditch.wav,ditch.mpg,ditch,4,A,Pink_Noise_4_1.wav,Pink_Noise_4_2.wav,,,,,,,,,,,,,,,0,88,88,6,,,,,,,,,,,,,,,,,,,,,,,784.472993542,None,786.0624405000017,None,787.4568158340007,None,dish,787.4568158340007,None,return,5.966796582997631,787.5393633750027,None,,,,,,,,,,,,,,,,,,,,,,,,,,,,,,,,,,,,,,,95,001,2023_May_10_1257,SpeechDraft1Carolyn_lessNoise_PlusLocalization,2021.2.3,60.16996510858146,
earn.wav,earn.mpg,earn,3,A,Pink_Noise_3_1.wav,Pink_Noise_3_2.wav,,,,,,,,,,,,,,,0,89,89,36,,,,,,,,,,,,,,,,,,,,,,,793.5236866250016,None,795.1159243340007,None,796.5061498340001,None,earn,796.5061498340001,None,return,3.2199483330005023,796.5902149169997,None,,,,,,,,,,,,,,,,,,,,,,,,,,,,,,,,,,,,,,,95,001,2023_May_10_1257,SpeechDraft1Carolyn_lessNoise_PlusLocalization,2021.2.3,60.16996510858146,
gone.wav,gone.mpg,gone,4,AV,Pink_Noise_4_1.wav,Pink_Noise_4_2.wav,,,,,,,,,,,,,,,0,90,90,117,,,,,,,,,,,,,,,,,,,,,,,799.8395213750009,None,801.4303992090026,None,802.8229230840006,None,toy,802.8229230840006,None,return,6.975092124001094,802.9072067500019,None,,,,,,,,,,,,,,,,,,,,,,,,,,,,,,,,,,,,,,,95,001,2023_May_10_1257,SpeechDraft1Carolyn_lessNoise_PlusLocalization,2021.2.3,60.16996510858146,
blend.wav,blend.mpg,blend,4,AV,Pink_Noise_4_1.wav,Pink_Noise_4_2.wav,,,,,,,,,,,,,,,0,91,91,83,,,,,,,,,,,,,,,,,,,,,,,809.9072438750009,None,811.4924630839996,None,812.889873209002,None,blade,812.889873209002,None,return,2.7893834990027244,812.9729135420021,None,,,,,,,,,,,,,,,,,,,,,,,,,,,,,,,,,,,,,,,95,001,2023_May_10_1257,SpeechDraft1Carolyn_lessNoise_PlusLocalization,2021.2.3,60.16996510858146,
guess.wav,guess.mpg,guess,6,A,Pink_Noise_6_1.wav,Pink_Noise_6_2.wav,,,,,,,,,,,,,,,0,92,92,54,,,,,,,,,,,,,,,,,,,,,,,815.7897375419998,None,817.3776392090003,None,818.7729602500003,None,jes,818.7729602500003,None,return,5.097725832998549,818.8566382499994,None,,,,,,,,,,,,,,,,,,,,,,,,,,,,,,,,,,,,,,,95,001,2023_May_10_1257,SpeechDraft1Carolyn_lessNoise_PlusLocalization,2021.2.3,60.16996510858146,
chill.wav,chill.mpg,chill,6,AV,Pink_Noise_6_1.wav,Pink_Noise_6_2.wav,,,,,,,,,,,,,,,0,93,93,112,,,,,,,,,,,,,,,,,,,,,,,823.9737745420025,None,825.5612758749994,None,826.9565432920026,None,"chill
",826.9565432920026,None,return,4.266275291000056,827.0400764170008,None,,,,,,,,,,,,,,,,,,,,,,,,,,,,,,,,,,,,,,,95,001,2023_May_10_1257,SpeechDraft1Carolyn_lessNoise_PlusLocalization,2021.2.3,60.16996510858146,
cent.wav,cent.mpg,cent,3,A,Pink_Noise_3_1.wav,Pink_Noise_3_2.wav,,,,,,,,,,,,,,,0,94,94,49,,,,,,,,,,,,,,,,,,,,,,,831.3398317499996,None,832.9385678340004,None,834.3396690420013,None,set,834.3396690420013,None,return,2.6434548329998506,834.4230375420011,None,,,,,,,,,,,,,,,,,,,,,,,,,,,,,,,,,,,,,,,95,001,2023_May_10_1257,SpeechDraft1Carolyn_lessNoise_PlusLocalization,2021.2.3,60.16996510858146,
belt.wav,belt.mpg,belt,4,A,Pink_Noise_4_1.wav,Pink_Noise_4_2.wav,,,,,,,,,,,,,,,0,95,95,30,,,,,,,,,,,,,,,,,,,,,,,837.0900198340023,None,838.670682750002,None,840.073069459002,None,"milk
",840.073069459002,None,return,4.917806290999579,840.1566662500009,None,,,,,,,,,,,,,,,,,,,,,,,,,,,,,,,,,,,,,,,95,001,2023_May_10_1257,SpeechDraft1Carolyn_lessNoise_PlusLocalization,2021.2.3,60.16996510858146,
dent.wav,dent.mpg,dent,5,A,Pink_Noise_5_1.wav,Pink_Noise_5_2.wav,,,,,,,,,,,,,,,0,96,96,26,,,,,,,,,,,,,,,,,,,,,,,845.1065212089998,None,846.6915928340022,None,848.0898893750018,None,cnat hear,848.0898893750018,None,return,13.397278208001808,848.1733190420018,None,,,,,,,,,,,,,,,,,,,,,,,,,,,,,,,,,,,,,,,95,001,2023_May_10_1257,SpeechDraft1Carolyn_lessNoise_PlusLocalization,2021.2.3,60.16996510858146,
coup.wav,coup.mpg,coup,6,A,Pink_Noise_6_1.wav,Pink_Noise_6_2.wav,,,,,,,,,,,,,,,0,97,97,24,,,,,,,,,,,,,,,,,,,,,,,861.5904169170026,None,863.1809504590019,None,864.5735490840016,None,fish,864.5735490840016,None,return,3.186035916001856,864.6565581670002,None,,,,,,,,,,,,,,,,,,,,,,,,,,,,,,,,,,,,,,,95,001,2023_May_10_1257,SpeechDraft1Carolyn_lessNoise_PlusLocalization,2021.2.3,60.16996510858146,
blimp.wav,blimp.mpg,blimp,5,A,Pink_Noise_5_1.wav,Pink_Noise_5_2.wav,,,,,,,,,,,,,,,0,98,98,3,,,,,,,,,,,,,,,,,,,,,,,867.8740957920018,None,869.4635702500018,None,870.8565855840025,None,lick,870.8565855840025,None,return,2.7023446659986803,870.9402966670023,None,,,,,,,,,,,,,,,,,,,,,,,,,,,,,,,,,,,,,,,95,001,2023_May_10_1257,SpeechDraft1Carolyn_lessNoise_PlusLocalization,2021.2.3,60.16996510858146,
grim.wav,grim.mpg,grim,1,AV,Pink_Noise_1_1.wav,Pink_Noise_1_2.wav,,,,,,,,,,,,,,,0,99,99,115,,,,,,,,,,,,,,,,,,,,,,,873.6731771250015,None,875.2684613340025,None,876.656684542002,None,grim,876.656684542002,None,return,1.126580249001563,876.7401428750018,None,,,,,,,,,,,,,,,,,,,,,,,,,,,,,,,,,,,,,,,95,001,2023_May_10_1257,SpeechDraft1Carolyn_lessNoise_PlusLocalization,2021.2.3,60.16996510858146,
bump.wav,bump.mpg,bump,2,AV,Pink_Noise_2_1.wav,Pink_Noise_2_2.wav,,,,,,,,,,,,,,,0,100,100,73,,,,,,,,,,,,,,,,,,,,,,,877.8897082500007,None,879.4830439590005,None,880.8733224589996,None,bulb,880.8733224589996,None,return,3.6702530830007163,880.9564667090017,None,,,,,,,,,,,,,,,,,,,,,,,,,,,,,,,,,,,,,,,95,001,2023_May_10_1257,SpeechDraft1Carolyn_lessNoise_PlusLocalization,2021.2.3,60.16996510858146,
dash.wav,dash.mpg,dash,6,AV,Pink_Noise_6_1.wav,Pink_Noise_6_2.wav,,,,,,,,,,,,,,,0,101,101,103,,,,,,,,,,,,,,,,,,,,,,,884.6572964170009,None,886.2472938339997,None,887.6398104170003,None,dash,887.6398104170003,None,return,3.9031573749998643,887.7236038340016,None,,,,,,,,,,,,,,,,,,,,,,,,,,,,,,,,,,,,,,,95,001,2023_May_10_1257,SpeechDraft1Carolyn_lessNoise_PlusLocalization,2021.2.3,60.16996510858146,
duke.wav,duke.mpg,duke,3,A,Pink_Noise_3_1.wav,Pink_Noise_3_2.wav,,,,,,,,,,,,,,,0,102,102,34,,,,,,,,,,,,,,,,,,,,,,,891.6566284590008,None,893.2545267090027,None,894.6564965840007,None,duke,894.6564965840007,None,return,2.2467522910010302,894.7400751669993,None,,,,,,,,,,,,,,,,,,,,,,,,,,,,,,,,,,,,,,,95,001,2023_May_10_1257,SpeechDraft1Carolyn_lessNoise_PlusLocalization,2021.2.3,60.16996510858146,
weep.wav,weep.mpg,weep,4,A,Pink_Noise_4_1.wav,Pink_Noise_4_2.wav,,,,,,,,,,,,,,,0,103,103,33,,,,,,,,,,,,,,,,,,,,,,,897.0075769169998,None,898.6019566249997,None,900.0065433750024,None,wound,900.0065433750024,None,return,2.2812389579994488,900.0896068340007,None,,,,,,,,,,,,,,,,,,,,,,,,,,,,,,,,,,,,,,,95,001,2023_May_10_1257,SpeechDraft1Carolyn_lessNoise_PlusLocalization,2021.2.3,60.16996510858146,
crush.wav,crush.mpg,crush,3,AV,Pink_Noise_3_1.wav,Pink_Noise_3_2.wav,,,,,,,,,,,,,,,0,104,104,86,,,,,,,,,,,,,,,,,,,,,,,902.3905468340017,None,903.9881652920012,None,905.3902149170026,None,crush,905.3902149170026,None,return,3.5136032500013243,905.4733252090009,None,,,,,,,,,,,,,,,,,,,,,,,,,,,,,,,,,,,,,,,95,001,2023_May_10_1257,SpeechDraft1Carolyn_lessNoise_PlusLocalization,2021.2.3,60.16996510858146,
gum.wav,gum.mpg,gum,4,AV,Pink_Noise_4_1.wav,Pink_Noise_4_2.wav,,,,,,,,,,,,,,,0,105,105,102,,,,,,,,,,,,,,,,,,,,,,,909.0070276250008,None,910.6052845000013,None,912.0067437920006,None,gulp,912.0067437920006,None,return,2.824352874999022,912.0904031669997,None,,,,,,,,,,,,,,,,,,,,,,,,,,,,,,,,,,,,,,,95,001,2023_May_10_1257,SpeechDraft1Carolyn_lessNoise_PlusLocalization,2021.2.3,60.16996510858146,
ball.wav,ball.mpg,ball,4,AV,Pink_Noise_4_1.wav,Pink_Noise_4_2.wav,,,,,,,,,,,,,,,0,106,106,95,,,,,,,,,,,,,,,,,,,,,,,914.9401582499995,None,916.5428537090011,None,917.939952834,None,wo;d,917.939952834,None,return,2.4997510409993993,918.0231965839994,None,,,,,,,,,,,,,,,,,,,,,,,,,,,,,,,,,,,,,,,95,001,2023_May_10_1257,SpeechDraft1Carolyn_lessNoise_PlusLocalization,2021.2.3,60.16996510858146,
row.wav,row.mpg,row,5,A,Pink_Noise_5_1.wav,Pink_Noise_5_2.wav,,,,,,,,,,,,,,,0,107,107,9,,,,,,,,,,,,,,,,,,,,,,,920.540541792001,None,922.1366214170012,None,923.540504042001,None,low,923.540504042001,None,return,3.3957129570007965,923.6233238340028,None,,,,,,,,,,,,,,,,,,,,,,,,,,,,,,,,,,,,,,,95,001,2023_May_10_1257,SpeechDraft1Carolyn_lessNoise_PlusLocalization,2021.2.3,60.16996510858146,
flex.wav,flex.mpg,flex,1,A,Pink_Noise_1_1.wav,Pink_Noise_1_2.wav,,,,,,,,,,,,,,,0,108,108,42,,,,,,,,,,,,,,,,,,,,,,,927.0403877089993,None,928.6427389590026,None,930.0401752920006,None,flex,930.0401752920006,None,return,2.063723998999194,930.1233193340013,None,,,,,,,,,,,,,,,,,,,,,,,,,,,,,,,,,,,,,,,95,001,2023_May_10_1257,SpeechDraft1Carolyn_lessNoise_PlusLocalization,2021.2.3,60.16996510858146,
quart.wav,quart.mpg,quart,5,AV,Pink_Noise_5_1.wav,Pink_Noise_5_2.wav,,,,,,,,,,,,,,,0,109,109,96,,,,,,,,,,,,,,,,,,,,,,,932.2070242920017,None,933.8033403340014,None,935.1900191250024,None,twerk,935.1900191250024,None,return,5.041572499998438,935.2735596670027,None,,,,,,,,,,,,,,,,,,,,,,,,,,,,,,,,,,,,,,,95,001,2023_May_10_1257,SpeechDraft1Carolyn_lessNoise_PlusLocalization,2021.2.3,60.16996510858146,
crank.wav,crank.mpg,crank,1,A,Pink_Noise_1_1.wav,Pink_Noise_1_2.wav,,,,,,,,,,,,,,,0,110,110,29,,,,,,,,,,,,,,,,,,,,,,,940.3399092500003,None,941.9463411249999,None,943.3405687500017,None,crank,943.3405687500017,None,return,5.931494125001336,943.4236225839995,None,,,,,,,,,,,,,,,,,,,,,,,,,,,,,,,,,,,,,,,95,001,2023_May_10_1257,SpeechDraft1Carolyn_lessNoise_PlusLocalization,2021.2.3,60.16996510858146,
brick.wav,brick.mpg,brick,2,AV,Pink_Noise_2_1.wav,Pink_Noise_2_2.wav,,,,,,,,,,,,,,,0,111,111,66,,,,,,,,,,,,,,,,,,,,,,,949.3739081250023,None,950.9726670420023,None,952.3732965420022,None,brick,952.3732965420022,None,return,3.5463611240011232,952.4568577089995,None,,,,,,,,,,,,,,,,,,,,,,,,,,,,,,,,,,,,,,,95,001,2023_May_10_1257,SpeechDraft1Carolyn_lessNoise_PlusLocalization,2021.2.3,60.16996510858146,
news.wav,news.mpg,news,1,AV,Pink_Noise_1_1.wav,Pink_Noise_1_2.wav,,,,,,,,,,,,,,,0,112,112,87,,,,,,,,,,,,,,,,,,,,,,,956.0236189589996,None,957.6316811249999,None,959.0232081249997,None,news,959.0232081249997,None,return,3.9041358739996213,959.1071207090026,None,,,,,,,,,,,,,,,,,,,,,,,,,,,,,,,,,,,,,,,95,001,2023_May_10_1257,SpeechDraft1Carolyn_lessNoise_PlusLocalization,2021.2.3,60.16996510858146,
clap.wav,clap.mpg,clap,4,AV,Pink_Noise_4_1.wav,Pink_Noise_4_2.wav,,,,,,,,,,,,,,,0,113,113,68,,,,,,,,,,,,,,,,,,,,,,,963.0403157500004,None,964.6506178750024,None,966.0411911250012,None,clap,966.0411911250012,None,return,2.0476447490000282,966.1236474590005,None,,,,,,,,,,,,,,,,,,,,,,,,,,,,,,,,,,,,,,,95,001,2023_May_10_1257,SpeechDraft1Carolyn_lessNoise_PlusLocalization,2021.2.3,60.16996510858146,
fall.wav,fall.mpg,fall,4,AV,Pink_Noise_4_1.wav,Pink_Noise_4_2.wav,,,,,,,,,,,,,,,0,114,114,94,,,,,,,,,,,,,,,,,,,,,,,968.1908336250017,None,969.7927325420023,None,971.1905620420002,None,fall,971.1905620420002,None,return,2.369178291002754,971.2740843749998,None,,,,,,,,,,,,,,,,,,,,,,,,,,,,,,,,,,,,,,,95,001,2023_May_10_1257,SpeechDraft1Carolyn_lessNoise_PlusLocalization,2021.2.3,60.16996510858146,
chip.wav,chip.mpg,chip,6,AV,Pink_Noise_6_1.wav,Pink_Noise_6_2.wav,,,,,,,,,,,,,,,0,115,115,110,,,,,,,,,,,,,,,,,,,,,,,973.6737536250002,None,975.2795815419995,None,976.6735225420016,None,gym,976.6735225420016,None,return,2.725550415998441,976.757777709001,None,,,,,,,,,,,,,,,,,,,,,,,,,,,,,,,,,,,,,,,95,001,2023_May_10_1257,SpeechDraft1Carolyn_lessNoise_PlusLocalization,2021.2.3,60.16996510858146,
golf.wav,golf.mpg,golf,5,A,Pink_Noise_5_1.wav,Pink_Noise_5_2.wav,,,,,,,,,,,,,,,0,116,116,7,,,,,,,,,,,,,,,,,,,,,,,979.5068086669999,None,981.1098952499997,None,982.5069542500023,None,short,982.5069542500023,None,return,3.597510081999644,982.5898655000019,None,,,,,,,,,,,,,,,,,,,,,,,,,,,,,,,,,,,,,,,95,001,2023_May_10_1257,SpeechDraft1Carolyn_lessNoise_PlusLocalization,2021.2.3,60.16996510858146,
fierce.wav,fierce.mpg,fierce,4,A,Pink_Noise_4_1.wav,Pink_Noise_4_2.wav,,,,,,,,,,,,,,,0,117,117,44,,,,,,,,,,,,,,,,,,,,,,,986.207564417,None,987.8102389170017,None,989.2070746250029,None,fierce,989.2070746250029,None,return,3.8573956250002084,989.2899907499996,None,,,,,,,,,,,,,,,,,,,,,,,,,,,,,,,,,,,,,,,95,001,2023_May_10_1257,SpeechDraft1Carolyn_lessNoise_PlusLocalization,2021.2.3,60.16996510858146,
chest.wav,chest.mpg,chest,5,AV,Pink_Noise_5_1.wav,Pink_Noise_5_2.wav,,,,,,,,,,,,,,,0,118,118,101,,,,,,,,,,,,,,,,,,,,,,,993.1735892500001,None,994.7771947090005,None,996.1743985840003,None,"chess
",996.1743985840003,None,return,2.0345053739983996,996.2569045840028,None,,,,,,,,,,,,,,,,,,,,,,,,,,,,,,,,,,,,,,,95,001,2023_May_10_1257,SpeechDraft1Carolyn_lessNoise_PlusLocalization,2021.2.3,60.16996510858146,
chase.wav,chase.mpg,chase,2,AV,Pink_Noise_2_1.wav,Pink_Noise_2_2.wav,,,,,,,,,,,,,,,0,119,119,93,,,,,,,,,,,,,,,,,,,,,,,998.3235945840024,None,999.9355355420012,None,1001.3235389170004,None,chase,1001.3235389170004,None,return,1.5159815829974832,1001.4075225840024,None,,,,,,,,,,,,,,,,,,,,,,,,,,,,,,,,,,,,,,,95,001,2023_May_10_1257,SpeechDraft1Carolyn_lessNoise_PlusLocalization,2021.2.3,60.16996510858146,
,,,,,,,,,,,,,,,,,,,,,,,,,,,,,,,,,,,,,,,,,,,,,,,,,,,,,,,,,,,,,,,,,,space,26.514869665999868,1003.0247291250016,None,,,,,,,,,,,,,,,,,,,,,,,,,,,,,95,001,2023_May_10_1257,SpeechDraft1Carolyn_lessNoise_PlusLocalization,2021.2.3,60.16996510858146,
,,,,,,,,farLeft,-19.1,5,ch1Sound_localizationTask.wav,-19.1,"(667, 878)","(-293,-202)",-285,-338,,,,,,,,,0,0,0,0,,,,,,,,,,,,,,,,,,,,,,,,,,,,,,,,,,,,,,,,,,1003.0247291250016,None,1029.5576234590008,None,1030.6528209170028,None,1031.5806556250027,None,1.1492063492063491,1.5564104579971172,1031.5806556250027,None,,,,,,,,,,,,,,,,,95,001,2023_May_10_1257,SpeechDraft1Carolyn_lessNoise_PlusLocalization,2021.2.3,60.16996510858146,
,,,,,,,,farLeft,-19.1,5,ch1Sound_localizationTask.wav,-19.1,"(667, 878)","(-293,-202)",-285,-338,,,,,,,,,0,1,1,0,,,,,,,,,,,,,,,,,,,,,,,,,,,,,,,,,,,,,,,,,,,,1033.1567665420007,None,1034.2532761250004,None,1035.1746866249996,None,1.2026455026455025,0.6803195419997792,1035.1746866249996,None,,,,,,,,,,,,,,,,,95,001,2023_May_10_1257,SpeechDraft1Carolyn_lessNoise_PlusLocalization,2021.2.3,60.16996510858146,
,,,,,,,,farRight,19.1,4,ch1Sound_localizationTask.wav,19.1,"(1237, 878)","(277,-202)",285,-338,,,,,,,,,0,2,2,6,,,,,,,,,,,,,,,,,,,,,,,,,,,,,,,,,,,,,,,,,,,,1035.8744356669995,None,1036.968266709002,None,1037.890711250002,None,1.7904761904761903,0.9826403339975514,1037.890711250002,None,,,,,,,,,,,,,,,,,95,001,2023_May_10_1257,SpeechDraft1Carolyn_lessNoise_PlusLocalization,2021.2.3,60.16996510858146,
,,,,,,,,center,0.0,6,ch1Sound_localizationTask.wav,0.0,"(952, 878)","(-8,-202)",0,-338,,,,,,,,,0,3,3,3,,,,,,,,,,,,,,,,,,,,,,,,,,,,,,,,,,,,,,,,,,,,1038.8903977920017,None,1039.9865086669997,None,1040.9072488750026,None,1.507936507936508,0.6337835410013213,1040.9072488750026,None,,,,,,,,,,,,,,,,,95,001,2023_May_10_1257,SpeechDraft1Carolyn_lessNoise_PlusLocalization,2021.2.3,60.16996510858146,
,,,,,,,,midRight,13.0,3,ch1Sound_localizationTask.wav,13.0,"(1142, 878)","(182, -202)",190,-338,,,,,,,,,0,4,4,5,,,,,,,,,,,,,,,,,,,,,,,,,,,,,,,,,,,,,,,,,,,,1041.5572370840018,None,1042.6506642090026,None,1043.5742427920013,None,1.6354497354497355,0.9978649589975248,1043.5742427920013,None,,,,,,,,,,,,,,,,,95,001,2023_May_10_1257,SpeechDraft1Carolyn_lessNoise_PlusLocalization,2021.2.3,60.16996510858146,
,,,,,,,,nearLeft,-6.5,1,ch1Sound_localizationTask.wav,-6.5,"(857, 878)","(-103,-202)",-95,-338,,,,,,,,,0,5,5,2,,,,,,,,,,,,,,,,,,,,,,,,,,,,,,,,,,,,,,,,,,,,1044.5902392499993,None,1045.6861285420018,None,1046.607620584,None,1.51005291005291,0.6320370840003307,1046.607620584,None,,,,,,,,,,,,,,,,,95,001,2023_May_10_1257,SpeechDraft1Carolyn_lessNoise_PlusLocalization,2021.2.3,60.16996510858146,
,,,,,,,,center,0.0,6,ch1Sound_localizationTask.wav,0.0,"(952, 878)","(-8,-202)",0,-338,,,,,,,,,0,6,6,3,,,,,,,,,,,,,,,,,,,,,,,,,,,,,,,,,,,,,,,,,,,,1047.2567890419996,None,1048.352155042001,None,1049.2740060840006,None,1.502116402116402,0.6836060419991554,1049.2740060840006,None,,,,,,,,,,,,,,,,,95,001,2023_May_10_1257,SpeechDraft1Carolyn_lessNoise_PlusLocalization,2021.2.3,60.16996510858146,
,,,,,,,,center,0.0,6,ch1Sound_localizationTask.wav,0.0,"(952, 878)","(-8,-202)",0,-338,,,,,,,,,1,0,7,3,,,,,,,,,,,,,,,,,,,,,,,,,,,,,,,,,,,,,,,,,,,,1049.9739346250026,None,1051.069888459002,None,1051.991257042002,None,1.4978835978835978,0.5493161660015176,1051.991257042002,None,,,,,,,,,,,,,,,,,95,001,2023_May_10_1257,SpeechDraft1Carolyn_lessNoise_PlusLocalization,2021.2.3,60.16996510858146,
,,,,,,,,midLeft,-13.0,2,ch1Sound_localizationTask.wav,-13.0,"(762, 878)","(-198,-202)",-190,-338,,,,,,,,,1,1,8,1,,,,,,,,,,,,,,,,,,,,,,,,,,,,,,,,,,,,,,,,,,,,1052.5570723340024,None,1053.651685375,None,1054.5746410840002,None,1.3513227513227513,1.366737167001702,1054.5746410840002,None,,,,,,,,,,,,,,,,,95,001,2023_May_10_1257,SpeechDraft1Carolyn_lessNoise_PlusLocalization,2021.2.3,60.16996510858146,
,,,,,,,,midRight,13.0,3,ch1Sound_localizationTask.wav,13.0,"(1142, 878)","(182, -202)",190,-338,,,,,,,,,1,2,9,5,,,,,,,,,,,,,,,,,,,,,,,,,,,,,,,,,,,,,,,,,,,,1055.9571739170024,None,1057.0528115000016,None,1057.9740645839993,None,1.6677248677248677,1.0326589169999352,1057.9740645839993,None,,,,,,,,,,,,,,,,,95,001,2023_May_10_1257,SpeechDraft1Carolyn_lessNoise_PlusLocalization,2021.2.3,60.16996510858146,
,,,,,,,,farRight,19.1,4,ch1Sound_localizationTask.wav,19.1,"(1237, 878)","(277,-202)",285,-338,,,,,,,,,1,3,10,6,,,,,,,,,,,,,,,,,,,,,,,,,,,,,,,,,,,,,,,,,,,,1059.023789875002,None,1060.1191644589999,None,1061.0406346670025,None,1.6661375661375661,0.5314445000003616,1061.0406346670025,None,,,,,,,,,,,,,,,,,95,001,2023_May_10_1257,SpeechDraft1Carolyn_lessNoise_PlusLocalization,2021.2.3,60.16996510858146,
,,,,,,,,farLeft,-19.1,5,ch1Sound_localizationTask.wav,-19.1,"(667, 878)","(-293,-202)",-285,-338,,,,,,,,,1,4,11,0,,,,,,,,,,,,,,,,,,,,,,,,,,,,,,,,,,,,,,,,,,,,1061.5905775419997,None,1062.6835565420006,None,1063.6074845420007,None,1.273015873015873,0.6662498330006201,1063.6074845420007,None,,,,,,,,,,,,,,,,,95,001,2023_May_10_1257,SpeechDraft1Carolyn_lessNoise_PlusLocalization,2021.2.3,60.16996510858146,
,,,,,,,,midRight,13.0,3,ch1Sound_localizationTask.wav,13.0,"(1142, 878)","(182, -202)",190,-338,,,,,,,,,1,5,12,5,,,,,,,,,,,,,,,,,,,,,,,,,,,,,,,,,,,,,,,,,,,,1064.291039292002,None,1065.3851316250002,None,1066.3073155839993,None,1.6947089947089946,0.4495525420024933,1066.3073155839993,None,,,,,,,,,,,,,,,,,95,001,2023_May_10_1257,SpeechDraft1Carolyn_lessNoise_PlusLocalization,2021.2.3,60.16996510858146,
,,,,,,,,farRight,19.1,4,ch1Sound_localizationTask.wav,19.1,"(1237, 878)","(277,-202)",285,-338,,,,,,,,,1,6,13,6,,,,,,,,,,,,,,,,,,,,,,,,,,,,,,,,,,,,,,,,,,,,1066.7736205420006,None,1067.8698529590001,None,1068.7906231670022,None,1.6682539682539683,0.43230304199823877,1068.7906231670022,None,,,,,,,,,,,,,,,,,95,001,2023_May_10_1257,SpeechDraft1Carolyn_lessNoise_PlusLocalization,2021.2.3,60.16996510858146,
,,,,,,,,midRight,13.0,3,ch1Sound_localizationTask.wav,13.0,"(1142, 878)","(182, -202)",190,-338,,,,,,,,,2,0,14,5,,,,,,,,,,,,,,,,,,,,,,,,,,,,,,,,,,,,,,,,,,,,1069.2404587090023,None,1070.3353772920018,None,1071.2576553750005,None,1.6783068783068784,0.4486519580023014,1071.2576553750005,None,,,,,,,,,,,,,,,,,95,001,2023_May_10_1257,SpeechDraft1Carolyn_lessNoise_PlusLocalization,2021.2.3,60.16996510858146,
,,,,,,,,farRight,19.1,4,ch1Sound_localizationTask.wav,19.1,"(1237, 878)","(277,-202)",285,-338,,,,,,,,,2,1,15,6,,,,,,,,,,,,,,,,,,,,,,,,,,,,,,,,,,,,,,,,,,,,1071.7238395420027,None,1072.817605250002,None,1073.7409608340022,None,1.7809523809523808,0.6682503750016622,1073.7409608340022,None,,,,,,,,,,,,,,,,,95,001,2023_May_10_1257,SpeechDraft1Carolyn_lessNoise_PlusLocalization,2021.2.3,60.16996510858146,
,,,,,,,,farLeft,-19.1,5,ch1Sound_localizationTask.wav,-19.1,"(667, 878)","(-293,-202)",-285,-338,,,,,,,,,2,2,16,0,,,,,,,,,,,,,,,,,,,,,,,,,,,,,,,,,,,,,,,,,,,,1074.4236379590002,None,1075.5190916669999,None,1076.4408228749999,None,1.2788359788359789,0.615525583998533,1076.4408228749999,None,,,,,,,,,,,,,,,,,95,001,2023_May_10_1257,SpeechDraft1Carolyn_lessNoise_PlusLocalization,2021.2.3,60.16996510858146,
,,,,,,,,nearLeft,-6.5,1,ch1Sound_localizationTask.wav,-6.5,"(857, 878)","(-103,-202)",-95,-338,,,,,,,,,2,3,17,2,,,,,,,,,,,,,,,,,,,,,,,,,,,,,,,,,,,,,,,,,,,,1077.073954667001,None,1078.167928750001,None,1079.0909730839994,None,1.7248677248677249,0.8806865420010581,1079.0909730839994,None,,,,,,,,,,,,,,,,,95,001,2023_May_10_1257,SpeechDraft1Carolyn_lessNoise_PlusLocalization,2021.2.3,60.16996510858146,
,,,,,,,,farRight,19.1,4,ch1Sound_localizationTask.wav,19.1,"(1237, 878)","(277,-202)",285,-338,,,,,,,,,2,4,18,6,,,,,,,,,,,,,,,,,,,,,,,,,,,,,,,,,,,,,,,,,,,,1079.9906846250014,None,1081.0865928750027,None,1082.0077981670001,None,1.8021164021164022,0.9161967500003811,1082.0077981670001,None,,,,,,,,,,,,,,,,,95,001,2023_May_10_1257,SpeechDraft1Carolyn_lessNoise_PlusLocalization,2021.2.3,60.16996510858146,
,,,,,,,,center,0.0,6,ch1Sound_localizationTask.wav,0.0,"(952, 878)","(-8,-202)",0,-338,,,,,,,,,2,5,19,3,,,,,,,,,,,,,,,,,,,,,,,,,,,,,,,,,,,,,,,,,,,,1082.9402412090021,None,1084.0366255840017,None,1084.957920500001,None,1.5518518518518518,0.6003759580016776,1084.957920500001,None,,,,,,,,,,,,,,,,,95,001,2023_May_10_1257,SpeechDraft1Carolyn_lessNoise_PlusLocalization,2021.2.3,60.16996510858146,
,,,,,,,,midLeft,-13.0,2,ch1Sound_localizationTask.wav,-13.0,"(762, 878)","(-198,-202)",-190,-338,,,,,,,,,2,6,20,1,,,,,,,,,,,,,,,,,,,,,,,,,,,,,,,,,,,,,,,,,,,,1085.5740255000019,None,1086.6687897090014,None,1087.590782667001,None,1.326984126984127,0.700044291002996,1087.590782667001,None,,,,,,,,,,,,,,,,,95,001,2023_May_10_1257,SpeechDraft1Carolyn_lessNoise_PlusLocalization,2021.2.3,60.16996510858146,
,,,,,,,,nearRight,6.5,0,ch1Sound_localizationTask.wav,6.5,"(1047, 878)","(87, -202)",95,-338,,,,,,,,,3,0,21,4,,,,,,,,,,,,,,,,,,,,,,,,,,,,,,,,,,,,,,,,,,,,1088.3074939590006,None,1089.4030083340003,None,1090.3240655840018,None,1.5328042328042328,1.0814216669969028,1090.3240655840018,None,,,,,,,,,,,,,,,,,95,001,2023_May_10_1257,SpeechDraft1Carolyn_lessNoise_PlusLocalization,2021.2.3,60.16996510858146,
,,,,,,,,nearLeft,-6.5,1,ch1Sound_localizationTask.wav,-6.5,"(857, 878)","(-103,-202)",-95,-338,,,,,,,,,3,1,22,2,,,,,,,,,,,,,,,,,,,,,,,,,,,,,,,,,,,,,,,,,,,,1091.4241126670022,None,1092.5179032090018,None,1093.4410839590018,None,1.524867724867725,0.4493322910020652,1093.4410839590018,None,,,,,,,,,,,,,,,,,95,001,2023_May_10_1257,SpeechDraft1Carolyn_lessNoise_PlusLocalization,2021.2.3,60.16996510858146,
,,,,,,,,farRight,19.1,4,ch1Sound_localizationTask.wav,19.1,"(1237, 878)","(277,-202)",285,-338,,,,,,,,,3,2,23,6,,,,,,,,,,,,,,,,,,,,,,,,,,,,,,,,,,,,,,,,,,,,1093.9077291249996,None,1095.0028782920017,None,1095.9239719590005,None,1.8052910052910054,0.9652819999973872,1095.9239719590005,None,,,,,,,,,,,,,,,,,95,001,2023_May_10_1257,SpeechDraft1Carolyn_lessNoise_PlusLocalization,2021.2.3,60.16996510858146,
,,,,,,,,farLeft,-19.1,5,ch1Sound_localizationTask.wav,-19.1,"(667, 878)","(-293,-202)",-285,-338,,,,,,,,,3,3,24,0,,,,,,,,,,,,,,,,,,,,,,,,,,,,,,,,,,,,,,,,,,,,1096.9080803340003,None,1098.002282542002,None,1098.9242184169998,None,1.198941798941799,1.26516674999948,1098.9242184169998,None,,,,,,,,,,,,,,,,,95,001,2023_May_10_1257,SpeechDraft1Carolyn_lessNoise_PlusLocalization,2021.2.3,60.16996510858146,
,,,,,,,,midRight,13.0,3,ch1Sound_localizationTask.wav,13.0,"(1142, 878)","(182, -202)",190,-338,,,,,,,,,3,4,25,5,,,,,,,,,,,,,,,,,,,,,,,,,,,,,,,,,,,,,,,,,,,,1100.2072325420013,None,1101.3020882500023,None,1102.2244470000005,None,1.6423280423280424,1.0823312920001626,1102.2244470000005,None,,,,,,,,,,,,,,,,,95,001,2023_May_10_1257,SpeechDraft1Carolyn_lessNoise_PlusLocalization,2021.2.3,60.16996510858146,
,,,,,,,,farRight,19.1,4,ch1Sound_localizationTask.wav,19.1,"(1237, 878)","(277,-202)",285,-338,,,,,,,,,3,5,26,6,,,,,,,,,,,,,,,,,,,,,,,,,,,,,,,,,,,,,,,,,,,,1103.3242323750019,None,1104.4184899169995,None,1105.3413813750012,None,1.7587301587301587,0.5335349590022815,1105.3413813750012,None,,,,,,,,,,,,,,,,,95,001,2023_May_10_1257,SpeechDraft1Carolyn_lessNoise_PlusLocalization,2021.2.3,60.16996510858146,
,,,,,,,,center,0.0,6,ch1Sound_localizationTask.wav,0.0,"(952, 878)","(-8,-202)",0,-338,,,,,,,,,3,6,27,3,,,,,,,,,,,,,,,,,,,,,,,,,,,,,,,,,,,,,,,,,,,,1105.8909480420007,None,1106.9853802500002,None,1107.9074409589994,None,1.426984126984127,0.5313374589968589,1107.9074409589994,None,,,,,,,,,,,,,,,,,95,001,2023_May_10_1257,SpeechDraft1Carolyn_lessNoise_PlusLocalization,2021.2.3,60.16996510858146,
,,,,,,,,center,0.0,6,ch1Sound_localizationTask.wav,0.0,"(952, 878)","(-8,-202)",0,-338,,,,,,,,,4,0,28,3,,,,,,,,,,,,,,,,,,,,,,,,,,,,,,,,,,,,,,,,,,,,1108.4570952920003,None,1109.5520882500023,None,1110.4741457500022,None,1.5867724867724866,0.4000916250006412,1110.4741457500022,None,,,,,,,,,,,,,,,,,95,001,2023_May_10_1257,SpeechDraft1Carolyn_lessNoise_PlusLocalization,2021.2.3,60.16996510858146,
,,,,,,,,nearRight,6.5,0,ch1Sound_localizationTask.wav,6.5,"(1047, 878)","(87, -202)",95,-338,,,,,,,,,4,1,29,4,,,,,,,,,,,,,,,,,,,,,,,,,,,,,,,,,,,,,,,,,,,,1110.8903360000004,None,1111.9865897500022,None,1112.9079500840016,None,1.4793650793650794,0.6011137499990582,1112.9079500840016,None,,,,,,,,,,,,,,,,,95,001,2023_May_10_1257,SpeechDraft1Carolyn_lessNoise_PlusLocalization,2021.2.3,60.16996510858146,
,,,,,,,,nearLeft,-6.5,1,ch1Sound_localizationTask.wav,-6.5,"(857, 878)","(-103,-202)",-95,-338,,,,,,,,,4,2,30,2,,,,,,,,,,,,,,,,,,,,,,,,,,,,,,,,,,,,,,,,,,,,1113.5239543749994,None,1114.6183171250013,None,1115.5410427919996,None,1.5031746031746032,0.39972570900135906,1115.5410427919996,None,,,,,,,,,,,,,,,,,95,001,2023_May_10_1257,SpeechDraft1Carolyn_lessNoise_PlusLocalization,2021.2.3,60.16996510858146,
,,,,,,,,midLeft,-13.0,2,ch1Sound_localizationTask.wav,-13.0,"(762, 878)","(-198,-202)",-190,-338,,,,,,,,,4,3,31,1,,,,,,,,,,,,,,,,,,,,,,,,,,,,,,,,,,,,,,,,,,,,1115.9574928340007,None,1117.0521967090026,None,1117.9745174590025,None,1.3047619047619048,1.0494775410006696,1117.9745174590025,None,,,,,,,,,,,,,,,,,95,001,2023_May_10_1257,SpeechDraft1Carolyn_lessNoise_PlusLocalization,2021.2.3,60.16996510858146,
,,,,,,,,nearRight,6.5,0,ch1Sound_localizationTask.wav,6.5,"(1047, 878)","(87, -202)",95,-338,,,,,,,,,4,4,32,4,,,,,,,,,,,,,,,,,,,,,,,,,,,,,,,,,,,,,,,,,,,,1119.0412813340008,None,1120.136142542,None,1121.0572745419995,None,1.57989417989418,0.6330037500010803,1121.0572745419995,None,,,,,,,,,,,,,,,,,95,001,2023_May_10_1257,SpeechDraft1Carolyn_lessNoise_PlusLocalization,2021.2.3,60.16996510858146,
,,,,,,,,center,0.0,6,ch1Sound_localizationTask.wav,0.0,"(952, 878)","(-8,-202)",0,-338,,,,,,,,,4,5,33,3,,,,,,,,,,,,,,,,,,,,,,,,,,,,,,,,,,,,,,,,,,,,1121.7078873339997,None,1122.8018656250024,None,1123.7250447920014,None,1.2746031746031745,0.7491604999995616,1123.7250447920014,None,,,,,,,,,,,,,,,,,95,001,2023_May_10_1257,SpeechDraft1Carolyn_lessNoise_PlusLocalization,2021.2.3,60.16996510858146,
,,,,,,,,midLeft,-13.0,2,ch1Sound_localizationTask.wav,-13.0,"(762, 878)","(-198,-202)",-190,-338,,,,,,,,,4,6,34,1,,,,,,,,,,,,,,,,,,,,,,,,,,,,,,,,,,,,,,,,,,,,1124.4904769999994,None,1125.5852708340026,None,1126.508171542002,None,1.317989417989418,0.48167916699821944,1126.508171542002,None,,,,,,,,,,,,,,,,,95,001,2023_May_10_1257,SpeechDraft1Carolyn_lessNoise_PlusLocalization,2021.2.3,60.16996510858146,
,,,,,,,,midLeft,-13.0,2,ch1Sound_localizationTask.wav,-13.0,"(762, 878)","(-198,-202)",-190,-338,,,,,,,,,5,0,35,1,,,,,,,,,,,,,,,,,,,,,,,,,,,,,,,,,,,,,,,,,,,,1127.0071350420003,None,1128.1021370840026,None,1129.0238707089993,None,1.3015873015873016,0.6661812920028751,1129.0238707089993,None,,,,,,,,,,,,,,,,,95,001,2023_May_10_1257,SpeechDraft1Carolyn_lessNoise_PlusLocalization,2021.2.3,60.16996510858146,
,,,,,,,,nearRight,6.5,0,ch1Sound_localizationTask.wav,6.5,"(1047, 878)","(87, -202)",95,-338,,,,,,,,,5,1,36,4,,,,,,,,,,,,,,,,,,,,,,,,,,,,,,,,,,,,,,,,,,,,1129.7074570840014,None,1130.802390459001,None,1131.7242802500004,None,1.5312169312169313,0.7161800840003707,1131.7242802500004,None,,,,,,,,,,,,,,,,,95,001,2023_May_10_1257,SpeechDraft1Carolyn_lessNoise_PlusLocalization,2021.2.3,60.16996510858146,
,,,,,,,,nearRight,6.5,0,ch1Sound_localizationTask.wav,6.5,"(1047, 878)","(87, -202)",95,-338,,,,,,,,,5,2,37,4,,,,,,,,,,,,,,,,,,,,,,,,,,,,,,,,,,,,,,,,,,,,1132.4577932089996,None,1133.552103334001,None,1134.4742967920029,None,1.5222222222222221,0.33177087500007474,1134.4742967920029,None,,,,,,,,,,,,,,,,,95,001,2023_May_10_1257,SpeechDraft1Carolyn_lessNoise_PlusLocalization,2021.2.3,60.16996510858146,
,,,,,,,,farLeft,-19.1,5,ch1Sound_localizationTask.wav,-19.1,"(667, 878)","(-293,-202)",-285,-338,,,,,,,,,5,3,38,0,,,,,,,,,,,,,,,,,,,,,,,,,,,,,,,,,,,,,,,,,,,,1134.8236387920006,None,1135.9200686250006,None,1136.8414670839993,None,1.3687830687830687,0.43268724999870756,1136.8414670839993,None,,,,,,,,,,,,,,,,,95,001,2023_May_10_1257,SpeechDraft1Carolyn_lessNoise_PlusLocalization,2021.2.3,60.16996510858146,
,,,,,,,,nearLeft,-6.5,1,ch1Sound_localizationTask.wav,-6.5,"(857, 878)","(-103,-202)",-95,-338,,,,,,,,,5,4,39,2,,,,,,,,,,,,,,,,,,,,,,,,,,,,,,,,,,,,,,,,,,,,1137.2904093340003,None,1138.3862721250007,None,1139.3078817500027,None,1.5915343915343916,1.1816329579996818,1139.3078817500027,None,,,,,,,,,,,,,,,,,95,001,2023_May_10_1257,SpeechDraft1Carolyn_lessNoise_PlusLocalization,2021.2.3,60.16996510858146,
,,,,,,,,nearLeft,-6.5,1,ch1Sound_localizationTask.wav,-6.5,"(857, 878)","(-103,-202)",-95,-338,,,,,,,,,5,5,40,2,,,,,,,,,,,,,,,,,,,,,,,,,,,,,,,,,,,,,,,,,,,,1140.5072717500007,None,1141.6025272920015,None,1142.5240441250025,None,1.4952380952380953,0.5500063340004999,1142.5240441250025,None,,,,,,,,,,,,,,,,,95,001,2023_May_10_1257,SpeechDraft1Carolyn_lessNoise_PlusLocalization,2021.2.3,60.16996510858146,
,,,,,,,,nearRight,6.5,0,ch1Sound_localizationTask.wav,6.5,"(1047, 878)","(87, -202)",95,-338,,,,,,,,,5,6,41,4,,,,,,,,,,,,,,,,,,,,,,,,,,,,,,,,,,,,,,,,,,,,1143.0908008340011,None,1144.1856026669993,None,1145.1075837919998,None,1.5010582010582012,0.16693191699960153,1145.1075837919998,None,,,,,,,,,,,,,,,,,95,001,2023_May_10_1257,SpeechDraft1Carolyn_lessNoise_PlusLocalization,2021.2.3,60.16996510858146,
,,,,,,,,nearLeft,-6.5,1,ch1Sound_localizationTask.wav,-6.5,"(857, 878)","(-103,-202)",-95,-338,,,,,,,,,6,0,42,2,,,,,,,,,,,,,,,,,,,,,,,,,,,,,,,,,,,,,,,,,,,,1145.2905965419995,None,1146.384388917002,None,1147.3076314169994,None,1.5010582010582012,0.4665287919997354,1147.3076314169994,None,,,,,,,,,,,,,,,,,95,001,2023_May_10_1257,SpeechDraft1Carolyn_lessNoise_PlusLocalization,2021.2.3,60.16996510858146,
,,,,,,,,midRight,13.0,3,ch1Sound_localizationTask.wav,13.0,"(1142, 878)","(182, -202)",190,-338,,,,,,,,,6,1,43,5,,,,,,,,,,,,,,,,,,,,,,,,,,,,,,,,,,,,,,,,,,,,1147.790825084001,None,1148.8850760839996,None,1149.8079140840018,None,1.6396825396825396,0.4165207090009062,1149.8079140840018,None,,,,,,,,,,,,,,,,,95,001,2023_May_10_1257,SpeechDraft1Carolyn_lessNoise_PlusLocalization,2021.2.3,60.16996510858146,
,,,,,,,,center,0.0,6,ch1Sound_localizationTask.wav,0.0,"(952, 878)","(-8,-202)",0,-338,,,,,,,,,6,2,44,3,,,,,,,,,,,,,,,,,,,,,,,,,,,,,,,,,,,,,,,,,,,,1150.241031542002,None,1151.3365756250023,None,1152.2581190420024,None,1.632804232804233,0.4641321249982866,1152.2581190420024,None,,,,,,,,,,,,,,,,,95,001,2023_May_10_1257,SpeechDraft1Carolyn_lessNoise_PlusLocalization,2021.2.3,60.16996510858146,
,,,,,,,,midLeft,-13.0,2,ch1Sound_localizationTask.wav,-13.0,"(762, 878)","(-198,-202)",-190,-338,,,,,,,,,6,3,45,1,,,,,,,,,,,,,,,,,,,,,,,,,,,,,,,,,,,,,,,,,,,,1152.7406609589998,None,1153.8363449170029,None,1154.7581472090023,None,1.301058201058201,1.6496379999989585,1154.7581472090023,None,,,,,,,,,,,,,,,,,95,001,2023_May_10_1257,SpeechDraft1Carolyn_lessNoise_PlusLocalization,2021.2.3,60.16996510858146,
,,,,,,,,midLeft,-13.0,2,ch1Sound_localizationTask.wav,-13.0,"(762, 878)","(-198,-202)",-190,-338,,,,,,,,,6,4,46,1,,,,,,,,,,,,,,,,,,,,,,,,,,,,,,,,,,,,,,,,,,,,1156.4242395420006,None,1157.518842292,None,1158.4411169170016,None,1.301058201058201,0.41611645800003316,1158.4411169170016,None,,,,,,,,,,,,,,,,,95,001,2023_May_10_1257,SpeechDraft1Carolyn_lessNoise_PlusLocalization,2021.2.3,60.16996510858146,
,,,,,,,,midRight,13.0,3,ch1Sound_localizationTask.wav,13.0,"(1142, 878)","(182, -202)",190,-338,,,,,,,,,6,5,47,5,,,,,,,,,,,,,,,,,,,,,,,,,,,,,,,,,,,,,,,,,,,,1158.874151,None,1159.9688454170027,None,1160.890740834002,None,1.6841269841269841,0.7981608340014645,1160.890740834002,None,,,,,,,,,,,,,,,,,95,001,2023_May_10_1257,SpeechDraft1Carolyn_lessNoise_PlusLocalization,2021.2.3,60.16996510858146,
,,,,,,,,nearLeft,-6.5,1,ch1Sound_localizationTask.wav,-6.5,"(857, 878)","(-103,-202)",-95,-338,,,,,,,,,6,6,48,2,,,,,,,,,,,,,,,,,,,,,,,,,,,,,,,,,,,,,,,,,,,,1161.7074878750027,None,1162.8030877090023,None,1163.724678292001,None,1.6523809523809523,0.5478114580000693,1163.724678292001,None,,,,,,,,,,,,,,,,,95,001,2023_May_10_1257,SpeechDraft1Carolyn_lessNoise_PlusLocalization,2021.2.3,60.16996510858146,
,,,,,,,,nearRight,6.5,0,ch1Sound_localizationTask.wav,6.5,"(1047, 878)","(87, -202)",95,-338,,,,,,,,,7,0,49,4,,,,,,,,,,,,,,,,,,,,,,,,,,,,,,,,,,,,,,,,,,,,1164.2906718750019,None,1165.385815542002,None,1166.3079214589998,None,1.6534391534391535,0.583088208000845,1166.3079214589998,None,,,,,,,,,,,,,,,,,95,001,2023_May_10_1257,SpeechDraft1Carolyn_lessNoise_PlusLocalization,2021.2.3,60.16996510858146,
,,,,,,,,farLeft,-19.1,5,ch1Sound_localizationTask.wav,-19.1,"(667, 878)","(-293,-202)",-285,-338,,,,,,,,,7,1,50,0,,,,,,,,,,,,,,,,,,,,,,,,,,,,,,,,,,,,,,,,,,,,1166.908106625,None,1168.002466334001,None,1168.9246607090026,None,1.2904761904761906,1.029757416999928,1168.9246607090026,None,,,,,,,,,,,,,,,,,95,001,2023_May_10_1257,SpeechDraft1Carolyn_lessNoise_PlusLocalization,2021.2.3,60.16996510858146,
,,,,,,,,farLeft,-19.1,5,ch1Sound_localizationTask.wav,-19.1,"(667, 878)","(-293,-202)",-285,-338,,,,,,,,,7,2,51,0,,,,,,,,,,,,,,,,,,,,,,,,,,,,,,,,,,,,,,,,,,,,1169.9746080840014,None,1171.0690835839996,None,1171.9910904589997,None,1.2931216931216931,0.5979344170009426,1171.9910904589997,None,,,,,,,,,,,,,,,,,95,001,2023_May_10_1257,SpeechDraft1Carolyn_lessNoise_PlusLocalization,2021.2.3,60.16996510858146,
,,,,,,,,farRight,19.1,4,ch1Sound_localizationTask.wav,19.1,"(1237, 878)","(277,-202)",285,-338,,,,,,,,,7,3,52,6,,,,,,,,,,,,,,,,,,,,,,,,,,,,,,,,,,,,,,,,,,,,1172.607515167001,None,1173.7015420839998,None,1174.6241114170007,None,1.67989417989418,0.9326526669974555,1174.6241114170007,None,,,,,,,,,,,,,,,,,95,001,2023_May_10_1257,SpeechDraft1Carolyn_lessNoise_PlusLocalization,2021.2.3,60.16996510858146,
,,,,,,,,nearRight,6.5,0,ch1Sound_localizationTask.wav,6.5,"(1047, 878)","(87, -202)",95,-338,,,,,,,,,7,4,53,4,,,,,,,,,,,,,,,,,,,,,,,,,,,,,,,,,,,,,,,,,,,,1175.5741981249994,None,1176.669536292,None,1177.5907701670003,None,1.7201058201058201,0.6994142500007001,1177.5907701670003,None,,,,,,,,,,,,,,,,,95,001,2023_May_10_1257,SpeechDraft1Carolyn_lessNoise_PlusLocalization,2021.2.3,60.16996510858146,
,,,,,,,,midRight,13.0,3,ch1Sound_localizationTask.wav,13.0,"(1142, 878)","(182, -202)",190,-338,,,,,,,,,7,5,54,5,,,,,,,,,,,,,,,,,,,,,,,,,,,,,,,,,,,,,,,,,,,,1178.3075162500027,None,1179.4024033340029,None,1180.3242571670016,None,1.7164021164021164,0.5480646249998244,1180.3242571670016,None,,,,,,,,,,,,,,,,,95,001,2023_May_10_1257,SpeechDraft1Carolyn_lessNoise_PlusLocalization,2021.2.3,60.16996510858146,
,,,,,,,,midLeft,-13.0,2,ch1Sound_localizationTask.wav,-13.0,"(762, 878)","(-198,-202)",-190,-338,,,,,,,,,7,6,55,1,,,,,,,,,,,,,,,,,,,,,,,,,,,,,,,,,,,,,,,,,,,,1180.8910695420018,None,1181.9860884590016,None,1182.9079092089996,None,1.2873015873015872,1.2656354999999166,1182.9079092089996,None,,,,,,,,,,,,,,,,,95,001,2023_May_10_1257,SpeechDraft1Carolyn_lessNoise_PlusLocalization,2021.2.3,60.16996510858146,
,,,,,,,,,,,,,,,,,,,,,,,,,,,,,,,,,,,,,,,,,,,,,,,,,,,,,,,,,,,,,,,,,,,,,,,,,,,,,,,,,,space,14.313934206998965,1184.2747504170002,None,,,,,,,,,,,,,95,001,2023_May_10_1257,SpeechDraft1Carolyn_lessNoise_PlusLocalization,2021.2.3,60.16996510858146,
,,,,,,,,nearLeft,-6.5,1,ch1Sound_localizationTask.wav,-6.5,"(857, 878)","(-103,-202)",-95,-338,,,,,,,,,,,,,0,0,0,2,,,,,,,,,,,,,,,,,,,,,,,,,,,,,,,,,,,,,,,,1198.6079409170015,None,,,1201.6091927920024,None,1.438095238095238,1.2252849169999536,1201.6091927920024,None,,,,,1184.2747504170002,None,1199.607986834002,None,1199.7905907919994,1199.8073346670026,,,,,,,95,001,2023_May_10_1257,SpeechDraft1Carolyn_lessNoise_PlusLocalization,2021.2.3,60.16996510858146,
,,,,,,,,center,0.0,6,ch1Sound_localizationTask.wav,0.0,"(952, 878)","(-8,-202)",0,-338,,,,,,,,,,,,,0,1,1,3,,,,,,,,,,,,,,,,,,,,,,,,,,,,,,,,,,,,,,,,1202.8572758750015,None,,,1205.8578483750025,None,1.4825396825396826,0.6837132500004373,1205.8578483750025,None,,,,,,,1203.8577944170029,None,1204.041452292,1204.0581994170025,,,,,,,95,001,2023_May_10_1257,SpeechDraft1Carolyn_lessNoise_PlusLocalization,2021.2.3,60.16996510858146,
,,,,,,,,center,0.0,6,ch1Sound_localizationTask.wav,0.0,"(952, 878)","(-8,-202)",0,-338,,,,,,,,,,,,,0,2,2,3,,,,,,,,,,,,,,,,,,,,,,,,,,,,,,,,,,,,,,,,1206.5575226250003,None,,,1209.5575941250027,None,1.4862433862433861,0.5164127499992901,1209.5575941250027,None,,,,,,,1207.5579520419997,None,1207.7250323750013,1207.7417756670002,,,,,,,95,001,2023_May_10_1257,SpeechDraft1Carolyn_lessNoise_PlusLocalization,2021.2.3,60.16996510858146,
,,,,,,,,farLeft,-19.1,5,ch1Sound_localizationTask.wav,-19.1,"(667, 878)","(-293,-202)",-285,-338,,,,,,,,,,,,,0,3,3,0,,,,,,,,,,,,,,,,,,,,,,,,,,,,,,,,,,,,,,,,1210.0930607920018,None,,,1213.1081416250017,None,1.328042328042328,1.0322080420010025,1213.1081416250017,None,,,,,,,1211.1082999169994,None,1211.2913171250002,1211.3084427499998,,,,,,,95,001,2023_May_10_1257,SpeechDraft1Carolyn_lessNoise_PlusLocalization,2021.2.3,60.16996510858146,
,,,,,,,,nearRight,6.5,0,ch1Sound_localizationTask.wav,6.5,"(1047, 878)","(87, -202)",95,-338,,,,,,,,,,,,,0,4,4,4,,,,,,,,,,,,,,,,,,,,,,,,,,,,,,,,,,,,,,,,1214.1576599170003,None,,,1217.1582359170025,None,1.5185185185185186,0.5136583749990677,1217.1582359170025,None,,,,,,,1215.1579801670014,None,1215.3409393750007,1215.3581392090018,,,,,,,95,001,2023_May_10_1257,SpeechDraft1Carolyn_lessNoise_PlusLocalization,2021.2.3,60.16996510858146,
,,,,,,,,midLeft,-13.0,2,ch1Sound_localizationTask.wav,-13.0,"(762, 878)","(-198,-202)",-190,-338,,,,,,,,,,,,,0,5,5,1,,,,,,,,,,,,,,,,,,,,,,,,,,,,,,,,,,,,,,,,1217.691074667,None,,,1220.6906493339993,None,1.3645502645502645,0.7161320829982287,1220.6906493339993,None,,,,,,,1218.6910247500018,None,1218.8737800420022,1218.8909263340029,,,,,,,95,001,2023_May_10_1257,SpeechDraft1Carolyn_lessNoise_PlusLocalization,2021.2.3,60.16996510858146,
,,,,,,,,nearLeft,-6.5,1,ch1Sound_localizationTask.wav,-6.5,"(857, 878)","(-103,-202)",-95,-338,,,,,,,,,,,,,0,6,6,2,,,,,,,,,,,,,,,,,,,,,,,,,,,,,,,,,,,,,,,,1221.4247964589995,None,,,1224.4241495000024,None,1.444973544973545,0.7827583340003912,1224.4241495000024,None,,,,,,,1222.4246896250006,None,1222.6076163750004,1222.624521042002,,,,,,,95,001,2023_May_10_1257,SpeechDraft1Carolyn_lessNoise_PlusLocalization,2021.2.3,60.16996510858146,
,,,,,,,,farLeft,-19.1,5,ch1Sound_localizationTask.wav,-19.1,"(667, 878)","(-293,-202)",-285,-338,,,,,,,,,,,,,1,0,7,0,,,,,,,,,,,,,,,,,,,,,,,,,,,,,,,,,,,,,,,,1225.2244741249997,None,,,1228.2246159589995,None,1.355026455026455,0.43325874999936786,1228.2246159589995,None,,,,,,,1226.2240096669993,None,1226.4086321670002,1226.4251587920007,,,,,,,95,001,2023_May_10_1257,SpeechDraft1Carolyn_lessNoise_PlusLocalization,2021.2.3,60.16996510858146,
,,,,,,,,farRight,19.1,4,ch1Sound_localizationTask.wav,19.1,"(1237, 878)","(277,-202)",285,-338,,,,,,,,,,,,,1,1,8,6,,,,,,,,,,,,,,,,,,,,,,,,,,,,,,,,,,,,,,,,1228.6745678340012,None,,,1231.6752493340027,None,1.6587301587301586,1.2654052090001642,1231.6752493340027,None,,,,,,,1229.6740826669993,None,1229.8409797090026,1229.8579248339993,,,,,,,95,001,2023_May_10_1257,SpeechDraft1Carolyn_lessNoise_PlusLocalization,2021.2.3,60.16996510858146,
,,,,,,,,midRight,13.0,3,ch1Sound_localizationTask.wav,13.0,"(1142, 878)","(182, -202)",190,-338,,,,,,,,,,,,,1,2,9,5,,,,,,,,,,,,,,,,,,,,,,,,,,,,,,,,,,,,,,,,1232.9573777090009,None,,,1235.9578400000028,None,1.644973544973545,0.5173687920032535,1235.9578400000028,None,,,,,,,1233.9581563339998,None,1234.1416634590023,1234.1581603340019,,,,,,,95,001,2023_May_10_1257,SpeechDraft1Carolyn_lessNoise_PlusLocalization,2021.2.3,60.16996510858146,
,,,,,,,,nearLeft,-6.5,1,ch1Sound_localizationTask.wav,-6.5,"(857, 878)","(-103,-202)",-95,-338,,,,,,,,,,,,,1,3,10,2,,,,,,,,,,,,,,,,,,,,,,,,,,,,,,,,,,,,,,,,1236.493710625,None,,,1239.5076135420022,None,1.3767195767195768,0.23191716600194923,1239.5076135420022,None,,,,,,,1237.5082785840023,None,1237.691826792001,1237.7080621250025,,,,,,,95,001,2023_May_10_1257,SpeechDraft1Carolyn_lessNoise_PlusLocalization,2021.2.3,60.16996510858146,
,,,,,,,,nearLeft,-6.5,1,ch1Sound_localizationTask.wav,-6.5,"(857, 878)","(-103,-202)",-95,-338,,,,,,,,,,,,,1,4,11,2,,,,,,,,,,,,,,,,,,,,,,,,,,,,,,,,,,,,,,,,1239.7573518749996,None,,,1242.7582044590017,None,1.4328042328042327,1.0157242499990389,1242.7582044590017,None,,,,,,,1240.7584337500011,None,1240.9407150000006,1240.9575825840002,,,,,,,95,001,2023_May_10_1257,SpeechDraft1Carolyn_lessNoise_PlusLocalization,2021.2.3,60.16996510858146,
,,,,,,,,midLeft,-13.0,2,ch1Sound_localizationTask.wav,-13.0,"(762, 878)","(-198,-202)",-190,-338,,,,,,,,,,,,,1,5,12,1,,,,,,,,,,,,,,,,,,,,,,,,,,,,,,,,,,,,,,,,1243.7910344590018,None,,,1246.791711959002,None,1.4248677248677248,0.06796070800191956,1246.791711959002,None,,,,,,,1244.7915014169994,None,1244.9584665000002,1244.9750350840004,,,,,,,95,001,2023_May_10_1257,SpeechDraft1Carolyn_lessNoise_PlusLocalization,2021.2.3,60.16996510858146,
,,,,,,,,midRight,13.0,3,ch1Sound_localizationTask.wav,13.0,"(1142, 878)","(182, -202)",190,-338,,,,,,,,,,,,,1,6,13,5,,,,,,,,,,,,,,,,,,,,,,,,,,,,,,,,,,,,,,,,1246.8745282920027,None,,,1249.8745848340004,None,1.6074074074074074,0.9470483330005663,1249.8745848340004,None,,,,,,,1247.8749633750012,None,1248.0579290839996,1248.074917500002,,,,,,,95,001,2023_May_10_1257,SpeechDraft1Carolyn_lessNoise_PlusLocalization,2021.2.3,60.16996510858146,
,,,,,,,,farRight,19.1,4,ch1Sound_localizationTask.wav,19.1,"(1237, 878)","(277,-202)",285,-338,,,,,,,,,,,,,2,0,14,6,,,,,,,,,,,,,,,,,,,,,,,,,,,,,,,,,,,,,,,,1250.840673625,None,,,1253.8418635000016,None,1.651851851851852,0.1651565419997496,1253.8418635000016,None,,,,,,,1251.8415306669995,None,1252.0248135420006,1252.0417917500017,,,,,,,95,001,2023_May_10_1257,SpeechDraft1Carolyn_lessNoise_PlusLocalization,2021.2.3,60.16996510858146,
,,,,,,,,nearRight,6.5,0,ch1Sound_localizationTask.wav,6.5,"(1047, 878)","(87, -202)",95,-338,,,,,,,,,,,,,2,1,15,4,,,,,,,,,,,,,,,,,,,,,,,,,,,,,,,,,,,,,,,,1254.024172292,None,,,1257.0247693340025,None,1.525925925925926,0.2683954999993148,1257.0247693340025,None,,,,,,,1255.024998459001,None,1255.2083375420007,1255.224945209,,,,,,,95,001,2023_May_10_1257,SpeechDraft1Carolyn_lessNoise_PlusLocalization,2021.2.3,60.16996510858146,
,,,,,,,,farRight,19.1,4,ch1Sound_localizationTask.wav,19.1,"(1237, 878)","(277,-202)",285,-338,,,,,,,,,,,,,2,2,16,6,,,,,,,,,,,,,,,,,,,,,,,,,,,,,,,,,,,,,,,,1257.3075410840029,None,,,1260.307669834001,None,1.6968253968253968,0.047139833000983344,1260.307669834001,None,,,,,,,1258.3079520419997,None,1258.4912277500007,1258.5078177920004,,,,,,,95,001,2023_May_10_1257,SpeechDraft1Carolyn_lessNoise_PlusLocalization,2021.2.3,60.16996510858146,
,,,,,,,,nearLeft,-6.5,1,ch1Sound_localizationTask.wav,-6.5,"(857, 878)","(-103,-202)",-95,-338,,,,,,,,,,,,,2,3,17,2,,,,,,,,,,,,,,,,,,,,,,,,,,,,,,,,,,,,,,,,1260.3741270000028,None,,,1263.3750846250005,None,1.4576719576719577,0.8490346250000584,1263.3750846250005,None,,,,,,,1261.3746971250002,None,1261.5584485420004,1261.5750073750023,,,,,,,95,001,2023_May_10_1257,SpeechDraft1Carolyn_lessNoise_PlusLocalization,2021.2.3,60.16996510858146,
,,,,,,,,midLeft,-13.0,2,ch1Sound_localizationTask.wav,-13.0,"(762, 878)","(-198,-202)",-190,-338,,,,,,,,,,,,,2,4,18,1,,,,,,,,,,,,,,,,,,,,,,,,,,,,,,,,,,,,,,,,1264.241181917001,None,,,1267.2412068340018,None,1.3878306878306879,0.8499889160011662,1267.2412068340018,None,,,,,,,1265.2414994169994,None,1265.4249643340008,1265.4412683340015,,,,,,,95,001,2023_May_10_1257,SpeechDraft1Carolyn_lessNoise_PlusLocalization,2021.2.3,60.16996510858146,
,,,,,,,,center,0.0,6,ch1Sound_localizationTask.wav,0.0,"(952, 878)","(-8,-202)",0,-338,,,,,,,,,,,,,2,5,19,3,,,,,,,,,,,,,,,,,,,,,,,,,,,,,,,,,,,,,,,,1268.1076280840025,None,,,1271.1076410000023,None,1.4671957671957672,0.5665025409980444,1271.1076410000023,None,,,,,,,1269.1082824170007,None,1269.2916144590017,1269.3075314170019,,,,,,,95,001,2023_May_10_1257,SpeechDraft1Carolyn_lessNoise_PlusLocalization,2021.2.3,60.16996510858146,
,,,,,,,,farRight,19.1,4,ch1Sound_localizationTask.wav,19.1,"(1237, 878)","(277,-202)",285,-338,,,,,,,,,,,,,2,6,20,6,,,,,,,,,,,,,,,,,,,,,,,,,,,,,,,,,,,,,,,,1271.6914104589996,None,,,1274.691620417001,None,1.624867724867725,0.8499530000008235,1274.691620417001,None,,,,,,,1272.6908074590028,None,1272.875101042002,1272.892042667001,,,,,,,95,001,2023_May_10_1257,SpeechDraft1Carolyn_lessNoise_PlusLocalization,2021.2.3,60.16996510858146,
,,,,,,,,center,0.0,6,ch1Sound_localizationTask.wav,0.0,"(952, 878)","(-8,-202)",0,-338,,,,,,,,,,,,,3,0,21,3,,,,,,,,,,,,,,,,,,,,,,,,,,,,,,,,,,,,,,,,1275.5575109170022,None,,,1278.5580380419997,None,1.4915343915343915,0.3157731249993958,1278.5580380419997,None,,,,,,,1276.5584227090003,None,1276.7417577500019,1276.7581919170007,,,,,,,95,001,2023_May_10_1257,SpeechDraft1Carolyn_lessNoise_PlusLocalization,2021.2.3,60.16996510858146,
,,,,,,,,midRight,13.0,3,ch1Sound_localizationTask.wav,13.0,"(1142, 878)","(182, -202)",190,-338,,,,,,,,,,,,,3,1,22,5,,,,,,,,,,,,,,,,,,,,,,,,,,,,,,,,,,,,,,,,1278.8909407499996,None,,,1281.8913903339999,None,1.668783068783069,0.4473103330019512,1281.8913903339999,None,,,,,,,1279.8920778749998,None,1280.0748270420008,1280.0920493340018,,,,,,,95,001,2023_May_10_1257,SpeechDraft1Carolyn_lessNoise_PlusLocalization,2021.2.3,60.16996510858146,
,,,,,,,,midLeft,-13.0,2,ch1Sound_localizationTask.wav,-13.0,"(762, 878)","(-198,-202)",-190,-338,,,,,,,,,,,,,3,2,23,1,,,,,,,,,,,,,,,,,,,,,,,,,,,,,,,,,,,,,,,,1282.3574754590009,None,,,1285.3579710000013,None,1.3412698412698414,1.132124167001166,1285.3579710000013,None,,,,,,,1283.3580906250027,None,1283.5417942090025,1283.5584540000018,,,,,,,95,001,2023_May_10_1257,SpeechDraft1Carolyn_lessNoise_PlusLocalization,2021.2.3,60.16996510858146,
,,,,,,,,farLeft,-19.1,5,ch1Sound_localizationTask.wav,-19.1,"(667, 878)","(-293,-202)",-285,-338,,,,,,,,,,,,,3,3,24,0,,,,,,,,,,,,,,,,,,,,,,,,,,,,,,,,,,,,,,,,1286.5075384590018,None,,,1289.5080183749997,None,1.3529100529100528,0.16382270900066942,1289.5080183749997,None,,,,,,,1287.5081025420004,None,1287.6911991250017,1287.7077662090014,,,,,,,95,001,2023_May_10_1257,SpeechDraft1Carolyn_lessNoise_PlusLocalization,2021.2.3,60.16996510858146,
,,,,,,,,farLeft,-19.1,5,ch1Sound_localizationTask.wav,-19.1,"(667, 878)","(-293,-202)",-285,-338,,,,,,,,,,,,,3,4,25,0,,,,,,,,,,,,,,,,,,,,,,,,,,,,,,,,,,,,,,,,1289.6910772920019,None,,,1292.6914044590012,None,1.3518518518518519,0.5498052080001798,1292.6914044590012,None,,,,,,,1290.691419584,None,1290.8747746670015,1290.8911085,,,,,,,95,001,2023_May_10_1257,SpeechDraft1Carolyn_lessNoise_PlusLocalization,2021.2.3,60.16996510858146,
,,,,,,,,nearLeft,-6.5,1,ch1Sound_localizationTask.wav,-6.5,"(857, 878)","(-103,-202)",-95,-338,,,,,,,,,,,,,3,5,26,2,,,,,,,,,,,,,,,,,,,,,,,,,,,,,,,,,,,,,,,,1293.2581167089993,None,,,1296.2579744590003,None,1.397883597883598,0.19855066599848215,1296.2579744590003,None,,,,,,,1294.2583525420014,None,1294.4417474170004,1294.4584567920028,,,,,,,95,001,2023_May_10_1257,SpeechDraft1Carolyn_lessNoise_PlusLocalization,2021.2.3,60.16996510858146,
,,,,,,,,midRight,13.0,3,ch1Sound_localizationTask.wav,13.0,"(1142, 878)","(182, -202)",190,-338,,,,,,,,,,,,,3,6,27,5,,,,,,,,,,,,,,,,,,,,,,,,,,,,,,,,,,,,,,,,1296.4745432500022,None,,,1299.4750515840024,None,1.5957671957671957,0.8988877920019149,1299.4750515840024,None,,,,,,,1297.4749586670005,None,1297.658786584001,1297.6747102920017,,,,,,,95,001,2023_May_10_1257,SpeechDraft1Carolyn_lessNoise_PlusLocalization,2021.2.3,60.16996510858146,
,,,,,,,,farRight,19.1,4,ch1Sound_localizationTask.wav,19.1,"(1237, 878)","(277,-202)",285,-338,,,,,,,,,,,,,4,0,28,6,,,,,,,,,,,,,,,,,,,,,,,,,,,,,,,,,,,,,,,,1300.391158167,None,,,1303.3917505000027,None,1.632804232804233,0.44848070799707784,1303.3917505000027,None,,,,,,,1301.3916485000009,None,1301.5743155000018,1301.5911824590003,,,,,,,95,001,2023_May_10_1257,SpeechDraft1Carolyn_lessNoise_PlusLocalization,2021.2.3,60.16996510858146,
,,,,,,,,nearRight,6.5,0,ch1Sound_localizationTask.wav,6.5,"(1047, 878)","(87, -202)",95,-338,,,,,,,,,,,,,4,1,29,4,,,,,,,,,,,,,,,,,,,,,,,,,,,,,,,,,,,,,,,,1303.857759917002,None,,,1306.8577650000007,None,1.547089947089947,0.44776070800071466,1306.8577650000007,None,,,,,,,1304.8583910840025,None,1305.0247879590024,1305.0411618340004,,,,,,,95,001,2023_May_10_1257,SpeechDraft1Carolyn_lessNoise_PlusLocalization,2021.2.3,60.16996510858146,
,,,,,,,,farLeft,-19.1,5,ch1Sound_localizationTask.wav,-19.1,"(667, 878)","(-293,-202)",-285,-338,,,,,,,,,,,,,4,2,30,0,,,,,,,,,,,,,,,,,,,,,,,,,,,,,,,,,,,,,,,,1307.3250089590001,None,,,1310.324753500001,None,1.3042328042328042,0.8315167500004463,1310.324753500001,None,,,,,,,1308.3253277090007,None,1308.4914375420012,1308.5080130839997,,,,,,,95,001,2023_May_10_1257,SpeechDraft1Carolyn_lessNoise_PlusLocalization,2021.2.3,60.16996510858146,
,,,,,,,,nearLeft,-6.5,1,ch1Sound_localizationTask.wav,-6.5,"(857, 878)","(-103,-202)",-95,-338,,,,,,,,,,,,,4,3,31,2,,,,,,,,,,,,,,,,,,,,,,,,,,,,,,,,,,,,,,,,1311.1747437920021,None,,,1314.1750724170015,None,1.4291005291005292,0.5515160409995588,1314.1750724170015,None,,,,,,,1312.1755293749993,None,1312.3418158340028,1312.3585700840013,,,,,,,95,001,2023_May_10_1257,SpeechDraft1Carolyn_lessNoise_PlusLocalization,2021.2.3,60.16996510858146,
,,,,,,,,center,0.0,6,ch1Sound_localizationTask.wav,0.0,"(952, 878)","(-8,-202)",0,-338,,,,,,,,,,,,,4,4,32,3,,,,,,,,,,,,,,,,,,,,,,,,,,,,,,,,,,,,,,,,1314.7408315419998,None,,,1317.7412766250018,None,1.492063492063492,0.5131578750006156,1317.7412766250018,None,,,,,,,1315.7420120839997,None,1315.924829959,1315.9420436250002,,,,,,,95,001,2023_May_10_1257,SpeechDraft1Carolyn_lessNoise_PlusLocalization,2021.2.3,60.16996510858146,
,,,,,,,,midRight,13.0,3,ch1Sound_localizationTask.wav,13.0,"(1142, 878)","(182, -202)",190,-338,,,,,,,,,,,,,4,5,33,5,,,,,,,,,,,,,,,,,,,,,,,,,,,,,,,,,,,,,,,,1318.2744798750027,None,,,1321.2745332090017,None,1.5931216931216932,0.24698141699991538,1321.2745332090017,None,,,,,,,1319.2750573750018,None,1319.4417127090019,1319.457698667,,,,,,,95,001,2023_May_10_1257,SpeechDraft1Carolyn_lessNoise_PlusLocalization,2021.2.3,60.16996510858146,
,,,,,,,,midLeft,-13.0,2,ch1Sound_localizationTask.wav,-13.0,"(762, 878)","(-198,-202)",-190,-338,,,,,,,,,,,,,4,6,34,1,,,,,,,,,,,,,,,,,,,,,,,,,,,,,,,,,,,,,,,,1321.541527417001,None,,,1324.5415171250024,None,1.319047619047619,0.28120333299739286,1324.5415171250024,None,,,,,,,1322.5412330840009,None,1322.7248021250016,1322.7411946249995,,,,,,,95,001,2023_May_10_1257,SpeechDraft1Carolyn_lessNoise_PlusLocalization,2021.2.3,60.16996510858146,
,,,,,,,,center,0.0,6,ch1Sound_localizationTask.wav,0.0,"(952, 878)","(-8,-202)",0,-338,,,,,,,,,,,,,5,0,35,3,,,,,,,,,,,,,,,,,,,,,,,,,,,,,,,,,,,,,,,,1324.8404719169994,None,,,1327.8413290000026,None,1.4650793650793652,0.2492684589997225,1327.8413290000026,None,,,,,,,1325.8414839590005,None,1326.008211542001,1326.0248535419996,,,,,,,95,001,2023_May_10_1257,SpeechDraft1Carolyn_lessNoise_PlusLocalization,2021.2.3,60.16996510858146,
,,,,,,,,midRight,13.0,3,ch1Sound_localizationTask.wav,13.0,"(1142, 878)","(182, -202)",190,-338,,,,,,,,,,,,,5,1,36,5,,,,,,,,,,,,,,,,,,,,,,,,,,,,,,,,,,,,,,,,1328.108484417,None,,,1331.1078270420003,None,1.6005291005291005,0.7150385409986484,1331.1078270420003,None,,,,,,,1329.1084371670004,None,1329.2917218340008,1329.3078659170023,,,,,,,95,001,2023_May_10_1257,SpeechDraft1Carolyn_lessNoise_PlusLocalization,2021.2.3,60.16996510858146,
,,,,,,,,nearRight,6.5,0,ch1Sound_localizationTask.wav,6.5,"(1047, 878)","(87, -202)",95,-338,,,,,,,,,,,,,5,2,37,4,,,,,,,,,,,,,,,,,,,,,,,,,,,,,,,,,,,,,,,,1331.8412856249997,None,,,1334.8411930840011,None,1.552910052910053,0.583831708998332,1334.8411930840011,None,,,,,,,1332.8418381250012,None,1333.0254249169993,1333.0411584169997,,,,,,,95,001,2023_May_10_1257,SpeechDraft1Carolyn_lessNoise_PlusLocalization,2021.2.3,60.16996510858146,
,,,,,,,,nearRight,6.5,0,ch1Sound_localizationTask.wav,6.5,"(1047, 878)","(87, -202)",95,-338,,,,,,,,,,,,,5,3,38,4,,,,,,,,,,,,,,,,,,,,,,,,,,,,,,,,,,,,,,,,1335.441702917,None,,,1338.441250750002,None,1.5343915343915344,0.2674076250004873,1338.441250750002,None,,,,,,,1336.4412811250004,None,1336.6084630840014,1336.6254100840015,,,,,,,95,001,2023_May_10_1257,SpeechDraft1Carolyn_lessNoise_PlusLocalization,2021.2.3,60.16996510858146,
,,,,,,,,nearRight,6.5,0,ch1Sound_localizationTask.wav,6.5,"(1047, 878)","(87, -202)",95,-338,,,,,,,,,,,,,5,4,39,4,,,,,,,,,,,,,,,,,,,,,,,,,,,,,,,,,,,,,,,,1338.7245867090023,None,,,1341.7254329589996,None,1.5338624338624338,0.5657346250009141,1341.7254329589996,None,,,,,,,1339.7252226670025,None,1339.9089007090006,1339.9251263750011,,,,,,,95,001,2023_May_10_1257,SpeechDraft1Carolyn_lessNoise_PlusLocalization,2021.2.3,60.16996510858146,
,,,,,,,,midLeft,-13.0,2,ch1Sound_localizationTask.wav,-13.0,"(762, 878)","(-198,-202)",-190,-338,,,,,,,,,,,,,5,5,40,1,,,,,,,,,,,,,,,,,,,,,,,,,,,,,,,,,,,,,,,,1342.3074409170003,None,,,1345.308538125002,None,1.3846560846560847,1.14950804199907,1345.308538125002,None,,,,,,,1343.3084924590003,None,1343.4919200000004,1343.508525917001,,,,,,,95,001,2023_May_10_1257,SpeechDraft1Carolyn_lessNoise_PlusLocalization,2021.2.3,60.16996510858146,
,,,,,,,,center,0.0,6,ch1Sound_localizationTask.wav,0.0,"(952, 878)","(-8,-202)",0,-338,,,,,,,,,,,,,5,6,41,3,,,,,,,,,,,,,,,,,,,,,,,,,,,,,,,,,,,,,,,,1346.4744132500018,None,,,1349.4748929170019,None,1.4883597883597883,1.5642335420016025,1349.4748929170019,None,,,,,,,1347.4751842920014,None,1347.6583879589998,1347.6750313340017,,,,,,,95,001,2023_May_10_1257,SpeechDraft1Carolyn_lessNoise_PlusLocalization,2021.2.3,60.16996510858146,
,,,,,,,,farRight,19.1,4,ch1Sound_localizationTask.wav,19.1,"(1237, 878)","(277,-202)",285,-338,,,,,,,,,,,,,6,0,42,6,,,,,,,,,,,,,,,,,,,,,,,,,,,,,,,,,,,,,,,,1351.0576656670019,None,,,1354.058165792001,None,1.6603174603174602,1.1661010000025271,1354.058165792001,None,,,,,,,1352.058226000001,None,1352.2415594170016,1352.2583749170008,,,,,,,95,001,2023_May_10_1257,SpeechDraft1Carolyn_lessNoise_PlusLocalization,2021.2.3,60.16996510858146,
,,,,,,,,nearRight,6.5,0,ch1Sound_localizationTask.wav,6.5,"(1047, 878)","(87, -202)",95,-338,,,,,,,,,,,,,6,1,43,4,,,,,,,,,,,,,,,,,,,,,,,,,,,,,,,,,,,,,,,,1355.2411096670003,None,,,1358.2414998340028,None,1.5597883597883597,0.8141532090012333,1358.2414998340028,None,,,,,,,1356.242208959,None,1356.4249517919998,1356.4414732500009,,,,,,,95,001,2023_May_10_1257,SpeechDraft1Carolyn_lessNoise_PlusLocalization,2021.2.3,60.16996510858146,
,,,,,,,,midRight,13.0,3,ch1Sound_localizationTask.wav,13.0,"(1142, 878)","(182, -202)",190,-338,,,,,,,,,,,,,6,2,44,5,,,,,,,,,,,,,,,,,,,,,,,,,,,,,,,,,,,,,,,,1359.0745402089997,None,,,1362.0750385419997,None,1.5656084656084657,0.4824923329979356,1362.0750385419997,None,,,,,,,1360.0747999590021,None,1360.2580754170012,1360.2750955420015,,,,,,,95,001,2023_May_10_1257,SpeechDraft1Carolyn_lessNoise_PlusLocalization,2021.2.3,60.16996510858146,
,,,,,,,,midRight,13.0,3,ch1Sound_localizationTask.wav,13.0,"(1142, 878)","(182, -202)",190,-338,,,,,,,,,,,,,6,3,45,5,,,,,,,,,,,,,,,,,,,,,,,,,,,,,,,,,,,,,,,,1362.5748687920022,None,,,1365.5754053750024,None,1.5671957671957673,0.5154526669975894,1365.5754053750024,None,,,,,,,1363.575320709002,None,1363.7583828749994,1363.775063125002,,,,,,,95,001,2023_May_10_1257,SpeechDraft1Carolyn_lessNoise_PlusLocalization,2021.2.3,60.16996510858146,
,,,,,,,,midLeft,-13.0,2,ch1Sound_localizationTask.wav,-13.0,"(762, 878)","(-198,-202)",-190,-338,,,,,,,,,,,,,6,4,46,1,,,,,,,,,,,,,,,,,,,,,,,,,,,,,,,,,,,,,,,,1366.1082082920002,None,,,1369.1085040840007,None,1.3507936507936509,0.9484709579992341,1369.1085040840007,None,,,,,,,1367.1080674590012,None,1367.291637000002,1367.3082715000019,,,,,,,95,001,2023_May_10_1257,SpeechDraft1Carolyn_lessNoise_PlusLocalization,2021.2.3,60.16996510858146,
,,,,,,,,farRight,19.1,4,ch1Sound_localizationTask.wav,19.1,"(1237, 878)","(277,-202)",285,-338,,,,,,,,,,,,,6,5,47,6,,,,,,,,,,,,,,,,,,,,,,,,,,,,,,,,,,,,,,,,1370.074673334002,None,,,1373.0753652090025,None,1.6841269841269841,1.1496423750031681,1373.0753652090025,None,,,,,,,1371.0752715840026,None,1371.2584932499994,1371.2753467500006,,,,,,,95,001,2023_May_10_1257,SpeechDraft1Carolyn_lessNoise_PlusLocalization,2021.2.3,60.16996510858146,
,,,,,,,,midLeft,-13.0,2,ch1Sound_localizationTask.wav,-13.0,"(762, 878)","(-198,-202)",-190,-338,,,,,,,,,,,,,6,6,48,1,,,,,,,,,,,,,,,,,,,,,,,,,,,,,,,,,,,,,,,,1374.2412172920012,None,,,1377.2423770420028,None,1.3333333333333333,0.6649331250009709,1377.2423770420028,None,,,,,,,1375.2415978749996,None,1375.4249243340018,1375.4414269590015,,,,,,,95,001,2023_May_10_1257,SpeechDraft1Carolyn_lessNoise_PlusLocalization,2021.2.3,60.16996510858146,
,,,,,,,,farLeft,-19.1,5,ch1Sound_localizationTask.wav,-19.1,"(667, 878)","(-293,-202)",-285,-338,,,,,,,,,,,,,7,0,49,0,,,,,,,,,,,,,,,,,,,,,,,,,,,,,,,,,,,,,,,,1377.9247831249995,None,,,1380.9248604589993,None,1.3391534391534392,1.3499182920022577,1380.9248604589993,None,,,,,,,1378.9253433340018,None,1379.1087364170016,1379.1254429170003,,,,,,,95,001,2023_May_10_1257,SpeechDraft1Carolyn_lessNoise_PlusLocalization,2021.2.3,60.16996510858146,
,,,,,,,,farLeft,-19.1,5,ch1Sound_localizationTask.wav,-19.1,"(667, 878)","(-293,-202)",-285,-338,,,,,,,,,,,,,7,1,50,0,,,,,,,,,,,,,,,,,,,,,,,,,,,,,,,,,,,,,,,,1382.291359625,None,,,1385.2918334170026,None,1.3402116402116402,0.4813522500007821,1385.2918334170026,None,,,,,,,1383.291176584,None,1383.4579083749995,1383.4758185419996,,,,,,,95,001,2023_May_10_1257,SpeechDraft1Carolyn_lessNoise_PlusLocalization,2021.2.3,60.16996510858146,
,,,,,,,,farRight,19.1,4,ch1Sound_localizationTask.wav,19.1,"(1237, 878)","(277,-202)",285,-338,,,,,,,,,,,,,7,2,51,6,,,,,,,,,,,,,,,,,,,,,,,,,,,,,,,,,,,,,,,,1385.7911863340014,None,,,1388.7918042500023,None,1.7132275132275132,1.6836564999975963,1388.7918042500023,None,,,,,,,1386.7913756250018,None,1386.9748148750004,1386.9921077090003,,,,,,,95,001,2023_May_10_1257,SpeechDraft1Carolyn_lessNoise_PlusLocalization,2021.2.3,60.16996510858146,
,,,,,,,,farLeft,-19.1,5,ch1Sound_localizationTask.wav,-19.1,"(667, 878)","(-293,-202)",-285,-338,,,,,,,,,,,,,7,3,52,0,,,,,,,,,,,,,,,,,,,,,,,,,,,,,,,,,,,,,,,,1390.4914291250025,None,,,1393.491543,None,1.295767195767196,1.3829961250012275,1393.491543,None,,,,,,,1391.4916570839996,None,1391.6753448340023,1391.692193750001,,,,,,,95,001,2023_May_10_1257,SpeechDraft1Carolyn_lessNoise_PlusLocalization,2021.2.3,60.16996510858146,
,,,,,,,,nearRight,6.5,0,ch1Sound_localizationTask.wav,6.5,"(1047, 878)","(87, -202)",95,-338,,,,,,,,,,,,,7,4,53,4,,,,,,,,,,,,,,,,,,,,,,,,,,,,,,,,,,,,,,,,1394.8917337090024,None,,,1397.8917314589999,None,1.3074074074074074,1.5311571250022098,1397.8917314589999,None,,,,,,,1395.892307500002,None,1396.0753990000012,1396.0915908749994,,,,,,,95,001,2023_May_10_1257,SpeechDraft1Carolyn_lessNoise_PlusLocalization,2021.2.3,60.16996510858146,
,,,,,,,,nearLeft,-6.5,1,ch1Sound_localizationTask.wav,-6.5,"(857, 878)","(-103,-202)",-95,-338,,,,,,,,,,,,,7,5,54,2,,,,,,,,,,,,,,,,,,,,,,,,,,,,,,,,,,,,,,,,1399.4415711670008,None,,,1402.4416525000015,None,1.4232804232804233,0.8166453749981883,1402.4416525000015,None,,,,,,,1400.4418529590002,None,1400.6258020839996,1400.6422520000015,,,,,,,95,001,2023_May_10_1257,SpeechDraft1Carolyn_lessNoise_PlusLocalization,2021.2.3,60.16996510858146,
,,,,,,,,center,0.0,6,ch1Sound_localizationTask.wav,0.0,"(952, 878)","(-8,-202)",0,-338,,,,,,,,,,,,,7,6,55,3,,,,,,,,,,,,,,,,,,,,,,,,,,,,,,,,,,,,,,,,1403.275201417,None,,,1406.2749388340017,None,1.452910052910053,0.4501340830029221,1406.2749388340017,None,,,,,,,1404.274943542001,None,1404.4423370000004,1404.4586764170017,,,,,,,95,001,2023_May_10_1257,SpeechDraft1Carolyn_lessNoise_PlusLocalization,2021.2.3,60.16996510858146,
,,,,,,,,,,,,,,,,,,,,,,,,,,,,,,,,,,,,,,,,,,,,,,,,,,,,,,,,,,,,,,,,,,,,,,,,,,,,,,,,,,,,,,,,,,,,1406.7413338750011,None,c,241.13041699899986,1407.7251509170019,None,95,001,2023_May_10_1257,SpeechDraft1Carolyn_lessNoise_PlusLocalization,2021.2.3,60.16996510858146,
