Audio_Only_Files,Video_Files,Original_Word_List,noiseLevelCode,conditionCodes,noiseLevelFile1,noiseLevelFile2,InstrTextVar,targetSpeakerName,targetSpeakerEccen,targetSpkrChannel,targetSpkrSound,targetVisualDegrees,visStimLoc,visStimLoc2,visStimW,visStimH,practiceTrials.thisRepN,practiceTrials.thisTrialN,practiceTrials.thisN,practiceTrials.thisIndex,trials.thisRepN,trials.thisTrialN,trials.thisN,trials.thisIndex,audLocalLoop.thisRepN,audLocalLoop.thisTrialN,audLocalLoop.thisN,audLocalLoop.thisIndex,visualLocalLoop.thisRepN,visualLocalLoop.thisTrialN,visualLocalLoop.thisN,visualLocalLoop.thisIndex,letsGoAlready.keys,letsGoAlready.rt,letsGoAlready.started,letsGoAlready.stopped,text_2.started,text_2.stopped,text_3.started,text_3.stopped,key_resp_2.keys,key_resp_2.rt,key_resp_2.started,key_resp_2.stopped,text_5.started,text_5.stopped,fixCross.started,fixCross.stopped,fixCross2.started,fixCross2.stopped,answerPrompt.started,answerPrompt.stopped,getAnswer.text,getAnswer.started,getAnswer.stopped,goToNext.keys,goToNext.rt,goToNext.started,goToNext.stopped,stretchBreakTxrt.started,stretchBreakTxrt.stopped,key_resp_3.keys,key_resp_3.rt,key_resp_3.started,key_resp_3.stopped,letsGoLocal.keys,letsGoLocal.rt,letsGoLocal.started,letsGoLocal.stopped,text_4.started,text_4.stopped,prepFixTxt.started,prepFixTxt.stopped,prepFixTxt_2.started,prepFixTxt_2.stopped,respPromptLocal.started,respPromptLocal.stopped,slider.response,slider.rt,slider.started,slider.stopped,letsGoLocal_2.keys,letsGoLocal_2.rt,letsGoLocal_2.started,letsGoLocal_2.stopped,text_7.started,text_7.stopped,prepFixTxt_3.started,prepFixTxt_3.stopped,grating.started,grating.stopped,exitTxt.started,exitTxt.stopped,key_resp.keys,key_resp.rt,key_resp.started,key_resp.stopped,participant,session,date,expName,psychopyVersion,frameRate,
,,,,,,,,,,,,,,,,,,,,,,,,,,,,,,,,,space,15.790255624997371,29.37121862499771,None,,,,,,,,,,,,,,,,,,,,,,,,,,,,,,,,,,,,,,,,,,,,,,,,,,,,,,,,,,,,,,96,001,2023_May_11_1122,SpeechDraft1Carolyn_lessNoise_PlusLocalization,2021.2.3,59.8180187509256,
,,,,,,,,,,,,,,,,,,,,,,,,,,,,,,,,,,,,,29.37121862499771,None,45.442576708999695,None,space,8.211651206998795,45.62189787499665,None,,,,,,,,,,,,,,,,,,,,,,,,,,,,,,,,,,,,,,,,,,,,,,,,,,,,,,96,001,2023_May_11_1122,SpeechDraft1Carolyn_lessNoise_PlusLocalization,2021.2.3,59.8180187509256,
ash.wav,ash.mpg,ash,1,A,Pink_Noise_1_1.wav,Pink_Noise_1_2.wav,"This is an example of an

AUDIO trial",,,,,,,,,,0,0,0,0,,,,,,,,,,,,,,,,,,,,,,,,,53.87808129199402,None,54.87130270899797,None,57.8918943749959,None,59.28858095899341,None,ash,59.28858095899341,None,return,2.710034750001796,59.37159016700025,None,,,,,,,,,,,,,,,,,,,,,,,,,,,,,,,,,,,,,,,96,001,2023_May_11_1122,SpeechDraft1Carolyn_lessNoise_PlusLocalization,2021.2.3,59.8180187509256,
ash.wav,ash.mpg,ash,1,AV,Pink_Noise_1_1.wav,Pink_Noise_1_2.wav,"This is an example of an

AUDIO + VIDEO  trial",,,,,,,,,,0,1,1,1,,,,,,,,,,,,,,,,,,,,,,,,,62.104166041994176,None,63.10513791699486,None,64.61336537500028,None,66.00424654199742,None,ash,66.00424654199742,None,return,2.474172665999504,66.08748216700042,None,,,,,,,,,,,,,,,,,,,,,,,,,,,,,,,,,,,,,,,96,001,2023_May_11_1122,SpeechDraft1Carolyn_lessNoise_PlusLocalization,2021.2.3,59.8180187509256,
,,,,,,,,,,,,,,,,,,,,,,,,,,,,,,,,,,,,,,,,,,,,,,,,,,,,,,,,,,,,68.59005362499738,None,space,13.748672041001555,68.78902183399623,None,,,,,,,,,,,,,,,,,,,,,,,,,,,,,,,,,96,001,2023_May_11_1122,SpeechDraft1Carolyn_lessNoise_PlusLocalization,2021.2.3,59.8180187509256,
flog.wav,flog.mpg,flog,5,AV,Pink_Noise_5_1.wav,Pink_Noise_5_2.wav,,,,,,,,,,,,,,,0,0,0,99,,,,,,,,,,,,,,,,,,,,,,,82.56773549999343,None,84.08047154199448,None,85.4710904589956,None,fog,85.4710904589956,None,return,6.143208250003227,85.5546133339958,None,,,,,,,,,,,,,,,,,,,,,,,,,,,,,,,,,,,,,,,96,001,2023_May_11_1122,SpeechDraft1Carolyn_lessNoise_PlusLocalization,2021.2.3,59.8180187509256,
birch.wav,birch.mpg,birch,3,A,Pink_Noise_3_1.wav,Pink_Noise_3_2.wav,,,,,,,,,,,,,,,0,1,1,4,,,,,,,,,,,,,,,,,,,,,,,91.72102983399964,None,93.2308369589955,None,94.62139299999399,None,birch,94.62139299999399,None,return,8.129278873995645,94.70455362499342,None,,,,,,,,,,,,,,,,,,,,,,,,,,,,,,,,,,,,,,,96,001,2023_May_11_1122,SpeechDraft1Carolyn_lessNoise_PlusLocalization,2021.2.3,59.8180187509256,
bad.wav,bad.mpg,bad,6,A,Pink_Noise_6_1.wav,Pink_Noise_6_2.wav,,,,,,,,,,,,,,,0,2,2,7,,,,,,,,,,,,,,,,,,,,,,,102.85480629199446,None,104.36521337500017,None,105.75464279199514,None,log,105.75464279199514,None,return,4.203275790998305,105.83860883399757,None,,,,,,,,,,,,,,,,,,,,,,,,,,,,,,,,,,,,,,,96,001,2023_May_11_1122,SpeechDraft1Carolyn_lessNoise_PlusLocalization,2021.2.3,59.8180187509256,
warmth.wav,warmth.mpg,warmth,6,AV,Pink_Noise_6_1.wav,Pink_Noise_6_2.wav,,,,,,,,,,,,,,,0,3,3,75,,,,,,,,,,,,,,,,,,,,,,,110.07141158399463,None,111.58330154199939,None,112.97140783399664,None,"war,th",112.97140783399664,None,return,3.1144515830019373,113.05545687499398,None,,,,,,,,,,,,,,,,,,,,,,,,,,,,,,,,,,,,,,,96,001,2023_May_11_1122,SpeechDraft1Carolyn_lessNoise_PlusLocalization,2021.2.3,59.8180187509256,
flirt.wav,flirt.mpg,flirt,5,AV,Pink_Noise_5_1.wav,Pink_Noise_5_2.wav,,,,,,,,,,,,,,,0,4,4,104,,,,,,,,,,,,,,,,,,,,,,,116.18862116699893,None,117.69902299999376,None,119.08797849999974,None,filter,119.08797849999974,None,return,4.286970540997572,119.17101854199427,None,,,,,,,,,,,,,,,,,,,,,,,,,,,,,,,,,,,,,,,96,001,2023_May_11_1122,SpeechDraft1Carolyn_lessNoise_PlusLocalization,2021.2.3,59.8180187509256,
gym.wav,gym.mpg,gym,6,A,Pink_Noise_6_1.wav,Pink_Noise_6_2.wav,,,,,,,,,,,,,,,0,5,5,9,,,,,,,,,,,,,,,,,,,,,,,123.4887866249992,None,125.00078708399815,None,126.40499958399596,None,jug\,126.40499958399596,None,return,7.345545750002202,126.488487083996,None,,,,,,,,,,,,,,,,,,,,,,,,,,,,,,,,,,,,,,,96,001,2023_May_11_1122,SpeechDraft1Carolyn_lessNoise_PlusLocalization,2021.2.3,59.8180187509256,
dusk.wav,dusk.mpg,dusk,5,A,Pink_Noise_5_1.wav,Pink_Noise_5_2.wav,,,,,,,,,,,,,,,0,6,6,42,,,,,,,,,,,,,,,,,,,,,,,133.85445691699715,None,135.37037441699795,None,136.77118937499472,None,nuts,136.77118937499472,None,return,4.898681958002271,136.85538179199648,None,,,,,,,,,,,,,,,,,,,,,,,,,,,,,,,,,,,,,,,96,001,2023_May_11_1122,SpeechDraft1Carolyn_lessNoise_PlusLocalization,2021.2.3,59.8180187509256,
priest.wav,priest.mpg,priest,4,A,Pink_Noise_4_1.wav,Pink_Noise_4_2.wav,,,,,,,,,,,,,,,0,7,7,50,,,,,,,,,,,,,,,,,,,,,,,141.7721265,None,143.28841045899753,None,144.68777391699405,None,fist,144.68777391699405,None,return,2.3743195830029435,144.77183083399723,None,,,,,,,,,,,,,,,,,,,,,,,,,,,,,,,,,,,,,,,96,001,2023_May_11_1122,SpeechDraft1Carolyn_lessNoise_PlusLocalization,2021.2.3,59.8180187509256,
fly.wav,fly.mpg,fly,1,AV,Pink_Noise_1_1.wav,Pink_Noise_1_2.wav,,,,,,,,,,,,,,,0,8,8,88,,,,,,,,,,,,,,,,,,,,,,,147.1714810419944,None,148.6855985000002,None,150.088642333998,None,fly,150.088642333998,None,return,2.0150322080007754,150.17115699999704,None,,,,,,,,,,,,,,,,,,,,,,,,,,,,,,,,,,,,,,,96,001,2023_May_11_1122,SpeechDraft1Carolyn_lessNoise_PlusLocalization,2021.2.3,59.8180187509256,
broil.wav,broil.mpg,broil,3,A,Pink_Noise_3_1.wav,Pink_Noise_3_2.wav,,,,,,,,,,,,,,,0,9,9,58,,,,,,,,,,,,,,,,,,,,,,,152.20521312499477,None,153.7206500839966,None,155.12134020899975,None,royal,155.12134020899975,None,return,2.6056582079982036,155.20451237499947,None,,,,,,,,,,,,,,,,,,,,,,,,,,,,,,,,,,,,,,,96,001,2023_May_11_1122,SpeechDraft1Carolyn_lessNoise_PlusLocalization,2021.2.3,59.8180187509256,
damn.wav,damn.mpg,damn,5,AV,Pink_Noise_5_1.wav,Pink_Noise_5_2.wav,,,,,,,,,,,,,,,0,10,10,73,,,,,,,,,,,,,,,,,,,,,,,157.83846929199353,None,159.35491341699526,None,160.755332541994,None,dam,160.755332541994,None,return,1.8760152910035686,160.82225395899877,None,,,,,,,,,,,,,,,,,,,,,,,,,,,,,,,,,,,,,,,96,001,2023_May_11_1122,SpeechDraft1Carolyn_lessNoise_PlusLocalization,2021.2.3,59.8180187509256,
bell.wav,bell.mpg,bell,5,AV,Pink_Noise_5_1.wav,Pink_Noise_5_2.wav,,,,,,,,,,,,,,,0,11,11,76,,,,,,,,,,,,,,,,,,,,,,,162.7215826669999,None,164.24144570899807,None,165.6380240419967,None,mouth,165.6380240419967,None,return,8.664966832999198,165.72135833399807,None,,,,,,,,,,,,,,,,,,,,,,,,,,,,,,,,,,,,,,,96,001,2023_May_11_1122,SpeechDraft1Carolyn_lessNoise_PlusLocalization,2021.2.3,59.8180187509256,
clerk.wav,clerk.mpg,clerk,5,A,Pink_Noise_5_1.wav,Pink_Noise_5_2.wav,,,,,,,,,,,,,,,0,12,12,21,,,,,,,,,,,,,,,,,,,,,,,174.40556074999768,None,175.92228858399903,None,177.3215894169989,None,lick,177.3215894169989,None,return,3.8771736660055467,177.40521408399945,None,,,,,,,,,,,,,,,,,,,,,,,,,,,,,,,,,,,,,,,96,001,2023_May_11_1122,SpeechDraft1Carolyn_lessNoise_PlusLocalization,2021.2.3,59.8180187509256,
gaze.wav,gaze.mpg,gaze,3,A,Pink_Noise_3_1.wav,Pink_Noise_3_2.wav,,,,,,,,,,,,,,,0,13,13,17,,,,,,,,,,,,,,,,,,,,,,,181.30498141699354,None,182.82766833399364,None,184.22140204199968,None,gans,184.22140204199968,None,return,5.673859041002288,184.30456995900022,None,,,,,,,,,,,,,,,,,,,,,,,,,,,,,,,,,,,,,,,96,001,2023_May_11_1122,SpeechDraft1Carolyn_lessNoise_PlusLocalization,2021.2.3,59.8180187509256,
fox.wav,fox.mpg,fox,6,A,Pink_Noise_6_1.wav,Pink_Noise_6_2.wav,,,,,,,,,,,,,,,0,14,14,37,,,,,,,,,,,,,,,,,,,,,,,190.00483987500047,None,191.52782633400057,None,192.92188075000013,None,ice,192.92188075000013,None,return,1.6932244999989052,193.00526266700035,None,,,,,,,,,,,,,,,,,,,,,,,,,,,,,,,,,,,,,,,96,001,2023_May_11_1122,SpeechDraft1Carolyn_lessNoise_PlusLocalization,2021.2.3,59.8180187509256,
squat.wav,squat.mpg,squat,3,A,Pink_Noise_3_1.wav,Pink_Noise_3_2.wav,,,,,,,,,,,,,,,0,15,15,34,,,,,,,,,,,,,,,,,,,,,,,194.72140608399786,None,196.2428577499959,None,197.63889358400047,None,splash,197.63889358400047,None,return,3.3127522909999243,197.72178045899636,None,,,,,,,,,,,,,,,,,,,,,,,,,,,,,,,,,,,,,,,96,001,2023_May_11_1122,SpeechDraft1Carolyn_lessNoise_PlusLocalization,2021.2.3,59.8180187509256,
bill.wav,bill.mpg,bill,4,AV,Pink_Noise_4_1.wav,Pink_Noise_4_2.wav,,,,,,,,,,,,,,,0,16,16,119,,,,,,,,,,,,,,,,,,,,,,,201.0553879999934,None,202.57962220899935,None,203.97198566699808,None,bill,203.97198566699808,None,return,2.2751990410033613,204.0553393339942,None,,,,,,,,,,,,,,,,,,,,,,,,,,,,,,,,,,,,,,,96,001,2023_May_11_1122,SpeechDraft1Carolyn_lessNoise_PlusLocalization,2021.2.3,59.8180187509256,
foot.wav,foot.mpg,foot,3,AV,Pink_Noise_3_1.wav,Pink_Noise_3_2.wav,,,,,,,,,,,,,,,0,17,17,105,,,,,,,,,,,,,,,,,,,,,,,206.35509874999843,None,207.88098574999458,None,209.27152033399761,None,fooy,209.27152033399761,None,return,1.9675419160048477,209.3549669999993,None,,,,,,,,,,,,,,,,,,,,,,,,,,,,,,,,,,,,,,,96,001,2023_May_11_1122,SpeechDraft1Carolyn_lessNoise_PlusLocalization,2021.2.3,59.8180187509256,
duck.wav,duck.mpg,duck,3,A,Pink_Noise_3_1.wav,Pink_Noise_3_2.wav,,,,,,,,,,,,,,,0,18,18,27,,,,,,,,,,,,,,,,,,,,,,,211.33884558399586,None,212.86194862499542,None,214.25569545899634,None,duck,214.25569545899634,None,return,1.7920145000025514,214.33860429199558,None,,,,,,,,,,,,,,,,,,,,,,,,,,,,,,,,,,,,,,,96,001,2023_May_11_1122,SpeechDraft1Carolyn_lessNoise_PlusLocalization,2021.2.3,59.8180187509256,
grain.wav,grain.mpg,grain,3,A,Pink_Noise_3_1.wav,Pink_Noise_3_2.wav,,,,,,,,,,,,,,,0,19,19,36,,,,,,,,,,,,,,,,,,,,,,,216.15474716699828,None,217.68135958399944,None,219.0712819170003,None,crame,219.0712819170003,None,return,3.7037089579971507,219.1548593339976,None,,,,,,,,,,,,,,,,,,,,,,,,,,,,,,,,,,,,,,,96,001,2023_May_11_1122,SpeechDraft1Carolyn_lessNoise_PlusLocalization,2021.2.3,59.8180187509256,
gust.wav,gust.mpg,gust,3,A,Pink_Noise_3_1.wav,Pink_Noise_3_2.wav,,,,,,,,,,,,,,,0,20,20,8,,,,,,,,,,,,,,,,,,,,,,,222.88871724999626,None,224.41185291699367,None,225.8045798749954,None,gust,225.8045798749954,None,return,2.361821416001476,225.88883045900002,None,,,,,,,,,,,,,,,,,,,,,,,,,,,,,,,,,,,,,,,96,001,2023_May_11_1122,SpeechDraft1Carolyn_lessNoise_PlusLocalization,2021.2.3,59.8180187509256,
bay.wav,bay.mpg,bay,2,AV,Pink_Noise_2_1.wav,Pink_Noise_2_2.wav,,,,,,,,,,,,,,,0,21,21,91,,,,,,,,,,,,,,,,,,,,,,,228.27146166699822,None,229.80209662499692,None,231.20467899999494,None,bay,231.20467899999494,None,return,2.138814124002238,231.27183429199795,None,,,,,,,,,,,,,,,,,,,,,,,,,,,,,,,,,,,,,,,96,001,2023_May_11_1122,SpeechDraft1Carolyn_lessNoise_PlusLocalization,2021.2.3,59.8180187509256,
chill.wav,chill.mpg,chill,1,A,Pink_Noise_1_1.wav,Pink_Noise_1_2.wav,,,,,,,,,,,,,,,0,22,22,33,,,,,,,,,,,,,,,,,,,,,,,233.43824616699567,None,234.9660587499966,None,236.35532783399685,None,chill,236.35532783399685,None,return,2.380459457002871,236.43827341699944,None,,,,,,,,,,,,,,,,,,,,,,,,,,,,,,,,,,,,,,,96,001,2023_May_11_1122,SpeechDraft1Carolyn_lessNoise_PlusLocalization,2021.2.3,59.8180187509256,
paid.wav,paid.mpg,paid,5,A,Pink_Noise_5_1.wav,Pink_Noise_5_2.wav,,,,,,,,,,,,,,,0,23,23,45,,,,,,,,,,,,,,,,,,,,,,,238.83856949999608,None,240.36510641699715,None,241.75527933400008,None,"pain
",241.75527933400008,None,return,6.300370416000078,241.8383529999992,None,,,,,,,,,,,,,,,,,,,,,,,,,,,,,,,,,,,,,,,96,001,2023_May_11_1122,SpeechDraft1Carolyn_lessNoise_PlusLocalization,2021.2.3,59.8180187509256,
wheat.wav,wheat.mpg,wheat,3,AV,Pink_Noise_3_1.wav,Pink_Noise_3_2.wav,,,,,,,,,,,,,,,0,24,24,61,,,,,,,,,,,,,,,,,,,,,,,248.1713570419961,None,249.69896791700012,None,251.08848654199392,None,wait,251.08848654199392,None,return,4.04736529100046,251.17144991699752,None,,,,,,,,,,,,,,,,,,,,,,,,,,,,,,,,,,,,,,,96,001,2023_May_11_1122,SpeechDraft1Carolyn_lessNoise_PlusLocalization,2021.2.3,59.8180187509256,
wine.wav,wine.mpg,wine,2,AV,Pink_Noise_2_1.wav,Pink_Noise_2_2.wav,,,,,,,,,,,,,,,0,25,25,85,,,,,,,,,,,,,,,,,,,,,,,255.23904033399594,None,256.7669055419974,None,258.1550102919937,None,why,258.1550102919937,None,return,1.7642504989998997,258.23860045899346,None,,,,,,,,,,,,,,,,,,,,,,,,,,,,,,,,,,,,,,,96,001,2023_May_11_1122,SpeechDraft1Carolyn_lessNoise_PlusLocalization,2021.2.3,59.8180187509256,
deal.wav,deal.mpg,deal,4,AV,Pink_Noise_4_1.wav,Pink_Noise_4_2.wav,,,,,,,,,,,,,,,0,26,26,89,,,,,,,,,,,,,,,,,,,,,,,260.02246049999667,None,261.55498716699367,None,262.95515462500043,None,"tisk
",262.95515462500043,None,return,7.300586874000146,263.0382880420002,None,,,,,,,,,,,,,,,,,,,,,,,,,,,,,,,,,,,,,,,96,001,2023_May_11_1122,SpeechDraft1Carolyn_lessNoise_PlusLocalization,2021.2.3,59.8180187509256,
bloat.wav,bloat.mpg,bloat,1,A,Pink_Noise_1_1.wav,Pink_Noise_1_2.wav,,,,,,,,,,,,,,,0,27,27,28,,,,,,,,,,,,,,,,,,,,,,,270.3718400419966,None,271.9039206669986,None,273.305505833996,None,bloat,273.305505833996,None,return,7.2545018320015515,273.3884487920004,None,,,,,,,,,,,,,,,,,,,,,,,,,,,,,,,,,,,,,,,96,001,2023_May_11_1122,SpeechDraft1Carolyn_lessNoise_PlusLocalization,2021.2.3,59.8180187509256,
fraud.wav,fraud.mpg,fraud,6,A,Pink_Noise_6_1.wav,Pink_Noise_6_2.wav,,,,,,,,,,,,,,,0,28,28,22,,,,,,,,,,,,,,,,,,,,,,,280.67149479199725,None,282.20170599999983,None,283.6047161669994,None,what,283.6047161669994,None,return,2.8109769160000724,283.6880761669963,None,,,,,,,,,,,,,,,,,,,,,,,,,,,,,,,,,,,,,,,96,001,2023_May_11_1122,SpeechDraft1Carolyn_lessNoise_PlusLocalization,2021.2.3,59.8180187509256,
led.wav,led.mpg,led,5,A,Pink_Noise_5_1.wav,Pink_Noise_5_2.wav,,,,,,,,,,,,,,,0,29,29,16,,,,,,,,,,,,,,,,,,,,,,,286.52166687499994,None,288.0566377089999,None,289.45535545899475,None,flood,289.45535545899475,None,return,2.640735875000246,289.5383007919954,None,,,,,,,,,,,,,,,,,,,,,,,,,,,,,,,,,,,,,,,96,001,2023_May_11_1122,SpeechDraft1Carolyn_lessNoise_PlusLocalization,2021.2.3,59.8180187509256,
faith.wav,faith.mpg,faith,5,A,Pink_Noise_5_1.wav,Pink_Noise_5_2.wav,,,,,,,,,,,,,,,0,30,30,23,,,,,,,,,,,,,,,,,,,,,,,292.20547562499996,None,293.7396124589941,None,295.1383772499976,None,wait,295.1383772499976,None,return,3.293092040999909,295.22204354199494,None,,,,,,,,,,,,,,,,,,,,,,,,,,,,,,,,,,,,,,,96,001,2023_May_11_1122,SpeechDraft1Carolyn_lessNoise_PlusLocalization,2021.2.3,59.8180187509256,
gulf.wav,gulf.mpg,gulf,5,AV,Pink_Noise_5_1.wav,Pink_Noise_5_2.wav,,,,,,,,,,,,,,,0,31,31,93,,,,,,,,,,,,,,,,,,,,,,,298.53834591699706,None,300.07193249999546,None,301.47153637500014,None,lost,301.47153637500014,None,return,6.191957832001208,301.5552083339935,None,,,,,,,,,,,,,,,,,,,,,,,,,,,,,,,,,,,,,,,96,001,2023_May_11_1122,SpeechDraft1Carolyn_lessNoise_PlusLocalization,2021.2.3,59.8180187509256,
glide.wav,glide.mpg,glide,3,AV,Pink_Noise_3_1.wav,Pink_Noise_3_2.wav,,,,,,,,,,,,,,,0,32,32,90,,,,,,,,,,,,,,,,,,,,,,,307.77141712499724,None,309.309788958999,None,310.70556608399784,None,glide,310.70556608399784,None,return,2.2546794160007266,310.7885012919942,None,,,,,,,,,,,,,,,,,,,,,,,,,,,,,,,,,,,,,,,96,001,2023_May_11_1122,SpeechDraft1Carolyn_lessNoise_PlusLocalization,2021.2.3,59.8180187509256,
gate.wav,gate.mpg,gate,4,A,Pink_Noise_4_1.wav,Pink_Noise_4_2.wav,,,,,,,,,,,,,,,0,33,33,11,,,,,,,,,,,,,,,,,,,,,,,313.0717856249976,None,314.6115751249963,None,316.0052942919938,None,gift,316.0052942919938,None,return,1.5864449159998912,316.0887235839982,None,,,,,,,,,,,,,,,,,,,,,,,,,,,,,,,,,,,,,,,96,001,2023_May_11_1122,SpeechDraft1Carolyn_lessNoise_PlusLocalization,2021.2.3,59.8180187509256,
dot.wav,dot.mpg,dot,4,A,Pink_Noise_4_1.wav,Pink_Noise_4_2.wav,,,,,,,,,,,,,,,0,34,34,44,,,,,,,,,,,,,,,,,,,,,,,317.70562504199916,None,319.24409729199397,None,320.63869087499916,None,dot,320.63869087499916,None,return,1.209560415998567,320.72167012499995,None,,,,,,,,,,,,,,,,,,,,,,,,,,,,,,,,,,,,,,,96,001,2023_May_11_1122,SpeechDraft1Carolyn_lessNoise_PlusLocalization,2021.2.3,59.8180187509256,
pledge.wav,pledge.mpg,pledge,2,AV,Pink_Noise_2_1.wav,Pink_Noise_2_2.wav,,,,,,,,,,,,,,,0,35,35,69,,,,,,,,,,,,,,,,,,,,,,,321.9551577499951,None,323.4883296249973,None,324.8888954169961,None,pledge,324.8888954169961,None,return,1.4627392499969574,324.97253466699476,None,,,,,,,,,,,,,,,,,,,,,,,,,,,,,,,,,,,,,,,96,001,2023_May_11_1122,SpeechDraft1Carolyn_lessNoise_PlusLocalization,2021.2.3,59.8180187509256,
foul.wav,foul.mpg,foul,6,AV,Pink_Noise_6_1.wav,Pink_Noise_6_2.wav,,,,,,,,,,,,,,,0,36,36,64,,,,,,,,,,,,,,,,,,,,,,,326.45533041699673,None,327.99183933399763,None,329.3892794589992,None,fire,329.3892794589992,None,return,1.9711849570012419,329.47207912500016,None,,,,,,,,,,,,,,,,,,,,,,,,,,,,,,,,,,,,,,,96,001,2023_May_11_1122,SpeechDraft1Carolyn_lessNoise_PlusLocalization,2021.2.3,59.8180187509256,
eye.wav,eye.mpg,eye,4,AV,Pink_Noise_4_1.wav,Pink_Noise_4_2.wav,,,,,,,,,,,,,,,0,37,37,100,,,,,,,,,,,,,,,,,,,,,,,331.472061249995,None,333.01441595899814,None,334.405257583996,None,eye,334.405257583996,None,return,1.442761790996883,334.48858424999344,None,,,,,,,,,,,,,,,,,,,,,,,,,,,,,,,,,,,,,,,96,001,2023_May_11_1122,SpeechDraft1Carolyn_lessNoise_PlusLocalization,2021.2.3,59.8180187509256,
gang.wav,gang.mpg,gang,3,AV,Pink_Noise_3_1.wav,Pink_Noise_3_2.wav,,,,,,,,,,,,,,,0,38,38,68,,,,,,,,,,,,,,,,,,,,,,,335.95485895899765,None,337.4971752499987,None,338.88856254199345,None,gay,338.88856254199345,None,return,1.3435159159998875,338.97184141699836,None,,,,,,,,,,,,,,,,,,,,,,,,,,,,,,,,,,,,,,,96,001,2023_May_11_1122,SpeechDraft1Carolyn_lessNoise_PlusLocalization,2021.2.3,59.8180187509256,
none.wav,none.mpg,none,4,AV,Pink_Noise_4_1.wav,Pink_Noise_4_2.wav,,,,,,,,,,,,,,,0,39,39,110,,,,,,,,,,,,,,,,,,,,,,,340.3391549999942,None,341.8839831249934,None,343.271911333999,None,done,343.271911333999,None,return,1.5039083750016289,343.3554427499985,None,,,,,,,,,,,,,,,,,,,,,,,,,,,,,,,,,,,,,,,96,001,2023_May_11_1122,SpeechDraft1Carolyn_lessNoise_PlusLocalization,2021.2.3,59.8180187509256,
bald.wav,bald.mpg,bald,6,AV,Pink_Noise_6_1.wav,Pink_Noise_6_2.wav,,,,,,,,,,,,,,,0,40,40,114,,,,,,,,,,,,,,,,,,,,,,,344.88905929199973,None,346.43215841699566,None,347.8216683339997,None,bar,347.8216683339997,None,return,1.3698383320006542,347.9055905839996,None,,,,,,,,,,,,,,,,,,,,,,,,,,,,,,,,,,,,,,,96,001,2023_May_11_1122,SpeechDraft1Carolyn_lessNoise_PlusLocalization,2021.2.3,59.8180187509256,
chip.wav,chip.mpg,chip,1,A,Pink_Noise_1_1.wav,Pink_Noise_1_2.wav,,,,,,,,,,,,,,,0,41,41,51,,,,,,,,,,,,,,,,,,,,,,,349.3049672919951,None,350.8513634999981,None,352.2383425839944,None,chip,352.2383425839944,None,return,1.4415452070024912,352.32188520899945,None,,,,,,,,,,,,,,,,,,,,,,,,,,,,,,,,,,,,,,,96,001,2023_May_11_1122,SpeechDraft1Carolyn_lessNoise_PlusLocalization,2021.2.3,59.8180187509256,
gray.wav,gray.mpg,gray,6,AV,Pink_Noise_6_1.wav,Pink_Noise_6_2.wav,,,,,,,,,,,,,,,0,42,42,78,,,,,,,,,,,,,,,,,,,,,,,353.78866187499807,None,355.3325924169985,None,356.7221137919987,None,gray,356.7221137919987,None,return,1.7264812909998,356.8049804999973,None,,,,,,,,,,,,,,,,,,,,,,,,,,,,,,,,,,,,,,,96,001,2023_May_11_1122,SpeechDraft1Carolyn_lessNoise_PlusLocalization,2021.2.3,59.8180187509256,
drill.wav,drill.mpg,drill,3,A,Pink_Noise_3_1.wav,Pink_Noise_3_2.wav,,,,,,,,,,,,,,,0,43,43,24,,,,,,,,,,,,,,,,,,,,,,,358.55505699999776,None,360.10279604199604,None,361.5057879169981,None,drill,361.5057879169981,None,return,1.1187358329989365,361.58871912500035,None,,,,,,,,,,,,,,,,,,,,,,,,,,,,,,,,,,,,,,,96,001,2023_May_11_1122,SpeechDraft1Carolyn_lessNoise_PlusLocalization,2021.2.3,59.8180187509256,
bust.wav,bust.mpg,bust,4,A,Pink_Noise_4_1.wav,Pink_Noise_4_2.wav,,,,,,,,,,,,,,,0,44,44,30,,,,,,,,,,,,,,,,,,,,,,,362.73858908399416,None,364.28541245899396,None,365.68870562499797,None,bust,365.68870562499797,None,return,1.3597554989974014,365.7717517919955,None,,,,,,,,,,,,,,,,,,,,,,,,,,,,,,,,,,,,,,,96,001,2023_May_11_1122,SpeechDraft1Carolyn_lessNoise_PlusLocalization,2021.2.3,59.8180187509256,
ban.wav,ban.mpg,ban,6,A,Pink_Noise_6_1.wav,Pink_Noise_6_2.wav,,,,,,,,,,,,,,,0,45,45,12,,,,,,,,,,,,,,,,,,,,,,,367.15488516699406,None,368.70380429199577,None,370.1051286669972,None,what,370.1051286669972,None,return,1.5590198739955667,370.1885300419963,None,,,,,,,,,,,,,,,,,,,,,,,,,,,,,,,,,,,,,,,96,001,2023_May_11_1122,SpeechDraft1Carolyn_lessNoise_PlusLocalization,2021.2.3,59.8180187509256,
barn.wav,barn.mpg,barn,1,AV,Pink_Noise_1_1.wav,Pink_Noise_1_2.wav,,,,,,,,,,,,,,,0,46,46,92,,,,,,,,,,,,,,,,,,,,,,,371.77184683399537,None,373.31821520899393,None,374.72201066699927,None,barn,374.72201066699927,None,return,1.158554333000211,374.8050213749957,None,,,,,,,,,,,,,,,,,,,,,,,,,,,,,,,,,,,,,,,96,001,2023_May_11_1122,SpeechDraft1Carolyn_lessNoise_PlusLocalization,2021.2.3,59.8180187509256,
ham.wav,ham.mpg,ham,2,AV,Pink_Noise_2_1.wav,Pink_Noise_2_2.wav,,,,,,,,,,,,,,,0,47,47,81,,,,,,,,,,,,,,,,,,,,,,,375.98874950000027,None,377.53808337499504,None,378.9387895839973,None,ham,378.9387895839973,None,return,1.8055412499961676,379.0220173339985,None,,,,,,,,,,,,,,,,,,,,,,,,,,,,,,,,,,,,,,,96,001,2023_May_11_1122,SpeechDraft1Carolyn_lessNoise_PlusLocalization,2021.2.3,59.8180187509256,
fault.wav,fault.mpg,fault,4,AV,Pink_Noise_4_1.wav,Pink_Noise_4_2.wav,,,,,,,,,,,,,,,0,48,48,113,,,,,,,,,,,,,,,,,,,,,,,380.8557516669971,None,382.40145199999824,None,383.788654416996,None,forest,383.788654416996,None,return,9.515727124002296,383.87188374999823,None,,,,,,,,,,,,,,,,,,,,,,,,,,,,,,,,,,,,,,,96,001,2023_May_11_1122,SpeechDraft1Carolyn_lessNoise_PlusLocalization,2021.2.3,59.8180187509256,
clash.wav,clash.mpg,clash,5,A,Pink_Noise_5_1.wav,Pink_Noise_5_2.wav,,,,,,,,,,,,,,,0,49,49,46,,,,,,,,,,,,,,,,,,,,,,,393.4059435839954,None,394.9569993339974,None,396.3552144169953,None,flash,396.3552144169953,None,return,6.229490708006779,396.42225058399345,None,,,,,,,,,,,,,,,,,,,,,,,,,,,,,,,,,,,,,,,96,001,2023_May_11_1122,SpeechDraft1Carolyn_lessNoise_PlusLocalization,2021.2.3,59.8180187509256,
gash.wav,gash.mpg,gash,1,A,Pink_Noise_1_1.wav,Pink_Noise_1_2.wav,,,,,,,,,,,,,,,0,50,50,35,,,,,,,,,,,,,,,,,,,,,,,402.6725764589937,None,404.22669429199595,None,405.6220934169978,None,gash,405.6220934169978,None,return,1.1062634569971124,405.70547791699937,None,,,,,,,,,,,,,,,,,,,,,,,,,,,,,,,,,,,,,,,96,001,2023_May_11_1122,SpeechDraft1Carolyn_lessNoise_PlusLocalization,2021.2.3,59.8180187509256,
chat.wav,chat.mpg,chat,6,A,Pink_Noise_6_1.wav,Pink_Noise_6_2.wav,,,,,,,,,,,,,,,0,51,51,57,,,,,,,,,,,,,,,,,,,,,,,406.8384742089984,None,408.39204841699393,None,409.7890274169986,None,jack,409.7890274169986,None,return,2.9154670830030227,409.8722959589941,None,,,,,,,,,,,,,,,,,,,,,,,,,,,,,,,,,,,,,,,96,001,2023_May_11_1122,SpeechDraft1Carolyn_lessNoise_PlusLocalization,2021.2.3,59.8180187509256,
belt.wav,belt.mpg,belt,1,AV,Pink_Noise_1_1.wav,Pink_Noise_1_2.wav,,,,,,,,,,,,,,,0,52,52,72,,,,,,,,,,,,,,,,,,,,,,,412.80574404199433,None,414.35940854199725,None,415.7553398749951,None,belt,415.7553398749951,None,return,6.757152707999921,415.8386904999934,None,,,,,,,,,,,,,,,,,,,,,,,,,,,,,,,,,,,,,,,96,001,2023_May_11_1122,SpeechDraft1Carolyn_lessNoise_PlusLocalization,2021.2.3,59.8180187509256,
drug.wav,drug.mpg,drug,6,A,Pink_Noise_6_1.wav,Pink_Noise_6_2.wav,,,,,,,,,,,,,,,0,53,53,5,,,,,,,,,,,,,,,,,,,,,,,422.62201095899945,None,424.1745079999964,None,425.5729140419935,None,flood,425.5729140419935,None,return,1.8599543739983346,425.6559484169993,None,,,,,,,,,,,,,,,,,,,,,,,,,,,,,,,,,,,,,,,96,001,2023_May_11_1122,SpeechDraft1Carolyn_lessNoise_PlusLocalization,2021.2.3,59.8180187509256,
poll.wav,poll.mpg,poll,4,AV,Pink_Noise_4_1.wav,Pink_Noise_4_2.wav,,,,,,,,,,,,,,,0,54,54,82,,,,,,,,,,,,,,,,,,,,,,,427.5386980419935,None,429.0912175419944,None,430.4885704999979,None,pole,430.4885704999979,None,return,1.3998797079984797,430.57203145899985,None,,,,,,,,,,,,,,,,,,,,,,,,,,,,,,,,,,,,,,,96,001,2023_May_11_1122,SpeechDraft1Carolyn_lessNoise_PlusLocalization,2021.2.3,59.8180187509256,
cape.wav,cape.mpg,cape,1,AV,Pink_Noise_1_1.wav,Pink_Noise_1_2.wav,,,,,,,,,,,,,,,0,55,55,117,,,,,,,,,,,,,,,,,,,,,,,431.98973549999937,None,433.5453939999934,None,434.93869441699644,None,"cape
",434.93869441699644,None,return,1.133533873995475,435.0223625839935,None,,,,,,,,,,,,,,,,,,,,,,,,,,,,,,,,,,,,,,,96,001,2023_May_11_1122,SpeechDraft1Carolyn_lessNoise_PlusLocalization,2021.2.3,59.8180187509256,
cheat.wav,cheat.mpg,cheat,2,A,Pink_Noise_2_1.wav,Pink_Noise_2_2.wav,,,,,,,,,,,,,,,0,56,56,10,,,,,,,,,,,,,,,,,,,,,,,436.1887802919955,None,437.744279874998,None,439.138848124996,None,cheat\,439.138848124996,None,return,3.2458467910037143,439.2221337089941,None,,,,,,,,,,,,,,,,,,,,,,,,,,,,,,,,,,,,,,,96,001,2023_May_11_1122,SpeechDraft1Carolyn_lessNoise_PlusLocalization,2021.2.3,59.8180187509256,
cling.wav,cling.mpg,cling,1,A,Pink_Noise_1_1.wav,Pink_Noise_1_2.wav,,,,,,,,,,,,,,,0,57,57,54,,,,,,,,,,,,,,,,,,,,,,,442.4889938749984,None,444.04635124999913,None,445.4396180419935,None,ching,445.4396180419935,None,return,2.6257192070042947,445.5223120419978,None,,,,,,,,,,,,,,,,,,,,,,,,,,,,,,,,,,,,,,,96,001,2023_May_11_1122,SpeechDraft1Carolyn_lessNoise_PlusLocalization,2021.2.3,59.8180187509256,
coal.wav,coal.mpg,coal,1,AV,Pink_Noise_1_1.wav,Pink_Noise_1_2.wav,,,,,,,,,,,,,,,0,58,58,106,,,,,,,,,,,,,,,,,,,,,,,448.1718665419976,None,449.73069670899713,None,451.12194470899703,None,coal,451.12194470899703,None,return,1.6463004580000415,451.2057715839983,None,,,,,,,,,,,,,,,,,,,,,,,,,,,,,,,,,,,,,,,96,001,2023_May_11_1122,SpeechDraft1Carolyn_lessNoise_PlusLocalization,2021.2.3,59.8180187509256,
den.wav,den.mpg,den,2,A,Pink_Noise_2_1.wav,Pink_Noise_2_2.wav,,,,,,,,,,,,,,,0,59,59,55,,,,,,,,,,,,,,,,,,,,,,,452.87205137499404,None,454.4318086669955,None,455.82253662499716,None,dead,455.82253662499716,None,return,1.2985822490009014,455.9054732499935,None,,,,,,,,,,,,,,,,,,,,,,,,,,,,,,,,,,,,,,,96,001,2023_May_11_1122,SpeechDraft1Carolyn_lessNoise_PlusLocalization,2021.2.3,59.8180187509256,
fork.wav,fork.mpg,fork,2,A,Pink_Noise_2_1.wav,Pink_Noise_2_2.wav,,,,,,,,,,,,,,,0,60,60,3,,,,,,,,,,,,,,,,,,,,,,,457.2227240419961,None,458.7835240419954,None,460.17200541700004,None,fork,460.17200541700004,None,return,1.2606461660034256,460.25551687499683,None,,,,,,,,,,,,,,,,,,,,,,,,,,,,,,,,,,,,,,,96,001,2023_May_11_1122,SpeechDraft1Carolyn_lessNoise_PlusLocalization,2021.2.3,59.8180187509256,
broom.wav,broom.mpg,broom,2,AV,Pink_Noise_2_1.wav,Pink_Noise_2_2.wav,,,,,,,,,,,,,,,0,61,61,65,,,,,,,,,,,,,,,,,,,,,,,461.5388139589995,None,463.10040599999775,None,464.48887183399347,None,broom,464.48887183399347,None,return,1.2398342079977738,464.57227187499666,None,,,,,,,,,,,,,,,,,,,,,,,,,,,,,,,,,,,,,,,96,001,2023_May_11_1122,SpeechDraft1Carolyn_lessNoise_PlusLocalization,2021.2.3,59.8180187509256,
dish.wav,dish.mpg,dish,6,A,Pink_Noise_6_1.wav,Pink_Noise_6_2.wav,,,,,,,,,,,,,,,0,62,62,29,,,,,,,,,,,,,,,,,,,,,,,465.8387082919944,None,467.40085604199703,None,468.7887112499957,None,dish,468.7887112499957,None,return,1.6434546660020715,468.8727452919993,None,,,,,,,,,,,,,,,,,,,,,,,,,,,,,,,,,,,,,,,96,001,2023_May_11_1122,SpeechDraft1Carolyn_lessNoise_PlusLocalization,2021.2.3,59.8180187509256,
flu.wav,flu.mpg,flu,2,AV,Pink_Noise_2_1.wav,Pink_Noise_2_2.wav,,,,,,,,,,,,,,,0,63,63,67,,,,,,,,,,,,,,,,,,,,,,,470.5388009169983,None,472.1023731249952,None,473.5053452919965,None,flume,473.5053452919965,None,return,1.847374999000749,473.58880187499744,None,,,,,,,,,,,,,,,,,,,,,,,,,,,,,,,,,,,,,,,96,001,2023_May_11_1122,SpeechDraft1Carolyn_lessNoise_PlusLocalization,2021.2.3,59.8180187509256,
blank.wav,blank.mpg,blank,6,A,Pink_Noise_6_1.wav,Pink_Noise_6_2.wav,,,,,,,,,,,,,,,0,64,64,14,,,,,,,,,,,,,,,,,,,,,,,475.45620108399453,None,477.0211979589949,None,478.42322183399665,None,"kedge
",478.42322183399665,None,return,4.01866458299628,478.5055252089951,None,,,,,,,,,,,,,,,,,,,,,,,,,,,,,,,,,,,,,,,96,001,2023_May_11_1122,SpeechDraft1Carolyn_lessNoise_PlusLocalization,2021.2.3,59.8180187509256,
gloom.wav,gloom.mpg,gloom,6,A,Pink_Noise_6_1.wav,Pink_Noise_6_2.wav,,,,,,,,,,,,,,,0,65,65,47,,,,,,,,,,,,,,,,,,,,,,,482.55546254199726,None,484.119300499995,None,485.5223084589961,None,loose,485.5223084589961,None,return,1.2864009579934645,485.605800583995,None,,,,,,,,,,,,,,,,,,,,,,,,,,,,,,,,,,,,,,,96,001,2023_May_11_1122,SpeechDraft1Carolyn_lessNoise_PlusLocalization,2021.2.3,59.8180187509256,
wind.wav,wind.mpg,wind,4,A,Pink_Noise_4_1.wav,Pink_Noise_4_2.wav,,,,,,,,,,,,,,,0,66,66,19,,,,,,,,,,,,,,,,,,,,,,,486.9227970840002,None,488.4913708749955,None,489.8891238750002,None,bait,489.8891238750002,None,return,2.3517779989997507,489.97245191699767,None,,,,,,,,,,,,,,,,,,,,,,,,,,,,,,,,,,,,,,,96,001,2023_May_11_1122,SpeechDraft1Carolyn_lessNoise_PlusLocalization,2021.2.3,59.8180187509256,
clad.wav,clad.mpg,clad,5,A,Pink_Noise_5_1.wav,Pink_Noise_5_2.wav,,,,,,,,,,,,,,,0,67,67,31,,,,,,,,,,,,,,,,,,,,,,,492.35612525000033,None,493.92034570899705,None,495.3228670419994,None,what,495.3228670419994,None,return,3.6462174570042407,495.40614708399517,None,,,,,,,,,,,,,,,,,,,,,,,,,,,,,,,,,,,,,,,96,001,2023_May_11_1122,SpeechDraft1Carolyn_lessNoise_PlusLocalization,2021.2.3,59.8180187509256,
globe.wav,globe.mpg,globe,1,A,Pink_Noise_1_1.wav,Pink_Noise_1_2.wav,,,,,,,,,,,,,,,0,68,68,20,,,,,,,,,,,,,,,,,,,,,,,499.0728092089994,None,500.6353824589969,None,502.03881445899606,None,globe,502.03881445899606,None,return,1.737992207003117,502.1223381669988,None,,,,,,,,,,,,,,,,,,,,,,,,,,,,,,,,,,,,,,,96,001,2023_May_11_1122,SpeechDraft1Carolyn_lessNoise_PlusLocalization,2021.2.3,59.8180187509256,
bridge.wav,bridge.mpg,bridge,2,A,Pink_Noise_2_1.wav,Pink_Noise_2_2.wav,,,,,,,,,,,,,,,0,69,69,1,,,,,,,,,,,,,,,,,,,,,,,503.8894422919984,None,505.45540283399896,None,506.85589462499775,None,fridge,506.85589462499775,None,return,1.7614219569950365,506.9390025839966,None,,,,,,,,,,,,,,,,,,,,,,,,,,,,,,,,,,,,,,,96,001,2023_May_11_1122,SpeechDraft1Carolyn_lessNoise_PlusLocalization,2021.2.3,59.8180187509256,
nice.wav,nice.mpg,nice,2,A,Pink_Noise_2_1.wav,Pink_Noise_2_2.wav,,,,,,,,,,,,,,,0,70,70,59,,,,,,,,,,,,,,,,,,,,,,,508.7224499589938,None,510.29480054199666,None,511.688960624997,None,"nice
",511.688960624997,None,return,1.5840615000051912,511.7723068749983,None,,,,,,,,,,,,,,,,,,,,,,,,,,,,,,,,,,,,,,,96,001,2023_May_11_1122,SpeechDraft1Carolyn_lessNoise_PlusLocalization,2021.2.3,59.8180187509256,
bail.wav,bail.mpg,bail,4,A,Pink_Noise_4_1.wav,Pink_Noise_4_2.wav,,,,,,,,,,,,,,,0,71,71,32,,,,,,,,,,,,,,,,,,,,,,,513.3891853339956,None,514.9623865839967,None,516.3558645839948,None,bail,516.3558645839948,None,return,1.1013703740027267,516.4390192919964,None,,,,,,,,,,,,,,,,,,,,,,,,,,,,,,,,,,,,,,,96,001,2023_May_11_1122,SpeechDraft1Carolyn_lessNoise_PlusLocalization,2021.2.3,59.8180187509256,
float.wav,float.mpg,float,2,AV,Pink_Noise_2_1.wav,Pink_Noise_2_2.wav,,,,,,,,,,,,,,,0,72,72,112,,,,,,,,,,,,,,,,,,,,,,,517.5724047499971,None,519.1414518339952,None,520.538713666996,None,float,520.538713666996,None,return,1.5740992080027354,520.622393916994,None,,,,,,,,,,,,,,,,,,,,,,,,,,,,,,,,,,,,,,,96,001,2023_May_11_1122,SpeechDraft1Carolyn_lessNoise_PlusLocalization,2021.2.3,59.8180187509256,
drag.wav,drag.mpg,drag,2,A,Pink_Noise_2_1.wav,Pink_Noise_2_2.wav,,,,,,,,,,,,,,,0,73,73,18,,,,,,,,,,,,,,,,,,,,,,,522.222317916996,None,523.7937253749988,None,525.1888622499973,None,drag,525.1888622499973,None,return,1.3401877490032348,525.2722809999977,None,,,,,,,,,,,,,,,,,,,,,,,,,,,,,,,,,,,,,,,96,001,2023_May_11_1122,SpeechDraft1Carolyn_lessNoise_PlusLocalization,2021.2.3,59.8180187509256,
strike.wav,strike.mpg,strike,1,A,Pink_Noise_1_1.wav,Pink_Noise_1_2.wav,,,,,,,,,,,,,,,0,74,74,56,,,,,,,,,,,,,,,,,,,,,,,526.6392737499991,None,528.2124179589955,None,529.6055256670006,None,strike,529.6055256670006,None,return,1.3955855820022407,529.6889674999984,None,,,,,,,,,,,,,,,,,,,,,,,,,,,,,,,,,,,,,,,96,001,2023_May_11_1122,SpeechDraft1Carolyn_lessNoise_PlusLocalization,2021.2.3,59.8180187509256,
dump.wav,dump.mpg,dump,2,AV,Pink_Noise_2_1.wav,Pink_Noise_2_2.wav,,,,,,,,,,,,,,,0,75,75,70,,,,,,,,,,,,,,,,,,,,,,,531.1063252499953,None,532.6793395839995,None,534.0726321669936,None,dumb,534.0726321669936,None,return,1.1844834160001483,534.1560260839979,None,,,,,,,,,,,,,,,,,,,,,,,,,,,,,,,,,,,,,,,96,001,2023_May_11_1122,SpeechDraft1Carolyn_lessNoise_PlusLocalization,2021.2.3,59.8180187509256,
round.wav,round.mpg,round,3,A,Pink_Noise_3_1.wav,Pink_Noise_3_2.wav,,,,,,,,,,,,,,,0,76,76,48,,,,,,,,,,,,,,,,,,,,,,,535.3722908339987,None,536.9473955419962,None,538.3395202920001,None,railed,538.3395202920001,None,return,2.670009998997557,538.4223783749985,None,,,,,,,,,,,,,,,,,,,,,,,,,,,,,,,,,,,,,,,96,001,2023_May_11_1122,SpeechDraft1Carolyn_lessNoise_PlusLocalization,2021.2.3,59.8180187509256,
blind.wav,blind.mpg,blind,3,AV,Pink_Noise_3_1.wav,Pink_Noise_3_2.wav,,,,,,,,,,,,,,,0,77,77,74,,,,,,,,,,,,,,,,,,,,,,,541.1222066249975,None,542.698128666998,None,544.0889596249981,None,blind,544.0889596249981,None,return,1.9525031239973032,544.1720622089997,None,,,,,,,,,,,,,,,,,,,,,,,,,,,,,,,,,,,,,,,96,001,2023_May_11_1122,SpeechDraft1Carolyn_lessNoise_PlusLocalization,2021.2.3,59.8180187509256,
cross.wav,cross.mpg,cross,4,AV,Pink_Noise_4_1.wav,Pink_Noise_4_2.wav,,,,,,,,,,,,,,,0,78,78,115,,,,,,,,,,,,,,,,,,,,,,,546.1554982089947,None,547.7336934169944,None,549.1222640839987,None,cross,549.1222640839987,None,return,1.8069912489954731,549.2056224169937,None,,,,,,,,,,,,,,,,,,,,,,,,,,,,,,,,,,,,,,,96,001,2023_May_11_1122,SpeechDraft1Carolyn_lessNoise_PlusLocalization,2021.2.3,59.8180187509256,
bend.wav,bend.mpg,bend,3,A,Pink_Noise_3_1.wav,Pink_Noise_3_2.wav,,,,,,,,,,,,,,,0,79,79,39,,,,,,,,,,,,,,,,,,,,,,,551.0392567089948,None,552.6158042919997,None,554.0054857919968,None,bend,554.0054857919968,None,return,0.9636205829956452,554.089084291998,None,,,,,,,,,,,,,,,,,,,,,,,,,,,,,,,,,,,,,,,96,001,2023_May_11_1122,SpeechDraft1Carolyn_lessNoise_PlusLocalization,2021.2.3,59.8180187509256,
flea.wav,flea.mpg,flea,2,A,Pink_Noise_2_1.wav,Pink_Noise_2_2.wav,,,,,,,,,,,,,,,0,80,80,52,,,,,,,,,,,,,,,,,,,,,,,555.0728798749988,None,556.6487500000003,None,558.039437374995,None,plea,558.039437374995,None,return,2.9539781660059816,558.1226989589995,None,,,,,,,,,,,,,,,,,,,,,,,,,,,,,,,,,,,,,,,96,001,2023_May_11_1122,SpeechDraft1Carolyn_lessNoise_PlusLocalization,2021.2.3,59.8180187509256,
dune.wav,dune.mpg,dune,5,AV,Pink_Noise_5_1.wav,Pink_Noise_5_2.wav,,,,,,,,,,,,,,,0,81,81,103,,,,,,,,,,,,,,,,,,,,,,,561.1059986669934,None,562.6795711669984,None,564.0724040419955,None,do,564.0724040419955,None,return,2.7689960409989,564.1557154589973,None,,,,,,,,,,,,,,,,,,,,,,,,,,,,,,,,,,,,,,,96,001,2023_May_11_1122,SpeechDraft1Carolyn_lessNoise_PlusLocalization,2021.2.3,59.8180187509256,
flash.wav,flash.mpg,flash,3,AV,Pink_Noise_3_1.wav,Pink_Noise_3_2.wav,,,,,,,,,,,,,,,0,82,82,94,,,,,,,,,,,,,,,,,,,,,,,566.9566795840001,None,568.5350279589984,None,569.9390197920002,None,"flash
",569.9390197920002,None,return,1.318182581999281,570.0225563339991,None,,,,,,,,,,,,,,,,,,,,,,,,,,,,,,,,,,,,,,,96,001,2023_May_11_1122,SpeechDraft1Carolyn_lessNoise_PlusLocalization,2021.2.3,59.8180187509256,
ear.wav,ear.mpg,ear,5,A,Pink_Noise_5_1.wav,Pink_Noise_5_2.wav,,,,,,,,,,,,,,,0,83,83,15,,,,,,,,,,,,,,,,,,,,,,,571.372529041997,None,572.9551282920002,None,574.3555807089942,None,yield,574.3555807089942,None,return,1.6698225820000516,574.4389465419954,None,,,,,,,,,,,,,,,,,,,,,,,,,,,,,,,,,,,,,,,96,001,2023_May_11_1122,SpeechDraft1Carolyn_lessNoise_PlusLocalization,2021.2.3,59.8180187509256,
firm.wav,firm.mpg,firm,5,AV,Pink_Noise_5_1.wav,Pink_Noise_5_2.wav,,,,,,,,,,,,,,,0,84,84,63,,,,,,,,,,,,,,,,,,,,,,,576.1391844589962,None,577.7125042089974,None,579.1061037499967,None,firm,579.1061037499967,None,return,1.191699332994176,579.189149124999,None,,,,,,,,,,,,,,,,,,,,,,,,,,,,,,,,,,,,,,,96,001,2023_May_11_1122,SpeechDraft1Carolyn_lessNoise_PlusLocalization,2021.2.3,59.8180187509256,
fear.wav,fear.mpg,fear,4,A,Pink_Noise_4_1.wav,Pink_Noise_4_2.wav,,,,,,,,,,,,,,,0,85,85,43,,,,,,,,,,,,,,,,,,,,,,,580.4055094590003,None,581.9825027499974,None,583.3721953339991,None,fear,583.3721953339991,None,return,1.0295937080009026,583.4392792500003,None,,,,,,,,,,,,,,,,,,,,,,,,,,,,,,,,,,,,,,,96,001,2023_May_11_1122,SpeechDraft1Carolyn_lessNoise_PlusLocalization,2021.2.3,59.8180187509256,
goat.wav,goat.mpg,goat,1,AV,Pink_Noise_1_1.wav,Pink_Noise_1_2.wav,,,,,,,,,,,,,,,0,86,86,77,,,,,,,,,,,,,,,,,,,,,,,584.4891572499982,None,586.074188791994,None,587.4728674590006,None,goat,587.4728674590006,None,return,0.9691490829936811,587.5556970839971,None,,,,,,,,,,,,,,,,,,,,,,,,,,,,,,,,,,,,,,,96,001,2023_May_11_1122,SpeechDraft1Carolyn_lessNoise_PlusLocalization,2021.2.3,59.8180187509256,
crank.wav,crank.mpg,crank,1,AV,Pink_Noise_1_1.wav,Pink_Noise_1_2.wav,,,,,,,,,,,,,,,0,87,87,116,,,,,,,,,,,,,,,,,,,,,,,588.5558135839965,None,590.1338766249974,None,591.5233599999992,None,crank,591.5233599999992,None,return,3.4549237490064115,591.6059777919945,None,,,,,,,,,,,,,,,,,,,,,,,,,,,,,,,,,,,,,,,96,001,2023_May_11_1122,SpeechDraft1Carolyn_lessNoise_PlusLocalization,2021.2.3,59.8180187509256,
fish.wav,fish.mpg,fish,2,AV,Pink_Noise_2_1.wav,Pink_Noise_2_2.wav,,,,,,,,,,,,,,,0,88,88,95,,,,,,,,,,,,,,,,,,,,,,,595.0890579169936,None,596.6704208339943,None,598.0730444589935,None,fish,598.0730444589935,None,return,2.129300290995161,598.1556734589976,None,,,,,,,,,,,,,,,,,,,,,,,,,,,,,,,,,,,,,,,96,001,2023_May_11_1122,SpeechDraft1Carolyn_lessNoise_PlusLocalization,2021.2.3,59.8180187509256,
please.wav,please.mpg,please,5,AV,Pink_Noise_5_1.wav,Pink_Noise_5_2.wav,,,,,,,,,,,,,,,0,89,89,86,,,,,,,,,,,,,,,,,,,,,,,600.3063962089946,None,601.888971417,None,603.2893680419947,None,bees,603.2893680419947,None,return,2.128183874003298,603.3727585419983,None,,,,,,,,,,,,,,,,,,,,,,,,,,,,,,,,,,,,,,,96,001,2023_May_11_1122,SpeechDraft1Carolyn_lessNoise_PlusLocalization,2021.2.3,59.8180187509256,
flat.wav,flat.mpg,flat,2,AV,Pink_Noise_2_1.wav,Pink_Noise_2_2.wav,,,,,,,,,,,,,,,0,90,90,97,,,,,,,,,,,,,,,,,,,,,,,605.5227472089973,None,607.110218416994,None,608.5056553339964,None,flat,608.5056553339964,None,return,2.247807833002298,608.5892158339993,None,,,,,,,,,,,,,,,,,,,,,,,,,,,,,,,,,,,,,,,96,001,2023_May_11_1122,SpeechDraft1Carolyn_lessNoise_PlusLocalization,2021.2.3,59.8180187509256,
rod.wav,rod.mpg,rod,2,A,Pink_Noise_2_1.wav,Pink_Noise_2_2.wav,,,,,,,,,,,,,,,0,91,91,0,,,,,,,,,,,,,,,,,,,,,,,610.8562678339949,None,612.443101375,None,613.8391198339959,None,rod,613.8391198339959,None,return,0.7779168320048484,613.9231664170002,None,,,,,,,,,,,,,,,,,,,,,,,,,,,,,,,,,,,,,,,96,001,2023_May_11_1122,SpeechDraft1Carolyn_lessNoise_PlusLocalization,2021.2.3,59.8180187509256,
weep.wav,weep.mpg,weep,3,AV,Pink_Noise_3_1.wav,Pink_Noise_3_2.wav,,,,,,,,,,,,,,,0,92,92,111,,,,,,,,,,,,,,,,,,,,,,,614.72234475,None,616.3068873339944,None,617.7060925839978,None,weep,617.7060925839978,None,return,0.943484374001855,617.7896324169997,None,,,,,,,,,,,,,,,,,,,,,,,,,,,,,,,,,,,,,,,96,001,2023_May_11_1122,SpeechDraft1Carolyn_lessNoise_PlusLocalization,2021.2.3,59.8180187509256,
fright.wav,fright.mpg,fright,3,AV,Pink_Noise_3_1.wav,Pink_Noise_3_2.wav,,,,,,,,,,,,,,,0,93,93,71,,,,,,,,,,,,,,,,,,,,,,,618.7558212089934,None,620.3420607919979,None,621.7393922499978,None,fright,621.7393922499978,None,return,1.3982924160009134,621.8227936669937,None,,,,,,,,,,,,,,,,,,,,,,,,,,,,,,,,,,,,,,,96,001,2023_May_11_1122,SpeechDraft1Carolyn_lessNoise_PlusLocalization,2021.2.3,59.8180187509256,
gap.wav,gap.mpg,gap,1,A,Pink_Noise_1_1.wav,Pink_Noise_1_2.wav,,,,,,,,,,,,,,,0,94,94,53,,,,,,,,,,,,,,,,,,,,,,,623.2400421669954,None,624.8261876670003,None,626.2224610419944,None,gap,626.2224610419944,None,return,1.1713819159995182,626.3057159589953,None,,,,,,,,,,,,,,,,,,,,,,,,,,,,,,,,,,,,,,,96,001,2023_May_11_1122,SpeechDraft1Carolyn_lessNoise_PlusLocalization,2021.2.3,59.8180187509256,
flesh.wav,flesh.mpg,flesh,3,AV,Pink_Noise_3_1.wav,Pink_Noise_3_2.wav,,,,,,,,,,,,,,,0,95,95,87,,,,,,,,,,,,,,,,,,,,,,,627.5057707089945,None,629.096675834,None,630.4891347499943,None,flesh,630.4891347499943,None,return,1.3605304570010048,630.5726457499986,None,,,,,,,,,,,,,,,,,,,,,,,,,,,,,,,,,,,,,,,96,001,2023_May_11_1122,SpeechDraft1Carolyn_lessNoise_PlusLocalization,2021.2.3,59.8180187509256,
bound.wav,bound.mpg,bound,4,AV,Pink_Noise_4_1.wav,Pink_Noise_4_2.wav,,,,,,,,,,,,,,,0,96,96,80,,,,,,,,,,,,,,,,,,,,,,,631.9559610840006,None,633.544674083998,None,634.9392055419958,None,"mound
",634.9392055419958,None,return,1.3184674579970306,635.0226629589961,None,,,,,,,,,,,,,,,,,,,,,,,,,,,,,,,,,,,,,,,96,001,2023_May_11_1122,SpeechDraft1Carolyn_lessNoise_PlusLocalization,2021.2.3,59.8180187509256,
flex.wav,flex.mpg,flex,6,AV,Pink_Noise_6_1.wav,Pink_Noise_6_2.wav,,,,,,,,,,,,,,,0,97,97,66,,,,,,,,,,,,,,,,,,,,,,,636.372745749999,None,637.9639092090001,None,639.3557930419993,None,flash,639.3557930419993,None,return,1.4298528330036788,639.4393856249953,None,,,,,,,,,,,,,,,,,,,,,,,,,,,,,,,,,,,,,,,96,001,2023_May_11_1122,SpeechDraft1Carolyn_lessNoise_PlusLocalization,2021.2.3,59.8180187509256,
clown.wav,clown.mpg,clown,1,AV,Pink_Noise_1_1.wav,Pink_Noise_1_2.wav,,,,,,,,,,,,,,,0,98,98,118,,,,,,,,,,,,,,,,,,,,,,,640.8895407089949,None,642.4739540839946,None,643.8725089169966,None,cloud,643.8725089169966,None,return,1.2974602910035173,643.955794249996,None,,,,,,,,,,,,,,,,,,,,,,,,,,,,,,,,,,,,,,,96,001,2023_May_11_1122,SpeechDraft1Carolyn_lessNoise_PlusLocalization,2021.2.3,59.8180187509256,
bin.wav,bin.mpg,bin,6,AV,Pink_Noise_6_1.wav,Pink_Noise_6_2.wav,,,,,,,,,,,,,,,0,99,99,83,,,,,,,,,,,,,,,,,,,,,,,645.2730837499985,None,646.8693614999938,None,648.272913791996,None,bee,648.272913791996,None,return,1.2569280819952837,648.3563024999967,None,,,,,,,,,,,,,,,,,,,,,,,,,,,,,,,,,,,,,,,96,001,2023_May_11_1122,SpeechDraft1Carolyn_lessNoise_PlusLocalization,2021.2.3,59.8180187509256,
creek.wav,creek.mpg,creek,6,AV,Pink_Noise_6_1.wav,Pink_Noise_6_2.wav,,,,,,,,,,,,,,,0,100,100,108,,,,,,,,,,,,,,,,,,,,,,,649.6393461249972,None,651.2362914169935,None,652.639250041997,None,"what
",652.639250041997,None,return,10.634768207994057,652.7225261249987,None,,,,,,,,,,,,,,,,,,,,,,,,,,,,,,,,,,,,,,,96,001,2023_May_11_1122,SpeechDraft1Carolyn_lessNoise_PlusLocalization,2021.2.3,59.8180187509256,
bleed.wav,bleed.mpg,bleed,1,AV,Pink_Noise_1_1.wav,Pink_Noise_1_2.wav,,,,,,,,,,,,,,,0,101,101,109,,,,,,,,,,,,,,,,,,,,,,,663.389394124999,None,664.9839801249982,None,666.3723894169962,None,bleed,666.3723894169962,None,return,1.4211157499958063,666.4562277499936,None,,,,,,,,,,,,,,,,,,,,,,,,,,,,,,,,,,,,,,,96,001,2023_May_11_1122,SpeechDraft1Carolyn_lessNoise_PlusLocalization,2021.2.3,59.8180187509256,
glow.wav,glow.mpg,glow,5,AV,Pink_Noise_5_1.wav,Pink_Noise_5_2.wav,,,,,,,,,,,,,,,0,102,102,62,,,,,,,,,,,,,,,,,,,,,,,667.9064079169984,None,669.5015491249942,None,670.8899719170004,None,"glow
",670.8899719170004,None,return,1.800828541003284,670.9725197499938,None,,,,,,,,,,,,,,,,,,,,,,,,,,,,,,,,,,,,,,,96,001,2023_May_11_1122,SpeechDraft1Carolyn_lessNoise_PlusLocalization,2021.2.3,59.8180187509256,
beard.wav,beard.mpg,beard,4,AV,Pink_Noise_4_1.wav,Pink_Noise_4_2.wav,,,,,,,,,,,,,,,0,103,103,60,,,,,,,,,,,,,,,,,,,,,,,672.8060233340002,None,674.4062206249946,None,675.8064781249996,None,marry,675.8064781249996,None,return,1.8759990409962484,675.8894656669945,None,,,,,,,,,,,,,,,,,,,,,,,,,,,,,,,,,,,,,,,96,001,2023_May_11_1122,SpeechDraft1Carolyn_lessNoise_PlusLocalization,2021.2.3,59.8180187509256,
cork.wav,cork.mpg,cork,3,AV,Pink_Noise_3_1.wav,Pink_Noise_3_2.wav,,,,,,,,,,,,,,,0,104,104,107,,,,,,,,,,,,,,,,,,,,,,,677.7897762499997,None,679.393359499998,None,680.7895462919987,None,cork,680.7895462919987,None,return,1.2199405829960597,680.8735540419948,None,,,,,,,,,,,,,,,,,,,,,,,,,,,,,,,,,,,,,,,96,001,2023_May_11_1122,SpeechDraft1Carolyn_lessNoise_PlusLocalization,2021.2.3,59.8180187509256,
bat.wav,bat.mpg,bat,6,AV,Pink_Noise_6_1.wav,Pink_Noise_6_2.wav,,,,,,,,,,,,,,,0,105,105,84,,,,,,,,,,,,,,,,,,,,,,,682.1227231249941,None,683.7182559590001,None,685.1104136669965,None,mass,685.1104136669965,None,return,1.2482228739972925,685.1892522919952,None,,,,,,,,,,,,,,,,,,,,,,,,,,,,,,,,,,,,,,,96,001,2023_May_11_1122,SpeechDraft1Carolyn_lessNoise_PlusLocalization,2021.2.3,59.8180187509256,
fill.wav,fill.mpg,fill,4,AV,Pink_Noise_4_1.wav,Pink_Noise_4_2.wav,,,,,,,,,,,,,,,0,106,106,79,,,,,,,,,,,,,,,,,,,,,,,686.4567548339983,None,688.0569564999969,None,689.4560129589954,None,fill,689.4560129589954,None,return,1.569724832996144,689.5397496669975,None,,,,,,,,,,,,,,,,,,,,,,,,,,,,,,,,,,,,,,,96,001,2023_May_11_1122,SpeechDraft1Carolyn_lessNoise_PlusLocalization,2021.2.3,59.8180187509256,
crash.wav,crash.mpg,crash,5,A,Pink_Noise_5_1.wav,Pink_Noise_5_2.wav,,,,,,,,,,,,,,,0,107,107,2,,,,,,,,,,,,,,,,,,,,,,,691.1392550839955,None,692.7378108749981,None,694.1393665840005,None,lush,694.1393665840005,None,return,6.206725290998293,694.2228238749958,None,,,,,,,,,,,,,,,,,,,,,,,,,,,,,,,,,,,,,,,96,001,2023_May_11_1122,SpeechDraft1Carolyn_lessNoise_PlusLocalization,2021.2.3,59.8180187509256,
blue.wav,blue.mpg,blue,5,A,Pink_Noise_5_1.wav,Pink_Noise_5_2.wav,,,,,,,,,,,,,,,0,108,108,6,,,,,,,,,,,,,,,,,,,,,,,700.456167999997,None,702.0605989169999,None,703.455924666996,None,"blue
",703.455924666996,None,return,4.833997082001588,703.5395816669989,None,,,,,,,,,,,,,,,,,,,,,,,,,,,,,,,,,,,,,,,96,001,2023_May_11_1122,SpeechDraft1Carolyn_lessNoise_PlusLocalization,2021.2.3,59.8180187509256,
nine.wav,nine.mpg,nine,6,AV,Pink_Noise_6_1.wav,Pink_Noise_6_2.wav,,,,,,,,,,,,,,,0,109,109,102,,,,,,,,,,,,,,,,,,,,,,,708.4065835000001,None,710.006111333998,None,711.4062888749977,None,lime,711.4062888749977,None,return,1.2514474160052487,711.4901639169984,None,,,,,,,,,,,,,,,,,,,,,,,,,,,,,,,,,,,,,,,96,001,2023_May_11_1122,SpeechDraft1Carolyn_lessNoise_PlusLocalization,2021.2.3,59.8180187509256,
eight.wav,eight.mpg,eight,4,A,Pink_Noise_4_1.wav,Pink_Noise_4_2.wav,,,,,,,,,,,,,,,0,110,110,40,,,,,,,,,,,,,,,,,,,,,,,712.7729357089993,None,714.3766440420004,None,715.7727570839997,None,it,715.7727570839997,None,return,0.7497758750032517,715.8558739589935,None,,,,,,,,,,,,,,,,,,,,,,,,,,,,,,,,,,,,,,,96,001,2023_May_11_1122,SpeechDraft1Carolyn_lessNoise_PlusLocalization,2021.2.3,59.8180187509256,
flow.wav,flow.mpg,flow,2,A,Pink_Noise_2_1.wav,Pink_Noise_2_2.wav,,,,,,,,,,,,,,,0,111,111,13,,,,,,,,,,,,,,,,,,,,,,,716.6234864590006,None,718.2308660419949,None,719.6236393750005,None,flow,719.6236393750005,None,return,0.7637150000009569,719.7059962089988,None,,,,,,,,,,,,,,,,,,,,,,,,,,,,,,,,,,,,,,,96,001,2023_May_11_1122,SpeechDraft1Carolyn_lessNoise_PlusLocalization,2021.2.3,59.8180187509256,
champ.wav,champ.mpg,champ,1,AV,Pink_Noise_1_1.wav,Pink_Noise_1_2.wav,,,,,,,,,,,,,,,0,112,112,96,,,,,,,,,,,,,,,,,,,,,,,720.4900638339968,None,722.0840794589967,None,723.4727069999935,None,champ,723.4727069999935,None,return,1.2419170410066727,723.5558137499975,None,,,,,,,,,,,,,,,,,,,,,,,,,,,,,,,,,,,,,,,96,001,2023_May_11_1122,SpeechDraft1Carolyn_lessNoise_PlusLocalization,2021.2.3,59.8180187509256,
clip.wav,clip.mpg,clip,4,A,Pink_Noise_4_1.wav,Pink_Noise_4_2.wav,,,,,,,,,,,,,,,0,113,113,38,,,,,,,,,,,,,,,,,,,,,,,724.8230199169993,None,726.4185826249959,None,727.8070340419945,None,click,727.8070340419945,None,return,0.9554917069981457,727.8902292919956,None,,,,,,,,,,,,,,,,,,,,,,,,,,,,,,,,,,,,,,,96,001,2023_May_11_1122,SpeechDraft1Carolyn_lessNoise_PlusLocalization,2021.2.3,59.8180187509256,
guilt.wav,guilt.mpg,guilt,2,A,Pink_Noise_2_1.wav,Pink_Noise_2_2.wav,,,,,,,,,,,,,,,0,114,114,49,,,,,,,,,,,,,,,,,,,,,,,728.8725637919997,None,730.480810999994,None,731.8728944589966,None,guilt,731.8728944589966,None,return,1.8731262079963926,731.9565951669938,None,,,,,,,,,,,,,,,,,,,,,,,,,,,,,,,,,,,,,,,96,001,2023_May_11_1122,SpeechDraft1Carolyn_lessNoise_PlusLocalization,2021.2.3,59.8180187509256,
brow.wav,brow.mpg,brow,4,A,Pink_Noise_4_1.wav,Pink_Noise_4_2.wav,,,,,,,,,,,,,,,0,115,115,26,,,,,,,,,,,,,,,,,,,,,,,733.8562509999974,None,735.4582796249961,None,736.8568113339934,None,ride,736.8568113339934,None,return,0.6587504160052049,736.9390777499939,None,,,,,,,,,,,,,,,,,,,,,,,,,,,,,,,,,,,,,,,96,001,2023_May_11_1122,SpeechDraft1Carolyn_lessNoise_PlusLocalization,2021.2.3,59.8180187509256,
craft.wav,craft.mpg,craft,5,AV,Pink_Noise_5_1.wav,Pink_Noise_5_2.wav,,,,,,,,,,,,,,,0,116,116,98,,,,,,,,,,,,,,,,,,,,,,,737.6234573339971,None,739.2277552499945,None,740.6230648339988,None,craft,740.6230648339988,None,return,1.29979316599929,740.7060172499987,None,,,,,,,,,,,,,,,,,,,,,,,,,,,,,,,,,,,,,,,96,001,2023_May_11_1122,SpeechDraft1Carolyn_lessNoise_PlusLocalization,2021.2.3,59.8180187509256,
hug.wav,hug.mpg,hug,1,A,Pink_Noise_1_1.wav,Pink_Noise_1_2.wav,,,,,,,,,,,,,,,0,117,117,41,,,,,,,,,,,,,,,,,,,,,,,742.0237993749979,None,743.6293373749941,None,745.0233626249974,None,"hug
",745.0233626249974,None,return,0.6518752909978502,745.1059469999964,None,,,,,,,,,,,,,,,,,,,,,,,,,,,,,,,,,,,,,,,96,001,2023_May_11_1122,SpeechDraft1Carolyn_lessNoise_PlusLocalization,2021.2.3,59.8180187509256,
cream.wav,cream.mpg,cream,6,AV,Pink_Noise_6_1.wav,Pink_Noise_6_2.wav,,,,,,,,,,,,,,,0,118,118,101,,,,,,,,,,,,,,,,,,,,,,,745.7896576249987,None,747.392388166998,None,748.7896160839955,None,dream,748.7896160839955,None,return,1.3413487910002004,748.8725595840006,None,,,,,,,,,,,,,,,,,,,,,,,,,,,,,,,,,,,,,,,96,001,2023_May_11_1122,SpeechDraft1Carolyn_lessNoise_PlusLocalization,2021.2.3,59.8180187509256,
gun.wav,gun.mpg,gun,1,A,Pink_Noise_1_1.wav,Pink_Noise_1_2.wav,,,,,,,,,,,,,,,0,119,119,25,,,,,,,,,,,,,,,,,,,,,,,750.2396799999988,None,751.8482356669992,None,753.2398702499995,None,gun,753.2398702499995,None,return,0.7147984569965047,753.3230714589954,None,,,,,,,,,,,,,,,,,,,,,,,,,,,,,,,,,,,,,,,96,001,2023_May_11_1122,SpeechDraft1Carolyn_lessNoise_PlusLocalization,2021.2.3,59.8180187509256,
,,,,,,,,,,,,,,,,,,,,,,,,,,,,,,,,,,,,,,,,,,,,,,,,,,,,,,,,,,,,,,,,,,space,25.265426540994667,754.1405760419948,None,,,,,,,,,,,,,,,,,,,,,,,,,,,,,96,001,2023_May_11_1122,SpeechDraft1Carolyn_lessNoise_PlusLocalization,2021.2.3,59.8180187509256,
,,,,,,,,center,0.0,6,ch1Sound_localizationTask.wav,0.0,"(952, 878)","(-8,-202)",0,-338,,,,,,,,,0,0,0,3,,,,,,,,,,,,,,,,,,,,,,,,,,,,,,,,,,,,,,,,,,754.1405760419948,None,779.4232023749937,None,780.5194122499961,None,781.4458760839989,None,1.3708994708994708,2.0417463750054594,781.4458760839989,None,,,,,,,,,,,,,,,,,96,001,2023_May_11_1122,SpeechDraft1Carolyn_lessNoise_PlusLocalization,2021.2.3,59.8180187509256,
,,,,,,,,midLeft,-13.0,2,ch1Sound_localizationTask.wav,-13.0,"(762, 878)","(-198,-202)",-190,-338,,,,,,,,,0,1,1,1,,,,,,,,,,,,,,,,,,,,,,,,,,,,,,,,,,,,,,,,,,,,783.5064820419939,None,784.6017524169947,None,785.5237003339935,None,1.3380952380952382,0.8328271669961396,785.5237003339935,None,,,,,,,,,,,,,,,,,96,001,2023_May_11_1122,SpeechDraft1Carolyn_lessNoise_PlusLocalization,2021.2.3,59.8180187509256,
,,,,,,,,midLeft,-13.0,2,ch1Sound_localizationTask.wav,-13.0,"(762, 878)","(-198,-202)",-190,-338,,,,,,,,,0,2,2,1,,,,,,,,,,,,,,,,,,,,,,,,,,,,,,,,,,,,,,,,,,,,786.3731547919961,None,787.4682790000006,None,788.3900537919981,None,1.366137566137566,0.9144805420000921,788.3900537919981,None,,,,,,,,,,,,,,,,,96,001,2023_May_11_1122,SpeechDraft1Carolyn_lessNoise_PlusLocalization,2021.2.3,59.8180187509256,
,,,,,,,,center,0.0,6,ch1Sound_localizationTask.wav,0.0,"(952, 878)","(-8,-202)",0,-338,,,,,,,,,0,3,3,3,,,,,,,,,,,,,,,,,,,,,,,,,,,,,,,,,,,,,,,,,,,,789.3229057919962,None,790.4176840839937,None,791.3398275839936,None,1.480952380952381,0.7999157499943976,791.3398275839936,None,,,,,,,,,,,,,,,,,96,001,2023_May_11_1122,SpeechDraft1Carolyn_lessNoise_PlusLocalization,2021.2.3,59.8180187509256,
,,,,,,,,farRight,19.1,4,ch1Sound_localizationTask.wav,19.1,"(1237, 878)","(277,-202)",285,-338,,,,,,,,,0,4,4,6,,,,,,,,,,,,,,,,,,,,,,,,,,,,,,,,,,,,,,,,,,,,792.1563413749973,None,793.2509632090005,None,794.1736744999944,None,1.544973544973545,0.7324714999995194,794.1736744999944,None,,,,,,,,,,,,,,,,,96,001,2023_May_11_1122,SpeechDraft1Carolyn_lessNoise_PlusLocalization,2021.2.3,59.8180187509256,
,,,,,,,,farLeft,-19.1,5,ch1Sound_localizationTask.wav,-19.1,"(667, 878)","(-293,-202)",-285,-338,,,,,,,,,0,5,5,0,,,,,,,,,,,,,,,,,,,,,,,,,,,,,,,,,,,,,,,,,,,,794.9233667089939,None,796.0198343749944,None,796.9402307499986,None,1.307936507936508,0.7639197919997969,796.9402307499986,None,,,,,,,,,,,,,,,,,96,001,2023_May_11_1122,SpeechDraft1Carolyn_lessNoise_PlusLocalization,2021.2.3,59.8180187509256,
,,,,,,,,midLeft,-13.0,2,ch1Sound_localizationTask.wav,-13.0,"(762, 878)","(-198,-202)",-190,-338,,,,,,,,,0,6,6,1,,,,,,,,,,,,,,,,,,,,,,,,,,,,,,,,,,,,,,,,,,,,797.7234085419987,None,798.8197752089982,None,799.740305416999,None,1.2973544973544975,1.1664210829985677,799.740305416999,None,,,,,,,,,,,,,,,,,96,001,2023_May_11_1122,SpeechDraft1Carolyn_lessNoise_PlusLocalization,2021.2.3,59.8180187509256,
,,,,,,,,midRight,13.0,3,ch1Sound_localizationTask.wav,13.0,"(1142, 878)","(182, -202)",190,-338,,,,,,,,,1,0,7,5,,,,,,,,,,,,,,,,,,,,,,,,,,,,,,,,,,,,,,,,,,,,800.923275958994,None,802.0192870839965,None,802.9406965419985,None,1.552910052910053,0.5977460840003914,802.9406965419985,None,,,,,,,,,,,,,,,,,96,001,2023_May_11_1122,SpeechDraft1Carolyn_lessNoise_PlusLocalization,2021.2.3,59.8180187509256,
,,,,,,,,nearRight,6.5,0,ch1Sound_localizationTask.wav,6.5,"(1047, 878)","(87, -202)",95,-338,,,,,,,,,1,1,8,4,,,,,,,,,,,,,,,,,,,,,,,,,,,,,,,,,,,,,,,,,,,,803.5564523339999,None,804.653667999999,None,805.5734863749967,None,1.5714285714285714,0.7665592080011265,805.5734863749967,None,,,,,,,,,,,,,,,,,96,001,2023_May_11_1122,SpeechDraft1Carolyn_lessNoise_PlusLocalization,2021.2.3,59.8180187509256,
,,,,,,,,farRight,19.1,4,ch1Sound_localizationTask.wav,19.1,"(1237, 878)","(277,-202)",285,-338,,,,,,,,,1,2,9,6,,,,,,,,,,,,,,,,,,,,,,,,,,,,,,,,,,,,,,,,,,,,806.3566750839964,None,807.4514910839935,None,808.3734619169991,None,1.6052910052910052,0.7158201669953996,808.3734619169991,None,,,,,,,,,,,,,,,,,96,001,2023_May_11_1122,SpeechDraft1Carolyn_lessNoise_PlusLocalization,2021.2.3,59.8180187509256,
,,,,,,,,nearRight,6.5,0,ch1Sound_localizationTask.wav,6.5,"(1047, 878)","(87, -202)",95,-338,,,,,,,,,1,3,10,4,,,,,,,,,,,,,,,,,,,,,,,,,,,,,,,,,,,,,,,,,,,,809.1066159999973,None,810.2022347089951,None,811.1237843339986,None,1.5201058201058202,0.5497935419989517,811.1237843339986,None,,,,,,,,,,,,,,,,,96,001,2023_May_11_1122,SpeechDraft1Carolyn_lessNoise_PlusLocalization,2021.2.3,59.8180187509256,
,,,,,,,,midRight,13.0,3,ch1Sound_localizationTask.wav,13.0,"(1142, 878)","(182, -202)",190,-338,,,,,,,,,1,4,11,5,,,,,,,,,,,,,,,,,,,,,,,,,,,,,,,,,,,,,,,,,,,,811.690019624999,None,812.7849740839956,None,813.706820374995,None,1.5465608465608467,0.46741708300396567,813.706820374995,None,,,,,,,,,,,,,,,,,96,001,2023_May_11_1122,SpeechDraft1Carolyn_lessNoise_PlusLocalization,2021.2.3,59.8180187509256,
,,,,,,,,farRight,19.1,4,ch1Sound_localizationTask.wav,19.1,"(1237, 878)","(277,-202)",285,-338,,,,,,,,,1,5,12,6,,,,,,,,,,,,,,,,,,,,,,,,,,,,,,,,,,,,,,,,,,,,814.1899121249953,None,815.2845346670001,None,816.2073514999938,None,1.6095238095238096,0.4840919170019333,816.2073514999938,None,,,,,,,,,,,,,,,,,96,001,2023_May_11_1122,SpeechDraft1Carolyn_lessNoise_PlusLocalization,2021.2.3,59.8180187509256,
,,,,,,,,nearLeft,-6.5,1,ch1Sound_localizationTask.wav,-6.5,"(857, 878)","(-103,-202)",-95,-338,,,,,,,,,1,6,13,2,,,,,,,,,,,,,,,,,,,,,,,,,,,,,,,,,,,,,,,,,,,,816.706382874996,None,817.8010609589983,None,818.7234122919981,None,1.5185185185185186,0.5637867080004071,818.7234122919981,None,,,,,,,,,,,,,,,,,96,001,2023_May_11_1122,SpeechDraft1Carolyn_lessNoise_PlusLocalization,2021.2.3,59.8180187509256,
,,,,,,,,nearRight,6.5,0,ch1Sound_localizationTask.wav,6.5,"(1047, 878)","(87, -202)",95,-338,,,,,,,,,2,0,14,4,,,,,,,,,,,,,,,,,,,,,,,,,,,,,,,,,,,,,,,,,,,,819.3067313339998,None,820.4014779589997,None,821.3233838339947,None,1.4962962962962962,0.5322702079938608,821.3233838339947,None,,,,,,,,,,,,,,,,,96,001,2023_May_11_1122,SpeechDraft1Carolyn_lessNoise_PlusLocalization,2021.2.3,59.8180187509256,
,,,,,,,,nearRight,6.5,0,ch1Sound_localizationTask.wav,6.5,"(1047, 878)","(87, -202)",95,-338,,,,,,,,,2,1,15,4,,,,,,,,,,,,,,,,,,,,,,,,,,,,,,,,,,,,,,,,,,,,821.8733969589957,None,822.9683426669944,None,823.8905457919973,None,1.4973544973544972,0.4297751249978319,823.8905457919973,None,,,,,,,,,,,,,,,,,96,001,2023_May_11_1122,SpeechDraft1Carolyn_lessNoise_PlusLocalization,2021.2.3,59.8180187509256,
,,,,,,,,nearLeft,-6.5,1,ch1Sound_localizationTask.wav,-6.5,"(857, 878)","(-103,-202)",-95,-338,,,,,,,,,2,2,16,2,,,,,,,,,,,,,,,,,,,,,,,,,,,,,,,,,,,,,,,,,,,,824.3403761669979,None,825.4344682499941,None,826.3572932089955,None,1.4984126984126984,0.4319563749959343,826.3572932089955,None,,,,,,,,,,,,,,,,,96,001,2023_May_11_1122,SpeechDraft1Carolyn_lessNoise_PlusLocalization,2021.2.3,59.8180187509256,
,,,,,,,,nearRight,6.5,0,ch1Sound_localizationTask.wav,6.5,"(1047, 878)","(87, -202)",95,-338,,,,,,,,,2,3,17,4,,,,,,,,,,,,,,,,,,,,,,,,,,,,,,,,,,,,,,,,,,,,826.8063612499973,None,827.9020204589979,None,828.8237089999966,None,1.4978835978835978,0.44922220899752574,828.8237089999966,None,,,,,,,,,,,,,,,,,96,001,2023_May_11_1122,SpeechDraft1Carolyn_lessNoise_PlusLocalization,2021.2.3,59.8180187509256,
,,,,,,,,midRight,13.0,3,ch1Sound_localizationTask.wav,13.0,"(1142, 878)","(182, -202)",190,-338,,,,,,,,,2,4,18,5,,,,,,,,,,,,,,,,,,,,,,,,,,,,,,,,,,,,,,,,,,,,829.290270958998,None,830.384366541999,None,831.3069393339974,None,1.547089947089947,0.6001089170022169,831.3069393339974,None,,,,,,,,,,,,,,,,,96,001,2023_May_11_1122,SpeechDraft1Carolyn_lessNoise_PlusLocalization,2021.2.3,59.8180187509256,
,,,,,,,,midRight,13.0,3,ch1Sound_localizationTask.wav,13.0,"(1142, 878)","(182, -202)",190,-338,,,,,,,,,2,5,19,5,,,,,,,,,,,,,,,,,,,,,,,,,,,,,,,,,,,,,,,,,,,,831.9229852499993,None,833.0188010419952,None,833.9405151249957,None,1.543915343915344,0.4826643749984214,833.9405151249957,None,,,,,,,,,,,,,,,,,96,001,2023_May_11_1122,SpeechDraft1Carolyn_lessNoise_PlusLocalization,2021.2.3,59.8180187509256,
,,,,,,,,farRight,19.1,4,ch1Sound_localizationTask.wav,19.1,"(1237, 878)","(277,-202)",285,-338,,,,,,,,,2,6,20,6,,,,,,,,,,,,,,,,,,,,,,,,,,,,,,,,,,,,,,,,,,,,834.440023916999,None,835.5338227920001,None,836.4570418749936,None,1.5989417989417989,0.44968662499741185,836.4570418749936,None,,,,,,,,,,,,,,,,,96,001,2023_May_11_1122,SpeechDraft1Carolyn_lessNoise_PlusLocalization,2021.2.3,59.8180187509256,
,,,,,,,,center,0.0,6,ch1Sound_localizationTask.wav,0.0,"(952, 878)","(-8,-202)",0,-338,,,,,,,,,3,0,21,3,,,,,,,,,,,,,,,,,,,,,,,,,,,,,,,,,,,,,,,,,,,,836.9231866669943,None,838.0175304999939,None,838.9395812919975,None,1.4978835978835978,0.7157227909992798,838.9395812919975,None,,,,,,,,,,,,,,,,,96,001,2023_May_11_1122,SpeechDraft1Carolyn_lessNoise_PlusLocalization,2021.2.3,59.8180187509256,
,,,,,,,,center,0.0,6,ch1Sound_localizationTask.wav,0.0,"(952, 878)","(-8,-202)",0,-338,,,,,,,,,3,1,22,3,,,,,,,,,,,,,,,,,,,,,,,,,,,,,,,,,,,,,,,,,,,,839.6732871669956,None,840.7671332499958,None,841.6907007089976,None,1.493121693121693,0.46679904199845623,841.6907007089976,None,,,,,,,,,,,,,,,,,96,001,2023_May_11_1122,SpeechDraft1Carolyn_lessNoise_PlusLocalization,2021.2.3,59.8180187509256,
,,,,,,,,center,0.0,6,ch1Sound_localizationTask.wav,0.0,"(952, 878)","(-8,-202)",0,-338,,,,,,,,,3,2,23,3,,,,,,,,,,,,,,,,,,,,,,,,,,,,,,,,,,,,,,,,,,,,842.1731725419959,None,843.2652710839975,None,844.1904112089978,None,1.4761904761904763,0.4172253329961677,844.1904112089978,None,,,,,,,,,,,,,,,,,96,001,2023_May_11_1122,SpeechDraft1Carolyn_lessNoise_PlusLocalization,2021.2.3,59.8180187509256,
,,,,,,,,farLeft,-19.1,5,ch1Sound_localizationTask.wav,-19.1,"(667, 878)","(-293,-202)",-285,-338,,,,,,,,,3,3,24,0,,,,,,,,,,,,,,,,,,,,,,,,,,,,,,,,,,,,,,,,,,,,844.6230712089964,None,845.7172838339975,None,846.6403357089948,None,1.348148148148148,0.5329575409996323,846.6403357089948,None,,,,,,,,,,,,,,,,,96,001,2023_May_11_1122,SpeechDraft1Carolyn_lessNoise_PlusLocalization,2021.2.3,59.8180187509256,
,,,,,,,,nearRight,6.5,0,ch1Sound_localizationTask.wav,6.5,"(1047, 878)","(87, -202)",95,-338,,,,,,,,,3,4,25,4,,,,,,,,,,,,,,,,,,,,,,,,,,,,,,,,,,,,,,,,,,,,847.1895309169995,None,848.2854116249946,None,849.2067917089953,None,1.5074074074074075,0.7161142500044662,849.2067917089953,None,,,,,,,,,,,,,,,,,96,001,2023_May_11_1122,SpeechDraft1Carolyn_lessNoise_PlusLocalization,2021.2.3,59.8180187509256,
,,,,,,,,midLeft,-13.0,2,ch1Sound_localizationTask.wav,-13.0,"(762, 878)","(-198,-202)",-190,-338,,,,,,,,,3,5,26,1,,,,,,,,,,,,,,,,,,,,,,,,,,,,,,,,,,,,,,,,,,,,849.9397311669964,None,851.0353010420004,None,851.9569930419966,None,1.3994708994708995,0.483445790996484,851.9569930419966,None,,,,,,,,,,,,,,,,,96,001,2023_May_11_1122,SpeechDraft1Carolyn_lessNoise_PlusLocalization,2021.2.3,59.8180187509256,
,,,,,,,,farRight,19.1,4,ch1Sound_localizationTask.wav,19.1,"(1237, 878)","(277,-202)",285,-338,,,,,,,,,3,6,27,6,,,,,,,,,,,,,,,,,,,,,,,,,,,,,,,,,,,,,,,,,,,,852.4569837499948,None,853.5509816669946,None,854.4738605419989,None,1.5492063492063493,0.7143835410024622,854.4738605419989,None,,,,,,,,,,,,,,,,,96,001,2023_May_11_1122,SpeechDraft1Carolyn_lessNoise_PlusLocalization,2021.2.3,59.8180187509256,
,,,,,,,,midLeft,-13.0,2,ch1Sound_localizationTask.wav,-13.0,"(762, 878)","(-198,-202)",-190,-338,,,,,,,,,4,0,28,1,,,,,,,,,,,,,,,,,,,,,,,,,,,,,,,,,,,,,,,,,,,,855.2064907499953,None,856.3002554169943,None,857.223656874994,None,1.3476190476190477,0.6001342919989838,857.223656874994,None,,,,,,,,,,,,,,,,,96,001,2023_May_11_1122,SpeechDraft1Carolyn_lessNoise_PlusLocalization,2021.2.3,59.8180187509256,
,,,,,,,,center,0.0,6,ch1Sound_localizationTask.wav,0.0,"(952, 878)","(-8,-202)",0,-338,,,,,,,,,4,1,29,3,,,,,,,,,,,,,,,,,,,,,,,,,,,,,,,,,,,,,,,,,,,,857.8401130419952,None,858.9350223749934,None,859.8567730419963,None,1.4603174603174602,0.6139442919957219,859.8567730419963,None,,,,,,,,,,,,,,,,,96,001,2023_May_11_1122,SpeechDraft1Carolyn_lessNoise_PlusLocalization,2021.2.3,59.8180187509256,
,,,,,,,,midRight,13.0,3,ch1Sound_localizationTask.wav,13.0,"(1142, 878)","(182, -202)",190,-338,,,,,,,,,4,2,30,5,,,,,,,,,,,,,,,,,,,,,,,,,,,,,,,,,,,,,,,,,,,,860.4900325419949,None,861.5837432499975,None,862.507740999994,None,1.5402116402116404,0.5976331250058138,862.507740999994,None,,,,,,,,,,,,,,,,,96,001,2023_May_11_1122,SpeechDraft1Carolyn_lessNoise_PlusLocalization,2021.2.3,59.8180187509256,
,,,,,,,,midLeft,-13.0,2,ch1Sound_localizationTask.wav,-13.0,"(762, 878)","(-198,-202)",-190,-338,,,,,,,,,4,3,31,1,,,,,,,,,,,,,,,,,,,,,,,,,,,,,,,,,,,,,,,,,,,,863.1237593339974,None,864.2195111669935,None,865.1401178749948,None,1.32010582010582,0.6004733329973533,865.1401178749948,None,,,,,,,,,,,,,,,,,96,001,2023_May_11_1122,SpeechDraft1Carolyn_lessNoise_PlusLocalization,2021.2.3,59.8180187509256,
,,,,,,,,nearLeft,-6.5,1,ch1Sound_localizationTask.wav,-6.5,"(857, 878)","(-103,-202)",-95,-338,,,,,,,,,4,4,32,2,,,,,,,,,,,,,,,,,,,,,,,,,,,,,,,,,,,,,,,,,,,,865.7568887089947,None,866.8518374169944,None,867.7739949999959,None,1.528042328042328,0.6327275000003283,867.7739949999959,None,,,,,,,,,,,,,,,,,96,001,2023_May_11_1122,SpeechDraft1Carolyn_lessNoise_PlusLocalization,2021.2.3,59.8180187509256,
,,,,,,,,nearLeft,-6.5,1,ch1Sound_localizationTask.wav,-6.5,"(857, 878)","(-103,-202)",-95,-338,,,,,,,,,4,5,33,2,,,,,,,,,,,,,,,,,,,,,,,,,,,,,,,,,,,,,,,,,,,,868.423304291995,None,869.5181259999954,None,870.4401303339982,None,1.4984126984126984,0.4660094159989967,870.4401303339982,None,,,,,,,,,,,,,,,,,96,001,2023_May_11_1122,SpeechDraft1Carolyn_lessNoise_PlusLocalization,2021.2.3,59.8180187509256,
,,,,,,,,farLeft,-19.1,5,ch1Sound_localizationTask.wav,-19.1,"(667, 878)","(-293,-202)",-285,-338,,,,,,,,,4,6,34,0,,,,,,,,,,,,,,,,,,,,,,,,,,,,,,,,,,,,,,,,,,,,870.9238565839987,None,872.018260208999,None,872.9404202919977,None,1.325925925925926,0.6156382080007461,872.9404202919977,None,,,,,,,,,,,,,,,,,96,001,2023_May_11_1122,SpeechDraft1Carolyn_lessNoise_PlusLocalization,2021.2.3,59.8180187509256,
,,,,,,,,farRight,19.1,4,ch1Sound_localizationTask.wav,19.1,"(1237, 878)","(277,-202)",285,-338,,,,,,,,,5,0,35,6,,,,,,,,,,,,,,,,,,,,,,,,,,,,,,,,,,,,,,,,,,,,873.5732450419964,None,874.6698094999956,None,875.5901746249947,None,1.6084656084656084,0.6323124159971485,875.5901746249947,None,,,,,,,,,,,,,,,,,96,001,2023_May_11_1122,SpeechDraft1Carolyn_lessNoise_PlusLocalization,2021.2.3,59.8180187509256,
,,,,,,,,nearLeft,-6.5,1,ch1Sound_localizationTask.wav,-6.5,"(857, 878)","(-103,-202)",-95,-338,,,,,,,,,5,1,36,2,,,,,,,,,,,,,,,,,,,,,,,,,,,,,,,,,,,,,,,,,,,,876.240480374996,None,877.334773083996,None,878.2573022500001,None,1.4957671957671956,0.6307228749938076,878.2573022500001,None,,,,,,,,,,,,,,,,,96,001,2023_May_11_1122,SpeechDraft1Carolyn_lessNoise_PlusLocalization,2021.2.3,59.8180187509256,
,,,,,,,,farLeft,-19.1,5,ch1Sound_localizationTask.wav,-19.1,"(667, 878)","(-293,-202)",-285,-338,,,,,,,,,5,2,37,0,,,,,,,,,,,,,,,,,,,,,,,,,,,,,,,,,,,,,,,,,,,,878.9069016249996,None,880.001771958996,None,880.9242851669987,None,1.2931216931216931,0.7162719580010162,880.9242851669987,None,,,,,,,,,,,,,,,,,96,001,2023_May_11_1122,SpeechDraft1Carolyn_lessNoise_PlusLocalization,2021.2.3,59.8180187509256,
,,,,,,,,center,0.0,6,ch1Sound_localizationTask.wav,0.0,"(952, 878)","(-8,-202)",0,-338,,,,,,,,,5,3,38,3,,,,,,,,,,,,,,,,,,,,,,,,,,,,,,,,,,,,,,,,,,,,881.6564954999994,None,882.7526834999953,None,883.6735135419949,None,1.4666666666666668,0.8020601250027539,883.6735135419949,None,,,,,,,,,,,,,,,,,96,001,2023_May_11_1122,SpeechDraft1Carolyn_lessNoise_PlusLocalization,2021.2.3,59.8180187509256,
,,,,,,,,nearRight,6.5,0,ch1Sound_localizationTask.wav,6.5,"(1047, 878)","(87, -202)",95,-338,,,,,,,,,5,4,39,4,,,,,,,,,,,,,,,,,,,,,,,,,,,,,,,,,,,,,,,,,,,,884.4904174170006,None,885.5847903749964,None,886.5069364169976,None,1.4978835978835978,0.46613483400142286,886.5069364169976,None,,,,,,,,,,,,,,,,,96,001,2023_May_11_1122,SpeechDraft1Carolyn_lessNoise_PlusLocalization,2021.2.3,59.8180187509256,
,,,,,,,,nearLeft,-6.5,1,ch1Sound_localizationTask.wav,-6.5,"(857, 878)","(-103,-202)",-95,-338,,,,,,,,,5,5,40,2,,,,,,,,,,,,,,,,,,,,,,,,,,,,,,,,,,,,,,,,,,,,886.9903044999955,None,888.0863895000002,None,889.0070552920006,None,1.506878306878307,0.3672590409987606,889.0070552920006,None,,,,,,,,,,,,,,,,,96,001,2023_May_11_1122,SpeechDraft1Carolyn_lessNoise_PlusLocalization,2021.2.3,59.8180187509256,
,,,,,,,,farLeft,-19.1,5,ch1Sound_localizationTask.wav,-19.1,"(667, 878)","(-293,-202)",-285,-338,,,,,,,,,5,6,41,0,,,,,,,,,,,,,,,,,,,,,,,,,,,,,,,,,,,,,,,,,,,,889.3907322089945,None,890.4852613339972,None,891.406863583994,None,1.3111111111111111,0.6820859579966054,891.406863583994,None,,,,,,,,,,,,,,,,,96,001,2023_May_11_1122,SpeechDraft1Carolyn_lessNoise_PlusLocalization,2021.2.3,59.8180187509256,
,,,,,,,,nearRight,6.5,0,ch1Sound_localizationTask.wav,6.5,"(1047, 878)","(87, -202)",95,-338,,,,,,,,,6,0,42,4,,,,,,,,,,,,,,,,,,,,,,,,,,,,,,,,,,,,,,,,,,,,892.1069037499983,None,893.2027669169984,None,894.1235704169958,None,1.5126984126984127,0.6832258750000619,894.1235704169958,None,,,,,,,,,,,,,,,,,96,001,2023_May_11_1122,SpeechDraft1Carolyn_lessNoise_PlusLocalization,2021.2.3,59.8180187509256,
,,,,,,,,farRight,19.1,4,ch1Sound_localizationTask.wav,19.1,"(1237, 878)","(277,-202)",285,-338,,,,,,,,,6,1,43,6,,,,,,,,,,,,,,,,,,,,,,,,,,,,,,,,,,,,,,,,,,,,894.8238943749966,None,895.918435708998,None,896.8406535419999,None,1.6015873015873017,0.6152977910023765,896.8406535419999,None,,,,,,,,,,,,,,,,,96,001,2023_May_11_1122,SpeechDraft1Carolyn_lessNoise_PlusLocalization,2021.2.3,59.8180187509256,
,,,,,,,,farRight,19.1,4,ch1Sound_localizationTask.wav,19.1,"(1237, 878)","(277,-202)",285,-338,,,,,,,,,6,2,44,6,,,,,,,,,,,,,,,,,,,,,,,,,,,,,,,,,,,,,,,,,,,,897.4743439589947,None,898.5677803750004,None,899.4905553749995,None,1.5947089947089947,0.4493182909936877,899.4905553749995,None,,,,,,,,,,,,,,,,,96,001,2023_May_11_1122,SpeechDraft1Carolyn_lessNoise_PlusLocalization,2021.2.3,59.8180187509256,
,,,,,,,,midRight,13.0,3,ch1Sound_localizationTask.wav,13.0,"(1142, 878)","(182, -202)",190,-338,,,,,,,,,6,3,45,5,,,,,,,,,,,,,,,,,,,,,,,,,,,,,,,,,,,,,,,,,,,,899.956816083999,None,901.0518327919999,None,901.9740288339963,None,1.5428571428571427,0.3989705839994713,901.9740288339963,None,,,,,,,,,,,,,,,,,96,001,2023_May_11_1122,SpeechDraft1Carolyn_lessNoise_PlusLocalization,2021.2.3,59.8180187509256,
,,,,,,,,nearLeft,-6.5,1,ch1Sound_localizationTask.wav,-6.5,"(857, 878)","(-103,-202)",-95,-338,,,,,,,,,6,4,46,2,,,,,,,,,,,,,,,,,,,,,,,,,,,,,,,,,,,,,,,,,,,,902.3902783339945,None,903.4849997089987,None,904.4076672499941,None,1.4994708994708994,0.3328456660019583,904.4076672499941,None,,,,,,,,,,,,,,,,,96,001,2023_May_11_1122,SpeechDraft1Carolyn_lessNoise_PlusLocalization,2021.2.3,59.8180187509256,
,,,,,,,,farLeft,-19.1,5,ch1Sound_localizationTask.wav,-19.1,"(667, 878)","(-293,-202)",-285,-338,,,,,,,,,6,5,47,0,,,,,,,,,,,,,,,,,,,,,,,,,,,,,,,,,,,,,,,,,,,,904.7565671249977,None,905.8522211249947,None,906.7742312089977,None,1.2777777777777777,0.6151845420026802,906.7742312089977,None,,,,,,,,,,,,,,,,,96,001,2023_May_11_1122,SpeechDraft1Carolyn_lessNoise_PlusLocalization,2021.2.3,59.8180187509256,
,,,,,,,,midRight,13.0,3,ch1Sound_localizationTask.wav,13.0,"(1142, 878)","(182, -202)",190,-338,,,,,,,,,6,6,48,5,,,,,,,,,,,,,,,,,,,,,,,,,,,,,,,,,,,,,,,,,,,,907.4066926249943,None,908.5026010000001,None,909.4233157089984,None,1.5682539682539682,0.7478940419969149,909.4233157089984,None,,,,,,,,,,,,,,,,,96,001,2023_May_11_1122,SpeechDraft1Carolyn_lessNoise_PlusLocalization,2021.2.3,59.8180187509256,
,,,,,,,,midLeft,-13.0,2,ch1Sound_localizationTask.wav,-13.0,"(762, 878)","(-198,-202)",-190,-338,,,,,,,,,7,0,49,1,,,,,,,,,,,,,,,,,,,,,,,,,,,,,,,,,,,,,,,,,,,,910.1901501249959,None,911.2858127919972,None,912.2075110839942,None,1.2873015873015872,0.7153702909999993,912.2075110839942,None,,,,,,,,,,,,,,,,,96,001,2023_May_11_1122,SpeechDraft1Carolyn_lessNoise_PlusLocalization,2021.2.3,59.8180187509256,
,,,,,,,,midLeft,-13.0,2,ch1Sound_localizationTask.wav,-13.0,"(762, 878)","(-198,-202)",-190,-338,,,,,,,,,7,1,50,1,,,,,,,,,,,,,,,,,,,,,,,,,,,,,,,,,,,,,,,,,,,,912.9399732499951,None,914.0357607919941,None,914.9576249589954,None,1.3126984126984127,0.5502570410026237,914.9576249589954,None,,,,,,,,,,,,,,,,,96,001,2023_May_11_1122,SpeechDraft1Carolyn_lessNoise_PlusLocalization,2021.2.3,59.8180187509256,
,,,,,,,,farLeft,-19.1,5,ch1Sound_localizationTask.wav,-19.1,"(667, 878)","(-293,-202)",-285,-338,,,,,,,,,7,2,51,0,,,,,,,,,,,,,,,,,,,,,,,,,,,,,,,,,,,,,,,,,,,,915.523607749994,None,916.6169844999968,None,917.5405339169956,None,1.2984126984126985,0.7995765000014217,917.5405339169956,None,,,,,,,,,,,,,,,,,96,001,2023_May_11_1122,SpeechDraft1Carolyn_lessNoise_PlusLocalization,2021.2.3,59.8180187509256,
,,,,,,,,farLeft,-19.1,5,ch1Sound_localizationTask.wav,-19.1,"(667, 878)","(-293,-202)",-285,-338,,,,,,,,,7,3,52,0,,,,,,,,,,,,,,,,,,,,,,,,,,,,,,,,,,,,,,,,,,,,918.3568967499959,None,919.4516302919947,None,920.3742122499971,None,1.3126984126984127,0.4834292910018121,920.3742122499971,None,,,,,,,,,,,,,,,,,96,001,2023_May_11_1122,SpeechDraft1Carolyn_lessNoise_PlusLocalization,2021.2.3,59.8180187509256,
,,,,,,,,nearLeft,-6.5,1,ch1Sound_localizationTask.wav,-6.5,"(857, 878)","(-103,-202)",-95,-338,,,,,,,,,7,4,53,2,,,,,,,,,,,,,,,,,,,,,,,,,,,,,,,,,,,,,,,,,,,,920.873693124995,None,921.9684004169976,None,922.8906933749968,None,1.498941798941799,0.9635700420039939,922.8906933749968,None,,,,,,,,,,,,,,,,,96,001,2023_May_11_1122,SpeechDraft1Carolyn_lessNoise_PlusLocalization,2021.2.3,59.8180187509256,
,,,,,,,,center,0.0,6,ch1Sound_localizationTask.wav,0.0,"(952, 878)","(-8,-202)",0,-338,,,,,,,,,7,5,54,3,,,,,,,,,,,,,,,,,,,,,,,,,,,,,,,,,,,,,,,,,,,,923.8738170840006,None,924.9685593339964,None,925.8906782919948,None,1.4703703703703703,0.3166398749963264,925.8906782919948,None,,,,,,,,,,,,,,,,,96,001,2023_May_11_1122,SpeechDraft1Carolyn_lessNoise_PlusLocalization,2021.2.3,59.8180187509256,
,,,,,,,,midRight,13.0,3,ch1Sound_localizationTask.wav,13.0,"(1142, 878)","(182, -202)",190,-338,,,,,,,,,7,6,55,5,,,,,,,,,,,,,,,,,,,,,,,,,,,,,,,,,,,,,,,,,,,,926.2231622499967,None,927.3193345839973,None,928.240698333997,None,1.5328042328042328,0.515707749997091,928.240698333997,None,,,,,,,,,,,,,,,,,96,001,2023_May_11_1122,SpeechDraft1Carolyn_lessNoise_PlusLocalization,2021.2.3,59.8180187509256,
,,,,,,,,,,,,,,,,,,,,,,,,,,,,,,,,,,,,,,,,,,,,,,,,,,,,,,,,,,,,,,,,,,,,,,,,,,,,,,,,,,space,13.44535399999586,928.8577057090006,None,,,,,,,,,,,,,96,001,2023_May_11_1122,SpeechDraft1Carolyn_lessNoise_PlusLocalization,2021.2.3,59.8180187509256,
,,,,,,,,farRight,19.1,4,ch1Sound_localizationTask.wav,19.1,"(1237, 878)","(277,-202)",285,-338,,,,,,,,,,,,,0,0,0,6,,,,,,,,,,,,,,,,,,,,,,,,,,,,,,,,,,,,,,,,942.3235479590003,None,,,945.3259545420005,None,1.6455026455026456,1.1568947909981944,945.3259545420005,None,,,,,928.8577057090006,None,943.3239030419936,None,943.490686666999,943.5069362089998,,,,,,,96,001,2023_May_11_1122,SpeechDraft1Carolyn_lessNoise_PlusLocalization,2021.2.3,59.8180187509256,
,,,,,,,,midLeft,-13.0,2,ch1Sound_localizationTask.wav,-13.0,"(762, 878)","(-198,-202)",-190,-338,,,,,,,,,,,,,0,1,1,1,,,,,,,,,,,,,,,,,,,,,,,,,,,,,,,,,,,,,,,,946.5070280839936,None,,,949.5071973749946,None,1.4010582010582011,0.7824330410003313,949.5071973749946,None,,,,,,,947.5075032089953,None,947.6907295839992,947.7072716669936,,,,,,,96,001,2023_May_11_1122,SpeechDraft1Carolyn_lessNoise_PlusLocalization,2021.2.3,59.8180187509256,
,,,,,,,,nearRight,6.5,0,ch1Sound_localizationTask.wav,6.5,"(1047, 878)","(87, -202)",95,-338,,,,,,,,,,,,,0,2,2,4,,,,,,,,,,,,,,,,,,,,,,,,,,,,,,,,,,,,,,,,950.3072777089983,None,,,953.3072273340003,None,1.574074074074074,0.7464924169980804,953.3072273340003,None,,,,,,,951.3077797089936,None,951.491032209,951.5075172500001,,,,,,,96,001,2023_May_11_1122,SpeechDraft1Carolyn_lessNoise_PlusLocalization,2021.2.3,59.8180187509256,
,,,,,,,,midRight,13.0,3,ch1Sound_localizationTask.wav,13.0,"(1142, 878)","(182, -202)",190,-338,,,,,,,,,,,,,0,3,3,5,,,,,,,,,,,,,,,,,,,,,,,,,,,,,,,,,,,,,,,,954.0737259999951,None,,,957.0739961250001,None,1.607936507936508,0.8148662090025027,957.0739961250001,None,,,,,,,955.073213083997,None,955.2571782499945,955.2734095839987,,,,,,,96,001,2023_May_11_1122,SpeechDraft1Carolyn_lessNoise_PlusLocalization,2021.2.3,59.8180187509256,
,,,,,,,,nearLeft,-6.5,1,ch1Sound_localizationTask.wav,-6.5,"(857, 878)","(-103,-202)",-95,-338,,,,,,,,,,,,,0,4,4,2,,,,,,,,,,,,,,,,,,,,,,,,,,,,,,,,,,,,,,,,957.9071502919978,None,,,960.9072471670006,None,1.4465608465608466,0.8159693330017035,960.9072471670006,None,,,,,,,958.9077362919998,None,959.0742230839969,959.0906644169954,,,,,,,96,001,2023_May_11_1122,SpeechDraft1Carolyn_lessNoise_PlusLocalization,2021.2.3,59.8180187509256,
,,,,,,,,farLeft,-19.1,5,ch1Sound_localizationTask.wav,-19.1,"(667, 878)","(-293,-202)",-285,-338,,,,,,,,,,,,,0,5,5,0,,,,,,,,,,,,,,,,,,,,,,,,,,,,,,,,,,,,,,,,961.7406304589967,None,,,964.7408376669991,None,1.335978835978836,1.0015072919995873,964.7408376669991,None,,,,,,,962.740920583994,None,962.9070706669954,962.9236100419948,,,,,,,96,001,2023_May_11_1122,SpeechDraft1Carolyn_lessNoise_PlusLocalization,2021.2.3,59.8180187509256,
,,,,,,,,midRight,13.0,3,ch1Sound_localizationTask.wav,13.0,"(1142, 878)","(182, -202)",190,-338,,,,,,,,,,,,,0,6,6,5,,,,,,,,,,,,,,,,,,,,,,,,,,,,,,,,,,,,,,,,965.7570473749947,None,,,968.757229584,None,1.6142857142857143,1.5005281249977998,968.757229584,None,,,,,,,966.7573600839969,None,966.9411760419971,966.9578892089994,,,,,,,96,001,2023_May_11_1122,SpeechDraft1Carolyn_lessNoise_PlusLocalization,2021.2.3,59.8180187509256,
,,,,,,,,midLeft,-13.0,2,ch1Sound_localizationTask.wav,-13.0,"(762, 878)","(-198,-202)",-190,-338,,,,,,,,,,,,,1,0,7,1,,,,,,,,,,,,,,,,,,,,,,,,,,,,,,,,,,,,,,,,970.2741986249966,None,,,973.2739501670003,None,1.4047619047619047,0.6812176659950637,973.2739501670003,None,,,,,,,971.2738392089959,None,971.457395958998,971.4735639169958,,,,,,,96,001,2023_May_11_1122,SpeechDraft1Carolyn_lessNoise_PlusLocalization,2021.2.3,59.8180187509256,
,,,,,,,,farRight,19.1,4,ch1Sound_localizationTask.wav,19.1,"(1237, 878)","(277,-202)",285,-338,,,,,,,,,,,,,1,1,8,6,,,,,,,,,,,,,,,,,,,,,,,,,,,,,,,,,,,,,,,,973.9738797499958,None,,,976.9740155420004,None,1.6539682539682539,1.049911540998437,976.9740155420004,None,,,,,,,974.9741983749991,None,975.1576211669963,975.1742164169991,,,,,,,96,001,2023_May_11_1122,SpeechDraft1Carolyn_lessNoise_PlusLocalization,2021.2.3,59.8180187509256,
,,,,,,,,farLeft,-19.1,5,ch1Sound_localizationTask.wav,-19.1,"(667, 878)","(-293,-202)",-285,-338,,,,,,,,,,,,,1,2,9,0,,,,,,,,,,,,,,,,,,,,,,,,,,,,,,,,,,,,,,,,978.0408869589955,None,,,981.0411903749991,None,1.3328042328042329,1.3660764579981333,981.0411903749991,None,,,,,,,979.0404613339997,None,979.2243342919974,979.2410214589981,,,,,,,96,001,2023_May_11_1122,SpeechDraft1Carolyn_lessNoise_PlusLocalization,2021.2.3,59.8180187509256,
,,,,,,,,midRight,13.0,3,ch1Sound_localizationTask.wav,13.0,"(1142, 878)","(182, -202)",190,-338,,,,,,,,,,,,,1,3,10,5,,,,,,,,,,,,,,,,,,,,,,,,,,,,,,,,,,,,,,,,982.424793541999,None,,,985.4238807919974,None,1.6063492063492064,0.9474448749970179,985.4238807919974,None,,,,,,,983.4241323749957,None,983.6078041669971,983.624376791995,,,,,,,96,001,2023_May_11_1122,SpeechDraft1Carolyn_lessNoise_PlusLocalization,2021.2.3,59.8180187509256,
,,,,,,,,center,0.0,6,ch1Sound_localizationTask.wav,0.0,"(952, 878)","(-8,-202)",0,-338,,,,,,,,,,,,,1,4,11,3,,,,,,,,,,,,,,,,,,,,,,,,,,,,,,,,,,,,,,,,986.3908606669938,None,,,989.3908267919978,None,1.5010582010582012,0.7302804999999353,989.3908267919978,None,,,,,,,987.3910199169986,None,987.5742106249963,987.5909637089935,,,,,,,96,001,2023_May_11_1122,SpeechDraft1Carolyn_lessNoise_PlusLocalization,2021.2.3,59.8180187509256,
,,,,,,,,nearRight,6.5,0,ch1Sound_localizationTask.wav,6.5,"(1047, 878)","(87, -202)",95,-338,,,,,,,,,,,,,1,5,12,4,,,,,,,,,,,,,,,,,,,,,,,,,,,,,,,,,,,,,,,,990.140445416997,None,,,993.1404516249968,None,1.58994708994709,0.9635172080015764,993.1404516249968,None,,,,,,,991.1412698749991,None,991.3078252499981,991.3244168749952,,,,,,,96,001,2023_May_11_1122,SpeechDraft1Carolyn_lessNoise_PlusLocalization,2021.2.3,59.8180187509256,
,,,,,,,,farRight,19.1,4,ch1Sound_localizationTask.wav,19.1,"(1237, 878)","(277,-202)",285,-338,,,,,,,,,,,,,1,6,13,6,,,,,,,,,,,,,,,,,,,,,,,,,,,,,,,,,,,,,,,,994.1233288749936,None,,,997.1237025419978,None,1.6693121693121693,0.6299582499996177,997.1237025419978,None,,,,,,,995.1238032499969,None,995.3072251669946,995.3241038339984,,,,,,,96,001,2023_May_11_1122,SpeechDraft1Carolyn_lessNoise_PlusLocalization,2021.2.3,59.8180187509256,
,,,,,,,,nearLeft,-6.5,1,ch1Sound_localizationTask.wav,-6.5,"(857, 878)","(-103,-202)",-95,-338,,,,,,,,,,,,,2,0,14,2,,,,,,,,,,,,,,,,,,,,,,,,,,,,,,,,,,,,,,,,997.7739704169944,None,,,1000.7740879999983,None,1.4513227513227513,0.6986741669970797,1000.7740879999983,None,,,,,,,998.7736068749946,None,998.9573208749935,998.9735615839963,,,,,,,96,001,2023_May_11_1122,SpeechDraft1Carolyn_lessNoise_PlusLocalization,2021.2.3,59.8180187509256,
,,,,,,,,midLeft,-13.0,2,ch1Sound_localizationTask.wav,-13.0,"(762, 878)","(-198,-202)",-190,-338,,,,,,,,,,,,,2,1,15,1,,,,,,,,,,,,,,,,,,,,,,,,,,,,,,,,,,,,,,,,1001.4901300839992,None,,,1004.4908419999992,None,1.3761904761904762,0.8336695839971071,1004.4908419999992,None,,,,,,,1002.491251499996,None,1002.6742006249988,1002.6905408339953,,,,,,,96,001,2023_May_11_1122,SpeechDraft1Carolyn_lessNoise_PlusLocalization,2021.2.3,59.8180187509256,
,,,,,,,,farLeft,-19.1,5,ch1Sound_localizationTask.wav,-19.1,"(667, 878)","(-293,-202)",-285,-338,,,,,,,,,,,,,2,2,16,0,,,,,,,,,,,,,,,,,,,,,,,,,,,,,,,,,,,,,,,,1005.3401616249976,None,,,1008.3408417499959,None,1.3433862433862434,0.7014789589957218,1008.3408417499959,None,,,,,,,1006.340933333995,None,1006.5077492919954,1006.5243619169996,,,,,,,96,001,2023_May_11_1122,SpeechDraft1Carolyn_lessNoise_PlusLocalization,2021.2.3,59.8180187509256,
,,,,,,,,farRight,19.1,4,ch1Sound_localizationTask.wav,19.1,"(1237, 878)","(277,-202)",285,-338,,,,,,,,,,,,,2,3,17,6,,,,,,,,,,,,,,,,,,,,,,,,,,,,,,,,,,,,,,,,1009.0572219999958,None,,,1012.0576421669975,None,1.6534391534391535,0.6166904999990948,1012.0576421669975,None,,,,,,,1010.0578666250003,None,1010.2242119589937,1010.2409459999981,,,,,,,96,001,2023_May_11_1122,SpeechDraft1Carolyn_lessNoise_PlusLocalization,2021.2.3,59.8180187509256,
,,,,,,,,farLeft,-19.1,5,ch1Sound_localizationTask.wav,-19.1,"(667, 878)","(-293,-202)",-285,-338,,,,,,,,,,,,,2,4,18,0,,,,,,,,,,,,,,,,,,,,,,,,,,,,,,,,,,,,,,,,1012.6903854169941,None,,,1015.6913004169983,None,1.3322751322751323,1.0311197919945698,1015.6913004169983,None,,,,,,,1013.6905465839955,None,1013.8740147499993,1013.8906333339983,,,,,,,96,001,2023_May_11_1122,SpeechDraft1Carolyn_lessNoise_PlusLocalization,2021.2.3,59.8180187509256,
,,,,,,,,midLeft,-13.0,2,ch1Sound_localizationTask.wav,-13.0,"(762, 878)","(-198,-202)",-190,-338,,,,,,,,,,,,,2,5,19,1,,,,,,,,,,,,,,,,,,,,,,,,,,,,,,,,,,,,,,,,1016.7404825839985,None,,,1019.7407654169947,None,1.4153439153439153,0.7312336249960936,1019.7407654169947,None,,,,,,,1017.7406799999953,None,1017.9249137919978,1017.9408822089972,,,,,,,96,001,2023_May_11_1122,SpeechDraft1Carolyn_lessNoise_PlusLocalization,2021.2.3,59.8180187509256,
,,,,,,,,midLeft,-13.0,2,ch1Sound_localizationTask.wav,-13.0,"(762, 878)","(-198,-202)",-190,-338,,,,,,,,,,,,,2,6,20,1,,,,,,,,,,,,,,,,,,,,,,,,,,,,,,,,,,,,,,,,1020.490893958995,None,,,1023.4909281250002,None,1.3925925925925926,0.6493966249981895,1023.4909281250002,None,,,,,,,1021.4906639999972,None,1021.673805583996,1021.6910428339979,,,,,,,96,001,2023_May_11_1122,SpeechDraft1Carolyn_lessNoise_PlusLocalization,2021.2.3,59.8180187509256,
,,,,,,,,center,0.0,6,ch1Sound_localizationTask.wav,0.0,"(952, 878)","(-8,-202)",0,-338,,,,,,,,,,,,,3,0,21,3,,,,,,,,,,,,,,,,,,,,,,,,,,,,,,,,,,,,,,,,1024.157003083994,None,,,1027.1579284170002,None,1.5037037037037035,0.9992842089995975,1027.1579284170002,None,,,,,,,1025.157673499998,None,1025.3410426249975,1025.357138333995,,,,,,,96,001,2023_May_11_1122,SpeechDraft1Carolyn_lessNoise_PlusLocalization,2021.2.3,59.8180187509256,
,,,,,,,,farLeft,-19.1,5,ch1Sound_localizationTask.wav,-19.1,"(667, 878)","(-293,-202)",-285,-338,,,,,,,,,,,,,3,1,22,0,,,,,,,,,,,,,,,,,,,,,,,,,,,,,,,,,,,,,,,,1028.1741754999966,None,,,1031.1747321669973,None,1.3592592592592592,0.6487781249961699,1031.1747321669973,None,,,,,,,1029.1739086249945,None,1029.340881917,1029.3571361249997,,,,,,,96,001,2023_May_11_1122,SpeechDraft1Carolyn_lessNoise_PlusLocalization,2021.2.3,59.8180187509256,
,,,,,,,,midLeft,-13.0,2,ch1Sound_localizationTask.wav,-13.0,"(762, 878)","(-198,-202)",-190,-338,,,,,,,,,,,,,3,2,23,1,,,,,,,,,,,,,,,,,,,,,,,,,,,,,,,,,,,,,,,,1031.8408189170004,None,,,1034.84062825,None,1.4052910052910053,0.6830205000005662,1034.84062825,None,,,,,,,1032.8405110839958,None,1033.007878958997,1033.0249785839987,,,,,,,96,001,2023_May_11_1122,SpeechDraft1Carolyn_lessNoise_PlusLocalization,2021.2.3,59.8180187509256,
,,,,,,,,nearLeft,-6.5,1,ch1Sound_localizationTask.wav,-6.5,"(857, 878)","(-103,-202)",-95,-338,,,,,,,,,,,,,3,3,24,2,,,,,,,,,,,,,,,,,,,,,,,,,,,,,,,,,,,,,,,,1035.5409319999962,None,,,1038.5403285840002,None,1.4486772486772486,0.6981678339943755,1038.5403285840002,None,,,,,,,1036.540781124997,None,1036.724149333997,1036.7409469999984,,,,,,,96,001,2023_May_11_1122,SpeechDraft1Carolyn_lessNoise_PlusLocalization,2021.2.3,59.8180187509256,
,,,,,,,,midLeft,-13.0,2,ch1Sound_localizationTask.wav,-13.0,"(762, 878)","(-198,-202)",-190,-338,,,,,,,,,,,,,3,4,25,1,,,,,,,,,,,,,,,,,,,,,,,,,,,,,,,,,,,,,,,,1039.2573114999977,None,,,1042.2573328750004,None,1.403174603174603,0.8149479589992552,1042.2573328750004,None,,,,,,,1040.2575491249954,None,1040.4410593339999,1040.4575858339958,,,,,,,96,001,2023_May_11_1122,SpeechDraft1Carolyn_lessNoise_PlusLocalization,2021.2.3,59.8180187509256,
,,,,,,,,center,0.0,6,ch1Sound_localizationTask.wav,0.0,"(952, 878)","(-8,-202)",0,-338,,,,,,,,,,,,,3,5,26,3,,,,,,,,,,,,,,,,,,,,,,,,,,,,,,,,,,,,,,,,1043.0902825839948,None,,,1046.0910779169935,None,1.5132275132275133,0.6987697080039652,1046.0910779169935,None,,,,,,,1044.0911090839945,None,1044.2738446669973,1044.2914013339978,,,,,,,96,001,2023_May_11_1122,SpeechDraft1Carolyn_lessNoise_PlusLocalization,2021.2.3,59.8180187509256,
,,,,,,,,nearLeft,-6.5,1,ch1Sound_localizationTask.wav,-6.5,"(857, 878)","(-103,-202)",-95,-338,,,,,,,,,,,,,3,6,27,2,,,,,,,,,,,,,,,,,,,,,,,,,,,,,,,,,,,,,,,,1046.8068211249993,None,,,1049.8072717920004,None,1.4439153439153438,0.9660278750016005,1049.8072717920004,None,,,,,,,1047.8081020419995,None,1047.9908848339983,1048.0069066669967,,,,,,,96,001,2023_May_11_1122,SpeechDraft1Carolyn_lessNoise_PlusLocalization,2021.2.3,59.8180187509256,
,,,,,,,,nearRight,6.5,0,ch1Sound_localizationTask.wav,6.5,"(1047, 878)","(87, -202)",95,-338,,,,,,,,,,,,,4,0,28,4,,,,,,,,,,,,,,,,,,,,,,,,,,,,,,,,,,,,,,,,1050.7907563339977,None,,,1053.790929458999,None,1.5714285714285714,0.9662813329996425,1053.790929458999,None,,,,,,,1051.7910461669962,None,1051.9739457920004,1051.9902647089984,,,,,,,96,001,2023_May_11_1122,SpeechDraft1Carolyn_lessNoise_PlusLocalization,2021.2.3,59.8180187509256,
,,,,,,,,nearRight,6.5,0,ch1Sound_localizationTask.wav,6.5,"(1047, 878)","(87, -202)",95,-338,,,,,,,,,,,,,4,1,29,4,,,,,,,,,,,,,,,,,,,,,,,,,,,,,,,,,,,,,,,,1054.7738801249943,None,,,1057.7739462499958,None,1.5634920634920635,0.7154502499979571,1057.7739462499958,None,,,,,,,1055.7744134999957,None,1055.9574859169952,1055.974007124998,,,,,,,96,001,2023_May_11_1122,SpeechDraft1Carolyn_lessNoise_PlusLocalization,2021.2.3,59.8180187509256,
,,,,,,,,center,0.0,6,ch1Sound_localizationTask.wav,0.0,"(952, 878)","(-8,-202)",0,-338,,,,,,,,,,,,,4,2,30,3,,,,,,,,,,,,,,,,,,,,,,,,,,,,,,,,,,,,,,,,1058.507561874998,None,,,1061.5073270419962,None,1.4994708994708994,0.6646418750024168,1061.5073270419962,None,,,,,,,1059.5081389999978,None,1059.6909314589939,1059.7073997089974,,,,,,,96,001,2023_May_11_1122,SpeechDraft1Carolyn_lessNoise_PlusLocalization,2021.2.3,59.8180187509256,
,,,,,,,,center,0.0,6,ch1Sound_localizationTask.wav,0.0,"(952, 878)","(-8,-202)",0,-338,,,,,,,,,,,,,4,3,31,3,,,,,,,,,,,,,,,,,,,,,,,,,,,,,,,,,,,,,,,,1062.1903983339944,None,,,1065.1911368749934,None,1.5005291005291004,0.4806775420001941,1065.1911368749934,None,,,,,,,1063.1909068749956,None,1063.3579610419984,1063.3745277499984,,,,,,,96,001,2023_May_11_1122,SpeechDraft1Carolyn_lessNoise_PlusLocalization,2021.2.3,59.8180187509256,
,,,,,,,,nearRight,6.5,0,ch1Sound_localizationTask.wav,6.5,"(1047, 878)","(87, -202)",95,-338,,,,,,,,,,,,,4,4,32,4,,,,,,,,,,,,,,,,,,,,,,,,,,,,,,,,,,,,,,,,1065.6907248749994,None,,,1068.6911869999967,None,1.5671957671957673,0.8148747089944663,1068.6911869999967,None,,,,,,,1066.6914485839952,None,1066.8746309589988,1066.8910907919999,,,,,,,96,001,2023_May_11_1122,SpeechDraft1Carolyn_lessNoise_PlusLocalization,2021.2.3,59.8180187509256,
,,,,,,,,center,0.0,6,ch1Sound_localizationTask.wav,0.0,"(952, 878)","(-8,-202)",0,-338,,,,,,,,,,,,,4,5,33,3,,,,,,,,,,,,,,,,,,,,,,,,,,,,,,,,,,,,,,,,1069.5240001249986,None,,,1072.524196333994,None,1.5,1.1138554999997723,1072.524196333994,None,,,,,,,1070.524414749998,None,1070.7078965420005,1070.7243694589997,,,,,,,96,001,2023_May_11_1122,SpeechDraft1Carolyn_lessNoise_PlusLocalization,2021.2.3,59.8180187509256,
,,,,,,,,midRight,13.0,3,ch1Sound_localizationTask.wav,13.0,"(1142, 878)","(182, -202)",190,-338,,,,,,,,,,,,,4,6,34,5,,,,,,,,,,,,,,,,,,,,,,,,,,,,,,,,,,,,,,,,1073.6569937089953,None,,,1076.657833792,None,1.6365079365079365,0.6827910830033943,1076.657833792,None,,,,,,,1074.6579296249984,None,1074.840912708998,1074.8581924589962,,,,,,,96,001,2023_May_11_1122,SpeechDraft1Carolyn_lessNoise_PlusLocalization,2021.2.3,59.8180187509256,
,,,,,,,,nearRight,6.5,0,ch1Sound_localizationTask.wav,6.5,"(1047, 878)","(87, -202)",95,-338,,,,,,,,,,,,,5,0,35,4,,,,,,,,,,,,,,,,,,,,,,,,,,,,,,,,,,,,,,,,1077.358143958998,None,,,1080.3577221249943,None,1.566137566137566,0.7674695000023348,1080.3577221249943,None,,,,,,,1078.3576460419936,None,1078.5241148749992,1078.5408531669964,,,,,,,96,001,2023_May_11_1122,SpeechDraft1Carolyn_lessNoise_PlusLocalization,2021.2.3,59.8180187509256,
,,,,,,,,nearLeft,-6.5,1,ch1Sound_localizationTask.wav,-6.5,"(857, 878)","(-103,-202)",-95,-338,,,,,,,,,,,,,5,1,36,2,,,,,,,,,,,,,,,,,,,,,,,,,,,,,,,,,,,,,,,,1081.1405228749936,None,,,1084.1410195839999,None,1.4396825396825397,0.6154279580005095,1084.1410195839999,None,,,,,,,1082.1410566249979,None,1082.3241746249987,1082.34058525,,,,,,,96,001,2023_May_11_1122,SpeechDraft1Carolyn_lessNoise_PlusLocalization,2021.2.3,59.8180187509256,
,,,,,,,,midRight,13.0,3,ch1Sound_localizationTask.wav,13.0,"(1142, 878)","(182, -202)",190,-338,,,,,,,,,,,,,5,2,37,5,,,,,,,,,,,,,,,,,,,,,,,,,,,,,,,,,,,,,,,,1084.7736871669986,None,,,1087.7741560419963,None,1.6275132275132276,0.765479209003388,1087.7741560419963,None,,,,,,,1085.7740115419947,None,1085.957449374997,1085.9734062499992,,,,,,,96,001,2023_May_11_1122,SpeechDraft1Carolyn_lessNoise_PlusLocalization,2021.2.3,59.8180187509256,
,,,,,,,,farLeft,-19.1,5,ch1Sound_localizationTask.wav,-19.1,"(667, 878)","(-293,-202)",-285,-338,,,,,,,,,,,,,5,3,38,0,,,,,,,,,,,,,,,,,,,,,,,,,,,,,,,,,,,,,,,,1088.5576184589954,None,,,1091.5577308749998,None,1.343915343915344,0.7326584589973208,1091.5577308749998,None,,,,,,,1089.5576521669936,None,1089.7246576670004,1089.7412334999972,,,,,,,96,001,2023_May_11_1122,SpeechDraft1Carolyn_lessNoise_PlusLocalization,2021.2.3,59.8180187509256,
,,,,,,,,farLeft,-19.1,5,ch1Sound_localizationTask.wav,-19.1,"(667, 878)","(-293,-202)",-285,-338,,,,,,,,,,,,,5,4,39,0,,,,,,,,,,,,,,,,,,,,,,,,,,,,,,,,,,,,,,,,1092.3075179999942,None,,,1095.3077391249972,None,1.3412698412698414,0.931821291000233,1095.3077391249972,None,,,,,,,1093.3070119589975,None,1093.4911627499969,1093.5077937499955,,,,,,,96,001,2023_May_11_1122,SpeechDraft1Carolyn_lessNoise_PlusLocalization,2021.2.3,59.8180187509256,
,,,,,,,,nearLeft,-6.5,1,ch1Sound_localizationTask.wav,-6.5,"(857, 878)","(-103,-202)",-95,-338,,,,,,,,,,,,,5,5,40,2,,,,,,,,,,,,,,,,,,,,,,,,,,,,,,,,,,,,,,,,1096.2575639589995,None,,,1099.2567595419969,None,1.447089947089947,0.9179740409963415,1099.2567595419969,None,,,,,,,1097.258159334,None,1097.4247195839998,1097.4410657499975,,,,,,,96,001,2023_May_11_1122,SpeechDraft1Carolyn_lessNoise_PlusLocalization,2021.2.3,59.8180187509256,
,,,,,,,,nearLeft,-6.5,1,ch1Sound_localizationTask.wav,-6.5,"(857, 878)","(-103,-202)",-95,-338,,,,,,,,,,,,,5,6,41,2,,,,,,,,,,,,,,,,,,,,,,,,,,,,,,,,,,,,,,,,1100.1909445419951,None,,,1103.191360208999,None,1.446031746031746,0.7671630830009235,1103.191360208999,None,,,,,,,1101.1907523339978,None,1101.3745472919982,1101.391625749995,,,,,,,96,001,2023_May_11_1122,SpeechDraft1Carolyn_lessNoise_PlusLocalization,2021.2.3,59.8180187509256,
,,,,,,,,center,0.0,6,ch1Sound_localizationTask.wav,0.0,"(952, 878)","(-8,-202)",0,-338,,,,,,,,,,,,,6,0,42,3,,,,,,,,,,,,,,,,,,,,,,,,,,,,,,,,,,,,,,,,1103.973772583995,None,,,1106.9740319999983,None,1.502116402116402,0.9329298339944216,1106.9740319999983,None,,,,,,,1104.974494958995,None,1105.1581724169955,1105.175036834,,,,,,,96,001,2023_May_11_1122,SpeechDraft1Carolyn_lessNoise_PlusLocalization,2021.2.3,59.8180187509256,
,,,,,,,,midRight,13.0,3,ch1Sound_localizationTask.wav,13.0,"(1142, 878)","(182, -202)",190,-338,,,,,,,,,,,,,6,1,43,5,,,,,,,,,,,,,,,,,,,,,,,,,,,,,,,,,,,,,,,,1107.924323542,None,,,1110.9244020839978,None,1.6126984126984127,1.1979183750008815,1110.9244020839978,None,,,,,,,1108.9249426249953,None,1109.107839833996,1109.1245927919954,,,,,,,96,001,2023_May_11_1122,SpeechDraft1Carolyn_lessNoise_PlusLocalization,2021.2.3,59.8180187509256,
,,,,,,,,center,0.0,6,ch1Sound_localizationTask.wav,0.0,"(952, 878)","(-8,-202)",0,-338,,,,,,,,,,,,,6,2,44,3,,,,,,,,,,,,,,,,,,,,,,,,,,,,,,,,,,,,,,,,1112.1408401249937,None,,,1115.1411981669953,None,1.5037037037037035,0.8161473340005614,1115.1411981669953,None,,,,,,,1113.1402130419956,None,1113.3070446669954,1113.324414124996,,,,,,,96,001,2023_May_11_1122,SpeechDraft1Carolyn_lessNoise_PlusLocalization,2021.2.3,59.8180187509256,
,,,,,,,,nearLeft,-6.5,1,ch1Sound_localizationTask.wav,-6.5,"(857, 878)","(-103,-202)",-95,-338,,,,,,,,,,,,,6,3,45,2,,,,,,,,,,,,,,,,,,,,,,,,,,,,,,,,,,,,,,,,1115.9740942089993,None,,,1118.9741412919975,None,1.4402116402116403,0.7839664159982931,1118.9741412919975,None,,,,,,,1116.9737764589954,None,1117.1416426249998,1117.1577627089937,,,,,,,96,001,2023_May_11_1122,SpeechDraft1Carolyn_lessNoise_PlusLocalization,2021.2.3,59.8180187509256,
,,,,,,,,farLeft,-19.1,5,ch1Sound_localizationTask.wav,-19.1,"(667, 878)","(-293,-202)",-285,-338,,,,,,,,,,,,,6,4,46,0,,,,,,,,,,,,,,,,,,,,,,,,,,,,,,,,,,,,,,,,1119.774223417,None,,,1122.7745462089952,None,1.3354497354497354,0.8129590000025928,1122.7745462089952,None,,,,,,,1120.7744864999986,None,1120.9575124999974,1120.9737729169938,,,,,,,96,001,2023_May_11_1122,SpeechDraft1Carolyn_lessNoise_PlusLocalization,2021.2.3,59.8180187509256,
,,,,,,,,farRight,19.1,4,ch1Sound_localizationTask.wav,19.1,"(1237, 878)","(277,-202)",285,-338,,,,,,,,,,,,,6,5,47,6,,,,,,,,,,,,,,,,,,,,,,,,,,,,,,,,,,,,,,,,1123.6071780839993,None,,,1126.6077717499938,None,1.6624338624338624,0.6654793749985402,1126.6077717499938,None,,,,,,,1124.6075920419971,None,1124.791137291999,1124.8081950839987,,,,,,,96,001,2023_May_11_1122,SpeechDraft1Carolyn_lessNoise_PlusLocalization,2021.2.3,59.8180187509256,
,,,,,,,,nearRight,6.5,0,ch1Sound_localizationTask.wav,6.5,"(1047, 878)","(87, -202)",95,-338,,,,,,,,,,,,,6,6,48,4,,,,,,,,,,,,,,,,,,,,,,,,,,,,,,,,,,,,,,,,1127.2908822919999,None,,,1130.291057167,None,1.5677248677248676,0.7657296670004143,1130.291057167,None,,,,,,,1128.2910633749998,None,1128.4748038339967,1128.4903701250005,,,,,,,96,001,2023_May_11_1122,SpeechDraft1Carolyn_lessNoise_PlusLocalization,2021.2.3,59.8180187509256,
,,,,,,,,nearRight,6.5,0,ch1Sound_localizationTask.wav,6.5,"(1047, 878)","(87, -202)",95,-338,,,,,,,,,,,,,7,0,49,4,,,,,,,,,,,,,,,,,,,,,,,,,,,,,,,,,,,,,,,,1131.0739979589998,None,,,1134.0746325419968,None,1.5714285714285714,0.6166261670005042,1134.0746325419968,None,,,,,,,1132.0746564169967,None,1132.2583560839994,1132.275086208996,,,,,,,96,001,2023_May_11_1122,SpeechDraft1Carolyn_lessNoise_PlusLocalization,2021.2.3,59.8180187509256,
,,,,,,,,farRight,19.1,4,ch1Sound_localizationTask.wav,19.1,"(1237, 878)","(277,-202)",285,-338,,,,,,,,,,,,,7,1,50,6,,,,,,,,,,,,,,,,,,,,,,,,,,,,,,,,,,,,,,,,1134.7071951670005,None,,,1137.7080255420005,None,1.6597883597883598,0.8638272500029416,1137.7080255420005,None,,,,,,,1135.7079798339983,None,1135.8911148339976,1135.907006124995,,,,,,,96,001,2023_May_11_1122,SpeechDraft1Carolyn_lessNoise_PlusLocalization,2021.2.3,59.8180187509256,
,,,,,,,,farRight,19.1,4,ch1Sound_localizationTask.wav,19.1,"(1237, 878)","(277,-202)",285,-338,,,,,,,,,,,,,7,2,51,6,,,,,,,,,,,,,,,,,,,,,,,,,,,,,,,,,,,,,,,,1138.5911527499993,None,,,1141.5913561249981,None,1.6777777777777778,1.1323891670035664,1141.5913561249981,None,,,,,,,1139.5911865839953,None,1139.7747131249998,1139.7913176250004,,,,,,,96,001,2023_May_11_1122,SpeechDraft1Carolyn_lessNoise_PlusLocalization,2021.2.3,59.8180187509256,
,,,,,,,,midRight,13.0,3,ch1Sound_localizationTask.wav,13.0,"(1142, 878)","(182, -202)",190,-338,,,,,,,,,,,,,7,3,52,5,,,,,,,,,,,,,,,,,,,,,,,,,,,,,,,,,,,,,,,,1142.7411192090003,None,,,1145.7574929589973,None,1.6195767195767194,0.9833052079993649,1145.7574929589973,None,,,,,,,1143.741896833999,None,1143.9242896249998,1143.9410250839937,,,,,,,96,001,2023_May_11_1122,SpeechDraft1Carolyn_lessNoise_PlusLocalization,2021.2.3,59.8180187509256,
,,,,,,,,midLeft,-13.0,2,ch1Sound_localizationTask.wav,-13.0,"(762, 878)","(-198,-202)",-190,-338,,,,,,,,,,,,,7,4,53,1,,,,,,,,,,,,,,,,,,,,,,,,,,,,,,,,,,,,,,,,1146.7574914169963,None,,,1149.757686291996,None,1.3915343915343916,1.0473488329953398,1149.757686291996,None,,,,,,,1147.7579303339953,None,1147.9415370839997,1147.9579320419944,,,,,,,96,001,2023_May_11_1122,SpeechDraft1Carolyn_lessNoise_PlusLocalization,2021.2.3,59.8180187509256,
,,,,,,,,farRight,19.1,4,ch1Sound_localizationTask.wav,19.1,"(1237, 878)","(277,-202)",285,-338,,,,,,,,,,,,,7,5,54,6,,,,,,,,,,,,,,,,,,,,,,,,,,,,,,,,,,,,,,,,1150.8240252499963,None,,,1153.8244801249966,None,1.673015873015873,0.7987429160057218,1153.8244801249966,None,,,,,,,1151.824064291999,None,1151.9914024999962,1152.008045083996,,,,,,,96,001,2023_May_11_1122,SpeechDraft1Carolyn_lessNoise_PlusLocalization,2021.2.3,59.8180187509256,
,,,,,,,,midRight,13.0,3,ch1Sound_localizationTask.wav,13.0,"(1142, 878)","(182, -202)",190,-338,,,,,,,,,,,,,7,6,55,5,,,,,,,,,,,,,,,,,,,,,,,,,,,,,,,,,,,,,,,,1154.6409752499967,None,,,1157.6410684169969,None,1.615873015873016,1.0176718340007938,1157.6410684169969,None,,,,,,,1155.6413045419977,None,1155.8243315419968,1155.841161833996,,,,,,,96,001,2023_May_11_1122,SpeechDraft1Carolyn_lessNoise_PlusLocalization,2021.2.3,59.8180187509256,
,,,,,,,,,,,,,,,,,,,,,,,,,,,,,,,,,,,,,,,,,,,,,,,,,,,,,,,,,,,,,,,,,,,,,,,,,,,,,,,,,,,,,,,,,,,,1158.6744110839936,None,c,612.8107637069988,1159.6575048339946,None,96,001,2023_May_11_1122,SpeechDraft1Carolyn_lessNoise_PlusLocalization,2021.2.3,59.8180187509256,
