Audio_Only_Files,Video_Files,Original_Word_List,noiseLevelCode,conditionCodes,noiseLevelFile1,noiseLevelFile2,InstrTextVar,practiceTrials.thisRepN,practiceTrials.thisTrialN,practiceTrials.thisN,practiceTrials.thisIndex,trials.thisRepN,trials.thisTrialN,trials.thisN,trials.thisIndex,letsGoAlready.keys,letsGoAlready.rt,letsGoAlready.started,letsGoAlready.stopped,text_2.started,text_2.stopped,text_3.started,text_3.stopped,key_resp_2.keys,key_resp_2.rt,key_resp_2.started,key_resp_2.stopped,text_5.started,text_5.stopped,fixCross.started,fixCross.stopped,fixCross2.started,fixCross2.stopped,answerPrompt.started,answerPrompt.stopped,getAnswer.text,getAnswer.started,getAnswer.stopped,goToNext.keys,goToNext.rt,goToNext.started,goToNext.stopped,stretchBreakTxrt.started,stretchBreakTxrt.stopped,key_resp_3.keys,key_resp_3.rt,key_resp_3.started,key_resp_3.stopped,exitTxt.started,exitTxt.stopped,key_resp.keys,key_resp.rt,key_resp.started,key_resp.stopped,participant,session,date,expName,psychopyVersion,frameRate,
,,,,,,,,,,,,,,,,space,3.0085028809844516,12.724608756019734,None,,,,,,,,,,,,,,,,,,,,,,,,,,,,,,,,,,,,9,001,2023_Feb_07_1932,SpeechDraft1Carolyn_lessNoise,2021.2.3,59.96461799516943,
,,,,,,,,,,,,,,,,,,,,12.724608756019734,None,15.757981854025275,None,space,20.13652317400556,15.924682696000673,None,,,,,,,,,,,,,,,,,,,,,,,,,,,,9,001,2023_Feb_07_1932,SpeechDraft1Carolyn_lessNoise,2021.2.3,59.96461799516943,
ash.wav,ash.mpg,ash,1,A,Pink_Noise_1_1.wav,Pink_Noise_1_2.wav,"This is an example of an

AUDIO trial",0,0,0,0,,,,,,,,,,,,,,,,,36.12462820002111,None,37.10806337202666,None,40.274408224009676,None,41.6578088630049,None,ash,41.6578088630049,None,return,4.256141471996671,41.74116251801024,None,,,,,,,,,,,,,9,001,2023_Feb_07_1932,SpeechDraft1Carolyn_lessNoise,2021.2.3,59.96461799516943,
ash.wav,ash.mpg,ash,1,AV,Pink_Noise_1_1.wav,Pink_Noise_1_2.wav,"This is an example of an

AUDIO + VIDEO  trial",0,1,1,1,,,,,,,,,,,,,,,,,46.04110056901118,None,47.04111012001522,None,48.5244515860104,None,49.90785635402426,None,ash,49.90785635402426,None,return,1.8218940960068721,49.99132094500237,None,,,,,,,,,,,,,9,001,2023_Feb_07_1932,SpeechDraft1Carolyn_lessNoise,2021.2.3,59.96461799516943,
,,,,,,,,,,,,,,,,,,,,,,,,,,,,,,,,,,,,,,,,,,,51.85835140402196,None,space,5.795805550995283,52.04129880401888,None,,,,,,,9,001,2023_Feb_07_1932,SpeechDraft1Carolyn_lessNoise,2021.2.3,59.96461799516943,
brash.wav,brash.mpg,brash,1,A,Pink_Noise_1_1.wav,Pink_Noise_1_2.wav,,,,,,0,0,0,11,,,,,,,,,,,,,,,57.89097386901267,None,59.35758226001053,None,60.741380043007666,None,fresh,60.741380043007666,None,return,2.5327561410085764,60.82444318800117,None,,,,,,,,,,,,,9,001,2023_Feb_07_1932,SpeechDraft1Carolyn_lessNoise,2021.2.3,59.96461799516943,
grim.wav,grim.mpg,grim,6,A,Pink_Noise_6_1.wav,Pink_Noise_6_2.wav,,,,,,0,1,1,33,,,,,,,,,,,,,,,63.37447306700051,None,64.85770901400247,None,66.24148658500053,None,four,66.24148658500053,None,return,2.888674761983566,66.32444049502374,None,,,,,,,,,,,,,9,001,2023_Feb_07_1932,SpeechDraft1Carolyn_lessNoise,2021.2.3,59.96461799516943,
chill.wav,chill.mpg,chill,3,A,Pink_Noise_3_1.wav,Pink_Noise_3_2.wav,,,,,,0,2,2,37,,,,,,,,,,,,,,,69.2412261160207,None,70.72432731301524,None,72.10785324001336,None,"chill
",72.10785324001336,None,return,1.3179376740008593,72.19117731001461,None,,,,,,,,,,,,,9,001,2023_Feb_07_1932,SpeechDraft1Carolyn_lessNoise,2021.2.3,59.96461799516943,
bean.wav,bean.mpg,bean,1,AV,Pink_Noise_1_1.wav,Pink_Noise_1_2.wav,,,,,,0,3,3,86,,,,,,,,,,,,,,,73.54119503701804,None,75.0242827559996,None,76.40775866800686,None,bean,76.40775866800686,None,return,1.4260701239982154,76.49109313101508,None,,,,,,,,,,,,,9,001,2023_Feb_07_1932,SpeechDraft1Carolyn_lessNoise,2021.2.3,59.96461799516943,
cup.wav,cup.mpg,cup,6,A,Pink_Noise_6_1.wav,Pink_Noise_6_2.wav,,,,,,0,4,4,34,,,,,,,,,,,,,,,77.94116989002214,None,79.42459190901718,None,80.80785678900429,None,fart,80.80785678900429,None,return,1.6098013730079401,80.89130898701842,None,,,,,,,,,,,,,9,001,2023_Feb_07_1932,SpeechDraft1Carolyn_lessNoise,2021.2.3,59.96461799516943,
gush.wav,gush.mpg,gush,5,A,Pink_Noise_5_1.wav,Pink_Noise_5_2.wav,,,,,,0,5,5,30,,,,,,,,,,,,,,,82.52481520202127,None,84.00780107802711,None,85.39108292502351,None,gush,85.39108292502351,None,return,2.666623297991464,85.47457213600865,None,,,,,,,,,,,,,9,001,2023_Feb_07_1932,SpeechDraft1Carolyn_lessNoise,2021.2.3,59.96461799516943,
drip.wav,drip.mpg,drip,2,A,Pink_Noise_2_1.wav,Pink_Noise_2_2.wav,,,,,,0,6,6,35,,,,,,,,,,,,,,,88.15781538200099,None,89.64136829902418,None,91.02454924001358,None,"drip
",91.02454924001358,None,return,2.9689690450031776,91.10815241700038,None,,,,,,,,,,,,,9,001,2023_Feb_07_1932,SpeechDraft1Carolyn_lessNoise,2021.2.3,59.96461799516943,
climb.wav,climb.mpg,climb,1,A,Pink_Noise_1_1.wav,Pink_Noise_1_2.wav,,,,,,0,7,7,52,,,,,,,,,,,,,,,94.10800018601003,None,95.5912799880025,None,96.97447076402023,None,climb,96.97447076402023,None,return,1.2992374160094187,97.05793424902367,None,,,,,,,,,,,,,9,001,2023_Feb_07_1932,SpeechDraft1Carolyn_lessNoise,2021.2.3,59.96461799516943,
drive.wav,drive.mpg,drive,1,A,Pink_Noise_1_1.wav,Pink_Noise_1_2.wav,,,,,,0,8,8,32,,,,,,,,,,,,,,,98.3747145870002,None,99.85792156599928,None,101.24140197000816,None,drive,101.24140197000816,None,return,1.792672268988099,101.3244636960153,None,,,,,,,,,,,,,9,001,2023_Feb_07_1932,SpeechDraft1Carolyn_lessNoise,2021.2.3,59.96461799516943,
fold.wav,fold.mpg,fold,3,A,Pink_Noise_3_1.wav,Pink_Noise_3_2.wav,,,,,,0,9,9,22,,,,,,,,,,,,,,,103.14118280701223,None,104.62427052200655,None,106.00821756201913,None,fold,106.00821756201913,None,return,1.3377178390219342,106.09140913901501,None,,,,,,,,,,,,,9,001,2023_Feb_07_1932,SpeechDraft1Carolyn_lessNoise,2021.2.3,59.96461799516943,
draw.wav,draw.mpg,draw,5,AV,Pink_Noise_5_1.wav,Pink_Noise_5_2.wav,,,,,,0,10,10,91,,,,,,,,,,,,,,,107.45803745402372,None,108.9411295739992,None,110.32447269299882,None,"draw
",110.32447269299882,None,return,0.8851539810129907,110.40794158101198,None,,,,,,,,,,,,,9,001,2023_Feb_07_1932,SpeechDraft1Carolyn_lessNoise,2021.2.3,59.96461799516943,
fetch.wav,fetch.mpg,fetch,4,A,Pink_Noise_4_1.wav,Pink_Noise_4_2.wav,,,,,,0,11,11,13,,,,,,,,,,,,,,,111.32477028202266,None,112.80805085101747,None,114.19148454201058,None,fetch,114.19148454201058,None,return,1.9144637669960503,114.27464361302555,None,,,,,,,,,,,,,9,001,2023_Feb_07_1932,SpeechDraft1Carolyn_lessNoise,2021.2.3,59.96461799516943,
grail.wav,grail.mpg,grail,5,A,Pink_Noise_5_1.wav,Pink_Noise_5_2.wav,,,,,,0,12,12,5,,,,,,,,,,,,,,,116.20786468801089,None,117.69117180301691,None,119.07453272902058,None,grab,119.07453272902058,None,return,1.4712912930117454,119.1578685810091,None,,,,,,,,,,,,,9,001,2023_Feb_07_1932,SpeechDraft1Carolyn_lessNoise,2021.2.3,59.96461799516943,
dawn.wav,dawn.mpg,dawn,2,AV,Pink_Noise_2_1.wav,Pink_Noise_2_2.wav,,,,,,0,13,13,60,,,,,,,,,,,,,,,120.65790338802617,None,122.1412448460178,None,123.52458166400902,None,"door
",123.52458166400902,None,return,1.5012651209835894,123.60785930801649,None,,,,,,,,,,,,,9,001,2023_Feb_07_1932,SpeechDraft1Carolyn_lessNoise,2021.2.3,59.96461799516943,
cult.wav,cult.mpg,cult,4,AV,Pink_Noise_4_1.wav,Pink_Noise_4_2.wav,,,,,,0,14,14,114,,,,,,,,,,,,,,,125.14131945400732,None,126.62448234000476,None,128.00783248702646,None,cult,128.00783248702646,None,return,2.6098028470005374,128.0912981010042,None,,,,,,,,,,,,,9,001,2023_Feb_07_1932,SpeechDraft1Carolyn_lessNoise,2021.2.3,59.96461799516943,
date.wav,date.mpg,date,4,AV,Pink_Noise_4_1.wav,Pink_Noise_4_2.wav,,,,,,0,15,15,101,,,,,,,,,,,,,,,130.72453323900118,None,132.20780773702427,None,133.59112849700614,None,"date
",133.59112849700614,None,return,1.1865549749927595,133.67458349102526,None,,,,,,,,,,,,,9,001,2023_Feb_07_1932,SpeechDraft1Carolyn_lessNoise,2021.2.3,59.96461799516943,
bath.wav,bath.mpg,bath,2,A,Pink_Noise_2_1.wav,Pink_Noise_2_2.wav,,,,,,0,16,16,42,,,,,,,,,,,,,,,134.89130052700057,None,136.37436304200673,None,137.7580537830072,None,bath,137.7580537830072,None,return,1.3320031850016676,137.8412054410146,None,,,,,,,,,,,,,9,001,2023_Feb_07_1932,SpeechDraft1Carolyn_lessNoise,2021.2.3,59.96461799516943,
booth.wav,booth.mpg,booth,1,AV,Pink_Noise_1_1.wav,Pink_Noise_1_2.wav,,,,,,0,17,17,75,,,,,,,,,,,,,,,139.1915001910238,None,140.67442096202285,None,142.05778221102082,None,booth,142.05778221102082,None,return,2.015591249015415,142.14158116001636,None,,,,,,,,,,,,,9,001,2023_Feb_07_1932,SpeechDraft1Carolyn_lessNoise,2021.2.3,59.96461799516943,
bribe.wav,bribe.mpg,bribe,5,AV,Pink_Noise_5_1.wav,Pink_Noise_5_2.wav,,,,,,0,18,18,78,,,,,,,,,,,,,,,144.17486760401516,None,145.6577736340114,None,147.0414654230117,None,buy,147.0414654230117,None,return,2.4244506690010894,147.1246496240201,None,,,,,,,,,,,,,9,001,2023_Feb_07_1932,SpeechDraft1Carolyn_lessNoise,2021.2.3,59.96461799516943,
clay.wav,clay.mpg,clay,6,A,Pink_Noise_6_1.wav,Pink_Noise_6_2.wav,,,,,,0,19,19,20,,,,,,,,,,,,,,,149.57495878700865,None,151.05773813801352,None,152.44160157302395,None,"more
",152.44160157302395,None,return,3.368470843997784,152.52463937801076,None,,,,,,,,,,,,,9,001,2023_Feb_07_1932,SpeechDraft1Carolyn_lessNoise,2021.2.3,59.96461799516943,
edge.wav,edge.mpg,edge,5,AV,Pink_Noise_5_1.wav,Pink_Noise_5_2.wav,,,,,,0,20,20,64,,,,,,,,,,,,,,,155.92449809101527,None,157.40800104502705,None,158.79120258201146,None,edge,158.79120258201146,None,return,1.842461752006784,158.874647774006,None,,,,,,,,,,,,,9,001,2023_Feb_07_1932,SpeechDraft1Carolyn_lessNoise,2021.2.3,59.96461799516943,
blind.wav,blind.mpg,blind,6,A,Pink_Noise_6_1.wav,Pink_Noise_6_2.wav,,,,,,0,21,21,8,,,,,,,,,,,,,,,160.74126400702517,None,162.22439996700268,None,163.60798305200296,None,riot,163.60798305200296,None,return,1.609722748020431,163.69142065101187,None,,,,,,,,,,,,,9,001,2023_Feb_07_1932,SpeechDraft1Carolyn_lessNoise,2021.2.3,59.96461799516943,
duct.wav,duct.mpg,duct,5,A,Pink_Noise_5_1.wav,Pink_Noise_5_2.wav,,,,,,0,22,22,41,,,,,,,,,,,,,,,165.3246143940196,None,166.80786695200368,None,168.19129989200155,None,want,168.19129989200155,None,return,2.5785562050004955,168.27457189001143,None,,,,,,,,,,,,,9,001,2023_Feb_07_1932,SpeechDraft1Carolyn_lessNoise,2021.2.3,59.96461799516943,
goat.wav,goat.mpg,goat,2,AV,Pink_Noise_2_1.wav,Pink_Noise_2_2.wav,,,,,,0,23,23,111,,,,,,,,,,,,,,,170.87487545001204,None,172.35773300900473,None,173.74140426600934,None,goat,173.74140426600934,None,return,3.396385007974459,173.8248411680106,None,,,,,,,,,,,,,9,001,2023_Feb_07_1932,SpeechDraft1Carolyn_lessNoise,2021.2.3,59.96461799516943,
flask.wav,flask.mpg,flask,4,A,Pink_Noise_4_1.wav,Pink_Noise_4_2.wav,,,,,,0,24,24,27,,,,,,,,,,,,,,,177.24146761299926,None,178.72455050700228,None,180.10801140600233,None,class,180.10801140600233,None,return,3.821925744006876,180.19126172101824,None,,,,,,,,,,,,,9,001,2023_Feb_07_1932,SpeechDraft1Carolyn_lessNoise,2021.2.3,59.96461799516943,
fame.wav,fame.mpg,fame,2,AV,Pink_Noise_2_1.wav,Pink_Noise_2_2.wav,,,,,,0,25,25,76,,,,,,,,,,,,,,,184.0415082530235,None,185.5244179990259,None,186.908011713007,None,fame,186.908011713007,None,return,1.045671553001739,186.9914694710169,None,,,,,,,,,,,,,9,001,2023_Feb_07_1932,SpeechDraft1Carolyn_lessNoise,2021.2.3,59.96461799516943,
cloak.wav,cloak.mpg,cloak,6,AV,Pink_Noise_6_1.wav,Pink_Noise_6_2.wav,,,,,,0,26,26,69,,,,,,,,,,,,,,,188.0581946700113,None,189.5411699290271,None,190.92466412100475,None,cloak,190.92466412100475,None,return,1.7732245000079274,191.00801125500584,None,,,,,,,,,,,,,9,001,2023_Feb_07_1932,SpeechDraft1Carolyn_lessNoise,2021.2.3,59.96461799516943,
dust.wav,dust.mpg,dust,6,A,Pink_Noise_6_1.wav,Pink_Noise_6_2.wav,,,,,,0,27,27,49,,,,,,,,,,,,,,,192.8082168350229,None,194.29111668502446,None,195.67473272699863,None,"rest
",195.67473272699863,None,return,2.1671424729865976,195.7579512700031,None,,,,,,,,,,,,,9,001,2023_Feb_07_1932,SpeechDraft1Carolyn_lessNoise,2021.2.3,59.96461799516943,
dope.wav,dope.mpg,dope,2,AV,Pink_Noise_2_1.wav,Pink_Noise_2_2.wav,,,,,,0,28,28,66,,,,,,,,,,,,,,,197.9580200180062,None,199.44118165702093,None,200.8246675270202,None,dope,200.8246675270202,None,return,1.0090441859792918,200.90805858001113,None,,,,,,,,,,,,,9,001,2023_Feb_07_1932,SpeechDraft1Carolyn_lessNoise,2021.2.3,59.96461799516943,
gag.wav,gag.mpg,gag,2,A,Pink_Noise_2_1.wav,Pink_Noise_2_2.wav,,,,,,0,29,29,18,,,,,,,,,,,,,,,201.9414552640228,None,203.4245102960267,None,204.8081283820211,None,gag,204.8081283820211,None,return,1.0094756089965813,204.89163432401256,None,,,,,,,,,,,,,9,001,2023_Feb_07_1932,SpeechDraft1Carolyn_lessNoise,2021.2.3,59.96461799516943,
barn.wav,barn.mpg,barn,4,A,Pink_Noise_4_1.wav,Pink_Noise_4_2.wav,,,,,,0,30,30,0,,,,,,,,,,,,,,,205.92476263901335,None,207.40790077199927,None,208.79129806702258,None,farm,208.79129806702258,None,return,1.4583274780015927,208.87478061302681,None,,,,,,,,,,,,,9,001,2023_Feb_07_1932,SpeechDraft1Carolyn_lessNoise,2021.2.3,59.96461799516943,
flex.wav,flex.mpg,flex,5,AV,Pink_Noise_5_1.wav,Pink_Noise_5_2.wav,,,,,,0,31,31,80,,,,,,,,,,,,,,,210.35815496600117,None,211.84138300199993,None,213.22455392501433,None,flex,213.22455392501433,None,return,1.4652083410182968,213.30797377202543,None,,,,,,,,,,,,,9,001,2023_Feb_07_1932,SpeechDraft1Carolyn_lessNoise,2021.2.3,59.96461799516943,
guilt.wav,guilt.mpg,guilt,2,A,Pink_Noise_2_1.wav,Pink_Noise_2_2.wav,,,,,,0,32,32,7,,,,,,,,,,,,,,,214.79142566400697,None,216.2748028060014,None,217.6582917040214,None,"guilt
",217.6582917040214,None,return,2.135550521023106,217.74158464200445,None,,,,,,,,,,,,,9,001,2023_Feb_07_1932,SpeechDraft1Carolyn_lessNoise,2021.2.3,59.96461799516943,
foam.wav,foam.mpg,foam,5,AV,Pink_Noise_5_1.wav,Pink_Noise_5_2.wav,,,,,,0,33,33,88,,,,,,,,,,,,,,,219.90821521202452,None,221.39104015301564,None,222.7745746760047,None,"foam
",222.7745746760047,None,return,1.187154680985259,222.85797542202636,None,,,,,,,,,,,,,9,001,2023_Feb_07_1932,SpeechDraft1Carolyn_lessNoise,2021.2.3,59.96461799516943,
beg.wav,beg.mpg,beg,5,A,Pink_Noise_5_1.wav,Pink_Noise_5_2.wav,,,,,,0,34,34,24,,,,,,,,,,,,,,,224.07481392100453,None,225.55786341501516,None,226.9416526950081,None,egg,226.9416526950081,None,return,1.8444129889830947,227.0247171970259,None,,,,,,,,,,,,,9,001,2023_Feb_07_1932,SpeechDraft1Carolyn_lessNoise,2021.2.3,59.96461799516943,
fail.wav,fail.mpg,fail,1,A,Pink_Noise_1_1.wav,Pink_Noise_1_2.wav,,,,,,0,35,35,39,,,,,,,,,,,,,,,228.89176908502122,None,230.37469456801773,None,231.75826573499944,None,fail,231.75826573499944,None,return,1.2116916850209236,231.8414324700134,None,,,,,,,,,,,,,9,001,2023_Feb_07_1932,SpeechDraft1Carolyn_lessNoise,2021.2.3,59.96461799516943,
truce.wav,truce.mpg,truce,3,A,Pink_Noise_3_1.wav,Pink_Noise_3_2.wav,,,,,,0,36,36,51,,,,,,,,,,,,,,,233.0747245850216,None,234.55774456000654,None,235.94140471101855,None,truce,235.94140471101855,None,return,1.116303955001058,236.02486929300358,None,,,,,,,,,,,,,9,001,2023_Feb_07_1932,SpeechDraft1Carolyn_lessNoise,2021.2.3,59.96461799516943,
ghost.wav,ghost.mpg,ghost,6,AV,Pink_Noise_6_1.wav,Pink_Noise_6_2.wav,,,,,,0,37,37,117,,,,,,,,,,,,,,,237.1583139860013,None,238.64133399701677,None,240.0246425770165,None,ghost,240.0246425770165,None,return,1.2809046979818959,240.10821191300056,None,,,,,,,,,,,,,9,001,2023_Feb_07_1932,SpeechDraft1Carolyn_lessNoise,2021.2.3,59.96461799516943,
bind.wav,bind.mpg,bind,2,AV,Pink_Noise_2_1.wav,Pink_Noise_2_2.wav,,,,,,0,38,38,107,,,,,,,,,,,,,,,241.40812045402708,None,242.89123500999995,None,244.27464073800365,None,"bind
",244.27464073800365,None,return,0.7669519720075186,244.35814950300846,None,,,,,,,,,,,,,9,001,2023_Feb_07_1932,SpeechDraft1Carolyn_lessNoise,2021.2.3,59.96461799516943,
crude.wav,crude.mpg,crude,1,AV,Pink_Noise_1_1.wav,Pink_Noise_1_2.wav,,,,,,0,39,39,93,,,,,,,,,,,,,,,245.15827809800976,None,246.64137576901703,None,248.0249537830241,None,crude,248.0249537830241,None,return,0.8571646080235951,248.1081162110204,None,,,,,,,,,,,,,9,001,2023_Feb_07_1932,SpeechDraft1Carolyn_lessNoise,2021.2.3,59.96461799516943,
flush.wav,flush.mpg,flush,6,AV,Pink_Noise_6_1.wav,Pink_Noise_6_2.wav,,,,,,0,40,40,85,,,,,,,,,,,,,,,248.99132059002295,None,250.47494813901721,None,251.85798523400445,None,flush,251.85798523400445,None,return,1.6236593170033302,251.94156703201588,None,,,,,,,,,,,,,9,001,2023_Feb_07_1932,SpeechDraft1Carolyn_lessNoise,2021.2.3,59.96461799516943,
chalk.wav,chalk.mpg,chalk,1,AV,Pink_Noise_1_1.wav,Pink_Noise_1_2.wav,,,,,,0,41,41,104,,,,,,,,,,,,,,,253.59144244500203,None,255.07500315000652,None,256.45795410801657,None,chalk,256.45795410801657,None,return,3.527682015002938,256.54142444900936,None,,,,,,,,,,,,,9,001,2023_Feb_07_1932,SpeechDraft1Carolyn_lessNoise,2021.2.3,59.96461799516943,
route.wav,route.mpg,route,3,A,Pink_Noise_3_1.wav,Pink_Noise_3_2.wav,,,,,,0,42,42,47,,,,,,,,,,,,,,,260.09150634901016,None,261.5746556930244,None,262.9581294300151,None,root,262.9581294300151,None,return,1.5797089700063225,263.0414628050057,None,,,,,,,,,,,,,9,001,2023_Feb_07_1932,SpeechDraft1Carolyn_lessNoise,2021.2.3,59.96461799516943,
calm.wav,calm.mpg,calm,6,A,Pink_Noise_6_1.wav,Pink_Noise_6_2.wav,,,,,,0,43,43,2,,,,,,,,,,,,,,,264.64149906500825,None,266.12471227900824,None,267.50805534701794,None,palm,267.50805534701794,None,return,3.4376408539828844,267.59146538801724,None,,,,,,,,,,,,,9,001,2023_Feb_07_1932,SpeechDraft1Carolyn_lessNoise,2021.2.3,59.96461799516943,
oats.wav,oats.mpg,oats,2,A,Pink_Noise_2_1.wav,Pink_Noise_2_2.wav,,,,,,0,44,44,40,,,,,,,,,,,,,,,271.05848005000735,None,272.54139115000726,None,273.9250375320262,None,oat,273.9250375320262,None,return,0.8209824090008624,274.0081476160267,None,,,,,,,,,,,,,9,001,2023_Feb_07_1932,SpeechDraft1Carolyn_lessNoise,2021.2.3,59.96461799516943,
guest.wav,guest.mpg,guest,3,A,Pink_Noise_3_1.wav,Pink_Noise_3_2.wav,,,,,,0,45,45,50,,,,,,,,,,,,,,,274.858291653014,None,276.3411185820005,None,277.7248546560004,None,guest,277.7248546560004,None,return,1.9969762850087136,277.8081914570066,None,,,,,,,,,,,,,9,001,2023_Feb_07_1932,SpeechDraft1Carolyn_lessNoise,2021.2.3,59.96461799516943,
dice.wav,dice.mpg,dice,5,AV,Pink_Noise_5_1.wav,Pink_Noise_5_2.wav,,,,,,0,46,46,63,,,,,,,,,,,,,,,279.8249471170129,None,281.30812952300766,None,282.6914296800096,None,"sesh
",282.6914296800096,None,return,10.134196297003655,282.774904032005,None,,,,,,,,,,,,,9,001,2023_Feb_07_1932,SpeechDraft1Carolyn_lessNoise,2021.2.3,59.96461799516943,
spray.wav,spray.mpg,spray,5,AV,Pink_Noise_5_1.wav,Pink_Noise_5_2.wav,,,,,,0,47,47,74,,,,,,,,,,,,,,,292.94149513702723,None,294.4246685670223,None,295.8084586780169,None,sping,295.8084586780169,None,return,2.0897328369901516,295.89143197302474,None,,,,,,,,,,,,,9,001,2023_Feb_07_1932,SpeechDraft1Carolyn_lessNoise,2021.2.3,59.96461799516943,
club.wav,club.mpg,club,4,AV,Pink_Noise_4_1.wav,Pink_Noise_4_2.wav,,,,,,0,48,48,115,,,,,,,,,,,,,,,298.00839759001974,None,299.49148511802196,None,300.87482940702466,None,club,300.87482940702466,None,return,1.447069335001288,300.9581166310236,None,,,,,,,,,,,,,9,001,2023_Feb_07_1932,SpeechDraft1Carolyn_lessNoise,2021.2.3,59.96461799516943,
ban.wav,ban.mpg,ban,2,AV,Pink_Noise_2_1.wav,Pink_Noise_2_2.wav,,,,,,0,49,49,65,,,,,,,,,,,,,,,302.4248339140031,None,303.9089077899989,None,305.29142293700716,None,ban,305.29142293700716,None,return,1.0620364829956088,305.375098568009,None,,,,,,,,,,,,,9,001,2023_Feb_07_1932,SpeechDraft1Carolyn_lessNoise,2021.2.3,59.96461799516943,
bare.wav,bare.mpg,bare,3,AV,Pink_Noise_3_1.wav,Pink_Noise_3_2.wav,,,,,,0,50,50,70,,,,,,,,,,,,,,,306.4581528660201,None,307.9415081400075,None,309.32473321500584,None,bear,309.32473321500584,None,return,0.8288717819959857,309.40827133101993,None,,,,,,,,,,,,,9,001,2023_Feb_07_1932,SpeechDraft1Carolyn_lessNoise,2021.2.3,59.96461799516943,
ditch.wav,ditch.mpg,ditch,4,AV,Pink_Noise_4_1.wav,Pink_Noise_4_2.wav,,,,,,0,51,51,67,,,,,,,,,,,,,,,310.25854613800766,None,311.7413444080157,None,313.1246921380225,None,"ditch
",313.1246921380225,None,return,1.2849466229963582,313.20816464701784,None,,,,,,,,,,,,,9,001,2023_Feb_07_1932,SpeechDraft1Carolyn_lessNoise,2021.2.3,59.96461799516943,
cute.wav,cute.mpg,cute,4,A,Pink_Noise_4_1.wav,Pink_Noise_4_2.wav,,,,,,0,52,52,25,,,,,,,,,,,,,,,314.5248608480033,None,316.0247506730084,None,317.4084510880057,None,cute,317.4084510880057,None,return,0.7137082510162145,317.4914918760187,None,,,,,,,,,,,,,9,001,2023_Feb_07_1932,SpeechDraft1Carolyn_lessNoise,2021.2.3,59.96461799516943,
chump.wav,chump.mpg,chump,3,A,Pink_Noise_3_1.wav,Pink_Noise_3_2.wav,,,,,,0,53,53,14,,,,,,,,,,,,,,,318.2250007750117,None,319.72491738401004,None,321.10847653102246,None,charp,321.10847653102246,None,return,5.357657120010117,321.19149040500633,None,,,,,,,,,,,,,9,001,2023_Feb_07_1932,SpeechDraft1Carolyn_lessNoise,2021.2.3,59.96461799516943,
dark.wav,dark.mpg,dark,6,AV,Pink_Noise_6_1.wav,Pink_Noise_6_2.wav,,,,,,0,54,54,87,,,,,,,,,,,,,,,326.57491648499854,None,328.05831783500616,None,329.44144882800174,None,dog,329.44144882800174,None,return,1.344250855006976,329.5248599820188,None,,,,,,,,,,,,,9,001,2023_Feb_07_1932,SpeechDraft1Carolyn_lessNoise,2021.2.3,59.96461799516943,
shut.wav,shut.mpg,shut,6,AV,Pink_Noise_6_1.wav,Pink_Noise_6_2.wav,,,,,,0,55,55,103,,,,,,,,,,,,,,,330.8916402650066,None,332.374962108006,None,333.75801092601614,None,"shut
",333.75801092601614,None,return,0.8676154389977455,333.8414921530057,None,,,,,,,,,,,,,9,001,2023_Feb_07_1932,SpeechDraft1Carolyn_lessNoise,2021.2.3,59.96461799516943,
client.wav,client.mpg,client,3,AV,Pink_Noise_3_1.wav,Pink_Noise_3_2.wav,,,,,,0,56,56,79,,,,,,,,,,,,,,,334.7415128740249,None,336.2248927790206,None,337.6080685830093,None,client,337.6080685830093,None,return,0.9775457219802774,337.6915629900177,None,,,,,,,,,,,,,9,001,2023_Feb_07_1932,SpeechDraft1Carolyn_lessNoise,2021.2.3,59.96461799516943,
brew.wav,brew.mpg,brew,4,AV,Pink_Noise_4_1.wav,Pink_Noise_4_2.wav,,,,,,0,57,57,116,,,,,,,,,,,,,,,338.69168189901393,None,340.17465706000803,None,341.55813204002334,None,brew,341.55813204002334,None,return,1.0273818889982067,341.64172097999835,None,,,,,,,,,,,,,9,001,2023_Feb_07_1932,SpeechDraft1Carolyn_lessNoise,2021.2.3,59.96461799516943,
bold.wav,bold.mpg,bold,1,A,Pink_Noise_1_1.wav,Pink_Noise_1_2.wav,,,,,,0,58,58,1,,,,,,,,,,,,,,,342.69173093902646,None,344.17476437499863,None,345.55854609402013,None,bold,345.55854609402013,None,return,1.6115856530086603,345.6415218550246,None,,,,,,,,,,,,,9,001,2023_Feb_07_1932,SpeechDraft1Carolyn_lessNoise,2021.2.3,59.96461799516943,
clothe.wav,clothe.mpg,clothe,6,A,Pink_Noise_6_1.wav,Pink_Noise_6_2.wav,,,,,,0,59,59,26,,,,,,,,,,,,,,,347.2749934140011,None,348.7580393360113,None,350.1414908770239,None,burrpw,350.1414908770239,None,return,1.108277282997733,350.22490210601245,None,,,,,,,,,,,,,9,001,2023_Feb_07_1932,SpeechDraft1Carolyn_lessNoise,2021.2.3,59.96461799516943,
three.wav,three.mpg,three,2,AV,Pink_Noise_2_1.wav,Pink_Noise_2_2.wav,,,,,,0,60,60,95,,,,,,,,,,,,,,,351.3585025120119,None,352.8414661370043,None,354.22484056002577,None,three,354.22484056002577,None,return,2.2088702940091025,354.30823336701724,None,,,,,,,,,,,,,9,001,2023_Feb_07_1932,SpeechDraft1Carolyn_lessNoise,2021.2.3,59.96461799516943,
cause.wav,cause.mpg,cause,2,A,Pink_Noise_2_1.wav,Pink_Noise_2_2.wav,,,,,,0,61,61,48,,,,,,,,,,,,,,,356.5414789170027,None,358.0249934810272,None,359.40818653901806,None,"cause
",359.40818653901806,None,return,0.8335515360231511,359.49156094001955,None,,,,,,,,,,,,,9,001,2023_Feb_07_1932,SpeechDraft1Carolyn_lessNoise,2021.2.3,59.96461799516943,
crush.wav,crush.mpg,crush,4,AV,Pink_Noise_4_1.wav,Pink_Noise_4_2.wav,,,,,,0,62,62,109,,,,,,,,,,,,,,,360.3584233530273,None,361.84153619001154,None,363.22508136200486,None,"crush
",363.22508136200486,None,return,1.1528547779889777,363.3082526140206,None,,,,,,,,,,,,,9,001,2023_Feb_07_1932,SpeechDraft1Carolyn_lessNoise,2021.2.3,59.96461799516943,
crash.wav,crash.mpg,crash,5,AV,Pink_Noise_5_1.wav,Pink_Noise_5_2.wav,,,,,,0,63,63,110,,,,,,,,,,,,,,,364.4916535030061,None,365.97512984400964,None,367.35821489201044,None,crash,367.35821489201044,None,return,1.083480558998417,367.4416147080192,None,,,,,,,,,,,,,9,001,2023_Feb_07_1932,SpeechDraft1Carolyn_lessNoise,2021.2.3,59.96461799516943,
blunt.wav,blunt.mpg,blunt,4,A,Pink_Noise_4_1.wav,Pink_Noise_4_2.wav,,,,,,0,64,64,21,,,,,,,,,,,,,,,368.5416947430058,None,370.02478018502006,None,371.4082028650155,None,"blunt
",371.4082028650155,None,return,1.017519552988233,371.49158483202336,None,,,,,,,,,,,,,9,001,2023_Feb_07_1932,SpeechDraft1Carolyn_lessNoise,2021.2.3,59.96461799516943,
egg.wav,egg.mpg,egg,5,A,Pink_Noise_5_1.wav,Pink_Noise_5_2.wav,,,,,,0,65,65,43,,,,,,,,,,,,,,,372.54181268200045,None,374.02460277901264,None,375.4085110260057,None,egg,375.4085110260057,None,return,0.7296243619930465,375.4915274170053,None,,,,,,,,,,,,,9,001,2023_Feb_07_1932,SpeechDraft1Carolyn_lessNoise,2021.2.3,59.96461799516943,
blank.wav,blank.mpg,blank,6,A,Pink_Noise_6_1.wav,Pink_Noise_6_2.wav,,,,,,0,66,66,4,,,,,,,,,,,,,,,376.2415863230126,None,377.72477806400275,None,379.10829759700573,None,life,379.10829759700573,None,return,0.8615431739890482,379.1915412080125,None,,,,,,,,,,,,,9,001,2023_Feb_07_1932,SpeechDraft1Carolyn_lessNoise,2021.2.3,59.96461799516943,
coup.wav,coup.mpg,coup,1,A,Pink_Noise_1_1.wav,Pink_Noise_1_2.wav,,,,,,0,67,67,54,,,,,,,,,,,,,,,380.0751406860072,None,381.55826278502354,None,382.941782511014,None,cue,382.941782511014,None,return,7.196271282999078,383.02495610900223,None,,,,,,,,,,,,,9,001,2023_Feb_07_1932,SpeechDraft1Carolyn_lessNoise,2021.2.3,59.96461799516943,
led.wav,led.mpg,led,4,AV,Pink_Noise_4_1.wav,Pink_Noise_4_2.wav,,,,,,0,68,68,97,,,,,,,,,,,,,,,390.2418751140067,None,391.7250511349994,None,393.10823355600587,None,let,393.10823355600587,None,return,1.9414968180062715,393.1916925520054,None,,,,,,,,,,,,,9,001,2023_Feb_07_1932,SpeechDraft1Carolyn_lessNoise,2021.2.3,59.96461799516943,
dad.wav,dad.mpg,dad,6,AV,Pink_Noise_6_1.wav,Pink_Noise_6_2.wav,,,,,,0,69,69,81,,,,,,,,,,,,,,,395.1583376120252,None,396.6415652470023,None,398.02495360802277,None,sad,398.02495360802277,None,return,2.112859937013127,398.10832393102464,None,,,,,,,,,,,,,9,001,2023_Feb_07_1932,SpeechDraft1Carolyn_lessNoise,2021.2.3,59.96461799516943,
pike.wav,pike.mpg,pike,1,A,Pink_Noise_1_1.wav,Pink_Noise_1_2.wav,,,,,,0,70,70,3,,,,,,,,,,,,,,,400.24189980502706,None,401.7248838900123,None,403.1084988700168,None,pike,403.1084988700168,None,return,1.557447580009466,403.19163601400214,None,,,,,,,,,,,,,9,001,2023_Feb_07_1932,SpeechDraft1Carolyn_lessNoise,2021.2.3,59.96461799516943,
four.wav,four.mpg,four,1,AV,Pink_Noise_1_1.wav,Pink_Noise_1_2.wav,,,,,,0,71,71,119,,,,,,,,,,,,,,,404.77492918100324,None,406.25835918201483,None,407.64148409702466,None,four,407.64148409702466,None,return,0.888262577005662,407.7249273850175,None,,,,,,,,,,,,,9,001,2023_Feb_07_1932,SpeechDraft1Carolyn_lessNoise,2021.2.3,59.96461799516943,
gang.wav,gang.mpg,gang,5,A,Pink_Noise_5_1.wav,Pink_Noise_5_2.wav,,,,,,0,72,72,57,,,,,,,,,,,,,,,408.64163011100027,None,410.12484930001665,None,411.5082555420231,None,hair,411.5082555420231,None,return,0.6773414499766659,411.5917650269985,None,,,,,,,,,,,,,9,001,2023_Feb_07_1932,SpeechDraft1Carolyn_lessNoise,2021.2.3,59.96461799516943,
poll.wav,poll.mpg,poll,5,A,Pink_Noise_5_1.wav,Pink_Noise_5_2.wav,,,,,,0,73,73,19,,,,,,,,,,,,,,,412.291877103009,None,413.7754159810138,None,415.15833141101757,None,hand,415.15833141101757,None,return,0.6592538239783607,415.24185460602166,None,,,,,,,,,,,,,9,001,2023_Feb_07_1932,SpeechDraft1Carolyn_lessNoise,2021.2.3,59.96461799516943,
curse.wav,curse.mpg,curse,2,A,Pink_Noise_2_1.wav,Pink_Noise_2_2.wav,,,,,,0,74,74,38,,,,,,,,,,,,,,,415.92523646200425,None,417.4082490389992,None,418.7917212610191,None,"curse
",418.7917212610191,None,return,1.0501771850103978,418.87495398600004,None,,,,,,,,,,,,,9,001,2023_Feb_07_1932,SpeechDraft1Carolyn_lessNoise,2021.2.3,59.96461799516943,
flaw.wav,flaw.mpg,flaw,6,A,Pink_Noise_6_1.wav,Pink_Noise_6_2.wav,,,,,,0,75,75,31,,,,,,,,,,,,,,,419.95845163500053,None,421.44149783300236,None,422.82517964,None,law,422.82517964,None,return,1.6968542430258822,422.9083414680208,None,,,,,,,,,,,,,9,001,2023_Feb_07_1932,SpeechDraft1Carolyn_lessNoise,2021.2.3,59.96461799516943,
blue.wav,blue.mpg,blue,2,A,Pink_Noise_2_1.wav,Pink_Noise_2_2.wav,,,,,,0,76,76,53,,,,,,,,,,,,,,,424.62501569101005,None,426.10818541402114,None,427.4916745760129,None,blue,427.4916745760129,None,return,0.9658492110029329,427.575302266021,None,,,,,,,,,,,,,9,001,2023_Feb_07_1932,SpeechDraft1Carolyn_lessNoise,2021.2.3,59.96461799516943,
sock.wav,sock.mpg,sock,6,AV,Pink_Noise_6_1.wav,Pink_Noise_6_2.wav,,,,,,0,77,77,89,,,,,,,,,,,,,,,428.55861358501716,None,430.04210322201834,None,431.42505339800846,None,sock,431.42505339800846,None,return,2.2487949510104954,431.5083909770183,None,,,,,,,,,,,,,9,001,2023_Feb_07_1932,SpeechDraft1Carolyn_lessNoise,2021.2.3,59.96461799516943,
fuse.wav,fuse.mpg,fuse,1,AV,Pink_Noise_1_1.wav,Pink_Noise_1_2.wav,,,,,,0,78,78,62,,,,,,,,,,,,,,,433.77507329999935,None,435.2584595150256,None,436.64166970702354,None,"fuse
",436.64166970702354,None,return,1.367844929016428,436.72526117402595,None,,,,,,,,,,,,,9,001,2023_Feb_07_1932,SpeechDraft1Carolyn_lessNoise,2021.2.3,59.96461799516943,
droop.wav,droop.mpg,droop,2,A,Pink_Noise_2_1.wav,Pink_Noise_2_2.wav,,,,,,0,79,79,45,,,,,,,,,,,,,,,438.1253227770212,None,439.60870316202636,None,440.9919298290042,None,"droop
",440.9919298290042,None,return,1.2020738300052471,441.07504207702004,None,,,,,,,,,,,,,9,001,2023_Feb_07_1932,SpeechDraft1Carolyn_lessNoise,2021.2.3,59.96461799516943,
thief.wav,thief.mpg,thief,1,AV,Pink_Noise_1_1.wav,Pink_Noise_1_2.wav,,,,,,0,80,80,118,,,,,,,,,,,,,,,442.30856393900467,None,443.7915647800255,None,445.1749180670013,None,"thief
",445.1749180670013,None,return,2.186811936000595,445.2583273530181,None,,,,,,,,,,,,,9,001,2023_Feb_07_1932,SpeechDraft1Carolyn_lessNoise,2021.2.3,59.96461799516943,
rod.wav,rod.mpg,rod,1,AV,Pink_Noise_1_1.wav,Pink_Noise_1_2.wav,,,,,,0,81,81,84,,,,,,,,,,,,,,,447.4750333910051,None,448.9589808960154,None,450.3416791870259,None,rod,450.3416791870259,None,return,0.5560959469876252,450.42513369600056,None,,,,,,,,,,,,,9,001,2023_Feb_07_1932,SpeechDraft1Carolyn_lessNoise,2021.2.3,59.96461799516943,
burn.wav,burn.mpg,burn,4,AV,Pink_Noise_4_1.wav,Pink_Noise_4_2.wav,,,,,,0,82,82,99,,,,,,,,,,,,,,,451.0084531790053,None,452.49179850899964,None,453.8749231880065,None,bird,453.8749231880065,None,return,1.9587232420162763,453.95837169201695,None,,,,,,,,,,,,,9,001,2023_Feb_07_1932,SpeechDraft1Carolyn_lessNoise,2021.2.3,59.96461799516943,
bust.wav,bust.mpg,bust,3,AV,Pink_Noise_3_1.wav,Pink_Noise_3_2.wav,,,,,,0,83,83,82,,,,,,,,,,,,,,,455.94190582900774,None,457.4262203750259,None,458.80852733302163,None,bust,458.80852733302163,None,return,0.8495557770074811,458.89163462800207,None,,,,,,,,,,,,,9,001,2023_Feb_07_1932,SpeechDraft1Carolyn_lessNoise,2021.2.3,59.96461799516943,
fix.wav,fix.mpg,fix,3,AV,Pink_Noise_3_1.wav,Pink_Noise_3_2.wav,,,,,,0,84,84,92,,,,,,,,,,,,,,,459.75848808401497,None,461.24148801201954,None,462.6251649840269,None,fix,462.6251649840269,None,return,0.6567717410216574,462.70840355500695,None,,,,,,,,,,,,,9,001,2023_Feb_07_1932,SpeechDraft1Carolyn_lessNoise,2021.2.3,59.96461799516943,
farm.wav,farm.mpg,farm,6,A,Pink_Noise_6_1.wav,Pink_Noise_6_2.wav,,,,,,0,85,85,6,,,,,,,,,,,,,,,463.39169659401523,None,464.8749416650098,None,466.258305758005,None,climb,466.258305758005,None,return,1.4794037959945854,466.3417436540185,None,,,,,,,,,,,,,9,001,2023_Feb_07_1932,SpeechDraft1Carolyn_lessNoise,2021.2.3,59.96461799516943,
cake.wav,cake.mpg,cake,4,A,Pink_Noise_4_1.wav,Pink_Noise_4_2.wav,,,,,,0,86,86,36,,,,,,,,,,,,,,,467.84195264600567,None,469.3251090690028,None,470.70856206602184,None,"cake
",470.70856206602184,None,return,0.8854293519980274,470.7916954670218,None,,,,,,,,,,,,,9,001,2023_Feb_07_1932,SpeechDraft1Carolyn_lessNoise,2021.2.3,59.96461799516943,
check.wav,check.mpg,check,1,A,Pink_Noise_1_1.wav,Pink_Noise_1_2.wav,,,,,,0,87,87,23,,,,,,,,,,,,,,,471.70860223000636,None,473.19204546901165,None,474.57497405601316,None,check,474.57497405601316,None,return,1.9384492459939793,474.6586732530268,None,,,,,,,,,,,,,9,001,2023_Feb_07_1932,SpeechDraft1Carolyn_lessNoise,2021.2.3,59.96461799516943,
bass.wav,bass.mpg,bass,4,A,Pink_Noise_4_1.wav,Pink_Noise_4_2.wav,,,,,,0,88,88,16,,,,,,,,,,,,,,,476.6251423540234,None,478.108190509025,None,479.49173022201285,None,face,479.49173022201285,None,return,0.7261083270132076,479.57504975100164,None,,,,,,,,,,,,,9,001,2023_Feb_07_1932,SpeechDraft1Carolyn_lessNoise,2021.2.3,59.96461799516943,
lie.wav,lie.mpg,lie,5,A,Pink_Noise_5_1.wav,Pink_Noise_5_2.wav,,,,,,0,89,89,46,,,,,,,,,,,,,,,480.32525596400956,None,481.8089841880137,None,483.1916973290208,None,rod,483.1916973290208,None,return,1.0981122910161503,483.2749931150174,None,,,,,,,,,,,,,9,001,2023_Feb_07_1932,SpeechDraft1Carolyn_lessNoise,2021.2.3,59.96461799516943,
coy.wav,coy.mpg,coy,3,AV,Pink_Noise_3_1.wav,Pink_Noise_3_2.wav,,,,,,0,90,90,98,,,,,,,,,,,,,,,484.3916614370246,None,485.8756055960257,None,487.2587461640069,None,koi,487.2587461640069,None,return,3.639433711010497,487.3417668309994,None,,,,,,,,,,,,,9,001,2023_Feb_07_1932,SpeechDraft1Carolyn_lessNoise,2021.2.3,59.96461799516943,
gross.wav,gross.mpg,gross,1,A,Pink_Noise_1_1.wav,Pink_Noise_1_2.wav,,,,,,0,91,91,29,,,,,,,,,,,,,,,491.00838496600045,None,492.4914910780208,None,493.87528576600016,None,gross,493.87528576600016,None,return,0.8785674189857673,493.9585404410027,None,,,,,,,,,,,,,9,001,2023_Feb_07_1932,SpeechDraft1Carolyn_lessNoise,2021.2.3,59.96461799516943,
dress.wav,dress.mpg,dress,4,A,Pink_Noise_4_1.wav,Pink_Noise_4_2.wav,,,,,,0,92,92,17,,,,,,,,,,,,,,,494.8586092580226,None,496.3583071900066,None,497.72522848600056,None,dress,497.72522848600056,None,return,0.9164489459944889,497.8087169860082,None,,,,,,,,,,,,,9,001,2023_Feb_07_1932,SpeechDraft1Carolyn_lessNoise,2021.2.3,59.96461799516943,
beat.wav,beat.mpg,beat,4,AV,Pink_Noise_4_1.wav,Pink_Noise_4_2.wav,,,,,,0,93,93,73,,,,,,,,,,,,,,,498.7418977530033,None,500.225748870027,None,501.6085437220172,None,beat,501.6085437220172,None,return,0.8412037329981104,501.6920461410191,None,,,,,,,,,,,,,9,001,2023_Feb_07_1932,SpeechDraft1Carolyn_lessNoise,2021.2.3,59.96461799516943,
buzz.wav,buzz.mpg,buzz,3,A,Pink_Noise_3_1.wav,Pink_Noise_3_2.wav,,,,,,0,94,94,58,,,,,,,,,,,,,,,502.558668054,None,504.0416779410152,None,505.42529190401547,None,buzz,505.42529190401547,None,return,2.0324498760164715,505.5087416250026,None,,,,,,,,,,,,,9,001,2023_Feb_07_1932,SpeechDraft1Carolyn_lessNoise,2021.2.3,59.96461799516943,
debt.wav,debt.mpg,debt,3,A,Pink_Noise_3_1.wav,Pink_Noise_3_2.wav,,,,,,0,95,95,28,,,,,,,,,,,,,,,507.55872201902093,None,509.04198495301534,None,510.42501842899946,None,debt,510.42501842899946,None,return,1.2487429470056668,510.50845405002474,None,,,,,,,,,,,,,9,001,2023_Feb_07_1932,SpeechDraft1Carolyn_lessNoise,2021.2.3,59.96461799516943,
gain.wav,gain.mpg,gain,6,AV,Pink_Noise_6_1.wav,Pink_Noise_6_2.wav,,,,,,0,96,96,94,,,,,,,,,,,,,,,511.77529576802044,None,513.258446672,None,514.6416713480139,None,gain,514.6416713480139,None,return,0.856008311995538,514.7251451150223,None,,,,,,,,,,,,,9,001,2023_Feb_07_1932,SpeechDraft1Carolyn_lessNoise,2021.2.3,59.96461799516943,
flea.wav,flea.mpg,flea,2,AV,Pink_Noise_2_1.wav,Pink_Noise_2_2.wav,,,,,,0,97,97,106,,,,,,,,,,,,,,,515.608765145007,None,517.0937710270227,None,518.4753749070223,None,flee,518.4753749070223,None,return,1.0147244880208746,518.5584032730258,None,,,,,,,,,,,,,9,001,2023_Feb_07_1932,SpeechDraft1Carolyn_lessNoise,2021.2.3,59.96461799516943,
cow.wav,cow.mpg,cow,3,AV,Pink_Noise_3_1.wav,Pink_Noise_3_2.wav,,,,,,0,98,98,113,,,,,,,,,,,,,,,519.5918875350035,None,521.0772124000068,None,522.4585148449987,None,cow,522.4585148449987,None,return,0.6074070949980523,522.5417609360011,None,,,,,,,,,,,,,9,001,2023_Feb_07_1932,SpeechDraft1Carolyn_lessNoise,2021.2.3,59.96461799516943,
bright.wav,bright.mpg,bright,5,A,Pink_Noise_5_1.wav,Pink_Noise_5_2.wav,,,,,,0,99,99,55,,,,,,,,,,,,,,,523.1751573360234,None,524.6600597490033,None,526.0418309860106,None,bright,526.0418309860106,None,return,1.0077426750212908,526.1253511469986,None,,,,,,,,,,,,,9,001,2023_Feb_07_1932,SpeechDraft1Carolyn_lessNoise,2021.2.3,59.96461799516943,
earth.wav,earth.mpg,earth,3,AV,Pink_Noise_3_1.wav,Pink_Noise_3_2.wav,,,,,,0,100,100,77,,,,,,,,,,,,,,,527.1586171930248,None,528.6583433410269,None,530.0251173069992,None,"earth
",530.0251173069992,None,return,1.552427215006901,530.1086842030054,None,,,,,,,,,,,,,9,001,2023_Feb_07_1932,SpeechDraft1Carolyn_lessNoise,2021.2.3,59.96461799516943,
east.wav,east.mpg,east,4,AV,Pink_Noise_4_1.wav,Pink_Noise_4_2.wav,,,,,,0,101,101,72,,,,,,,,,,,,,,,531.6920315660245,None,533.1917962870211,None,534.558393911022,None,least,534.558393911022,None,return,2.1792735509807244,534.641827888001,None,,,,,,,,,,,,,9,001,2023_Feb_07_1932,SpeechDraft1Carolyn_lessNoise,2021.2.3,59.96461799516943,
chef.wav,chef.mpg,chef,6,AV,Pink_Noise_6_1.wav,Pink_Noise_6_2.wav,,,,,,0,102,102,112,,,,,,,,,,,,,,,536.8419985340151,None,538.3252467060229,None,539.7084840000025,None,"chef
",539.7084840000025,None,return,0.8532121340103913,539.7918937659997,None,,,,,,,,,,,,,9,001,2023_Feb_07_1932,SpeechDraft1Carolyn_lessNoise,2021.2.3,59.96461799516943,
bible.wav,bible.mpg,bible,1,AV,Pink_Noise_1_1.wav,Pink_Noise_1_2.wav,,,,,,0,103,103,83,,,,,,,,,,,,,,,540.6752443630248,None,542.1595109040209,None,543.5420049630047,None,bible,543.5420049630047,None,return,1.2039451280143112,543.6251654310036,None,,,,,,,,,,,,,9,001,2023_Feb_07_1932,SpeechDraft1Carolyn_lessNoise,2021.2.3,59.96461799516943,
fresh.wav,fresh.mpg,fresh,4,A,Pink_Noise_4_1.wav,Pink_Noise_4_2.wav,,,,,,0,104,104,56,,,,,,,,,,,,,,,544.8585733460204,None,546.3418338970223,None,547.725207119016,None,flash,547.725207119016,None,return,3.2926641200028826,547.8084581980074,None,,,,,,,,,,,,,9,001,2023_Feb_07_1932,SpeechDraft1Carolyn_lessNoise,2021.2.3,59.96461799516943,
cruel.wav,cruel.mpg,cruel,5,A,Pink_Noise_5_1.wav,Pink_Noise_5_2.wav,,,,,,0,105,105,10,,,,,,,,,,,,,,,551.125323840999,None,552.6085625780106,None,553.9917880860157,None,cool,553.9917880860157,None,return,0.8979251860000659,554.0751739219995,None,,,,,,,,,,,,,9,001,2023_Feb_07_1932,SpeechDraft1Carolyn_lessNoise,2021.2.3,59.96461799516943,
crack.wav,crack.mpg,crack,3,A,Pink_Noise_3_1.wav,Pink_Noise_3_2.wav,,,,,,0,106,106,59,,,,,,,,,,,,,,,554.9920590220136,None,556.4759601020196,None,557.8586974170175,None,"crack
",557.8586974170175,None,return,0.9191307729925029,557.9420121770236,None,,,,,,,,,,,,,9,001,2023_Feb_07_1932,SpeechDraft1Carolyn_lessNoise,2021.2.3,59.96461799516943,
spire.wav,spire.mpg,spire,3,A,Pink_Noise_3_1.wav,Pink_Noise_3_2.wav,,,,,,0,107,107,15,,,,,,,,,,,,,,,558.8920166740136,None,560.3767628750065,None,561.7585650540132,None,spire,561.7585650540132,None,return,1.1630882209865376,561.8420548150025,None,,,,,,,,,,,,,9,001,2023_Feb_07_1932,SpeechDraft1Carolyn_lessNoise,2021.2.3,59.96461799516943,
gust.wav,gust.mpg,gust,2,AV,Pink_Noise_2_1.wav,Pink_Noise_2_2.wav,,,,,,0,108,108,100,,,,,,,,,,,,,,,563.0252887960232,None,564.525059127016,None,565.8919134970056,None,gust,565.8919134970056,None,return,0.7500674710026942,565.9751378930232,None,,,,,,,,,,,,,9,001,2023_Feb_07_1932,SpeechDraft1Carolyn_lessNoise,2021.2.3,59.96461799516943,
swayed.wav,swayed.mpg,swayed,3,AV,Pink_Noise_3_1.wav,Pink_Noise_3_2.wav,,,,,,0,109,109,96,,,,,,,,,,,,,,,566.7420014350209,None,568.241651436023,None,569.6250704060076,None,suede,569.6250704060076,None,return,2.464370094006881,569.7087176190107,None,,,,,,,,,,,,,9,001,2023_Feb_07_1932,SpeechDraft1Carolyn_lessNoise,2021.2.3,59.96461799516943,
hit.wav,hit.mpg,hit,5,AV,Pink_Noise_5_1.wav,Pink_Noise_5_2.wav,,,,,,0,110,110,90,,,,,,,,,,,,,,,572.1921605820244,None,573.6915441990132,None,575.0583954540198,None,hit,575.0583954540198,None,return,0.6473029899934772,575.1418140150199,None,,,,,,,,,,,,,9,001,2023_Feb_07_1932,SpeechDraft1Carolyn_lessNoise,2021.2.3,59.96461799516943,
stain.wav,stain.mpg,stain,4,A,Pink_Noise_4_1.wav,Pink_Noise_4_2.wav,,,,,,0,111,111,12,,,,,,,,,,,,,,,575.8086444820219,None,577.3083911710128,None,578.6752799940004,None,stain,578.6752799940004,None,return,0.8705437919998076,578.7585444709985,None,,,,,,,,,,,,,9,001,2023_Feb_07_1932,SpeechDraft1Carolyn_lessNoise,2021.2.3,59.96461799516943,
barge.wav,barge.mpg,barge,2,AV,Pink_Noise_2_1.wav,Pink_Noise_2_2.wav,,,,,,0,112,112,68,,,,,,,,,,,,,,,579.6588598110247,None,581.1420331690169,None,582.525192592002,None,barge,582.525192592002,None,return,0.6922626080049668,582.6088395020051,None,,,,,,,,,,,,,9,001,2023_Feb_07_1932,SpeechDraft1Carolyn_lessNoise,2021.2.3,59.96461799516943,
blob.wav,blob.mpg,blob,6,AV,Pink_Noise_6_1.wav,Pink_Noise_6_2.wav,,,,,,0,113,113,102,,,,,,,,,,,,,,,583.3251880160242,None,584.8251642340038,None,586.1919076010236,None,blibe,586.1919076010236,None,return,2.953761640994344,586.2753572070214,None,,,,,,,,,,,,,9,001,2023_Feb_07_1932,SpeechDraft1Carolyn_lessNoise,2021.2.3,59.96461799516943,
flair.wav,flair.mpg,flair,1,A,Pink_Noise_1_1.wav,Pink_Noise_1_2.wav,,,,,,0,114,114,44,,,,,,,,,,,,,,,589.2588107300107,None,590.7585143720207,None,592.1418065320177,None,flare,592.1418065320177,None,return,0.5956179840140976,592.2254855800129,None,,,,,,,,,,,,,9,001,2023_Feb_07_1932,SpeechDraft1Carolyn_lessNoise,2021.2.3,59.96461799516943,
clown.wav,clown.mpg,clown,3,AV,Pink_Noise_3_1.wav,Pink_Noise_3_2.wav,,,,,,0,115,115,108,,,,,,,,,,,,,,,592.8422639570199,None,594.326466552011,None,595.7086164680077,None,clown,595.7086164680077,None,return,1.133300057001179,595.7918937340146,None,,,,,,,,,,,,,9,001,2023_Feb_07_1932,SpeechDraft1Carolyn_lessNoise,2021.2.3,59.96461799516943,
ham.wav,ham.mpg,ham,3,AV,Pink_Noise_3_1.wav,Pink_Noise_3_2.wav,,,,,,0,116,116,61,,,,,,,,,,,,,,,596.9421918730077,None,598.4416828980029,None,599.8086222480051,None,ham,599.8086222480051,None,return,1.1051242809917312,599.8920386350073,None,,,,,,,,,,,,,9,001,2023_Feb_07_1932,SpeechDraft1Carolyn_lessNoise,2021.2.3,59.96461799516943,
chess.wav,chess.mpg,chess,1,AV,Pink_Noise_1_1.wav,Pink_Noise_1_2.wav,,,,,,0,117,117,105,,,,,,,,,,,,,,,601.0255534780154,None,602.5251504510234,None,603.891876335023,None,chess,603.891876335023,None,return,1.173657039005775,603.9755429520155,None,,,,,,,,,,,,,9,001,2023_Feb_07_1932,SpeechDraft1Carolyn_lessNoise,2021.2.3,59.96461799516943,
gram.wav,gram.mpg,gram,5,AV,Pink_Noise_5_1.wav,Pink_Noise_5_2.wav,,,,,,0,118,118,71,,,,,,,,,,,,,,,605.1754151440109,None,606.6596073210239,None,608.0418832730211,None,gram,608.0418832730211,None,return,3.0478125319932587,608.1252925080189,None,,,,,,,,,,,,,9,001,2023_Feb_07_1932,SpeechDraft1Carolyn_lessNoise,2021.2.3,59.96461799516943,
bruise.wav,bruise.mpg,bruise,2,A,Pink_Noise_2_1.wav,Pink_Noise_2_2.wav,,,,,,0,119,119,9,,,,,,,,,,,,,,,611.1921736450167,None,612.6761664270016,None,614.0587261510082,None,bruise,614.0587261510082,None,return,0.8791076730121858,614.142092242022,None,,,,,,,,,,,,,9,001,2023_Feb_07_1932,SpeechDraft1Carolyn_lessNoise,2021.2.3,59.96461799516943,
,,,,,,,,,,,,,,,,,,,,,,,,,,,,,,,,,,,,,,,,,,,,,,,,,615.0428200940078,None,c,556.5799193099956,616.0252166860155,None,9,001,2023_Feb_07_1932,SpeechDraft1Carolyn_lessNoise,2021.2.3,59.96461799516943,
