filePaths,practFiles,StimulusCode,stim1,stim2,stim3,stim4,stim5,stim1Start,stim1End,stim2Start,stim2End,stim3Start,stim3End,stim4Start,stim4End,stim5Start,stim5End,audFile,audStart,similCat,rhythm_i2,stim1_i2,stim2_i2,stim3_i2,stim4_i2,stim5_i2,stim1Start_i2,stim1End_i2,stim2Start_i2,stim2End_i2,stim3Start_i2,stim3End_i2,stim4Start_i2,stim4End_i2,stim5Start_i2,stim5End_i2,audFile_i2,audStart_i2,similCatp,setVol,corrMatchAnswer,whatCondIs,trialTypeName,rhythm,stim6,stim6Start,stim6End,stim6_i2,stim6Start_i2,stim6End_i2,similCat_i2,overarchingRhythmOrder.thisRepN,overarchingRhythmOrder.thisTrialN,overarchingRhythmOrder.thisN,overarchingRhythmOrder.thisIndex,rhythmPractTrials.thisRepN,rhythmPractTrials.thisTrialN,rhythmPractTrials.thisN,rhythmPractTrials.thisIndex,AudVisRhythmLoop.thisRepN,AudVisRhythmLoop.thisTrialN,AudVisRhythmLoop.thisN,AudVisRhythmLoop.thisIndex,text_3.started,text_3.stopped,goToNext.keys,goToNext.rt,goToNext.started,goToNext.stopped,variableInstructions_2.started,variableInstructions_2.stopped,goToBlockKey_2.keys,goToBlockKey_2.rt,goToBlockKey_2.started,goToBlockKey_2.stopped,text_9.started,text_9.stopped,preFix_2.started,preFix_2.stopped,text_10.started,text_10.stopped,text_11.started,text_11.stopped,holdFix_2.started,holdFix_2.stopped,cir1_2.started,cir1_2.stopped,cir2_2.started,cir2_2.stopped,cir3_2.started,cir3_2.stopped,cir4_2.started,cir4_2.stopped,cir5_2.started,cir5_2.stopped,audioTrialSound_2.started,audioTrialSound_2.stopped,text.started,text.stopped,holdFix_i2_2.started,holdFix_i2_2.stopped,cir1_i2_2.started,cir1_i2_2.stopped,cir2_i2_2.started,cir2_i2_2.stopped,cir3_i2_2.started,cir3_i2_2.stopped,cir4_i2_2.started,cir4_i2_2.stopped,cir5_i2_2.started,cir5_i2_2.stopped,audioTrialSound_i2_2.started,audioTrialSound_i2_2.stopped,rhythmChoice.keys,rhythmChoice.rt,rhythmChoice.started,rhythmChoice.stopped,promptTxt.started,promptTxt.stopped,text_5.started,text_5.stopped,variableInstructions.started,variableInstructions.stopped,goToBlockKey.keys,goToBlockKey.rt,goToBlockKey.started,goToBlockKey.stopped,text_2.started,text_2.stopped,preFix.started,preFix.stopped,holdFix.started,holdFix.stopped,cir1.started,cir1.stopped,cir2.started,cir2.stopped,cir3.started,cir3.stopped,cir4.started,cir4.stopped,cir5.started,cir5.stopped,cir6.started,cir6.stopped,audioTrialSound.started,audioTrialSound.stopped,holdFix_i2.started,holdFix_i2.stopped,cir1_i2.started,cir1_i2.stopped,cir2_i2.started,cir2_i2.stopped,cir3_i2.started,cir3_i2.stopped,cir4_i2.started,cir4_i2.stopped,cir5_i2.started,cir5_i2.stopped,cir6_i2.started,cir6_i2.stopped,audioTrialSound_i2.started,audioTrialSound_i2.stopped,breatheBro.started,breatheBro.stopped,image.started,image.stopped,keyToGo.keys,keyToGo.rt,keyToGo.started,keyToGo.stopped,spaceTxt.started,spaceTxt.stopped,participant,session,date,expName,psychopyVersion,frameRate,
,,,,,,,,,,,,,,,,,,,,,,,,,,,,,,,,,,,,,,,,,,,,,,,,,,,,,,,,,,,,,,,,13.11217022803612,None,space,0.4598121070303023,13.29231774690561,None,,,,,,,,,,,,,,,,,,,,,,,,,,,,,,,,,,,,,,,,,,,,,,,,,,,,,,,,,,,,,,,,,,,,,,,,,,,,,,,,,,,,,,,,,,,,,,,,,,,,,,,,,0,1,2023_May_24_0903,Cognition2_FullCode1,2021.2.3,99.97008290441282,
/Users/shamslab/Desktop/Cognition2_FullExperimentFile/0_VisualBlock1.csv,/Users/shamslab/Desktop/Cognition2_FullExperimentFile/fullGoodSeqs_rhythm_shortVis_PracticeVideo.csv,P1,2,1,2,1,1,11,41,56,61,76,106,121,126,141,146,1_practAudFile.wav,1,pc1,P1,2,1,2,1,1,11,41,56,61,76,106,121,126,141,146,1_practAudFile.wav,1,pc1,0,1,SAME,SAME,,,,,,,,,0,0,0,0,0,0,0,0,,,,,,,,,,,13.902392408112064,None,space,0.45357988914474845,14.002586994087324,None,18.583367391955107,None,18.783685436006635,None,14.582439695950598,18.583367391955107,14.582439695950598,18.583367391955107,19.783778534969315,None,19.89384145103395,20.193926783977076,20.34410395496525,20.393929126905277,20.54406109591946,20.8440422040876,21.00427810009569,21.064302310114726,21.214291566982865,21.26425893092528,19.793782044877297,None,21.674622396938503,None,22.98519446607679,None,23.095164145110175,23.39512897306122,23.545101090101525,23.59522718307562,23.745013454928994,24.044988434994593,24.195056470111012,24.24497013911605,24.395192310912535,24.44513967493549,22.995197975984773,None,1,1.8466071079019457,25.345554541097954,None,25.345554541097954,None,27.30590358795598,None,,,,,,,,,,,,,,,,,,,,,,,,,,,,,,,,,,,,,,,,,,,,,,,,,,,,,0,1,2023_May_24_0903,Cognition2_FullCode1,2021.2.3,99.97008290441282,
/Users/shamslab/Desktop/Cognition2_FullExperimentFile/0_VisualBlock1.csv,/Users/shamslab/Desktop/Cognition2_FullExperimentFile/fullGoodSeqs_rhythm_shortVis_PracticeVideo.csv,P2,2,1,1,2,1,11,41,56,61,76,81,96,126,141,146,2_practAudFile.wav,1,pc1,P1,2,1,2,1,1,11,41,56,61,76,106,121,126,141,146,1_practAudFile.wav,1,pc1,0,2,DIFFERENT,DIFFERENT,,,,,,,,,0,0,0,0,0,1,1,1,,,,,,,,,,,,,,,,,32.90756884799339,None,33.10749642807059,None,28.906368874944746,32.90756884799339,28.906368874944746,32.90756884799339,34.11784356995486,None,34.22804790805094,34.52797714108601,34.678005632944405,34.728241892997175,34.878105527954176,34.92822356102988,35.078180517069995,35.378230007132515,35.528165410039946,35.57832142198458,34.12784707986284,None,35.97854441800155,None,37.28884523990564,None,37.39874847512692,37.69890154898167,37.84891275106929,37.89899895898998,38.04906076891348,38.349208124913275,38.499219842022285,38.54912558803335,38.6992631459143,38.749255256028846,37.29884874981362,None,2,0.5828487130347639,39.64942598994821,None,39.64942598994821,None,40.33965169102885,None,,,,,,,,,,,,,,,,,,,,,,,,,,,,,,,,,,,,,,,,,,,,,,,,,,,,,0,1,2023_May_24_0903,Cognition2_FullCode1,2021.2.3,99.97008290441282,
/Users/shamslab/Desktop/Cognition2_FullExperimentFile/0_VisualBlock1.csv,/Users/shamslab/Desktop/Cognition2_FullExperimentFile/fullGoodSeqs_rhythm_shortVis_PracticeVideo.csv,P3,1,2,1,2,1,11,16,31,61,76,81,96,126,141,146,3_practAudFile.wav,1,pc2,P3,1,2,1,2,1,11,16,31,61,76,81,96,126,141,146,3_practAudFile.wav,1,pc2,0,1,SAME,SAME,,,,,,,,,0,0,0,0,0,2,2,2,,,,,,,,,,,,,,,,,45.931329084094614,None,46.131384269101545,None,41.93004153599031,45.931329084094614,41.93004153599031,45.931329084094614,47.1414979849942,None,47.251676734071225,47.30163671402261,47.45169240399264,47.75179449399002,47.90181105490774,47.951890378957614,48.10194017901085,48.40204880712554,48.55212012701668,48.60203833808191,47.151501494902185,None,49.002210163045675,None,50.31246139504947,None,50.42249918496236,50.47259852592833,50.622489707078785,50.922712286002934,51.072626101085916,51.12278295494616,51.27277975506149,51.57284788810648,51.72294669691473,51.77294756798074,50.32246490495745,None,1,1.094956865068525,52.6732013639994,None,52.6732013639994,None,53.873649863991886,None,,,,,,,,,,,,,,,,,,,,,,,,,,,,,,,,,,,,,,,,,,,,,,,,,,,,,0,1,2023_May_24_0903,Cognition2_FullCode1,2021.2.3,99.97008290441282,
/Users/shamslab/Desktop/Cognition2_FullExperimentFile/0_VisualBlock1.csv,/Users/shamslab/Desktop/Cognition2_FullExperimentFile/fullGoodSeqs_rhythm_shortVis_PracticeVideo.csv,P3,1,2,1,2,1,11,16,31,61,76,81,96,126,141,146,3_practAudFile.wav,1,pc2,P4,1,2,1,1,2,11,16,31,61,76,81,96,101,116,146,4_practAudFile.wav,1,pc2,0,2,DIFFERENT,DIFFERENT,,,,,,,,,0,0,0,0,0,3,3,3,,,,,,,,,,,,,,,,,59.465016522910446,None,59.66511718207039,None,55.46413174411282,59.465016522910446,55.46413174411282,59.465016522910446,60.6754972350318,None,60.78563897195272,60.835483042057604,60.9855910721235,61.285719531122595,61.435729674994946,61.485671343049034,61.63587594102137,61.93572181509808,62.08580718212761,62.13599436194636,60.68550074493978,None,62.53594930307008,None,63.84642567904666,None,63.95640446105972,64.00641576200724,64.15654232213274,64.45663028210402,64.60666833911091,64.65653418097645,64.80668796296231,64.85660213790834,65.00674461806193,65.30672535696067,63.85642918895464,None,2,0.16911899903789163,66.2070487421006,None,66.2070487421006,None,66.47721934202127,None,,,,,,,,,,,,,,,,,,,,,,,,,,,,,,,,,,,,,,,,,,,,,,,,,,,,,0,1,2023_May_24_0903,Cognition2_FullCode1,2021.2.3,99.97008290441282,
/Users/shamslab/Desktop/Cognition2_FullExperimentFile/0_VisualBlock1.csv,/Users/shamslab/Desktop/Cognition2_FullExperimentFile/fullGoodSeqs_rhythm_shortVis_PracticeVideo.csv,,2,1,2,2,1,11,41,53,58,70,100,112,142,154,159,3_audFile.wav,10,6,19,2,1,2,1,2,11,41,53,58,70,100,112,117,129,159,3_audFile.wav,10,,0,2,,,17,1,171,176,1,171,176,6,0,0,0,0,,,,,0,0,0,28,,,,,,,,,,,,,,,,,,,,,,,,,,,,,,,,,,,72.11871334095486,None,,,,,,,,,,,,,,,2,0.35438660392537713,75.78978425101377,None,75.78978425101377,None,,,68.08772504911758,None,space,0.836519030854106,68.18766349111684,None,69.07802487211302,None,69.25799328205176,None,70.25809354009107,None,70.36824088310823,70.66842308896594,70.78839782904834,70.83832306601107,70.95846936199814,71.2584612921346,71.37852968811058,71.67850306606852,71.79869120102376,71.84855676000006,71.96884311805479,72.0186107289046,70.35821655599867,None,73.42910795705393,None,73.53915713098831,73.83913870109245,73.95927919703536,74.00919430004433,74.12928799004294,74.42939592106268,74.5493151161354,74.59955855202861,74.71964751905762,75.01960673509166,75.13968192203902,75.18952424800955,73.52912047689316,None,,,,,,,,,,,0,1,2023_May_24_0903,Cognition2_FullCode1,2021.2.3,99.97008290441282,
/Users/shamslab/Desktop/Cognition2_FullExperimentFile/0_VisualBlock1.csv,/Users/shamslab/Desktop/Cognition2_FullExperimentFile/fullGoodSeqs_rhythm_shortVis_PracticeVideo.csv,,2,1,1,2,2,11,41,53,58,70,75,87,117,129,159,3_audFile.wav,10,6,19,2,1,2,1,2,11,41,53,58,70,100,112,117,129,159,3_audFile.wav,10,,0,2,,,21,1,171,176,1,171,176,6,0,0,0,0,,,,,0,1,1,20,,,,,,,,,,,,,,,,,,,,,,,,,,,,,,,,,,,79.24079126003198,None,,,,,,,,,,,,,,,2,0.7681749840267003,82.91203193413094,None,82.91203193413094,None,,,,,,,,,76.16992399608716,None,76.35013443394564,77.3502191840671,77.38026405591518,None,77.49024002091028,77.79033218510449,77.91036333702505,77.96052813902497,78.08048445708118,78.13046149606816,78.25052469992079,78.55052256700583,78.6705348950345,78.97058466612361,79.0907651449088,79.14066986599937,77.48025600586553,None,80.55115379509516,None,80.66115044313483,80.96126704895869,81.08128592302091,81.13119840505533,81.2514225661289,81.55149157601409,81.67145230411552,81.72144732903689,81.84155949298292,82.1416354670655,82.26157932309434,82.31152567802928,80.65111694389489,None,,,,,,,,,,,0,1,2023_May_24_0903,Cognition2_FullCode1,2021.2.3,99.97008290441282,
/Users/shamslab/Desktop/Cognition2_FullExperimentFile/0_VisualBlock1.csv,/Users/shamslab/Desktop/Cognition2_FullExperimentFile/fullGoodSeqs_rhythm_shortVis_PracticeVideo.csv,,1,2,2,1,1,11,16,28,58,70,100,112,117,129,134,3_audFile.wav,10,5,22,1,2,1,2,2,11,16,28,58,70,75,87,117,129,159,3_audFile.wav,10,,0,2,,,24,2,146,176,1,171,176,5,0,0,0,0,,,,,0,2,2,17,,,,,,,,,,,,,,,,,,,,,,,,,,,,,,,,,,,86.77288551512174,None,,,,,,,,,,,,,,,2,14.372116621118039,90.44413007306866,None,90.44413007306866,None,,,,,,,,,83.70190511806868,None,83.88202979206108,84.88232996198349,84.91241924394853,None,85.02250417903997,85.07240466400981,85.1926078919787,85.49256090796553,85.61257767211646,85.91276251594536,86.03272290411405,86.0827005689498,86.2029336169362,86.25286561693065,86.3729298049584,86.67299068090506,85.0124092048267,None,88.08339107502252,None,88.19341545295902,88.24339388590306,88.36329925106838,88.66350788204,88.78348216810264,88.8334234780632,88.95361923309974,89.25353792705573,89.37373693310656,89.67373055801727,89.7938031849917,89.8438119480852,88.18342661599164,None,,,,,,,,,,,0,1,2023_May_24_0903,Cognition2_FullCode1,2021.2.3,99.97008290441282,
/Users/shamslab/Desktop/Cognition2_FullExperimentFile/0_VisualBlock1.csv,/Users/shamslab/Desktop/Cognition2_FullExperimentFile/fullGoodSeqs_rhythm_shortVis_PracticeVideo.csv,,1,2,2,1,2,11,16,28,58,70,100,112,117,129,159,3_audFile.wav,10,5,28,1,2,1,1,2,11,16,28,58,70,75,87,92,104,134,3_audFile.wav,10,,0,2,,,20,1,171,176,2,146,176,5,0,0,0,0,,,,,0,3,3,13,,,,,,,,,,,,,,,,,,,,,,,,,,,,,,,,,,,107.90891481912695,None,,,,,,,,,,,,,,,2,5.444096180144697,111.58017361001112,None,111.58017361001112,None,,,,,,,,,104.83801774610765,None,105.01813090313226,106.0183138831053,106.04838626109995,None,106.15855937311426,106.20834989193827,106.32857622113079,106.6287020209711,106.74864460807294,107.04866669606417,107.16866601305082,107.21867211302742,107.3388191331178,107.63881640299223,107.75882883090526,107.80905983992852,106.14844836781268,None,109.21937932004221,None,109.32938811695203,109.3793843970634,109.49938701209612,109.79952176706865,109.91946505592205,109.96968738199212,110.08960066502914,110.13956276094541,110.2596845771186,110.55969549110159,110.67993708094582,110.97982005611993,109.31931334498805,None,,,,,,,,,,,0,1,2023_May_24_0903,Cognition2_FullCode1,2021.2.3,99.97008290441282,
/Users/shamslab/Desktop/Cognition2_FullExperimentFile/0_VisualBlock1.csv,/Users/shamslab/Desktop/Cognition2_FullExperimentFile/fullGoodSeqs_rhythm_shortVis_PracticeVideo.csv,,2,2,1,1,2,11,41,53,83,95,100,112,117,129,159,3_audFile.wav,10,7,18,2,2,1,1,2,11,41,53,83,95,100,112,117,129,159,3_audFile.wav,10,,0,1,,,18,1,171,176,1,171,176,7,0,0,0,0,,,,,0,4,4,4,,,,,,,,,,,,,,,,,,,,,,,,,,,,,,,,,,,120.12253805901855,None,,,,,,,,,,,,,,,2,12.742648132843897,123.79352308693342,None,123.79352308693342,None,,,,,,,,,117.05159512907267,None,117.23149973596446,118.23181285709143,118.2619442329742,None,118.37202147813514,118.67209113412537,118.79203839506954,119.09216381702572,119.21212003193796,119.26222482509911,119.38238903693855,119.43215542891994,119.5523719470948,119.85240368708037,119.97248480212875,120.02231252402999,118.36207498281729,None,121.4328877760563,None,121.54293647804298,121.84295348706655,121.96300677303225,122.26308781793341,122.38310622400604,122.43304923293181,122.55321865505539,122.60331419296563,122.72325149411336,123.02334370510653,123.14340479392558,123.19320626510307,121.53278191385326,None,,,,,,,,,,,0,1,2023_May_24_0903,Cognition2_FullCode1,2021.2.3,99.97008290441282,
/Users/shamslab/Desktop/Cognition2_FullExperimentFile/0_VisualBlock1.csv,/Users/shamslab/Desktop/Cognition2_FullExperimentFile/fullGoodSeqs_rhythm_shortVis_PracticeVideo.csv,,1,2,2,1,1,11,16,28,58,70,100,112,117,129,134,3_audFile.wav,10,5,24,1,2,2,1,1,11,16,28,58,70,100,112,117,129,134,3_audFile.wav,10,,0,1,,,24,2,146,176,2,146,176,5,0,0,0,0,,,,,0,5,5,3,,,,,,,,,,,,,,,,,,,,,,,,,,,,,,,,,,,139.62825513794087,None,,,,,,,,,,,,,,,2,7.965143515961245,143.29907583096065,None,143.29907583096065,None,,,,,,,,,136.5571990921162,None,136.73720733099617,137.73760775802657,137.7675012499094,None,137.8776539429091,137.92752664792351,138.04762082896195,138.34767891210504,138.46771045192145,138.76771345199086,138.88785245199688,138.93782770098187,139.0579818240367,139.10780152701773,139.22807314805686,139.5280526340939,137.86772390289698,None,140.93845756002702,None,141.04844069294631,141.09844025201164,141.21844209893607,141.51852001808584,141.63857795204967,141.93879198096693,142.05871489294805,142.10867196903564,142.22882405295968,142.2787798671052,142.39888566103764,142.69879313302226,141.03834814203438,None,,,,,,,,,,,0,1,2023_May_24_0903,Cognition2_FullCode1,2021.2.3,99.97008290441282,
/Users/shamslab/Desktop/Cognition2_FullExperimentFile/0_VisualBlock1.csv,/Users/shamslab/Desktop/Cognition2_FullExperimentFile/fullGoodSeqs_rhythm_shortVis_PracticeVideo.csv,,2,1,2,1,2,11,41,53,58,70,100,112,117,129,159,3_audFile.wav,10,6,25,2,1,1,2,1,11,41,53,58,70,75,87,117,129,134,3_audFile.wav,10,,0,2,,,19,1,171,176,2,146,176,6,0,0,0,0,,,,,0,6,6,18,,,,,,,,,,,,,,,,,,,,,,,,,,,,,,,,,,,154.36223380407318,None,,,,,,,,,,,,,,,2,2.3508233439642936,158.03333391598426,None,158.03333391598426,None,,,,,,,,,151.29129109508358,None,151.47147545707412,152.47172729903832,152.50164715503342,None,152.61181213404052,152.91203292808495,153.031820588978,153.08186536002904,153.20195229304954,153.5020642990712,153.62204905692488,153.67197720496915,153.7921674051322,154.0921674759593,154.21221617399715,154.26214448991232,152.6019007880008,None,155.6724419130478,None,155.78267149697058,156.08276543207467,156.2026734529063,156.25276863807812,156.3727944351267,156.42277256795205,156.54286970407702,156.842999412911,156.96295065409504,157.01291134790517,157.13308283290826,157.43302408908494,155.77268532800954,None,,,,,,,,,,,0,1,2023_May_24_0903,Cognition2_FullCode1,2021.2.3,99.97008290441282,
/Users/shamslab/Desktop/Cognition2_FullExperimentFile/0_VisualBlock1.csv,/Users/shamslab/Desktop/Cognition2_FullExperimentFile/fullGoodSeqs_rhythm_shortVis_PracticeVideo.csv,,1,2,2,1,2,11,16,28,58,70,100,112,117,129,159,3_audFile.wav,10,5,20,1,2,2,1,2,11,16,28,58,70,100,112,117,129,159,3_audFile.wav,10,,0,1,,,20,1,171,176,1,171,176,5,0,0,0,0,,,,,0,7,7,21,,,,,,,,,,,,,,,,,,,,,,,,,,,,,,,,,,,163.48485179292038,None,,,,,,,,,,,,,,,2,0.3083520538639277,167.15589813212864,None,167.15589813212864,None,,,,,,,,,160.41404281300493,None,160.60396741493605,161.60436058300547,161.62419403111562,None,161.734360385919,161.7843321459368,161.90437944512814,162.20456529501826,162.32446949998848,162.62464371393435,162.74454499711283,162.7945786160417,162.91469601192512,163.21475070691667,163.33489823993295,163.3849111860618,161.72439638383221,None,164.79514963994734,None,164.90530415205285,164.95530305500142,165.07528832601383,165.37530701211654,165.49533920292743,165.79547681100667,165.91560872504488,165.96555709606037,166.08561305212788,166.3855411040131,166.50568899093196,166.55568922008388,164.89515523703304,None,,,,,,,,,,,0,1,2023_May_24_0903,Cognition2_FullCode1,2021.2.3,99.97008290441282,
/Users/shamslab/Desktop/Cognition2_FullExperimentFile/0_VisualBlock1.csv,/Users/shamslab/Desktop/Cognition2_FullExperimentFile/fullGoodSeqs_rhythm_shortVis_PracticeVideo.csv,,2,1,2,1,1,11,41,53,58,70,100,112,117,129,134,3_audFile.wav,10,6,17,2,1,2,2,1,11,41,53,58,70,100,112,142,154,159,3_audFile.wav,10,,0,2,,,23,2,146,176,1,171,176,6,0,0,0,0,,,,,0,8,8,0,,,,,,,,,,,,,,,,,,,,,,,,,,,,,,,,,,,170.55686797900125,None,,,,,,,,,,,,,,,2,6.61216299678199,174.22799932700582,None,174.22799932700582,None,,,,,,,,,167.4859768350143,None,167.66594242490828,168.66636092495173,168.6963592900429,None,168.80640601506457,169.10649562301114,169.2264567001257,169.27660234412178,169.39651876105927,169.69661242398433,169.81658089905977,169.8666503750719,169.98669716808945,170.0365900080651,170.15671817213297,170.45688913506456,168.7964338208316,None,171.8672416480258,None,171.97720054793172,172.2772024499718,172.39724677801132,172.44738486013375,172.5674687109422,172.86759704095311,172.98752937000245,173.2877101211343,173.40765268099494,173.45756927109323,173.57767222309485,173.62770583294332,171.96721948983614,None,,,,,,,,,,,0,1,2023_May_24_0903,Cognition2_FullCode1,2021.2.3,99.97008290441282,
/Users/shamslab/Desktop/Cognition2_FullExperimentFile/0_VisualBlock1.csv,/Users/shamslab/Desktop/Cognition2_FullExperimentFile/fullGoodSeqs_rhythm_shortVis_PracticeVideo.csv,,1,1,2,2,1,11,16,28,33,45,75,87,117,129,134,3_audFile.wav,10,4,27,1,1,2,2,1,11,16,28,33,45,75,87,117,129,134,3_audFile.wav,10,,0,1,,,27,2,146,176,2,146,176,4,0,0,0,0,,,,,0,9,9,26,,,,,,,,,,,,,,,,,,,,,,,,,,,,,,,,,,,183.9406794270035,None,,,,,,,,,,,,,,,2,0.40252539701759815,187.62172468891367,None,187.62172468891367,None,,,,,,,,,180.86977276206017,None,181.059927708935,182.06027908204123,182.080054521095,None,182.1902404089924,182.2401181969326,182.3601751991082,182.4102235760074,182.53027654695325,182.8302943171002,182.95036763092503,183.25060425698757,183.37060614698566,183.42042877012864,183.5406368789263,183.8407080611214,182.18022490197328,None,185.250966795953,None,185.36101492703892,185.4111125250347,185.5410157639999,185.5911238901317,185.71120092994533,186.0112985840533,186.13127768808044,186.43126252596267,186.55145060713403,186.6014254540205,186.72139523504302,187.02151153609157,185.35122939895373,None,,,,,,,,,,,0,1,2023_May_24_0903,Cognition2_FullCode1,2021.2.3,99.97008290441282,
/Users/shamslab/Desktop/Cognition2_FullExperimentFile/0_VisualBlock1.csv,/Users/shamslab/Desktop/Cognition2_FullExperimentFile/fullGoodSeqs_rhythm_shortVis_PracticeVideo.csv,,2,1,2,1,1,11,41,53,58,70,100,112,117,129,134,3_audFile.wav,10,6,23,2,1,2,1,1,11,41,53,58,70,100,112,117,129,134,3_audFile.wav,10,,0,1,,,23,2,146,176,2,146,176,6,0,0,0,0,,,,,0,10,10,7,,,,,,,,,,,,,,,,,,,,,,,,,,,,,,,,,,,191.12263759807684,None,,,,,,,,,,,,,,,2,10.734403766226023,194.79375837091357,None,194.79375837091357,None,,,,,,,,,188.05183224496432,None,188.23196164891124,189.23210814711638,189.26219042390585,None,189.37233595503494,189.67238339711912,189.7925157379359,189.84226374607533,189.96240762411617,190.26248826505616,190.38266297592781,190.43252918706276,190.55261273891665,190.60247133905068,190.7226269650273,191.02264033607207,189.36217094699387,None,192.4330914390739,None,192.54312013508752,192.8431975049898,192.96321801794693,193.01325058192015,193.13329328713007,193.4334591520019,193.5534659649711,193.6034926630091,193.72360442695208,193.77342148590833,193.89341220702045,194.19356995797716,192.53306310784538,None,,,,,,,,,,,0,1,2023_May_24_0903,Cognition2_FullCode1,2021.2.3,99.97008290441282,
/Users/shamslab/Desktop/Cognition2_FullExperimentFile/0_VisualBlock1.csv,/Users/shamslab/Desktop/Cognition2_FullExperimentFile/fullGoodSeqs_rhythm_shortVis_PracticeVideo.csv,,2,1,1,2,1,11,41,53,58,70,75,87,117,129,134,3_audFile.wav,10,6,19,2,1,2,1,2,11,41,53,58,70,100,112,117,129,159,3_audFile.wav,10,,0,2,,,25,2,146,176,1,171,176,6,0,0,0,0,,,,,0,11,11,29,,,,,,,,,,,,,,,,,,,,,,,,,,,,,,,,,,,208.62778017111123,None,,,,,,,,,,,,,,,2,0.23735773586668074,212.29882716108114,None,212.29882716108114,None,,,,,,,,,205.5569730650168,None,205.74682137812488,206.74731772905216,206.76726296008565,None,206.8772074179724,207.17719673505053,207.29723104392178,207.34733666898683,207.4673535199836,207.51743503194302,207.63742477004416,207.9376380010508,208.05755194812082,208.10752688301727,208.22764125093818,208.52768923295662,206.8674337710021,None,209.93801644211635,None,210.0480410240125,210.34817861998454,210.46828566701151,210.51829340099357,210.6382823109161,210.9383616389241,211.05839873407967,211.1084401209373,211.22854382009245,211.528538859915,211.6486910879612,211.6986762699671,210.03808858685662,None,,,,,,,,,,,0,1,2023_May_24_0903,Cognition2_FullCode1,2021.2.3,99.97008290441282,
/Users/shamslab/Desktop/Cognition2_FullExperimentFile/0_VisualBlock1.csv,/Users/shamslab/Desktop/Cognition2_FullExperimentFile/fullGoodSeqs_rhythm_shortVis_PracticeVideo.csv,,2,1,2,1,2,11,41,53,58,70,100,112,117,129,159,3_audFile.wav,10,6,19,2,1,2,1,2,11,41,53,58,70,100,112,117,129,159,3_audFile.wav,10,,0,1,,,19,1,171,176,1,171,176,6,0,0,0,0,,,,,0,12,12,15,,,,,,,,,,,,,,,,,,,,,,,,,,,,,,,,,,,215.62964836508036,None,,,,,,,,,,,,,,,2,0.08930126996710896,219.3109112670645,None,219.3109112670645,None,,,,,,,,,212.55876255594194,None,212.7388480110094,213.73911970295012,213.76922090211883,None,213.87912815110758,214.1793239179533,214.2993864780292,214.34926138212904,214.46937999804504,214.7694519229699,214.8895125889685,214.9395205511246,215.05967486905865,215.35957182897255,215.47964572999626,215.52970283012837,213.86912967192475,None,216.94009327096865,None,217.05010738712735,217.3503554270137,217.47027813806199,217.52012998797,217.64032262493856,217.94043901911937,218.06035012193024,218.11048321891576,218.23055608710274,218.53050937713124,218.65066738892347,218.70057153212838,217.04008936902974,None,,,,,,,,,,,0,1,2023_May_24_0903,Cognition2_FullCode1,2021.2.3,99.97008290441282,
/Users/shamslab/Desktop/Cognition2_FullExperimentFile/0_VisualBlock1.csv,/Users/shamslab/Desktop/Cognition2_FullExperimentFile/fullGoodSeqs_rhythm_shortVis_PracticeVideo.csv,,2,1,2,1,2,11,41,53,58,70,100,112,117,129,159,3_audFile.wav,10,6,21,2,1,1,2,2,11,41,53,58,70,75,87,117,129,159,3_audFile.wav,10,,0,2,,,19,1,171,176,1,171,176,6,0,0,0,0,,,,,0,13,13,9,,,,,,,,,,,,,,,,,,,,,,,,,,,,,,,,,,,222.50178394792601,None,,,,,,,,,,,,,,,2,2.371445589000359,226.17271671211347,None,226.17271671211347,None,,,,,,,,,219.4207449099049,None,219.60094648809172,220.6009984940756,220.6311983249616,None,220.74102149694227,221.04135576612316,221.16137039405294,221.21127190697007,221.33131809602492,221.63143769698218,221.75151210697368,221.8014770890586,221.921483844053,222.22165928408504,222.34172567701899,222.40158866601996,220.7310557048535,None,223.81195725896396,None,223.9220014240127,224.22221673396416,224.34219076507725,224.39213895308785,224.5122960349545,224.56226890604012,224.68232268607244,224.98230033996515,225.10249553690664,225.4025003479328,225.52258308697492,225.57250007009134,223.91202587701846,None,,,,,,,,,,,0,1,2023_May_24_0903,Cognition2_FullCode1,2021.2.3,99.97008290441282,
/Users/shamslab/Desktop/Cognition2_FullExperimentFile/0_VisualBlock1.csv,/Users/shamslab/Desktop/Cognition2_FullExperimentFile/fullGoodSeqs_rhythm_shortVis_PracticeVideo.csv,,2,1,2,2,1,11,41,53,58,70,100,112,142,154,159,3_audFile.wav,10,6,17,2,1,2,2,1,11,41,53,58,70,100,112,142,154,159,3_audFile.wav,10,,0,1,,,17,1,171,176,1,171,176,6,0,0,0,0,,,,,0,14,14,2,,,,,,,,,,,,,,,,,,,,,,,,,,,,,,,,,,,231.65427454095334,None,,,,,,,,,,,,,,,2,11.696818651165813,235.3353689101059,None,235.3353689101059,None,,,,,,,,,228.5733632980846,None,228.76342715811916,229.76375925308093,229.78380606812425,None,229.89381892513484,230.19392125494778,230.31388902594335,230.3638871021103,230.4939239649102,230.79409842193127,230.9140371750109,231.21422397205606,231.33407572703436,231.38415722595528,231.50420490303077,231.5543368770741,229.88377647285816,None,232.96471915813163,None,233.07467533205636,233.3847869951278,233.50479262508452,233.55477086291648,233.67483442393132,233.97498697112314,234.09503765311092,234.39517297712155,234.51501942402683,234.5651407300029,234.6852828070987,234.73506291699596,233.06465736099054,None,,,,,,,,,,,0,1,2023_May_24_0903,Cognition2_FullCode1,2021.2.3,99.97008290441282,
/Users/shamslab/Desktop/Cognition2_FullExperimentFile/0_VisualBlock1.csv,/Users/shamslab/Desktop/Cognition2_FullExperimentFile/fullGoodSeqs_rhythm_shortVis_PracticeVideo.csv,,1,2,1,1,2,11,16,28,58,70,75,87,92,104,134,3_audFile.wav,10,5,22,1,2,1,2,2,11,16,28,58,70,75,87,117,129,159,3_audFile.wav,10,,0,2,,,28,2,146,176,1,171,176,5,0,0,0,0,,,,,0,15,15,23,,,,,,,,,,,,,,,,,,,,,,,,,,,,,,,,,,,250.1295900871046,None,,,,,,,,,,,,,,,2,1.0474095360841602,253.8007562509738,None,253.8007562509738,None,,,,,,,,,247.05862449901178,None,247.23885674402118,248.23899137298577,248.26905220700428,None,248.37925910996273,248.42905835201964,248.5490991990082,248.84920538705774,248.96931022708304,249.01929722796194,249.13924407796003,249.1892915130593,249.3095911820419,249.60944433812983,249.72959871194325,250.02948816190474,248.36898766688537,None,251.43983655795455,None,251.5499881389551,251.59996927110478,251.72007964504883,252.02014560904354,252.14007075992413,252.19016771903262,252.31029036804102,252.61021615704522,252.73038359195925,253.03034402499907,253.15053227706812,253.20038032601587,251.5398627619492,None,,,,,,,,,,,0,1,2023_May_24_0903,Cognition2_FullCode1,2021.2.3,99.97008290441282,
/Users/shamslab/Desktop/Cognition2_FullExperimentFile/0_VisualBlock1.csv,/Users/shamslab/Desktop/Cognition2_FullExperimentFile/fullGoodSeqs_rhythm_shortVis_PracticeVideo.csv,,1,2,1,2,1,11,16,28,58,70,75,87,117,129,134,3_audFile.wav,10,5,24,1,2,2,1,1,11,16,28,58,70,100,112,117,129,134,3_audFile.wav,10,,0,2,,,26,2,146,176,2,146,176,5,0,0,0,0,,,,,0,16,16,25,,,,,,,,,,,,,,,,,,,,,,,,,,,,,,,,,,,257.94190617091954,None,,,,,,,,,,,,,,,2,1.9712146711535752,261.61296791001223,None,261.61296791001223,None,,,,,,,,,254.87089049094357,None,255.05090147000737,256.05128571996465,256.08123509795405,None,256.1912212900352,256.2412905411329,256.36122199893,256.66134828003123,256.78143927501515,256.8315174600575,256.9514903090894,257.2514991010539,257.37172483606264,257.4216220509261,257.54187888791785,257.84165635099635,256.18120572085024,None,259.252064906992,None,259.3622686190065,259.41213025408797,259.53215905698016,259.8324223840609,259.9523919681087,260.25254751509055,260.37246026610956,260.42249811510555,260.54263523290865,260.5925877690315,260.7126466559712,261.0126630740706,259.35221777295226,None,,,,,,,,,,,0,1,2023_May_24_0903,Cognition2_FullCode1,2021.2.3,99.97008290441282,
/Users/shamslab/Desktop/Cognition2_FullExperimentFile/0_VisualBlock1.csv,/Users/shamslab/Desktop/Cognition2_FullExperimentFile/fullGoodSeqs_rhythm_shortVis_PracticeVideo.csv,,1,1,2,1,2,11,16,28,33,45,75,87,92,104,134,3_audFile.wav,10,4,27,1,1,2,2,1,11,16,28,33,45,75,87,117,129,134,3_audFile.wav,10,,0,2,,,29,2,146,176,2,146,176,4,0,0,0,0,,,,,0,17,17,31,,,,,,,,,,,,,,,,,,,,,,,,,,,,,,,,,,,266.6842199610546,None,,,,,,,,,,,,,,,2,0.25275081512518227,270.3554715239443,None,270.3554715239443,None,,,,,,,,,263.6135511850007,None,263.80345513508655,264.80364668299444,264.82372718607076,None,264.93374229897745,264.98380260402337,265.10390488710254,265.1539193559438,265.2738421240356,265.5739795649424,265.6939669731073,265.7439278080128,265.8640175159089,266.1642079320736,266.2842227839865,266.5842056039255,264.92384945296214,None,267.994699902134,None,268.10485649108887,268.1546967111062,268.27467573201284,268.3248283320572,268.44480061205104,268.74491504300386,268.8648303740192,269.16500751604326,269.2852162050549,269.3349729599431,269.45500307995826,269.75513213290833,268.0947289080126,None,,,,,,,,,,,0,1,2023_May_24_0903,Cognition2_FullCode1,2021.2.3,99.97008290441282,
/Users/shamslab/Desktop/Cognition2_FullExperimentFile/0_VisualBlock1.csv,/Users/shamslab/Desktop/Cognition2_FullExperimentFile/fullGoodSeqs_rhythm_shortVis_PracticeVideo.csv,,1,2,1,2,1,11,16,28,58,70,75,87,117,129,134,3_audFile.wav,10,5,26,1,2,1,2,1,11,16,28,58,70,75,87,117,129,134,3_audFile.wav,10,,0,1,,,26,2,146,176,2,146,176,5,0,0,0,0,,,,,0,18,18,10,,,,,,,,,,,,,,,,,,,,,,,,,,,,,,,,,,,273.70631412998773,None,,,,,,,,,,,,,,,2,0.6788448989391327,277.3773468830623,None,277.3773468830623,None,,,,,,,,,270.6355085510295,None,270.81546228099614,271.8156955309678,271.8456752500497,None,271.9558872899506,272.00579428696074,272.12580790091306,272.42595260590315,272.54602676606737,272.59597114194185,272.71606387593783,273.0159572190605,273.1361667930614,273.18631222099066,273.3061484131031,273.606358588906,271.94587719182016,None,275.016751205083,None,275.12674950505607,275.17660353309475,275.2967158029787,275.597003323026,275.71695520193316,275.7668483220041,275.88687739591114,276.18713054503314,276.3070799030829,276.3569140280597,276.4772099899128,276.7770872081164,275.11674572897607,None,,,,,,,,,,,0,1,2023_May_24_0903,Cognition2_FullCode1,2021.2.3,99.97008290441282,
/Users/shamslab/Desktop/Cognition2_FullExperimentFile/0_VisualBlock1.csv,/Users/shamslab/Desktop/Cognition2_FullExperimentFile/fullGoodSeqs_rhythm_shortVis_PracticeVideo.csv,,1,2,1,2,2,11,16,28,58,70,75,87,117,129,159,3_audFile.wav,10,5,26,1,2,1,2,1,11,16,28,58,70,75,87,117,129,134,3_audFile.wav,10,,0,2,,,22,1,171,176,2,146,176,5,0,0,0,0,,,,,0,19,19,14,,,,,,,,,,,,,,,,,,,,,,,,,,,,,,,,,,,281.14856663299724,None,,,,,,,,,,,,,,,2,0.68266391614452,284.82958725700155,None,284.82958725700155,None,,,,,,,,,278.07757999002934,None,278.257650838932,279.25784711912274,279.28784532798454,None,279.398075645091,279.44792828010395,279.56800649501383,279.86807256401516,279.98799398890696,280.03812676901,280.158200873062,280.4581636409275,280.57827079994604,280.8784192299936,280.9984664011281,281.0482488179114,279.3879928199807,None,282.45875754998997,None,282.56891307909973,282.6188508409541,282.73879115795717,283.0389100839384,283.1589652770199,283.21911724912934,283.33905793190934,283.6391150660347,283.7591926930472,283.80921256309375,283.92929528909735,284.2292620819062,282.558900668961,None,,,,,,,,,,,0,1,2023_May_24_0903,Cognition2_FullCode1,2021.2.3,99.97008290441282,
/Users/shamslab/Desktop/Cognition2_FullExperimentFile/0_VisualBlock1.csv,/Users/shamslab/Desktop/Cognition2_FullExperimentFile/fullGoodSeqs_rhythm_shortVis_PracticeVideo.csv,,2,1,1,2,2,11,41,53,58,70,75,87,117,129,159,3_audFile.wav,10,6,21,2,1,1,2,2,11,41,53,58,70,75,87,117,129,159,3_audFile.wav,10,,0,1,,,21,1,171,176,1,171,176,6,0,0,0,0,,,,,0,20,20,24,,,,,,,,,,,,,,,,,,,,,,,,,,,,,,,,,,,288.6305827370379,None,,,,,,,,,,,,,,,2,0.11270203511230648,292.31152827013284,None,292.31152827013284,None,,,,,,,,,285.53966393810697,None,285.7197565070819,286.71994662098587,286.750072669005,None,286.86007570894435,287.1600851789117,287.280090946937,287.3302551021334,287.4702564771287,287.5202600650955,287.64026100793853,287.9404698801227,288.0603932410013,288.36041577206925,288.48066070606,288.53048049495555,286.85008950086774,None,289.9407502480317,None,290.05099373613484,290.3509187870659,290.47107051708736,290.5210342500359,290.6411564860027,290.69113544002175,290.8112663179636,291.11117372708395,291.2313720139209,291.5312463711016,291.65155323711224,291.70137809496373,290.04098660799207,None,,,,,,,,,,,0,1,2023_May_24_0903,Cognition2_FullCode1,2021.2.3,99.97008290441282,
/Users/shamslab/Desktop/Cognition2_FullExperimentFile/0_VisualBlock1.csv,/Users/shamslab/Desktop/Cognition2_FullExperimentFile/fullGoodSeqs_rhythm_shortVis_PracticeVideo.csv,,1,1,2,2,1,11,16,28,33,45,75,87,117,129,134,3_audFile.wav,10,4,27,1,1,2,2,1,11,16,28,33,45,75,87,117,129,134,3_audFile.wav,10,,0,1,,,27,2,146,176,2,146,176,4,0,0,0,0,,,,,0,21,21,1,,,,,,,,,,,,,,,,,,,,,,,,,,,,,,,,,,,295.5227213469334,None,,,,,,,,,,,,,,,2,1.3824906600639224,299.19367172406055,None,299.19367172406055,None,,,,,,,,,292.45173077401705,None,292.6317282260861,293.6320665969979,293.6619970810134,None,293.7720786561258,293.82200363394804,293.9421218789648,293.9921276359819,294.11218131892383,294.41210461291485,294.53233965602703,294.8323625579942,294.9524622869212,295.0022745069582,295.1224491940811,295.42246816912666,293.76213343881534,None,296.83292041299865,None,296.94293029699475,296.9929743180983,297.1129945339635,297.1629262070637,297.2830796940252,297.5830613230355,297.7031752381008,298.003142013913,298.1233037461061,298.173254648922,298.29335199599154,298.5934787481092,296.9329905048711,None,,,,,,,,,,,0,1,2023_May_24_0903,Cognition2_FullCode1,2021.2.3,99.97008290441282,
/Users/shamslab/Desktop/Cognition2_FullExperimentFile/0_VisualBlock1.csv,/Users/shamslab/Desktop/Cognition2_FullExperimentFile/fullGoodSeqs_rhythm_shortVis_PracticeVideo.csv,,2,2,1,2,1,11,41,53,83,95,100,112,142,154,159,3_audFile.wav,10,7,16,2,2,1,2,1,11,41,53,83,95,100,112,142,154,159,3_audFile.wav,10,,0,1,,,16,1,171,176,1,171,176,7,0,0,0,0,,,,,0,22,22,6,,,,,,,,,,,,,,,,,,,,,,,,,,,,,,,,,,,303.67513501201756,None,,,,,,,,,,,,,,,2,0.3021841049194336,307.3459736609366,None,307.3459736609366,None,,,,,,,,,300.60402208706364,None,300.78407732606865,301.7842254410498,301.8143631811254,None,301.92437918810174,302.2244120910764,302.34454549103975,302.6446937760338,302.7645067709964,302.81461189710535,302.93469602195546,303.23467421205714,303.3548263879493,303.40483972104266,303.5249407920055,303.5750481809955,301.9143497608369,None,304.9852643951308,None,305.09545509610325,305.3953235640656,305.51544101093896,305.8154543330893,305.9354738940019,305.98549682390876,306.10561139392667,306.4056245209649,306.5257337701041,306.5756178461015,306.69585606013425,306.7456402471289,305.08526043591553,None,,,,,,,,,,,0,1,2023_May_24_0903,Cognition2_FullCode1,2021.2.3,99.97008290441282,
/Users/shamslab/Desktop/Cognition2_FullExperimentFile/0_VisualBlock1.csv,/Users/shamslab/Desktop/Cognition2_FullExperimentFile/fullGoodSeqs_rhythm_shortVis_PracticeVideo.csv,,2,1,1,2,2,11,41,53,58,70,75,87,117,129,159,3_audFile.wav,10,6,21,2,1,1,2,2,11,41,53,58,70,75,87,117,129,159,3_audFile.wav,10,,0,1,,,21,1,171,176,1,171,176,6,0,0,0,0,,,,,0,23,23,5,,,,,,,,,,,,,,,,,,,,,,,,,,,,,,,,,,,310.7468865890987,None,,,,,,,,,,,,,,,2,0.3662679649423808,314.41794803901576,None,314.41794803901576,None,,,,,,,,,307.6760390570853,None,307.8560933130793,308.85639852890745,308.88623039098457,None,308.99639408197254,309.2965462489519,309.41647692304105,309.4665838330984,309.5865165430587,309.6365591129288,309.75665278104134,310.0566010901239,310.1766128949821,310.4767005520407,310.596899529919,310.6467417899985,308.9863612749381,None,312.0573172720615,None,312.1674151730258,312.46740831504576,312.58733927295543,312.6373989719432,312.75747323408723,312.80739529500715,312.9275241440628,313.22771113202907,313.3476177731063,313.64771015010774,313.76776522095315,313.8177285050042,312.157298140903,None,,,,,,,,,,,0,1,2023_May_24_0903,Cognition2_FullCode1,2021.2.3,99.97008290441282,
/Users/shamslab/Desktop/Cognition2_FullExperimentFile/0_VisualBlock1.csv,/Users/shamslab/Desktop/Cognition2_FullExperimentFile/fullGoodSeqs_rhythm_shortVis_PracticeVideo.csv,,2,2,1,2,1,11,41,53,83,95,100,112,142,154,159,3_audFile.wav,10,7,18,2,2,1,1,2,11,41,53,83,95,100,112,117,129,159,3_audFile.wav,10,,0,2,,,16,1,171,176,1,171,176,7,0,0,0,0,,,,,0,24,24,30,,,,,,,,,,,,,,,,,,,,,,,,,,,,,,,,,,,317.8790249580052,None,,,,,,,,,,,,,,,2,12.242186062037945,321.54997968208045,None,321.54997968208045,None,,,,,,,,,314.80807684897445,None,314.9881015289575,315.9882590069901,316.01836283295415,None,316.12848049006425,316.42851375299506,316.54847439192235,316.848573747091,316.96861705207266,317.018650097074,317.13871522201225,317.4388925069943,317.55902607692406,317.6087112319656,317.7288315601181,317.77884799195454,316.11843220095614,None,319.1893711090088,None,319.29934551008046,319.59938992210664,319.71947413193993,320.019428571919,320.1395963761024,320.18959325994365,320.3096138299443,320.3596253679134,320.47971246996894,320.77977215708233,320.89975819713436,320.94978660112247,319.2893574628746,None,,,,,,,,,,,0,1,2023_May_24_0903,Cognition2_FullCode1,2021.2.3,99.97008290441282,
/Users/shamslab/Desktop/Cognition2_FullExperimentFile/0_VisualBlock1.csv,/Users/shamslab/Desktop/Cognition2_FullExperimentFile/fullGoodSeqs_rhythm_shortVis_PracticeVideo.csv,,1,2,1,1,2,11,16,28,58,70,75,87,92,104,134,3_audFile.wav,10,5,28,1,2,1,1,2,11,16,28,58,70,75,87,92,104,134,3_audFile.wav,10,,0,1,,,28,2,146,176,2,146,176,5,0,0,0,0,,,,,0,25,25,8,,,,,,,,,,,,,,,,,,,,,,,,,,,,,,,,,,,336.8943718029186,None,,,,,,,,,,,,,,,2,13.618666225112975,340.5655420711264,None,340.5655420711264,None,,,,,,,,,333.81340678501874,None,333.9935704569798,334.9937271680683,335.02387040597387,None,335.1337413440924,335.18392659700476,335.30399736901745,335.61391766299494,335.734081286937,335.7839973650407,335.90406451909803,335.9540465490427,336.07403089199215,336.3741711790208,336.4943492349703,336.79440403403714,335.1238525940338,None,338.20471655693837,None,338.31466329609975,338.36490288493223,338.4848227230832,338.78483735211194,338.90488172811456,338.9548989920877,339.07499355613254,339.12486619199626,339.2449650131166,339.54508346202783,339.6650940810796,339.96513464604504,338.30475536591837,None,,,,,,,,,,,0,1,2023_May_24_0903,Cognition2_FullCode1,2021.2.3,99.97008290441282,
/Users/shamslab/Desktop/Cognition2_FullExperimentFile/0_VisualBlock1.csv,/Users/shamslab/Desktop/Cognition2_FullExperimentFile/fullGoodSeqs_rhythm_shortVis_PracticeVideo.csv,,1,1,2,2,1,11,16,28,33,45,75,87,117,129,134,3_audFile.wav,10,4,29,1,1,2,1,2,11,16,28,33,45,75,87,92,104,134,3_audFile.wav,10,,0,2,,,27,2,146,176,2,146,176,4,0,0,0,0,,,,,0,26,26,16,,,,,,,,,,,,,,,,,,,,,,,,,,,,,,,,,,,357.2801803860348,None,,,,,,,,,,,,,,,2,5.401071820873767,360.95116080902517,None,360.95116080902517,None,,,,,,,,,354.20932066091336,None,354.38934383005835,355.3897790510673,355.41945463093,None,355.52957883593626,355.57966029597446,355.69976685312577,355.74976309901103,355.8697381259408,356.1698542861268,356.28987494297326,356.58989115594886,356.71010509599,356.7598990560509,356.88000455102883,357.1802273420617,355.5195680928649,None,358.59055372606963,None,358.7005869769491,358.75065727205947,358.8706163519528,358.9207748970948,359.0407487100456,359.34069746593013,359.46086018905044,359.5109383550007,359.630844545085,359.9308491749689,360.0510160999838,360.35096397600137,358.6904371548211,None,,,,,,,,,,,0,1,2023_May_24_0903,Cognition2_FullCode1,2021.2.3,99.97008290441282,
/Users/shamslab/Desktop/Cognition2_FullExperimentFile/0_VisualBlock1.csv,/Users/shamslab/Desktop/Cognition2_FullExperimentFile/fullGoodSeqs_rhythm_shortVis_PracticeVideo.csv,,2,1,1,2,1,11,41,53,58,70,75,87,117,129,134,3_audFile.wav,10,6,25,2,1,1,2,1,11,41,53,58,70,75,87,117,129,134,3_audFile.wav,10,,0,1,,,25,2,146,176,2,146,176,6,0,0,0,0,,,,,0,27,27,22,,,,,,,,,,,,,,,,,,,,,,,,,,,,,,,,,,,369.4435869739391,None,,,,,,,,,,,,,,,2,4.8695014622062445,373.11473033600487,None,373.11473033600487,None,,,,,,,,,366.37283286708407,None,366.5527543600183,367.55299079907127,367.58294984907843,None,367.6931190090254,367.99322255910374,368.11318670911714,368.163304570131,368.2833279490005,368.3333310431335,368.45338427391835,368.75340285501443,368.87339040706865,368.9235741631128,369.0435551831033,369.3435653541237,367.6831649900181,None,370.75404077605344,None,370.86400563805364,371.1641446449794,371.28414809308015,371.3341648450587,371.4541975269094,371.5042240789626,371.62434204807505,371.92443269398063,372.04449539911,372.09442975511774,372.2145687821321,372.514473735122,370.85403726783113,None,,,,,,,,,,,0,1,2023_May_24_0903,Cognition2_FullCode1,2021.2.3,99.97008290441282,
/Users/shamslab/Desktop/Cognition2_FullExperimentFile/0_VisualBlock1.csv,/Users/shamslab/Desktop/Cognition2_FullExperimentFile/fullGoodSeqs_rhythm_shortVis_PracticeVideo.csv,,1,2,1,2,2,11,16,28,58,70,75,87,117,129,159,3_audFile.wav,10,5,22,1,2,1,2,2,11,16,28,58,70,75,87,117,129,159,3_audFile.wav,10,,0,1,,,22,1,171,176,1,171,176,5,0,0,0,0,,,,,0,28,28,11,,,,,,,,,,,,,,,,,,,,,,,,,,,,,,,,,,,381.0770039521158,None,,,,,,,,,,,,,,,2,3.3701282399706542,384.75804514205083,None,384.75804514205083,None,,,,,,,,,378.00612632604316,None,378.18621191498823,379.186326633906,379.2163350759074,None,379.32641801494174,379.3765087549109,379.4965162249282,379.79666781495325,379.91660995595157,379.96664828504436,380.08663817308843,380.38672311394475,380.5067608039826,380.8067507019732,380.92696984205395,380.9769060940016,379.31642383986616,None,382.38739199610427,None,382.4973173709586,382.54731635493226,382.66753425099887,382.96739352308214,383.08748960099183,383.1375674090814,383.25748059898615,383.5575423340779,383.6777199481148,383.97793146502227,384.097898228094,384.1478670530487,382.48734855882356,None,,,,,,,,,,,0,1,2023_May_24_0903,Cognition2_FullCode1,2021.2.3,99.97008290441282,
/Users/shamslab/Desktop/Cognition2_FullExperimentFile/0_VisualBlock1.csv,/Users/shamslab/Desktop/Cognition2_FullExperimentFile/fullGoodSeqs_rhythm_shortVis_PracticeVideo.csv,,2,2,1,1,2,11,41,53,83,95,100,112,117,129,159,3_audFile.wav,10,7,16,2,2,1,2,1,11,41,53,83,95,100,112,142,154,159,3_audFile.wav,10,,0,2,,,18,1,171,176,1,171,176,7,0,0,0,0,,,,,0,29,29,19,,,,,,,,,,,,,,,,,,,,,,,,,,,,,,,,,,,391.2199834359344,None,,,,,,,,,,,,,,,2,0.565322948154062,394.89087194995955,None,394.89087194995955,None,,,,,,,,,388.1489554429427,None,388.329114919994,389.3292673099786,389.35929837892763,None,389.46930503402837,389.76935133710504,389.8894149970729,390.18959790095687,390.3095042789355,390.3594721790869,390.47955653001554,390.52956677111797,390.64966234890744,390.94978261808865,391.0697874610778,391.1197453229688,389.4592928290134,None,392.530287272064,None,392.6402619909495,392.94044141098857,393.0603858169634,393.36037839995697,393.48059826204553,393.5306405960582,393.6505803100299,393.9506258890033,394.070693327114,394.1206308689434,394.24072639108635,394.2907584779896,392.6302632030332,None,,,,,,,,,,,0,1,2023_May_24_0903,Cognition2_FullCode1,2021.2.3,99.97008290441282,
/Users/shamslab/Desktop/Cognition2_FullExperimentFile/0_VisualBlock1.csv,/Users/shamslab/Desktop/Cognition2_FullExperimentFile/fullGoodSeqs_rhythm_shortVis_PracticeVideo.csv,,1,1,2,1,2,11,16,28,33,45,75,87,92,104,134,3_audFile.wav,10,4,29,1,1,2,1,2,11,16,28,33,45,75,87,92,104,134,3_audFile.wav,10,,0,1,,,29,2,146,176,2,146,176,4,0,0,0,0,,,,,0,30,30,27,,,,,,,,,,,,,,,,,,,,,,,,,,,,,,,,,,,398.5518508090172,None,,,,,,,,,,,,,,,2,0.5931869479827583,402.22306041792035,None,402.22306041792035,None,,,,,,,,,395.4811411909759,None,395.66111411503516,396.66134408907965,396.69137846212834,None,396.8013557360973,396.85152334091254,396.9714703920763,397.02156367199495,397.14155539590865,397.4415973520372,397.56165456492454,397.61171012208797,397.73185401502997,398.0318157959264,398.1520192499738,398.4518501760904,396.79142025785984,None,399.862284691073,None,399.97239193692803,400.02231006510556,400.14239614107646,400.19229644699953,400.3123996669892,400.6124800480902,400.7325935540721,400.7825442289468,400.9026268341113,401.20274888398126,401.322632886935,401.62273772712797,399.96224115390794,None,,,,,,,,,,,0,1,2023_May_24_0903,Cognition2_FullCode1,2021.2.3,99.97008290441282,
/Users/shamslab/Desktop/Cognition2_FullExperimentFile/0_VisualBlock1.csv,/Users/shamslab/Desktop/Cognition2_FullExperimentFile/fullGoodSeqs_rhythm_shortVis_PracticeVideo.csv,,1,1,2,1,2,11,16,28,33,45,75,87,92,104,134,3_audFile.wav,10,4,27,1,1,2,2,1,11,16,28,33,45,75,87,117,129,134,3_audFile.wav,10,,0,2,,,29,2,146,176,2,146,176,4,0,0,0,0,,,,,0,31,31,12,,,,,,,,,,,,,,,,,,,,,,,,,,,,,,,,,,,405.9140523530077,None,,,,,,,,,,,,,,,2,26.943016852950677,409.5851568940561,None,409.5851568940561,None,,,,,,,,,402.84316170797683,None,403.02332045300864,404.0236338030081,404.05337116494775,None,404.16364924400114,404.21354155405425,404.33359563397244,404.38365975394845,404.5035780800972,404.8037512730807,404.9237258860376,404.9737181030214,405.09383755293675,405.3938570690807,405.51399872405455,405.81396975694224,404.15358362693803,None,407.22445430909283,None,407.3344225680921,407.38444528891705,407.50451361597516,407.55453299195506,407.6744981780648,407.97469740197994,408.09473845292814,408.3947984939441,408.51475931704044,408.5648564461153,408.6848470380064,408.9848354109563,407.32437232204245,None,,,,,,,,,,,0,1,2023_May_24_0903,Cognition2_FullCode1,2021.2.3,99.97008290441282,
/Users/shamslab/Desktop/Cognition2_FullExperimentFile/0_VisualBlock1.csv,/Users/shamslab/Desktop/Cognition2_FullExperimentFile/fullGoodSeqs_rhythm_shortVis_PracticeVideo.csv,,,,,,,,,,,,,,,,,,,,,,,,,,,,,,,,,,,,,,,,,,,,,,,,,,,0,0,0,0,,,,,,,,,,,,,,,,,,,,,,,,,,,,,,,,,,,,,,,,,,,,,,,,,,,,,,,,,,,,,,,,,,,,,,,,,,,,,,,,,,,,,,,,,,,,,,,,,,,,,,,,,,,,,436.5627735690214,None,436.5627735690214,None,,,,,,,0,1,2023_May_24_0903,Cognition2_FullCode1,2021.2.3,99.97008290441282,
/Users/shamslab/Desktop/Cognition2_FullExperimentFile/0_AudioBlock1.csv,/Users/shamslab/Desktop/Cognition2_FullExperimentFile/fullGoodSeqs_rhythm_shortVis_PracticeAudio.csv,P1,2,1,2,1,1,11,41,56,61,76,106,121,126,141,146,1_practAudFile.wav,1,pc1,P1,2,1,2,1,1,11,41,56,61,76,106,121,126,141,146,1_practAudFile.wav,1,pc1,1,1,SAME,SAME,,,,,,,,,0,1,1,1,0,0,0,0,,,,,,,,,,,496.65995966712944,None,space,20.688087484100834,496.7600774439052,None,521.5770156420767,None,521.7772122030146,None,517.575910246931,521.5770156420767,517.575910246931,521.5770156420767,522.7773471910041,None,522.8874457369093,523.1875285839196,523.3375370530412,523.3876881829929,523.5377264660783,523.8375513949431,523.9877449891064,524.0376010520849,524.1878257140052,524.2378306419123,522.787350700912,None,524.6379442599136,None,525.9481496489607,None,526.0583346600179,526.3584244539961,526.5084300141316,526.5583069610875,526.7085370449349,527.0084877540357,527.1587189780548,527.2086253799498,527.358836381929,527.4086580390576,525.9581531588686,None,1,0.14526667702011764,528.3189083230682,None,528.3189083230682,None,528.5690499991179,None,,,,,,,,,,,,,,,,,,,,,,,,,,,,,,,,,,,,,,,,,,,,,,,,,,,,,0,1,2023_May_24_0903,Cognition2_FullCode1,2021.2.3,99.97008290441282,
/Users/shamslab/Desktop/Cognition2_FullExperimentFile/0_AudioBlock1.csv,/Users/shamslab/Desktop/Cognition2_FullExperimentFile/fullGoodSeqs_rhythm_shortVis_PracticeAudio.csv,P2,2,1,1,2,1,11,41,56,61,76,81,96,126,141,146,2_practAudFile.wav,1,pc1,P1,2,1,2,1,1,11,41,56,61,76,106,121,126,141,146,1_practAudFile.wav,1,pc1,1,2,DIFFERENT,DIFFERENT,,,,,,,,,0,1,1,1,0,1,1,1,,,,,,,,,,,,,,,,,534.1605402911082,None,534.3607081989758,None,530.1595327479299,534.1605402911082,530.1595327479299,534.1605402911082,535.3709742231295,None,535.4811356400605,535.7811636310071,535.9310811390169,535.9811226830352,536.1311762391124,536.1812761591282,536.331399939023,536.6312674400397,536.7814403499942,536.831313489005,535.3809777330374,None,537.2315930679906,None,538.5417392349336,None,538.6519405650906,538.9519322360866,539.1021040261257,539.1521289150696,539.3020316651091,539.6021096750628,539.7522994149476,539.802289227955,539.9522036870476,540.0023640750442,538.5517427448416,None,2,0.3596754230093211,540.912579589989,None,540.912579589989,None,541.3727478741203,None,,,,,,,,,,,,,,,,,,,,,,,,,,,,,,,,,,,,,,,,,,,,,,,,,,,,,0,1,2023_May_24_0903,Cognition2_FullCode1,2021.2.3,99.97008290441282,
/Users/shamslab/Desktop/Cognition2_FullExperimentFile/0_AudioBlock1.csv,/Users/shamslab/Desktop/Cognition2_FullExperimentFile/fullGoodSeqs_rhythm_shortVis_PracticeAudio.csv,P3,1,2,1,2,1,11,16,31,61,76,81,96,126,141,146,3_practAudFile.wav,1,pc2,P3,1,2,1,2,1,11,16,31,61,76,81,96,126,141,146,3_practAudFile.wav,1,pc2,1,1,SAME,SAME,,,,,,,,,0,1,1,1,0,2,2,2,,,,,,,,,,,,,,,,,546.9642284200527,None,547.1643936159089,None,542.9631750159897,546.9642284200527,542.9631750159897,546.9642284200527,548.1746260139626,None,548.284739729017,548.3346880839672,548.4847335789818,548.7847918050829,548.9348538219929,548.9849291830324,549.1349332330283,549.4349701660685,549.5851204940118,549.6349400391337,548.1846295238705,None,550.0352046571206,None,551.345568245044,None,551.4555899039842,551.5055976121221,551.6556073639076,551.9557270971127,552.1058114180341,552.1557537331246,552.305800715927,552.6058361320756,552.7559271210339,552.806088357931,551.3555717549519,None,2,0.9499522920232266,553.7062778230757,None,553.7062778230757,None,554.7566035839263,None,,,,,,,,,,,,,,,,,,,,,,,,,,,,,,,,,,,,,,,,,,,,,,,,,,,,,0,1,2023_May_24_0903,Cognition2_FullCode1,2021.2.3,99.97008290441282,
/Users/shamslab/Desktop/Cognition2_FullExperimentFile/0_AudioBlock1.csv,/Users/shamslab/Desktop/Cognition2_FullExperimentFile/fullGoodSeqs_rhythm_shortVis_PracticeAudio.csv,P3,1,2,1,2,1,11,16,31,61,76,81,96,126,141,146,3_practAudFile.wav,1,pc2,P4,1,2,1,1,2,11,16,31,61,76,81,96,101,116,146,4_practAudFile.wav,1,pc2,1,2,DIFFERENT,DIFFERENT,,,,,,,,,0,1,1,1,0,3,3,3,,,,,,,,,,,,,,,,,560.3480008600745,None,560.5482098939829,None,556.3471192601137,560.3480008600745,556.3471192601137,560.3480008600745,561.5583567051217,None,561.6685607929248,561.7186410590075,561.8686702940613,562.1686308360659,562.318619169062,562.3688051321078,562.5187940329779,562.8187901799101,562.9689355511218,563.0187715499196,561.5683602150297,None,563.4191348650493,None,564.7292901999317,None,564.8395517040044,564.8893624921329,565.0394154449459,565.3394473609515,565.4896158899646,565.5396757619455,565.6896927580237,565.7396689830348,565.8895667500328,566.189771007048,564.7392937098397,None,1,0.7100797418970615,567.0901189870201,None,567.0901189870201,None,567.9004045580514,None,,,,,,,,,,,,,,,,,,,,,,,,,,,,,,,,,,,,,,,,,,,,,,,,,,,,,0,1,2023_May_24_0903,Cognition2_FullCode1,2021.2.3,99.97008290441282,
/Users/shamslab/Desktop/Cognition2_FullExperimentFile/0_AudioBlock1.csv,/Users/shamslab/Desktop/Cognition2_FullExperimentFile/fullGoodSeqs_rhythm_shortVis_PracticeAudio.csv,,2,1,1,2,1,11,41,53,58,70,75,87,117,129,134,15_audFile.wav,10,2,14,2,1,1,2,1,11,41,53,58,70,75,87,117,129,134,15_audFile.wav,10,,1,1,,,14,2,146,176,2,146,176,2,0,1,1,1,,,,,0,0,0,31,,,,,,,,,,,,,,,,,,,,,,,,,,,,,,,,,,,574.8021900509484,None,,,,,,,,,,,,,,,1,0.3466758159920573,578.4934826290701,None,578.4934826290701,None,,,569.5010780419689,None,space,2.103496161988005,569.6008195381146,None,571.7614216259681,None,571.9415678021032,None,572.94164649304,None,573.0517176811118,573.3518210090697,573.47184839705,573.5218126189429,573.6420248509385,573.6920719321351,573.8120090870652,574.1119925319217,574.2320951789152,574.2821184480563,574.4023394850083,574.7021128889173,573.0418637809111,None,576.112524474971,None,576.222654646961,576.5226854591165,576.6428280589171,576.6926976989489,576.8127813311294,576.8628974449821,576.9827434010804,577.282936566975,577.4030292769894,577.4528945970815,577.5731241269968,577.8730950399768,576.2127025469439,None,,,,,,,,,,,0,1,2023_May_24_0903,Cognition2_FullCode1,2021.2.3,99.97008290441282,
/Users/shamslab/Desktop/Cognition2_FullExperimentFile/0_AudioBlock1.csv,/Users/shamslab/Desktop/Cognition2_FullExperimentFile/fullGoodSeqs_rhythm_shortVis_PracticeAudio.csv,,2,1,2,1,1,11,41,53,58,70,100,112,117,129,134,14_audFile.wav,10,2,13,2,1,2,1,1,11,41,53,58,70,100,112,117,129,134,14_audFile.wav,10,,1,1,,,13,2,146,176,2,146,176,2,0,1,1,1,,,,,0,1,1,0,,,,,,,,,,,,,,,,,,,,,,,,,,,,,,,,,,,581.9342732140794,None,,,,,,,,,,,,,,,2,0.32879132218658924,585.6153716440313,None,585.6153716440313,None,,,,,,,,,578.8635723190382,None,579.0436279841233,580.0436397339217,580.07377846702,None,580.183786673937,580.4838765859604,580.6039641029201,580.6539923800156,580.773984469939,581.0739126990084,581.1940826689824,581.2442275569774,581.3642413530033,581.4140557779465,581.5342546829488,581.8342916369438,580.1737785348436,None,583.2447457390372,None,583.3546815160662,583.6548613649793,583.7748102769256,583.8248120560311,583.9448983150069,584.2450475241058,584.3649498149753,584.4149786760099,584.5349938669242,584.5851242269855,584.7051645119209,585.0051214450505,583.3447686158819,None,,,,,,,,,,,0,1,2023_May_24_0903,Cognition2_FullCode1,2021.2.3,99.97008290441282,
/Users/shamslab/Desktop/Cognition2_FullExperimentFile/0_AudioBlock1.csv,/Users/shamslab/Desktop/Cognition2_FullExperimentFile/fullGoodSeqs_rhythm_shortVis_PracticeAudio.csv,,1,2,1,2,2,11,16,28,58,70,75,87,117,129,159,6_audFile.wav,10,1,5,1,2,1,2,2,11,16,28,58,70,75,87,117,129,159,6_audFile.wav,10,,1,1,,,5,2,171,201,2,171,201,1,0,1,1,1,,,,,0,2,2,15,,,,,,,,,,,,,,,,,,,,,,,,,,,,,,,,,,,589.1864033669699,None,,,,,,,,,,,,,,,2,0.41277251578867435,592.8674629260786,None,592.8674629260786,None,,,,,,,,,585.9653855620418,None,586.1454982869327,587.1457977690734,587.1758495769463,589.0364335170016,587.2858131730463,587.3359192470089,587.4558956769761,587.7560212060343,587.8759627009276,587.9259802110028,588.0460094769951,588.3461933620274,588.4661766039208,588.7663371919189,588.8862497610971,None,587.2757030268898,None,590.4967839620076,None,590.6066575520672,590.6567851279397,590.7767874009442,591.0768675750587,591.1969181129243,591.2468824950047,591.3671159059741,591.6669331339654,591.7870475330856,592.0872851249296,592.2072258149274,592.5072261521127,590.5966062359279,None,,,,,,,,,,,0,1,2023_May_24_0903,Cognition2_FullCode1,2021.2.3,99.97008290441282,
/Users/shamslab/Desktop/Cognition2_FullExperimentFile/0_AudioBlock1.csv,/Users/shamslab/Desktop/Cognition2_FullExperimentFile/fullGoodSeqs_rhythm_shortVis_PracticeAudio.csv,,1,2,2,2,1,11,16,28,58,70,100,112,142,154,159,3_audFile.wav,10,1,12,1,2,1,2,2,11,16,28,58,70,75,87,117,129,159,13_audFile.wav,10,,1,2,,,2,2,171,201,1,171,176,1,0,1,1,1,,,,,0,3,3,2,,,,,,,,,,,,,,,,,,,,,,,,,,,,,,,,,,,596.5285290060565,None,,,,,,,,,,,,,,,2,1.6725652280729264,600.1995805511251,None,600.1995805511251,None,,,,,,,,,593.3075769371353,None,593.4877493800595,594.4878846700303,594.517760694027,596.3782930460293,594.6279458159115,594.6779589820653,594.7979824030772,595.0980074640829,595.2181638150942,595.518203105079,595.6381796230562,595.9382521540392,596.0584103260189,596.1084395430516,596.2284988230094,None,594.617906662845,None,597.8386825909838,None,597.9488247800618,597.9988936400041,598.1189020439051,598.4190179929137,598.5390238249674,598.5890455311164,598.7091385510284,599.009039391065,599.1292381079402,599.429192511132,599.5493665321264,599.5992688180413,597.9388492719503,None,,,,,,,,,,,0,1,2023_May_24_0903,Cognition2_FullCode1,2021.2.3,99.97008290441282,
/Users/shamslab/Desktop/Cognition2_FullExperimentFile/0_AudioBlock1.csv,/Users/shamslab/Desktop/Cognition2_FullExperimentFile/fullGoodSeqs_rhythm_shortVis_PracticeAudio.csv,,1,2,1,2,1,11,16,28,58,70,75,87,117,129,134,16_audFile.wav,10,1,10,1,2,2,1,2,11,16,28,58,70,100,112,117,129,159,11_audFile.wav,10,,1,2,,,15,2,146,176,1,171,176,1,0,1,1,1,,,,,0,4,4,1,,,,,,,,,,,,,,,,,,,,,,,,,,,,,,,,,,,604.9708717879839,None,,,,,,,,,,,,,,,2,0.18828324507921934,608.6519544860348,None,608.6519544860348,None,,,,,,,,,601.8998701989185,None,602.0800012040418,603.0803334140219,603.1104023240041,None,603.2202835041098,603.2703565570991,603.3903444730677,603.6905647499952,603.8104948920663,603.8606266989373,603.9805246870965,604.2805692390539,604.4008177090436,604.4506696041208,604.5707669709809,604.8708408689126,603.210457748943,None,606.2812623989303,None,606.3913992110174,606.4411806119606,606.5612726900727,606.8613483810332,606.9813785380684,607.2815144390333,607.4015611689538,607.4516311110929,607.5716411690228,607.8717054519802,607.9917415981181,608.0417556199245,606.3812127120094,None,,,,,,,,,,,0,1,2023_May_24_0903,Cognition2_FullCode1,2021.2.3,99.97008290441282,
/Users/shamslab/Desktop/Cognition2_FullExperimentFile/0_AudioBlock1.csv,/Users/shamslab/Desktop/Cognition2_FullExperimentFile/fullGoodSeqs_rhythm_shortVis_PracticeAudio.csv,,1,2,2,2,1,11,16,28,58,70,100,112,142,154,159,3_audFile.wav,10,1,2,1,2,2,2,1,11,16,28,58,70,100,112,142,154,159,3_audFile.wav,10,,1,1,,,2,2,171,201,2,171,201,1,0,1,1,1,,,,,0,5,5,20,,,,,,,,,,,,,,,,,,,,,,,,,,,,,,,,,,,612.0830295099877,None,,,,,,,,,,,,,,,2,0.004118866054341197,615.7640552090015,None,615.7640552090015,None,,,,,,,,,608.8618616671301,None,609.0420782160945,610.0421969110612,610.0722554759122,611.9328610280063,610.1823262860999,610.2322793300264,610.3524046069942,610.6524481000379,610.7724681100808,611.0726273451,611.1925938951317,611.4926055150572,611.6126852219459,611.6629114591051,611.7828285349533,None,610.1723268918926,None,613.3933443499263,None,613.5033610390965,613.5533318039961,613.6732876249589,613.9734050659463,614.0934540759772,614.3937513399869,614.513708346989,614.8135835099965,614.9337782799266,614.9837177959271,615.1038534359541,615.4139919299632,613.4932613079203,None,,,,,,,,,,,0,1,2023_May_24_0903,Cognition2_FullCode1,2021.2.3,99.97008290441282,
/Users/shamslab/Desktop/Cognition2_FullExperimentFile/0_AudioBlock1.csv,/Users/shamslab/Desktop/Cognition2_FullExperimentFile/fullGoodSeqs_rhythm_shortVis_PracticeAudio.csv,,2,1,1,2,2,11,41,53,58,70,75,87,117,129,159,12_audFile.wav,10,2,7,2,1,2,2,1,11,41,53,58,70,100,112,142,154,159,8_audFile.wav,10,,1,2,,,11,1,171,176,1,171,176,2,0,1,1,1,,,,,0,6,6,30,,,,,,,,,,,,,,,,,,,,,,,,,,,,,,,,,,,618.864828109974,None,,,,,,,,,,,,,,,2,0.29422805015929043,622.5459649930708,None,622.5459649930708,None,,,,,,,,,615.7940068049356,None,615.9739329849835,616.9742142069153,617.0043026630301,None,617.1143202290405,617.4143614470959,617.534545360133,617.584393087076,617.7045460939407,617.7544965071138,617.8746450140607,618.1745348540135,618.2945708890911,618.5947966349777,618.7148316660896,618.764745346969,617.1043395029614,None,620.175144525012,None,620.285242062062,620.5852202919777,620.705340516055,620.7553785729688,620.8753638479393,621.1754787319805,621.2955085940193,621.5955127689522,621.7156785319094,621.7656196691096,621.8856543689035,621.9357285769656,620.2752319038613,None,,,,,,,,,,,0,1,2023_May_24_0903,Cognition2_FullCode1,2021.2.3,99.97008290441282,
/Users/shamslab/Desktop/Cognition2_FullExperimentFile/0_AudioBlock1.csv,/Users/shamslab/Desktop/Cognition2_FullExperimentFile/fullGoodSeqs_rhythm_shortVis_PracticeAudio.csv,,2,2,1,2,1,11,41,53,83,95,100,112,142,154,159,1_audFile.wav,10,3,6,2,2,1,2,1,11,41,53,83,95,100,112,142,154,159,7_audFile.wav,10,,1,2,,,0,2,171,201,1,171,176,3,0,1,1,1,,,,,0,7,7,7,,,,,,,,,,,,,,,,,,,,,,,,,,,,,,,,,,,626.0869539340492,None,,,,,,,,,,,,,,,2,0.8502354498486966,629.7579593129922,None,629.7579593129922,None,,,,,,,,,622.8659729140345,None,623.0460486970842,624.0462872579228,624.076406596927,625.9368547529448,624.1863302569836,624.4864131161012,624.6065213819966,624.9065630659461,625.0267188521102,625.0766085081268,625.1966258739121,625.4968134819064,625.6167126731016,625.6668269149959,625.7868389429059,None,624.1763061268488,None,627.3972758171149,None,627.5072457951028,627.807367522968,627.9273780449294,628.2274702959694,628.3475416009314,628.3976493570954,628.5176298450679,628.8177593310829,628.9377656460274,628.9875868021045,629.107793796109,629.157688400941,627.4972044760128,None,,,,,,,,,,,0,1,2023_May_24_0903,Cognition2_FullCode1,2021.2.3,99.97008290441282,
/Users/shamslab/Desktop/Cognition2_FullExperimentFile/0_AudioBlock1.csv,/Users/shamslab/Desktop/Cognition2_FullExperimentFile/fullGoodSeqs_rhythm_shortVis_PracticeAudio.csv,,2,1,2,2,1,11,41,53,58,70,100,112,142,154,159,2_audFile.wav,10,2,14,2,1,1,2,1,11,41,53,58,70,75,87,117,129,134,15_audFile.wav,10,,1,2,,,1,2,171,201,2,146,176,2,0,1,1,1,,,,,0,8,8,10,,,,,,,,,,,,,,,,,,,,,,,,,,,,,,,,,,,633.8492368939333,None,,,,,,,,,,,,,,,2,3.1919133430346847,637.5202471800148,None,637.5202471800148,None,,,,,,,,,630.6281260859687,None,630.8082626059186,631.8085017700214,631.8383970730938,633.6990914840717,631.9485282490496,632.2486868109554,632.3688169149682,632.4186880721245,632.5388633159455,632.8388519829605,632.9588433699682,633.2588991790544,633.3790277400985,633.429072340019,633.5491523260716,None,631.9385843109106,None,635.1595184521284,None,635.2694619810209,635.5695670191199,635.6896516541019,635.7396267331205,635.8596409310121,635.9098097931128,636.0297108651139,636.3297268510796,636.4500332989264,636.4997638079803,636.6199197110254,636.9200396179222,635.2594998439075,None,,,,,,,,,,,0,1,2023_May_24_0903,Cognition2_FullCode1,2021.2.3,99.97008290441282,
/Users/shamslab/Desktop/Cognition2_FullExperimentFile/0_AudioBlock1.csv,/Users/shamslab/Desktop/Cognition2_FullExperimentFile/fullGoodSeqs_rhythm_shortVis_PracticeAudio.csv,,1,2,1,2,1,11,16,28,58,70,75,87,117,129,134,16_audFile.wav,10,1,15,1,2,1,2,1,11,16,28,58,70,75,87,117,129,134,16_audFile.wav,10,,1,1,,,15,2,146,176,2,146,176,1,0,1,1,1,,,,,0,9,9,17,,,,,,,,,,,,,,,,,,,,,,,,,,,,,,,,,,,643.8119903169572,None,,,,,,,,,,,,,,,2,0.02109023998491466,647.4830681879539,None,647.4830681879539,None,,,,,,,,,640.7410595770925,None,640.9311830881052,641.9314799320418,641.9514344921336,None,642.0614002929069,642.1115527260117,642.2315469810273,642.5316292659845,642.651720416965,642.7016949600074,642.8215846179519,643.1217637169175,643.241859735921,643.2916806279682,643.4120241079945,643.711990647018,642.0516038289992,None,645.1223083981313,None,645.2323361209128,645.2824354399927,645.4023950600531,645.7024632981047,645.8224489879794,645.8725912261289,645.9926134189591,646.2928262469359,646.4128350270912,646.462847532006,646.5827055650298,646.8829032280482,645.2223580868216,None,,,,,,,,,,,0,1,2023_May_24_0903,Cognition2_FullCode1,2021.2.3,99.97008290441282,
/Users/shamslab/Desktop/Cognition2_FullExperimentFile/0_AudioBlock1.csv,/Users/shamslab/Desktop/Cognition2_FullExperimentFile/fullGoodSeqs_rhythm_shortVis_PracticeAudio.csv,,2,1,2,2,1,11,41,53,58,70,100,112,142,154,159,2_audFile.wav,10,2,1,2,1,2,2,1,11,41,53,58,70,100,112,142,154,159,2_audFile.wav,10,,1,1,,,1,2,171,201,2,171,201,2,0,1,1,1,,,,,0,10,10,16,,,,,,,,,,,,,,,,,,,,,,,,,,,,,,,,,,,650.7638667770661,None,,,,,,,,,,,,,,,2,0.6071304038632661,654.4650315351319,None,654.4650315351319,None,,,,,,,,,647.5329955520574,None,647.7231782721356,648.7234135740437,648.7433370060753,650.603775595082,648.8535599180032,649.1534666249063,649.2736272600014,649.3235785539728,649.4435701610055,649.7436616159976,649.8635669660289,650.163792548934,650.283801429905,650.3337854801212,650.453932241071,None,648.8435012339381,None,652.0743032039609,None,652.1843789380509,652.4844943089411,652.6144752560649,652.6644830729347,652.7845082590356,653.0845619570464,653.2046796530485,653.5046683230903,653.624683747068,653.6747339549474,653.7949307661038,654.10484593804,652.1743714879034,None,,,,,,,,,,,0,1,2023_May_24_0903,Cognition2_FullCode1,2021.2.3,99.97008290441282,
/Users/shamslab/Desktop/Cognition2_FullExperimentFile/0_AudioBlock1.csv,/Users/shamslab/Desktop/Cognition2_FullExperimentFile/fullGoodSeqs_rhythm_shortVis_PracticeAudio.csv,,2,1,1,2,2,11,41,53,58,70,75,87,117,129,159,12_audFile.wav,10,2,11,2,1,1,2,2,11,41,53,58,70,75,87,117,129,159,12_audFile.wav,10,,1,1,,,11,1,171,176,1,171,176,2,0,1,1,1,,,,,0,11,11,13,,,,,,,,,,,,,,,,,,,,,,,,,,,,,,,,,,,658.1660376940854,None,,,,,,,,,,,,,,,1,0.38504034210927784,661.8471638080664,None,661.8471638080664,None,,,,,,,,,655.0952179669403,None,655.275241883006,656.2753824419342,656.3054991220124,None,656.415487168124,656.7156061059795,656.8356241059955,656.8856454219203,657.005697676912,657.0557314620819,657.1758021679707,657.4759097180795,657.5958264530636,657.8960418750066,658.0162115381099,658.0659503079951,656.4055755159119,None,659.4764231729787,None,659.5864864371251,659.8866279660724,660.0066644449253,660.0564575539902,660.1766686870251,660.2267140550539,660.346789526986,660.6466402669903,660.7668399109971,661.0669425679371,661.1869656909257,661.2369984979741,659.5764290308347,None,,,,,,,,,,,0,1,2023_May_24_0903,Cognition2_FullCode1,2021.2.3,99.97008290441282,
/Users/shamslab/Desktop/Cognition2_FullExperimentFile/0_AudioBlock1.csv,/Users/shamslab/Desktop/Cognition2_FullExperimentFile/fullGoodSeqs_rhythm_shortVis_PracticeAudio.csv,,2,1,1,2,1,11,41,53,58,70,75,87,117,129,134,15_audFile.wav,10,2,3,2,1,2,1,2,11,41,53,58,70,100,112,117,129,159,4_audFile.wav,10,,1,2,,,14,2,146,176,2,171,201,2,0,1,1,1,,,,,0,12,12,4,,,,,,,,,,,,,,,,,,,,,,,,,,,,,,,,,,,665.328067956958,None,,,,,,,,,,,,,,,2,0.3689502440392971,668.9992146231234,None,668.9992146231234,None,,,,,,,,,662.2572657440323,None,662.437158630928,663.4375447959173,663.4677766929381,None,663.5776749630459,663.877676310949,663.9976862159092,664.0477811640594,664.1676817820407,664.2177208850626,664.3377414809074,664.6379382999148,664.7580560229253,664.8078575299587,664.9280404129531,665.2280020599719,663.5676643110113,None,666.638509945944,None,666.7485289960168,667.0484810499474,667.1686625820585,667.218633265933,667.3386882650666,667.6386826359667,667.7588985199109,667.808750316035,667.9290252760984,668.2288832811173,668.3490805451293,668.6489853390958,666.7385040158173,None,,,,,,,,,,,0,1,2023_May_24_0903,Cognition2_FullCode1,2021.2.3,99.97008290441282,
/Users/shamslab/Desktop/Cognition2_FullExperimentFile/0_AudioBlock1.csv,/Users/shamslab/Desktop/Cognition2_FullExperimentFile/fullGoodSeqs_rhythm_shortVis_PracticeAudio.csv,,2,2,1,1,2,11,41,53,83,95,100,112,117,129,159,9_audFile.wav,10,3,8,2,2,1,1,2,11,41,53,83,95,100,112,117,129,159,9_audFile.wav,10,,1,1,,,8,1,171,176,1,171,176,3,0,1,1,1,,,,,0,13,13,23,,,,,,,,,,,,,,,,,,,,,,,,,,,,,,,,,,,672.4601878179237,None,,,,,,,,,,,,,,,2,2.5010428121313453,676.1311174801085,None,676.1311174801085,None,,,,,,,,,669.3892622839194,None,669.5693831341341,670.5695823179558,670.5995196909644,None,670.7095863779541,671.0097314780578,671.1298148720525,671.4297730890103,671.5498127229512,671.5999468800146,671.7199640600011,671.7698470901232,671.8900002681185,672.1899409850594,672.3101161699742,672.3599990811199,670.6995043928968,None,673.7704088189639,None,673.8805352919735,674.1806970271282,674.300675414037,674.6007206239738,674.7207622891292,674.7707545880694,674.8908183870371,674.94079344091,675.0609132889658,675.3609227780253,675.4810996239539,675.530924030114,673.8705732789589,None,,,,,,,,,,,0,1,2023_May_24_0903,Cognition2_FullCode1,2021.2.3,99.97008290441282,
/Users/shamslab/Desktop/Cognition2_FullExperimentFile/0_AudioBlock1.csv,/Users/shamslab/Desktop/Cognition2_FullExperimentFile/fullGoodSeqs_rhythm_shortVis_PracticeAudio.csv,,2,1,2,1,2,11,41,53,58,70,100,112,117,129,159,10_audFile.wav,10,2,9,2,1,2,1,2,11,41,53,58,70,100,112,117,129,159,10_audFile.wav,10,,1,1,,,9,1,171,176,1,171,176,2,0,1,1,1,,,,,0,14,14,11,,,,,,,,,,,,,,,,,,,,,,,,,,,,,,,,,,,681.7327775000595,None,,,,,,,,,,,,,,,2,0.7483217078261077,685.4038785689045,None,685.4038785689045,None,,,,,,,,,678.6618687210139,None,678.8520172329154,679.8522822391242,679.87220333796,None,679.9821871679742,680.2823211511131,680.4023202769458,680.4523478019983,680.5725343709346,680.8724703970365,680.9926423321012,681.0425193309784,681.162572799949,681.4626936889254,681.5828040610068,681.6327979280613,679.9722856178181,None,683.0432149169501,None,683.1532122320496,683.453336634906,683.573296634946,683.6232930989936,683.7434655451216,684.0434182470199,684.1634943410754,684.2135308589786,684.3335382679943,684.6336932769045,684.7536131870002,684.8036398340482,683.1432466588216,None,,,,,,,,,,,0,1,2023_May_24_0903,Cognition2_FullCode1,2021.2.3,99.97008290441282,
/Users/shamslab/Desktop/Cognition2_FullExperimentFile/0_AudioBlock1.csv,/Users/shamslab/Desktop/Cognition2_FullExperimentFile/fullGoodSeqs_rhythm_shortVis_PracticeAudio.csv,,2,1,2,1,1,11,41,53,58,70,100,112,117,129,134,14_audFile.wav,10,2,1,2,1,2,2,1,11,41,53,58,70,100,112,142,154,159,2_audFile.wav,10,,1,2,,,13,2,146,176,2,171,201,2,0,1,1,1,,,,,0,15,15,6,,,,,,,,,,,,,,,,,,,,,,,,,,,,,,,,,,,689.2449497780763,None,,,,,,,,,,,,,,,2,1.6521733310073614,692.9160083241295,None,692.9160083241295,None,,,,,,,,,686.1740567500237,None,686.3540239499416,687.3543049539439,687.3844453680795,None,687.494460147107,687.7946124740411,687.9145583859645,687.9645480869804,688.0847167049069,688.3846857689787,688.5046981431078,688.5547229880467,688.6747618140653,688.7246497271117,688.8448165240698,689.1449590499979,687.4844422468217,None,690.5552795629483,None,690.6653682140168,690.9653557029087,691.0855462751351,691.1355135240592,691.2554796531331,691.5554983250331,691.6755753979087,691.9758008560166,692.0957837330643,692.145875897957,692.2658136119135,692.56601731712,690.6552979969186,None,,,,,,,,,,,0,1,2023_May_24_0903,Cognition2_FullCode1,2021.2.3,99.97008290441282,
/Users/shamslab/Desktop/Cognition2_FullExperimentFile/0_AudioBlock1.csv,/Users/shamslab/Desktop/Cognition2_FullExperimentFile/fullGoodSeqs_rhythm_shortVis_PracticeAudio.csv,,2,2,1,1,2,11,41,53,83,95,100,112,117,129,159,9_audFile.wav,10,3,0,2,2,1,2,1,11,41,53,83,95,100,112,142,154,159,1_audFile.wav,10,,1,2,,,8,1,171,176,2,171,201,3,0,1,1,1,,,,,0,16,16,27,,,,,,,,,,,,,,,,,,,,,,,,,,,,,,,,,,,697.6674613330979,None,,,,,,,,,,,,,,,2,0.31767418584786355,701.3384864840191,None,701.3384864840191,None,,,,,,,,,694.5964481930714,None,694.7765353131108,695.7767207459547,695.8066514669918,None,695.9169039919507,696.2168833811302,696.3370723871049,696.637136192061,696.7570686629042,696.8070862179156,696.9271519731265,696.9771862120833,697.097212712979,697.3971925610676,697.5173446380068,697.567267264938,695.9068496608874,None,698.9777777320705,None,699.0877268819604,699.3878437029198,699.5078145971056,699.8078722050413,699.9279147810303,699.9780858349986,700.0980460899882,700.3980085710064,700.5181518630125,700.5680723229889,700.6882782399189,700.9881227631122,699.0777493798872,None,,,,,,,,,,,0,1,2023_May_24_0903,Cognition2_FullCode1,2021.2.3,99.97008290441282,
/Users/shamslab/Desktop/Cognition2_FullExperimentFile/0_AudioBlock1.csv,/Users/shamslab/Desktop/Cognition2_FullExperimentFile/fullGoodSeqs_rhythm_shortVis_PracticeAudio.csv,,2,1,2,2,1,11,41,53,58,70,100,112,142,154,159,8_audFile.wav,10,2,13,2,1,2,1,1,11,41,53,58,70,100,112,117,129,134,14_audFile.wav,10,,1,2,,,7,1,171,176,2,146,176,2,0,1,1,1,,,,,0,17,17,24,,,,,,,,,,,,,,,,,,,,,,,,,,,,,,,,,,,704.7493514409289,None,,,,,,,,,,,,,,,2,1.7397512479219586,708.4204939499032,None,708.4204939499032,None,,,,,,,,,701.6784912110306,None,701.8585304529406,702.8588706839364,702.8888738420792,None,702.9988380700815,703.2989922750276,703.4191024089232,703.4689841659274,703.588980545057,703.8891126040835,704.0091473339126,704.3091337711085,704.4291846530978,704.479221923044,704.5993775050156,704.6492288510781,702.98892655198,None,706.059763971949,None,706.1697114699055,706.4698682241142,706.589792513987,706.639879072085,706.7600096450187,707.059948554961,707.1799620720558,707.2300610500388,707.35004049493,707.4001071550883,707.5202519700397,707.8201360229868,706.1598664328689,None,,,,,,,,,,,0,1,2023_May_24_0903,Cognition2_FullCode1,2021.2.3,99.97008290441282,
/Users/shamslab/Desktop/Cognition2_FullExperimentFile/0_AudioBlock1.csv,/Users/shamslab/Desktop/Cognition2_FullExperimentFile/fullGoodSeqs_rhythm_shortVis_PracticeAudio.csv,,1,2,2,1,2,11,16,28,58,70,100,112,117,129,159,11_audFile.wav,10,1,10,1,2,2,1,2,11,16,28,58,70,100,112,117,129,159,11_audFile.wav,10,,1,1,,,10,1,171,176,1,171,176,1,0,1,1,1,,,,,0,18,18,19,,,,,,,,,,,,,,,,,,,,,,,,,,,,,,,,,,,713.2519364629406,None,,,,,,,,,,,,,,,2,2.1813616601284593,716.9228014999535,None,716.9228014999535,None,,,,,,,,,710.1809289129451,None,710.3610717910342,711.3612691669259,711.3912591179833,None,711.5012060699519,711.5512413869146,711.6713064010255,711.9713637789246,712.0913651080336,712.3915465720929,712.5115207089111,712.5616292420309,712.6815582630225,712.9818079299293,713.1017523019109,713.1517502709758,711.4913003269816,None,714.5621078859549,None,714.6721964529715,714.7221388919279,714.8421866369899,715.1424006079324,715.2623195881024,715.5624717921019,715.6824685190804,715.7323729689233,715.852501315996,716.1526007989887,716.2727084411308,716.3225852181204,714.6621515869396,None,,,,,,,,,,,0,1,2023_May_24_0903,Cognition2_FullCode1,2021.2.3,99.97008290441282,
/Users/shamslab/Desktop/Cognition2_FullExperimentFile/0_AudioBlock1.csv,/Users/shamslab/Desktop/Cognition2_FullExperimentFile/fullGoodSeqs_rhythm_shortVis_PracticeAudio.csv,,1,2,1,2,2,11,16,28,58,70,75,87,117,129,159,6_audFile.wav,10,1,2,1,2,2,2,1,11,16,28,58,70,100,112,142,154,159,3_audFile.wav,10,,1,2,,,5,2,171,201,2,171,201,1,0,1,1,1,,,,,0,19,19,8,,,,,,,,,,,,,,,,,,,,,,,,,,,,,,,,,,,722.3543674580287,None,,,,,,,,,,,,,,,2,0.7666282448917627,726.0255289040506,None,726.0255289040506,None,,,,,,,,,719.1335099721327,None,719.3236382959876,720.3237296210136,720.3437956410926,722.2044356050901,720.4538356440607,720.5037683160044,720.6239488769788,720.9240561870392,721.0439951240551,721.0940754539333,721.2140487190336,721.5142099359073,721.6342508699745,721.9343158770353,722.0542643601075,None,720.443864464038,None,723.6648570389953,None,723.774771217024,723.8247150280513,723.9447271269746,724.2449328289367,724.3649697569199,724.6650403090753,724.7849950829986,725.0850164790172,725.2052489500493,725.2550993950572,725.3751807389781,725.6753795049153,723.7648765998659,None,,,,,,,,,,,0,1,2023_May_24_0903,Cognition2_FullCode1,2021.2.3,99.97008290441282,
/Users/shamslab/Desktop/Cognition2_FullExperimentFile/0_AudioBlock1.csv,/Users/shamslab/Desktop/Cognition2_FullExperimentFile/fullGoodSeqs_rhythm_shortVis_PracticeAudio.csv,,1,2,1,2,2,11,16,28,58,70,75,87,117,129,159,13_audFile.wav,10,1,2,1,2,2,2,1,11,16,28,58,70,100,112,142,154,159,3_audFile.wav,10,,1,2,,,12,1,171,176,2,171,201,1,0,1,1,1,,,,,0,20,20,14,,,,,,,,,,,,,,,,,,,,,,,,,,,,,,,,,,,729.8866110320669,None,,,,,,,,,,,,,,,2,0.2104019799735397,733.7177528659813,None,733.7177528659813,None,,,,,,,,,726.8156883670017,None,726.9957696290221,727.9960559380706,728.0260263890959,None,728.136040297104,728.1860676920041,728.3060342529789,728.6061069529969,728.7263291829731,728.7761777630076,728.8963024779223,729.1962820580229,729.3165071040858,729.6164952639956,729.7364344689995,729.786539823981,728.1260722270002,None,731.1969285679515,None,731.3069845130667,731.356992804911,731.4770061969757,731.777057036059,731.9073368040845,732.3171281479299,732.4473557909951,732.767641681945,732.8876184411347,732.9374925270677,733.0575875521172,733.3577408520505,731.2970131239621,None,,,,,,,,,,,0,1,2023_May_24_0903,Cognition2_FullCode1,2021.2.3,99.97008290441282,
/Users/shamslab/Desktop/Cognition2_FullExperimentFile/0_AudioBlock1.csv,/Users/shamslab/Desktop/Cognition2_FullExperimentFile/fullGoodSeqs_rhythm_shortVis_PracticeAudio.csv,,1,2,2,1,2,11,16,28,58,70,100,112,117,129,159,11_audFile.wav,10,1,2,1,2,2,2,1,11,16,28,58,70,100,112,142,154,159,3_audFile.wav,10,,1,2,,,10,1,171,176,2,171,201,1,0,1,1,1,,,,,0,21,21,29,,,,,,,,,,,,,,,,,,,,,,,,,,,,,,,,,,,737.0285641900264,None,,,,,,,,,,,,,,,2,0.17048086505383253,740.7096791609656,None,740.7096791609656,None,,,,,,,,,733.9577172149438,None,734.1478086940479,735.1478823230136,735.1681161930319,None,735.2780811369885,735.3280967129394,735.4482385430019,735.7481451469939,735.8682169311214,736.1682839349378,736.2882730010897,736.3383728531189,736.4585569610354,736.7584100870881,736.8785951330792,736.9285308709368,735.2680467499653,None,738.3390142009594,None,738.4488946150523,738.4989321439061,738.6190268259961,738.9191355139483,739.0391266799998,739.3392953129951,739.459359274013,739.7593305450864,739.8794237701222,739.9294727239758,740.0494887221139,740.3494698060676,738.4392417790135,None,,,,,,,,,,,0,1,2023_May_24_0903,Cognition2_FullCode1,2021.2.3,99.97008290441282,
/Users/shamslab/Desktop/Cognition2_FullExperimentFile/0_AudioBlock1.csv,/Users/shamslab/Desktop/Cognition2_FullExperimentFile/fullGoodSeqs_rhythm_shortVis_PracticeAudio.csv,,1,2,2,1,2,11,16,28,58,70,100,112,117,129,159,5_audFile.wav,10,1,4,1,2,2,1,2,11,16,28,58,70,100,112,117,129,159,5_audFile.wav,10,,1,1,,,4,2,171,201,2,171,201,1,0,1,1,1,,,,,0,22,22,12,,,,,,,,,,,,,,,,,,,,,,,,,,,,,,,,,,,744.130651047919,None,,,,,,,,,,,,,,,2,0.1985838650725782,747.8416186440736,None,747.8416186440736,None,,,,,,,,,740.9097523239907,None,741.0996336240787,742.1000847879332,742.1199484551325,743.9805365349166,742.2300982291345,742.279982122127,742.3999569530133,742.7001916130539,742.8202096449677,743.1203401430976,743.2402809381019,743.2904568340164,743.4105160199106,743.7106263090391,743.8305116079282,None,742.2200306139188,None,745.4409800320864,None,745.5510621990543,745.600944519043,745.7210453799926,746.0211249880958,746.1411909731105,746.4412196509074,746.5611936240457,746.6114268470556,746.731423741905,747.0415072171018,747.1713910470717,747.4815129591152,745.5410799600417,None,,,,,,,,,,,0,1,2023_May_24_0903,Cognition2_FullCode1,2021.2.3,99.97008290441282,
/Users/shamslab/Desktop/Cognition2_FullExperimentFile/0_AudioBlock1.csv,/Users/shamslab/Desktop/Cognition2_FullExperimentFile/fullGoodSeqs_rhythm_shortVis_PracticeAudio.csv,,1,2,2,1,2,11,16,28,58,70,100,112,117,129,159,5_audFile.wav,10,1,15,1,2,1,2,1,11,16,28,58,70,75,87,117,129,134,16_audFile.wav,10,,1,2,,,4,2,171,201,2,146,176,1,0,1,1,1,,,,,0,23,23,9,,,,,,,,,,,,,,,,,,,,,,,,,,,,,,,,,,,751.2826150921173,None,,,,,,,,,,,,,,,2,5.206524454988539,754.9536735520232,None,754.9536735520232,None,,,,,,,,,748.0617317571305,None,748.2418775369879,749.2421299461275,749.2720039619599,751.1326449299231,749.3820868900511,749.4322412360925,749.5521614919417,749.8523354600184,749.9724024930038,750.2723929360509,750.3924034980591,750.442486802116,750.5624236289877,750.8624401919078,750.98270451813,None,749.372162358812,None,752.5931018250994,None,752.703176548006,752.7529899880756,752.8730895079207,753.1731674519833,753.2932032749522,753.3431542089675,753.4633631110191,753.7633307490032,753.8834072209429,753.9333929799031,754.0534033710137,754.3535867850296,752.6930642898427,None,,,,,,,,,,,0,1,2023_May_24_0903,Cognition2_FullCode1,2021.2.3,99.97008290441282,
/Users/shamslab/Desktop/Cognition2_FullExperimentFile/0_AudioBlock1.csv,/Users/shamslab/Desktop/Cognition2_FullExperimentFile/fullGoodSeqs_rhythm_shortVis_PracticeAudio.csv,,2,1,2,1,2,11,41,53,58,70,100,112,117,129,159,10_audFile.wav,10,2,11,2,1,1,2,2,11,41,53,58,70,75,87,117,129,159,12_audFile.wav,10,,1,2,,,9,1,171,176,1,171,176,2,0,1,1,1,,,,,0,24,24,25,,,,,,,,,,,,,,,,,,,,,,,,,,,,,,,,,,,763.2661352180876,None,,,,,,,,,,,,,,,2,1.4071194641292095,766.9370786179788,None,766.9370786179788,None,,,,,,,,,760.1852408780251,None,760.3652864799369,761.3655029530637,761.3953658340033,None,761.5057011039462,761.805701340083,761.9256970100105,761.9756311539095,762.0957277899142,762.395882765064,762.515791733982,762.5758112359326,762.6958280459512,762.9959681790788,763.1161855289247,763.1659227861091,761.495483527868,None,764.5764788829256,None,764.6864316191059,764.9865530820098,765.1065854779445,765.1564604120795,765.2766691360157,765.3267057449557,765.4466279919725,765.746682834113,765.8668331450317,766.1669664089568,766.2868957871106,766.3368093790486,764.6763467639452,None,,,,,,,,,,,0,1,2023_May_24_0903,Cognition2_FullCode1,2021.2.3,99.97008290441282,
/Users/shamslab/Desktop/Cognition2_FullExperimentFile/0_AudioBlock1.csv,/Users/shamslab/Desktop/Cognition2_FullExperimentFile/fullGoodSeqs_rhythm_shortVis_PracticeAudio.csv,,2,1,2,1,2,11,41,53,58,70,100,112,117,129,159,4_audFile.wav,10,2,9,2,1,2,1,2,11,41,53,58,70,100,112,117,129,159,10_audFile.wav,10,,1,2,,,3,2,171,201,1,171,176,2,0,1,1,1,,,,,0,25,25,3,,,,,,,,,,,,,,,,,,,,,,,,,,,,,,,,,,,771.5885378210805,None,,,,,,,,,,,,,,,2,1.69070846401155,775.2694491951261,None,775.2694491951261,None,,,,,,,,,768.3675501460675,None,768.5477484029252,769.5478750849143,769.5777486960869,771.4384985549841,769.6878751809709,769.9879304119386,770.1080122250132,770.1580575639382,770.2780669769272,770.5780490599573,770.6981467520818,770.748240605928,770.8681944140699,771.1683682110161,771.2882957269903,None,769.6779817580012,None,772.8988619900774,None,773.0088447269518,773.3088895550463,773.4288728819229,773.4789897729643,773.5990450719837,773.8991354410537,774.0191370151006,774.0691749260295,774.1892274529673,774.4891987240408,774.6091927960515,774.6593802529387,772.9989860539557,None,,,,,,,,,,,0,1,2023_May_24_0903,Cognition2_FullCode1,2021.2.3,99.97008290441282,
/Users/shamslab/Desktop/Cognition2_FullExperimentFile/0_AudioBlock1.csv,/Users/shamslab/Desktop/Cognition2_FullExperimentFile/fullGoodSeqs_rhythm_shortVis_PracticeAudio.csv,,2,1,2,2,1,11,41,53,58,70,100,112,142,154,159,8_audFile.wav,10,2,7,2,1,2,2,1,11,41,53,58,70,100,112,142,154,159,8_audFile.wav,10,,1,1,,,7,1,171,176,1,171,176,2,0,1,1,1,,,,,0,26,26,5,,,,,,,,,,,,,,,,,,,,,,,,,,,,,,,,,,,780.0608841720968,None,,,,,,,,,,,,,,,1,0.43429187685251236,783.741882838076,None,783.741882838076,None,,,,,,,,,776.9900035110768,None,777.1800718330778,778.1803687131032,778.2003311610315,None,778.3104101889767,778.6104078351054,778.7304513389245,778.7804798139259,778.9006025351118,779.2006280301139,779.3205797439441,779.6206961090211,779.7408044000622,779.7907394340727,779.9107330299448,779.9608774499502,778.3004648829577,None,781.3712397839408,None,781.4812467289157,781.7812199639156,781.9015182580333,781.9513515180442,782.0713199980091,782.3713647839613,782.4915964230895,782.7916165629867,782.9116708131041,782.9617186840624,783.0818407579791,783.1317063400056,781.4712177889654,None,,,,,,,,,,,0,1,2023_May_24_0903,Cognition2_FullCode1,2021.2.3,99.97008290441282,
/Users/shamslab/Desktop/Cognition2_FullExperimentFile/0_AudioBlock1.csv,/Users/shamslab/Desktop/Cognition2_FullExperimentFile/fullGoodSeqs_rhythm_shortVis_PracticeAudio.csv,,2,2,1,2,1,11,41,53,83,95,100,112,142,154,159,1_audFile.wav,10,3,0,2,2,1,2,1,11,41,53,83,95,100,112,142,154,159,1_audFile.wav,10,,1,1,,,0,2,171,201,2,171,201,3,0,1,1,1,,,,,0,27,27,22,,,,,,,,,,,,,,,,,,,,,,,,,,,,,,,,,,,787.4230398400687,None,,,,,,,,,,,,,,,1,0.02202667505480349,791.1141322019976,None,791.1141322019976,None,,,,,,,,,784.2019838381093,None,784.3821543080267,785.382327938918,785.4123417111114,787.2729032831267,785.522477101069,785.822488958016,785.9425771229435,786.2424916420132,786.3627345929854,786.4126377629582,786.5326172190253,786.8326586079784,786.9528375561349,787.002751999069,787.1229569620918,None,785.5124689498683,None,788.7333203491289,None,788.8433382250369,789.1434686379507,789.2634394420311,789.5634801860433,789.6835556800943,789.7335810849909,789.8536949849222,790.1535681469832,790.2738446679432,790.3237053889316,790.4539660310838,790.7538134579081,788.8333455559099,None,,,,,,,,,,,0,1,2023_May_24_0903,Cognition2_FullCode1,2021.2.3,99.97008290441282,
/Users/shamslab/Desktop/Cognition2_FullExperimentFile/0_AudioBlock1.csv,/Users/shamslab/Desktop/Cognition2_FullExperimentFile/fullGoodSeqs_rhythm_shortVis_PracticeAudio.csv,,2,2,1,2,1,11,41,53,83,95,100,112,142,154,159,7_audFile.wav,10,3,8,2,2,1,1,2,11,41,53,83,95,100,112,117,129,159,9_audFile.wav,10,,1,2,,,6,1,171,176,1,171,176,3,0,1,1,1,,,,,0,28,28,18,,,,,,,,,,,,,,,,,,,,,,,,,,,,,,,,,,,794.2350392700173,None,,,,,,,,,,,,,,,2,0.764208230888471,797.9159648960922,None,797.9159648960922,None,,,,,,,,,791.1641264159698,None,791.3441396700218,792.3443790380843,792.3743884249125,None,792.4845267389901,792.7844133910257,792.9044019440189,793.2046268349513,793.3246424950194,793.374548577005,793.4947094039526,793.7947229871061,793.9148456649855,793.964722057106,794.0847485170234,794.1348170000128,792.4744635738665,None,795.5451804969925,None,795.6553075029515,795.9553864239715,796.0755078790244,796.3755128330085,796.4955235279631,796.5455119169783,796.6656104149297,796.7154896550346,796.8356574189384,797.1356523050927,797.2558030530345,797.3057694591116,795.645359109831,None,,,,,,,,,,,0,1,2023_May_24_0903,Cognition2_FullCode1,2021.2.3,99.97008290441282,
/Users/shamslab/Desktop/Cognition2_FullExperimentFile/0_AudioBlock1.csv,/Users/shamslab/Desktop/Cognition2_FullExperimentFile/fullGoodSeqs_rhythm_shortVis_PracticeAudio.csv,,2,1,2,1,2,11,41,53,58,70,100,112,117,129,159,4_audFile.wav,10,2,3,2,1,2,1,2,11,41,53,58,70,100,112,117,129,159,4_audFile.wav,10,,1,1,,,3,2,171,201,2,171,201,2,0,1,1,1,,,,,0,29,29,28,,,,,,,,,,,,,,,,,,,,,,,,,,,,,,,,,,,801.9271172520239,None,,,,,,,,,,,,,,,2,0.38587672798894346,805.598287106026,None,805.598287106026,None,,,,,,,,,798.7061810330488,None,798.8863166640513,799.8863534249831,799.9165053889155,801.7770339960698,800.0265761159826,800.3265685921069,800.4468066939153,800.4966325950809,800.6166920049582,800.9166709119454,801.0367628349923,801.0869156389963,801.2069826431107,801.5068615339696,801.626946921926,None,800.0165814039996,None,803.2375031469855,None,803.3474959409796,803.6475504059345,803.7676297179423,803.8176337280311,803.9376788949594,804.2377326209098,804.3577298910823,804.4078968369868,804.5279319339897,804.8278562880587,804.9478645429481,805.247989858035,803.337631253968,None,,,,,,,,,,,0,1,2023_May_24_0903,Cognition2_FullCode1,2021.2.3,99.97008290441282,
/Users/shamslab/Desktop/Cognition2_FullExperimentFile/0_AudioBlock1.csv,/Users/shamslab/Desktop/Cognition2_FullExperimentFile/fullGoodSeqs_rhythm_shortVis_PracticeAudio.csv,,1,2,1,2,2,11,16,28,58,70,75,87,117,129,159,13_audFile.wav,10,1,12,1,2,1,2,2,11,16,28,58,70,75,87,117,129,159,13_audFile.wav,10,,1,1,,,12,1,171,176,1,171,176,1,0,1,1,1,,,,,0,30,30,21,,,,,,,,,,,,,,,,,,,,,,,,,,,,,,,,,,,809.0791606919374,None,,,,,,,,,,,,,,,2,0.38602297590114176,812.7502004040871,None,812.7502004040871,None,,,,,,,,,806.0081977220252,None,806.1881911049131,807.1885288769845,807.2185210050084,None,807.3286531469785,807.3787227459252,807.4987514750101,807.7986512170173,807.9188201129436,807.9688012111001,808.0887718850281,808.388939361088,808.5089634999167,808.809151354013,808.9291592529044,808.9789908619132,807.3187450009631,None,810.3895139200613,None,810.4996137020644,810.5494918150362,810.6695944729727,810.96964556491,811.0897319759242,811.1396847490687,811.259700861061,811.5598297249526,811.6798744890839,811.9799912599847,812.0999500830658,812.1500192810781,810.4895556748146,None,,,,,,,,,,,0,1,2023_May_24_0903,Cognition2_FullCode1,2021.2.3,99.97008290441282,
/Users/shamslab/Desktop/Cognition2_FullExperimentFile/0_AudioBlock1.csv,/Users/shamslab/Desktop/Cognition2_FullExperimentFile/fullGoodSeqs_rhythm_shortVis_PracticeAudio.csv,,2,2,1,2,1,11,41,53,83,95,100,112,142,154,159,7_audFile.wav,10,3,6,2,2,1,2,1,11,41,53,83,95,100,112,142,154,159,7_audFile.wav,10,,1,1,,,6,1,171,176,1,171,176,3,0,1,1,1,,,,,0,31,31,26,,,,,,,,,,,,,,,,,,,,,,,,,,,,,,,,,,,816.2310820820276,None,,,,,,,,,,,,,,,2,0.3378858510404825,819.9822763840202,None,819.9822763840202,None,,,,,,,,,813.1603124020621,None,813.3403777079657,814.3405927729327,814.3706301939674,None,814.4806840480305,814.7807652640622,814.9008449590765,815.200956759043,815.3209854499437,815.3709286290687,815.4909502079245,815.7911100310739,815.9113137950189,815.9610311880242,816.0809810319915,816.1310377779882,814.4708200618392,None,817.5415473179892,None,817.6515459769871,817.9515980831347,818.0717622521333,818.4520752690732,818.5718772329856,818.6217684689909,818.7418735991232,819.0419600929599,819.1620698671322,819.2119070740882,819.3321343739517,819.3820479570422,817.6416631040396,None,,,,,,,,,,,0,1,2023_May_24_0903,Cognition2_FullCode1,2021.2.3,99.97008290441282,
/Users/shamslab/Desktop/Cognition2_FullExperimentFile/0_AudioBlock1.csv,/Users/shamslab/Desktop/Cognition2_FullExperimentFile/fullGoodSeqs_rhythm_shortVis_PracticeAudio.csv,,,,,,,,,,,,,,,,,,,,,,,,,,,,,,,,,,,,,,,,,,,,,,,,,,,0,1,1,1,,,,,,,,,,,,,,,,,,,,,,,,,,,,,,,,,,,,,,,,,,,,,,,,,,,,,,,,,,,,,,,,,,,,,,,,,,,,,,,,,,,,,,,,,,,,,,,,,,,,,,,,,,,,,820.3523308930453,None,820.3523308930453,None,,,,,,,0,1,2023_May_24_0903,Cognition2_FullCode1,2021.2.3,99.97008290441282,
,,,,,,,,,,,,,,,,,,,,,,,,,,,,,,,,,,,,,,,,,,,,,,,,,,,,,,,,,,,,,,,,,,,,,,,,,,,,,,,,,,,,,,,,,,,,,,,,,,,,,,,,,,,,,,,,,,,,,,,,,,,,,,,,,,,,,,,,,,,,,,,,,,,,,,,,,,,,,,,,,,,,,,,,space,3.7745788819156587,880.8496578771155,None,,,0,1,2023_May_24_0903,Cognition2_FullCode1,2021.2.3,99.97008290441282,
,,,,,,,,,,,,,,,,,,,,,,,,,,,,,,,,,,,,,,,,,,,,,,,,,,,,,,,,,,,,,,,,,,,,,,,,,,,,,,,,,,,,,,,,,,,,,,,,,,,,,,,,,,,,,,,,,,,,,,,,,,,,,,,,,,,,,,,,,,,,,,,,,,,,,,,,,,,,,,,,,,,,,,,,,,,,880.4493349420372,None,,,,,,,
