filePaths,practFiles,StimulusCode,stim1,stim2,stim3,stim4,stim5,stim1Start,stim1End,stim2Start,stim2End,stim3Start,stim3End,stim4Start,stim4End,stim5Start,stim5End,audFile,audStart,similCat,rhythm_i2,stim1_i2,stim2_i2,stim3_i2,stim4_i2,stim5_i2,stim1Start_i2,stim1End_i2,stim2Start_i2,stim2End_i2,stim3Start_i2,stim3End_i2,stim4Start_i2,stim4End_i2,stim5Start_i2,stim5End_i2,audFile_i2,audStart_i2,similCatp,setVol,corrMatchAnswer,whatCondIs,trialTypeName,rhythm,stim6,stim6Start,stim6End,stim6_i2,stim6Start_i2,stim6End_i2,similCat_i2,overarchingRhythmOrder.thisRepN,overarchingRhythmOrder.thisTrialN,overarchingRhythmOrder.thisN,overarchingRhythmOrder.thisIndex,rhythmPractTrials.thisRepN,rhythmPractTrials.thisTrialN,rhythmPractTrials.thisN,rhythmPractTrials.thisIndex,AudVisRhythmLoop.thisRepN,AudVisRhythmLoop.thisTrialN,AudVisRhythmLoop.thisN,AudVisRhythmLoop.thisIndex,text_3.started,text_3.stopped,goToNext.keys,goToNext.rt,goToNext.started,goToNext.stopped,variableInstructions_2.started,variableInstructions_2.stopped,goToBlockKey_2.keys,goToBlockKey_2.rt,goToBlockKey_2.started,goToBlockKey_2.stopped,text_9.started,text_9.stopped,preFix_2.started,preFix_2.stopped,text_10.started,text_10.stopped,text_11.started,text_11.stopped,holdFix_2.started,holdFix_2.stopped,cir1_2.started,cir1_2.stopped,cir2_2.started,cir2_2.stopped,cir3_2.started,cir3_2.stopped,cir4_2.started,cir4_2.stopped,cir5_2.started,cir5_2.stopped,audioTrialSound_2.started,audioTrialSound_2.stopped,text.started,text.stopped,holdFix_i2_2.started,holdFix_i2_2.stopped,cir1_i2_2.started,cir1_i2_2.stopped,cir2_i2_2.started,cir2_i2_2.stopped,cir3_i2_2.started,cir3_i2_2.stopped,cir4_i2_2.started,cir4_i2_2.stopped,cir5_i2_2.started,cir5_i2_2.stopped,audioTrialSound_i2_2.started,audioTrialSound_i2_2.stopped,rhythmChoice.keys,rhythmChoice.rt,rhythmChoice.started,rhythmChoice.stopped,promptTxt.started,promptTxt.stopped,text_5.started,text_5.stopped,variableInstructions.started,variableInstructions.stopped,goToBlockKey.keys,goToBlockKey.rt,goToBlockKey.started,goToBlockKey.stopped,text_2.started,text_2.stopped,preFix.started,preFix.stopped,holdFix.started,holdFix.stopped,cir1.started,cir1.stopped,cir2.started,cir2.stopped,cir3.started,cir3.stopped,cir4.started,cir4.stopped,cir5.started,cir5.stopped,cir6.started,cir6.stopped,audioTrialSound.started,audioTrialSound.stopped,holdFix_i2.started,holdFix_i2.stopped,cir1_i2.started,cir1_i2.stopped,cir2_i2.started,cir2_i2.stopped,cir3_i2.started,cir3_i2.stopped,cir4_i2.started,cir4_i2.stopped,cir5_i2.started,cir5_i2.stopped,cir6_i2.started,cir6_i2.stopped,audioTrialSound_i2.started,audioTrialSound_i2.stopped,breatheBro.started,breatheBro.stopped,image.started,image.stopped,participant,session,date,expName,psychopyVersion,frameRate,
,,,,,,,,,,,,,,,,,,,,,,,,,,,,,,,,,,,,,,,,,,,,,,,,,,,,,,,,,,,,,,,,9.803477706969716,None,space,43.53882740507834,9.982754634926096,None,,,,,,,,,,,,,,,,,,,,,,,,,,,,,,,,,,,,,,,,,,,,,,,,,,,,,,,,,,,,,,,,,,,,,,,,,,,,,,,,,,,,,,,,,,,,,,,,,,,,1,2023_Mar_16_1357,Cognition2_FullCode1,2021.2.3,99.9461888879465,
/Users/shamslab/Desktop/Cognition2_FullExperimentFile/_VisualBlock1.csv,/Users/shamslab/Desktop/Cognition2_FullExperimentFile/fullGoodSeqs_rhythm_shortVis_PracticeVideo.csv,P1,2,1,2,1,1,11,41,56,61,76,106,121,126,141,146,1_practAudFile.wav,1,pc1,P1,2,1,2,1,1,11,41,56,61,76,106,121,126,141,146,1_practAudFile.wav,1,pc1,0,1,SAME,SAME,,,,,,,,,0,0,0,0,0,0,0,0,,,,,,,,,,,53.66515650902875,None,space,16.45241997204721,53.76517977693584,None,74.34098919294775,None,74.54098269401584,None,70.33987899997737,74.34098919294775,70.33987899997737,74.34098919294775,75.54141041799448,None,75.65144133695867,75.95151717902627,76.10141773999203,76.15151109197177,76.30159972398542,76.60155817703344,76.75170975399669,76.80163345194887,76.95191682002041,77.0017704720376,75.5514181183884,None,77.40195456903894,None,78.71221508097369,None,78.82228725298773,79.1223136530025,79.2723400730174,79.32236567698419,79.47239796700887,79.77246636594646,79.92266852303874,79.97253748797812,80.12258199998178,80.17262332700193,78.7222227813676,None,1,1.9525526530342177,81.07302917994093,None,81.07302917994093,None,83.14340204803739,None,,,,,,,,,,,,,,,,,,,,,,,,,,,,,,,,,,,,,,,,,,,,,,,,1,2023_Mar_16_1357,Cognition2_FullCode1,2021.2.3,99.9461888879465,
/Users/shamslab/Desktop/Cognition2_FullExperimentFile/_VisualBlock1.csv,/Users/shamslab/Desktop/Cognition2_FullExperimentFile/fullGoodSeqs_rhythm_shortVis_PracticeVideo.csv,P2,2,1,1,2,1,11,41,56,61,76,81,96,126,141,146,2_practAudFile.wav,1,pc1,P1,2,1,2,1,1,11,41,56,61,76,106,121,126,141,146,1_practAudFile.wav,1,pc1,0,2,DIFFERENT,DIFFERENT,,,,,,,,,0,0,0,0,0,1,1,1,,,,,,,,,,,,,,,,,88.7449875799939,None,88.9452003230108,None,84.74384735093918,88.7449875799939,84.74384735093918,88.7449875799939,89.95538353698794,None,90.06552940397523,90.3654388859868,90.51568914903328,90.56548723601736,90.71571493300144,90.7657325869659,90.91577067994513,91.21590010693762,91.36593251500744,91.4158232579939,89.96539123738185,None,91.81588244298473,None,93.12639196403325,None,93.23639558395371,93.53652203595266,93.68636046303436,93.7365196190076,93.88654159195721,94.18659024802037,94.33668939396739,94.38662141293753,94.53678128297906,94.58661293494515,93.13639966442716,None,2,0.8186606679810211,95.48701197595801,None,95.48701197595801,None,96.40737164195161,None,,,,,,,,,,,,,,,,,,,,,,,,,,,,,,,,,,,,,,,,,,,,,,,,1,2023_Mar_16_1357,Cognition2_FullCode1,2021.2.3,99.9461888879465,
/Users/shamslab/Desktop/Cognition2_FullExperimentFile/_VisualBlock1.csv,/Users/shamslab/Desktop/Cognition2_FullExperimentFile/fullGoodSeqs_rhythm_shortVis_PracticeVideo.csv,P3,1,2,1,2,1,11,16,31,61,76,81,96,126,141,146,3_practAudFile.wav,1,pc2,P3,1,2,1,2,1,11,16,31,61,76,81,96,126,141,146,3_practAudFile.wav,1,pc2,0,1,SAME,SAME,,,,,,,,,0,0,0,0,0,2,2,2,,,,,,,,,,,,,,,,,101.9988905149512,None,102.19890454702545,None,97.99786052794661,101.9988905149512,97.99786052794661,101.9988905149512,103.20925568498205,None,103.31928787194192,103.36917831399478,103.51925814303104,103.81934866600204,103.96954678394832,104.01935991994105,104.16946628398728,104.46950796397869,104.61968816898298,104.66952898493037,103.21926338537597,None,105.06964100897312,None,106.38003848097287,None,106.49015176098328,106.54008287203033,106.6901641379809,106.99020470201503,107.14040777401533,107.19022868503816,107.34028505103197,107.64047802903224,107.79059837199748,107.84041172196157,106.39004618136678,None,1,3.8768574310233817,108.74072819994763,None,108.74072819994763,None,112.72206953796558,None,,,,,,,,,,,,,,,,,,,,,,,,,,,,,,,,,,,,,,,,,,,,,,,,1,2023_Mar_16_1357,Cognition2_FullCode1,2021.2.3,99.9461888879465,
/Users/shamslab/Desktop/Cognition2_FullExperimentFile/_VisualBlock1.csv,/Users/shamslab/Desktop/Cognition2_FullExperimentFile/fullGoodSeqs_rhythm_shortVis_PracticeVideo.csv,P3,1,2,1,2,1,11,16,31,61,76,81,96,126,141,146,3_practAudFile.wav,1,pc2,P4,1,2,1,1,2,11,16,31,61,76,81,96,101,116,146,4_practAudFile.wav,1,pc2,0,2,DIFFERENT,DIFFERENT,,,,,,,,,0,0,0,0,0,3,3,3,,,,,,,,,,,,,,,,,118.31340829201508,None,118.51357313001063,None,114.31246234592982,118.31340829201508,114.31246234592982,118.31340829201508,119.52377053897362,None,119.63393746793736,119.68382623500656,119.83404205797706,120.13406796497293,120.28423239698168,120.33397568098735,120.48424966493621,120.78410040901508,120.93435445800424,120.98428508802317,119.53377823936754,None,121.38446772703901,None,122.68502231000457,None,122.79467598500196,122.84472333092708,122.99486784799956,123.29493779700715,123.44506957894191,123.49488883093,123.64502269099467,123.69501804898027,123.8451767009683,124.14504688500892,122.69503001039848,None,2,1.292159122065641,125.04541954700835,None,125.04541954700835,None,126.4458051850088,None,,,,,,,,,,,,,,,,,,,,,,,,,,,,,,,,,,,,,,,,,,,,,,,,1,2023_Mar_16_1357,Cognition2_FullCode1,2021.2.3,99.9461888879465,
/Users/shamslab/Desktop/Cognition2_FullExperimentFile/_VisualBlock1.csv,/Users/shamslab/Desktop/Cognition2_FullExperimentFile/fullGoodSeqs_rhythm_shortVis_PracticeVideo.csv,,1,2,1,2,1,11,16,28,58,70,75,87,117,129,134,3_audFile.wav,10,5,28,1,2,1,1,2,11,16,28,58,70,75,87,92,104,134,3_audFile.wav,10,,0,2,,,26,2,146,176,2,146,176,5,0,0,0,0,,,,,0,0,0,12,,,,,,,,,,,,,,,,,,,,,,,,,,,,,,,,,,,143.31065033201594,None,,,,,,,,,,,,,,,2,0.515905161970295,146.98170933395158,None,146.98170933395158,None,,,128.05649112397805,None,space,12.061326700961217,128.15627521602437,None,140.2698708899552,None,140.4499078859808,None,141.45008584600873,None,141.56006347294897,141.61017816094682,141.73027480603196,142.0302064110292,142.15028036292642,142.20043038099539,142.320319563034,142.62033844203688,142.7405708580045,142.79057644796558,142.91066048503853,143.21054435393307,141.55006568236277,None,144.62102841900196,None,144.73108369100373,144.78099371900316,144.90110383799765,145.2013432190288,145.3212452949956,145.37111645797268,145.49117893201765,145.54138551093638,145.66132425703108,145.96131022297777,146.08171236002818,146.38166351395193,144.72101594936103,None,,,,,,1,2023_Mar_16_1357,Cognition2_FullCode1,2021.2.3,99.9461888879465,
/Users/shamslab/Desktop/Cognition2_FullExperimentFile/_VisualBlock1.csv,/Users/shamslab/Desktop/Cognition2_FullExperimentFile/fullGoodSeqs_rhythm_shortVis_PracticeVideo.csv,,2,2,1,1,2,11,41,53,83,95,100,112,117,129,159,3_audFile.wav,10,7,18,2,2,1,1,2,11,41,53,83,95,100,112,117,129,159,3_audFile.wav,10,,0,1,,,18,1,171,176,1,171,176,7,0,0,0,0,,,,,0,1,1,13,,,,,,,,,,,,,,,,,,,,,,,,,,,,,,,,,,,150.59269551793113,None,,,,,,,,,,,,,,,1,0.28170970699284226,154.26387170993257,None,154.26387170993257,None,,,,,,,,,147.52185139700305,None,147.70199408999179,148.7020994919585,148.73219179699663,None,148.8421993009979,149.14226143993437,149.26225868798792,149.56240685097873,149.68243954598438,149.73240154993255,149.8524221390253,149.90263845096342,150.02277227002196,150.32262371003162,150.44276402995456,150.49272514798213,148.83211493932177,None,151.90319434995763,None,152.013050811016,152.31343135703355,152.43326940294355,152.73331945599057,152.8534084649291,152.90343546203803,153.0234196250094,153.07331797201186,153.19353797496296,153.49365649092942,153.6136552549433,153.66345556499436,152.00314182634466,None,,,,,,1,2023_Mar_16_1357,Cognition2_FullCode1,2021.2.3,99.9461888879465,
/Users/shamslab/Desktop/Cognition2_FullExperimentFile/_VisualBlock1.csv,/Users/shamslab/Desktop/Cognition2_FullExperimentFile/fullGoodSeqs_rhythm_shortVis_PracticeVideo.csv,,1,2,2,1,2,11,16,28,58,70,100,112,117,129,159,3_audFile.wav,10,5,20,1,2,2,1,2,11,16,28,58,70,100,112,117,129,159,3_audFile.wav,10,,0,1,,,20,1,171,176,1,171,176,5,0,0,0,0,,,,,0,2,2,10,,,,,,,,,,,,,,,,,,,,,,,,,,,,,,,,,,,157.6447828960372,None,,,,,,,,,,,,,,,1,0.7418405280914158,161.31573491799645,None,161.31573491799645,None,,,,,,,,,154.57372688001487,None,154.7538787550293,155.75422647502273,155.7842693759594,None,155.8943163920194,155.94417594000697,156.06435100804083,156.3644852800062,156.48437880398706,156.784523247974,156.90456115698908,156.9544429279631,157.07475180493202,157.37475866498426,157.49475687392987,157.54462608892936,155.8844176763436,None,158.95506492396817,None,159.06515049003065,159.11513989802916,159.23522188793868,159.53531505493447,159.65525055595208,159.95528648793697,160.07542651996482,160.1254251699429,160.2454747899901,160.54554373701103,160.66564231703524,160.71551916294266,159.05511705039535,None,,,,,,1,2023_Mar_16_1357,Cognition2_FullCode1,2021.2.3,99.9461888879465,
/Users/shamslab/Desktop/Cognition2_FullExperimentFile/_VisualBlock1.csv,/Users/shamslab/Desktop/Cognition2_FullExperimentFile/fullGoodSeqs_rhythm_shortVis_PracticeVideo.csv,,1,1,2,1,2,11,16,28,33,45,75,87,92,104,134,3_audFile.wav,10,4,27,1,1,2,2,1,11,16,28,33,45,75,87,117,129,134,3_audFile.wav,10,,0,2,,,29,2,146,176,2,146,176,4,0,0,0,0,,,,,0,3,3,20,,,,,,,,,,,,,,,,,,,,,,,,,,,,,,,,,,,165.1568961580051,None,,,,,,,,,,,,,,,1,0.9416640929412097,168.82791767793242,None,168.82791767793242,None,,,,,,,,,162.08606921799947,None,162.26599268394057,163.26641871395987,163.29626048798673,None,163.40645499702077,163.45632769796066,163.57656137796585,163.62641315499786,163.74636205192655,164.04651823698077,164.1666908529587,164.21652322693262,164.3366343289381,164.6365924469428,164.75677940703463,165.05680554395076,163.39640387832188,None,166.467354567023,None,166.57722990494221,166.62730541301426,166.74734515196178,166.79735090199392,166.91741325194016,167.21739534696098,167.33754557499196,167.63751793804113,167.75767596403603,167.8076009870274,167.9276393939508,168.22763650503475,166.56715276637115,None,,,,,,1,2023_Mar_16_1357,Cognition2_FullCode1,2021.2.3,99.9461888879465,
/Users/shamslab/Desktop/Cognition2_FullExperimentFile/_VisualBlock1.csv,/Users/shamslab/Desktop/Cognition2_FullExperimentFile/fullGoodSeqs_rhythm_shortVis_PracticeVideo.csv,,1,1,2,2,1,11,16,28,33,45,75,87,117,129,134,3_audFile.wav,10,4,27,1,1,2,2,1,11,16,28,33,45,75,87,117,129,134,3_audFile.wav,10,,0,1,,,27,2,146,176,2,146,176,4,0,0,0,0,,,,,0,4,4,3,,,,,,,,,,,,,,,,,,,,,,,,,,,,,,,,,,,172.85906781593803,None,,,,,,,,,,,,,,,1,1.7354280119761825,176.53013949096203,None,176.53013949096203,None,,,,,,,,,169.78819352097344,None,169.97817242599558,170.97860491997562,170.99845054303296,None,171.10856852296274,171.15862939495128,171.27870227396488,171.32857775501907,171.4486261230195,171.748696894967,171.86878541193437,172.16883138602134,172.2889780040132,172.33881432702765,172.45909132494126,172.75904402101878,171.0986391444225,None,174.16942444397137,None,174.279402123997,174.3294001109898,174.44956120103598,174.49966514494736,174.61961431393865,174.91966026998125,175.03974140400533,175.33981259493157,175.45988408499397,175.50979215896223,175.6299473439576,175.93002498394344,174.26953435337637,None,,,,,,1,2023_Mar_16_1357,Cognition2_FullCode1,2021.2.3,99.9461888879465,
/Users/shamslab/Desktop/Cognition2_FullExperimentFile/_VisualBlock1.csv,/Users/shamslab/Desktop/Cognition2_FullExperimentFile/fullGoodSeqs_rhythm_shortVis_PracticeVideo.csv,,2,1,2,1,1,11,41,53,58,70,100,112,117,129,134,3_audFile.wav,10,6,23,2,1,2,1,1,11,41,53,58,70,100,112,117,129,134,3_audFile.wav,10,,0,1,,,23,2,146,176,2,146,176,6,0,0,0,0,,,,,0,5,5,21,,,,,,,,,,,,,,,,,,,,,,,,,,,,,,,,,,,181.36166397097986,None,,,,,,,,,,,,,,,2,0.35296464001294225,185.03269353602082,None,185.03269353602082,None,,,,,,,,,178.29050944093615,None,178.4708101709839,179.47095404402353,179.501036247937,None,179.61104920099024,179.9111749510048,180.03115163103212,180.0811840039678,180.20121286902577,180.50125270395074,180.62137619196437,180.6713219479425,180.79141891002655,180.8413158019539,180.96140939800534,181.26147144893184,179.60098183839582,None,182.67196660896298,None,182.78189912694506,183.08199203200638,183.20194555295166,183.25202518200967,183.37220319896005,183.67212170001585,183.79211901896633,183.8422166869277,183.9623003109591,184.01222092099488,184.13234336697496,184.43242907896638,182.772092401376,None,,,,,,1,2023_Mar_16_1357,Cognition2_FullCode1,2021.2.3,99.9461888879465,
/Users/shamslab/Desktop/Cognition2_FullExperimentFile/_VisualBlock1.csv,/Users/shamslab/Desktop/Cognition2_FullExperimentFile/fullGoodSeqs_rhythm_shortVis_PracticeVideo.csv,,2,1,1,2,2,11,41,53,58,70,75,87,117,129,159,3_audFile.wav,10,6,21,2,1,1,2,2,11,41,53,58,70,75,87,117,129,159,3_audFile.wav,10,,0,1,,,21,1,171,176,1,171,176,6,0,0,0,0,,,,,0,6,6,31,,,,,,,,,,,,,,,,,,,,,,,,,,,,,,,,,,,188.4836160489358,None,,,,,,,,,,,,,,,2,1.1829738140804693,192.15466174692847,None,192.15466174692847,None,,,,,,,,,185.41278545896057,None,185.59282761695795,186.5931744519621,186.6228837419767,None,186.7330156629905,187.03304091701284,187.1531541789882,187.20316998299677,187.32322579598986,187.37324317998718,187.4932609969983,187.79329619300552,187.9134245379828,188.21355988597497,188.33337266603485,188.38343363592867,186.72316626340617,None,189.79385712894145,None,189.9040742359357,190.2041373749962,190.3242149220314,190.37403220194392,190.49419672996737,190.54406211792957,190.66426092002075,190.96427117695566,191.08430834603496,191.38437892193906,191.50450527493376,191.55432026996277,189.8938517593546,None,,,,,,1,2023_Mar_16_1357,Cognition2_FullCode1,2021.2.3,99.9461888879465,
/Users/shamslab/Desktop/Cognition2_FullExperimentFile/_VisualBlock1.csv,/Users/shamslab/Desktop/Cognition2_FullExperimentFile/fullGoodSeqs_rhythm_shortVis_PracticeVideo.csv,,1,2,1,2,2,11,16,28,58,70,75,87,117,129,159,3_audFile.wav,10,5,22,1,2,1,2,2,11,16,28,58,70,75,87,117,129,159,3_audFile.wav,10,,0,1,,,22,1,171,176,1,171,176,5,0,0,0,0,,,,,0,7,7,14,,,,,,,,,,,,,,,,,,,,,,,,,,,,,,,,,,,196.43586751795374,None,,,,,,,,,,,,,,,2,1.350706376018934,200.10687111900188,None,200.10687111900188,None,,,,,,,,,193.36483245599084,None,193.54507352598011,194.5452400080394,194.57531746698078,None,194.68536198395304,194.73530716495588,194.85527225397527,195.15546082495712,195.27560063498095,195.32543838699348,195.44554171094205,195.74557817494497,195.8656370829558,196.16586158797145,196.28594465903006,196.33572901401203,194.67528486039956,None,197.74605811294168,None,197.85645879397634,197.90628611296415,198.02633995993529,198.32631714292802,198.4464463259792,198.4963803460123,198.61637208401226,198.91655048297253,199.03660926397424,199.33649123902433,199.4567823749967,199.50664861593395,197.8464023683686,None,,,,,,1,2023_Mar_16_1357,Cognition2_FullCode1,2021.2.3,99.9461888879465,
/Users/shamslab/Desktop/Cognition2_FullExperimentFile/_VisualBlock1.csv,/Users/shamslab/Desktop/Cognition2_FullExperimentFile/fullGoodSeqs_rhythm_shortVis_PracticeVideo.csv,,1,2,1,2,2,11,16,28,58,70,75,87,117,129,159,3_audFile.wav,10,5,26,1,2,1,2,1,11,16,28,58,70,75,87,117,129,134,3_audFile.wav,10,,0,2,,,22,1,171,176,2,146,176,5,0,0,0,0,,,,,0,8,8,18,,,,,,,,,,,,,,,,,,,,,,,,,,,,,,,,,,,204.54818450193852,None,,,,,,,,,,,,,,,1,0.47848265594802797,208.21919309103396,None,208.21919309103396,None,,,,,,,,,201.47719620494172,None,201.66731139202602,202.6675827630097,202.68764940393157,None,202.79750273295213,202.8476529730251,202.96766713494435,203.26766103098635,203.38790425495245,203.4377512850333,203.5579537539743,203.85797171702143,203.97795533703174,204.27796623203903,204.39815573499072,204.4479975879658,202.7876499433536,None,205.8584718030179,None,205.9685973629821,206.01856568595394,206.13875155092683,206.43867129692808,206.55880920495838,206.60877237003297,206.72889440401923,207.02896074403543,207.14903176098596,207.19879685994238,207.31897805002518,207.61908060393762,205.95863938340918,None,,,,,,1,2023_Mar_16_1357,Cognition2_FullCode1,2021.2.3,99.9461888879465,
/Users/shamslab/Desktop/Cognition2_FullExperimentFile/_VisualBlock1.csv,/Users/shamslab/Desktop/Cognition2_FullExperimentFile/fullGoodSeqs_rhythm_shortVis_PracticeVideo.csv,,2,1,2,1,2,11,41,53,58,70,100,112,117,129,159,3_audFile.wav,10,6,19,2,1,2,1,2,11,41,53,58,70,100,112,117,129,159,3_audFile.wav,10,,0,1,,,19,1,171,176,1,171,176,6,0,0,0,0,,,,,0,9,9,8,,,,,,,,,,,,,,,,,,,,,,,,,,,,,,,,,,,211.79013686196413,None,,,,,,,,,,,,,,,2,0.4042095880722627,215.46137699100655,None,215.46137699100655,None,,,,,,,,,208.71927637595218,None,208.8994819399668,209.8997441229876,209.929564852966,None,210.03974148293491,210.33976228302345,210.45987001096364,210.50983558397274,210.6300105130067,210.92985448392574,211.04988883598708,211.09992062998936,211.21997867594473,211.52012220397592,211.64017413300462,211.6901887949789,210.02977851636243,None,213.1006279719295,None,213.2105063300114,213.5107389219338,213.63073181500658,213.6806578329997,213.80081249494106,214.10102714097593,214.22100447199773,214.2709023579955,214.3908471079776,214.69101063301787,214.8111623179866,214.8610970620066,213.20064329341986,None,,,,,,1,2023_Mar_16_1357,Cognition2_FullCode1,2021.2.3,99.9461888879465,
/Users/shamslab/Desktop/Cognition2_FullExperimentFile/_VisualBlock1.csv,/Users/shamslab/Desktop/Cognition2_FullExperimentFile/fullGoodSeqs_rhythm_shortVis_PracticeVideo.csv,,2,1,2,1,1,11,41,53,58,70,100,112,117,129,134,3_audFile.wav,10,6,25,2,1,1,2,1,11,41,53,58,70,75,87,117,129,134,3_audFile.wav,10,,0,2,,,23,2,146,176,2,146,176,6,0,0,0,0,,,,,0,10,10,6,,,,,,,,,,,,,,,,,,,,,,,,,,,,,,,,,,,218.96221700299066,None,,,,,,,,,,,,,,,2,0.288309640949592,222.63333515194245,None,222.63333515194245,None,,,,,,,,,215.8914097439265,None,216.07151574792806,217.07182021194603,217.10173415997997,None,217.21181423100643,217.5118240939919,217.63186800002586,217.68185484898277,217.8019042039523,218.1019530800404,218.22209675202612,218.27214620099403,218.39219561300706,218.4421269519953,218.5621500289999,218.86221645295154,217.20186387337745,None,220.2726071239449,None,220.38258846197277,220.6827040789649,220.80284852103796,220.85273334593512,220.9728340859292,221.02284062595572,221.14292711101007,221.4429320290219,221.56301334896125,221.61305054894183,221.73312563600484,222.03319884999655,220.37272548940965,None,,,,,,1,2023_Mar_16_1357,Cognition2_FullCode1,2021.2.3,99.9461888879465,
/Users/shamslab/Desktop/Cognition2_FullExperimentFile/_VisualBlock1.csv,/Users/shamslab/Desktop/Cognition2_FullExperimentFile/fullGoodSeqs_rhythm_shortVis_PracticeVideo.csv,,2,1,1,2,1,11,41,53,58,70,75,87,117,129,134,3_audFile.wav,10,6,25,2,1,1,2,1,11,41,53,58,70,75,87,117,129,134,3_audFile.wav,10,,0,1,,,25,2,146,176,2,146,176,6,0,0,0,0,,,,,0,11,11,11,,,,,,,,,,,,,,,,,,,,,,,,,,,,,,,,,,,226.0142912749434,None,,,,,,,,,,,,,,,2,0.9323014239780605,229.68528199498542,None,229.68528199498542,None,,,,,,,,,222.94328080595005,None,223.12346539692953,224.12375549902208,224.15375993202906,None,224.26373385603074,224.56387140695006,224.68396066199057,224.7338453650009,224.85390956094489,224.9038563609356,225.02387981803622,225.32424173993059,225.444240527926,225.49410739704035,225.61417921702377,225.91424891899806,224.25375877039042,None,227.3245197290089,None,227.43464006995782,227.7347647449933,227.8547871200135,227.90470087702852,228.0247539379634,228.074877765961,228.19489109702408,228.49498601793312,228.61497606895864,228.66494033997878,228.78512278501876,229.0851334859617,227.42459837740753,None,,,,,,1,2023_Mar_16_1357,Cognition2_FullCode1,2021.2.3,99.9461888879465,
/Users/shamslab/Desktop/Cognition2_FullExperimentFile/_VisualBlock1.csv,/Users/shamslab/Desktop/Cognition2_FullExperimentFile/fullGoodSeqs_rhythm_shortVis_PracticeVideo.csv,,1,2,1,2,1,11,16,28,58,70,75,87,117,129,134,3_audFile.wav,10,5,26,1,2,1,2,1,11,16,28,58,70,75,87,117,129,134,3_audFile.wav,10,,0,1,,,26,2,146,176,2,146,176,5,0,0,0,0,,,,,0,12,12,29,,,,,,,,,,,,,,,,,,,,,,,,,,,,,,,,,,,233.7165638259612,None,,,,,,,,,,,,,,,1,0.27007993299048394,237.38750086398795,None,237.38750086398795,None,,,,,,,,,230.64553779095877,None,230.8256264689844,231.82587985799182,231.85586231795605,None,231.96604353596922,232.01595875492785,232.13596509001218,232.43623308395036,232.55611946398858,232.6061645100126,232.72626248793676,233.02634969900828,233.14640517893713,233.19619391998276,233.31642451602966,233.6164345049765,231.9559797283495,None,235.02671522903256,None,235.13682708202396,235.1869773180224,235.30704653798603,235.6069709949661,235.72702933498658,235.77700352901593,235.89717365195975,236.19714587402996,236.31723612197675,236.3673166090157,236.48736409901176,236.7872644290328,235.1268390263198,None,,,,,,1,2023_Mar_16_1357,Cognition2_FullCode1,2021.2.3,99.9461888879465,
/Users/shamslab/Desktop/Cognition2_FullExperimentFile/_VisualBlock1.csv,/Users/shamslab/Desktop/Cognition2_FullExperimentFile/fullGoodSeqs_rhythm_shortVis_PracticeVideo.csv,,2,2,1,1,2,11,41,53,83,95,100,112,117,129,159,3_audFile.wav,10,7,16,2,2,1,2,1,11,41,53,83,95,100,112,142,154,159,3_audFile.wav,10,,0,2,,,18,1,171,176,1,171,176,7,0,0,0,0,,,,,0,13,13,23,,,,,,,,,,,,,,,,,,,,,,,,,,,,,,,,,,,240.7485584729584,None,,,,,,,,,,,,,,,2,0.4539510509930551,244.41962695703842,None,244.41962695703842,None,,,,,,,,,237.6776849119924,None,237.86776081402786,238.86797948402818,238.88795486395247,None,238.9980707829818,239.29813569097314,239.4181687879609,239.71817328501493,239.8382320649689,239.8882773029618,240.00829780299682,240.05831876699813,240.1783000959549,240.47835354798008,240.5985182869481,240.6483818120323,238.98802346140147,None,242.05888139503077,None,242.16892706695944,242.46889929601457,242.588990721968,242.8890728940023,243.0091108540073,243.0590245729545,243.17908467003144,243.4792986039538,243.59929487097543,243.64920552098192,243.7693711509928,243.81941218394786,242.15893629237544,None,,,,,,1,2023_Mar_16_1357,Cognition2_FullCode1,2021.2.3,99.9461888879465,
/Users/shamslab/Desktop/Cognition2_FullExperimentFile/_VisualBlock1.csv,/Users/shamslab/Desktop/Cognition2_FullExperimentFile/fullGoodSeqs_rhythm_shortVis_PracticeVideo.csv,,1,2,2,1,2,11,16,28,58,70,100,112,117,129,159,3_audFile.wav,10,5,24,1,2,2,1,1,11,16,28,58,70,100,112,117,129,134,3_audFile.wav,10,,0,2,,,20,1,171,176,2,146,176,5,0,0,0,0,,,,,0,14,14,17,,,,,,,,,,,,,,,,,,,,,,,,,,,,,,,,,,,247.97050139599014,None,,,,,,,,,,,,,,,1,0.6079361300216988,251.64166983496398,None,251.64166983496398,None,,,,,,,,,244.89955955999903,None,245.07980362395756,246.08011945302133,246.11004318203777,None,246.2200844240142,246.27006917900871,246.39017738995608,246.69016328896396,246.81015050399583,247.1101880610222,247.23034439992625,247.28037704294547,247.40052266896237,247.70043268892914,247.82048092002515,247.87049856199883,246.2100103624165,None,249.2809850149788,None,249.39096068998333,249.44093458203133,249.56100840098225,249.86108930397313,249.98102011100855,250.2811305950163,250.40129627799615,250.45115373900626,250.57133820001036,250.62129729497246,250.74144983198494,251.04132701503113,249.3808752014069,None,,,,,,1,2023_Mar_16_1357,Cognition2_FullCode1,2021.2.3,99.9461888879465,
/Users/shamslab/Desktop/Cognition2_FullExperimentFile/_VisualBlock1.csv,/Users/shamslab/Desktop/Cognition2_FullExperimentFile/fullGoodSeqs_rhythm_shortVis_PracticeVideo.csv,,1,2,2,1,1,11,16,28,58,70,100,112,117,129,134,3_audFile.wav,10,5,24,1,2,2,1,1,11,16,28,58,70,100,112,117,129,134,3_audFile.wav,10,,0,1,,,24,2,146,176,2,146,176,5,0,0,0,0,,,,,0,15,15,19,,,,,,,,,,,,,,,,,,,,,,,,,,,,,,,,,,,255.3427068470046,None,,,,,,,,,,,,,,,1,0.6759016430005431,259.01371820794884,None,259.01371820794884,None,,,,,,,,,252.27172606100794,None,252.45183626294602,253.452062270022,253.4820122240344,None,253.59212297399063,253.6421338430373,253.7622725010151,254.0622504169587,254.1822670130059,254.4824103709543,254.60237571399193,254.6523208329454,254.77245986298658,254.82245691900607,254.94263090996537,255.2426559739979,253.58200897134375,None,256.65301666094456,None,256.76306227000896,256.81296798202675,256.93312135897577,257.23309807199985,257.3532378899399,257.6533579529496,257.77338879101444,257.8232201660285,257.9433846180327,257.9932875930099,258.11342930200044,258.4133961129701,256.7529174363939,None,,,,,,1,2023_Mar_16_1357,Cognition2_FullCode1,2021.2.3,99.9461888879465,
/Users/shamslab/Desktop/Cognition2_FullExperimentFile/_VisualBlock1.csv,/Users/shamslab/Desktop/Cognition2_FullExperimentFile/fullGoodSeqs_rhythm_shortVis_PracticeVideo.csv,,2,1,1,2,2,11,41,53,58,70,75,87,117,129,159,3_audFile.wav,10,6,23,2,1,2,1,1,11,41,53,58,70,100,112,117,129,134,3_audFile.wav,10,,0,2,,,21,1,171,176,2,146,176,6,0,0,0,0,,,,,0,16,16,2,,,,,,,,,,,,,,,,,,,,,,,,,,,,,,,,,,,262.78483059897553,None,,,,,,,,,,,,,,,2,0.44168289890512824,266.4558647769736,None,266.4558647769736,None,,,,,,,,,259.71386121294927,None,259.89398075896315,260.89415607601404,260.9242087310413,None,261.03431992593687,261.33432492695283,261.4543506089831,261.5045510949567,261.62443165900186,261.674376289011,261.7945498100016,262.09463896695524,262.2146533760242,262.5146713189315,262.6346797019942,262.6847147690132,261.0242474893806,None,264.0949951739749,None,264.2051216069376,264.50512508896645,264.6252624579938,264.6754080270184,264.7952835309552,265.0954658759292,265.2155311489478,265.26548579498194,265.3854694439797,265.43552024895325,265.55553061002865,265.85559840500355,264.195233636396,None,,,,,,1,2023_Mar_16_1357,Cognition2_FullCode1,2021.2.3,99.9461888879465,
/Users/shamslab/Desktop/Cognition2_FullExperimentFile/_VisualBlock1.csv,/Users/shamslab/Desktop/Cognition2_FullExperimentFile/fullGoodSeqs_rhythm_shortVis_PracticeVideo.csv,,2,1,2,2,1,11,41,53,58,70,100,112,142,154,159,3_audFile.wav,10,6,17,2,1,2,2,1,11,41,53,58,70,100,112,142,154,159,3_audFile.wav,10,,0,1,,,17,1,171,176,1,171,176,6,0,0,0,0,,,,,0,17,17,22,,,,,,,,,,,,,,,,,,,,,,,,,,,,,,,,,,,269.99691043398343,None,,,,,,,,,,,,,,,2,0.5016994770849124,273.66788034897763,None,273.66788034897763,None,,,,,,,,,266.92596569494344,None,267.1060276540229,268.1062169079669,268.1362940729596,None,268.246402345947,268.54645891301334,268.66651968995575,268.71659634495154,268.836611139006,269.1365074249916,269.256537499954,269.5566355639603,269.6767193339765,269.7267165540252,269.8468694499461,269.89684106293134,268.23633236435705,None,271.30701036797836,None,271.4171554070199,271.7173480129568,271.8373398829717,271.88729851692915,272.0073578270385,272.3074308040086,272.42755129700527,272.72765847400296,272.8477242439985,272.897656279034,273.01767484797165,273.06765116692986,271.4073263973463,None,,,,,,1,2023_Mar_16_1357,Cognition2_FullCode1,2021.2.3,99.9461888879465,
/Users/shamslab/Desktop/Cognition2_FullExperimentFile/_VisualBlock1.csv,/Users/shamslab/Desktop/Cognition2_FullExperimentFile/fullGoodSeqs_rhythm_shortVis_PracticeVideo.csv,,1,2,1,1,2,11,16,28,58,70,75,87,92,104,134,3_audFile.wav,10,5,28,1,2,1,1,2,11,16,28,58,70,75,87,92,104,134,3_audFile.wav,10,,0,1,,,28,2,146,176,2,146,176,5,0,0,0,0,,,,,0,18,18,7,,,,,,,,,,,,,,,,,,,,,,,,,,,,,,,,,,,277.26902169093955,None,,,,,,,,,,,,,,,1,16.765471961000003,280.9401097299997,None,280.9401097299997,None,,,,,,,,,274.1980695379898,None,274.3781278639799,275.3784736560192,275.4083616869757,None,275.51847202598583,275.56847225199454,275.6884731759783,275.98846487596165,276.1085782919545,276.1585579980165,276.27859913697466,276.3285545860417,276.44876840594225,276.7486118070083,276.8688398039667,277.16896095499396,275.5083770924015,None,278.5791914429283,None,278.6892606599722,278.73939847992733,278.8594504010398,279.15964117692783,279.2795734159881,279.3294636160135,279.4495289409533,279.49939790403005,279.6196722940076,279.91978547594044,280.0397925330326,280.3397992469836,278.6792420403566,None,,,,,,1,2023_Mar_16_1357,Cognition2_FullCode1,2021.2.3,99.9461888879465,
/Users/shamslab/Desktop/Cognition2_FullExperimentFile/_VisualBlock1.csv,/Users/shamslab/Desktop/Cognition2_FullExperimentFile/fullGoodSeqs_rhythm_shortVis_PracticeVideo.csv,,2,1,1,2,1,11,41,53,58,70,75,87,117,129,134,3_audFile.wav,10,6,19,2,1,2,1,2,11,41,53,58,70,100,112,117,129,159,3_audFile.wav,10,,0,2,,,25,2,146,176,1,171,176,6,0,0,0,0,,,,,0,19,19,27,,,,,,,,,,,,,,,,,,,,,,,,,,,,,,,,,,,300.80567244498525,None,,,,,,,,,,,,,,,2,0.7169167409883812,304.4766764889937,None,304.4766764889937,None,,,,,,,,,297.73475653503556,None,297.9248917099321,298.92507414193824,298.94507890893146,None,299.0550749260001,299.3552537850337,299.4753765510395,299.52516572596505,299.6453744559549,299.695296493941,299.8152796890354,300.1152836569818,300.23556698998436,300.28535260097124,300.40550771693233,300.7054787889356,299.0451961303828,None,302.11599643097725,None,302.2260124000022,302.5260972259566,302.64621977100614,302.69616352103185,302.8161859179381,303.1162412079284,303.23624006693717,303.2864106729394,303.40637390699703,303.70644263294525,303.8265031169867,303.87650190794375,302.21599538540465,None,,,,,,1,2023_Mar_16_1357,Cognition2_FullCode1,2021.2.3,99.9461888879465,
/Users/shamslab/Desktop/Cognition2_FullExperimentFile/_VisualBlock1.csv,/Users/shamslab/Desktop/Cognition2_FullExperimentFile/fullGoodSeqs_rhythm_shortVis_PracticeVideo.csv,,2,1,2,1,2,11,41,53,58,70,100,112,117,129,159,3_audFile.wav,10,6,17,2,1,2,2,1,11,41,53,58,70,100,112,142,154,159,3_audFile.wav,10,,0,2,,,19,1,171,176,1,171,176,6,0,0,0,0,,,,,0,20,20,4,,,,,,,,,,,,,,,,,,,,,,,,,,,,,,,,,,,308.28786128701176,None,,,,,,,,,,,,,,,2,0.31477900105528533,311.9588064419804,None,311.9588064419804,None,,,,,,,,,305.2168814149918,None,305.3969271989772,306.397199635976,306.4272289329674,None,306.53733565600123,306.8373570119729,306.95738202903885,307.00729486800265,307.1274457819527,307.42755863198545,307.54758966201916,307.5974848429905,307.71767628600355,308.0176637279801,308.1377944869455,308.1876429870026,306.5272364374017,None,309.59807570895646,None,309.7082204549806,310.00828069401905,310.12829725199845,310.178268102929,310.2984030570369,310.5984106840333,310.71847676101606,311.0184033450205,311.13856686803047,311.18869493401144,311.30865909694694,311.3585890720133,309.6982323653996,None,,,,,,1,2023_Mar_16_1357,Cognition2_FullCode1,2021.2.3,99.9461888879465,
/Users/shamslab/Desktop/Cognition2_FullExperimentFile/_VisualBlock1.csv,/Users/shamslab/Desktop/Cognition2_FullExperimentFile/fullGoodSeqs_rhythm_shortVis_PracticeVideo.csv,,2,2,1,2,1,11,41,53,83,95,100,112,142,154,159,3_audFile.wav,10,7,16,2,2,1,2,1,11,41,53,83,95,100,112,142,154,159,3_audFile.wav,10,,0,1,,,16,1,171,176,1,171,176,7,0,0,0,0,,,,,0,21,21,15,,,,,,,,,,,,,,,,,,,,,,,,,,,,,,,,,,,315.3699029269628,None,,,,,,,,,,,,,,,1,0.5527588740224019,319.04090646398254,None,319.04090646398254,None,,,,,,,,,312.29879554198124,None,312.47897515795194,313.47910978796426,313.50923802203033,None,313.61931627301965,313.9193815960316,314.03936083696317,314.33940924704075,314.45960804703645,314.5094969259808,314.6295076709939,314.9296064899536,315.04972926701885,315.0997170199407,315.2197248659795,315.269679290941,313.60929517340844,None,316.6800597719848,None,316.79013404494617,317.0902088410221,317.2103137229569,317.51038592203986,317.63043788599316,317.68036919203587,317.80036830098834,318.10045114997774,318.2205440249527,318.27048166503664,318.39062772493344,318.4405664859805,316.78021475542334,None,,,,,,1,2023_Mar_16_1357,Cognition2_FullCode1,2021.2.3,99.9461888879465,
/Users/shamslab/Desktop/Cognition2_FullExperimentFile/_VisualBlock1.csv,/Users/shamslab/Desktop/Cognition2_FullExperimentFile/fullGoodSeqs_rhythm_shortVis_PracticeVideo.csv,,1,2,2,1,1,11,16,28,58,70,100,112,117,129,134,3_audFile.wav,10,5,22,1,2,1,2,2,11,16,28,58,70,75,87,117,129,159,3_audFile.wav,10,,0,2,,,24,2,146,176,1,171,176,5,0,0,0,0,,,,,0,22,22,16,,,,,,,,,,,,,,,,,,,,,,,,,,,,,,,,,,,322.6919612910133,None,,,,,,,,,,,,,,,2,1.0386466599302366,326.36299594899174,None,326.36299594899174,None,,,,,,,,,319.6209151899675,None,319.80112897302024,320.80118719895836,320.83132265903987,None,320.9412996600149,320.9914282480022,321.1114047130104,321.4113995899679,321.531473111012,321.83152049500495,321.95171787799336,322.00159187894315,322.12166790198535,322.17159213498235,322.29183350293897,322.5918850880116,320.9313797823619,None,324.00232840992976,None,324.1121973589761,324.1623918300029,324.2822616279591,324.5823748910334,324.70242974103894,324.7524397330126,324.87240075098816,325.1725435940316,325.2927755219862,325.5926967129344,325.71280144900084,325.7627939089434,324.10226559333967,None,,,,,,1,2023_Mar_16_1357,Cognition2_FullCode1,2021.2.3,99.9461888879465,
/Users/shamslab/Desktop/Cognition2_FullExperimentFile/_VisualBlock1.csv,/Users/shamslab/Desktop/Cognition2_FullExperimentFile/fullGoodSeqs_rhythm_shortVis_PracticeVideo.csv,,1,2,1,2,2,11,16,28,58,70,75,87,117,129,159,3_audFile.wav,10,5,28,1,2,1,1,2,11,16,28,58,70,75,87,92,104,134,3_audFile.wav,10,,0,2,,,22,1,171,176,2,146,176,5,0,0,0,0,,,,,0,23,23,9,,,,,,,,,,,,,,,,,,,,,,,,,,,,,,,,,,,330.4940512489993,None,,,,,,,,,,,,,,,1,0.9403932839632034,334.1651858020341,None,334.1651858020341,None,,,,,,,,,327.42314329196233,None,327.6032359090168,328.60348027793225,328.6335123119643,None,328.7436058130115,328.79366466996726,328.91373942699283,329.21369447698817,329.3336786299478,329.383852815954,329.5039643209893,329.8038110079942,329.9240057989955,330.22407186194323,330.3441111679422,330.3939668870298,328.73360174240077,None,331.8044719300233,None,331.9145550089888,331.9644741989905,332.0844745869981,332.3845720679965,332.50470720999874,332.5546706659952,332.67467800795566,332.72471227601636,332.8447934209835,333.14478620595764,333.26501050498337,333.5648459009826,331.90448555732144,None,,,,,,1,2023_Mar_16_1357,Cognition2_FullCode1,2021.2.3,99.9461888879465,
/Users/shamslab/Desktop/Cognition2_FullExperimentFile/_VisualBlock1.csv,/Users/shamslab/Desktop/Cognition2_FullExperimentFile/fullGoodSeqs_rhythm_shortVis_PracticeVideo.csv,,2,1,2,2,1,11,41,53,58,70,100,112,142,154,159,3_audFile.wav,10,6,21,2,1,1,2,2,11,41,53,58,70,75,87,117,129,159,3_audFile.wav,10,,0,2,,,17,1,171,176,1,171,176,6,0,0,0,0,,,,,0,24,24,30,,,,,,,,,,,,,,,,,,,,,,,,,,,,,,,,,,,338.2063714059768,None,,,,,,,,,,,,,,,2,0.40412431699223816,341.87750119599514,None,341.87750119599514,None,,,,,,,,,335.1354393470101,None,335.32543773797806,336.3257703499403,336.3457895499887,None,336.45572613098193,336.7559265260352,336.8758534890367,336.92590327898506,337.04601705493405,337.3460054140305,337.46604023501277,337.766184457927,337.8861581379315,337.9361534839263,338.0563107460039,338.1062775669852,336.4457024343777,None,339.5166785479523,None,339.62664789997507,339.92676540696993,340.04692211700603,340.0968291499885,340.2168758340413,340.2669938689796,340.3869327569846,340.6870038600173,340.8069931679638,341.1071462649852,341.22725710400846,341.2770965360105,339.6166011474328,None,,,,,,1,2023_Mar_16_1357,Cognition2_FullCode1,2021.2.3,99.9461888879465,
/Users/shamslab/Desktop/Cognition2_FullExperimentFile/_VisualBlock1.csv,/Users/shamslab/Desktop/Cognition2_FullExperimentFile/fullGoodSeqs_rhythm_shortVis_PracticeVideo.csv,,2,2,1,2,1,11,41,53,83,95,100,112,142,154,159,3_audFile.wav,10,7,18,2,2,1,1,2,11,41,53,83,95,100,112,117,129,159,3_audFile.wav,10,,0,2,,,16,1,171,176,1,171,176,7,0,0,0,0,,,,,0,25,25,26,,,,,,,,,,,,,,,,,,,,,,,,,,,,,,,,,,,345.37852152599953,None,,,,,,,,,,,,,,,1,0.4962391540175304,349.0493514839327,None,349.0493514839327,None,,,,,,,,,342.307321283035,None,342.4875631480245,343.4877244019881,343.5178376069525,None,343.62792245298624,343.92800890200306,344.04808030603454,344.34796167502645,344.4680963680148,344.5180739669595,344.6382269419264,344.9381342580309,345.0583322190214,345.1083952640183,345.22842807893176,345.2783912860323,343.61784227737223,None,346.68859864701517,None,346.7987598419422,347.09873296599835,347.21888282499276,347.5189519210253,347.6391352219507,347.6889666520292,347.809154313989,347.8590296129696,347.9791472729994,348.2790467069717,348.39927712094504,348.4492653149646,346.7888356114039,None,,,,,,1,2023_Mar_16_1357,Cognition2_FullCode1,2021.2.3,99.9461888879465,
/Users/shamslab/Desktop/Cognition2_FullExperimentFile/_VisualBlock1.csv,/Users/shamslab/Desktop/Cognition2_FullExperimentFile/fullGoodSeqs_rhythm_shortVis_PracticeVideo.csv,,2,1,1,2,2,11,41,53,58,70,75,87,117,129,159,3_audFile.wav,10,6,23,2,1,2,1,1,11,41,53,58,70,100,112,117,129,134,3_audFile.wav,10,,0,2,,,21,1,171,176,2,146,176,6,0,0,0,0,,,,,0,26,26,24,,,,,,,,,,,,,,,,,,,,,,,,,,,,,,,,,,,352.6405001269886,None,,,,,,,,,,,,,,,2,0.39212900504935533,356.321454474004,None,356.321454474004,None,,,,,,,,,349.5695798919769,None,349.74954961193725,350.7498892219737,350.77992214099504,None,350.8900093759876,351.1900002419716,351.31000536994543,351.3601068999851,351.4800342610106,351.5301832660334,351.6502588200383,351.95010829297826,352.0702081939671,352.3703072819626,352.49038015294354,352.5403050549794,350.8799603373976,None,353.9508704559412,None,354.0609368860023,354.36103058594745,354.4809188400395,354.5309612340061,354.65108513995074,354.95107756194193,355.07123009103816,355.1211107199779,355.2411940289894,355.29127693898045,355.4112754049711,355.71128715993837,354.050815206347,None,,,,,,1,2023_Mar_16_1357,Cognition2_FullCode1,2021.2.3,99.9461888879465,
/Users/shamslab/Desktop/Cognition2_FullExperimentFile/_VisualBlock1.csv,/Users/shamslab/Desktop/Cognition2_FullExperimentFile/fullGoodSeqs_rhythm_shortVis_PracticeVideo.csv,,2,1,1,2,2,11,41,53,58,70,75,87,117,129,159,3_audFile.wav,10,6,21,2,1,1,2,2,11,41,53,58,70,75,87,117,129,159,3_audFile.wav,10,,0,1,,,21,1,171,176,1,171,176,6,0,0,0,0,,,,,0,27,27,25,,,,,,,,,,,,,,,,,,,,,,,,,,,,,,,,,,,359.8123887600377,None,,,,,,,,,,,,,,,2,0.2859445349313319,363.4836522969417,None,363.4836522969417,None,,,,,,,,,356.7416443419643,None,356.92162925796583,357.92193300800864,357.9519748740131,None,358.0619170999853,358.36203247401863,358.48199386894703,358.5320561489789,358.6521997899981,358.70203366398346,358.8222657539882,359.1221878849901,359.24225729797035,359.5424259150168,359.66249844792765,359.7124336779816,358.05188915340693,None,361.1228571799584,None,361.23281822993886,361.5329512489261,361.65305837697815,361.702895171009,361.82292741700076,361.873152478016,361.99306649900973,362.2932438639691,362.41313229699153,362.71318974893074,362.8334985499969,362.8833849040093,361.22295528438406,None,,,,,,1,2023_Mar_16_1357,Cognition2_FullCode1,2021.2.3,99.9461888879465,
/Users/shamslab/Desktop/Cognition2_FullExperimentFile/_VisualBlock1.csv,/Users/shamslab/Desktop/Cognition2_FullExperimentFile/fullGoodSeqs_rhythm_shortVis_PracticeVideo.csv,,1,1,2,2,1,11,16,28,33,45,75,87,117,129,134,3_audFile.wav,10,4,29,1,1,2,1,2,11,16,28,33,45,75,87,92,104,134,3_audFile.wav,10,,0,2,,,27,2,146,176,2,146,176,4,0,0,0,0,,,,,0,28,28,0,,,,,,,,,,,,,,,,,,,,,,,,,,,,,,,,,,,366.86441860103514,None,,,,,,,,,,,,,,,1,1.7699691269081086,370.5356652060291,None,370.5356652060291,None,,,,,,,,,363.7936056830222,None,363.9736372400075,364.97384729993064,365.0039980330039,None,365.1139805329731,365.16397997003514,365.28400902298745,365.33407658094075,365.4540125619387,365.7541612079367,365.87435779196676,366.1744151560124,366.2943700880278,366.3441959579941,366.4643901559757,366.7643349369755,365.10395313133483,None,368.1748748589307,None,368.28501795593183,368.33484656596556,368.45490874897223,368.50486941600684,368.62499249202665,368.9250740369316,369.04507452098187,369.09507360693533,369.2150726719992,369.51525290100835,369.6353461779654,369.93528470094316,368.2748202914139,None,,,,,,1,2023_Mar_16_1357,Cognition2_FullCode1,2021.2.3,99.9461888879465,
/Users/shamslab/Desktop/Cognition2_FullExperimentFile/_VisualBlock1.csv,/Users/shamslab/Desktop/Cognition2_FullExperimentFile/fullGoodSeqs_rhythm_shortVis_PracticeVideo.csv,,1,2,1,1,2,11,16,28,58,70,75,87,92,104,134,3_audFile.wav,10,5,20,1,2,2,1,2,11,16,28,58,70,100,112,117,129,159,3_audFile.wav,10,,0,2,,,28,2,146,176,1,171,176,5,0,0,0,0,,,,,0,29,29,1,,,,,,,,,,,,,,,,,,,,,,,,,,,,,,,,,,,375.3969026239356,None,,,,,,,,,,,,,,,2,0.7895603410433978,379.0680608690018,None,379.0680608690018,None,,,,,,,,,372.32602196000516,None,372.50603863503784,373.50629236595705,373.53634592401795,None,373.6463810770074,373.6965529980371,373.8164300239878,374.1165334309917,374.23649730102625,374.2867137759458,374.40658530802466,374.4565447480418,374.57658063597046,374.87670419493224,374.99685568595305,375.29685197398067,373.6363084943499,None,376.7072122390382,None,376.8173149629729,376.86735938396305,376.98755490698386,377.28735408897046,377.40747216902673,377.7076184069738,377.8276644980069,377.8775563229574,377.9977217389969,378.29771600698587,378.41774383198936,378.4676666279556,376.80730681538114,None,,,,,,1,2023_Mar_16_1357,Cognition2_FullCode1,2021.2.3,99.9461888879465,
/Users/shamslab/Desktop/Cognition2_FullExperimentFile/_VisualBlock1.csv,/Users/shamslab/Desktop/Cognition2_FullExperimentFile/fullGoodSeqs_rhythm_shortVis_PracticeVideo.csv,,1,1,2,1,2,11,16,28,33,45,75,87,92,104,134,3_audFile.wav,10,4,29,1,1,2,1,2,11,16,28,33,45,75,87,92,104,134,3_audFile.wav,10,,0,1,,,29,2,146,176,2,146,176,4,0,0,0,0,,,,,0,30,30,28,,,,,,,,,,,,,,,,,,,,,,,,,,,,,,,,,,,382.94905941199977,None,,,,,,,,,,,,,,,1,1.3574085590662435,386.6201831760118,None,386.6201831760118,None,,,,,,,,,379.87820727203507,None,380.05824639403727,381.05852567893453,381.0883943570079,None,381.1984595749527,381.2485457919538,381.3685890060151,381.4186018659966,381.53862397698686,381.8387175729731,381.95880251494236,382.00880209798925,382.1289169859374,382.42890668392647,382.54895090695936,382.8489467719337,381.188435704424,None,384.2595022920286,None,384.3696995449718,384.4194448119961,384.5394844430266,384.58949270192534,384.709603914991,385.0095398760168,385.1298020229442,385.1797523839632,385.29969086300116,385.5998473269865,385.71991895500105,386.02013849595096,384.35945326332,None,,,,,,1,2023_Mar_16_1357,Cognition2_FullCode1,2021.2.3,99.9461888879465,
/Users/shamslab/Desktop/Cognition2_FullExperimentFile/_VisualBlock1.csv,/Users/shamslab/Desktop/Cognition2_FullExperimentFile/fullGoodSeqs_rhythm_shortVis_PracticeVideo.csv,,1,2,1,1,2,11,16,28,58,70,75,87,92,104,134,3_audFile.wav,10,5,28,1,2,1,1,2,11,16,28,58,70,75,87,92,104,134,3_audFile.wav,10,,0,1,,,28,2,146,176,2,146,176,5,0,0,0,0,,,,,0,31,31,5,,,,,,,,,,,,,,,,,,,,,,,,,,,,,,,,,,,391.07153722504154,None,,,,,,,,,,,,,,,2,2.5549969059647992,394.742588661029,None,394.742588661029,None,,,,,,,,,388.0004401409533,None,388.1805357419653,389.18080805102363,389.2107578739524,None,389.32101060298737,389.3708334339317,389.4908088230295,389.7913514949614,389.91110401193146,389.9609367159428,390.08122669998556,390.13106742396485,390.2510962189408,390.5511501430301,390.67136266094167,390.97128494095523,389.3108219393529,None,392.3817858409602,None,392.49189856194425,392.54185120901093,392.66198007401545,392.96190696395934,393.0819646429736,393.13202092202846,393.2519364139298,393.30191080493387,393.42199402302504,393.72215021494776,393.8421538840048,394.14222378493287,392.48185836940536,None,,,,,,1,2023_Mar_16_1357,Cognition2_FullCode1,2021.2.3,99.9461888879465,
/Users/shamslab/Desktop/Cognition2_FullExperimentFile/_VisualBlock1.csv,/Users/shamslab/Desktop/Cognition2_FullExperimentFile/fullGoodSeqs_rhythm_shortVis_PracticeVideo.csv,,,,,,,,,,,,,,,,,,,,,,,,,,,,,,,,,,,,,,,,,,,,,,,,,,,0,0,0,0,,,,,,,,,,,,,,,,,,,,,,,,,,,,,,,,,,,,,,,,,,,,,,,,,,,,,,,,,,,,,,,,,,,,,,,,,,,,,,,,,,,,,,,,,,,,,,,,,,,,,,,,,,,,,397.3257360239513,None,397.3257360239513,None,,1,2023_Mar_16_1357,Cognition2_FullCode1,2021.2.3,99.9461888879465,
/Users/shamslab/Desktop/Cognition2_FullExperimentFile/_AudioBlock1.csv,/Users/shamslab/Desktop/Cognition2_FullExperimentFile/fullGoodSeqs_rhythm_shortVis_PracticeAudio.csv,P1,2,1,2,1,1,11,41,56,61,76,106,121,126,141,146,1_practAudFile.wav,1,pc1,P1,2,1,2,1,1,11,41,56,61,76,106,121,126,141,146,1_practAudFile.wav,1,pc1,1,1,SAME,SAME,,,,,,,,,0,1,1,1,0,0,0,0,,,,,,,,,,,457.43026156001724,None,space,9.543225683039054,457.53035509202164,None,471.21432199992705,None,471.4143433079589,None,467.2132972800173,471.21432199992705,467.2132972800173,471.21432199992705,472.414508456015,None,472.5246011830168,472.824833513936,472.97477329103276,473.02479156292975,473.1747805789346,473.4748302770313,473.62481763295364,473.67484282900114,473.8250415070215,473.87498781702016,472.4245161564089,None,474.27502801897936,None,475.58551903802436,None,475.69547048502136,475.9956120449351,476.1456846590154,476.1955552910222,476.3456842789892,476.6457247820217,476.79591616103426,476.8457488520071,476.99602058995515,477.04578764596954,475.59552673841824,None,1,0.815373994060792,477.9462299559964,None,477.9462299559964,None,478.86639916698914,None,,,,,,,,,,,,,,,,,,,,,,,,,,,,,,,,,,,,,,,,,,,,,,,,1,2023_Mar_16_1357,Cognition2_FullCode1,2021.2.3,99.9461888879465,
/Users/shamslab/Desktop/Cognition2_FullExperimentFile/_AudioBlock1.csv,/Users/shamslab/Desktop/Cognition2_FullExperimentFile/fullGoodSeqs_rhythm_shortVis_PracticeAudio.csv,P2,2,1,1,2,1,11,41,56,61,76,81,96,126,141,146,2_practAudFile.wav,1,pc1,P1,2,1,2,1,1,11,41,56,61,76,106,121,126,141,146,1_practAudFile.wav,1,pc1,1,2,DIFFERENT,DIFFERENT,,,,,,,,,0,1,1,1,0,1,1,1,,,,,,,,,,,,,,,,,484.45799766492564,None,484.6581137230387,None,480.4568898159778,484.45799766492564,480.4568898159778,484.45799766492564,485.66839956794865,None,485.7784781679511,486.07841870503034,486.2287025949918,486.2784551390214,486.42865915293805,486.4786523359362,486.62876022502314,486.9287790519884,487.0788876459701,487.1288910539588,485.67840726834254,None,487.52897310396656,None,488.83921817597,None,488.94926836295053,489.24945611401927,489.3994379779324,489.4494630639674,489.59952377399895,489.8996060680365,490.04966727201827,490.0996297360398,490.24981155397836,490.29963024600875,488.8492258763639,None,2,1.5055419210111722,491.2000429669861,None,491.2000429669861,None,492.81052500696387,None,,,,,,,,,,,,,,,,,,,,,,,,,,,,,,,,,,,,,,,,,,,,,,,,1,2023_Mar_16_1357,Cognition2_FullCode1,2021.2.3,99.9461888879465,
/Users/shamslab/Desktop/Cognition2_FullExperimentFile/_AudioBlock1.csv,/Users/shamslab/Desktop/Cognition2_FullExperimentFile/fullGoodSeqs_rhythm_shortVis_PracticeAudio.csv,P3,1,2,1,2,1,11,16,31,61,76,81,96,126,141,146,3_practAudFile.wav,1,pc2,P3,1,2,1,2,1,11,16,31,61,76,81,96,126,141,146,3_practAudFile.wav,1,pc2,1,1,SAME,SAME,,,,,,,,,0,1,1,1,0,2,2,2,,,,,,,,,,,,,,,,,498.40197319199797,None,498.6020331919426,None,494.4008954659803,498.40197319199797,494.4008954659803,498.40197319199797,499.6124145659851,None,499.72247159003746,499.77232406195253,499.9224959090352,500.22259940498043,500.37264542200137,500.4226020029746,500.5726632809965,500.8726578189526,501.0227898119483,501.0728400989901,499.622422266379,None,501.47289248998277,None,502.78317352803424,None,502.89336347195785,502.94320409803186,503.09335313900374,503.39331867999863,503.5436173239723,503.5935336819384,503.74349993199576,504.0436627289746,504.1937357080169,504.2435216680169,502.7931812284281,None,1,1.0897538620047271,505.1439190240344,None,505.1439190240344,None,506.3341953889467,None,,,,,,,,,,,,,,,,,,,,,,,,,,,,,,,,,,,,,,,,,,,,,,,,1,2023_Mar_16_1357,Cognition2_FullCode1,2021.2.3,99.9461888879465,
/Users/shamslab/Desktop/Cognition2_FullExperimentFile/_AudioBlock1.csv,/Users/shamslab/Desktop/Cognition2_FullExperimentFile/fullGoodSeqs_rhythm_shortVis_PracticeAudio.csv,P3,1,2,1,2,1,11,16,31,61,76,81,96,126,141,146,3_practAudFile.wav,1,pc2,P4,1,2,1,1,2,11,16,31,61,76,81,96,101,116,146,4_practAudFile.wav,1,pc2,1,2,DIFFERENT,DIFFERENT,,,,,,,,,0,1,1,1,0,3,3,3,,,,,,,,,,,,,,,,,511.92585955699906,None,512.1259603949729,None,507.92485479300376,511.92585955699906,507.92485479300376,511.92585955699906,513.1361069090199,None,513.2462306589587,513.2961725780042,513.4464789889753,513.7463323050179,513.8964473890373,513.9463357849745,514.0966024189256,514.3965072189458,514.5465948670171,514.5965245689731,513.1461146094138,None,514.9967876740266,None,516.2976015959866,None,516.4071368549485,516.4570496389642,516.6072483699536,516.9072224199772,517.0572755569592,517.1072837249376,517.2573606709484,517.3074229250196,517.4573815159965,517.7574168349383,516.3076092963805,None,2,1.2077109040692449,518.6579180699773,None,518.6579180699773,None,519.9684105699416,None,,,,,,,,,,,,,,,,,,,,,,,,,,,,,,,,,,,,,,,,,,,,,,,,1,2023_Mar_16_1357,Cognition2_FullCode1,2021.2.3,99.9461888879465,
/Users/shamslab/Desktop/Cognition2_FullExperimentFile/_AudioBlock1.csv,/Users/shamslab/Desktop/Cognition2_FullExperimentFile/fullGoodSeqs_rhythm_shortVis_PracticeAudio.csv,,2,1,1,2,2,11,41,53,58,70,75,87,117,129,159,12_audFile.wav,10,2,9,2,1,2,1,2,11,41,53,58,70,100,112,117,129,159,10_audFile.wav,10,,1,2,,,11,1,171,176,1,171,176,2,0,1,1,1,,,,,0,0,0,15,,,,,,,,,,,,,,,,,,,,,,,,,,,,,,,,,,,529.370888364967,None,,,,,,,,,,,,,,,2,0.42375421710312366,533.0418291429523,None,533.0418291429523,None,,,521.5687329269713,None,space,4.605050259036943,521.6685793920187,None,526.3299033419462,None,526.5100302749779,None,527.5102389439708,None,527.6202988679288,527.9205350439297,528.0404233349254,528.0904425129993,528.2103957840009,528.2604238259373,528.380496741971,528.680521375034,528.80094812694,529.100713043008,529.2208383349935,529.2707061009714,527.6102730313781,None,530.6811293830397,None,530.7912099169334,531.0913098700112,531.2113990139915,531.2613546040375,531.3814415739616,531.6815132040065,531.8016249570064,531.8516394000035,531.9715912250103,532.2717499790015,532.3916361639276,532.4417281689821,530.7812848164234,None,,,,,,1,2023_Mar_16_1357,Cognition2_FullCode1,2021.2.3,99.9461888879465,
/Users/shamslab/Desktop/Cognition2_FullExperimentFile/_AudioBlock1.csv,/Users/shamslab/Desktop/Cognition2_FullExperimentFile/fullGoodSeqs_rhythm_shortVis_PracticeAudio.csv,,1,2,1,2,2,11,16,28,58,70,75,87,117,129,159,6_audFile.wav,10,1,5,1,2,1,2,2,11,16,28,58,70,75,87,117,129,159,6_audFile.wav,10,,1,1,,,5,2,171,201,2,171,201,1,0,1,1,1,,,,,0,1,1,8,,,,,,,,,,,,,,,,,,,,,,,,,,,,,,,,,,,536.7129574610153,None,,,,,,,,,,,,,,,1,0.3776406660908833,540.3839720300166,None,540.3839720300166,None,,,,,,,,,533.4920124409255,None,533.6720603610156,534.6722415590193,534.7022789829643,536.5629194210051,534.8123103509424,534.862362749991,534.9823969119461,535.2824601299362,535.4026359430281,535.4525563200004,535.5726116929436,535.8726504049264,535.9928142200224,536.2927579189418,536.4129130389774,None,534.8022185753565,None,538.0232874710346,None,538.1332398719387,538.1834078839747,538.3034799810266,538.6033633599291,538.7234936680179,538.7734536289936,538.8935308690416,539.1935595530085,539.3135850130348,539.6136773199541,539.7337650599657,540.0338616929948,538.1233748993603,None,,,,,,1,2023_Mar_16_1357,Cognition2_FullCode1,2021.2.3,99.9461888879465,
/Users/shamslab/Desktop/Cognition2_FullExperimentFile/_AudioBlock1.csv,/Users/shamslab/Desktop/Cognition2_FullExperimentFile/fullGoodSeqs_rhythm_shortVis_PracticeAudio.csv,,1,2,2,2,1,11,16,28,58,70,100,112,142,154,159,3_audFile.wav,10,1,10,1,2,2,1,2,11,16,28,58,70,100,112,117,129,159,11_audFile.wav,10,,1,2,,,2,2,171,201,1,171,176,1,0,1,1,1,,,,,0,2,2,14,,,,,,,,,,,,,,,,,,,,,,,,,,,,,,,,,,,544.0049911669921,None,,,,,,,,,,,,,,,2,0.5734778649639338,547.6761064670281,None,547.6761064670281,None,,,,,,,,,540.7840168209514,None,540.9642605889821,541.9643506769789,541.9943642430007,543.8549982960103,542.1043678289279,542.1544174189912,542.2744798440253,542.5745587080019,542.6946349280188,542.9947470519692,543.1148191359825,543.414753768011,543.5348704099888,543.5848217710154,543.7050474709831,None,542.0943794293329,None,545.3154595679371,None,545.425419687992,545.4754186100326,545.5954526580172,545.8954620260047,546.0156199770281,546.3157378289616,546.4356910859933,546.4856328489259,546.6057249900186,546.9057521979557,547.0259470189922,547.0758526709396,545.4154132583411,None,,,,,,1,2023_Mar_16_1357,Cognition2_FullCode1,2021.2.3,99.9461888879465,
/Users/shamslab/Desktop/Cognition2_FullExperimentFile/_AudioBlock1.csv,/Users/shamslab/Desktop/Cognition2_FullExperimentFile/fullGoodSeqs_rhythm_shortVis_PracticeAudio.csv,,2,1,2,1,2,11,41,53,58,70,100,112,117,129,159,10_audFile.wav,10,2,14,2,1,1,2,1,11,41,53,58,70,75,87,117,129,134,15_audFile.wav,10,,1,2,,,9,1,171,176,2,146,176,2,0,1,1,1,,,,,0,3,3,25,,,,,,,,,,,,,,,,,,,,,,,,,,,,,,,,,,,551.3471361210104,None,,,,,,,,,,,,,,,2,0.2794975519645959,555.018170694937,None,555.018170694937,None,,,,,,,,,548.276152231032,None,548.4564277919708,549.4564181580208,549.4865710859885,None,549.5966211999767,549.8966171860229,550.0167116490193,550.0667475709924,550.186811825959,550.4868507259525,550.6068487649318,550.6569953209255,550.7769813099876,551.0770006839884,551.1971066449769,551.2470172459725,549.5865612294059,None,552.6574716239702,None,552.7675059139729,553.0675796139985,553.1876434879377,553.2376493349439,553.3576965989778,553.4076881270157,553.5276727959281,553.8278050849913,553.9478011189494,553.997783889994,554.1178778079338,554.4178999540163,552.7574329173425,None,,,,,,1,2023_Mar_16_1357,Cognition2_FullCode1,2021.2.3,99.9461888879465,
/Users/shamslab/Desktop/Cognition2_FullExperimentFile/_AudioBlock1.csv,/Users/shamslab/Desktop/Cognition2_FullExperimentFile/fullGoodSeqs_rhythm_shortVis_PracticeAudio.csv,,2,2,1,2,1,11,41,53,83,95,100,112,142,154,159,1_audFile.wav,10,3,6,2,2,1,2,1,11,41,53,83,95,100,112,142,154,159,7_audFile.wav,10,,1,2,,,0,2,171,201,1,171,176,3,0,1,1,1,,,,,0,4,4,21,,,,,,,,,,,,,,,,,,,,,,,,,,,,,,,,,,,558.5391357479384,None,,,,,,,,,,,,,,,2,0.03131663694512099,562.2102620149963,None,562.2102620149963,None,,,,,,,,,555.3182726550149,None,555.4982477449812,556.498576515005,556.5284746079706,558.3890510490164,556.6387242949568,556.9386315749725,557.0586601570249,557.3587895779638,557.4788935360266,557.5288143419893,557.6489433159586,557.9490068019368,558.0690151249291,558.1189471289981,558.2391064489493,None,556.6286513373256,None,559.8493720559636,None,559.9594725340139,560.2596004619263,560.3795979960123,560.6797784479568,560.7997912979918,560.8497372870333,560.9699507140322,561.2699257259956,561.3900747050066,561.4399111060193,561.5600551860407,561.6100337780081,559.949460695358,None,,,,,,1,2023_Mar_16_1357,Cognition2_FullCode1,2021.2.3,99.9461888879465,
/Users/shamslab/Desktop/Cognition2_FullExperimentFile/_AudioBlock1.csv,/Users/shamslab/Desktop/Cognition2_FullExperimentFile/fullGoodSeqs_rhythm_shortVis_PracticeAudio.csv,,2,1,2,1,2,11,41,53,58,70,100,112,117,129,159,10_audFile.wav,10,2,9,2,1,2,1,2,11,41,53,58,70,100,112,117,129,159,10_audFile.wav,10,,1,1,,,9,1,171,176,1,171,176,2,0,1,1,1,,,,,0,5,5,18,,,,,,,,,,,,,,,,,,,,,,,,,,,,,,,,,,,565.341223840951,None,,,,,,,,,,,,,,,1,0.31738042598590255,569.0122178799938,None,569.0122178799938,None,,,,,,,,,562.2703031350393,None,562.4602198509965,563.4605119440239,563.4805483529344,None,563.5906305250246,563.8906237740302,564.0107124249917,564.0607023120392,564.1807612209814,564.4808453819714,564.600862244959,564.6509079399984,564.7709672149504,565.0710330669535,565.1909741549753,565.241172960028,563.5805863783229,None,566.651334960945,None,566.7614307060139,567.0615152099635,567.1816174599808,567.2315785739338,567.3516084499424,567.6516919200076,567.7718953340081,567.8217721509282,567.9419658699771,568.241792676039,568.3619573039468,568.4119637130061,566.7514886504272,None,,,,,,1,2023_Mar_16_1357,Cognition2_FullCode1,2021.2.3,99.9461888879465,
/Users/shamslab/Desktop/Cognition2_FullExperimentFile/_AudioBlock1.csv,/Users/shamslab/Desktop/Cognition2_FullExperimentFile/fullGoodSeqs_rhythm_shortVis_PracticeAudio.csv,,2,2,1,1,2,11,41,53,83,95,100,112,117,129,159,9_audFile.wav,10,3,8,2,2,1,1,2,11,41,53,83,95,100,112,117,129,159,9_audFile.wav,10,,1,1,,,8,1,171,176,1,171,176,3,0,1,1,1,,,,,0,6,6,22,,,,,,,,,,,,,,,,,,,,,,,,,,,,,,,,,,,572.4232960980153,None,,,,,,,,,,,,,,,1,0.2673365109367296,576.0942523919512,None,576.0942523919512,None,,,,,,,,,569.3523312510224,None,569.5324674330186,570.5325141650392,570.5626541449456,None,570.6726125719724,570.9726407829439,571.0928934440017,571.3927974039689,571.5131005039439,571.5627999339486,571.682887759991,571.7328591230325,571.8529304349795,572.1530278089922,572.2731651179492,572.323193138931,570.662538801413,None,573.7334395180224,None,573.8434081199812,574.1435909220017,574.2636392189888,574.5637549780076,574.683830962982,574.7337876230013,574.8538320809603,574.9037197339348,575.0238467080053,575.3239117589546,575.444021289004,575.4939140669303,573.8334631323581,None,,,,,,1,2023_Mar_16_1357,Cognition2_FullCode1,2021.2.3,99.9461888879465,
/Users/shamslab/Desktop/Cognition2_FullExperimentFile/_AudioBlock1.csv,/Users/shamslab/Desktop/Cognition2_FullExperimentFile/fullGoodSeqs_rhythm_shortVis_PracticeAudio.csv,,2,1,2,1,2,11,41,53,58,70,100,112,117,129,159,4_audFile.wav,10,2,3,2,1,2,1,2,11,41,53,58,70,100,112,117,129,159,4_audFile.wav,10,,1,1,,,3,2,171,201,2,171,201,2,0,1,1,1,,,,,0,7,7,24,,,,,,,,,,,,,,,,,,,,,,,,,,,,,,,,,,,579.6051229320001,None,,,,,,,,,,,,,,,1,0.29329970700200647,583.2763072990347,None,583.2763072990347,None,,,,,,,,,576.3842192629818,None,576.5643462219741,577.5644709710032,577.5944882209878,579.4550680919783,577.7046410189942,578.0046062120236,578.1247952389531,578.1747472109273,578.294726682012,578.5948319300078,578.715099529014,578.7649890460307,578.8850749599515,579.1849907989381,579.3050266909413,None,577.694591939426,None,580.9155850779498,None,581.0256354470039,581.3256581060123,581.4456191359786,581.4956920000259,581.6158783510327,581.9157510489458,582.0358842019923,582.0858661419479,582.2058944399469,582.506049914984,582.6261116600363,582.9260842680233,581.0155423773452,None,,,,,,1,2023_Mar_16_1357,Cognition2_FullCode1,2021.2.3,99.9461888879465,
/Users/shamslab/Desktop/Cognition2_FullExperimentFile/_AudioBlock1.csv,/Users/shamslab/Desktop/Cognition2_FullExperimentFile/fullGoodSeqs_rhythm_shortVis_PracticeAudio.csv,,2,1,1,2,1,11,41,53,58,70,75,87,117,129,134,15_audFile.wav,10,2,11,2,1,1,2,2,11,41,53,58,70,75,87,117,129,159,12_audFile.wav,10,,1,2,,,14,2,146,176,1,171,176,2,0,1,1,1,,,,,0,8,8,28,,,,,,,,,,,,,,,,,,,,,,,,,,,,,,,,,,,586.6671878389316,None,,,,,,,,,,,,,,,2,0.2552662789821625,590.3383178469958,None,590.3383178469958,None,,,,,,,,,583.5964250819525,None,583.7764136770274,584.7766974719707,584.8067406610353,None,584.9167552309809,585.216767885955,585.3367319559911,585.3869599669706,585.506867464981,585.556765737012,585.6768900610041,585.9769533990184,586.09702160093,586.147029808024,586.2672224589624,586.5671214309987,584.9068311654031,None,587.9775036169449,None,588.0874787699431,588.3876365779433,588.5077750550117,588.557709921035,588.6778481289512,588.727807119023,588.8478928740369,589.1478552779881,589.2679970150348,589.5680046129273,589.6881413599476,589.7379290899262,588.0775027563562,None,,,,,,1,2023_Mar_16_1357,Cognition2_FullCode1,2021.2.3,99.9461888879465,
/Users/shamslab/Desktop/Cognition2_FullExperimentFile/_AudioBlock1.csv,/Users/shamslab/Desktop/Cognition2_FullExperimentFile/fullGoodSeqs_rhythm_shortVis_PracticeAudio.csv,,1,2,1,2,2,11,16,28,58,70,75,87,117,129,159,13_audFile.wav,10,1,12,1,2,1,2,2,11,16,28,58,70,75,87,117,129,159,13_audFile.wav,10,,1,1,,,12,1,171,176,1,171,176,1,0,1,1,1,,,,,0,9,9,3,,,,,,,,,,,,,,,,,,,,,,,,,,,,,,,,,,,593.6891735580284,None,,,,,,,,,,,,,,,1,0.7934429639717564,597.3602006279398,None,597.3602006279398,None,,,,,,,,,590.6182581329485,None,590.7985501450021,591.7987648040289,591.8287028500345,None,591.9388085149694,591.9886925340397,592.1087570269592,592.4087910199305,592.5288076170254,592.5788862999761,592.6990006979322,592.9991363650188,593.1191153170075,593.4190585860051,593.5391437170329,593.5890833759913,591.9288646094268,None,594.9996296339668,None,595.1096258669859,595.1595940130064,595.2796416189522,595.5796285429969,595.6997246519895,595.7497556939488,595.8698744319845,596.1698216990335,596.2898960430175,596.5900628130184,596.7100136179943,596.7601536209695,595.0996432993328,None,,,,,,1,2023_Mar_16_1357,Cognition2_FullCode1,2021.2.3,99.9461888879465,
/Users/shamslab/Desktop/Cognition2_FullExperimentFile/_AudioBlock1.csv,/Users/shamslab/Desktop/Cognition2_FullExperimentFile/fullGoodSeqs_rhythm_shortVis_PracticeAudio.csv,,1,2,1,2,1,11,16,28,58,70,75,87,117,129,134,16_audFile.wav,10,1,15,1,2,1,2,1,11,16,28,58,70,75,87,117,129,134,16_audFile.wav,10,,1,1,,,15,2,146,176,2,146,176,1,0,1,1,1,,,,,0,10,10,31,,,,,,,,,,,,,,,,,,,,,,,,,,,,,,,,,,,601.2513226600131,None,,,,,,,,,,,,,,,1,11.615185217931867,604.9223954640329,None,604.9223954640329,None,,,,,,,,,598.1803759429604,None,598.360629835981,599.3607877319446,599.3906992060365,None,599.5008943650173,599.5508476250106,599.6709458660334,599.9709527669474,600.0910220019286,600.1410475709708,600.261104625999,600.5611145929433,600.6811842570314,600.7311600940302,600.8513145230245,601.1513199069304,599.4908469363348,None,602.5618178170407,None,602.6716229020385,602.7217546009924,602.8417858709581,603.1418361199321,603.2618523440324,603.3119056819705,603.4319575600093,603.7320460519986,603.85217126098,603.902069082018,604.0221615459304,604.3221144760028,602.6616812824271,None,,,,,,1,2023_Mar_16_1357,Cognition2_FullCode1,2021.2.3,99.9461888879465,
/Users/shamslab/Desktop/Cognition2_FullExperimentFile/_AudioBlock1.csv,/Users/shamslab/Desktop/Cognition2_FullExperimentFile/fullGoodSeqs_rhythm_shortVis_PracticeAudio.csv,,1,2,1,2,2,11,16,28,58,70,75,87,117,129,159,6_audFile.wav,10,1,12,1,2,1,2,2,11,16,28,58,70,75,87,117,129,159,13_audFile.wav,10,,1,2,,,5,2,171,201,1,171,176,1,0,1,1,1,,,,,0,11,11,2,,,,,,,,,,,,,,,,,,,,,,,,,,,,,,,,,,,619.7865488679381,None,,,,,,,,,,,,,,,2,0.2478544139303267,623.4577446399489,None,623.4577446399489,None,,,,,,,,,616.5656557029579,None,616.7456697369926,617.7460760979448,617.7760671169963,619.6366344259586,617.8861232890049,617.9360805270262,618.0560637899907,618.3562403509859,618.4762539080111,618.5262671089731,618.6463189199567,618.9463275609305,619.0665139260236,619.3664670300204,619.4866214449285,None,617.8760852493346,None,621.0969237849349,None,621.2070507049793,621.2571401769528,621.3769877179293,621.6773042479763,621.7973330889363,621.8471990999533,621.9672013579402,622.2673600179842,622.3874801700003,622.6874327409314,622.8075107849436,622.8574584189337,621.1972352423239,None,,,,,,1,2023_Mar_16_1357,Cognition2_FullCode1,2021.2.3,99.9461888879465,
/Users/shamslab/Desktop/Cognition2_FullExperimentFile/_AudioBlock1.csv,/Users/shamslab/Desktop/Cognition2_FullExperimentFile/fullGoodSeqs_rhythm_shortVis_PracticeAudio.csv,,2,1,1,2,2,11,41,53,58,70,75,87,117,129,159,12_audFile.wav,10,2,11,2,1,1,2,2,11,41,53,58,70,75,87,117,129,159,12_audFile.wav,10,,1,1,,,11,1,171,176,1,171,176,2,0,1,1,1,,,,,0,12,12,5,,,,,,,,,,,,,,,,,,,,,,,,,,,,,,,,,,,626.7988548679277,None,,,,,,,,,,,,,,,1,0.30793000699486583,630.4696741140215,None,630.4696741140215,None,,,,,,,,,623.7278157860273,None,623.9079074839829,624.9081917860312,624.9380139550194,None,625.0482782649342,625.3481699499534,625.4682950769784,625.518370477017,625.6383248380153,625.6883256229339,625.8083581030369,626.1087827979354,626.2284724679776,626.5285085749347,626.6486985239899,626.698713287944,625.0381054143421,None,628.1091008100193,None,628.2191056830343,628.519119114033,628.639234868926,628.6891089950223,628.8091278889915,628.8592009969288,628.9792499670293,629.2792299259454,629.3992871049559,629.6994269569404,629.8196484559448,629.8694077989785,628.2089367183856,None,,,,,,1,2023_Mar_16_1357,Cognition2_FullCode1,2021.2.3,99.9461888879465,
/Users/shamslab/Desktop/Cognition2_FullExperimentFile/_AudioBlock1.csv,/Users/shamslab/Desktop/Cognition2_FullExperimentFile/fullGoodSeqs_rhythm_shortVis_PracticeAudio.csv,,1,2,1,2,1,11,16,28,58,70,75,87,117,129,134,16_audFile.wav,10,1,12,1,2,1,2,2,11,16,28,58,70,75,87,117,129,159,13_audFile.wav,10,,1,2,,,15,2,146,176,1,171,176,1,0,1,1,1,,,,,0,13,13,0,,,,,,,,,,,,,,,,,,,,,,,,,,,,,,,,,,,633.8706399330404,None,,,,,,,,,,,,,,,2,0.41170597600284964,637.5418774249265,None,637.5418774249265,None,,,,,,,,,630.799822042929,None,630.979932543938,631.9801977459574,632.0100865720306,None,632.1202233530348,632.1701299549313,632.2902099860366,632.5902630030178,632.7104373839684,632.7603755210293,632.8804067779565,633.1804855939699,633.3005792240147,633.350535047939,633.4707684220048,633.7705394229852,632.1102812454104,None,635.1809963749256,None,635.2910834379727,635.3410620760405,635.4610793129541,635.761143474956,635.8813072739867,635.9312558530364,636.0512886940269,636.3514423000161,636.4713583670091,636.7714652470313,636.8916048229439,636.9414779199287,635.2810153183294,None,,,,,,1,2023_Mar_16_1357,Cognition2_FullCode1,2021.2.3,99.9461888879465,
/Users/shamslab/Desktop/Cognition2_FullExperimentFile/_AudioBlock1.csv,/Users/shamslab/Desktop/Cognition2_FullExperimentFile/fullGoodSeqs_rhythm_shortVis_PracticeAudio.csv,,2,1,2,2,1,11,41,53,58,70,100,112,142,154,159,2_audFile.wav,10,2,1,2,1,2,2,1,11,41,53,58,70,100,112,142,154,159,2_audFile.wav,10,,1,1,,,1,2,171,201,2,171,201,2,0,1,1,1,,,,,0,14,14,7,,,,,,,,,,,,,,,,,,,,,,,,,,,,,,,,,,,641.2028769690078,None,,,,,,,,,,,,,,,1,0.3917198129929602,644.873879499035,None,644.873879499035,None,,,,,,,,,637.9818125829333,None,638.1620048109908,639.1622719209408,639.1921351370402,641.0527440509759,639.3021276430227,639.602309623966,639.7223918259842,639.7722714089323,639.892372510978,640.1923920540139,640.3125341519481,640.612549609039,640.7327341350028,640.7827686439268,640.9027866430115,None,639.2921272733714,None,642.5132222459652,None,642.623117169016,642.9233734640293,643.0434883990092,643.093251283979,643.213506769971,643.513500542962,643.6335775910411,643.9335901979357,644.0536513340194,644.1036194709595,644.2237468200037,644.523679445032,642.6131216963753,None,,,,,,1,2023_Mar_16_1357,Cognition2_FullCode1,2021.2.3,99.9461888879465,
/Users/shamslab/Desktop/Cognition2_FullExperimentFile/_AudioBlock1.csv,/Users/shamslab/Desktop/Cognition2_FullExperimentFile/fullGoodSeqs_rhythm_shortVis_PracticeAudio.csv,,1,2,2,1,2,11,16,28,58,70,100,112,117,129,159,5_audFile.wav,10,1,4,1,2,2,1,2,11,16,28,58,70,100,112,117,129,159,5_audFile.wav,10,,1,1,,,4,2,171,201,2,171,201,1,0,1,1,1,,,,,0,15,15,13,,,,,,,,,,,,,,,,,,,,,,,,,,,,,,,,,,,648.5149557320401,None,,,,,,,,,,,,,,,1,0.8236438799649477,652.1859306970146,None,652.1859306970146,None,,,,,,,,,645.2938192909351,None,645.4741319289897,646.4741536129732,646.5043075210415,648.3648940719431,646.6143993139267,646.6643084579846,646.7843269070145,647.0845155039569,647.2045378970215,647.5045495019294,647.6247105279472,647.6744861209299,647.7946513909847,648.0947132009314,648.2148293480277,None,646.6042900943197,None,649.8252498880029,None,649.935219401028,649.9852807079442,650.1052642830182,650.4054004389327,650.5255276859971,650.8255281100282,650.9456422029762,650.995462307008,651.1156692309305,651.415627748007,651.5358707900159,651.8357950219652,649.9251818604301,None,,,,,,1,2023_Mar_16_1357,Cognition2_FullCode1,2021.2.3,99.9461888879465,
/Users/shamslab/Desktop/Cognition2_FullExperimentFile/_AudioBlock1.csv,/Users/shamslab/Desktop/Cognition2_FullExperimentFile/fullGoodSeqs_rhythm_shortVis_PracticeAudio.csv,,1,2,2,1,2,11,16,28,58,70,100,112,117,129,159,11_audFile.wav,10,1,10,1,2,2,1,2,11,16,28,58,70,100,112,117,129,159,11_audFile.wav,10,,1,1,,,10,1,171,176,1,171,176,1,0,1,1,1,,,,,0,16,16,30,,,,,,,,,,,,,,,,,,,,,,,,,,,,,,,,,,,656.1171375049744,None,,,,,,,,,,,,,,,2,0.4774747339542955,659.7881262350129,None,659.7881262350129,None,,,,,,,,,653.0361057559494,None,653.2162303969963,654.216413254966,654.2464125680272,None,654.3565987199545,654.4065807920415,654.5266674460145,654.826535545988,654.9465830799891,655.2467583119869,655.3668947649421,655.4168693659594,655.5369151899358,655.8368971010204,655.9571161420317,656.0070055220276,654.3464292824268,None,657.427326229983,None,657.5377040079329,657.5874424609356,657.7074387290049,658.0075115149375,658.1275500300108,658.4276971189538,658.5476935940096,658.5977616140153,658.7177233549301,659.0178858280415,659.1380229659844,659.1878120109905,657.5274811773328,None,,,,,,1,2023_Mar_16_1357,Cognition2_FullCode1,2021.2.3,99.9461888879465,
/Users/shamslab/Desktop/Cognition2_FullExperimentFile/_AudioBlock1.csv,/Users/shamslab/Desktop/Cognition2_FullExperimentFile/fullGoodSeqs_rhythm_shortVis_PracticeAudio.csv,,2,1,2,1,2,11,41,53,58,70,100,112,117,129,159,4_audFile.wav,10,2,7,2,1,2,2,1,11,41,53,58,70,100,112,142,154,159,8_audFile.wav,10,,1,2,,,3,2,171,201,1,171,176,2,0,1,1,1,,,,,0,17,17,1,,,,,,,,,,,,,,,,,,,,,,,,,,,,,,,,,,,663.5092902859906,None,,,,,,,,,,,,,,,2,1.5854104870231822,667.2001956739696,None,667.2001956739696,None,,,,,,,,,660.2881043539383,None,660.4683389440179,661.468500433024,661.4986640349962,663.3589786039665,661.6085745729506,661.9086398730287,662.028752919985,662.0787206359673,662.1987387229456,662.49887222494,662.6188301889924,662.6689782029716,662.7890164250275,663.0890001349617,663.2091392159928,None,661.5985078933649,None,664.8195717439521,None,664.9296445660293,665.2296149230096,665.3497782519553,665.3996044719825,665.51968711894,665.8198875739472,665.9398684269981,666.260083348956,666.379886987037,666.430042324937,666.5501372769941,666.5999995620223,664.9195127923507,None,,,,,,1,2023_Mar_16_1357,Cognition2_FullCode1,2021.2.3,99.9461888879465,
/Users/shamslab/Desktop/Cognition2_FullExperimentFile/_AudioBlock1.csv,/Users/shamslab/Desktop/Cognition2_FullExperimentFile/fullGoodSeqs_rhythm_shortVis_PracticeAudio.csv,,1,2,2,2,1,11,16,28,58,70,100,112,142,154,159,3_audFile.wav,10,1,2,1,2,2,2,1,11,16,28,58,70,100,112,142,154,159,3_audFile.wav,10,,1,1,,,2,2,171,201,2,171,201,1,0,1,1,1,,,,,0,18,18,29,,,,,,,,,,,,,,,,,,,,,,,,,,,,,,,,,,,672.0315440839622,None,,,,,,,,,,,,,,,1,0.4349507240112871,675.7026350259548,None,675.7026350259548,None,,,,,,,,,668.8107081620255,None,668.9906769139925,669.9908968920354,670.0209248319734,671.8814384039724,670.1310219169827,670.1810067709303,670.3010354179423,670.6011093569687,670.7212084849598,671.021180848009,671.1412946649361,671.4413112120237,671.5615474319784,671.6114967949688,671.7316586049274,None,670.1210791233228,None,673.3419078519801,None,673.4519583359361,673.5021272159647,673.6219857309479,673.9221281219507,674.0421259829309,674.3421053669881,674.462266840972,674.7623438530136,674.8823417939711,674.9322626920184,675.0524695919594,675.3524464350194,673.441943647433,None,,,,,,1,2023_Mar_16_1357,Cognition2_FullCode1,2021.2.3,99.9461888879465,
/Users/shamslab/Desktop/Cognition2_FullExperimentFile/_AudioBlock1.csv,/Users/shamslab/Desktop/Cognition2_FullExperimentFile/fullGoodSeqs_rhythm_shortVis_PracticeAudio.csv,,2,1,2,2,1,11,41,53,58,70,100,112,142,154,159,2_audFile.wav,10,2,9,2,1,2,1,2,11,41,53,58,70,100,112,117,129,159,10_audFile.wav,10,,1,2,,,1,2,171,201,1,171,176,2,0,1,1,1,,,,,0,19,19,12,,,,,,,,,,,,,,,,,,,,,,,,,,,,,,,,,,,679.3836156040197,None,,,,,,,,,,,,,,,2,0.3387395329773426,683.0548471430084,None,683.0548471430084,None,,,,,,,,,676.1627371519571,None,676.3427477850346,677.3430376559263,677.3730505909771,679.2336554279318,677.483085224987,677.7833532829536,677.9033435810125,677.9534569089301,678.0732569330139,678.3733670399524,678.4934257130371,678.7934556329856,678.913542262977,678.9634924429702,679.0836909519276,None,677.4730815953575,None,680.6940598640358,None,680.8041678089648,681.1041295679752,681.2241425740067,681.2741603249451,681.3941840620246,681.6942143379711,681.814386509941,681.8642741329968,681.9845749549568,682.2844013329595,682.4044809000334,682.4544755209936,680.7939731593709,None,,,,,,1,2023_Mar_16_1357,Cognition2_FullCode1,2021.2.3,99.9461888879465,
/Users/shamslab/Desktop/Cognition2_FullExperimentFile/_AudioBlock1.csv,/Users/shamslab/Desktop/Cognition2_FullExperimentFile/fullGoodSeqs_rhythm_shortVis_PracticeAudio.csv,,1,2,1,2,2,11,16,28,58,70,75,87,117,129,159,13_audFile.wav,10,1,2,1,2,2,2,1,11,16,28,58,70,100,112,142,154,159,3_audFile.wav,10,,1,2,,,12,1,171,176,2,171,201,1,0,1,1,1,,,,,0,20,20,26,,,,,,,,,,,,,,,,,,,,,,,,,,,,,,,,,,,686.4855991980294,None,,,,,,,,,,,,,,,1,0.2929442080203444,690.1567116469378,None,690.1567116469378,None,,,,,,,,,683.4147155230166,None,683.5948088479927,684.5951087420108,684.6250109840184,None,684.7351514010224,684.7852105200291,684.9053034340031,685.2052374909399,685.3253135710256,685.3753198719351,685.495517896954,685.7954145399854,685.9155163379619,686.215488399961,686.335612358991,686.3856263529742,684.7252512033796,None,687.7961339069298,None,687.9061688029906,687.9561209019739,688.0761253669625,688.3762837169925,688.4963429699419,688.796373968944,688.9164209809387,689.216429058928,689.3364287329605,689.3865619369317,689.5064922570018,689.8065386849921,687.896071957401,None,,,,,,1,2023_Mar_16_1357,Cognition2_FullCode1,2021.2.3,99.9461888879465,
/Users/shamslab/Desktop/Cognition2_FullExperimentFile/_AudioBlock1.csv,/Users/shamslab/Desktop/Cognition2_FullExperimentFile/fullGoodSeqs_rhythm_shortVis_PracticeAudio.csv,,2,2,1,2,1,11,41,53,83,95,100,112,142,154,159,7_audFile.wav,10,3,0,2,2,1,2,1,11,41,53,83,95,100,112,142,154,159,1_audFile.wav,10,,1,2,,,6,1,171,176,2,171,201,3,0,1,1,1,,,,,0,21,21,6,,,,,,,,,,,,,,,,,,,,,,,,,,,,,,,,,,,693.5478721100371,None,,,,,,,,,,,,,,,1,0.22302068606950343,697.2186555099906,None,697.2186555099906,None,,,,,,,,,690.4768147119321,None,690.6568750080187,691.6570435300237,691.6872514520073,None,691.7972710409667,692.0974449280184,692.2174004720291,692.5173866379773,692.6375337779755,692.6874850059394,692.8075261949562,693.1076601999812,693.2276761709945,693.2775962209562,693.3976462900173,693.4476603179937,691.7872758283978,None,694.8580259250011,None,694.9681158689782,695.2681016749702,695.3882670169696,695.6884313459741,695.8083773909602,695.8584456440294,695.9783295959933,696.2784703340149,696.3984908190323,696.4484892409528,696.568617034005,696.8686805529287,694.9582091663964,None,,,,,,1,2023_Mar_16_1357,Cognition2_FullCode1,2021.2.3,99.9461888879465,
/Users/shamslab/Desktop/Cognition2_FullExperimentFile/_AudioBlock1.csv,/Users/shamslab/Desktop/Cognition2_FullExperimentFile/fullGoodSeqs_rhythm_shortVis_PracticeAudio.csv,,2,1,2,2,1,11,41,53,58,70,100,112,142,154,159,8_audFile.wav,10,2,7,2,1,2,2,1,11,41,53,58,70,100,112,142,154,159,8_audFile.wav,10,,1,1,,,7,1,171,176,1,171,176,2,0,1,1,1,,,,,0,22,22,23,,,,,,,,,,,,,,,,,,,,,,,,,,,,,,,,,,,700.5398015290266,None,,,,,,,,,,,,,,,1,0.1668972020270303,704.2106896810001,None,704.2106896810001,None,,,,,,,,,697.4688733299263,None,697.6488161330344,698.6491029879544,698.6792097529396,None,698.7891973949736,699.0893090669997,699.2093089850387,699.2592961250339,699.3793663289398,699.6794969829498,699.7996416459791,700.0995847700397,700.2196346939309,700.2696301270043,700.3896712049609,700.4397825390333,698.7790934883291,None,701.8501982259331,None,701.9601927719777,702.2602840990294,702.3802067589713,702.4303690349916,702.5504310539691,702.850300651975,702.9703752259957,703.2705248870188,703.3906348090386,703.4404468149878,703.5606603729539,703.610605314956,701.9502487333724,None,,,,,,1,2023_Mar_16_1357,Cognition2_FullCode1,2021.2.3,99.9461888879465,
/Users/shamslab/Desktop/Cognition2_FullExperimentFile/_AudioBlock1.csv,/Users/shamslab/Desktop/Cognition2_FullExperimentFile/fullGoodSeqs_rhythm_shortVis_PracticeAudio.csv,,1,2,2,1,2,11,16,28,58,70,100,112,117,129,159,11_audFile.wav,10,1,2,1,2,2,2,1,11,16,28,58,70,100,112,142,154,159,3_audFile.wav,10,,1,2,,,10,1,171,176,2,171,201,1,0,1,1,1,,,,,0,23,23,27,,,,,,,,,,,,,,,,,,,,,,,,,,,,,,,,,,,707.4718485019403,None,,,,,,,,,,,,,,,1,0.17084718705154955,711.1427073449595,None,711.1427073449595,None,,,,,,,,,704.4008589410223,None,704.5809572120197,705.5810512369499,705.6110350310337,None,705.7211424759589,705.7711559579475,705.8912155239377,706.1912694629282,706.3114115450298,706.6114407329587,706.7314565739362,706.7814139919356,706.9015174729284,707.2014740930172,707.3217945409706,707.371674895985,705.7110961363418,None,708.7819656640058,None,708.8921669819392,708.9421089959797,709.0621009969618,709.3621218949556,709.4821527149761,709.7823891829466,709.9023210830055,710.202548029949,710.322442195029,710.3726031469414,710.492523481953,710.7926348909969,708.8819647154072,None,,,,,,1,2023_Mar_16_1357,Cognition2_FullCode1,2021.2.3,99.9461888879465,
/Users/shamslab/Desktop/Cognition2_FullExperimentFile/_AudioBlock1.csv,/Users/shamslab/Desktop/Cognition2_FullExperimentFile/fullGoodSeqs_rhythm_shortVis_PracticeAudio.csv,,2,1,2,2,1,11,41,53,58,70,100,112,142,154,159,8_audFile.wav,10,2,9,2,1,2,1,2,11,41,53,58,70,100,112,117,129,159,10_audFile.wav,10,,1,2,,,7,1,171,176,1,171,176,2,0,1,1,1,,,,,0,24,24,9,,,,,,,,,,,,,,,,,,,,,,,,,,,,,,,,,,,714.413688984001,None,,,,,,,,,,,,,,,2,0.21296763292048126,718.0846923239296,None,718.0846923239296,None,,,,,,,,,711.3427514439682,None,711.532819460961,712.5330414540367,712.5530569149414,None,712.6630922059994,712.9633548220154,713.0832942440175,713.1332270760322,713.2532413459849,713.5534502889495,713.6734685929259,713.9734299640404,714.0935422719922,714.143569080974,714.2637802700046,714.3135578159709,712.6531601194059,None,715.7240137549816,None,715.8340922929347,716.1343409279361,716.2543575490126,716.304359821952,716.4242885230342,716.7242284979438,716.8443455679808,716.89432971098,717.0144322880078,717.3144895549631,717.4346350849373,717.4845485900296,715.8240018153796,None,,,,,,1,2023_Mar_16_1357,Cognition2_FullCode1,2021.2.3,99.9461888879465,
/Users/shamslab/Desktop/Cognition2_FullExperimentFile/_AudioBlock1.csv,/Users/shamslab/Desktop/Cognition2_FullExperimentFile/fullGoodSeqs_rhythm_shortVis_PracticeAudio.csv,,2,1,2,1,1,11,41,53,58,70,100,112,117,129,134,14_audFile.wav,10,2,14,2,1,1,2,1,11,41,53,58,70,75,87,117,129,134,15_audFile.wav,10,,1,2,,,13,2,146,176,2,146,176,2,0,1,1,1,,,,,0,25,25,10,,,,,,,,,,,,,,,,,,,,,,,,,,,,,,,,,,,721.3957881869283,None,,,,,,,,,,,,,,,1,0.42291897302493453,725.0667285099626,None,725.0667285099626,None,,,,,,,,,718.3247966229683,None,718.5048398709623,719.5050166669535,719.5352159589529,None,719.645125502022,719.9452761389548,720.0653213530313,720.1153118569637,720.2353531980189,720.5354778299807,720.6554937190376,720.7054328329396,720.825621848926,720.8755091399653,720.9955007439712,721.2956145179924,719.6353223883547,None,722.7059136329917,None,722.8160251099616,723.1160584399477,723.2361146659823,723.286127210944,723.4062180269975,723.4562871969538,723.5762993859826,723.8764438159997,723.9963518909644,724.0465054069646,724.1664653989719,724.4664429370314,722.8060275533702,None,,,,,,1,2023_Mar_16_1357,Cognition2_FullCode1,2021.2.3,99.9461888879465,
/Users/shamslab/Desktop/Cognition2_FullExperimentFile/_AudioBlock1.csv,/Users/shamslab/Desktop/Cognition2_FullExperimentFile/fullGoodSeqs_rhythm_shortVis_PracticeAudio.csv,,1,2,2,1,2,11,16,28,58,70,100,112,117,129,159,5_audFile.wav,10,1,5,1,2,1,2,2,11,16,28,58,70,75,87,117,129,159,6_audFile.wav,10,,1,2,,,4,2,171,201,2,171,201,1,0,1,1,1,,,,,0,26,26,17,,,,,,,,,,,,,,,,,,,,,,,,,,,,,,,,,,,728.7377935899422,None,,,,,,,,,,,,,,,1,0.17675230093300343,732.4088372149272,None,732.4088372149272,None,,,,,,,,,725.5167409669375,None,725.6969573310344,726.6972356450278,726.7272437349893,728.5877713599475,726.8372136859689,726.8871773099527,727.0072050449671,727.3074109769659,727.427483710926,727.7274473889265,727.847612077021,727.8975381270284,728.0175461679464,728.3177279999945,728.4377808299614,None,726.8273544113384,None,730.048137475038,None,730.1582641709829,730.2081389389932,730.3283198489808,730.6283007710008,730.7483594609657,730.7984112959821,730.9183753170073,731.2184657839825,731.3385471269721,731.6386899009813,731.7587268159259,732.0587557679974,730.1480495843338,None,,,,,,1,2023_Mar_16_1357,Cognition2_FullCode1,2021.2.3,99.9461888879465,
/Users/shamslab/Desktop/Cognition2_FullExperimentFile/_AudioBlock1.csv,/Users/shamslab/Desktop/Cognition2_FullExperimentFile/fullGoodSeqs_rhythm_shortVis_PracticeAudio.csv,,2,2,1,2,1,11,41,53,83,95,100,112,142,154,159,7_audFile.wav,10,3,6,2,2,1,2,1,11,41,53,83,95,100,112,142,154,159,7_audFile.wav,10,,1,1,,,6,1,171,176,1,171,176,3,0,1,1,1,,,,,0,27,27,19,,,,,,,,,,,,,,,,,,,,,,,,,,,,,,,,,,,735.6797460139496,None,,,,,,,,,,,,,,,2,0.27477895305491984,739.350850695977,None,739.350850695977,None,,,,,,,,,732.6088830289664,None,732.7889765589498,733.7892011699732,733.8191658389987,None,733.929233887,734.2293217469705,734.3493759549456,734.6493943779496,734.7693950500106,734.8194540099939,734.939457016997,735.2395495669916,735.3597317199456,735.4097769960063,735.5297509949887,735.5797158039641,733.9192367733689,None,736.9900817989837,None,737.1003995549399,737.4004133429844,737.520270903944,737.8203098230297,737.9403696840163,737.990356534021,738.110609833966,738.4104815239552,738.5306652019499,738.5805081949802,738.7006186819635,738.7506721930113,737.0900971264113,None,,,,,,1,2023_Mar_16_1357,Cognition2_FullCode1,2021.2.3,99.9461888879465,
/Users/shamslab/Desktop/Cognition2_FullExperimentFile/_AudioBlock1.csv,/Users/shamslab/Desktop/Cognition2_FullExperimentFile/fullGoodSeqs_rhythm_shortVis_PracticeAudio.csv,,2,2,1,1,2,11,41,53,83,95,100,112,117,129,159,9_audFile.wav,10,3,6,2,2,1,2,1,11,41,53,83,95,100,112,142,154,159,7_audFile.wav,10,,1,2,,,8,1,171,176,1,171,176,3,0,1,1,1,,,,,0,28,28,11,,,,,,,,,,,,,,,,,,,,,,,,,,,,,,,,,,,742.7219056279864,None,,,,,,,,,,,,,,,1,0.2466809069737792,746.4029311930062,None,746.4029311930062,None,,,,,,,,,739.6508932579309,None,739.8309986540116,740.8312982119387,740.8612052979879,None,740.9712657949422,741.2712841850007,741.3913873910205,741.6915529579856,741.8115357540082,741.8614548309706,741.9814880569465,742.0315076509723,742.1516980440356,742.4516782819992,742.5717195339967,742.6217897130409,740.9612168774241,None,744.0322514059953,None,744.1421223339858,744.4423862399999,744.5623105820268,744.8624382209964,744.9823934149463,745.0323969559977,745.1524312869878,745.45246975997,745.5726791929919,745.6225706739351,745.7427150129806,745.7925326570403,744.1321216444252,None,,,,,,1,2023_Mar_16_1357,Cognition2_FullCode1,2021.2.3,99.9461888879465,
/Users/shamslab/Desktop/Cognition2_FullExperimentFile/_AudioBlock1.csv,/Users/shamslab/Desktop/Cognition2_FullExperimentFile/fullGoodSeqs_rhythm_shortVis_PracticeAudio.csv,,2,1,1,2,1,11,41,53,58,70,75,87,117,129,134,15_audFile.wav,10,2,14,2,1,1,2,1,11,41,53,58,70,75,87,117,129,134,15_audFile.wav,10,,1,1,,,14,2,146,176,2,146,176,2,0,1,1,1,,,,,0,29,29,4,,,,,,,,,,,,,,,,,,,,,,,,,,,,,,,,,,,749.7437404360389,None,,,,,,,,,,,,,,,2,0.2028190370183438,753.4148639219347,None,753.4148639219347,None,,,,,,,,,746.6729514399776,None,746.8530176619533,747.8531662989408,747.8831159149995,None,747.9931853319285,748.2933103929972,748.4134540349478,748.4634135359665,748.5835113889771,748.6333935389994,748.7535210209899,749.0535495799268,749.1735862490023,749.2234902200289,749.3436336750165,749.6438309589867,747.983206436364,None,751.0541242279578,None,751.164275913965,751.4643792619463,751.5842785829445,751.6341662949417,751.7543146120152,751.8042562579503,751.9243259440409,752.2245423649438,752.3443554040277,752.3945217629662,752.5147074880078,752.814521539025,751.1542376993224,None,,,,,,1,2023_Mar_16_1357,Cognition2_FullCode1,2021.2.3,99.9461888879465,
/Users/shamslab/Desktop/Cognition2_FullExperimentFile/_AudioBlock1.csv,/Users/shamslab/Desktop/Cognition2_FullExperimentFile/fullGoodSeqs_rhythm_shortVis_PracticeAudio.csv,,2,1,2,1,1,11,41,53,58,70,100,112,117,129,134,14_audFile.wav,10,2,13,2,1,2,1,1,11,41,53,58,70,100,112,117,129,134,14_audFile.wav,10,,1,1,,,13,2,146,176,2,146,176,2,0,1,1,1,,,,,0,30,30,16,,,,,,,,,,,,,,,,,,,,,,,,,,,,,,,,,,,756.7157729079481,None,,,,,,,,,,,,,,,1,0.10278947197366506,760.3868865029654,None,760.3868865029654,None,,,,,,,,,753.6448835820192,None,753.8249170029303,754.8253677820321,754.8553085300373,None,754.9652283820324,755.265298741986,755.3853073179489,755.4353840380209,755.555484920973,755.8554318200331,755.9756426939275,756.0256385130342,756.1456773299724,756.1955941439373,756.3157045600237,756.6157809640281,754.9553403083468,None,758.0259550029878,None,758.1360951799434,758.436236449983,758.55632487603,758.6062682999764,758.7263507499592,759.0264254759531,759.1465787709458,759.1964063330088,759.3163926069392,759.366453140974,759.4865384160075,759.7866276809946,758.1261171513237,None,,,,,,1,2023_Mar_16_1357,Cognition2_FullCode1,2021.2.3,99.9461888879465,
/Users/shamslab/Desktop/Cognition2_FullExperimentFile/_AudioBlock1.csv,/Users/shamslab/Desktop/Cognition2_FullExperimentFile/fullGoodSeqs_rhythm_shortVis_PracticeAudio.csv,,2,2,1,2,1,11,41,53,83,95,100,112,142,154,159,1_audFile.wav,10,3,0,2,2,1,2,1,11,41,53,83,95,100,112,142,154,159,1_audFile.wav,10,,1,1,,,0,2,171,201,2,171,201,3,0,1,1,1,,,,,0,31,31,20,,,,,,,,,,,,,,,,,,,,,,,,,,,,,,,,,,,763.7378519559279,None,,,,,,,,,,,,,,,1,0.4967663090210408,767.408803784987,None,767.408803784987,None,,,,,,,,,760.5167404989479,None,760.6969211229589,761.6971569749294,761.7272256499855,763.5877615959616,761.8371799959568,762.1373001949396,762.2573441449786,762.5573657290079,762.6774932020344,762.7274585920386,762.847468936001,763.1475525549613,763.2676243259339,763.3176799709909,763.4376659379341,None,761.8272566264262,None,765.048049367033,None,765.1582208300242,765.458297680947,765.578319074004,765.8783214249415,765.998356844997,766.0483932449715,766.1685455859406,766.4684313399484,766.5886434350396,766.6386275889818,766.758760773926,767.0586268299958,765.1482135883765,None,,,,,,1,2023_Mar_16_1357,Cognition2_FullCode1,2021.2.3,99.9461888879465,
/Users/shamslab/Desktop/Cognition2_FullExperimentFile/_AudioBlock1.csv,/Users/shamslab/Desktop/Cognition2_FullExperimentFile/fullGoodSeqs_rhythm_shortVis_PracticeAudio.csv,,,,,,,,,,,,,,,,,,,,,,,,,,,,,,,,,,,,,,,,,,,,,,,,,,,0,1,1,1,,,,,,,,,,,,,,,,,,,,,,,,,,,,,,,,,,,,,,,,,,,,,,,,,,,,,,,,,,,,,,,,,,,,,,,,,,,,,,,,,,,,,,,,,,,,,,,,,,,,,,,,,,,,,767.9324889359996,None,767.9324889359996,None,,1,2023_Mar_16_1357,Cognition2_FullCode1,2021.2.3,99.9461888879465,
