{"meta_data":{"additional_headers":{},"game_name":"Recollect","version":"2.53.01","user_name":"100","organization":"braingamecenter","study":"mpl2_2022_11","session_number":0,"device_id":"74342D95-EE82-45E3-8ADF-48FB3203C5DD"},"data":[{"trial":0,"action":1,"button_pressed":8,"time_out":false,"dwell_time":48.798828125,"response_time":1684258498694.95},{"trial":0,"action":1,"button_pressed":0,"time_out":false,"dwell_time":64.808837890625,"response_time":1684258499394},{"trial":0,"action":9,"button_pressed":-1,"time_out":false,"dwell_time":42.752197265625,"response_time":1684258499954.96},{"trial":1,"action":1,"button_pressed":10,"time_out":false,"dwell_time":63.840087890625,"response_time":1684258510006.67},{"trial":1,"action":1,"button_pressed":0,"time_out":false,"dwell_time":80.906982421875,"response_time":1684258510507.17},{"trial":1,"action":1,"button_pressed":6,"time_out":false,"dwell_time":63.714111328125,"response_time":1684258510973.53},{"trial":1,"action":9,"button_pressed":-1,"time_out":false,"dwell_time":81.06396484375,"response_time":1684258511973.57},{"trial":2,"action":1,"button_pressed":4,"time_out":false,"dwell_time":81.06884765625,"response_time":1684258524152.17},{"trial":2,"action":1,"button_pressed":2,"time_out":false,"dwell_time":31.260009765625,"response_time":1684258524535.54},{"trial":2,"action":1,"button_pressed":7,"time_out":false,"dwell_time":46.838134765625,"response_time":1684258525051.91},{"trial":2,"action":1,"button_pressed":3,"time_out":false,"dwell_time":63.1240234375,"response_time":1684258525618},{"trial":2,"action":9,"button_pressed":-1,"time_out":false,"dwell_time":65.364013671875,"response_time":1684258526468.81},{"trial":3,"action":1,"button_pressed":9,"time_out":false,"dwell_time":81.576171875,"response_time":1684258541330.37},{"trial":3,"action":1,"button_pressed":5,"time_out":false,"dwell_time":97.88818359375,"response_time":1684258541829.92},{"trial":3,"action":1,"button_pressed":6,"time_out":false,"dwell_time":46.8330078125,"response_time":1684258542329.61},{"trial":3,"action":1,"button_pressed":8,"time_out":false,"dwell_time":47.52099609375,"response_time":1684258542813.58},{"trial":3,"action":1,"button_pressed":7,"time_out":false,"dwell_time":64.107177734375,"response_time":1684258543263},{"trial":3,"action":9,"button_pressed":-1,"time_out":false,"dwell_time":81.3388671875,"response_time":1684258543995.81},{"trial":4,"action":1,"button_pressed":7,"time_out":false,"dwell_time":48.052978515625,"response_time":1684258558741.87},{"trial":4,"action":1,"button_pressed":4,"time_out":false,"dwell_time":80.125,"response_time":1684258559057.14},{"trial":4,"action":1,"button_pressed":3,"time_out":false,"dwell_time":63.370849609375,"response_time":1684258560506.64},{"trial":4,"action":1,"button_pressed":11,"time_out":false,"dwell_time":81.4169921875,"response_time":1684258561090.45},{"trial":4,"action":1,"button_pressed":10,"time_out":false,"dwell_time":63.40478515625,"response_time":1684258561806.34},{"trial":4,"action":9,"button_pressed":-1,"time_out":false,"dwell_time":80.642822265625,"response_time":1684258562789.67},{"trial":5,"action":1,"button_pressed":2,"time_out":false,"dwell_time":48.18603515625,"response_time":1684258572504.07},{"trial":5,"action":1,"button_pressed":4,"time_out":false,"dwell_time":64.179931640625,"response_time":1684258572803.4},{"trial":5,"action":1,"button_pressed":1,"time_out":false,"dwell_time":64.625,"response_time":1684258573136.39},{"trial":5,"action":9,"button_pressed":-1,"time_out":false,"dwell_time":48.151123046875,"response_time":1684258573587.2},{"trial":6,"action":1,"button_pressed":3,"time_out":false,"dwell_time":98.14990234375,"response_time":1684258585749.14},{"trial":6,"action":1,"button_pressed":5,"time_out":false,"dwell_time":64.10107421875,"response_time":1684258585948.94},{"trial":6,"action":1,"button_pressed":9,"time_out":false,"dwell_time":97.195068359375,"response_time":1684258586681.32},{"trial":6,"action":1,"button_pressed":2,"time_out":false,"dwell_time":48.842041015625,"response_time":1684258587265.76},{"trial":6,"action":9,"button_pressed":-1,"time_out":false,"dwell_time":64.570068359375,"response_time":1684258587915.39},{"trial":7,"action":1,"button_pressed":3,"time_out":false,"dwell_time":81.5869140625,"response_time":1684258602627.07},{"trial":7,"action":1,"button_pressed":8,"time_out":false,"dwell_time":80.0478515625,"response_time":1684258602959.46},{"trial":7,"action":1,"button_pressed":4,"time_out":false,"dwell_time":98.197021484375,"response_time":1684258603293.36},{"trial":7,"action":1,"button_pressed":10,"time_out":false,"dwell_time":30.402099609375,"response_time":1684258603692.93},{"trial":7,"action":1,"button_pressed":11,"time_out":false,"dwell_time":63.9580078125,"response_time":1684258604758.73},{"trial":7,"action":9,"button_pressed":-1,"time_out":false,"dwell_time":81.34912109375,"response_time":1684258605509.06},{"trial":8,"action":1,"button_pressed":11,"time_out":false,"dwell_time":114.1708984375,"response_time":1684258622919.72},{"trial":8,"action":1,"button_pressed":8,"time_out":false,"dwell_time":31.92919921875,"response_time":1684258623153.98},{"trial":8,"action":1,"button_pressed":6,"time_out":false,"dwell_time":46.6669921875,"response_time":1684258623653.09},{"trial":8,"action":1,"button_pressed":1,"time_out":false,"dwell_time":47.593994140625,"response_time":1684258626052.79},{"trial":8,"action":1,"button_pressed":10,"time_out":false,"dwell_time":64.2568359375,"response_time":1684258626502.63},{"trial":8,"action":9,"button_pressed":-1,"time_out":false,"dwell_time":15.673095703125,"response_time":1684258627836.67},{"trial":9,"action":1,"button_pressed":10,"time_out":false,"dwell_time":81.113037109375,"response_time":1684258644995.83},{"trial":9,"action":1,"button_pressed":2,"time_out":false,"dwell_time":48.633056640625,"response_time":1684258645463.22},{"trial":9,"action":1,"button_pressed":4,"time_out":false,"dwell_time":81.5869140625,"response_time":1684258645962.74},{"trial":9,"action":1,"button_pressed":5,"time_out":false,"dwell_time":30.506103515625,"response_time":1684258649111.32},{"trial":9,"action":1,"button_pressed":11,"time_out":false,"dwell_time":81.306884765625,"response_time":1684258649928.12},{"trial":9,"action":1,"button_pressed":0,"time_out":false,"dwell_time":48.679931640625,"response_time":1684258653977.19},{"trial":9,"action":9,"button_pressed":-1,"time_out":false,"dwell_time":48.322998046875,"response_time":1684258655443.04}]}