{"meta_data":{"additional_headers":{},"game_name":"Recollect","version":"2.53.01","user_name":"100","organization":"braingamecenter","study":"mpl2_2022_11","session_number":0,"device_id":"74342D95-EE82-45E3-8ADF-48FB3203C5DD"},"data":[{"stage":"Practice","trial":0,"sequence":"6F","letter_input":"F","number_input":"6","is_correct":true,"presentation_start_time":1684258689613.11,"presentation_end_time":1684258692614.68,"response_time":1684258703928.24},{"stage":"Practice","trial":1,"sequence":"G4","letter_input":"G","number_input":"4","is_correct":true,"presentation_start_time":1684258705457.98,"presentation_end_time":1684258708459.55,"response_time":1684258714921.62},{"stage":"Practice","trial":2,"sequence":"3W5","letter_input":"W","number_input":"35","is_correct":true,"presentation_start_time":1684258716454.36,"presentation_end_time":1684258720955.47,"response_time":1684258728333.87},{"stage":"Practice","trial":3,"sequence":"T7L","letter_input":"LT","number_input":"7","is_correct":true,"presentation_start_time":1684258729866.64,"presentation_end_time":1684258734367.65,"response_time":1684258740113.35},{"stage":"Practice","trial":4,"sequence":"9J1","letter_input":"J","number_input":"19","is_correct":true,"presentation_start_time":1684258741646.09,"presentation_end_time":1684258746147.27,"response_time":1684258751509.63},{"stage":"Calibration","trial":0,"sequence":"1F","letter_input":"F","number_input":"1","is_correct":true,"presentation_start_time":1684258761372.98,"presentation_end_time":1684258764374.49,"response_time":1684258769753.58},{"stage":"Calibration","trial":1,"sequence":"Y7","letter_input":"Y","number_input":"7","is_correct":true,"presentation_start_time":1684258771286.3,"presentation_end_time":1684258774288,"response_time":1684258780949.97},{"stage":"Calibration","trial":2,"sequence":"8G1","letter_input":"G","number_input":"18","is_correct":true,"presentation_start_time":1684258782482.72,"presentation_end_time":1684258786983.81,"response_time":1684258791229.94},{"stage":"Calibration","trial":3,"sequence":"F5D","letter_input":"DF","number_input":"5","is_correct":true,"presentation_start_time":1684258792762.61,"presentation_end_time":1684258797263.79,"response_time":1684258802276.35},{"stage":"Calibration","trial":4,"sequence":"6W4Q","letter_input":"WQ","number_input":"46","is_correct":false,"presentation_start_time":1684258803809,"presentation_end_time":1684258809809.56,"response_time":1684258836265.13},{"stage":"Calibration","trial":5,"sequence":"K9F1","letter_input":"FK","number_input":"19","is_correct":true,"presentation_start_time":1684258837797.9,"presentation_end_time":1684258843798.41,"response_time":1684258851560.2},{"stage":"Calibration","trial":6,"sequence":"3T8D5","letter_input":"DF","number_input":"358","is_correct":false,"presentation_start_time":1684258853092.88,"presentation_end_time":1684258860592.93,"response_time":1684258872103.52},{"stage":"Calibration","trial":7,"sequence":"A4R2P","letter_input":"ARP","number_input":"24","is_correct":false,"presentation_start_time":1684258873636.2,"presentation_end_time":1684258881136.28,"response_time":1684258888164.77}]}