{"meta_data":{"additional_headers":{},"game_name":"Recollect","version":"2.53.01","user_name":"101","organization":"braingamecenter","study":"mpl2_2022_11","session_number":0,"device_id":"74342D95-EE82-45E3-8ADF-48FB3203C5DD"},"data":[{"trial":0,"action":1,"button_pressed":11,"time_out":false,"dwell_time":64.426025390625,"response_time":1684436741474.97},{"trial":0,"action":1,"button_pressed":8,"time_out":false,"dwell_time":47.0830078125,"response_time":1684436742157.74},{"trial":0,"action":9,"button_pressed":-1,"time_out":false,"dwell_time":75.5419921875,"response_time":1684436742885.79},{"trial":1,"action":1,"button_pressed":0,"time_out":false,"dwell_time":47.969970703125,"response_time":1684436752471.97},{"trial":1,"action":1,"button_pressed":10,"time_out":false,"dwell_time":64.73291015625,"response_time":1684436753037.75},{"trial":1,"action":1,"button_pressed":11,"time_out":false,"dwell_time":64.72998046875,"response_time":1684436753587.66},{"trial":1,"action":9,"button_pressed":-1,"time_out":false,"dwell_time":64.00390625,"response_time":1684436754287.32},{"trial":2,"action":1,"button_pressed":10,"time_out":false,"dwell_time":65.286865234375,"response_time":1684436766367.32},{"trial":2,"action":1,"button_pressed":3,"time_out":false,"dwell_time":64.677001953125,"response_time":1684436766799.93},{"trial":2,"action":1,"button_pressed":6,"time_out":false,"dwell_time":47.011962890625,"response_time":1684436767133.02},{"trial":2,"action":1,"button_pressed":8,"time_out":false,"dwell_time":81.428955078125,"response_time":1684436767599.81},{"trial":2,"action":9,"button_pressed":-1,"time_out":false,"dwell_time":65.203857421875,"response_time":1684436768233.2},{"trial":3,"action":1,"button_pressed":3,"time_out":false,"dwell_time":64.93115234375,"response_time":1684436783644.62},{"trial":3,"action":1,"button_pressed":8,"time_out":false,"dwell_time":81.14404296875,"response_time":1684436784061.08},{"trial":3,"action":1,"button_pressed":4,"time_out":false,"dwell_time":63.576171875,"response_time":1684436784427.07},{"trial":3,"action":1,"button_pressed":10,"time_out":false,"dwell_time":63.919189453125,"response_time":1684436784977.43},{"trial":3,"action":1,"button_pressed":11,"time_out":false,"dwell_time":48.426025390625,"response_time":1684436785510.94},{"trial":3,"action":9,"button_pressed":-1,"time_out":false,"dwell_time":16.583984375,"response_time":1684436786243.29},{"trial":4,"action":1,"button_pressed":9,"time_out":false,"dwell_time":47.669921875,"response_time":1684436803372.03},{"trial":4,"action":1,"button_pressed":1,"time_out":false,"dwell_time":81.22412109375,"response_time":1684436803821.11},{"trial":4,"action":1,"button_pressed":2,"time_out":false,"dwell_time":64.653076171875,"response_time":1684436804321.11},{"trial":4,"action":1,"button_pressed":8,"time_out":false,"dwell_time":30.994873046875,"response_time":1684436805220.59},{"trial":4,"action":1,"button_pressed":6,"time_out":false,"dwell_time":47.77294921875,"response_time":1684436805821.16},{"trial":4,"action":1,"button_pressed":11,"time_out":false,"dwell_time":48.35498046875,"response_time":1684436806171.08},{"trial":4,"action":9,"button_pressed":-1,"time_out":false,"dwell_time":130.56494140625,"response_time":1684436807120.21},{"trial":5,"action":1,"button_pressed":6,"time_out":false,"dwell_time":47.2099609375,"response_time":1684436826547.36},{"trial":5,"action":1,"button_pressed":10,"time_out":false,"dwell_time":47.029052734375,"response_time":1684436826880.29},{"trial":5,"action":1,"button_pressed":11,"time_out":false,"dwell_time":47.7451171875,"response_time":1684436827213.69},{"trial":5,"action":1,"button_pressed":4,"time_out":false,"dwell_time":47.885009765625,"response_time":1684436827614.03},{"trial":5,"action":1,"button_pressed":8,"time_out":false,"dwell_time":46.907958984375,"response_time":1684436827913.21},{"trial":5,"action":1,"button_pressed":3,"time_out":false,"dwell_time":47.703125,"response_time":1684436828247.15},{"trial":5,"action":1,"button_pressed":5,"time_out":false,"dwell_time":47.95703125,"response_time":1684436829263.58},{"trial":5,"action":9,"button_pressed":-1,"time_out":false,"dwell_time":65.276123046875,"response_time":1684436830596.42},{"trial":6,"action":1,"button_pressed":0,"time_out":false,"dwell_time":81.00390625,"response_time":1684436852572.37},{"trial":6,"action":1,"button_pressed":8,"time_out":false,"dwell_time":63.77392578125,"response_time":1684436853004.58},{"trial":6,"action":1,"button_pressed":6,"time_out":false,"dwell_time":63.79296875,"response_time":1684436853421.89},{"trial":6,"action":1,"button_pressed":5,"time_out":false,"dwell_time":63.510009765625,"response_time":1684436854787.55},{"trial":6,"action":0,"button_pressed":-1,"time_out":false,"dwell_time":80.43505859375,"response_time":1684436858686.55},{"trial":6,"action":1,"button_pressed":0,"time_out":false,"dwell_time":47.876953125,"response_time":1684436859353.18},{"trial":6,"action":1,"button_pressed":8,"time_out":false,"dwell_time":64.5830078125,"response_time":1684436859719.91},{"trial":6,"action":1,"button_pressed":6,"time_out":false,"dwell_time":47.8701171875,"response_time":1684436860052.99},{"trial":6,"action":1,"button_pressed":5,"time_out":false,"dwell_time":81.31494140625,"response_time":1684436861019.41},{"trial":6,"action":1,"button_pressed":9,"time_out":false,"dwell_time":47.760009765625,"response_time":1684436862902.78},{"trial":6,"action":1,"button_pressed":3,"time_out":false,"dwell_time":47.162841796875,"response_time":1684436863235.16},{"trial":6,"action":1,"button_pressed":4,"time_out":false,"dwell_time":31.373046875,"response_time":1684436863535.11},{"trial":6,"action":1,"button_pressed":4,"time_out":false,"dwell_time":64.796142578125,"response_time":1684436864701.41},{"trial":6,"action":1,"button_pressed":7,"time_out":false,"dwell_time":47.843994140625,"response_time":1684436867050.77},{"trial":6,"action":0,"button_pressed":-1,"time_out":false,"dwell_time":81.68798828125,"response_time":1684436868483.92},{"trial":6,"action":1,"button_pressed":0,"time_out":false,"dwell_time":64.60693359375,"response_time":1684436869666.56},{"trial":6,"action":1,"button_pressed":8,"time_out":false,"dwell_time":64.0400390625,"response_time":1684436870066.59},{"trial":6,"action":1,"button_pressed":6,"time_out":false,"dwell_time":30.5361328125,"response_time":1684436870433.1},{"trial":6,"action":1,"button_pressed":5,"time_out":false,"dwell_time":47.0771484375,"response_time":1684436870915.94},{"trial":6,"action":1,"button_pressed":9,"time_out":false,"dwell_time":47.258056640625,"response_time":1684436871582.59},{"trial":6,"action":1,"button_pressed":7,"time_out":false,"dwell_time":47.18798828125,"response_time":1684436876064.43},{"trial":6,"action":1,"button_pressed":2,"time_out":false,"dwell_time":81.47900390625,"response_time":1684436878297.32},{"trial":6,"action":1,"button_pressed":4,"time_out":false,"dwell_time":47.837890625,"response_time":1684436878997.37},{"trial":6,"action":9,"button_pressed":-1,"time_out":false,"dwell_time":66.286865234375,"response_time":1684436879581.63},{"trial":7,"action":1,"button_pressed":8,"time_out":false,"dwell_time":63.930908203125,"response_time":1684436901739.69},{"trial":7,"action":1,"button_pressed":9,"time_out":false,"dwell_time":47.571044921875,"response_time":1684436902189.88},{"trial":7,"action":1,"button_pressed":10,"time_out":false,"dwell_time":81.380859375,"response_time":1684436902539.43},{"trial":7,"action":1,"button_pressed":2,"time_out":false,"dwell_time":47.281982421875,"response_time":1684436903005.65},{"trial":7,"action":1,"button_pressed":3,"time_out":false,"dwell_time":81.557861328125,"response_time":1684436903522.45},{"trial":7,"action":1,"button_pressed":1,"time_out":false,"dwell_time":63.346923828125,"response_time":1684436903905.19},{"trial":7,"action":1,"button_pressed":0,"time_out":false,"dwell_time":98.123046875,"response_time":1684436904555.33},{"trial":7,"action":1,"button_pressed":5,"time_out":false,"dwell_time":64.256103515625,"response_time":1684436905588.48},{"trial":7,"action":9,"button_pressed":-1,"time_out":false,"dwell_time":64.19287109375,"response_time":1684436906238.12},{"trial":8,"action":1,"button_pressed":2,"time_out":false,"dwell_time":114.817138671875,"response_time":1684436923482.8},{"trial":8,"action":1,"button_pressed":10,"time_out":false,"dwell_time":81.0478515625,"response_time":1684436923915.53},{"trial":8,"action":1,"button_pressed":9,"time_out":false,"dwell_time":81.5439453125,"response_time":1684436925082.06},{"trial":8,"action":1,"button_pressed":5,"time_out":false,"dwell_time":63.41015625,"response_time":1684436925714.56},{"trial":8,"action":1,"button_pressed":11,"time_out":false,"dwell_time":80.630126953125,"response_time":1684436926264.92},{"trial":8,"action":1,"button_pressed":0,"time_out":false,"dwell_time":80.656005859375,"response_time":1684436926848},{"trial":8,"action":9,"button_pressed":-1,"time_out":false,"dwell_time":131.972900390625,"response_time":1684436929264.51},{"trial":9,"action":1,"button_pressed":8,"time_out":false,"dwell_time":81.031982421875,"response_time":1684436946958.49},{"trial":9,"action":1,"button_pressed":0,"time_out":false,"dwell_time":114.863037109375,"response_time":1684436947708.11},{"trial":9,"action":1,"button_pressed":1,"time_out":false,"dwell_time":64.427978515625,"response_time":1684436948341.15},{"trial":9,"action":1,"button_pressed":9,"time_out":false,"dwell_time":64.01904296875,"response_time":1684436949040.34},{"trial":9,"action":1,"button_pressed":4,"time_out":false,"dwell_time":64.3671875,"response_time":1684436949640.21},{"trial":9,"action":1,"button_pressed":5,"time_out":false,"dwell_time":47.360107421875,"response_time":1684436950240.4},{"trial":9,"action":9,"button_pressed":-1,"time_out":false,"dwell_time":98.6630859375,"response_time":1684436951723.77}]}