Audio_Only_Files,Video_Files,Original_Word_List,noiseLevelCode,conditionCodes,noiseLevelFile1,noiseLevelFile2,InstrTextVar,targetSpeakerName,targetSpeakerEccen,targetSpkrChannel,targetSpkrSound,targetVisualDegrees,visStimLoc,visStimLoc2,visStimW,visStimH,practiceTrials.thisRepN,practiceTrials.thisTrialN,practiceTrials.thisN,practiceTrials.thisIndex,trials.thisRepN,trials.thisTrialN,trials.thisN,trials.thisIndex,audLocalLoop.thisRepN,audLocalLoop.thisTrialN,audLocalLoop.thisN,audLocalLoop.thisIndex,visualLocalLoop.thisRepN,visualLocalLoop.thisTrialN,visualLocalLoop.thisN,visualLocalLoop.thisIndex,letsGoAlready.keys,letsGoAlready.rt,letsGoAlready.started,letsGoAlready.stopped,text_2.started,text_2.stopped,text_3.started,text_3.stopped,key_resp_2.keys,key_resp_2.rt,key_resp_2.started,key_resp_2.stopped,text_5.started,text_5.stopped,fixCross.started,fixCross.stopped,fixCross2.started,fixCross2.stopped,answerPrompt.started,answerPrompt.stopped,getAnswer.text,getAnswer.started,getAnswer.stopped,goToNext.keys,goToNext.rt,goToNext.started,goToNext.stopped,stretchBreakTxrt.started,stretchBreakTxrt.stopped,key_resp_3.keys,key_resp_3.rt,key_resp_3.started,key_resp_3.stopped,letsGoLocal.keys,letsGoLocal.rt,letsGoLocal.started,letsGoLocal.stopped,text_4.started,text_4.stopped,prepFixTxt.started,prepFixTxt.stopped,prepFixTxt_2.started,prepFixTxt_2.stopped,respPromptLocal.started,respPromptLocal.stopped,slider.response,slider.rt,slider.started,slider.stopped,letsGoLocal_2.keys,letsGoLocal_2.rt,letsGoLocal_2.started,letsGoLocal_2.stopped,text_7.started,text_7.stopped,prepFixTxt_3.started,prepFixTxt_3.stopped,grating.started,grating.stopped,exitTxt.started,exitTxt.stopped,key_resp.keys,key_resp.rt,key_resp.started,key_resp.stopped,participant,session,date,expName,psychopyVersion,frameRate,
,,,,,,,,,,,,,,,,,,,,,,,,,,,,,,,,,space,169.5987180450029,16.92292547699617,None,,,,,,,,,,,,,,,,,,,,,,,,,,,,,,,,,,,,,,,,,,,,,,,,,,,,,,,,,,,,,,101,001,2023_May_18_1313,SpeechDraft1Carolyn_lessNoise_PlusLocalization,2021.2.3,60.02201583428156,
,,,,,,,,,,,,,,,,,,,,,,,,,,,,,,,,,,,,,16.92292547699617,None,186.6396052659984,None,space,9.658636191998085,186.82288200900075,None,,,,,,,,,,,,,,,,,,,,,,,,,,,,,,,,,,,,,,,,,,,,,,,,,,,,,,101,001,2023_May_18_1313,SpeechDraft1Carolyn_lessNoise_PlusLocalization,2021.2.3,60.02201583428156,
ash.wav,ash.mpg,ash,1,A,Pink_Noise_1_1.wav,Pink_Noise_1_2.wav,"This is an example of an

AUDIO trial",,,,,,,,,,0,0,0,0,,,,,,,,,,,,,,,,,,,,,,,,,196.5395581759949,None,197.5229166309946,None,200.80599544099823,None,202.1895148170006,None,ash,202.1895148170006,None,return,10.624508651002543,202.27298470000096,None,,,,,,,,,,,,,,,,,,,,,,,,,,,,,,,,,,,,,,,101,001,2023_May_18_1313,SpeechDraft1Carolyn_lessNoise_PlusLocalization,2021.2.3,60.02201583428156,
ash.wav,ash.mpg,ash,1,AV,Pink_Noise_1_1.wav,Pink_Noise_1_2.wav,"This is an example of an

AUDIO + VIDEO  trial",,,,,,,,,,0,1,1,1,,,,,,,,,,,,,,,,,,,,,,,,,212.9394122119993,None,213.93959489899862,None,215.42285702699883,None,216.80638393299887,None,"ash
",216.80638393299887,None,return,2.3198485560060362,216.88964715899783,None,,,,,,,,,,,,,,,,,,,,,,,,,,,,,,,,,,,,,,,101,001,2023_May_18_1313,SpeechDraft1Carolyn_lessNoise_PlusLocalization,2021.2.3,60.02201583428156,
,,,,,,,,,,,,,,,,,,,,,,,,,,,,,,,,,,,,,,,,,,,,,,,,,,,,,,,,,,,,219.2561746289939,None,space,10.985921916006191,219.4396295339975,None,,,,,,,,,,,,,,,,,,,,,,,,,,,,,,,,,101,001,2023_May_18_1313,SpeechDraft1Carolyn_lessNoise_PlusLocalization,2021.2.3,60.02201583428156,
boost.wav,boost.mpg,boost,2,AV,Pink_Noise_2_1.wav,Pink_Noise_2_2.wav,,,,,,,,,,,,,,,0,0,0,78,,,,,,,,,,,,,,,,,,,,,,,230.4893566959945,None,231.9728101379951,None,233.35623516699707,None,boost,233.35623516699707,None,return,2.865948065998964,233.43963062999683,None,,,,,,,,,,,,,,,,,,,,,,,,,,,,,,,,,,,,,,,101,001,2023_May_18_1313,SpeechDraft1Carolyn_lessNoise_PlusLocalization,2021.2.3,60.02201583428156,
led.wav,led.mpg,led,1,AV,Pink_Noise_1_1.wav,Pink_Noise_1_2.wav,,,,,,,,,,,,,,,0,1,1,92,,,,,,,,,,,,,,,,,,,,,,,236.32300853399647,None,237.82282678000047,None,239.20635386499634,None,lead,239.20635386499634,None,return,4.047871363000013,239.2896555469997,None,,,,,,,,,,,,,,,,,,,,,,,,,,,,,,,,,,,,,,,101,001,2023_May_18_1313,SpeechDraft1Carolyn_lessNoise_PlusLocalization,2021.2.3,60.02201583428156,
cap.wav,cap.mpg,cap,6,A,Pink_Noise_6_1.wav,Pink_Noise_6_2.wav,,,,,,,,,,,,,,,0,2,2,23,,,,,,,,,,,,,,,,,,,,,,,243.35643128499942,None,244.83938832499553,None,246.22307129600085,None,cat,246.22307129600085,None,return,2.487070358998608,246.3064164469979,None,,,,,,,,,,,,,,,,,,,,,,,,,,,,,,,,,,,,,,,101,001,2023_May_18_1313,SpeechDraft1Carolyn_lessNoise_PlusLocalization,2021.2.3,60.02201583428156,
drab.wav,drab.mpg,drab,6,AV,Pink_Noise_6_1.wav,Pink_Noise_6_2.wav,,,,,,,,,,,,,,,0,3,3,116,,,,,,,,,,,,,,,,,,,,,,,248.82305482599622,None,250.32284960700053,None,251.70633842399548,None,"drag
",251.70633842399548,None,return,3.219787729998643,251.78972402399813,None,,,,,,,,,,,,,,,,,,,,,,,,,,,,,,,,,,,,,,,101,001,2023_May_18_1313,SpeechDraft1Carolyn_lessNoise_PlusLocalization,2021.2.3,60.02201583428156,
croak.wav,croak.mpg,croak,6,AV,Pink_Noise_6_1.wav,Pink_Noise_6_2.wav,,,,,,,,,,,,,,,0,4,4,85,,,,,,,,,,,,,,,,,,,,,,,255.0398030169963,None,256.5227385029939,None,257.9064874639953,None,coat,257.9064874639953,None,return,2.7158038950001355,257.98974241299584,None,,,,,,,,,,,,,,,,,,,,,,,,,,,,,,,,,,,,,,,101,001,2023_May_18_1313,SpeechDraft1Carolyn_lessNoise_PlusLocalization,2021.2.3,60.02201583428156,
bin.wav,bin.mpg,bin,3,A,Pink_Noise_3_1.wav,Pink_Noise_3_2.wav,,,,,,,,,,,,,,,0,5,5,10,,,,,,,,,,,,,,,,,,,,,,,260.7230324810007,None,262.2062243229957,None,263.5897925600002,None,"bid
",263.5897925600002,None,return,2.3524850719986716,263.67301806699834,None,,,,,,,,,,,,,,,,,,,,,,,,,,,,,,,,,,,,,,,101,001,2023_May_18_1313,SpeechDraft1Carolyn_lessNoise_PlusLocalization,2021.2.3,60.02201583428156,
glass.wav,glass.mpg,glass,2,A,Pink_Noise_2_1.wav,Pink_Noise_2_2.wav,,,,,,,,,,,,,,,0,6,6,50,,,,,,,,,,,,,,,,,,,,,,,266.0563924129965,None,267.55606907799665,None,268.93971144299576,None,glass,268.93971144299576,None,return,4.3225408119978965,269.02306204499473,None,,,,,,,,,,,,,,,,,,,,,,,,,,,,,,,,,,,,,,,101,001,2023_May_18_1313,SpeechDraft1Carolyn_lessNoise_PlusLocalization,2021.2.3,60.02201583428156,
glare.wav,glare.mpg,glare,5,A,Pink_Noise_5_1.wav,Pink_Noise_5_2.wav,,,,,,,,,,,,,,,0,7,7,46,,,,,,,,,,,,,,,,,,,,,,,273.3730535909999,None,274.8727122499986,None,276.25650488300016,None,lead,276.25650488300016,None,return,9.557621257998107,276.3398832909952,None,,,,,,,,,,,,,,,,,,,,,,,,,,,,,,,,,,,,,,,101,001,2023_May_18_1313,SpeechDraft1Carolyn_lessNoise_PlusLocalization,2021.2.3,60.02201583428156,
fresh.wav,fresh.mpg,fresh,3,A,Pink_Noise_3_1.wav,Pink_Noise_3_2.wav,,,,,,,,,,,,,,,0,8,8,36,,,,,,,,,,,,,,,,,,,,,,,285.92310571599955,None,287.42289646999416,None,288.8064879749945,None,brush,288.8064879749945,None,return,6.175770278998243,288.889730719995,None,,,,,,,,,,,,,,,,,,,,,,,,,,,,,,,,,,,,,,,101,001,2023_May_18_1313,SpeechDraft1Carolyn_lessNoise_PlusLocalization,2021.2.3,60.02201583428156,
fowl.wav,fowl.mpg,fowl,5,AV,Pink_Noise_5_1.wav,Pink_Noise_5_2.wav,,,,,,,,,,,,,,,0,9,9,76,,,,,,,,,,,,,,,,,,,,,,,295.0897692699946,None,296.58952415199747,None,297.9729825299946,None,foam,297.9729825299946,None,return,6.329071407999436,298.05643129899545,None,,,,,,,,,,,,,,,,,,,,,,,,,,,,,,,,,,,,,,,101,001,2023_May_18_1313,SpeechDraft1Carolyn_lessNoise_PlusLocalization,2021.2.3,60.02201583428156,
flee.wav,flee.mpg,flee,1,A,Pink_Noise_1_1.wav,Pink_Noise_1_2.wav,,,,,,,,,,,,,,,0,10,10,43,,,,,,,,,,,,,,,,,,,,,,,304.4064899869991,None,305.90623930699803,None,307.28967314899637,None,"glee
",307.28967314899637,None,return,3.300466808999772,307.3730372459977,None,,,,,,,,,,,,,,,,,,,,,,,,,,,,,,,,,,,,,,,101,001,2023_May_18_1313,SpeechDraft1Carolyn_lessNoise_PlusLocalization,2021.2.3,60.02201583428156,
coil.wav,coil.mpg,coil,3,A,Pink_Noise_3_1.wav,Pink_Noise_3_2.wav,,,,,,,,,,,,,,,0,11,11,41,,,,,,,,,,,,,,,,,,,,,,,310.70643071599625,None,312.1894870209944,None,313.573165146001,None,quail,313.573165146001,None,return,2.39290214599896,313.65658806099964,None,,,,,,,,,,,,,,,,,,,,,,,,,,,,,,,,,,,,,,,101,001,2023_May_18_1313,SpeechDraft1Carolyn_lessNoise_PlusLocalization,2021.2.3,60.02201583428156,
chain.wav,chain.mpg,chain,5,AV,Pink_Noise_5_1.wav,Pink_Noise_5_2.wav,,,,,,,,,,,,,,,0,12,12,97,,,,,,,,,,,,,,,,,,,,,,,316.07319939599984,None,317.5563639569955,None,318.93974625899864,None,"chaim
",318.93974625899864,None,return,5.618521706004685,319.02298505199724,None,,,,,,,,,,,,,,,,,,,,,,,,,,,,,,,,,,,,,,,101,001,2023_May_18_1313,SpeechDraft1Carolyn_lessNoise_PlusLocalization,2021.2.3,60.02201583428156,
funk.wav,funk.mpg,funk,5,AV,Pink_Noise_5_1.wav,Pink_Noise_5_2.wav,,,,,,,,,,,,,,,0,13,13,68,,,,,,,,,,,,,,,,,,,,,,,324.67323492699506,None,326.1565792209949,None,327.53974472999835,None,fog,327.53974472999835,None,return,8.194381943001645,327.62312736699823,None,,,,,,,,,,,,,,,,,,,,,,,,,,,,,,,,,,,,,,,101,001,2023_May_18_1313,SpeechDraft1Carolyn_lessNoise_PlusLocalization,2021.2.3,60.02201583428156,
fur.wav,fur.mpg,fur,4,A,Pink_Noise_4_1.wav,Pink_Noise_4_2.wav,,,,,,,,,,,,,,,0,14,14,14,,,,,,,,,,,,,,,,,,,,,,,335.83986688299774,None,337.3399134919964,None,338.72325263799576,None,bird,338.72325263799576,None,return,3.9310742509987904,338.80644843099435,None,,,,,,,,,,,,,,,,,,,,,,,,,,,,,,,,,,,,,,,101,001,2023_May_18_1313,SpeechDraft1Carolyn_lessNoise_PlusLocalization,2021.2.3,60.02201583428156,
coin.wav,coin.mpg,coin,4,A,Pink_Noise_4_1.wav,Pink_Noise_4_2.wav,,,,,,,,,,,,,,,0,15,15,45,,,,,,,,,,,,,,,,,,,,,,,342.7565028629979,None,344.25622506999935,None,345.6398258639965,None,coil,345.6398258639965,None,return,7.726390868003364,345.7231029819959,None,,,,,,,,,,,,,,,,,,,,,,,,,,,,,,,,,,,,,,,101,001,2023_May_18_1313,SpeechDraft1Carolyn_lessNoise_PlusLocalization,2021.2.3,60.02201583428156,
cord.wav,cord.mpg,cord,3,AV,Pink_Noise_3_1.wav,Pink_Noise_3_2.wav,,,,,,,,,,,,,,,0,16,16,84,,,,,,,,,,,,,,,,,,,,,,,353.47325094400003,None,354.9729640459991,None,356.35640353399504,None,cord,356.35640353399504,None,return,5.561606695999217,356.43991053699574,None,,,,,,,,,,,,,,,,,,,,,,,,,,,,,,,,,,,,,,,101,001,2023_May_18_1313,SpeechDraft1Carolyn_lessNoise_PlusLocalization,2021.2.3,60.02201583428156,
fuse.wav,fuse.mpg,fuse,6,AV,Pink_Noise_6_1.wav,Pink_Noise_6_2.wav,,,,,,,,,,,,,,,0,17,17,65,,,,,,,,,,,,,,,,,,,,,,,362.0232227019951,None,363.5229911119968,None,364.90635032599675,None,"fuse
",364.90635032599675,None,return,1.8677029620012036,364.98980598199705,None,,,,,,,,,,,,,,,,,,,,,,,,,,,,,,,,,,,,,,,101,001,2023_May_18_1313,SpeechDraft1Carolyn_lessNoise_PlusLocalization,2021.2.3,60.02201583428156,
bias.wav,bias.mpg,bias,4,AV,Pink_Noise_4_1.wav,Pink_Noise_4_2.wav,,,,,,,,,,,,,,,0,18,18,104,,,,,,,,,,,,,,,,,,,,,,,366.88979501200083,None,368.3895243939987,None,369.77301071099646,None,mice,369.77301071099646,None,return,3.009018933000334,369.8564770259982,None,,,,,,,,,,,,,,,,,,,,,,,,,,,,,,,,,,,,,,,101,001,2023_May_18_1313,SpeechDraft1Carolyn_lessNoise_PlusLocalization,2021.2.3,60.02201583428156,
wild.wav,wild.mpg,wild,3,AV,Pink_Noise_3_1.wav,Pink_Noise_3_2.wav,,,,,,,,,,,,,,,0,19,19,99,,,,,,,,,,,,,,,,,,,,,,,372.88988540900027,None,374.3896112349976,None,375.7731273229947,None,wild,375.7731273229947,None,return,2.9449798369969358,375.85652125199704,None,,,,,,,,,,,,,,,,,,,,,,,,,,,,,,,,,,,,,,,101,001,2023_May_18_1313,SpeechDraft1Carolyn_lessNoise_PlusLocalization,2021.2.3,60.02201583428156,
core.wav,core.mpg,core,2,AV,Pink_Noise_2_1.wav,Pink_Noise_2_2.wav,,,,,,,,,,,,,,,0,20,20,110,,,,,,,,,,,,,,,,,,,,,,,378.82322294299956,None,380.3073011239976,None,381.6898979359976,None,core,381.6898979359976,None,return,5.828285233001225,381.7732183609987,None,,,,,,,,,,,,,,,,,,,,,,,,,,,,,,,,,,,,,,,101,001,2023_May_18_1313,SpeechDraft1Carolyn_lessNoise_PlusLocalization,2021.2.3,60.02201583428156,
tank.wav,tank.mpg,tank,1,A,Pink_Noise_1_1.wav,Pink_Noise_1_2.wav,,,,,,,,,,,,,,,0,21,21,48,,,,,,,,,,,,,,,,,,,,,,,387.62319472499803,None,389.12295228699804,None,390.50658176099387,None,"teg
",390.50658176099387,None,return,6.403472428995883,390.59002349799994,None,,,,,,,,,,,,,,,,,,,,,,,,,,,,,,,,,,,,,,,101,001,2023_May_18_1313,SpeechDraft1Carolyn_lessNoise_PlusLocalization,2021.2.3,60.02201583428156,
rent.wav,rent.mpg,rent,6,A,Pink_Noise_6_1.wav,Pink_Noise_6_2.wav,,,,,,,,,,,,,,,0,22,22,0,,,,,,,,,,,,,,,,,,,,,,,397.0232179539962,None,398.52303681699414,None,399.9065754359981,None,rich,399.9065754359981,None,return,11.611663522002345,399.98984914799803,None,,,,,,,,,,,,,,,,,,,,,,,,,,,,,,,,,,,,,,,101,001,2023_May_18_1313,SpeechDraft1Carolyn_lessNoise_PlusLocalization,2021.2.3,60.02201583428156,
cheer.wav,cheer.mpg,cheer,4,AV,Pink_Noise_4_1.wav,Pink_Noise_4_2.wav,,,,,,,,,,,,,,,0,23,23,72,,,,,,,,,,,,,,,,,,,,,,,411.6233081639948,None,413.12302934099716,None,414.506526870995,None,shield,414.506526870995,None,return,6.9954580849953345,414.590046309997,None,,,,,,,,,,,,,,,,,,,,,,,,,,,,,,,,,,,,,,,101,001,2023_May_18_1313,SpeechDraft1Carolyn_lessNoise_PlusLocalization,2021.2.3,60.02201583428156,
cone.wav,cone.mpg,cone,4,AV,Pink_Noise_4_1.wav,Pink_Noise_4_2.wav,,,,,,,,,,,,,,,0,24,24,86,,,,,,,,,,,,,,,,,,,,,,,421.6068248299998,None,423.10630367799604,None,424.4899050899985,None,comb,424.4899050899985,None,return,5.204298553006083,424.57320847699884,None,,,,,,,,,,,,,,,,,,,,,,,,,,,,,,,,,,,,,,,101,001,2023_May_18_1313,SpeechDraft1Carolyn_lessNoise_PlusLocalization,2021.2.3,60.02201583428156,
fast.wav,fast.mpg,fast,2,A,Pink_Noise_2_1.wav,Pink_Noise_2_2.wav,,,,,,,,,,,,,,,0,25,25,29,,,,,,,,,,,,,,,,,,,,,,,429.806513370997,None,431.30641191500035,None,432.6899787779985,None,vast,432.6899787779985,None,return,2.604198164000991,432.7732804769985,None,,,,,,,,,,,,,,,,,,,,,,,,,,,,,,,,,,,,,,,101,001,2023_May_18_1313,SpeechDraft1Carolyn_lessNoise_PlusLocalization,2021.2.3,60.02201583428156,
gain.wav,gain.mpg,gain,4,AV,Pink_Noise_4_1.wav,Pink_Noise_4_2.wav,,,,,,,,,,,,,,,0,26,26,88,,,,,,,,,,,,,,,,,,,,,,,435.4066085539962,None,436.90647667099984,None,438.2898103080006,None,game,438.2898103080006,None,return,6.676148643004126,438.37337725299585,None,,,,,,,,,,,,,,,,,,,,,,,,,,,,,,,,,,,,,,,101,001,2023_May_18_1313,SpeechDraft1Carolyn_lessNoise_PlusLocalization,2021.2.3,60.02201583428156,
bench.wav,bench.mpg,bench,4,A,Pink_Noise_4_1.wav,Pink_Noise_4_2.wav,,,,,,,,,,,,,,,0,27,27,4,,,,,,,,,,,,,,,,,,,,,,,445.07333954399655,None,446.57304943099734,None,447.95660173500073,None,fish,447.95660173500073,None,return,3.6890006140019977,448.04067937999935,None,,,,,,,,,,,,,,,,,,,,,,,,,,,,,,,,,,,,,,,101,001,2023_May_18_1313,SpeechDraft1Carolyn_lessNoise_PlusLocalization,2021.2.3,60.02201583428156,
dual.wav,dual.mpg,dual,2,AV,Pink_Noise_2_1.wav,Pink_Noise_2_2.wav,,,,,,,,,,,,,,,0,28,28,82,,,,,,,,,,,,,,,,,,,,,,,451.7567812799971,None,453.25647060399933,None,454.63988270999835,None,dual,454.63988270999835,None,return,6.958261170999322,454.72323972199956,None,,,,,,,,,,,,,,,,,,,,,,,,,,,,,,,,,,,,,,,101,001,2023_May_18_1313,SpeechDraft1Carolyn_lessNoise_PlusLocalization,2021.2.3,60.02201583428156,
barge.wav,barge.mpg,barge,4,A,Pink_Noise_4_1.wav,Pink_Noise_4_2.wav,,,,,,,,,,,,,,,0,29,29,56,,,,,,,,,,,,,,,,,,,,,,,461.70675032299914,None,463.20647832499526,None,464.58986919900053,None,"large
",464.58986919900053,None,return,7.120219620002899,464.6732833299975,None,,,,,,,,,,,,,,,,,,,,,,,,,,,,,,,,,,,,,,,101,001,2023_May_18_1313,SpeechDraft1Carolyn_lessNoise_PlusLocalization,2021.2.3,60.02201583428156,
chill.wav,chill.mpg,chill,4,A,Pink_Noise_4_1.wav,Pink_Noise_4_2.wav,,,,,,,,,,,,,,,0,30,30,51,,,,,,,,,,,,,,,,,,,,,,,471.8234880050004,None,473.32311045399547,None,474.7068386989995,None,"chimp
",474.7068386989995,None,return,6.651499872998102,474.7899979079957,None,,,,,,,,,,,,,,,,,,,,,,,,,,,,,,,,,,,,,,,101,001,2023_May_18_1313,SpeechDraft1Carolyn_lessNoise_PlusLocalization,2021.2.3,60.02201583428156,
grunt.wav,grunt.mpg,grunt,5,A,Pink_Noise_5_1.wav,Pink_Noise_5_2.wav,,,,,,,,,,,,,,,0,31,31,37,,,,,,,,,,,,,,,,,,,,,,,481.47337168399827,None,482.97312297499593,None,484.35669011299615,None,"brush
",484.35669011299615,None,return,8.033440158003941,484.44006882999383,None,,,,,,,,,,,,,,,,,,,,,,,,,,,,,,,,,,,,,,,101,001,2023_May_18_1313,SpeechDraft1Carolyn_lessNoise_PlusLocalization,2021.2.3,60.02201583428156,
beach.wav,beach.mpg,beach,4,AV,Pink_Noise_4_1.wav,Pink_Noise_4_2.wav,,,,,,,,,,,,,,,0,32,32,71,,,,,,,,,,,,,,,,,,,,,,,492.5068448499951,None,494.00646731699817,None,495.3899207279974,None,"beach
",495.3899207279974,None,return,2.9841573779995088,495.4733577980005,None,,,,,,,,,,,,,,,,,,,,,,,,,,,,,,,,,,,,,,,101,001,2023_May_18_1313,SpeechDraft1Carolyn_lessNoise_PlusLocalization,2021.2.3,60.02201583428156,
gift.wav,gift.mpg,gift,1,AV,Pink_Noise_1_1.wav,Pink_Noise_1_2.wav,,,,,,,,,,,,,,,0,33,33,108,,,,,,,,,,,,,,,,,,,,,,,498.4900934909965,None,499.9898079859995,None,501.37334037300025,None,gift,501.37334037300025,None,return,4.824829749995843,501.4566962079989,None,,,,,,,,,,,,,,,,,,,,,,,,,,,,,,,,,,,,,,,101,001,2023_May_18_1313,SpeechDraft1Carolyn_lessNoise_PlusLocalization,2021.2.3,60.02201583428156,
base.wav,base.mpg,base,1,A,Pink_Noise_1_1.wav,Pink_Noise_1_2.wav,,,,,,,,,,,,,,,0,34,34,11,,,,,,,,,,,,,,,,,,,,,,,506.3067841719967,None,507.8064852719981,None,509.1900851179962,None,"base
",509.1900851179962,None,return,2.9841805219984963,509.27331944699836,None,,,,,,,,,,,,,,,,,,,,,,,,,,,,,,,,,,,,,,,101,001,2023_May_18_1313,SpeechDraft1Carolyn_lessNoise_PlusLocalization,2021.2.3,60.02201583428156,
choir.wav,choir.mpg,choir,1,A,Pink_Noise_1_1.wav,Pink_Noise_1_2.wav,,,,,,,,,,,,,,,0,35,35,15,,,,,,,,,,,,,,,,,,,,,,,512.2899918549956,None,513.7899262110004,None,515.1733775850007,None,square,515.1733775850007,None,return,10.064854218006076,515.2567207249958,None,,,,,,,,,,,,,,,,,,,,,,,,,,,,,,,,,,,,,,,101,001,2023_May_18_1313,SpeechDraft1Carolyn_lessNoise_PlusLocalization,2021.2.3,60.02201583428156,
wet.wav,wet.mpg,wet,2,AV,Pink_Noise_2_1.wav,Pink_Noise_2_2.wav,,,,,,,,,,,,,,,0,36,36,93,,,,,,,,,,,,,,,,,,,,,,,525.3401114309963,None,526.8398721829944,None,528.2234127389966,None,"wet
",528.2234127389966,None,return,3.4868278639987693,528.3066775219995,None,,,,,,,,,,,,,,,,,,,,,,,,,,,,,,,,,,,,,,,101,001,2023_May_18_1313,SpeechDraft1Carolyn_lessNoise_PlusLocalization,2021.2.3,60.02201583428156,
truck.wav,truck.mpg,truck,1,AV,Pink_Noise_1_1.wav,Pink_Noise_1_2.wav,,,,,,,,,,,,,,,0,37,37,90,,,,,,,,,,,,,,,,,,,,,,,531.8234630229999,None,533.323114381994,None,534.7068625809989,None,truck,534.7068625809989,None,return,6.6752852279969375,534.7901859810008,None,,,,,,,,,,,,,,,,,,,,,,,,,,,,,,,,,,,,,,,101,001,2023_May_18_1313,SpeechDraft1Carolyn_lessNoise_PlusLocalization,2021.2.3,60.02201583428156,
gone.wav,gone.mpg,gone,4,AV,Pink_Noise_4_1.wav,Pink_Noise_4_2.wav,,,,,,,,,,,,,,,0,38,38,114,,,,,,,,,,,,,,,,,,,,,,,541.4901600209996,None,542.9898842629991,None,544.3733895839978,None,long,544.3733895839978,None,return,5.648847296994063,544.4567304289958,None,,,,,,,,,,,,,,,,,,,,,,,,,,,,,,,,,,,,,,,101,001,2023_May_18_1313,SpeechDraft1Carolyn_lessNoise_PlusLocalization,2021.2.3,60.02201583428156,
blast.wav,blast.mpg,blast,6,A,Pink_Noise_6_1.wav,Pink_Noise_6_2.wav,,,,,,,,,,,,,,,0,39,39,39,,,,,,,,,,,,,,,,,,,,,,,550.1234858069947,None,551.6232360059948,None,553.0066833429955,None,"long
",553.0066833429955,None,return,1.7194223870028509,553.0900943689994,None,,,,,,,,,,,,,,,,,,,,,,,,,,,,,,,,,,,,,,,101,001,2023_May_18_1313,SpeechDraft1Carolyn_lessNoise_PlusLocalization,2021.2.3,60.02201583428156,
fruit.wav,fruit.mpg,fruit,1,A,Pink_Noise_1_1.wav,Pink_Noise_1_2.wav,,,,,,,,,,,,,,,0,40,40,59,,,,,,,,,,,,,,,,,,,,,,,554.8400767329949,None,556.3398981529972,None,557.7234175949998,None,fruit,557.7234175949998,None,return,3.5706096599969896,557.8068849799965,None,,,,,,,,,,,,,,,,,,,,,,,,,,,,,,,,,,,,,,,101,001,2023_May_18_1313,SpeechDraft1Carolyn_lessNoise_PlusLocalization,2021.2.3,60.02201583428156,
dry.wav,dry.mpg,dry,4,A,Pink_Noise_4_1.wav,Pink_Noise_4_2.wav,,,,,,,,,,,,,,,0,41,41,54,,,,,,,,,,,,,,,,,,,,,,,561.4068443699944,None,562.9066452199986,None,564.290170813998,None,drive,564.290170813998,None,return,5.316119538998464,564.3734705509996,None,,,,,,,,,,,,,,,,,,,,,,,,,,,,,,,,,,,,,,,101,001,2023_May_18_1313,SpeechDraft1Carolyn_lessNoise_PlusLocalization,2021.2.3,60.02201583428156,
brain.wav,brain.mpg,brain,4,A,Pink_Noise_4_1.wav,Pink_Noise_4_2.wav,,,,,,,,,,,,,,,0,42,42,49,,,,,,,,,,,,,,,,,,,,,,,569.7069041799987,None,571.206560188999,None,572.5900708469999,None,bring,572.5900708469999,None,return,6.8961204910010565,572.6734091269973,None,,,,,,,,,,,,,,,,,,,,,,,,,,,,,,,,,,,,,,,101,001,2023_May_18_1313,SpeechDraft1Carolyn_lessNoise_PlusLocalization,2021.2.3,60.02201583428156,
fluff.wav,fluff.mpg,fluff,4,A,Pink_Noise_4_1.wav,Pink_Noise_4_2.wav,,,,,,,,,,,,,,,0,43,43,27,,,,,,,,,,,,,,,,,,,,,,,579.5903037099997,None,581.0899242640007,None,582.4734570869987,None,love,582.4734570869987,None,return,1.692611708996992,582.5569255139999,None,,,,,,,,,,,,,,,,,,,,,,,,,,,,,,,,,,,,,,,101,001,2023_May_18_1313,SpeechDraft1Carolyn_lessNoise_PlusLocalization,2021.2.3,60.02201583428156,
teen.wav,teen.mpg,teen,4,A,Pink_Noise_4_1.wav,Pink_Noise_4_2.wav,,,,,,,,,,,,,,,0,44,44,20,,,,,,,,,,,,,,,,,,,,,,,584.2735417899967,None,585.7732424509959,None,587.1568197539964,None,tim,587.1568197539964,None,return,14.473499008003273,587.2401158889988,None,,,,,,,,,,,,,,,,,,,,,,,,,,,,,,,,,,,,,,,101,001,2023_May_18_1313,SpeechDraft1Carolyn_lessNoise_PlusLocalization,2021.2.3,60.02201583428156,
flood.wav,flood.mpg,flood,2,AV,Pink_Noise_2_1.wav,Pink_Noise_2_2.wav,,,,,,,,,,,,,,,0,45,45,111,,,,,,,,,,,,,,,,,,,,,,,601.7402389069975,None,603.2399983779978,None,604.6234780859959,None,fried,604.6234780859959,None,return,8.72664544199506,604.7068636999975,None,,,,,,,,,,,,,,,,,,,,,,,,,,,,,,,,,,,,,,,101,001,2023_May_18_1313,SpeechDraft1Carolyn_lessNoise_PlusLocalization,2021.2.3,60.02201583428156,
beige.wav,beige.mpg,beige,4,AV,Pink_Noise_4_1.wav,Pink_Noise_4_2.wav,,,,,,,,,,,,,,,0,46,46,113,,,,,,,,,,,,,,,,,,,,,,,613.4568262409957,None,614.956514204001,None,616.340112979,None,beige,616.340112979,None,return,4.993886513999314,616.4236382999952,None,,,,,,,,,,,,,,,,,,,,,,,,,,,,,,,,,,,,,,,101,001,2023_May_18_1313,SpeechDraft1Carolyn_lessNoise_PlusLocalization,2021.2.3,60.02201583428156,
gray.wav,gray.mpg,gray,5,A,Pink_Noise_5_1.wav,Pink_Noise_5_2.wav,,,,,,,,,,,,,,,0,47,47,18,,,,,,,,,,,,,,,,,,,,,,,621.4402161329999,None,622.9400509059997,None,624.3235939989972,None,"red
",624.3235939989972,None,return,0.7866677450001589,624.406843066994,None,,,,,,,,,,,,,,,,,,,,,,,,,,,,,,,,,,,,,,,101,001,2023_May_18_1313,SpeechDraft1Carolyn_lessNoise_PlusLocalization,2021.2.3,60.02201583428156,
cape.wav,cape.mpg,cape,1,A,Pink_Noise_1_1.wav,Pink_Noise_1_2.wav,,,,,,,,,,,,,,,0,48,48,6,,,,,,,,,,,,,,,,,,,,,,,625.2237008509983,None,626.723460975998,None,628.1069095429993,None,cape,628.1069095429993,None,return,1.1312537949997932,628.1902219830008,None,,,,,,,,,,,,,,,,,,,,,,,,,,,,,,,,,,,,,,,101,001,2023_May_18_1313,SpeechDraft1Carolyn_lessNoise_PlusLocalization,2021.2.3,60.02201583428156,
bay.wav,bay.mpg,bay,5,A,Pink_Noise_5_1.wav,Pink_Noise_5_2.wav,,,,,,,,,,,,,,,0,49,49,32,,,,,,,,,,,,,,,,,,,,,,,629.3403494939994,None,630.8399850360001,None,632.2234841769969,None,"beign
",632.2234841769969,None,return,3.8705318909997004,632.306960902999,None,,,,,,,,,,,,,,,,,,,,,,,,,,,,,,,,,,,,,,,101,001,2023_May_18_1313,SpeechDraft1Carolyn_lessNoise_PlusLocalization,2021.2.3,60.02201583428156,
bulb.wav,bulb.mpg,bulb,1,AV,Pink_Noise_1_1.wav,Pink_Noise_1_2.wav,,,,,,,,,,,,,,,0,50,50,103,,,,,,,,,,,,,,,,,,,,,,,636.2068984479993,None,637.7067359399953,None,639.090197655998,None,bulb,639.090197655998,None,return,4.556107340999006,639.173557629998,None,,,,,,,,,,,,,,,,,,,,,,,,,,,,,,,,,,,,,,,101,001,2023_May_18_1313,SpeechDraft1Carolyn_lessNoise_PlusLocalization,2021.2.3,60.02201583428156,
dash.wav,dash.mpg,dash,3,AV,Pink_Noise_3_1.wav,Pink_Noise_3_2.wav,,,,,,,,,,,,,,,0,51,51,63,,,,,,,,,,,,,,,,,,,,,,,643.7568731169958,None,645.2567325769996,None,646.6401923219964,None,dash,646.6401923219964,None,return,5.477958361996571,646.7235344759974,None,,,,,,,,,,,,,,,,,,,,,,,,,,,,,,,,,,,,,,,101,001,2023_May_18_1313,SpeechDraft1Carolyn_lessNoise_PlusLocalization,2021.2.3,60.02201583428156,
globe.wav,globe.mpg,globe,1,AV,Pink_Noise_1_1.wav,Pink_Noise_1_2.wav,,,,,,,,,,,,,,,0,52,52,107,,,,,,,,,,,,,,,,,,,,,,,652.2235978589961,None,653.7233070859947,None,655.1069995759972,None,globe,655.1069995759972,None,return,8.811141592996137,655.1903438759982,None,,,,,,,,,,,,,,,,,,,,,,,,,,,,,,,,,,,,,,,101,001,2023_May_18_1313,SpeechDraft1Carolyn_lessNoise_PlusLocalization,2021.2.3,60.02201583428156,
gab.wav,gab.mpg,gab,6,A,Pink_Noise_6_1.wav,Pink_Noise_6_2.wav,,,,,,,,,,,,,,,0,53,53,3,,,,,,,,,,,,,,,,,,,,,,,664.0235594429978,None,665.5233712599947,None,666.9070623959997,None,water,666.9070623959997,None,return,1.9312344000063604,666.9902822489967,None,,,,,,,,,,,,,,,,,,,,,,,,,,,,,,,,,,,,,,,101,001,2023_May_18_1313,SpeechDraft1Carolyn_lessNoise_PlusLocalization,2021.2.3,60.02201583428156,
phase.wav,phase.mpg,phase,5,AV,Pink_Noise_5_1.wav,Pink_Noise_5_2.wav,,,,,,,,,,,,,,,0,54,54,87,,,,,,,,,,,,,,,,,,,,,,,668.9403218149964,None,670.4400527409962,None,671.8234759979969,None,face,671.8234759979969,None,return,1.1745981389976805,671.9068944579994,None,,,,,,,,,,,,,,,,,,,,,,,,,,,,,,,,,,,,,,,101,001,2023_May_18_1313,SpeechDraft1Carolyn_lessNoise_PlusLocalization,2021.2.3,60.02201583428156,
bye.wav,bye.mpg,bye,2,A,Pink_Noise_2_1.wav,Pink_Noise_2_2.wav,,,,,,,,,,,,,,,0,55,55,30,,,,,,,,,,,,,,,,,,,,,,,673.107022133001,None,674.6065935079969,None,675.9902573159998,None,five,675.9902573159998,None,return,6.016105319002236,676.0735558569941,None,,,,,,,,,,,,,,,,,,,,,,,,,,,,,,,,,,,,,,,101,001,2023_May_18_1313,SpeechDraft1Carolyn_lessNoise_PlusLocalization,2021.2.3,60.02201583428156,
cake.wav,cake.mpg,cake,5,AV,Pink_Noise_5_1.wav,Pink_Noise_5_2.wav,,,,,,,,,,,,,,,0,56,56,70,,,,,,,,,,,,,,,,,,,,,,,682.1069738570004,None,683.6067646070005,None,684.9902686719943,None,cane,684.9902686719943,None,return,9.791848674998619,685.0736547599954,None,,,,,,,,,,,,,,,,,,,,,,,,,,,,,,,,,,,,,,,101,001,2023_May_18_1313,SpeechDraft1Carolyn_lessNoise_PlusLocalization,2021.2.3,60.02201583428156,
green.wav,green.mpg,green,1,A,Pink_Noise_1_1.wav,Pink_Noise_1_2.wav,,,,,,,,,,,,,,,0,57,57,19,,,,,,,,,,,,,,,,,,,,,,,694.8902839619986,None,696.3900520329989,None,697.7735912290009,None,green,697.7735912290009,None,return,10.040615584002808,697.8569597299938,None,,,,,,,,,,,,,,,,,,,,,,,,,,,,,,,,,,,,,,,101,001,2023_May_18_1313,SpeechDraft1Carolyn_lessNoise_PlusLocalization,2021.2.3,60.02201583428156,
ghost.wav,ghost.mpg,ghost,3,AV,Pink_Noise_3_1.wav,Pink_Noise_3_2.wav,,,,,,,,,,,,,,,0,58,58,77,,,,,,,,,,,,,,,,,,,,,,,707.9237162949939,None,709.4234442579982,None,710.8069907379977,None,ghost,710.8069907379977,None,return,6.879100493999431,710.8903967309961,None,,,,,,,,,,,,,,,,,,,,,,,,,,,,,,,,,,,,,,,101,001,2023_May_18_1313,SpeechDraft1Carolyn_lessNoise_PlusLocalization,2021.2.3,60.02201583428156,
strike.wav,strike.mpg,strike,2,A,Pink_Noise_2_1.wav,Pink_Noise_2_2.wav,,,,,,,,,,,,,,,0,59,59,35,,,,,,,,,,,,,,,,,,,,,,,717.7903796350001,None,719.2900529339968,None,720.6736530739945,None,strike,720.6736530739945,None,return,2.580497158000071,720.7570424019941,None,,,,,,,,,,,,,,,,,,,,,,,,,,,,,,,,,,,,,,,101,001,2023_May_18_1313,SpeechDraft1Carolyn_lessNoise_PlusLocalization,2021.2.3,60.02201583428156,
sock.wav,sock.mpg,sock,1,A,Pink_Noise_1_1.wav,Pink_Noise_1_2.wav,,,,,,,,,,,,,,,0,60,60,25,,,,,,,,,,,,,,,,,,,,,,,723.357055815999,None,724.85680899,None,726.2403326679996,None,sock,726.2403326679996,None,return,1.4457917920008185,726.3237027819996,None,,,,,,,,,,,,,,,,,,,,,,,,,,,,,,,,,,,,,,,101,001,2023_May_18_1313,SpeechDraft1Carolyn_lessNoise_PlusLocalization,2021.2.3,60.02201583428156,
eight.wav,eight.mpg,eight,1,A,Pink_Noise_1_1.wav,Pink_Noise_1_2.wav,,,,,,,,,,,,,,,0,61,61,42,,,,,,,,,,,,,,,,,,,,,,,727.7902866349978,None,729.2900814309978,None,730.6737172689973,None,eight,730.6737172689973,None,return,4.412592954002321,730.7569702249966,None,,,,,,,,,,,,,,,,,,,,,,,,,,,,,,,,,,,,,,,101,001,2023_May_18_1313,SpeechDraft1Carolyn_lessNoise_PlusLocalization,2021.2.3,60.02201583428156,
cream.wav,cream.mpg,cream,3,A,Pink_Noise_3_1.wav,Pink_Noise_3_2.wav,,,,,,,,,,,,,,,0,62,62,38,,,,,,,,,,,,,,,,,,,,,,,735.1902973049946,None,736.6903500539993,None,738.0736388250007,None,cream,738.0736388250007,None,return,2.2764550149950082,738.1570369260007,None,,,,,,,,,,,,,,,,,,,,,,,,,,,,,,,,,,,,,,,101,001,2023_May_18_1313,SpeechDraft1Carolyn_lessNoise_PlusLocalization,2021.2.3,60.02201583428156,
drink.wav,drink.mpg,drink,3,AV,Pink_Noise_3_1.wav,Pink_Noise_3_2.wav,,,,,,,,,,,,,,,0,63,63,118,,,,,,,,,,,,,,,,,,,,,,,740.4569405019938,None,741.9568296849975,None,743.340300332995,None,"drink
",743.340300332995,None,return,2.2017477760018664,743.4237374389995,None,,,,,,,,,,,,,,,,,,,,,,,,,,,,,,,,,,,,,,,101,001,2023_May_18_1313,SpeechDraft1Carolyn_lessNoise_PlusLocalization,2021.2.3,60.02201583428156,
broad.wav,broad.mpg,broad,1,AV,Pink_Noise_1_1.wav,Pink_Noise_1_2.wav,,,,,,,,,,,,,,,0,64,64,89,,,,,,,,,,,,,,,,,,,,,,,745.6571915399982,None,747.1567976859951,None,748.5402799149961,None,broad,748.5402799149961,None,return,1.6098101699972176,748.6237022069981,None,,,,,,,,,,,,,,,,,,,,,,,,,,,,,,,,,,,,,,,101,001,2023_May_18_1313,SpeechDraft1Carolyn_lessNoise_PlusLocalization,2021.2.3,60.02201583428156,
fad.wav,fad.mpg,fad,6,A,Pink_Noise_6_1.wav,Pink_Noise_6_2.wav,,,,,,,,,,,,,,,0,65,65,24,,,,,,,,,,,,,,,,,,,,,,,750.2570774699998,None,751.7567845979938,None,753.1403896069969,None,load,753.1403896069969,None,return,3.5458426289987983,753.223677776994,None,,,,,,,,,,,,,,,,,,,,,,,,,,,,,,,,,,,,,,,101,001,2023_May_18_1313,SpeechDraft1Carolyn_lessNoise_PlusLocalization,2021.2.3,60.02201583428156,
buy.wav,buy.mpg,buy,3,A,Pink_Noise_3_1.wav,Pink_Noise_3_2.wav,,,,,,,,,,,,,,,0,66,66,57,,,,,,,,,,,,,,,,,,,,,,,756.7904390429976,None,758.2900948059978,None,759.6738487939947,None,"bye
",759.6738487939947,None,return,2.0363491480020457,759.7571762589941,None,,,,,,,,,,,,,,,,,,,,,,,,,,,,,,,,,,,,,,,101,001,2023_May_18_1313,SpeechDraft1Carolyn_lessNoise_PlusLocalization,2021.2.3,60.02201583428156,
feast.wav,feast.mpg,feast,3,A,Pink_Noise_3_1.wav,Pink_Noise_3_2.wav,,,,,,,,,,,,,,,0,67,67,5,,,,,,,,,,,,,,,,,,,,,,,761.8237431249945,None,763.3234951220002,None,764.7069699969943,None,feast,764.7069699969943,None,return,3.594960397997056,764.7905547379996,None,,,,,,,,,,,,,,,,,,,,,,,,,,,,,,,,,,,,,,,101,001,2023_May_18_1313,SpeechDraft1Carolyn_lessNoise_PlusLocalization,2021.2.3,60.02201583428156,
bride.wav,bride.mpg,bride,5,A,Pink_Noise_5_1.wav,Pink_Noise_5_2.wav,,,,,,,,,,,,,,,0,68,68,55,,,,,,,,,,,,,,,,,,,,,,,768.4069604779943,None,769.906886883,None,771.2904865189994,None,dry,771.2904865189994,None,return,1.4117759600048885,771.3737239629991,None,,,,,,,,,,,,,,,,,,,,,,,,,,,,,,,,,,,,,,,101,001,2023_May_18_1313,SpeechDraft1Carolyn_lessNoise_PlusLocalization,2021.2.3,60.02201583428156,
bread.wav,bread.mpg,bread,4,AV,Pink_Noise_4_1.wav,Pink_Noise_4_2.wav,,,,,,,,,,,,,,,0,69,69,62,,,,,,,,,,,,,,,,,,,,,,,772.8072263879949,None,774.3080931119985,None,775.6902203009959,None,red,775.6902203009959,None,return,1.2278608020060346,775.7736897199939,None,,,,,,,,,,,,,,,,,,,,,,,,,,,,,,,,,,,,,,,101,001,2023_May_18_1313,SpeechDraft1Carolyn_lessNoise_PlusLocalization,2021.2.3,60.02201583428156,
choke.wav,choke.mpg,choke,3,AV,Pink_Noise_3_1.wav,Pink_Noise_3_2.wav,,,,,,,,,,,,,,,0,70,70,106,,,,,,,,,,,,,,,,,,,,,,,777.0237821679984,None,778.5235107609988,None,779.9069842809986,None,choke,779.9069842809986,None,return,4.5310854310009745,779.9904261689953,None,,,,,,,,,,,,,,,,,,,,,,,,,,,,,,,,,,,,,,,101,001,2023_May_18_1313,SpeechDraft1Carolyn_lessNoise_PlusLocalization,2021.2.3,60.02201583428156,
ease.wav,ease.mpg,ease,6,AV,Pink_Noise_6_1.wav,Pink_Noise_6_2.wav,,,,,,,,,,,,,,,0,71,71,75,,,,,,,,,,,,,,,,,,,,,,,784.540374557997,None,786.0402460240002,None,787.4237376879973,None,ease,787.4237376879973,None,return,1.358318209000572,787.5072092129994,None,,,,,,,,,,,,,,,,,,,,,,,,,,,,,,,,,,,,,,,101,001,2023_May_18_1313,SpeechDraft1Carolyn_lessNoise_PlusLocalization,2021.2.3,60.02201583428156,
drunk.wav,drunk.mpg,drunk,5,A,Pink_Noise_5_1.wav,Pink_Noise_5_2.wav,,,,,,,,,,,,,,,0,72,72,33,,,,,,,,,,,,,,,,,,,,,,,788.8903953179979,None,790.3901468689946,None,791.7738550609938,None,"wet
",791.7738550609938,None,return,1.800407629001711,791.8570941279977,None,,,,,,,,,,,,,,,,,,,,,,,,,,,,,,,,,,,,,,,101,001,2023_May_18_1313,SpeechDraft1Carolyn_lessNoise_PlusLocalization,2021.2.3,60.02201583428156,
bake.wav,bake.mpg,bake,6,A,Pink_Noise_6_1.wav,Pink_Noise_6_2.wav,,,,,,,,,,,,,,,0,73,73,13,,,,,,,,,,,,,,,,,,,,,,,793.6904853649976,None,795.1902101349988,None,796.573854934999,None,face,796.573854934999,None,return,1.0485429039981682,796.6570723490004,None,,,,,,,,,,,,,,,,,,,,,,,,,,,,,,,,,,,,,,,101,001,2023_May_18_1313,SpeechDraft1Carolyn_lessNoise_PlusLocalization,2021.2.3,60.02201583428156,
priest.wav,priest.mpg,priest,1,AV,Pink_Noise_1_1.wav,Pink_Noise_1_2.wav,,,,,,,,,,,,,,,0,74,74,119,,,,,,,,,,,,,,,,,,,,,,,797.7238587519969,None,799.2236040839998,None,800.607120020999,None,priest,800.607120020999,None,return,8.343060857994715,800.6904578579997,None,,,,,,,,,,,,,,,,,,,,,,,,,,,,,,,,,,,,,,,101,001,2023_May_18_1313,SpeechDraft1Carolyn_lessNoise_PlusLocalization,2021.2.3,60.02201583428156,
sun.wav,sun.mpg,sun,5,AV,Pink_Noise_5_1.wav,Pink_Noise_5_2.wav,,,,,,,,,,,,,,,0,75,75,81,,,,,,,,,,,,,,,,,,,,,,,809.0571534829942,None,810.5569428279996,None,811.9403030499961,None,sigj,811.9403030499961,None,return,3.0416741619992536,812.0238434079947,None,,,,,,,,,,,,,,,,,,,,,,,,,,,,,,,,,,,,,,,101,001,2023_May_18_1313,SpeechDraft1Carolyn_lessNoise_PlusLocalization,2021.2.3,60.02201583428156,
dive.wav,dive.mpg,dive,3,A,Pink_Noise_3_1.wav,Pink_Noise_3_2.wav,,,,,,,,,,,,,,,0,76,76,21,,,,,,,,,,,,,,,,,,,,,,,815.0904928739983,None,816.5903461799971,None,817.973786028997,None,"dive
",817.973786028997,None,return,2.56830972500029,818.0571954429979,None,,,,,,,,,,,,,,,,,,,,,,,,,,,,,,,,,,,,,,,101,001,2023_May_18_1313,SpeechDraft1Carolyn_lessNoise_PlusLocalization,2021.2.3,60.02201583428156,
glad.wav,glad.mpg,glad,6,A,Pink_Noise_6_1.wav,Pink_Noise_6_2.wav,,,,,,,,,,,,,,,0,77,77,9,,,,,,,,,,,,,,,,,,,,,,,820.6570962549958,None,822.1569457000005,None,823.5405896029988,None,dry,823.5405896029988,None,return,4.9775248279984226,823.6239830880004,None,,,,,,,,,,,,,,,,,,,,,,,,,,,,,,,,,,,,,,,101,001,2023_May_18_1313,SpeechDraft1Carolyn_lessNoise_PlusLocalization,2021.2.3,60.02201583428156,
tomb.wav,tomb.mpg,tomb,2,A,Pink_Noise_2_1.wav,Pink_Noise_2_2.wav,,,,,,,,,,,,,,,0,78,78,26,,,,,,,,,,,,,,,,,,,,,,,828.623887624999,None,830.1235895149948,None,831.5072621769941,None,two,831.5072621769941,None,return,1.7391494620023877,831.5904893689949,None,,,,,,,,,,,,,,,,,,,,,,,,,,,,,,,,,,,,,,,101,001,2023_May_18_1313,SpeechDraft1Carolyn_lessNoise_PlusLocalization,2021.2.3,60.02201583428156,
fried.wav,fried.mpg,fried,6,A,Pink_Noise_6_1.wav,Pink_Noise_6_2.wav,,,,,,,,,,,,,,,0,79,79,1,,,,,,,,,,,,,,,,,,,,,,,833.3571889070008,None,834.8734252369977,None,836.2573704440001,None,whu,836.2573704440001,None,return,7.532998292001139,836.3406168849979,None,,,,,,,,,,,,,,,,,,,,,,,,,,,,,,,,,,,,,,,101,001,2023_May_18_1313,SpeechDraft1Carolyn_lessNoise_PlusLocalization,2021.2.3,60.02201583428156,
crust.wav,crust.mpg,crust,3,AV,Pink_Noise_3_1.wav,Pink_Noise_3_2.wav,,,,,,,,,,,,,,,0,80,80,96,,,,,,,,,,,,,,,,,,,,,,,843.8905342159997,None,845.3902805559992,None,846.7737710479996,None,crust,846.7737710479996,None,return,4.256455491995439,846.8571435549966,None,,,,,,,,,,,,,,,,,,,,,,,,,,,,,,,,,,,,,,,101,001,2023_May_18_1313,SpeechDraft1Carolyn_lessNoise_PlusLocalization,2021.2.3,60.02201583428156,
bowl.wav,bowl.mpg,bowl,2,AV,Pink_Noise_2_1.wav,Pink_Noise_2_2.wav,,,,,,,,,,,,,,,0,81,81,80,,,,,,,,,,,,,,,,,,,,,,,851.1405871929965,None,852.6420700979943,None,854.0238508609982,None,bowl,854.0238508609982,None,return,3.8542281029949663,854.1072569699973,None,,,,,,,,,,,,,,,,,,,,,,,,,,,,,,,,,,,,,,,101,001,2023_May_18_1313,SpeechDraft1Carolyn_lessNoise_PlusLocalization,2021.2.3,60.02201583428156,
duck.wav,duck.mpg,duck,6,AV,Pink_Noise_6_1.wav,Pink_Noise_6_2.wav,,,,,,,,,,,,,,,0,82,82,66,,,,,,,,,,,,,,,,,,,,,,,857.9905822369983,None,859.4920416449968,None,860.8738120209964,None,dusk,860.8738120209964,None,return,5.740355517002172,860.9572200490002,None,,,,,,,,,,,,,,,,,,,,,,,,,,,,,,,,,,,,,,,101,001,2023_May_18_1313,SpeechDraft1Carolyn_lessNoise_PlusLocalization,2021.2.3,60.02201583428156,
your.wav,your.mpg,your,2,A,Pink_Noise_2_1.wav,Pink_Noise_2_2.wav,,,,,,,,,,,,,,,0,83,83,28,,,,,,,,,,,,,,,,,,,,,,,866.7238741209949,None,868.2236128289951,None,869.6071755890007,None,your,869.6071755890007,None,return,12.278996512002777,869.6905356119969,None,,,,,,,,,,,,,,,,,,,,,,,,,,,,,,,,,,,,,,,101,001,2023_May_18_1313,SpeechDraft1Carolyn_lessNoise_PlusLocalization,2021.2.3,60.02201583428156,
bet.wav,bet.mpg,bet,2,A,Pink_Noise_2_1.wav,Pink_Noise_2_2.wav,,,,,,,,,,,,,,,0,84,84,40,,,,,,,,,,,,,,,,,,,,,,,881.9905448119971,None,883.5069175530007,None,884.8738406439952,None,bet,884.8738406439952,None,return,4.692248747996928,884.9572534309991,None,,,,,,,,,,,,,,,,,,,,,,,,,,,,,,,,,,,,,,,101,001,2023_May_18_1313,SpeechDraft1Carolyn_lessNoise_PlusLocalization,2021.2.3,60.02201583428156,
strive.wav,strive.mpg,strive,5,AV,Pink_Noise_5_1.wav,Pink_Noise_5_2.wav,,,,,,,,,,,,,,,0,85,85,117,,,,,,,,,,,,,,,,,,,,,,,889.6739538639958,None,891.1736652689942,None,892.5571228779954,None,strive,892.5571228779954,None,return,3.8651063020006404,892.6405129989944,None,,,,,,,,,,,,,,,,,,,,,,,,,,,,,,,,,,,,,,,101,001,2023_May_18_1313,SpeechDraft1Carolyn_lessNoise_PlusLocalization,2021.2.3,60.02201583428156,
quest.wav,quest.mpg,quest,2,AV,Pink_Noise_2_1.wav,Pink_Noise_2_2.wav,,,,,,,,,,,,,,,0,86,86,61,,,,,,,,,,,,,,,,,,,,,,,896.5240484280002,None,898.0404462189981,None,899.4239241019968,None,quest,899.4239241019968,None,return,2.7662988730007783,899.5072856789993,None,,,,,,,,,,,,,,,,,,,,,,,,,,,,,,,,,,,,,,,101,001,2023_May_18_1313,SpeechDraft1Carolyn_lessNoise_PlusLocalization,2021.2.3,60.02201583428156,
bridge.wav,bridge.mpg,bridge,6,AV,Pink_Noise_6_1.wav,Pink_Noise_6_2.wav,,,,,,,,,,,,,,,0,87,87,101,,,,,,,,,,,,,,,,,,,,,,,902.2905966830003,None,903.8237196639966,None,905.2073266419975,None,bridge,905.2073266419975,None,return,2.4549956009941525,905.2905893889983,None,,,,,,,,,,,,,,,,,,,,,,,,,,,,,,,,,,,,,,,101,001,2023_May_18_1313,SpeechDraft1Carolyn_lessNoise_PlusLocalization,2021.2.3,60.02201583428156,
blame.wav,blame.mpg,blame,6,A,Pink_Noise_6_1.wav,Pink_Noise_6_2.wav,,,,,,,,,,,,,,,0,88,88,58,,,,,,,,,,,,,,,,,,,,,,,907.774083878001,None,909.2737425909945,None,910.6572977920005,None,bridge,910.6572977920005,None,return,2.172922313999152,910.7406695809987,None,,,,,,,,,,,,,,,,,,,,,,,,,,,,,,,,,,,,,,,101,001,2023_May_18_1313,SpeechDraft1Carolyn_lessNoise_PlusLocalization,2021.2.3,60.02201583428156,
bold.wav,bold.mpg,bold,1,AV,Pink_Noise_1_1.wav,Pink_Noise_1_2.wav,,,,,,,,,,,,,,,0,89,89,73,,,,,,,,,,,,,,,,,,,,,,,912.9406913799976,None,914.4403357639967,None,915.8239003269991,None,"bold
",915.8239003269991,None,return,2.918266180997307,915.9072393620008,None,,,,,,,,,,,,,,,,,,,,,,,,,,,,,,,,,,,,,,,101,001,2023_May_18_1313,SpeechDraft1Carolyn_lessNoise_PlusLocalization,2021.2.3,60.02201583428156,
eve.wav,eve.mpg,eve,3,A,Pink_Noise_3_1.wav,Pink_Noise_3_2.wav,,,,,,,,,,,,,,,0,90,90,52,,,,,,,,,,,,,,,,,,,,,,,918.8572449290004,None,920.3570430819964,None,921.7405927699947,None,"feed
",921.7405927699947,None,return,3.0015313330004574,921.8239815999987,None,,,,,,,,,,,,,,,,,,,,,,,,,,,,,,,,,,,,,,,101,001,2023_May_18_1313,SpeechDraft1Carolyn_lessNoise_PlusLocalization,2021.2.3,60.02201583428156,
blaze.wav,blaze.mpg,blaze,2,AV,Pink_Noise_2_1.wav,Pink_Noise_2_2.wav,,,,,,,,,,,,,,,0,91,91,98,,,,,,,,,,,,,,,,,,,,,,,924.8573204649947,None,926.3590773670003,None,927.7572347829991,None,blaze,927.7572347829991,None,return,5.2968828349985415,927.8406882700001,None,,,,,,,,,,,,,,,,,,,,,,,,,,,,,,,,,,,,,,,101,001,2023_May_18_1313,SpeechDraft1Carolyn_lessNoise_PlusLocalization,2021.2.3,60.02201583428156,
fade.wav,fade.mpg,fade,4,A,Pink_Noise_4_1.wav,Pink_Noise_4_2.wav,,,,,,,,,,,,,,,0,92,92,7,,,,,,,,,,,,,,,,,,,,,,,933.1573390819976,None,934.6737295829953,None,936.0572177289941,None,vain,936.0572177289941,None,return,3.8208493940037442,936.1406599349939,None,,,,,,,,,,,,,,,,,,,,,,,,,,,,,,,,,,,,,,,101,001,2023_May_18_1313,SpeechDraft1Carolyn_lessNoise_PlusLocalization,2021.2.3,60.02201583428156,
glove.wav,glove.mpg,glove,3,AV,Pink_Noise_3_1.wav,Pink_Noise_3_2.wav,,,,,,,,,,,,,,,0,93,93,69,,,,,,,,,,,,,,,,,,,,,,,939.9906856839953,None,941.5071654860003,None,942.890568320996,None,"glove
",942.890568320996,None,return,2.051504021001165,942.9739882649956,None,,,,,,,,,,,,,,,,,,,,,,,,,,,,,,,,,,,,,,,101,001,2023_May_18_1313,SpeechDraft1Carolyn_lessNoise_PlusLocalization,2021.2.3,60.02201583428156,
flask.wav,flask.mpg,flask,4,AV,Pink_Noise_4_1.wav,Pink_Noise_4_2.wav,,,,,,,,,,,,,,,0,94,94,105,,,,,,,,,,,,,,,,,,,,,,,945.057306593997,None,946.5571269409993,None,947.940528700994,None,flask,947.940528700994,None,return,2.8574790700004087,948.0240391449988,None,,,,,,,,,,,,,,,,,,,,,,,,,,,,,,,,,,,,,,,101,001,2023_May_18_1313,SpeechDraft1Carolyn_lessNoise_PlusLocalization,2021.2.3,60.02201583428156,
foam.wav,foam.mpg,foam,6,AV,Pink_Noise_6_1.wav,Pink_Noise_6_2.wav,,,,,,,,,,,,,,,0,95,95,94,,,,,,,,,,,,,,,,,,,,,,,950.9073743740009,None,952.4071004680009,None,953.790700657999,None,"foa,",953.790700657999,None,return,4.639623896000558,953.873999383999,None,,,,,,,,,,,,,,,,,,,,,,,,,,,,,,,,,,,,,,,101,001,2023_May_18_1313,SpeechDraft1Carolyn_lessNoise_PlusLocalization,2021.2.3,60.02201583428156,
eel.wav,eel.mpg,eel,6,AV,Pink_Noise_6_1.wav,Pink_Noise_6_2.wav,,,,,,,,,,,,,,,0,96,96,83,,,,,,,,,,,,,,,,,,,,,,,958.540756112001,None,960.0405753679952,None,961.4239211069944,None,"hee;
",961.4239211069944,None,return,3.870073802994739,961.5074308209951,None,,,,,,,,,,,,,,,,,,,,,,,,,,,,,,,,,,,,,,,101,001,2023_May_18_1313,SpeechDraft1Carolyn_lessNoise_PlusLocalization,2021.2.3,60.02201583428156,
dad.wav,dad.mpg,dad,1,A,Pink_Noise_1_1.wav,Pink_Noise_1_2.wav,,,,,,,,,,,,,,,0,97,97,22,,,,,,,,,,,,,,,,,,,,,,,965.4074184909987,None,966.9238409059981,None,968.3073902929973,None,dad,968.3073902929973,None,return,1.5947964109946042,968.3907117089984,None,,,,,,,,,,,,,,,,,,,,,,,,,,,,,,,,,,,,,,,101,001,2023_May_18_1313,SpeechDraft1Carolyn_lessNoise_PlusLocalization,2021.2.3,60.02201583428156,
clutch.wav,clutch.mpg,clutch,6,AV,Pink_Noise_6_1.wav,Pink_Noise_6_2.wav,,,,,,,,,,,,,,,0,98,98,60,,,,,,,,,,,,,,,,,,,,,,,970.007368626997,None,971.5091261470006,None,972.8904794509945,None,"clutch
",972.8904794509945,None,return,5.803472993000469,972.9740521649946,None,,,,,,,,,,,,,,,,,,,,,,,,,,,,,,,,,,,,,,,101,001,2023_May_18_1313,SpeechDraft1Carolyn_lessNoise_PlusLocalization,2021.2.3,60.02201583428156,
weep.wav,weep.mpg,weep,2,AV,Pink_Noise_2_1.wav,Pink_Noise_2_2.wav,,,,,,,,,,,,,,,0,99,99,115,,,,,,,,,,,,,,,,,,,,,,,978.8074142240002,None,980.3071416579987,None,981.6905981379969,None,"wheep
",981.6905981379969,None,return,3.235480830000597,981.7740342469988,None,,,,,,,,,,,,,,,,,,,,,,,,,,,,,,,,,,,,,,,101,001,2023_May_18_1313,SpeechDraft1Carolyn_lessNoise_PlusLocalization,2021.2.3,60.02201583428156,
clad.wav,clad.mpg,clad,5,AV,Pink_Noise_5_1.wav,Pink_Noise_5_2.wav,,,,,,,,,,,,,,,0,100,100,74,,,,,,,,,,,,,,,,,,,,,,,985.0407112459943,None,986.5571486339977,None,987.9405630990004,None,clide,987.9405630990004,None,return,13.19342208699527,988.0240870909984,None,,,,,,,,,,,,,,,,,,,,,,,,,,,,,,,,,,,,,,,101,001,2023_May_18_1313,SpeechDraft1Carolyn_lessNoise_PlusLocalization,2021.2.3,60.02201583428156,
claw.wav,claw.mpg,claw,2,AV,Pink_Noise_2_1.wav,Pink_Noise_2_2.wav,,,,,,,,,,,,,,,0,101,101,112,,,,,,,,,,,,,,,,,,,,,,,1001.2406724289976,None,1002.757281334998,None,1004.1408638569992,None,"claw
",1004.1408638569992,None,return,2.6333462340044207,1004.2241418549966,None,,,,,,,,,,,,,,,,,,,,,,,,,,,,,,,,,,,,,,,101,001,2023_May_18_1313,SpeechDraft1Carolyn_lessNoise_PlusLocalization,2021.2.3,60.02201583428156,
frost.wav,frost.mpg,frost,2,A,Pink_Noise_2_1.wav,Pink_Noise_2_2.wav,,,,,,,,,,,,,,,0,102,102,16,,,,,,,,,,,,,,,,,,,,,,,1006.8907768589997,None,1008.3903432439984,None,1009.7741577139968,None,frost,1009.7741577139968,None,return,4.256175820999488,1009.8574459289957,None,,,,,,,,,,,,,,,,,,,,,,,,,,,,,,,,,,,,,,,101,001,2023_May_18_1313,SpeechDraft1Carolyn_lessNoise_PlusLocalization,2021.2.3,60.02201583428156,
dice.wav,dice.mpg,dice,5,A,Pink_Noise_5_1.wav,Pink_Noise_5_2.wav,,,,,,,,,,,,,,,0,103,103,44,,,,,,,,,,,,,,,,,,,,,,,1014.1407046349996,None,1015.6418564069972,None,1017.0241310860001,None,dice,1017.0241310860001,None,return,4.878007234998222,1017.1074886529968,None,,,,,,,,,,,,,,,,,,,,,,,,,,,,,,,,,,,,,,,101,001,2023_May_18_1313,SpeechDraft1Carolyn_lessNoise_PlusLocalization,2021.2.3,60.02201583428156,
bomb.wav,bomb.mpg,bomb,6,AV,Pink_Noise_6_1.wav,Pink_Noise_6_2.wav,,,,,,,,,,,,,,,0,104,104,79,,,,,,,,,,,,,,,,,,,,,,,1022.0074577619962,None,1023.5237898089981,None,1024.907456408997,None,"bomb
",1024.907456408997,None,return,6.986706777999643,1024.9907930479967,None,,,,,,,,,,,,,,,,,,,,,,,,,,,,,,,,,,,,,,,101,001,2023_May_18_1313,SpeechDraft1Carolyn_lessNoise_PlusLocalization,2021.2.3,60.02201583428156,
fine.wav,fine.mpg,fine,2,A,Pink_Noise_2_1.wav,Pink_Noise_2_2.wav,,,,,,,,,,,,,,,0,105,105,53,,,,,,,,,,,,,,,,,,,,,,,1032.007373250999,None,1033.5238245849978,None,1034.9073356070003,None,"fine
",1034.9073356070003,None,return,7.2346304889942985,1034.9908664289978,None,,,,,,,,,,,,,,,,,,,,,,,,,,,,,,,,,,,,,,,101,001,2023_May_18_1313,SpeechDraft1Carolyn_lessNoise_PlusLocalization,2021.2.3,60.02201583428156,
drill.wav,drill.mpg,drill,3,AV,Pink_Noise_3_1.wav,Pink_Noise_3_2.wav,,,,,,,,,,,,,,,0,106,106,95,,,,,,,,,,,,,,,,,,,,,,,1042.2576859449982,None,1043.7739099739993,None,1045.1574724969978,None,"drill
",1045.1574724969978,None,return,9.600674184002855,1045.2408254879992,None,,,,,,,,,,,,,,,,,,,,,,,,,,,,,,,,,,,,,,,101,001,2023_May_18_1313,SpeechDraft1Carolyn_lessNoise_PlusLocalization,2021.2.3,60.02201583428156,
bathe.wav,bathe.mpg,bathe,1,AV,Pink_Noise_1_1.wav,Pink_Noise_1_2.wav,,,,,,,,,,,,,,,0,107,107,109,,,,,,,,,,,,,,,,,,,,,,,1054.8742132949992,None,1056.3905862679967,None,1057.774100470997,None,"bathe
",1057.774100470997,None,return,2.304053150997788,1057.857442859,None,,,,,,,,,,,,,,,,,,,,,,,,,,,,,,,,,,,,,,,101,001,2023_May_18_1313,SpeechDraft1Carolyn_lessNoise_PlusLocalization,2021.2.3,60.02201583428156,
beam.wav,beam.mpg,beam,5,A,Pink_Noise_5_1.wav,Pink_Noise_5_2.wav,,,,,,,,,,,,,,,0,108,108,34,,,,,,,,,,,,,,,,,,,,,,,1060.1908972029996,None,1061.707261773001,None,1063.0908256139955,None,reach,1063.0908256139955,None,return,2.5235370459995465,1063.1741332409947,None,,,,,,,,,,,,,,,,,,,,,,,,,,,,,,,,,,,,,,,101,001,2023_May_18_1313,SpeechDraft1Carolyn_lessNoise_PlusLocalization,2021.2.3,60.02201583428156,
swamp.wav,swamp.mpg,swamp,4,AV,Pink_Noise_4_1.wav,Pink_Noise_4_2.wav,,,,,,,,,,,,,,,0,109,109,64,,,,,,,,,,,,,,,,,,,,,,,1065.7242001539998,None,1067.2405527609953,None,1068.6073994059989,None,swamp,1068.6073994059989,None,return,2.782839586994669,1068.6907465769982,None,,,,,,,,,,,,,,,,,,,,,,,,,,,,,,,,,,,,,,,101,001,2023_May_18_1313,SpeechDraft1Carolyn_lessNoise_PlusLocalization,2021.2.3,60.02201583428156,
deck.wav,deck.mpg,deck,5,A,Pink_Noise_5_1.wav,Pink_Noise_5_2.wav,,,,,,,,,,,,,,,0,110,110,31,,,,,,,,,,,,,,,,,,,,,,,1071.4909017269965,None,1072.9922169569982,None,1074.3909285669943,None,neck,1074.3909285669943,None,return,1.607423100998858,1074.4741002709998,None,,,,,,,,,,,,,,,,,,,,,,,,,,,,,,,,,,,,,,,101,001,2023_May_18_1313,SpeechDraft1Carolyn_lessNoise_PlusLocalization,2021.2.3,60.02201583428156,
gown.wav,gown.mpg,gown,3,AV,Pink_Noise_3_1.wav,Pink_Noise_3_2.wav,,,,,,,,,,,,,,,0,111,111,102,,,,,,,,,,,,,,,,,,,,,,,1076.1074796169996,None,1077.6239597169988,None,1079.0074930669944,None,gowm,1079.0074930669944,None,return,3.9746455140048056,1079.0908648449986,None,,,,,,,,,,,,,,,,,,,,,,,,,,,,,,,,,,,,,,,101,001,2023_May_18_1313,SpeechDraft1Carolyn_lessNoise_PlusLocalization,2021.2.3,60.02201583428156,
crate.wav,crate.mpg,crate,6,A,Pink_Noise_6_1.wav,Pink_Noise_6_2.wav,,,,,,,,,,,,,,,0,112,112,2,,,,,,,,,,,,,,,,,,,,,,,1083.091118489996,None,1084.6073109499994,None,1085.9909987799983,None,hate,1085.9909987799983,None,return,10.687379214003158,1086.0741299910005,None,,,,,,,,,,,,,,,,,,,,,,,,,,,,,,,,,,,,,,,101,001,2023_May_18_1313,SpeechDraft1Carolyn_lessNoise_PlusLocalization,2021.2.3,60.02201583428156,
calm.wav,calm.mpg,calm,5,A,Pink_Noise_5_1.wav,Pink_Noise_5_2.wav,,,,,,,,,,,,,,,0,113,113,17,,,,,,,,,,,,,,,,,,,,,,,1096.7908305620003,None,1098.2914141079964,None,1099.6742434080006,None,"car
",1099.6742434080006,None,return,1.4680048529990017,1099.7575084839991,None,,,,,,,,,,,,,,,,,,,,,,,,,,,,,,,,,,,,,,,101,001,2023_May_18_1313,SpeechDraft1Carolyn_lessNoise_PlusLocalization,2021.2.3,60.02201583428156,
doom.wav,doom.mpg,doom,2,A,Pink_Noise_2_1.wav,Pink_Noise_2_2.wav,,,,,,,,,,,,,,,0,114,114,8,,,,,,,,,,,,,,,,,,,,,,,1101.2575470379961,None,1102.757242392996,None,1104.140898560996,None,"doom
",1104.140898560996,None,return,2.1530553409975255,1104.2244347119995,None,,,,,,,,,,,,,,,,,,,,,,,,,,,,,,,,,,,,,,,101,001,2023_May_18_1313,SpeechDraft1Carolyn_lessNoise_PlusLocalization,2021.2.3,60.02201583428156,
sake.wav,sake.mpg,sake,5,AV,Pink_Noise_5_1.wav,Pink_Noise_5_2.wav,,,,,,,,,,,,,,,0,115,115,91,,,,,,,,,,,,,,,,,,,,,,,1106.4075342020005,None,1107.9239742339996,None,1109.3076351579948,None,six,1109.3076351579948,None,return,9.370674683996185,1109.3908316439993,None,,,,,,,,,,,,,,,,,,,,,,,,,,,,,,,,,,,,,,,101,001,2023_May_18_1313,SpeechDraft1Carolyn_lessNoise_PlusLocalization,2021.2.3,60.02201583428156,
clue.wav,clue.mpg,clue,3,A,Pink_Noise_3_1.wav,Pink_Noise_3_2.wav,,,,,,,,,,,,,,,0,116,116,12,,,,,,,,,,,,,,,,,,,,,,,1118.7910122199974,None,1120.3089889420007,None,1121.6908352129976,None,clue,1121.6908352129976,None,return,8.12335103499936,1121.7742609009947,None,,,,,,,,,,,,,,,,,,,,,,,,,,,,,,,,,,,,,,,101,001,2023_May_18_1313,SpeechDraft1Carolyn_lessNoise_PlusLocalization,2021.2.3,60.02201583428156,
pact.wav,pact.mpg,pact,5,AV,Pink_Noise_5_1.wav,Pink_Noise_5_2.wav,,,,,,,,,,,,,,,0,117,117,100,,,,,,,,,,,,,,,,,,,,,,,1129.9243338559972,None,1131.4406919100002,None,1132.8242398549992,None,"pat
",1132.8242398549992,None,return,2.4857541499950457,1132.9077404790005,None,,,,,,,,,,,,,,,,,,,,,,,,,,,,,,,,,,,,,,,101,001,2023_May_18_1313,SpeechDraft1Carolyn_lessNoise_PlusLocalization,2021.2.3,60.02201583428156,
rid.wav,rid.mpg,rid,1,AV,Pink_Noise_1_1.wav,Pink_Noise_1_2.wav,,,,,,,,,,,,,,,0,118,118,67,,,,,,,,,,,,,,,,,,,,,,,1135.4242229819938,None,1136.9405977019996,None,1138.3242327080006,None,red,1138.3242327080006,None,return,1.4498300019986345,1138.4077305969986,None,,,,,,,,,,,,,,,,,,,,,,,,,,,,,,,,,,,,,,,101,001,2023_May_18_1313,SpeechDraft1Carolyn_lessNoise_PlusLocalization,2021.2.3,60.02201583428156,
bless.wav,bless.mpg,bless,3,A,Pink_Noise_3_1.wav,Pink_Noise_3_2.wav,,,,,,,,,,,,,,,0,119,119,47,,,,,,,,,,,,,,,,,,,,,,,1139.874230288995,None,1141.3905790439967,None,1142.7742908579967,None,"rust
",1142.7742908579967,None,return,17.135843313000805,1142.857654678999,None,,,,,,,,,,,,,,,,,,,,,,,,,,,,,,,,,,,,,,,101,001,2023_May_18_1313,SpeechDraft1Carolyn_lessNoise_PlusLocalization,2021.2.3,60.02201583428156,
,,,,,,,,,,,,,,,,,,,,,,,,,,,,,,,,,,,,,,,,,,,,,,,,,,,,,,,,,,,,,,,,,,space,20.98117153399653,1160.1243430850009,None,,,,,,,,,,,,,,,,,,,,,,,,,,,,,101,001,2023_May_18_1313,SpeechDraft1Carolyn_lessNoise_PlusLocalization,2021.2.3,60.02201583428156,
,,,,,,,,midLeft,-13.0,2,ch1Sound_localizationTask.wav,-13.0,"(762, 878)","(-198,-202)",-190,-338,,,,,,,,,0,0,0,1,,,,,,,,,,,,,,,,,,,,,,,,,,,,,,,,,,,,,,,,,,1160.1243430850009,None,1181.1407683609941,None,1182.2575057209979,None,1183.1742143869997,None,1.2873015873015872,16.56803760099865,1183.1742143869997,None,,,,,,,,,,,,,,,,,101,001,2023_May_18_1313,SpeechDraft1Carolyn_lessNoise_PlusLocalization,2021.2.3,60.02201583428156,
,,,,,,,,nearLeft,-6.5,1,ch1Sound_localizationTask.wav,-6.5,"(857, 878)","(-103,-202)",-95,-338,,,,,,,,,0,1,1,2,,,,,,,,,,,,,,,,,,,,,,,,,,,,,,,,,,,,,,,,,,,,1199.741100334999,None,1200.8407026249988,None,1201.7741557379995,None,1.4735449735449735,7.031607472003088,1201.7741557379995,None,,,,,,,,,,,,,,,,,101,001,2023_May_18_1313,SpeechDraft1Carolyn_lessNoise_PlusLocalization,2021.2.3,60.02201583428156,
,,,,,,,,farRight,19.1,4,ch1Sound_localizationTask.wav,19.1,"(1237, 878)","(277,-202)",285,-338,,,,,,,,,0,2,2,6,,,,,,,,,,,,,,,,,,,,,,,,,,,,,,,,,,,,,,,,,,,,1208.8077414,None,1209.907487272998,None,1210.840778711994,None,1.61005291005291,8.165618528000778,1210.840778711994,None,,,,,,,,,,,,,,,,,101,001,2023_May_18_1313,SpeechDraft1Carolyn_lessNoise_PlusLocalization,2021.2.3,60.02201583428156,
,,,,,,,,farRight,19.1,4,ch1Sound_localizationTask.wav,19.1,"(1237, 878)","(277,-202)",285,-338,,,,,,,,,0,3,3,6,,,,,,,,,,,,,,,,,,,,,,,,,,,,,,,,,,,,,,,,,,,,1219.0075693679973,None,1220.1074407439955,None,1221.040804190001,None,1.7031746031746031,15.614887916002772,1221.040804190001,None,,,,,,,,,,,,,,,,,101,001,2023_May_18_1313,SpeechDraft1Carolyn_lessNoise_PlusLocalization,2021.2.3,60.02201583428156,
,,,,,,,,nearRight,6.5,0,ch1Sound_localizationTask.wav,6.5,"(1047, 878)","(87, -202)",95,-338,,,,,,,,,0,4,4,4,,,,,,,,,,,,,,,,,,,,,,,,,,,,,,,,,,,,,,,,,,,,1236.657742978001,None,1237.7574893459969,None,1238.6908346189957,None,1.4010582010582011,17.966354793999926,1238.6908346189957,None,,,,,,,,,,,,,,,,,101,001,2023_May_18_1313,SpeechDraft1Carolyn_lessNoise_PlusLocalization,2021.2.3,60.02201583428156,
,,,,,,,,center,0.0,6,ch1Sound_localizationTask.wav,0.0,"(952, 878)","(-8,-202)",0,-338,,,,,,,,,0,5,5,3,,,,,,,,,,,,,,,,,,,,,,,,,,,,,,,,,,,,,,,,,,,,1256.6578071650001,None,1257.757748169999,None,1258.690884535994,None,1.4502645502645501,10.799715530003596,1258.690884535994,None,,,,,,,,,,,,,,,,,101,001,2023_May_18_1313,SpeechDraft1Carolyn_lessNoise_PlusLocalization,2021.2.3,60.02201583428156,
,,,,,,,,nearLeft,-6.5,1,ch1Sound_localizationTask.wav,-6.5,"(857, 878)","(-103,-202)",-95,-338,,,,,,,,,0,6,6,2,,,,,,,,,,,,,,,,,,,,,,,,,,,,,,,,,,,,,,,,,,,,1269.4911081859973,None,1270.590776029996,None,1271.5243429939947,None,1.4915343915343915,11.349080448002496,1271.5243429939947,None,,,,,,,,,,,,,,,,,101,001,2023_May_18_1313,SpeechDraft1Carolyn_lessNoise_PlusLocalization,2021.2.3,60.02201583428156,
,,,,,,,,farRight,19.1,4,ch1Sound_localizationTask.wav,19.1,"(1237, 878)","(277,-202)",285,-338,,,,,,,,,1,0,7,6,,,,,,,,,,,,,,,,,,,,,,,,,,,,,,,,,,,,,,,,,,,,1282.8744698599985,None,1283.9742481709982,None,1284.9074874500002,None,1.602116402116402,12.984313323002425,1284.9074874500002,None,,,,,,,,,,,,,,,,,101,001,2023_May_18_1313,SpeechDraft1Carolyn_lessNoise_PlusLocalization,2021.2.3,60.02201583428156,
,,,,,,,,nearRight,6.5,0,ch1Sound_localizationTask.wav,6.5,"(1047, 878)","(87, -202)",95,-338,,,,,,,,,1,1,8,4,,,,,,,,,,,,,,,,,,,,,,,,,,,,,,,,,,,,,,,,,,,,1297.907942466998,None,1299.007645519996,None,1299.9409926009976,None,1.5312169312169313,2.4150461579993134,1299.9409926009976,None,,,,,,,,,,,,,,,,,101,001,2023_May_18_1313,SpeechDraft1Carolyn_lessNoise_PlusLocalization,2021.2.3,60.02201583428156,
,,,,,,,,midRight,13.0,3,ch1Sound_localizationTask.wav,13.0,"(1142, 878)","(182, -202)",190,-338,,,,,,,,,1,2,9,5,,,,,,,,,,,,,,,,,,,,,,,,,,,,,,,,,,,,,,,,,,,,1302.357852547997,None,1303.4576817279958,None,1304.3908772969953,None,1.4957671957671956,1.2658082720008679,1304.3908772969953,None,,,,,,,,,,,,,,,,,101,001,2023_May_18_1313,SpeechDraft1Carolyn_lessNoise_PlusLocalization,2021.2.3,60.02201583428156,
,,,,,,,,nearRight,6.5,0,ch1Sound_localizationTask.wav,6.5,"(1047, 878)","(87, -202)",95,-338,,,,,,,,,1,3,10,4,,,,,,,,,,,,,,,,,,,,,,,,,,,,,,,,,,,,,,,,,,,,1305.657698831994,None,1306.7576341029999,None,1307.6910036609988,None,1.4714285714285715,17.849455457995646,1307.6910036609988,None,,,,,,,,,,,,,,,,,101,001,2023_May_18_1313,SpeechDraft1Carolyn_lessNoise_PlusLocalization,2021.2.3,60.02201583428156,
,,,,,,,,farLeft,-19.1,5,ch1Sound_localizationTask.wav,-19.1,"(667, 878)","(-293,-202)",-285,-338,,,,,,,,,1,4,11,0,,,,,,,,,,,,,,,,,,,,,,,,,,,,,,,,,,,,,,,,,,,,1325.5411427399958,None,1326.6409409599946,None,1327.5743520830001,None,1.2259259259259259,6.248444791002839,1327.5743520830001,None,,,,,,,,,,,,,,,,,101,001,2023_May_18_1313,SpeechDraft1Carolyn_lessNoise_PlusLocalization,2021.2.3,60.02201583428156,
,,,,,,,,nearRight,6.5,0,ch1Sound_localizationTask.wav,6.5,"(1047, 878)","(87, -202)",95,-338,,,,,,,,,1,5,12,4,,,,,,,,,,,,,,,,,,,,,,,,,,,,,,,,,,,,,,,,,,,,1333.8245622469985,None,1334.9243331439939,None,1335.8577584929953,None,1.5428571428571427,9.04931141599809,1335.8577584929953,None,,,,,,,,,,,,,,,,,101,001,2023_May_18_1313,SpeechDraft1Carolyn_lessNoise_PlusLocalization,2021.2.3,60.02201583428156,
,,,,,,,,nearLeft,-6.5,1,ch1Sound_localizationTask.wav,-6.5,"(857, 878)","(-103,-202)",-95,-338,,,,,,,,,1,6,13,2,,,,,,,,,,,,,,,,,,,,,,,,,,,,,,,,,,,,,,,,,,,,1344.9078733569986,None,1346.0076819589958,None,1346.9410124439964,None,1.4867724867724867,18.449322854998172,1346.9410124439964,None,,,,,,,,,,,,,,,,,101,001,2023_May_18_1313,SpeechDraft1Carolyn_lessNoise_PlusLocalization,2021.2.3,60.02201583428156,
,,,,,,,,farRight,19.1,4,ch1Sound_localizationTask.wav,19.1,"(1237, 878)","(277,-202)",285,-338,,,,,,,,,2,0,14,6,,,,,,,,,,,,,,,,,,,,,,,,,,,,,,,,,,,,,,,,,,,,1365.3912565680002,None,1366.4910646279968,None,1367.4243095139973,None,1.5724867724867724,1.2149080470044282,1367.4243095139973,None,,,,,,,,,,,,,,,,,101,001,2023_May_18_1313,SpeechDraft1Carolyn_lessNoise_PlusLocalization,2021.2.3,60.02201583428156,
,,,,,,,,center,0.0,6,ch1Sound_localizationTask.wav,0.0,"(952, 878)","(-8,-202)",0,-338,,,,,,,,,2,1,15,3,,,,,,,,,,,,,,,,,,,,,,,,,,,,,,,,,,,,,,,,,,,,1368.6412649699996,None,1369.741061654,None,1370.6744577329955,None,1.4878306878306877,1.3160170109986211,1370.6744577329955,None,,,,,,,,,,,,,,,,,101,001,2023_May_18_1313,SpeechDraft1Carolyn_lessNoise_PlusLocalization,2021.2.3,60.02201583428156,
,,,,,,,,farLeft,-19.1,5,ch1Sound_localizationTask.wav,-19.1,"(667, 878)","(-293,-202)",-285,-338,,,,,,,,,2,2,16,0,,,,,,,,,,,,,,,,,,,,,,,,,,,,,,,,,,,,,,,,,,,,1371.991234866,None,1373.0910105219955,None,1374.024437575994,None,1.262962962962963,0.948966666997876,1374.024437575994,None,,,,,,,,,,,,,,,,,101,001,2023_May_18_1313,SpeechDraft1Carolyn_lessNoise_PlusLocalization,2021.2.3,60.02201583428156,
,,,,,,,,center,0.0,6,ch1Sound_localizationTask.wav,0.0,"(952, 878)","(-8,-202)",0,-338,,,,,,,,,2,3,17,3,,,,,,,,,,,,,,,,,,,,,,,,,,,,,,,,,,,,,,,,,,,,1374.9747701419983,None,1376.0743016779961,None,1377.007728921999,None,1.4862433862433861,2.8489967349960352,1377.007728921999,None,,,,,,,,,,,,,,,,,101,001,2023_May_18_1313,SpeechDraft1Carolyn_lessNoise_PlusLocalization,2021.2.3,60.02201583428156,
,,,,,,,,nearLeft,-6.5,1,ch1Sound_localizationTask.wav,-6.5,"(857, 878)","(-103,-202)",-95,-338,,,,,,,,,2,4,18,2,,,,,,,,,,,,,,,,,,,,,,,,,,,,,,,,,,,,,,,,,,,,1379.8581454739979,None,1380.9576967209941,None,1381.891117811996,None,1.498941798941799,1.2665176939990488,1381.891117811996,None,,,,,,,,,,,,,,,,,101,001,2023_May_18_1313,SpeechDraft1Carolyn_lessNoise_PlusLocalization,2021.2.3,60.02201583428156,
,,,,,,,,midRight,13.0,3,ch1Sound_localizationTask.wav,13.0,"(1142, 878)","(182, -202)",190,-338,,,,,,,,,2,5,19,5,,,,,,,,,,,,,,,,,,,,,,,,,,,,,,,,,,,,,,,,,,,,1383.157888185,None,1384.2576644449946,None,1385.1910556509974,None,1.5444444444444443,1.0996076640003594,1385.1910556509974,None,,,,,,,,,,,,,,,,,101,001,2023_May_18_1313,SpeechDraft1Carolyn_lessNoise_PlusLocalization,2021.2.3,60.02201583428156,
,,,,,,,,nearRight,6.5,0,ch1Sound_localizationTask.wav,6.5,"(1047, 878)","(87, -202)",95,-338,,,,,,,,,2,6,20,4,,,,,,,,,,,,,,,,,,,,,,,,,,,,,,,,,,,,,,,,,,,,1386.2912316779984,None,1387.3911003649991,None,1388.3244680159987,None,1.491005291005291,1.0659857439968619,1388.3244680159987,None,,,,,,,,,,,,,,,,,101,001,2023_May_18_1313,SpeechDraft1Carolyn_lessNoise_PlusLocalization,2021.2.3,60.02201583428156,
,,,,,,,,nearLeft,-6.5,1,ch1Sound_localizationTask.wav,-6.5,"(857, 878)","(-103,-202)",-95,-338,,,,,,,,,3,0,21,2,,,,,,,,,,,,,,,,,,,,,,,,,,,,,,,,,,,,,,,,,,,,1389.3912554179988,None,1390.4909933960007,None,1391.4243541249962,None,1.4402116402116403,0.7983837319989107,1391.4243541249962,None,,,,,,,,,,,,,,,,,101,001,2023_May_18_1313,SpeechDraft1Carolyn_lessNoise_PlusLocalization,2021.2.3,60.02201583428156,
,,,,,,,,midLeft,-13.0,2,ch1Sound_localizationTask.wav,-13.0,"(762, 878)","(-198,-202)",-190,-338,,,,,,,,,3,1,22,1,,,,,,,,,,,,,,,,,,,,,,,,,,,,,,,,,,,,,,,,,,,,1392.2245472959985,None,1393.3244578550002,None,1394.2577231309988,None,1.226984126984127,2.5492523330030963,1394.2577231309988,None,,,,,,,,,,,,,,,,,101,001,2023_May_18_1313,SpeechDraft1Carolyn_lessNoise_PlusLocalization,2021.2.3,60.02201583428156,
,,,,,,,,midLeft,-13.0,2,ch1Sound_localizationTask.wav,-13.0,"(762, 878)","(-198,-202)",-190,-338,,,,,,,,,3,2,23,1,,,,,,,,,,,,,,,,,,,,,,,,,,,,,,,,,,,,,,,,,,,,1396.8079555000004,None,1397.9076452009976,None,1398.840956357999,None,1.2968253968253969,1.0993864909978583,1398.840956357999,None,,,,,,,,,,,,,,,,,101,001,2023_May_18_1313,SpeechDraft1Carolyn_lessNoise_PlusLocalization,2021.2.3,60.02201583428156,
,,,,,,,,center,0.0,6,ch1Sound_localizationTask.wav,0.0,"(952, 878)","(-8,-202)",0,-338,,,,,,,,,3,3,24,3,,,,,,,,,,,,,,,,,,,,,,,,,,,,,,,,,,,,,,,,,,,,1399.941192416998,None,1401.0410783359985,None,1401.974650115997,None,1.4412698412698413,1.0811299979977775,1401.974650115997,None,,,,,,,,,,,,,,,,,101,001,2023_May_18_1313,SpeechDraft1Carolyn_lessNoise_PlusLocalization,2021.2.3,60.02201583428156,
,,,,,,,,farRight,19.1,4,ch1Sound_localizationTask.wav,19.1,"(1237, 878)","(277,-202)",285,-338,,,,,,,,,3,4,25,6,,,,,,,,,,,,,,,,,,,,,,,,,,,,,,,,,,,,,,,,,,,,1403.0580209789987,None,1404.1578660199957,None,1405.0910957029992,None,1.6142857142857143,0.9991577230030089,1405.0910957029992,None,,,,,,,,,,,,,,,,,101,001,2023_May_18_1313,SpeechDraft1Carolyn_lessNoise_PlusLocalization,2021.2.3,60.02201583428156,
,,,,,,,,farLeft,-19.1,5,ch1Sound_localizationTask.wav,-19.1,"(667, 878)","(-293,-202)",-285,-338,,,,,,,,,3,5,26,0,,,,,,,,,,,,,,,,,,,,,,,,,,,,,,,,,,,,,,,,,,,,1406.0912002359983,None,1407.1910861399956,None,1408.1245579559982,None,1.3111111111111111,1.299053221999202,1408.1245579559982,None,,,,,,,,,,,,,,,,,101,001,2023_May_18_1313,SpeechDraft1Carolyn_lessNoise_PlusLocalization,2021.2.3,60.02201583428156,
,,,,,,,,midLeft,-13.0,2,ch1Sound_localizationTask.wav,-13.0,"(762, 878)","(-198,-202)",-190,-338,,,,,,,,,3,6,27,1,,,,,,,,,,,,,,,,,,,,,,,,,,,,,,,,,,,,,,,,,,,,1409.4246204909941,None,1410.5244263119966,None,1411.457685551999,None,1.334920634920635,0.966168339997239,1411.457685551999,None,,,,,,,,,,,,,,,,,101,001,2023_May_18_1313,SpeechDraft1Carolyn_lessNoise_PlusLocalization,2021.2.3,60.02201583428156,
,,,,,,,,farLeft,-19.1,5,ch1Sound_localizationTask.wav,-19.1,"(667, 878)","(-293,-202)",-285,-338,,,,,,,,,4,0,28,0,,,,,,,,,,,,,,,,,,,,,,,,,,,,,,,,,,,,,,,,,,,,1412.4246544519992,None,1413.5243976819984,None,1414.4577932739994,None,1.3354497354497354,0.8496038320008665,1414.4577932739994,None,,,,,,,,,,,,,,,,,101,001,2023_May_18_1313,SpeechDraft1Carolyn_lessNoise_PlusLocalization,2021.2.3,60.02201583428156,
,,,,,,,,center,0.0,6,ch1Sound_localizationTask.wav,0.0,"(952, 878)","(-8,-202)",0,-338,,,,,,,,,4,1,29,3,,,,,,,,,,,,,,,,,,,,,,,,,,,,,,,,,,,,,,,,,,,,1415.3079838749982,None,1416.407804898001,None,1417.3411274909959,None,1.506878306878307,2.0666176680024364,1417.3411274909959,None,,,,,,,,,,,,,,,,,101,001,2023_May_18_1313,SpeechDraft1Carolyn_lessNoise_PlusLocalization,2021.2.3,60.02201583428156,
,,,,,,,,farLeft,-19.1,5,ch1Sound_localizationTask.wav,-19.1,"(667, 878)","(-293,-202)",-285,-338,,,,,,,,,4,2,30,0,,,,,,,,,,,,,,,,,,,,,,,,,,,,,,,,,,,,,,,,,,,,1419.4080210690008,None,1420.5076454269947,None,1421.4411208919992,None,1.2634920634920634,1.283073879996664,1421.4411208919992,None,,,,,,,,,,,,,,,,,101,001,2023_May_18_1313,SpeechDraft1Carolyn_lessNoise_PlusLocalization,2021.2.3,60.02201583428156,
,,,,,,,,midRight,13.0,3,ch1Sound_localizationTask.wav,13.0,"(1142, 878)","(182, -202)",190,-338,,,,,,,,,4,3,31,5,,,,,,,,,,,,,,,,,,,,,,,,,,,,,,,,,,,,,,,,,,,,1422.7246089019973,None,1423.8244134709967,None,1424.7578407659967,None,1.535978835978836,1.031997070997022,1424.7578407659967,None,,,,,,,,,,,,,,,,,101,001,2023_May_18_1313,SpeechDraft1Carolyn_lessNoise_PlusLocalization,2021.2.3,60.02201583428156,
,,,,,,,,farLeft,-19.1,5,ch1Sound_localizationTask.wav,-19.1,"(667, 878)","(-293,-202)",-285,-338,,,,,,,,,4,4,32,0,,,,,,,,,,,,,,,,,,,,,,,,,,,,,,,,,,,,,,,,,,,,1425.7913021669956,None,1426.8912619519979,None,1427.8243629719946,None,1.2814814814814814,1.1000260549990344,1427.8243629719946,None,,,,,,,,,,,,,,,,,101,001,2023_May_18_1313,SpeechDraft1Carolyn_lessNoise_PlusLocalization,2021.2.3,60.02201583428156,
,,,,,,,,midLeft,-13.0,2,ch1Sound_localizationTask.wav,-13.0,"(762, 878)","(-198,-202)",-190,-338,,,,,,,,,4,5,33,1,,,,,,,,,,,,,,,,,,,,,,,,,,,,,,,,,,,,,,,,,,,,1428.9254466999992,None,1430.024438016997,None,1430.9577216729958,None,1.3634920634920635,0.8821812160022091,1430.9577216729958,None,,,,,,,,,,,,,,,,,101,001,2023_May_18_1313,SpeechDraft1Carolyn_lessNoise_PlusLocalization,2021.2.3,60.02201583428156,
,,,,,,,,midLeft,-13.0,2,ch1Sound_localizationTask.wav,-13.0,"(762, 878)","(-198,-202)",-190,-338,,,,,,,,,4,6,34,1,,,,,,,,,,,,,,,,,,,,,,,,,,,,,,,,,,,,,,,,,,,,1431.8413519759997,None,1432.9412151569995,None,1433.874443968998,None,1.3650793650793651,0.6998997639966547,1433.874443968998,None,,,,,,,,,,,,,,,,,101,001,2023_May_18_1313,SpeechDraft1Carolyn_lessNoise_PlusLocalization,2021.2.3,60.02201583428156,
,,,,,,,,farRight,19.1,4,ch1Sound_localizationTask.wav,19.1,"(1237, 878)","(277,-202)",285,-338,,,,,,,,,5,0,35,6,,,,,,,,,,,,,,,,,,,,,,,,,,,,,,,,,,,,,,,,,,,,1434.5746953779962,None,1435.6744439449976,None,1436.607825895997,None,1.571957671957672,1.3154606910029543,1436.607825895997,None,,,,,,,,,,,,,,,,,101,001,2023_May_18_1313,SpeechDraft1Carolyn_lessNoise_PlusLocalization,2021.2.3,60.02201583428156,
,,,,,,,,nearRight,6.5,0,ch1Sound_localizationTask.wav,6.5,"(1047, 878)","(87, -202)",95,-338,,,,,,,,,5,1,36,4,,,,,,,,,,,,,,,,,,,,,,,,,,,,,,,,,,,,,,,,,,,,1437.9246228560005,None,1439.024413774001,None,1439.9578516929978,None,1.4957671957671956,1.5495672750039375,1439.9578516929978,None,,,,,,,,,,,,,,,,,101,001,2023_May_18_1313,SpeechDraft1Carolyn_lessNoise_PlusLocalization,2021.2.3,60.02201583428156,
,,,,,,,,midRight,13.0,3,ch1Sound_localizationTask.wav,13.0,"(1142, 878)","(182, -202)",190,-338,,,,,,,,,5,2,37,5,,,,,,,,,,,,,,,,,,,,,,,,,,,,,,,,,,,,,,,,,,,,1441.5078894969993,None,1442.607734901998,None,1443.5412217709963,None,1.5698412698412698,0.9147076770022977,1443.5412217709963,None,,,,,,,,,,,,,,,,,101,001,2023_May_18_1313,SpeechDraft1Carolyn_lessNoise_PlusLocalization,2021.2.3,60.02201583428156,
,,,,,,,,farLeft,-19.1,5,ch1Sound_localizationTask.wav,-19.1,"(667, 878)","(-293,-202)",-285,-338,,,,,,,,,5,3,38,0,,,,,,,,,,,,,,,,,,,,,,,,,,,,,,,,,,,,,,,,,,,,1444.458100003998,None,1445.5580295990003,None,1446.4911294470003,None,1.380952380952381,1.1325192809963482,1446.4911294470003,None,,,,,,,,,,,,,,,,,101,001,2023_May_18_1313,SpeechDraft1Carolyn_lessNoise_PlusLocalization,2021.2.3,60.02201583428156,
,,,,,,,,center,0.0,6,ch1Sound_localizationTask.wav,0.0,"(952, 878)","(-8,-202)",0,-338,,,,,,,,,5,4,39,3,,,,,,,,,,,,,,,,,,,,,,,,,,,,,,,,,,,,,,,,,,,,1447.6247417709965,None,1448.7245566639976,None,1449.6577509969939,None,1.4936507936507937,1.0657510809978703,1449.6577509969939,None,,,,,,,,,,,,,,,,,101,001,2023_May_18_1313,SpeechDraft1Carolyn_lessNoise_PlusLocalization,2021.2.3,60.02201583428156,
,,,,,,,,midRight,13.0,3,ch1Sound_localizationTask.wav,13.0,"(1142, 878)","(182, -202)",190,-338,,,,,,,,,5,5,40,5,,,,,,,,,,,,,,,,,,,,,,,,,,,,,,,,,,,,,,,,,,,,1450.7246131079955,None,1451.8245569619976,None,1452.7578763689962,None,1.5629629629629629,0.8490121360009653,1452.7578763689962,None,,,,,,,,,,,,,,,,,101,001,2023_May_18_1313,SpeechDraft1Carolyn_lessNoise_PlusLocalization,2021.2.3,60.02201583428156,
,,,,,,,,center,0.0,6,ch1Sound_localizationTask.wav,0.0,"(952, 878)","(-8,-202)",0,-338,,,,,,,,,5,6,41,3,,,,,,,,,,,,,,,,,,,,,,,,,,,,,,,,,,,,,,,,,,,,1453.6079939699994,None,1454.7077977789959,None,1455.641080925001,None,1.474074074074074,0.7987558819950209,1455.641080925001,None,,,,,,,,,,,,,,,,,101,001,2023_May_18_1313,SpeechDraft1Carolyn_lessNoise_PlusLocalization,2021.2.3,60.02201583428156,
,,,,,,,,midLeft,-13.0,2,ch1Sound_localizationTask.wav,-13.0,"(762, 878)","(-198,-202)",-190,-338,,,,,,,,,6,0,42,1,,,,,,,,,,,,,,,,,,,,,,,,,,,,,,,,,,,,,,,,,,,,1456.4413107479995,None,1457.5411509699989,None,1458.4745505579995,None,1.3529100529100528,1.032742233001045,1458.4745505579995,None,,,,,,,,,,,,,,,,,101,001,2023_May_18_1313,SpeechDraft1Carolyn_lessNoise_PlusLocalization,2021.2.3,60.02201583428156,
,,,,,,,,nearLeft,-6.5,1,ch1Sound_localizationTask.wav,-6.5,"(857, 878)","(-103,-202)",-95,-338,,,,,,,,,6,1,43,2,,,,,,,,,,,,,,,,,,,,,,,,,,,,,,,,,,,,,,,,,,,,1459.508004051997,None,1460.6078389179966,None,1461.5412452819946,None,1.4873015873015873,0.8321826090032118,1461.5412452819946,None,,,,,,,,,,,,,,,,,101,001,2023_May_18_1313,SpeechDraft1Carolyn_lessNoise_PlusLocalization,2021.2.3,60.02201583428156,
,,,,,,,,farRight,19.1,4,ch1Sound_localizationTask.wav,19.1,"(1237, 878)","(277,-202)",285,-338,,,,,,,,,6,2,44,6,,,,,,,,,,,,,,,,,,,,,,,,,,,,,,,,,,,,,,,,,,,,1462.3746640669997,None,1463.474553617998,None,1464.4078334579972,None,1.6306878306878307,0.9323474729972077,1464.4078334579972,None,,,,,,,,,,,,,,,,,101,001,2023_May_18_1313,SpeechDraft1Carolyn_lessNoise_PlusLocalization,2021.2.3,60.02201583428156,
,,,,,,,,midLeft,-13.0,2,ch1Sound_localizationTask.wav,-13.0,"(762, 878)","(-198,-202)",-190,-338,,,,,,,,,6,3,45,1,,,,,,,,,,,,,,,,,,,,,,,,,,,,,,,,,,,,,,,,,,,,1465.3413521439943,None,1466.4412790450006,None,1467.3745800299948,None,1.3137566137566137,0.9996081400022376,1467.3745800299948,None,,,,,,,,,,,,,,,,,101,001,2023_May_18_1313,SpeechDraft1Carolyn_lessNoise_PlusLocalization,2021.2.3,60.02201583428156,
,,,,,,,,nearRight,6.5,0,ch1Sound_localizationTask.wav,6.5,"(1047, 878)","(87, -202)",95,-338,,,,,,,,,6,4,46,4,,,,,,,,,,,,,,,,,,,,,,,,,,,,,,,,,,,,,,,,,,,,1468.375803445997,None,1469.4746244720009,None,1470.4077409879974,None,1.5095238095238095,0.8493501269986155,1470.4077409879974,None,,,,,,,,,,,,,,,,,101,001,2023_May_18_1313,SpeechDraft1Carolyn_lessNoise_PlusLocalization,2021.2.3,60.02201583428156,
,,,,,,,,center,0.0,6,ch1Sound_localizationTask.wav,0.0,"(952, 878)","(-8,-202)",0,-338,,,,,,,,,6,5,47,3,,,,,,,,,,,,,,,,,,,,,,,,,,,,,,,,,,,,,,,,,,,,1471.2580591369988,None,1472.357925327,None,1473.2911354749958,None,1.4407407407407407,0.7324265350034693,1473.2911354749958,None,,,,,,,,,,,,,,,,,101,001,2023_May_18_1313,SpeechDraft1Carolyn_lessNoise_PlusLocalization,2021.2.3,60.02201583428156,
,,,,,,,,nearRight,6.5,0,ch1Sound_localizationTask.wav,6.5,"(1047, 878)","(87, -202)",95,-338,,,,,,,,,6,6,48,4,,,,,,,,,,,,,,,,,,,,,,,,,,,,,,,,,,,,,,,,,,,,1474.0247274939975,None,1475.1246166359997,None,1476.0577467029943,None,1.5052910052910053,0.8658233530004509,1476.0577467029943,None,,,,,,,,,,,,,,,,,101,001,2023_May_18_1313,SpeechDraft1Carolyn_lessNoise_PlusLocalization,2021.2.3,60.02201583428156,
,,,,,,,,nearLeft,-6.5,1,ch1Sound_localizationTask.wav,-6.5,"(857, 878)","(-103,-202)",-95,-338,,,,,,,,,7,0,49,2,,,,,,,,,,,,,,,,,,,,,,,,,,,,,,,,,,,,,,,,,,,,1476.9247522699952,None,1478.0245170929993,None,1478.9578344729962,None,1.4777777777777779,0.866774597998301,1478.9578344729962,None,,,,,,,,,,,,,,,,,101,001,2023_May_18_1313,SpeechDraft1Carolyn_lessNoise_PlusLocalization,2021.2.3,60.02201583428156,
,,,,,,,,midRight,13.0,3,ch1Sound_localizationTask.wav,13.0,"(1142, 878)","(182, -202)",190,-338,,,,,,,,,7,1,50,5,,,,,,,,,,,,,,,,,,,,,,,,,,,,,,,,,,,,,,,,,,,,1479.8246516469953,None,1480.9246820049957,None,1481.8577773840007,None,1.508994708994709,0.7316139819959062,1481.8577773840007,None,,,,,,,,,,,,,,,,,101,001,2023_May_18_1313,SpeechDraft1Carolyn_lessNoise_PlusLocalization,2021.2.3,60.02201583428156,
,,,,,,,,nearLeft,-6.5,1,ch1Sound_localizationTask.wav,-6.5,"(857, 878)","(-103,-202)",-95,-338,,,,,,,,,7,2,51,2,,,,,,,,,,,,,,,,,,,,,,,,,,,,,,,,,,,,,,,,,,,,1482.5914150719982,None,1483.6912133929945,None,1484.6245723549946,None,1.4973544973544972,0.8664419839988113,1484.6245723549946,None,,,,,,,,,,,,,,,,,101,001,2023_May_18_1313,SpeechDraft1Carolyn_lessNoise_PlusLocalization,2021.2.3,60.02201583428156,
,,,,,,,,midRight,13.0,3,ch1Sound_localizationTask.wav,13.0,"(1142, 878)","(182, -202)",190,-338,,,,,,,,,7,3,52,5,,,,,,,,,,,,,,,,,,,,,,,,,,,,,,,,,,,,,,,,,,,,1485.4914225889952,None,1486.5911402269994,None,1487.5244996679976,None,1.5264550264550265,0.9153100420007831,1487.5244996679976,None,,,,,,,,,,,,,,,,,101,001,2023_May_18_1313,SpeechDraft1Carolyn_lessNoise_PlusLocalization,2021.2.3,60.02201583428156,
,,,,,,,,farLeft,-19.1,5,ch1Sound_localizationTask.wav,-19.1,"(667, 878)","(-293,-202)",-285,-338,,,,,,,,,7,4,53,0,,,,,,,,,,,,,,,,,,,,,,,,,,,,,,,,,,,,,,,,,,,,1488.441483208997,None,1489.5412959589958,None,1490.4745309649952,None,1.2809523809523808,0.9485396630043397,1490.4745309649952,None,,,,,,,,,,,,,,,,,101,001,2023_May_18_1313,SpeechDraft1Carolyn_lessNoise_PlusLocalization,2021.2.3,60.02201583428156,
,,,,,,,,farRight,19.1,4,ch1Sound_localizationTask.wav,19.1,"(1237, 878)","(277,-202)",285,-338,,,,,,,,,7,5,54,6,,,,,,,,,,,,,,,,,,,,,,,,,,,,,,,,,,,,,,,,,,,,1491.4247947209951,None,1492.524584257997,None,1493.457921342997,None,1.682010582010582,1.082356910003,1493.457921342997,None,,,,,,,,,,,,,,,,,101,001,2023_May_18_1313,SpeechDraft1Carolyn_lessNoise_PlusLocalization,2021.2.3,60.02201583428156,
,,,,,,,,midRight,13.0,3,ch1Sound_localizationTask.wav,13.0,"(1142, 878)","(182, -202)",190,-338,,,,,,,,,7,6,55,5,,,,,,,,,,,,,,,,,,,,,,,,,,,,,,,,,,,,,,,,,,,,1494.5413638419996,None,1495.6410894599976,None,1496.5748189980004,None,1.553968253968254,2.798384449000878,1496.5748189980004,None,,,,,,,,,,,,,,,,,101,001,2023_May_18_1313,SpeechDraft1Carolyn_lessNoise_PlusLocalization,2021.2.3,60.02201583428156,
,,,,,,,,,,,,,,,,,,,,,,,,,,,,,,,,,,,,,,,,,,,,,,,,,,,,,,,,,,,,,,,,,,,,,,,,,,,,,,,,,,space,16.04736842100101,1499.4581326009938,None,,,,,,,,,,,,,101,001,2023_May_18_1313,SpeechDraft1Carolyn_lessNoise_PlusLocalization,2021.2.3,60.02201583428156,
,,,,,,,,farRight,19.1,4,ch1Sound_localizationTask.wav,19.1,"(1237, 878)","(277,-202)",285,-338,,,,,,,,,,,,,0,0,0,6,,,,,,,,,,,,,,,,,,,,,,,,,,,,,,,,,,,,,,,,1515.541394259999,None,,,1518.5589593409968,None,1.625925925925926,2.1374683389949496,1518.5589593409968,None,,,,,1499.4581326009938,None,1516.5415284099945,None,1516.7247905849945,1516.741552321997,,,,,,,101,001,2023_May_18_1313,SpeechDraft1Carolyn_lessNoise_PlusLocalization,2021.2.3,60.02201583428156,
,,,,,,,,midLeft,-13.0,2,ch1Sound_localizationTask.wav,-13.0,"(762, 878)","(-198,-202)",-190,-338,,,,,,,,,,,,,0,1,1,1,,,,,,,,,,,,,,,,,,,,,,,,,,,,,,,,,,,,,,,,1520.7081355939954,None,,,1523.724652041994,None,1.38994708994709,1.2656993169948692,1523.724652041994,None,,,,,,,1521.7080210939966,None,1521.8914613870002,1521.9080050009943,,,,,,,101,001,2023_May_18_1313,SpeechDraft1Carolyn_lessNoise_PlusLocalization,2021.2.3,60.02201583428156,
,,,,,,,,midRight,13.0,3,ch1Sound_localizationTask.wav,13.0,"(1142, 878)","(182, -202)",190,-338,,,,,,,,,,,,,0,2,2,5,,,,,,,,,,,,,,,,,,,,,,,,,,,,,,,,,,,,,,,,1524.9914119859968,None,,,1528.0077561519938,None,1.6116402116402115,0.9479027389970724,1528.0077561519938,None,,,,,,,1525.9914161880006,None,1526.1747317810004,1526.1914655369983,,,,,,,101,001,2023_May_18_1313,SpeechDraft1Carolyn_lessNoise_PlusLocalization,2021.2.3,60.02201583428156,
,,,,,,,,midLeft,-13.0,2,ch1Sound_localizationTask.wav,-13.0,"(762, 878)","(-198,-202)",-190,-338,,,,,,,,,,,,,0,3,3,1,,,,,,,,,,,,,,,,,,,,,,,,,,,,,,,,,,,,,,,,1528.9581262469947,None,,,1531.9746819569991,None,1.398941798941799,1.249166335001064,1531.9746819569991,None,,,,,,,1529.958189470999,None,1530.141544496997,1530.1581684539997,,,,,,,101,001,2023_May_18_1313,SpeechDraft1Carolyn_lessNoise_PlusLocalization,2021.2.3,60.02201583428156,
,,,,,,,,center,0.0,6,ch1Sound_localizationTask.wav,0.0,"(952, 878)","(-8,-202)",0,-338,,,,,,,,,,,,,0,4,4,3,,,,,,,,,,,,,,,,,,,,,,,,,,,,,,,,,,,,,,,,1533.224946604998,None,,,1536.2412076519977,None,1.4962962962962962,1.2156856590008829,1536.2412076519977,None,,,,,,,1534.224755149,None,1534.408111189994,1534.424836443999,,,,,,,101,001,2023_May_18_1313,SpeechDraft1Carolyn_lessNoise_PlusLocalization,2021.2.3,60.02201583428156,
,,,,,,,,farLeft,-19.1,5,ch1Sound_localizationTask.wav,-19.1,"(667, 878)","(-293,-202)",-285,-338,,,,,,,,,,,,,0,5,5,0,,,,,,,,,,,,,,,,,,,,,,,,,,,,,,,,,,,,,,,,1537.4581125749974,None,,,1540.4745482669969,None,1.3253968253968254,1.2156741799990414,1540.4745482669969,None,,,,,,,1538.4581633849957,None,1538.6415149879977,1538.658197662,,,,,,,101,001,2023_May_18_1313,SpeechDraft1Carolyn_lessNoise_PlusLocalization,2021.2.3,60.02201583428156,
,,,,,,,,midRight,13.0,3,ch1Sound_localizationTask.wav,13.0,"(1142, 878)","(182, -202)",190,-338,,,,,,,,,,,,,0,6,6,5,,,,,,,,,,,,,,,,,,,,,,,,,,,,,,,,,,,,,,,,1541.6916090759987,None,,,1544.7080873399973,None,1.5973544973544973,0.8485870329968748,1544.7080873399973,None,,,,,,,1542.691646526997,None,1542.8747460689992,1542.8916701179987,,,,,,,101,001,2023_May_18_1313,SpeechDraft1Carolyn_lessNoise_PlusLocalization,2021.2.3,60.02201583428156,
,,,,,,,,midLeft,-13.0,2,ch1Sound_localizationTask.wav,-13.0,"(762, 878)","(-198,-202)",-190,-338,,,,,,,,,,,,,1,0,7,1,,,,,,,,,,,,,,,,,,,,,,,,,,,,,,,,,,,,,,,,1545.5580335939958,None,,,1548.5746422359953,None,1.4195767195767197,1.1151458980020834,1548.5746422359953,None,,,,,,,1546.5580050879944,None,1546.7414680859947,1546.758075165999,,,,,,,101,001,2023_May_18_1313,SpeechDraft1Carolyn_lessNoise_PlusLocalization,2021.2.3,60.02201583428156,
,,,,,,,,center,0.0,6,ch1Sound_localizationTask.wav,0.0,"(952, 878)","(-8,-202)",0,-338,,,,,,,,,,,,,1,1,8,3,,,,,,,,,,,,,,,,,,,,,,,,,,,,,,,,,,,,,,,,1549.6914970549988,None,,,1552.7081197829975,None,1.4952380952380953,1.0154503079975257,1552.7081197829975,None,,,,,,,1550.691428620994,None,1550.8748017319958,1550.8914773279976,,,,,,,101,001,2023_May_18_1313,SpeechDraft1Carolyn_lessNoise_PlusLocalization,2021.2.3,60.02201583428156,
,,,,,,,,farLeft,-19.1,5,ch1Sound_localizationTask.wav,-19.1,"(667, 878)","(-293,-202)",-285,-338,,,,,,,,,,,,,1,2,9,0,,,,,,,,,,,,,,,,,,,,,,,,,,,,,,,,,,,,,,,,1553.7247527949949,None,,,1556.7413121680001,None,1.326984126984127,1.2821190979957464,1556.7413121680001,None,,,,,,,1554.7248443459976,None,1554.908196534001,1554.924702848999,,,,,,,101,001,2023_May_18_1313,SpeechDraft1Carolyn_lessNoise_PlusLocalization,2021.2.3,60.02201583428156,
,,,,,,,,nearRight,6.5,0,ch1Sound_localizationTask.wav,6.5,"(1047, 878)","(87, -202)",95,-338,,,,,,,,,,,,,1,3,10,4,,,,,,,,,,,,,,,,,,,,,,,,,,,,,,,,,,,,,,,,1558.0249651289996,None,,,1561.0411835529958,None,1.544973544973545,1.1321417200015276,1561.0411835529958,None,,,,,,,1559.0250328010006,None,1559.2082152209987,1559.2247897459965,,,,,,,101,001,2023_May_18_1313,SpeechDraft1Carolyn_lessNoise_PlusLocalization,2021.2.3,60.02201583428156,
,,,,,,,,midLeft,-13.0,2,ch1Sound_localizationTask.wav,-13.0,"(762, 878)","(-198,-202)",-190,-338,,,,,,,,,,,,,1,4,11,1,,,,,,,,,,,,,,,,,,,,,,,,,,,,,,,,,,,,,,,,1562.1748134609952,None,,,1565.191184587995,None,1.4084656084656084,0.8657902299964917,1565.191184587995,None,,,,,,,1563.1748560169945,None,1563.3581025349995,1563.3749404619957,,,,,,,101,001,2023_May_18_1313,SpeechDraft1Carolyn_lessNoise_PlusLocalization,2021.2.3,60.02201583428156,
,,,,,,,,nearRight,6.5,0,ch1Sound_localizationTask.wav,6.5,"(1047, 878)","(87, -202)",95,-338,,,,,,,,,,,,,1,5,12,4,,,,,,,,,,,,,,,,,,,,,,,,,,,,,,,,,,,,,,,,1566.0581697779999,None,,,1569.0746186589968,None,1.5560846560846562,1.19935298999917,1569.0746186589968,None,,,,,,,1567.058220111001,None,1567.2414852329966,1567.258181694997,,,,,,,101,001,2023_May_18_1313,SpeechDraft1Carolyn_lessNoise_PlusLocalization,2021.2.3,60.02201583428156,
,,,,,,,,farRight,19.1,4,ch1Sound_localizationTask.wav,19.1,"(1237, 878)","(277,-202)",285,-338,,,,,,,,,,,,,1,6,13,6,,,,,,,,,,,,,,,,,,,,,,,,,,,,,,,,,,,,,,,,1570.2748620209968,None,,,1573.2912204120003,None,1.6412698412698412,1.300207747000968,1573.2912204120003,None,,,,,,,1571.274779362997,None,1571.4581684980003,1571.4747738049991,,,,,,,101,001,2023_May_18_1313,SpeechDraft1Carolyn_lessNoise_PlusLocalization,2021.2.3,60.02201583428156,
,,,,,,,,center,0.0,6,ch1Sound_localizationTask.wav,0.0,"(952, 878)","(-8,-202)",0,-338,,,,,,,,,,,,,2,0,14,3,,,,,,,,,,,,,,,,,,,,,,,,,,,,,,,,,,,,,,,,1574.6081989359955,None,,,1577.624576795999,None,1.488888888888889,1.1814101220006705,1577.624576795999,None,,,,,,,1575.6081722159943,None,1575.7914107849938,1575.8082040399968,,,,,,,101,001,2023_May_18_1313,SpeechDraft1Carolyn_lessNoise_PlusLocalization,2021.2.3,60.02201583428156,
,,,,,,,,farRight,19.1,4,ch1Sound_localizationTask.wav,19.1,"(1237, 878)","(277,-202)",285,-338,,,,,,,,,,,,,2,1,15,6,,,,,,,,,,,,,,,,,,,,,,,,,,,,,,,,,,,,,,,,1578.8248853149998,None,,,1581.841249967998,None,1.6365079365079365,1.1005939349997789,1581.841249967998,None,,,,,,,1579.8248229870005,None,1580.0081680039948,1580.0247754379961,,,,,,,101,001,2023_May_18_1313,SpeechDraft1Carolyn_lessNoise_PlusLocalization,2021.2.3,60.02201583428156,
,,,,,,,,farLeft,-19.1,5,ch1Sound_localizationTask.wav,-19.1,"(667, 878)","(-293,-202)",-285,-338,,,,,,,,,,,,,2,2,16,0,,,,,,,,,,,,,,,,,,,,,,,,,,,,,,,,,,,,,,,,1582.9582346379975,None,,,1585.9746457759975,None,1.3555555555555556,1.099477654999646,1585.9746457759975,None,,,,,,,1583.9582342669964,None,1584.1414844459941,1584.158088706994,,,,,,,101,001,2023_May_18_1313,SpeechDraft1Carolyn_lessNoise_PlusLocalization,2021.2.3,60.02201583428156,
,,,,,,,,nearLeft,-6.5,1,ch1Sound_localizationTask.wav,-6.5,"(857, 878)","(-103,-202)",-95,-338,,,,,,,,,,,,,2,3,17,2,,,,,,,,,,,,,,,,,,,,,,,,,,,,,,,,,,,,,,,,1587.0914881930003,None,,,1590.1080019969959,None,1.4476190476190476,0.8983329900001991,1590.1080019969959,None,,,,,,,1588.0915204979974,None,1588.2747982349974,1588.2915211719956,,,,,,,101,001,2023_May_18_1313,SpeechDraft1Carolyn_lessNoise_PlusLocalization,2021.2.3,60.02201583428156,
,,,,,,,,center,0.0,6,ch1Sound_localizationTask.wav,0.0,"(952, 878)","(-8,-202)",0,-338,,,,,,,,,,,,,2,4,18,3,,,,,,,,,,,,,,,,,,,,,,,,,,,,,,,,,,,,,,,,1591.0085151239982,None,,,1594.024553491996,None,1.498941798941799,0.9485811189952074,1594.024553491996,None,,,,,,,1592.0082071319994,None,1592.1914602729958,1592.208194740997,,,,,,,101,001,2023_May_18_1313,SpeechDraft1Carolyn_lessNoise_PlusLocalization,2021.2.3,60.02201583428156,
,,,,,,,,farLeft,-19.1,5,ch1Sound_localizationTask.wav,-19.1,"(667, 878)","(-293,-202)",-285,-338,,,,,,,,,,,,,2,5,19,0,,,,,,,,,,,,,,,,,,,,,,,,,,,,,,,,,,,,,,,,1594.974818155999,None,,,1597.9913455679998,None,1.3338624338624339,1.332735790994775,1597.9913455679998,None,,,,,,,1595.9748840479951,None,1596.1582556479989,1596.1748305219953,,,,,,,101,001,2023_May_18_1313,SpeechDraft1Carolyn_lessNoise_PlusLocalization,2021.2.3,60.02201583428156,
,,,,,,,,nearRight,6.5,0,ch1Sound_localizationTask.wav,6.5,"(1047, 878)","(87, -202)",95,-338,,,,,,,,,,,,,2,6,20,4,,,,,,,,,,,,,,,,,,,,,,,,,,,,,,,,,,,,,,,,1599.3249289879968,None,,,1602.3414682049988,None,1.5243386243386243,1.1819484849984292,1602.3414682049988,None,,,,,,,1600.3249420389984,None,1600.5082139929946,1600.5249151649987,,,,,,,101,001,2023_May_18_1313,SpeechDraft1Carolyn_lessNoise_PlusLocalization,2021.2.3,60.02201583428156,
,,,,,,,,center,0.0,6,ch1Sound_localizationTask.wav,0.0,"(952, 878)","(-8,-202)",0,-338,,,,,,,,,,,,,3,0,21,3,,,,,,,,,,,,,,,,,,,,,,,,,,,,,,,,,,,,,,,,1603.524856363998,None,,,1606.5415090679962,None,1.480952380952381,1.8321272679968388,1606.5415090679962,None,,,,,,,1604.524872080001,None,1604.7082899419984,1604.7249246599968,,,,,,,101,001,2023_May_18_1313,SpeechDraft1Carolyn_lessNoise_PlusLocalization,2021.2.3,60.02201583428156,
,,,,,,,,center,0.0,6,ch1Sound_localizationTask.wav,0.0,"(952, 878)","(-8,-202)",0,-338,,,,,,,,,,,,,3,1,22,3,,,,,,,,,,,,,,,,,,,,,,,,,,,,,,,,,,,,,,,,1608.3749004489946,None,,,1611.3913873019992,None,1.5031746031746032,1.149320450000232,1611.3913873019992,None,,,,,,,1609.374928100995,None,1609.5582149589973,1609.5748730560008,,,,,,,101,001,2023_May_18_1313,SpeechDraft1Carolyn_lessNoise_PlusLocalization,2021.2.3,60.02201583428156,
,,,,,,,,midRight,13.0,3,ch1Sound_localizationTask.wav,13.0,"(1142, 878)","(182, -202)",190,-338,,,,,,,,,,,,,3,2,23,5,,,,,,,,,,,,,,,,,,,,,,,,,,,,,,,,,,,,,,,,1612.5416146829957,None,,,1615.5581681039985,None,1.6042328042328042,1.982198680001602,1615.5581681039985,None,,,,,,,1613.5416168089941,None,1613.724884450996,1613.7416100429982,,,,,,,101,001,2023_May_18_1313,SpeechDraft1Carolyn_lessNoise_PlusLocalization,2021.2.3,60.02201583428156,
,,,,,,,,farRight,19.1,4,ch1Sound_localizationTask.wav,19.1,"(1237, 878)","(277,-202)",285,-338,,,,,,,,,,,,,3,3,24,6,,,,,,,,,,,,,,,,,,,,,,,,,,,,,,,,,,,,,,,,1617.541447126001,None,,,1620.5580430229966,None,1.632804232804233,0.9492015569994692,1620.5580430229966,None,,,,,,,1618.5415420969948,None,1618.724886131,1618.7414866139952,,,,,,,101,001,2023_May_18_1313,SpeechDraft1Carolyn_lessNoise_PlusLocalization,2021.2.3,60.02201583428156,
,,,,,,,,farLeft,-19.1,5,ch1Sound_localizationTask.wav,-19.1,"(667, 878)","(-293,-202)",-285,-338,,,,,,,,,,,,,3,4,25,0,,,,,,,,,,,,,,,,,,,,,,,,,,,,,,,,,,,,,,,,1621.5083118599941,None,,,1624.5247435409983,None,1.3492063492063493,1.2156206059953547,1624.5247435409983,None,,,,,,,1622.5082031009952,None,1622.691565368994,1622.708267873997,,,,,,,101,001,2023_May_18_1313,SpeechDraft1Carolyn_lessNoise_PlusLocalization,2021.2.3,60.02201583428156,
,,,,,,,,nearLeft,-6.5,1,ch1Sound_localizationTask.wav,-6.5,"(857, 878)","(-103,-202)",-95,-338,,,,,,,,,,,,,3,5,26,2,,,,,,,,,,,,,,,,,,,,,,,,,,,,,,,,,,,,,,,,1625.757989247999,None,,,1628.7747407419956,None,1.438095238095238,1.0984152059972985,1628.7747407419956,None,,,,,,,1626.7581254510005,None,1626.941742557996,1626.9581011639966,,,,,,,101,001,2023_May_18_1313,SpeechDraft1Carolyn_lessNoise_PlusLocalization,2021.2.3,60.02201583428156,
,,,,,,,,nearRight,6.5,0,ch1Sound_localizationTask.wav,6.5,"(1047, 878)","(87, -202)",95,-338,,,,,,,,,,,,,3,6,27,4,,,,,,,,,,,,,,,,,,,,,,,,,,,,,,,,,,,,,,,,1629.8749736099999,None,,,1632.8913670830007,None,1.535978835978836,0.8657386390041211,1632.8913670830007,None,,,,,,,1630.8748980539967,None,1631.0583459650006,1631.0749565299993,,,,,,,101,001,2023_May_18_1313,SpeechDraft1Carolyn_lessNoise_PlusLocalization,2021.2.3,60.02201583428156,
,,,,,,,,nearLeft,-6.5,1,ch1Sound_localizationTask.wav,-6.5,"(857, 878)","(-103,-202)",-95,-338,,,,,,,,,,,,,4,0,28,2,,,,,,,,,,,,,,,,,,,,,,,,,,,,,,,,,,,,,,,,1633.758323782,None,,,1636.7747919009998,None,1.4502645502645501,1.0827802999992855,1636.7747919009998,None,,,,,,,1634.758299918998,None,1634.9415852989987,1634.9583488159988,,,,,,,101,001,2023_May_18_1313,SpeechDraft1Carolyn_lessNoise_PlusLocalization,2021.2.3,60.02201583428156,
,,,,,,,,nearLeft,-6.5,1,ch1Sound_localizationTask.wav,-6.5,"(857, 878)","(-103,-202)",-95,-338,,,,,,,,,,,,,4,1,29,2,,,,,,,,,,,,,,,,,,,,,,,,,,,,,,,,,,,,,,,,1637.8583360509947,None,,,1640.8747205889958,None,1.4455026455026454,1.6839097010015394,1640.8747205889958,None,,,,,,,1638.8582949619959,None,1639.041628191997,1639.0583156799985,,,,,,,101,001,2023_May_18_1313,SpeechDraft1Carolyn_lessNoise_PlusLocalization,2021.2.3,60.02201583428156,
,,,,,,,,center,0.0,6,ch1Sound_localizationTask.wav,0.0,"(952, 878)","(-8,-202)",0,-338,,,,,,,,,,,,,4,2,30,3,,,,,,,,,,,,,,,,,,,,,,,,,,,,,,,,,,,,,,,,1642.5750481939976,None,,,1645.591287078998,None,1.51005291005291,0.8991113049996784,1645.591287078998,None,,,,,,,1643.5749929059966,None,1643.7582216329974,1643.7749311379957,,,,,,,101,001,2023_May_18_1313,SpeechDraft1Carolyn_lessNoise_PlusLocalization,2021.2.3,60.02201583428156,
,,,,,,,,center,0.0,6,ch1Sound_localizationTask.wav,0.0,"(952, 878)","(-8,-202)",0,-338,,,,,,,,,,,,,4,3,31,3,,,,,,,,,,,,,,,,,,,,,,,,,,,,,,,,,,,,,,,,1646.4915780390002,None,,,1649.508078630999,None,1.492063492063492,0.9152827740035718,1649.508078630999,None,,,,,,,1647.4916032649999,None,1647.6749360289978,1647.691690941996,,,,,,,101,001,2023_May_18_1313,SpeechDraft1Carolyn_lessNoise_PlusLocalization,2021.2.3,60.02201583428156,
,,,,,,,,midLeft,-13.0,2,ch1Sound_localizationTask.wav,-13.0,"(762, 878)","(-198,-202)",-190,-338,,,,,,,,,,,,,4,4,32,1,,,,,,,,,,,,,,,,,,,,,,,,,,,,,,,,,,,,,,,,1650.4248887919966,None,,,1653.4415816239998,None,1.402116402116402,0.8823362859984627,1653.4415816239998,None,,,,,,,1651.4250163799952,None,1651.6082267279999,1651.6249880719988,,,,,,,101,001,2023_May_18_1313,SpeechDraft1Carolyn_lessNoise_PlusLocalization,2021.2.3,60.02201583428156,
,,,,,,,,nearRight,6.5,0,ch1Sound_localizationTask.wav,6.5,"(1047, 878)","(87, -202)",95,-338,,,,,,,,,,,,,4,5,33,4,,,,,,,,,,,,,,,,,,,,,,,,,,,,,,,,,,,,,,,,1654.3249212749943,None,,,1657.341464334997,None,1.547089947089947,0.6478839679984958,1657.341464334997,None,,,,,,,1655.3249323409982,None,1655.508254704997,1655.5250377259945,,,,,,,101,001,2023_May_18_1313,SpeechDraft1Carolyn_lessNoise_PlusLocalization,2021.2.3,60.02201583428156,
,,,,,,,,nearLeft,-6.5,1,ch1Sound_localizationTask.wav,-6.5,"(857, 878)","(-103,-202)",-95,-338,,,,,,,,,,,,,4,6,34,2,,,,,,,,,,,,,,,,,,,,,,,,,,,,,,,,,,,,,,,,1657.9916262539991,None,,,1661.0081294229967,None,1.4227513227513229,1.1988346109937993,1661.0081294229967,None,,,,,,,1658.991590464997,None,1659.1749683099988,1659.1915711839974,,,,,,,101,001,2023_May_18_1313,SpeechDraft1Carolyn_lessNoise_PlusLocalization,2021.2.3,60.02201583428156,
,,,,,,,,midLeft,-13.0,2,ch1Sound_localizationTask.wav,-13.0,"(762, 878)","(-198,-202)",-190,-338,,,,,,,,,,,,,5,0,35,1,,,,,,,,,,,,,,,,,,,,,,,,,,,,,,,,,,,,,,,,1662.2084197209988,None,,,1665.2247047199999,None,1.402116402116402,0.9148303239999223,1665.2247047199999,None,,,,,,,1663.208288187001,None,1663.391778418998,1663.4083423259945,,,,,,,101,001,2023_May_18_1313,SpeechDraft1Carolyn_lessNoise_PlusLocalization,2021.2.3,60.02201583428156,
,,,,,,,,nearLeft,-6.5,1,ch1Sound_localizationTask.wav,-6.5,"(857, 878)","(-103,-202)",-95,-338,,,,,,,,,,,,,5,1,36,2,,,,,,,,,,,,,,,,,,,,,,,,,,,,,,,,,,,,,,,,1666.1415968049987,None,,,1669.1581472489997,None,1.4328042328042327,1.182368050001969,1669.1581472489997,None,,,,,,,1667.1416965479948,None,1667.324964265994,1667.3416720530004,,,,,,,101,001,2023_May_18_1313,SpeechDraft1Carolyn_lessNoise_PlusLocalization,2021.2.3,60.02201583428156,
,,,,,,,,farRight,19.1,4,ch1Sound_localizationTask.wav,19.1,"(1237, 878)","(277,-202)",285,-338,,,,,,,,,,,,,5,2,37,6,,,,,,,,,,,,,,,,,,,,,,,,,,,,,,,,,,,,,,,,1670.3416194659949,None,,,1673.3581026309985,None,1.6412698412698412,1.09906739500002,1673.3581026309985,None,,,,,,,1671.3415883919952,None,1671.525112530995,1671.5415852119986,,,,,,,101,001,2023_May_18_1313,SpeechDraft1Carolyn_lessNoise_PlusLocalization,2021.2.3,60.02201583428156,
,,,,,,,,nearRight,6.5,0,ch1Sound_localizationTask.wav,6.5,"(1047, 878)","(87, -202)",95,-338,,,,,,,,,,,,,5,3,38,4,,,,,,,,,,,,,,,,,,,,,,,,,,,,,,,,,,,,,,,,1674.458386127997,None,,,1677.474920405999,None,1.5613756613756613,0.7492594599971198,1677.474920405999,None,,,,,,,1675.4584279699993,None,1675.6415844910007,1675.6583827110007,,,,,,,101,001,2023_May_18_1313,SpeechDraft1Carolyn_lessNoise_PlusLocalization,2021.2.3,60.02201583428156,
,,,,,,,,farRight,19.1,4,ch1Sound_localizationTask.wav,19.1,"(1237, 878)","(277,-202)",285,-338,,,,,,,,,,,,,5,4,39,6,,,,,,,,,,,,,,,,,,,,,,,,,,,,,,,,,,,,,,,,1678.2249999829946,None,,,1681.2416090490005,None,1.6513227513227513,1.2158007480029482,1681.2416090490005,None,,,,,,,1679.2249805039974,None,1679.4084175679964,1679.425066527001,,,,,,,101,001,2023_May_18_1313,SpeechDraft1Carolyn_lessNoise_PlusLocalization,2021.2.3,60.02201583428156,
,,,,,,,,farLeft,-19.1,5,ch1Sound_localizationTask.wav,-19.1,"(667, 878)","(-293,-202)",-285,-338,,,,,,,,,,,,,5,5,40,0,,,,,,,,,,,,,,,,,,,,,,,,,,,,,,,,,,,,,,,,1682.4584668789976,None,,,1685.4749063679992,None,1.334920634920635,1.1145408239972312,1685.4749063679992,None,,,,,,,1683.4582970699994,None,1683.6415815329965,1683.6583035799995,,,,,,,101,001,2023_May_18_1313,SpeechDraft1Carolyn_lessNoise_PlusLocalization,2021.2.3,60.02201583428156,
,,,,,,,,nearRight,6.5,0,ch1Sound_localizationTask.wav,6.5,"(1047, 878)","(87, -202)",95,-338,,,,,,,,,,,,,5,6,41,4,,,,,,,,,,,,,,,,,,,,,,,,,,,,,,,,,,,,,,,,1686.5916114879947,None,,,1689.6081772420002,None,1.561904761904762,0.8659309279973968,1689.6081772420002,None,,,,,,,1687.591681727994,None,1687.7750119029952,1687.7917104890003,,,,,,,101,001,2023_May_18_1313,SpeechDraft1Carolyn_lessNoise_PlusLocalization,2021.2.3,60.02201583428156,
,,,,,,,,nearLeft,-6.5,1,ch1Sound_localizationTask.wav,-6.5,"(857, 878)","(-103,-202)",-95,-338,,,,,,,,,,,,,6,0,42,2,,,,,,,,,,,,,,,,,,,,,,,,,,,,,,,,,,,,,,,,1690.4917184749938,None,,,1693.508175817995,None,1.4423280423280422,2.332253321997996,1693.508175817995,None,,,,,,,1691.491908924996,None,1691.6750125170001,1691.6917154969997,,,,,,,101,001,2023_May_18_1313,SpeechDraft1Carolyn_lessNoise_PlusLocalization,2021.2.3,60.02201583428156,
,,,,,,,,nearLeft,-6.5,1,ch1Sound_localizationTask.wav,-6.5,"(857, 878)","(-103,-202)",-95,-338,,,,,,,,,,,,,6,1,43,2,,,,,,,,,,,,,,,,,,,,,,,,,,,,,,,,,,,,,,,,1695.8416691940001,None,,,1698.8581221419954,None,1.4687830687830687,0.7648113460018067,1698.8581221419954,None,,,,,,,1696.8416968210004,None,1697.0251435329992,1697.0417666249996,,,,,,,101,001,2023_May_18_1313,SpeechDraft1Carolyn_lessNoise_PlusLocalization,2021.2.3,60.02201583428156,
,,,,,,,,farRight,19.1,4,ch1Sound_localizationTask.wav,19.1,"(1237, 878)","(277,-202)",285,-338,,,,,,,,,,,,,6,2,44,6,,,,,,,,,,,,,,,,,,,,,,,,,,,,,,,,,,,,,,,,1699.6250281739995,None,,,1702.6414851029986,None,1.6402116402116402,1.0827538950034068,1702.6414851029986,None,,,,,,,1700.6250472440006,None,1700.8083856489975,1700.825013499998,,,,,,,101,001,2023_May_18_1313,SpeechDraft1Carolyn_lessNoise_PlusLocalization,2021.2.3,60.02201583428156,
,,,,,,,,midRight,13.0,3,ch1Sound_localizationTask.wav,13.0,"(1142, 878)","(182, -202)",190,-338,,,,,,,,,,,,,6,3,45,5,,,,,,,,,,,,,,,,,,,,,,,,,,,,,,,,,,,,,,,,1703.725028681998,None,,,1706.7416020289966,None,1.5904761904761906,0.8658081709945691,1706.7416020289966,None,,,,,,,1704.7251067359975,None,1704.908320882998,1704.9250439940006,,,,,,,101,001,2023_May_18_1313,SpeechDraft1Carolyn_lessNoise_PlusLocalization,2021.2.3,60.02201583428156,
,,,,,,,,midRight,13.0,3,ch1Sound_localizationTask.wav,13.0,"(1142, 878)","(182, -202)",190,-338,,,,,,,,,,,,,6,4,46,5,,,,,,,,,,,,,,,,,,,,,,,,,,,,,,,,,,,,,,,,1707.608436595001,None,,,1710.624877301998,None,1.6005291005291005,0.6828830979939085,1710.624877301998,None,,,,,,,1708.6084152999974,None,1708.7917594139944,1708.8082938719963,,,,,,,101,001,2023_May_18_1313,SpeechDraft1Carolyn_lessNoise_PlusLocalization,2021.2.3,60.02201583428156,
,,,,,,,,midRight,13.0,3,ch1Sound_localizationTask.wav,13.0,"(1142, 878)","(182, -202)",190,-338,,,,,,,,,,,,,6,5,47,5,,,,,,,,,,,,,,,,,,,,,,,,,,,,,,,,,,,,,,,,1711.3083424409997,None,,,1714.3249273959955,None,1.58994708994709,0.864806306999526,1714.3249273959955,None,,,,,,,1712.3084548129991,None,1712.491662722001,1712.5084575209985,,,,,,,101,001,2023_May_18_1313,SpeechDraft1Carolyn_lessNoise_PlusLocalization,2021.2.3,60.02201583428156,
,,,,,,,,midLeft,-13.0,2,ch1Sound_localizationTask.wav,-13.0,"(762, 878)","(-198,-202)",-190,-338,,,,,,,,,,,,,6,6,48,1,,,,,,,,,,,,,,,,,,,,,,,,,,,,,,,,,,,,,,,,1715.1917070679992,None,,,1718.2081328629938,None,1.3973544973544973,0.8988432019978063,1718.2081328629938,None,,,,,,,1716.1918535500008,None,1716.3751591260007,1716.391772295996,,,,,,,101,001,2023_May_18_1313,SpeechDraft1Carolyn_lessNoise_PlusLocalization,2021.2.3,60.02201583428156,
,,,,,,,,midLeft,-13.0,2,ch1Sound_localizationTask.wav,-13.0,"(762, 878)","(-198,-202)",-190,-338,,,,,,,,,,,,,7,0,49,1,,,,,,,,,,,,,,,,,,,,,,,,,,,,,,,,,,,,,,,,1719.1083784660004,None,,,1722.1248200049959,None,1.4047619047619047,0.9156143579966738,1722.1248200049959,None,,,,,,,1720.1083978620009,None,1720.2917349939962,1720.3084040589965,,,,,,,101,001,2023_May_18_1313,SpeechDraft1Carolyn_lessNoise_PlusLocalization,2021.2.3,60.02201583428156,
,,,,,,,,farLeft,-19.1,5,ch1Sound_localizationTask.wav,-19.1,"(667, 878)","(-293,-202)",-285,-338,,,,,,,,,,,,,7,1,50,0,,,,,,,,,,,,,,,,,,,,,,,,,,,,,,,,,,,,,,,,1723.0417371769945,None,,,1726.0582084639973,None,1.3365079365079366,0.9488176779996138,1726.0582084639973,None,,,,,,,1724.0416262609942,None,1724.225099118994,1724.2417091109965,,,,,,,101,001,2023_May_18_1313,SpeechDraft1Carolyn_lessNoise_PlusLocalization,2021.2.3,60.02201583428156,
,,,,,,,,midRight,13.0,3,ch1Sound_localizationTask.wav,13.0,"(1142, 878)","(182, -202)",190,-338,,,,,,,,,,,,,7,2,51,5,,,,,,,,,,,,,,,,,,,,,,,,,,,,,,,,,,,,,,,,1727.0084615109954,None,,,1730.024791787997,None,1.5862433862433862,1.0155181609952706,1730.024791787997,None,,,,,,,1728.0084626009993,None,1728.191725314995,1728.2083592880008,,,,,,,101,001,2023_May_18_1313,SpeechDraft1Carolyn_lessNoise_PlusLocalization,2021.2.3,60.02201583428156,
,,,,,,,,midRight,13.0,3,ch1Sound_localizationTask.wav,13.0,"(1142, 878)","(182, -202)",190,-338,,,,,,,,,,,,,7,3,52,5,,,,,,,,,,,,,,,,,,,,,,,,,,,,,,,,,,,,,,,,1731.0416443009963,None,,,1734.0581555649987,None,1.5952380952380953,1.0326728639993235,1734.0581555649987,None,,,,,,,1732.0417021449975,None,1732.224972721,1732.2417736729985,,,,,,,101,001,2023_May_18_1313,SpeechDraft1Carolyn_lessNoise_PlusLocalization,2021.2.3,60.02201583428156,
,,,,,,,,farRight,19.1,4,ch1Sound_localizationTask.wav,19.1,"(1237, 878)","(277,-202)",285,-338,,,,,,,,,,,,,7,4,53,6,,,,,,,,,,,,,,,,,,,,,,,,,,,,,,,,,,,,,,,,1735.0917426640008,None,,,1738.1083446919947,None,1.6703703703703705,1.2156008250021841,1738.1083446919947,None,,,,,,,1736.0917666489986,None,1736.2752328450006,1736.2917805469988,,,,,,,101,001,2023_May_18_1313,SpeechDraft1Carolyn_lessNoise_PlusLocalization,2021.2.3,60.02201583428156,
,,,,,,,,farLeft,-19.1,5,ch1Sound_localizationTask.wav,-19.1,"(667, 878)","(-293,-202)",-285,-338,,,,,,,,,,,,,7,5,54,0,,,,,,,,,,,,,,,,,,,,,,,,,,,,,,,,,,,,,,,,1739.3250855000006,None,,,1742.3416193719968,None,1.3444444444444446,1.1828106659959303,1742.3416193719968,None,,,,,,,1740.3250503289964,None,1740.5085285469977,1740.525032728001,,,,,,,101,001,2023_May_18_1313,SpeechDraft1Carolyn_lessNoise_PlusLocalization,2021.2.3,60.02201583428156,
,,,,,,,,nearRight,6.5,0,ch1Sound_localizationTask.wav,6.5,"(1047, 878)","(87, -202)",95,-338,,,,,,,,,,,,,7,6,55,4,,,,,,,,,,,,,,,,,,,,,,,,,,,,,,,,,,,,,,,,1743.5249709639975,None,,,1746.5415396819953,None,1.5455026455026455,1.283471268005087,1746.5415396819953,None,,,,,,,1744.5250682229962,None,1744.7084249679974,1744.725084439,,,,,,,101,001,2023_May_18_1313,SpeechDraft1Carolyn_lessNoise_PlusLocalization,2021.2.3,60.02201583428156,
,,,,,,,,,,,,,,,,,,,,,,,,,,,,,,,,,,,,,,,,,,,,,,,,,,,,,,,,,,,,,,,,,,,,,,,,,,,,,,,,,,,,,,,,,,,,1747.8256449559995,None,c,127.57712848600204,1748.8084145449975,None,101,001,2023_May_18_1313,SpeechDraft1Carolyn_lessNoise_PlusLocalization,2021.2.3,60.02201583428156,
