{"meta_data":{"additional_headers":{},"game_name":"Recollect","version":"2.53.01","user_name":"101","organization":"braingamecenter","study":"mpl2_2022_11","session_number":0,"device_id":"74342D95-EE82-45E3-8ADF-48FB3203C5DD"},"data":[{"stage":"Practice","trial":0,"sequence":"6F","letter_input":"F","number_input":"6","is_correct":true,"presentation_start_time":1684436995174.22,"presentation_end_time":1684436998175.79,"response_time":1684437008189.87},{"stage":"Practice","trial":1,"sequence":"G4","letter_input":"G","number_input":"4","is_correct":true,"presentation_start_time":1684437009719.48,"presentation_end_time":1684437012721.05,"response_time":1684437017633.73},{"stage":"Practice","trial":2,"sequence":"3W5","letter_input":"W","number_input":"35","is_correct":true,"presentation_start_time":1684437019166.48,"presentation_end_time":1684437023667.63,"response_time":1684437030579.55},{"stage":"Practice","trial":3,"sequence":"T7L","letter_input":"LT","number_input":"7","is_correct":true,"presentation_start_time":1684437032112.22,"presentation_end_time":1684437036613.33,"response_time":1684437045941.15},{"stage":"Practice","trial":4,"sequence":"9J1","letter_input":"J","number_input":"19","is_correct":true,"presentation_start_time":1684437047473.91,"presentation_end_time":1684437051975,"response_time":1684437060586.49},{"stage":"Calibration","trial":0,"sequence":"Z7","letter_input":"Z","number_input":"7","is_correct":true,"presentation_start_time":1684437076697.77,"presentation_end_time":1684437079699.52,"response_time":1684437085828.19},{"stage":"Calibration","trial":1,"sequence":"3G","letter_input":"G","number_input":"3","is_correct":true,"presentation_start_time":1684437087360.98,"presentation_end_time":1684437090362.52,"response_time":1684437094392.15},{"stage":"Calibration","trial":2,"sequence":"Q5F","letter_input":"FQ","number_input":"5","is_correct":true,"presentation_start_time":1684437095924.91,"presentation_end_time":1684437100425.87,"response_time":1684437108037.68},{"stage":"Calibration","trial":3,"sequence":"9K6","letter_input":"K","number_input":"69","is_correct":true,"presentation_start_time":1684437109570.38,"presentation_end_time":1684437114071.56,"response_time":1684437118367.73},{"stage":"Calibration","trial":4,"sequence":"Q3F1","letter_input":"FQ","number_input":"13","is_correct":true,"presentation_start_time":1684437119900.4,"presentation_end_time":1684437125901.05,"response_time":1684437134212.51},{"stage":"Calibration","trial":5,"sequence":"6Y2N","letter_input":"NY","number_input":"26","is_correct":true,"presentation_start_time":1684437135745.23,"presentation_end_time":1684437141745.75,"response_time":1684437149141.08},{"stage":"Calibration","trial":6,"sequence":"C9P1H","letter_input":"CHP","number_input":"19","is_correct":true,"presentation_start_time":1684437150673.77,"presentation_end_time":1684437158174.05,"response_time":1684437170234.2},{"stage":"Calibration","trial":7,"sequence":"2Y7M5","letter_input":"MY","number_input":"257","is_correct":true,"presentation_start_time":1684437171766.91,"presentation_end_time":1684437179267.06,"response_time":1684437193560},{"stage":"Calibration","trial":8,"sequence":"K8A6W4","letter_input":"AKW","number_input":"478","is_correct":false,"presentation_start_time":1684437195092.68,"presentation_end_time":1684437204092.38,"response_time":1684437232947.18},{"stage":"Calibration","trial":9,"sequence":"9Z3L1F","letter_input":"LWZ","number_input":"139","is_correct":false,"presentation_start_time":1684437234479.87,"presentation_end_time":1684437243479.54,"response_time":1684437276199.81}]}