Audio_Only_Files,Video_Files,Original_Word_List,noiseLevelCode,conditionCodes,noiseLevelFile1,noiseLevelFile2,InstrTextVar,targetSpeakerName,targetSpeakerEccen,targetSpkrChannel,targetSpkrSound,targetVisualDegrees,visStimLoc,visStimLoc2,visStimW,visStimH,practiceTrials.thisRepN,practiceTrials.thisTrialN,practiceTrials.thisN,practiceTrials.thisIndex,trials.thisRepN,trials.thisTrialN,trials.thisN,trials.thisIndex,audLocalLoop.thisRepN,audLocalLoop.thisTrialN,audLocalLoop.thisN,audLocalLoop.thisIndex,visualLocalLoop.thisRepN,visualLocalLoop.thisTrialN,visualLocalLoop.thisN,visualLocalLoop.thisIndex,letsGoAlready.keys,letsGoAlready.rt,letsGoAlready.started,letsGoAlready.stopped,text_2.started,text_2.stopped,text_3.started,text_3.stopped,key_resp_2.keys,key_resp_2.rt,key_resp_2.started,key_resp_2.stopped,text_5.started,text_5.stopped,fixCross.started,fixCross.stopped,fixCross2.started,fixCross2.stopped,answerPrompt.started,answerPrompt.stopped,getAnswer.text,getAnswer.started,getAnswer.stopped,goToNext.keys,goToNext.rt,goToNext.started,goToNext.stopped,stretchBreakTxrt.started,stretchBreakTxrt.stopped,key_resp_3.keys,key_resp_3.rt,key_resp_3.started,key_resp_3.stopped,letsGoLocal.keys,letsGoLocal.rt,letsGoLocal.started,letsGoLocal.stopped,text_4.started,text_4.stopped,prepFixTxt.started,prepFixTxt.stopped,prepFixTxt_2.started,prepFixTxt_2.stopped,respPromptLocal.started,respPromptLocal.stopped,slider.response,slider.rt,slider.started,slider.stopped,letsGoLocal_2.keys,letsGoLocal_2.rt,letsGoLocal_2.started,letsGoLocal_2.stopped,text_7.started,text_7.stopped,prepFixTxt_3.started,prepFixTxt_3.stopped,grating.started,grating.stopped,exitTxt.started,exitTxt.stopped,key_resp.keys,key_resp.rt,key_resp.started,key_resp.stopped,participant,session,date,expName,psychopyVersion,frameRate,
,,,,,,,,,,,,,,,,,,,,,,,,,,,,,,,,,space,19.630794791999506,14.246082746001775,None,,,,,,,,,,,,,,,,,,,,,,,,,,,,,,,,,,,,,,,,,,,,,,,,,,,,,,,,,,,,,,102,001,2023_May_18_1646,SpeechDraft1Carolyn_lessNoise_PlusLocalization,2021.2.3,60.02504364776404,
,,,,,,,,,,,,,,,,,,,,,,,,,,,,,,,,,,,,,14.246082746001775,None,33.99571650099824,None,space,12.513530107004044,34.17941637700278,None,,,,,,,,,,,,,,,,,,,,,,,,,,,,,,,,,,,,,,,,,,,,,,,,,,,,,,102,001,2023_May_18_1646,SpeechDraft1Carolyn_lessNoise_PlusLocalization,2021.2.3,60.02504364776404,
ash.wav,ash.mpg,ash,1,A,Pink_Noise_1_1.wav,Pink_Noise_1_2.wav,"This is an example of an

AUDIO trial",,,,,,,,,,0,0,0,0,,,,,,,,,,,,,,,,,,,,,,,,,46.72948339700088,None,47.72939823300112,None,50.94585818300402,None,52.331243393004115,None,ash,52.331243393004115,None,return,4.4801458829970215,52.41280946700135,None,,,,,,,,,,,,,,,,,,,,,,,,,,,,,,,,,,,,,,,102,001,2023_May_18_1646,SpeechDraft1Carolyn_lessNoise_PlusLocalization,2021.2.3,60.02504364776404,
ash.wav,ash.mpg,ash,1,AV,Pink_Noise_1_1.wav,Pink_Noise_1_2.wav,"This is an example of an

AUDIO + VIDEO  trial",,,,,,,,,,0,1,1,1,,,,,,,,,,,,,,,,,,,,,,,,,56.92898068900104,None,57.92935004299943,None,59.41251441500208,None,60.795859450001444,None,ash,60.795859450001444,None,return,4.413562791000004,60.87939211999765,None,,,,,,,,,,,,,,,,,,,,,,,,,,,,,,,,,,,,,,,102,001,2023_May_18_1646,SpeechDraft1Carolyn_lessNoise_PlusLocalization,2021.2.3,60.02504364776404,
,,,,,,,,,,,,,,,,,,,,,,,,,,,,,,,,,,,,,,,,,,,,,,,,,,,,,,,,,,,,65.32916340800148,None,space,9.684227199002635,65.51265284400142,None,,,,,,,,,,,,,,,,,,,,,,,,,,,,,,,,,102,001,2023_May_18_1646,SpeechDraft1Carolyn_lessNoise_PlusLocalization,2021.2.3,60.02504364776404,
blue.wav,blue.mpg,blue,1,A,Pink_Noise_1_1.wav,Pink_Noise_1_2.wav,,,,,,,,,,,,,,,0,0,0,42,,,,,,,,,,,,,,,,,,,,,,,75.24582337000174,None,76.74577714900079,None,78.12944957400032,None,"blue
",78.12944957400032,None,return,3.384195381004247,78.21268790899921,None,,,,,,,,,,,,,,,,,,,,,,,,,,,,,,,,,,,,,,,102,001,2023_May_18_1646,SpeechDraft1Carolyn_lessNoise_PlusLocalization,2021.2.3,60.02504364776404,
block.wav,block.mpg,block,1,AV,Pink_Noise_1_1.wav,Pink_Noise_1_2.wav,,,,,,,,,,,,,,,0,1,1,104,,,,,,,,,,,,,,,,,,,,,,,81.62947181900381,None,83.12908061200142,None,84.51261921900004,None,"block
",84.51261921900004,None,return,3.368664487999922,84.5962049209993,None,,,,,,,,,,,,,,,,,,,,,,,,,,,,,,,,,,,,,,,102,001,2023_May_18_1646,SpeechDraft1Carolyn_lessNoise_PlusLocalization,2021.2.3,60.02504364776404,
bring.wav,bring.mpg,bring,4,A,Pink_Noise_4_1.wav,Pink_Noise_4_2.wav,,,,,,,,,,,,,,,0,2,2,44,,,,,,,,,,,,,,,,,,,,,,,87.99610095500248,None,89.49589140400349,None,90.8793168810007,None,breath,90.8793168810007,None,return,6.594102891998773,90.96276213200326,None,,,,,,,,,,,,,,,,,,,,,,,,,,,,,,,,,,,,,,,102,001,2023_May_18_1646,SpeechDraft1Carolyn_lessNoise_PlusLocalization,2021.2.3,60.02504364776404,
bottle.wav,bottle.mpg,bottle,3,A,Pink_Noise_3_1.wav,Pink_Noise_3_2.wav,,,,,,,,,,,,,,,0,3,3,5,,,,,,,,,,,,,,,,,,,,,,,97.57941259499785,None,99.07912036200287,None,100.46270715699939,None,bottle,100.46270715699939,None,return,1.1947311580006499,100.54613187300129,None,,,,,,,,,,,,,,,,,,,,,,,,,,,,,,,,,,,,,,,102,001,2023_May_18_1646,SpeechDraft1Carolyn_lessNoise_PlusLocalization,2021.2.3,60.02504364776404,
dare.wav,dare.mpg,dare,2,A,Pink_Noise_2_1.wav,Pink_Noise_2_2.wav,,,,,,,,,,,,,,,0,4,4,27,,,,,,,,,,,,,,,,,,,,,,,101.76280914900417,None,103.26273229900107,None,104.64608719600074,None,dare,104.64608719600074,None,return,2.7555303030021605,104.72947548500088,None,,,,,,,,,,,,,,,,,,,,,,,,,,,,,,,,,,,,,,,102,001,2023_May_18_1646,SpeechDraft1Carolyn_lessNoise_PlusLocalization,2021.2.3,60.02504364776404,
freeze.wav,freeze.mpg,freeze,5,A,Pink_Noise_5_1.wav,Pink_Noise_5_2.wav,,,,,,,,,,,,,,,0,5,5,58,,,,,,,,,,,,,,,,,,,,,,,107.51278299400292,None,109.01256221099902,None,110.3962897349993,None,breeze,110.3962897349993,None,return,2.541421994996199,110.47947741200187,None,,,,,,,,,,,,,,,,,,,,,,,,,,,,,,,,,,,,,,,102,001,2023_May_18_1646,SpeechDraft1Carolyn_lessNoise_PlusLocalization,2021.2.3,60.02504364776404,
chop.wav,chop.mpg,chop,5,AV,Pink_Noise_5_1.wav,Pink_Noise_5_2.wav,,,,,,,,,,,,,,,0,6,6,108,,,,,,,,,,,,,,,,,,,,,,,113.0460942350037,None,114.54576435700437,None,115.92937816899939,None,chop,115.92937816899939,None,return,2.0642181009970955,116.01268023400189,None,,,,,,,,,,,,,,,,,,,,,,,,,,,,,,,,,,,,,,,102,001,2023_May_18_1646,SpeechDraft1Carolyn_lessNoise_PlusLocalization,2021.2.3,60.02504364776404,
dwell.wav,dwell.mpg,dwell,6,A,Pink_Noise_6_1.wav,Pink_Noise_6_2.wav,,,,,,,,,,,,,,,0,7,7,13,,,,,,,,,,,,,,,,,,,,,,,118.09608951100381,None,119.59586809100438,None,120.97944816800009,None,nore,120.97944816800009,None,return,3.525900863998686,121.06296492899855,None,,,,,,,,,,,,,,,,,,,,,,,,,,,,,,,,,,,,,,,102,001,2023_May_18_1646,SpeechDraft1Carolyn_lessNoise_PlusLocalization,2021.2.3,60.02504364776404,
bold.wav,bold.mpg,bold,4,AV,Pink_Noise_4_1.wav,Pink_Noise_4_2.wav,,,,,,,,,,,,,,,0,8,8,113,,,,,,,,,,,,,,,,,,,,,,,124.61283255399758,None,126.09582767000393,None,127.47940878599911,None,bord,127.47940878599911,None,return,2.706172742997296,127.56277473700175,None,,,,,,,,,,,,,,,,,,,,,,,,,,,,,,,,,,,,,,,102,001,2023_May_18_1646,SpeechDraft1Carolyn_lessNoise_PlusLocalization,2021.2.3,60.02504364776404,
cloud.wav,cloud.mpg,cloud,5,AV,Pink_Noise_5_1.wav,Pink_Noise_5_2.wav,,,,,,,,,,,,,,,0,9,9,84,,,,,,,,,,,,,,,,,,,,,,,130.29617719600355,None,131.795825428002,None,133.1792995220021,None,loud,133.1792995220021,None,return,0.9822361530023045,133.2627393340008,None,,,,,,,,,,,,,,,,,,,,,,,,,,,,,,,,,,,,,,,102,001,2023_May_18_1646,SpeechDraft1Carolyn_lessNoise_PlusLocalization,2021.2.3,60.02504364776404,
flair.wav,flair.mpg,flair,3,A,Pink_Noise_3_1.wav,Pink_Noise_3_2.wav,,,,,,,,,,,,,,,0,10,10,41,,,,,,,,,,,,,,,,,,,,,,,134.26278856400313,None,135.74692103700363,None,137.1294215099988,None,glay,137.1294215099988,None,return,3.1761347470019246,137.21275695499935,None,,,,,,,,,,,,,,,,,,,,,,,,,,,,,,,,,,,,,,,102,001,2023_May_18_1646,SpeechDraft1Carolyn_lessNoise_PlusLocalization,2021.2.3,60.02504364776404,
fierce.wav,fierce.mpg,fierce,1,A,Pink_Noise_1_1.wav,Pink_Noise_1_2.wav,,,,,,,,,,,,,,,0,11,11,18,,,,,,,,,,,,,,,,,,,,,,,140.4128511730014,None,141.9125907100024,None,143.29624602800322,None,fears,143.29624602800322,None,return,3.121418704999087,143.37946424500115,None,,,,,,,,,,,,,,,,,,,,,,,,,,,,,,,,,,,,,,,102,001,2023_May_18_1646,SpeechDraft1Carolyn_lessNoise_PlusLocalization,2021.2.3,60.02504364776404,
flaw.wav,flaw.mpg,flaw,2,AV,Pink_Noise_2_1.wav,Pink_Noise_2_2.wav,,,,,,,,,,,,,,,0,12,12,97,,,,,,,,,,,,,,,,,,,,,,,146.5295152079998,None,148.02947547099757,None,149.4127690430032,None,law,149.4127690430032,None,return,1.0288157039976795,149.496078750999,None,,,,,,,,,,,,,,,,,,,,,,,,,,,,,,,,,,,,,,,102,001,2023_May_18_1646,SpeechDraft1Carolyn_lessNoise_PlusLocalization,2021.2.3,60.02504364776404,
quest.wav,quest.mpg,quest,2,A,Pink_Noise_2_1.wav,Pink_Noise_2_2.wav,,,,,,,,,,,,,,,0,13,13,55,,,,,,,,,,,,,,,,,,,,,,,150.54608498299785,None,152.02921865799726,None,153.41271748299914,None,quest,153.41271748299914,None,return,1.3328107710040058,153.496119868003,None,,,,,,,,,,,,,,,,,,,,,,,,,,,,,,,,,,,,,,,102,001,2023_May_18_1646,SpeechDraft1Carolyn_lessNoise_PlusLocalization,2021.2.3,60.02504364776404,
goal.wav,goal.mpg,goal,5,A,Pink_Noise_5_1.wav,Pink_Noise_5_2.wav,,,,,,,,,,,,,,,0,14,14,40,,,,,,,,,,,,,,,,,,,,,,,154.84616172099777,None,156.34593874400161,None,157.72958059699886,None,boll,157.72958059699886,None,return,2.9121727609963273,157.812728556004,None,,,,,,,,,,,,,,,,,,,,,,,,,,,,,,,,,,,,,,,102,001,2023_May_18_1646,SpeechDraft1Carolyn_lessNoise_PlusLocalization,2021.2.3,60.02504364776404,
die.wav,die.mpg,die,2,A,Pink_Noise_2_1.wav,Pink_Noise_2_2.wav,,,,,,,,,,,,,,,0,15,15,2,,,,,,,,,,,,,,,,,,,,,,,160.7461564730038,None,162.22936217900133,None,163.61286638399906,None,die,163.61286638399906,None,return,2.1569066519950866,163.6961116829989,None,,,,,,,,,,,,,,,,,,,,,,,,,,,,,,,,,,,,,,,102,001,2023_May_18_1646,SpeechDraft1Carolyn_lessNoise_PlusLocalization,2021.2.3,60.02504364776404,
gang.wav,gang.mpg,gang,4,AV,Pink_Noise_4_1.wav,Pink_Noise_4_2.wav,,,,,,,,,,,,,,,0,16,16,63,,,,,,,,,,,,,,,,,,,,,,,165.87956139900052,None,167.37937906099978,None,168.76266150300216,None,"gail
",168.76266150300216,None,return,2.886687370002619,168.84616822200041,None,,,,,,,,,,,,,,,,,,,,,,,,,,,,,,,,,,,,,,,102,001,2023_May_18_1646,SpeechDraft1Carolyn_lessNoise_PlusLocalization,2021.2.3,60.02504364776404,
bridge.wav,bridge.mpg,bridge,4,AV,Pink_Noise_4_1.wav,Pink_Noise_4_2.wav,,,,,,,,,,,,,,,0,17,17,95,,,,,,,,,,,,,,,,,,,,,,,171.76277863299765,None,173.24597188299958,None,174.62946369199926,None,bridge,174.62946369199926,None,return,1.5880953750020126,174.71278637200157,None,,,,,,,,,,,,,,,,,,,,,,,,,,,,,,,,,,,,,,,102,001,2023_May_18_1646,SpeechDraft1Carolyn_lessNoise_PlusLocalization,2021.2.3,60.02504364776404,
coin.wav,coin.mpg,coin,4,A,Pink_Noise_4_1.wav,Pink_Noise_4_2.wav,,,,,,,,,,,,,,,0,18,18,4,,,,,,,,,,,,,,,,,,,,,,,176.3296284829994,None,177.81255596900155,None,179.19610386699787,None,"queen
",179.19610386699787,None,return,1.4694076369996765,179.27946173300006,None,,,,,,,,,,,,,,,,,,,,,,,,,,,,,,,,,,,,,,,102,001,2023_May_18_1646,SpeechDraft1Carolyn_lessNoise_PlusLocalization,2021.2.3,60.02504364776404,
drink.wav,drink.mpg,drink,1,AV,Pink_Noise_1_1.wav,Pink_Noise_1_2.wav,,,,,,,,,,,,,,,0,19,19,114,,,,,,,,,,,,,,,,,,,,,,,180.77949579700362,None,182.26386450800055,None,183.64613175600243,None,drink,183.64613175600243,None,return,1.6433580700031598,183.7295059120006,None,,,,,,,,,,,,,,,,,,,,,,,,,,,,,,,,,,,,,,,102,001,2023_May_18_1646,SpeechDraft1Carolyn_lessNoise_PlusLocalization,2021.2.3,60.02504364776404,
chord.wav,chord.mpg,chord,1,AV,Pink_Noise_1_1.wav,Pink_Noise_1_2.wav,,,,,,,,,,,,,,,0,20,20,102,,,,,,,,,,,,,,,,,,,,,,,185.3961366490039,None,186.89595568599907,None,188.2795853360003,None,cord,188.2795853360003,None,return,1.0661394579947228,188.36281623700052,None,,,,,,,,,,,,,,,,,,,,,,,,,,,,,,,,,,,,,,,102,001,2023_May_18_1646,SpeechDraft1Carolyn_lessNoise_PlusLocalization,2021.2.3,60.02504364776404,
clap.wav,clap.mpg,clap,6,A,Pink_Noise_6_1.wav,Pink_Noise_6_2.wav,,,,,,,,,,,,,,,0,21,21,3,,,,,,,,,,,,,,,,,,,,,,,189.44622690899996,None,190.93017472400243,None,192.3128333420027,None,flash,192.3128333420027,None,return,1.5207075619982788,192.396185454003,None,,,,,,,,,,,,,,,,,,,,,,,,,,,,,,,,,,,,,,,102,001,2023_May_18_1646,SpeechDraft1Carolyn_lessNoise_PlusLocalization,2021.2.3,60.02504364776404,
chief.wav,chief.mpg,chief,2,A,Pink_Noise_2_1.wav,Pink_Noise_2_2.wav,,,,,,,,,,,,,,,0,22,22,32,,,,,,,,,,,,,,,,,,,,,,,193.94617289699818,None,195.44580327300355,None,196.8295611720023,None,check,196.8295611720023,None,return,1.6758671520001371,196.91302282400284,None,,,,,,,,,,,,,,,,,,,,,,,,,,,,,,,,,,,,,,,102,001,2023_May_18_1646,SpeechDraft1Carolyn_lessNoise_PlusLocalization,2021.2.3,60.02504364776404,
read.wav,read.mpg,read,5,AV,Pink_Noise_5_1.wav,Pink_Noise_5_2.wav,,,,,,,,,,,,,,,0,23,23,118,,,,,,,,,,,,,,,,,,,,,,,198.61285867400147,None,200.11264289300016,None,201.496218510998,None,we,201.496218510998,None,return,3.1371633210001164,201.5797083360012,None,,,,,,,,,,,,,,,,,,,,,,,,,,,,,,,,,,,,,,,102,001,2023_May_18_1646,SpeechDraft1Carolyn_lessNoise_PlusLocalization,2021.2.3,60.02504364776404,
chase.wav,chase.mpg,chase,2,A,Pink_Noise_2_1.wav,Pink_Noise_2_2.wav,,,,,,,,,,,,,,,0,24,24,10,,,,,,,,,,,,,,,,,,,,,,,204.74627572600002,None,206.24588456199854,None,207.6295053799986,None,chase,207.6295053799986,None,return,0.9800564269971801,207.71292449199973,None,,,,,,,,,,,,,,,,,,,,,,,,,,,,,,,,,,,,,,,102,001,2023_May_18_1646,SpeechDraft1Carolyn_lessNoise_PlusLocalization,2021.2.3,60.02504364776404,
box.wav,box.mpg,box,5,A,Pink_Noise_5_1.wav,Pink_Noise_5_2.wav,,,,,,,,,,,,,,,0,25,25,51,,,,,,,,,,,,,,,,,,,,,,,208.71294424799999,None,210.21266654200008,None,211.59618404399953,None,plus,211.59618404399953,None,return,1.2933075959954294,211.67955734000134,None,,,,,,,,,,,,,,,,,,,,,,,,,,,,,,,,,,,,,,,102,001,2023_May_18_1646,SpeechDraft1Carolyn_lessNoise_PlusLocalization,2021.2.3,60.02504364776404,
curse.wav,curse.mpg,curse,1,A,Pink_Noise_1_1.wav,Pink_Noise_1_2.wav,,,,,,,,,,,,,,,0,26,26,43,,,,,,,,,,,,,,,,,,,,,,,212.9962423399993,None,214.49604952200025,None,215.87957694500074,None,"curse
",215.87957694500074,None,return,1.169988387999183,215.96289127699856,None,,,,,,,,,,,,,,,,,,,,,,,,,,,,,,,,,,,,,,,102,001,2023_May_18_1646,SpeechDraft1Carolyn_lessNoise_PlusLocalization,2021.2.3,60.02504364776404,
shut.wav,shut.mpg,shut,1,AV,Pink_Noise_1_1.wav,Pink_Noise_1_2.wav,,,,,,,,,,,,,,,0,27,27,69,,,,,,,,,,,,,,,,,,,,,,,217.16289800099912,None,218.66258950700285,None,220.04618637700332,None,shut,220.04618637700332,None,return,4.075316999005736,220.12954848200025,None,,,,,,,,,,,,,,,,,,,,,,,,,,,,,,,,,,,,,,,102,001,2023_May_18_1646,SpeechDraft1Carolyn_lessNoise_PlusLocalization,2021.2.3,60.02504364776404,
jam.wav,jam.mpg,jam,4,AV,Pink_Noise_4_1.wav,Pink_Noise_4_2.wav,,,,,,,,,,,,,,,0,28,28,111,,,,,,,,,,,,,,,,,,,,,,,224.22959396900114,None,225.71445700900222,None,227.09623938499863,None,"jam
",227.09623938499863,None,return,0.8172895129973767,227.1795898010023,None,,,,,,,,,,,,,,,,,,,,,,,,,,,,,,,,,,,,,,,102,001,2023_May_18_1646,SpeechDraft1Carolyn_lessNoise_PlusLocalization,2021.2.3,60.02504364776404,
fate.wav,fate.mpg,fate,4,AV,Pink_Noise_4_1.wav,Pink_Noise_4_2.wav,,,,,,,,,,,,,,,0,29,29,77,,,,,,,,,,,,,,,,,,,,,,,228.02964794100262,None,229.52930116900097,None,230.9127248119985,None,"faite
",230.9127248119985,None,return,2.800642284004425,230.99623526600044,None,,,,,,,,,,,,,,,,,,,,,,,,,,,,,,,,,,,,,,,102,001,2023_May_18_1646,SpeechDraft1Carolyn_lessNoise_PlusLocalization,2021.2.3,60.02504364776404,
brown.wav,brown.mpg,brown,4,A,Pink_Noise_4_1.wav,Pink_Noise_4_2.wav,,,,,,,,,,,,,,,0,30,30,33,,,,,,,,,,,,,,,,,,,,,,,233.8295809170013,None,235.32940169500216,None,236.7129838030014,None,row,236.7129838030014,None,return,9.312636170005135,236.79623051200178,None,,,,,,,,,,,,,,,,,,,,,,,,,,,,,,,,,,,,,,,102,001,2023_May_18_1646,SpeechDraft1Carolyn_lessNoise_PlusLocalization,2021.2.3,60.02504364776404,
creep.wav,creep.mpg,creep,1,A,Pink_Noise_1_1.wav,Pink_Noise_1_2.wav,,,,,,,,,,,,,,,0,31,31,30,,,,,,,,,,,,,,,,,,,,,,,246.12972660900414,None,247.62935396200191,None,249.01300485499814,None,creep,249.01300485499814,None,return,1.4126855489957961,249.09619137200207,None,,,,,,,,,,,,,,,,,,,,,,,,,,,,,,,,,,,,,,,102,001,2023_May_18_1646,SpeechDraft1Carolyn_lessNoise_PlusLocalization,2021.2.3,60.02504364776404,
round.wav,round.mpg,round,3,AV,Pink_Noise_3_1.wav,Pink_Noise_3_2.wav,,,,,,,,,,,,,,,0,32,32,106,,,,,,,,,,,,,,,,,,,,,,,250.52964917400095,None,252.0294261270028,None,253.41283065499738,None,"round
",253.41283065499738,None,return,5.236540286998206,253.49634032500035,None,,,,,,,,,,,,,,,,,,,,,,,,,,,,,,,,,,,,,,,102,001,2023_May_18_1646,SpeechDraft1Carolyn_lessNoise_PlusLocalization,2021.2.3,60.02504364776404,
eye.wav,eye.mpg,eye,1,AV,Pink_Noise_1_1.wav,Pink_Noise_1_2.wav,,,,,,,,,,,,,,,0,33,33,82,,,,,,,,,,,,,,,,,,,,,,,258.7629639890001,None,260.26267219600413,None,261.6462519630004,None,i,261.6462519630004,None,return,0.7791906850034138,261.7296798399984,None,,,,,,,,,,,,,,,,,,,,,,,,,,,,,,,,,,,,,,,102,001,2023_May_18_1646,SpeechDraft1Carolyn_lessNoise_PlusLocalization,2021.2.3,60.02504364776404,
fun.wav,fun.mpg,fun,5,AV,Pink_Noise_5_1.wav,Pink_Noise_5_2.wav,,,,,,,,,,,,,,,0,34,34,93,,,,,,,,,,,,,,,,,,,,,,,262.52960591699957,None,264.0295578669975,None,265.41306366400386,None,"fun
",265.41306366400386,None,return,5.020514078001725,265.4963465719993,None,,,,,,,,,,,,,,,,,,,,,,,,,,,,,,,,,,,,,,,102,001,2023_May_18_1646,SpeechDraft1Carolyn_lessNoise_PlusLocalization,2021.2.3,60.02504364776404,
clown.wav,clown.mpg,clown,2,AV,Pink_Noise_2_1.wav,Pink_Noise_2_2.wav,,,,,,,,,,,,,,,0,35,35,81,,,,,,,,,,,,,,,,,,,,,,,270.54631149500347,None,272.0461388210024,None,273.4295364299978,None,"cloud
",273.4295364299978,None,return,2.851840497001831,273.51304031100153,None,,,,,,,,,,,,,,,,,,,,,,,,,,,,,,,,,,,,,,,102,001,2023_May_18_1646,SpeechDraft1Carolyn_lessNoise_PlusLocalization,2021.2.3,60.02504364776404,
cash.wav,cash.mpg,cash,6,AV,Pink_Noise_6_1.wav,Pink_Noise_6_2.wav,,,,,,,,,,,,,,,0,36,36,60,,,,,,,,,,,,,,,,,,,,,,,276.3962411520042,None,277.8960532450001,None,279.27959424800065,None,cash,279.27959424800065,None,return,1.0821364159928635,279.3628394740008,None,,,,,,,,,,,,,,,,,,,,,,,,,,,,,,,,,,,,,,,102,001,2023_May_18_1646,SpeechDraft1Carolyn_lessNoise_PlusLocalization,2021.2.3,60.02504364776404,
brisk.wav,brisk.mpg,brisk,3,AV,Pink_Noise_3_1.wav,Pink_Noise_3_2.wav,,,,,,,,,,,,,,,0,37,37,89,,,,,,,,,,,,,,,,,,,,,,,280.46296295199863,None,281.9627667390014,None,283.34638429900224,None,risk,283.34638429900224,None,return,2.263169272002415,283.4298076339983,None,,,,,,,,,,,,,,,,,,,,,,,,,,,,,,,,,,,,,,,102,001,2023_May_18_1646,SpeechDraft1Carolyn_lessNoise_PlusLocalization,2021.2.3,60.02504364776404,
solve.wav,solve.mpg,solve,1,A,Pink_Noise_1_1.wav,Pink_Noise_1_2.wav,,,,,,,,,,,,,,,0,38,38,54,,,,,,,,,,,,,,,,,,,,,,,285.71301236400177,None,287.21275750399946,None,288.5963184249995,None,solve,288.5963184249995,None,return,4.277296697997372,288.6796040179979,None,,,,,,,,,,,,,,,,,,,,,,,,,,,,,,,,,,,,,,,102,001,2023_May_18_1646,SpeechDraft1Carolyn_lessNoise_PlusLocalization,2021.2.3,60.02504364776404,
bias.wav,bias.mpg,bias,3,AV,Pink_Noise_3_1.wav,Pink_Noise_3_2.wav,,,,,,,,,,,,,,,0,39,39,103,,,,,,,,,,,,,,,,,,,,,,,292.979767978999,None,294.4795336360039,None,295.86292762499943,None,bice,295.86292762499943,None,return,4.810453647005488,295.94640444000106,None,,,,,,,,,,,,,,,,,,,,,,,,,,,,,,,,,,,,,,,102,001,2023_May_18_1646,SpeechDraft1Carolyn_lessNoise_PlusLocalization,2021.2.3,60.02504364776404,
dress.wav,dress.mpg,dress,2,AV,Pink_Noise_2_1.wav,Pink_Noise_2_2.wav,,,,,,,,,,,,,,,0,40,40,74,,,,,,,,,,,,,,,,,,,,,,,300.77967698700377,None,302.2794103780034,None,303.66299016599805,None,dress,303.66299016599805,None,return,1.2745453720053774,303.7463715670019,None,,,,,,,,,,,,,,,,,,,,,,,,,,,,,,,,,,,,,,,102,001,2023_May_18_1646,SpeechDraft1Carolyn_lessNoise_PlusLocalization,2021.2.3,60.02504364776404,
crowd.wav,crowd.mpg,crowd,6,AV,Pink_Noise_6_1.wav,Pink_Noise_6_2.wav,,,,,,,,,,,,,,,0,41,41,116,,,,,,,,,,,,,,,,,,,,,,,305.0462765580014,None,306.54615515700425,None,307.92967069899896,None,"look out
",307.92967069899896,None,return,3.3038919199971133,308.01299053500406,None,,,,,,,,,,,,,,,,,,,,,,,,,,,,,,,,,,,,,,,102,001,2023_May_18_1646,SpeechDraft1Carolyn_lessNoise_PlusLocalization,2021.2.3,60.02504364776404,
floor.wav,floor.mpg,floor,4,A,Pink_Noise_4_1.wav,Pink_Noise_4_2.wav,,,,,,,,,,,,,,,0,42,42,52,,,,,,,,,,,,,,,,,,,,,,,311.3463286719998,None,312.84599175999756,None,314.2298149710041,None,"sure
",314.2298149710041,None,return,3.8678883479951764,314.3129906480026,None,,,,,,,,,,,,,,,,,,,,,,,,,,,,,,,,,,,,,,,102,001,2023_May_18_1646,SpeechDraft1Carolyn_lessNoise_PlusLocalization,2021.2.3,60.02504364776404,
drum.wav,drum.mpg,drum,1,AV,Pink_Noise_1_1.wav,Pink_Noise_1_2.wav,,,,,,,,,,,,,,,0,43,43,83,,,,,,,,,,,,,,,,,,,,,,,318.21307577900006,None,319.71285338600137,None,321.0963484200038,None,drum,321.0963484200038,None,return,1.4411496839966276,321.17971603899787,None,,,,,,,,,,,,,,,,,,,,,,,,,,,,,,,,,,,,,,,102,001,2023_May_18_1646,SpeechDraft1Carolyn_lessNoise_PlusLocalization,2021.2.3,60.02504364776404,
grape.wav,grape.mpg,grape,1,AV,Pink_Noise_1_1.wav,Pink_Noise_1_2.wav,,,,,,,,,,,,,,,0,44,44,105,,,,,,,,,,,,,,,,,,,,,,,322.6464805900032,None,324.14622761699866,None,325.52981991900015,None,grape,325.52981991900015,None,return,2.8239417060030974,325.6130237190009,None,,,,,,,,,,,,,,,,,,,,,,,,,,,,,,,,,,,,,,,102,001,2023_May_18_1646,SpeechDraft1Carolyn_lessNoise_PlusLocalization,2021.2.3,60.02504364776404,
grow.wav,grow.mpg,grow,3,A,Pink_Noise_3_1.wav,Pink_Noise_3_2.wav,,,,,,,,,,,,,,,0,45,45,37,,,,,,,,,,,,,,,,,,,,,,,328.4630401520044,None,329.9628898509982,None,331.3462894330005,None,"rose
",331.3462894330005,None,return,0.7352019419995486,331.4296827340004,None,,,,,,,,,,,,,,,,,,,,,,,,,,,,,,,,,,,,,,,102,001,2023_May_18_1646,SpeechDraft1Carolyn_lessNoise_PlusLocalization,2021.2.3,60.02504364776404,
fright.wav,fright.mpg,fright,6,AV,Pink_Noise_6_1.wav,Pink_Noise_6_2.wav,,,,,,,,,,,,,,,0,46,46,72,,,,,,,,,,,,,,,,,,,,,,,332.19634247299837,None,333.69616720900376,None,335.07969804800086,None,crunch,335.07969804800086,None,return,2.3458645819991943,335.16303523300303,None,,,,,,,,,,,,,,,,,,,,,,,,,,,,,,,,,,,,,,,102,001,2023_May_18_1646,SpeechDraft1Carolyn_lessNoise_PlusLocalization,2021.2.3,60.02504364776404,
else.wav,else.mpg,else,5,A,Pink_Noise_5_1.wav,Pink_Noise_5_2.wav,,,,,,,,,,,,,,,0,47,47,24,,,,,,,,,,,,,,,,,,,,,,,337.52987014500104,None,339.02955188500346,None,340.41298082799767,None,"us
",340.41298082799767,None,return,4.284389727996313,340.4964884509973,None,,,,,,,,,,,,,,,,,,,,,,,,,,,,,,,,,,,,,,,102,001,2023_May_18_1646,SpeechDraft1Carolyn_lessNoise_PlusLocalization,2021.2.3,60.02504364776404,
grave.wav,grave.mpg,grave,2,AV,Pink_Noise_2_1.wav,Pink_Noise_2_2.wav,,,,,,,,,,,,,,,0,48,48,115,,,,,,,,,,,,,,,,,,,,,,,344.8131171019995,None,346.31305524300114,None,347.6963808110013,None,grave,347.6963808110013,None,return,1.4892739819988492,347.7797682879973,None,,,,,,,,,,,,,,,,,,,,,,,,,,,,,,,,,,,,,,,102,001,2023_May_18_1646,SpeechDraft1Carolyn_lessNoise_PlusLocalization,2021.2.3,60.02504364776404,
frog.wav,frog.mpg,frog,4,AV,Pink_Noise_4_1.wav,Pink_Noise_4_2.wav,,,,,,,,,,,,,,,0,49,49,110,,,,,,,,,,,,,,,,,,,,,,,349.2965110549994,None,350.7962555470003,None,352.17958875500335,None,rug,352.17958875500335,None,return,1.765883911997662,352.2630581830017,None,,,,,,,,,,,,,,,,,,,,,,,,,,,,,,,,,,,,,,,102,001,2023_May_18_1646,SpeechDraft1Carolyn_lessNoise_PlusLocalization,2021.2.3,60.02504364776404,
card.wav,card.mpg,card,3,AV,Pink_Noise_3_1.wav,Pink_Noise_3_2.wav,,,,,,,,,,,,,,,0,50,50,92,,,,,,,,,,,,,,,,,,,,,,,354.04638213600265,None,355.5461736619982,None,356.9297225659975,None,card,356.9297225659975,None,return,0.8877560089968028,357.0131143210019,None,,,,,,,,,,,,,,,,,,,,,,,,,,,,,,,,,,,,,,,102,001,2023_May_18_1646,SpeechDraft1Carolyn_lessNoise_PlusLocalization,2021.2.3,60.02504364776404,
fond.wav,fond.mpg,fond,2,A,Pink_Noise_2_1.wav,Pink_Noise_2_2.wav,,,,,,,,,,,,,,,0,51,51,22,,,,,,,,,,,,,,,,,,,,,,,357.9297474269988,None,359.42943851499876,None,360.8130928820028,None,guard,360.8130928820028,None,return,1.4043692539999029,360.89650445400184,None,,,,,,,,,,,,,,,,,,,,,,,,,,,,,,,,,,,,,,,102,001,2023_May_18_1646,SpeechDraft1Carolyn_lessNoise_PlusLocalization,2021.2.3,60.02504364776404,
clue.wav,clue.mpg,clue,1,A,Pink_Noise_1_1.wav,Pink_Noise_1_2.wav,,,,,,,,,,,,,,,0,52,52,7,,,,,,,,,,,,,,,,,,,,,,,362.3298437330013,None,363.8294861910035,None,365.21303208800236,None,clue,365.21303208800236,None,return,0.7884094300025026,365.2964673739989,None,,,,,,,,,,,,,,,,,,,,,,,,,,,,,,,,,,,,,,,102,001,2023_May_18_1646,SpeechDraft1Carolyn_lessNoise_PlusLocalization,2021.2.3,60.02504364776404,
gift.wav,gift.mpg,gift,2,A,Pink_Noise_2_1.wav,Pink_Noise_2_2.wav,,,,,,,,,,,,,,,0,53,53,16,,,,,,,,,,,,,,,,,,,,,,,366.11310508200404,None,367.6127359989987,None,368.99640497200016,None,gift,368.99640497200016,None,return,0.9411401899997145,369.07983758499904,None,,,,,,,,,,,,,,,,,,,,,,,,,,,,,,,,,,,,,,,102,001,2023_May_18_1646,SpeechDraft1Carolyn_lessNoise_PlusLocalization,2021.2.3,60.02504364776404,
calm.wav,calm.mpg,calm,5,AV,Pink_Noise_5_1.wav,Pink_Noise_5_2.wav,,,,,,,,,,,,,,,0,54,54,119,,,,,,,,,,,,,,,,,,,,,,,370.04640436299815,None,371.54620942199836,None,372.929815952004,None,calm,372.929815952004,None,return,7.799826116999611,373.01310996000393,None,,,,,,,,,,,,,,,,,,,,,,,,,,,,,,,,,,,,,,,102,001,2023_May_18_1646,SpeechDraft1Carolyn_lessNoise_PlusLocalization,2021.2.3,60.02504364776404,
giant.wav,giant.mpg,giant,6,AV,Pink_Noise_6_1.wav,Pink_Noise_6_2.wav,,,,,,,,,,,,,,,0,55,55,86,,,,,,,,,,,,,,,,,,,,,,,380.82986476099904,None,382.32959854300134,None,383.71316322200437,None,giant,383.71316322200437,None,return,1.2644711329994607,383.79642307400354,None,,,,,,,,,,,,,,,,,,,,,,,,,,,,,,,,,,,,,,,102,001,2023_May_18_1646,SpeechDraft1Carolyn_lessNoise_PlusLocalization,2021.2.3,60.02504364776404,
feud.wav,feud.mpg,feud,2,A,Pink_Noise_2_1.wav,Pink_Noise_2_2.wav,,,,,,,,,,,,,,,0,56,56,20,,,,,,,,,,,,,,,,,,,,,,,385.0797916570009,None,386.57961152499774,None,387.96316681199824,None,"viewed
",387.96316681199824,None,return,2.5023264470000868,388.0465529380017,None,,,,,,,,,,,,,,,,,,,,,,,,,,,,,,,,,,,,,,,102,001,2023_May_18_1646,SpeechDraft1Carolyn_lessNoise_PlusLocalization,2021.2.3,60.02504364776404,
funk.wav,funk.mpg,funk,5,AV,Pink_Noise_5_1.wav,Pink_Noise_5_2.wav,,,,,,,,,,,,,,,0,57,57,75,,,,,,,,,,,,,,,,,,,,,,,390.5797760150017,None,392.07954925399827,None,393.4629910069998,None,funk,393.4629910069998,None,return,3.530432728002779,393.54651520399784,None,,,,,,,,,,,,,,,,,,,,,,,,,,,,,,,,,,,,,,,102,001,2023_May_18_1646,SpeechDraft1Carolyn_lessNoise_PlusLocalization,2021.2.3,60.02504364776404,
beard.wav,beard.mpg,beard,6,A,Pink_Noise_6_1.wav,Pink_Noise_6_2.wav,,,,,,,,,,,,,,,0,58,58,48,,,,,,,,,,,,,,,,,,,,,,,397.09641076000116,None,398.5961028130041,None,399.9797711249994,None,give,399.9797711249994,None,return,10.709684098001162,400.0631831080027,None,,,,,,,,,,,,,,,,,,,,,,,,,,,,,,,,,,,,,,,102,001,2023_May_18_1646,SpeechDraft1Carolyn_lessNoise_PlusLocalization,2021.2.3,60.02504364776404,
drab.wav,drab.mpg,drab,2,A,Pink_Noise_2_1.wav,Pink_Noise_2_2.wav,,,,,,,,,,,,,,,0,59,59,31,,,,,,,,,,,,,,,,,,,,,,,410.7964540879984,None,412.2963015339992,None,413.67979750400264,None,drug,413.67979750400264,None,return,2.3216835600032937,413.76319426899863,None,,,,,,,,,,,,,,,,,,,,,,,,,,,,,,,,,,,,,,,102,001,2023_May_18_1646,SpeechDraft1Carolyn_lessNoise_PlusLocalization,2021.2.3,60.02504364776404,
wound.wav,wound.mpg,wound,5,A,Pink_Noise_5_1.wav,Pink_Noise_5_2.wav,,,,,,,,,,,,,,,0,60,60,36,,,,,,,,,,,,,,,,,,,,,,,416.1132714100022,None,417.61292461400444,None,418.99655376999726,None,wo,418.99655376999726,None,return,43.82892127800005,419.07997424199857,None,,,,,,,,,,,,,,,,,,,,,,,,,,,,,,,,,,,,,,,102,001,2023_May_18_1646,SpeechDraft1Carolyn_lessNoise_PlusLocalization,2021.2.3,60.02504364776404,
drug.wav,drug.mpg,drug,6,AV,Pink_Noise_6_1.wav,Pink_Noise_6_2.wav,,,,,,,,,,,,,,,0,61,61,73,,,,,,,,,,,,,,,,,,,,,,,462.9299545600006,None,464.42975702900003,None,465.8131404279993,None,joy,465.8131404279993,None,return,5.372482968996337,465.89649933799956,None,,,,,,,,,,,,,,,,,,,,,,,,,,,,,,,,,,,,,,,102,001,2023_May_18_1646,SpeechDraft1Carolyn_lessNoise_PlusLocalization,2021.2.3,60.02504364776404,
grand.wav,grand.mpg,grand,5,A,Pink_Noise_5_1.wav,Pink_Noise_5_2.wav,,,,,,,,,,,,,,,0,62,62,17,,,,,,,,,,,,,,,,,,,,,,,471.2965888789986,None,472.79636369400396,None,474.1799453400017,None,ground,474.1799453400017,None,return,1.7097000849971664,474.2631684750013,None,,,,,,,,,,,,,,,,,,,,,,,,,,,,,,,,,,,,,,,102,001,2023_May_18_1646,SpeechDraft1Carolyn_lessNoise_PlusLocalization,2021.2.3,60.02504364776404,
please.wav,please.mpg,please,1,A,Pink_Noise_1_1.wav,Pink_Noise_1_2.wav,,,,,,,,,,,,,,,0,63,63,47,,,,,,,,,,,,,,,,,,,,,,,475.99666550200345,None,477.4964313899982,None,478.8800391660043,None,please,478.8800391660043,None,return,1.0656802890007384,478.96331266200286,None,,,,,,,,,,,,,,,,,,,,,,,,,,,,,,,,,,,,,,,102,001,2023_May_18_1646,SpeechDraft1Carolyn_lessNoise_PlusLocalization,2021.2.3,60.02504364776404,
bump.wav,bump.mpg,bump,3,AV,Pink_Noise_3_1.wav,Pink_Noise_3_2.wav,,,,,,,,,,,,,,,0,64,64,99,,,,,,,,,,,,,,,,,,,,,,,480.04662991299847,None,481.546390456002,None,482.92979972399917,None,bub,482.92979972399917,None,return,22.08765121000033,483.0132393430031,None,,,,,,,,,,,,,,,,,,,,,,,,,,,,,,,,,,,,,,,102,001,2023_May_18_1646,SpeechDraft1Carolyn_lessNoise_PlusLocalization,2021.2.3,60.02504364776404,
cycle.wav,cycle.mpg,cycle,2,AV,Pink_Noise_2_1.wav,Pink_Noise_2_2.wav,,,,,,,,,,,,,,,0,65,65,94,,,,,,,,,,,,,,,,,,,,,,,505.12997917800385,None,506.6299000860017,None,508.0133440330028,None,"cycle
",508.0133440330028,None,return,1.8521694330047467,508.09670931000437,None,,,,,,,,,,,,,,,,,,,,,,,,,,,,,,,,,,,,,,,102,001,2023_May_18_1646,SpeechDraft1Carolyn_lessNoise_PlusLocalization,2021.2.3,60.02504364776404,
chess.wav,chess.mpg,chess,3,A,Pink_Noise_3_1.wav,Pink_Noise_3_2.wav,,,,,,,,,,,,,,,0,66,66,39,,,,,,,,,,,,,,,,,,,,,,,509.9799341980033,None,511.4797726530014,None,512.8632332159978,None,"chess
",512.8632332159978,None,return,1.5861793930016574,512.9466957749974,None,,,,,,,,,,,,,,,,,,,,,,,,,,,,,,,,,,,,,,,102,001,2023_May_18_1646,SpeechDraft1Carolyn_lessNoise_PlusLocalization,2021.2.3,60.02504364776404,
bright.wav,bright.mpg,bright,6,A,Pink_Noise_6_1.wav,Pink_Noise_6_2.wav,,,,,,,,,,,,,,,0,67,67,0,,,,,,,,,,,,,,,,,,,,,,,514.5632630440014,None,516.0630697550005,None,517.4465734250043,None,go,517.4465734250043,None,return,3.5308666290002293,517.5300077150023,None,,,,,,,,,,,,,,,,,,,,,,,,,,,,,,,,,,,,,,,102,001,2023_May_18_1646,SpeechDraft1Carolyn_lessNoise_PlusLocalization,2021.2.3,60.02504364776404,
club.wav,club.mpg,club,1,A,Pink_Noise_1_1.wav,Pink_Noise_1_2.wav,,,,,,,,,,,,,,,0,68,68,15,,,,,,,,,,,,,,,,,,,,,,,521.0800499530014,None,522.5796308229983,None,523.963382902999,None,club,523.963382902999,None,return,2.0062382579999394,524.0467547630033,None,,,,,,,,,,,,,,,,,,,,,,,,,,,,,,,,,,,,,,,102,001,2023_May_18_1646,SpeechDraft1Carolyn_lessNoise_PlusLocalization,2021.2.3,60.02504364776404,
code.wav,code.mpg,code,2,AV,Pink_Noise_2_1.wav,Pink_Noise_2_2.wav,,,,,,,,,,,,,,,0,69,69,79,,,,,,,,,,,,,,,,,,,,,,,526.080014060004,None,527.5798672320016,None,528.9632055580005,None,code,528.9632055580005,None,return,0.8541998020009487,529.0466925939982,None,,,,,,,,,,,,,,,,,,,,,,,,,,,,,,,,,,,,,,,102,001,2023_May_18_1646,SpeechDraft1Carolyn_lessNoise_PlusLocalization,2021.2.3,60.02504364776404,
sock.wav,sock.mpg,sock,5,AV,Pink_Noise_5_1.wav,Pink_Noise_5_2.wav,,,,,,,,,,,,,,,0,70,70,80,,,,,,,,,,,,,,,,,,,,,,,529.9300397210027,None,531.4297729760001,None,532.8132822330008,None,"sock
",532.8132822330008,None,return,2.620225054997718,532.8966536740045,None,,,,,,,,,,,,,,,,,,,,,,,,,,,,,,,,,,,,,,,102,001,2023_May_18_1646,SpeechDraft1Carolyn_lessNoise_PlusLocalization,2021.2.3,60.02504364776404,
clot.wav,clot.mpg,clot,4,A,Pink_Noise_4_1.wav,Pink_Noise_4_2.wav,,,,,,,,,,,,,,,0,71,71,49,,,,,,,,,,,,,,,,,,,,,,,535.5467048179999,None,537.046509713,None,538.4299976900002,None,"garage
",538.4299976900002,None,return,28.683414191000338,538.5134623760023,None,,,,,,,,,,,,,,,,,,,,,,,,,,,,,,,,,,,,,,,102,001,2023_May_18_1646,SpeechDraft1Carolyn_lessNoise_PlusLocalization,2021.2.3,60.02504364776404,
craft.wav,craft.mpg,craft,5,A,Pink_Noise_5_1.wav,Pink_Noise_5_2.wav,,,,,,,,,,,,,,,0,72,72,21,,,,,,,,,,,,,,,,,,,,,,,567.2301800519999,None,568.7301130210035,None,570.1133521579977,None,cloud,570.1133521579977,None,return,3.232336289998784,570.1966360829974,None,,,,,,,,,,,,,,,,,,,,,,,,,,,,,,,,,,,,,,,102,001,2023_May_18_1646,SpeechDraft1Carolyn_lessNoise_PlusLocalization,2021.2.3,60.02504364776404,
cab.wav,cab.mpg,cab,6,A,Pink_Noise_6_1.wav,Pink_Noise_6_2.wav,,,,,,,,,,,,,,,0,73,73,59,,,,,,,,,,,,,,,,,,,,,,,573.4467175699974,None,574.9464688770022,None,576.330014459003,None,"jar
",576.330014459003,None,return,1.735416185001668,576.4134689580023,None,,,,,,,,,,,,,,,,,,,,,,,,,,,,,,,,,,,,,,,102,001,2023_May_18_1646,SpeechDraft1Carolyn_lessNoise_PlusLocalization,2021.2.3,60.02504364776404,
chant.wav,chant.mpg,chant,4,AV,Pink_Noise_4_1.wav,Pink_Noise_4_2.wav,,,,,,,,,,,,,,,0,74,74,88,,,,,,,,,,,,,,,,,,,,,,,578.1800288689992,None,579.6797948079984,None,581.0632871130001,None,chest,581.0632871130001,None,return,1.3380289080014336,581.1468506980018,None,,,,,,,,,,,,,,,,,,,,,,,,,,,,,,,,,,,,,,,102,001,2023_May_18_1646,SpeechDraft1Carolyn_lessNoise_PlusLocalization,2021.2.3,60.02504364776404,
chow.wav,chow.mpg,chow,3,A,Pink_Noise_3_1.wav,Pink_Noise_3_2.wav,,,,,,,,,,,,,,,0,75,75,38,,,,,,,,,,,,,,,,,,,,,,,582.5134208119998,None,584.0131934550009,None,585.3966736439979,None,child,585.3966736439979,None,return,1.2128115689993137,585.4801035280034,None,,,,,,,,,,,,,,,,,,,,,,,,,,,,,,,,,,,,,,,102,001,2023_May_18_1646,SpeechDraft1Carolyn_lessNoise_PlusLocalization,2021.2.3,60.02504364776404,
fluent.wav,fluent.mpg,fluent,3,A,Pink_Noise_3_1.wav,Pink_Noise_3_2.wav,,,,,,,,,,,,,,,0,76,76,28,,,,,,,,,,,,,,,,,,,,,,,586.7135008460027,None,588.213207847999,None,589.596736776999,None,blued,589.596736776999,None,return,4.204859738005325,589.6800041780007,None,,,,,,,,,,,,,,,,,,,,,,,,,,,,,,,,,,,,,,,102,001,2023_May_18_1646,SpeechDraft1Carolyn_lessNoise_PlusLocalization,2021.2.3,60.02504364776404,
crow.wav,crow.mpg,crow,1,A,Pink_Noise_1_1.wav,Pink_Noise_1_2.wav,,,,,,,,,,,,,,,0,77,77,56,,,,,,,,,,,,,,,,,,,,,,,593.9134201780034,None,595.4130160080022,None,596.796730590002,None,"crow
",596.796730590002,None,return,0.9006168359992444,596.8802621939976,None,,,,,,,,,,,,,,,,,,,,,,,,,,,,,,,,,,,,,,,102,001,2023_May_18_1646,SpeechDraft1Carolyn_lessNoise_PlusLocalization,2021.2.3,60.02504364776404,
crank.wav,crank.mpg,crank,4,A,Pink_Noise_4_1.wav,Pink_Noise_4_2.wav,,,,,,,,,,,,,,,0,78,78,29,,,,,,,,,,,,,,,,,,,,,,,597.8134143030038,None,599.3132833700001,None,600.6967451480014,None,crest,600.6967451480014,None,return,1.6087743989992305,600.7801511389989,None,,,,,,,,,,,,,,,,,,,,,,,,,,,,,,,,,,,,,,,102,001,2023_May_18_1646,SpeechDraft1Carolyn_lessNoise_PlusLocalization,2021.2.3,60.02504364776404,
book.wav,book.mpg,book,4,AV,Pink_Noise_4_1.wav,Pink_Noise_4_2.wav,,,,,,,,,,,,,,,0,79,79,112,,,,,,,,,,,,,,,,,,,,,,,602.4135231710025,None,603.9132308100016,None,605.2968152410031,None,book,605.2968152410031,None,return,0.8569517049982096,605.380056107002,None,,,,,,,,,,,,,,,,,,,,,,,,,,,,,,,,,,,,,,,102,001,2023_May_18_1646,SpeechDraft1Carolyn_lessNoise_PlusLocalization,2021.2.3,60.02504364776404,
greek.wav,greek.mpg,greek,6,A,Pink_Noise_6_1.wav,Pink_Noise_6_2.wav,,,,,,,,,,,,,,,0,80,80,53,,,,,,,,,,,,,,,,,,,,,,,606.2634461449998,None,607.7632925849975,None,609.1467191909978,None,"gi
",609.1467191909978,None,return,6.886705924000125,609.2301380979989,None,,,,,,,,,,,,,,,,,,,,,,,,,,,,,,,,,,,,,,,102,001,2023_May_18_1646,SpeechDraft1Carolyn_lessNoise_PlusLocalization,2021.2.3,60.02504364776404,
hug.wav,hug.mpg,hug,2,AV,Pink_Noise_2_1.wav,Pink_Noise_2_2.wav,,,,,,,,,,,,,,,0,81,81,109,,,,,,,,,,,,,,,,,,,,,,,616.1468950130002,None,617.6466435980037,None,619.0301133980029,None,hug,619.0301133980029,None,return,1.7636095070047304,619.1133801929973,None,,,,,,,,,,,,,,,,,,,,,,,,,,,,,,,,,,,,,,,102,001,2023_May_18_1646,SpeechDraft1Carolyn_lessNoise_PlusLocalization,2021.2.3,60.02504364776404,
bomb.wav,bomb.mpg,bomb,1,AV,Pink_Noise_1_1.wav,Pink_Noise_1_2.wav,,,,,,,,,,,,,,,0,82,82,117,,,,,,,,,,,,,,,,,,,,,,,620.896819597001,None,622.3965396650019,None,623.7803152159977,None,bomb,623.7803152159977,None,return,3.3656168629968306,623.8633960740044,None,,,,,,,,,,,,,,,,,,,,,,,,,,,,,,,,,,,,,,,102,001,2023_May_18_1646,SpeechDraft1Carolyn_lessNoise_PlusLocalization,2021.2.3,60.02504364776404,
belch.wav,belch.mpg,belch,5,A,Pink_Noise_5_1.wav,Pink_Noise_5_2.wav,,,,,,,,,,,,,,,0,83,83,8,,,,,,,,,,,,,,,,,,,,,,,627.2466621519998,None,628.7465807699991,None,630.1302500050006,None,bouch,630.1302500050006,None,return,6.599466379004298,630.213475509001,None,,,,,,,,,,,,,,,,,,,,,,,,,,,,,,,,,,,,,,,102,001,2023_May_18_1646,SpeechDraft1Carolyn_lessNoise_PlusLocalization,2021.2.3,60.02504364776404,
beige.wav,beige.mpg,beige,2,AV,Pink_Noise_2_1.wav,Pink_Noise_2_2.wav,,,,,,,,,,,,,,,0,84,84,71,,,,,,,,,,,,,,,,,,,,,,,636.8301364330036,None,638.3299707909973,None,639.7134273519987,None,"beige
",639.7134273519987,None,return,2.5680685529951006,639.7967877859992,None,,,,,,,,,,,,,,,,,,,,,,,,,,,,,,,,,,,,,,,102,001,2023_May_18_1646,SpeechDraft1Carolyn_lessNoise_PlusLocalization,2021.2.3,60.02504364776404,
firm.wav,firm.mpg,firm,3,A,Pink_Noise_3_1.wav,Pink_Noise_3_2.wav,,,,,,,,,,,,,,,0,85,85,12,,,,,,,,,,,,,,,,,,,,,,,642.396774699002,None,643.8966960830003,None,645.2800783290004,None,bar,645.2800783290004,None,return,7.193444219999947,645.3634566649998,None,,,,,,,,,,,,,,,,,,,,,,,,,,,,,,,,,,,,,,,102,001,2023_May_18_1646,SpeechDraft1Carolyn_lessNoise_PlusLocalization,2021.2.3,60.02504364776404,
date.wav,date.mpg,date,5,AV,Pink_Noise_5_1.wav,Pink_Noise_5_2.wav,,,,,,,,,,,,,,,0,86,86,101,,,,,,,,,,,,,,,,,,,,,,,652.5801366800006,None,654.0804524690029,None,655.4634546779998,None,"desk
",655.4634546779998,None,return,1.185957565998251,655.5469197889979,None,,,,,,,,,,,,,,,,,,,,,,,,,,,,,,,,,,,,,,,102,001,2023_May_18_1646,SpeechDraft1Carolyn_lessNoise_PlusLocalization,2021.2.3,60.02504364776404,
freak.wav,freak.mpg,freak,3,A,Pink_Noise_3_1.wav,Pink_Noise_3_2.wav,,,,,,,,,,,,,,,0,87,87,1,,,,,,,,,,,,,,,,,,,,,,,656.7635443000036,None,658.2633455620016,None,659.6469020430013,None,"creek
",659.6469020430013,None,return,1.2346521330036921,659.7302273259993,None,,,,,,,,,,,,,,,,,,,,,,,,,,,,,,,,,,,,,,,102,001,2023_May_18_1646,SpeechDraft1Carolyn_lessNoise_PlusLocalization,2021.2.3,60.02504364776404,
bloom.wav,bloom.mpg,bloom,2,AV,Pink_Noise_2_1.wav,Pink_Noise_2_2.wav,,,,,,,,,,,,,,,0,88,88,91,,,,,,,,,,,,,,,,,,,,,,,660.9968200820003,None,662.4966053259996,None,663.8801233659979,None,bloom,663.8801233659979,None,return,1.6734704589980538,663.9634868499998,None,,,,,,,,,,,,,,,,,,,,,,,,,,,,,,,,,,,,,,,102,001,2023_May_18_1646,SpeechDraft1Carolyn_lessNoise_PlusLocalization,2021.2.3,60.02504364776404,
bull.wav,bull.mpg,bull,4,AV,Pink_Noise_4_1.wav,Pink_Noise_4_2.wav,,,,,,,,,,,,,,,0,89,89,68,,,,,,,,,,,,,,,,,,,,,,,665.6635144430038,None,667.1631713789975,None,668.5467712239988,None,ball,668.5467712239988,None,return,1.1665992210037075,668.6302794259973,None,,,,,,,,,,,,,,,,,,,,,,,,,,,,,,,,,,,,,,,102,001,2023_May_18_1646,SpeechDraft1Carolyn_lessNoise_PlusLocalization,2021.2.3,60.02504364776404,
roast.wav,roast.mpg,roast,1,A,Pink_Noise_1_1.wav,Pink_Noise_1_2.wav,,,,,,,,,,,,,,,0,90,90,26,,,,,,,,,,,,,,,,,,,,,,,669.8136194410035,None,671.3133917150044,None,672.6968717609998,None,roast,672.6968717609998,None,return,4.304714678000892,672.7801623120031,None,,,,,,,,,,,,,,,,,,,,,,,,,,,,,,,,,,,,,,,102,001,2023_May_18_1646,SpeechDraft1Carolyn_lessNoise_PlusLocalization,2021.2.3,60.02504364776404,
gas.wav,gas.mpg,gas,3,AV,Pink_Noise_3_1.wav,Pink_Noise_3_2.wav,,,,,,,,,,,,,,,0,91,91,61,,,,,,,,,,,,,,,,,,,,,,,677.1134656909999,None,678.6133126670029,None,679.9967166220013,None,gas,679.9967166220013,None,return,0.7567845930025214,680.080223488003,None,,,,,,,,,,,,,,,,,,,,,,,,,,,,,,,,,,,,,,,102,001,2023_May_18_1646,SpeechDraft1Carolyn_lessNoise_PlusLocalization,2021.2.3,60.02504364776404,
cap.wav,cap.mpg,cap,6,AV,Pink_Noise_6_1.wav,Pink_Noise_6_2.wav,,,,,,,,,,,,,,,0,92,92,62,,,,,,,,,,,,,,,,,,,,,,,680.8635818609982,None,682.3633010170015,None,683.7468645330009,None,gap,683.7468645330009,None,return,0.7828063589986414,683.8301680880031,None,,,,,,,,,,,,,,,,,,,,,,,,,,,,,,,,,,,,,,,102,001,2023_May_18_1646,SpeechDraft1Carolyn_lessNoise_PlusLocalization,2021.2.3,60.02504364776404,
draw.wav,draw.mpg,draw,4,A,Pink_Noise_4_1.wav,Pink_Noise_4_2.wav,,,,,,,,,,,,,,,0,93,93,57,,,,,,,,,,,,,,,,,,,,,,,684.6302622810035,None,686.1299234100006,None,687.5134854319986,None,drug,687.5134854319986,None,return,4.016053144005127,687.5968898130013,None,,,,,,,,,,,,,,,,,,,,,,,,,,,,,,,,,,,,,,,102,001,2023_May_18_1646,SpeechDraft1Carolyn_lessNoise_PlusLocalization,2021.2.3,60.02504364776404,
flex.wav,flex.mpg,flex,3,AV,Pink_Noise_3_1.wav,Pink_Noise_3_2.wav,,,,,,,,,,,,,,,0,94,94,87,,,,,,,,,,,,,,,,,,,,,,,691.6303601129985,None,693.131893167003,None,694.5135183439997,None,flex,694.5135183439997,None,return,1.056116783998732,694.5968826340031,None,,,,,,,,,,,,,,,,,,,,,,,,,,,,,,,,,,,,,,,102,001,2023_May_18_1646,SpeechDraft1Carolyn_lessNoise_PlusLocalization,2021.2.3,60.02504364776404,
flask.wav,flask.mpg,flask,1,AV,Pink_Noise_1_1.wav,Pink_Noise_1_2.wav,,,,,,,,,,,,,,,0,95,95,66,,,,,,,,,,,,,,,,,,,,,,,695.6802022909978,None,697.1800674000042,None,698.5635426939989,None,"flask
",698.5635426939989,None,return,2.6859083249946707,698.646966758999,None,,,,,,,,,,,,,,,,,,,,,,,,,,,,,,,,,,,,,,,102,001,2023_May_18_1646,SpeechDraft1Carolyn_lessNoise_PlusLocalization,2021.2.3,60.02504364776404,
cord.wav,cord.mpg,cord,2,A,Pink_Noise_2_1.wav,Pink_Noise_2_2.wav,,,,,,,,,,,,,,,0,96,96,45,,,,,,,,,,,,,,,,,,,,,,,701.3636153999978,None,702.8633146920038,None,704.2468910620009,None,cord,704.2468910620009,None,return,3.626560918004543,704.330335284998,None,,,,,,,,,,,,,,,,,,,,,,,,,,,,,,,,,,,,,,,102,001,2023_May_18_1646,SpeechDraft1Carolyn_lessNoise_PlusLocalization,2021.2.3,60.02504364776404,
bass.wav,bass.mpg,bass,6,A,Pink_Noise_6_1.wav,Pink_Noise_6_2.wav,,,,,,,,,,,,,,,0,97,97,35,,,,,,,,,,,,,,,,,,,,,,,707.9802878170012,None,709.4799404799996,None,710.863565822001,None,base,710.863565822001,None,return,1.8739757789953728,710.9470966630033,None,,,,,,,,,,,,,,,,,,,,,,,,,,,,,,,,,,,,,,,102,001,2023_May_18_1646,SpeechDraft1Carolyn_lessNoise_PlusLocalization,2021.2.3,60.02504364776404,
crew.wav,crew.mpg,crew,3,A,Pink_Noise_3_1.wav,Pink_Noise_3_2.wav,,,,,,,,,,,,,,,0,98,98,50,,,,,,,,,,,,,,,,,,,,,,,712.8468888330026,None,714.3633436809978,None,715.7469372970008,None,crew,715.7469372970008,None,return,3.566635158000281,715.8302512040027,None,,,,,,,,,,,,,,,,,,,,,,,,,,,,,,,,,,,,,,,102,001,2023_May_18_1646,SpeechDraft1Carolyn_lessNoise_PlusLocalization,2021.2.3,60.02504364776404,
booth.wav,booth.mpg,booth,6,AV,Pink_Noise_6_1.wav,Pink_Noise_6_2.wav,,,,,,,,,,,,,,,0,99,99,65,,,,,,,,,,,,,,,,,,,,,,,719.4136072559995,None,720.9300682890025,None,722.2967793600037,None,bust,722.2967793600037,None,return,1.5925100419990486,722.3803547729985,None,,,,,,,,,,,,,,,,,,,,,,,,,,,,,,,,,,,,,,,102,001,2023_May_18_1646,SpeechDraft1Carolyn_lessNoise_PlusLocalization,2021.2.3,60.02504364776404,
spray.wav,spray.mpg,spray,3,AV,Pink_Noise_3_1.wav,Pink_Noise_3_2.wav,,,,,,,,,,,,,,,0,100,100,98,,,,,,,,,,,,,,,,,,,,,,,723.9969882709993,None,725.4967259530022,None,726.880232053998,None,spray,726.880232053998,None,return,1.5054518559991266,726.9635310270023,None,,,,,,,,,,,,,,,,,,,,,,,,,,,,,,,,,,,,,,,102,001,2023_May_18_1646,SpeechDraft1Carolyn_lessNoise_PlusLocalization,2021.2.3,60.02504364776404,
lost.wav,lost.mpg,lost,5,A,Pink_Noise_5_1.wav,Pink_Noise_5_2.wav,,,,,,,,,,,,,,,0,101,101,19,,,,,,,,,,,,,,,,,,,,,,,728.496942456004,None,729.9966829800032,None,731.3802223820021,None,mask,731.3802223820021,None,return,1.6772198340040632,731.463638842004,None,,,,,,,,,,,,,,,,,,,,,,,,,,,,,,,,,,,,,,,102,001,2023_May_18_1646,SpeechDraft1Carolyn_lessNoise_PlusLocalization,2021.2.3,60.02504364776404,
broad.wav,broad.mpg,broad,6,A,Pink_Noise_6_1.wav,Pink_Noise_6_2.wav,,,,,,,,,,,,,,,0,102,102,6,,,,,,,,,,,,,,,,,,,,,,,733.1636157890025,None,734.6633476770003,None,736.0469031449975,None,"judge
",736.0469031449975,None,return,3.2185925750018214,736.1302771140035,None,,,,,,,,,,,,,,,,,,,,,,,,,,,,,,,,,,,,,,,102,001,2023_May_18_1646,SpeechDraft1Carolyn_lessNoise_PlusLocalization,2021.2.3,60.02504364776404,
drunk.wav,drunk.mpg,drunk,5,A,Pink_Noise_5_1.wav,Pink_Noise_5_2.wav,,,,,,,,,,,,,,,0,103,103,14,,,,,,,,,,,,,,,,,,,,,,,739.3802343010029,None,740.8802498650039,None,742.2634876779994,None,"just
",742.2634876779994,None,return,1.7698077549939626,742.3470727130043,None,,,,,,,,,,,,,,,,,,,,,,,,,,,,,,,,,,,,,,,102,001,2023_May_18_1646,SpeechDraft1Carolyn_lessNoise_PlusLocalization,2021.2.3,60.02504364776404,
grab.wav,grab.mpg,grab,4,A,Pink_Noise_4_1.wav,Pink_Noise_4_2.wav,,,,,,,,,,,,,,,0,104,104,11,,,,,,,,,,,,,,,,,,,,,,,744.1469964839998,None,745.6633651560041,None,747.0468556569976,None,grand,747.0468556569976,None,return,2.1944975720034563,747.1303682970029,None,,,,,,,,,,,,,,,,,,,,,,,,,,,,,,,,,,,,,,,102,001,2023_May_18_1646,SpeechDraft1Carolyn_lessNoise_PlusLocalization,2021.2.3,60.02504364776404,
fried.wav,fried.mpg,fried,3,AV,Pink_Noise_3_1.wav,Pink_Noise_3_2.wav,,,,,,,,,,,,,,,0,105,105,67,,,,,,,,,,,,,,,,,,,,,,,749.346976658002,None,750.8634746180032,None,752.2469100140006,None,"dry
",752.2469100140006,None,return,1.0026580680059851,752.3302213360002,None,,,,,,,,,,,,,,,,,,,,,,,,,,,,,,,,,,,,,,,102,001,2023_May_18_1646,SpeechDraft1Carolyn_lessNoise_PlusLocalization,2021.2.3,60.02504364776404,
flirt.wav,flirt.mpg,flirt,6,AV,Pink_Noise_6_1.wav,Pink_Noise_6_2.wav,,,,,,,,,,,,,,,0,106,106,70,,,,,,,,,,,,,,,,,,,,,,,753.3637352209989,None,754.8801938379984,None,756.2636053009992,None,drust,756.2636053009992,None,return,11.665972360002343,756.3469957280031,None,,,,,,,,,,,,,,,,,,,,,,,,,,,,,,,,,,,,,,,102,001,2023_May_18_1646,SpeechDraft1Carolyn_lessNoise_PlusLocalization,2021.2.3,60.02504364776404,
fluff.wav,fluff.mpg,fluff,6,AV,Pink_Noise_6_1.wav,Pink_Noise_6_2.wav,,,,,,,,,,,,,,,0,107,107,107,,,,,,,,,,,,,,,,,,,,,,,768.0303393740032,None,769.5301183289994,None,770.9135848150036,None,fluff,770.9135848150036,None,return,1.9758403320010984,770.9970272529972,None,,,,,,,,,,,,,,,,,,,,,,,,,,,,,,,,,,,,,,,102,001,2023_May_18_1646,SpeechDraft1Carolyn_lessNoise_PlusLocalization,2021.2.3,60.02504364776404,
warmth.wav,warmth.mpg,warmth,1,AV,Pink_Noise_1_1.wav,Pink_Noise_1_2.wav,,,,,,,,,,,,,,,0,108,108,100,,,,,,,,,,,,,,,,,,,,,,,772.9970548150013,None,774.5133673419987,None,775.8970507710037,None,oraf,775.8970507710037,None,return,5.560473946999991,775.9803967539992,None,,,,,,,,,,,,,,,,,,,,,,,,,,,,,,,,,,,,,,,102,001,2023_May_18_1646,SpeechDraft1Carolyn_lessNoise_PlusLocalization,2021.2.3,60.02504364776404,
shed.wav,shed.mpg,shed,2,AV,Pink_Noise_2_1.wav,Pink_Noise_2_2.wav,,,,,,,,,,,,,,,0,109,109,76,,,,,,,,,,,,,,,,,,,,,,,781.5637172010029,None,783.0801865280009,None,784.4638537040009,None,shad,784.4638537040009,None,return,1.0899358410024433,784.5471157229986,None,,,,,,,,,,,,,,,,,,,,,,,,,,,,,,,,,,,,,,,102,001,2023_May_18_1646,SpeechDraft1Carolyn_lessNoise_PlusLocalization,2021.2.3,60.02504364776404,
druid.wav,druid.mpg,druid,4,A,Pink_Noise_4_1.wav,Pink_Noise_4_2.wav,,,,,,,,,,,,,,,0,110,110,23,,,,,,,,,,,,,,,,,,,,,,,785.663715748,None,787.163501269999,None,788.5471514410019,None,jwelery,788.5471514410019,None,return,6.198624484997708,788.6303575959973,None,,,,,,,,,,,,,,,,,,,,,,,,,,,,,,,,,,,,,,,102,001,2023_May_18_1646,SpeechDraft1Carolyn_lessNoise_PlusLocalization,2021.2.3,60.02504364776404,
clumps.wav,clumps.mpg,clumps,6,A,Pink_Noise_6_1.wav,Pink_Noise_6_2.wav,,,,,,,,,,,,,,,0,111,111,9,,,,,,,,,,,,,,,,,,,,,,,794.8470647770009,None,796.3635949860036,None,797.7469710139994,None,"glass
",797.7469710139994,None,return,1.2704693199993926,797.8303855400009,None,,,,,,,,,,,,,,,,,,,,,,,,,,,,,,,,,,,,,,,102,001,2023_May_18_1646,SpeechDraft1Carolyn_lessNoise_PlusLocalization,2021.2.3,60.02504364776404,
cup.wav,cup.mpg,cup,6,AV,Pink_Noise_6_1.wav,Pink_Noise_6_2.wav,,,,,,,,,,,,,,,0,112,112,90,,,,,,,,,,,,,,,,,,,,,,,799.1303406020015,None,800.6471578560013,None,802.0304112720041,None,cup,802.0304112720041,None,return,0.843127092004579,802.1137395620026,None,,,,,,,,,,,,,,,,,,,,,,,,,,,,,,,,,,,,,,,102,001,2023_May_18_1646,SpeechDraft1Carolyn_lessNoise_PlusLocalization,2021.2.3,60.02504364776404,
slush.wav,slush.mpg,slush,6,A,Pink_Noise_6_1.wav,Pink_Noise_6_2.wav,,,,,,,,,,,,,,,0,113,113,46,,,,,,,,,,,,,,,,,,,,,,,802.9804346149976,None,804.4800187970031,None,805.863718640001,None,crush,805.863718640001,None,return,1.5137984059983864,805.9471152940023,None,,,,,,,,,,,,,,,,,,,,,,,,,,,,,,,,,,,,,,,102,001,2023_May_18_1646,SpeechDraft1Carolyn_lessNoise_PlusLocalization,2021.2.3,60.02504364776404,
thief.wav,thief.mpg,thief,4,AV,Pink_Noise_4_1.wav,Pink_Noise_4_2.wav,,,,,,,,,,,,,,,0,114,114,78,,,,,,,,,,,,,,,,,,,,,,,807.4804290309985,None,808.9968297329979,None,810.3802761530023,None,thief,810.3802761530023,None,return,1.3573315810062923,810.4636583230022,None,,,,,,,,,,,,,,,,,,,,,,,,,,,,,,,,,,,,,,,102,001,2023_May_18_1646,SpeechDraft1Carolyn_lessNoise_PlusLocalization,2021.2.3,60.02504364776404,
three.wav,three.mpg,three,5,AV,Pink_Noise_5_1.wav,Pink_Noise_5_2.wav,,,,,,,,,,,,,,,0,115,115,85,,,,,,,,,,,,,,,,,,,,,,,811.8471392779975,None,813.3469012990026,None,814.730394541999,None,three,814.730394541999,None,return,1.4392273819976253,814.813651096003,None,,,,,,,,,,,,,,,,,,,,,,,,,,,,,,,,,,,,,,,102,001,2023_May_18_1646,SpeechDraft1Carolyn_lessNoise_PlusLocalization,2021.2.3,60.02504364776404,
bay.wav,bay.mpg,bay,3,A,Pink_Noise_3_1.wav,Pink_Noise_3_2.wav,,,,,,,,,,,,,,,0,116,116,25,,,,,,,,,,,,,,,,,,,,,,,816.2804205950015,None,817.7967304379999,None,819.180422878002,None,bay,819.180422878002,None,return,0.9971437260028324,819.2637938010012,None,,,,,,,,,,,,,,,,,,,,,,,,,,,,,,,,,,,,,,,102,001,2023_May_18_1646,SpeechDraft1Carolyn_lessNoise_PlusLocalization,2021.2.3,60.02504364776404,
foul.wav,foul.mpg,foul,4,A,Pink_Noise_4_1.wav,Pink_Noise_4_2.wav,,,,,,,,,,,,,,,0,117,117,34,,,,,,,,,,,,,,,,,,,,,,,820.2804266719977,None,821.7967922270036,None,823.180452902001,None,shower,823.180452902001,None,return,1.3492345429986017,823.2637583420001,None,,,,,,,,,,,,,,,,,,,,,,,,,,,,,,,,,,,,,,,102,001,2023_May_18_1646,SpeechDraft1Carolyn_lessNoise_PlusLocalization,2021.2.3,60.02504364776404,
coy.wav,coy.mpg,coy,5,AV,Pink_Noise_5_1.wav,Pink_Noise_5_2.wav,,,,,,,,,,,,,,,0,118,118,64,,,,,,,,,,,,,,,,,,,,,,,824.630501849002,None,826.1467385310025,None,827.5304168119983,None,"core
",827.5304168119983,None,return,1.502861748005671,827.6140069100002,None,,,,,,,,,,,,,,,,,,,,,,,,,,,,,,,,,,,,,,,102,001,2023_May_18_1646,SpeechDraft1Carolyn_lessNoise_PlusLocalization,2021.2.3,60.02504364776404,
truck.wav,truck.mpg,truck,3,AV,Pink_Noise_3_1.wav,Pink_Noise_3_2.wav,,,,,,,,,,,,,,,0,119,119,96,,,,,,,,,,,,,,,,,,,,,,,829.1470520080038,None,830.6635197689975,None,832.0470110070019,None,"chuck
",832.0470110070019,None,return,2.5864998350007227,832.1303681350037,None,,,,,,,,,,,,,,,,,,,,,,,,,,,,,,,,,,,,,,,102,001,2023_May_18_1646,SpeechDraft1Carolyn_lessNoise_PlusLocalization,2021.2.3,60.02504364776404,
,,,,,,,,,,,,,,,,,,,,,,,,,,,,,,,,,,,,,,,,,,,,,,,,,,,,,,,,,,,,,,,,,,space,19.469855028000893,834.8470748050022,None,,,,,,,,,,,,,,,,,,,,,,,,,,,,,102,001,2023_May_18_1646,SpeechDraft1Carolyn_lessNoise_PlusLocalization,2021.2.3,60.02504364776404,
,,,,,,,,farRight,19.1,4,ch1Sound_localizationTask.wav,19.1,"(1237, 878)","(277,-202)",285,-338,,,,,,,,,0,0,0,6,,,,,,,,,,,,,,,,,,,,,,,,,,,,,,,,,,,,,,,,,,834.8470748050022,None,854.3635689310031,None,855.4635003400035,None,856.3968216970025,None,1.7656084656084656,5.768833630005247,856.3968216970025,None,,,,,,,,,,,,,,,,,102,001,2023_May_18_1646,SpeechDraft1Carolyn_lessNoise_PlusLocalization,2021.2.3,60.02504364776404,
,,,,,,,,midRight,13.0,3,ch1Sound_localizationTask.wav,13.0,"(1142, 878)","(182, -202)",190,-338,,,,,,,,,0,1,1,5,,,,,,,,,,,,,,,,,,,,,,,,,,,,,,,,,,,,,,,,,,,,862.1639396710016,None,863.263499890003,None,864.1968770840031,None,1.7142857142857144,0.8984456649995991,864.1968770840031,None,,,,,,,,,,,,,,,,,102,001,2023_May_18_1646,SpeechDraft1Carolyn_lessNoise_PlusLocalization,2021.2.3,60.02504364776404,
,,,,,,,,nearLeft,-6.5,1,ch1Sound_localizationTask.wav,-6.5,"(857, 878)","(-103,-202)",-95,-338,,,,,,,,,0,2,2,2,,,,,,,,,,,,,,,,,,,,,,,,,,,,,,,,,,,,,,,,,,,,865.0971333800044,None,866.1970469220032,None,867.1302010369982,None,1.4190476190476191,1.2165946790046291,867.1302010369982,None,,,,,,,,,,,,,,,,,102,001,2023_May_18_1646,SpeechDraft1Carolyn_lessNoise_PlusLocalization,2021.2.3,60.02504364776404,
,,,,,,,,midRight,13.0,3,ch1Sound_localizationTask.wav,13.0,"(1142, 878)","(182, -202)",190,-338,,,,,,,,,0,3,3,5,,,,,,,,,,,,,,,,,,,,,,,,,,,,,,,,,,,,,,,,,,,,868.3473144290037,None,869.4469054400033,None,870.3801753340013,None,1.657142857142857,1.1827839670004323,870.3801753340013,None,,,,,,,,,,,,,,,,,102,001,2023_May_18_1646,SpeechDraft1Carolyn_lessNoise_PlusLocalization,2021.2.3,60.02504364776404,
,,,,,,,,nearRight,6.5,0,ch1Sound_localizationTask.wav,6.5,"(1047, 878)","(87, -202)",95,-338,,,,,,,,,0,4,4,4,,,,,,,,,,,,,,,,,,,,,,,,,,,,,,,,,,,,,,,,,,,,871.5637434220043,None,872.663558762004,None,873.5969252860014,None,1.5074074074074075,0.7333107579979696,873.5969252860014,None,,,,,,,,,,,,,,,,,102,001,2023_May_18_1646,SpeechDraft1Carolyn_lessNoise_PlusLocalization,2021.2.3,60.02504364776404,
,,,,,,,,nearLeft,-6.5,1,ch1Sound_localizationTask.wav,-6.5,"(857, 878)","(-103,-202)",-95,-338,,,,,,,,,0,5,5,2,,,,,,,,,,,,,,,,,,,,,,,,,,,,,,,,,,,,,,,,,,,,874.3317582349991,None,875.4469202830005,None,876.3636345790001,None,1.4867724867724867,0.7824930450005922,876.3636345790001,None,,,,,,,,,,,,,,,,,102,001,2023_May_18_1646,SpeechDraft1Carolyn_lessNoise_PlusLocalization,2021.2.3,60.02504364776404,
,,,,,,,,farLeft,-19.1,5,ch1Sound_localizationTask.wav,-19.1,"(667, 878)","(-293,-202)",-285,-338,,,,,,,,,0,6,6,0,,,,,,,,,,,,,,,,,,,,,,,,,,,,,,,,,,,,,,,,,,,,877.1471888779997,None,878.2470382329993,None,879.1802737359976,None,1.2243386243386243,0.916249414003687,879.1802737359976,None,,,,,,,,,,,,,,,,,102,001,2023_May_18_1646,SpeechDraft1Carolyn_lessNoise_PlusLocalization,2021.2.3,60.02504364776404,
,,,,,,,,farRight,19.1,4,ch1Sound_localizationTask.wav,19.1,"(1237, 878)","(277,-202)",285,-338,,,,,,,,,1,0,7,6,,,,,,,,,,,,,,,,,,,,,,,,,,,,,,,,,,,,,,,,,,,,880.0981191640021,None,881.196888956998,None,882.1303611280018,None,1.7634920634920634,0.7667136480013141,882.1303611280018,None,,,,,,,,,,,,,,,,,102,001,2023_May_18_1646,SpeechDraft1Carolyn_lessNoise_PlusLocalization,2021.2.3,60.02504364776404,
,,,,,,,,farLeft,-19.1,5,ch1Sound_localizationTask.wav,-19.1,"(667, 878)","(-293,-202)",-285,-338,,,,,,,,,1,1,8,0,,,,,,,,,,,,,,,,,,,,,,,,,,,,,,,,,,,,,,,,,,,,882.8977466700017,None,883.9968966119995,None,884.9302967339972,None,1.2312169312169312,0.7999724830006016,884.9302967339972,None,,,,,,,,,,,,,,,,,102,001,2023_May_18_1646,SpeechDraft1Carolyn_lessNoise_PlusLocalization,2021.2.3,60.02504364776404,
,,,,,,,,midLeft,-13.0,2,ch1Sound_localizationTask.wav,-13.0,"(762, 878)","(-198,-202)",-190,-338,,,,,,,,,1,2,9,1,,,,,,,,,,,,,,,,,,,,,,,,,,,,,,,,,,,,,,,,,,,,885.7319087330034,None,886.8470301870038,None,887.7637012690029,None,1.3,0.6000132750050398,887.7637012690029,None,,,,,,,,,,,,,,,,,102,001,2023_May_18_1646,SpeechDraft1Carolyn_lessNoise_PlusLocalization,2021.2.3,60.02504364776404,
,,,,,,,,nearLeft,-6.5,1,ch1Sound_localizationTask.wav,-6.5,"(857, 878)","(-103,-202)",-95,-338,,,,,,,,,1,3,10,2,,,,,,,,,,,,,,,,,,,,,,,,,,,,,,,,,,,,,,,,,,,,888.3640584640016,None,889.4636605030028,None,890.3969305010032,None,1.5185185185185186,0.8828592429999844,890.3969305010032,None,,,,,,,,,,,,,,,,,102,001,2023_May_18_1646,SpeechDraft1Carolyn_lessNoise_PlusLocalization,2021.2.3,60.02504364776404,
,,,,,,,,center,0.0,6,ch1Sound_localizationTask.wav,0.0,"(952, 878)","(-8,-202)",0,-338,,,,,,,,,1,4,11,3,,,,,,,,,,,,,,,,,,,,,,,,,,,,,,,,,,,,,,,,,,,,891.2808770300035,None,892.3801784079988,None,893.313578153,None,1.4402116402116403,0.6992498569961754,893.313578153,None,,,,,,,,,,,,,,,,,102,001,2023_May_18_1646,SpeechDraft1Carolyn_lessNoise_PlusLocalization,2021.2.3,60.02504364776404,
,,,,,,,,nearRight,6.5,0,ch1Sound_localizationTask.wav,6.5,"(1047, 878)","(87, -202)",95,-338,,,,,,,,,1,5,12,4,,,,,,,,,,,,,,,,,,,,,,,,,,,,,,,,,,,,,,,,,,,,894.013927480999,None,895.1135586380042,None,896.0470377759993,None,1.491005291005291,0.5823519040059182,896.0470377759993,None,,,,,,,,,,,,,,,,,102,001,2023_May_18_1646,SpeechDraft1Carolyn_lessNoise_PlusLocalization,2021.2.3,60.02504364776404,
,,,,,,,,nearRight,6.5,0,ch1Sound_localizationTask.wav,6.5,"(1047, 878)","(87, -202)",95,-338,,,,,,,,,1,6,13,4,,,,,,,,,,,,,,,,,,,,,,,,,,,,,,,,,,,,,,,,,,,,896.6305068000001,None,897.7302530640009,None,898.6635656670041,None,1.4957671957671956,0.5999096219966304,898.6635656670041,None,,,,,,,,,,,,,,,,,102,001,2023_May_18_1646,SpeechDraft1Carolyn_lessNoise_PlusLocalization,2021.2.3,60.02504364776404,
,,,,,,,,nearRight,6.5,0,ch1Sound_localizationTask.wav,6.5,"(1047, 878)","(87, -202)",95,-338,,,,,,,,,2,0,14,4,,,,,,,,,,,,,,,,,,,,,,,,,,,,,,,,,,,,,,,,,,,,899.2638324610016,None,900.363679342001,None,901.2969455740022,None,1.5047619047619047,0.4823680610061274,901.2969455740022,None,,,,,,,,,,,,,,,,,102,001,2023_May_18_1646,SpeechDraft1Carolyn_lessNoise_PlusLocalization,2021.2.3,60.02504364776404,
,,,,,,,,nearLeft,-6.5,1,ch1Sound_localizationTask.wav,-6.5,"(857, 878)","(-103,-202)",-95,-338,,,,,,,,,2,1,15,2,,,,,,,,,,,,,,,,,,,,,,,,,,,,,,,,,,,,,,,,,,,,901.7804951680009,None,902.8802562490018,None,903.8135891269994,None,1.4952380952380953,0.4163411619956605,903.8135891269994,None,,,,,,,,,,,,,,,,,102,001,2023_May_18_1646,SpeechDraft1Carolyn_lessNoise_PlusLocalization,2021.2.3,60.02504364776404,
,,,,,,,,midRight,13.0,3,ch1Sound_localizationTask.wav,13.0,"(1142, 878)","(182, -202)",190,-338,,,,,,,,,2,2,16,5,,,,,,,,,,,,,,,,,,,,,,,,,,,,,,,,,,,,,,,,,,,,904.2305769970044,None,905.330317633001,None,906.2636186200034,None,1.5592592592592593,0.5156787119994988,906.2636186200034,None,,,,,,,,,,,,,,,,,102,001,2023_May_18_1646,SpeechDraft1Carolyn_lessNoise_PlusLocalization,2021.2.3,60.02504364776404,
,,,,,,,,farLeft,-19.1,5,ch1Sound_localizationTask.wav,-19.1,"(667, 878)","(-293,-202)",-285,-338,,,,,,,,,2,3,17,0,,,,,,,,,,,,,,,,,,,,,,,,,,,,,,,,,,,,,,,,,,,,906.7806479970022,None,907.8804007729996,None,908.8138155210036,None,1.2423280423280423,1.1994478199994774,908.8138155210036,None,,,,,,,,,,,,,,,,,102,001,2023_May_18_1646,SpeechDraft1Carolyn_lessNoise_PlusLocalization,2021.2.3,60.02504364776404,
,,,,,,,,farRight,19.1,4,ch1Sound_localizationTask.wav,19.1,"(1237, 878)","(277,-202)",285,-338,,,,,,,,,2,4,18,6,,,,,,,,,,,,,,,,,,,,,,,,,,,,,,,,,,,,,,,,,,,,910.0142382560007,None,911.1135952500044,None,912.0470359190003,None,1.6904761904761905,0.8495898879991728,912.0470359190003,None,,,,,,,,,,,,,,,,,102,001,2023_May_18_1646,SpeechDraft1Carolyn_lessNoise_PlusLocalization,2021.2.3,60.02504364776404,
,,,,,,,,nearLeft,-6.5,1,ch1Sound_localizationTask.wav,-6.5,"(857, 878)","(-103,-202)",-95,-338,,,,,,,,,2,5,19,2,,,,,,,,,,,,,,,,,,,,,,,,,,,,,,,,,,,,,,,,,,,,912.8973619250028,None,913.9969913340028,None,914.9303184599994,None,1.4354497354497355,0.6837035909993574,914.9303184599994,None,,,,,,,,,,,,,,,,,102,001,2023_May_18_1646,SpeechDraft1Carolyn_lessNoise_PlusLocalization,2021.2.3,60.02504364776404,
,,,,,,,,farRight,19.1,4,ch1Sound_localizationTask.wav,19.1,"(1237, 878)","(277,-202)",285,-338,,,,,,,,,2,6,20,6,,,,,,,,,,,,,,,,,,,,,,,,,,,,,,,,,,,,,,,,,,,,915.6140776320026,None,916.7138412159984,None,917.6470122149985,None,1.8100529100529101,0.7328805810029735,917.6470122149985,None,,,,,,,,,,,,,,,,,102,001,2023_May_18_1646,SpeechDraft1Carolyn_lessNoise_PlusLocalization,2021.2.3,60.02504364776404,
,,,,,,,,farLeft,-19.1,5,ch1Sound_localizationTask.wav,-19.1,"(667, 878)","(-293,-202)",-285,-338,,,,,,,,,3,0,21,0,,,,,,,,,,,,,,,,,,,,,,,,,,,,,,,,,,,,,,,,,,,,918.397406285003,None,919.4970372520038,None,920.4303939130041,None,1.3317460317460317,0.7839855130005162,920.4303939130041,None,,,,,,,,,,,,,,,,,102,001,2023_May_18_1646,SpeechDraft1Carolyn_lessNoise_PlusLocalization,2021.2.3,60.02504364776404,
,,,,,,,,center,0.0,6,ch1Sound_localizationTask.wav,0.0,"(952, 878)","(-8,-202)",0,-338,,,,,,,,,3,1,22,3,,,,,,,,,,,,,,,,,,,,,,,,,,,,,,,,,,,,,,,,,,,,921.2306704349976,None,922.3305468030012,None,923.2637186139982,None,1.5232804232804233,0.7322955050040036,923.2637186139982,None,,,,,,,,,,,,,,,,,102,001,2023_May_18_1646,SpeechDraft1Carolyn_lessNoise_PlusLocalization,2021.2.3,60.02504364776404,
,,,,,,,,midRight,13.0,3,ch1Sound_localizationTask.wav,13.0,"(1142, 878)","(182, -202)",190,-338,,,,,,,,,3,2,23,5,,,,,,,,,,,,,,,,,,,,,,,,,,,,,,,,,,,,,,,,,,,,923.9977590519993,None,925.0969842210034,None,926.0303649260022,None,1.5222222222222221,0.6987834260071395,926.0303649260022,None,,,,,,,,,,,,,,,,,102,001,2023_May_18_1646,SpeechDraft1Carolyn_lessNoise_PlusLocalization,2021.2.3,60.02504364776404,
,,,,,,,,midLeft,-13.0,2,ch1Sound_localizationTask.wav,-13.0,"(762, 878)","(-198,-202)",-190,-338,,,,,,,,,3,3,24,1,,,,,,,,,,,,,,,,,,,,,,,,,,,,,,,,,,,,,,,,,,,,926.731938623001,None,927.8469358990042,None,928.7636270319999,None,1.3285714285714285,0.8001434850011719,928.7636270319999,None,,,,,,,,,,,,,,,,,102,001,2023_May_18_1646,SpeechDraft1Carolyn_lessNoise_PlusLocalization,2021.2.3,60.02504364776404,
,,,,,,,,farLeft,-19.1,5,ch1Sound_localizationTask.wav,-19.1,"(667, 878)","(-293,-202)",-285,-338,,,,,,,,,3,4,25,0,,,,,,,,,,,,,,,,,,,,,,,,,,,,,,,,,,,,,,,,,,,,929.5807042390006,None,930.6803172010041,None,931.6137766620013,None,1.3507936507936509,0.7659275680052815,931.6137766620013,None,,,,,,,,,,,,,,,,,102,001,2023_May_18_1646,SpeechDraft1Carolyn_lessNoise_PlusLocalization,2021.2.3,60.02504364776404,
,,,,,,,,farRight,19.1,4,ch1Sound_localizationTask.wav,19.1,"(1237, 878)","(277,-202)",285,-338,,,,,,,,,3,5,26,6,,,,,,,,,,,,,,,,,,,,,,,,,,,,,,,,,,,,,,,,,,,,932.3805825399977,None,933.4803728650004,None,934.4138007420042,None,1.726984126984127,0.7821682689973386,934.4138007420042,None,,,,,,,,,,,,,,,,,102,001,2023_May_18_1646,SpeechDraft1Carolyn_lessNoise_PlusLocalization,2021.2.3,60.02504364776404,
,,,,,,,,farRight,19.1,4,ch1Sound_localizationTask.wav,19.1,"(1237, 878)","(277,-202)",285,-338,,,,,,,,,3,6,27,6,,,,,,,,,,,,,,,,,,,,,,,,,,,,,,,,,,,,,,,,,,,,935.1971864369989,None,936.2970386300003,None,937.2303702179997,None,1.6349206349206349,0.615775834005035,937.2303702179997,None,,,,,,,,,,,,,,,,,102,001,2023_May_18_1646,SpeechDraft1Carolyn_lessNoise_PlusLocalization,2021.2.3,60.02504364776404,
,,,,,,,,center,0.0,6,ch1Sound_localizationTask.wav,0.0,"(952, 878)","(-8,-202)",0,-338,,,,,,,,,4,0,28,3,,,,,,,,,,,,,,,,,,,,,,,,,,,,,,,,,,,,,,,,,,,,937.8472270799975,None,938.9469598920041,None,939.8802854460009,None,1.5010582010582012,0.6499107199997525,939.8802854460009,None,,,,,,,,,,,,,,,,,102,001,2023_May_18_1646,SpeechDraft1Carolyn_lessNoise_PlusLocalization,2021.2.3,60.02504364776404,
,,,,,,,,nearLeft,-6.5,1,ch1Sound_localizationTask.wav,-6.5,"(857, 878)","(-103,-202)",-95,-338,,,,,,,,,4,1,29,2,,,,,,,,,,,,,,,,,,,,,,,,,,,,,,,,,,,,,,,,,,,,940.5306681970033,None,941.6302755799989,None,942.563838742004,None,1.4973544973544972,0.4660178159974748,942.563838742004,None,,,,,,,,,,,,,,,,,102,001,2023_May_18_1646,SpeechDraft1Carolyn_lessNoise_PlusLocalization,2021.2.3,60.02504364776404,
,,,,,,,,center,0.0,6,ch1Sound_localizationTask.wav,0.0,"(952, 878)","(-8,-202)",0,-338,,,,,,,,,4,2,30,3,,,,,,,,,,,,,,,,,,,,,,,,,,,,,,,,,,,,,,,,,,,,943.0308070640021,None,944.1303104539984,None,945.0637681579974,None,1.4952380952380953,0.3824223740011803,945.0637681579974,None,,,,,,,,,,,,,,,,,102,001,2023_May_18_1646,SpeechDraft1Carolyn_lessNoise_PlusLocalization,2021.2.3,60.02504364776404,
,,,,,,,,center,0.0,6,ch1Sound_localizationTask.wav,0.0,"(952, 878)","(-8,-202)",0,-338,,,,,,,,,4,3,31,3,,,,,,,,,,,,,,,,,,,,,,,,,,,,,,,,,,,,,,,,,,,,945.4472653589983,None,946.5470461740042,None,947.4805094420008,None,1.4962962962962962,0.4326438930002041,947.4805094420008,None,,,,,,,,,,,,,,,,,102,001,2023_May_18_1646,SpeechDraft1Carolyn_lessNoise_PlusLocalization,2021.2.3,60.02504364776404,
,,,,,,,,midLeft,-13.0,2,ch1Sound_localizationTask.wav,-13.0,"(762, 878)","(-198,-202)",-190,-338,,,,,,,,,4,4,32,1,,,,,,,,,,,,,,,,,,,,,,,,,,,,,,,,,,,,,,,,,,,,947.9138524860027,None,949.0137374650003,None,949.9470556419983,None,1.378835978835979,0.631674912001472,949.9470556419983,None,,,,,,,,,,,,,,,,,102,001,2023_May_18_1646,SpeechDraft1Carolyn_lessNoise_PlusLocalization,2021.2.3,60.02504364776404,
,,,,,,,,nearRight,6.5,0,ch1Sound_localizationTask.wav,6.5,"(1047, 878)","(87, -202)",95,-338,,,,,,,,,4,5,33,4,,,,,,,,,,,,,,,,,,,,,,,,,,,,,,,,,,,,,,,,,,,,950.580658496001,None,951.6803974159993,None,952.6137051460028,None,1.5074074074074075,0.6487610170006519,952.6137051460028,None,,,,,,,,,,,,,,,,,102,001,2023_May_18_1646,SpeechDraft1Carolyn_lessNoise_PlusLocalization,2021.2.3,60.02504364776404,
,,,,,,,,farLeft,-19.1,5,ch1Sound_localizationTask.wav,-19.1,"(667, 878)","(-293,-202)",-285,-338,,,,,,,,,4,6,34,0,,,,,,,,,,,,,,,,,,,,,,,,,,,,,,,,,,,,,,,,,,,,953.2644456039998,None,954.3637461090038,None,955.2971476780003,None,1.2550264550264552,0.5984014889982063,955.2971476780003,None,,,,,,,,,,,,,,,,,102,001,2023_May_18_1646,SpeechDraft1Carolyn_lessNoise_PlusLocalization,2021.2.3,60.02504364776404,
,,,,,,,,center,0.0,6,ch1Sound_localizationTask.wav,0.0,"(952, 878)","(-8,-202)",0,-338,,,,,,,,,5,0,35,3,,,,,,,,,,,,,,,,,,,,,,,,,,,,,,,,,,,,,,,,,,,,955.8973632580019,None,956.9970047430033,None,957.9303293749981,None,1.4994708994708994,0.866240019997349,957.9303293749981,None,,,,,,,,,,,,,,,,,102,001,2023_May_18_1646,SpeechDraft1Carolyn_lessNoise_PlusLocalization,2021.2.3,60.02504364776404,
,,,,,,,,nearRight,6.5,0,ch1Sound_localizationTask.wav,6.5,"(1047, 878)","(87, -202)",95,-338,,,,,,,,,5,1,36,4,,,,,,,,,,,,,,,,,,,,,,,,,,,,,,,,,,,,,,,,,,,,958.7974265439989,None,959.8972014610044,None,960.8303944159998,None,1.4952380952380953,0.599656127000344,960.8303944159998,None,,,,,,,,,,,,,,,,,102,001,2023_May_18_1646,SpeechDraft1Carolyn_lessNoise_PlusLocalization,2021.2.3,60.02504364776404,
,,,,,,,,nearRight,6.5,0,ch1Sound_localizationTask.wav,6.5,"(1047, 878)","(87, -202)",95,-338,,,,,,,,,5,2,37,4,,,,,,,,,,,,,,,,,,,,,,,,,,,,,,,,,,,,,,,,,,,,961.4307259639972,None,962.5304080019996,None,963.4636415450004,None,1.4952380952380953,0.4659567609996884,963.4636415450004,None,,,,,,,,,,,,,,,,,102,001,2023_May_18_1646,SpeechDraft1Carolyn_lessNoise_PlusLocalization,2021.2.3,60.02504364776404,
,,,,,,,,midRight,13.0,3,ch1Sound_localizationTask.wav,13.0,"(1142, 878)","(182, -202)",190,-338,,,,,,,,,5,3,38,5,,,,,,,,,,,,,,,,,,,,,,,,,,,,,,,,,,,,,,,,,,,,963.9305650160022,None,965.0304624210039,None,965.9637347710013,None,1.7296296296296296,0.7162575350012048,965.9637347710013,None,,,,,,,,,,,,,,,,,102,001,2023_May_18_1646,SpeechDraft1Carolyn_lessNoise_PlusLocalization,2021.2.3,60.02504364776404,
,,,,,,,,center,0.0,6,ch1Sound_localizationTask.wav,0.0,"(952, 878)","(-8,-202)",0,-338,,,,,,,,,5,4,39,3,,,,,,,,,,,,,,,,,,,,,,,,,,,,,,,,,,,,,,,,,,,,966.6811527509999,None,967.7803670700014,None,968.7137350720004,None,1.4904761904761905,0.6670700449976721,968.7137350720004,None,,,,,,,,,,,,,,,,,102,001,2023_May_18_1646,SpeechDraft1Carolyn_lessNoise_PlusLocalization,2021.2.3,60.02504364776404,
,,,,,,,,midLeft,-13.0,2,ch1Sound_localizationTask.wav,-13.0,"(762, 878)","(-198,-202)",-190,-338,,,,,,,,,5,5,40,1,,,,,,,,,,,,,,,,,,,,,,,,,,,,,,,,,,,,,,,,,,,,969.3810077610033,None,970.4803126859988,None,971.4136118469978,None,1.2994708994708994,0.7665906060065026,971.4136118469978,None,,,,,,,,,,,,,,,,,102,001,2023_May_18_1646,SpeechDraft1Carolyn_lessNoise_PlusLocalization,2021.2.3,60.02504364776404,
,,,,,,,,center,0.0,6,ch1Sound_localizationTask.wav,0.0,"(952, 878)","(-8,-202)",0,-338,,,,,,,,,5,6,41,3,,,,,,,,,,,,,,,,,,,,,,,,,,,,,,,,,,,,,,,,,,,,972.1817476860015,None,973.2970408190013,None,974.2138402120036,None,1.4592592592592593,0.5996537649989477,974.2138402120036,None,,,,,,,,,,,,,,,,,102,001,2023_May_18_1646,SpeechDraft1Carolyn_lessNoise_PlusLocalization,2021.2.3,60.02504364776404,
,,,,,,,,farLeft,-19.1,5,ch1Sound_localizationTask.wav,-19.1,"(667, 878)","(-293,-202)",-285,-338,,,,,,,,,6,0,42,0,,,,,,,,,,,,,,,,,,,,,,,,,,,,,,,,,,,,,,,,,,,,974.8149426070013,None,975.9138698349998,None,976.847004977004,None,1.1904761904761905,0.5662529389956035,976.847004977004,None,,,,,,,,,,,,,,,,,102,001,2023_May_18_1646,SpeechDraft1Carolyn_lessNoise_PlusLocalization,2021.2.3,60.02504364776404,
,,,,,,,,midLeft,-13.0,2,ch1Sound_localizationTask.wav,-13.0,"(762, 878)","(-198,-202)",-190,-338,,,,,,,,,6,1,43,1,,,,,,,,,,,,,,,,,,,,,,,,,,,,,,,,,,,,,,,,,,,,977.4306676900014,None,978.5303433720037,None,979.4638060750003,None,1.3248677248677247,0.6320812930061948,979.4638060750003,None,,,,,,,,,,,,,,,,,102,001,2023_May_18_1646,SpeechDraft1Carolyn_lessNoise_PlusLocalization,2021.2.3,60.02504364776404,
,,,,,,,,nearLeft,-6.5,1,ch1Sound_localizationTask.wav,-6.5,"(857, 878)","(-103,-202)",-95,-338,,,,,,,,,6,2,44,2,,,,,,,,,,,,,,,,,,,,,,,,,,,,,,,,,,,,,,,,,,,,980.0974566689983,None,981.1971044140009,None,982.1302211939983,None,1.493121693121693,0.6158304560012766,982.1302211939983,None,,,,,,,,,,,,,,,,,102,001,2023_May_18_1646,SpeechDraft1Carolyn_lessNoise_PlusLocalization,2021.2.3,60.02504364776404,
,,,,,,,,farLeft,-19.1,5,ch1Sound_localizationTask.wav,-19.1,"(667, 878)","(-293,-202)",-285,-338,,,,,,,,,6,3,45,0,,,,,,,,,,,,,,,,,,,,,,,,,,,,,,,,,,,,,,,,,,,,982.7481845439979,None,983.8473227560025,None,984.7803353449999,None,1.2322751322751322,0.6161317260048236,984.7803353449999,None,,,,,,,,,,,,,,,,,102,001,2023_May_18_1646,SpeechDraft1Carolyn_lessNoise_PlusLocalization,2021.2.3,60.02504364776404,
,,,,,,,,midLeft,-13.0,2,ch1Sound_localizationTask.wav,-13.0,"(762, 878)","(-198,-202)",-190,-338,,,,,,,,,6,4,46,1,,,,,,,,,,,,,,,,,,,,,,,,,,,,,,,,,,,,,,,,,,,,985.397360023002,None,986.4970599470034,None,987.4304872779976,None,1.3407407407407408,0.6668507270005648,987.4304872779976,None,,,,,,,,,,,,,,,,,102,001,2023_May_18_1646,SpeechDraft1Carolyn_lessNoise_PlusLocalization,2021.2.3,60.02504364776404,
,,,,,,,,nearLeft,-6.5,1,ch1Sound_localizationTask.wav,-6.5,"(857, 878)","(-103,-202)",-95,-338,,,,,,,,,6,5,47,2,,,,,,,,,,,,,,,,,,,,,,,,,,,,,,,,,,,,,,,,,,,,988.0973309940018,None,989.1970040700035,None,990.1304397409986,None,1.4994708994708994,0.7815738170029363,990.1304397409986,None,,,,,,,,,,,,,,,,,102,001,2023_May_18_1646,SpeechDraft1Carolyn_lessNoise_PlusLocalization,2021.2.3,60.02504364776404,
,,,,,,,,farRight,19.1,4,ch1Sound_localizationTask.wav,19.1,"(1237, 878)","(277,-202)",285,-338,,,,,,,,,6,6,48,6,,,,,,,,,,,,,,,,,,,,,,,,,,,,,,,,,,,,,,,,,,,,990.9142387640022,None,992.0137360630033,None,992.947038463004,None,1.735978835978836,0.6154114189994289,992.947038463004,None,,,,,,,,,,,,,,,,,102,001,2023_May_18_1646,SpeechDraft1Carolyn_lessNoise_PlusLocalization,2021.2.3,60.02504364776404,
,,,,,,,,midRight,13.0,3,ch1Sound_localizationTask.wav,13.0,"(1142, 878)","(182, -202)",190,-338,,,,,,,,,7,0,49,5,,,,,,,,,,,,,,,,,,,,,,,,,,,,,,,,,,,,,,,,,,,,993.5639705939975,None,994.663931613999,None,995.597069235002,None,1.6306878306878307,0.46623467600147706,995.597069235002,None,,,,,,,,,,,,,,,,,102,001,2023_May_18_1646,SpeechDraft1Carolyn_lessNoise_PlusLocalization,2021.2.3,60.02504364776404,
,,,,,,,,midLeft,-13.0,2,ch1Sound_localizationTask.wav,-13.0,"(762, 878)","(-198,-202)",-190,-338,,,,,,,,,7,1,50,1,,,,,,,,,,,,,,,,,,,,,,,,,,,,,,,,,,,,,,,,,,,,996.063992288,None,997.1639330739999,None,998.097109702001,None,1.343915343915344,0.5828805740020471,998.097109702001,None,,,,,,,,,,,,,,,,,102,001,2023_May_18_1646,SpeechDraft1Carolyn_lessNoise_PlusLocalization,2021.2.3,60.02504364776404,
,,,,,,,,midRight,13.0,3,ch1Sound_localizationTask.wav,13.0,"(1142, 878)","(182, -202)",190,-338,,,,,,,,,7,2,51,5,,,,,,,,,,,,,,,,,,,,,,,,,,,,,,,,,,,,,,,,,,,,998.6807766830025,None,999.7804002609992,None,1000.7137960519976,None,1.6111111111111112,0.7338795619943994,1000.7137960519976,None,,,,,,,,,,,,,,,,,102,001,2023_May_18_1646,SpeechDraft1Carolyn_lessNoise_PlusLocalization,2021.2.3,60.02504364776404,
,,,,,,,,nearRight,6.5,0,ch1Sound_localizationTask.wav,6.5,"(1047, 878)","(87, -202)",95,-338,,,,,,,,,7,3,52,4,,,,,,,,,,,,,,,,,,,,,,,,,,,,,,,,,,,,,,,,,,,,1001.4639213460032,None,1002.5637801970006,None,1003.4971264019987,None,1.5042328042328044,0.5162446000031196,1003.4971264019987,None,,,,,,,,,,,,,,,,,102,001,2023_May_18_1646,SpeechDraft1Carolyn_lessNoise_PlusLocalization,2021.2.3,60.02504364776404,
,,,,,,,,farRight,19.1,4,ch1Sound_localizationTask.wav,19.1,"(1237, 878)","(277,-202)",285,-338,,,,,,,,,7,4,53,6,,,,,,,,,,,,,,,,,,,,,,,,,,,,,,,,,,,,,,,,,,,,1004.014017761001,None,1005.113842069004,None,1006.0470447550033,None,1.6947089947089946,0.4660426699992968,1006.0470447550033,None,,,,,,,,,,,,,,,,,102,001,2023_May_18_1646,SpeechDraft1Carolyn_lessNoise_PlusLocalization,2021.2.3,60.02504364776404,
,,,,,,,,midRight,13.0,3,ch1Sound_localizationTask.wav,13.0,"(1142, 878)","(182, -202)",190,-338,,,,,,,,,7,5,54,5,,,,,,,,,,,,,,,,,,,,,,,,,,,,,,,,,,,,,,,,,,,,1006.5139861400021,None,1007.6136804859998,None,1008.5469115700034,None,1.5444444444444443,0.39901890399778495,1008.5469115700034,None,,,,,,,,,,,,,,,,,102,001,2023_May_18_1646,SpeechDraft1Carolyn_lessNoise_PlusLocalization,2021.2.3,60.02504364776404,
,,,,,,,,midLeft,-13.0,2,ch1Sound_localizationTask.wav,-13.0,"(762, 878)","(-198,-202)",-190,-338,,,,,,,,,7,6,55,1,,,,,,,,,,,,,,,,,,,,,,,,,,,,,,,,,,,,,,,,,,,,1008.9474319200017,None,1010.0472133240037,None,1010.9804988050018,None,1.308994708994709,0.5980931439989945,1010.9804988050018,None,,,,,,,,,,,,,,,,,102,001,2023_May_18_1646,SpeechDraft1Carolyn_lessNoise_PlusLocalization,2021.2.3,60.02504364776404,
,,,,,,,,,,,,,,,,,,,,,,,,,,,,,,,,,,,,,,,,,,,,,,,,,,,,,,,,,,,,,,,,,,,,,,,,,,,,,,,,,,space,12.421023812006752,1011.6639915470005,None,,,,,,,,,,,,,102,001,2023_May_18_1646,SpeechDraft1Carolyn_lessNoise_PlusLocalization,2021.2.3,60.02504364776404,
,,,,,,,,farLeft,-19.1,5,ch1Sound_localizationTask.wav,-19.1,"(667, 878)","(-293,-202)",-285,-338,,,,,,,,,,,,,0,0,0,0,,,,,,,,,,,,,,,,,,,,,,,,,,,,,,,,,,,,,,,,1024.1304776140023,None,,,1027.1637864040022,None,1.3322751322751323,1.2368350539982202,1027.1637864040022,None,,,,,1011.6639915470005,None,1025.1307111720016,None,1025.3141905079974,1025.3307866989999,,,,,,,102,001,2023_May_18_1646,SpeechDraft1Carolyn_lessNoise_PlusLocalization,2021.2.3,60.02504364776404,
,,,,,,,,farLeft,-19.1,5,ch1Sound_localizationTask.wav,-19.1,"(667, 878)","(-293,-202)",-285,-338,,,,,,,,,,,,,0,1,1,0,,,,,,,,,,,,,,,,,,,,,,,,,,,,,,,,,,,,,,,,1028.4142571019984,None,,,1031.4304865800004,None,1.3582010582010582,0.9000164410026628,1031.4304865800004,None,,,,,,,1029.4139866749974,None,1029.5973479270033,1029.614105599001,,,,,,,102,001,2023_May_18_1646,SpeechDraft1Carolyn_lessNoise_PlusLocalization,2021.2.3,60.02504364776404,
,,,,,,,,nearLeft,-6.5,1,ch1Sound_localizationTask.wav,-6.5,"(857, 878)","(-103,-202)",-95,-338,,,,,,,,,,,,,0,2,2,2,,,,,,,,,,,,,,,,,,,,,,,,,,,,,,,,,,,,,,,,1032.3477924820036,None,,,1035.3637604879987,None,1.4481481481481482,0.8656786130013643,1035.3637604879987,None,,,,,,,1033.3475163440016,None,1033.530673733003,1033.547377781004,,,,,,,102,001,2023_May_18_1646,SpeechDraft1Carolyn_lessNoise_PlusLocalization,2021.2.3,60.02504364776404,
,,,,,,,,center,0.0,6,ch1Sound_localizationTask.wav,0.0,"(952, 878)","(-8,-202)",0,-338,,,,,,,,,,,,,0,3,3,3,,,,,,,,,,,,,,,,,,,,,,,,,,,,,,,,,,,,,,,,1036.2473858509984,None,,,1039.2639945089977,None,1.4984126984126984,0.76513044800231,1039.2639945089977,None,,,,,,,1037.247519067998,None,1037.4307153109985,1037.4473616620016,,,,,,,102,001,2023_May_18_1646,SpeechDraft1Carolyn_lessNoise_PlusLocalization,2021.2.3,60.02504364776404,
,,,,,,,,midLeft,-13.0,2,ch1Sound_localizationTask.wav,-13.0,"(762, 878)","(-198,-202)",-190,-338,,,,,,,,,,,,,0,4,4,1,,,,,,,,,,,,,,,,,,,,,,,,,,,,,,,,,,,,,,,,1040.0306367919984,None,,,1043.047213183003,None,1.3756613756613758,0.6984221419988899,1043.047213183003,None,,,,,,,1041.0307880510009,None,1041.214057459998,1041.230744143002,,,,,,,102,001,2023_May_18_1646,SpeechDraft1Carolyn_lessNoise_PlusLocalization,2021.2.3,60.02504364776404,
,,,,,,,,farLeft,-19.1,5,ch1Sound_localizationTask.wav,-19.1,"(667, 878)","(-293,-202)",-285,-338,,,,,,,,,,,,,0,5,5,0,,,,,,,,,,,,,,,,,,,,,,,,,,,,,,,,,,,,,,,,1043.7473509320043,None,,,1046.7639287810016,None,1.3433862433862434,0.8160661379952217,1046.7639287810016,None,,,,,,,1044.7473090139974,None,1044.930685158004,1044.947355410004,,,,,,,102,001,2023_May_18_1646,SpeechDraft1Carolyn_lessNoise_PlusLocalization,2021.2.3,60.02504364776404,
,,,,,,,,center,0.0,6,ch1Sound_localizationTask.wav,0.0,"(952, 878)","(-8,-202)",0,-338,,,,,,,,,,,,,0,6,6,3,,,,,,,,,,,,,,,,,,,,,,,,,,,,,,,,,,,,,,,,1047.5811501729986,None,,,1050.597146318003,None,1.5,0.7153111209991039,1050.597146318003,None,,,,,,,1048.5806987500036,None,1048.764090826,1048.7806631560015,,,,,,,102,001,2023_May_18_1646,SpeechDraft1Carolyn_lessNoise_PlusLocalization,2021.2.3,60.02504364776404,
,,,,,,,,midRight,13.0,3,ch1Sound_localizationTask.wav,13.0,"(1142, 878)","(182, -202)",190,-338,,,,,,,,,,,,,1,0,7,5,,,,,,,,,,,,,,,,,,,,,,,,,,,,,,,,,,,,,,,,1051.314044316001,None,,,1054.3304993540005,None,1.6343915343915345,0.7651953980021062,1054.3304993540005,None,,,,,,,1052.3140033040036,None,1052.4974015789994,1052.5140367670028,,,,,,,102,001,2023_May_18_1646,SpeechDraft1Carolyn_lessNoise_PlusLocalization,2021.2.3,60.02504364776404,
,,,,,,,,nearLeft,-6.5,1,ch1Sound_localizationTask.wav,-6.5,"(857, 878)","(-103,-202)",-95,-338,,,,,,,,,,,,,1,1,8,2,,,,,,,,,,,,,,,,,,,,,,,,,,,,,,,,,,,,,,,,1055.0973723510033,None,,,1058.113855884003,None,1.4523809523809523,0.9165753440029221,1058.113855884003,None,,,,,,,1056.0973924420032,None,1056.2807230230028,1056.2973937310016,,,,,,,102,001,2023_May_18_1646,SpeechDraft1Carolyn_lessNoise_PlusLocalization,2021.2.3,60.02504364776404,
,,,,,,,,nearRight,6.5,0,ch1Sound_localizationTask.wav,6.5,"(1047, 878)","(87, -202)",95,-338,,,,,,,,,,,,,1,2,9,4,,,,,,,,,,,,,,,,,,,,,,,,,,,,,,,,,,,,,,,,1059.0316173280007,None,,,1062.0472050030003,None,1.553968253968254,0.8992285510030342,1062.0472050030003,None,,,,,,,1060.0307629340023,None,1060.2141138810039,1060.2307696520002,,,,,,,102,001,2023_May_18_1646,SpeechDraft1Carolyn_lessNoise_PlusLocalization,2021.2.3,60.02504364776404,
,,,,,,,,farRight,19.1,4,ch1Sound_localizationTask.wav,19.1,"(1237, 878)","(277,-202)",285,-338,,,,,,,,,,,,,1,3,10,6,,,,,,,,,,,,,,,,,,,,,,,,,,,,,,,,,,,,,,,,1062.9474889260018,None,,,1065.9638813249985,None,1.6746031746031746,1.0324472749998677,1065.9638813249985,None,,,,,,,1063.9474666040041,None,1064.1307665999993,1064.1474359280037,,,,,,,102,001,2023_May_18_1646,SpeechDraft1Carolyn_lessNoise_PlusLocalization,2021.2.3,60.02504364776404,
,,,,,,,,farRight,19.1,4,ch1Sound_localizationTask.wav,19.1,"(1237, 878)","(277,-202)",285,-338,,,,,,,,,,,,,1,4,11,6,,,,,,,,,,,,,,,,,,,,,,,,,,,,,,,,,,,,,,,,1066.9974039200024,None,,,1070.0139408199975,None,1.6597883597883598,0.8818892260023858,1070.0139408199975,None,,,,,,,1067.9974236280032,None,1068.180739894,1068.1974332149985,,,,,,,102,001,2023_May_18_1646,SpeechDraft1Carolyn_lessNoise_PlusLocalization,2021.2.3,60.02504364776404,
,,,,,,,,farRight,19.1,4,ch1Sound_localizationTask.wav,19.1,"(1237, 878)","(277,-202)",285,-338,,,,,,,,,,,,,1,5,12,6,,,,,,,,,,,,,,,,,,,,,,,,,,,,,,,,,,,,,,,,1070.897355539004,None,,,1073.9138185679985,None,1.674074074074074,0.9166523559979396,1073.9138185679985,None,,,,,,,1071.8974437189972,None,1072.0807477889975,1072.0973212509998,,,,,,,102,001,2023_May_18_1646,SpeechDraft1Carolyn_lessNoise_PlusLocalization,2021.2.3,60.02504364776404,
,,,,,,,,farLeft,-19.1,5,ch1Sound_localizationTask.wav,-19.1,"(667, 878)","(-293,-202)",-285,-338,,,,,,,,,,,,,1,6,13,0,,,,,,,,,,,,,,,,,,,,,,,,,,,,,,,,,,,,,,,,1074.8309864219991,None,,,1077.8473395679976,None,1.3476190476190477,0.9988004670012742,1077.8473395679976,None,,,,,,,1075.8307632350043,None,1076.0140482790011,1076.030829247,,,,,,,102,001,2023_May_18_1646,SpeechDraft1Carolyn_lessNoise_PlusLocalization,2021.2.3,60.02504364776404,
,,,,,,,,nearLeft,-6.5,1,ch1Sound_localizationTask.wav,-6.5,"(857, 878)","(-103,-202)",-95,-338,,,,,,,,,,,,,2,0,14,2,,,,,,,,,,,,,,,,,,,,,,,,,,,,,,,,,,,,,,,,1078.8477900340004,None,,,1081.8638877949998,None,1.4587301587301587,0.8495819699965068,1081.8638877949998,None,,,,,,,1079.847431536,None,1080.030877047,1080.0474415260032,,,,,,,102,001,2023_May_18_1646,SpeechDraft1Carolyn_lessNoise_PlusLocalization,2021.2.3,60.02504364776404,
,,,,,,,,nearLeft,-6.5,1,ch1Sound_localizationTask.wav,-6.5,"(857, 878)","(-103,-202)",-95,-338,,,,,,,,,,,,,2,1,15,2,,,,,,,,,,,,,,,,,,,,,,,,,,,,,,,,,,,,,,,,1082.7139800279983,None,,,1085.7306468059978,None,1.4634920634920636,0.8154155439988244,1085.7306468059978,None,,,,,,,1083.714101081001,None,1083.8975225460017,1083.9140897010002,,,,,,,102,001,2023_May_18_1646,SpeechDraft1Carolyn_lessNoise_PlusLocalization,2021.2.3,60.02504364776404,
,,,,,,,,nearLeft,-6.5,1,ch1Sound_localizationTask.wav,-6.5,"(857, 878)","(-103,-202)",-95,-338,,,,,,,,,,,,,2,2,16,2,,,,,,,,,,,,,,,,,,,,,,,,,,,,,,,,,,,,,,,,1086.5474342470043,None,,,1089.5638607080036,None,1.4497354497354498,0.8496159850037657,1089.5638607080036,None,,,,,,,1087.5474882729977,None,1087.7306698510001,1087.7474706310022,,,,,,,102,001,2023_May_18_1646,SpeechDraft1Carolyn_lessNoise_PlusLocalization,2021.2.3,60.02504364776404,
,,,,,,,,midRight,13.0,3,ch1Sound_localizationTask.wav,13.0,"(1142, 878)","(182, -202)",190,-338,,,,,,,,,,,,,2,3,17,5,,,,,,,,,,,,,,,,,,,,,,,,,,,,,,,,,,,,,,,,1090.4140548840005,None,,,1093.430621020998,None,1.5989417989417989,0.7480171520001022,1093.430621020998,None,,,,,,,1091.4140969720029,None,1091.5974897560009,1091.6140323470026,,,,,,,102,001,2023_May_18_1646,SpeechDraft1Carolyn_lessNoise_PlusLocalization,2021.2.3,60.02504364776404,
,,,,,,,,center,0.0,6,ch1Sound_localizationTask.wav,0.0,"(952, 878)","(-8,-202)",0,-338,,,,,,,,,,,,,2,4,18,3,,,,,,,,,,,,,,,,,,,,,,,,,,,,,,,,,,,,,,,,1094.180840920999,None,,,1097.1972318650005,None,1.5010582010582012,1.0163521869981196,1097.1972318650005,None,,,,,,,1095.1807195110014,None,1095.364082521999,1095.3807480859978,,,,,,,102,001,2023_May_18_1646,SpeechDraft1Carolyn_lessNoise_PlusLocalization,2021.2.3,60.02504364776404,
,,,,,,,,midRight,13.0,3,ch1Sound_localizationTask.wav,13.0,"(1142, 878)","(182, -202)",190,-338,,,,,,,,,,,,,2,5,19,5,,,,,,,,,,,,,,,,,,,,,,,,,,,,,,,,,,,,,,,,1098.2140794939987,None,,,1101.2305980520032,None,1.6111111111111112,0.7315359539934434,1101.2305980520032,None,,,,,,,1099.2141915840039,None,1099.3974554169981,1099.4142669450011,,,,,,,102,001,2023_May_18_1646,SpeechDraft1Carolyn_lessNoise_PlusLocalization,2021.2.3,60.02504364776404,
,,,,,,,,nearRight,6.5,0,ch1Sound_localizationTask.wav,6.5,"(1047, 878)","(87, -202)",95,-338,,,,,,,,,,,,,2,6,20,4,,,,,,,,,,,,,,,,,,,,,,,,,,,,,,,,,,,,,,,,1101.9641536499985,None,,,1104.9805402600032,None,1.5544973544973546,0.7981325399960042,1104.9805402600032,None,,,,,,,1102.964143969999,None,1103.147455997998,1103.1641405629998,,,,,,,102,001,2023_May_18_1646,SpeechDraft1Carolyn_lessNoise_PlusLocalization,2021.2.3,60.02504364776404,
,,,,,,,,midRight,13.0,3,ch1Sound_localizationTask.wav,13.0,"(1142, 878)","(182, -202)",190,-338,,,,,,,,,,,,,3,0,21,5,,,,,,,,,,,,,,,,,,,,,,,,,,,,,,,,,,,,,,,,1105.780831271004,None,,,1108.7972493990019,None,1.6111111111111112,0.898969103996933,1108.7972493990019,None,,,,,,,1106.780853668999,None,1106.964104081002,1106.9809214600027,,,,,,,102,001,2023_May_18_1646,SpeechDraft1Carolyn_lessNoise_PlusLocalization,2021.2.3,60.02504364776404,
,,,,,,,,center,0.0,6,ch1Sound_localizationTask.wav,0.0,"(952, 878)","(-8,-202)",0,-338,,,,,,,,,,,,,3,1,22,3,,,,,,,,,,,,,,,,,,,,,,,,,,,,,,,,,,,,,,,,1109.697470428,None,,,1112.7140863270033,None,1.4994708994708994,0.6809759289972135,1112.7140863270033,None,,,,,,,1110.697439165,None,1110.8807670239985,1110.8973532220043,,,,,,,102,001,2023_May_18_1646,SpeechDraft1Carolyn_lessNoise_PlusLocalization,2021.2.3,60.02504364776404,
,,,,,,,,farRight,19.1,4,ch1Sound_localizationTask.wav,19.1,"(1237, 878)","(277,-202)",285,-338,,,,,,,,,,,,,3,2,23,6,,,,,,,,,,,,,,,,,,,,,,,,,,,,,,,,,,,,,,,,1113.3974173500028,None,,,1116.4138942940044,None,1.6735449735449737,0.7327240910017281,1116.4138942940044,None,,,,,,,1114.3974246920043,None,1114.580796893999,1114.5974296560016,,,,,,,102,001,2023_May_18_1646,SpeechDraft1Carolyn_lessNoise_PlusLocalization,2021.2.3,60.02504364776404,
,,,,,,,,center,0.0,6,ch1Sound_localizationTask.wav,0.0,"(952, 878)","(-8,-202)",0,-338,,,,,,,,,,,,,3,3,24,3,,,,,,,,,,,,,,,,,,,,,,,,,,,,,,,,,,,,,,,,1117.1474191180023,None,,,1120.1639556320006,None,1.494179894179894,0.8986070490063867,1120.1639556320006,None,,,,,,,1118.1475252279997,None,1118.3307801769988,1118.3475978089991,,,,,,,102,001,2023_May_18_1646,SpeechDraft1Carolyn_lessNoise_PlusLocalization,2021.2.3,60.02504364776404,
,,,,,,,,nearRight,6.5,0,ch1Sound_localizationTask.wav,6.5,"(1047, 878)","(87, -202)",95,-338,,,,,,,,,,,,,3,4,25,4,,,,,,,,,,,,,,,,,,,,,,,,,,,,,,,,,,,,,,,,1121.0642447389982,None,,,1124.0806855429983,None,1.5513227513227514,0.8154244699981064,1124.0806855429983,None,,,,,,,1122.0640753140033,None,1122.2473929539992,1122.2641065889984,,,,,,,102,001,2023_May_18_1646,SpeechDraft1Carolyn_lessNoise_PlusLocalization,2021.2.3,60.02504364776404,
,,,,,,,,midLeft,-13.0,2,ch1Sound_localizationTask.wav,-13.0,"(762, 878)","(-198,-202)",-190,-338,,,,,,,,,,,,,3,5,26,1,,,,,,,,,,,,,,,,,,,,,,,,,,,,,,,,,,,,,,,,1124.8974166269982,None,,,1127.9139209830028,None,1.4074074074074074,0.8989609549971647,1127.9139209830028,None,,,,,,,1125.8974895139982,None,1126.0808363370015,1126.0974146270019,,,,,,,102,001,2023_May_18_1646,SpeechDraft1Carolyn_lessNoise_PlusLocalization,2021.2.3,60.02504364776404,
,,,,,,,,midRight,13.0,3,ch1Sound_localizationTask.wav,13.0,"(1142, 878)","(182, -202)",190,-338,,,,,,,,,,,,,3,6,27,5,,,,,,,,,,,,,,,,,,,,,,,,,,,,,,,,,,,,,,,,1128.8142198370042,None,,,1131.8306242260005,None,1.624867724867725,0.9824315369987744,1131.8306242260005,None,,,,,,,1129.8141411070028,None,1129.9976091450008,1130.014085695002,,,,,,,102,001,2023_May_18_1646,SpeechDraft1Carolyn_lessNoise_PlusLocalization,2021.2.3,60.02504364776404,
,,,,,,,,nearRight,6.5,0,ch1Sound_localizationTask.wav,6.5,"(1047, 878)","(87, -202)",95,-338,,,,,,,,,,,,,4,0,28,4,,,,,,,,,,,,,,,,,,,,,,,,,,,,,,,,,,,,,,,,1132.8141249219989,None,,,1135.830589901001,None,1.5502645502645502,0.8649530010006856,1135.830589901001,None,,,,,,,1133.8141209140013,None,1133.997503833998,1134.0141721410037,,,,,,,102,001,2023_May_18_1646,SpeechDraft1Carolyn_lessNoise_PlusLocalization,2021.2.3,60.02504364776404,
,,,,,,,,midLeft,-13.0,2,ch1Sound_localizationTask.wav,-13.0,"(762, 878)","(-198,-202)",-190,-338,,,,,,,,,,,,,4,1,29,1,,,,,,,,,,,,,,,,,,,,,,,,,,,,,,,,,,,,,,,,1136.6973868370042,None,,,1139.7139817819989,None,1.3973544973544973,0.7816001090031932,1139.7139817819989,None,,,,,,,1137.6974036879983,None,1137.8807941080013,1137.8974660660024,,,,,,,102,001,2023_May_18_1646,SpeechDraft1Carolyn_lessNoise_PlusLocalization,2021.2.3,60.02504364776404,
,,,,,,,,nearRight,6.5,0,ch1Sound_localizationTask.wav,6.5,"(1047, 878)","(87, -202)",95,-338,,,,,,,,,,,,,4,2,30,4,,,,,,,,,,,,,,,,,,,,,,,,,,,,,,,,,,,,,,,,1140.4975971739987,None,,,1143.5141806309985,None,1.5486772486772487,0.8990106620040024,1143.5141806309985,None,,,,,,,1141.497693932004,None,1141.6808011460016,1141.6975558679987,,,,,,,102,001,2023_May_18_1646,SpeechDraft1Carolyn_lessNoise_PlusLocalization,2021.2.3,60.02504364776404,
,,,,,,,,center,0.0,6,ch1Sound_localizationTask.wav,0.0,"(952, 878)","(-8,-202)",0,-338,,,,,,,,,,,,,4,3,31,3,,,,,,,,,,,,,,,,,,,,,,,,,,,,,,,,,,,,,,,,1144.4142645559987,None,,,1147.4305958359982,None,1.5010582010582012,0.7831360839991248,1147.4305958359982,None,,,,,,,1145.4141032280022,None,1145.597479285003,1145.6142226599986,,,,,,,102,001,2023_May_18_1646,SpeechDraft1Carolyn_lessNoise_PlusLocalization,2021.2.3,60.02504364776404,
,,,,,,,,nearLeft,-6.5,1,ch1Sound_localizationTask.wav,-6.5,"(857, 878)","(-103,-202)",-95,-338,,,,,,,,,,,,,4,4,32,2,,,,,,,,,,,,,,,,,,,,,,,,,,,,,,,,,,,,,,,,1148.2144437030001,None,,,1151.230742009,None,1.455026455026455,0.6806451930024195,1151.230742009,None,,,,,,,1149.2141692209989,None,1149.3975455960026,1149.4141525509986,,,,,,,102,001,2023_May_18_1646,SpeechDraft1Carolyn_lessNoise_PlusLocalization,2021.2.3,60.02504364776404,
,,,,,,,,midLeft,-13.0,2,ch1Sound_localizationTask.wav,-13.0,"(762, 878)","(-198,-202)",-190,-338,,,,,,,,,,,,,4,5,33,1,,,,,,,,,,,,,,,,,,,,,,,,,,,,,,,,,,,,,,,,1151.9143734989993,None,,,1154.930588367999,None,1.3936507936507936,1.1997720550061786,1154.930588367999,None,,,,,,,1152.914203102002,None,1153.0975783480026,1153.114211676002,,,,,,,102,001,2023_May_18_1646,SpeechDraft1Carolyn_lessNoise_PlusLocalization,2021.2.3,60.02504364776404,
,,,,,,,,nearRight,6.5,0,ch1Sound_localizationTask.wav,6.5,"(1047, 878)","(87, -202)",95,-338,,,,,,,,,,,,,4,6,34,4,,,,,,,,,,,,,,,,,,,,,,,,,,,,,,,,,,,,,,,,1156.1310069200044,None,,,1159.1473405270008,None,1.5423280423280423,0.8324233870007447,1159.1473405270008,None,,,,,,,1157.1309236290035,None,1157.314276969999,1157.3308765149995,,,,,,,102,001,2023_May_18_1646,SpeechDraft1Carolyn_lessNoise_PlusLocalization,2021.2.3,60.02504364776404,
,,,,,,,,midLeft,-13.0,2,ch1Sound_localizationTask.wav,-13.0,"(762, 878)","(-198,-202)",-190,-338,,,,,,,,,,,,,5,0,35,1,,,,,,,,,,,,,,,,,,,,,,,,,,,,,,,,,,,,,,,,1159.9808831409973,None,,,1162.9973630870008,None,1.3947089947089948,0.7989268550009001,1162.9973630870008,None,,,,,,,1160.9809352680022,None,1161.164244102998,1161.180882216002,,,,,,,102,001,2023_May_18_1646,SpeechDraft1Carolyn_lessNoise_PlusLocalization,2021.2.3,60.02504364776404,
,,,,,,,,center,0.0,6,ch1Sound_localizationTask.wav,0.0,"(952, 878)","(-8,-202)",0,-338,,,,,,,,,,,,,5,1,36,3,,,,,,,,,,,,,,,,,,,,,,,,,,,,,,,,,,,,,,,,1163.7974552180021,None,,,1166.8139506160005,None,1.5126984126984127,0.8162204230029602,1166.8139506160005,None,,,,,,,1164.797500583998,None,1164.9808647449972,1164.9974608699995,,,,,,,102,001,2023_May_18_1646,SpeechDraft1Carolyn_lessNoise_PlusLocalization,2021.2.3,60.02504364776404,
,,,,,,,,nearRight,6.5,0,ch1Sound_localizationTask.wav,6.5,"(1047, 878)","(87, -202)",95,-338,,,,,,,,,,,,,5,2,37,4,,,,,,,,,,,,,,,,,,,,,,,,,,,,,,,,,,,,,,,,1167.6308632910004,None,,,1170.6474944950023,None,1.5624338624338625,0.8148211340012494,1170.6474944950023,None,,,,,,,1168.6308194000012,None,1168.8141602910036,1168.830817150003,,,,,,,102,001,2023_May_18_1646,SpeechDraft1Carolyn_lessNoise_PlusLocalization,2021.2.3,60.02504364776404,
,,,,,,,,midLeft,-13.0,2,ch1Sound_localizationTask.wav,-13.0,"(762, 878)","(-198,-202)",-190,-338,,,,,,,,,,,,,5,3,38,1,,,,,,,,,,,,,,,,,,,,,,,,,,,,,,,,,,,,,,,,1171.4642976050018,None,,,1174.48062984,None,1.3835978835978837,0.7499143399982131,1174.48062984,None,,,,,,,1172.4641150610041,None,1172.647516996003,1172.6641291210035,,,,,,,102,001,2023_May_18_1646,SpeechDraft1Carolyn_lessNoise_PlusLocalization,2021.2.3,60.02504364776404,
,,,,,,,,midRight,13.0,3,ch1Sound_localizationTask.wav,13.0,"(1142, 878)","(182, -202)",190,-338,,,,,,,,,,,,,5,4,39,5,,,,,,,,,,,,,,,,,,,,,,,,,,,,,,,,,,,,,,,,1175.2309687989982,None,,,1178.2472277330016,None,1.6476190476190475,0.8484938019973924,1178.2472277330016,None,,,,,,,1176.2309117339973,None,1176.4141476529985,1176.4309348629977,,,,,,,102,001,2023_May_18_1646,SpeechDraft1Carolyn_lessNoise_PlusLocalization,2021.2.3,60.02504364776404,
,,,,,,,,farLeft,-19.1,5,ch1Sound_localizationTask.wav,-19.1,"(667, 878)","(-293,-202)",-285,-338,,,,,,,,,,,,,5,5,40,0,,,,,,,,,,,,,,,,,,,,,,,,,,,,,,,,,,,,,,,,1179.0975335440016,None,,,1182.114167136002,None,1.355026455026455,0.7157199450011831,1182.114167136002,None,,,,,,,1180.0975311810034,None,1180.280890656999,1180.2974434479984,,,,,,,102,001,2023_May_18_1646,SpeechDraft1Carolyn_lessNoise_PlusLocalization,2021.2.3,60.02504364776404,
,,,,,,,,farRight,19.1,4,ch1Sound_localizationTask.wav,19.1,"(1237, 878)","(277,-202)",285,-338,,,,,,,,,,,,,5,6,41,6,,,,,,,,,,,,,,,,,,,,,,,,,,,,,,,,,,,,,,,,1182.8312059529999,None,,,1185.8474509630032,None,1.6851851851851851,0.6816106949991081,1185.8474509630032,None,,,,,,,1183.830873373001,None,1184.0142896850011,1184.0308976369997,,,,,,,102,001,2023_May_18_1646,SpeechDraft1Carolyn_lessNoise_PlusLocalization,2021.2.3,60.02504364776404,
,,,,,,,,midLeft,-13.0,2,ch1Sound_localizationTask.wav,-13.0,"(762, 878)","(-198,-202)",-190,-338,,,,,,,,,,,,,6,0,42,1,,,,,,,,,,,,,,,,,,,,,,,,,,,,,,,,,,,,,,,,1186.5308521550032,None,,,1189.547297019999,None,1.416931216931217,0.9826184769990505,1189.547297019999,None,,,,,,,1187.530921657999,None,1187.7142593840035,1187.7308806490037,,,,,,,102,001,2023_May_18_1646,SpeechDraft1Carolyn_lessNoise_PlusLocalization,2021.2.3,60.02504364776404,
,,,,,,,,farRight,19.1,4,ch1Sound_localizationTask.wav,19.1,"(1237, 878)","(277,-202)",285,-338,,,,,,,,,,,,,6,1,43,6,,,,,,,,,,,,,,,,,,,,,,,,,,,,,,,,,,,,,,,,1190.5308580220008,None,,,1193.5473757790023,None,1.6888888888888889,0.7818866509987856,1193.5473757790023,None,,,,,,,1191.5309910150027,None,1191.7142340080027,1191.7309105759996,,,,,,,102,001,2023_May_18_1646,SpeechDraft1Carolyn_lessNoise_PlusLocalization,2021.2.3,60.02504364776404,
,,,,,,,,midLeft,-13.0,2,ch1Sound_localizationTask.wav,-13.0,"(762, 878)","(-198,-202)",-190,-338,,,,,,,,,,,,,6,2,44,1,,,,,,,,,,,,,,,,,,,,,,,,,,,,,,,,,,,,,,,,1194.3309905959977,None,,,1197.3472525850011,None,1.4074074074074074,0.8154304100025911,1197.3472525850011,None,,,,,,,1195.3308265759988,None,1195.5143033409986,1195.5308637240014,,,,,,,102,001,2023_May_18_1646,SpeechDraft1Carolyn_lessNoise_PlusLocalization,2021.2.3,60.02504364776404,
,,,,,,,,center,0.0,6,ch1Sound_localizationTask.wav,0.0,"(952, 878)","(-8,-202)",0,-338,,,,,,,,,,,,,6,3,45,3,,,,,,,,,,,,,,,,,,,,,,,,,,,,,,,,,,,,,,,,1198.164383205003,None,,,1201.1806890419975,None,1.4936507936507937,0.7157916459982516,1201.1806890419975,None,,,,,,,1199.164143228998,None,1199.3476149109993,1199.3642499859998,,,,,,,102,001,2023_May_18_1646,SpeechDraft1Carolyn_lessNoise_PlusLocalization,2021.2.3,60.02504364776404,
,,,,,,,,farLeft,-19.1,5,ch1Sound_localizationTask.wav,-19.1,"(667, 878)","(-293,-202)",-285,-338,,,,,,,,,,,,,6,4,46,0,,,,,,,,,,,,,,,,,,,,,,,,,,,,,,,,,,,,,,,,1201.897555648,None,,,1204.913979818004,None,1.319047619047619,0.6815918140055146,1204.913979818004,None,,,,,,,1202.8975392920038,None,1203.0808863819984,1203.0976782209982,,,,,,,102,001,2023_May_18_1646,SpeechDraft1Carolyn_lessNoise_PlusLocalization,2021.2.3,60.02504364776404,
,,,,,,,,midRight,13.0,3,ch1Sound_localizationTask.wav,13.0,"(1142, 878)","(182, -202)",190,-338,,,,,,,,,,,,,6,5,47,5,,,,,,,,,,,,,,,,,,,,,,,,,,,,,,,,,,,,,,,,1205.598191281002,None,,,1208.6141364990035,None,1.6058201058201058,0.6485655980068259,1208.6141364990035,None,,,,,,,1206.5976208520005,None,1206.780899133999,1206.7975937489973,,,,,,,102,001,2023_May_18_1646,SpeechDraft1Carolyn_lessNoise_PlusLocalization,2021.2.3,60.02504364776404,
,,,,,,,,nearLeft,-6.5,1,ch1Sound_localizationTask.wav,-6.5,"(857, 878)","(-103,-202)",-95,-338,,,,,,,,,,,,,6,6,48,2,,,,,,,,,,,,,,,,,,,,,,,,,,,,,,,,,,,,,,,,1209.2642155209978,None,,,1212.2807285149975,None,1.453968253968254,1.2318243440022343,1212.2807285149975,None,,,,,,,1210.2643615999987,None,1210.4476263190008,1210.4642954040028,,,,,,,102,001,2023_May_18_1646,SpeechDraft1Carolyn_lessNoise_PlusLocalization,2021.2.3,60.02504364776404,
,,,,,,,,nearLeft,-6.5,1,ch1Sound_localizationTask.wav,-6.5,"(857, 878)","(-103,-202)",-95,-338,,,,,,,,,,,,,7,0,49,2,,,,,,,,,,,,,,,,,,,,,,,,,,,,,,,,,,,,,,,,1213.514289648003,None,,,1216.530861446001,None,1.4513227513227513,1.4158076549938414,1216.530861446001,None,,,,,,,1214.514275955,None,1214.697557571002,1214.714244253002,,,,,,,102,001,2023_May_18_1646,SpeechDraft1Carolyn_lessNoise_PlusLocalization,2021.2.3,60.02504364776404,
,,,,,,,,nearRight,6.5,0,ch1Sound_localizationTask.wav,6.5,"(1047, 878)","(87, -202)",95,-338,,,,,,,,,,,,,7,1,50,4,,,,,,,,,,,,,,,,,,,,,,,,,,,,,,,,,,,,,,,,1217.9475849579976,None,,,1220.9641128980002,None,1.564021164021164,0.7988639780014637,1220.9641128980002,None,,,,,,,1218.9476593180007,None,1219.1309151540045,1219.1475401069983,,,,,,,102,001,2023_May_18_1646,SpeechDraft1Carolyn_lessNoise_PlusLocalization,2021.2.3,60.02504364776404,
,,,,,,,,farLeft,-19.1,5,ch1Sound_localizationTask.wav,-19.1,"(667, 878)","(-293,-202)",-285,-338,,,,,,,,,,,,,7,2,51,0,,,,,,,,,,,,,,,,,,,,,,,,,,,,,,,,,,,,,,,,1221.764235579998,None,,,1224.7807223290001,None,1.326984126984127,0.7993478160060477,1224.7807223290001,None,,,,,,,1222.7642914509997,None,1222.9476405789974,1222.96435183,,,,,,,102,001,2023_May_18_1646,SpeechDraft1Carolyn_lessNoise_PlusLocalization,2021.2.3,60.02504364776404,
,,,,,,,,farLeft,-19.1,5,ch1Sound_localizationTask.wav,-19.1,"(667, 878)","(-293,-202)",-285,-338,,,,,,,,,,,,,7,3,52,0,,,,,,,,,,,,,,,,,,,,,,,,,,,,,,,,,,,,,,,,1225.5813751949972,None,,,1228.5973608990025,None,1.3656084656084655,0.7993903419992421,1228.5973608990025,None,,,,,,,1226.5811150750014,None,1226.7642288639981,1226.7811184050006,,,,,,,102,001,2023_May_18_1646,SpeechDraft1Carolyn_lessNoise_PlusLocalization,2021.2.3,60.02504364776404,
,,,,,,,,farRight,19.1,4,ch1Sound_localizationTask.wav,19.1,"(1237, 878)","(277,-202)",285,-338,,,,,,,,,,,,,7,4,53,6,,,,,,,,,,,,,,,,,,,,,,,,,,,,,,,,,,,,,,,,1229.3979984149992,None,,,1232.4141685400027,None,1.6603174603174602,1.1658398110012058,1232.4141685400027,None,,,,,,,1230.3977681890028,None,1230.581029011999,1230.5976174059979,,,,,,,102,001,2023_May_18_1646,SpeechDraft1Carolyn_lessNoise_PlusLocalization,2021.2.3,60.02504364776404,
,,,,,,,,farRight,19.1,4,ch1Sound_localizationTask.wav,19.1,"(1237, 878)","(277,-202)",285,-338,,,,,,,,,,,,,7,5,54,6,,,,,,,,,,,,,,,,,,,,,,,,,,,,,,,,,,,,,,,,1233.5809379700004,None,,,1236.5975105710022,None,1.6312169312169313,0.5993477119991439,1236.5975105710022,None,,,,,,,1234.5808912830034,None,1234.7643529550041,1234.7809109070004,,,,,,,102,001,2023_May_18_1646,SpeechDraft1Carolyn_lessNoise_PlusLocalization,2021.2.3,60.02504364776404,
,,,,,,,,midRight,13.0,3,ch1Sound_localizationTask.wav,13.0,"(1142, 878)","(182, -202)",190,-338,,,,,,,,,,,,,7,6,55,5,,,,,,,,,,,,,,,,,,,,,,,,,,,,,,,,,,,,,,,,1237.1978389430005,None,,,1240.2141612479973,None,1.5984126984126985,0.6987445679988014,1240.2141612479973,None,,,,,,,1238.1976446510016,None,1238.380916316004,1238.397716890002,,,,,,,102,001,2023_May_18_1646,SpeechDraft1Carolyn_lessNoise_PlusLocalization,2021.2.3,60.02504364776404,
,,,,,,,,,,,,,,,,,,,,,,,,,,,,,,,,,,,,,,,,,,,,,,,,,,,,,,,,,,,,,,,,,,,,,,,,,,,,,,,,,,,,,,,,,,,,1240.9144147390034,None,c,2538.8033197599943,1241.8976356400017,None,102,001,2023_May_18_1646,SpeechDraft1Carolyn_lessNoise_PlusLocalization,2021.2.3,60.02504364776404,
