{"meta_data":{"additional_headers":{},"game_name":"Recollect","version":"2.53.01","user_name":"102","organization":"braingamecenter","study":"mpl2_2022_11","session_number":0,"device_id":"74342D95-EE82-45E3-8ADF-48FB3203C5DD"},"data":[{"stage":"Practice","trial":0,"sequence":"6F","letter_input":"F","number_input":"6","is_correct":true,"presentation_start_time":1684449569814.87,"presentation_end_time":1684449572816.45,"response_time":1684449582445.74},{"stage":"Practice","trial":1,"sequence":"G4","letter_input":"G","number_input":"4","is_correct":true,"presentation_start_time":1684449583976.89,"presentation_end_time":1684449586978.53,"response_time":1684449592357.49},{"stage":"Practice","trial":2,"sequence":"3W5","letter_input":"W","number_input":"35","is_correct":true,"presentation_start_time":1684449593890.23,"presentation_end_time":1684449598391.52,"response_time":1684449603254.03},{"stage":"Practice","trial":3,"sequence":"T7L","letter_input":"LT","number_input":"7","is_correct":true,"presentation_start_time":1684449604786.74,"presentation_end_time":1684449609287.73,"response_time":1684449616716.1},{"stage":"Practice","trial":4,"sequence":"9J1","letter_input":"J","number_input":"19","is_correct":true,"presentation_start_time":1684449618248.92,"presentation_end_time":1684449622750.09,"response_time":1684449626363.03},{"stage":"Calibration","trial":0,"sequence":"7Z","letter_input":"Z","number_input":"7","is_correct":true,"presentation_start_time":1684449647189.32,"presentation_end_time":1684449650190.94,"response_time":1684449654603.67},{"stage":"Calibration","trial":1,"sequence":"N3","letter_input":"N","number_input":"3","is_correct":true,"presentation_start_time":1684449656136.37,"presentation_end_time":1684449659138.06,"response_time":1684449662984.26},{"stage":"Calibration","trial":2,"sequence":"8S2","letter_input":"S","number_input":"28","is_correct":true,"presentation_start_time":1684449664517.02,"presentation_end_time":1684449669018.03,"response_time":1684449673130.95},{"stage":"Calibration","trial":3,"sequence":"N9A","letter_input":"AN","number_input":"9","is_correct":true,"presentation_start_time":1684449674663.62,"presentation_end_time":1684449679164.74,"response_time":1684449683044.32},{"stage":"Calibration","trial":4,"sequence":"7K4G","letter_input":"GK","number_input":"47","is_correct":true,"presentation_start_time":1684449684577.02,"presentation_end_time":1684449690577.63,"response_time":1684449695257},{"stage":"Calibration","trial":5,"sequence":"E8A6","letter_input":"AE","number_input":"68","is_correct":true,"presentation_start_time":1684449696789.63,"presentation_end_time":1684449702790.38,"response_time":1684449707286.33},{"stage":"Calibration","trial":6,"sequence":"1R9P4","letter_input":"RP","number_input":"149","is_correct":false,"presentation_start_time":1684449708819.06,"presentation_end_time":1684449716319.22,"response_time":1684449730861.95},{"stage":"Calibration","trial":7,"sequence":"Z8H3E","letter_input":"EHZ","number_input":"38","is_correct":true,"presentation_start_time":1684449732394.53,"presentation_end_time":1684449739894.56,"response_time":1684449749489.07},{"stage":"Calibration","trial":8,"sequence":"4M2V9R","letter_input":"MRV","number_input":"249","is_correct":true,"presentation_start_time":1684449751021.8,"presentation_end_time":1684449760021.46,"response_time":1684449774214.28},{"stage":"Calibration","trial":9,"sequence":"G5D3T7","letter_input":"GDT","number_input":"357","is_correct":false,"presentation_start_time":1684449775746.9,"presentation_end_time":1684449784746.6,"response_time":1684449794690.89},{"stage":"Calibration","trial":10,"sequence":"6A4Q8J2","letter_input":"AJQ","number_input":"2468","is_correct":true,"presentation_start_time":1684449796223.45,"presentation_end_time":1684449806722.89,"response_time":1684449815867.15},{"stage":"Calibration","trial":11,"sequence":"V5P3L1D","letter_input":"DLPV","number_input":"135","is_correct":true,"presentation_start_time":1684449817399.9,"presentation_end_time":1684449827899.02,"response_time":1684449858019.94},{"stage":"Calibration","trial":12,"sequence":"7T4C9W2Q","letter_input":"CTWQ","number_input":"2479","is_correct":false,"presentation_start_time":1684449859552.67,"presentation_end_time":1684449871551.28,"response_time":1684449877913.31},{"stage":"Calibration","trial":13,"sequence":"E3K1H8S6","letter_input":"EHKW","number_input":"1368","is_correct":false,"presentation_start_time":1684449879446.01,"presentation_end_time":1684449891444.69,"response_time":1684449903088.43}]}