{"meta_data":{"additional_headers":{},"game_name":"Recollect","version":"2.53.01","user_name":"102","organization":"braingamecenter","study":"mpl2_2022_11","session_number":0,"device_id":"74342D95-EE82-45E3-8ADF-48FB3203C5DD"},"data":[{"trial":0,"action":1,"button_pressed":3,"time_out":false,"dwell_time":81.69580078125,"response_time":1684449247823},{"trial":0,"action":1,"button_pressed":2,"time_out":false,"dwell_time":81.494140625,"response_time":1684449248072.88},{"trial":0,"action":9,"button_pressed":-1,"time_out":false,"dwell_time":74.677001953125,"response_time":1684449248682.33},{"trial":1,"action":1,"button_pressed":1,"time_out":false,"dwell_time":80.328857421875,"response_time":1684449258268.98},{"trial":1,"action":1,"button_pressed":6,"time_out":false,"dwell_time":64.02001953125,"response_time":1684449258635.28},{"trial":1,"action":1,"button_pressed":8,"time_out":false,"dwell_time":81.406005859375,"response_time":1684449259119.24},{"trial":1,"action":9,"button_pressed":-1,"time_out":false,"dwell_time":64.7578125,"response_time":1684449260768.38},{"trial":2,"action":1,"button_pressed":10,"time_out":false,"dwell_time":63.527099609375,"response_time":1684449272630.83},{"trial":2,"action":1,"button_pressed":3,"time_out":false,"dwell_time":63.983154296875,"response_time":1684449272831.28},{"trial":2,"action":1,"button_pressed":6,"time_out":false,"dwell_time":63.2978515625,"response_time":1684449273130.56},{"trial":2,"action":1,"button_pressed":8,"time_out":false,"dwell_time":64.0810546875,"response_time":1684449273680.25},{"trial":2,"action":9,"button_pressed":-1,"time_out":false,"dwell_time":64.100830078125,"response_time":1684449274380.74},{"trial":3,"action":1,"button_pressed":2,"time_out":false,"dwell_time":81.0361328125,"response_time":1684449288925.53},{"trial":3,"action":1,"button_pressed":6,"time_out":false,"dwell_time":97.4208984375,"response_time":1684449289125.32},{"trial":3,"action":1,"button_pressed":7,"time_out":false,"dwell_time":80.823974609375,"response_time":1684449289392.65},{"trial":3,"action":1,"button_pressed":0,"time_out":false,"dwell_time":64.141845703125,"response_time":1684449289825.75},{"trial":3,"action":1,"button_pressed":8,"time_out":false,"dwell_time":47.72998046875,"response_time":1684449290208.59},{"trial":3,"action":9,"button_pressed":-1,"time_out":false,"dwell_time":81.327880859375,"response_time":1684449290941.83},{"trial":4,"action":1,"button_pressed":7,"time_out":false,"dwell_time":64.152099609375,"response_time":1684449307836.55},{"trial":4,"action":1,"button_pressed":3,"time_out":false,"dwell_time":47.128173828125,"response_time":1684449308285.96},{"trial":4,"action":1,"button_pressed":8,"time_out":false,"dwell_time":80.587158203125,"response_time":1684449308702.74},{"trial":4,"action":1,"button_pressed":0,"time_out":false,"dwell_time":64.77197265625,"response_time":1684449309152.53},{"trial":4,"action":1,"button_pressed":4,"time_out":false,"dwell_time":47.12890625,"response_time":1684449309385.66},{"trial":4,"action":1,"button_pressed":1,"time_out":false,"dwell_time":30.52294921875,"response_time":1684449309585.56},{"trial":4,"action":9,"button_pressed":-1,"time_out":false,"dwell_time":64.298095703125,"response_time":1684449310235.95},{"trial":5,"action":1,"button_pressed":7,"time_out":false,"dwell_time":98.419921875,"response_time":1684449329962.86},{"trial":5,"action":1,"button_pressed":11,"time_out":false,"dwell_time":80.556884765625,"response_time":1684449330245.68},{"trial":5,"action":1,"button_pressed":9,"time_out":false,"dwell_time":81.096923828125,"response_time":1684449330612.21},{"trial":5,"action":1,"button_pressed":0,"time_out":false,"dwell_time":98.14892578125,"response_time":1684449331078.82},{"trial":5,"action":1,"button_pressed":3,"time_out":false,"dwell_time":63.451904296875,"response_time":1684449331444.64},{"trial":5,"action":1,"button_pressed":5,"time_out":false,"dwell_time":63.48095703125,"response_time":1684449332710.91},{"trial":5,"action":1,"button_pressed":6,"time_out":false,"dwell_time":81.235107421875,"response_time":1684449333128.14},{"trial":5,"action":9,"button_pressed":-1,"time_out":false,"dwell_time":98.06103515625,"response_time":1684449333794.24},{"trial":6,"action":1,"button_pressed":5,"time_out":false,"dwell_time":64.512939453125,"response_time":1684449353655.17},{"trial":6,"action":1,"button_pressed":8,"time_out":false,"dwell_time":114.04296875,"response_time":1684449354554.36},{"trial":6,"action":0,"button_pressed":-1,"time_out":false,"dwell_time":98.3759765625,"response_time":1684449355487.71},{"trial":6,"action":1,"button_pressed":5,"time_out":false,"dwell_time":98.132080078125,"response_time":1684449356187.34},{"trial":6,"action":1,"button_pressed":3,"time_out":false,"dwell_time":80.045166015625,"response_time":1684449356669.72},{"trial":6,"action":1,"button_pressed":8,"time_out":false,"dwell_time":131.260986328125,"response_time":1684449357186.87},{"trial":6,"action":1,"button_pressed":11,"time_out":false,"dwell_time":96.64990234375,"response_time":1684449357786.02},{"trial":6,"action":1,"button_pressed":7,"time_out":false,"dwell_time":98.064208984375,"response_time":1684449358186.47},{"trial":6,"action":1,"button_pressed":4,"time_out":false,"dwell_time":63.24609375,"response_time":1684449358735.55},{"trial":6,"action":1,"button_pressed":10,"time_out":false,"dwell_time":64.403076171875,"response_time":1684449359119.45},{"trial":6,"action":9,"button_pressed":-1,"time_out":false,"dwell_time":65.156005859375,"response_time":1684449359803.02},{"trial":7,"action":1,"button_pressed":10,"time_out":false,"dwell_time":81.531005859375,"response_time":1684449382412.26},{"trial":7,"action":1,"button_pressed":2,"time_out":false,"dwell_time":97.5869140625,"response_time":1684449382945.27},{"trial":7,"action":1,"button_pressed":1,"time_out":false,"dwell_time":114.01513671875,"response_time":1684449383560.92},{"trial":7,"action":1,"button_pressed":9,"time_out":false,"dwell_time":97.156982421875,"response_time":1684449384061.38},{"trial":7,"action":1,"button_pressed":8,"time_out":false,"dwell_time":147.81201171875,"response_time":1684449384577.78},{"trial":7,"action":1,"button_pressed":11,"time_out":false,"dwell_time":81.285888671875,"response_time":1684449385177.68},{"trial":7,"action":1,"button_pressed":4,"time_out":false,"dwell_time":98.114990234375,"response_time":1684449385760.82},{"trial":7,"action":1,"button_pressed":5,"time_out":false,"dwell_time":97.175048828125,"response_time":1684449386177.35},{"trial":7,"action":9,"button_pressed":-1,"time_out":false,"dwell_time":49.8720703125,"response_time":1684449386829.13},{"trial":8,"action":1,"button_pressed":11,"time_out":false,"dwell_time":63.90283203125,"response_time":1684449412252.2},{"trial":8,"action":1,"button_pressed":9,"time_out":false,"dwell_time":63.863037109375,"response_time":1684449412635.35},{"trial":8,"action":1,"button_pressed":2,"time_out":false,"dwell_time":80.152099609375,"response_time":1684449413601.13},{"trial":8,"action":1,"button_pressed":0,"time_out":false,"dwell_time":64.85107421875,"response_time":1684449413951.57},{"trial":8,"action":1,"button_pressed":7,"time_out":false,"dwell_time":113.873046875,"response_time":1684449414467.83},{"trial":8,"action":1,"button_pressed":8,"time_out":false,"dwell_time":97.9541015625,"response_time":1684449415167.75},{"trial":8,"action":1,"button_pressed":1,"time_out":false,"dwell_time":63.923095703125,"response_time":1684449415684.22},{"trial":8,"action":1,"button_pressed":10,"time_out":false,"dwell_time":81.412109375,"response_time":1684449416300.67},{"trial":8,"action":9,"button_pressed":-1,"time_out":false,"dwell_time":64.927978515625,"response_time":1684449417017.21},{"trial":9,"action":1,"button_pressed":10,"time_out":false,"dwell_time":64.075927734375,"response_time":1684449442408.25},{"trial":9,"action":1,"button_pressed":8,"time_out":false,"dwell_time":96.317138671875,"response_time":1684449442924.66},{"trial":9,"action":1,"button_pressed":1,"time_out":false,"dwell_time":197.7861328125,"response_time":1684449445107.8},{"trial":9,"action":1,"button_pressed":9,"time_out":false,"dwell_time":63.427001953125,"response_time":1684449446173.61},{"trial":9,"action":1,"button_pressed":0,"time_out":false,"dwell_time":163.31298828125,"response_time":1684449446773.4},{"trial":9,"action":1,"button_pressed":2,"time_out":false,"dwell_time":147.492919921875,"response_time":1684449447473.99},{"trial":9,"action":1,"button_pressed":4,"time_out":false,"dwell_time":114.60595703125,"response_time":1684449447840.04},{"trial":9,"action":1,"button_pressed":7,"time_out":false,"dwell_time":80.18798828125,"response_time":1684449448223.01},{"trial":9,"action":9,"button_pressed":-1,"time_out":false,"dwell_time":98.611083984375,"response_time":1684449449357.11},{"trial":10,"action":1,"button_pressed":0,"time_out":false,"dwell_time":80.06396484375,"response_time":1684449470948.82},{"trial":10,"action":1,"button_pressed":8,"time_out":false,"dwell_time":63.787109375,"response_time":1684449471198.56},{"trial":10,"action":1,"button_pressed":5,"time_out":false,"dwell_time":80.80712890625,"response_time":1684449471832.64},{"trial":10,"action":1,"button_pressed":6,"time_out":false,"dwell_time":63.4130859375,"response_time":1684449472131.88},{"trial":10,"action":1,"button_pressed":10,"time_out":false,"dwell_time":63.859130859375,"response_time":1684449472882.05},{"trial":10,"action":1,"button_pressed":2,"time_out":false,"dwell_time":80.76806640625,"response_time":1684449473215.4},{"trial":10,"action":1,"button_pressed":9,"time_out":false,"dwell_time":63.177001953125,"response_time":1684449473481.38},{"trial":10,"action":9,"button_pressed":-1,"time_out":false,"dwell_time":48.296142578125,"response_time":1684449474065.29},{"trial":11,"action":1,"button_pressed":11,"time_out":false,"dwell_time":63.196044921875,"response_time":1684449497073.64},{"trial":11,"action":1,"button_pressed":3,"time_out":false,"dwell_time":81.497802734375,"response_time":1684449497557.3},{"trial":11,"action":1,"button_pressed":9,"time_out":false,"dwell_time":30.934814453125,"response_time":1684449497907.56},{"trial":11,"action":1,"button_pressed":7,"time_out":false,"dwell_time":80.453857421875,"response_time":1684449498307.03},{"trial":11,"action":1,"button_pressed":2,"time_out":false,"dwell_time":80.699951171875,"response_time":1684449499090.11},{"trial":11,"action":1,"button_pressed":10,"time_out":false,"dwell_time":96.751953125,"response_time":1684449499539.74},{"trial":11,"action":1,"button_pressed":1,"time_out":false,"dwell_time":64.704833984375,"response_time":1684449500173.16},{"trial":11,"action":1,"button_pressed":6,"time_out":false,"dwell_time":63.16015625,"response_time":1684449501505.3},{"trial":11,"action":9,"button_pressed":-1,"time_out":false,"dwell_time":81.8408203125,"response_time":1684449502139.53},{"trial":12,"action":1,"button_pressed":3,"time_out":false,"dwell_time":114.0849609375,"response_time":1684449528346.45},{"trial":12,"action":1,"button_pressed":8,"time_out":false,"dwell_time":147.3828125,"response_time":1684449529546.53},{"trial":12,"action":1,"button_pressed":6,"time_out":false,"dwell_time":63.094970703125,"response_time":1684449530095.88},{"trial":12,"action":1,"button_pressed":5,"time_out":false,"dwell_time":181.52294921875,"response_time":1684449530979.81},{"trial":12,"action":1,"button_pressed":7,"time_out":false,"dwell_time":129.949951171875,"response_time":1684449532178.67},{"trial":12,"action":1,"button_pressed":0,"time_out":false,"dwell_time":80.56298828125,"response_time":1684449533262.29},{"trial":12,"action":1,"button_pressed":9,"time_out":false,"dwell_time":63.0087890625,"response_time":1684449533861.35},{"trial":12,"action":1,"button_pressed":4,"time_out":false,"dwell_time":47.032958984375,"response_time":1684449534211.54},{"trial":12,"action":9,"button_pressed":-1,"time_out":false,"dwell_time":131.23095703125,"response_time":1684449535811.75}]}