{"meta_data":{"additional_headers":{},"game_name":"Recollect","version":"2.53.01","user_name":"103","organization":"braingamecenter","study":"mpl2_2022_11","session_number":0,"device_id":"74342D95-EE82-45E3-8ADF-48FB3203C5DD"},"data":[{"trial":0,"action":1,"button_pressed":4,"time_out":false,"dwell_time":31.668212890625,"response_time":1684859921223.31},{"trial":0,"action":1,"button_pressed":11,"time_out":false,"dwell_time":80.012939453125,"response_time":1684859921788.86},{"trial":0,"action":9,"button_pressed":-1,"time_out":false,"dwell_time":75.22119140625,"response_time":1684859922433.11},{"trial":1,"action":1,"button_pressed":10,"time_out":false,"dwell_time":63.73193359375,"response_time":1684859932169.5},{"trial":1,"action":1,"button_pressed":0,"time_out":false,"dwell_time":80.571044921875,"response_time":1684859932702.57},{"trial":1,"action":1,"button_pressed":6,"time_out":false,"dwell_time":97.293212890625,"response_time":1684859933185},{"trial":1,"action":9,"button_pressed":-1,"time_out":false,"dwell_time":82.052978515625,"response_time":1684859934269.21},{"trial":2,"action":1,"button_pressed":8,"time_out":false,"dwell_time":98.164794921875,"response_time":1684859945997.96},{"trial":2,"action":1,"button_pressed":1,"time_out":false,"dwell_time":81.0419921875,"response_time":1684859947131.05},{"trial":2,"action":1,"button_pressed":3,"time_out":false,"dwell_time":98.156982421875,"response_time":1684859947480.77},{"trial":2,"action":1,"button_pressed":11,"time_out":false,"dwell_time":80.126953125,"response_time":1684859948029.96},{"trial":2,"action":9,"button_pressed":-1,"time_out":false,"dwell_time":81.33203125,"response_time":1684859948796.76},{"trial":3,"action":1,"button_pressed":6,"time_out":false,"dwell_time":64.01318359375,"response_time":1684859963125.55},{"trial":3,"action":1,"button_pressed":3,"time_out":false,"dwell_time":64.22412109375,"response_time":1684859963474.67},{"trial":3,"action":1,"button_pressed":8,"time_out":false,"dwell_time":81.40087890625,"response_time":1684859964041.88},{"trial":3,"action":1,"button_pressed":11,"time_out":false,"dwell_time":79.9951171875,"response_time":1684859964707.41},{"trial":3,"action":1,"button_pressed":0,"time_out":false,"dwell_time":81.1669921875,"response_time":1684859965340.73},{"trial":3,"action":9,"button_pressed":-1,"time_out":false,"dwell_time":81.844970703125,"response_time":1684859965741.6},{"trial":4,"action":1,"button_pressed":4,"time_out":false,"dwell_time":47.35302734375,"response_time":1684859982551.94},{"trial":4,"action":1,"button_pressed":0,"time_out":false,"dwell_time":63.34814453125,"response_time":1684859982884.53},{"trial":4,"action":1,"button_pressed":11,"time_out":false,"dwell_time":80.836181640625,"response_time":1684859983301.22},{"trial":4,"action":1,"button_pressed":7,"time_out":false,"dwell_time":63.885986328125,"response_time":1684859983651.65},{"trial":4,"action":1,"button_pressed":7,"time_out":false,"dwell_time":80.27978515625,"response_time":1684859984917.85},{"trial":4,"action":1,"button_pressed":5,"time_out":false,"dwell_time":63.55322265625,"response_time":1684859987000.47},{"trial":4,"action":9,"button_pressed":-1,"time_out":false,"dwell_time":16.86181640625,"response_time":1684859987833.25},{"trial":5,"action":1,"button_pressed":9,"time_out":false,"dwell_time":80.903076171875,"response_time":1684860005294.57},{"trial":5,"action":1,"button_pressed":1,"time_out":false,"dwell_time":80.64404296875,"response_time":1684860005910.14},{"trial":5,"action":1,"button_pressed":2,"time_out":false,"dwell_time":80.68505859375,"response_time":1684860006559.77},{"trial":5,"action":1,"button_pressed":8,"time_out":false,"dwell_time":80.98095703125,"response_time":1684860007126.46},{"trial":5,"action":1,"button_pressed":6,"time_out":false,"dwell_time":80.617919921875,"response_time":1684860007710.09},{"trial":5,"action":1,"button_pressed":11,"time_out":false,"dwell_time":81.39794921875,"response_time":1684860008159.96},{"trial":5,"action":9,"button_pressed":-1,"time_out":false,"dwell_time":63.81884765625,"response_time":1684860009709.05},{"trial":6,"action":1,"button_pressed":0,"time_out":false,"dwell_time":47.421142578125,"response_time":1684860029186.02},{"trial":6,"action":1,"button_pressed":8,"time_out":false,"dwell_time":64.048095703125,"response_time":1684860029619.46},{"trial":6,"action":1,"button_pressed":2,"time_out":false,"dwell_time":80.85595703125,"response_time":1684860030668.92},{"trial":6,"action":1,"button_pressed":5,"time_out":false,"dwell_time":80.296875,"response_time":1684860031334.79},{"trial":6,"action":1,"button_pressed":3,"time_out":false,"dwell_time":80.023193359375,"response_time":1684860032634.34},{"trial":6,"action":1,"button_pressed":4,"time_out":false,"dwell_time":97.4111328125,"response_time":1684860032917.41},{"trial":6,"action":1,"button_pressed":9,"time_out":false,"dwell_time":63.198974609375,"response_time":1684860033250.63},{"trial":6,"action":9,"button_pressed":-1,"time_out":false,"dwell_time":81.572998046875,"response_time":1684860034584.13},{"trial":7,"action":1,"button_pressed":6,"time_out":false,"dwell_time":63.56982421875,"response_time":1684860054077.07},{"trial":7,"action":1,"button_pressed":10,"time_out":false,"dwell_time":63.921142578125,"response_time":1684860054244.17},{"trial":7,"action":1,"button_pressed":11,"time_out":false,"dwell_time":64.16796875,"response_time":1684860054510.09},{"trial":7,"action":1,"button_pressed":5,"time_out":false,"dwell_time":114.19287109375,"response_time":1684860055760.43},{"trial":7,"action":1,"button_pressed":2,"time_out":false,"dwell_time":98.260986328125,"response_time":1684860056310.24},{"trial":7,"action":1,"button_pressed":4,"time_out":false,"dwell_time":64.490234375,"response_time":1684860057009.11},{"trial":7,"action":1,"button_pressed":7,"time_out":false,"dwell_time":97.323974609375,"response_time":1684860057342.42},{"trial":7,"action":9,"button_pressed":-1,"time_out":false,"dwell_time":65.386962890625,"response_time":1684860058059.94},{"trial":8,"action":1,"button_pressed":10,"time_out":false,"dwell_time":63.925048828125,"response_time":1684860072837.85},{"trial":8,"action":1,"button_pressed":5,"time_out":false,"dwell_time":64.6650390625,"response_time":1684860073187.52},{"trial":8,"action":1,"button_pressed":3,"time_out":false,"dwell_time":64.342041015625,"response_time":1684860073587.73},{"trial":8,"action":1,"button_pressed":6,"time_out":false,"dwell_time":64.578125,"response_time":1684860073787.39},{"trial":8,"action":1,"button_pressed":2,"time_out":false,"dwell_time":63.593017578125,"response_time":1684860074203.65},{"trial":8,"action":9,"button_pressed":-1,"time_out":false,"dwell_time":81.69091796875,"response_time":1684860075270.91},{"trial":9,"action":1,"button_pressed":4,"time_out":false,"dwell_time":98.490966796875,"response_time":1684860092481.23},{"trial":9,"action":1,"button_pressed":11,"time_out":false,"dwell_time":63.387939453125,"response_time":1684860092796.79},{"trial":9,"action":1,"button_pressed":3,"time_out":false,"dwell_time":98.0869140625,"response_time":1684860093214.14},{"trial":9,"action":1,"button_pressed":2,"time_out":false,"dwell_time":47.823974609375,"response_time":1684860093613.71},{"trial":9,"action":1,"button_pressed":10,"time_out":false,"dwell_time":80.468994140625,"response_time":1684860094063.15},{"trial":9,"action":1,"button_pressed":6,"time_out":false,"dwell_time":47.079833984375,"response_time":1684860094513.43},{"trial":9,"action":9,"button_pressed":-1,"time_out":false,"dwell_time":81.449951171875,"response_time":1684860096346.83},{"trial":10,"action":1,"button_pressed":10,"time_out":false,"dwell_time":81.116943359375,"response_time":1684860115739.07},{"trial":10,"action":1,"button_pressed":1,"time_out":false,"dwell_time":47.926025390625,"response_time":1684860116373.46},{"trial":10,"action":1,"button_pressed":2,"time_out":false,"dwell_time":30.35302734375,"response_time":1684860116972.65},{"trial":10,"action":1,"button_pressed":7,"time_out":false,"dwell_time":47.2080078125,"response_time":1684860118055.49},{"trial":10,"action":1,"button_pressed":6,"time_out":false,"dwell_time":47.877197265625,"response_time":1684860118338.73},{"trial":10,"action":1,"button_pressed":3,"time_out":false,"dwell_time":64.10986328125,"response_time":1684860118688.91},{"trial":10,"action":1,"button_pressed":0,"time_out":false,"dwell_time":65.14306640625,"response_time":1684860119069.93},{"trial":10,"action":9,"button_pressed":-1,"time_out":false,"dwell_time":82.43701171875,"response_time":1684860120255.81},{"trial":11,"action":1,"button_pressed":7,"time_out":false,"dwell_time":65,"response_time":1684860139981.45},{"trial":11,"action":1,"button_pressed":11,"time_out":false,"dwell_time":63.39306640625,"response_time":1684860140230.58},{"trial":11,"action":1,"button_pressed":4,"time_out":false,"dwell_time":30.281982421875,"response_time":1684860141064.13},{"trial":11,"action":1,"button_pressed":0,"time_out":false,"dwell_time":63.8671875,"response_time":1684860142080.6},{"trial":11,"action":1,"button_pressed":5,"time_out":false,"dwell_time":80.591064453125,"response_time":1684860142863.89},{"trial":11,"action":1,"button_pressed":3,"time_out":false,"dwell_time":64.131103515625,"response_time":1684860143329.47},{"trial":11,"action":1,"button_pressed":6,"time_out":false,"dwell_time":64.231201171875,"response_time":1684860143613.13},{"trial":11,"action":9,"button_pressed":-1,"time_out":false,"dwell_time":82.31201171875,"response_time":1684860144164.06}]}