{"meta_data":{"additional_headers":{},"game_name":"Recollect","version":"2.53.01","user_name":"103","organization":"braingamecenter","study":"mpl2_2022_11","session_number":0,"device_id":"74342D95-EE82-45E3-8ADF-48FB3203C5DD"},"data":[{"stage":"Practice","trial":0,"sequence":"6F","letter_input":"F","number_input":"6","is_correct":true,"presentation_start_time":1684860174767.63,"presentation_end_time":1684860177769.17,"response_time":1684860185883.71},{"stage":"Practice","trial":1,"sequence":"G4","letter_input":"G","number_input":"4","is_correct":true,"presentation_start_time":1684860187413.35,"presentation_end_time":1684860190414.89,"response_time":1684860195827.18},{"stage":"Practice","trial":2,"sequence":"3W5","letter_input":"W","number_input":"35","is_correct":true,"presentation_start_time":1684860197359.92,"presentation_end_time":1684860201860.89,"response_time":1684860208306.22},{"stage":"Practice","trial":3,"sequence":"T7L","letter_input":"LT","number_input":"7","is_correct":true,"presentation_start_time":1684860209838.84,"presentation_end_time":1684860214340.05,"response_time":1684860224384},{"stage":"Practice","trial":4,"sequence":"9J1","letter_input":"J","number_input":"9","is_correct":false,"presentation_start_time":1684860225916.7,"presentation_end_time":1684860230417.65,"response_time":1684860244577.01},{"stage":"Calibration","trial":0,"sequence":"9T","letter_input":"T","number_input":"9","is_correct":true,"presentation_start_time":1684860251141.33,"presentation_end_time":1684860254143.1,"response_time":1684860258738.86},{"stage":"Calibration","trial":1,"sequence":"A7","letter_input":"A","number_input":"7","is_correct":true,"presentation_start_time":1684860260271.63,"presentation_end_time":1684860263273.28,"response_time":1684860267619.12},{"stage":"Calibration","trial":2,"sequence":"9E5","letter_input":"E","number_input":"59","is_correct":true,"presentation_start_time":1684860269151.79,"presentation_end_time":1684860273652.91,"response_time":1684860285579.65},{"stage":"Calibration","trial":3,"sequence":"Z1P","letter_input":"PZ","number_input":"1","is_correct":true,"presentation_start_time":1684860287112.35,"presentation_end_time":1684860291613.49,"response_time":1684860300341.21},{"stage":"Calibration","trial":4,"sequence":"8M5B","letter_input":"BM","number_input":"58","is_correct":true,"presentation_start_time":1684860301873.96,"presentation_end_time":1684860307874.68,"response_time":1684860319418.2},{"stage":"Calibration","trial":5,"sequence":"V9E1","letter_input":"EV","number_input":"19","is_correct":true,"presentation_start_time":1684860320950.67,"presentation_end_time":1684860326951.36,"response_time":1684860337828.47},{"stage":"Calibration","trial":6,"sequence":"2Y8J4","letter_input":"VW","number_input":"48","is_correct":false,"presentation_start_time":1684860339361.04,"presentation_end_time":1684860346861.25,"response_time":1684860358221.37},{"stage":"Calibration","trial":7,"sequence":"Z7T5K","letter_input":"KTZ","number_input":"57","is_correct":true,"presentation_start_time":1684860359754.12,"presentation_end_time":1684860367254.22,"response_time":1684860397724.61},{"stage":"Calibration","trial":8,"sequence":"4R1N9W","letter_input":"TK","number_input":"149","is_correct":false,"presentation_start_time":1684860399257.2,"presentation_end_time":1684860408256.89,"response_time":1684860416101.51},{"stage":"Calibration","trial":9,"sequence":"B7J5E2","letter_input":"J","number_input":"5257","is_correct":false,"presentation_start_time":1684860417634.23,"presentation_end_time":1684860426633.79,"response_time":1684860449090.18}]}