{"meta_data":{"additional_headers":{},"game_name":"Recollect","version":"2.53.01","user_name":"104","organization":"braingamecenter","study":"mpl2_2022_11","session_number":0,"device_id":"74342D95-EE82-45E3-8ADF-48FB3203C5DD"},"data":[{"stage":"Practice","trial":0,"sequence":"6F","letter_input":"F","number_input":"6","is_correct":true,"presentation_start_time":1684883237935.93,"presentation_end_time":1684883240937.64,"response_time":1684883249350.74},{"stage":"Practice","trial":1,"sequence":"G4","letter_input":"G","number_input":"4","is_correct":true,"presentation_start_time":1684883250881.8,"presentation_end_time":1684883253883.5,"response_time":1684883261095.26},{"stage":"Practice","trial":2,"sequence":"3W5","letter_input":"G","number_input":"3","is_correct":false,"presentation_start_time":1684883262627.97,"presentation_end_time":1684883267129.23,"response_time":1684883272858.19},{"stage":"Practice","trial":3,"sequence":"T7L","letter_input":"TL","number_input":"7","is_correct":false,"presentation_start_time":1684883275890.46,"presentation_end_time":1684883280391.57,"response_time":1684883288553.14},{"stage":"Practice","trial":4,"sequence":"9J1","letter_input":"J","number_input":"91","is_correct":false,"presentation_start_time":1684883291585.38,"presentation_end_time":1684883296086.71,"response_time":1684883303748.24},{"stage":"Practice","trial":0,"sequence":"6F","letter_input":"F","number_input":"6","is_correct":true,"presentation_start_time":1684883318443.4,"presentation_end_time":1684883321445.23,"response_time":1684883327990.56},{"stage":"Practice","trial":1,"sequence":"G4","letter_input":"G","number_input":"4","is_correct":true,"presentation_start_time":1684883329523.23,"presentation_end_time":1684883332524.91,"response_time":1684883338603.66},{"stage":"Practice","trial":2,"sequence":"3W5","letter_input":"W","number_input":"3","is_correct":false,"presentation_start_time":1684883340136.44,"presentation_end_time":1684883344637.68,"response_time":1684883351499.56},{"stage":"Practice","trial":3,"sequence":"T7L","letter_input":"TL","number_input":"7","is_correct":false,"presentation_start_time":1684883354531.81,"presentation_end_time":1684883359033.09,"response_time":1684883367444.42},{"stage":"Practice","trial":4,"sequence":"9J1","letter_input":"G","number_input":"9","is_correct":false,"presentation_start_time":1684883370476.69,"presentation_end_time":1684883374977.96,"response_time":1684883381739.92},{"stage":"Calibration","trial":0,"sequence":"R1","letter_input":"R","number_input":"1","is_correct":true,"presentation_start_time":1684883388121.06,"presentation_end_time":1684883391122.78,"response_time":1684883396718.31},{"stage":"Calibration","trial":1,"sequence":"6M","letter_input":"M","number_input":"6","is_correct":true,"presentation_start_time":1684883398251.03,"presentation_end_time":1684883401252.81,"response_time":1684883405832.09},{"stage":"Calibration","trial":2,"sequence":"L5G","letter_input":"LG","number_input":"5","is_correct":false,"presentation_start_time":1684883407364.91,"presentation_end_time":1684883411866,"response_time":1684883418211.36},{"stage":"Calibration","trial":3,"sequence":"4D1","letter_input":"D","number_input":"41","is_correct":false,"presentation_start_time":1684883419744.22,"presentation_end_time":1684883424245.38,"response_time":1684883430957.4},{"stage":"Calibration","trial":4,"sequence":"Q8E6","letter_input":"QE","number_input":"86","is_correct":false,"presentation_start_time":1684883432490.08,"presentation_end_time":1684883438490.89,"response_time":1684883450067.9},{"stage":"Calibration","trial":5,"sequence":"4Z2S","letter_input":"Z","number_input":"42","is_correct":false,"presentation_start_time":1684883451600.69,"presentation_end_time":1684883457601.36,"response_time":1684883465979.47}]}