{"meta_data":{"additional_headers":{},"game_name":"Recollect","version":"2.53.01","user_name":"106","organization":"braingamecenter","study":"mpl2_2022_11","session_number":0,"device_id":"74342D95-EE82-45E3-8ADF-48FB3203C5DD"},"data":[{"trial":0,"action":1,"button_pressed":6,"time_out":false,"dwell_time":47.818115234375,"response_time":1685045053427.88},{"trial":0,"action":1,"button_pressed":10,"time_out":false,"dwell_time":47.97119140625,"response_time":1685045053911.11},{"trial":0,"action":9,"button_pressed":-1,"time_out":false,"dwell_time":43.468017578125,"response_time":1685045054705.5},{"trial":1,"action":1,"button_pressed":9,"time_out":false,"dwell_time":30.679931640625,"response_time":1685045064190.4},{"trial":1,"action":1,"button_pressed":1,"time_out":false,"dwell_time":47.97412109375,"response_time":1685045064707.47},{"trial":1,"action":1,"button_pressed":3,"time_out":false,"dwell_time":48.673828125,"response_time":1685045065124.03},{"trial":1,"action":9,"button_pressed":-1,"time_out":false,"dwell_time":81.23193359375,"response_time":1685045065806.37},{"trial":2,"action":1,"button_pressed":4,"time_out":false,"dwell_time":47.31201171875,"response_time":1685045077652.69},{"trial":2,"action":1,"button_pressed":2,"time_out":false,"dwell_time":81.447998046875,"response_time":1685045078419.22},{"trial":2,"action":1,"button_pressed":7,"time_out":false,"dwell_time":63.219970703125,"response_time":1685045079201.58},{"trial":2,"action":1,"button_pressed":3,"time_out":false,"dwell_time":64.699951171875,"response_time":1685045079785.38},{"trial":2,"action":9,"button_pressed":-1,"time_out":false,"dwell_time":48.415771484375,"response_time":1685045080468.76},{"trial":3,"action":1,"button_pressed":1,"time_out":false,"dwell_time":31.06005859375,"response_time":1685045095063.69},{"trial":3,"action":1,"button_pressed":10,"time_out":false,"dwell_time":64.171875,"response_time":1685045095446.65},{"trial":3,"action":1,"button_pressed":0,"time_out":false,"dwell_time":80.886962890625,"response_time":1685045095880.29},{"trial":3,"action":1,"button_pressed":9,"time_out":false,"dwell_time":63.92919921875,"response_time":1685045096262.75},{"trial":3,"action":1,"button_pressed":5,"time_out":false,"dwell_time":47.890869140625,"response_time":1685045096630.52},{"trial":3,"action":9,"button_pressed":-1,"time_out":false,"dwell_time":82.152099609375,"response_time":1685045098463.31},{"trial":4,"action":1,"button_pressed":4,"time_out":false,"dwell_time":81.80810546875,"response_time":1685045115307.42},{"trial":4,"action":1,"button_pressed":11,"time_out":false,"dwell_time":64.77099609375,"response_time":1685045115740.39},{"trial":4,"action":1,"button_pressed":3,"time_out":false,"dwell_time":64.0380859375,"response_time":1685045116223.57},{"trial":4,"action":1,"button_pressed":2,"time_out":false,"dwell_time":48.619140625,"response_time":1685045116624.01},{"trial":4,"action":1,"button_pressed":10,"time_out":false,"dwell_time":64.683837890625,"response_time":1685045117056.66},{"trial":4,"action":1,"button_pressed":6,"time_out":false,"dwell_time":80.842041015625,"response_time":1685045117456.27},{"trial":4,"action":9,"button_pressed":-1,"time_out":false,"dwell_time":81.887939453125,"response_time":1685045118390.04},{"trial":5,"action":1,"button_pressed":3,"time_out":false,"dwell_time":64.44580078125,"response_time":1685045138366.5},{"trial":5,"action":1,"button_pressed":0,"time_out":false,"dwell_time":63.431884765625,"response_time":1685045138698.91},{"trial":5,"action":1,"button_pressed":5,"time_out":false,"dwell_time":47.2470703125,"response_time":1685045139032.65},{"trial":5,"action":1,"button_pressed":10,"time_out":false,"dwell_time":30.291015625,"response_time":1685045139382.49},{"trial":5,"action":1,"button_pressed":4,"time_out":false,"dwell_time":47.73193359375,"response_time":1685045139799.85},{"trial":5,"action":1,"button_pressed":1,"time_out":false,"dwell_time":64.7421875,"response_time":1685045140215.83},{"trial":5,"action":1,"button_pressed":2,"time_out":false,"dwell_time":47.844970703125,"response_time":1685045140598.79},{"trial":5,"action":9,"button_pressed":-1,"time_out":false,"dwell_time":48.5869140625,"response_time":1685045141182.47},{"trial":6,"action":1,"button_pressed":7,"time_out":false,"dwell_time":81.760986328125,"response_time":1685045161142.74},{"trial":6,"action":0,"button_pressed":-1,"time_out":false,"dwell_time":48.27001953125,"response_time":1685045163059.19},{"trial":6,"action":1,"button_pressed":9,"time_out":false,"dwell_time":64.027099609375,"response_time":1685045163657.54},{"trial":6,"action":1,"button_pressed":7,"time_out":false,"dwell_time":47.06591796875,"response_time":1685045164074.52},{"trial":6,"action":1,"button_pressed":4,"time_out":false,"dwell_time":47.173095703125,"response_time":1685045164507.77},{"trial":6,"action":1,"button_pressed":1,"time_out":false,"dwell_time":48.077880859375,"response_time":1685045164924.37},{"trial":6,"action":1,"button_pressed":11,"time_out":false,"dwell_time":30.487060546875,"response_time":1685045165307.45},{"trial":6,"action":1,"button_pressed":3,"time_out":false,"dwell_time":64.718994140625,"response_time":1685045165774.12},{"trial":6,"action":1,"button_pressed":8,"time_out":false,"dwell_time":64.692138671875,"response_time":1685045166873.84},{"trial":6,"action":9,"button_pressed":-1,"time_out":false,"dwell_time":97.85595703125,"response_time":1685045167524.2},{"trial":7,"action":1,"button_pressed":11,"time_out":false,"dwell_time":81.079833984375,"response_time":1685045182484.92},{"trial":7,"action":1,"button_pressed":1,"time_out":false,"dwell_time":63.964111328125,"response_time":1685045182935.18},{"trial":7,"action":1,"button_pressed":9,"time_out":false,"dwell_time":47.116943359375,"response_time":1685045183251.65},{"trial":7,"action":1,"button_pressed":7,"time_out":false,"dwell_time":64.322998046875,"response_time":1685045183568.12},{"trial":7,"action":1,"button_pressed":4,"time_out":false,"dwell_time":46.754150390625,"response_time":1685045184001.2},{"trial":7,"action":9,"button_pressed":-1,"time_out":false,"dwell_time":64.52587890625,"response_time":1685045184635.17},{"trial":8,"action":1,"button_pressed":9,"time_out":false,"dwell_time":63.4150390625,"response_time":1685045201845.36},{"trial":8,"action":1,"button_pressed":1,"time_out":false,"dwell_time":64.85205078125,"response_time":1685045202295.88},{"trial":8,"action":1,"button_pressed":2,"time_out":false,"dwell_time":63.27587890625,"response_time":1685045203011.5},{"trial":8,"action":1,"button_pressed":8,"time_out":false,"dwell_time":64.10302734375,"response_time":1685045203961.27},{"trial":8,"action":1,"button_pressed":6,"time_out":false,"dwell_time":63.9501953125,"response_time":1685045204411.8},{"trial":8,"action":1,"button_pressed":11,"time_out":false,"dwell_time":47.779052734375,"response_time":1685045204628.18},{"trial":8,"action":9,"button_pressed":-1,"time_out":false,"dwell_time":64.572998046875,"response_time":1685045205278.53},{"trial":9,"action":1,"button_pressed":11,"time_out":false,"dwell_time":81.14599609375,"response_time":1685045225855.11},{"trial":9,"action":1,"button_pressed":4,"time_out":false,"dwell_time":98.150146484375,"response_time":1685045226254.61},{"trial":9,"action":1,"button_pressed":3,"time_out":false,"dwell_time":47.236083984375,"response_time":1685045226487.6},{"trial":9,"action":1,"button_pressed":10,"time_out":false,"dwell_time":48.161865234375,"response_time":1685045227304.32},{"trial":9,"action":1,"button_pressed":2,"time_out":false,"dwell_time":47.875,"response_time":1685045227654.66},{"trial":9,"action":1,"button_pressed":1,"time_out":false,"dwell_time":47.7060546875,"response_time":1685045228304.33},{"trial":9,"action":1,"button_pressed":8,"time_out":false,"dwell_time":63.25,"response_time":1685045229786.07},{"trial":9,"action":0,"button_pressed":-1,"time_out":false,"dwell_time":81.06396484375,"response_time":1685045232519.27},{"trial":9,"action":1,"button_pressed":11,"time_out":false,"dwell_time":47.846923828125,"response_time":1685045233286.25},{"trial":9,"action":1,"button_pressed":4,"time_out":false,"dwell_time":47.214111328125,"response_time":1685045234068.53},{"trial":9,"action":1,"button_pressed":3,"time_out":false,"dwell_time":64.036865234375,"response_time":1685045235034.4},{"trial":9,"action":1,"button_pressed":10,"time_out":false,"dwell_time":63.885009765625,"response_time":1685045236301.26},{"trial":9,"action":1,"button_pressed":2,"time_out":false,"dwell_time":64.77294921875,"response_time":1685045237051.03},{"trial":9,"action":1,"button_pressed":8,"time_out":false,"dwell_time":64.564208984375,"response_time":1685045237400.87},{"trial":9,"action":1,"button_pressed":1,"time_out":false,"dwell_time":81.47705078125,"response_time":1685045237834.22},{"trial":9,"action":9,"button_pressed":-1,"time_out":false,"dwell_time":82.177001953125,"response_time":1685045238851.06},{"trial":10,"action":1,"button_pressed":7,"time_out":false,"dwell_time":81.65185546875,"response_time":1685045261743.21},{"trial":10,"action":1,"button_pressed":5,"time_out":false,"dwell_time":47.906982421875,"response_time":1685045262060.11},{"trial":10,"action":1,"button_pressed":3,"time_out":false,"dwell_time":64.798828125,"response_time":1685045262442.91},{"trial":10,"action":1,"button_pressed":4,"time_out":false,"dwell_time":63.366943359375,"response_time":1685045262825.36},{"trial":10,"action":1,"button_pressed":1,"time_out":false,"dwell_time":48.609130859375,"response_time":1685045263592.85},{"trial":10,"action":1,"button_pressed":10,"time_out":false,"dwell_time":47.137939453125,"response_time":1685045263925.54},{"trial":10,"action":1,"button_pressed":2,"time_out":false,"dwell_time":63.630126953125,"response_time":1685045264308.64},{"trial":10,"action":9,"button_pressed":-1,"time_out":false,"dwell_time":64.635986328125,"response_time":1685045264891.78},{"trial":11,"action":1,"button_pressed":6,"time_out":false,"dwell_time":64.221923828125,"response_time":1685045286918.39},{"trial":11,"action":1,"button_pressed":5,"time_out":false,"dwell_time":47.989013671875,"response_time":1685045287218.01},{"trial":11,"action":1,"button_pressed":0,"time_out":false,"dwell_time":82.02392578125,"response_time":1685045287735.22},{"trial":11,"action":1,"button_pressed":3,"time_out":false,"dwell_time":48.672119140625,"response_time":1685045288251.62},{"trial":11,"action":1,"button_pressed":4,"time_out":false,"dwell_time":47.799072265625,"response_time":1685045289501.18},{"trial":11,"action":1,"button_pressed":10,"time_out":false,"dwell_time":47.28515625,"response_time":1685045289800.62},{"trial":11,"action":1,"button_pressed":8,"time_out":false,"dwell_time":30.876953125,"response_time":1685045290083.56},{"trial":11,"action":1,"button_pressed":1,"time_out":false,"dwell_time":47.9609375,"response_time":1685045290484.24},{"trial":11,"action":9,"button_pressed":-1,"time_out":false,"dwell_time":65.306884765625,"response_time":1685045292150.3}]}