{"meta_data":{"additional_headers":{},"game_name":"Recollect","version":"2.53.01","user_name":"106","organization":"braingamecenter","study":"mpl2_2022_11","session_number":0,"device_id":"74342D95-EE82-45E3-8ADF-48FB3203C5DD"},"data":[{"stage":"Practice","trial":0,"sequence":"6F","letter_input":"F","number_input":"6","is_correct":true,"presentation_start_time":1685045316806.67,"presentation_end_time":1685045319808.42,"response_time":1685045324640.68},{"stage":"Practice","trial":1,"sequence":"G4","letter_input":"G","number_input":"4","is_correct":true,"presentation_start_time":1685045326170.26,"presentation_end_time":1685045329172.01,"response_time":1685045333201.44},{"stage":"Practice","trial":2,"sequence":"3W5","letter_input":"W","number_input":"35","is_correct":true,"presentation_start_time":1685045334734.1,"presentation_end_time":1685045339235.38,"response_time":1685045343448.15},{"stage":"Practice","trial":3,"sequence":"T7L","letter_input":"LT","number_input":"7","is_correct":true,"presentation_start_time":1685045344980.81,"presentation_end_time":1685045349482.03,"response_time":1685045354261.18},{"stage":"Practice","trial":4,"sequence":"9J1","letter_input":"J","number_input":"19","is_correct":true,"presentation_start_time":1685045355793.94,"presentation_end_time":1685045360295.13,"response_time":1685045363674.84},{"stage":"Calibration","trial":0,"sequence":"Z2","letter_input":"Z","number_input":"2","is_correct":true,"presentation_start_time":1685045368173.3,"presentation_end_time":1685045371175.02,"response_time":1685045374971.12},{"stage":"Calibration","trial":1,"sequence":"1V","letter_input":"V","number_input":"1","is_correct":true,"presentation_start_time":1685045376503.84,"presentation_end_time":1685045379505.55,"response_time":1685045383051.86},{"stage":"Calibration","trial":2,"sequence":"W5C","letter_input":"CW","number_input":"5","is_correct":true,"presentation_start_time":1685045384584.63,"presentation_end_time":1685045389085.8,"response_time":1685045393481.71},{"stage":"Calibration","trial":3,"sequence":"8N1","letter_input":"N","number_input":"18","is_correct":true,"presentation_start_time":1685045395014.63,"presentation_end_time":1685045399515.77,"response_time":1685045403878.32},{"stage":"Calibration","trial":4,"sequence":"V7S5","letter_input":"SV","number_input":"57","is_correct":true,"presentation_start_time":1685045405411.15,"presentation_end_time":1685045411411.94,"response_time":1685045416890.79},{"stage":"Calibration","trial":5,"sequence":"9J6E","letter_input":"EJ","number_input":"69","is_correct":true,"presentation_start_time":1685045418423.53,"presentation_end_time":1685045424424.31,"response_time":1685045429120.18},{"stage":"Calibration","trial":6,"sequence":"C7Z3Q","letter_input":"CQZ","number_input":"37","is_correct":true,"presentation_start_time":1685045430652.96,"presentation_end_time":1685045438153.09,"response_time":1685045447014.31},{"stage":"Calibration","trial":7,"sequence":"5T1B9","letter_input":"BT","number_input":"159","is_correct":true,"presentation_start_time":1685045448547.12,"presentation_end_time":1685045456047.39,"response_time":1685045461493.05},{"stage":"Calibration","trial":8,"sequence":"E4N2G6","letter_input":"ENG","number_input":"246","is_correct":false,"presentation_start_time":1685045463025.71,"presentation_end_time":1685045472025.61,"response_time":1685045487701.15},{"stage":"Calibration","trial":9,"sequence":"9A3P1J","letter_input":"AJP","number_input":"139","is_correct":true,"presentation_start_time":1685045489233.9,"presentation_end_time":1685045498233.69,"response_time":1685045503929.21},{"stage":"Calibration","trial":10,"sequence":"T5Z2K7W","letter_input":"KTWZ","number_input":"257","is_correct":true,"presentation_start_time":1685045505461.93,"presentation_end_time":1685045515961.39,"response_time":1685045527238.3},{"stage":"Calibration","trial":11,"sequence":"1H8S6M4","letter_input":"HNM","number_input":"1468","is_correct":false,"presentation_start_time":1685045528771.05,"presentation_end_time":1685045539270.35,"response_time":1685045560277.56},{"stage":"Calibration","trial":12,"sequence":"K9F2Z7W5","letter_input":"WAFZ","number_input":"2579","is_correct":false,"presentation_start_time":1685045561810.28,"presentation_end_time":1685045573809.08,"response_time":1685045590501.05},{"stage":"Calibration","trial":13,"sequence":"3C8R1N6Y","letter_input":"CRSW","number_input":"1368","is_correct":false,"presentation_start_time":1685045592033.86,"presentation_end_time":1685045604032.61,"response_time":1685045622823.84}]}