{"meta_data":{"additional_headers":{},"game_name":"Recollect","version":"2.53.01","user_name":"107","organization":"braingamecenter","study":"mpl2_2022_11","session_number":0,"device_id":"74342D95-EE82-45E3-8ADF-48FB3203C5DD"},"data":[{"stage":"Practice","trial":0,"sequence":"6F","letter_input":"F","number_input":"6","is_correct":true,"presentation_start_time":1685056553724.29,"presentation_end_time":1685056556726.1,"response_time":1685056562239.95},{"stage":"Practice","trial":1,"sequence":"G4","letter_input":"G","number_input":"4","is_correct":true,"presentation_start_time":1685056563771.04,"presentation_end_time":1685056566772.83,"response_time":1685056571402.01},{"stage":"Practice","trial":2,"sequence":"3W5","letter_input":"W","number_input":"35","is_correct":true,"presentation_start_time":1685056572934.76,"presentation_end_time":1685056577436.01,"response_time":1685056582348.54},{"stage":"Practice","trial":3,"sequence":"T7L","letter_input":"LT","number_input":"7","is_correct":true,"presentation_start_time":1685056583881.29,"presentation_end_time":1685056588382.56,"response_time":1685056593395.01},{"stage":"Practice","trial":4,"sequence":"9J1","letter_input":"J","number_input":"19","is_correct":true,"presentation_start_time":1685056594927.79,"presentation_end_time":1685056599429.05,"response_time":1685056603608.34},{"stage":"Calibration","trial":0,"sequence":"B4","letter_input":"B","number_input":"4","is_correct":true,"presentation_start_time":1685056606673.91,"presentation_end_time":1685056609675.62,"response_time":1685056613855.13},{"stage":"Calibration","trial":1,"sequence":"8M","letter_input":"M","number_input":"8","is_correct":true,"presentation_start_time":1685056615387.85,"presentation_end_time":1685056618389.5,"response_time":1685056622502.29},{"stage":"Calibration","trial":2,"sequence":"Y6H","letter_input":"HY","number_input":"6","is_correct":true,"presentation_start_time":1685056624035.09,"presentation_end_time":1685056628536.34,"response_time":1685056633215.48},{"stage":"Calibration","trial":3,"sequence":"4M2","letter_input":"M","number_input":"24","is_correct":true,"presentation_start_time":1685056634748.26,"presentation_end_time":1685056639249.57,"response_time":1685056644328.68},{"stage":"Calibration","trial":4,"sequence":"R8N3","letter_input":"NR","number_input":"38","is_correct":true,"presentation_start_time":1685056645861.38,"presentation_end_time":1685056651862.17,"response_time":1685056657107.82},{"stage":"Calibration","trial":5,"sequence":"6M2J","letter_input":"MJ","number_input":"26","is_correct":false,"presentation_start_time":1685056658640.57,"presentation_end_time":1685056664641.39,"response_time":1685056670603.48},{"stage":"Calibration","trial":6,"sequence":"D8W4H","letter_input":"DHW","number_input":"48","is_correct":true,"presentation_start_time":1685056672136.23,"presentation_end_time":1685056679636.66,"response_time":1685056685648.7},{"stage":"Calibration","trial":7,"sequence":"6R3E1","letter_input":"ER","number_input":"136","is_correct":true,"presentation_start_time":1685056687181.48,"presentation_end_time":1685056694681.82,"response_time":1685056699394.25},{"stage":"Calibration","trial":8,"sequence":"K9F7B5","letter_input":"BF","number_input":"579","is_correct":false,"presentation_start_time":1685056700926.95,"presentation_end_time":1685056709926.91,"response_time":1685056718054.94},{"stage":"Calibration","trial":9,"sequence":"2Z8P6A","letter_input":"PZ","number_input":"268","is_correct":false,"presentation_start_time":1685056719587.66,"presentation_end_time":1685056728587.46,"response_time":1685056748611.83}]}