{"meta_data":{"additional_headers":{},"game_name":"Recollect","version":"2.53.01","user_name":"109","organization":"braingamecenter","study":"mpl2_2022_11","session_number":0,"device_id":"74342D95-EE82-45E3-8ADF-48FB3203C5DD"},"data":[{"stage":"Practice","trial":0,"sequence":"6F","letter_input":"F","number_input":"6","is_correct":true,"presentation_start_time":1685489912859.82,"presentation_end_time":1685489915861.32,"response_time":1685489922276.55},{"stage":"Practice","trial":1,"sequence":"G4","letter_input":"G","number_input":"4","is_correct":true,"presentation_start_time":1685489923806.07,"presentation_end_time":1685489926807.9,"response_time":1685489932270.15},{"stage":"Practice","trial":2,"sequence":"3W5","letter_input":"W","number_input":"35","is_correct":true,"presentation_start_time":1685489933802.94,"presentation_end_time":1685489938304.23,"response_time":1685489945349.32},{"stage":"Practice","trial":3,"sequence":"T7L","letter_input":"LT","number_input":"7","is_correct":true,"presentation_start_time":1685489946881.96,"presentation_end_time":1685489951383.24,"response_time":1685489957661.88},{"stage":"Practice","trial":4,"sequence":"9J1","letter_input":"J","number_input":"19","is_correct":true,"presentation_start_time":1685489959194.62,"presentation_end_time":1685489963695.86,"response_time":1685489969374.72},{"stage":"Calibration","trial":0,"sequence":"9M","letter_input":"M","number_input":"9","is_correct":true,"presentation_start_time":1685489976922.16,"presentation_end_time":1685489979923.85,"response_time":1685489984436.4},{"stage":"Calibration","trial":1,"sequence":"J8","letter_input":"J","number_input":"8","is_correct":true,"presentation_start_time":1685489985969.26,"presentation_end_time":1685489988970.95,"response_time":1685489994333.27},{"stage":"Calibration","trial":2,"sequence":"7R5","letter_input":"R","number_input":"57","is_correct":true,"presentation_start_time":1685489995866.02,"presentation_end_time":1685490000367.34,"response_time":1685490007029.23},{"stage":"Calibration","trial":3,"sequence":"Q6B","letter_input":"BQ","number_input":"6","is_correct":true,"presentation_start_time":1685490008561.98,"presentation_end_time":1685490013063.22,"response_time":1685490019391.77},{"stage":"Calibration","trial":4,"sequence":"4V2D","letter_input":"DV","number_input":"24","is_correct":true,"presentation_start_time":1685490020924.49,"presentation_end_time":1685490026925.32,"response_time":1685490034586.94},{"stage":"Calibration","trial":5,"sequence":"S9Q3","letter_input":"SQ","number_input":"39","is_correct":false,"presentation_start_time":1685490036119.57,"presentation_end_time":1685490042120.39,"response_time":1685490048398.95},{"stage":"Calibration","trial":6,"sequence":"2T7K4","letter_input":"KT","number_input":"247","is_correct":true,"presentation_start_time":1685490049931.69,"presentation_end_time":1685490057431.98,"response_time":1685490073090.97},{"stage":"Calibration","trial":7,"sequence":"Z9F3A","letter_input":"AFZ","number_input":"39","is_correct":true,"presentation_start_time":1685490074623.73,"presentation_end_time":1685490082124.06,"response_time":1685490094217.49},{"stage":"Calibration","trial":8,"sequence":"6S4D2V","letter_input":"DSV","number_input":"246","is_correct":true,"presentation_start_time":1685490095750.16,"presentation_end_time":1685490104749.95,"response_time":1685490128472.98},{"stage":"Calibration","trial":9,"sequence":"F9Y5M3","letter_input":"FMVY","number_input":"39","is_correct":false,"presentation_start_time":1685490130005.66,"presentation_end_time":1685490139005.61,"response_time":1685490173891.56},{"stage":"Calibration","trial":10,"sequence":"8H2P6J4","letter_input":"HJP","number_input":"2468","is_correct":true,"presentation_start_time":1685490175424.24,"presentation_end_time":1685490185923.46,"response_time":1685490224641.61},{"stage":"Calibration","trial":11,"sequence":"Z9V7D3B","letter_input":"BDZ","number_input":"379","is_correct":false,"presentation_start_time":1685490226174.38,"presentation_end_time":1685490236673.66,"response_time":1685490267661.05},{"stage":"Calibration","trial":12,"sequence":"2Y8F6C4R","letter_input":"YZ","number_input":"2679","is_correct":false,"presentation_start_time":1685490269193.67,"presentation_end_time":1685490281192.59,"response_time":1685490314395.74},{"stage":"Calibration","trial":13,"sequence":"N9B3W1L5","letter_input":"BNW","number_input":"91","is_correct":false,"presentation_start_time":1685490315928.5,"presentation_end_time":1685490327938.93,"response_time":1685490357514.59}]}