{"meta_data":{"additional_headers":{},"game_name":"Recollect","version":"2.53.01","user_name":"10","organization":"braingamecenter","study":"mpl2_2022_11","session_number":0,"device_id":"74342D95-EE82-45E3-8ADF-48FB3203C5DD"},"data":[{"trial":0,"action":1,"button_pressed":7,"time_out":false,"dwell_time":48.3740234375,"response_time":1675898060892.84},{"trial":0,"action":1,"button_pressed":4,"time_out":false,"dwell_time":48.2060546875,"response_time":1675898061426.43},{"trial":0,"action":9,"button_pressed":-1,"time_out":false,"dwell_time":74.573974609375,"response_time":1675898063234.71},{"trial":1,"action":1,"button_pressed":11,"time_out":false,"dwell_time":65.180908203125,"response_time":1675898073039.05},{"trial":1,"action":1,"button_pressed":2,"time_out":false,"dwell_time":48.3779296875,"response_time":1675898073722.73},{"trial":1,"action":1,"button_pressed":9,"time_out":false,"dwell_time":65.05517578125,"response_time":1675898074188.82},{"trial":1,"action":9,"button_pressed":-1,"time_out":false,"dwell_time":64.708984375,"response_time":1675898075121.34},{"trial":2,"action":1,"button_pressed":8,"time_out":false,"dwell_time":65.254150390625,"response_time":1675898087367.82},{"trial":2,"action":1,"button_pressed":1,"time_out":false,"dwell_time":81.766845703125,"response_time":1675898089000.57},{"trial":2,"action":1,"button_pressed":3,"time_out":false,"dwell_time":64.5419921875,"response_time":1675898089466.47},{"trial":2,"action":1,"button_pressed":11,"time_out":false,"dwell_time":47.931884765625,"response_time":1675898089999.77},{"trial":2,"action":9,"button_pressed":-1,"time_out":false,"dwell_time":98.409912109375,"response_time":1675898090916.54},{"trial":3,"action":1,"button_pressed":6,"time_out":false,"dwell_time":64.18408203125,"response_time":1675898106128.32},{"trial":3,"action":1,"button_pressed":3,"time_out":false,"dwell_time":64.84912109375,"response_time":1675898106544.59},{"trial":3,"action":1,"button_pressed":8,"time_out":false,"dwell_time":47.383056640625,"response_time":1675898107061.03},{"trial":3,"action":1,"button_pressed":11,"time_out":false,"dwell_time":64.697021484375,"response_time":1675898107644.08},{"trial":3,"action":1,"button_pressed":0,"time_out":false,"dwell_time":48.47998046875,"response_time":1675898108278.41},{"trial":3,"action":9,"button_pressed":-1,"time_out":false,"dwell_time":80.780029296875,"response_time":1675898108943.77},{"trial":4,"action":1,"button_pressed":4,"time_out":false,"dwell_time":82.02392578125,"response_time":1675898126754.95},{"trial":4,"action":1,"button_pressed":11,"time_out":false,"dwell_time":63.989990234375,"response_time":1675898127271.41},{"trial":4,"action":1,"button_pressed":3,"time_out":false,"dwell_time":65.132080078125,"response_time":1675898127854.43},{"trial":4,"action":1,"button_pressed":2,"time_out":false,"dwell_time":65.1220703125,"response_time":1675898128454.1},{"trial":4,"action":1,"button_pressed":10,"time_out":false,"dwell_time":64.320068359375,"response_time":1675898128904.2},{"trial":4,"action":1,"button_pressed":6,"time_out":false,"dwell_time":49.722900390625,"response_time":1675898129436.94},{"trial":4,"action":9,"button_pressed":-1,"time_out":false,"dwell_time":81.489990234375,"response_time":1675898130370.56},{"trial":5,"action":1,"button_pressed":9,"time_out":false,"dwell_time":81.998046875,"response_time":1675898150980.37},{"trial":5,"action":1,"button_pressed":7,"time_out":false,"dwell_time":47.139892578125,"response_time":1675898151846.22},{"trial":5,"action":1,"button_pressed":4,"time_out":false,"dwell_time":47.307861328125,"response_time":1675898152446.01},{"trial":5,"action":1,"button_pressed":1,"time_out":false,"dwell_time":64.537841796875,"response_time":1675898152996.29},{"trial":5,"action":1,"button_pressed":11,"time_out":false,"dwell_time":81.9169921875,"response_time":1675898153812.51},{"trial":5,"action":1,"button_pressed":6,"time_out":false,"dwell_time":65.003173828125,"response_time":1675898154312.33},{"trial":5,"action":1,"button_pressed":8,"time_out":false,"dwell_time":48.0380859375,"response_time":1675898154895.91},{"trial":5,"action":9,"button_pressed":-1,"time_out":false,"dwell_time":132.20703125,"response_time":1675898156278.82},{"trial":6,"action":1,"button_pressed":10,"time_out":false,"dwell_time":64.695068359375,"response_time":1675898179403.63},{"trial":6,"action":1,"button_pressed":2,"time_out":false,"dwell_time":81.5078125,"response_time":1675898180270.32},{"trial":6,"action":1,"button_pressed":9,"time_out":false,"dwell_time":64.2939453125,"response_time":1675898180753.68},{"trial":6,"action":1,"button_pressed":8,"time_out":false,"dwell_time":47.2431640625,"response_time":1675898181203.36},{"trial":6,"action":1,"button_pressed":4,"time_out":false,"dwell_time":64.3818359375,"response_time":1675898181803.37},{"trial":6,"action":1,"button_pressed":1,"time_out":false,"dwell_time":48.218017578125,"response_time":1675898182302.96},{"trial":6,"action":1,"button_pressed":5,"time_out":false,"dwell_time":65.251953125,"response_time":1675898182886.45},{"trial":6,"action":1,"button_pressed":0,"time_out":false,"dwell_time":65.052978515625,"response_time":1675898183386.17},{"trial":6,"action":9,"button_pressed":-1,"time_out":false,"dwell_time":99.84716796875,"response_time":1675898184487.19},{"trial":7,"action":1,"button_pressed":10,"time_out":false,"dwell_time":64.216064453125,"response_time":1675898208827.98},{"trial":7,"action":1,"button_pressed":2,"time_out":false,"dwell_time":81.112060546875,"response_time":1675898217974.31},{"trial":7,"action":1,"button_pressed":1,"time_out":false,"dwell_time":48.22509765625,"response_time":1675898218524.52},{"trial":7,"action":1,"button_pressed":9,"time_out":false,"dwell_time":65.138916015625,"response_time":1675898219007.95},{"trial":7,"action":1,"button_pressed":8,"time_out":false,"dwell_time":48.051025390625,"response_time":1675898220057.97},{"trial":7,"action":1,"button_pressed":11,"time_out":false,"dwell_time":48.0869140625,"response_time":1675898220590.39},{"trial":7,"action":1,"button_pressed":5,"time_out":false,"dwell_time":48.239990234375,"response_time":1675898224439.92},{"trial":7,"action":1,"button_pressed":4,"time_out":false,"dwell_time":47.833984375,"response_time":1675898224839.37},{"trial":7,"action":9,"button_pressed":-1,"time_out":false,"dwell_time":98.286865234375,"response_time":1675898226088.78},{"trial":8,"action":1,"button_pressed":5,"time_out":false,"dwell_time":82.012939453125,"response_time":1675898243749.96},{"trial":8,"action":1,"button_pressed":10,"time_out":false,"dwell_time":48.06396484375,"response_time":1675898244216.76},{"trial":8,"action":1,"button_pressed":7,"time_out":false,"dwell_time":48.8310546875,"response_time":1675898244833.17},{"trial":8,"action":1,"button_pressed":4,"time_out":false,"dwell_time":64.177001953125,"response_time":1675898245815.77},{"trial":8,"action":1,"button_pressed":0,"time_out":false,"dwell_time":64.574951171875,"response_time":1675898246331.68},{"trial":8,"action":1,"button_pressed":8,"time_out":false,"dwell_time":48.10693359375,"response_time":1675898246749.29},{"trial":8,"action":9,"button_pressed":-1,"time_out":false,"dwell_time":81.3671875,"response_time":1675898247532.32},{"trial":9,"action":1,"button_pressed":9,"time_out":false,"dwell_time":48.464111328125,"response_time":1675898267875.25},{"trial":9,"action":1,"button_pressed":7,"time_out":false,"dwell_time":48.179931640625,"response_time":1675898268408.22},{"trial":9,"action":1,"button_pressed":1,"time_out":false,"dwell_time":63.64892578125,"response_time":1675898268890.82},{"trial":9,"action":1,"button_pressed":5,"time_out":false,"dwell_time":80.47900390625,"response_time":1675898269557.62},{"trial":9,"action":1,"button_pressed":11,"time_out":false,"dwell_time":48.25,"response_time":1675898271907.08},{"trial":9,"action":1,"button_pressed":0,"time_out":false,"dwell_time":48.7939453125,"response_time":1675898272440.82},{"trial":9,"action":1,"button_pressed":4,"time_out":false,"dwell_time":47.608154296875,"response_time":1675898272723.63},{"trial":9,"action":9,"button_pressed":-1,"time_out":false,"dwell_time":81.544189453125,"response_time":1675898273706.55},{"trial":10,"action":1,"button_pressed":6,"time_out":false,"dwell_time":64.60302734375,"response_time":1675898293900.01},{"trial":10,"action":1,"button_pressed":10,"time_out":false,"dwell_time":63.56494140625,"response_time":1675898294299.2},{"trial":10,"action":1,"button_pressed":11,"time_out":false,"dwell_time":47.448974609375,"response_time":1675898294832.89},{"trial":10,"action":1,"button_pressed":3,"time_out":false,"dwell_time":81.787109375,"response_time":1675898296482.53},{"trial":10,"action":1,"button_pressed":8,"time_out":false,"dwell_time":80.9580078125,"response_time":1675898296899.17},{"trial":10,"action":1,"button_pressed":5,"time_out":false,"dwell_time":97.658935546875,"response_time":1675898297265.71},{"trial":10,"action":1,"button_pressed":4,"time_out":false,"dwell_time":64.362060546875,"response_time":1675898297598.87},{"trial":10,"action":9,"button_pressed":-1,"time_out":false,"dwell_time":100.0419921875,"response_time":1675898300366.3}]}