{"meta_data":{"additional_headers":{},"game_name":"Recollect","version":"2.53.01","user_name":"10","organization":"braingamecenter","study":"mpl2_2022_11","session_number":0,"device_id":"74342D95-EE82-45E3-8ADF-48FB3203C5DD"},"data":[{"stage":"Practice","trial":0,"sequence":"6F","letter_input":"F","number_input":"6","is_correct":true,"presentation_start_time":1675898348414.2,"presentation_end_time":1675898351414.39,"response_time":1675898362894.52},{"stage":"Practice","trial":1,"sequence":"G4","letter_input":"G","number_input":"4","is_correct":true,"presentation_start_time":1675898364425.64,"presentation_end_time":1675898367425.78,"response_time":1675898373006.27},{"stage":"Practice","trial":2,"sequence":"3W5","letter_input":"W","number_input":"35","is_correct":true,"presentation_start_time":1675898374538.95,"presentation_end_time":1675898379038.67,"response_time":1675898385868.7},{"stage":"Practice","trial":3,"sequence":"T7L","letter_input":"LT","number_input":"7","is_correct":true,"presentation_start_time":1675898387401.43,"presentation_end_time":1675898391901.13,"response_time":1675898398597.91},{"stage":"Practice","trial":4,"sequence":"9J1","letter_input":"J","number_input":"19","is_correct":true,"presentation_start_time":1675898400130.55,"presentation_end_time":1675898404630.25,"response_time":1675898410277.34},{"stage":"Calibration","trial":0,"sequence":"7C","letter_input":"C","number_input":"7","is_correct":true,"presentation_start_time":1675898426505.24,"presentation_end_time":1675898429505.42,"response_time":1675898434269.52},{"stage":"Calibration","trial":1,"sequence":"B2","letter_input":"B","number_input":"2","is_correct":true,"presentation_start_time":1675898435802.2,"presentation_end_time":1675898438802.4,"response_time":1675898443383.25},{"stage":"Calibration","trial":2,"sequence":"7H5","letter_input":"H","number_input":"57","is_correct":true,"presentation_start_time":1675898444915.97,"presentation_end_time":1675898449415.66,"response_time":1675898455545.9},{"stage":"Calibration","trial":3,"sequence":"W8L","letter_input":"LW","number_input":"8","is_correct":true,"presentation_start_time":1675898457078.6,"presentation_end_time":1675898461578.28,"response_time":1675898475239.39},{"stage":"Calibration","trial":4,"sequence":"6V2D","letter_input":"DV","number_input":"26","is_correct":true,"presentation_start_time":1675898476772.19,"presentation_end_time":1675898482771.39,"response_time":1675898493633.41},{"stage":"Calibration","trial":5,"sequence":"R7A4","letter_input":"AR","number_input":"47","is_correct":true,"presentation_start_time":1675898495166.14,"presentation_end_time":1675898501165.42,"response_time":1675898512510.53},{"stage":"Calibration","trial":6,"sequence":"1S8Q3","letter_input":"QS","number_input":"138","is_correct":true,"presentation_start_time":1675898514043.33,"presentation_end_time":1675898521542.04,"response_time":1675898538552.06},{"stage":"Calibration","trial":7,"sequence":"W9H5B","letter_input":"BHW","number_input":"59","is_correct":true,"presentation_start_time":1675898540084.77,"presentation_end_time":1675898547583.51,"response_time":1675898562910.65},{"stage":"Calibration","trial":8,"sequence":"2L7D4R","letter_input":"DLR","number_input":"247","is_correct":true,"presentation_start_time":1675898564443.49,"presentation_end_time":1675898573441.74,"response_time":1675898588119.18},{"stage":"Calibration","trial":9,"sequence":"E3Z1T8","letter_input":"ETZ","number_input":"138","is_correct":true,"presentation_start_time":1675898589651.86,"presentation_end_time":1675898598650.11,"response_time":1675898611328.24},{"stage":"Calibration","trial":10,"sequence":"9M6K4C2","letter_input":"CKM","number_input":"2469","is_correct":true,"presentation_start_time":1675898612860.93,"presentation_end_time":1675898623358.72,"response_time":1675898654647.32},{"stage":"Calibration","trial":11,"sequence":"S7F3Y1Q","letter_input":"FQSY","number_input":"137","is_correct":true,"presentation_start_time":1675898656180.06,"presentation_end_time":1675898666677.86,"response_time":1675898703281.38},{"stage":"Calibration","trial":12,"sequence":"4J9A6V2H","letter_input":"AHJV","number_input":"2469","is_correct":true,"presentation_start_time":1675898704814.16,"presentation_end_time":1675898716811.38,"response_time":1675898748100.15},{"stage":"Calibration","trial":13,"sequence":"E1B5R3G8","letter_input":"BHRJ","number_input":"1538","is_correct":false,"presentation_start_time":1675898749632.75,"presentation_end_time":1675898761630.07,"response_time":1675898802782.09},{"stage":"Calibration","trial":14,"sequence":"7L4W9S2C5","letter_input":"LR","number_input":"759","is_correct":false,"presentation_start_time":1675898804314.81,"presentation_end_time":1675898817811.61,"response_time":1675898832905.56},{"stage":"Calibration","trial":15,"sequence":"Q1B8V6H3D","letter_input":"BDHJRV","number_input":"1368","is_correct":false,"presentation_start_time":1675898834438.28,"presentation_end_time":1675898847935.04,"response_time":1675898903898.96}]}