{"meta_data":{"additional_headers":{},"game_name":"Recollect","version":"2.53.01","user_name":"110","organization":"braingamecenter","study":"mpl2_2022_11","session_number":0,"device_id":"74342D95-EE82-45E3-8ADF-48FB3203C5DD"},"data":[{"stage":"Practice","trial":0,"sequence":"6F","letter_input":"F","number_input":"6","is_correct":true,"presentation_start_time":1685558536496.33,"presentation_end_time":1685558539498.12,"response_time":1685558545345.19},{"stage":"Practice","trial":1,"sequence":"G4","letter_input":"G","number_input":"4","is_correct":true,"presentation_start_time":1685558546876.38,"presentation_end_time":1685558549878.18,"response_time":1685558554007.47},{"stage":"Practice","trial":2,"sequence":"3W5","letter_input":"W","number_input":"35","is_correct":true,"presentation_start_time":1685558555540.2,"presentation_end_time":1685558560041.44,"response_time":1685558563804.27},{"stage":"Practice","trial":3,"sequence":"T7L","letter_input":"LT","number_input":"7","is_correct":true,"presentation_start_time":1685558565336.97,"presentation_end_time":1685558569838.34,"response_time":1685558576166.83},{"stage":"Practice","trial":4,"sequence":"9J1","letter_input":"J","number_input":"19","is_correct":true,"presentation_start_time":1685558577699.59,"presentation_end_time":1685558582200.93,"response_time":1685558586180.29},{"stage":"Calibration","trial":0,"sequence":"8S","letter_input":"S","number_input":"8","is_correct":true,"presentation_start_time":1685558593211.22,"presentation_end_time":1685558596212.86,"response_time":1685558599775.85},{"stage":"Calibration","trial":1,"sequence":"Q5","letter_input":"Q","number_input":"5","is_correct":true,"presentation_start_time":1685558601308.51,"presentation_end_time":1685558604310.11,"response_time":1685558607823.25},{"stage":"Calibration","trial":2,"sequence":"6M3","letter_input":"M","number_input":"36","is_correct":true,"presentation_start_time":1685558609355.82,"presentation_end_time":1685558613857.22,"response_time":1685558617086.73},{"stage":"Calibration","trial":3,"sequence":"G7A","letter_input":"AG","number_input":"7","is_correct":true,"presentation_start_time":1685558618619.55,"presentation_end_time":1685558623120.85,"response_time":1685558627316.73},{"stage":"Calibration","trial":4,"sequence":"9M3B","letter_input":"BM","number_input":"39","is_correct":true,"presentation_start_time":1685558628849.53,"presentation_end_time":1685558634850.34,"response_time":1685558639612.73},{"stage":"Calibration","trial":5,"sequence":"Z8Q5","letter_input":"QZ","number_input":"58","is_correct":true,"presentation_start_time":1685558641145.57,"presentation_end_time":1685558647146.27,"response_time":1685558651325.67},{"stage":"Calibration","trial":6,"sequence":"4P9H6","letter_input":"HP","number_input":"469","is_correct":true,"presentation_start_time":1685558652858.34,"presentation_end_time":1685558660358.7,"response_time":1685558674234.79},{"stage":"Calibration","trial":7,"sequence":"S8A5V","letter_input":"ASV","number_input":"58","is_correct":true,"presentation_start_time":1685558675767.58,"presentation_end_time":1685558683267.79,"response_time":1685558689929.71},{"stage":"Calibration","trial":8,"sequence":"4E1Y6L","letter_input":"ELY","number_input":"146","is_correct":true,"presentation_start_time":1685558691462.38,"presentation_end_time":1685558700462.32,"response_time":1685558705824.44},{"stage":"Calibration","trial":9,"sequence":"D7Z5H2","letter_input":"DHZ","number_input":"257","is_correct":true,"presentation_start_time":1685558707357.25,"presentation_end_time":1685558716356.92,"response_time":1685558721636.06},{"stage":"Calibration","trial":10,"sequence":"6T4Q9M1","letter_input":"MQT","number_input":"1469","is_correct":true,"presentation_start_time":1685558723168.78,"presentation_end_time":1685558733667.96,"response_time":1685558739346.82},{"stage":"Calibration","trial":11,"sequence":"W5E2Z8G","letter_input":"EGWZ","number_input":"258","is_correct":true,"presentation_start_time":1685558740879.59,"presentation_end_time":1685558751378.97,"response_time":1685558768654.02},{"stage":"Calibration","trial":12,"sequence":"6J1C9S4N","letter_input":"SCJSV","number_input":"1469","is_correct":false,"presentation_start_time":1685558770186.65,"presentation_end_time":1685558782185.48,"response_time":1685558809757.17},{"stage":"Calibration","trial":13,"sequence":"F2Q5M4V8","letter_input":"FQM","number_input":"2458","is_correct":false,"presentation_start_time":1685558811289.94,"presentation_end_time":1685558823288.67,"response_time":1685558831600.01}]}