{"meta_data":{"additional_headers":{},"game_name":"Recollect","version":"2.53.01","user_name":"111","organization":"braingamecenter","study":"mpl2_2022_11","session_number":0,"device_id":"74342D95-EE82-45E3-8ADF-48FB3203C5DD"},"data":[{"stage":"Practice","trial":0,"sequence":"6F","letter_input":"F","number_input":"6","is_correct":true,"presentation_start_time":1685570124904.17,"presentation_end_time":1685570127905.96,"response_time":1685570138235.57},{"stage":"Practice","trial":1,"sequence":"G4","letter_input":"G","number_input":"4","is_correct":true,"presentation_start_time":1685570139765.85,"presentation_end_time":1685570142767.56,"response_time":1685570148013.18},{"stage":"Practice","trial":2,"sequence":"3W5","letter_input":"W","number_input":"35","is_correct":true,"presentation_start_time":1685570149545.97,"presentation_end_time":1685570154047.14,"response_time":1685570160342.4},{"stage":"Practice","trial":3,"sequence":"T7L","letter_input":"LT","number_input":"7","is_correct":true,"presentation_start_time":1685570161875.09,"presentation_end_time":1685570166376.3,"response_time":1685570175620.58},{"stage":"Practice","trial":4,"sequence":"9J1","letter_input":"J","number_input":"19","is_correct":true,"presentation_start_time":1685570177153.35,"presentation_end_time":1685570181654.66,"response_time":1685570189466.02},{"stage":"Calibration","trial":0,"sequence":"2D","letter_input":"D","number_input":"2","is_correct":true,"presentation_start_time":1685570209609.17,"presentation_end_time":1685570212610.92,"response_time":1685570217340},{"stage":"Calibration","trial":1,"sequence":"Y1","letter_input":"Y","number_input":"1","is_correct":true,"presentation_start_time":1685570218872.83,"presentation_end_time":1685570221874.54,"response_time":1685570227886.53},{"stage":"Calibration","trial":2,"sequence":"5G3","letter_input":"G","number_input":"35","is_correct":true,"presentation_start_time":1685570229419.19,"presentation_end_time":1685570233920.57,"response_time":1685570239299.44},{"stage":"Calibration","trial":3,"sequence":"N4J","letter_input":"JN","number_input":"4","is_correct":true,"presentation_start_time":1685570240832.12,"presentation_end_time":1685570245333.44,"response_time":1685570251595.32},{"stage":"Calibration","trial":4,"sequence":"7S3L","letter_input":"LS","number_input":"37","is_correct":true,"presentation_start_time":1685570253128.01,"presentation_end_time":1685570259128.66,"response_time":1685570271238.72},{"stage":"Calibration","trial":5,"sequence":"Z6F4","letter_input":"FZ","number_input":"46","is_correct":true,"presentation_start_time":1685570272771.46,"presentation_end_time":1685570278772.27,"response_time":1685570289016.06},{"stage":"Calibration","trial":6,"sequence":"7S3E9","letter_input":"S","number_input":"379","is_correct":false,"presentation_start_time":1685570290548.78,"presentation_end_time":1685570298049.13,"response_time":1685570308542.9},{"stage":"Calibration","trial":7,"sequence":"V8M4F","letter_input":"FMV","number_input":"48","is_correct":true,"presentation_start_time":1685570310075.71,"presentation_end_time":1685570317575.98,"response_time":1685570336117.1},{"stage":"Calibration","trial":8,"sequence":"1K9A6S","letter_input":"AKS","number_input":"169","is_correct":true,"presentation_start_time":1685570337649.83,"presentation_end_time":1685570346649.43,"response_time":1685570365407.3},{"stage":"Calibration","trial":9,"sequence":"V5F2C7","letter_input":"CFV","number_input":"257","is_correct":true,"presentation_start_time":1685570366940,"presentation_end_time":1685570375939.76,"response_time":1685570403377.94},{"stage":"Calibration","trial":10,"sequence":"1Q9G6D4","letter_input":"QZ","number_input":"1469","is_correct":false,"presentation_start_time":1685570404910.6,"presentation_end_time":1685570415409.94,"response_time":1685570452528.23},{"stage":"Calibration","trial":11,"sequence":"M2V8T5K","letter_input":"KMV","number_input":"258","is_correct":false,"presentation_start_time":1685570454060.84,"presentation_end_time":1685570464560.21,"response_time":1685570488166.27}]}