Audio_Only_Files,Video_Files,Original_Word_List,noiseLevelCode,conditionCodes,noiseLevelFile1,noiseLevelFile2,InstrTextVar,targetSpeakerName,targetSpeakerEccen,targetSpkrChannel,targetSpkrSound,targetVisualDegrees,visStimLoc,visStimLoc2,visStimW,visStimH,practiceTrials.thisRepN,practiceTrials.thisTrialN,practiceTrials.thisN,practiceTrials.thisIndex,trials.thisRepN,trials.thisTrialN,trials.thisN,trials.thisIndex,audLocalLoop.thisRepN,audLocalLoop.thisTrialN,audLocalLoop.thisN,audLocalLoop.thisIndex,visualLocalLoop.thisRepN,visualLocalLoop.thisTrialN,visualLocalLoop.thisN,visualLocalLoop.thisIndex,letsGoAlready.keys,letsGoAlready.rt,letsGoAlready.started,letsGoAlready.stopped,text_2.started,text_2.stopped,text_3.started,text_3.stopped,key_resp_2.keys,key_resp_2.rt,key_resp_2.started,key_resp_2.stopped,text_5.started,text_5.stopped,fixCross.started,fixCross.stopped,fixCross2.started,fixCross2.stopped,answerPrompt.started,answerPrompt.stopped,getAnswer.text,getAnswer.started,getAnswer.stopped,goToNext.keys,goToNext.rt,goToNext.started,goToNext.stopped,stretchBreakTxrt.started,stretchBreakTxrt.stopped,key_resp_3.keys,key_resp_3.rt,key_resp_3.started,key_resp_3.stopped,letsGoLocal.keys,letsGoLocal.rt,letsGoLocal.started,letsGoLocal.stopped,text_4.started,text_4.stopped,prepFixTxt.started,prepFixTxt.stopped,prepFixTxt_2.started,prepFixTxt_2.stopped,respPromptLocal.started,respPromptLocal.stopped,slider.response,slider.rt,slider.started,slider.stopped,letsGoLocal_2.keys,letsGoLocal_2.rt,letsGoLocal_2.started,letsGoLocal_2.stopped,text_7.started,text_7.stopped,prepFixTxt_3.started,prepFixTxt_3.stopped,grating.started,grating.stopped,participant,session,date,expName,psychopyVersion,frameRate,
,,,,,,,,,,,,,,,,,,,,,,,,,,,,,,,,,space,16.683400772002642,11.399352983000426,None,,,,,,,,,,,,,,,,,,,,,,,,,,,,,,,,,,,,,,,,,,,,,,,,,,,,,,,,112,001,2023_Jun_01_1130,SpeechDraft1Carolyn_lessNoise_PlusLocalization,2021.2.3,60.02600422515495,
,,,,,,,,,,,,,,,,,,,,,,,,,,,,,,,,,,,,,11.399352983000426,None,28.215328870999656,None,space,11.37201112099865,28.398775718000252,None,,,,,,,,,,,,,,,,,,,,,,,,,,,,,,,,,,,,,,,,,,,,,,,,112,001,2023_Jun_01_1130,SpeechDraft1Carolyn_lessNoise_PlusLocalization,2021.2.3,60.02600422515495,
ash.wav,ash.mpg,ash,1,A,Pink_Noise_1_1.wav,Pink_Noise_1_2.wav,"This is an example of an

AUDIO trial",,,,,,,,,,0,0,0,0,,,,,,,,,,,,,,,,,,,,,,,,,39.83208036100041,None,40.815531029998965,None,44.10028790800061,None,45.482234797000274,None,ash ,45.482234797000274,None,return,5.8132526709996455,45.565567235000344,None,,,,,,,,,,,,,,,,,,,,,,,,,,,,,,,,,112,001,2023_Jun_01_1130,SpeechDraft1Carolyn_lessNoise_PlusLocalization,2021.2.3,60.02600422515495,
ash.wav,ash.mpg,ash,1,AV,Pink_Noise_1_1.wav,Pink_Noise_1_2.wav,"This is an example of an

AUDIO + VIDEO  trial",,,,,,,,,,0,1,1,1,,,,,,,,,,,,,,,,,,,,,,,,,51.41542091899828,None,52.415665680997336,None,53.89869605000058,None,55.28222032099802,None,ash,55.28222032099802,None,return,3.429083006998553,55.365661849999015,None,,,,,,,,,,,,,,,,,,,,,,,,,,,,,,,,,112,001,2023_Jun_01_1130,SpeechDraft1Carolyn_lessNoise_PlusLocalization,2021.2.3,60.02600422515495,
,,,,,,,,,,,,,,,,,,,,,,,,,,,,,,,,,,,,,,,,,,,,,,,,,,,,,,,,,,,,58.83195706599872,None,space,8.835160814996925,59.015602124,None,,,,,,,,,,,,,,,,,,,,,,,,,,,112,001,2023_Jun_01_1130,SpeechDraft1Carolyn_lessNoise_PlusLocalization,2021.2.3,60.02600422515495,
grace.wav,grace.mpg,grace,2,A,Pink_Noise_2_1.wav,Pink_Noise_2_2.wav,,,,,,,,,,,,,,,0,0,0,11,,,,,,,,,,,,,,,,,,,,,,,67.90098696399946,None,69.38297346800027,None,70.7656253540008,None,grace,70.7656253540008,None,return,2.689876340999035,70.84899038299773,None,,,,,,,,,,,,,,,,,,,,,,,,,,,,,,,,,112,001,2023_Jun_01_1130,SpeechDraft1Carolyn_lessNoise_PlusLocalization,2021.2.3,60.02600422515495,
bank.wav,bank.mpg,bank,1,A,Pink_Noise_1_1.wav,Pink_Noise_1_2.wav,,,,,,,,,,,,,,,0,1,1,38,,,,,,,,,,,,,,,,,,,,,,,73.56560062899734,None,75.04894339800012,None,76.43222813299872,None,bank,76.43222813299872,None,return,4.839347172997805,76.5155700840005,None,,,,,,,,,,,,,,,,,,,,,,,,,,,,,,,,,112,001,2023_Jun_01_1130,SpeechDraft1Carolyn_lessNoise_PlusLocalization,2021.2.3,60.02600422515495,
priest.wav,priest.mpg,priest,3,A,Pink_Noise_3_1.wav,Pink_Noise_3_2.wav,,,,,,,,,,,,,,,0,2,2,51,,,,,,,,,,,,,,,,,,,,,,,81.38243786599924,None,82.86540818700087,None,84.24892431899934,None,priest,84.24892431899934,None,return,4.046484508999129,84.33237646999987,None,,,,,,,,,,,,,,,,,,,,,,,,,,,,,,,,,112,001,2023_Jun_01_1130,SpeechDraft1Carolyn_lessNoise_PlusLocalization,2021.2.3,60.02600422515495,
cheer.wav,cheer.mpg,cheer,4,AV,Pink_Noise_4_1.wav,Pink_Noise_4_2.wav,,,,,,,,,,,,,,,0,3,3,74,,,,,,,,,,,,,,,,,,,,,,,88.39893601299991,None,89.88228968099793,None,91.26555134799855,None,chin,91.26555134799855,None,return,3.7738250880029227,91.34901506099777,None,,,,,,,,,,,,,,,,,,,,,,,,,,,,,,,,,112,001,2023_Jun_01_1130,SpeechDraft1Carolyn_lessNoise_PlusLocalization,2021.2.3,60.02600422515495,
cleft.wav,cleft.mpg,cleft,3,AV,Pink_Noise_3_1.wav,Pink_Noise_3_2.wav,,,,,,,,,,,,,,,0,4,4,75,,,,,,,,,,,,,,,,,,,,,,,95.14892930399947,None,96.63214871200034,None,98.01573354799984,None,"cleft
",98.01573354799984,None,return,3.583816177000699,98.0989398649981,None,,,,,,,,,,,,,,,,,,,,,,,,,,,,,,,,,112,001,2023_Jun_01_1130,SpeechDraft1Carolyn_lessNoise_PlusLocalization,2021.2.3,60.02600422515495,
frail.wav,frail.mpg,frail,6,AV,Pink_Noise_6_1.wav,Pink_Noise_6_2.wav,,,,,,,,,,,,,,,0,5,5,82,,,,,,,,,,,,,,,,,,,,,,,101.715659305999,None,103.2008434499985,None,104.58230615299908,None,del,104.58230615299908,None,return,16.041142972997477,104.665628155999,None,,,,,,,,,,,,,,,,,,,,,,,,,,,,,,,,,112,001,2023_Jun_01_1130,SpeechDraft1Carolyn_lessNoise_PlusLocalization,2021.2.3,60.02600422515495,
cloth.wav,cloth.mpg,cloth,3,AV,Pink_Noise_3_1.wav,Pink_Noise_3_2.wav,,,,,,,,,,,,,,,0,6,6,68,,,,,,,,,,,,,,,,,,,,,,,120.73237413599782,None,122.23217614699752,None,123.6155408079976,None,cloth,123.6155408079976,None,return,6.743739728000946,123.69900390700059,None,,,,,,,,,,,,,,,,,,,,,,,,,,,,,,,,,112,001,2023_Jun_01_1130,SpeechDraft1Carolyn_lessNoise_PlusLocalization,2021.2.3,60.02600422515495,
den.wav,den.mpg,den,1,A,Pink_Noise_1_1.wav,Pink_Noise_1_2.wav,,,,,,,,,,,,,,,0,7,7,14,,,,,,,,,,,,,,,,,,,,,,,130.46570105499995,None,131.94919345299786,None,133.3323611449996,None,den,133.3323611449996,None,return,3.411106749001192,133.4156445289991,None,,,,,,,,,,,,,,,,,,,,,,,,,,,,,,,,,112,001,2023_Jun_01_1130,SpeechDraft1Carolyn_lessNoise_PlusLocalization,2021.2.3,60.02600422515495,
clown.wav,clown.mpg,clown,3,AV,Pink_Noise_3_1.wav,Pink_Noise_3_2.wav,,,,,,,,,,,,,,,0,8,8,94,,,,,,,,,,,,,,,,,,,,,,,136.8490617159987,None,138.33211357599794,None,139.71572596699843,None,clown,139.71572596699843,None,return,3.347692672999983,139.79913232699982,None,,,,,,,,,,,,,,,,,,,,,,,,,,,,,,,,,112,001,2023_Jun_01_1130,SpeechDraft1Carolyn_lessNoise_PlusLocalization,2021.2.3,60.02600422515495,
fade.wav,fade.mpg,fade,5,AV,Pink_Noise_5_1.wav,Pink_Noise_5_2.wav,,,,,,,,,,,,,,,0,9,9,102,,,,,,,,,,,,,,,,,,,,,,,143.1656333259998,None,144.64891323499978,None,146.03231847999996,None,fake,146.03231847999996,None,return,3.047116737001488,146.11573797899837,None,,,,,,,,,,,,,,,,,,,,,,,,,,,,,,,,,112,001,2023_Jun_01_1130,SpeechDraft1Carolyn_lessNoise_PlusLocalization,2021.2.3,60.02600422515495,
gate.wav,gate.mpg,gate,5,A,Pink_Noise_5_1.wav,Pink_Noise_5_2.wav,,,,,,,,,,,,,,,0,10,10,13,,,,,,,,,,,,,,,,,,,,,,,149.18246444199758,None,150.68218036399776,None,152.06572749100087,None,gate,152.06572749100087,None,return,1.9898555350009701,152.14901873000053,None,,,,,,,,,,,,,,,,,,,,,,,,,,,,,,,,,112,001,2023_Jun_01_1130,SpeechDraft1Carolyn_lessNoise_PlusLocalization,2021.2.3,60.02600422515495,
bee.wav,bee.mpg,bee,3,A,Pink_Noise_3_1.wav,Pink_Noise_3_2.wav,,,,,,,,,,,,,,,0,11,11,31,,,,,,,,,,,,,,,,,,,,,,,154.1656979549989,None,155.64888789600082,None,157.03236537299745,None,bee[,157.03236537299745,None,return,2.7430403049984307,157.11570508799923,None,,,,,,,,,,,,,,,,,,,,,,,,,,,,,,,,,112,001,2023_Jun_01_1130,SpeechDraft1Carolyn_lessNoise_PlusLocalization,2021.2.3,60.02600422515495,
beg.wav,beg.mpg,beg,6,A,Pink_Noise_6_1.wav,Pink_Noise_6_2.wav,,,,,,,,,,,,,,,0,12,12,10,,,,,,,,,,,,,,,,,,,,,,,159.88236966199838,None,161.3676056209988,None,162.74911142099882,None,head,162.74911142099882,None,return,2.290315783000551,162.8324802089992,None,,,,,,,,,,,,,,,,,,,,,,,,,,,,,,,,,112,001,2023_Jun_01_1130,SpeechDraft1Carolyn_lessNoise_PlusLocalization,2021.2.3,60.02600422515495,
druid.wav,druid.mpg,druid,2,A,Pink_Noise_2_1.wav,Pink_Noise_2_2.wav,,,,,,,,,,,,,,,0,13,13,47,,,,,,,,,,,,,,,,,,,,,,,165.14940319699963,None,166.63213973999882,None,168.0157442899981,None,truent,168.0157442899981,None,return,21.311781772001268,168.0989767760002,None,,,,,,,,,,,,,,,,,,,,,,,,,,,,,,,,,112,001,2023_Jun_01_1130,SpeechDraft1Carolyn_lessNoise_PlusLocalization,2021.2.3,60.02600422515495,
clock.wav,clock.mpg,clock,2,A,Pink_Noise_2_1.wav,Pink_Noise_2_2.wav,,,,,,,,,,,,,,,0,14,14,43,,,,,,,,,,,,,,,,,,,,,,,189.43237957199744,None,190.93217589900087,None,192.2990910410008,None,clock,192.2990910410008,None,return,3.3722114089978277,192.38260254399938,None,,,,,,,,,,,,,,,,,,,,,,,,,,,,,,,,,112,001,2023_Jun_01_1130,SpeechDraft1Carolyn_lessNoise_PlusLocalization,2021.2.3,60.02600422515495,
fail.wav,fail.mpg,fail,2,AV,Pink_Noise_2_1.wav,Pink_Noise_2_2.wav,,,,,,,,,,,,,,,0,15,15,98,,,,,,,,,,,,,,,,,,,,,,,195.78241871199862,None,197.26558811299765,None,198.64904877200024,None,fai;,198.64904877200024,None,return,5.206547320998652,198.73239478399773,None,,,,,,,,,,,,,,,,,,,,,,,,,,,,,,,,,112,001,2023_Jun_01_1130,SpeechDraft1Carolyn_lessNoise_PlusLocalization,2021.2.3,60.02600422515495,
two.wav,two.mpg,two,6,A,Pink_Noise_6_1.wav,Pink_Noise_6_2.wav,,,,,,,,,,,,,,,0,16,16,39,,,,,,,,,,,,,,,,,,,,,,,203.96574658799727,None,205.45151560799786,None,206.83246028299982,None,"gift
",206.83246028299982,None,return,2.9510053109988803,206.91575073299828,None,,,,,,,,,,,,,,,,,,,,,,,,,,,,,,,,,112,001,2023_Jun_01_1130,SpeechDraft1Carolyn_lessNoise_PlusLocalization,2021.2.3,60.02600422515495,
gross.wav,gross.mpg,gross,2,AV,Pink_Noise_2_1.wav,Pink_Noise_2_2.wav,,,,,,,,,,,,,,,0,17,17,100,,,,,,,,,,,,,,,,,,,,,,,209.89912828699744,None,211.3823020719974,None,212.76573863500016,None,gross,212.76573863500016,None,return,4.289641645998927,212.84915524399912,None,,,,,,,,,,,,,,,,,,,,,,,,,,,,,,,,,112,001,2023_Jun_01_1130,SpeechDraft1Carolyn_lessNoise_PlusLocalization,2021.2.3,60.02600422515495,
drag.wav,drag.mpg,drag,5,A,Pink_Noise_5_1.wav,Pink_Noise_5_2.wav,,,,,,,,,,,,,,,0,18,18,33,,,,,,,,,,,,,,,,,,,,,,,217.16584978699757,None,218.6489803509976,None,220.03245005799909,None,"hi
",220.03245005799909,None,return,5.150919918,220.11581891899914,None,,,,,,,,,,,,,,,,,,,,,,,,,,,,,,,,,112,001,2023_Jun_01_1130,SpeechDraft1Carolyn_lessNoise_PlusLocalization,2021.2.3,60.02600422515495,
bait.wav,bait.mpg,bait,6,A,Pink_Noise_6_1.wav,Pink_Noise_6_2.wav,,,,,,,,,,,,,,,0,19,19,29,,,,,,,,,,,,,,,,,,,,,,,225.2990629699998,None,226.78234245299973,None,228.1658250599976,None,"face
",228.1658250599976,None,return,2.7855148869966797,228.2492469309982,None,,,,,,,,,,,,,,,,,,,,,,,,,,,,,,,,,112,001,2023_Jun_01_1130,SpeechDraft1Carolyn_lessNoise_PlusLocalization,2021.2.3,60.02600422515495,
shrimp.wav,shrimp.mpg,shrimp,6,AV,Pink_Noise_6_1.wav,Pink_Noise_6_2.wav,,,,,,,,,,,,,,,0,20,20,80,,,,,,,,,,,,,,,,,,,,,,,231.06581994899898,None,232.54894024399982,None,233.93251841099845,None,trip,233.93251841099845,None,return,3.2990298189979512,234.01580278999973,None,,,,,,,,,,,,,,,,,,,,,,,,,,,,,,,,,112,001,2023_Jun_01_1130,SpeechDraft1Carolyn_lessNoise_PlusLocalization,2021.2.3,60.02600422515495,
live.wav,live.mpg,live,1,AV,Pink_Noise_1_1.wav,Pink_Noise_1_2.wav,,,,,,,,,,,,,,,0,21,21,119,,,,,,,,,,,,,,,,,,,,,,,237.33254838299763,None,238.83243423900058,None,240.21580845899734,None,live,240.21580845899734,None,return,3.0556630219980434,240.29920355599825,None,,,,,,,,,,,,,,,,,,,,,,,,,,,,,,,,,112,001,2023_Jun_01_1130,SpeechDraft1Carolyn_lessNoise_PlusLocalization,2021.2.3,60.02600422515495,
germ.wav,germ.mpg,germ,3,AV,Pink_Noise_3_1.wav,Pink_Noise_3_2.wav,,,,,,,,,,,,,,,0,22,22,77,,,,,,,,,,,,,,,,,,,,,,,243.3824703499995,None,244.8823173689998,None,246.2657561929991,None,"joe
",246.2657561929991,None,return,2.9175021209994156,246.34925580699928,None,,,,,,,,,,,,,,,,,,,,,,,,,,,,,,,,,112,001,2023_Jun_01_1130,SpeechDraft1Carolyn_lessNoise_PlusLocalization,2021.2.3,60.02600422515495,
cube.wav,cube.mpg,cube,2,AV,Pink_Noise_2_1.wav,Pink_Noise_2_2.wav,,,,,,,,,,,,,,,0,23,23,117,,,,,,,,,,,,,,,,,,,,,,,249.29907766799806,None,250.7842963160001,None,252.1658235520008,None,que,252.1658235520008,None,return,2.0414223980005772,252.24943184999938,None,,,,,,,,,,,,,,,,,,,,,,,,,,,,,,,,,112,001,2023_Jun_01_1130,SpeechDraft1Carolyn_lessNoise_PlusLocalization,2021.2.3,60.02600422515495,
gem.wav,gem.mpg,gem,5,AV,Pink_Noise_5_1.wav,Pink_Noise_5_2.wav,,,,,,,,,,,,,,,0,24,24,113,,,,,,,,,,,,,,,,,,,,,,,254.31582194899966,None,255.79894549899836,None,257.18241715399927,None,gem,257.18241715399927,None,return,1.840882762997353,257.2658643350005,None,,,,,,,,,,,,,,,,,,,,,,,,,,,,,,,,,112,001,2023_Jun_01_1130,SpeechDraft1Carolyn_lessNoise_PlusLocalization,2021.2.3,60.02600422515495,
castle.wav,castle.mpg,castle,4,A,Pink_Noise_4_1.wav,Pink_Noise_4_2.wav,,,,,,,,,,,,,,,0,25,25,2,,,,,,,,,,,,,,,,,,,,,,,259.13254379099817,None,260.61551891400086,None,261.99918625899954,None,hasslr,261.99918625899954,None,return,3.288140607000969,262.0826304869988,None,,,,,,,,,,,,,,,,,,,,,,,,,,,,,,,,,112,001,2023_Jun_01_1130,SpeechDraft1Carolyn_lessNoise_PlusLocalization,2021.2.3,60.02600422515495,
bat.wav,bat.mpg,bat,1,A,Pink_Noise_1_1.wav,Pink_Noise_1_2.wav,,,,,,,,,,,,,,,0,26,26,44,,,,,,,,,,,,,,,,,,,,,,,265.399177583,None,266.89901537699916,None,268.28244391099724,None,bat,268.28244391099724,None,return,1.5647701640009473,268.3660478139973,None,,,,,,,,,,,,,,,,,,,,,,,,,,,,,,,,,112,001,2023_Jun_01_1130,SpeechDraft1Carolyn_lessNoise_PlusLocalization,2021.2.3,60.02600422515495,
flat.wav,flat.mpg,flat,4,A,Pink_Noise_4_1.wav,Pink_Noise_4_2.wav,,,,,,,,,,,,,,,0,27,27,45,,,,,,,,,,,,,,,,,,,,,,,269.949269591998,None,271.4490083569981,None,272.8325373279986,None,"flat
",272.8325373279986,None,return,2.7348477029991045,272.91590420300054,None,,,,,,,,,,,,,,,,,,,,,,,,,,,,,,,,,112,001,2023_Jun_01_1130,SpeechDraft1Carolyn_lessNoise_PlusLocalization,2021.2.3,60.02600422515495,
bail.wav,bail.mpg,bail,1,AV,Pink_Noise_1_1.wav,Pink_Noise_1_2.wav,,,,,,,,,,,,,,,0,28,28,81,,,,,,,,,,,,,,,,,,,,,,,275.6825139979992,None,277.1656607179975,None,278.5491331129997,None,bail,278.5491331129997,None,return,3.3063160150013573,278.6325215709985,None,,,,,,,,,,,,,,,,,,,,,,,,,,,,,,,,,112,001,2023_Jun_01_1130,SpeechDraft1Carolyn_lessNoise_PlusLocalization,2021.2.3,60.02600422515495,
cold.wav,cold.mpg,cold,4,A,Pink_Noise_4_1.wav,Pink_Noise_4_2.wav,,,,,,,,,,,,,,,0,29,29,35,,,,,,,,,,,,,,,,,,,,,,,281.9658857760005,None,283.4657578829974,None,284.8492106550002,None,hands,284.8492106550002,None,return,2.278263360996789,284.93250205799995,None,,,,,,,,,,,,,,,,,,,,,,,,,,,,,,,,,112,001,2023_Jun_01_1130,SpeechDraft1Carolyn_lessNoise_PlusLocalization,2021.2.3,60.02600422515495,
fluff.wav,fluff.mpg,fluff,1,A,Pink_Noise_1_1.wav,Pink_Noise_1_2.wav,,,,,,,,,,,,,,,0,30,30,48,,,,,,,,,,,,,,,,,,,,,,,287.2326202939985,None,288.7324346889982,None,290.11587004600005,None,fluff,290.11587004600005,None,return,3.059585884999251,290.19920954400004,None,,,,,,,,,,,,,,,,,,,,,,,,,,,,,,,,,112,001,2023_Jun_01_1130,SpeechDraft1Carolyn_lessNoise_PlusLocalization,2021.2.3,60.02600422515495,
pants.wav,pants.mpg,pants,1,AV,Pink_Noise_1_1.wav,Pink_Noise_1_2.wav,,,,,,,,,,,,,,,0,31,31,95,,,,,,,,,,,,,,,,,,,,,,,293.28256717099794,None,294.76622460499857,None,296.1492384789999,None,pants,296.1492384789999,None,return,6.410143868000887,296.2326004909992,None,,,,,,,,,,,,,,,,,,,,,,,,,,,,,,,,,112,001,2023_Jun_01_1130,SpeechDraft1Carolyn_lessNoise_PlusLocalization,2021.2.3,60.02600422515495,
bulb.wav,bulb.mpg,bulb,1,AV,Pink_Noise_1_1.wav,Pink_Noise_1_2.wav,,,,,,,,,,,,,,,0,32,32,108,,,,,,,,,,,,,,,,,,,,,,,302.6659838029991,None,304.1657575479985,None,305.5491403550004,None,bulb,305.5491403550004,None,return,3.322332997999183,305.63253094099855,None,,,,,,,,,,,,,,,,,,,,,,,,,,,,,,,,,112,001,2023_Jun_01_1130,SpeechDraft1Carolyn_lessNoise_PlusLocalization,2021.2.3,60.02600422515495,
game.wav,game.mpg,game,3,AV,Pink_Noise_3_1.wav,Pink_Noise_3_2.wav,,,,,,,,,,,,,,,0,33,33,62,,,,,,,,,,,,,,,,,,,,,,,308.9826690869995,None,310.48241703500025,None,311.86606023700006,None,game,311.86606023700006,None,return,1.3815755619980337,311.9492271119998,None,,,,,,,,,,,,,,,,,,,,,,,,,,,,,,,,,112,001,2023_Jun_01_1130,SpeechDraft1Carolyn_lessNoise_PlusLocalization,2021.2.3,60.02600422515495,
dad.wav,dad.mpg,dad,3,A,Pink_Noise_3_1.wav,Pink_Noise_3_2.wav,,,,,,,,,,,,,,,0,34,34,46,,,,,,,,,,,,,,,,,,,,,,,313.34922143199947,None,314.8323468769995,None,316.21590053899854,None,dad,316.21590053899854,None,return,1.4315045090006606,316.29928970900073,None,,,,,,,,,,,,,,,,,,,,,,,,,,,,,,,,,112,001,2023_Jun_01_1130,SpeechDraft1Carolyn_lessNoise_PlusLocalization,2021.2.3,60.02600422515495,
flank.wav,flank.mpg,flank,5,A,Pink_Noise_5_1.wav,Pink_Noise_5_2.wav,,,,,,,,,,,,,,,0,35,35,32,,,,,,,,,,,,,,,,,,,,,,,317.74932144899867,None,319.2324929290007,None,320.61590720800086,None,plank,320.61590720800086,None,return,3.279450766000082,320.6992985709985,None,,,,,,,,,,,,,,,,,,,,,,,,,,,,,,,,,112,001,2023_Jun_01_1130,SpeechDraft1Carolyn_lessNoise_PlusLocalization,2021.2.3,60.02600422515495,
grim.wav,grim.mpg,grim,6,AV,Pink_Noise_6_1.wav,Pink_Noise_6_2.wav,,,,,,,,,,,,,,,0,36,36,67,,,,,,,,,,,,,,,,,,,,,,,323.9993083619993,None,325.49910423300025,None,326.88273912599834,None,"shrimp
",326.88273912599834,None,return,5.900830385002337,326.96591182799966,None,,,,,,,,,,,,,,,,,,,,,,,,,,,,,,,,,112,001,2023_Jun_01_1130,SpeechDraft1Carolyn_lessNoise_PlusLocalization,2021.2.3,60.02600422515495,
bun.wav,bun.mpg,bun,4,AV,Pink_Noise_4_1.wav,Pink_Noise_4_2.wav,,,,,,,,,,,,,,,0,37,37,116,,,,,,,,,,,,,,,,,,,,,,,332.8992894910007,None,334.3994311610004,None,335.7826099539998,None,bun,335.7826099539998,None,return,3.7926789420016576,335.86606768099955,None,,,,,,,,,,,,,,,,,,,,,,,,,,,,,,,,,112,001,2023_Jun_01_1130,SpeechDraft1Carolyn_lessNoise_PlusLocalization,2021.2.3,60.02600422515495,
dice.wav,dice.mpg,dice,4,AV,Pink_Noise_4_1.wav,Pink_Noise_4_2.wav,,,,,,,,,,,,,,,0,38,38,70,,,,,,,,,,,,,,,,,,,,,,,339.6826383619991,None,341.1825474750003,None,342.5658571469976,None,dice,342.5658571469976,None,return,2.3055785609976738,342.64928722699915,None,,,,,,,,,,,,,,,,,,,,,,,,,,,,,,,,,112,001,2023_Jun_01_1130,SpeechDraft1Carolyn_lessNoise_PlusLocalization,2021.2.3,60.02600422515495,
strive.wav,strive.mpg,strive,4,AV,Pink_Noise_4_1.wav,Pink_Noise_4_2.wav,,,,,,,,,,,,,,,0,39,39,61,,,,,,,,,,,,,,,,,,,,,,,344.982587909999,None,346.4683927799997,None,347.84935074999885,None,strive,347.84935074999885,None,return,3.238192852000793,347.9326467819992,None,,,,,,,,,,,,,,,,,,,,,,,,,,,,,,,,,112,001,2023_Jun_01_1130,SpeechDraft1Carolyn_lessNoise_PlusLocalization,2021.2.3,60.02600422515495,
phase.wav,phase.mpg,phase,3,A,Pink_Noise_3_1.wav,Pink_Noise_3_2.wav,,,,,,,,,,,,,,,0,40,40,27,,,,,,,,,,,,,,,,,,,,,,,351.19948884399855,None,352.69907047299785,None,354.08273775400085,None,"fades
",354.08273775400085,None,return,3.6527389059992856,354.1660100929985,None,,,,,,,,,,,,,,,,,,,,,,,,,,,,,,,,,112,001,2023_Jun_01_1130,SpeechDraft1Carolyn_lessNoise_PlusLocalization,2021.2.3,60.02600422515495,
bed.wav,bed.mpg,bed,4,A,Pink_Noise_4_1.wav,Pink_Noise_4_2.wav,,,,,,,,,,,,,,,0,41,41,42,,,,,,,,,,,,,,,,,,,,,,,357.8492864159998,None,359.34902793199944,None,360.7326464029975,None,beg,360.7326464029975,None,return,1.6267553389989189,360.81598158400084,None,,,,,,,,,,,,,,,,,,,,,,,,,,,,,,,,,112,001,2023_Jun_01_1130,SpeechDraft1Carolyn_lessNoise_PlusLocalization,2021.2.3,60.02600422515495,
dance.wav,dance.mpg,dance,3,A,Pink_Noise_3_1.wav,Pink_Noise_3_2.wav,,,,,,,,,,,,,,,0,42,42,20,,,,,,,,,,,,,,,,,,,,,,,362.46596427799886,None,363.9658062749986,None,365.3493269799983,None,dance,365.3493269799983,None,return,2.842099022000184,365.43264617399836,None,,,,,,,,,,,,,,,,,,,,,,,,,,,,,,,,,112,001,2023_Jun_01_1130,SpeechDraft1Carolyn_lessNoise_PlusLocalization,2021.2.3,60.02600422515495,
grunt.wav,grunt.mpg,grunt,3,AV,Pink_Noise_3_1.wav,Pink_Noise_3_2.wav,,,,,,,,,,,,,,,0,43,43,84,,,,,,,,,,,,,,,,,,,,,,,368.29935339299846,None,369.7999452570002,None,371.1826492449982,None,hut,371.1826492449982,None,return,13.520612830001483,371.2661420669974,None,,,,,,,,,,,,,,,,,,,,,,,,,,,,,,,,,112,001,2023_Jun_01_1130,SpeechDraft1Carolyn_lessNoise_PlusLocalization,2021.2.3,60.02600422515495,
buff.wav,buff.mpg,buff,1,AV,Pink_Noise_1_1.wav,Pink_Noise_1_2.wav,,,,,,,,,,,,,,,0,44,44,63,,,,,,,,,,,,,,,,,,,,,,,384.815992025,None,386.3158751150004,None,387.69933746699826,None,buff,387.69933746699826,None,return,1.060066955997172,387.7826773579982,None,,,,,,,,,,,,,,,,,,,,,,,,,,,,,,,,,112,001,2023_Jun_01_1130,SpeechDraft1Carolyn_lessNoise_PlusLocalization,2021.2.3,60.02600422515495,
chop.wav,chop.mpg,chop,2,A,Pink_Noise_2_1.wav,Pink_Noise_2_2.wav,,,,,,,,,,,,,,,0,45,45,4,,,,,,,,,,,,,,,,,,,,,,,388.8661384169973,None,390.3661442749981,None,391.74942685899805,None,chop,391.74942685899805,None,return,1.7140463389987417,391.83271167400017,None,,,,,,,,,,,,,,,,,,,,,,,,,,,,,,,,,112,001,2023_Jun_01_1130,SpeechDraft1Carolyn_lessNoise_PlusLocalization,2021.2.3,60.02600422515495,
greek.wav,greek.mpg,greek,1,AV,Pink_Noise_1_1.wav,Pink_Noise_1_2.wav,,,,,,,,,,,,,,,0,46,46,90,,,,,,,,,,,,,,,,,,,,,,,393.5660043149983,None,395.05089448999934,None,396.4326578529981,None,greek,396.4326578529981,None,return,1.2947546190007415,396.51599830399937,None,,,,,,,,,,,,,,,,,,,,,,,,,,,,,,,,,112,001,2023_Jun_01_1130,SpeechDraft1Carolyn_lessNoise_PlusLocalization,2021.2.3,60.02600422515495,
grin.wav,grin.mpg,grin,2,AV,Pink_Noise_2_1.wav,Pink_Noise_2_2.wav,,,,,,,,,,,,,,,0,47,47,118,,,,,,,,,,,,,,,,,,,,,,,397.83271642899854,None,399.3325828889974,None,400.7171055109975,None,grin,400.7171055109975,None,return,3.6833376020003925,400.79940620900015,None,,,,,,,,,,,,,,,,,,,,,,,,,,,,,,,,,112,001,2023_Jun_01_1130,SpeechDraft1Carolyn_lessNoise_PlusLocalization,2021.2.3,60.02600422515495,
leapt.wav,leapt.mpg,leapt,6,AV,Pink_Noise_6_1.wav,Pink_Noise_6_2.wav,,,,,,,,,,,,,,,0,48,48,96,,,,,,,,,,,,,,,,,,,,,,,404.4994123689976,None,405.99914907399943,None,407.38261602299826,None,left,407.38261602299826,None,return,4.0726444630017795,407.4661776489993,None,,,,,,,,,,,,,,,,,,,,,,,,,,,,,,,,,112,001,2023_Jun_01_1130,SpeechDraft1Carolyn_lessNoise_PlusLocalization,2021.2.3,60.02600422515495,
drug.wav,drug.mpg,drug,1,AV,Pink_Noise_1_1.wav,Pink_Noise_1_2.wav,,,,,,,,,,,,,,,0,49,49,73,,,,,,,,,,,,,,,,,,,,,,,411.56608089699876,None,413.0659028259979,None,414.44927439099774,None,drug,414.44927439099774,None,return,1.92585611100003,414.53289632700034,None,,,,,,,,,,,,,,,,,,,,,,,,,,,,,,,,,112,001,2023_Jun_01_1130,SpeechDraft1Carolyn_lessNoise_PlusLocalization,2021.2.3,60.02600422515495,
fork.wav,fork.mpg,fork,5,AV,Pink_Noise_5_1.wav,Pink_Noise_5_2.wav,,,,,,,,,,,,,,,0,50,50,104,,,,,,,,,,,,,,,,,,,,,,,416.48271286599993,None,417.9824907559996,None,419.3662218469981,None,"fork
",419.3662218469981,None,return,1.3532400939984655,419.4495414439989,None,,,,,,,,,,,,,,,,,,,,,,,,,,,,,,,,,112,001,2023_Jun_01_1130,SpeechDraft1Carolyn_lessNoise_PlusLocalization,2021.2.3,60.02600422515495,
food.wav,food.mpg,food,2,AV,Pink_Noise_2_1.wav,Pink_Noise_2_2.wav,,,,,,,,,,,,,,,0,51,51,69,,,,,,,,,,,,,,,,,,,,,,,420.8327263840001,None,422.3326178290008,None,423.7159658499986,None,"food
",423.7159658499986,None,return,0.9873689069972897,423.79938727400076,None,,,,,,,,,,,,,,,,,,,,,,,,,,,,,,,,,112,001,2023_Jun_01_1130,SpeechDraft1Carolyn_lessNoise_PlusLocalization,2021.2.3,60.02600422515495,
brick.wav,brick.mpg,brick,6,AV,Pink_Noise_6_1.wav,Pink_Noise_6_2.wav,,,,,,,,,,,,,,,0,52,52,107,,,,,,,,,,,,,,,,,,,,,,,424.8160123029993,None,426.3158619370006,None,427.6994765140007,None,bick,427.6994765140007,None,return,1.9160720330000913,427.78276758100037,None,,,,,,,,,,,,,,,,,,,,,,,,,,,,,,,,,112,001,2023_Jun_01_1130,SpeechDraft1Carolyn_lessNoise_PlusLocalization,2021.2.3,60.02600422515495,
bust.wav,bust.mpg,bust,2,AV,Pink_Noise_2_1.wav,Pink_Noise_2_2.wav,,,,,,,,,,,,,,,0,53,53,85,,,,,,,,,,,,,,,,,,,,,,,429.71657444099765,None,431.21576983900013,None,432.599354607999,None,bust,432.599354607999,None,return,1.1920730730016658,432.6827394889988,None,,,,,,,,,,,,,,,,,,,,,,,,,,,,,,,,,112,001,2023_Jun_01_1130,SpeechDraft1Carolyn_lessNoise_PlusLocalization,2021.2.3,60.02600422515495,
coy.wav,coy.mpg,coy,6,A,Pink_Noise_6_1.wav,Pink_Noise_6_2.wav,,,,,,,,,,,,,,,0,54,54,55,,,,,,,,,,,,,,,,,,,,,,,433.8994604590007,None,435.3853622479983,None,436.78288107299886,None,fork,436.78288107299886,None,return,0.8882859969999117,436.86656313300045,None,,,,,,,,,,,,,,,,,,,,,,,,,,,,,,,,,112,001,2023_Jun_01_1130,SpeechDraft1Carolyn_lessNoise_PlusLocalization,2021.2.3,60.02600422515495,
globe.wav,globe.mpg,globe,3,AV,Pink_Noise_3_1.wav,Pink_Noise_3_2.wav,,,,,,,,,,,,,,,0,55,55,91,,,,,,,,,,,,,,,,,,,,,,,437.7827687579993,None,439.2825319589974,None,440.66622437499973,None,globe,440.66622437499973,None,return,1.2055445250007324,440.7493232489978,None,,,,,,,,,,,,,,,,,,,,,,,,,,,,,,,,,112,001,2023_Jun_01_1130,SpeechDraft1Carolyn_lessNoise_PlusLocalization,2021.2.3,60.02600422515495,
badge.wav,badge.mpg,badge,5,AV,Pink_Noise_5_1.wav,Pink_Noise_5_2.wav,,,,,,,,,,,,,,,0,56,56,79,,,,,,,,,,,,,,,,,,,,,,,441.98288668999885,None,443.4825620070005,None,444.8663826359989,None,bash,444.8663826359989,None,return,1.4213285690020712,444.9494276810001,None,,,,,,,,,,,,,,,,,,,,,,,,,,,,,,,,,112,001,2023_Jun_01_1130,SpeechDraft1Carolyn_lessNoise_PlusLocalization,2021.2.3,60.02600422515495,
cease.wav,cease.mpg,cease,3,A,Pink_Noise_3_1.wav,Pink_Noise_3_2.wav,,,,,,,,,,,,,,,0,57,57,52,,,,,,,,,,,,,,,,,,,,,,,446.3994596429984,None,447.8991382739987,None,449.28290013199876,None,cease,449.28290013199876,None,return,1.308400972000527,449.36637437699756,None,,,,,,,,,,,,,,,,,,,,,,,,,,,,,,,,,112,001,2023_Jun_01_1130,SpeechDraft1Carolyn_lessNoise_PlusLocalization,2021.2.3,60.02600422515495,
crude.wav,crude.mpg,crude,6,A,Pink_Noise_6_1.wav,Pink_Noise_6_2.wav,,,,,,,,,,,,,,,0,58,58,17,,,,,,,,,,,,,,,,,,,,,,,450.6993915649982,None,452.199195186,None,453.5827298479999,None,fork,453.5827298479999,None,return,1.7766409710020525,453.66614755000046,None,,,,,,,,,,,,,,,,,,,,,,,,,,,,,,,,,112,001,2023_Jun_01_1130,SpeechDraft1Carolyn_lessNoise_PlusLocalization,2021.2.3,60.02600422515495,
dump.wav,dump.mpg,dump,6,A,Pink_Noise_6_1.wav,Pink_Noise_6_2.wav,,,,,,,,,,,,,,,0,59,59,41,,,,,,,,,,,,,,,,,,,,,,,455.46628725799746,None,456.9660007499988,None,458.3495324289979,None,"duck
",458.3495324289979,None,return,0.9860409629982314,458.4327091999985,None,,,,,,,,,,,,,,,,,,,,,,,,,,,,,,,,,112,001,2023_Jun_01_1130,SpeechDraft1Carolyn_lessNoise_PlusLocalization,2021.2.3,60.02600422515495,
four.wav,four.mpg,four,2,A,Pink_Noise_2_1.wav,Pink_Noise_2_2.wav,,,,,,,,,,,,,,,0,60,60,24,,,,,,,,,,,,,,,,,,,,,,,459.4494544939989,None,460.949290362998,None,462.33284316199934,None,boy,462.33284316199934,None,return,1.9467303739984345,462.4161329319977,None,,,,,,,,,,,,,,,,,,,,,,,,,,,,,,,,,112,001,2023_Jun_01_1130,SpeechDraft1Carolyn_lessNoise_PlusLocalization,2021.2.3,60.02600422515495,
cart.wav,cart.mpg,cart,5,A,Pink_Noise_5_1.wav,Pink_Noise_5_2.wav,,,,,,,,,,,,,,,0,61,61,25,,,,,,,,,,,,,,,,,,,,,,,464.38292343099965,None,465.8828155919982,None,467.2661338939979,None,touch,467.2661338939979,None,return,2.7253433559999394,467.34939710899926,None,,,,,,,,,,,,,,,,,,,,,,,,,,,,,,,,,112,001,2023_Jun_01_1130,SpeechDraft1Carolyn_lessNoise_PlusLocalization,2021.2.3,60.02600422515495,
drain.wav,drain.mpg,drain,3,A,Pink_Noise_3_1.wav,Pink_Noise_3_2.wav,,,,,,,,,,,,,,,0,62,62,37,,,,,,,,,,,,,,,,,,,,,,,470.0997116569997,None,471.59924781099835,None,472.98282319200007,None,drain,472.98282319200007,None,return,1.4886099680006737,473.0661891620002,None,,,,,,,,,,,,,,,,,,,,,,,,,,,,,,,,,112,001,2023_Jun_01_1130,SpeechDraft1Carolyn_lessNoise_PlusLocalization,2021.2.3,60.02600422515495,
dune.wav,dune.mpg,dune,4,AV,Pink_Noise_4_1.wav,Pink_Noise_4_2.wav,,,,,,,,,,,,,,,0,63,63,88,,,,,,,,,,,,,,,,,,,,,,,474.5828031099991,None,476.08270177300074,None,477.46603905200027,None,dune,477.46603905200027,None,return,0.9492925400008971,477.5495113939978,None,,,,,,,,,,,,,,,,,,,,,,,,,,,,,,,,,112,001,2023_Jun_01_1130,SpeechDraft1Carolyn_lessNoise_PlusLocalization,2021.2.3,60.02600422515495,
eat.wav,eat.mpg,eat,6,AV,Pink_Noise_6_1.wav,Pink_Noise_6_2.wav,,,,,,,,,,,,,,,0,64,64,111,,,,,,,,,,,,,,,,,,,,,,,478.5163409279994,None,480.0159130360007,None,481.39947753199885,None,eat,481.39947753199885,None,return,1.4238085149991093,481.4829826839996,None,,,,,,,,,,,,,,,,,,,,,,,,,,,,,,,,,112,001,2023_Jun_01_1130,SpeechDraft1Carolyn_lessNoise_PlusLocalization,2021.2.3,60.02600422515495,
gloom.wav,gloom.mpg,gloom,4,A,Pink_Noise_4_1.wav,Pink_Noise_4_2.wav,,,,,,,,,,,,,,,0,65,65,6,,,,,,,,,,,,,,,,,,,,,,,482.93297816300037,None,484.4325854710005,None,485.81623599999875,None,"gloom
",485.81623599999875,None,return,2.1032818659987242,485.8994853259974,None,,,,,,,,,,,,,,,,,,,,,,,,,,,,,,,,,112,001,2023_Jun_01_1130,SpeechDraft1Carolyn_lessNoise_PlusLocalization,2021.2.3,60.02600422515495,
bond.wav,bond.mpg,bond,4,AV,Pink_Noise_4_1.wav,Pink_Noise_4_2.wav,,,,,,,,,,,,,,,0,66,66,97,,,,,,,,,,,,,,,,,,,,,,,488.03290514699984,None,489.5326537769979,None,490.91619008400085,None,buy,490.91619008400085,None,return,1.5153889700013679,490.9994609130008,None,,,,,,,,,,,,,,,,,,,,,,,,,,,,,,,,,112,001,2023_Jun_01_1130,SpeechDraft1Carolyn_lessNoise_PlusLocalization,2021.2.3,60.02600422515495,
blank.wav,blank.mpg,blank,3,AV,Pink_Noise_3_1.wav,Pink_Noise_3_2.wav,,,,,,,,,,,,,,,0,67,67,71,,,,,,,,,,,,,,,,,,,,,,,492.5328128410001,None,494.03275638299965,None,495.4161408769978,None,blank,495.4161408769978,None,return,1.2553269810014172,495.4994737349989,None,,,,,,,,,,,,,,,,,,,,,,,,,,,,,,,,,112,001,2023_Jun_01_1130,SpeechDraft1Carolyn_lessNoise_PlusLocalization,2021.2.3,60.02600422515495,
fad.wav,fad.mpg,fad,5,A,Pink_Noise_5_1.wav,Pink_Noise_5_2.wav,,,,,,,,,,,,,,,0,68,68,49,,,,,,,,,,,,,,,,,,,,,,,496.7828258849986,None,498.2827594449991,None,499.6661713859976,None,mad,499.6661713859976,None,return,3.109192615000211,499.7495476539989,None,,,,,,,,,,,,,,,,,,,,,,,,,,,,,,,,,112,001,2023_Jun_01_1130,SpeechDraft1Carolyn_lessNoise_PlusLocalization,2021.2.3,60.02600422515495,
flush.wav,flush.mpg,flush,5,AV,Pink_Noise_5_1.wav,Pink_Noise_5_2.wav,,,,,,,,,,,,,,,0,69,69,114,,,,,,,,,,,,,,,,,,,,,,,502.8828711690003,None,504.38266950400066,None,505.7661097409982,None,flush,505.7661097409982,None,return,2.7212715319983545,505.8494856649995,None,,,,,,,,,,,,,,,,,,,,,,,,,,,,,,,,,112,001,2023_Jun_01_1130,SpeechDraft1Carolyn_lessNoise_PlusLocalization,2021.2.3,60.02600422515495,
coil.wav,coil.mpg,coil,4,AV,Pink_Noise_4_1.wav,Pink_Noise_4_2.wav,,,,,,,,,,,,,,,0,70,70,64,,,,,,,,,,,,,,,,,,,,,,,508.5995506129984,None,510.09952901900033,None,511.4827296609983,None,coil,511.4827296609983,None,return,1.0925294180015044,511.5662319639996,None,,,,,,,,,,,,,,,,,,,,,,,,,,,,,,,,,112,001,2023_Jun_01_1130,SpeechDraft1Carolyn_lessNoise_PlusLocalization,2021.2.3,60.02600422515495,
farm.wav,farm.mpg,farm,6,A,Pink_Noise_6_1.wav,Pink_Noise_6_2.wav,,,,,,,,,,,,,,,0,71,71,23,,,,,,,,,,,,,,,,,,,,,,,512.682856217998,None,514.1672581499988,None,515.5495962460009,None,bud,515.5495962460009,None,return,2.53008248200058,515.6328664659995,None,,,,,,,,,,,,,,,,,,,,,,,,,,,,,,,,,112,001,2023_Jun_01_1130,SpeechDraft1Carolyn_lessNoise_PlusLocalization,2021.2.3,60.02600422515495,
cruel.wav,cruel.mpg,cruel,5,A,Pink_Noise_5_1.wav,Pink_Noise_5_2.wav,,,,,,,,,,,,,,,0,72,72,59,,,,,,,,,,,,,,,,,,,,,,,518.1830023090006,None,519.6826085889988,None,521.0662996319988,None,cool,521.0662996319988,None,return,2.3653149630008556,521.1494789049975,None,,,,,,,,,,,,,,,,,,,,,,,,,,,,,,,,,112,001,2023_Jun_01_1130,SpeechDraft1Carolyn_lessNoise_PlusLocalization,2021.2.3,60.02600422515495,
blur.wav,blur.mpg,blur,6,A,Pink_Noise_6_1.wav,Pink_Noise_6_2.wav,,,,,,,,,,,,,,,0,73,73,9,,,,,,,,,,,,,,,,,,,,,,,523.5328741989979,None,525.0326547859986,None,526.4162311539985,None,splurge,526.4162311539985,None,return,3.726984242999606,526.499758304999,None,,,,,,,,,,,,,,,,,,,,,,,,,,,,,,,,,112,001,2023_Jun_01_1130,SpeechDraft1Carolyn_lessNoise_PlusLocalization,2021.2.3,60.02600422515495,
cough.wav,cough.mpg,cough,1,AV,Pink_Noise_1_1.wav,Pink_Noise_1_2.wav,,,,,,,,,,,,,,,0,74,74,92,,,,,,,,,,,,,,,,,,,,,,,530.2496091289977,None,531.7493488189975,None,533.1328521879987,None,"cough
",533.1328521879987,None,return,3.970585162998759,533.2161690079993,None,,,,,,,,,,,,,,,,,,,,,,,,,,,,,,,,,112,001,2023_Jun_01_1130,SpeechDraft1Carolyn_lessNoise_PlusLocalization,2021.2.3,60.02600422515495,
bay.wav,bay.mpg,bay,5,AV,Pink_Noise_5_1.wav,Pink_Noise_5_2.wav,,,,,,,,,,,,,,,0,75,75,60,,,,,,,,,,,,,,,,,,,,,,,537.216315280999,None,538.7162249129979,None,540.0994998969982,None,"bang
",540.0994998969982,None,return,1.4038387830005377,540.1829176909996,None,,,,,,,,,,,,,,,,,,,,,,,,,,,,,,,,,112,001,2023_Jun_01_1130,SpeechDraft1Carolyn_lessNoise_PlusLocalization,2021.2.3,60.02600422515495,
gum.wav,gum.mpg,gum,6,AV,Pink_Noise_6_1.wav,Pink_Noise_6_2.wav,,,,,,,,,,,,,,,0,76,76,72,,,,,,,,,,,,,,,,,,,,,,,541.6161958320008,None,543.1160429509982,None,544.4994939629978,None,gum,544.4994939629978,None,return,1.1238403400020616,544.5829632919995,None,,,,,,,,,,,,,,,,,,,,,,,,,,,,,,,,,112,001,2023_Jun_01_1130,SpeechDraft1Carolyn_lessNoise_PlusLocalization,2021.2.3,60.02600422515495,
cap.wav,cap.mpg,cap,5,AV,Pink_Noise_5_1.wav,Pink_Noise_5_2.wav,,,,,,,,,,,,,,,0,77,77,86,,,,,,,,,,,,,,,,,,,,,,,545.7329379099974,None,547.2327397709996,None,548.6162583149999,None,"cap
",548.6162583149999,None,return,1.3191429280013836,548.6996231619996,None,,,,,,,,,,,,,,,,,,,,,,,,,,,,,,,,,112,001,2023_Jun_01_1130,SpeechDraft1Carolyn_lessNoise_PlusLocalization,2021.2.3,60.02600422515495,
earth.wav,earth.mpg,earth,1,A,Pink_Noise_1_1.wav,Pink_Noise_1_2.wav,,,,,,,,,,,,,,,0,78,78,8,,,,,,,,,,,,,,,,,,,,,,,550.0495488439992,None,551.5509659739982,None,552.9329533220007,None,earth,552.9329533220007,None,return,2.194503757000348,553.016220218,None,,,,,,,,,,,,,,,,,,,,,,,,,,,,,,,,,112,001,2023_Jun_01_1130,SpeechDraft1Carolyn_lessNoise_PlusLocalization,2021.2.3,60.02600422515495,
bar.wav,bar.mpg,bar,4,A,Pink_Noise_4_1.wav,Pink_Noise_4_2.wav,,,,,,,,,,,,,,,0,79,79,16,,,,,,,,,,,,,,,,,,,,,,,555.2329974569984,None,556.732728166,None,558.1163418869983,None,eye,558.1163418869983,None,return,0.9951726050021534,558.1995822770004,None,,,,,,,,,,,,,,,,,,,,,,,,,,,,,,,,,112,001,2023_Jun_01_1130,SpeechDraft1Carolyn_lessNoise_PlusLocalization,2021.2.3,60.02600422515495,
none.wav,none.mpg,none,1,AV,Pink_Noise_1_1.wav,Pink_Noise_1_2.wav,,,,,,,,,,,,,,,0,80,80,105,,,,,,,,,,,,,,,,,,,,,,,559.2162264459985,None,560.7160353039981,None,562.0996405000005,None,"none
",562.0996405000005,None,return,1.2518042470001092,562.1829538630009,None,,,,,,,,,,,,,,,,,,,,,,,,,,,,,,,,,112,001,2023_Jun_01_1130,SpeechDraft1Carolyn_lessNoise_PlusLocalization,2021.2.3,60.02600422515495,
freak.wav,freak.mpg,freak,2,A,Pink_Noise_2_1.wav,Pink_Noise_2_2.wav,,,,,,,,,,,,,,,0,81,81,3,,,,,,,,,,,,,,,,,,,,,,,563.4662847189975,None,564.9660054800006,None,566.3496349189991,None,freak,566.3496349189991,None,return,1.681915632001619,566.4329340269978,None,,,,,,,,,,,,,,,,,,,,,,,,,,,,,,,,,112,001,2023_Jun_01_1130,SpeechDraft1Carolyn_lessNoise_PlusLocalization,2021.2.3,60.02600422515495,
thief.wav,thief.mpg,thief,6,AV,Pink_Noise_6_1.wav,Pink_Noise_6_2.wav,,,,,,,,,,,,,,,0,82,82,99,,,,,,,,,,,,,,,,,,,,,,,568.1329523669992,None,569.6493710899995,None,571.0329051900007,None,fish,571.0329051900007,None,return,2.7664714499987895,571.1163739059994,None,,,,,,,,,,,,,,,,,,,,,,,,,,,,,,,,,112,001,2023_Jun_01_1130,SpeechDraft1Carolyn_lessNoise_PlusLocalization,2021.2.3,60.02600422515495,
grail.wav,grail.mpg,grail,4,AV,Pink_Noise_4_1.wav,Pink_Noise_4_2.wav,,,,,,,,,,,,,,,0,83,83,101,,,,,,,,,,,,,,,,,,,,,,,573.8995927010001,None,575.3995015859982,None,576.7829875399984,None,grail,576.7829875399984,None,return,2.112280525998358,576.8664626360005,None,,,,,,,,,,,,,,,,,,,,,,,,,,,,,,,,,112,001,2023_Jun_01_1130,SpeechDraft1Carolyn_lessNoise_PlusLocalization,2021.2.3,60.02600422515495,
skull.wav,skull.mpg,skull,1,A,Pink_Noise_1_1.wav,Pink_Noise_1_2.wav,,,,,,,,,,,,,,,0,84,84,26,,,,,,,,,,,,,,,,,,,,,,,578.9997088069977,None,580.4993609449994,None,581.8830670409989,None,skull,581.8830670409989,None,return,1.5805586130009033,581.9662669280006,None,,,,,,,,,,,,,,,,,,,,,,,,,,,,,,,,,112,001,2023_Jun_01_1130,SpeechDraft1Carolyn_lessNoise_PlusLocalization,2021.2.3,60.02600422515495,
fast.wav,fast.mpg,fast,3,A,Pink_Noise_3_1.wav,Pink_Noise_3_2.wav,,,,,,,,,,,,,,,0,85,85,21,,,,,,,,,,,,,,,,,,,,,,,583.566388362,None,585.0660870799984,None,586.4496259009975,None,fast,586.4496259009975,None,return,1.037758145997941,586.532989512998,None,,,,,,,,,,,,,,,,,,,,,,,,,,,,,,,,,112,001,2023_Jun_01_1130,SpeechDraft1Carolyn_lessNoise_PlusLocalization,2021.2.3,60.02600422515495,
film.wav,film.mpg,film,2,A,Pink_Noise_2_1.wav,Pink_Noise_2_2.wav,,,,,,,,,,,,,,,0,86,86,56,,,,,,,,,,,,,,,,,,,,,,,587.5996780719979,None,589.132801765998,None,590.5163099989986,None,"film
",590.5163099989986,None,return,1.4351186029998644,590.5996268300005,None,,,,,,,,,,,,,,,,,,,,,,,,,,,,,,,,,112,001,2023_Jun_01_1130,SpeechDraft1Carolyn_lessNoise_PlusLocalization,2021.2.3,60.02600422515495,
fried.wav,fried.mpg,fried,4,AV,Pink_Noise_4_1.wav,Pink_Noise_4_2.wav,,,,,,,,,,,,,,,0,87,87,78,,,,,,,,,,,,,,,,,,,,,,,592.0662850970002,None,593.5662355299974,None,594.9495542119985,None,ride,594.9495542119985,None,return,1.4738906729980954,595.032960556,None,,,,,,,,,,,,,,,,,,,,,,,,,,,,,,,,,112,001,2023_Jun_01_1130,SpeechDraft1Carolyn_lessNoise_PlusLocalization,2021.2.3,60.02600422515495,
ear.wav,ear.mpg,ear,5,A,Pink_Noise_5_1.wav,Pink_Noise_5_2.wav,,,,,,,,,,,,,,,0,88,88,34,,,,,,,,,,,,,,,,,,,,,,,596.5329314789997,None,598.0327205229987,None,599.4164092959982,None,eel,599.4164092959982,None,return,1.0632261880018632,599.499640607999,None,,,,,,,,,,,,,,,,,,,,,,,,,,,,,,,,,112,001,2023_Jun_01_1130,SpeechDraft1Carolyn_lessNoise_PlusLocalization,2021.2.3,60.02600422515495,
gift.wav,gift.mpg,gift,4,A,Pink_Noise_4_1.wav,Pink_Noise_4_2.wav,,,,,,,,,,,,,,,0,89,89,40,,,,,,,,,,,,,,,,,,,,,,,600.5830226059988,None,602.0827608299987,None,603.4663601440006,None,gift,603.4663601440006,None,return,0.9571713430013915,603.5496806989977,None,,,,,,,,,,,,,,,,,,,,,,,,,,,,,,,,,112,001,2023_Jun_01_1130,SpeechDraft1Carolyn_lessNoise_PlusLocalization,2021.2.3,60.02600422515495,
fish.wav,fish.mpg,fish,4,A,Pink_Noise_4_1.wav,Pink_Noise_4_2.wav,,,,,,,,,,,,,,,0,90,90,50,,,,,,,,,,,,,,,,,,,,,,,604.533015596,None,606.0327348809988,None,607.4163669929985,None,fish,607.4163669929985,None,return,0.7588958269989234,607.4998476969995,None,,,,,,,,,,,,,,,,,,,,,,,,,,,,,,,,,112,001,2023_Jun_01_1130,SpeechDraft1Carolyn_lessNoise_PlusLocalization,2021.2.3,60.02600422515495,
dive.wav,dive.mpg,dive,2,AV,Pink_Noise_2_1.wav,Pink_Noise_2_2.wav,,,,,,,,,,,,,,,0,91,91,109,,,,,,,,,,,,,,,,,,,,,,,608.2830769879984,None,609.7831501719993,None,611.1664034280002,None,dive,611.1664034280002,None,return,1.2491406360022665,611.2497046539975,None,,,,,,,,,,,,,,,,,,,,,,,,,,,,,,,,,112,001,2023_Jun_01_1130,SpeechDraft1Carolyn_lessNoise_PlusLocalization,2021.2.3,60.02600422515495,
bird.wav,bird.mpg,bird,6,A,Pink_Noise_6_1.wav,Pink_Noise_6_2.wav,,,,,,,,,,,,,,,0,92,92,15,,,,,,,,,,,,,,,,,,,,,,,612.516555913,None,614.034085886,None,615.4162425639988,None,earth,615.4162425639988,None,return,2.3270680150017142,615.499664646999,None,,,,,,,,,,,,,,,,,,,,,,,,,,,,,,,,,112,001,2023_Jun_01_1130,SpeechDraft1Carolyn_lessNoise_PlusLocalization,2021.2.3,60.02600422515495,
sake.wav,sake.mpg,sake,6,AV,Pink_Noise_6_1.wav,Pink_Noise_6_2.wav,,,,,,,,,,,,,,,0,93,93,103,,,,,,,,,,,,,,,,,,,,,,,617.8496932739981,None,619.3495052289982,None,620.7329822619977,None,"knee
",620.7329822619977,None,return,2.0183402830007253,620.8164337809976,None,,,,,,,,,,,,,,,,,,,,,,,,,,,,,,,,,112,001,2023_Jun_01_1130,SpeechDraft1Carolyn_lessNoise_PlusLocalization,2021.2.3,60.02600422515495,
boil.wav,boil.mpg,boil,4,AV,Pink_Noise_4_1.wav,Pink_Noise_4_2.wav,,,,,,,,,,,,,,,0,94,94,110,,,,,,,,,,,,,,,,,,,,,,,622.8664633820008,None,624.3664250049987,None,625.7496357319978,None,boil,625.7496357319978,None,return,1.4097579089975625,625.8330158719982,None,,,,,,,,,,,,,,,,,,,,,,,,,,,,,,,,,112,001,2023_Jun_01_1130,SpeechDraft1Carolyn_lessNoise_PlusLocalization,2021.2.3,60.02600422515495,
groan.wav,groan.mpg,groan,1,A,Pink_Noise_1_1.wav,Pink_Noise_1_2.wav,,,,,,,,,,,,,,,0,95,95,30,,,,,,,,,,,,,,,,,,,,,,,627.2663867689989,None,628.7661717129995,None,630.1500116030002,None,"grown
",630.1500116030002,None,return,0.8017709700034175,630.2330022360002,None,,,,,,,,,,,,,,,,,,,,,,,,,,,,,,,,,112,001,2023_Jun_01_1130,SpeechDraft1Carolyn_lessNoise_PlusLocalization,2021.2.3,60.02600422515495,
cloak.wav,cloak.mpg,cloak,2,A,Pink_Noise_2_1.wav,Pink_Noise_2_2.wav,,,,,,,,,,,,,,,0,96,96,7,,,,,,,,,,,,,,,,,,,,,,,631.0663906029986,None,632.5675712800003,None,633.9497429209987,None,cloak,633.9497429209987,None,return,4.273729544998787,634.0331651939996,None,,,,,,,,,,,,,,,,,,,,,,,,,,,,,,,,,112,001,2023_Jun_01_1130,SpeechDraft1Carolyn_lessNoise_PlusLocalization,2021.2.3,60.02600422515495,
check.wav,check.mpg,check,5,A,Pink_Noise_5_1.wav,Pink_Noise_5_2.wav,,,,,,,,,,,,,,,0,97,97,22,,,,,,,,,,,,,,,,,,,,,,,638.3330784940008,None,639.8662175149984,None,641.2497598449991,None,"chest
",641.2497598449991,None,return,2.117570283000532,641.3331787819989,None,,,,,,,,,,,,,,,,,,,,,,,,,,,,,,,,,112,001,2023_Jun_01_1130,SpeechDraft1Carolyn_lessNoise_PlusLocalization,2021.2.3,60.02600422515495,
fake.wav,fake.mpg,fake,2,AV,Pink_Noise_2_1.wav,Pink_Noise_2_2.wav,,,,,,,,,,,,,,,0,98,98,115,,,,,,,,,,,,,,,,,,,,,,,643.4830623950002,None,644.9827938919989,None,646.3666043589983,None,fake,646.3666043589983,None,return,0.7609345450000546,646.4498356799995,None,,,,,,,,,,,,,,,,,,,,,,,,,,,,,,,,,112,001,2023_Jun_01_1130,SpeechDraft1Carolyn_lessNoise_PlusLocalization,2021.2.3,60.02600422515495,
read.wav,read.mpg,read,4,A,Pink_Noise_4_1.wav,Pink_Noise_4_2.wav,,,,,,,,,,,,,,,0,99,99,1,,,,,,,,,,,,,,,,,,,,,,,647.2330562709976,None,648.7328195009977,None,650.1164095089989,None,knee,650.1164095089989,None,return,2.107087232001504,650.1997576979993,None,,,,,,,,,,,,,,,,,,,,,,,,,,,,,,,,,112,001,2023_Jun_01_1130,SpeechDraft1Carolyn_lessNoise_PlusLocalization,2021.2.3,60.02600422515495,
drum.wav,drum.mpg,drum,4,A,Pink_Noise_4_1.wav,Pink_Noise_4_2.wav,,,,,,,,,,,,,,,0,100,100,12,,,,,,,,,,,,,,,,,,,,,,,652.333067481999,None,653.8328258319998,None,655.2164835999974,None,drug,655.2164835999974,None,return,1.807037730999582,655.2998189909995,None,,,,,,,,,,,,,,,,,,,,,,,,,,,,,,,,,112,001,2023_Jun_01_1130,SpeechDraft1Carolyn_lessNoise_PlusLocalization,2021.2.3,60.02600422515495,
desk.wav,desk.mpg,desk,3,A,Pink_Noise_3_1.wav,Pink_Noise_3_2.wav,,,,,,,,,,,,,,,0,101,101,54,,,,,,,,,,,,,,,,,,,,,,,657.1330731130001,None,658.6328973950003,None,660.0164436720006,None,desk,660.0164436720006,None,return,1.8390492309990805,660.0997236910007,None,,,,,,,,,,,,,,,,,,,,,,,,,,,,,,,,,112,001,2023_Jun_01_1130,SpeechDraft1Carolyn_lessNoise_PlusLocalization,2021.2.3,60.02600422515495,
smack.wav,smack.mpg,smack,1,A,Pink_Noise_1_1.wav,Pink_Noise_1_2.wav,,,,,,,,,,,,,,,0,102,102,18,,,,,,,,,,,,,,,,,,,,,,,661.9664519689977,None,663.4662100829992,None,664.8498030049996,None,smack,664.8498030049996,None,return,0.9656321399997978,664.9331698149981,None,,,,,,,,,,,,,,,,,,,,,,,,,,,,,,,,,112,001,2023_Jun_01_1130,SpeechDraft1Carolyn_lessNoise_PlusLocalization,2021.2.3,60.02600422515495,
glove.wav,glove.mpg,glove,5,AV,Pink_Noise_5_1.wav,Pink_Noise_5_2.wav,,,,,,,,,,,,,,,0,103,103,106,,,,,,,,,,,,,,,,,,,,,,,665.91644954,None,667.4170330140005,None,668.7997191680006,None,glove,668.7997191680006,None,return,2.311539479997009,668.8832193819981,None,,,,,,,,,,,,,,,,,,,,,,,,,,,,,,,,,112,001,2023_Jun_01_1130,SpeechDraft1Carolyn_lessNoise_PlusLocalization,2021.2.3,60.02600422515495,
fright.wav,fright.mpg,fright,1,AV,Pink_Noise_1_1.wav,Pink_Noise_1_2.wav,,,,,,,,,,,,,,,0,104,104,76,,,,,,,,,,,,,,,,,,,,,,,671.2165421709979,None,672.7161278679996,None,674.0997398100008,None,fright,674.0997398100008,None,return,1.6595444690028671,674.1832107709997,None,,,,,,,,,,,,,,,,,,,,,,,,,,,,,,,,,112,001,2023_Jun_01_1130,SpeechDraft1Carolyn_lessNoise_PlusLocalization,2021.2.3,60.02600422515495,
golf.wav,golf.mpg,golf,2,A,Pink_Noise_2_1.wav,Pink_Noise_2_2.wav,,,,,,,,,,,,,,,0,105,105,57,,,,,,,,,,,,,,,,,,,,,,,675.8665630139985,None,677.3995733759984,None,678.7831921939978,None,golf,678.7831921939978,None,return,2.9041026550003153,678.8666523119973,None,,,,,,,,,,,,,,,,,,,,,,,,,,,,,,,,,112,001,2023_Jun_01_1130,SpeechDraft1Carolyn_lessNoise_PlusLocalization,2021.2.3,60.02600422515495,
blow.wav,blow.mpg,blow,5,A,Pink_Noise_5_1.wav,Pink_Noise_5_2.wav,,,,,,,,,,,,,,,0,106,106,53,,,,,,,,,,,,,,,,,,,,,,,681.7997546080005,None,683.2997104319984,None,684.6831164199975,None,blow,684.6831164199975,None,return,0.7082869400001073,684.7664801760002,None,,,,,,,,,,,,,,,,,,,,,,,,,,,,,,,,,112,001,2023_Jun_01_1130,SpeechDraft1Carolyn_lessNoise_PlusLocalization,2021.2.3,60.02600422515495,
toy.wav,toy.mpg,toy,5,A,Pink_Noise_5_1.wav,Pink_Noise_5_2.wav,,,,,,,,,,,,,,,0,107,107,58,,,,,,,,,,,,,,,,,,,,,,,685.499937012999,None,686.9995395759979,None,688.3831115600005,None,boil,688.3831115600005,None,return,1.1922854020012892,688.4664571339999,None,,,,,,,,,,,,,,,,,,,,,,,,,,,,,,,,,112,001,2023_Jun_01_1130,SpeechDraft1Carolyn_lessNoise_PlusLocalization,2021.2.3,60.02600422515495,
buzz.wav,buzz.mpg,buzz,2,AV,Pink_Noise_2_1.wav,Pink_Noise_2_2.wav,,,,,,,,,,,,,,,0,108,108,93,,,,,,,,,,,,,,,,,,,,,,,689.6831017829973,None,691.182931072999,None,692.5663584739996,None,buzz,692.5663584739996,None,return,0.9449683230013761,692.6497775379976,None,,,,,,,,,,,,,,,,,,,,,,,,,,,,,,,,,112,001,2023_Jun_01_1130,SpeechDraft1Carolyn_lessNoise_PlusLocalization,2021.2.3,60.02600422515495,
blind.wav,blind.mpg,blind,5,AV,Pink_Noise_5_1.wav,Pink_Noise_5_2.wav,,,,,,,,,,,,,,,0,109,109,89,,,,,,,,,,,,,,,,,,,,,,,693.6164858589982,None,695.1186458439988,None,696.4998261799992,None,blind,696.4998261799992,None,return,2.5075864700011152,696.5831754850005,None,,,,,,,,,,,,,,,,,,,,,,,,,,,,,,,,,112,001,2023_Jun_01_1130,SpeechDraft1Carolyn_lessNoise_PlusLocalization,2021.2.3,60.02600422515495,
chart.wav,chart.mpg,chart,2,AV,Pink_Noise_2_1.wav,Pink_Noise_2_2.wav,,,,,,,,,,,,,,,0,110,110,66,,,,,,,,,,,,,,,,,,,,,,,699.1164724859991,None,700.6328638209998,None,702.016378078999,None,chart,702.016378078999,None,return,2.3269684629995027,702.0997820929988,None,,,,,,,,,,,,,,,,,,,,,,,,,,,,,,,,,112,001,2023_Jun_01_1130,SpeechDraft1Carolyn_lessNoise_PlusLocalization,2021.2.3,60.02600422515495,
coin.wav,coin.mpg,coin,3,AV,Pink_Noise_3_1.wav,Pink_Noise_3_2.wav,,,,,,,,,,,,,,,0,111,111,87,,,,,,,,,,,,,,,,,,,,,,,704.4497777319993,None,705.9496378599979,None,707.3331084509991,None,coil,707.3331084509991,None,return,1.5463155239995103,707.416479088999,None,,,,,,,,,,,,,,,,,,,,,,,,,,,,,,,,,112,001,2023_Jun_01_1130,SpeechDraft1Carolyn_lessNoise_PlusLocalization,2021.2.3,60.02600422515495,
bless.wav,bless.mpg,bless,3,A,Pink_Noise_3_1.wav,Pink_Noise_3_2.wav,,,,,,,,,,,,,,,0,112,112,0,,,,,,,,,,,,,,,,,,,,,,,708.9831267249974,None,710.4828344870002,None,711.8666722310008,None,bless,711.8666722310008,None,return,1.6287316189991543,711.9500181650001,None,,,,,,,,,,,,,,,,,,,,,,,,,,,,,,,,,112,001,2023_Jun_01_1130,SpeechDraft1Carolyn_lessNoise_PlusLocalization,2021.2.3,60.02600422515495,
news.wav,news.mpg,news,5,AV,Pink_Noise_5_1.wav,Pink_Noise_5_2.wav,,,,,,,,,,,,,,,0,113,113,65,,,,,,,,,,,,,,,,,,,,,,,713.6000684989995,None,715.1173852920001,None,716.4999954319974,None,"use
",716.4999954319974,None,return,1.7875499430010677,716.5831993249994,None,,,,,,,,,,,,,,,,,,,,,,,,,,,,,,,,,112,001,2023_Jun_01_1130,SpeechDraft1Carolyn_lessNoise_PlusLocalization,2021.2.3,60.02600422515495,
fill.wav,fill.mpg,fill,1,A,Pink_Noise_1_1.wav,Pink_Noise_1_2.wav,,,,,,,,,,,,,,,0,114,114,36,,,,,,,,,,,,,,,,,,,,,,,718.3999049800004,None,719.9164023329977,None,721.2998483169977,None,fill,721.2998483169977,None,return,2.859508737001306,721.3832205399995,None,,,,,,,,,,,,,,,,,,,,,,,,,,,,,,,,,112,001,2023_Jun_01_1130,SpeechDraft1Carolyn_lessNoise_PlusLocalization,2021.2.3,60.02600422515495,
crate.wav,crate.mpg,crate,6,A,Pink_Noise_6_1.wav,Pink_Noise_6_2.wav,,,,,,,,,,,,,,,0,115,115,5,,,,,,,,,,,,,,,,,,,,,,,724.266580962998,None,725.7662888099985,None,727.1497864609992,None,coil,727.1497864609992,None,return,1.8096152040016023,727.2331352859983,None,,,,,,,,,,,,,,,,,,,,,,,,,,,,,,,,,112,001,2023_Jun_01_1130,SpeechDraft1Carolyn_lessNoise_PlusLocalization,2021.2.3,60.02600422515495,
beard.wav,beard.mpg,beard,2,A,Pink_Noise_2_1.wav,Pink_Noise_2_2.wav,,,,,,,,,,,,,,,0,116,116,19,,,,,,,,,,,,,,,,,,,,,,,729.066525334998,None,730.5679373329986,None,731.949795217999,None,beard,731.949795217999,None,return,1.7297354980000819,732.0330807289974,None,,,,,,,,,,,,,,,,,,,,,,,,,,,,,,,,,112,001,2023_Jun_01_1130,SpeechDraft1Carolyn_lessNoise_PlusLocalization,2021.2.3,60.02600422515495,
bag.wav,bag.mpg,bag,6,AV,Pink_Noise_6_1.wav,Pink_Noise_6_2.wav,,,,,,,,,,,,,,,0,117,117,112,,,,,,,,,,,,,,,,,,,,,,,733.7832237129987,None,735.2996345119973,None,736.6831694169996,None,"black
",736.6831694169996,None,return,2.4521203540025454,736.7666301639983,None,,,,,,,,,,,,,,,,,,,,,,,,,,,,,,,,,112,001,2023_Jun_01_1130,SpeechDraft1Carolyn_lessNoise_PlusLocalization,2021.2.3,60.02600422515495,
grant.wav,grant.mpg,grant,3,AV,Pink_Noise_3_1.wav,Pink_Noise_3_2.wav,,,,,,,,,,,,,,,0,118,118,83,,,,,,,,,,,,,,,,,,,,,,,739.2498030379975,None,740.750652065999,None,742.1332254329973,None,grant,742.1332254329973,None,return,1.2261413749984058,742.2166464859984,None,,,,,,,,,,,,,,,,,,,,,,,,,,,,,,,,,112,001,2023_Jun_01_1130,SpeechDraft1Carolyn_lessNoise_PlusLocalization,2021.2.3,60.02600422515495,
pact.wav,pact.mpg,pact,1,A,Pink_Noise_1_1.wav,Pink_Noise_1_2.wav,,,,,,,,,,,,,,,0,119,119,28,,,,,,,,,,,,,,,,,,,,,,,743.4665244600001,None,744.9997530459987,None,746.3832408189992,None,pact,746.3832408189992,None,return,2.9282098799994856,746.4665524599986,None,,,,,,,,,,,,,,,,,,,,,,,,,,,,,,,,,112,001,2023_Jun_01_1130,SpeechDraft1Carolyn_lessNoise_PlusLocalization,2021.2.3,60.02600422515495,
,,,,,,,,,,,,,,,,,,,,,,,,,,,,,,,,,,,,,,,,,,,,,,,,,,,,,,,,,,,,,,,,,,space,18.710765455998626,749.4999971739999,None,,,,,,,,,,,,,,,,,,,,,,,112,001,2023_Jun_01_1130,SpeechDraft1Carolyn_lessNoise_PlusLocalization,2021.2.3,60.02600422515495,
,,,,,,,,center,0.0,6,ch1Sound_localizationTask.wav,0.0,"(952, 878)","(-8,-202)",0,-338,,,,,,,,,0,0,0,3,,,,,,,,,,,,,,,,,,,,,,,,,,,,,,,,,,,,,,,,,,749.4999971739999,None,768.2497131609998,None,769.3523242209994,None,770.2829993699997,None,1.4798941798941798,3.6364553599996725,770.2829993699997,None,,,,,,,,,,,112,001,2023_Jun_01_1130,SpeechDraft1Carolyn_lessNoise_PlusLocalization,2021.2.3,60.02600422515495,
,,,,,,,,nearLeft,-6.5,1,ch1Sound_localizationTask.wav,-6.5,"(857, 878)","(-103,-202)",-95,-338,,,,,,,,,0,1,1,2,,,,,,,,,,,,,,,,,,,,,,,,,,,,,,,,,,,,,,,,,,,,773.9172461630005,None,775.0163058079997,None,775.9497204010004,None,1.4253968253968254,1.167345543999545,775.9497204010004,None,,,,,,,,,,,112,001,2023_Jun_01_1130,SpeechDraft1Carolyn_lessNoise_PlusLocalization,2021.2.3,60.02600422515495,
,,,,,,,,midRight,13.0,3,ch1Sound_localizationTask.wav,13.0,"(1142, 878)","(182, -202)",190,-338,,,,,,,,,0,2,2,5,,,,,,,,,,,,,,,,,,,,,,,,,,,,,,,,,,,,,,,,,,,,777.1333816309998,None,778.2330722389997,None,779.1663933550008,None,1.5793650793650795,0.630856883002707,779.1663933550008,None,,,,,,,,,,,112,001,2023_Jun_01_1130,SpeechDraft1Carolyn_lessNoise_PlusLocalization,2021.2.3,60.02600422515495,
,,,,,,,,nearLeft,-6.5,1,ch1Sound_localizationTask.wav,-6.5,"(857, 878)","(-103,-202)",-95,-338,,,,,,,,,0,3,3,2,,,,,,,,,,,,,,,,,,,,,,,,,,,,,,,,,,,,,,,,,,,,779.8001112050006,None,780.8997975889979,None,781.8329424459989,None,1.4433862433862434,1.1495038699977158,781.8329424459989,None,,,,,,,,,,,112,001,2023_Jun_01_1130,SpeechDraft1Carolyn_lessNoise_PlusLocalization,2021.2.3,60.02600422515495,
,,,,,,,,nearLeft,-6.5,1,ch1Sound_localizationTask.wav,-6.5,"(857, 878)","(-103,-202)",-95,-338,,,,,,,,,0,4,4,2,,,,,,,,,,,,,,,,,,,,,,,,,,,,,,,,,,,,,,,,,,,,782.9842630809981,None,784.099732355,None,785.0163989489993,None,1.3735449735449734,1.7669573060011317,785.0163989489993,None,,,,,,,,,,,112,001,2023_Jun_01_1130,SpeechDraft1Carolyn_lessNoise_PlusLocalization,2021.2.3,60.02600422515495,
,,,,,,,,farRight,19.1,4,ch1Sound_localizationTask.wav,19.1,"(1237, 878)","(277,-202)",285,-338,,,,,,,,,0,5,5,6,,,,,,,,,,,,,,,,,,,,,,,,,,,,,,,,,,,,,,,,,,,,786.8001163789995,None,787.8997919899994,None,788.8330468780005,None,1.7301587301587302,1.2143049679980322,788.8330468780005,None,,,,,,,,,,,112,001,2023_Jun_01_1130,SpeechDraft1Carolyn_lessNoise_PlusLocalization,2021.2.3,60.02600422515495,
,,,,,,,,midRight,13.0,3,ch1Sound_localizationTask.wav,13.0,"(1142, 878)","(182, -202)",190,-338,,,,,,,,,0,6,6,5,,,,,,,,,,,,,,,,,,,,,,,,,,,,,,,,,,,,,,,,,,,,790.0500357479978,None,791.1496837630002,None,792.0830635849998,None,1.6497354497354497,0.8175143460030085,792.0830635849998,None,,,,,,,,,,,112,001,2023_Jun_01_1130,SpeechDraft1Carolyn_lessNoise_PlusLocalization,2021.2.3,60.02600422515495,
,,,,,,,,nearRight,6.5,0,ch1Sound_localizationTask.wav,6.5,"(1047, 878)","(87, -202)",95,-338,,,,,,,,,1,0,7,4,,,,,,,,,,,,,,,,,,,,,,,,,,,,,,,,,,,,,,,,,,,,792.9165505979981,None,794.0163625159985,None,794.9497084850009,None,1.585185185185185,0.967405987001257,794.9497084850009,None,,,,,,,,,,,112,001,2023_Jun_01_1130,SpeechDraft1Carolyn_lessNoise_PlusLocalization,2021.2.3,60.02600422515495,
,,,,,,,,midLeft,-13.0,2,ch1Sound_localizationTask.wav,-13.0,"(762, 878)","(-198,-202)",-190,-338,,,,,,,,,1,1,8,1,,,,,,,,,,,,,,,,,,,,,,,,,,,,,,,,,,,,,,,,,,,,795.933416781998,None,797.033001642998,None,797.9662915160006,None,1.367195767195767,0.5833408340004098,797.9662915160006,None,,,,,,,,,,,112,001,2023_Jun_01_1130,SpeechDraft1Carolyn_lessNoise_PlusLocalization,2021.2.3,60.02600422515495,
,,,,,,,,midRight,13.0,3,ch1Sound_localizationTask.wav,13.0,"(1142, 878)","(182, -202)",190,-338,,,,,,,,,1,2,9,5,,,,,,,,,,,,,,,,,,,,,,,,,,,,,,,,,,,,,,,,,,,,798.5499443219996,None,799.6496662999998,None,800.5831683789984,None,1.6396825396825396,0.6656379800006107,800.5831683789984,None,,,,,,,,,,,112,001,2023_Jun_01_1130,SpeechDraft1Carolyn_lessNoise_PlusLocalization,2021.2.3,60.02600422515495,
,,,,,,,,center,0.0,6,ch1Sound_localizationTask.wav,0.0,"(952, 878)","(-8,-202)",0,-338,,,,,,,,,1,3,10,3,,,,,,,,,,,,,,,,,,,,,,,,,,,,,,,,,,,,,,,,,,,,801.2499090499987,None,802.3497189919981,None,803.2830690230003,None,1.4804232804232804,0.7153977750022023,803.2830690230003,None,,,,,,,,,,,112,001,2023_Jun_01_1130,SpeechDraft1Carolyn_lessNoise_PlusLocalization,2021.2.3,60.02600422515495,
,,,,,,,,farRight,19.1,4,ch1Sound_localizationTask.wav,19.1,"(1237, 878)","(277,-202)",285,-338,,,,,,,,,1,4,11,6,,,,,,,,,,,,,,,,,,,,,,,,,,,,,,,,,,,,,,,,,,,,803.9999529179986,None,805.0998128559986,None,806.0330406119974,None,1.7211640211640211,0.8670650720014237,806.0330406119974,None,,,,,,,,,,,112,001,2023_Jun_01_1130,SpeechDraft1Carolyn_lessNoise_PlusLocalization,2021.2.3,60.02600422515495,
,,,,,,,,nearLeft,-6.5,1,ch1Sound_localizationTask.wav,-6.5,"(857, 878)","(-103,-202)",-95,-338,,,,,,,,,1,5,12,2,,,,,,,,,,,,,,,,,,,,,,,,,,,,,,,,,,,,,,,,,,,,806.9167366069996,None,808.0165582629998,None,808.9503259539997,None,1.452910052910053,0.3663463819975732,808.9503259539997,None,,,,,,,,,,,112,001,2023_Jun_01_1130,SpeechDraft1Carolyn_lessNoise_PlusLocalization,2021.2.3,60.02600422515495,
,,,,,,,,nearRight,6.5,0,ch1Sound_localizationTask.wav,6.5,"(1047, 878)","(87, -202)",95,-338,,,,,,,,,1,6,13,4,,,,,,,,,,,,,,,,,,,,,,,,,,,,,,,,,,,,,,,,,,,,809.31778184,None,810.4330514169997,None,811.3497625269993,None,1.5915343915343916,0.448858735999238,811.3497625269993,None,,,,,,,,,,,112,001,2023_Jun_01_1130,SpeechDraft1Carolyn_lessNoise_PlusLocalization,2021.2.3,60.02600422515495,
,,,,,,,,midLeft,-13.0,2,ch1Sound_localizationTask.wav,-13.0,"(762, 878)","(-198,-202)",-190,-338,,,,,,,,,2,0,14,1,,,,,,,,,,,,,,,,,,,,,,,,,,,,,,,,,,,,,,,,,,,,811.8000678969984,None,812.8997955310006,None,813.8330471640002,None,1.3984126984126983,0.03370218399868463,813.8330471640002,None,,,,,,,,,,,112,001,2023_Jun_01_1130,SpeechDraft1Carolyn_lessNoise_PlusLocalization,2021.2.3,60.02600422515495,
,,,,,,,,nearLeft,-6.5,1,ch1Sound_localizationTask.wav,-6.5,"(857, 878)","(-103,-202)",-95,-338,,,,,,,,,2,1,15,2,,,,,,,,,,,,,,,,,,,,,,,,,,,,,,,,,,,,,,,,,,,,813.8832607779987,None,814.9830282199982,None,815.9163802609983,None,1.4486772486772486,0.7654484769991541,815.9163802609983,None,,,,,,,,,,,112,001,2023_Jun_01_1130,SpeechDraft1Carolyn_lessNoise_PlusLocalization,2021.2.3,60.02600422515495,
,,,,,,,,center,0.0,6,ch1Sound_localizationTask.wav,0.0,"(952, 878)","(-8,-202)",0,-338,,,,,,,,,2,2,16,3,,,,,,,,,,,,,,,,,,,,,,,,,,,,,,,,,,,,,,,,,,,,816.6836267769977,None,817.7830920479973,None,818.7165332189979,None,1.4788359788359788,0.16712315100085107,818.7165332189979,None,,,,,,,,,,,112,001,2023_Jun_01_1130,SpeechDraft1Carolyn_lessNoise_PlusLocalization,2021.2.3,60.02600422515495,
,,,,,,,,farLeft,-19.1,5,ch1Sound_localizationTask.wav,-19.1,"(667, 878)","(-293,-202)",-285,-338,,,,,,,,,2,3,17,0,,,,,,,,,,,,,,,,,,,,,,,,,,,,,,,,,,,,,,,,,,,,818.8832848689999,None,819.9831028839981,None,820.9164240760001,None,1.3783068783068784,0.20066388100167387,820.9164240760001,None,,,,,,,,,,,112,001,2023_Jun_01_1130,SpeechDraft1Carolyn_lessNoise_PlusLocalization,2021.2.3,60.02600422515495,
,,,,,,,,midRight,13.0,3,ch1Sound_localizationTask.wav,13.0,"(1142, 878)","(182, -202)",190,-338,,,,,,,,,2,4,18,5,,,,,,,,,,,,,,,,,,,,,,,,,,,,,,,,,,,,,,,,,,,,821.1334522969992,None,822.2330530969994,None,823.166350309999,None,1.5391534391534392,0.2993663090019254,823.166350309999,None,,,,,,,,,,,112,001,2023_Jun_01_1130,SpeechDraft1Carolyn_lessNoise_PlusLocalization,2021.2.3,60.02600422515495,
,,,,,,,,farLeft,-19.1,5,ch1Sound_localizationTask.wav,-19.1,"(667, 878)","(-293,-202)",-285,-338,,,,,,,,,2,5,19,0,,,,,,,,,,,,,,,,,,,,,,,,,,,,,,,,,,,,,,,,,,,,823.4666464179973,None,824.5663873079975,None,825.4998602159976,None,1.416931216931217,0.5508992110007966,825.4998602159976,None,,,,,,,,,,,112,001,2023_Jun_01_1130,SpeechDraft1Carolyn_lessNoise_PlusLocalization,2021.2.3,60.02600422515495,
,,,,,,,,nearRight,6.5,0,ch1Sound_localizationTask.wav,6.5,"(1047, 878)","(87, -202)",95,-338,,,,,,,,,2,6,20,4,,,,,,,,,,,,,,,,,,,,,,,,,,,,,,,,,,,,,,,,,,,,826.0665971679991,None,827.1664069990002,None,828.0998467369973,None,1.6148148148148147,0.6661854710000625,828.0998467369973,None,,,,,,,,,,,112,001,2023_Jun_01_1130,SpeechDraft1Carolyn_lessNoise_PlusLocalization,2021.2.3,60.02600422515495,
,,,,,,,,center,0.0,6,ch1Sound_localizationTask.wav,0.0,"(952, 878)","(-8,-202)",0,-338,,,,,,,,,3,0,21,3,,,,,,,,,,,,,,,,,,,,,,,,,,,,,,,,,,,,,,,,,,,,828.7667564250005,None,829.8666556610006,None,830.7997688600008,None,1.5407407407407407,0.24881215400091605,830.7997688600008,None,,,,,,,,,,,112,001,2023_Jun_01_1130,SpeechDraft1Carolyn_lessNoise_PlusLocalization,2021.2.3,60.02600422515495,
,,,,,,,,midLeft,-13.0,2,ch1Sound_localizationTask.wav,-13.0,"(762, 878)","(-198,-202)",-190,-338,,,,,,,,,3,1,22,1,,,,,,,,,,,,,,,,,,,,,,,,,,,,,,,,,,,,,,,,,,,,831.0499559349992,None,832.1500739000003,None,833.0831492329999,None,1.4211640211640213,0.4336516129988013,833.0831492329999,None,,,,,,,,,,,112,001,2023_Jun_01_1130,SpeechDraft1Carolyn_lessNoise_PlusLocalization,2021.2.3,60.02600422515495,
,,,,,,,,midRight,13.0,3,ch1Sound_localizationTask.wav,13.0,"(1142, 878)","(182, -202)",190,-338,,,,,,,,,3,2,23,5,,,,,,,,,,,,,,,,,,,,,,,,,,,,,,,,,,,,,,,,,,,,833.533392076999,None,834.6330753019975,None,835.5663216889989,None,1.5957671957671957,0.3835639539975091,835.5663216889989,None,,,,,,,,,,,112,001,2023_Jun_01_1130,SpeechDraft1Carolyn_lessNoise_PlusLocalization,2021.2.3,60.02600422515495,
,,,,,,,,farRight,19.1,4,ch1Sound_localizationTask.wav,19.1,"(1237, 878)","(277,-202)",285,-338,,,,,,,,,3,3,24,6,,,,,,,,,,,,,,,,,,,,,,,,,,,,,,,,,,,,,,,,,,,,835.9500937499979,None,837.0497520110002,None,837.9830336829982,None,1.6349206349206349,0.6313836080007604,837.9830336829982,None,,,,,,,,,,,112,001,2023_Jun_01_1130,SpeechDraft1Carolyn_lessNoise_PlusLocalization,2021.2.3,60.02600422515495,
,,,,,,,,nearRight,6.5,0,ch1Sound_localizationTask.wav,6.5,"(1047, 878)","(87, -202)",95,-338,,,,,,,,,3,4,25,4,,,,,,,,,,,,,,,,,,,,,,,,,,,,,,,,,,,,,,,,,,,,838.6166558820005,None,839.7163478539987,None,840.6497953920007,None,1.498941798941799,0.8494364189973567,840.6497953920007,None,,,,,,,,,,,112,001,2023_Jun_01_1130,SpeechDraft1Carolyn_lessNoise_PlusLocalization,2021.2.3,60.02600422515495,
,,,,,,,,farRight,19.1,4,ch1Sound_localizationTask.wav,19.1,"(1237, 878)","(277,-202)",285,-338,,,,,,,,,3,5,26,6,,,,,,,,,,,,,,,,,,,,,,,,,,,,,,,,,,,,,,,,,,,,841.5007606369982,None,842.5998380719975,None,843.5332251049986,None,1.7793650793650793,0.33311641799809877,843.5332251049986,None,,,,,,,,,,,112,001,2023_Jun_01_1130,SpeechDraft1Carolyn_lessNoise_PlusLocalization,2021.2.3,60.02600422515495,
,,,,,,,,farRight,19.1,4,ch1Sound_localizationTask.wav,19.1,"(1237, 878)","(277,-202)",285,-338,,,,,,,,,3,6,27,6,,,,,,,,,,,,,,,,,,,,,,,,,,,,,,,,,,,,,,,,,,,,843.8684106830005,None,844.9829413499974,None,845.8998832090001,None,1.7433862433862433,0.03300224899794557,845.8998832090001,None,,,,,,,,,,,112,001,2023_Jun_01_1130,SpeechDraft1Carolyn_lessNoise_PlusLocalization,2021.2.3,60.02600422515495,
,,,,,,,,farLeft,-19.1,5,ch1Sound_localizationTask.wav,-19.1,"(667, 878)","(-293,-202)",-285,-338,,,,,,,,,4,0,28,0,,,,,,,,,,,,,,,,,,,,,,,,,,,,,,,,,,,,,,,,,,,,845.9332987849994,None,847.0330531319996,None,847.9665525419987,None,1.4608465608465608,0.3497151319970726,847.9665525419987,None,,,,,,,,,,,112,001,2023_Jun_01_1130,SpeechDraft1Carolyn_lessNoise_PlusLocalization,2021.2.3,60.02600422515495,
,,,,,,,,nearRight,6.5,0,ch1Sound_localizationTask.wav,6.5,"(1047, 878)","(87, -202)",95,-338,,,,,,,,,4,1,29,4,,,,,,,,,,,,,,,,,,,,,,,,,,,,,,,,,,,,,,,,,,,,848.3330700400002,None,849.4331791039986,None,850.3497261359989,None,1.4439153439153438,0.4482303180011513,850.3497261359989,None,,,,,,,,,,,112,001,2023_Jun_01_1130,SpeechDraft1Carolyn_lessNoise_PlusLocalization,2021.2.3,60.02600422515495,
,,,,,,,,farRight,19.1,4,ch1Sound_localizationTask.wav,19.1,"(1237, 878)","(277,-202)",285,-338,,,,,,,,,4,2,30,6,,,,,,,,,,,,,,,,,,,,,,,,,,,,,,,,,,,,,,,,,,,,850.8003909219988,None,851.8997320380004,None,852.8330705240005,None,1.5349206349206348,0.6988573160015221,852.8330705240005,None,,,,,,,,,,,112,001,2023_Jun_01_1130,SpeechDraft1Carolyn_lessNoise_PlusLocalization,2021.2.3,60.02600422515495,
,,,,,,,,center,0.0,6,ch1Sound_localizationTask.wav,0.0,"(952, 878)","(-8,-202)",0,-338,,,,,,,,,4,3,31,3,,,,,,,,,,,,,,,,,,,,,,,,,,,,,,,,,,,,,,,,,,,,853.5341271840007,None,854.6330987459987,None,855.5666181989982,None,1.4968253968253968,0.6661178629983624,855.5666181989982,None,,,,,,,,,,,112,001,2023_Jun_01_1130,SpeechDraft1Carolyn_lessNoise_PlusLocalization,2021.2.3,60.02600422515495,
,,,,,,,,nearRight,6.5,0,ch1Sound_localizationTask.wav,6.5,"(1047, 878)","(87, -202)",95,-338,,,,,,,,,4,4,32,4,,,,,,,,,,,,,,,,,,,,,,,,,,,,,,,,,,,,,,,,,,,,856.2333375960006,None,857.3331803429974,None,858.2663998909993,None,1.5571428571428572,0.39948481600004015,858.2663998909993,None,,,,,,,,,,,112,001,2023_Jun_01_1130,SpeechDraft1Carolyn_lessNoise_PlusLocalization,2021.2.3,60.02600422515495,
,,,,,,,,nearLeft,-6.5,1,ch1Sound_localizationTask.wav,-6.5,"(857, 878)","(-103,-202)",-95,-338,,,,,,,,,4,5,33,2,,,,,,,,,,,,,,,,,,,,,,,,,,,,,,,,,,,,,,,,,,,,858.6669822759977,None,859.7664036530005,None,860.6997862209973,None,1.5005291005291004,0.26602173300125287,860.6997862209973,None,,,,,,,,,,,112,001,2023_Jun_01_1130,SpeechDraft1Carolyn_lessNoise_PlusLocalization,2021.2.3,60.02600422515495,
,,,,,,,,center,0.0,6,ch1Sound_localizationTask.wav,0.0,"(952, 878)","(-8,-202)",0,-338,,,,,,,,,4,6,34,3,,,,,,,,,,,,,,,,,,,,,,,,,,,,,,,,,,,,,,,,,,,,860.9666802110005,None,862.0664394979976,None,862.9998707609993,None,1.498941798941799,0.5829605040016759,862.9998707609993,None,,,,,,,,,,,112,001,2023_Jun_01_1130,SpeechDraft1Carolyn_lessNoise_PlusLocalization,2021.2.3,60.02600422515495,
,,,,,,,,midLeft,-13.0,2,ch1Sound_localizationTask.wav,-13.0,"(762, 878)","(-198,-202)",-190,-338,,,,,,,,,5,0,35,1,,,,,,,,,,,,,,,,,,,,,,,,,,,,,,,,,,,,,,,,,,,,863.583552191998,None,864.6830966130001,None,865.6163268729979,None,1.3931216931216932,0.6829853279996314,865.6163268729979,None,,,,,,,,,,,112,001,2023_Jun_01_1130,SpeechDraft1Carolyn_lessNoise_PlusLocalization,2021.2.3,60.02600422515495,
,,,,,,,,midRight,13.0,3,ch1Sound_localizationTask.wav,13.0,"(1142, 878)","(182, -202)",190,-338,,,,,,,,,5,1,36,5,,,,,,,,,,,,,,,,,,,,,,,,,,,,,,,,,,,,,,,,,,,,866.3168806539979,None,867.4166079539973,None,868.3499569310006,None,1.5989417989417989,0.5815801509997982,868.3499569310006,None,,,,,,,,,,,112,001,2023_Jun_01_1130,SpeechDraft1Carolyn_lessNoise_PlusLocalization,2021.2.3,60.02600422515495,
,,,,,,,,farLeft,-19.1,5,ch1Sound_localizationTask.wav,-19.1,"(667, 878)","(-293,-202)",-285,-338,,,,,,,,,5,2,37,0,,,,,,,,,,,,,,,,,,,,,,,,,,,,,,,,,,,,,,,,,,,,868.9335032119998,None,870.033031523999,None,870.9666205520007,None,1.3814814814814815,0.5332620279987168,870.9666205520007,None,,,,,,,,,,,112,001,2023_Jun_01_1130,SpeechDraft1Carolyn_lessNoise_PlusLocalization,2021.2.3,60.02600422515495,
,,,,,,,,midLeft,-13.0,2,ch1Sound_localizationTask.wav,-13.0,"(762, 878)","(-198,-202)",-190,-338,,,,,,,,,5,3,38,1,,,,,,,,,,,,,,,,,,,,,,,,,,,,,,,,,,,,,,,,,,,,871.5168559609992,None,872.6164760030006,None,873.5497991390002,None,1.343915343915344,2.2006422199992812,873.5497991390002,None,,,,,,,,,,,112,001,2023_Jun_01_1130,SpeechDraft1Carolyn_lessNoise_PlusLocalization,2021.2.3,60.02600422515495,
,,,,,,,,midRight,13.0,3,ch1Sound_localizationTask.wav,13.0,"(1142, 878)","(182, -202)",190,-338,,,,,,,,,5,4,39,5,,,,,,,,,,,,,,,,,,,,,,,,,,,,,,,,,,,,,,,,,,,,875.7666481399974,None,876.8665970379989,None,877.7997596069981,None,1.5513227513227514,0.3488455110018549,877.7997596069981,None,,,,,,,,,,,112,001,2023_Jun_01_1130,SpeechDraft1Carolyn_lessNoise_PlusLocalization,2021.2.3,60.02600422515495,
,,,,,,,,nearLeft,-6.5,1,ch1Sound_localizationTask.wav,-6.5,"(857, 878)","(-103,-202)",-95,-338,,,,,,,,,5,5,40,2,,,,,,,,,,,,,,,,,,,,,,,,,,,,,,,,,,,,,,,,,,,,878.1500834559993,None,879.2500667629974,None,880.1832394390003,None,1.462962962962963,0.6844581679979456,880.1832394390003,None,,,,,,,,,,,112,001,2023_Jun_01_1130,SpeechDraft1Carolyn_lessNoise_PlusLocalization,2021.2.3,60.02600422515495,
,,,,,,,,nearRight,6.5,0,ch1Sound_localizationTask.wav,6.5,"(1047, 878)","(87, -202)",95,-338,,,,,,,,,5,6,41,4,,,,,,,,,,,,,,,,,,,,,,,,,,,,,,,,,,,,,,,,,,,,880.8836773039984,None,881.983193625998,None,882.916593766,None,1.6232804232804234,0.4493179359997157,882.916593766,None,,,,,,,,,,,112,001,2023_Jun_01_1130,SpeechDraft1Carolyn_lessNoise_PlusLocalization,2021.2.3,60.02600422515495,
,,,,,,,,nearRight,6.5,0,ch1Sound_localizationTask.wav,6.5,"(1047, 878)","(87, -202)",95,-338,,,,,,,,,6,0,42,4,,,,,,,,,,,,,,,,,,,,,,,,,,,,,,,,,,,,,,,,,,,,883.3684116160002,None,884.4832639939996,None,885.3999015129993,None,1.5513227513227514,0.4003832019989204,885.3999015129993,None,,,,,,,,,,,112,001,2023_Jun_01_1130,SpeechDraft1Carolyn_lessNoise_PlusLocalization,2021.2.3,60.02600422515495,
,,,,,,,,midLeft,-13.0,2,ch1Sound_localizationTask.wav,-13.0,"(762, 878)","(-198,-202)",-190,-338,,,,,,,,,6,1,43,1,,,,,,,,,,,,,,,,,,,,,,,,,,,,,,,,,,,,,,,,,,,,885.8168261770006,None,886.9165974579992,None,887.8498219169996,None,1.4,0.3667301990026317,887.8498219169996,None,,,,,,,,,,,112,001,2023_Jun_01_1130,SpeechDraft1Carolyn_lessNoise_PlusLocalization,2021.2.3,60.02600422515495,
,,,,,,,,center,0.0,6,ch1Sound_localizationTask.wav,0.0,"(952, 878)","(-8,-202)",0,-338,,,,,,,,,6,2,44,3,,,,,,,,,,,,,,,,,,,,,,,,,,,,,,,,,,,,,,,,,,,,888.2333388970001,None,889.3331679900002,None,890.266491462,None,1.4455026455026454,0.651157375999901,890.266491462,None,,,,,,,,,,,112,001,2023_Jun_01_1130,SpeechDraft1Carolyn_lessNoise_PlusLocalization,2021.2.3,60.02600422515495,
,,,,,,,,farLeft,-19.1,5,ch1Sound_localizationTask.wav,-19.1,"(667, 878)","(-293,-202)",-285,-338,,,,,,,,,6,3,45,0,,,,,,,,,,,,,,,,,,,,,,,,,,,,,,,,,,,,,,,,,,,,890.9335497850007,None,892.0331421800001,None,892.9666415719985,None,1.4174603174603175,0.7506266620002862,892.9666415719985,None,,,,,,,,,,,112,001,2023_Jun_01_1130,SpeechDraft1Carolyn_lessNoise_PlusLocalization,2021.2.3,60.02600422515495,
,,,,,,,,midLeft,-13.0,2,ch1Sound_localizationTask.wav,-13.0,"(762, 878)","(-198,-202)",-190,-338,,,,,,,,,6,4,46,1,,,,,,,,,,,,,,,,,,,,,,,,,,,,,,,,,,,,,,,,,,,,893.7335428740007,None,894.8332380399988,None,895.7666375939989,None,1.4296296296296296,0.5155342050020408,895.7666375939989,None,,,,,,,,,,,112,001,2023_Jun_01_1130,SpeechDraft1Carolyn_lessNoise_PlusLocalization,2021.2.3,60.02600422515495,
,,,,,,,,nearLeft,-6.5,1,ch1Sound_localizationTask.wav,-6.5,"(857, 878)","(-103,-202)",-95,-338,,,,,,,,,6,5,47,2,,,,,,,,,,,,,,,,,,,,,,,,,,,,,,,,,,,,,,,,,,,,896.2833915480005,None,897.3831421549985,None,898.316664654998,None,1.3682539682539683,0.48244725299809943,898.316664654998,None,,,,,,,,,,,112,001,2023_Jun_01_1130,SpeechDraft1Carolyn_lessNoise_PlusLocalization,2021.2.3,60.02600422515495,
,,,,,,,,farLeft,-19.1,5,ch1Sound_localizationTask.wav,-19.1,"(667, 878)","(-293,-202)",-285,-338,,,,,,,,,6,6,48,0,,,,,,,,,,,,,,,,,,,,,,,,,,,,,,,,,,,,,,,,,,,,898.8002295869992,None,899.8999427960007,None,900.8330527929975,None,1.3354497354497354,0.450481669002329,900.8330527929975,None,,,,,,,,,,,112,001,2023_Jun_01_1130,SpeechDraft1Carolyn_lessNoise_PlusLocalization,2021.2.3,60.02600422515495,
,,,,,,,,farRight,19.1,4,ch1Sound_localizationTask.wav,19.1,"(1237, 878)","(277,-202)",285,-338,,,,,,,,,7,0,49,6,,,,,,,,,,,,,,,,,,,,,,,,,,,,,,,,,,,,,,,,,,,,901.3002378809979,None,902.3999079050009,None,903.3332966599992,None,1.343915343915344,0.7157355149975047,903.3332966599992,None,,,,,,,,,,,112,001,2023_Jun_01_1130,SpeechDraft1Carolyn_lessNoise_PlusLocalization,2021.2.3,60.02600422515495,
,,,,,,,,midLeft,-13.0,2,ch1Sound_localizationTask.wav,-13.0,"(762, 878)","(-198,-202)",-190,-338,,,,,,,,,7,1,50,1,,,,,,,,,,,,,,,,,,,,,,,,,,,,,,,,,,,,,,,,,,,,904.0501463180008,None,905.1497831300003,None,906.0833163030002,None,1.3460317460317461,0.7155651770008262,906.0833163030002,None,,,,,,,,,,,112,001,2023_Jun_01_1130,SpeechDraft1Carolyn_lessNoise_PlusLocalization,2021.2.3,60.02600422515495,
,,,,,,,,midRight,13.0,3,ch1Sound_localizationTask.wav,13.0,"(1142, 878)","(182, -202)",190,-338,,,,,,,,,7,2,51,5,,,,,,,,,,,,,,,,,,,,,,,,,,,,,,,,,,,,,,,,,,,,906.8000701819983,None,907.8998623730004,None,908.8332283489981,None,1.5084656084656085,0.6993356060011138,908.8332283489981,None,,,,,,,,,,,112,001,2023_Jun_01_1130,SpeechDraft1Carolyn_lessNoise_PlusLocalization,2021.2.3,60.02600422515495,
,,,,,,,,center,0.0,6,ch1Sound_localizationTask.wav,0.0,"(952, 878)","(-8,-202)",0,-338,,,,,,,,,7,3,52,3,,,,,,,,,,,,,,,,,,,,,,,,,,,,,,,,,,,,,,,,,,,,909.5500773309977,None,910.6499903589975,None,911.5833038469973,None,1.535978835978836,2.2160386460018344,911.5833038469973,None,,,,,,,,,,,112,001,2023_Jun_01_1130,SpeechDraft1Carolyn_lessNoise_PlusLocalization,2021.2.3,60.02600422515495,
,,,,,,,,farLeft,-19.1,5,ch1Sound_localizationTask.wav,-19.1,"(667, 878)","(-293,-202)",-285,-338,,,,,,,,,7,4,53,0,,,,,,,,,,,,,,,,,,,,,,,,,,,,,,,,,,,,,,,,,,,,913.800074843999,None,914.8998856719991,None,915.833218634998,None,1.4275132275132276,0.33237985099913203,915.833218634998,None,,,,,,,,,,,112,001,2023_Jun_01_1130,SpeechDraft1Carolyn_lessNoise_PlusLocalization,2021.2.3,60.02600422515495,
,,,,,,,,farRight,19.1,4,ch1Sound_localizationTask.wav,19.1,"(1237, 878)","(277,-202)",285,-338,,,,,,,,,7,5,54,6,,,,,,,,,,,,,,,,,,,,,,,,,,,,,,,,,,,,,,,,,,,,916.1833883769978,None,917.2831113449975,None,918.2164453779988,None,1.6973544973544974,0.14968868600044516,918.2164453779988,None,,,,,,,,,,,112,001,2023_Jun_01_1130,SpeechDraft1Carolyn_lessNoise_PlusLocalization,2021.2.3,60.02600422515495,
,,,,,,,,farLeft,-19.1,5,ch1Sound_localizationTask.wav,-19.1,"(667, 878)","(-293,-202)",-285,-338,,,,,,,,,7,6,55,0,,,,,,,,,,,,,,,,,,,,,,,,,,,,,,,,,,,,,,,,,,,,918.3669969229995,None,919.4664953859974,None,920.3998547449992,None,1.3592592592592592,0.6502748759994574,920.3998547449992,None,,,,,,,,,,,112,001,2023_Jun_01_1130,SpeechDraft1Carolyn_lessNoise_PlusLocalization,2021.2.3,60.02600422515495,
,,,,,,,,,,,,,,,,,,,,,,,,,,,,,,,,,,,,,,,,,,,,,,,,,,,,,,,,,,,,,,,,,,,,,,,,,,,,,,,,,,space,26.13259938400006,921.1501948669975,None,,,,,,,112,001,2023_Jun_01_1130,SpeechDraft1Carolyn_lessNoise_PlusLocalization,2021.2.3,60.02600422515495,
,,,,,,,,nearRight,6.5,0,ch1Sound_localizationTask.wav,6.5,"(1047, 878)","(87, -202)",95,-338,,,,,,,,,,,,,0,0,0,4,,,,,,,,,,,,,,,,,,,,,,,,,,,,,,,,,,,,,,,,947.3165827730008,None,,,950.3499089010002,None,1.5645502645502645,1.2857840729993768,950.3499089010002,None,,,,,921.1501948669975,None,948.3168095580004,None,948.5002198799993,948.516934471998,112,001,2023_Jun_01_1130,SpeechDraft1Carolyn_lessNoise_PlusLocalization,2021.2.3,60.02600422515495,
,,,,,,,,midLeft,-13.0,2,ch1Sound_localizationTask.wav,-13.0,"(762, 878)","(-198,-202)",-190,-338,,,,,,,,,,,,,0,1,1,1,,,,,,,,,,,,,,,,,,,,,,,,,,,,,,,,,,,,,,,,951.6336742200001,None,,,954.6498990889995,None,1.38994708994709,0.7678959580007358,954.6498990889995,None,,,,,,,952.6334291179992,None,952.8168154079976,952.8334369129989,112,001,2023_Jun_01_1130,SpeechDraft1Carolyn_lessNoise_PlusLocalization,2021.2.3,60.02600422515495,
,,,,,,,,farLeft,-19.1,5,ch1Sound_localizationTask.wav,-19.1,"(667, 878)","(-293,-202)",-285,-338,,,,,,,,,,,,,0,2,2,0,,,,,,,,,,,,,,,,,,,,,,,,,,,,,,,,,,,,,,,,955.4334407709975,None,,,958.4499379160006,None,1.343915343915344,1.1546280170005048,958.4499379160006,None,,,,,,,956.4334778779994,None,956.6168245730005,956.6334350629986,112,001,2023_Jun_01_1130,SpeechDraft1Carolyn_lessNoise_PlusLocalization,2021.2.3,60.02600422515495,
,,,,,,,,farLeft,-19.1,5,ch1Sound_localizationTask.wav,-19.1,"(667, 878)","(-293,-202)",-285,-338,,,,,,,,,,,,,0,3,3,0,,,,,,,,,,,,,,,,,,,,,,,,,,,,,,,,,,,,,,,,959.6168465449991,None,,,962.6331761729998,None,1.3523809523809525,1.4489857499975187,962.6331761729998,None,,,,,,,960.6168201,None,960.8001045519995,960.8168308739987,112,001,2023_Jun_01_1130,SpeechDraft1Carolyn_lessNoise_PlusLocalization,2021.2.3,60.02600422515495,
,,,,,,,,nearRight,6.5,0,ch1Sound_localizationTask.wav,6.5,"(1047, 878)","(87, -202)",95,-338,,,,,,,,,,,,,0,4,4,4,,,,,,,,,,,,,,,,,,,,,,,,,,,,,,,,,,,,,,,,964.1002185739999,None,,,967.1166061570002,None,1.5544973544973546,0.9006044680027117,967.1166061570002,None,,,,,,,965.1002161899996,None,965.2834140369996,965.300079228,112,001,2023_Jun_01_1130,SpeechDraft1Carolyn_lessNoise_PlusLocalization,2021.2.3,60.02600422515495,
,,,,,,,,midLeft,-13.0,2,ch1Sound_localizationTask.wav,-13.0,"(762, 878)","(-198,-202)",-190,-338,,,,,,,,,,,,,0,5,5,1,,,,,,,,,,,,,,,,,,,,,,,,,,,,,,,,,,,,,,,,968.0335044299973,None,,,971.0499478749989,None,1.3925925925925926,0.6656164480009465,971.0499478749989,None,,,,,,,969.0334610930004,None,969.2168182940004,969.2334430240007,112,001,2023_Jun_01_1130,SpeechDraft1Carolyn_lessNoise_PlusLocalization,2021.2.3,60.02600422515495,
,,,,,,,,midRight,13.0,3,ch1Sound_localizationTask.wav,13.0,"(1142, 878)","(182, -202)",190,-338,,,,,,,,,,,,,0,6,6,5,,,,,,,,,,,,,,,,,,,,,,,,,,,,,,,,,,,,,,,,971.7335450440005,None,,,974.7500686019994,None,1.6349206349206349,0.6674478559980344,974.7500686019994,None,,,,,,,972.7334114289988,None,972.9168365669975,972.9334228980006,112,001,2023_Jun_01_1130,SpeechDraft1Carolyn_lessNoise_PlusLocalization,2021.2.3,60.02600422515495,
,,,,,,,,nearRight,6.5,0,ch1Sound_localizationTask.wav,6.5,"(1047, 878)","(87, -202)",95,-338,,,,,,,,,,,,,1,0,7,4,,,,,,,,,,,,,,,,,,,,,,,,,,,,,,,,,,,,,,,,975.4336786839995,None,,,978.4500058720005,None,1.5497354497354499,0.7971771099983016,978.4500058720005,None,,,,,,,976.4335804570001,None,976.6168357379975,976.633485372,112,001,2023_Jun_01_1130,SpeechDraft1Carolyn_lessNoise_PlusLocalization,2021.2.3,60.02600422515495,
,,,,,,,,midRight,13.0,3,ch1Sound_localizationTask.wav,13.0,"(1142, 878)","(182, -202)",190,-338,,,,,,,,,,,,,1,1,8,5,,,,,,,,,,,,,,,,,,,,,,,,,,,,,,,,,,,,,,,,979.2501393839993,None,,,982.266715968999,None,1.5915343915343916,0.16706770599921583,982.266715968999,None,,,,,,,980.2501451699973,None,980.4335040549995,980.4501337340007,112,001,2023_Jun_01_1130,SpeechDraft1Carolyn_lessNoise_PlusLocalization,2021.2.3,60.02600422515495,
,,,,,,,,nearLeft,-6.5,1,ch1Sound_localizationTask.wav,-6.5,"(857, 878)","(-103,-202)",-95,-338,,,,,,,,,,,,,1,2,9,2,,,,,,,,,,,,,,,,,,,,,,,,,,,,,,,,,,,,,,,,982.4502393119983,None,,,985.4666654449975,None,1.425925925925926,0.8655098919989541,985.4666654449975,None,,,,,,,983.4502245830008,None,983.6335068789995,983.650336024999,112,001,2023_Jun_01_1130,SpeechDraft1Carolyn_lessNoise_PlusLocalization,2021.2.3,60.02600422515495,
,,,,,,,,midLeft,-13.0,2,ch1Sound_localizationTask.wav,-13.0,"(762, 878)","(-198,-202)",-190,-338,,,,,,,,,,,,,1,3,10,1,,,,,,,,,,,,,,,,,,,,,,,,,,,,,,,,,,,,,,,,986.3340713529979,None,,,989.350088195999,None,1.3851851851851853,0.2980392559984466,989.350088195999,None,,,,,,,987.3335721869989,None,987.5170281530009,987.5336217859985,112,001,2023_Jun_01_1130,SpeechDraft1Carolyn_lessNoise_PlusLocalization,2021.2.3,60.02600422515495,
,,,,,,,,farRight,19.1,4,ch1Sound_localizationTask.wav,19.1,"(1237, 878)","(277,-202)",285,-338,,,,,,,,,,,,,1,4,11,6,,,,,,,,,,,,,,,,,,,,,,,,,,,,,,,,,,,,,,,,989.6503001069977,None,,,992.6667886260002,None,1.6513227513227513,0.6319091139994271,992.6667886260002,None,,,,,,,990.6501813260002,None,990.8335854510005,990.8501634099994,112,001,2023_Jun_01_1130,SpeechDraft1Carolyn_lessNoise_PlusLocalization,2021.2.3,60.02600422515495,
,,,,,,,,farRight,19.1,4,ch1Sound_localizationTask.wav,19.1,"(1237, 878)","(277,-202)",285,-338,,,,,,,,,,,,,1,5,12,6,,,,,,,,,,,,,,,,,,,,,,,,,,,,,,,,,,,,,,,,993.3170794559992,None,,,996.3334885269978,None,1.6984126984126984,0.9306456160011294,996.3334885269978,None,,,,,,,994.3169121889987,None,994.5002166919985,994.5169036389998,112,001,2023_Jun_01_1130,SpeechDraft1Carolyn_lessNoise_PlusLocalization,2021.2.3,60.02600422515495,
,,,,,,,,farLeft,-19.1,5,ch1Sound_localizationTask.wav,-19.1,"(667, 878)","(-293,-202)",-285,-338,,,,,,,,,,,,,1,6,13,0,,,,,,,,,,,,,,,,,,,,,,,,,,,,,,,,,,,,,,,,997.2669567439989,None,,,1000.2833597530007,None,1.3211640211640212,0.6828298019972863,1000.2833597530007,None,,,,,,,998.2669206039973,None,998.4502713330003,998.4668700340007,112,001,2023_Jun_01_1130,SpeechDraft1Carolyn_lessNoise_PlusLocalization,2021.2.3,60.02600422515495,
,,,,,,,,farRight,19.1,4,ch1Sound_localizationTask.wav,19.1,"(1237, 878)","(277,-202)",285,-338,,,,,,,,,,,,,2,0,14,6,,,,,,,,,,,,,,,,,,,,,,,,,,,,,,,,,,,,,,,,1000.9683518700003,None,,,1004.0000664479994,None,1.651851851851852,0.7328583609996713,1004.0000664479994,None,,,,,,,1001.9835120069984,None,1002.1668779629981,1002.1835703869983,112,001,2023_Jun_01_1130,SpeechDraft1Carolyn_lessNoise_PlusLocalization,2021.2.3,60.02600422515495,
,,,,,,,,nearLeft,-6.5,1,ch1Sound_localizationTask.wav,-6.5,"(857, 878)","(-103,-202)",-95,-338,,,,,,,,,,,,,2,1,15,2,,,,,,,,,,,,,,,,,,,,,,,,,,,,,,,,,,,,,,,,1004.7503342609998,None,,,1007.7667945959984,None,1.4232804232804233,0.7644012390010175,1007.7667945959984,None,,,,,,,1005.7501786479988,None,1005.9336025150005,1005.9501925029981,112,001,2023_Jun_01_1130,SpeechDraft1Carolyn_lessNoise_PlusLocalization,2021.2.3,60.02600422515495,
,,,,,,,,center,0.0,6,ch1Sound_localizationTask.wav,0.0,"(952, 878)","(-8,-202)",0,-338,,,,,,,,,,,,,2,2,16,3,,,,,,,,,,,,,,,,,,,,,,,,,,,,,,,,,,,,,,,,1008.5336229589993,None,,,1011.5500509949998,None,1.5010582010582012,0.6502696609968552,1011.5500509949998,None,,,,,,,1009.5335522429996,None,1009.7171581959992,1009.7336176539975,112,001,2023_Jun_01_1130,SpeechDraft1Carolyn_lessNoise_PlusLocalization,2021.2.3,60.02600422515495,
,,,,,,,,center,0.0,6,ch1Sound_localizationTask.wav,0.0,"(952, 878)","(-8,-202)",0,-338,,,,,,,,,,,,,2,3,17,3,,,,,,,,,,,,,,,,,,,,,,,,,,,,,,,,,,,,,,,,1012.2004443929982,None,,,1015.2166899609983,None,1.46984126984127,0.5163574159996642,1015.2166899609983,None,,,,,,,1013.2002360299994,None,1013.3835833779995,1013.4002282500005,112,001,2023_Jun_01_1130,SpeechDraft1Carolyn_lessNoise_PlusLocalization,2021.2.3,60.02600422515495,
,,,,,,,,farRight,19.1,4,ch1Sound_localizationTask.wav,19.1,"(1237, 878)","(277,-202)",285,-338,,,,,,,,,,,,,2,4,18,6,,,,,,,,,,,,,,,,,,,,,,,,,,,,,,,,,,,,,,,,1015.7338379719986,None,,,1018.7500431179978,None,1.6814814814814816,0.5840841489989543,1018.7500431179978,None,,,,,,,1016.7336383399997,None,1016.9169753799979,1016.9336088460004,112,001,2023_Jun_01_1130,SpeechDraft1Carolyn_lessNoise_PlusLocalization,2021.2.3,60.02600422515495,
,,,,,,,,center,0.0,6,ch1Sound_localizationTask.wav,0.0,"(952, 878)","(-8,-202)",0,-338,,,,,,,,,,,,,2,5,19,3,,,,,,,,,,,,,,,,,,,,,,,,,,,,,,,,,,,,,,,,1019.3502136949974,None,,,1022.3668549469985,None,1.5095238095238095,0.4329029900000023,1022.3668549469985,None,,,,,,,1020.3503185199988,None,1020.5335461569994,1020.5502333689983,112,001,2023_Jun_01_1130,SpeechDraft1Carolyn_lessNoise_PlusLocalization,2021.2.3,60.02600422515495,
,,,,,,,,midLeft,-13.0,2,ch1Sound_localizationTask.wav,-13.0,"(762, 878)","(-198,-202)",-190,-338,,,,,,,,,,,,,2,6,20,1,,,,,,,,,,,,,,,,,,,,,,,,,,,,,,,,,,,,,,,,1022.8170596339987,None,,,1025.8333299160004,None,1.384126984126984,0.39972696299810195,1025.8333299160004,None,,,,,,,1023.8169542299984,None,1024.0002609389994,1024.0169014429994,112,001,2023_Jun_01_1130,SpeechDraft1Carolyn_lessNoise_PlusLocalization,2021.2.3,60.02600422515495,
,,,,,,,,center,0.0,6,ch1Sound_localizationTask.wav,0.0,"(952, 878)","(-8,-202)",0,-338,,,,,,,,,,,,,3,0,21,3,,,,,,,,,,,,,,,,,,,,,,,,,,,,,,,,,,,,,,,,1026.2501314529982,None,,,1029.2667273519983,None,1.5243386243386243,0.4176343219987757,1029.2667273519983,None,,,,,,,1027.250326696998,None,1027.4334953350008,1027.4502450759974,112,001,2023_Jun_01_1130,SpeechDraft1Carolyn_lessNoise_PlusLocalization,2021.2.3,60.02600422515495,
,,,,,,,,farRight,19.1,4,ch1Sound_localizationTask.wav,19.1,"(1237, 878)","(277,-202)",285,-338,,,,,,,,,,,,,3,1,22,6,,,,,,,,,,,,,,,,,,,,,,,,,,,,,,,,,,,,,,,,1029.700440845998,None,,,1032.7168911579975,None,1.6428571428571428,0.6180933760006155,1032.7168911579975,None,,,,,,,1030.7002956279975,None,1030.8836683019981,1030.9003210310002,112,001,2023_Jun_01_1130,SpeechDraft1Carolyn_lessNoise_PlusLocalization,2021.2.3,60.02600422515495,
,,,,,,,,farLeft,-19.1,5,ch1Sound_localizationTask.wav,-19.1,"(667, 878)","(-293,-202)",-285,-338,,,,,,,,,,,,,3,2,23,0,,,,,,,,,,,,,,,,,,,,,,,,,,,,,,,,,,,,,,,,1033.3512989439987,None,,,1036.3669345659982,None,1.3518518518518519,0.6680981239987887,1036.3669345659982,None,,,,,,,1034.3504866090007,None,1034.5336626370008,1034.5502694299976,112,001,2023_Jun_01_1130,SpeechDraft1Carolyn_lessNoise_PlusLocalization,2021.2.3,60.02600422515495,
,,,,,,,,nearRight,6.5,0,ch1Sound_localizationTask.wav,6.5,"(1047, 878)","(87, -202)",95,-338,,,,,,,,,,,,,3,3,24,4,,,,,,,,,,,,,,,,,,,,,,,,,,,,,,,,,,,,,,,,1037.050173659998,None,,,1040.0667876799998,None,1.5698412698412698,0.8492775859995163,1040.0667876799998,None,,,,,,,1038.0502861329987,None,1038.2336019449976,1038.2503413140003,112,001,2023_Jun_01_1130,SpeechDraft1Carolyn_lessNoise_PlusLocalization,2021.2.3,60.02600422515495,
,,,,,,,,midRight,13.0,3,ch1Sound_localizationTask.wav,13.0,"(1142, 878)","(182, -202)",190,-338,,,,,,,,,,,,,3,4,25,5,,,,,,,,,,,,,,,,,,,,,,,,,,,,,,,,,,,,,,,,1040.917044474998,None,,,1043.9333930280009,None,1.5941798941798941,0.4487285780014645,1043.9333930280009,None,,,,,,,1041.9169960269974,None,1042.1002463010009,1042.1170249049974,112,001,2023_Jun_01_1130,SpeechDraft1Carolyn_lessNoise_PlusLocalization,2021.2.3,60.02600422515495,
,,,,,,,,center,0.0,6,ch1Sound_localizationTask.wav,0.0,"(952, 878)","(-8,-202)",0,-338,,,,,,,,,,,,,3,5,26,3,,,,,,,,,,,,,,,,,,,,,,,,,,,,,,,,,,,,,,,,1044.383601652,None,,,1047.400020527999,None,1.4873015873015873,0.548593551000522,1047.400020527999,None,,,,,,,1045.3836160009996,None,1045.5668604329985,1045.5837531729994,112,001,2023_Jun_01_1130,SpeechDraft1Carolyn_lessNoise_PlusLocalization,2021.2.3,60.02600422515495,
,,,,,,,,farRight,19.1,4,ch1Sound_localizationTask.wav,19.1,"(1237, 878)","(277,-202)",285,-338,,,,,,,,,,,,,3,6,27,6,,,,,,,,,,,,,,,,,,,,,,,,,,,,,,,,,,,,,,,,1047.9502597549981,None,,,1050.9666782229979,None,1.6544973544973545,0.5981162200005201,1050.9666782229979,None,,,,,,,1048.9503015019982,None,1049.1338385380004,1049.1504033269994,112,001,2023_Jun_01_1130,SpeechDraft1Carolyn_lessNoise_PlusLocalization,2021.2.3,60.02600422515495,
,,,,,,,,farLeft,-19.1,5,ch1Sound_localizationTask.wav,-19.1,"(667, 878)","(-293,-202)",-285,-338,,,,,,,,,,,,,4,0,28,0,,,,,,,,,,,,,,,,,,,,,,,,,,,,,,,,,,,,,,,,1051.5669384409994,None,,,1054.5834424059976,None,1.3275132275132275,0.6830937480008288,1054.5834424059976,None,,,,,,,1052.5670100649986,None,1052.750397287,1052.7670124020005,112,001,2023_Jun_01_1130,SpeechDraft1Carolyn_lessNoise_PlusLocalization,2021.2.3,60.02600422515495,
,,,,,,,,farLeft,-19.1,5,ch1Sound_localizationTask.wav,-19.1,"(667, 878)","(-293,-202)",-285,-338,,,,,,,,,,,,,4,1,29,0,,,,,,,,,,,,,,,,,,,,,,,,,,,,,,,,,,,,,,,,1055.2838056789988,None,,,1058.300076571999,None,1.364021164021164,0.43279411799812806,1058.300076571999,None,,,,,,,1056.2836782890008,None,1056.4669753069975,1056.4837317469974,112,001,2023_Jun_01_1130,SpeechDraft1Carolyn_lessNoise_PlusLocalization,2021.2.3,60.02600422515495,
,,,,,,,,center,0.0,6,ch1Sound_localizationTask.wav,0.0,"(952, 878)","(-8,-202)",0,-338,,,,,,,,,,,,,4,2,30,3,,,,,,,,,,,,,,,,,,,,,,,,,,,,,,,,,,,,,,,,1058.733657318,None,,,1061.7501004289988,None,1.48994708994709,0.5330469969994738,1061.7501004289988,None,,,,,,,1059.7336120779983,None,1059.9169445879998,1059.9335993700006,112,001,2023_Jun_01_1130,SpeechDraft1Carolyn_lessNoise_PlusLocalization,2021.2.3,60.02600422515495,
,,,,,,,,farLeft,-19.1,5,ch1Sound_localizationTask.wav,-19.1,"(667, 878)","(-293,-202)",-285,-338,,,,,,,,,,,,,4,3,31,0,,,,,,,,,,,,,,,,,,,,,,,,,,,,,,,,,,,,,,,,1062.2836555779977,None,,,1065.300070186,None,1.3285714285714285,0.950466967002285,1065.300070186,None,,,,,,,1063.2836579659997,None,1063.4670241919994,1063.483656600998,112,001,2023_Jun_01_1130,SpeechDraft1Carolyn_lessNoise_PlusLocalization,2021.2.3,60.02600422515495,
,,,,,,,,center,0.0,6,ch1Sound_localizationTask.wav,0.0,"(952, 878)","(-8,-202)",0,-338,,,,,,,,,,,,,4,4,32,3,,,,,,,,,,,,,,,,,,,,,,,,,,,,,,,,,,,,,,,,1066.2671837300004,None,,,1069.2834917569999,None,1.4835978835978836,0.8494154389991309,1069.2834917569999,None,,,,,,,1067.2669274639993,None,1067.450268116998,1067.4669509230007,112,001,2023_Jun_01_1130,SpeechDraft1Carolyn_lessNoise_PlusLocalization,2021.2.3,60.02600422515495,
,,,,,,,,nearRight,6.5,0,ch1Sound_localizationTask.wav,6.5,"(1047, 878)","(87, -202)",95,-338,,,,,,,,,,,,,4,5,33,4,,,,,,,,,,,,,,,,,,,,,,,,,,,,,,,,,,,,,,,,1070.1335683609977,None,,,1073.1501167559982,None,1.5317460317460316,0.4496503680020396,1073.1501167559982,None,,,,,,,1071.1337182069983,None,1071.3169761690006,1071.3336851799977,112,001,2023_Jun_01_1130,SpeechDraft1Carolyn_lessNoise_PlusLocalization,2021.2.3,60.02600422515495,
,,,,,,,,midRight,13.0,3,ch1Sound_localizationTask.wav,13.0,"(1142, 878)","(182, -202)",190,-338,,,,,,,,,,,,,4,6,34,5,,,,,,,,,,,,,,,,,,,,,,,,,,,,,,,,,,,,,,,,1073.6004057379978,None,,,1076.6169219080002,None,1.5814814814814815,0.23185193599783815,1076.6169219080002,None,,,,,,,1074.600341497,None,1074.783738107999,1074.8003258829995,112,001,2023_Jun_01_1130,SpeechDraft1Carolyn_lessNoise_PlusLocalization,2021.2.3,60.02600422515495,
,,,,,,,,nearRight,6.5,0,ch1Sound_localizationTask.wav,6.5,"(1047, 878)","(87, -202)",95,-338,,,,,,,,,,,,,5,0,35,4,,,,,,,,,,,,,,,,,,,,,,,,,,,,,,,,,,,,,,,,1076.850404539,None,,,1079.8668069199994,None,1.5349206349206348,0.3983679609991668,1079.8668069199994,None,,,,,,,1077.850306512999,None,1078.0336397169995,1078.0503266630003,112,001,2023_Jun_01_1130,SpeechDraft1Carolyn_lessNoise_PlusLocalization,2021.2.3,60.02600422515495,
,,,,,,,,midLeft,-13.0,2,ch1Sound_localizationTask.wav,-13.0,"(762, 878)","(-198,-202)",-190,-338,,,,,,,,,,,,,5,1,36,1,,,,,,,,,,,,,,,,,,,,,,,,,,,,,,,,,,,,,,,,1080.2671572569998,None,,,1083.2835108789986,None,1.3857142857142857,0.9508034999998927,1083.2835108789986,None,,,,,,,1081.2669504839978,None,1081.4503475879974,1081.4670756749983,112,001,2023_Jun_01_1130,SpeechDraft1Carolyn_lessNoise_PlusLocalization,2021.2.3,60.02600422515495,
,,,,,,,,nearLeft,-6.5,1,ch1Sound_localizationTask.wav,-6.5,"(857, 878)","(-103,-202)",-95,-338,,,,,,,,,,,,,5,2,37,2,,,,,,,,,,,,,,,,,,,,,,,,,,,,,,,,,,,,,,,,1084.2503810189992,None,,,1087.2669832799984,None,1.434920634920635,0.7499388790020021,1087.2669832799984,None,,,,,,,1085.2503443389978,None,1085.4336774420008,1085.4503657599998,112,001,2023_Jun_01_1130,SpeechDraft1Carolyn_lessNoise_PlusLocalization,2021.2.3,60.02600422515495,
,,,,,,,,midLeft,-13.0,2,ch1Sound_localizationTask.wav,-13.0,"(762, 878)","(-198,-202)",-190,-338,,,,,,,,,,,,,5,3,38,1,,,,,,,,,,,,,,,,,,,,,,,,,,,,,,,,,,,,,,,,1088.0168985319979,None,,,1091.0335044509993,None,1.3888888888888888,0.43277388499700464,1091.0335044509993,None,,,,,,,1089.0170347559979,None,1089.2002487169993,1089.217095961998,112,001,2023_Jun_01_1130,SpeechDraft1Carolyn_lessNoise_PlusLocalization,2021.2.3,60.02600422515495,
,,,,,,,,midRight,13.0,3,ch1Sound_localizationTask.wav,13.0,"(1142, 878)","(182, -202)",190,-338,,,,,,,,,,,,,5,4,39,5,,,,,,,,,,,,,,,,,,,,,,,,,,,,,,,,,,,,,,,,1091.4669561970004,None,,,1094.4834377379993,None,1.615873015873016,0.8673979910017806,1094.4834377379993,None,,,,,,,1092.4669201039978,None,1092.6503631729975,1092.6670869669979,112,001,2023_Jun_01_1130,SpeechDraft1Carolyn_lessNoise_PlusLocalization,2021.2.3,60.02600422515495,
,,,,,,,,farRight,19.1,4,ch1Sound_localizationTask.wav,19.1,"(1237, 878)","(277,-202)",285,-338,,,,,,,,,,,,,5,5,40,6,,,,,,,,,,,,,,,,,,,,,,,,,,,,,,,,,,,,,,,,1095.3510582069975,None,,,1098.3669069089992,None,1.6756613756613756,0.8310654320011963,1098.3669069089992,None,,,,,,,1096.3502936059995,None,1096.5337957569973,1096.5503565899999,112,001,2023_Jun_01_1130,SpeechDraft1Carolyn_lessNoise_PlusLocalization,2021.2.3,60.02600422515495,
,,,,,,,,nearLeft,-6.5,1,ch1Sound_localizationTask.wav,-6.5,"(857, 878)","(-103,-202)",-95,-338,,,,,,,,,,,,,5,6,41,2,,,,,,,,,,,,,,,,,,,,,,,,,,,,,,,,,,,,,,,,1099.2003065299978,None,,,1102.2168893999988,None,1.426984126984127,0.783781091999117,1102.2168893999988,None,,,,,,,1100.2003566059975,None,1100.383802553999,1100.4003547190005,112,001,2023_Jun_01_1130,SpeechDraft1Carolyn_lessNoise_PlusLocalization,2021.2.3,60.02600422515495,
,,,,,,,,midRight,13.0,3,ch1Sound_localizationTask.wav,13.0,"(1142, 878)","(182, -202)",190,-338,,,,,,,,,,,,,6,0,42,5,,,,,,,,,,,,,,,,,,,,,,,,,,,,,,,,,,,,,,,,1103.016957844,None,,,1106.0335637949975,None,1.573015873015873,0.44981833799829474,1106.0335637949975,None,,,,,,,1104.0169979929997,None,1104.200328005998,1104.2170451409984,112,001,2023_Jun_01_1130,SpeechDraft1Carolyn_lessNoise_PlusLocalization,2021.2.3,60.02600422515495,
,,,,,,,,nearLeft,-6.5,1,ch1Sound_localizationTask.wav,-6.5,"(857, 878)","(-103,-202)",-95,-338,,,,,,,,,,,,,6,1,43,2,,,,,,,,,,,,,,,,,,,,,,,,,,,,,,,,,,,,,,,,1106.4837506359981,None,,,1109.5002100130005,None,1.4370370370370371,0.550232216999575,1109.5002100130005,None,,,,,,,1107.483720027998,None,1107.6670808149975,1107.683645535999,112,001,2023_Jun_01_1130,SpeechDraft1Carolyn_lessNoise_PlusLocalization,2021.2.3,60.02600422515495,
,,,,,,,,midLeft,-13.0,2,ch1Sound_localizationTask.wav,-13.0,"(762, 878)","(-198,-202)",-190,-338,,,,,,,,,,,,,6,2,44,1,,,,,,,,,,,,,,,,,,,,,,,,,,,,,,,,,,,,,,,,1110.050521145,None,,,1113.0668306970001,None,1.3915343915343916,0.4331714829968405,1113.0668306970001,None,,,,,,,1111.050444190998,None,1111.2337863969988,1111.2504063509987,112,001,2023_Jun_01_1130,SpeechDraft1Carolyn_lessNoise_PlusLocalization,2021.2.3,60.02600422515495,
,,,,,,,,nearLeft,-6.5,1,ch1Sound_localizationTask.wav,-6.5,"(857, 878)","(-103,-202)",-95,-338,,,,,,,,,,,,,6,3,45,2,,,,,,,,,,,,,,,,,,,,,,,,,,,,,,,,,,,,,,,,1113.500650643,None,,,1116.5168891039975,None,1.426984126984127,0.46657979800147587,1116.5168891039975,None,,,,,,,1114.500319554998,None,1114.6837054700009,1114.700351839998,112,001,2023_Jun_01_1130,SpeechDraft1Carolyn_lessNoise_PlusLocalization,2021.2.3,60.02600422515495,
,,,,,,,,farLeft,-19.1,5,ch1Sound_localizationTask.wav,-19.1,"(667, 878)","(-293,-202)",-285,-338,,,,,,,,,,,,,6,4,46,0,,,,,,,,,,,,,,,,,,,,,,,,,,,,,,,,,,,,,,,,1116.9844009739973,None,,,1120.000238995999,None,1.3317460317460317,0.934165316997678,1120.000238995999,None,,,,,,,1117.9837123879988,None,1118.1669929140007,1118.1837755259985,112,001,2023_Jun_01_1130,SpeechDraft1Carolyn_lessNoise_PlusLocalization,2021.2.3,60.02600422515495,
,,,,,,,,nearRight,6.5,0,ch1Sound_localizationTask.wav,6.5,"(1047, 878)","(87, -202)",95,-338,,,,,,,,,,,,,6,5,47,4,,,,,,,,,,,,,,,,,,,,,,,,,,,,,,,,,,,,,,,,1120.9505603129983,None,,,1123.9668625269987,None,1.5492063492063493,2.21645209000053,1123.9668625269987,None,,,,,,,1121.9503817469995,None,1122.1338772799973,1122.1503662110008,112,001,2023_Jun_01_1130,SpeechDraft1Carolyn_lessNoise_PlusLocalization,2021.2.3,60.02600422515495,
,,,,,,,,midRight,13.0,3,ch1Sound_localizationTask.wav,13.0,"(1142, 878)","(182, -202)",190,-338,,,,,,,,,,,,,6,6,48,5,,,,,,,,,,,,,,,,,,,,,,,,,,,,,,,,,,,,,,,,1126.200388207999,None,,,1129.2167749830005,None,1.6227513227513226,0.48274986799879116,1129.2167749830005,None,,,,,,,1127.200383741998,None,1127.3837202789982,1127.4003866579988,112,001,2023_Jun_01_1130,SpeechDraft1Carolyn_lessNoise_PlusLocalization,2021.2.3,60.02600422515495,
,,,,,,,,center,0.0,6,ch1Sound_localizationTask.wav,0.0,"(952, 878)","(-8,-202)",0,-338,,,,,,,,,,,,,7,0,49,3,,,,,,,,,,,,,,,,,,,,,,,,,,,,,,,,,,,,,,,,1129.717102748,None,,,1132.7334932249978,None,1.4825396825396826,0.48260326300078304,1132.7334932249978,None,,,,,,,1130.7170149189988,None,1130.9005736069994,1130.9172376219976,112,001,2023_Jun_01_1130,SpeechDraft1Carolyn_lessNoise_PlusLocalization,2021.2.3,60.02600422515495,
,,,,,,,,midRight,13.0,3,ch1Sound_localizationTask.wav,13.0,"(1142, 878)","(182, -202)",190,-338,,,,,,,,,,,,,7,1,50,5,,,,,,,,,,,,,,,,,,,,,,,,,,,,,,,,,,,,,,,,1133.217491419,None,,,1136.233473098,None,1.6052910052910052,1.0327815990021918,1136.233473098,None,,,,,,,1134.2171345319985,None,1134.4004336729995,1134.4171775659997,112,001,2023_Jun_01_1130,SpeechDraft1Carolyn_lessNoise_PlusLocalization,2021.2.3,60.02600422515495,
,,,,,,,,nearLeft,-6.5,1,ch1Sound_localizationTask.wav,-6.5,"(857, 878)","(-103,-202)",-95,-338,,,,,,,,,,,,,7,2,51,2,,,,,,,,,,,,,,,,,,,,,,,,,,,,,,,,,,,,,,,,1137.2670138499998,None,,,1140.2835158339985,None,1.4396825396825397,0.7831253580006887,1140.2835158339985,None,,,,,,,1138.2671235809976,None,1138.4503689679987,1138.467070286999,112,001,2023_Jun_01_1130,SpeechDraft1Carolyn_lessNoise_PlusLocalization,2021.2.3,60.02600422515495,
,,,,,,,,nearLeft,-6.5,1,ch1Sound_localizationTask.wav,-6.5,"(857, 878)","(-103,-202)",-95,-338,,,,,,,,,,,,,7,3,52,2,,,,,,,,,,,,,,,,,,,,,,,,,,,,,,,,,,,,,,,,1141.068222365,None,,,1144.100208926,None,1.4365079365079365,1.182687848002388,1144.100208926,None,,,,,,,1142.0838107339987,None,1142.2671423149986,1142.2837316879995,112,001,2023_Jun_01_1130,SpeechDraft1Carolyn_lessNoise_PlusLocalization,2021.2.3,60.02600422515495,
,,,,,,,,midLeft,-13.0,2,ch1Sound_localizationTask.wav,-13.0,"(762, 878)","(-198,-202)",-190,-338,,,,,,,,,,,,,7,4,53,1,,,,,,,,,,,,,,,,,,,,,,,,,,,,,,,,,,,,,,,,1145.2838102780006,None,,,1148.300233640999,None,1.3687830687830687,0.4823340949988051,1148.300233640999,None,,,,,,,1146.2836992919983,None,1146.4670768920005,1146.4838155239995,112,001,2023_Jun_01_1130,SpeechDraft1Carolyn_lessNoise_PlusLocalization,2021.2.3,60.02600422515495,
,,,,,,,,farRight,19.1,4,ch1Sound_localizationTask.wav,19.1,"(1237, 878)","(277,-202)",285,-338,,,,,,,,,,,,,7,5,54,6,,,,,,,,,,,,,,,,,,,,,,,,,,,,,,,,,,,,,,,,1148.7837054019983,None,,,1151.800082919999,None,1.6232804232804234,1.0172858810001344,1151.800082919999,None,,,,,,,1149.7837520920002,None,1149.9670379149975,1149.9837451239982,112,001,2023_Jun_01_1130,SpeechDraft1Carolyn_lessNoise_PlusLocalization,2021.2.3,60.02600422515495,
,,,,,,,,nearRight,6.5,0,ch1Sound_localizationTask.wav,6.5,"(1047, 878)","(87, -202)",95,-338,,,,,,,,,,,,,7,6,55,4,,,,,,,,,,,,,,,,,,,,,,,,,,,,,,,,,,,,,,,,1152.8337673379974,None,,,1155.8501953199993,None,1.5486772486772487,0.8148453550020349,1155.8501953199993,None,,,,,,,1153.8337425779973,None,1154.0171149189991,1154.0338323569995,112,001,2023_Jun_01_1130,SpeechDraft1Carolyn_lessNoise_PlusLocalization,2021.2.3,60.02600422515495,
