{"meta_data":{"additional_headers":{},"game_name":"Recollect","version":"2.53.01","user_name":"112","organization":"braingamecenter","study":"mpl2_2022_11","session_number":0,"device_id":"74342D95-EE82-45E3-8ADF-48FB3203C5DD"},"data":[{"stage":"Practice","trial":0,"sequence":"6F","letter_input":"F","number_input":"6","is_correct":true,"presentation_start_time":1685640007356.08,"presentation_end_time":1685640010357.85,"response_time":1685640019054.08},{"stage":"Practice","trial":1,"sequence":"G4","letter_input":"G","number_input":"4","is_correct":true,"presentation_start_time":1685640020585.06,"presentation_end_time":1685640023586.89,"response_time":1685640031031.65},{"stage":"Practice","trial":2,"sequence":"3W5","letter_input":"W","number_input":"35","is_correct":true,"presentation_start_time":1685640032564.43,"presentation_end_time":1685640037065.75,"response_time":1685640043560.85},{"stage":"Practice","trial":3,"sequence":"T7L","letter_input":"LT","number_input":"7","is_correct":true,"presentation_start_time":1685640045093.62,"presentation_end_time":1685640049594.88,"response_time":1685640058522.61},{"stage":"Practice","trial":4,"sequence":"9J1","letter_input":"J","number_input":"19","is_correct":true,"presentation_start_time":1685640060055.26,"presentation_end_time":1685640064556.73,"response_time":1685640070651.84},{"stage":"Calibration","trial":0,"sequence":"7C","letter_input":"C","number_input":"7","is_correct":true,"presentation_start_time":1685640075933.31,"presentation_end_time":1685640078935.21,"response_time":1685640084613.89},{"stage":"Calibration","trial":1,"sequence":"Y8","letter_input":"Y","number_input":"8","is_correct":true,"presentation_start_time":1685640086146.63,"presentation_end_time":1685640089148.33,"response_time":1685640093210.98},{"stage":"Calibration","trial":2,"sequence":"7W1","letter_input":"W","number_input":"17","is_correct":true,"presentation_start_time":1685640094743.82,"presentation_end_time":1685640099245.08,"response_time":1685640103474.33},{"stage":"Calibration","trial":3,"sequence":"K4B","letter_input":"BK","number_input":"4","is_correct":true,"presentation_start_time":1685640105007.02,"presentation_end_time":1685640109508.35,"response_time":1685640115070.48},{"stage":"Calibration","trial":4,"sequence":"7V5G","letter_input":"GV","number_input":"57","is_correct":true,"presentation_start_time":1685640116603.19,"presentation_end_time":1685640122604.05,"response_time":1685640133597.68},{"stage":"Calibration","trial":5,"sequence":"L6E2","letter_input":"EL","number_input":"26","is_correct":true,"presentation_start_time":1685640135130.42,"presentation_end_time":1685640141131.15,"response_time":1685640154324.12},{"stage":"Calibration","trial":6,"sequence":"4S1B8","letter_input":"BS","number_input":"148","is_correct":true,"presentation_start_time":1685640155856.87,"presentation_end_time":1685640163357.21,"response_time":1685640168386.1},{"stage":"Calibration","trial":7,"sequence":"M9C7T","letter_input":"CMT","number_input":"79","is_correct":true,"presentation_start_time":1685640169918.85,"presentation_end_time":1685640177419.06,"response_time":1685640193361.21},{"stage":"Calibration","trial":8,"sequence":"5D3B8R","letter_input":"DR","number_input":"358","is_correct":false,"presentation_start_time":1685640194893.93,"presentation_end_time":1685640203893.73,"response_time":1685640223434.53},{"stage":"Calibration","trial":9,"sequence":"L1J7E4","letter_input":"JLR","number_input":"147","is_correct":false,"presentation_start_time":1685640224967.23,"presentation_end_time":1685640233967.09,"response_time":1685640245044.05}]}