{"meta_data":{"additional_headers":{},"game_name":"Recollect","version":"2.53.01","user_name":"112","organization":"braingamecenter","study":"mpl2_2022_11","session_number":0,"device_id":"74342D95-EE82-45E3-8ADF-48FB3203C5DD"},"data":[{"trial":0,"action":1,"button_pressed":0,"time_out":false,"dwell_time":63.6201171875,"response_time":1685639721252.2},{"trial":0,"action":1,"button_pressed":6,"time_out":false,"dwell_time":47.9599609375,"response_time":1685639721685.71},{"trial":0,"action":9,"button_pressed":-1,"time_out":false,"dwell_time":74.10400390625,"response_time":1685639722379.02},{"trial":1,"action":1,"button_pressed":10,"time_out":false,"dwell_time":98.10888671875,"response_time":1685639732115.94},{"trial":1,"action":1,"button_pressed":0,"time_out":false,"dwell_time":47.805908203125,"response_time":1685639732632.73},{"trial":1,"action":1,"button_pressed":6,"time_out":false,"dwell_time":81.10400390625,"response_time":1685639733115.41},{"trial":1,"action":9,"button_pressed":-1,"time_out":false,"dwell_time":81.68603515625,"response_time":1685639733732.01},{"trial":2,"action":1,"button_pressed":4,"time_out":false,"dwell_time":116.48681640625,"response_time":1685639745744.59},{"trial":2,"action":1,"button_pressed":2,"time_out":false,"dwell_time":31.253173828125,"response_time":1685639746178.35},{"trial":2,"action":1,"button_pressed":7,"time_out":false,"dwell_time":64.447021484375,"response_time":1685639746877.53},{"trial":2,"action":1,"button_pressed":3,"time_out":false,"dwell_time":63.3408203125,"response_time":1685639747326.75},{"trial":2,"action":9,"button_pressed":-1,"time_out":false,"dwell_time":97.591064453125,"response_time":1685639747760.66},{"trial":3,"action":1,"button_pressed":9,"time_out":false,"dwell_time":80.97412109375,"response_time":1685639762438.62},{"trial":3,"action":1,"button_pressed":0,"time_out":false,"dwell_time":63.52001953125,"response_time":1685639762821.84},{"trial":3,"action":1,"button_pressed":2,"time_out":false,"dwell_time":81.440185546875,"response_time":1685639763138.91},{"trial":3,"action":1,"button_pressed":1,"time_out":false,"dwell_time":64.093017578125,"response_time":1685639764437.67},{"trial":3,"action":1,"button_pressed":6,"time_out":false,"dwell_time":97.929931640625,"response_time":1685639764771.72},{"trial":3,"action":9,"button_pressed":-1,"time_out":false,"dwell_time":64.541015625,"response_time":1685639765387.88},{"trial":4,"action":1,"button_pressed":10,"time_out":false,"dwell_time":80.909912109375,"response_time":1685639782798.46},{"trial":4,"action":1,"button_pressed":2,"time_out":false,"dwell_time":80.093994140625,"response_time":1685639783248.3},{"trial":4,"action":1,"button_pressed":9,"time_out":false,"dwell_time":46.827880859375,"response_time":1685639783781.78},{"trial":4,"action":1,"button_pressed":5,"time_out":false,"dwell_time":64.048095703125,"response_time":1685639784481.08},{"trial":4,"action":1,"button_pressed":11,"time_out":false,"dwell_time":63.29296875,"response_time":1685639785064.24},{"trial":4,"action":1,"button_pressed":0,"time_out":false,"dwell_time":80.66015625,"response_time":1685639785598.07},{"trial":4,"action":9,"button_pressed":-1,"time_out":false,"dwell_time":82.078125,"response_time":1685639786881.49},{"trial":5,"action":1,"button_pressed":10,"time_out":false,"dwell_time":98.158935546875,"response_time":1685639806957.99},{"trial":5,"action":1,"button_pressed":0,"time_out":false,"dwell_time":80.620849609375,"response_time":1685639807474.23},{"trial":5,"action":1,"button_pressed":2,"time_out":false,"dwell_time":97.51904296875,"response_time":1685639807891},{"trial":5,"action":1,"button_pressed":7,"time_out":false,"dwell_time":97.904052734375,"response_time":1685639808823.85},{"trial":5,"action":1,"button_pressed":1,"time_out":false,"dwell_time":64.781005859375,"response_time":1685639809439.99},{"trial":5,"action":1,"button_pressed":4,"time_out":false,"dwell_time":31.23681640625,"response_time":1685639809624.18},{"trial":5,"action":1,"button_pressed":4,"time_out":false,"dwell_time":48.110107421875,"response_time":1685639810806.16},{"trial":5,"action":1,"button_pressed":6,"time_out":false,"dwell_time":63.822998046875,"response_time":1685639811838.82},{"trial":5,"action":9,"button_pressed":-1,"time_out":false,"dwell_time":81.442138671875,"response_time":1685639813688.55},{"trial":6,"action":1,"button_pressed":2,"time_out":false,"dwell_time":114.599853515625,"response_time":1685639833348.65},{"trial":6,"action":1,"button_pressed":9,"time_out":false,"dwell_time":97.070068359375,"response_time":1685639833981.38},{"trial":6,"action":1,"button_pressed":6,"time_out":false,"dwell_time":81.373046875,"response_time":1685639834432.01},{"trial":6,"action":1,"button_pressed":0,"time_out":false,"dwell_time":96.906005859375,"response_time":1685639834814.58},{"trial":6,"action":1,"button_pressed":3,"time_out":false,"dwell_time":97.35302734375,"response_time":1685639835198.33},{"trial":6,"action":1,"button_pressed":10,"time_out":false,"dwell_time":114.5009765625,"response_time":1685639836031.42},{"trial":6,"action":1,"button_pressed":7,"time_out":false,"dwell_time":80.803955078125,"response_time":1685639836264.02},{"trial":6,"action":9,"button_pressed":-1,"time_out":false,"dwell_time":82.090087890625,"response_time":1685639836948.35},{"trial":7,"action":1,"button_pressed":2,"time_out":false,"dwell_time":130.8359375,"response_time":1685639852508.89},{"trial":7,"action":1,"button_pressed":6,"time_out":false,"dwell_time":80.972900390625,"response_time":1685639853292.02},{"trial":7,"action":1,"button_pressed":7,"time_out":false,"dwell_time":114.01611328125,"response_time":1685639853575.01},{"trial":7,"action":1,"button_pressed":0,"time_out":false,"dwell_time":81.516845703125,"response_time":1685639854108.81},{"trial":7,"action":1,"button_pressed":8,"time_out":false,"dwell_time":79.9970703125,"response_time":1685639854574.62},{"trial":7,"action":9,"button_pressed":-1,"time_out":false,"dwell_time":64.531982421875,"response_time":1685639855158.83},{"trial":8,"action":1,"button_pressed":9,"time_out":false,"dwell_time":63.959228515625,"response_time":1685639872368.9},{"trial":8,"action":1,"button_pressed":1,"time_out":false,"dwell_time":80.613037109375,"response_time":1685639872719.32},{"trial":8,"action":1,"button_pressed":2,"time_out":false,"dwell_time":63.93994140625,"response_time":1685639873235.81},{"trial":8,"action":1,"button_pressed":6,"time_out":false,"dwell_time":96.6630859375,"response_time":1685639873918.35},{"trial":8,"action":1,"button_pressed":8,"time_out":false,"dwell_time":97.480224609375,"response_time":1685639874218.98},{"trial":8,"action":1,"button_pressed":11,"time_out":false,"dwell_time":63.256103515625,"response_time":1685639874551.39},{"trial":8,"action":9,"button_pressed":-1,"time_out":false,"dwell_time":81.990966796875,"response_time":1685639875818.87},{"trial":9,"action":1,"button_pressed":2,"time_out":false,"dwell_time":96.70703125,"response_time":1685639893095.27},{"trial":9,"action":1,"button_pressed":6,"time_out":false,"dwell_time":47.037841796875,"response_time":1685639893778.88},{"trial":9,"action":1,"button_pressed":10,"time_out":false,"dwell_time":113.697021484375,"response_time":1685639894378.85},{"trial":9,"action":1,"button_pressed":7,"time_out":false,"dwell_time":80.651123046875,"response_time":1685639895611.14},{"trial":9,"action":1,"button_pressed":9,"time_out":false,"dwell_time":97.406982421875,"response_time":1685639895878.51},{"trial":9,"action":1,"button_pressed":3,"time_out":false,"dwell_time":30.90087890625,"response_time":1685639896544.37},{"trial":9,"action":9,"button_pressed":-1,"time_out":false,"dwell_time":98.406005859375,"response_time":1685639897111.71},{"trial":10,"action":1,"button_pressed":11,"time_out":false,"dwell_time":81.10400390625,"response_time":1685639917238.23},{"trial":10,"action":1,"button_pressed":4,"time_out":false,"dwell_time":63.97998046875,"response_time":1685639917570.52},{"trial":10,"action":1,"button_pressed":3,"time_out":false,"dwell_time":63.531982421875,"response_time":1685639918337.15},{"trial":10,"action":1,"button_pressed":10,"time_out":false,"dwell_time":63.72412109375,"response_time":1685639918754.13},{"trial":10,"action":1,"button_pressed":2,"time_out":false,"dwell_time":80.444091796875,"response_time":1685639919219.72},{"trial":10,"action":1,"button_pressed":8,"time_out":false,"dwell_time":80.780029296875,"response_time":1685639919653.19},{"trial":10,"action":1,"button_pressed":1,"time_out":false,"dwell_time":80.7099609375,"response_time":1685639919987.16},{"trial":10,"action":9,"button_pressed":-1,"time_out":false,"dwell_time":63.947021484375,"response_time":1685639920469.86},{"trial":11,"action":1,"button_pressed":8,"time_out":false,"dwell_time":98.34912109375,"response_time":1685639943162.79},{"trial":11,"action":1,"button_pressed":0,"time_out":false,"dwell_time":80.803955078125,"response_time":1685639943395.21},{"trial":11,"action":1,"button_pressed":6,"time_out":false,"dwell_time":113.989990234375,"response_time":1685639943979.09},{"trial":11,"action":1,"button_pressed":9,"time_out":false,"dwell_time":64.161865234375,"response_time":1685639944195.68},{"trial":11,"action":1,"button_pressed":5,"time_out":false,"dwell_time":96.879150390625,"response_time":1685639944828.15},{"trial":11,"action":1,"button_pressed":7,"time_out":false,"dwell_time":80.58203125,"response_time":1685639945145.31},{"trial":11,"action":1,"button_pressed":3,"time_out":false,"dwell_time":47.7080078125,"response_time":1685639945845.44},{"trial":11,"action":1,"button_pressed":2,"time_out":false,"dwell_time":64.0078125,"response_time":1685639945994.24},{"trial":11,"action":9,"button_pressed":-1,"time_out":false,"dwell_time":64.52099609375,"response_time":1685639946377.9},{"trial":12,"action":1,"button_pressed":9,"time_out":false,"dwell_time":114.2548828125,"response_time":1685639968886.93},{"trial":12,"action":1,"button_pressed":7,"time_out":false,"dwell_time":63.18212890625,"response_time":1685639969353.25},{"trial":12,"action":1,"button_pressed":10,"time_out":false,"dwell_time":97.454833984375,"response_time":1685639969920.52},{"trial":12,"action":1,"button_pressed":4,"time_out":false,"dwell_time":31.23095703125,"response_time":1685639970736.54},{"trial":12,"action":1,"button_pressed":3,"time_out":false,"dwell_time":114.204833984375,"response_time":1685639971120.1},{"trial":12,"action":1,"button_pressed":8,"time_out":false,"dwell_time":63.964111328125,"response_time":1685639971669.97},{"trial":12,"action":1,"button_pressed":5,"time_out":false,"dwell_time":63.4228515625,"response_time":1685639972135.69},{"trial":12,"action":1,"button_pressed":11,"time_out":false,"dwell_time":80.37890625,"response_time":1685639973268.61},{"trial":12,"action":1,"button_pressed":11,"time_out":false,"dwell_time":81.259033203125,"response_time":1685639975202.04},{"trial":12,"action":1,"button_pressed":2,"time_out":false,"dwell_time":47.9140625,"response_time":1685639976817.86},{"trial":12,"action":9,"button_pressed":-1,"time_out":false,"dwell_time":31.27001953125,"response_time":1685639977501.68}]}