{"meta_data":{"additional_headers":{},"game_name":"Recollect","version":"2.53.01","user_name":"113","organization":"braingamecenter","study":"mpl2_2022_11","session_number":0,"device_id":"74342D95-EE82-45E3-8ADF-48FB3203C5DD"},"data":[{"trial":0,"action":1,"button_pressed":11,"time_out":false,"dwell_time":30.570068359375,"response_time":1685650268097.81},{"trial":0,"action":1,"button_pressed":8,"time_out":false,"dwell_time":47.69580078125,"response_time":1685650268848.22},{"trial":0,"action":9,"button_pressed":-1,"time_out":false,"dwell_time":92.177978515625,"response_time":1685650269708.77},{"trial":1,"action":1,"button_pressed":10,"time_out":false,"dwell_time":64.923095703125,"response_time":1685650279560.99},{"trial":1,"action":1,"button_pressed":0,"time_out":false,"dwell_time":81.514892578125,"response_time":1685650280127.3},{"trial":1,"action":1,"button_pressed":6,"time_out":false,"dwell_time":63.6298828125,"response_time":1685650280843.62},{"trial":1,"action":9,"button_pressed":-1,"time_out":false,"dwell_time":81.22607421875,"response_time":1685650281609.78},{"trial":2,"action":1,"button_pressed":9,"time_out":false,"dwell_time":47.02392578125,"response_time":1685650293889.27},{"trial":2,"action":1,"button_pressed":11,"time_out":false,"dwell_time":31.203125,"response_time":1685650294505.56},{"trial":2,"action":1,"button_pressed":8,"time_out":false,"dwell_time":48.25,"response_time":1685650295256.04},{"trial":2,"action":1,"button_pressed":0,"time_out":false,"dwell_time":63.26220703125,"response_time":1685650296137.91},{"trial":2,"action":9,"button_pressed":-1,"time_out":false,"dwell_time":98.682861328125,"response_time":1685650296822.21},{"trial":3,"action":1,"button_pressed":1,"time_out":false,"dwell_time":114.31005859375,"response_time":1685650312765.84},{"trial":3,"action":1,"button_pressed":10,"time_out":false,"dwell_time":97.868896484375,"response_time":1685650313666.02},{"trial":3,"action":1,"button_pressed":0,"time_out":false,"dwell_time":80.515869140625,"response_time":1685650315298.22},{"trial":3,"action":1,"button_pressed":9,"time_out":false,"dwell_time":64.247802734375,"response_time":1685650315781.48},{"trial":3,"action":1,"button_pressed":5,"time_out":false,"dwell_time":31.48095703125,"response_time":1685650316281.88},{"trial":3,"action":9,"button_pressed":-1,"time_out":false,"dwell_time":81.258056640625,"response_time":1685650317798.53},{"trial":4,"action":1,"button_pressed":6,"time_out":false,"dwell_time":81.45703125,"response_time":1685650335442.25},{"trial":4,"action":1,"button_pressed":0,"time_out":false,"dwell_time":80.373046875,"response_time":1685650336008.2},{"trial":4,"action":1,"button_pressed":5,"time_out":false,"dwell_time":114.9150390625,"response_time":1685650337358.24},{"trial":4,"action":1,"button_pressed":11,"time_out":false,"dwell_time":62.93701171875,"response_time":1685650338706.99},{"trial":4,"action":1,"button_pressed":8,"time_out":false,"dwell_time":64.673095703125,"response_time":1685650339574.1},{"trial":4,"action":1,"button_pressed":4,"time_out":false,"dwell_time":47.704833984375,"response_time":1685650340057.82},{"trial":4,"action":9,"button_pressed":-1,"time_out":false,"dwell_time":81.429931640625,"response_time":1685650341790.66},{"trial":5,"action":1,"button_pressed":9,"time_out":false,"dwell_time":63.364013671875,"response_time":1685650359750.09},{"trial":5,"action":1,"button_pressed":1,"time_out":false,"dwell_time":97.786865234375,"response_time":1685650360483.47},{"trial":5,"action":1,"button_pressed":0,"time_out":false,"dwell_time":114.783935546875,"response_time":1685650361366.91},{"trial":5,"action":1,"button_pressed":2,"time_out":false,"dwell_time":96.7529296875,"response_time":1685650363415.47},{"trial":5,"action":1,"button_pressed":11,"time_out":false,"dwell_time":63.426025390625,"response_time":1685650366297.82},{"trial":5,"action":1,"button_pressed":6,"time_out":false,"dwell_time":47.800048828125,"response_time":1685650366782.16},{"trial":5,"action":9,"button_pressed":-1,"time_out":false,"dwell_time":64.47705078125,"response_time":1685650368214.92},{"trial":6,"action":1,"button_pressed":6,"time_out":false,"dwell_time":64.280029296875,"response_time":1685650381093.96},{"trial":6,"action":1,"button_pressed":8,"time_out":false,"dwell_time":63.83203125,"response_time":1685650381676.12},{"trial":6,"action":1,"button_pressed":11,"time_out":false,"dwell_time":63.794921875,"response_time":1685650382459.07},{"trial":6,"action":1,"button_pressed":7,"time_out":false,"dwell_time":64.5009765625,"response_time":1685650383226.14},{"trial":6,"action":9,"button_pressed":-1,"time_out":false,"dwell_time":64.571044921875,"response_time":1685650384375.65},{"trial":7,"action":1,"button_pressed":5,"time_out":false,"dwell_time":79.9951171875,"response_time":1685650404951.81},{"trial":7,"action":1,"button_pressed":6,"time_out":false,"dwell_time":47.1220703125,"response_time":1685650406285.07},{"trial":7,"action":1,"button_pressed":9,"time_out":false,"dwell_time":47.407958984375,"response_time":1685650406569.06},{"trial":7,"action":1,"button_pressed":8,"time_out":false,"dwell_time":30.8330078125,"response_time":1685650406934.77},{"trial":7,"action":9,"button_pressed":-1,"time_out":false,"dwell_time":63.8798828125,"response_time":1685650407684.54},{"trial":8,"action":1,"button_pressed":11,"time_out":false,"dwell_time":30.433837890625,"response_time":1685650423396.07},{"trial":8,"action":1,"button_pressed":1,"time_out":false,"dwell_time":48.725830078125,"response_time":1685650424846.25},{"trial":8,"action":1,"button_pressed":9,"time_out":false,"dwell_time":80.34912109375,"response_time":1685650425478.11},{"trial":8,"action":1,"button_pressed":7,"time_out":false,"dwell_time":79.9169921875,"response_time":1685650425961.42},{"trial":8,"action":1,"button_pressed":4,"time_out":false,"dwell_time":14.303955078125,"response_time":1685650426561.57},{"trial":8,"action":9,"button_pressed":-1,"time_out":false,"dwell_time":98.4150390625,"response_time":1685650427312.05},{"trial":9,"action":1,"button_pressed":8,"time_out":false,"dwell_time":130.76904296875,"response_time":1685650445055.08},{"trial":9,"action":1,"button_pressed":0,"time_out":false,"dwell_time":97.56103515625,"response_time":1685650446538.54},{"trial":9,"action":1,"button_pressed":1,"time_out":false,"dwell_time":114.1650390625,"response_time":1685650447270.88},{"trial":9,"action":1,"button_pressed":6,"time_out":false,"dwell_time":63.739990234375,"response_time":1685650449086.94},{"trial":9,"action":1,"button_pressed":9,"time_out":false,"dwell_time":80.677978515625,"response_time":1685650449487.68},{"trial":9,"action":1,"button_pressed":2,"time_out":false,"dwell_time":30.046142578125,"response_time":1685650449987.15},{"trial":9,"action":9,"button_pressed":-1,"time_out":false,"dwell_time":48.428955078125,"response_time":1685650451004.64},{"trial":10,"action":1,"button_pressed":2,"time_out":false,"dwell_time":98.755126953125,"response_time":1685650468181.59},{"trial":10,"action":1,"button_pressed":10,"time_out":false,"dwell_time":79.81494140625,"response_time":1685650468663.75},{"trial":10,"action":1,"button_pressed":5,"time_out":false,"dwell_time":64.093994140625,"response_time":1685650469564.24},{"trial":10,"action":1,"button_pressed":11,"time_out":false,"dwell_time":80.319091796875,"response_time":1685650470497.21},{"trial":10,"action":1,"button_pressed":6,"time_out":false,"dwell_time":96.662109375,"response_time":1685650471746.17},{"trial":10,"action":1,"button_pressed":0,"time_out":false,"dwell_time":48.072998046875,"response_time":1685650472013.32},{"trial":10,"action":9,"button_pressed":-1,"time_out":false,"dwell_time":49.06689453125,"response_time":1685650472614.24}]}