{"meta_data":{"additional_headers":{},"game_name":"Recollect","version":"2.53.01","user_name":"114","organization":"braingamecenter","study":"mpl2_2022_11","session_number":0,"device_id":"74342D95-EE82-45E3-8ADF-48FB3203C5DD"},"data":[{"stage":"Practice","trial":0,"sequence":"6F","letter_input":"F","number_input":"6","is_correct":true,"presentation_start_time":1686171442456,"presentation_end_time":1686171445457.84,"response_time":1686171452022.95},{"stage":"Practice","trial":1,"sequence":"G4","letter_input":"G","number_input":"4","is_correct":true,"presentation_start_time":1686171453552.43,"presentation_end_time":1686171456554.13,"response_time":1686171461016.81},{"stage":"Practice","trial":2,"sequence":"3W5","letter_input":"W","number_input":"35","is_correct":true,"presentation_start_time":1686171462549.48,"presentation_end_time":1686171467050.75,"response_time":1686171471996.45},{"stage":"Practice","trial":3,"sequence":"T7L","letter_input":"LT","number_input":"7","is_correct":true,"presentation_start_time":1686171473529.2,"presentation_end_time":1686171478030.57,"response_time":1686171490923.65},{"stage":"Practice","trial":4,"sequence":"9J1","letter_input":"J","number_input":"19","is_correct":true,"presentation_start_time":1686171492456.4,"presentation_end_time":1686171496957.7,"response_time":1686171502603.21},{"stage":"Calibration","trial":0,"sequence":"K2","letter_input":"K","number_input":"2","is_correct":true,"presentation_start_time":1686171505951.96,"presentation_end_time":1686171508953.96,"response_time":1686171512349.97},{"stage":"Calibration","trial":1,"sequence":"4E","letter_input":"E","number_input":"4","is_correct":true,"presentation_start_time":1686171513882.82,"presentation_end_time":1686171516884.62,"response_time":1686171522979.8},{"stage":"Calibration","trial":2,"sequence":"V1M","letter_input":"MV","number_input":"1","is_correct":true,"presentation_start_time":1686171524512.54,"presentation_end_time":1686171529013.76,"response_time":1686171534409.49},{"stage":"Calibration","trial":3,"sequence":"6L2","letter_input":"L","number_input":"26","is_correct":true,"presentation_start_time":1686171535942.14,"presentation_end_time":1686171540443.54,"response_time":1686171543639.77},{"stage":"Calibration","trial":4,"sequence":"F4C1","letter_input":"CF","number_input":"14","is_correct":true,"presentation_start_time":1686171545172.57,"presentation_end_time":1686171551173.27,"response_time":1686171555869.15},{"stage":"Calibration","trial":5,"sequence":"8S2G","letter_input":"GS","number_input":"28","is_correct":true,"presentation_start_time":1686171557401.75,"presentation_end_time":1686171563402.64,"response_time":1686171567648.56},{"stage":"Calibration","trial":6,"sequence":"V6P1M","letter_input":"CMP","number_input":"16","is_correct":false,"presentation_start_time":1686171569181.32,"presentation_end_time":1686171576681.74,"response_time":1686171587225.52},{"stage":"Calibration","trial":7,"sequence":"8Y5H3","letter_input":"PY","number_input":"358","is_correct":false,"presentation_start_time":1686171588758.27,"presentation_end_time":1686171596258.67,"response_time":1686171602054.04}]}