{"meta_data":{"additional_headers":{},"game_name":"Recollect","version":"2.53.01","user_name":"115","organization":"braingamecenter","study":"mpl2_2022_11","session_number":0,"device_id":"74342D95-EE82-45E3-8ADF-48FB3203C5DD"},"data":[{"trial":0,"action":1,"button_pressed":4,"time_out":false,"dwell_time":97.01318359375,"response_time":1686265363636.17},{"trial":0,"action":1,"button_pressed":11,"time_out":false,"dwell_time":47.701904296875,"response_time":1686265364136.32},{"trial":0,"action":9,"button_pressed":-1,"time_out":false,"dwell_time":107.39501953125,"response_time":1686265365262.77},{"trial":1,"action":1,"button_pressed":4,"time_out":false,"dwell_time":81.280029296875,"response_time":1686265374949.15},{"trial":1,"action":1,"button_pressed":7,"time_out":false,"dwell_time":47.39404296875,"response_time":1686265376049.12},{"trial":1,"action":1,"button_pressed":10,"time_out":false,"dwell_time":47.614013671875,"response_time":1686265376649.46},{"trial":1,"action":9,"button_pressed":-1,"time_out":false,"dwell_time":131.98486328125,"response_time":1686265377465.78},{"trial":2,"action":1,"button_pressed":6,"time_out":false,"dwell_time":64.144775390625,"response_time":1686265389528.22},{"trial":2,"action":1,"button_pressed":8,"time_out":false,"dwell_time":47.1328125,"response_time":1686265389961.03},{"trial":2,"action":1,"button_pressed":11,"time_out":false,"dwell_time":64.072998046875,"response_time":1686265390477.74},{"trial":2,"action":1,"button_pressed":7,"time_out":false,"dwell_time":63.948974609375,"response_time":1686265390827.58},{"trial":2,"action":9,"button_pressed":-1,"time_out":false,"dwell_time":81.133056640625,"response_time":1686265391577.83},{"trial":3,"action":1,"button_pressed":8,"time_out":false,"dwell_time":80.538818359375,"response_time":1686265406372.37},{"trial":3,"action":1,"button_pressed":4,"time_out":false,"dwell_time":63.2080078125,"response_time":1686265406771.58},{"trial":3,"action":1,"button_pressed":1,"time_out":false,"dwell_time":97.515869140625,"response_time":1686265407822.16},{"trial":3,"action":1,"button_pressed":5,"time_out":false,"dwell_time":98.080078125,"response_time":1686265408538.51},{"trial":3,"action":1,"button_pressed":3,"time_out":false,"dwell_time":63.963134765625,"response_time":1686265409188.29},{"trial":3,"action":9,"button_pressed":-1,"time_out":false,"dwell_time":115.47705078125,"response_time":1686265409755.34},{"trial":4,"action":1,"button_pressed":7,"time_out":false,"dwell_time":48.123046875,"response_time":1686265427032.28},{"trial":4,"action":1,"button_pressed":3,"time_out":false,"dwell_time":80.18798828125,"response_time":1686265428881.12},{"trial":4,"action":1,"button_pressed":4,"time_out":false,"dwell_time":64.196044921875,"response_time":1686265429497.48},{"trial":4,"action":1,"button_pressed":10,"time_out":false,"dwell_time":81.4931640625,"response_time":1686265430098.08},{"trial":4,"action":1,"button_pressed":9,"time_out":false,"dwell_time":64.6630859375,"response_time":1686265430514.55},{"trial":4,"action":1,"button_pressed":6,"time_out":false,"dwell_time":47.8310546875,"response_time":1686265432563.8},{"trial":4,"action":9,"button_pressed":-1,"time_out":false,"dwell_time":115.385009765625,"response_time":1686265433530.76},{"trial":5,"action":1,"button_pressed":4,"time_out":false,"dwell_time":64.799072265625,"response_time":1686265450857.98},{"trial":5,"action":1,"button_pressed":11,"time_out":false,"dwell_time":81.491943359375,"response_time":1686265451740.95},{"trial":5,"action":1,"button_pressed":3,"time_out":false,"dwell_time":114.112060546875,"response_time":1686265452240.06},{"trial":5,"action":1,"button_pressed":2,"time_out":false,"dwell_time":98.0078125,"response_time":1686265452690.64},{"trial":5,"action":1,"button_pressed":10,"time_out":false,"dwell_time":80.708984375,"response_time":1686265453156.38},{"trial":5,"action":1,"button_pressed":6,"time_out":false,"dwell_time":80.6669921875,"response_time":1686265453639.57},{"trial":5,"action":9,"button_pressed":-1,"time_out":false,"dwell_time":81.246826171875,"response_time":1686265454389.67},{"trial":6,"action":1,"button_pressed":9,"time_out":false,"dwell_time":65.057861328125,"response_time":1686265474366.98},{"trial":6,"action":1,"button_pressed":7,"time_out":false,"dwell_time":79.923095703125,"response_time":1686265474882.53},{"trial":6,"action":1,"button_pressed":4,"time_out":false,"dwell_time":81.75390625,"response_time":1686265475633.27},{"trial":6,"action":1,"button_pressed":1,"time_out":false,"dwell_time":114.91796875,"response_time":1686265477132.59},{"trial":6,"action":1,"button_pressed":11,"time_out":false,"dwell_time":98.281005859375,"response_time":1686265477732.47},{"trial":6,"action":1,"button_pressed":8,"time_out":false,"dwell_time":113.56298828125,"response_time":1686265479931.54},{"trial":6,"action":9,"button_pressed":-1,"time_out":false,"dwell_time":98.677001953125,"response_time":1686265483514.32},{"trial":7,"action":1,"button_pressed":2,"time_out":false,"dwell_time":130.9521484375,"response_time":1686265504207.14},{"trial":7,"action":1,"button_pressed":10,"time_out":false,"dwell_time":46.919921875,"response_time":1686265507288.92},{"trial":7,"action":1,"button_pressed":7,"time_out":false,"dwell_time":63.260986328125,"response_time":1686265507788.44},{"trial":7,"action":1,"button_pressed":1,"time_out":false,"dwell_time":114.72900390625,"response_time":1686265508372.29},{"trial":7,"action":1,"button_pressed":6,"time_out":false,"dwell_time":114.777099609375,"response_time":1686265509421.99},{"trial":7,"action":1,"button_pressed":0,"time_out":false,"dwell_time":98.088134765625,"response_time":1686265510671.56},{"trial":7,"action":1,"button_pressed":4,"time_out":false,"dwell_time":63.12109375,"response_time":1686265510903.85},{"trial":7,"action":9,"button_pressed":-1,"time_out":false,"dwell_time":148.008056640625,"response_time":1686265511954.11},{"trial":8,"action":1,"button_pressed":4,"time_out":false,"dwell_time":80.908935546875,"response_time":1686265527565.33},{"trial":8,"action":1,"button_pressed":11,"time_out":false,"dwell_time":80.43408203125,"response_time":1686265528082.02},{"trial":8,"action":1,"button_pressed":7,"time_out":false,"dwell_time":97.197998046875,"response_time":1686265528598.07},{"trial":8,"action":1,"button_pressed":3,"time_out":false,"dwell_time":130.8251953125,"response_time":1686265530181.01},{"trial":8,"action":1,"button_pressed":10,"time_out":false,"dwell_time":97.7109375,"response_time":1686265530714.4},{"trial":8,"action":9,"button_pressed":-1,"time_out":false,"dwell_time":130.7509765625,"response_time":1686265534663.28},{"trial":9,"action":1,"button_pressed":10,"time_out":false,"dwell_time":114.1171875,"response_time":1686265551741.36},{"trial":9,"action":1,"button_pressed":5,"time_out":false,"dwell_time":79.576904296875,"response_time":1686265552140.29},{"trial":9,"action":1,"button_pressed":3,"time_out":false,"dwell_time":81.47900390625,"response_time":1686265552824.33},{"trial":9,"action":1,"button_pressed":6,"time_out":false,"dwell_time":64.783935546875,"response_time":1686265553074.23},{"trial":9,"action":1,"button_pressed":2,"time_out":false,"dwell_time":47.260009765625,"response_time":1686265553657.17},{"trial":9,"action":9,"button_pressed":-1,"time_out":false,"dwell_time":114.4580078125,"response_time":1686265554840.53},{"trial":10,"action":1,"button_pressed":2,"time_out":false,"dwell_time":80.120849609375,"response_time":1686265575399.49},{"trial":10,"action":1,"button_pressed":9,"time_out":false,"dwell_time":63.532958984375,"response_time":1686265575816.14},{"trial":10,"action":1,"button_pressed":1,"time_out":false,"dwell_time":115.14501953125,"response_time":1686265576366.59},{"trial":10,"action":1,"button_pressed":8,"time_out":false,"dwell_time":63.72705078125,"response_time":1686265580265.07},{"trial":10,"action":1,"button_pressed":6,"time_out":false,"dwell_time":46.64501953125,"response_time":1686265580814.55},{"trial":10,"action":1,"button_pressed":11,"time_out":false,"dwell_time":30.983154296875,"response_time":1686265582680.92},{"trial":10,"action":9,"button_pressed":-1,"time_out":false,"dwell_time":116.47607421875,"response_time":1686265583613.38},{"trial":11,"action":1,"button_pressed":5,"time_out":false,"dwell_time":48.048828125,"response_time":1686265600858.84},{"trial":11,"action":1,"button_pressed":10,"time_out":false,"dwell_time":80.473876953125,"response_time":1686265601641.3},{"trial":11,"action":1,"button_pressed":7,"time_out":false,"dwell_time":46.8828125,"response_time":1686265602890.49},{"trial":11,"action":1,"button_pressed":4,"time_out":false,"dwell_time":79.919921875,"response_time":1686265603456.79},{"trial":11,"action":1,"button_pressed":0,"time_out":false,"dwell_time":63.9189453125,"response_time":1686265603823.25},{"trial":11,"action":1,"button_pressed":8,"time_out":false,"dwell_time":47.822021484375,"response_time":1686265604307.7},{"trial":11,"action":9,"button_pressed":-1,"time_out":false,"dwell_time":130.358154296875,"response_time":1686265605572.93},{"trial":12,"action":1,"button_pressed":1,"time_out":false,"dwell_time":80.916015625,"response_time":1686265625182.82},{"trial":12,"action":1,"button_pressed":9,"time_out":false,"dwell_time":80.505859375,"response_time":1686265625565.97},{"trial":12,"action":1,"button_pressed":7,"time_out":false,"dwell_time":47.156982421875,"response_time":1686265626099.89},{"trial":12,"action":1,"button_pressed":2,"time_out":false,"dwell_time":81.64404296875,"response_time":1686265628549.28},{"trial":12,"action":1,"button_pressed":5,"time_out":false,"dwell_time":63.992919921875,"response_time":1686265628999.03},{"trial":12,"action":1,"button_pressed":11,"time_out":false,"dwell_time":64.809814453125,"response_time":1686265630115.32},{"trial":12,"action":1,"button_pressed":6,"time_out":false,"dwell_time":64.73291015625,"response_time":1686265630548.54},{"trial":12,"action":9,"button_pressed":-1,"time_out":false,"dwell_time":97.83203125,"response_time":1686265631248.64},{"trial":13,"action":1,"button_pressed":8,"time_out":false,"dwell_time":80.951904296875,"response_time":1686265655740.31},{"trial":13,"action":1,"button_pressed":3,"time_out":false,"dwell_time":114.921875,"response_time":1686265656256.64},{"trial":13,"action":1,"button_pressed":5,"time_out":false,"dwell_time":97.447021484375,"response_time":1686265656889.81},{"trial":13,"action":1,"button_pressed":7,"time_out":false,"dwell_time":80.678955078125,"response_time":1686265658505.89},{"trial":13,"action":1,"button_pressed":11,"time_out":false,"dwell_time":80.720947265625,"response_time":1686265658921.74},{"trial":13,"action":1,"button_pressed":10,"time_out":false,"dwell_time":47.77685546875,"response_time":1686265662671.55},{"trial":13,"action":9,"button_pressed":-1,"time_out":false,"dwell_time":48.136962890625,"response_time":1686265664220.77}]}