{"meta_data":{"additional_headers":{},"game_name":"Recollect","version":"2.53.01","user_name":"116","organization":"braingamecenter","study":"mpl2_2022_11","session_number":0,"device_id":"74342D95-EE82-45E3-8ADF-48FB3203C5DD"},"data":[{"stage":"Practice","trial":0,"sequence":"6F","letter_input":"F","number_input":"6","is_correct":true,"presentation_start_time":1688763401245.92,"presentation_end_time":1688763404247.54,"response_time":1688763414876.66},{"stage":"Practice","trial":1,"sequence":"G4","letter_input":"G","number_input":"4","is_correct":true,"presentation_start_time":1688763416406.94,"presentation_end_time":1688763419408.48,"response_time":1688763423854.23},{"stage":"Practice","trial":2,"sequence":"3W5","letter_input":"W","number_input":"35","is_correct":true,"presentation_start_time":1688763425387.02,"presentation_end_time":1688763429887.88,"response_time":1688763435583.02},{"stage":"Practice","trial":3,"sequence":"T7L","letter_input":"LT","number_input":"7","is_correct":true,"presentation_start_time":1688763437115.77,"presentation_end_time":1688763441616.84,"response_time":1688763454925.8},{"stage":"Practice","trial":4,"sequence":"9J1","letter_input":"J","number_input":"19","is_correct":true,"presentation_start_time":1688763456458.47,"presentation_end_time":1688763460959.59,"response_time":1688763465788.36},{"stage":"Calibration","trial":0,"sequence":"9S","letter_input":"S","number_input":"9","is_correct":true,"presentation_start_time":1688763479633.23,"presentation_end_time":1688763482634.76,"response_time":1688763487880.16},{"stage":"Calibration","trial":1,"sequence":"D3","letter_input":"D","number_input":"3","is_correct":true,"presentation_start_time":1688763489412.79,"presentation_end_time":1688763492414.49,"response_time":1688763497693.02},{"stage":"Calibration","trial":2,"sequence":"7H2","letter_input":"H","number_input":"27","is_correct":true,"presentation_start_time":1688763499225.68,"presentation_end_time":1688763503726.77,"response_time":1688763508255.7},{"stage":"Calibration","trial":3,"sequence":"T8J","letter_input":"JT","number_input":"8","is_correct":true,"presentation_start_time":1688763509788.34,"presentation_end_time":1688763514289.37,"response_time":1688763528731.34},{"stage":"Calibration","trial":4,"sequence":"7L1G","letter_input":"GL","number_input":"17","is_correct":true,"presentation_start_time":1688763530263.98,"presentation_end_time":1688763536264.55,"response_time":1688763547207.71},{"stage":"Calibration","trial":5,"sequence":"V8Q3","letter_input":"QV","number_input":"38","is_correct":true,"presentation_start_time":1688763548740.43,"presentation_end_time":1688763554740.97,"response_time":1688763585276.72},{"stage":"Calibration","trial":6,"sequence":"2W9C4","letter_input":"CW","number_input":"249","is_correct":true,"presentation_start_time":1688763586809.43,"presentation_end_time":1688763594309.4,"response_time":1688763620613.43},{"stage":"Calibration","trial":7,"sequence":"T6M3H","letter_input":"HMT","number_input":"36","is_correct":true,"presentation_start_time":1688763622146.11,"presentation_end_time":1688763629646.14,"response_time":1688763674393.08},{"stage":"Calibration","trial":8,"sequence":"8L4Y1Q","letter_input":"LQY","number_input":"148","is_correct":true,"presentation_start_time":1688763675925.8,"presentation_end_time":1688763684925.06,"response_time":1688763718326.64},{"stage":"Calibration","trial":9,"sequence":"E9C5R2","letter_input":"CER","number_input":"259","is_correct":true,"presentation_start_time":1688763719859.28,"presentation_end_time":1688763728858.62,"response_time":1688763745066.52},{"stage":"Calibration","trial":10,"sequence":"1Q6N3H8","letter_input":"HNQ","number_input":"1368","is_correct":true,"presentation_start_time":1688763746599.14,"presentation_end_time":1688763757097.86,"response_time":1688763775588.45},{"stage":"Calibration","trial":11,"sequence":"D5A2Z9P","letter_input":"ADPZ","number_input":"259","is_correct":true,"presentation_start_time":1688763777121,"presentation_end_time":1688763787619.89,"response_time":1688763806543.29},{"stage":"Calibration","trial":12,"sequence":"1W8L6H4B","letter_input":"BHLW","number_input":"1468","is_correct":true,"presentation_start_time":1688763808076.08,"presentation_end_time":1688763820074.22,"response_time":1688763843296.34},{"stage":"Calibration","trial":13,"sequence":"Q5F9Z7V3","letter_input":"FQVZ","number_input":"3579","is_correct":true,"presentation_start_time":1688763844828.9,"presentation_end_time":1688763856827,"response_time":1688763888495.83},{"stage":"Calibration","trial":14,"sequence":"2J6B4N8G3","letter_input":"BGJN","number_input":"23468","is_correct":true,"presentation_start_time":1688763890028.51,"presentation_end_time":1688763903526.29,"response_time":1688763945857.66},{"stage":"Calibration","trial":15,"sequence":"K1H9C7W5M","letter_input":"CHKMW","number_input":"1579","is_correct":true,"presentation_start_time":1688763947390.37,"presentation_end_time":1688763960888.06,"response_time":1688764007417.74},{"stage":"Calibration","trial":16,"sequence":"3N6Y5A9S8G","letter_input":"AGMNY","number_input":"35689","is_correct":false,"presentation_start_time":1688764008950.41,"presentation_end_time":1688764023947.5,"response_time":1688764099799.61},{"stage":"Calibration","trial":17,"sequence":"T2J7Z4R9B1","letter_input":"AGNRY","number_input":"14589","is_correct":false,"presentation_start_time":1688764101332.17,"presentation_end_time":1688764116329.47,"response_time":1688764171922.36}]}