{"meta_data":{"additional_headers":{},"game_name":"Recollect","version":"2.53.01","user_name":"116","organization":"braingamecenter","study":"mpl2_2022_11","session_number":0,"device_id":"74342D95-EE82-45E3-8ADF-48FB3203C5DD"},"data":[{"trial":0,"action":1,"button_pressed":6,"time_out":false,"dwell_time":97.734130859375,"response_time":1688763032785.97},{"trial":0,"action":1,"button_pressed":10,"time_out":false,"dwell_time":64.118896484375,"response_time":1688763033219.95},{"trial":0,"action":9,"button_pressed":-1,"time_out":false,"dwell_time":124.097900390625,"response_time":1688763034295.07},{"trial":1,"action":1,"button_pressed":10,"time_out":false,"dwell_time":63.97802734375,"response_time":1688763043998.41},{"trial":1,"action":1,"button_pressed":0,"time_out":false,"dwell_time":47.052001953125,"response_time":1688763044548.5},{"trial":1,"action":1,"button_pressed":6,"time_out":false,"dwell_time":48.087158203125,"response_time":1688763044965.09},{"trial":1,"action":9,"button_pressed":-1,"time_out":false,"dwell_time":62.931884765625,"response_time":1688763045647.15},{"trial":2,"action":1,"button_pressed":3,"time_out":false,"dwell_time":65.1240234375,"response_time":1688763057743.98},{"trial":2,"action":1,"button_pressed":5,"time_out":false,"dwell_time":65.10888671875,"response_time":1688763058077.25},{"trial":2,"action":1,"button_pressed":9,"time_out":false,"dwell_time":47.910888671875,"response_time":1688763058693.91},{"trial":2,"action":1,"button_pressed":2,"time_out":false,"dwell_time":30.14306640625,"response_time":1688763059126.22},{"trial":2,"action":9,"button_pressed":-1,"time_out":false,"dwell_time":47.85888671875,"response_time":1688763059793.34},{"trial":3,"action":1,"button_pressed":1,"time_out":false,"dwell_time":49.843017578125,"response_time":1688763074737.06},{"trial":3,"action":1,"button_pressed":10,"time_out":false,"dwell_time":63.22998046875,"response_time":1688763075253.08},{"trial":3,"action":1,"button_pressed":0,"time_out":false,"dwell_time":30.4638671875,"response_time":1688763075770.08},{"trial":3,"action":1,"button_pressed":9,"time_out":false,"dwell_time":46.85595703125,"response_time":1688763076235.76},{"trial":3,"action":1,"button_pressed":5,"time_out":false,"dwell_time":30.661865234375,"response_time":1688763076702.39},{"trial":3,"action":9,"button_pressed":-1,"time_out":false,"dwell_time":49.702880859375,"response_time":1688763077287.52},{"trial":4,"action":1,"button_pressed":1,"time_out":false,"dwell_time":47.512939453125,"response_time":1688763094646.59},{"trial":4,"action":1,"button_pressed":9,"time_out":false,"dwell_time":48.498046875,"response_time":1688763095063.63},{"trial":4,"action":1,"button_pressed":5,"time_out":false,"dwell_time":48.696044921875,"response_time":1688763095546.71},{"trial":4,"action":1,"button_pressed":6,"time_out":false,"dwell_time":64.074951171875,"response_time":1688763096096.04},{"trial":4,"action":1,"button_pressed":7,"time_out":false,"dwell_time":47.921875,"response_time":1688763096513.29},{"trial":4,"action":1,"button_pressed":2,"time_out":false,"dwell_time":48.929931640625,"response_time":1688763096979.56},{"trial":4,"action":9,"button_pressed":-1,"time_out":false,"dwell_time":16.8310546875,"response_time":1688763097628.48},{"trial":5,"action":1,"button_pressed":0,"time_out":false,"dwell_time":65.0859375,"response_time":1688763117688.02},{"trial":5,"action":1,"button_pressed":8,"time_out":false,"dwell_time":47.094970703125,"response_time":1688763118054.08},{"trial":5,"action":1,"button_pressed":5,"time_out":false,"dwell_time":47.571044921875,"response_time":1688763118421.39},{"trial":5,"action":1,"button_pressed":6,"time_out":false,"dwell_time":31.319091796875,"response_time":1688763118853.68},{"trial":5,"action":1,"button_pressed":10,"time_out":false,"dwell_time":48.054931640625,"response_time":1688763119236.96},{"trial":5,"action":1,"button_pressed":2,"time_out":false,"dwell_time":47.27099609375,"response_time":1688763119620.28},{"trial":5,"action":1,"button_pressed":9,"time_out":false,"dwell_time":48.071044921875,"response_time":1688763119986.77},{"trial":5,"action":9,"button_pressed":-1,"time_out":false,"dwell_time":48.23193359375,"response_time":1688763120687.48},{"trial":6,"action":1,"button_pressed":9,"time_out":false,"dwell_time":64.4111328125,"response_time":1688763143561.58},{"trial":6,"action":1,"button_pressed":7,"time_out":false,"dwell_time":65.171875,"response_time":1688763144028.03},{"trial":6,"action":1,"button_pressed":4,"time_out":false,"dwell_time":64.200927734375,"response_time":1688763144611.04},{"trial":6,"action":1,"button_pressed":10,"time_out":false,"dwell_time":64.971923828125,"response_time":1688763144994.11},{"trial":6,"action":1,"button_pressed":3,"time_out":false,"dwell_time":32.06884765625,"response_time":1688763145444.48},{"trial":6,"action":1,"button_pressed":5,"time_out":false,"dwell_time":64.826904296875,"response_time":1688763146010.59},{"trial":6,"action":1,"button_pressed":11,"time_out":false,"dwell_time":48.114013671875,"response_time":1688763146660.02},{"trial":6,"action":9,"button_pressed":-1,"time_out":false,"dwell_time":16.569091796875,"response_time":1688763147576},{"trial":7,"action":1,"button_pressed":7,"time_out":false,"dwell_time":48.176025390625,"response_time":1688763170701.89},{"trial":7,"action":1,"button_pressed":5,"time_out":false,"dwell_time":30.512939453125,"response_time":1688763171250.73},{"trial":7,"action":1,"button_pressed":3,"time_out":false,"dwell_time":47.824951171875,"response_time":1688763171801.3},{"trial":7,"action":1,"button_pressed":4,"time_out":false,"dwell_time":48.18408203125,"response_time":1688763172117.98},{"trial":7,"action":1,"button_pressed":1,"time_out":false,"dwell_time":31.16015625,"response_time":1688763172517.61},{"trial":7,"action":1,"button_pressed":10,"time_out":false,"dwell_time":48.7861328125,"response_time":1688763172967.53},{"trial":7,"action":1,"button_pressed":2,"time_out":false,"dwell_time":63.98291015625,"response_time":1688763174183.24},{"trial":7,"action":1,"button_pressed":6,"time_out":false,"dwell_time":48.625,"response_time":1688763176349.56},{"trial":7,"action":9,"button_pressed":-1,"time_out":false,"dwell_time":48.444091796875,"response_time":1688763176999.82},{"trial":8,"action":1,"button_pressed":5,"time_out":false,"dwell_time":47.633056640625,"response_time":1688763194709.24},{"trial":8,"action":1,"button_pressed":10,"time_out":false,"dwell_time":47.916015625,"response_time":1688763195141.91},{"trial":8,"action":1,"button_pressed":7,"time_out":false,"dwell_time":31.9169921875,"response_time":1688763195625.74},{"trial":8,"action":1,"button_pressed":4,"time_out":false,"dwell_time":48.700927734375,"response_time":1688763196125.48},{"trial":8,"action":1,"button_pressed":0,"time_out":false,"dwell_time":31.8759765625,"response_time":1688763196442.01},{"trial":8,"action":1,"button_pressed":8,"time_out":false,"dwell_time":30.18017578125,"response_time":1688763196874.52},{"trial":8,"action":9,"button_pressed":-1,"time_out":false,"dwell_time":30.81689453125,"response_time":1688763197474.8},{"trial":9,"action":1,"button_pressed":4,"time_out":false,"dwell_time":48.67822265625,"response_time":1688763219366.36},{"trial":9,"action":1,"button_pressed":11,"time_out":false,"dwell_time":31.136962890625,"response_time":1688763219866.63},{"trial":9,"action":1,"button_pressed":6,"time_out":false,"dwell_time":47.9208984375,"response_time":1688763220265.6},{"trial":9,"action":1,"button_pressed":10,"time_out":false,"dwell_time":47.942138671875,"response_time":1688763221049.46},{"trial":9,"action":1,"button_pressed":3,"time_out":false,"dwell_time":30.385986328125,"response_time":1688763221431.92},{"trial":9,"action":1,"button_pressed":5,"time_out":false,"dwell_time":48.06982421875,"response_time":1688763221948.54},{"trial":9,"action":1,"button_pressed":8,"time_out":false,"dwell_time":63.802001953125,"response_time":1688763222331.86},{"trial":9,"action":9,"button_pressed":-1,"time_out":false,"dwell_time":48.35595703125,"response_time":1688763226647.83},{"trial":10,"action":1,"button_pressed":3,"time_out":false,"dwell_time":64.364990234375,"response_time":1688763246855.37},{"trial":10,"action":1,"button_pressed":0,"time_out":false,"dwell_time":64.48193359375,"response_time":1688763247438.71},{"trial":10,"action":1,"button_pressed":10,"time_out":false,"dwell_time":47.694091796875,"response_time":1688763247872.8},{"trial":10,"action":1,"button_pressed":5,"time_out":false,"dwell_time":48.0380859375,"response_time":1688763248289.35},{"trial":10,"action":1,"button_pressed":4,"time_out":false,"dwell_time":31.10107421875,"response_time":1688763248722.32},{"trial":10,"action":1,"button_pressed":1,"time_out":false,"dwell_time":47.756103515625,"response_time":1688763249172.27},{"trial":10,"action":1,"button_pressed":2,"time_out":false,"dwell_time":13.697998046875,"response_time":1688763249588.14},{"trial":10,"action":9,"button_pressed":-1,"time_out":false,"dwell_time":16.72802734375,"response_time":1688763250170.93},{"trial":11,"action":1,"button_pressed":10,"time_out":false,"dwell_time":30.81494140625,"response_time":1688763273029.5},{"trial":11,"action":1,"button_pressed":2,"time_out":false,"dwell_time":31.3359375,"response_time":1688763273362.39},{"trial":11,"action":1,"button_pressed":1,"time_out":false,"dwell_time":47.259033203125,"response_time":1688763273912.33},{"trial":11,"action":1,"button_pressed":9,"time_out":false,"dwell_time":47.781005859375,"response_time":1688763274262.92},{"trial":11,"action":1,"button_pressed":4,"time_out":false,"dwell_time":31.31005859375,"response_time":1688763274611.95},{"trial":11,"action":1,"button_pressed":11,"time_out":false,"dwell_time":48.294921875,"response_time":1688763274928.65},{"trial":11,"action":1,"button_pressed":5,"time_out":false,"dwell_time":13.409912109375,"response_time":1688763275344.49},{"trial":11,"action":9,"button_pressed":-1,"time_out":false,"dwell_time":31.072998046875,"response_time":1688763276278.32},{"trial":12,"action":1,"button_pressed":5,"time_out":false,"dwell_time":65.4169921875,"response_time":1688763298819.97},{"trial":12,"action":1,"button_pressed":6,"time_out":false,"dwell_time":65.171142578125,"response_time":1688763299436.58},{"trial":12,"action":1,"button_pressed":11,"time_out":false,"dwell_time":48.432861328125,"response_time":1688763299753.24},{"trial":12,"action":1,"button_pressed":4,"time_out":false,"dwell_time":47.890869140625,"response_time":1688763300235.58},{"trial":12,"action":1,"button_pressed":10,"time_out":false,"dwell_time":31.39892578125,"response_time":1688763300518.91},{"trial":12,"action":1,"button_pressed":1,"time_out":false,"dwell_time":48.809814453125,"response_time":1688763300969.63},{"trial":12,"action":1,"button_pressed":7,"time_out":false,"dwell_time":47.9990234375,"response_time":1688763301319.29},{"trial":12,"action":1,"button_pressed":0,"time_out":false,"dwell_time":32.079833984375,"response_time":1688763301752.46},{"trial":12,"action":9,"button_pressed":-1,"time_out":false,"dwell_time":14.738037109375,"response_time":1688763302186.01}]}