{"meta_data":{"additional_headers":{},"game_name":"Recollect","version":"2.53.01","user_name":"117","organization":"braingamecenter","study":"mpl2_2022_11","session_number":0,"device_id":"74342D95-EE82-45E3-8ADF-48FB3203C5DD"},"data":[{"stage":"Practice","trial":0,"sequence":"6F","letter_input":"F","number_input":"6","is_correct":true,"presentation_start_time":1689022246872.16,"presentation_end_time":1689022249874.02,"response_time":1689022260221.07},{"stage":"Practice","trial":1,"sequence":"G4","letter_input":"G","number_input":"4","is_correct":true,"presentation_start_time":1689022261750.58,"presentation_end_time":1689022264752.55,"response_time":1689022270147.93},{"stage":"Practice","trial":2,"sequence":"3W5","letter_input":"W","number_input":"35","is_correct":true,"presentation_start_time":1689022271680.61,"presentation_end_time":1689022276182.1,"response_time":1689022283560.14},{"stage":"Practice","trial":3,"sequence":"T7L","letter_input":"LT","number_input":"7","is_correct":true,"presentation_start_time":1689022285092.91,"presentation_end_time":1689022289594.37,"response_time":1689022306119.38},{"stage":"Practice","trial":4,"sequence":"9J1","letter_input":"J","number_input":"19","is_correct":true,"presentation_start_time":1689022307652.09,"presentation_end_time":1689022312153.61,"response_time":1689022316665.94},{"stage":"Calibration","trial":0,"sequence":"W1","letter_input":"W","number_input":"1","is_correct":true,"presentation_start_time":1689022334310.09,"presentation_end_time":1689022337311.83,"response_time":1689022342207.46},{"stage":"Calibration","trial":1,"sequence":"8K","letter_input":"K","number_input":"8","is_correct":true,"presentation_start_time":1689022343740.27,"presentation_end_time":1689022346742.28,"response_time":1689022352154.26},{"stage":"Calibration","trial":2,"sequence":"Y4D","letter_input":"DY","number_input":"4","is_correct":true,"presentation_start_time":1689022353686.96,"presentation_end_time":1689022358188.44,"response_time":1689022364483.49},{"stage":"Calibration","trial":3,"sequence":"7R1","letter_input":"R","number_input":"17","is_correct":true,"presentation_start_time":1689022366016.3,"presentation_end_time":1689022370517.75,"response_time":1689022376046.39},{"stage":"Calibration","trial":4,"sequence":"W9K2","letter_input":"KW","number_input":"29","is_correct":true,"presentation_start_time":1689022377579.22,"presentation_end_time":1689022383580.13,"response_time":1689022394373.61},{"stage":"Calibration","trial":5,"sequence":"4F1D","letter_input":"DF","number_input":"14","is_correct":true,"presentation_start_time":1689022395906.43,"presentation_end_time":1689022401907.3,"response_time":1689022415966.6},{"stage":"Calibration","trial":6,"sequence":"E8C5H","letter_input":"CEH","number_input":"58","is_correct":true,"presentation_start_time":1689022417499.25,"presentation_end_time":1689022424999.69,"response_time":1689022439625.61},{"stage":"Calibration","trial":7,"sequence":"1W7Q4","letter_input":"QW","number_input":"147","is_correct":true,"presentation_start_time":1689022441158.14,"presentation_end_time":1689022448658.52,"response_time":1689022462151.41},{"stage":"Calibration","trial":8,"sequence":"H2B8V6","letter_input":"BHV","number_input":"268","is_correct":true,"presentation_start_time":1689022463684.02,"presentation_end_time":1689022472683.91,"response_time":1689022496673.29},{"stage":"Calibration","trial":9,"sequence":"1C9L3E","letter_input":"CEL","number_input":"139","is_correct":true,"presentation_start_time":1689022498206.06,"presentation_end_time":1689022507205.99,"response_time":1689022529362.56},{"stage":"Calibration","trial":10,"sequence":"G4R2M8Y","letter_input":"GRMY","number_input":"248","is_correct":false,"presentation_start_time":1689022530895.3,"presentation_end_time":1689022541394.72,"response_time":1689022603521.44},{"stage":"Calibration","trial":11,"sequence":"6D3T9P1","letter_input":"DTV","number_input":"139","is_correct":false,"presentation_start_time":1689022605054.19,"presentation_end_time":1689022615553.63,"response_time":1689022659669.52}]}