{"meta_data":{"additional_headers":{},"game_name":"Recollect","version":"2.53.01","user_name":"118","organization":"braingamecenter","study":"mpl2_2022_11","session_number":0,"device_id":"74342D95-EE82-45E3-8ADF-48FB3203C5DD"},"data":[{"stage":"Practice","trial":0,"sequence":"6F","letter_input":"F","number_input":"6","is_correct":true,"presentation_start_time":1689030898283.01,"presentation_end_time":1689030901284.8,"response_time":1689030906348.68},{"stage":"Practice","trial":1,"sequence":"G4","letter_input":"G","number_input":"4","is_correct":true,"presentation_start_time":1689030907879.76,"presentation_end_time":1689030910881.61,"response_time":1689030917676.66},{"stage":"Practice","trial":2,"sequence":"3W5","letter_input":"W","number_input":"35","is_correct":true,"presentation_start_time":1689030919209.43,"presentation_end_time":1689030923710.79,"response_time":1689030931088.85},{"stage":"Practice","trial":3,"sequence":"T7L","letter_input":"LT","number_input":"7","is_correct":true,"presentation_start_time":1689030932621.64,"presentation_end_time":1689030937122.91,"response_time":1689030945017.59},{"stage":"Practice","trial":4,"sequence":"9J1","letter_input":"J","number_input":"19","is_correct":true,"presentation_start_time":1689030946550.47,"presentation_end_time":1689030951051.72,"response_time":1689030956147.18},{"stage":"Calibration","trial":0,"sequence":"N2","letter_input":"N","number_input":"2","is_correct":true,"presentation_start_time":1689030963677.96,"presentation_end_time":1689030966679.86,"response_time":1689030971025.69},{"stage":"Calibration","trial":1,"sequence":"1C","letter_input":"C","number_input":"1","is_correct":true,"presentation_start_time":1689030972558.31,"presentation_end_time":1689030975560.21,"response_time":1689030980239.2},{"stage":"Calibration","trial":2,"sequence":"V4L","letter_input":"LV","number_input":"4","is_correct":true,"presentation_start_time":1689030981771.92,"presentation_end_time":1689030986273.46,"response_time":1689030990919.02},{"stage":"Calibration","trial":3,"sequence":"9C2","letter_input":"C","number_input":"29","is_correct":true,"presentation_start_time":1689030992451.79,"presentation_end_time":1689030996953.07,"response_time":1689031002265.26},{"stage":"Calibration","trial":4,"sequence":"Y7W5","letter_input":"WY","number_input":"57","is_correct":true,"presentation_start_time":1689031003798.02,"presentation_end_time":1689031009798.91,"response_time":1689031015527.47},{"stage":"Calibration","trial":5,"sequence":"4H2B","letter_input":"BH","number_input":"24","is_correct":true,"presentation_start_time":1689031017060.31,"presentation_end_time":1689031023061.16,"response_time":1689031031388.91},{"stage":"Calibration","trial":6,"sequence":"S6A3Y","letter_input":"AS","number_input":"26","is_correct":false,"presentation_start_time":1689031032921.67,"presentation_end_time":1689031040422.22,"response_time":1689031059096.34},{"stage":"Calibration","trial":7,"sequence":"4P1D8","letter_input":"DP","number_input":"148","is_correct":true,"presentation_start_time":1689031060629.09,"presentation_end_time":1689031068129.45,"response_time":1689031082705.26},{"stage":"Calibration","trial":8,"sequence":"H7Z5J2","letter_input":"HJZ","number_input":"257","is_correct":true,"presentation_start_time":1689031084237.99,"presentation_end_time":1689031093237.95,"response_time":1689031109479.74},{"stage":"Calibration","trial":9,"sequence":"6T1K8G","letter_input":"KTY","number_input":"18","is_correct":false,"presentation_start_time":1689031111012.38,"presentation_end_time":1689031120012.23,"response_time":1689031135954.28},{"stage":"Calibration","trial":10,"sequence":"N9A5R2P","letter_input":"CNYP","number_input":"258","is_correct":false,"presentation_start_time":1689031137486.99,"presentation_end_time":1689031147986.28,"response_time":1689031176090.86},{"stage":"Calibration","trial":11,"sequence":"7B1Y6J4","letter_input":"BJK","number_input":"167","is_correct":false,"presentation_start_time":1689031177623.57,"presentation_end_time":1689031188123.02,"response_time":1689031207197.3}]}