{"meta_data":{"additional_headers":{},"game_name":"Recollect","version":"2.53.01","user_name":"119","organization":"braingamecenter","study":"mpl2_2022_11","session_number":0,"device_id":"74342D95-EE82-45E3-8ADF-48FB3203C5DD"},"data":[{"trial":0,"action":1,"button_pressed":9,"time_out":false,"dwell_time":48.89111328125,"response_time":1689107664605.75},{"trial":0,"action":1,"button_pressed":1,"time_out":false,"dwell_time":63.927001953125,"response_time":1689107664870.92},{"trial":0,"action":9,"button_pressed":-1,"time_out":false,"dwell_time":92.4140625,"response_time":1689107665332.29},{"trial":1,"action":1,"button_pressed":6,"time_out":false,"dwell_time":81.592041015625,"response_time":1689107674768.53},{"trial":1,"action":1,"button_pressed":5,"time_out":false,"dwell_time":81.492919921875,"response_time":1689107674968.31},{"trial":1,"action":1,"button_pressed":4,"time_out":false,"dwell_time":47.94287109375,"response_time":1689107675268.67},{"trial":1,"action":9,"button_pressed":-1,"time_out":false,"dwell_time":63.819091796875,"response_time":1689107675701.1},{"trial":2,"action":1,"button_pressed":3,"time_out":false,"dwell_time":81.003173828125,"response_time":1689107687497.58},{"trial":2,"action":1,"button_pressed":5,"time_out":false,"dwell_time":63.509033203125,"response_time":1689107687730.1},{"trial":2,"action":1,"button_pressed":9,"time_out":false,"dwell_time":64.6279296875,"response_time":1689107687930.58},{"trial":2,"action":1,"button_pressed":2,"time_out":false,"dwell_time":31.85986328125,"response_time":1689107688880.76},{"trial":2,"action":9,"button_pressed":-1,"time_out":false,"dwell_time":16.68994140625,"response_time":1689107689329.68},{"trial":3,"action":1,"button_pressed":7,"time_out":false,"dwell_time":98.095947265625,"response_time":1689107703575.61},{"trial":3,"action":1,"button_pressed":4,"time_out":false,"dwell_time":64.80419921875,"response_time":1689107703875.42},{"trial":3,"action":1,"button_pressed":11,"time_out":false,"dwell_time":80.31787109375,"response_time":1689107704158.62},{"trial":3,"action":1,"button_pressed":3,"time_out":false,"dwell_time":48.623046875,"response_time":1689107704625.52},{"trial":3,"action":1,"button_pressed":10,"time_out":false,"dwell_time":47.82177734375,"response_time":1689107704974.85},{"trial":3,"action":9,"button_pressed":-1,"time_out":false,"dwell_time":30.9560546875,"response_time":1689107705808.15},{"trial":4,"action":1,"button_pressed":0,"time_out":false,"dwell_time":65.26513671875,"response_time":1689107723119.34},{"trial":4,"action":1,"button_pressed":4,"time_out":false,"dwell_time":64.031005859375,"response_time":1689107723318.15},{"trial":4,"action":1,"button_pressed":11,"time_out":false,"dwell_time":80.651123046875,"response_time":1689107723568.94},{"trial":4,"action":1,"button_pressed":3,"time_out":false,"dwell_time":81.527099609375,"response_time":1689107723918.79},{"trial":4,"action":1,"button_pressed":5,"time_out":false,"dwell_time":30.446044921875,"response_time":1689107724284.97},{"trial":4,"action":1,"button_pressed":7,"time_out":false,"dwell_time":47.052001953125,"response_time":1689107724601.59},{"trial":4,"action":9,"button_pressed":-1,"time_out":false,"dwell_time":113.996826171875,"response_time":1689107725851.12},{"trial":5,"action":1,"button_pressed":4,"time_out":false,"dwell_time":64.177001953125,"response_time":1689107745278.3},{"trial":5,"action":1,"button_pressed":2,"time_out":false,"dwell_time":63.969970703125,"response_time":1689107745628.1},{"trial":5,"action":1,"button_pressed":6,"time_out":false,"dwell_time":80.633056640625,"response_time":1689107746093.92},{"trial":5,"action":1,"button_pressed":8,"time_out":false,"dwell_time":46.943115234375,"response_time":1689107746444.27},{"trial":5,"action":1,"button_pressed":1,"time_out":false,"dwell_time":80.8408203125,"response_time":1689107746910.38},{"trial":5,"action":1,"button_pressed":9,"time_out":false,"dwell_time":47.032958984375,"response_time":1689107747277.43},{"trial":5,"action":1,"button_pressed":0,"time_out":false,"dwell_time":64.013916015625,"response_time":1689107747627.39},{"trial":5,"action":9,"button_pressed":-1,"time_out":false,"dwell_time":65.31396484375,"response_time":1689107748027.81},{"trial":6,"action":1,"button_pressed":2,"time_out":false,"dwell_time":47.198974609375,"response_time":1689107770886.39},{"trial":6,"action":1,"button_pressed":4,"time_out":false,"dwell_time":48.483154296875,"response_time":1689107771170.26},{"trial":6,"action":1,"button_pressed":11,"time_out":false,"dwell_time":64.35595703125,"response_time":1689107772635.79},{"trial":6,"action":1,"button_pressed":5,"time_out":false,"dwell_time":97.47900390625,"response_time":1689107774751.98},{"trial":6,"action":1,"button_pressed":0,"time_out":false,"dwell_time":47.842041015625,"response_time":1689107775418.79},{"trial":6,"action":1,"button_pressed":10,"time_out":false,"dwell_time":47.721923828125,"response_time":1689107775918.52},{"trial":6,"action":1,"button_pressed":1,"time_out":false,"dwell_time":80.7880859375,"response_time":1689107779133.07},{"trial":6,"action":9,"button_pressed":-1,"time_out":false,"dwell_time":81.156982421875,"response_time":1689107779933.22},{"trial":7,"action":1,"button_pressed":5,"time_out":false,"dwell_time":47.093994140625,"response_time":1689107801859.38},{"trial":7,"action":1,"button_pressed":6,"time_out":false,"dwell_time":63.17919921875,"response_time":1689107802342.15},{"trial":7,"action":1,"button_pressed":11,"time_out":false,"dwell_time":63.73291015625,"response_time":1689107802842.51},{"trial":7,"action":1,"button_pressed":4,"time_out":false,"dwell_time":48.590087890625,"response_time":1689107803292.89},{"trial":7,"action":1,"button_pressed":10,"time_out":false,"dwell_time":64.6259765625,"response_time":1689107803758.88},{"trial":7,"action":1,"button_pressed":7,"time_out":false,"dwell_time":80.637939453125,"response_time":1689107804275.45},{"trial":7,"action":1,"button_pressed":0,"time_out":false,"dwell_time":47.774169921875,"response_time":1689107804692.38},{"trial":7,"action":9,"button_pressed":-1,"time_out":false,"dwell_time":16.69189453125,"response_time":1689107810122.84},{"trial":8,"action":1,"button_pressed":5,"time_out":false,"dwell_time":31.495849609375,"response_time":1689107827251.09},{"trial":8,"action":1,"button_pressed":10,"time_out":false,"dwell_time":47.5849609375,"response_time":1689107827683.92},{"trial":8,"action":1,"button_pressed":7,"time_out":false,"dwell_time":80.43408203125,"response_time":1689107828117.42},{"trial":8,"action":1,"button_pressed":4,"time_out":false,"dwell_time":46.39013671875,"response_time":1689107828416.3},{"trial":8,"action":1,"button_pressed":0,"time_out":false,"dwell_time":30.470947265625,"response_time":1689107828783.72},{"trial":8,"action":1,"button_pressed":8,"time_out":false,"dwell_time":30.35693359375,"response_time":1689107829183.56},{"trial":8,"action":9,"button_pressed":-1,"time_out":false,"dwell_time":16.6708984375,"response_time":1689107831165.88},{"trial":9,"action":1,"button_pressed":5,"time_out":false,"dwell_time":63.54296875,"response_time":1689107850509.5},{"trial":9,"action":1,"button_pressed":3,"time_out":false,"dwell_time":63.256103515625,"response_time":1689107851042.41},{"trial":9,"action":1,"button_pressed":8,"time_out":false,"dwell_time":63.19189453125,"response_time":1689107851475.74},{"trial":9,"action":1,"button_pressed":11,"time_out":false,"dwell_time":79.718017578125,"response_time":1689107852058.63},{"trial":9,"action":1,"button_pressed":7,"time_out":false,"dwell_time":80.5771484375,"response_time":1689107852726.03},{"trial":9,"action":1,"button_pressed":4,"time_out":false,"dwell_time":65.09912109375,"response_time":1689107853175.63},{"trial":9,"action":1,"button_pressed":10,"time_out":false,"dwell_time":64.463134765625,"response_time":1689107853509.1},{"trial":9,"action":9,"button_pressed":-1,"time_out":false,"dwell_time":64.43408203125,"response_time":1689107854209.25},{"trial":10,"action":1,"button_pressed":10,"time_out":false,"dwell_time":98.073974609375,"response_time":1689107876168.35},{"trial":10,"action":1,"button_pressed":2,"time_out":false,"dwell_time":98.239990234375,"response_time":1689107876701.5},{"trial":10,"action":1,"button_pressed":1,"time_out":false,"dwell_time":80.01904296875,"response_time":1689107877083.87},{"trial":10,"action":1,"button_pressed":9,"time_out":false,"dwell_time":80.60498046875,"response_time":1689107877484.45},{"trial":10,"action":1,"button_pressed":8,"time_out":false,"dwell_time":80.739013671875,"response_time":1689107877867.38},{"trial":10,"action":1,"button_pressed":11,"time_out":false,"dwell_time":80.617919921875,"response_time":1689107878234.2},{"trial":10,"action":1,"button_pressed":4,"time_out":false,"dwell_time":64.5849609375,"response_time":1689107878567.33},{"trial":10,"action":1,"button_pressed":5,"time_out":false,"dwell_time":31.679931640625,"response_time":1689107878967.71},{"trial":10,"action":9,"button_pressed":-1,"time_out":false,"dwell_time":98.432861328125,"response_time":1689107879600.71},{"trial":11,"action":1,"button_pressed":5,"time_out":false,"dwell_time":81.844970703125,"response_time":1689107904109.36},{"trial":11,"action":1,"button_pressed":3,"time_out":false,"dwell_time":63.31103515625,"response_time":1689107904308.25},{"trial":11,"action":1,"button_pressed":0,"time_out":false,"dwell_time":65.14990234375,"response_time":1689107904492.53},{"trial":11,"action":1,"button_pressed":6,"time_out":false,"dwell_time":63.30908203125,"response_time":1689107904641.46},{"trial":11,"action":1,"button_pressed":2,"time_out":false,"dwell_time":48.123046875,"response_time":1689107904826.11},{"trial":11,"action":1,"button_pressed":10,"time_out":false,"dwell_time":47.2490234375,"response_time":1689107905075.24},{"trial":11,"action":1,"button_pressed":7,"time_out":false,"dwell_time":81.222900390625,"response_time":1689107905308.52},{"trial":11,"action":1,"button_pressed":4,"time_out":false,"dwell_time":48.717041015625,"response_time":1689107905409.14},{"trial":11,"action":1,"button_pressed":8,"time_out":false,"dwell_time":48.43701171875,"response_time":1689107905625.54},{"trial":11,"action":9,"button_pressed":-1,"time_out":false,"dwell_time":64.4599609375,"response_time":1689107908041.29},{"trial":12,"action":1,"button_pressed":10,"time_out":false,"dwell_time":81.58203125,"response_time":1689107932582.96},{"trial":12,"action":1,"button_pressed":3,"time_out":false,"dwell_time":63.990966796875,"response_time":1689107932799.52},{"trial":12,"action":1,"button_pressed":6,"time_out":false,"dwell_time":80.714111328125,"response_time":1689107933015.31},{"trial":12,"action":1,"button_pressed":8,"time_out":false,"dwell_time":83.233154296875,"response_time":1689107933216.01},{"trial":12,"action":1,"button_pressed":7,"time_out":false,"dwell_time":81.1162109375,"response_time":1689107933698.83},{"trial":12,"action":1,"button_pressed":7,"time_out":false,"dwell_time":81.260009765625,"response_time":1689107934498.9},{"trial":12,"action":1,"button_pressed":11,"time_out":false,"dwell_time":80.720947265625,"response_time":1689107936514.23},{"trial":12,"action":1,"button_pressed":11,"time_out":false,"dwell_time":46.85205078125,"response_time":1689107937364.19},{"trial":12,"action":1,"button_pressed":11,"time_out":false,"dwell_time":64.18115234375,"response_time":1689107937814.49},{"trial":12,"action":1,"button_pressed":11,"time_out":false,"dwell_time":47.14501953125,"response_time":1689107938014.11},{"trial":12,"action":1,"button_pressed":11,"time_out":false,"dwell_time":30.511962890625,"response_time":1689107938197.39},{"trial":12,"action":1,"button_pressed":11,"time_out":false,"dwell_time":64.69189453125,"response_time":1689107938430.95},{"trial":12,"action":1,"button_pressed":11,"time_out":false,"dwell_time":47.307861328125,"response_time":1689107938630.43},{"trial":12,"action":1,"button_pressed":11,"time_out":false,"dwell_time":81.656982421875,"response_time":1689107938897.49},{"trial":12,"action":1,"button_pressed":11,"time_out":false,"dwell_time":80.827880859375,"response_time":1689107939164.03},{"trial":12,"action":1,"button_pressed":11,"time_out":false,"dwell_time":64.15087890625,"response_time":1689107939363.95},{"trial":12,"action":1,"button_pressed":11,"time_out":false,"dwell_time":64.947998046875,"response_time":1689107939547.08},{"trial":12,"action":1,"button_pressed":11,"time_out":false,"dwell_time":64.14599609375,"response_time":1689107939746.42},{"trial":12,"action":1,"button_pressed":11,"time_out":false,"dwell_time":63.4658203125,"response_time":1689107939963.03},{"trial":12,"action":1,"button_pressed":11,"time_out":false,"dwell_time":64.739990234375,"response_time":1689107940163.41},{"trial":12,"action":1,"button_pressed":11,"time_out":false,"dwell_time":63.458984375,"response_time":1689107940346.16},{"trial":12,"action":1,"button_pressed":11,"time_out":false,"dwell_time":64.02099609375,"response_time":1689107940563.36},{"trial":12,"action":0,"button_pressed":-1,"time_out":false,"dwell_time":81.04296875,"response_time":1689107943679.32},{"trial":12,"action":1,"button_pressed":10,"time_out":false,"dwell_time":64.031982421875,"response_time":1689107945027.99},{"trial":12,"action":1,"button_pressed":3,"time_out":false,"dwell_time":64.095947265625,"response_time":1689107945195.38},{"trial":12,"action":1,"button_pressed":6,"time_out":false,"dwell_time":47.06103515625,"response_time":1689107945395.07},{"trial":12,"action":1,"button_pressed":8,"time_out":false,"dwell_time":81.469970703125,"response_time":1689107945628.57},{"trial":12,"action":1,"button_pressed":11,"time_out":false,"dwell_time":80.787109375,"response_time":1689107945845.25},{"trial":12,"action":1,"button_pressed":7,"time_out":false,"dwell_time":81.3740234375,"response_time":1689107946278.26},{"trial":12,"action":1,"button_pressed":2,"time_out":false,"dwell_time":64.06201171875,"response_time":1689107946628.11},{"trial":12,"action":1,"button_pressed":0,"time_out":false,"dwell_time":30.95703125,"response_time":1689107946961.67},{"trial":12,"action":1,"button_pressed":4,"time_out":false,"dwell_time":47.81591796875,"response_time":1689107947344.98},{"trial":12,"action":9,"button_pressed":-1,"time_out":false,"dwell_time":16.533935546875,"response_time":1689107948077.1},{"trial":13,"action":1,"button_pressed":11,"time_out":false,"dwell_time":80.2587890625,"response_time":1689107975401.62},{"trial":13,"action":1,"button_pressed":9,"time_out":false,"dwell_time":63.921142578125,"response_time":1689107975684.4},{"trial":13,"action":1,"button_pressed":0,"time_out":false,"dwell_time":97.4130859375,"response_time":1689107976168.56},{"trial":13,"action":1,"button_pressed":3,"time_out":false,"dwell_time":80.68017578125,"response_time":1689107976667.46},{"trial":13,"action":1,"button_pressed":8,"time_out":false,"dwell_time":81.27001953125,"response_time":1689107977034.71},{"trial":13,"action":1,"button_pressed":7,"time_out":false,"dwell_time":80.4580078125,"response_time":1689107977583.73},{"trial":13,"action":1,"button_pressed":5,"time_out":false,"dwell_time":80.495849609375,"response_time":1689107978066.79},{"trial":13,"action":1,"button_pressed":2,"time_out":false,"dwell_time":48.695068359375,"response_time":1689107978434.84},{"trial":13,"action":1,"button_pressed":1,"time_out":false,"dwell_time":81.733154296875,"response_time":1689107978934.42},{"trial":13,"action":9,"button_pressed":-1,"time_out":false,"dwell_time":51.55712890625,"response_time":1689107980354.23},{"trial":14,"action":1,"button_pressed":1,"time_out":false,"dwell_time":114.929931640625,"response_time":1689108007324.73},{"trial":14,"action":1,"button_pressed":3,"time_out":false,"dwell_time":47.213134765625,"response_time":1689108008307.33},{"trial":14,"action":1,"button_pressed":9,"time_out":false,"dwell_time":63.35205078125,"response_time":1689108008573.98},{"trial":14,"action":1,"button_pressed":2,"time_out":false,"dwell_time":97.98486328125,"response_time":1689108008907.35},{"trial":14,"action":1,"button_pressed":0,"time_out":false,"dwell_time":47.535888671875,"response_time":1689108009474.21},{"trial":14,"action":1,"button_pressed":10,"time_out":false,"dwell_time":63.81982421875,"response_time":1689108010106.09},{"trial":14,"action":1,"button_pressed":8,"time_out":false,"dwell_time":64.469970703125,"response_time":1689108010439.98},{"trial":14,"action":1,"button_pressed":7,"time_out":false,"dwell_time":98.053955078125,"response_time":1689108010923.32},{"trial":14,"action":1,"button_pressed":4,"time_out":false,"dwell_time":48.108154296875,"response_time":1689108011239.77},{"trial":14,"action":1,"button_pressed":4,"time_out":false,"dwell_time":64.712158203125,"response_time":1689108012439.37},{"trial":14,"action":1,"button_pressed":6,"time_out":false,"dwell_time":63.52099609375,"response_time":1689108014971.06},{"trial":14,"action":0,"button_pressed":-1,"time_out":false,"dwell_time":63.44580078125,"response_time":1689108018569.84},{"trial":14,"action":1,"button_pressed":1,"time_out":false,"dwell_time":130.58984375,"response_time":1689108019069.88},{"trial":14,"action":1,"button_pressed":3,"time_out":false,"dwell_time":63.800048828125,"response_time":1689108019702.87},{"trial":14,"action":1,"button_pressed":9,"time_out":false,"dwell_time":81.22314453125,"response_time":1689108020053.59},{"trial":14,"action":1,"button_pressed":2,"time_out":false,"dwell_time":46.905029296875,"response_time":1689108020286.41},{"trial":14,"action":1,"button_pressed":0,"time_out":false,"dwell_time":47.223876953125,"response_time":1689108020536.66},{"trial":14,"action":1,"button_pressed":10,"time_out":false,"dwell_time":80.56396484375,"response_time":1689108020870.04},{"trial":14,"action":1,"button_pressed":8,"time_out":false,"dwell_time":47.467041015625,"response_time":1689108021103.61},{"trial":14,"action":1,"button_pressed":7,"time_out":false,"dwell_time":80.453857421875,"response_time":1689108021386.44},{"trial":14,"action":1,"button_pressed":6,"time_out":false,"dwell_time":47.68896484375,"response_time":1689108021636.83},{"trial":14,"action":9,"button_pressed":-1,"time_out":false,"dwell_time":64.763916015625,"response_time":1689108024168.8}]}