{"meta_data":{"additional_headers":{},"game_name":"Recollect","version":"2.53.01","user_name":"119","organization":"braingamecenter","study":"mpl2_2022_11","session_number":0,"device_id":"74342D95-EE82-45E3-8ADF-48FB3203C5DD"},"data":[{"stage":"Practice","trial":0,"sequence":"6F","letter_input":"CF","number_input":"","is_correct":false,"presentation_start_time":1689108056039.74,"presentation_end_time":1689108059041.73,"response_time":1689108072987.48},{"stage":"Practice","trial":1,"sequence":"G4","letter_input":"G","number_input":"4","is_correct":true,"presentation_start_time":1689108076016.5,"presentation_end_time":1689108079018.37,"response_time":1689108086896.19},{"stage":"Practice","trial":2,"sequence":"3W5","letter_input":"W","number_input":"35","is_correct":true,"presentation_start_time":1689108088429,"presentation_end_time":1689108092930.4,"response_time":1689108098542.3},{"stage":"Practice","trial":3,"sequence":"T7L","letter_input":"LT","number_input":"7","is_correct":true,"presentation_start_time":1689108100075.18,"presentation_end_time":1689108104576.6,"response_time":1689108110355.11},{"stage":"Practice","trial":4,"sequence":"9J1","letter_input":"J","number_input":"19","is_correct":true,"presentation_start_time":1689108111887.86,"presentation_end_time":1689108116389.15,"response_time":1689108120968.29},{"stage":"Calibration","trial":0,"sequence":"F5","letter_input":"F","number_input":"5","is_correct":true,"presentation_start_time":1689108125083.46,"presentation_end_time":1689108128085.38,"response_time":1689108131898.01},{"stage":"Calibration","trial":1,"sequence":"7D","letter_input":"D","number_input":"7","is_correct":true,"presentation_start_time":1689108133430.69,"presentation_end_time":1689108136432.71,"response_time":1689108141094.91},{"stage":"Calibration","trial":2,"sequence":"Z4S","letter_input":"SZ","number_input":"4","is_correct":true,"presentation_start_time":1689108142627.6,"presentation_end_time":1689108147129.29,"response_time":1689108151991.26},{"stage":"Calibration","trial":3,"sequence":"3M1","letter_input":"M","number_input":"13","is_correct":true,"presentation_start_time":1689108153523.96,"presentation_end_time":1689108158025.47,"response_time":1689108162604.52},{"stage":"Calibration","trial":4,"sequence":"Y8V4","letter_input":"VY","number_input":"48","is_correct":true,"presentation_start_time":1689108164137.18,"presentation_end_time":1689108170138.18,"response_time":1689108175366.84},{"stage":"Calibration","trial":5,"sequence":"6D3B","letter_input":"BD","number_input":"36","is_correct":true,"presentation_start_time":1689108176899.61,"presentation_end_time":1689108182900.63,"response_time":1689108193843.98},{"stage":"Calibration","trial":6,"sequence":"P7N1K","letter_input":"KNP","number_input":"17","is_correct":true,"presentation_start_time":1689108195376.72,"presentation_end_time":1689108202877.35,"response_time":1689108216669.92},{"stage":"Calibration","trial":7,"sequence":"9V5A3","letter_input":"AV","number_input":"359","is_correct":true,"presentation_start_time":1689108218202.51,"presentation_end_time":1689108225703.09,"response_time":1689108249725.51},{"stage":"Calibration","trial":8,"sequence":"P1H7S4","letter_input":"HPS","number_input":"147","is_correct":true,"presentation_start_time":1689108251258.21,"presentation_end_time":1689108260258.36,"response_time":1689108289362.38},{"stage":"Calibration","trial":9,"sequence":"9A6L3E","letter_input":"AEL","number_input":"9690369","is_correct":false,"presentation_start_time":1689108290895,"presentation_end_time":1689108299895.06,"response_time":1689108355073.88},{"stage":"Calibration","trial":10,"sequence":"H7N5J1Y","letter_input":"HNY","number_input":"157","is_correct":false,"presentation_start_time":1689108356606.55,"presentation_end_time":1689108367105.95,"response_time":1689108405373.77},{"stage":"Calibration","trial":11,"sequence":"6Q2C9W4","letter_input":"CQW","number_input":"246","is_correct":false,"presentation_start_time":1689108406906.42,"presentation_end_time":1689108417405.89,"response_time":1689108441994.97}]}