{"meta_data":{"additional_headers":{},"game_name":"Recollect","version":"2.53.01","user_name":"11","organization":"braingamecenter","study":"mpl2_2022_11","session_number":0,"device_id":"74342D95-EE82-45E3-8ADF-48FB3203C5DD"},"data":[{"trial":0,"action":1,"button_pressed":6,"time_out":false,"dwell_time":48.22802734375,"response_time":1675910529294.07},{"trial":0,"action":1,"button_pressed":10,"time_out":false,"dwell_time":65.0361328125,"response_time":1675910529627.5},{"trial":0,"action":9,"button_pressed":-1,"time_out":false,"dwell_time":41.224853515625,"response_time":1675910530371.09},{"trial":1,"action":1,"button_pressed":8,"time_out":false,"dwell_time":47.525146484375,"response_time":1675910540123.93},{"trial":1,"action":1,"button_pressed":11,"time_out":false,"dwell_time":48.046142578125,"response_time":1675910540507.11},{"trial":1,"action":1,"button_pressed":5,"time_out":false,"dwell_time":49.069091796875,"response_time":1675910541140.89},{"trial":1,"action":9,"button_pressed":-1,"time_out":false,"dwell_time":49.35986328125,"response_time":1675910541691.1},{"trial":2,"action":1,"button_pressed":5,"time_out":false,"dwell_time":31.755859375,"response_time":1675910553669.47},{"trial":2,"action":1,"button_pressed":7,"time_out":false,"dwell_time":31.746826171875,"response_time":1675910554819.98},{"trial":2,"action":1,"button_pressed":1,"time_out":false,"dwell_time":48.819091796875,"response_time":1675910555169.52},{"trial":2,"action":1,"button_pressed":9,"time_out":false,"dwell_time":31.3310546875,"response_time":1675910555552.74},{"trial":2,"action":9,"button_pressed":-1,"time_out":false,"dwell_time":31.8251953125,"response_time":1675910556136.24},{"trial":3,"action":1,"button_pressed":4,"time_out":false,"dwell_time":65.35107421875,"response_time":1675910570647.73},{"trial":3,"action":1,"button_pressed":11,"time_out":false,"dwell_time":48.130126953125,"response_time":1675910571030.33},{"trial":3,"action":1,"button_pressed":5,"time_out":false,"dwell_time":30.824951171875,"response_time":1675910571430.11},{"trial":3,"action":1,"button_pressed":3,"time_out":false,"dwell_time":48.886962890625,"response_time":1675910571797.33},{"trial":3,"action":1,"button_pressed":9,"time_out":false,"dwell_time":32.5810546875,"response_time":1675910572180.59},{"trial":3,"action":9,"button_pressed":-1,"time_out":false,"dwell_time":14.659912109375,"response_time":1675910572846.78},{"trial":4,"action":1,"button_pressed":2,"time_out":false,"dwell_time":31.637939453125,"response_time":1675910590341.28},{"trial":4,"action":1,"button_pressed":6,"time_out":false,"dwell_time":48.715087890625,"response_time":1675910590774.33},{"trial":4,"action":1,"button_pressed":10,"time_out":false,"dwell_time":48.14501953125,"response_time":1675910591124.39},{"trial":4,"action":1,"button_pressed":7,"time_out":false,"dwell_time":30.677978515625,"response_time":1675910591540.04},{"trial":4,"action":1,"button_pressed":9,"time_out":false,"dwell_time":48.566162109375,"response_time":1675910591840.67},{"trial":4,"action":1,"button_pressed":3,"time_out":false,"dwell_time":48.196044921875,"response_time":1675910592207.3},{"trial":4,"action":9,"button_pressed":-1,"time_out":false,"dwell_time":49.27197265625,"response_time":1675910592624.3},{"trial":5,"action":1,"button_pressed":5,"time_out":false,"dwell_time":47.666015625,"response_time":1675910614116.13},{"trial":5,"action":1,"button_pressed":3,"time_out":false,"dwell_time":48.907958984375,"response_time":1675910614549.83},{"trial":5,"action":1,"button_pressed":8,"time_out":false,"dwell_time":31.60302734375,"response_time":1675910614883.36},{"trial":5,"action":1,"button_pressed":11,"time_out":false,"dwell_time":31.3818359375,"response_time":1675910615382.87},{"trial":5,"action":1,"button_pressed":7,"time_out":false,"dwell_time":13.843017578125,"response_time":1675910615632.02},{"trial":5,"action":1,"button_pressed":4,"time_out":false,"dwell_time":31.59716796875,"response_time":1675910616098.6},{"trial":5,"action":1,"button_pressed":10,"time_out":false,"dwell_time":32.1162109375,"response_time":1675910616649.18},{"trial":5,"action":9,"button_pressed":-1,"time_out":false,"dwell_time":32.81884765625,"response_time":1675910617482.81},{"trial":6,"action":1,"button_pressed":3,"time_out":false,"dwell_time":64.471923828125,"response_time":1675910639991.04},{"trial":6,"action":1,"button_pressed":1,"time_out":false,"dwell_time":65.2138671875,"response_time":1675910640257.58},{"trial":6,"action":1,"button_pressed":8,"time_out":false,"dwell_time":30.822998046875,"response_time":1675910640657.3},{"trial":6,"action":1,"button_pressed":5,"time_out":false,"dwell_time":64.962890625,"response_time":1675910641073.86},{"trial":6,"action":1,"button_pressed":0,"time_out":false,"dwell_time":47.7451171875,"response_time":1675910642823.27},{"trial":6,"action":1,"button_pressed":7,"time_out":false,"dwell_time":48.179931640625,"response_time":1675910643323.72},{"trial":6,"action":1,"button_pressed":10,"time_out":false,"dwell_time":48.2080078125,"response_time":1675910643872.85},{"trial":6,"action":1,"button_pressed":9,"time_out":false,"dwell_time":13.631103515625,"response_time":1675910644089.49},{"trial":6,"action":9,"button_pressed":-1,"time_out":false,"dwell_time":32.10791015625,"response_time":1675910644839.7},{"trial":7,"action":1,"button_pressed":8,"time_out":false,"dwell_time":64.94287109375,"response_time":1675910668331.92},{"trial":7,"action":1,"button_pressed":9,"time_out":false,"dwell_time":47.2119140625,"response_time":1675910668797.94},{"trial":7,"action":1,"button_pressed":10,"time_out":false,"dwell_time":31.55810546875,"response_time":1675910669114.57},{"trial":7,"action":1,"button_pressed":5,"time_out":false,"dwell_time":47.493896484375,"response_time":1675910669631.11},{"trial":7,"action":1,"button_pressed":1,"time_out":false,"dwell_time":30.755859375,"response_time":1675910670764.06},{"trial":7,"action":1,"button_pressed":4,"time_out":false,"dwell_time":13.56787109375,"response_time":1675910672512.84},{"trial":7,"action":1,"button_pressed":2,"time_out":false,"dwell_time":31.47802734375,"response_time":1675910672847.31},{"trial":7,"action":9,"button_pressed":-1,"time_out":false,"dwell_time":33.489013671875,"response_time":1675910673382.06},{"trial":8,"action":1,"button_pressed":8,"time_out":false,"dwell_time":48.052978515625,"response_time":1675910690740.83},{"trial":8,"action":1,"button_pressed":0,"time_out":false,"dwell_time":47.59716796875,"response_time":1675910691307.38},{"trial":8,"action":1,"button_pressed":1,"time_out":false,"dwell_time":31.462890625,"response_time":1675910691673.7},{"trial":8,"action":1,"button_pressed":9,"time_out":false,"dwell_time":48.132080078125,"response_time":1675910692073.77},{"trial":8,"action":1,"button_pressed":3,"time_out":false,"dwell_time":65.18603515625,"response_time":1675910692457.14},{"trial":8,"action":1,"button_pressed":5,"time_out":false,"dwell_time":48.69189453125,"response_time":1675910692823.94},{"trial":8,"action":9,"button_pressed":-1,"time_out":false,"dwell_time":31.051025390625,"response_time":1675910693240.34},{"trial":9,"action":1,"button_pressed":7,"time_out":false,"dwell_time":82.14599609375,"response_time":1675910713600.58},{"trial":9,"action":1,"button_pressed":11,"time_out":false,"dwell_time":64.991943359375,"response_time":1675910713883.22},{"trial":9,"action":1,"button_pressed":0,"time_out":false,"dwell_time":47.27197265625,"response_time":1675910714416.13},{"trial":9,"action":1,"button_pressed":5,"time_out":false,"dwell_time":48.31689453125,"response_time":1675910714782.84},{"trial":9,"action":1,"button_pressed":9,"time_out":false,"dwell_time":48.23291015625,"response_time":1675910717016.19},{"trial":9,"action":1,"button_pressed":6,"time_out":false,"dwell_time":48.116943359375,"response_time":1675910717231.98},{"trial":9,"action":9,"button_pressed":-1,"time_out":false,"dwell_time":31.126953125,"response_time":1675910717732.27},{"trial":10,"action":1,"button_pressed":9,"time_out":false,"dwell_time":47.701904296875,"response_time":1675910738158.52},{"trial":10,"action":1,"button_pressed":7,"time_out":false,"dwell_time":48.282958984375,"response_time":1675910738491.84},{"trial":10,"action":1,"button_pressed":4,"time_out":false,"dwell_time":48.050048828125,"response_time":1675910738958.74},{"trial":10,"action":1,"button_pressed":1,"time_out":false,"dwell_time":47.841796875,"response_time":1675910739258.55},{"trial":10,"action":1,"button_pressed":11,"time_out":false,"dwell_time":30.68603515625,"response_time":1675910739657.86},{"trial":10,"action":1,"button_pressed":6,"time_out":false,"dwell_time":31.14599609375,"response_time":1675910739975.1},{"trial":10,"action":1,"button_pressed":3,"time_out":false,"dwell_time":48.593994140625,"response_time":1675910740424.86},{"trial":10,"action":1,"button_pressed":8,"time_out":false,"dwell_time":31.43798828125,"response_time":1675910740808.36},{"trial":10,"action":9,"button_pressed":-1,"time_out":false,"dwell_time":16.949951171875,"response_time":1675910741273.78}]}