{"meta_data":{"additional_headers":{},"game_name":"Recollect","version":"2.53.01","user_name":"11","organization":"braingamecenter","study":"mpl2_2022_11","session_number":0,"device_id":"74342D95-EE82-45E3-8ADF-48FB3203C5DD"},"data":[{"stage":"Practice","trial":0,"sequence":"6F","letter_input":"F","number_input":"6","is_correct":true,"presentation_start_time":1675910763348.72,"presentation_end_time":1675910766349.03,"response_time":1675910774580.25},{"stage":"Practice","trial":1,"sequence":"G4","letter_input":"G","number_input":"4","is_correct":true,"presentation_start_time":1675910776111.26,"presentation_end_time":1675910779111.76,"response_time":1675910783458.92},{"stage":"Practice","trial":2,"sequence":"3W5","letter_input":"W","number_input":"35","is_correct":true,"presentation_start_time":1675910784991.65,"presentation_end_time":1675910789491.34,"response_time":1675910793522.21},{"stage":"Practice","trial":3,"sequence":"T7L","letter_input":"LT","number_input":"7","is_correct":true,"presentation_start_time":1675910795054.96,"presentation_end_time":1675910799554.72,"response_time":1675910803335.7},{"stage":"Practice","trial":4,"sequence":"9J1","letter_input":"J","number_input":"19","is_correct":true,"presentation_start_time":1675910804868.38,"presentation_end_time":1675910809368.16,"response_time":1675910813165.77},{"stage":"Calibration","trial":0,"sequence":"L1","letter_input":"L","number_input":"1","is_correct":true,"presentation_start_time":1675910816164.67,"presentation_end_time":1675910819164.83,"response_time":1675910822079.46},{"stage":"Calibration","trial":1,"sequence":"8N","letter_input":"N","number_input":"8","is_correct":true,"presentation_start_time":1675910823612.27,"presentation_end_time":1675910826612.43,"response_time":1675910829293.83},{"stage":"Calibration","trial":2,"sequence":"Q9F","letter_input":"FQ","number_input":"9","is_correct":true,"presentation_start_time":1675910830826.61,"presentation_end_time":1675910835326.31,"response_time":1675910839957},{"stage":"Calibration","trial":3,"sequence":"8S5","letter_input":"S","number_input":"58","is_correct":true,"presentation_start_time":1675910841489.61,"presentation_end_time":1675910845989.34,"response_time":1675910849237.16},{"stage":"Calibration","trial":4,"sequence":"T4Q2","letter_input":"QT","number_input":"24","is_correct":true,"presentation_start_time":1675910850769.86,"presentation_end_time":1675910856769.18,"response_time":1675910863449.12},{"stage":"Calibration","trial":5,"sequence":"6Y1G","letter_input":"GY","number_input":"16","is_correct":true,"presentation_start_time":1675910864981.85,"presentation_end_time":1675910870981.17,"response_time":1675910875095.28},{"stage":"Calibration","trial":6,"sequence":"S8J5W","letter_input":"JSW","number_input":"58","is_correct":true,"presentation_start_time":1675910876628.02,"presentation_end_time":1675910884126.85,"response_time":1675910894622.14},{"stage":"Calibration","trial":7,"sequence":"7Y1R9","letter_input":"RY","number_input":"179","is_correct":true,"presentation_start_time":1675910896154.95,"presentation_end_time":1675910903653.63,"response_time":1675910908734.22},{"stage":"Calibration","trial":8,"sequence":"S3C8Z5","letter_input":"DSZ","number_input":"358","is_correct":false,"presentation_start_time":1675910910266.87,"presentation_end_time":1675910919265.06,"response_time":1675910930493.7},{"stage":"Calibration","trial":9,"sequence":"1H9F7L","letter_input":"FHL","number_input":"179","is_correct":true,"presentation_start_time":1675910932026.41,"presentation_end_time":1675910941024.52,"response_time":1675910952169.87},{"stage":"Calibration","trial":10,"sequence":"D6V4T2M","letter_input":"DMTV","number_input":"246","is_correct":true,"presentation_start_time":1675910953702.53,"presentation_end_time":1675910964200.27,"response_time":1675910975712.01},{"stage":"Calibration","trial":11,"sequence":"9E7J5H1","letter_input":"EHJK","number_input":"1579","is_correct":false,"presentation_start_time":1675910977244.74,"presentation_end_time":1675910987742.46,"response_time":1675911013166.26},{"stage":"Calibration","trial":12,"sequence":"A3S8Q6Y2","letter_input":"QUDJ","number_input":"3682","is_correct":false,"presentation_start_time":1675911014699.01,"presentation_end_time":1675911026696.16,"response_time":1675911036258.75},{"stage":"Calibration","trial":13,"sequence":"9E7V4M1K","letter_input":"EDKL","number_input":"1479","is_correct":false,"presentation_start_time":1675911037791.32,"presentation_end_time":1675911049788.66,"response_time":1675911059267.75}]}