{"meta_data":{"additional_headers":{},"game_name":"Recollect","version":"2.53.01","user_name":"120","organization":"braingamecenter","study":"mpl2_2022_11","session_number":0,"device_id":"74342D95-EE82-45E3-8ADF-48FB3203C5DD"},"data":[{"stage":"Practice","trial":0,"sequence":"6F","letter_input":"F","number_input":"6","is_correct":true,"presentation_start_time":1689117752477.64,"presentation_end_time":1689117755479.55,"response_time":1689117765258.55},{"stage":"Practice","trial":1,"sequence":"G4","letter_input":"G","number_input":"4","is_correct":true,"presentation_start_time":1689117766789.54,"presentation_end_time":1689117769791.51,"response_time":1689117774920.25},{"stage":"Practice","trial":2,"sequence":"3W5","letter_input":"W","number_input":"35","is_correct":true,"presentation_start_time":1689117776453.05,"presentation_end_time":1689117780954.59,"response_time":1689117788499.13},{"stage":"Practice","trial":3,"sequence":"T7L","letter_input":"LT","number_input":"7","is_correct":true,"presentation_start_time":1689117790031.68,"presentation_end_time":1689117794533.28,"response_time":1689117801561.45},{"stage":"Practice","trial":4,"sequence":"9J1","letter_input":"J","number_input":"19","is_correct":true,"presentation_start_time":1689117803094.18,"presentation_end_time":1689117807594.02,"response_time":1689117813090.77},{"stage":"Calibration","trial":0,"sequence":"T6","letter_input":"T","number_input":"6","is_correct":true,"presentation_start_time":1689117822687.63,"presentation_end_time":1689117825689.57,"response_time":1689117830218.51},{"stage":"Calibration","trial":1,"sequence":"8B","letter_input":"B","number_input":"8","is_correct":true,"presentation_start_time":1689117831751.25,"presentation_end_time":1689117834753.28,"response_time":1689117839348.83},{"stage":"Calibration","trial":2,"sequence":"Y9J","letter_input":"JY","number_input":"9","is_correct":true,"presentation_start_time":1689117840881.51,"presentation_end_time":1689117845382.93,"response_time":1689117854310.52},{"stage":"Calibration","trial":3,"sequence":"7W5","letter_input":"W","number_input":"57","is_correct":true,"presentation_start_time":1689117855843.19,"presentation_end_time":1689117860344.65,"response_time":1689117865140.2},{"stage":"Calibration","trial":4,"sequence":"S8H1","letter_input":"HS","number_input":"18","is_correct":true,"presentation_start_time":1689117866672.96,"presentation_end_time":1689117872673.79,"response_time":1689117883367.51},{"stage":"Calibration","trial":5,"sequence":"9Z7B","letter_input":"BZ","number_input":"79","is_correct":true,"presentation_start_time":1689117884900.15,"presentation_end_time":1689117890901.07,"response_time":1689117908242.48},{"stage":"Calibration","trial":6,"sequence":"F5V3J","letter_input":"FJV","number_input":"35","is_correct":true,"presentation_start_time":1689117909775.26,"presentation_end_time":1689117917275.88,"response_time":1689117946263.18},{"stage":"Calibration","trial":7,"sequence":"4Z1S7","letter_input":"SZ","number_input":"147","is_correct":true,"presentation_start_time":1689117947795.89,"presentation_end_time":1689117955296.41,"response_time":1689117976603.05},{"stage":"Calibration","trial":8,"sequence":"C8N5J2","letter_input":"CGN","number_input":"258","is_correct":false,"presentation_start_time":1689117978135.78,"presentation_end_time":1689117987135.6,"response_time":1689118006159.86},{"stage":"Calibration","trial":9,"sequence":"7Q3D9Z","letter_input":"CDQ","number_input":"379","is_correct":false,"presentation_start_time":1689118007692.59,"presentation_end_time":1689118016692.53,"response_time":1689118033267.45}]}