{"meta_data":{"additional_headers":{},"game_name":"Recollect","version":"2.53.01","user_name":"121","organization":"braingamecenter","study":"mpl2_2022_11","session_number":0,"device_id":"74342D95-EE82-45E3-8ADF-48FB3203C5DD"},"data":[{"trial":0,"action":1,"button_pressed":5,"time_out":false,"dwell_time":81.27880859375,"response_time":1689983059476.99},{"trial":0,"action":1,"button_pressed":3,"time_out":false,"dwell_time":81.7421875,"response_time":1689983061093.61},{"trial":0,"action":9,"button_pressed":-1,"time_out":false,"dwell_time":42.175048828125,"response_time":1689983061654.66},{"trial":1,"action":1,"button_pressed":9,"time_out":false,"dwell_time":81.23388671875,"response_time":1689983071289.72},{"trial":1,"action":1,"button_pressed":1,"time_out":false,"dwell_time":80.85205078125,"response_time":1689983071690.19},{"trial":1,"action":1,"button_pressed":3,"time_out":false,"dwell_time":80.97705078125,"response_time":1689983071989.39},{"trial":1,"action":1,"button_pressed":3,"time_out":false,"dwell_time":63.274169921875,"response_time":1689983074488.5},{"trial":1,"action":9,"button_pressed":-1,"time_out":false,"dwell_time":82.06494140625,"response_time":1689983075789.34},{"trial":2,"action":1,"button_pressed":0,"time_out":false,"dwell_time":81.095947265625,"response_time":1689983085351.86},{"trial":2,"action":1,"button_pressed":10,"time_out":false,"dwell_time":48.8310546875,"response_time":1689983085852.77},{"trial":2,"action":1,"button_pressed":11,"time_out":false,"dwell_time":81.6201171875,"response_time":1689983086418.68},{"trial":2,"action":9,"button_pressed":-1,"time_out":false,"dwell_time":81.3720703125,"response_time":1689983087135.5},{"trial":3,"action":1,"button_pressed":5,"time_out":false,"dwell_time":49.19384765625,"response_time":1689983099115.28},{"trial":3,"action":1,"button_pressed":7,"time_out":false,"dwell_time":47.424072265625,"response_time":1689983099914.24},{"trial":3,"action":1,"button_pressed":1,"time_out":false,"dwell_time":81.610107421875,"response_time":1689983100430.77},{"trial":3,"action":1,"button_pressed":9,"time_out":false,"dwell_time":98.51220703125,"response_time":1689983100980.79},{"trial":3,"action":9,"button_pressed":-1,"time_out":false,"dwell_time":98.2109375,"response_time":1689983101646.94},{"trial":4,"action":1,"button_pressed":4,"time_out":false,"dwell_time":31.300048828125,"response_time":1689983116159.67},{"trial":4,"action":1,"button_pressed":7,"time_out":false,"dwell_time":81.777099609375,"response_time":1689983116758.92},{"trial":4,"action":1,"button_pressed":3,"time_out":false,"dwell_time":63.9140625,"response_time":1689983117208.34},{"trial":4,"action":1,"button_pressed":11,"time_out":false,"dwell_time":47.2529296875,"response_time":1689983117641.63},{"trial":4,"action":1,"button_pressed":10,"time_out":false,"dwell_time":48.081787109375,"response_time":1689983118158.86},{"trial":4,"action":9,"button_pressed":-1,"time_out":false,"dwell_time":82.031982421875,"response_time":1689983119291.78},{"trial":5,"action":1,"button_pressed":0,"time_out":false,"dwell_time":114.47607421875,"response_time":1689983133586.79},{"trial":5,"action":1,"button_pressed":7,"time_out":false,"dwell_time":64.055908203125,"response_time":1689983134069.06},{"trial":5,"action":1,"button_pressed":10,"time_out":false,"dwell_time":47.3369140625,"response_time":1689983134552.76},{"trial":5,"action":1,"button_pressed":4,"time_out":false,"dwell_time":80.1240234375,"response_time":1689983135035.52},{"trial":5,"action":1,"button_pressed":1,"time_out":false,"dwell_time":98.280029296875,"response_time":1689983135486.06},{"trial":5,"action":9,"button_pressed":-1,"time_out":false,"dwell_time":64.757080078125,"response_time":1689983136102.89},{"trial":6,"action":1,"button_pressed":8,"time_out":false,"dwell_time":81.26806640625,"response_time":1689983153113.11},{"trial":6,"action":1,"button_pressed":7,"time_out":false,"dwell_time":130.7099609375,"response_time":1689983154978.98},{"trial":6,"action":1,"button_pressed":3,"time_out":false,"dwell_time":114.136962890625,"response_time":1689983155662.78},{"trial":6,"action":1,"button_pressed":4,"time_out":false,"dwell_time":130.968017578125,"response_time":1689983159944.84},{"trial":6,"action":1,"button_pressed":0,"time_out":false,"dwell_time":62.989990234375,"response_time":1689983160393.86},{"trial":6,"action":1,"button_pressed":1,"time_out":false,"dwell_time":114.93701171875,"response_time":1689983160677.8},{"trial":6,"action":9,"button_pressed":-1,"time_out":false,"dwell_time":31.90478515625,"response_time":1689983161144.62},{"trial":7,"action":1,"button_pressed":11,"time_out":false,"dwell_time":97.716796875,"response_time":1689983183703.84},{"trial":7,"action":1,"button_pressed":8,"time_out":false,"dwell_time":80.85888671875,"response_time":1689983184220.14},{"trial":7,"action":1,"button_pressed":6,"time_out":false,"dwell_time":97.570068359375,"response_time":1689983184735.92},{"trial":7,"action":1,"button_pressed":0,"time_out":false,"dwell_time":98.201171875,"response_time":1689983186052.86},{"trial":7,"action":1,"button_pressed":1,"time_out":false,"dwell_time":97.656982421875,"response_time":1689983186519.49},{"trial":7,"action":1,"button_pressed":10,"time_out":false,"dwell_time":81.72900390625,"response_time":1689983186902.69},{"trial":7,"action":9,"button_pressed":-1,"time_out":false,"dwell_time":64.77001953125,"response_time":1689983187518.76},{"trial":8,"action":1,"button_pressed":11,"time_out":false,"dwell_time":98.68603515625,"response_time":1689983199632.01},{"trial":8,"action":1,"button_pressed":4,"time_out":false,"dwell_time":114.9619140625,"response_time":1689983200081.81},{"trial":8,"action":1,"button_pressed":0,"time_out":false,"dwell_time":63.52001953125,"response_time":1689983200447.56},{"trial":8,"action":1,"button_pressed":1,"time_out":false,"dwell_time":80.801025390625,"response_time":1689983200798.07},{"trial":8,"action":9,"button_pressed":-1,"time_out":false,"dwell_time":49.307861328125,"response_time":1689983201148.91},{"trial":9,"action":1,"button_pressed":6,"time_out":false,"dwell_time":48.318115234375,"response_time":1689983213327.98},{"trial":9,"action":1,"button_pressed":3,"time_out":false,"dwell_time":80.6650390625,"response_time":1689983213793.82},{"trial":9,"action":0,"button_pressed":-1,"time_out":false,"dwell_time":96.81103515625,"response_time":1689983217658},{"trial":9,"action":1,"button_pressed":6,"time_out":false,"dwell_time":64.348876953125,"response_time":1689983218408.27},{"trial":9,"action":1,"button_pressed":10,"time_out":false,"dwell_time":97.578125,"response_time":1689983218925.55},{"trial":9,"action":1,"button_pressed":3,"time_out":false,"dwell_time":80.662841796875,"response_time":1689983219375.4},{"trial":9,"action":1,"button_pressed":8,"time_out":false,"dwell_time":63.11181640625,"response_time":1689983219657.92},{"trial":9,"action":9,"button_pressed":-1,"time_out":false,"dwell_time":82.162109375,"response_time":1689983220425.46}]}