{"meta_data":{"additional_headers":{},"game_name":"Recollect","version":"2.53.01","user_name":"121","organization":"braingamecenter","study":"mpl2_2022_11","session_number":0,"device_id":"74342D95-EE82-45E3-8ADF-48FB3203C5DD"},"data":[{"stage":"Practice","trial":0,"sequence":"6F","letter_input":"F","number_input":"6","is_correct":true,"presentation_start_time":1689983297098.11,"presentation_end_time":1689983300100.22,"response_time":1689983309030.72},{"stage":"Practice","trial":1,"sequence":"G4","letter_input":"G","number_input":"4","is_correct":true,"presentation_start_time":1689983310560.36,"presentation_end_time":1689983313562.36,"response_time":1689983318657.73},{"stage":"Practice","trial":2,"sequence":"3W5","letter_input":"W","number_input":"35","is_correct":true,"presentation_start_time":1689983320190.51,"presentation_end_time":1689983324692.02,"response_time":1689983330320.61},{"stage":"Practice","trial":3,"sequence":"T7L","letter_input":"LT","number_input":"7","is_correct":true,"presentation_start_time":1689983331853.47,"presentation_end_time":1689983336354.93,"response_time":1689983345049.18},{"stage":"Practice","trial":4,"sequence":"9J1","letter_input":"J","number_input":"19","is_correct":true,"presentation_start_time":1689983346581.9,"presentation_end_time":1689983351083.46,"response_time":1689983357545.05},{"stage":"Calibration","trial":0,"sequence":"1B","letter_input":"B","number_input":"1","is_correct":true,"presentation_start_time":1689983368308.12,"presentation_end_time":1689983371310.22,"response_time":1689983375256.01},{"stage":"Calibration","trial":1,"sequence":"E4","letter_input":"E","number_input":"4","is_correct":true,"presentation_start_time":1689983376788.72,"presentation_end_time":1689983379790.75,"response_time":1689983383836.52},{"stage":"Calibration","trial":2,"sequence":"8Z2","letter_input":"Z","number_input":"28","is_correct":true,"presentation_start_time":1689983385369.3,"presentation_end_time":1689983389870.73,"response_time":1689983395782.68},{"stage":"Calibration","trial":3,"sequence":"T6L","letter_input":"LT","number_input":"6","is_correct":true,"presentation_start_time":1689983397315.36,"presentation_end_time":1689983401816.95,"response_time":1689983411260.92},{"stage":"Calibration","trial":4,"sequence":"9F4D","letter_input":"DF","number_input":"49","is_correct":true,"presentation_start_time":1689983412793.64,"presentation_end_time":1689983418794.67,"response_time":1689983426939.16},{"stage":"Calibration","trial":5,"sequence":"W6K3","letter_input":"KW","number_input":"36","is_correct":true,"presentation_start_time":1689983428471.82,"presentation_end_time":1689983434472.92,"response_time":1689983444433.37},{"stage":"Calibration","trial":6,"sequence":"4V1S9","letter_input":"SV","number_input":"149","is_correct":true,"presentation_start_time":1689983445966.17,"presentation_end_time":1689983453466.77,"response_time":1689983475323.28},{"stage":"Calibration","trial":7,"sequence":"G8Z3J","letter_input":"AGZ","number_input":"38","is_correct":false,"presentation_start_time":1689983476856.09,"presentation_end_time":1689983484356.72,"response_time":1689983495966.6},{"stage":"Calibration","trial":8,"sequence":"7B4N1L","letter_input":"VL","number_input":"497","is_correct":false,"presentation_start_time":1689983497499.34,"presentation_end_time":1689983506499.25,"response_time":1689983588852.98},{"stage":"Calibration","trial":9,"sequence":"T8P6A2","letter_input":"TP","number_input":"286","is_correct":false,"presentation_start_time":1689983590385.69,"presentation_end_time":1689983599385.82,"response_time":1689983617476.92}]}