{"meta_data":{"additional_headers":{},"game_name":"Recollect","version":"2.53.01","user_name":"122","organization":"braingamecenter","study":"mpl2_2022_11","session_number":0,"device_id":"74342D95-EE82-45E3-8ADF-48FB3203C5DD"},"data":[{"stage":"Practice","trial":0,"sequence":"6F","letter_input":"F","number_input":"6","is_correct":true,"presentation_start_time":1690316946076.15,"presentation_end_time":1690316949078.15,"response_time":1690316960907.87},{"stage":"Practice","trial":1,"sequence":"G4","letter_input":"G","number_input":"4","is_correct":true,"presentation_start_time":1690316962437.37,"presentation_end_time":1690316965439.26,"response_time":1690316970018.21},{"stage":"Practice","trial":2,"sequence":"3W5","letter_input":"W","number_input":"35","is_correct":true,"presentation_start_time":1690316971551.04,"presentation_end_time":1690316976052.42,"response_time":1690316982447.43},{"stage":"Practice","trial":3,"sequence":"T7L","letter_input":"TL","number_input":"7","is_correct":false,"presentation_start_time":1690316983980.09,"presentation_end_time":1690316988481.68,"response_time":1690316993077.17},{"stage":"Practice","trial":4,"sequence":"9J1","letter_input":"J","number_input":"91","is_correct":false,"presentation_start_time":1690316996109.36,"presentation_end_time":1690317000610.87,"response_time":1690317006772.5},{"stage":"Calibration","trial":0,"sequence":"7N","letter_input":"N","number_input":"7","is_correct":true,"presentation_start_time":1690317015086.29,"presentation_end_time":1690317018088.36,"response_time":1690317022217.33},{"stage":"Calibration","trial":1,"sequence":"F8","letter_input":"F","number_input":"8","is_correct":true,"presentation_start_time":1690317023750.07,"presentation_end_time":1690317026752.11,"response_time":1690317030564.53},{"stage":"Calibration","trial":2,"sequence":"5H1","letter_input":"H","number_input":"15","is_correct":true,"presentation_start_time":1690317032097.3,"presentation_end_time":1690317036598.74,"response_time":1690317040627.85},{"stage":"Calibration","trial":3,"sequence":"Y4P","letter_input":"PY","number_input":"4","is_correct":true,"presentation_start_time":1690317042160.64,"presentation_end_time":1690317046661.98,"response_time":1690317055589.46},{"stage":"Calibration","trial":4,"sequence":"6T2G","letter_input":"GT","number_input":"26","is_correct":true,"presentation_start_time":1690317057122.15,"presentation_end_time":1690317063123.19,"response_time":1690317068018.57},{"stage":"Calibration","trial":5,"sequence":"R7L3","letter_input":"LR","number_input":"37","is_correct":true,"presentation_start_time":1690317069551.36,"presentation_end_time":1690317075552.2,"response_time":1690317080164.52},{"stage":"Calibration","trial":6,"sequence":"5Y2C8","letter_input":"YL","number_input":"258","is_correct":false,"presentation_start_time":1690317081697.23,"presentation_end_time":1690317089197.74,"response_time":1690317098674.99},{"stage":"Calibration","trial":7,"sequence":"W9F4B","letter_input":"FW","number_input":"49","is_correct":false,"presentation_start_time":1690317100207.65,"presentation_end_time":1690317107708.2,"response_time":1690317125232.72}]}