{"meta_data":{"additional_headers":{},"game_name":"Recollect","version":"2.53.01","user_name":"123","organization":"braingamecenter","study":"mpl2_2022_11","session_number":0,"device_id":"74342D95-EE82-45E3-8ADF-48FB3203C5DD"},"data":[{"stage":"Practice","trial":0,"sequence":"6F","letter_input":"F","number_input":"6","is_correct":true,"presentation_start_time":1690325407453.84,"presentation_end_time":1690325410455.84,"response_time":1690325417368.94},{"stage":"Practice","trial":1,"sequence":"G4","letter_input":"G","number_input":"4","is_correct":true,"presentation_start_time":1690325418899.97,"presentation_end_time":1690325421902,"response_time":1690325427447.35},{"stage":"Practice","trial":2,"sequence":"3W5","letter_input":"W","number_input":"35","is_correct":true,"presentation_start_time":1690325428980.09,"presentation_end_time":1690325433481.67,"response_time":1690325440692.99},{"stage":"Practice","trial":3,"sequence":"T7L","letter_input":"LT","number_input":"7","is_correct":true,"presentation_start_time":1690325442225.79,"presentation_end_time":1690325446727.29,"response_time":1690325456121.25},{"stage":"Practice","trial":4,"sequence":"9J1","letter_input":"J","number_input":"1","is_correct":false,"presentation_start_time":1690325457653.99,"presentation_end_time":1690325462155.57,"response_time":1690325469850.14},{"stage":"Calibration","trial":0,"sequence":"C2","letter_input":"C","number_input":"2","is_correct":true,"presentation_start_time":1690325477230.95,"presentation_end_time":1690325480232.77,"response_time":1690325485511.68},{"stage":"Calibration","trial":1,"sequence":"4R","letter_input":"R","number_input":"4","is_correct":true,"presentation_start_time":1690325487044.47,"presentation_end_time":1690325490046.34,"response_time":1690325494308.81},{"stage":"Calibration","trial":2,"sequence":"K1E","letter_input":"EK","number_input":"1","is_correct":true,"presentation_start_time":1690325495841.54,"presentation_end_time":1690325500343.06,"response_time":1690325505171.9},{"stage":"Calibration","trial":3,"sequence":"8Z6","letter_input":"Z","number_input":"68","is_correct":true,"presentation_start_time":1690325506704.61,"presentation_end_time":1690325511206.36,"response_time":1690325515668.52},{"stage":"Calibration","trial":4,"sequence":"L7J2","letter_input":"LJ","number_input":"27","is_correct":false,"presentation_start_time":1690325517201.23,"presentation_end_time":1690325523202.48,"response_time":1690325529030.79},{"stage":"Calibration","trial":5,"sequence":"9Q3C","letter_input":"CQ","number_input":"39","is_correct":true,"presentation_start_time":1690325530563.51,"presentation_end_time":1690325536564.68,"response_time":1690325541143.57},{"stage":"Calibration","trial":6,"sequence":"J6R4M","letter_input":"MR","number_input":"46","is_correct":false,"presentation_start_time":1690325542676.29,"presentation_end_time":1690325550176.72,"response_time":1690325560503.89},{"stage":"Calibration","trial":7,"sequence":"8V3C1","letter_input":"CV","number_input":"138","is_correct":true,"presentation_start_time":1690325562036.58,"presentation_end_time":1690325569537.14,"response_time":1690325573949.42},{"stage":"Calibration","trial":8,"sequence":"Y5T2K7","letter_input":"TY","number_input":"257","is_correct":false,"presentation_start_time":1690325575482.17,"presentation_end_time":1690325584482.2,"response_time":1690325593476.45},{"stage":"Calibration","trial":9,"sequence":"9Q6G4B","letter_input":"BQ","number_input":"469","is_correct":false,"presentation_start_time":1690325595009.17,"presentation_end_time":1690325604009.23,"response_time":1690325614919.41}]}