{"meta_data":{"additional_headers":{},"game_name":"Recollect","version":"2.53.01","user_name":"124","organization":"braingamecenter","study":"mpl2_2022_11","session_number":0,"device_id":"74342D95-EE82-45E3-8ADF-48FB3203C5DD"},"data":[{"trial":0,"action":1,"button_pressed":9,"time_out":false,"dwell_time":64.873046875,"response_time":1696529476855.5},{"trial":0,"action":1,"button_pressed":1,"time_out":false,"dwell_time":63.887939453125,"response_time":1696529477171.16},{"trial":0,"action":9,"button_pressed":-1,"time_out":false,"dwell_time":42.369140625,"response_time":1696529477783.4},{"trial":1,"action":1,"button_pressed":10,"time_out":false,"dwell_time":63.881103515625,"response_time":1696529488135.08},{"trial":1,"action":1,"button_pressed":0,"time_out":false,"dwell_time":47.64892578125,"response_time":1696529489017.77},{"trial":1,"action":1,"button_pressed":6,"time_out":false,"dwell_time":81.2919921875,"response_time":1696529490167.78},{"trial":1,"action":9,"button_pressed":-1,"time_out":false,"dwell_time":64.4658203125,"response_time":1696529490983.77},{"trial":2,"action":1,"button_pressed":0,"time_out":false,"dwell_time":64.962890625,"response_time":1696529503380.08},{"trial":2,"action":1,"button_pressed":10,"time_out":false,"dwell_time":80.794921875,"response_time":1696529504112.39},{"trial":2,"action":1,"button_pressed":2,"time_out":false,"dwell_time":14.4990234375,"response_time":1696529504796.6},{"trial":2,"action":1,"button_pressed":6,"time_out":false,"dwell_time":46.884033203125,"response_time":1696529505545.6},{"trial":2,"action":9,"button_pressed":-1,"time_out":false,"dwell_time":30.906982421875,"response_time":1696529510527.71},{"trial":3,"action":1,"button_pressed":8,"time_out":false,"dwell_time":81.458984375,"response_time":1696529525506.19},{"trial":3,"action":1,"button_pressed":4,"time_out":false,"dwell_time":30.995849609375,"response_time":1696529526022.19},{"trial":3,"action":1,"button_pressed":1,"time_out":false,"dwell_time":80.52392578125,"response_time":1696529526872.13},{"trial":3,"action":1,"button_pressed":5,"time_out":false,"dwell_time":80.738037109375,"response_time":1696529527337.99},{"trial":3,"action":1,"button_pressed":3,"time_out":false,"dwell_time":97.52099609375,"response_time":1696529528154.42},{"trial":3,"action":9,"button_pressed":-1,"time_out":false,"dwell_time":63.716064453125,"response_time":1696529531736.95},{"trial":4,"action":1,"button_pressed":11,"time_out":false,"dwell_time":47.968017578125,"response_time":1696529549748.53},{"trial":4,"action":1,"button_pressed":8,"time_out":false,"dwell_time":64.55810546875,"response_time":1696529550497.63},{"trial":4,"action":1,"button_pressed":6,"time_out":false,"dwell_time":64.507080078125,"response_time":1696529551080.73},{"trial":4,"action":1,"button_pressed":4,"time_out":false,"dwell_time":64.7470703125,"response_time":1696529551630.54},{"trial":4,"action":1,"button_pressed":1,"time_out":false,"dwell_time":46.41015625,"response_time":1696529552179.49},{"trial":4,"action":1,"button_pressed":10,"time_out":false,"dwell_time":64.281005859375,"response_time":1696529552813.52},{"trial":4,"action":9,"button_pressed":-1,"time_out":false,"dwell_time":98.600830078125,"response_time":1696529558678.92},{"trial":5,"action":1,"button_pressed":2,"time_out":false,"dwell_time":64.375,"response_time":1696529578371.24},{"trial":5,"action":1,"button_pressed":6,"time_out":false,"dwell_time":63.9150390625,"response_time":1696529579354.14},{"trial":5,"action":1,"button_pressed":9,"time_out":false,"dwell_time":79.888916015625,"response_time":1696529579953.97},{"trial":5,"action":1,"button_pressed":0,"time_out":false,"dwell_time":97.97509765625,"response_time":1696529581004.25},{"trial":5,"action":1,"button_pressed":3,"time_out":false,"dwell_time":63.796142578125,"response_time":1696529581454},{"trial":5,"action":1,"button_pressed":10,"time_out":false,"dwell_time":30.15283203125,"response_time":1696529582003.6},{"trial":5,"action":1,"button_pressed":7,"time_out":false,"dwell_time":63.64599609375,"response_time":1696529582787.03},{"trial":5,"action":9,"button_pressed":-1,"time_out":true,"dwell_time":10075.6140136719,"response_time":1696529592799},{"trial":6,"action":1,"button_pressed":10,"time_out":false,"dwell_time":80.833984375,"response_time":1696529621774.35},{"trial":6,"action":1,"button_pressed":3,"time_out":false,"dwell_time":81.302001953125,"response_time":1696529622373.98},{"trial":6,"action":1,"button_pressed":1,"time_out":false,"dwell_time":47.242919921875,"response_time":1696529622973.6},{"trial":6,"action":1,"button_pressed":5,"time_out":false,"dwell_time":62.8740234375,"response_time":1696529625388.9},{"trial":6,"action":1,"button_pressed":0,"time_out":false,"dwell_time":63.986083984375,"response_time":1696529625922.72},{"trial":6,"action":1,"button_pressed":7,"time_out":false,"dwell_time":64.29296875,"response_time":1696529626789.04},{"trial":6,"action":1,"button_pressed":10,"time_out":false,"dwell_time":63.717041015625,"response_time":1696529627571.55},{"trial":6,"action":9,"button_pressed":-1,"time_out":true,"dwell_time":10076.32421875,"response_time":1696529637584.16},{"trial":7,"action":1,"button_pressed":10,"time_out":false,"dwell_time":63.89697265625,"response_time":1696529664843.37},{"trial":7,"action":1,"button_pressed":9,"time_out":false,"dwell_time":81.216796875,"response_time":1696529665509.71},{"trial":7,"action":1,"button_pressed":2,"time_out":false,"dwell_time":80.68701171875,"response_time":1696529667609.06},{"trial":7,"action":1,"button_pressed":8,"time_out":false,"dwell_time":46.93603515625,"response_time":1696529668058.49},{"trial":7,"action":1,"button_pressed":1,"time_out":false,"dwell_time":64.02197265625,"response_time":1696529668741.95},{"trial":7,"action":1,"button_pressed":4,"time_out":false,"dwell_time":47.552978515625,"response_time":1696529670208.39},{"trial":7,"action":1,"button_pressed":5,"time_out":false,"dwell_time":47.9658203125,"response_time":1696529670991.14},{"trial":7,"action":9,"button_pressed":-1,"time_out":true,"dwell_time":10061.2800292969,"response_time":1696529681004.45},{"trial":8,"action":1,"button_pressed":9,"time_out":false,"dwell_time":63.442138671875,"response_time":1696529698898.26},{"trial":8,"action":1,"button_pressed":1,"time_out":false,"dwell_time":63.14697265625,"response_time":1696529699447.77},{"trial":8,"action":1,"button_pressed":2,"time_out":false,"dwell_time":47.64013671875,"response_time":1696529700215.38},{"trial":8,"action":1,"button_pressed":8,"time_out":false,"dwell_time":81.327880859375,"response_time":1696529700748.22},{"trial":8,"action":1,"button_pressed":6,"time_out":false,"dwell_time":31.528076171875,"response_time":1696529701465},{"trial":8,"action":1,"button_pressed":11,"time_out":false,"dwell_time":47.677001953125,"response_time":1696529702031.6},{"trial":8,"action":9,"button_pressed":-1,"time_out":false,"dwell_time":48.470947265625,"response_time":1696529704947.71},{"trial":9,"action":1,"button_pressed":0,"time_out":false,"dwell_time":64.199951171875,"response_time":1696529725790.01},{"trial":9,"action":1,"button_pressed":10,"time_out":false,"dwell_time":81.06494140625,"response_time":1696529726372.98},{"trial":9,"action":1,"button_pressed":5,"time_out":false,"dwell_time":63.929931640625,"response_time":1696529726939.53},{"trial":9,"action":1,"button_pressed":6,"time_out":false,"dwell_time":63.7060546875,"response_time":1696529727638.47},{"trial":9,"action":1,"button_pressed":8,"time_out":false,"dwell_time":63.93505859375,"response_time":1696529728139.17},{"trial":9,"action":1,"button_pressed":2,"time_out":false,"dwell_time":64.7099609375,"response_time":1696529728655.55},{"trial":9,"action":1,"button_pressed":9,"time_out":false,"dwell_time":47.9169921875,"response_time":1696529729288.59},{"trial":9,"action":9,"button_pressed":-1,"time_out":false,"dwell_time":63.697021484375,"response_time":1696529737068.5},{"trial":10,"action":1,"button_pressed":7,"time_out":false,"dwell_time":63.409912109375,"response_time":1696529757512.26},{"trial":10,"action":1,"button_pressed":11,"time_out":false,"dwell_time":46.85205078125,"response_time":1696529757878.89},{"trial":10,"action":1,"button_pressed":0,"time_out":false,"dwell_time":46.81787109375,"response_time":1696529758645.21},{"trial":10,"action":1,"button_pressed":3,"time_out":false,"dwell_time":46.89404296875,"response_time":1696529759111.88},{"trial":10,"action":1,"button_pressed":9,"time_out":false,"dwell_time":47.541015625,"response_time":1696529759528.36},{"trial":10,"action":1,"button_pressed":5,"time_out":false,"dwell_time":48.032958984375,"response_time":1696529760094.91},{"trial":10,"action":1,"button_pressed":6,"time_out":false,"dwell_time":47.4208984375,"response_time":1696529760762.04},{"trial":10,"action":9,"button_pressed":-1,"time_out":false,"dwell_time":81.789794921875,"response_time":1696529767376.52},{"trial":11,"action":1,"button_pressed":7,"time_out":false,"dwell_time":64.631103515625,"response_time":1696529790351.93},{"trial":11,"action":1,"button_pressed":5,"time_out":false,"dwell_time":46.197021484375,"response_time":1696529791150.61},{"trial":11,"action":1,"button_pressed":3,"time_out":false,"dwell_time":63.8759765625,"response_time":1696529791734.63},{"trial":11,"action":1,"button_pressed":4,"time_out":false,"dwell_time":46.56298828125,"response_time":1696529792150.91},{"trial":11,"action":1,"button_pressed":1,"time_out":false,"dwell_time":47.81005859375,"response_time":1696529792668.33},{"trial":11,"action":1,"button_pressed":10,"time_out":false,"dwell_time":81.52392578125,"response_time":1696529798582.44},{"trial":11,"action":1,"button_pressed":2,"time_out":false,"dwell_time":64.823974609375,"response_time":1696529800265.36},{"trial":11,"action":0,"button_pressed":-1,"time_out":false,"dwell_time":64.080078125,"response_time":1696529803263.82},{"trial":11,"action":1,"button_pressed":7,"time_out":false,"dwell_time":47.802978515625,"response_time":1696529804130.24},{"trial":11,"action":1,"button_pressed":5,"time_out":false,"dwell_time":64.0400390625,"response_time":1696529805162.94},{"trial":11,"action":1,"button_pressed":3,"time_out":false,"dwell_time":63.596923828125,"response_time":1696529806862.99},{"trial":11,"action":1,"button_pressed":4,"time_out":false,"dwell_time":64.20703125,"response_time":1696529807612.82},{"trial":11,"action":1,"button_pressed":1,"time_out":false,"dwell_time":63.89599609375,"response_time":1696529808395.78},{"trial":11,"action":1,"button_pressed":9,"time_out":false,"dwell_time":46.987060546875,"response_time":1696529809611.84},{"trial":11,"action":1,"button_pressed":10,"time_out":false,"dwell_time":46.447998046875,"response_time":1696529810061.65},{"trial":11,"action":1,"button_pressed":2,"time_out":false,"dwell_time":81.260009765625,"response_time":1696529811278.19},{"trial":11,"action":9,"button_pressed":-1,"time_out":false,"dwell_time":63.907958984375,"response_time":1696529812161.17},{"trial":12,"action":1,"button_pressed":1,"time_out":false,"dwell_time":63.593017578125,"response_time":1696529834853.27},{"trial":12,"action":1,"button_pressed":10,"time_out":false,"dwell_time":64.055908203125,"response_time":1696529835437.12},{"trial":12,"action":1,"button_pressed":0,"time_out":false,"dwell_time":81.4990234375,"response_time":1696529836170.16},{"trial":12,"action":1,"button_pressed":2,"time_out":false,"dwell_time":81.41796875,"response_time":1696529836636.53},{"trial":12,"action":1,"button_pressed":6,"time_out":false,"dwell_time":64.43310546875,"response_time":1696529837952.93},{"trial":12,"action":1,"button_pressed":7,"time_out":false,"dwell_time":64.47802734375,"response_time":1696529838485.86},{"trial":12,"action":1,"button_pressed":3,"time_out":false,"dwell_time":63.822021484375,"response_time":1696529844100.68},{"trial":12,"action":9,"button_pressed":-1,"time_out":false,"dwell_time":97.8330078125,"response_time":1696529847766.72}]}