{"meta_data":{"additional_headers":{},"game_name":"Recollect","version":"2.53.01","user_name":"124","organization":"braingamecenter","study":"mpl2_2022_11","session_number":0,"device_id":"74342D95-EE82-45E3-8ADF-48FB3203C5DD"},"data":[{"stage":"Practice","trial":0,"sequence":"6F","letter_input":"F","number_input":"6","is_correct":true,"presentation_start_time":1696529972522.87,"presentation_end_time":1696529975524.81,"response_time":1696529982405.97},{"stage":"Practice","trial":1,"sequence":"G4","letter_input":"G","number_input":"4","is_correct":true,"presentation_start_time":1696529983935.72,"presentation_end_time":1696529986937.93,"response_time":1696529992482.99},{"stage":"Practice","trial":2,"sequence":"3W5","letter_input":"W","number_input":"35","is_correct":true,"presentation_start_time":1696529994015.67,"presentation_end_time":1696529998517.35,"response_time":1696530006961.56},{"stage":"Practice","trial":3,"sequence":"T7L","letter_input":"LT","number_input":"7","is_correct":true,"presentation_start_time":1696530008494.26,"presentation_end_time":1696530012995.74,"response_time":1696530021990},{"stage":"Practice","trial":4,"sequence":"9J1","letter_input":"J","number_input":"19","is_correct":true,"presentation_start_time":1696530023522.7,"presentation_end_time":1696530028024.14,"response_time":1696530033636.07},{"stage":"Calibration","trial":0,"sequence":"A6","letter_input":"A","number_input":"6","is_correct":true,"presentation_start_time":1696530048730.98,"presentation_end_time":1696530051733.04,"response_time":1696530056128.63},{"stage":"Calibration","trial":1,"sequence":"8C","letter_input":"C","number_input":"8","is_correct":true,"presentation_start_time":1696530057661.35,"presentation_end_time":1696530060663.32,"response_time":1696530065292.46},{"stage":"Calibration","trial":2,"sequence":"S7Q","letter_input":"QS","number_input":"7","is_correct":true,"presentation_start_time":1696530066824.99,"presentation_end_time":1696530071326.6,"response_time":1696530081503.73},{"stage":"Calibration","trial":3,"sequence":"5M2","letter_input":"M","number_input":"25","is_correct":true,"presentation_start_time":1696530083036.21,"presentation_end_time":1696530087537.91,"response_time":1696530094499.29},{"stage":"Calibration","trial":4,"sequence":"Q8B1","letter_input":"BQ","number_input":"18","is_correct":true,"presentation_start_time":1696530096031.96,"presentation_end_time":1696530102032.94,"response_time":1696530112943.12},{"stage":"Calibration","trial":5,"sequence":"7Z5L","letter_input":"LZ","number_input":"57","is_correct":true,"presentation_start_time":1696530114475.84,"presentation_end_time":1696530120477.01,"response_time":1696530135468.96},{"stage":"Calibration","trial":6,"sequence":"H9W6S","letter_input":"HSW","number_input":"69","is_correct":true,"presentation_start_time":1696530137001.8,"presentation_end_time":1696530144502.31,"response_time":1696530174122.92},{"stage":"Calibration","trial":7,"sequence":"7R5A3","letter_input":"AR","number_input":"357","is_correct":true,"presentation_start_time":1696530175655.67,"presentation_end_time":1696530183156.27,"response_time":1696530199547.86},{"stage":"Calibration","trial":8,"sequence":"Z9J4E2","letter_input":"EJZ","number_input":"249","is_correct":true,"presentation_start_time":1696530201080.53,"presentation_end_time":1696530210080.58,"response_time":1696530240351.05},{"stage":"Calibration","trial":9,"sequence":"1W7R3L","letter_input":"JRW","number_input":"137","is_correct":false,"presentation_start_time":1696530241883.75,"presentation_end_time":1696530250883.85,"response_time":1696530303763.35},{"stage":"Calibration","trial":10,"sequence":"E5N2J9P","letter_input":"EJNP","number_input":"259","is_correct":true,"presentation_start_time":1696530305296,"presentation_end_time":1696530315795.58,"response_time":1696530355279.52},{"stage":"Calibration","trial":11,"sequence":"7Z1Q4F2","letter_input":"NQZ","number_input":"124","is_correct":false,"presentation_start_time":1696530356812.26,"presentation_end_time":1696530367311.82,"response_time":1696530408445.25},{"stage":"Calibration","trial":12,"sequence":"A6R3J8T4","letter_input":"AJR","number_input":"3468","is_correct":false,"presentation_start_time":1696530409977.93,"presentation_end_time":1696530421976.86,"response_time":1696530455079.8},{"stage":"Calibration","trial":13,"sequence":"7B1V9K5D","letter_input":"KTQW","number_input":"1359","is_correct":false,"presentation_start_time":1696530456612.51,"presentation_end_time":1696530468611.52,"response_time":1696530514543.37}]}