{"meta_data":{"additional_headers":{},"game_name":"Recollect","version":"2.53.01","user_name":"125","organization":"braingamecenter","study":"mpl2_2022_11","session_number":0,"device_id":"74342D95-EE82-45E3-8ADF-48FB3203C5DD"},"data":[{"stage":"Practice","trial":0,"sequence":"6F","letter_input":"F","number_input":"6","is_correct":true,"presentation_start_time":1696970518200.04,"presentation_end_time":1696970521202.09,"response_time":1696970528414.98},{"stage":"Practice","trial":1,"sequence":"G4","letter_input":"G","number_input":"4","is_correct":true,"presentation_start_time":1696970529946.14,"presentation_end_time":1696970532948.21,"response_time":1696970538743.34},{"stage":"Practice","trial":2,"sequence":"3W5","letter_input":"W","number_input":"35","is_correct":true,"presentation_start_time":1696970540276.02,"presentation_end_time":1696970544777.71,"response_time":1696970549556.44},{"stage":"Practice","trial":3,"sequence":"T7L","letter_input":"LT","number_input":"7","is_correct":true,"presentation_start_time":1696970551089.14,"presentation_end_time":1696970555590.83,"response_time":1696970561152.54},{"stage":"Practice","trial":4,"sequence":"9J1","letter_input":"J","number_input":"19","is_correct":true,"presentation_start_time":1696970562685.28,"presentation_end_time":1696970567186.97,"response_time":1696970571665.8},{"stage":"Calibration","trial":0,"sequence":"6K","letter_input":"K","number_input":"6","is_correct":true,"presentation_start_time":1696970581595.82,"presentation_end_time":1696970584597.86,"response_time":1696970588743.52},{"stage":"Calibration","trial":1,"sequence":"H7","letter_input":"H","number_input":"7","is_correct":true,"presentation_start_time":1696970590276.2,"presentation_end_time":1696970593278.32,"response_time":1696970597440.66},{"stage":"Calibration","trial":2,"sequence":"8C6","letter_input":"C","number_input":"68","is_correct":true,"presentation_start_time":1696970598973.37,"presentation_end_time":1696970603474.92,"response_time":1696970607953.78},{"stage":"Calibration","trial":3,"sequence":"W2B","letter_input":"BW","number_input":"2","is_correct":true,"presentation_start_time":1696970609486.55,"presentation_end_time":1696970613988.16,"response_time":1696970619616.66},{"stage":"Calibration","trial":4,"sequence":"3Y1V","letter_input":"VY","number_input":"13","is_correct":true,"presentation_start_time":1696970621149.4,"presentation_end_time":1696970627150.42,"response_time":1696970636994.19},{"stage":"Calibration","trial":5,"sequence":"W6Q2","letter_input":"QW","number_input":"26","is_correct":true,"presentation_start_time":1696970638526.95,"presentation_end_time":1696970644528.04,"response_time":1696970655321.46},{"stage":"Calibration","trial":6,"sequence":"5K3E1","letter_input":"EK","number_input":"135","is_correct":true,"presentation_start_time":1696970656854.23,"presentation_end_time":1696970664354.92,"response_time":1696970670249.97},{"stage":"Calibration","trial":7,"sequence":"F7N2J","letter_input":"FJN","number_input":"27","is_correct":true,"presentation_start_time":1696970671782.66,"presentation_end_time":1696970679283.3,"response_time":1696970692509.27},{"stage":"Calibration","trial":8,"sequence":"1A8Z6W","letter_input":"AWZ","number_input":"168","is_correct":true,"presentation_start_time":1696970694041.97,"presentation_end_time":1696970703042.06,"response_time":1696970709520.32},{"stage":"Calibration","trial":9,"sequence":"D4T2H9","letter_input":"DHT","number_input":"249","is_correct":true,"presentation_start_time":1696970711053,"presentation_end_time":1696970720053.06,"response_time":1696970728963.98},{"stage":"Calibration","trial":10,"sequence":"3M1K7R5","letter_input":"KMR","number_input":"1357","is_correct":true,"presentation_start_time":1696970730496.59,"presentation_end_time":1696970740996.19,"response_time":1696970749123.91},{"stage":"Calibration","trial":11,"sequence":"E4L8G6W","letter_input":"EGLW","number_input":"468","is_correct":true,"presentation_start_time":1696970750656.7,"presentation_end_time":1696970761156.19,"response_time":1696970771899.71},{"stage":"Calibration","trial":12,"sequence":"9Z5B2T7M","letter_input":"BMTZ","number_input":"2579","is_correct":true,"presentation_start_time":1696970773432.44,"presentation_end_time":1696970785431.55,"response_time":1696970804239.07},{"stage":"Calibration","trial":13,"sequence":"J1G8W6C3","letter_input":"EGJW","number_input":"1368","is_correct":false,"presentation_start_time":1696970805771.88,"presentation_end_time":1696970817770.9,"response_time":1696970832863},{"stage":"Calibration","trial":14,"sequence":"2V9Q5B8S7","letter_input":"AEJKW","number_input":"25789","is_correct":false,"presentation_start_time":1696970834395.76,"presentation_end_time":1696970847894.41,"response_time":1696970874249.36},{"stage":"Calibration","trial":15,"sequence":"D4N1K9W6A","letter_input":"ADKNW","number_input":"1469","is_correct":true,"presentation_start_time":1696970875782.09,"presentation_end_time":1696970889280.73,"response_time":1696970899657.64},{"stage":"Calibration","trial":16,"sequence":"7Z2F8V6Q5L","letter_input":"EFLKZ","number_input":"25678","is_correct":false,"presentation_start_time":1696970901190.27,"presentation_end_time":1696970916188.59,"response_time":1696970941876.98},{"stage":"Calibration","trial":17,"sequence":"G1D9S3M6Y4","letter_input":"DEGFS","number_input":"12347","is_correct":false,"presentation_start_time":1696970943409.73,"presentation_end_time":1696970958407.96,"response_time":1696970983330.02}]}