{"meta_data":{"additional_headers":{},"game_name":"Recollect","version":"2.53.01","user_name":"125","organization":"braingamecenter","study":"mpl2_2022_11","session_number":0,"device_id":"74342D95-EE82-45E3-8ADF-48FB3203C5DD"},"data":[{"trial":0,"action":1,"button_pressed":8,"time_out":false,"dwell_time":81.076904296875,"response_time":1696970157303.75},{"trial":0,"action":1,"button_pressed":0,"time_out":false,"dwell_time":81.343994140625,"response_time":1696970158020.66},{"trial":0,"action":9,"button_pressed":-1,"time_out":false,"dwell_time":91.013916015625,"response_time":1696970158663.98},{"trial":1,"action":1,"button_pressed":3,"time_out":false,"dwell_time":81.135009765625,"response_time":1696970168550.72},{"trial":1,"action":1,"button_pressed":9,"time_out":false,"dwell_time":97.053955078125,"response_time":1696970169033.83},{"trial":1,"action":1,"button_pressed":7,"time_out":false,"dwell_time":81.025146484375,"response_time":1696970169516.28},{"trial":1,"action":9,"button_pressed":-1,"time_out":false,"dwell_time":114.81201171875,"response_time":1696970170533.78},{"trial":2,"action":1,"button_pressed":9,"time_out":false,"dwell_time":97.843017578125,"response_time":1696970182862.8},{"trial":2,"action":1,"button_pressed":11,"time_out":false,"dwell_time":64.8681640625,"response_time":1696970183329.01},{"trial":2,"action":1,"button_pressed":8,"time_out":false,"dwell_time":48.017822265625,"response_time":1696970183929.34},{"trial":2,"action":1,"button_pressed":0,"time_out":false,"dwell_time":64.7548828125,"response_time":1696970184628.46},{"trial":2,"action":9,"button_pressed":-1,"time_out":false,"dwell_time":64.541015625,"response_time":1696970185228.75},{"trial":3,"action":1,"button_pressed":1,"time_out":false,"dwell_time":97.724853515625,"response_time":1696970200057.08},{"trial":3,"action":1,"button_pressed":10,"time_out":false,"dwell_time":81.656005859375,"response_time":1696970200523.39},{"trial":3,"action":1,"button_pressed":0,"time_out":false,"dwell_time":80.9638671875,"response_time":1696970200972.52},{"trial":3,"action":1,"button_pressed":9,"time_out":false,"dwell_time":81.5849609375,"response_time":1696970201406.47},{"trial":3,"action":1,"button_pressed":5,"time_out":false,"dwell_time":80.805908203125,"response_time":1696970201889.56},{"trial":3,"action":9,"button_pressed":-1,"time_out":false,"dwell_time":114.680908203125,"response_time":1696970202873.07},{"trial":4,"action":1,"button_pressed":11,"time_out":false,"dwell_time":64.496826171875,"response_time":1696970220149.73},{"trial":4,"action":1,"button_pressed":8,"time_out":false,"dwell_time":81.655029296875,"response_time":1696970220700.16},{"trial":4,"action":1,"button_pressed":6,"time_out":false,"dwell_time":80.9189453125,"response_time":1696970221215.86},{"trial":4,"action":1,"button_pressed":4,"time_out":false,"dwell_time":97.1669921875,"response_time":1696970221683.05},{"trial":4,"action":1,"button_pressed":1,"time_out":false,"dwell_time":81.5498046875,"response_time":1696970222116.23},{"trial":4,"action":1,"button_pressed":10,"time_out":false,"dwell_time":80.858154296875,"response_time":1696970222615.4},{"trial":4,"action":9,"button_pressed":-1,"time_out":false,"dwell_time":114.123046875,"response_time":1696970223482.32},{"trial":5,"action":1,"button_pressed":8,"time_out":false,"dwell_time":81.1318359375,"response_time":1696970243425.37},{"trial":5,"action":1,"button_pressed":5,"time_out":false,"dwell_time":81.072021484375,"response_time":1696970243958.44},{"trial":5,"action":1,"button_pressed":1,"time_out":false,"dwell_time":63.43017578125,"response_time":1696970245807.72},{"trial":5,"action":1,"button_pressed":6,"time_out":false,"dwell_time":80.72998046875,"response_time":1696970246191.56},{"trial":5,"action":1,"button_pressed":0,"time_out":false,"dwell_time":64.23291015625,"response_time":1696970246674.83},{"trial":5,"action":1,"button_pressed":7,"time_out":false,"dwell_time":81.5478515625,"response_time":1696970247291.2},{"trial":5,"action":1,"button_pressed":11,"time_out":false,"dwell_time":64.81494140625,"response_time":1696970247691},{"trial":5,"action":9,"button_pressed":-1,"time_out":false,"dwell_time":80.723876953125,"response_time":1696970248723.95},{"trial":6,"action":1,"button_pressed":3,"time_out":false,"dwell_time":131.841064453125,"response_time":1696970271266.88},{"trial":6,"action":1,"button_pressed":1,"time_out":false,"dwell_time":80.97802734375,"response_time":1696970271583.4},{"trial":6,"action":1,"button_pressed":8,"time_out":false,"dwell_time":97.52099609375,"response_time":1696970272349.04},{"trial":6,"action":1,"button_pressed":5,"time_out":false,"dwell_time":114.844970703125,"response_time":1696970272732.88},{"trial":6,"action":1,"button_pressed":0,"time_out":false,"dwell_time":114.909912109375,"response_time":1696970273266},{"trial":6,"action":1,"button_pressed":7,"time_out":false,"dwell_time":80.992919921875,"response_time":1696970273766.37},{"trial":6,"action":1,"button_pressed":10,"time_out":false,"dwell_time":80.422119140625,"response_time":1696970274482.26},{"trial":6,"action":9,"button_pressed":-1,"time_out":false,"dwell_time":114.739013671875,"response_time":1696970275998.23},{"trial":7,"action":1,"button_pressed":2,"time_out":false,"dwell_time":131.1591796875,"response_time":1696970300840.54},{"trial":7,"action":1,"button_pressed":10,"time_out":false,"dwell_time":130.926025390625,"response_time":1696970301489.4},{"trial":7,"action":1,"button_pressed":9,"time_out":false,"dwell_time":64.2099609375,"response_time":1696970303338.71},{"trial":7,"action":1,"button_pressed":8,"time_out":false,"dwell_time":79.701171875,"response_time":1696970305154.41},{"trial":7,"action":1,"button_pressed":1,"time_out":false,"dwell_time":80.865966796875,"response_time":1696970307054.97},{"trial":7,"action":1,"button_pressed":4,"time_out":false,"dwell_time":63.40087890625,"response_time":1696970307603.98},{"trial":7,"action":1,"button_pressed":5,"time_out":false,"dwell_time":80.972900390625,"response_time":1696970308653.75},{"trial":7,"action":9,"button_pressed":-1,"time_out":false,"dwell_time":114.777099609375,"response_time":1696970309920.41},{"trial":8,"action":1,"button_pressed":5,"time_out":false,"dwell_time":97.12109375,"response_time":1696970327464.37},{"trial":8,"action":1,"button_pressed":10,"time_out":false,"dwell_time":96.900146484375,"response_time":1696970328080.91},{"trial":8,"action":1,"button_pressed":7,"time_out":false,"dwell_time":64.18603515625,"response_time":1696970328997.01},{"trial":8,"action":1,"button_pressed":4,"time_out":false,"dwell_time":81.5859375,"response_time":1696970329514.25},{"trial":8,"action":1,"button_pressed":0,"time_out":false,"dwell_time":65.0458984375,"response_time":1696970329830.78},{"trial":8,"action":1,"button_pressed":8,"time_out":false,"dwell_time":63.77392578125,"response_time":1696970330296.89},{"trial":8,"action":9,"button_pressed":-1,"time_out":false,"dwell_time":81.35791015625,"response_time":1696970331563.29},{"trial":9,"action":1,"button_pressed":4,"time_out":false,"dwell_time":98.6220703125,"response_time":1696970351274.15},{"trial":9,"action":1,"button_pressed":2,"time_out":false,"dwell_time":80.868896484375,"response_time":1696970351556.13},{"trial":9,"action":1,"button_pressed":6,"time_out":false,"dwell_time":47.2041015625,"response_time":1696970351956.49},{"trial":9,"action":1,"button_pressed":8,"time_out":false,"dwell_time":63.450927734375,"response_time":1696970352389.22},{"trial":9,"action":1,"button_pressed":1,"time_out":false,"dwell_time":47.391845703125,"response_time":1696970353639.37},{"trial":9,"action":1,"button_pressed":9,"time_out":false,"dwell_time":80.677978515625,"response_time":1696970354155.28},{"trial":9,"action":1,"button_pressed":0,"time_out":false,"dwell_time":81.5859375,"response_time":1696970354722.6},{"trial":9,"action":9,"button_pressed":-1,"time_out":false,"dwell_time":82.365966796875,"response_time":1696970355238.82},{"trial":10,"action":1,"button_pressed":4,"time_out":false,"dwell_time":115.157958984375,"response_time":1696970377681.84},{"trial":10,"action":1,"button_pressed":11,"time_out":false,"dwell_time":114.20703125,"response_time":1696970378180.77},{"trial":10,"action":1,"button_pressed":7,"time_out":false,"dwell_time":80.725830078125,"response_time":1696970378530.57},{"trial":10,"action":1,"button_pressed":0,"time_out":false,"dwell_time":97.491943359375,"response_time":1696970379531},{"trial":10,"action":1,"button_pressed":2,"time_out":false,"dwell_time":114.15283203125,"response_time":1696970381612.99},{"trial":10,"action":1,"button_pressed":1,"time_out":false,"dwell_time":64.304931640625,"response_time":1696970382346.04},{"trial":10,"action":1,"button_pressed":9,"time_out":false,"dwell_time":47.35205078125,"response_time":1696970383412.92},{"trial":10,"action":9,"button_pressed":-1,"time_out":false,"dwell_time":98.23095703125,"response_time":1696970389210.98},{"trial":11,"action":1,"button_pressed":6,"time_out":false,"dwell_time":97.759033203125,"response_time":1696970411553.15},{"trial":11,"action":1,"button_pressed":0,"time_out":false,"dwell_time":97.531982421875,"response_time":1696970412036.22},{"trial":11,"action":1,"button_pressed":5,"time_out":false,"dwell_time":131.471923828125,"response_time":1696970412520.26},{"trial":11,"action":1,"button_pressed":3,"time_out":false,"dwell_time":80.393798828125,"response_time":1696970415052.25},{"trial":11,"action":1,"button_pressed":10,"time_out":false,"dwell_time":63.510986328125,"response_time":1696970415468.46},{"trial":11,"action":1,"button_pressed":8,"time_out":false,"dwell_time":81.60595703125,"response_time":1696970415819.07},{"trial":11,"action":1,"button_pressed":1,"time_out":false,"dwell_time":97.2490234375,"response_time":1696970417051.98},{"trial":11,"action":1,"button_pressed":7,"time_out":false,"dwell_time":63.673095703125,"response_time":1696970417434.79},{"trial":11,"action":9,"button_pressed":-1,"time_out":false,"dwell_time":98.10107421875,"response_time":1696970418401.34},{"trial":12,"action":1,"button_pressed":1,"time_out":false,"dwell_time":97.7080078125,"response_time":1696970443542.59},{"trial":12,"action":1,"button_pressed":6,"time_out":false,"dwell_time":80.906005859375,"response_time":1696970443893.37},{"trial":12,"action":1,"button_pressed":4,"time_out":false,"dwell_time":98.16796875,"response_time":1696970444326.43},{"trial":12,"action":1,"button_pressed":0,"time_out":false,"dwell_time":64.1328125,"response_time":1696970449007.58},{"trial":12,"action":1,"button_pressed":2,"time_out":false,"dwell_time":131.503173828125,"response_time":1696970450990.84},{"trial":12,"action":1,"button_pressed":7,"time_out":false,"dwell_time":81.5419921875,"response_time":1696970451790.66},{"trial":12,"action":1,"button_pressed":10,"time_out":false,"dwell_time":64.10888671875,"response_time":1696970452906.09},{"trial":12,"action":1,"button_pressed":3,"time_out":false,"dwell_time":63.879150390625,"response_time":1696970453523.27},{"trial":12,"action":9,"button_pressed":-1,"time_out":false,"dwell_time":81.070068359375,"response_time":1696970454989.27},{"trial":13,"action":1,"button_pressed":4,"time_out":false,"dwell_time":80.31298828125,"response_time":1696970480364.03},{"trial":13,"action":1,"button_pressed":2,"time_out":false,"dwell_time":64.093017578125,"response_time":1696970480731.13},{"trial":13,"action":1,"button_pressed":7,"time_out":false,"dwell_time":81.06298828125,"response_time":1696970481330.42},{"trial":13,"action":1,"button_pressed":1,"time_out":false,"dwell_time":79.85791015625,"response_time":1696970481713.39},{"trial":13,"action":1,"button_pressed":9,"time_out":false,"dwell_time":81.453125,"response_time":1696970482147.32},{"trial":13,"action":1,"button_pressed":5,"time_out":false,"dwell_time":81.2109375,"response_time":1696970485229.67},{"trial":13,"action":1,"button_pressed":0,"time_out":false,"dwell_time":80.841064453125,"response_time":1696970488395.18},{"trial":13,"action":1,"button_pressed":3,"time_out":false,"dwell_time":98.337890625,"response_time":1696970488745.42},{"trial":13,"action":1,"button_pressed":6,"time_out":false,"dwell_time":63.987060546875,"response_time":1696970489694.67},{"trial":13,"action":1,"button_pressed":11,"time_out":false,"dwell_time":82.1220703125,"response_time":1696970490045.02},{"trial":13,"action":9,"button_pressed":-1,"time_out":false,"dwell_time":81.714111328125,"response_time":1696970490911.77}]}