{"meta_data":{"additional_headers":{},"game_name":"Recollect","version":"2.53.01","user_name":"126","organization":"braingamecenter","study":"mpl2_2022_11","session_number":0,"device_id":"74342D95-EE82-45E3-8ADF-48FB3203C5DD"},"data":[{"trial":0,"action":1,"button_pressed":5,"time_out":false,"dwell_time":81.81689453125,"response_time":1698793818381.41},{"trial":0,"action":1,"button_pressed":3,"time_out":false,"dwell_time":81.442138671875,"response_time":1698793818980.75},{"trial":0,"action":9,"button_pressed":-1,"time_out":false,"dwell_time":75.072998046875,"response_time":1698793819941.28},{"trial":1,"action":1,"button_pressed":11,"time_out":false,"dwell_time":47.993896484375,"response_time":1698793829677.82},{"trial":1,"action":1,"button_pressed":2,"time_out":false,"dwell_time":47.110107421875,"response_time":1698793830276.75},{"trial":1,"action":1,"button_pressed":9,"time_out":false,"dwell_time":30.305908203125,"response_time":1698793830759.88},{"trial":1,"action":9,"button_pressed":-1,"time_out":false,"dwell_time":64.6640625,"response_time":1698793831693.77},{"trial":2,"action":1,"button_pressed":8,"time_out":false,"dwell_time":64.158935546875,"response_time":1698793843755.48},{"trial":2,"action":1,"button_pressed":1,"time_out":false,"dwell_time":30.390869140625,"response_time":1698793844405.4},{"trial":2,"action":1,"button_pressed":3,"time_out":false,"dwell_time":47.078857421875,"response_time":1698793844938.58},{"trial":2,"action":1,"button_pressed":11,"time_out":false,"dwell_time":63.89794921875,"response_time":1698793845454.67},{"trial":2,"action":9,"button_pressed":-1,"time_out":false,"dwell_time":64.5771484375,"response_time":1698793846155.54},{"trial":3,"action":1,"button_pressed":2,"time_out":false,"dwell_time":47.28515625,"response_time":1698793860900.12},{"trial":3,"action":1,"button_pressed":7,"time_out":false,"dwell_time":46.910888671875,"response_time":1698793861699.69},{"trial":3,"action":1,"button_pressed":6,"time_out":false,"dwell_time":97.723876953125,"response_time":1698793862083.32},{"trial":3,"action":1,"button_pressed":0,"time_out":false,"dwell_time":64.674072265625,"response_time":1698793862666.31},{"trial":3,"action":1,"button_pressed":8,"time_out":false,"dwell_time":64.159912109375,"response_time":1698793863265.67},{"trial":3,"action":9,"button_pressed":-1,"time_out":false,"dwell_time":114.740966796875,"response_time":1698793863966.46},{"trial":4,"action":1,"button_pressed":0,"time_out":false,"dwell_time":80.405029296875,"response_time":1698793879127.13},{"trial":4,"action":1,"button_pressed":7,"time_out":false,"dwell_time":47.60400390625,"response_time":1698793879677.84},{"trial":4,"action":1,"button_pressed":10,"time_out":false,"dwell_time":31.1201171875,"response_time":1698793880227.76},{"trial":4,"action":1,"button_pressed":4,"time_out":false,"dwell_time":97.833984375,"response_time":1698793880793.72},{"trial":4,"action":1,"button_pressed":1,"time_out":false,"dwell_time":46.892822265625,"response_time":1698793881176.72},{"trial":4,"action":9,"button_pressed":-1,"time_out":false,"dwell_time":16.339111328125,"response_time":1698793881676.14},{"trial":5,"action":1,"button_pressed":5,"time_out":false,"dwell_time":81.013916015625,"response_time":1698793898703.96},{"trial":5,"action":1,"button_pressed":10,"time_out":false,"dwell_time":80.660888671875,"response_time":1698793899237.79},{"trial":5,"action":1,"button_pressed":7,"time_out":false,"dwell_time":63.43505859375,"response_time":1698793899770.08},{"trial":5,"action":1,"button_pressed":0,"time_out":false,"dwell_time":64.22119140625,"response_time":1698793900386.66},{"trial":5,"action":1,"button_pressed":4,"time_out":false,"dwell_time":64.570068359375,"response_time":1698793900903.63},{"trial":5,"action":1,"button_pressed":8,"time_out":false,"dwell_time":81.140869140625,"response_time":1698793901403.67},{"trial":5,"action":9,"button_pressed":-1,"time_out":false,"dwell_time":63.93603515625,"response_time":1698793902519.66},{"trial":6,"action":1,"button_pressed":0,"time_out":false,"dwell_time":31.220947265625,"response_time":1698793921031.02},{"trial":6,"action":1,"button_pressed":4,"time_out":false,"dwell_time":47.572021484375,"response_time":1698793921297.51},{"trial":6,"action":1,"button_pressed":11,"time_out":false,"dwell_time":31.0419921875,"response_time":1698793922946.26},{"trial":6,"action":1,"button_pressed":3,"time_out":false,"dwell_time":64.176025390625,"response_time":1698793923462.4},{"trial":6,"action":1,"button_pressed":5,"time_out":false,"dwell_time":31.339111328125,"response_time":1698793924279.32},{"trial":6,"action":1,"button_pressed":7,"time_out":false,"dwell_time":63.2099609375,"response_time":1698793924895.14},{"trial":6,"action":9,"button_pressed":-1,"time_out":false,"dwell_time":80.51611328125,"response_time":1698793925562.11},{"trial":7,"action":1,"button_pressed":5,"time_out":false,"dwell_time":164.31689453125,"response_time":1698793945106.19},{"trial":7,"action":1,"button_pressed":3,"time_out":false,"dwell_time":131.114990234375,"response_time":1698793945705.36},{"trial":7,"action":1,"button_pressed":8,"time_out":false,"dwell_time":112.783935546875,"response_time":1698793946204.86},{"trial":7,"action":1,"button_pressed":11,"time_out":false,"dwell_time":81.489990234375,"response_time":1698793947421.77},{"trial":7,"action":1,"button_pressed":7,"time_out":false,"dwell_time":113.914794921875,"response_time":1698793947887.56},{"trial":7,"action":1,"button_pressed":4,"time_out":false,"dwell_time":129.9609375,"response_time":1698793948304.13},{"trial":7,"action":1,"button_pressed":10,"time_out":false,"dwell_time":97.173095703125,"response_time":1698793948754.8},{"trial":7,"action":9,"button_pressed":-1,"time_out":false,"dwell_time":114.80810546875,"response_time":1698793949604.44},{"trial":8,"action":1,"button_pressed":6,"time_out":false,"dwell_time":80.840087890625,"response_time":1698793972363.93},{"trial":8,"action":1,"button_pressed":0,"time_out":false,"dwell_time":180.055908203125,"response_time":1698793972946.14},{"trial":8,"action":1,"button_pressed":5,"time_out":false,"dwell_time":181.447998046875,"response_time":1698793973646.5},{"trial":8,"action":1,"button_pressed":9,"time_out":false,"dwell_time":130.861083984375,"response_time":1698793974362.06},{"trial":8,"action":1,"button_pressed":10,"time_out":false,"dwell_time":97.360107421875,"response_time":1698793975978.35},{"trial":8,"action":1,"button_pressed":8,"time_out":false,"dwell_time":96.344970703125,"response_time":1698793977961.04},{"trial":8,"action":1,"button_pressed":7,"time_out":false,"dwell_time":97.947998046875,"response_time":1698793978894.83},{"trial":8,"action":1,"button_pressed":1,"time_out":false,"dwell_time":97.969970703125,"response_time":1698793979511.2},{"trial":8,"action":9,"button_pressed":-1,"time_out":false,"dwell_time":113.930908203125,"response_time":1698793980110.87},{"trial":9,"action":1,"button_pressed":10,"time_out":false,"dwell_time":98.22216796875,"response_time":1698794002070.8},{"trial":9,"action":1,"button_pressed":2,"time_out":false,"dwell_time":79.619873046875,"response_time":1698794002436.27},{"trial":9,"action":1,"button_pressed":1,"time_out":false,"dwell_time":80.654052734375,"response_time":1698794002687.01},{"trial":9,"action":1,"button_pressed":8,"time_out":false,"dwell_time":81.300048828125,"response_time":1698794002970.28},{"trial":9,"action":1,"button_pressed":5,"time_out":false,"dwell_time":80.67919921875,"response_time":1698794003886.64},{"trial":9,"action":1,"button_pressed":11,"time_out":false,"dwell_time":97.963134765625,"response_time":1698794004169.88},{"trial":9,"action":1,"button_pressed":0,"time_out":false,"dwell_time":47.8359375,"response_time":1698794004536.14},{"trial":9,"action":1,"button_pressed":4,"time_out":false,"dwell_time":30.64697265625,"response_time":1698794004752.91},{"trial":9,"action":9,"button_pressed":-1,"time_out":false,"dwell_time":148.68310546875,"response_time":1698794005969.77},{"trial":10,"action":1,"button_pressed":7,"time_out":false,"dwell_time":96.608154296875,"response_time":1698794023512.96},{"trial":10,"action":1,"button_pressed":0,"time_out":false,"dwell_time":48.81494140625,"response_time":1698794024013.89},{"trial":10,"action":1,"button_pressed":8,"time_out":false,"dwell_time":147.87890625,"response_time":1698794024513.22},{"trial":10,"action":1,"button_pressed":4,"time_out":false,"dwell_time":48.996826171875,"response_time":1698794024780.47},{"trial":10,"action":1,"button_pressed":1,"time_out":false,"dwell_time":82.282958984375,"response_time":1698794026378.58},{"trial":10,"action":9,"button_pressed":-1,"time_out":false,"dwell_time":48.56298828125,"response_time":1698794026845.81},{"trial":11,"action":1,"button_pressed":0,"time_out":false,"dwell_time":98.454833984375,"response_time":1698794044690.07},{"trial":11,"action":1,"button_pressed":7,"time_out":false,"dwell_time":63.89990234375,"response_time":1698794045089.8},{"trial":11,"action":1,"button_pressed":4,"time_out":false,"dwell_time":98.046875,"response_time":1698794045556.23},{"trial":11,"action":1,"button_pressed":10,"time_out":false,"dwell_time":96.90087890625,"response_time":1698794045805.53},{"trial":11,"action":1,"button_pressed":2,"time_out":false,"dwell_time":64.10498046875,"response_time":1698794046172.03},{"trial":11,"action":1,"button_pressed":9,"time_out":false,"dwell_time":46.962890625,"response_time":1698794047022.23},{"trial":11,"action":9,"button_pressed":-1,"time_out":false,"dwell_time":65.501953125,"response_time":1698794047572.84}]}