{"meta_data":{"additional_headers":{},"game_name":"Recollect","version":"2.53.01","user_name":"126","organization":"braingamecenter","study":"mpl2_2022_11","session_number":0,"device_id":"74342D95-EE82-45E3-8ADF-48FB3203C5DD"},"data":[{"stage":"Practice","trial":0,"sequence":"6F","letter_input":"F","number_input":"6","is_correct":true,"presentation_start_time":1698794068913.16,"presentation_end_time":1698794071915.23,"response_time":1698794078363.5},{"stage":"Practice","trial":1,"sequence":"G4","letter_input":"G","number_input":"4","is_correct":true,"presentation_start_time":1698794079892.91,"presentation_end_time":1698794082895.14,"response_time":1698794087973.68},{"stage":"Practice","trial":2,"sequence":"3W5","letter_input":"W","number_input":"35","is_correct":true,"presentation_start_time":1698794089506.4,"presentation_end_time":1698794094008.05,"response_time":1698794100319.64},{"stage":"Practice","trial":3,"sequence":"T7L","letter_input":"LT","number_input":"7","is_correct":true,"presentation_start_time":1698794101852.42,"presentation_end_time":1698794106354.11,"response_time":1698794113898.41},{"stage":"Practice","trial":4,"sequence":"9J1","letter_input":"J","number_input":"19","is_correct":true,"presentation_start_time":1698794115431.18,"presentation_end_time":1698794119932.86,"response_time":1698794124861.54},{"stage":"Calibration","trial":0,"sequence":"H5","letter_input":"H","number_input":"5","is_correct":true,"presentation_start_time":1698794128243.63,"presentation_end_time":1698794131245.7,"response_time":1698794135141.5},{"stage":"Calibration","trial":1,"sequence":"4T","letter_input":"T","number_input":"4","is_correct":true,"presentation_start_time":1698794136674.26,"presentation_end_time":1698794139676.23,"response_time":1698794143055.58},{"stage":"Calibration","trial":2,"sequence":"Q6F","letter_input":"FQ","number_input":"6","is_correct":true,"presentation_start_time":1698794144588.23,"presentation_end_time":1698794149089.88,"response_time":1698794155451.44},{"stage":"Calibration","trial":3,"sequence":"4S1","letter_input":"S","number_input":"14","is_correct":true,"presentation_start_time":1698794156984.21,"presentation_end_time":1698794161485.84,"response_time":1698794165481.45},{"stage":"Calibration","trial":4,"sequence":"J8A5","letter_input":"AJ","number_input":"58","is_correct":true,"presentation_start_time":1698794167014.24,"presentation_end_time":1698794173015.36,"response_time":1698794182742.48},{"stage":"Calibration","trial":5,"sequence":"4V1E","letter_input":"EV","number_input":"14","is_correct":true,"presentation_start_time":1698794184275.24,"presentation_end_time":1698794190276.34,"response_time":1698794194805.16},{"stage":"Calibration","trial":6,"sequence":"B6P3D","letter_input":"BPD","number_input":"36","is_correct":false,"presentation_start_time":1698794196337.87,"presentation_end_time":1698794203838.54,"response_time":1698794209450.35},{"stage":"Calibration","trial":7,"sequence":"2S8G5","letter_input":"D","number_input":"258","is_correct":false,"presentation_start_time":1698794210983.09,"presentation_end_time":1698794218483.74,"response_time":1698794228660.81}]}