{"meta_data":{"additional_headers":{},"game_name":"Recollect","version":"2.53.01","user_name":"127","organization":"braingamecenter","study":"mpl2_2022_11","session_number":0,"device_id":"74342D95-EE82-45E3-8ADF-48FB3203C5DD"},"data":[{"stage":"Practice","trial":0,"sequence":"6F","letter_input":"F","number_input":"6","is_correct":true,"presentation_start_time":1698947013940.77,"presentation_end_time":1698947016942.91,"response_time":1698947025322.17},{"stage":"Practice","trial":1,"sequence":"G4","letter_input":"G","number_input":"4","is_correct":true,"presentation_start_time":1698947026853.15,"presentation_end_time":1698947029855.19,"response_time":1698947035783.58},{"stage":"Practice","trial":2,"sequence":"3W5","letter_input":"W","number_input":"35","is_correct":true,"presentation_start_time":1698947037316.31,"presentation_end_time":1698947041817.92,"response_time":1698947046813.32},{"stage":"Practice","trial":3,"sequence":"T7L","letter_input":"LT","number_input":"7","is_correct":true,"presentation_start_time":1698947048346.06,"presentation_end_time":1698947052847.67,"response_time":1698947063491.1},{"stage":"Practice","trial":4,"sequence":"9J1","letter_input":"J","number_input":"19","is_correct":true,"presentation_start_time":1698947065023.83,"presentation_end_time":1698947069525.48,"response_time":1698947078219.66},{"stage":"Calibration","trial":0,"sequence":"L9","letter_input":"L","number_input":"9","is_correct":true,"presentation_start_time":1698947089815.65,"presentation_end_time":1698947092817.67,"response_time":1698947097996.31},{"stage":"Calibration","trial":1,"sequence":"1J","letter_input":"J","number_input":"1","is_correct":true,"presentation_start_time":1698947099529.09,"presentation_end_time":1698947102531.2,"response_time":1698947107159.9},{"stage":"Calibration","trial":2,"sequence":"Y9L","letter_input":"LY","number_input":"9","is_correct":true,"presentation_start_time":1698947108692.7,"presentation_end_time":1698947113194.28,"response_time":1698947129769.12},{"stage":"Calibration","trial":3,"sequence":"6M4","letter_input":"M","number_input":"46","is_correct":true,"presentation_start_time":1698947131301.87,"presentation_end_time":1698947135803.49,"response_time":1698947143947.8},{"stage":"Calibration","trial":4,"sequence":"Y7P3","letter_input":"PY","number_input":"37","is_correct":true,"presentation_start_time":1698947145480.54,"presentation_end_time":1698947151481.7,"response_time":1698947163741.23},{"stage":"Calibration","trial":5,"sequence":"8R4G","letter_input":"GR","number_input":"48","is_correct":true,"presentation_start_time":1698947165273.95,"presentation_end_time":1698947171275.03,"response_time":1698947200312.42},{"stage":"Calibration","trial":6,"sequence":"Z9P3K","letter_input":"KPZ","number_input":"39","is_correct":true,"presentation_start_time":1698947201845.09,"presentation_end_time":1698947209345.73,"response_time":1698947237116.83},{"stage":"Calibration","trial":7,"sequence":"5T1B7","letter_input":"PT","number_input":"157","is_correct":false,"presentation_start_time":1698947238649.55,"presentation_end_time":1698947246150.15,"response_time":1698947271638.69},{"stage":"Calibration","trial":8,"sequence":"Q8N6G3","letter_input":"GNQR","number_input":"36","is_correct":false,"presentation_start_time":1698947273171.4,"presentation_end_time":1698947282171.66,"response_time":1698947327486.78},{"stage":"Calibration","trial":9,"sequence":"2F7W4L","letter_input":"FLW","number_input":"247","is_correct":true,"presentation_start_time":1698947329019.51,"presentation_end_time":1698947338019.75,"response_time":1698947365674.15},{"stage":"Calibration","trial":10,"sequence":"D3V1K8Z","letter_input":"DK","number_input":"38","is_correct":false,"presentation_start_time":1698947367206.83,"presentation_end_time":1698947377706.46,"response_time":1698947410742.52},{"stage":"Calibration","trial":11,"sequence":"4H2C9T7","letter_input":"W","number_input":"48","is_correct":false,"presentation_start_time":1698947412275.22,"presentation_end_time":1698947422774.95,"response_time":1698947454694.61}]}