{"meta_data":{"additional_headers":{},"game_name":"Recollect","version":"2.53.01","user_name":"127","organization":"braingamecenter","study":"mpl2_2022_11","session_number":0,"device_id":"74342D95-EE82-45E3-8ADF-48FB3203C5DD"},"data":[{"trial":0,"action":1,"button_pressed":8,"time_out":false,"dwell_time":98.10400390625,"response_time":1698946712392.76},{"trial":0,"action":1,"button_pressed":0,"time_out":false,"dwell_time":63.48388671875,"response_time":1698946712891.92},{"trial":0,"action":9,"button_pressed":-1,"time_out":false,"dwell_time":107.591064453125,"response_time":1698946713385.27},{"trial":1,"action":1,"button_pressed":6,"time_out":false,"dwell_time":64.092041015625,"response_time":1698946723121.78},{"trial":1,"action":1,"button_pressed":5,"time_out":false,"dwell_time":47.077880859375,"response_time":1698946723755.23},{"trial":1,"action":1,"button_pressed":4,"time_out":false,"dwell_time":64.00390625,"response_time":1698946724238},{"trial":1,"action":9,"button_pressed":-1,"time_out":false,"dwell_time":80.797119140625,"response_time":1698946725771.92},{"trial":2,"action":1,"button_pressed":11,"time_out":false,"dwell_time":64.855224609375,"response_time":1698946738101.1},{"trial":2,"action":1,"button_pressed":0,"time_out":false,"dwell_time":81.864990234375,"response_time":1698946738650.99},{"trial":2,"action":1,"button_pressed":4,"time_out":false,"dwell_time":80.158935546875,"response_time":1698946738916.8},{"trial":2,"action":1,"button_pressed":1,"time_out":false,"dwell_time":63.843017578125,"response_time":1698946739500.3},{"trial":2,"action":9,"button_pressed":-1,"time_out":false,"dwell_time":97.947998046875,"response_time":1698946740017.32},{"trial":3,"action":1,"button_pressed":7,"time_out":false,"dwell_time":81.55712890625,"response_time":1698946754845.41},{"trial":3,"action":1,"button_pressed":4,"time_out":false,"dwell_time":113.72314453125,"response_time":1698946755544.3},{"trial":3,"action":1,"button_pressed":11,"time_out":false,"dwell_time":80.35595703125,"response_time":1698946756027.99},{"trial":3,"action":1,"button_pressed":3,"time_out":false,"dwell_time":80.52490234375,"response_time":1698946756461.35},{"trial":3,"action":1,"button_pressed":10,"time_out":false,"dwell_time":81.35888671875,"response_time":1698946756927.99},{"trial":3,"action":9,"button_pressed":-1,"time_out":false,"dwell_time":114.386962890625,"response_time":1698946757794.62},{"trial":4,"action":1,"button_pressed":11,"time_out":false,"dwell_time":98.052978515625,"response_time":1698946775038.66},{"trial":4,"action":1,"button_pressed":8,"time_out":false,"dwell_time":80.367919921875,"response_time":1698946775604.27},{"trial":4,"action":1,"button_pressed":6,"time_out":false,"dwell_time":81.27001953125,"response_time":1698946776488.08},{"trial":4,"action":1,"button_pressed":4,"time_out":false,"dwell_time":80.634033203125,"response_time":1698946776853.85},{"trial":4,"action":1,"button_pressed":1,"time_out":false,"dwell_time":80.68701171875,"response_time":1698946777254.46},{"trial":4,"action":1,"button_pressed":10,"time_out":false,"dwell_time":114.18701171875,"response_time":1698946777820.86},{"trial":4,"action":9,"button_pressed":-1,"time_out":false,"dwell_time":132.050048828125,"response_time":1698946778754.51},{"trial":5,"action":1,"button_pressed":10,"time_out":false,"dwell_time":97.52099609375,"response_time":1698946798414.42},{"trial":5,"action":1,"button_pressed":2,"time_out":false,"dwell_time":98.005126953125,"response_time":1698946798930.61},{"trial":5,"action":1,"button_pressed":1,"time_out":false,"dwell_time":129.700927734375,"response_time":1698946800246.11},{"trial":5,"action":1,"button_pressed":7,"time_out":false,"dwell_time":130.56396484375,"response_time":1698946800696.83},{"trial":5,"action":1,"button_pressed":6,"time_out":false,"dwell_time":79.62109375,"response_time":1698946801079.17},{"trial":5,"action":1,"button_pressed":0,"time_out":false,"dwell_time":79.751953125,"response_time":1698946801545.81},{"trial":5,"action":1,"button_pressed":4,"time_out":false,"dwell_time":79.929931640625,"response_time":1698946801895.58},{"trial":5,"action":9,"button_pressed":-1,"time_out":false,"dwell_time":98.66796875,"response_time":1698946803746.31},{"trial":6,"action":1,"button_pressed":8,"time_out":false,"dwell_time":80.627197265625,"response_time":1698946823521.96},{"trial":6,"action":1,"button_pressed":2,"time_out":false,"dwell_time":112.990966796875,"response_time":1698946826154.26},{"trial":6,"action":1,"button_pressed":1,"time_out":false,"dwell_time":113.951904296875,"response_time":1698946826821.45},{"trial":6,"action":1,"button_pressed":7,"time_out":false,"dwell_time":97.211181640625,"response_time":1698946827537.84},{"trial":6,"action":1,"button_pressed":6,"time_out":false,"dwell_time":146.83203125,"response_time":1698946827954.36},{"trial":6,"action":0,"button_pressed":-1,"time_out":false,"dwell_time":114.236083984375,"response_time":1698946831070.23},{"trial":6,"action":1,"button_pressed":8,"time_out":false,"dwell_time":62.955078125,"response_time":1698946833185.13},{"trial":6,"action":1,"button_pressed":5,"time_out":false,"dwell_time":80.761962890625,"response_time":1698946833635.94},{"trial":6,"action":1,"button_pressed":1,"time_out":false,"dwell_time":148.02197265625,"response_time":1698946836451.6},{"trial":6,"action":1,"button_pressed":3,"time_out":false,"dwell_time":130.51904296875,"response_time":1698946838700.7},{"trial":6,"action":1,"button_pressed":7,"time_out":false,"dwell_time":96.5400390625,"response_time":1698946839283.2},{"trial":6,"action":1,"button_pressed":6,"time_out":false,"dwell_time":97.93994140625,"response_time":1698946839600.59},{"trial":6,"action":1,"button_pressed":11,"time_out":false,"dwell_time":63.196044921875,"response_time":1698946839982.99},{"trial":6,"action":9,"button_pressed":-1,"time_out":false,"dwell_time":65.219970703125,"response_time":1698946840967.81},{"trial":7,"action":1,"button_pressed":3,"time_out":false,"dwell_time":82.139892578125,"response_time":1698946855962.33},{"trial":7,"action":1,"button_pressed":8,"time_out":false,"dwell_time":80.902099609375,"response_time":1698946856461.12},{"trial":7,"action":1,"button_pressed":4,"time_out":false,"dwell_time":63.06884765625,"response_time":1698946859376.56},{"trial":7,"action":1,"button_pressed":10,"time_out":false,"dwell_time":79.81787109375,"response_time":1698946859726.44},{"trial":7,"action":1,"button_pressed":11,"time_out":false,"dwell_time":64.6669921875,"response_time":1698946860193.67},{"trial":7,"action":9,"button_pressed":-1,"time_out":false,"dwell_time":16.6640625,"response_time":1698946860942.95},{"trial":8,"action":1,"button_pressed":5,"time_out":false,"dwell_time":130.258056640625,"response_time":1698946882002.61},{"trial":8,"action":1,"button_pressed":7,"time_out":false,"dwell_time":47.76513671875,"response_time":1698946884018.87},{"trial":8,"action":1,"button_pressed":4,"time_out":false,"dwell_time":79.901123046875,"response_time":1698946884668.22},{"trial":8,"action":1,"button_pressed":10,"time_out":false,"dwell_time":97.35693359375,"response_time":1698946885251.35},{"trial":8,"action":1,"button_pressed":0,"time_out":false,"dwell_time":63.202880859375,"response_time":1698946886567.48},{"trial":8,"action":1,"button_pressed":8,"time_out":false,"dwell_time":96.473876953125,"response_time":1698946887100.68},{"trial":8,"action":9,"button_pressed":-1,"time_out":false,"dwell_time":81.511962890625,"response_time":1698946888367.61},{"trial":9,"action":1,"button_pressed":9,"time_out":false,"dwell_time":114.85693359375,"response_time":1698946905945.39},{"trial":9,"action":1,"button_pressed":1,"time_out":false,"dwell_time":148.2119140625,"response_time":1698946906461.79},{"trial":9,"action":1,"button_pressed":2,"time_out":false,"dwell_time":131.510009765625,"response_time":1698946906911.57},{"trial":9,"action":1,"button_pressed":8,"time_out":false,"dwell_time":129.913818359375,"response_time":1698946907360.82},{"trial":9,"action":1,"button_pressed":6,"time_out":false,"dwell_time":79.6650390625,"response_time":1698946908127.1},{"trial":9,"action":1,"button_pressed":11,"time_out":false,"dwell_time":131.24609375,"response_time":1698946908510.94},{"trial":9,"action":9,"button_pressed":-1,"time_out":false,"dwell_time":80.487060546875,"response_time":1698946909427.19},{"trial":10,"action":1,"button_pressed":5,"time_out":false,"dwell_time":80.2109375,"response_time":1698946928970.38},{"trial":10,"action":1,"button_pressed":8,"time_out":false,"dwell_time":97.31103515625,"response_time":1698946929253.61},{"trial":10,"action":1,"button_pressed":3,"time_out":false,"dwell_time":114.01708984375,"response_time":1698946930703.76},{"trial":10,"action":1,"button_pressed":11,"time_out":false,"dwell_time":79.43310546875,"response_time":1698946932502.37},{"trial":10,"action":1,"button_pressed":7,"time_out":false,"dwell_time":162.927001953125,"response_time":1698946933352.13},{"trial":10,"action":1,"button_pressed":4,"time_out":false,"dwell_time":130.60595703125,"response_time":1698946933952.61},{"trial":10,"action":1,"button_pressed":10,"time_out":false,"dwell_time":97.0771484375,"response_time":1698946934252.5},{"trial":10,"action":9,"button_pressed":-1,"time_out":false,"dwell_time":148.642822265625,"response_time":1698946935902.46},{"trial":11,"action":1,"button_pressed":1,"time_out":false,"dwell_time":113.35791015625,"response_time":1698946956011.49},{"trial":11,"action":1,"button_pressed":9,"time_out":false,"dwell_time":79.875,"response_time":1698946956477.84},{"trial":11,"action":1,"button_pressed":7,"time_out":false,"dwell_time":113.7470703125,"response_time":1698946957094.94},{"trial":11,"action":1,"button_pressed":2,"time_out":false,"dwell_time":96.56396484375,"response_time":1698946957660.76},{"trial":11,"action":1,"button_pressed":11,"time_out":false,"dwell_time":147.926025390625,"response_time":1698946958994.37},{"trial":11,"action":1,"button_pressed":6,"time_out":false,"dwell_time":81.15283203125,"response_time":1698946965575.53},{"trial":11,"action":1,"button_pressed":3,"time_out":false,"dwell_time":80.4111328125,"response_time":1698946965925.35},{"trial":11,"action":9,"button_pressed":-1,"time_out":false,"dwell_time":16.907958984375,"response_time":1698946967308}]}