{"meta_data":{"additional_headers":{},"game_name":"Recollect","version":"2.53.01","user_name":"128","organization":"braingamecenter","study":"mpl2_2022_11","session_number":0,"device_id":"74342D95-EE82-45E3-8ADF-48FB3203C5DD"},"data":[{"trial":0,"action":1,"button_pressed":0,"time_out":false,"dwell_time":48.0087890625,"response_time":1699295808283.51},{"trial":0,"action":1,"button_pressed":6,"time_out":false,"dwell_time":48.552001953125,"response_time":1699295808666.62},{"trial":0,"action":9,"button_pressed":-1,"time_out":false,"dwell_time":41.143798828125,"response_time":1699295809259.75},{"trial":1,"action":1,"button_pressed":3,"time_out":false,"dwell_time":64.718017578125,"response_time":1699295818896.23},{"trial":1,"action":1,"button_pressed":9,"time_out":false,"dwell_time":63.816162109375,"response_time":1699295819145.97},{"trial":1,"action":1,"button_pressed":7,"time_out":false,"dwell_time":48.3662109375,"response_time":1699295819546.3},{"trial":1,"action":9,"button_pressed":-1,"time_out":false,"dwell_time":47.739990234375,"response_time":1699295820529.01},{"trial":2,"action":1,"button_pressed":10,"time_out":false,"dwell_time":30.31201171875,"response_time":1699295832674.74},{"trial":2,"action":1,"button_pressed":3,"time_out":false,"dwell_time":47.801025390625,"response_time":1699295833057.73},{"trial":2,"action":1,"button_pressed":6,"time_out":false,"dwell_time":47.886962890625,"response_time":1699295833341.93},{"trial":2,"action":1,"button_pressed":8,"time_out":false,"dwell_time":30.992919921875,"response_time":1699295833724.21},{"trial":2,"action":9,"button_pressed":-1,"time_out":false,"dwell_time":49.10302734375,"response_time":1699295834408.59},{"trial":3,"action":1,"button_pressed":7,"time_out":false,"dwell_time":47.799072265625,"response_time":1699295848969.23},{"trial":3,"action":1,"button_pressed":4,"time_out":false,"dwell_time":47.884033203125,"response_time":1699295849335.82},{"trial":3,"action":1,"button_pressed":11,"time_out":false,"dwell_time":46.662109375,"response_time":1699295849685.62},{"trial":3,"action":1,"button_pressed":3,"time_out":false,"dwell_time":81.23291015625,"response_time":1699295850019.09},{"trial":3,"action":1,"button_pressed":10,"time_out":false,"dwell_time":47.0048828125,"response_time":1699295850418.79},{"trial":3,"action":9,"button_pressed":-1,"time_out":false,"dwell_time":49.159912109375,"response_time":1699295851086.32},{"trial":4,"action":1,"button_pressed":7,"time_out":false,"dwell_time":47.85986328125,"response_time":1699295868079.67},{"trial":4,"action":1,"button_pressed":4,"time_out":false,"dwell_time":48.43310546875,"response_time":1699295868629.37},{"trial":4,"action":1,"button_pressed":10,"time_out":false,"dwell_time":31.096923828125,"response_time":1699295868946.65},{"trial":4,"action":1,"button_pressed":10,"time_out":false,"dwell_time":48.3779296875,"response_time":1699295869829.59},{"trial":4,"action":1,"button_pressed":4,"time_out":false,"dwell_time":47.666015625,"response_time":1699295870379.4},{"trial":4,"action":1,"button_pressed":3,"time_out":false,"dwell_time":47.65087890625,"response_time":1699295871162.5},{"trial":4,"action":1,"button_pressed":3,"time_out":false,"dwell_time":47.30908203125,"response_time":1699295871894.99},{"trial":4,"action":1,"button_pressed":4,"time_out":false,"dwell_time":31.050048828125,"response_time":1699295872328.85},{"trial":4,"action":0,"button_pressed":-1,"time_out":false,"dwell_time":81.89501953125,"response_time":1699295874044.84},{"trial":4,"action":1,"button_pressed":7,"time_out":false,"dwell_time":30.821044921875,"response_time":1699295874760.61},{"trial":4,"action":1,"button_pressed":3,"time_out":false,"dwell_time":48.646240234375,"response_time":1699295875261.29},{"trial":4,"action":1,"button_pressed":4,"time_out":false,"dwell_time":64.72216796875,"response_time":1699295875693.87},{"trial":4,"action":1,"button_pressed":10,"time_out":false,"dwell_time":30.1669921875,"response_time":1699295876126.83},{"trial":4,"action":1,"button_pressed":2,"time_out":false,"dwell_time":30.375,"response_time":1699295876776.55},{"trial":4,"action":1,"button_pressed":9,"time_out":false,"dwell_time":30.259033203125,"response_time":1699295877226.45},{"trial":4,"action":9,"button_pressed":-1,"time_out":false,"dwell_time":48.333984375,"response_time":1699295878277.34},{"trial":5,"action":1,"button_pressed":0,"time_out":false,"dwell_time":47.2041015625,"response_time":1699295896137.05},{"trial":5,"action":1,"button_pressed":4,"time_out":false,"dwell_time":48.72509765625,"response_time":1699295896321.02},{"trial":5,"action":1,"button_pressed":11,"time_out":false,"dwell_time":64.34814453125,"response_time":1699295896786.89},{"trial":5,"action":1,"button_pressed":3,"time_out":false,"dwell_time":49.870849609375,"response_time":1699295897203.91},{"trial":5,"action":1,"button_pressed":5,"time_out":false,"dwell_time":13.817138671875,"response_time":1699295897602.38},{"trial":5,"action":1,"button_pressed":7,"time_out":false,"dwell_time":31.114990234375,"response_time":1699295898202.88},{"trial":5,"action":9,"button_pressed":-1,"time_out":false,"dwell_time":64.71484375,"response_time":1699295898902.77},{"trial":6,"action":1,"button_pressed":2,"time_out":false,"dwell_time":49.151123046875,"response_time":1699295918497.24},{"trial":6,"action":1,"button_pressed":6,"time_out":false,"dwell_time":47.842041015625,"response_time":1699295919046.03},{"trial":6,"action":1,"button_pressed":9,"time_out":false,"dwell_time":64.89697265625,"response_time":1699295919512.9},{"trial":6,"action":1,"button_pressed":0,"time_out":false,"dwell_time":63.912841796875,"response_time":1699295920261.95},{"trial":6,"action":1,"button_pressed":3,"time_out":false,"dwell_time":47.736083984375,"response_time":1699295921262.01},{"trial":6,"action":1,"button_pressed":10,"time_out":false,"dwell_time":48.089111328125,"response_time":1699295921895.76},{"trial":6,"action":1,"button_pressed":7,"time_out":false,"dwell_time":48.281005859375,"response_time":1699295922462.33},{"trial":6,"action":9,"button_pressed":-1,"time_out":false,"dwell_time":32.485107421875,"response_time":1699295925345.86},{"trial":7,"action":1,"button_pressed":6,"time_out":false,"dwell_time":48.22802734375,"response_time":1699295947387.18},{"trial":7,"action":1,"button_pressed":0,"time_out":false,"dwell_time":64.49609375,"response_time":1699295947819.88},{"trial":7,"action":1,"button_pressed":5,"time_out":false,"dwell_time":30.31591796875,"response_time":1699295948203},{"trial":7,"action":1,"button_pressed":3,"time_out":false,"dwell_time":47.219970703125,"response_time":1699295948636.18},{"trial":7,"action":1,"button_pressed":10,"time_out":false,"dwell_time":63.658935546875,"response_time":1699295949086.27},{"trial":7,"action":1,"button_pressed":8,"time_out":false,"dwell_time":62.901123046875,"response_time":1699295949552.05},{"trial":7,"action":1,"button_pressed":1,"time_out":false,"dwell_time":47.06787109375,"response_time":1699295950002.54},{"trial":7,"action":1,"button_pressed":7,"time_out":false,"dwell_time":48.348876953125,"response_time":1699295950386.39},{"trial":7,"action":9,"button_pressed":-1,"time_out":false,"dwell_time":32.39697265625,"response_time":1699295951236.49},{"trial":8,"action":1,"button_pressed":4,"time_out":false,"dwell_time":64.31396484375,"response_time":1699295978259.47},{"trial":8,"action":1,"button_pressed":2,"time_out":false,"dwell_time":48.551025390625,"response_time":1699295978643.72},{"trial":8,"action":1,"button_pressed":7,"time_out":false,"dwell_time":47.64501953125,"response_time":1699295979159.59},{"trial":8,"action":1,"button_pressed":9,"time_out":false,"dwell_time":30.589111328125,"response_time":1699295985274.39},{"trial":8,"action":1,"button_pressed":1,"time_out":false,"dwell_time":78.957763671875,"response_time":1699295985789.34},{"trial":8,"action":1,"button_pressed":5,"time_out":false,"dwell_time":30.213134765625,"response_time":1699295986256.98},{"trial":8,"action":1,"button_pressed":6,"time_out":false,"dwell_time":64.234130859375,"response_time":1699295987023.73},{"trial":8,"action":1,"button_pressed":11,"time_out":false,"dwell_time":48.640869140625,"response_time":1699295987474.22},{"trial":8,"action":9,"button_pressed":-1,"time_out":true,"dwell_time":10061.0949707031,"response_time":1699295997486.67},{"trial":9,"action":1,"button_pressed":6,"time_out":false,"dwell_time":48.046875,"response_time":1699296029643.02},{"trial":9,"action":1,"button_pressed":5,"time_out":false,"dwell_time":62.989013671875,"response_time":1699296030508.44},{"trial":9,"action":1,"button_pressed":4,"time_out":false,"dwell_time":64.89599609375,"response_time":1699296031125.93},{"trial":9,"action":1,"button_pressed":7,"time_out":false,"dwell_time":48.40185546875,"response_time":1699296031876.04},{"trial":9,"action":1,"button_pressed":8,"time_out":false,"dwell_time":47.62109375,"response_time":1699296032525.84},{"trial":9,"action":1,"button_pressed":9,"time_out":false,"dwell_time":48.30810546875,"response_time":1699296032992.33},{"trial":9,"action":1,"button_pressed":1,"time_out":false,"dwell_time":46.931884765625,"response_time":1699296033408.19},{"trial":9,"action":1,"button_pressed":2,"time_out":false,"dwell_time":47.843994140625,"response_time":1699296034042.14},{"trial":9,"action":1,"button_pressed":10,"time_out":false,"dwell_time":31.488037109375,"response_time":1699296034841.8},{"trial":9,"action":9,"button_pressed":-1,"time_out":false,"dwell_time":31.952880859375,"response_time":1699296036107.74},{"trial":10,"action":1,"button_pressed":4,"time_out":false,"dwell_time":64.68603515625,"response_time":1699296055867.91},{"trial":10,"action":1,"button_pressed":2,"time_out":false,"dwell_time":63.986083984375,"response_time":1699296056116.85},{"trial":10,"action":1,"button_pressed":6,"time_out":false,"dwell_time":47.843017578125,"response_time":1699296057217.09},{"trial":10,"action":1,"button_pressed":8,"time_out":false,"dwell_time":13.98193359375,"response_time":1699296057716.56},{"trial":10,"action":1,"button_pressed":1,"time_out":false,"dwell_time":46.863037109375,"response_time":1699296058949.47},{"trial":10,"action":1,"button_pressed":9,"time_out":false,"dwell_time":30.8681640625,"response_time":1699296059450.29},{"trial":10,"action":1,"button_pressed":0,"time_out":false,"dwell_time":63.197021484375,"response_time":1699296059898.91},{"trial":10,"action":9,"button_pressed":-1,"time_out":false,"dwell_time":63.308837890625,"response_time":1699296060515.68},{"trial":11,"action":1,"button_pressed":8,"time_out":false,"dwell_time":64.908935546875,"response_time":1699296082692.35},{"trial":11,"action":1,"button_pressed":9,"time_out":false,"dwell_time":47.662109375,"response_time":1699296083025.82},{"trial":11,"action":1,"button_pressed":2,"time_out":false,"dwell_time":81.4931640625,"response_time":1699296083375.26},{"trial":11,"action":1,"button_pressed":10,"time_out":false,"dwell_time":64.553955078125,"response_time":1699296083691.8},{"trial":11,"action":1,"button_pressed":4,"time_out":false,"dwell_time":47.77197265625,"response_time":1699296084008.13},{"trial":11,"action":1,"button_pressed":1,"time_out":false,"dwell_time":47.73583984375,"response_time":1699296084575.23},{"trial":11,"action":1,"button_pressed":0,"time_out":false,"dwell_time":30.435791015625,"response_time":1699296084907.8},{"trial":11,"action":1,"button_pressed":5,"time_out":false,"dwell_time":31.203857421875,"response_time":1699296085241.16},{"trial":11,"action":9,"button_pressed":-1,"time_out":false,"dwell_time":30.949951171875,"response_time":1699296086357.71},{"trial":12,"action":1,"button_pressed":10,"time_out":false,"dwell_time":48.552001953125,"response_time":1699296111266.19},{"trial":12,"action":1,"button_pressed":8,"time_out":false,"dwell_time":48.400146484375,"response_time":1699296111499.74},{"trial":12,"action":1,"button_pressed":4,"time_out":false,"dwell_time":64.72607421875,"response_time":1699296111832.48},{"trial":12,"action":1,"button_pressed":6,"time_out":false,"dwell_time":30.989990234375,"response_time":1699296112432.68},{"trial":12,"action":1,"button_pressed":1,"time_out":false,"dwell_time":46.890869140625,"response_time":1699296112815.26},{"trial":12,"action":1,"button_pressed":0,"time_out":false,"dwell_time":48.133056640625,"response_time":1699296113231.77},{"trial":12,"action":1,"button_pressed":9,"time_out":false,"dwell_time":33,"response_time":1699296113632.43},{"trial":12,"action":1,"button_pressed":2,"time_out":false,"dwell_time":31.032958984375,"response_time":1699296114014.71},{"trial":12,"action":1,"button_pressed":7,"time_out":false,"dwell_time":30.54296875,"response_time":1699296114531.45},{"trial":12,"action":9,"button_pressed":-1,"time_out":false,"dwell_time":31.68701171875,"response_time":1699296115265.63},{"trial":13,"action":1,"button_pressed":0,"time_out":false,"dwell_time":47.173095703125,"response_time":1699296140139.59},{"trial":13,"action":1,"button_pressed":3,"time_out":false,"dwell_time":48.425048828125,"response_time":1699296140306.9},{"trial":13,"action":1,"button_pressed":5,"time_out":false,"dwell_time":48.716064453125,"response_time":1699296140739.84},{"trial":13,"action":1,"button_pressed":6,"time_out":false,"dwell_time":48.60498046875,"response_time":1699296141090.28},{"trial":13,"action":1,"button_pressed":2,"time_out":false,"dwell_time":30.4189453125,"response_time":1699296141622.33},{"trial":13,"action":1,"button_pressed":9,"time_out":false,"dwell_time":47.494873046875,"response_time":1699296142006.31},{"trial":13,"action":1,"button_pressed":4,"time_out":false,"dwell_time":29.953125,"response_time":1699296146154.16},{"trial":13,"action":1,"button_pressed":7,"time_out":false,"dwell_time":47.756103515625,"response_time":1699296146603.96},{"trial":13,"action":1,"button_pressed":10,"time_out":false,"dwell_time":30.650146484375,"response_time":1699296147754.3},{"trial":13,"action":9,"button_pressed":-1,"time_out":false,"dwell_time":47.637939453125,"response_time":1699296148970.35}]}