targetSpeakerName,targetSpeakerEccen,targetSpkrChannel,targetSpkrSound,targetVisualDegrees,visStimLoc,visStimLoc2,visStimW,visStimH,practiceTrials.thisRepN,practiceTrials.thisTrialN,practiceTrials.thisN,practiceTrials.thisIndex,trials.thisRepN,trials.thisTrialN,trials.thisN,trials.thisIndex,audLocalLoop.thisRepN,audLocalLoop.thisTrialN,audLocalLoop.thisN,audLocalLoop.thisIndex,visualLocalLoop.thisRepN,visualLocalLoop.thisTrialN,visualLocalLoop.thisN,visualLocalLoop.thisIndex,letsGoAlready.keys,letsGoAlready.rt,letsGoAlready.started,letsGoAlready.stopped,text_2.started,text_2.stopped,text_3.started,text_3.stopped,key_resp_2.keys,key_resp_2.rt,key_resp_2.started,key_resp_2.stopped,stretchBreakTxrt.started,stretchBreakTxrt.stopped,key_resp_3.keys,key_resp_3.rt,key_resp_3.started,key_resp_3.stopped,letsGoLocal.keys,letsGoLocal.rt,letsGoLocal.started,letsGoLocal.stopped,text_4.started,text_4.stopped,prepFixTxt.started,prepFixTxt.stopped,prepFixTxt_2.started,prepFixTxt_2.stopped,respPromptLocal.started,respPromptLocal.stopped,slider.response,slider.rt,slider.started,slider.stopped,letsGoLocal_2.keys,letsGoLocal_2.rt,letsGoLocal_2.started,letsGoLocal_2.stopped,text_7.started,text_7.stopped,prepFixTxt_3.started,prepFixTxt_3.stopped,grating.started,grating.stopped,exitTxt.started,exitTxt.stopped,key_resp.keys,key_resp.rt,key_resp.started,key_resp.stopped,participant,session,date,expName,psychopyVersion,frameRate,
,,,,,,,,,,,,,,,,,,,,,,,,,space,10.290007831994444,14.141213550698012,None,,,,,,,,,,,,,,,,,,,,,,,,,,,,,,,,,,,,,,,,,,,,,,,128,001,2023_Nov_06_1213,Localization_IfspeechCrashes,2021.2.3,60.01323280201455,
,,,,,,,,,,,,,,,,,,,,,,,,,,,,,14.141213550698012,None,24.558526527136564,None,space,5.330021528061479,24.741279935929924,None,,,,,,,,,,,,,,,,,,,,,,,,,,,,,,,,,,,,,,,128,001,2023_Nov_06_1213,Localization_IfspeechCrashes,2021.2.3,60.01323280201455,
,,,,,,,,,,,,,,,,,,,,,,,,,,,,,,,,,,,,,30.124480477999896,None,space,2.939860461745411,30.291327754966915,None,,,,,,,,,,,,,,,,,,,,,,,,,,,,,,,,,128,001,2023_Nov_06_1213,Localization_IfspeechCrashes,2021.2.3,60.01323280201455,
,,,,,,,,,,,,,,,,,,,,,,,,,,,,,,,,,,,,,,,,,,,space,19.448607969563454,33.37467641104013,None,,,,,,,,,,,,,,,,,,,,,,,,,,,,,128,001,2023_Nov_06_1213,Localization_IfspeechCrashes,2021.2.3,60.01323280201455,
nearLeft,-6.5,1,ch1Sound_localizationTask.wav,-6.5,"(857, 878)","(-103,-202)",-95,-338,,,,,,,,,0,0,0,2,,,,,,,,,,,,,,,,,,,,,,,,,,,33.37467641104013,None,52.85773200774565,None,53.97453392576426,None,54.89117459207773,None,1.3328042328042329,2.619662201963365,54.89117459207773,None,,,,,,,,,,,,,,,,,128,001,2023_Nov_06_1213,Localization_IfspeechCrashes,2021.2.3,60.01323280201455,
midRight,13.0,3,ch1Sound_localizationTask.wav,13.0,"(1142, 878)","(182, -202)",190,-338,,,,,,,,,0,1,1,5,,,,,,,,,,,,,,,,,,,,,,,,,,,,,57.50891316495836,None,58.60774955106899,None,59.54104038281366,None,1.4052910052910053,1.399565361905843,59.54104038281366,None,,,,,,,,,,,,,,,,,128,001,2023_Nov_06_1213,Localization_IfspeechCrashes,2021.2.3,60.01323280201455,
center,0.0,6,ch1Sound_localizationTask.wav,0.0,"(952, 878)","(-8,-202)",0,-338,,,,,,,,,0,2,2,3,,,,,,,,,,,,,,,,,,,,,,,,,,,,,60.94129109289497,None,62.041066746693105,None,62.97448277194053,None,1.361904761904762,1.033230524044484,62.97448277194053,None,,,,,,,,,,,,,,,,,128,001,2023_Nov_06_1213,Localization_IfspeechCrashes,2021.2.3,60.01323280201455,
farRight,19.1,4,ch1Sound_localizationTask.wav,19.1,"(1237, 878)","(277,-202)",285,-338,,,,,,,,,0,3,3,6,,,,,,,,,,,,,,,,,,,,,,,,,,,,,64.0081876530312,None,65.10801423015073,None,66.04099076380953,None,1.903174603174603,1.4833442787639797,66.04099076380953,None,,,,,,,,,,,,,,,,,128,001,2023_Nov_06_1213,Localization_IfspeechCrashes,2021.2.3,60.01323280201455,
center,0.0,6,ch1Sound_localizationTask.wav,0.0,"(952, 878)","(-8,-202)",0,-338,,,,,,,,,0,4,4,3,,,,,,,,,,,,,,,,,,,,,,,,,,,,,67.5247041080147,None,68.6245514457114,None,69.55780476611108,None,1.3947089947089948,1.6664276411756873,69.55780476611108,None,,,,,,,,,,,,,,,,,128,001,2023_Nov_06_1213,Localization_IfspeechCrashes,2021.2.3,60.01323280201455,
farLeft,-19.1,5,ch1Sound_localizationTask.wav,-19.1,"(667, 878)","(-293,-202)",-285,-338,,,,,,,,,0,5,5,0,,,,,,,,,,,,,,,,,,,,,,,,,,,,,71.22552926884964,None,72.32464843988419,None,73.25776066584513,None,1.0481481481481483,1.4163735350593925,73.25776066584513,None,,,,,,,,,,,,,,,,,128,001,2023_Nov_06_1213,Localization_IfspeechCrashes,2021.2.3,60.01323280201455,
farRight,19.1,4,ch1Sound_localizationTask.wav,19.1,"(1237, 878)","(277,-202)",285,-338,,,,,,,,,0,6,6,6,,,,,,,,,,,,,,,,,,,,,,,,,,,,,74.67467283969745,None,75.77462229598314,None,76.70777471503243,None,1.7455026455026454,1.316848759073764,76.70777471503243,None,,,,,,,,,,,,,,,,,128,001,2023_Nov_06_1213,Localization_IfspeechCrashes,2021.2.3,60.01323280201455,
center,0.0,6,ch1Sound_localizationTask.wav,0.0,"(952, 878)","(-8,-202)",0,-338,,,,,,,,,1,0,7,3,,,,,,,,,,,,,,,,,,,,,,,,,,,,,78.02468523196876,None,79.12447296595201,None,80.0577785577625,None,1.3613756613756614,0.7172263427637517,80.0577785577625,None,,,,,,,,,,,,,,,,,128,001,2023_Nov_06_1213,Localization_IfspeechCrashes,2021.2.3,60.01323280201455,
farLeft,-19.1,5,ch1Sound_localizationTask.wav,-19.1,"(667, 878)","(-293,-202)",-285,-338,,,,,,,,,1,1,8,0,,,,,,,,,,,,,,,,,,,,,,,,,,,,,80.7759631848894,None,81.89101455314085,None,82.80787012679502,None,1.0201058201058202,1.7333315731957555,82.80787012679502,None,,,,,,,,,,,,,,,,,128,001,2023_Nov_06_1213,Localization_IfspeechCrashes,2021.2.3,60.01323280201455,
nearRight,6.5,0,ch1Sound_localizationTask.wav,6.5,"(1047, 878)","(87, -202)",95,-338,,,,,,,,,1,2,9,4,,,,,,,,,,,,,,,,,,,,,,,,,,,,,84.54144043009728,None,85.64125181781128,None,86.5746405441314,None,1.462962962962963,1.566815251018852,86.5746405441314,None,,,,,,,,,,,,,,,,,128,001,2023_Nov_06_1213,Localization_IfspeechCrashes,2021.2.3,60.01323280201455,
midRight,13.0,3,ch1Sound_localizationTask.wav,13.0,"(1142, 878)","(182, -202)",190,-338,,,,,,,,,1,3,10,5,,,,,,,,,,,,,,,,,,,,,,,,,,,,,88.15792679972947,None,89.25780705688521,None,90.19126369990408,None,1.5746031746031746,1.115869817789644,90.19126369990408,None,,,,,,,,,,,,,,,,,128,001,2023_Nov_06_1213,Localization_IfspeechCrashes,2021.2.3,60.01323280201455,
farRight,19.1,4,ch1Sound_localizationTask.wav,19.1,"(1237, 878)","(277,-202)",285,-338,,,,,,,,,1,4,11,6,,,,,,,,,,,,,,,,,,,,,,,,,,,,,91.30807618470863,None,92.4080159869045,None,93.34123545978218,None,1.964021164021164,1.0833414546214044,93.34123545978218,None,,,,,,,,,,,,,,,,,128,001,2023_Nov_06_1213,Localization_IfspeechCrashes,2021.2.3,60.01323280201455,
nearRight,6.5,0,ch1Sound_localizationTask.wav,6.5,"(1047, 878)","(87, -202)",95,-338,,,,,,,,,1,5,12,4,,,,,,,,,,,,,,,,,,,,,,,,,,,,,94.42472578398883,None,95.5244482117705,None,96.45783889014274,None,1.4814814814814814,0.8843321539461613,96.45783889014274,None,,,,,,,,,,,,,,,,,128,001,2023_Nov_06_1213,Localization_IfspeechCrashes,2021.2.3,60.01323280201455,
nearRight,6.5,0,ch1Sound_localizationTask.wav,6.5,"(1047, 878)","(87, -202)",95,-338,,,,,,,,,1,6,13,4,,,,,,,,,,,,,,,,,,,,,,,,,,,,,97.35798780014738,None,98.45781639870256,None,99.39108328009024,None,1.5137566137566139,0.6335609639063478,99.39108328009024,None,,,,,,,,,,,,,,,,,128,001,2023_Nov_06_1213,Localization_IfspeechCrashes,2021.2.3,60.01323280201455,
midLeft,-13.0,2,ch1Sound_localizationTask.wav,-13.0,"(762, 878)","(-198,-202)",-190,-338,,,,,,,,,2,0,14,1,,,,,,,,,,,,,,,,,,,,,,,,,,,,,100.04143696697429,None,101.14121896307915,None,102.07460853271186,None,1.066137566137566,1.6500629936344922,102.07460853271186,None,,,,,,,,,,,,,,,,,128,001,2023_Nov_06_1213,Localization_IfspeechCrashes,2021.2.3,60.01323280201455,
midLeft,-13.0,2,ch1Sound_localizationTask.wav,-13.0,"(762, 878)","(-198,-202)",-190,-338,,,,,,,,,2,1,15,1,,,,,,,,,,,,,,,,,,,,,,,,,,,,,103.74135561613366,None,104.84115278394893,None,105.77445162180811,None,1.2264550264550265,0.8504112968221307,105.77445162180811,None,,,,,,,,,,,,,,,,,128,001,2023_Nov_06_1213,Localization_IfspeechCrashes,2021.2.3,60.01323280201455,
farRight,19.1,4,ch1Sound_localizationTask.wav,19.1,"(1237, 878)","(277,-202)",285,-338,,,,,,,,,2,2,16,6,,,,,,,,,,,,,,,,,,,,,,,,,,,,,106.64156877808273,None,107.74116770969704,None,108.67452656896785,None,1.8624338624338623,0.7326788660138845,108.67452656896785,None,,,,,,,,,,,,,,,,,128,001,2023_Nov_06_1213,Localization_IfspeechCrashes,2021.2.3,60.01323280201455,
nearLeft,-6.5,1,ch1Sound_localizationTask.wav,-6.5,"(857, 878)","(-103,-202)",-95,-338,,,,,,,,,2,3,17,2,,,,,,,,,,,,,,,,,,,,,,,,,,,,,109.4084168788977,None,110.50789033202454,None,111.44122031191364,None,1.270899470899471,1.166940740775317,111.44122031191364,None,,,,,,,,,,,,,,,,,128,001,2023_Nov_06_1213,Localization_IfspeechCrashes,2021.2.3,60.01323280201455,
farRight,19.1,4,ch1Sound_localizationTask.wav,19.1,"(1237, 878)","(277,-202)",285,-338,,,,,,,,,2,4,18,6,,,,,,,,,,,,,,,,,,,,,,,,,,,,,112.6248406469822,None,113.724648905918,None,114.65769892884418,None,1.9116402116402116,1.098715843167156,114.65769892884418,None,,,,,,,,,,,,,,,,,128,001,2023_Nov_06_1213,Localization_IfspeechCrashes,2021.2.3,60.01323280201455,
nearRight,6.5,0,ch1Sound_localizationTask.wav,6.5,"(1047, 878)","(87, -202)",95,-338,,,,,,,,,2,5,19,4,,,,,,,,,,,,,,,,,,,,,,,,,,,,,115.7581818299368,None,116.85794828878716,None,117.7910985047929,None,1.4952380952380953,0.9322915337979794,117.7910985047929,None,,,,,,,,,,,,,,,,,128,001,2023_Nov_06_1213,Localization_IfspeechCrashes,2021.2.3,60.01323280201455,
nearRight,6.5,0,ch1Sound_localizationTask.wav,6.5,"(1047, 878)","(87, -202)",95,-338,,,,,,,,,2,6,20,4,,,,,,,,,,,,,,,,,,,,,,,,,,,,,118.72469667810947,None,119.82453167205676,None,120.75791390379891,None,1.4481481481481482,0.6994350817985833,120.75791390379891,None,,,,,,,,,,,,,,,,,128,001,2023_Nov_06_1213,Localization_IfspeechCrashes,2021.2.3,60.01323280201455,
farLeft,-19.1,5,ch1Sound_localizationTask.wav,-19.1,"(667, 878)","(-293,-202)",-285,-338,,,,,,,,,3,0,21,0,,,,,,,,,,,,,,,,,,,,,,,,,,,,,121.45810961490497,None,122.55798075394705,None,123.49125688383356,None,1.024867724867725,1.4007866471074522,123.49125688383356,None,,,,,,,,,,,,,,,,,128,001,2023_Nov_06_1213,Localization_IfspeechCrashes,2021.2.3,60.01323280201455,
farLeft,-19.1,5,ch1Sound_localizationTask.wav,-19.1,"(667, 878)","(-293,-202)",-285,-338,,,,,,,,,3,1,22,0,,,,,,,,,,,,,,,,,,,,,,,,,,,,,124.90809954889119,None,126.00780779588968,None,126.94126773672178,None,1.0793650793650793,1.016257775016129,126.94126773672178,None,,,,,,,,,,,,,,,,,128,001,2023_Nov_06_1213,Localization_IfspeechCrashes,2021.2.3,60.01323280201455,
midRight,13.0,3,ch1Sound_localizationTask.wav,13.0,"(1142, 878)","(182, -202)",190,-338,,,,,,,,,3,2,23,5,,,,,,,,,,,,,,,,,,,,,,,,,,,,,127.95844409381971,None,129.05792366107926,None,129.9910974749364,None,1.4883597883597883,1.0984812048263848,129.9910974749364,None,,,,,,,,,,,,,,,,,128,001,2023_Nov_06_1213,Localization_IfspeechCrashes,2021.2.3,60.01323280201455,
midRight,13.0,3,ch1Sound_localizationTask.wav,13.0,"(1142, 878)","(182, -202)",190,-338,,,,,,,,,3,3,24,5,,,,,,,,,,,,,,,,,,,,,,,,,,,,,131.09136711573228,None,132.19121606787667,None,133.1245343000628,None,1.4746031746031747,0.7989707658998668,133.1245343000628,None,,,,,,,,,,,,,,,,,128,001,2023_Nov_06_1213,Localization_IfspeechCrashes,2021.2.3,60.01323280201455,
center,0.0,6,ch1Sound_localizationTask.wav,0.0,"(952, 878)","(-8,-202)",0,-338,,,,,,,,,3,4,25,3,,,,,,,,,,,,,,,,,,,,,,,,,,,,,133.9248179299757,None,135.02447485085577,None,135.95792992599308,None,1.4439153439153438,0.6834653452970088,135.95792992599308,None,,,,,,,,,,,,,,,,,128,001,2023_Nov_06_1213,Localization_IfspeechCrashes,2021.2.3,60.01323280201455,
nearLeft,-6.5,1,ch1Sound_localizationTask.wav,-6.5,"(857, 878)","(-103,-202)",-95,-338,,,,,,,,,3,5,26,2,,,,,,,,,,,,,,,,,,,,,,,,,,,,,136.6415968989022,None,137.74140611989424,None,138.67448912374675,None,1.325925925925926,0.6320280833169818,138.67448912374675,None,,,,,,,,,,,,,,,,,128,001,2023_Nov_06_1213,Localization_IfspeechCrashes,2021.2.3,60.01323280201455,
midLeft,-13.0,2,ch1Sound_localizationTask.wav,-13.0,"(762, 878)","(-198,-202)",-190,-338,,,,,,,,,3,6,27,1,,,,,,,,,,,,,,,,,,,,,,,,,,,,,139.30806441698223,None,140.4079170478508,None,141.3411344611086,None,1.1777777777777778,1.1004130388610065,141.3411344611086,None,,,,,,,,,,,,,,,,,128,001,2023_Nov_06_1213,Localization_IfspeechCrashes,2021.2.3,60.01323280201455,
midRight,13.0,3,ch1Sound_localizationTask.wav,13.0,"(1142, 878)","(182, -202)",190,-338,,,,,,,,,4,0,28,5,,,,,,,,,,,,,,,,,,,,,,,,,,,,,142.4424526207149,None,143.55791548173875,None,144.47456352878362,None,1.4973544973544972,0.8324810760095716,144.47456352878362,None,,,,,,,,,,,,,,,,,128,001,2023_Nov_06_1213,Localization_IfspeechCrashes,2021.2.3,60.01323280201455,
farLeft,-19.1,5,ch1Sound_localizationTask.wav,-19.1,"(667, 878)","(-293,-202)",-285,-338,,,,,,,,,4,1,29,0,,,,,,,,,,,,,,,,,,,,,,,,,,,,,145.3081497857347,None,146.4078387711197,None,147.3411835799925,None,1.0227513227513227,0.8346216534264386,147.3411835799925,None,,,,,,,,,,,,,,,,,128,001,2023_Nov_06_1213,Localization_IfspeechCrashes,2021.2.3,60.01323280201455,
midLeft,-13.0,2,ch1Sound_localizationTask.wav,-13.0,"(762, 878)","(-198,-202)",-190,-338,,,,,,,,,4,2,30,1,,,,,,,,,,,,,,,,,,,,,,,,,,,,,148.1914404630661,None,149.29128153575584,None,150.22451998479664,None,1.155026455026455,0.7341864369809628,150.22451998479664,None,,,,,,,,,,,,,,,,,128,001,2023_Nov_06_1213,Localization_IfspeechCrashes,2021.2.3,60.01323280201455,
nearLeft,-6.5,1,ch1Sound_localizationTask.wav,-6.5,"(857, 878)","(-103,-202)",-95,-338,,,,,,,,,4,3,31,2,,,,,,,,,,,,,,,,,,,,,,,,,,,,,150.9747722200118,None,152.07448476506397,None,153.00787532282993,None,1.3132275132275133,0.7168822200037539,153.00787532282993,None,,,,,,,,,,,,,,,,,128,001,2023_Nov_06_1213,Localization_IfspeechCrashes,2021.2.3,60.01323280201455,
nearRight,6.5,0,ch1Sound_localizationTask.wav,6.5,"(1047, 878)","(87, -202)",95,-338,,,,,,,,,4,4,32,4,,,,,,,,,,,,,,,,,,,,,,,,,,,,,153.7252304009162,None,154.82478999812156,None,155.7579280110076,None,1.482010582010582,0.8490510550327599,155.7579280110076,None,,,,,,,,,,,,,,,,,128,001,2023_Nov_06_1213,Localization_IfspeechCrashes,2021.2.3,60.01323280201455,
midRight,13.0,3,ch1Sound_localizationTask.wav,13.0,"(1142, 878)","(182, -202)",190,-338,,,,,,,,,4,5,33,5,,,,,,,,,,,,,,,,,,,,,,,,,,,,,156.6082510049455,None,157.7079234039411,None,158.64125110395253,None,1.5148148148148148,1.0485923308879137,158.64125110395253,None,,,,,,,,,,,,,,,,,128,001,2023_Nov_06_1213,Localization_IfspeechCrashes,2021.2.3,60.01323280201455,
center,0.0,6,ch1Sound_localizationTask.wav,0.0,"(952, 878)","(-8,-202)",0,-338,,,,,,,,,4,6,34,3,,,,,,,,,,,,,,,,,,,,,,,,,,,,,159.69144417485222,None,160.79127285908908,None,161.72449304303154,None,1.4613756613756614,0.7330131609924138,161.72449304303154,None,,,,,,,,,,,,,,,,,128,001,2023_Nov_06_1213,Localization_IfspeechCrashes,2021.2.3,60.01323280201455,
midRight,13.0,3,ch1Sound_localizationTask.wav,13.0,"(1142, 878)","(182, -202)",190,-338,,,,,,,,,5,0,35,5,,,,,,,,,,,,,,,,,,,,,,,,,,,,,162.45812908513471,None,163.55800661072135,None,164.49128333106637,None,1.4947089947089947,0.9499156740494072,164.49128333106637,None,,,,,,,,,,,,,,,,,128,001,2023_Nov_06_1213,Localization_IfspeechCrashes,2021.2.3,60.01323280201455,
farLeft,-19.1,5,ch1Sound_localizationTask.wav,-19.1,"(667, 878)","(-293,-202)",-285,-338,,,,,,,,,5,1,36,0,,,,,,,,,,,,,,,,,,,,,,,,,,,,,165.4415995948948,None,166.54126084269956,None,167.47456302307546,None,1.0222222222222221,1.3334480188786983,167.47456302307546,None,,,,,,,,,,,,,,,,,128,001,2023_Nov_06_1213,Localization_IfspeechCrashes,2021.2.3,60.01323280201455,
farRight,19.1,4,ch1Sound_localizationTask.wav,19.1,"(1237, 878)","(277,-202)",285,-338,,,,,,,,,5,2,37,6,,,,,,,,,,,,,,,,,,,,,,,,,,,,,168.82487421110272,None,169.92449667211622,None,170.85791529295966,None,1.843915343915344,0.9662994001992047,170.85791529295966,None,,,,,,,,,,,,,,,,,128,001,2023_Nov_06_1213,Localization_IfspeechCrashes,2021.2.3,60.01323280201455,
nearLeft,-6.5,1,ch1Sound_localizationTask.wav,-6.5,"(857, 878)","(-103,-202)",-95,-338,,,,,,,,,5,3,38,2,,,,,,,,,,,,,,,,,,,,,,,,,,,,,171.8248225580901,None,172.92455510003492,None,173.85783958714455,None,1.2851851851851852,0.7328998981975019,173.85783958714455,None,,,,,,,,,,,,,,,,,128,001,2023_Nov_06_1213,Localization_IfspeechCrashes,2021.2.3,60.01323280201455,
farLeft,-19.1,5,ch1Sound_localizationTask.wav,-19.1,"(667, 878)","(-293,-202)",-285,-338,,,,,,,,,5,4,39,0,,,,,,,,,,,,,,,,,,,,,,,,,,,,,174.59218953410164,None,175.69123625010252,None,176.62466215109453,None,1.0412698412698411,1.0827576573938131,176.62466215109453,None,,,,,,,,,,,,,,,,,128,001,2023_Nov_06_1213,Localization_IfspeechCrashes,2021.2.3,60.01323280201455,
midLeft,-13.0,2,ch1Sound_localizationTask.wav,-13.0,"(762, 878)","(-198,-202)",-190,-338,,,,,,,,,5,5,40,1,,,,,,,,,,,,,,,,,,,,,,,,,,,,,177.70880943676457,None,178.80781449191272,None,179.7411997281015,None,1.1825396825396826,1.1009514802135527,179.7411997281015,None,,,,,,,,,,,,,,,,,128,001,2023_Nov_06_1213,Localization_IfspeechCrashes,2021.2.3,60.01323280201455,
farRight,19.1,4,ch1Sound_localizationTask.wav,19.1,"(1237, 878)","(277,-202)",285,-338,,,,,,,,,5,6,41,6,,,,,,,,,,,,,,,,,,,,,,,,,,,,,180.85809217905626,None,181.9580200719647,None,182.89127861475572,None,1.7798941798941799,0.8998310891911387,182.89127861475572,None,,,,,,,,,,,,,,,,,128,001,2023_Nov_06_1213,Localization_IfspeechCrashes,2021.2.3,60.01323280201455,
nearRight,6.5,0,ch1Sound_localizationTask.wav,6.5,"(1047, 878)","(87, -202)",95,-338,,,,,,,,,6,0,42,4,,,,,,,,,,,,,,,,,,,,,,,,,,,,,183.7914681280963,None,184.89121838612482,None,185.8246639650315,None,1.4962962962962962,0.7502234722487628,185.8246639650315,None,,,,,,,,,,,,,,,,,128,001,2023_Nov_06_1213,Localization_IfspeechCrashes,2021.2.3,60.01323280201455,
center,0.0,6,ch1Sound_localizationTask.wav,0.0,"(952, 878)","(-8,-202)",0,-338,,,,,,,,,6,1,43,3,,,,,,,,,,,,,,,,,,,,,,,,,,,,,186.5756896659732,None,187.67456931481138,None,188.60799014987424,None,1.4978835978835978,0.5999056440778077,188.60799014987424,None,,,,,,,,,,,,,,,,,128,001,2023_Nov_06_1213,Localization_IfspeechCrashes,2021.2.3,60.01323280201455,
nearRight,6.5,0,ch1Sound_localizationTask.wav,6.5,"(1047, 878)","(87, -202)",95,-338,,,,,,,,,6,2,44,4,,,,,,,,,,,,,,,,,,,,,,,,,,,,,189.22489362489432,None,190.32475055474788,None,191.2577737267129,None,1.5005291005291004,0.5999813610687852,191.2577737267129,None,,,,,,,,,,,,,,,,,128,001,2023_Nov_06_1213,Localization_IfspeechCrashes,2021.2.3,60.01323280201455,
midLeft,-13.0,2,ch1Sound_localizationTask.wav,-13.0,"(762, 878)","(-198,-202)",-190,-338,,,,,,,,,6,3,45,1,,,,,,,,,,,,,,,,,,,,,,,,,,,,,191.85944319982082,None,192.97446906706318,None,193.89134849701077,None,1.192063492063492,0.93322708690539,193.89134849701077,None,,,,,,,,,,,,,,,,,128,001,2023_Nov_06_1213,Localization_IfspeechCrashes,2021.2.3,60.01323280201455,
center,0.0,6,ch1Sound_localizationTask.wav,0.0,"(952, 878)","(-8,-202)",0,-338,,,,,,,,,6,4,46,3,,,,,,,,,,,,,,,,,,,,,,,,,,,,,194.84154023090377,None,195.94124225107953,None,196.87463071476668,None,1.4873015873015873,0.7664212142117321,196.87463071476668,None,,,,,,,,,,,,,,,,,128,001,2023_Nov_06_1213,Localization_IfspeechCrashes,2021.2.3,60.01323280201455,
midLeft,-13.0,2,ch1Sound_localizationTask.wav,-13.0,"(762, 878)","(-198,-202)",-190,-338,,,,,,,,,6,5,47,1,,,,,,,,,,,,,,,,,,,,,,,,,,,,,197.64147731894627,None,198.74141258373857,None,199.67467069299892,None,1.2248677248677249,0.7832453069277108,199.67467069299892,None,,,,,,,,,,,,,,,,,128,001,2023_Nov_06_1213,Localization_IfspeechCrashes,2021.2.3,60.01323280201455,
nearLeft,-6.5,1,ch1Sound_localizationTask.wav,-6.5,"(857, 878)","(-103,-202)",-95,-338,,,,,,,,,6,6,48,2,,,,,,,,,,,,,,,,,,,,,,,,,,,,,200.45883558504283,None,201.55803610710427,None,202.49127952801064,None,1.2571428571428571,0.6824461719952524,202.49127952801064,None,,,,,,,,,,,,,,,,,128,001,2023_Nov_06_1213,Localization_IfspeechCrashes,2021.2.3,60.01323280201455,
center,0.0,6,ch1Sound_localizationTask.wav,0.0,"(952, 878)","(-8,-202)",0,-338,,,,,,,,,7,0,49,3,,,,,,,,,,,,,,,,,,,,,,,,,,,,,203.17517828382552,None,204.27456112392247,None,205.2079642508179,None,1.488888888888889,0.7827685559168458,205.2079642508179,None,,,,,,,,,,,,,,,,,128,001,2023_Nov_06_1213,Localization_IfspeechCrashes,2021.2.3,60.01323280201455,
nearLeft,-6.5,1,ch1Sound_localizationTask.wav,-6.5,"(857, 878)","(-103,-202)",-95,-338,,,,,,,,,7,1,50,2,,,,,,,,,,,,,,,,,,,,,,,,,,,,,205.99195827310905,None,207.09136958187446,None,208.02461191406474,None,1.3328042328042329,0.7492840038612485,208.02461191406474,None,,,,,,,,,,,,,,,,,128,001,2023_Nov_06_1213,Localization_IfspeechCrashes,2021.2.3,60.01323280201455,
midRight,13.0,3,ch1Sound_localizationTask.wav,13.0,"(1142, 878)","(182, -202)",190,-338,,,,,,,,,7,2,51,5,,,,,,,,,,,,,,,,,,,,,,,,,,,,,208.77486617909744,None,209.87484599091113,None,210.80802663601935,None,1.537037037037037,1.0832497621886432,210.80802663601935,None,,,,,,,,,,,,,,,,,128,001,2023_Nov_06_1213,Localization_IfspeechCrashes,2021.2.3,60.01323280201455,
midLeft,-13.0,2,ch1Sound_localizationTask.wav,-13.0,"(762, 878)","(-198,-202)",-190,-338,,,,,,,,,7,3,52,1,,,,,,,,,,,,,,,,,,,,,,,,,,,,,211.89145315205678,None,212.99123627413064,None,213.92451071599498,None,1.0571428571428572,0.9369205869734287,213.92451071599498,None,,,,,,,,,,,,,,,,,128,001,2023_Nov_06_1213,Localization_IfspeechCrashes,2021.2.3,60.01323280201455,
farLeft,-19.1,5,ch1Sound_localizationTask.wav,-19.1,"(667, 878)","(-293,-202)",-285,-338,,,,,,,,,7,4,53,0,,,,,,,,,,,,,,,,,,,,,,,,,,,,,214.87503387592733,None,215.9746468900703,None,216.9080101698637,None,1.1206349206349207,0.7673749080859125,216.9080101698637,None,,,,,,,,,,,,,,,,,128,001,2023_Nov_06_1213,Localization_IfspeechCrashes,2021.2.3,60.01323280201455,
nearLeft,-6.5,1,ch1Sound_localizationTask.wav,-6.5,"(857, 878)","(-103,-202)",-95,-338,,,,,,,,,7,5,54,2,,,,,,,,,,,,,,,,,,,,,,,,,,,,,217.69255120912567,None,218.8080215617083,None,219.72465305915102,None,1.2851851851851852,0.6499786521308124,219.72465305915102,None,,,,,,,,,,,,,,,,,128,001,2023_Nov_06_1213,Localization_IfspeechCrashes,2021.2.3,60.01323280201455,
farRight,19.1,4,ch1Sound_localizationTask.wav,19.1,"(1237, 878)","(277,-202)",285,-338,,,,,,,,,7,6,55,6,,,,,,,,,,,,,,,,,,,,,,,,,,,,,220.37560834595934,None,221.47476371377707,None,222.40799186890945,None,1.71005291005291,0.7494796961545944,222.40799186890945,None,,,,,,,,,,,,,,,,,128,001,2023_Nov_06_1213,Localization_IfspeechCrashes,2021.2.3,60.01323280201455,
,,,,,,,,,,,,,,,,,,,,,,,,,,,,,,,,,,,,,,,,,,,,,,,,,,,,,,,,,,,space,10.165708176791668,223.24156055273488,None,,,,,,,,,,,,,128,001,2023_Nov_06_1213,Localization_IfspeechCrashes,2021.2.3,60.01323280201455,
midLeft,-13.0,2,ch1Sound_localizationTask.wav,-13.0,"(762, 878)","(-198,-202)",-190,-338,,,,,,,,,,,,,0,0,0,1,,,,,,,,,,,,,,,,,,,,,,,,,233.4413925819099,None,,,236.4582888749428,None,1.3502645502645503,1.2398287602700293,236.4582888749428,None,,,,,223.24156055273488,None,234.4415172780864,None,234.6250356179662,234.64167833002284,,,,,,,128,001,2023_Nov_06_1213,Localization_IfspeechCrashes,2021.2.3,60.01323280201455,
farRight,19.1,4,ch1Sound_localizationTask.wav,19.1,"(1237, 878)","(277,-202)",285,-338,,,,,,,,,,,,,0,1,1,6,,,,,,,,,,,,,,,,,,,,,,,,,237.72487620869651,None,,,240.7414374658838,None,1.674074074074074,1.4483956769108772,240.7414374658838,None,,,,,,,238.72490139398724,None,238.90826247772202,238.92491579195485,,,,,,,128,001,2023_Nov_06_1213,Localization_IfspeechCrashes,2021.2.3,60.01323280201455,
farRight,19.1,4,ch1Sound_localizationTask.wav,19.1,"(1237, 878)","(277,-202)",285,-338,,,,,,,,,,,,,0,2,2,6,,,,,,,,,,,,,,,,,,,,,,,,,242.19161631399766,None,,,245.20807400206104,None,1.6539682539682539,0.7662249081768095,245.20807400206104,None,,,,,,,243.19156826892868,None,243.37491266196594,243.39157325169072,,,,,,,128,001,2023_Nov_06_1213,Localization_IfspeechCrashes,2021.2.3,60.01323280201455,
farRight,19.1,4,ch1Sound_localizationTask.wav,19.1,"(1237, 878)","(277,-202)",285,-338,,,,,,,,,,,,,0,3,3,6,,,,,,,,,,,,,,,,,,,,,,,,,245.97496196674183,None,,,248.99153193691745,None,1.691005291005291,0.6998238214291632,248.99153193691745,None,,,,,,,246.97496659308672,None,247.1582157597877,247.17493139812723,,,,,,,128,001,2023_Nov_06_1213,Localization_IfspeechCrashes,2021.2.3,60.01323280201455,
center,0.0,6,ch1Sound_localizationTask.wav,0.0,"(952, 878)","(-8,-202)",0,-338,,,,,,,,,,,,,0,4,4,3,,,,,,,,,,,,,,,,,,,,,,,,,249.69159138994291,None,,,252.7082827850245,None,1.5005291005291004,0.7163110235705972,252.7082827850245,None,,,,,,,250.69154275394976,None,250.87492394680157,250.89155488600954,,,,,,,128,001,2023_Nov_06_1213,Localization_IfspeechCrashes,2021.2.3,60.01323280201455,
farLeft,-19.1,5,ch1Sound_localizationTask.wav,-19.1,"(667, 878)","(-293,-202)",-285,-338,,,,,,,,,,,,,0,5,5,0,,,,,,,,,,,,,,,,,,,,,,,,,253.42483260994777,None,,,256.4414516626857,None,1.3285714285714285,0.9836500268429518,256.4414516626857,None,,,,,,,254.42482627695426,None,254.60825687693432,254.6249679280445,,,,,,,128,001,2023_Nov_06_1213,Localization_IfspeechCrashes,2021.2.3,60.01323280201455,
nearLeft,-6.5,1,ch1Sound_localizationTask.wav,-6.5,"(857, 878)","(-103,-202)",-95,-338,,,,,,,,,,,,,0,6,6,2,,,,,,,,,,,,,,,,,,,,,,,,,257.44163821684197,None,,,260.458051269874,None,1.4253968253968254,0.8165412321686745,260.458051269874,None,,,,,,,258.4416400757618,None,258.62494016392156,258.6416757008992,,,,,,,128,001,2023_Nov_06_1213,Localization_IfspeechCrashes,2021.2.3,60.01323280201455,
farLeft,-19.1,5,ch1Sound_localizationTask.wav,-19.1,"(667, 878)","(-293,-202)",-285,-338,,,,,,,,,,,,,1,0,7,0,,,,,,,,,,,,,,,,,,,,,,,,,261.27506365580484,None,,,264.2913750358857,None,1.3126984126984127,0.8655298086814582,264.2913750358857,None,,,,,,,262.2749544028193,None,262.4582435810007,262.47495407098904,,,,,,,128,001,2023_Nov_06_1213,Localization_IfspeechCrashes,2021.2.3,60.01323280201455,
nearRight,6.5,0,ch1Sound_localizationTask.wav,6.5,"(1047, 878)","(87, -202)",95,-338,,,,,,,,,,,,,1,1,8,4,,,,,,,,,,,,,,,,,,,,,,,,,265.1583042507991,None,,,268.1747287400067,None,1.560846560846561,1.1157425921410322,268.1747287400067,None,,,,,,,266.1583146350458,None,266.3415554938838,266.3583004307002,,,,,,,128,001,2023_Nov_06_1213,Localization_IfspeechCrashes,2021.2.3,60.01323280201455,
farLeft,-19.1,5,ch1Sound_localizationTask.wav,-19.1,"(667, 878)","(-293,-202)",-285,-338,,,,,,,,,,,,,1,2,9,0,,,,,,,,,,,,,,,,,,,,,,,,,269.29165270598605,None,,,272.3081714808941,None,1.3042328042328042,1.1168397469446063,272.3081714808941,None,,,,,,,270.29161620792,None,270.4749218840152,270.4917229330167,,,,,,,128,001,2023_Nov_06_1213,Localization_IfspeechCrashes,2021.2.3,60.01323280201455,
midLeft,-13.0,2,ch1Sound_localizationTask.wav,-13.0,"(762, 878)","(-198,-202)",-190,-338,,,,,,,,,,,,,1,3,10,1,,,,,,,,,,,,,,,,,,,,,,,,,273.425884634722,None,,,276.44139733398333,None,1.3756613756613758,1.0324635650031269,276.44139733398333,None,,,,,,,274.42498365370557,None,274.60824962193146,274.6251004198566,,,,,,,128,001,2023_Nov_06_1213,Localization_IfspeechCrashes,2021.2.3,60.01323280201455,
midLeft,-13.0,2,ch1Sound_localizationTask.wav,-13.0,"(762, 878)","(-198,-202)",-190,-338,,,,,,,,,,,,,1,4,11,1,,,,,,,,,,,,,,,,,,,,,,,,,277.47495934180915,None,,,280.49156580585986,None,1.3851851851851853,0.8995449948124588,280.49156580585986,None,,,,,,,278.4749412429519,None,278.65821408992633,278.67494226573035,,,,,,,128,001,2023_Nov_06_1213,Localization_IfspeechCrashes,2021.2.3,60.01323280201455,
midRight,13.0,3,ch1Sound_localizationTask.wav,13.0,"(1142, 878)","(182, -202)",190,-338,,,,,,,,,,,,,1,5,12,5,,,,,,,,,,,,,,,,,,,,,,,,,281.39167201006785,None,,,284.40801896108314,None,1.6015873015873017,1.5320501229725778,284.40801896108314,None,,,,,,,282.3916465640068,None,282.5749256750569,282.59162735706195,,,,,,,128,001,2023_Nov_06_1213,Localization_IfspeechCrashes,2021.2.3,60.01323280201455,
midRight,13.0,3,ch1Sound_localizationTask.wav,13.0,"(1142, 878)","(182, -202)",190,-338,,,,,,,,,,,,,1,6,13,5,,,,,,,,,,,,,,,,,,,,,,,,,285.94170066993684,None,,,288.95825703814626,None,1.6058201058201058,0.6996958069503307,288.95825703814626,None,,,,,,,286.94166718702763,None,287.12495075073093,287.1416339809075,,,,,,,128,001,2023_Nov_06_1213,Localization_IfspeechCrashes,2021.2.3,60.01323280201455,
midLeft,-13.0,2,ch1Sound_localizationTask.wav,-13.0,"(762, 878)","(-198,-202)",-190,-338,,,,,,,,,,,,,2,0,14,1,,,,,,,,,,,,,,,,,,,,,,,,,289.6582880509086,None,,,292.6749627981335,None,1.3814814814814815,0.932853396050632,292.6749627981335,None,,,,,,,290.6583006158471,None,290.84160639578477,290.8583113499917,,,,,,,128,001,2023_Nov_06_1213,Localization_IfspeechCrashes,2021.2.3,60.01323280201455,
center,0.0,6,ch1Sound_localizationTask.wav,0.0,"(952, 878)","(-8,-202)",0,-338,,,,,,,,,,,,,2,1,15,3,,,,,,,,,,,,,,,,,,,,,,,,,293.60835896106437,None,,,296.62475430686027,None,1.4793650793650794,1.1665269136428833,296.62475430686027,None,,,,,,,294.6083195786923,None,294.7916042250581,294.80832498380914,,,,,,,128,001,2023_Nov_06_1213,Localization_IfspeechCrashes,2021.2.3,60.01323280201455,
midRight,13.0,3,ch1Sound_localizationTask.wav,13.0,"(1142, 878)","(182, -202)",190,-338,,,,,,,,,,,,,2,2,16,5,,,,,,,,,,,,,,,,,,,,,,,,,297.7917090798728,None,,,300.8080010251142,None,1.5984126984126985,0.9155754023231566,300.8080010251142,None,,,,,,,298.79166551306844,None,298.9749813871458,298.99166494514793,,,,,,,128,001,2023_Nov_06_1213,Localization_IfspeechCrashes,2021.2.3,60.01323280201455,
nearLeft,-6.5,1,ch1Sound_localizationTask.wav,-6.5,"(857, 878)","(-103,-202)",-95,-338,,,,,,,,,,,,,2,3,17,2,,,,,,,,,,,,,,,,,,,,,,,,,301.7249995279126,None,,,304.7413928890601,None,1.439153439153439,0.932078598998487,304.7413928890601,None,,,,,,,302.72500881087035,None,302.90830943500623,302.92502983286977,,,,,,,128,001,2023_Nov_06_1213,Localization_IfspeechCrashes,2021.2.3,60.01323280201455,
farRight,19.1,4,ch1Sound_localizationTask.wav,19.1,"(1237, 878)","(277,-202)",285,-338,,,,,,,,,,,,,2,4,18,6,,,,,,,,,,,,,,,,,,,,,,,,,305.6749700070359,None,,,308.6914729308337,None,1.6566137566137566,0.7328521581366658,308.6914729308337,None,,,,,,,306.6749649718404,None,306.8583440850489,306.8749280399643,,,,,,,128,001,2023_Nov_06_1213,Localization_IfspeechCrashes,2021.2.3,60.01323280201455,
nearRight,6.5,0,ch1Sound_localizationTask.wav,6.5,"(1047, 878)","(87, -202)",95,-338,,,,,,,,,,,,,2,5,19,4,,,,,,,,,,,,,,,,,,,,,,,,,309.4250794220716,None,,,312.4415257140063,None,1.5555555555555556,0.7828330248594284,312.4415257140063,None,,,,,,,310.4249650221318,None,310.6083768219687,310.62494674976915,,,,,,,128,001,2023_Nov_06_1213,Localization_IfspeechCrashes,2021.2.3,60.01323280201455,
center,0.0,6,ch1Sound_localizationTask.wav,0.0,"(952, 878)","(-8,-202)",0,-338,,,,,,,,,,,,,2,6,20,3,,,,,,,,,,,,,,,,,,,,,,,,,313.2252009338699,None,,,316.2414617910981,None,1.4947089947089947,1.116218715440482,316.2414617910981,None,,,,,,,314.2249776008539,None,314.40835312288254,314.42511074384674,,,,,,,128,001,2023_Nov_06_1213,Localization_IfspeechCrashes,2021.2.3,60.01323280201455,
midRight,13.0,3,ch1Sound_localizationTask.wav,13.0,"(1142, 878)","(182, -202)",190,-338,,,,,,,,,,,,,3,0,21,5,,,,,,,,,,,,,,,,,,,,,,,,,317.35836155572906,None,,,320.37493304070085,None,1.6121693121693121,0.7156242541968822,320.37493304070085,None,,,,,,,318.35845075314865,None,318.5416427128948,318.5583778019063,,,,,,,128,001,2023_Nov_06_1213,Localization_IfspeechCrashes,2021.2.3,60.01323280201455,
midRight,13.0,3,ch1Sound_localizationTask.wav,13.0,"(1142, 878)","(182, -202)",190,-338,,,,,,,,,,,,,3,1,22,5,,,,,,,,,,,,,,,,,,,,,,,,,321.09166727308184,None,,,324.10817371169105,None,1.6126984126984127,0.5823158458806574,324.10817371169105,None,,,,,,,322.09170386986807,None,322.2750177998096,322.29166857898235,,,,,,,128,001,2023_Nov_06_1213,Localization_IfspeechCrashes,2021.2.3,60.01323280201455,
center,0.0,6,ch1Sound_localizationTask.wav,0.0,"(952, 878)","(-8,-202)",0,-338,,,,,,,,,,,,,3,2,23,3,,,,,,,,,,,,,,,,,,,,,,,,,324.6916963867843,None,,,327.7082219258882,None,1.4984126984126984,0.8328808872029185,327.7082219258882,None,,,,,,,325.69169540610164,None,325.8751156167127,325.89171047182754,,,,,,,128,001,2023_Nov_06_1213,Localization_IfspeechCrashes,2021.2.3,60.01323280201455,
farLeft,-19.1,5,ch1Sound_localizationTask.wav,-19.1,"(667, 878)","(-293,-202)",-285,-338,,,,,,,,,,,,,3,3,24,0,,,,,,,,,,,,,,,,,,,,,,,,,328.5417002309114,None,,,331.55814009485766,None,1.3232804232804232,0.8668259871192276,331.55814009485766,None,,,,,,,329.54171823570505,None,329.7251036250964,329.7416809340939,,,,,,,128,001,2023_Nov_06_1213,Localization_IfspeechCrashes,2021.2.3,60.01323280201455,
nearRight,6.5,0,ch1Sound_localizationTask.wav,6.5,"(1047, 878)","(87, -202)",95,-338,,,,,,,,,,,,,3,4,25,4,,,,,,,,,,,,,,,,,,,,,,,,,332.4258538587019,None,,,335.44160283496603,None,1.5666666666666667,1.4501526076346636,335.44160283496603,None,,,,,,,333.4251437098719,None,333.6083908327855,333.62498484691605,,,,,,,128,001,2023_Nov_06_1213,Localization_IfspeechCrashes,2021.2.3,60.01323280201455,
nearLeft,-6.5,1,ch1Sound_localizationTask.wav,-6.5,"(857, 878)","(-103,-202)",-95,-338,,,,,,,,,,,,,3,5,26,2,,,,,,,,,,,,,,,,,,,,,,,,,336.8923512781039,None,,,339.9081550030969,None,1.4513227513227513,0.7988965348340571,339.9081550030969,None,,,,,,,337.89174616895616,None,338.0750409527682,338.091702693142,,,,,,,128,001,2023_Nov_06_1213,Localization_IfspeechCrashes,2021.2.3,60.01323280201455,
nearRight,6.5,0,ch1Sound_localizationTask.wav,6.5,"(1047, 878)","(87, -202)",95,-338,,,,,,,,,,,,,3,6,27,4,,,,,,,,,,,,,,,,,,,,,,,,,340.7084125741385,None,,,343.7250746637583,None,1.5513227513227514,1.4497534250840545,343.7250746637583,None,,,,,,,341.7083220449276,None,341.8917001239024,341.90833365079015,,,,,,,128,001,2023_Nov_06_1213,Localization_IfspeechCrashes,2021.2.3,60.01323280201455,
midRight,13.0,3,ch1Sound_localizationTask.wav,13.0,"(1142, 878)","(182, -202)",190,-338,,,,,,,,,,,,,4,0,28,5,,,,,,,,,,,,,,,,,,,,,,,,,345.1751279719174,None,,,348.19161059707403,None,1.6005291005291005,0.9821238829754293,348.19161059707403,None,,,,,,,346.17511167097837,None,346.358405506704,346.37507528811693,,,,,,,128,001,2023_Nov_06_1213,Localization_IfspeechCrashes,2021.2.3,60.01323280201455,
midLeft,-13.0,2,ch1Sound_localizationTask.wav,-13.0,"(762, 878)","(-198,-202)",-190,-338,,,,,,,,,,,,,4,1,29,1,,,,,,,,,,,,,,,,,,,,,,,,,349.17509309295565,None,,,352.19137271214277,None,1.3698412698412699,0.7984183891676366,352.19137271214277,None,,,,,,,350.1750285238959,None,350.35837610810995,350.37503801099956,,,,,,,128,001,2023_Nov_06_1213,Localization_IfspeechCrashes,2021.2.3,60.01323280201455,
center,0.0,6,ch1Sound_localizationTask.wav,0.0,"(952, 878)","(-8,-202)",0,-338,,,,,,,,,,,,,4,2,30,3,,,,,,,,,,,,,,,,,,,,,,,,,352.99186216294765,None,,,356.00801620678976,None,1.5,0.7335409121587873,356.00801620678976,None,,,,,,,353.99170532170683,None,354.175091967918,354.1917070420459,,,,,,,128,001,2023_Nov_06_1213,Localization_IfspeechCrashes,2021.2.3,60.01323280201455,
farRight,19.1,4,ch1Sound_localizationTask.wav,19.1,"(1237, 878)","(277,-202)",285,-338,,,,,,,,,,,,,4,3,31,6,,,,,,,,,,,,,,,,,,,,,,,,,356.75850826781243,None,,,359.7748524057679,None,1.6671957671957671,0.7658137823455036,359.7748524057679,None,,,,,,,357.7585120438598,None,357.9417018680833,357.9583678850904,,,,,,,128,001,2023_Nov_06_1213,Localization_IfspeechCrashes,2021.2.3,60.01323280201455,
nearLeft,-6.5,1,ch1Sound_localizationTask.wav,-6.5,"(857, 878)","(-103,-202)",-95,-338,,,,,,,,,,,,,4,4,32,2,,,,,,,,,,,,,,,,,,,,,,,,,360.54193888092414,None,,,363.5580982360989,None,1.426984126984127,0.9829268050380051,363.5580982360989,None,,,,,,,361.54168942477554,None,361.72504159994423,361.7416966399178,,,,,,,128,001,2023_Nov_06_1213,Localization_IfspeechCrashes,2021.2.3,60.01323280201455,
midLeft,-13.0,2,ch1Sound_localizationTask.wav,-13.0,"(762, 878)","(-198,-202)",-190,-338,,,,,,,,,,,,,4,5,33,1,,,,,,,,,,,,,,,,,,,,,,,,,364.5418350547552,None,,,367.5582029861398,None,1.3814814814814815,0.9160158550366759,367.5582029861398,None,,,,,,,365.5417955061421,None,365.7250070469454,365.7418526960537,,,,,,,128,001,2023_Nov_06_1213,Localization_IfspeechCrashes,2021.2.3,60.01323280201455,
nearLeft,-6.5,1,ch1Sound_localizationTask.wav,-6.5,"(857, 878)","(-103,-202)",-95,-338,,,,,,,,,,,,,4,6,34,2,,,,,,,,,,,,,,,,,,,,,,,,,368.4750738409348,None,,,371.49159272713587,None,1.4317460317460318,0.6828176770359278,371.49159272713587,None,,,,,,,369.4750827420503,None,369.6583871440962,369.67510197591037,,,,,,,128,001,2023_Nov_06_1213,Localization_IfspeechCrashes,2021.2.3,60.01323280201455,
nearRight,6.5,0,ch1Sound_localizationTask.wav,6.5,"(1047, 878)","(87, -202)",95,-338,,,,,,,,,,,,,5,0,35,4,,,,,,,,,,,,,,,,,,,,,,,,,372.1751681198366,None,,,375.1915716328658,None,1.544973544973545,0.8330305689014494,375.1915716328658,None,,,,,,,373.1751141217537,None,373.3584400448017,373.3750288099982,,,,,,,128,001,2023_Nov_06_1213,Localization_IfspeechCrashes,2021.2.3,60.01323280201455,
center,0.0,6,ch1Sound_localizationTask.wav,0.0,"(952, 878)","(-8,-202)",0,-338,,,,,,,,,,,,,5,1,36,3,,,,,,,,,,,,,,,,,,,,,,,,,376.0251604677178,None,,,379.0418115579523,None,1.4947089947089947,0.7663343683816493,379.0418115579523,None,,,,,,,377.02506739879027,None,377.2084089857526,377.22505541704595,,,,,,,128,001,2023_Nov_06_1213,Localization_IfspeechCrashes,2021.2.3,60.01323280201455,
farRight,19.1,4,ch1Sound_localizationTask.wav,19.1,"(1237, 878)","(277,-202)",285,-338,,,,,,,,,,,,,5,2,37,6,,,,,,,,,,,,,,,,,,,,,,,,,379.8084105839953,None,,,382.82486104173586,None,1.6915343915343914,0.5498625608161092,382.82486104173586,None,,,,,,,380.80838357284665,None,380.99179957294837,381.00843480601907,,,,,,,128,001,2023_Nov_06_1213,Localization_IfspeechCrashes,2021.2.3,60.01323280201455,
farLeft,-19.1,5,ch1Sound_localizationTask.wav,-19.1,"(667, 878)","(-293,-202)",-285,-338,,,,,,,,,,,,,5,3,38,0,,,,,,,,,,,,,,,,,,,,,,,,,383.37539862608537,None,,,386.3914250670932,None,1.3164021164021165,1.0662028333172202,386.3914250670932,None,,,,,,,384.37514977995306,None,384.55844339495525,384.5751022817567,,,,,,,128,001,2023_Nov_06_1213,Localization_IfspeechCrashes,2021.2.3,60.01323280201455,
midRight,13.0,3,ch1Sound_localizationTask.wav,13.0,"(1142, 878)","(182, -202)",190,-338,,,,,,,,,,,,,5,4,39,5,,,,,,,,,,,,,,,,,,,,,,,,,387.45846629794687,None,,,390.474901700858,None,1.619047619047619,0.7670181319117546,390.474901700858,None,,,,,,,388.4584451117553,None,388.641750310082,388.658467319794,,,,,,,128,001,2023_Nov_06_1213,Localization_IfspeechCrashes,2021.2.3,60.01323280201455,
farLeft,-19.1,5,ch1Sound_localizationTask.wav,-19.1,"(667, 878)","(-293,-202)",-285,-338,,,,,,,,,,,,,5,5,40,0,,,,,,,,,,,,,,,,,,,,,,,,,391.2423317930661,None,,,394.2584524657577,None,1.3232804232804232,0.8654313762672246,394.2584524657577,None,,,,,,,392.24185882369056,None,392.42504146974534,392.44177048979327,,,,,,,128,001,2023_Nov_06_1213,Localization_IfspeechCrashes,2021.2.3,60.01323280201455,
center,0.0,6,ch1Sound_localizationTask.wav,0.0,"(952, 878)","(-8,-202)",0,-338,,,,,,,,,,,,,5,6,41,3,,,,,,,,,,,,,,,,,,,,,,,,,395.12511119805276,None,,,398.1415189676918,None,1.4851851851851852,0.9825677438639104,398.1415189676918,None,,,,,,,396.1251336308196,None,396.30842694593593,396.3251143777743,,,,,,,128,001,2023_Nov_06_1213,Localization_IfspeechCrashes,2021.2.3,60.01323280201455,
midRight,13.0,3,ch1Sound_localizationTask.wav,13.0,"(1142, 878)","(182, -202)",190,-338,,,,,,,,,,,,,6,0,42,5,,,,,,,,,,,,,,,,,,,,,,,,,399.125130796805,None,,,402.14147146604955,None,1.5841269841269843,0.9332129289396107,402.14147146604955,None,,,,,,,400.1251777927391,None,400.3084646128118,400.325141586829,,,,,,,128,001,2023_Nov_06_1213,Localization_IfspeechCrashes,2021.2.3,60.01323280201455,
center,0.0,6,ch1Sound_localizationTask.wav,0.0,"(952, 878)","(-8,-202)",0,-338,,,,,,,,,,,,,6,1,43,3,,,,,,,,,,,,,,,,,,,,,,,,,403.0918079521507,None,,,406.10834794677794,None,1.4947089947089947,0.8816399718634784,406.10834794677794,None,,,,,,,404.09180809091777,None,404.275113217067,404.291905536782,,,,,,,128,001,2023_Nov_06_1213,Localization_IfspeechCrashes,2021.2.3,60.01323280201455,
nearRight,6.5,0,ch1Sound_localizationTask.wav,6.5,"(1047, 878)","(87, -202)",95,-338,,,,,,,,,,,,,6,2,44,4,,,,,,,,,,,,,,,,,,,,,,,,,406.99197795893997,None,,,410.0081927520223,None,1.544973544973545,0.8162527056410909,410.0081927520223,None,,,,,,,407.9919609129429,None,408.1751092537306,408.1918163020164,,,,,,,128,001,2023_Nov_06_1213,Localization_IfspeechCrashes,2021.2.3,60.01323280201455,
midLeft,-13.0,2,ch1Sound_localizationTask.wav,-13.0,"(762, 878)","(-198,-202)",-190,-338,,,,,,,,,,,,,6,3,45,1,,,,,,,,,,,,,,,,,,,,,,,,,410.8251690589823,None,,,413.841558648739,None,1.3777777777777778,0.9338125241920352,413.841558648739,None,,,,,,,411.8251783121377,None,412.0084841940552,412.02515786280856,,,,,,,128,001,2023_Nov_06_1213,Localization_IfspeechCrashes,2021.2.3,60.01323280201455,
farRight,19.1,4,ch1Sound_localizationTask.wav,19.1,"(1237, 878)","(277,-202)",285,-338,,,,,,,,,,,,,6,4,46,6,,,,,,,,,,,,,,,,,,,,,,,,,414.79184053093195,None,,,417.80821509379894,None,1.665079365079365,1.2828139350749552,417.80821509379894,None,,,,,,,415.7917947950773,None,415.9751237570308,415.99180322978646,,,,,,,128,001,2023_Nov_06_1213,Localization_IfspeechCrashes,2021.2.3,60.01323280201455,
farLeft,-19.1,5,ch1Sound_localizationTask.wav,-19.1,"(667, 878)","(-293,-202)",-285,-338,,,,,,,,,,,,,6,5,47,0,,,,,,,,,,,,,,,,,,,,,,,,,419.0918692490086,None,,,422.1082554520108,None,1.3291005291005291,1.215810365974903,422.1082554520108,None,,,,,,,420.091845377814,None,420.2751219938509,420.29185094870627,,,,,,,128,001,2023_Nov_06_1213,Localization_IfspeechCrashes,2021.2.3,60.01323280201455,
nearLeft,-6.5,1,ch1Sound_localizationTask.wav,-6.5,"(857, 878)","(-103,-202)",-95,-338,,,,,,,,,,,,,6,6,48,2,,,,,,,,,,,,,,,,,,,,,,,,,423.32522616907954,None,,,426.34170608688146,None,1.4312169312169312,1.0012230486609042,426.34170608688146,None,,,,,,,424.32521348493174,None,424.5084787760861,424.52523127989843,,,,,,,128,001,2023_Nov_06_1213,Localization_IfspeechCrashes,2021.2.3,60.01323280201455,
nearLeft,-6.5,1,ch1Sound_localizationTask.wav,-6.5,"(857, 878)","(-103,-202)",-95,-338,,,,,,,,,,,,,7,0,49,2,,,,,,,,,,,,,,,,,,,,,,,,,427.35852324869484,None,,,430.374926506076,None,1.439153439153439,0.7822734951041639,430.374926506076,None,,,,,,,428.3585253460333,None,428.54175426485017,428.5584594248794,,,,,,,128,001,2023_Nov_06_1213,Localization_IfspeechCrashes,2021.2.3,60.01323280201455,
farRight,19.1,4,ch1Sound_localizationTask.wav,19.1,"(1237, 878)","(277,-202)",285,-338,,,,,,,,,,,,,7,1,50,6,,,,,,,,,,,,,,,,,,,,,,,,,431.15848497580737,None,,,434.1750701190904,None,1.671957671957672,0.7848126110620797,434.1750701190904,None,,,,,,,432.158453182783,None,432.34185053408146,432.3584566228092,,,,,,,128,001,2023_Nov_06_1213,Localization_IfspeechCrashes,2021.2.3,60.01323280201455,
nearLeft,-6.5,1,ch1Sound_localizationTask.wav,-6.5,"(857, 878)","(-103,-202)",-95,-338,,,,,,,,,,,,,7,2,51,2,,,,,,,,,,,,,,,,,,,,,,,,,434.9751356667839,None,,,437.99148815404624,None,1.4343915343915343,1.0327821639366448,437.99148815404624,None,,,,,,,435.9752167458646,None,436.15848358673975,436.17517692083493,,,,,,,128,001,2023_Nov_06_1213,Localization_IfspeechCrashes,2021.2.3,60.01323280201455,
farLeft,-19.1,5,ch1Sound_localizationTask.wav,-19.1,"(667, 878)","(-293,-202)",-285,-338,,,,,,,,,,,,,7,3,52,0,,,,,,,,,,,,,,,,,,,,,,,,,439.02524185180664,None,,,442.0417766380124,None,1.3084656084656086,0.8989641689695418,442.0417766380124,None,,,,,,,440.02518817409873,None,440.2086287010461,440.2251604120247,,,,,,,128,001,2023_Nov_06_1213,Localization_IfspeechCrashes,2021.2.3,60.01323280201455,
midLeft,-13.0,2,ch1Sound_localizationTask.wav,-13.0,"(762, 878)","(-198,-202)",-190,-338,,,,,,,,,,,,,7,4,53,1,,,,,,,,,,,,,,,,,,,,,,,,,442.9417583178729,None,,,445.9584553800523,None,1.3603174603174604,0.7830402269028127,445.9584553800523,None,,,,,,,443.9418837027624,None,444.12515420187265,444.14185979869217,,,,,,,128,001,2023_Nov_06_1213,Localization_IfspeechCrashes,2021.2.3,60.01323280201455,
nearRight,6.5,0,ch1Sound_localizationTask.wav,6.5,"(1047, 878)","(87, -202)",95,-338,,,,,,,,,,,,,7,5,54,4,,,,,,,,,,,,,,,,,,,,,,,,,446.74193858588114,None,,,449.7584736989811,None,1.5555555555555556,0.9333639889955521,449.7584736989811,None,,,,,,,447.7418770878576,None,447.925154523924,447.9418706209399,,,,,,,128,001,2023_Nov_06_1213,Localization_IfspeechCrashes,2021.2.3,60.01323280201455,
nearRight,6.5,0,ch1Sound_localizationTask.wav,6.5,"(1047, 878)","(87, -202)",95,-338,,,,,,,,,,,,,7,6,55,4,,,,,,,,,,,,,,,,,,,,,,,,,450.69217479694635,None,,,453.7083804588765,None,1.5328042328042328,0.9496345543302596,453.7083804588765,None,,,,,,,451.69183859601617,None,451.87519972305745,451.89186883112416,,,,,,,128,001,2023_Nov_06_1213,Localization_IfspeechCrashes,2021.2.3,60.01323280201455,
,,,,,,,,,,,,,,,,,,,,,,,,,,,,,,,,,,,,,,,,,,,,,,,,,,,,,,,,,,,,,,,,,,,,,454.6586615811102,None,c,46.00525961536914,455.64195830002427,None,128,001,2023_Nov_06_1213,Localization_IfspeechCrashes,2021.2.3,60.01323280201455,
