{"meta_data":{"additional_headers":{},"game_name":"Recollect","version":"2.53.01","user_name":"128","organization":"braingamecenter","study":"mpl2_2022_11","session_number":0,"device_id":"74342D95-EE82-45E3-8ADF-48FB3203C5DD"},"data":[{"stage":"Practice","trial":0,"sequence":"6F","letter_input":"F","number_input":"6","is_correct":true,"presentation_start_time":1699296183856.5,"presentation_end_time":1699296186858.61,"response_time":1699296193705.16},{"stage":"Practice","trial":1,"sequence":"G4","letter_input":"G","number_input":"4","is_correct":true,"presentation_start_time":1699296195236.08,"presentation_end_time":1699296198238.22,"response_time":1699296203866.61},{"stage":"Practice","trial":2,"sequence":"3W5","letter_input":"W","number_input":"35","is_correct":true,"presentation_start_time":1699296205399.4,"presentation_end_time":1699296209900.99,"response_time":1699296215745.95},{"stage":"Practice","trial":3,"sequence":"T7L","letter_input":"LT","number_input":"7","is_correct":true,"presentation_start_time":1699296217278.67,"presentation_end_time":1699296221780.34,"response_time":1699296226758.99},{"stage":"Practice","trial":4,"sequence":"9J1","letter_input":"J","number_input":"19","is_correct":true,"presentation_start_time":1699296228291.72,"presentation_end_time":1699296232793.49,"response_time":1699296236905.73},{"stage":"Calibration","trial":0,"sequence":"Y4","letter_input":"Y","number_input":"4","is_correct":true,"presentation_start_time":1699296246602.38,"presentation_end_time":1699296249604.45,"response_time":1699296253650.11},{"stage":"Calibration","trial":1,"sequence":"9N","letter_input":"N","number_input":"9","is_correct":true,"presentation_start_time":1699296255182.81,"presentation_end_time":1699296258184.84,"response_time":1699296261830.71},{"stage":"Calibration","trial":2,"sequence":"D2B","letter_input":"BD","number_input":"2","is_correct":true,"presentation_start_time":1699296263363.42,"presentation_end_time":1699296267865.08,"response_time":1699296272577.13},{"stage":"Calibration","trial":3,"sequence":"7W4","letter_input":"W","number_input":"47","is_correct":true,"presentation_start_time":1699296274109.84,"presentation_end_time":1699296278611.58,"response_time":1699296283556.91},{"stage":"Calibration","trial":4,"sequence":"L8F1","letter_input":"FL","number_input":"18","is_correct":true,"presentation_start_time":1699296285089.54,"presentation_end_time":1699296291090.72,"response_time":1699296297268.96},{"stage":"Calibration","trial":5,"sequence":"6R3M","letter_input":"MR","number_input":"36","is_correct":true,"presentation_start_time":1699296298801.65,"presentation_end_time":1699296304802.81,"response_time":1699296309215.01},{"stage":"Calibration","trial":6,"sequence":"T9L5W","letter_input":"LTW","number_input":"59","is_correct":true,"presentation_start_time":1699296310747.78,"presentation_end_time":1699296318248.34,"response_time":1699296325343.01},{"stage":"Calibration","trial":7,"sequence":"2R8B6","letter_input":"BR","number_input":"268","is_correct":true,"presentation_start_time":1699296326875.67,"presentation_end_time":1699296334376.39,"response_time":1699296339721.51},{"stage":"Calibration","trial":8,"sequence":"J3F1A9","letter_input":"AFJ","number_input":"139","is_correct":true,"presentation_start_time":1699296341254.25,"presentation_end_time":1699296350254.47,"response_time":1699296357382.31},{"stage":"Calibration","trial":9,"sequence":"5R2C8Y","letter_input":"CRY","number_input":"258","is_correct":true,"presentation_start_time":1699296358915.01,"presentation_end_time":1699296367915.17,"response_time":1699296373460.43},{"stage":"Calibration","trial":10,"sequence":"E7N3H9Z","letter_input":"EHNZ","number_input":"379","is_correct":true,"presentation_start_time":1699296374993.1,"presentation_end_time":1699296385492.69,"response_time":1699296394919.94},{"stage":"Calibration","trial":11,"sequence":"8V1R9F5","letter_input":"HRV","number_input":"1589","is_correct":false,"presentation_start_time":1699296396452.59,"presentation_end_time":1699296406952.23,"response_time":1699296422427.47},{"stage":"Calibration","trial":12,"sequence":"P3L1G7N6","letter_input":"GLNP","number_input":"1367","is_correct":true,"presentation_start_time":1699296423960.13,"presentation_end_time":1699296435959.39,"response_time":1699296453966.91},{"stage":"Calibration","trial":13,"sequence":"2D5A3J8F","letter_input":"ADFJ","number_input":"2358","is_correct":true,"presentation_start_time":1699296455499.63,"presentation_end_time":1699296467498.83,"response_time":1699296479358.52},{"stage":"Calibration","trial":14,"sequence":"Z6Q1C9G4E","letter_input":"CGQZ","number_input":"169","is_correct":false,"presentation_start_time":1699296480891.3,"presentation_end_time":1699296494389.95,"response_time":1699296521394.52},{"stage":"Calibration","trial":15,"sequence":"5A2V8N3F9","letter_input":"AFZ","number_input":"2358","is_correct":false,"presentation_start_time":1699296522927.29,"presentation_end_time":1699296536426.03,"response_time":1699296548968.7}]}