{"meta_data":{"additional_headers":{},"game_name":"Recollect","version":"2.53.01","user_name":"129","organization":"braingamecenter","study":"mpl2_2022_11","session_number":0,"device_id":"74342D95-EE82-45E3-8ADF-48FB3203C5DD"},"data":[{"stage":"Practice","trial":0,"sequence":"6F","letter_input":"F","number_input":"6","is_correct":true,"presentation_start_time":1699305264988.7,"presentation_end_time":1699305267990.87,"response_time":1699305277619.6},{"stage":"Practice","trial":1,"sequence":"G4","letter_input":"G","number_input":"4","is_correct":true,"presentation_start_time":1699305279150.75,"presentation_end_time":1699305282152.76,"response_time":1699305290080.55},{"stage":"Practice","trial":2,"sequence":"3W5","letter_input":"W","number_input":"35","is_correct":true,"presentation_start_time":1699305291613.26,"presentation_end_time":1699305296115.01,"response_time":1699305304059.15},{"stage":"Practice","trial":3,"sequence":"T7L","letter_input":"LT","number_input":"7","is_correct":true,"presentation_start_time":1699305305591.91,"presentation_end_time":1699305310093.58,"response_time":1699305317504.81},{"stage":"Practice","trial":4,"sequence":"9J1","letter_input":"J","number_input":"19","is_correct":true,"presentation_start_time":1699305319037.48,"presentation_end_time":1699305323539.24,"response_time":1699305332866.23},{"stage":"Calibration","trial":0,"sequence":"S1","letter_input":"S","number_input":"1","is_correct":true,"presentation_start_time":1699305348877.62,"presentation_end_time":1699305351879.76,"response_time":1699305356591.73},{"stage":"Calibration","trial":1,"sequence":"6P","letter_input":"P","number_input":"6","is_correct":true,"presentation_start_time":1699305358124.47,"presentation_end_time":1699305361126.4,"response_time":1699305365355.61},{"stage":"Calibration","trial":2,"sequence":"Z9N","letter_input":"NZ","number_input":"9","is_correct":true,"presentation_start_time":1699305366888.26,"presentation_end_time":1699305371390.04,"response_time":1699305376368.56},{"stage":"Calibration","trial":3,"sequence":"8M5","letter_input":"M","number_input":"58","is_correct":true,"presentation_start_time":1699305377901.24,"presentation_end_time":1699305382402.95,"response_time":1699305388081.31},{"stage":"Calibration","trial":4,"sequence":"Y6L4","letter_input":"LY","number_input":"46","is_correct":true,"presentation_start_time":1699305389614,"presentation_end_time":1699305395615.12,"response_time":1699305411906.78},{"stage":"Calibration","trial":5,"sequence":"7J2H","letter_input":"HJ","number_input":"27","is_correct":true,"presentation_start_time":1699305413439.45,"presentation_end_time":1699305419440.56,"response_time":1699305438947.79},{"stage":"Calibration","trial":6,"sequence":"L4Q1N","letter_input":"LNQ","number_input":"14","is_correct":true,"presentation_start_time":1699305440480.52,"presentation_end_time":1699305447981.15,"response_time":1699305468854.57},{"stage":"Calibration","trial":7,"sequence":"7Z3W9","letter_input":"WZ","number_input":"379","is_correct":true,"presentation_start_time":1699305470387.23,"presentation_end_time":1699305477887.8,"response_time":1699305503742.91},{"stage":"Calibration","trial":8,"sequence":"J4H2D8","letter_input":"DHJ","number_input":"248","is_correct":true,"presentation_start_time":1699305505275.66,"presentation_end_time":1699305514275.74,"response_time":1699305548128.29},{"stage":"Calibration","trial":9,"sequence":"7C1R9P","letter_input":"CPR","number_input":"179","is_correct":true,"presentation_start_time":1699305549660.83,"presentation_end_time":1699305558661.16,"response_time":1699305589814.41},{"stage":"Calibration","trial":10,"sequence":"A6V2L8H","letter_input":"AHLV","number_input":"268","is_correct":true,"presentation_start_time":1699305591347.07,"presentation_end_time":1699305601846.64,"response_time":1699305652060.35},{"stage":"Calibration","trial":11,"sequence":"7T4J1D9","letter_input":"DGT","number_input":"1479","is_correct":false,"presentation_start_time":1699305653593.12,"presentation_end_time":1699305664092.81,"response_time":1699305702776.81},{"stage":"Calibration","trial":12,"sequence":"P5H3V8N4","letter_input":"HNPV","number_input":"3458","is_correct":true,"presentation_start_time":1699305704309.49,"presentation_end_time":1699305716308.63,"response_time":1699305777885.21},{"stage":"Calibration","trial":13,"sequence":"7Y2Q9F6D","letter_input":"DFTQY","number_input":"279","is_correct":false,"presentation_start_time":1699305779417.94,"presentation_end_time":1699305791417.09,"response_time":1699305880751.09},{"stage":"Calibration","trial":14,"sequence":"C5V3H8T1L","letter_input":"CHV","number_input":"358","is_correct":false,"presentation_start_time":1699305882283.83,"presentation_end_time":1699305895782.45,"response_time":1699305917472.12},{"stage":"Calibration","trial":15,"sequence":"6F4S2J9Y1","letter_input":"FJSY","number_input":"2469","is_correct":false,"presentation_start_time":1699305919004.77,"presentation_end_time":1699305932503.36,"response_time":1699305977385.69}]}