{"meta_data":{"additional_headers":{},"game_name":"Recollect","version":"2.53.01","user_name":"129","organization":"braingamecenter","study":"mpl2_2022_11","session_number":0,"device_id":"74342D95-EE82-45E3-8ADF-48FB3203C5DD"},"data":[{"trial":0,"action":1,"button_pressed":10,"time_out":false,"dwell_time":98.11083984375,"response_time":1699304876119.71},{"trial":0,"action":1,"button_pressed":7,"time_out":false,"dwell_time":63.77099609375,"response_time":1699304876852.68},{"trial":0,"action":9,"button_pressed":-1,"time_out":false,"dwell_time":26.243896484375,"response_time":1699304878594.51},{"trial":1,"action":1,"button_pressed":2,"time_out":false,"dwell_time":80.262939453125,"response_time":1699304888048.31},{"trial":1,"action":1,"button_pressed":4,"time_out":false,"dwell_time":80.710205078125,"response_time":1699304888498.64},{"trial":1,"action":1,"button_pressed":1,"time_out":false,"dwell_time":63.8271484375,"response_time":1699304889248.25},{"trial":1,"action":9,"button_pressed":-1,"time_out":false,"dwell_time":131.9619140625,"response_time":1699304890115.21},{"trial":2,"action":1,"button_pressed":1,"time_out":false,"dwell_time":80.924072265625,"response_time":1699304902094.32},{"trial":2,"action":1,"button_pressed":6,"time_out":false,"dwell_time":80.54296875,"response_time":1699304902576.65},{"trial":2,"action":1,"button_pressed":5,"time_out":false,"dwell_time":131.48486328125,"response_time":1699304903260.48},{"trial":2,"action":1,"button_pressed":10,"time_out":false,"dwell_time":46.864990234375,"response_time":1699304903960.04},{"trial":2,"action":9,"button_pressed":-1,"time_out":false,"dwell_time":81.05908203125,"response_time":1699304904859.72},{"trial":3,"action":1,"button_pressed":7,"time_out":false,"dwell_time":63.885986328125,"response_time":1699304919905.05},{"trial":3,"action":1,"button_pressed":4,"time_out":false,"dwell_time":48.302978515625,"response_time":1699304920388.31},{"trial":3,"action":1,"button_pressed":11,"time_out":false,"dwell_time":64.1669921875,"response_time":1699304920920.92},{"trial":3,"action":1,"button_pressed":3,"time_out":false,"dwell_time":30.328857421875,"response_time":1699304921387.5},{"trial":3,"action":1,"button_pressed":10,"time_out":false,"dwell_time":63.988037109375,"response_time":1699304922053.58},{"trial":3,"action":9,"button_pressed":-1,"time_out":false,"dwell_time":98.543212890625,"response_time":1699304923054.26},{"trial":4,"action":1,"button_pressed":11,"time_out":false,"dwell_time":80.90087890625,"response_time":1699304940814.12},{"trial":4,"action":1,"button_pressed":8,"time_out":false,"dwell_time":64.762939453125,"response_time":1699304941931.08},{"trial":4,"action":1,"button_pressed":6,"time_out":false,"dwell_time":63.868896484375,"response_time":1699304942363.47},{"trial":4,"action":1,"button_pressed":4,"time_out":false,"dwell_time":63.98291015625,"response_time":1699304943096.52},{"trial":4,"action":1,"button_pressed":1,"time_out":false,"dwell_time":80.0029296875,"response_time":1699304944562.75},{"trial":4,"action":1,"button_pressed":10,"time_out":false,"dwell_time":63.993896484375,"response_time":1699304945246.7},{"trial":4,"action":9,"button_pressed":-1,"time_out":false,"dwell_time":16.476806640625,"response_time":1699304949127.98},{"trial":5,"action":1,"button_pressed":10,"time_out":false,"dwell_time":97.4970703125,"response_time":1699304969438.02},{"trial":5,"action":1,"button_pressed":1,"time_out":false,"dwell_time":63.2861328125,"response_time":1699304970104.29},{"trial":5,"action":1,"button_pressed":2,"time_out":false,"dwell_time":98.139892578125,"response_time":1699304970854.83},{"trial":5,"action":1,"button_pressed":7,"time_out":false,"dwell_time":63.992919921875,"response_time":1699304972103.62},{"trial":5,"action":1,"button_pressed":6,"time_out":false,"dwell_time":80.60693359375,"response_time":1699304972770.13},{"trial":5,"action":1,"button_pressed":4,"time_out":false,"dwell_time":80.587890625,"response_time":1699304982734.18},{"trial":5,"action":1,"button_pressed":0,"time_out":false,"dwell_time":80.14306640625,"response_time":1699304982983.53},{"trial":5,"action":9,"button_pressed":-1,"time_out":false,"dwell_time":16.657958984375,"response_time":1699304983650.08},{"trial":6,"action":1,"button_pressed":7,"time_out":false,"dwell_time":47.1259765625,"response_time":1699305003410.49},{"trial":6,"action":1,"button_pressed":11,"time_out":false,"dwell_time":64.50390625,"response_time":1699305003777.15},{"trial":6,"action":1,"button_pressed":0,"time_out":false,"dwell_time":47.788818359375,"response_time":1699305004226.73},{"trial":6,"action":1,"button_pressed":3,"time_out":false,"dwell_time":47.921875,"response_time":1699305004644.11},{"trial":6,"action":1,"button_pressed":9,"time_out":false,"dwell_time":63.864013671875,"response_time":1699305005076.05},{"trial":6,"action":1,"button_pressed":5,"time_out":false,"dwell_time":64.0390625,"response_time":1699305005509.98},{"trial":6,"action":1,"button_pressed":6,"time_out":false,"dwell_time":64.14892578125,"response_time":1699305006043.23},{"trial":6,"action":9,"button_pressed":-1,"time_out":false,"dwell_time":98.116943359375,"response_time":1699305006792.85},{"trial":7,"action":1,"button_pressed":1,"time_out":false,"dwell_time":98.2080078125,"response_time":1699305028635.81},{"trial":7,"action":1,"button_pressed":10,"time_out":false,"dwell_time":80.666015625,"response_time":1699305029251.41},{"trial":7,"action":1,"button_pressed":0,"time_out":false,"dwell_time":64.695068359375,"response_time":1699305029751.84},{"trial":7,"action":1,"button_pressed":2,"time_out":false,"dwell_time":80.65087890625,"response_time":1699305030317.68},{"trial":7,"action":1,"button_pressed":7,"time_out":false,"dwell_time":79.822021484375,"response_time":1699305032417},{"trial":7,"action":1,"button_pressed":9,"time_out":false,"dwell_time":80.720947265625,"response_time":1699305037066.44},{"trial":7,"action":1,"button_pressed":4,"time_out":false,"dwell_time":80.538818359375,"response_time":1699305037415.46},{"trial":7,"action":9,"button_pressed":-1,"time_out":false,"dwell_time":81.27783203125,"response_time":1699305038316.4},{"trial":8,"action":1,"button_pressed":7,"time_out":false,"dwell_time":80.0390625,"response_time":1699305060774.61},{"trial":8,"action":1,"button_pressed":10,"time_out":false,"dwell_time":64.89404296875,"response_time":1699305061258.52},{"trial":8,"action":1,"button_pressed":3,"time_out":false,"dwell_time":80.617919921875,"response_time":1699305062624.47},{"trial":8,"action":9,"button_pressed":-1,"time_out":true,"dwell_time":10092.498046875,"response_time":1699305072636.35},{"trial":9,"action":1,"button_pressed":0,"time_out":false,"dwell_time":48.93603515625,"response_time":1699305089916.05},{"trial":9,"action":1,"button_pressed":4,"time_out":false,"dwell_time":81.033203125,"response_time":1699305090248.55},{"trial":9,"action":1,"button_pressed":11,"time_out":false,"dwell_time":63.9609375,"response_time":1699305091364.3},{"trial":9,"action":1,"button_pressed":3,"time_out":false,"dwell_time":46.992919921875,"response_time":1699305091764.56},{"trial":9,"action":1,"button_pressed":5,"time_out":false,"dwell_time":63.955078125,"response_time":1699305092331.36},{"trial":9,"action":1,"button_pressed":7,"time_out":false,"dwell_time":47.66796875,"response_time":1699305093030.88},{"trial":9,"action":9,"button_pressed":-1,"time_out":false,"dwell_time":97.89306640625,"response_time":1699305093631.35},{"trial":10,"action":1,"button_pressed":4,"time_out":false,"dwell_time":98.18994140625,"response_time":1699305112941.25},{"trial":10,"action":1,"button_pressed":2,"time_out":false,"dwell_time":64.598876953125,"response_time":1699305113274.4},{"trial":10,"action":1,"button_pressed":6,"time_out":false,"dwell_time":47.578125,"response_time":1699305113807.26},{"trial":10,"action":1,"button_pressed":8,"time_out":false,"dwell_time":63.819091796875,"response_time":1699305114290.71},{"trial":10,"action":1,"button_pressed":1,"time_out":false,"dwell_time":80.739013671875,"response_time":1699305115656.29},{"trial":10,"action":1,"button_pressed":9,"time_out":false,"dwell_time":47.14111328125,"response_time":1699305116156.67},{"trial":10,"action":1,"button_pressed":0,"time_out":false,"dwell_time":63.89794921875,"response_time":1699305116689.27},{"trial":10,"action":9,"button_pressed":-1,"time_out":false,"dwell_time":16.6279296875,"response_time":1699305117439.14},{"trial":11,"action":1,"button_pressed":8,"time_out":false,"dwell_time":97.294921875,"response_time":1699305139715.87},{"trial":11,"action":1,"button_pressed":9,"time_out":false,"dwell_time":62.780029296875,"response_time":1699305140263.88},{"trial":11,"action":1,"button_pressed":2,"time_out":false,"dwell_time":81.473876953125,"response_time":1699305140748.8},{"trial":11,"action":1,"button_pressed":10,"time_out":false,"dwell_time":80.234130859375,"response_time":1699305141165.21},{"trial":11,"action":1,"button_pressed":4,"time_out":false,"dwell_time":97.264892578125,"response_time":1699305141798.32},{"trial":11,"action":1,"button_pressed":1,"time_out":false,"dwell_time":97.26806640625,"response_time":1699305142414.04},{"trial":11,"action":1,"button_pressed":0,"time_out":false,"dwell_time":63.10400390625,"response_time":1699305142913.85},{"trial":11,"action":1,"button_pressed":5,"time_out":false,"dwell_time":47.0400390625,"response_time":1699305143297.5},{"trial":11,"action":9,"button_pressed":-1,"time_out":false,"dwell_time":63.799072265625,"response_time":1699305144030.73},{"trial":12,"action":1,"button_pressed":6,"time_out":false,"dwell_time":81.258056640625,"response_time":1699305168772.92},{"trial":12,"action":1,"button_pressed":7,"time_out":false,"dwell_time":81.2548828125,"response_time":1699305169105.96},{"trial":12,"action":1,"button_pressed":8,"time_out":false,"dwell_time":63.10498046875,"response_time":1699305169738.34},{"trial":12,"action":1,"button_pressed":10,"time_out":false,"dwell_time":81.18505859375,"response_time":1699305170055.63},{"trial":12,"action":1,"button_pressed":4,"time_out":false,"dwell_time":80.343017578125,"response_time":1699305172820.56},{"trial":12,"action":1,"button_pressed":1,"time_out":false,"dwell_time":81.294921875,"response_time":1699305173221.35},{"trial":12,"action":1,"button_pressed":11,"time_out":false,"dwell_time":81.35205078125,"response_time":1699305173721.16},{"trial":12,"action":1,"button_pressed":5,"time_out":false,"dwell_time":97.198974609375,"response_time":1699305175253.27},{"trial":12,"action":1,"button_pressed":0,"time_out":false,"dwell_time":47.882080078125,"response_time":1699305176469.8},{"trial":12,"action":9,"button_pressed":-1,"time_out":false,"dwell_time":48.22802734375,"response_time":1699305177004.14},{"trial":13,"action":1,"button_pressed":9,"time_out":false,"dwell_time":47.18896484375,"response_time":1699305201844.96},{"trial":13,"action":1,"button_pressed":11,"time_out":false,"dwell_time":46.635009765625,"response_time":1699305202161.2},{"trial":13,"action":1,"button_pressed":0,"time_out":false,"dwell_time":63.27685546875,"response_time":1699305202877.38},{"trial":13,"action":1,"button_pressed":2,"time_out":false,"dwell_time":81.256103515625,"response_time":1699305203261.35},{"trial":13,"action":1,"button_pressed":6,"time_out":false,"dwell_time":63.208984375,"response_time":1699305203943.81},{"trial":13,"action":1,"button_pressed":8,"time_out":false,"dwell_time":97.922119140625,"response_time":1699305204560.86},{"trial":13,"action":1,"button_pressed":1,"time_out":false,"dwell_time":80.611083984375,"response_time":1699305205227.29},{"trial":13,"action":1,"button_pressed":10,"time_out":false,"dwell_time":80.75,"response_time":1699305205827.22},{"trial":13,"action":9,"button_pressed":-1,"time_out":false,"dwell_time":81.35595703125,"response_time":1699305206560.06}]}