{"meta_data":{"additional_headers":{},"game_name":"Recollect","version":"2.53.01","user_name":"12","organization":"braingamecenter","study":"mpl2_2022_11","session_number":0,"device_id":"74342D95-EE82-45E3-8ADF-48FB3203C5DD"},"data":[{"stage":"Practice","trial":0,"sequence":"6F","letter_input":"F","number_input":"6","is_correct":true,"presentation_start_time":1675968397772.68,"presentation_end_time":1675968400772.97,"response_time":1675968407489.37},{"stage":"Practice","trial":1,"sequence":"G4","letter_input":"G","number_input":"4","is_correct":true,"presentation_start_time":1675968409018.98,"presentation_end_time":1675968412019.3,"response_time":1675968419365.71},{"stage":"Practice","trial":2,"sequence":"3W5","letter_input":"W","number_input":"35","is_correct":true,"presentation_start_time":1675968420898.47,"presentation_end_time":1675968425398.15,"response_time":1675968431411.68},{"stage":"Practice","trial":3,"sequence":"T7L","letter_input":"TL","number_input":"7","is_correct":false,"presentation_start_time":1675968432944.42,"presentation_end_time":1675968437444.31,"response_time":1675968445323.78},{"stage":"Practice","trial":4,"sequence":"9J1","letter_input":"J","number_input":"19","is_correct":true,"presentation_start_time":1675968448356.01,"presentation_end_time":1675968452855.73,"response_time":1675968458269.52},{"stage":"Calibration","trial":0,"sequence":"G8","letter_input":"G","number_input":"8","is_correct":true,"presentation_start_time":1675968470531.98,"presentation_end_time":1675968473532.23,"response_time":1675968477279.86},{"stage":"Calibration","trial":1,"sequence":"6N","letter_input":"N","number_input":"6","is_correct":true,"presentation_start_time":1675968478812.6,"presentation_end_time":1675968481812.88,"response_time":1675968485793.73},{"stage":"Calibration","trial":2,"sequence":"G9A","letter_input":"AG","number_input":"9","is_correct":true,"presentation_start_time":1675968487326.43,"presentation_end_time":1675968491826.1,"response_time":1675968498756.1},{"stage":"Calibration","trial":3,"sequence":"7R5","letter_input":"R","number_input":"57","is_correct":true,"presentation_start_time":1675968500288.85,"presentation_end_time":1675968504788.57,"response_time":1675968510785.47},{"stage":"Calibration","trial":4,"sequence":"V3M1","letter_input":"M","number_input":"13","is_correct":false,"presentation_start_time":1675968512318.19,"presentation_end_time":1675968518317.4,"response_time":1675968525330.61},{"stage":"Calibration","trial":5,"sequence":"9Z5C","letter_input":"CZ","number_input":"59","is_correct":true,"presentation_start_time":1675968526863.32,"presentation_end_time":1675968532862.67,"response_time":1675968540842.23},{"stage":"Calibration","trial":6,"sequence":"W3K1D","letter_input":"DKW","number_input":"13","is_correct":true,"presentation_start_time":1675968542374.95,"presentation_end_time":1675968549873.72,"response_time":1675968566250.52},{"stage":"Calibration","trial":7,"sequence":"8M6G2","letter_input":"DG","number_input":"258","is_correct":false,"presentation_start_time":1675968567783.21,"presentation_end_time":1675968575282,"response_time":1675968602521.91},{"stage":"Calibration","trial":8,"sequence":"L9A7T4","letter_input":"ALNT","number_input":"47","is_correct":false,"presentation_start_time":1675968604054.56,"presentation_end_time":1675968613052.88,"response_time":1675968638609.91},{"stage":"Calibration","trial":9,"sequence":"6G1C8V","letter_input":"DGV","number_input":"18","is_correct":false,"presentation_start_time":1675968640142.55,"presentation_end_time":1675968649140.78,"response_time":1675968698889.97}]}