{"meta_data":{"additional_headers":{},"game_name":"Recollect","version":"2.53.01","user_name":"12","organization":"braingamecenter","study":"mpl2_2022_11","session_number":0,"device_id":"74342D95-EE82-45E3-8ADF-48FB3203C5DD"},"data":[{"trial":0,"action":1,"button_pressed":10,"time_out":false,"dwell_time":48.15087890625,"response_time":1675967980844.99},{"trial":0,"action":1,"button_pressed":7,"time_out":false,"dwell_time":31.222900390625,"response_time":1675967981462.1},{"trial":0,"action":9,"button_pressed":-1,"time_out":false,"dwell_time":56.8740234375,"response_time":1675967982771},{"trial":1,"action":1,"button_pressed":5,"time_out":false,"dwell_time":64.623046875,"response_time":1675967992224.09},{"trial":1,"action":1,"button_pressed":8,"time_out":false,"dwell_time":31.256103515625,"response_time":1675967992574.92},{"trial":1,"action":1,"button_pressed":0,"time_out":false,"dwell_time":49.178955078125,"response_time":1675967993058.48},{"trial":1,"action":9,"button_pressed":-1,"time_out":false,"dwell_time":32.0810546875,"response_time":1675967993508.67},{"trial":2,"action":1,"button_pressed":11,"time_out":false,"dwell_time":48.0830078125,"response_time":1675968005637.32},{"trial":2,"action":1,"button_pressed":0,"time_out":false,"dwell_time":81.083984375,"response_time":1675968006286.79},{"trial":2,"action":1,"button_pressed":4,"time_out":false,"dwell_time":14.81982421875,"response_time":1675968006669.56},{"trial":2,"action":1,"button_pressed":1,"time_out":false,"dwell_time":14.505859375,"response_time":1675968007318.93},{"trial":2,"action":9,"button_pressed":-1,"time_out":false,"dwell_time":48.7109375,"response_time":1675968007919.76},{"trial":3,"action":1,"button_pressed":10,"time_out":false,"dwell_time":31.31298828125,"response_time":1675968022298.49},{"trial":3,"action":1,"button_pressed":5,"time_out":false,"dwell_time":64.3837890625,"response_time":1675968022880.45},{"trial":3,"action":1,"button_pressed":5,"time_out":false,"dwell_time":48.157958984375,"response_time":1675968023798},{"trial":3,"action":1,"button_pressed":5,"time_out":false,"dwell_time":48.241943359375,"response_time":1675968024947.69},{"trial":3,"action":1,"button_pressed":5,"time_out":false,"dwell_time":30.7509765625,"response_time":1675968025463.43},{"trial":3,"action":1,"button_pressed":5,"time_out":false,"dwell_time":48.22900390625,"response_time":1675968025979.93},{"trial":3,"action":1,"button_pressed":5,"time_out":false,"dwell_time":48.211181640625,"response_time":1675968026463.81},{"trial":3,"action":0,"button_pressed":-1,"time_out":false,"dwell_time":48.460205078125,"response_time":1675968027280.5},{"trial":3,"action":1,"button_pressed":10,"time_out":false,"dwell_time":47.880126953125,"response_time":1675968027895.94},{"trial":3,"action":1,"button_pressed":5,"time_out":false,"dwell_time":65.014892578125,"response_time":1675968028429.32},{"trial":3,"action":1,"button_pressed":6,"time_out":false,"dwell_time":48.252197265625,"response_time":1675968029262.38},{"trial":3,"action":1,"button_pressed":0,"time_out":false,"dwell_time":64.467041015625,"response_time":1675968030162.25},{"trial":3,"action":1,"button_pressed":2,"time_out":false,"dwell_time":65.06689453125,"response_time":1675968030461.97},{"trial":3,"action":9,"button_pressed":-1,"time_out":false,"dwell_time":64.679931640625,"response_time":1675968031362.06},{"trial":4,"action":1,"button_pressed":1,"time_out":false,"dwell_time":63.825927734375,"response_time":1675968046389.51},{"trial":4,"action":1,"button_pressed":10,"time_out":false,"dwell_time":98.074951171875,"response_time":1675968047072.97},{"trial":4,"action":1,"button_pressed":0,"time_out":false,"dwell_time":80.67919921875,"response_time":1675968047639.26},{"trial":4,"action":1,"button_pressed":9,"time_out":false,"dwell_time":47.802001953125,"response_time":1675968048106.7},{"trial":4,"action":1,"button_pressed":5,"time_out":false,"dwell_time":64.488037109375,"response_time":1675968048655.42},{"trial":4,"action":9,"button_pressed":-1,"time_out":false,"dwell_time":48.527099609375,"response_time":1675968050289.64},{"trial":5,"action":1,"button_pressed":10,"time_out":false,"dwell_time":48.259033203125,"response_time":1675968067416.36},{"trial":5,"action":1,"button_pressed":2,"time_out":false,"dwell_time":31.505126953125,"response_time":1675968068116.71},{"trial":5,"action":1,"button_pressed":9,"time_out":false,"dwell_time":64.861083984375,"response_time":1675968068749.32},{"trial":5,"action":1,"button_pressed":5,"time_out":false,"dwell_time":14.1240234375,"response_time":1675968069398.95},{"trial":5,"action":1,"button_pressed":11,"time_out":false,"dwell_time":48.85791015625,"response_time":1675968070515.94},{"trial":5,"action":1,"button_pressed":0,"time_out":false,"dwell_time":64.530029296875,"response_time":1675968071164.68},{"trial":5,"action":9,"button_pressed":-1,"time_out":false,"dwell_time":81.3671875,"response_time":1675968071648.84},{"trial":6,"action":1,"button_pressed":9,"time_out":false,"dwell_time":48.2109375,"response_time":1675968091241.92},{"trial":6,"action":1,"button_pressed":7,"time_out":false,"dwell_time":30.716064453125,"response_time":1675968091774.89},{"trial":6,"action":1,"button_pressed":4,"time_out":false,"dwell_time":65.123779296875,"response_time":1675968092358.31},{"trial":6,"action":1,"button_pressed":1,"time_out":false,"dwell_time":64.283935546875,"response_time":1675968092890.71},{"trial":6,"action":1,"button_pressed":11,"time_out":false,"dwell_time":47.264892578125,"response_time":1675968093391.16},{"trial":6,"action":1,"button_pressed":6,"time_out":false,"dwell_time":64.51904296875,"response_time":1675968093873.99},{"trial":6,"action":1,"button_pressed":8,"time_out":false,"dwell_time":47.2568359375,"response_time":1675968094390.62},{"trial":6,"action":9,"button_pressed":-1,"time_out":false,"dwell_time":47.983154296875,"response_time":1675968095174.32},{"trial":7,"action":1,"button_pressed":6,"time_out":false,"dwell_time":65.091064453125,"response_time":1675968117850.02},{"trial":7,"action":1,"button_pressed":4,"time_out":false,"dwell_time":30.8740234375,"response_time":1675968123531.07},{"trial":7,"action":1,"button_pressed":0,"time_out":false,"dwell_time":48.130126953125,"response_time":1675968125731.07},{"trial":7,"action":1,"button_pressed":3,"time_out":false,"dwell_time":48.215087890625,"response_time":1675968128963.33},{"trial":7,"action":1,"button_pressed":10,"time_out":false,"dwell_time":47.5498046875,"response_time":1675968130512.24},{"trial":7,"action":1,"button_pressed":5,"time_out":false,"dwell_time":48.22412109375,"response_time":1675968131179.27},{"trial":7,"action":1,"button_pressed":7,"time_out":false,"dwell_time":64.35888671875,"response_time":1675968131994.67},{"trial":7,"action":1,"button_pressed":1,"time_out":false,"dwell_time":81.72607421875,"response_time":1675968132461.94},{"trial":7,"action":9,"button_pressed":-1,"time_out":false,"dwell_time":83.10009765625,"response_time":1675968133129.83},{"trial":8,"action":1,"button_pressed":10,"time_out":false,"dwell_time":48.176025390625,"response_time":1675968155770.65},{"trial":8,"action":1,"button_pressed":8,"time_out":false,"dwell_time":13.22607421875,"response_time":1675968160168.47},{"trial":8,"action":1,"button_pressed":9,"time_out":false,"dwell_time":31.202880859375,"response_time":1675968160902.76},{"trial":8,"action":1,"button_pressed":2,"time_out":false,"dwell_time":48.84912109375,"response_time":1675968161586.02},{"trial":8,"action":1,"button_pressed":3,"time_out":false,"dwell_time":47.44189453125,"response_time":1675968169599.37},{"trial":8,"action":1,"button_pressed":5,"time_out":false,"dwell_time":47.864990234375,"response_time":1675968175697.98},{"trial":8,"action":1,"button_pressed":5,"time_out":false,"dwell_time":30.696044921875,"response_time":1675968176080.54},{"trial":8,"action":1,"button_pressed":5,"time_out":false,"dwell_time":64.85693359375,"response_time":1675968176597.15},{"trial":8,"action":1,"button_pressed":0,"time_out":false,"dwell_time":13.571044921875,"response_time":1675968177979.33},{"trial":8,"action":1,"button_pressed":0,"time_out":false,"dwell_time":64.5810546875,"response_time":1675968178762.74},{"trial":8,"action":1,"button_pressed":0,"time_out":false,"dwell_time":64.503173828125,"response_time":1675968179279.08},{"trial":8,"action":0,"button_pressed":-1,"time_out":false,"dwell_time":14.265869140625,"response_time":1675968180245.42},{"trial":8,"action":1,"button_pressed":10,"time_out":false,"dwell_time":65.018798828125,"response_time":1675968181129.13},{"trial":8,"action":1,"button_pressed":2,"time_out":false,"dwell_time":48.078857421875,"response_time":1675968183362.07},{"trial":8,"action":1,"button_pressed":9,"time_out":false,"dwell_time":64.975830078125,"response_time":1675968184178.14},{"trial":8,"action":1,"button_pressed":8,"time_out":false,"dwell_time":13.4619140625,"response_time":1675968184560.55},{"trial":8,"action":1,"button_pressed":3,"time_out":false,"dwell_time":48.218017578125,"response_time":1675968185761.57},{"trial":8,"action":1,"button_pressed":0,"time_out":false,"dwell_time":30.60595703125,"response_time":1675968188343.18},{"trial":8,"action":0,"button_pressed":-1,"time_out":false,"dwell_time":48.427978515625,"response_time":1675968189693.6},{"trial":8,"action":1,"button_pressed":10,"time_out":false,"dwell_time":30.585205078125,"response_time":1675968190175.9},{"trial":8,"action":1,"button_pressed":2,"time_out":false,"dwell_time":64.492919921875,"response_time":1675968190758.53},{"trial":8,"action":1,"button_pressed":9,"time_out":false,"dwell_time":29.737060546875,"response_time":1675968191308.08},{"trial":8,"action":1,"button_pressed":8,"time_out":false,"dwell_time":47.9619140625,"response_time":1675968191608.69},{"trial":8,"action":1,"button_pressed":0,"time_out":false,"dwell_time":47.265869140625,"response_time":1675968192858.18},{"trial":8,"action":1,"button_pressed":3,"time_out":false,"dwell_time":64.23486328125,"response_time":1675968193574.92},{"trial":8,"action":1,"button_pressed":7,"time_out":false,"dwell_time":31.342041015625,"response_time":1675968198173.17},{"trial":8,"action":1,"button_pressed":5,"time_out":false,"dwell_time":30.8369140625,"response_time":1675968198739.81},{"trial":8,"action":9,"button_pressed":-1,"time_out":false,"dwell_time":47.994873046875,"response_time":1675968199373.57},{"trial":9,"action":1,"button_pressed":11,"time_out":false,"dwell_time":64.5,"response_time":1675968217116.76},{"trial":9,"action":1,"button_pressed":8,"time_out":false,"dwell_time":31.197998046875,"response_time":1675968217733.41},{"trial":9,"action":1,"button_pressed":6,"time_out":false,"dwell_time":80.6611328125,"response_time":1675968219349.1},{"trial":9,"action":1,"button_pressed":4,"time_out":false,"dwell_time":64.244140625,"response_time":1675968221548.33},{"trial":9,"action":1,"button_pressed":1,"time_out":false,"dwell_time":80.93115234375,"response_time":1675968222298.82},{"trial":9,"action":1,"button_pressed":10,"time_out":false,"dwell_time":31.2548828125,"response_time":1675968222865.13},{"trial":9,"action":9,"button_pressed":-1,"time_out":false,"dwell_time":48.30615234375,"response_time":1675968224048.99},{"trial":10,"action":1,"button_pressed":3,"time_out":false,"dwell_time":31.968994140625,"response_time":1675968250556.59},{"trial":10,"action":1,"button_pressed":4,"time_out":false,"dwell_time":30.505859375,"response_time":1675968250872.37},{"trial":10,"action":1,"button_pressed":0,"time_out":false,"dwell_time":48.02099609375,"response_time":1675968251139.68},{"trial":10,"action":1,"button_pressed":10,"time_out":false,"dwell_time":48.01220703125,"response_time":1675968251555.5},{"trial":10,"action":1,"button_pressed":5,"time_out":false,"dwell_time":64.928955078125,"response_time":1675968252055.68},{"trial":10,"action":1,"button_pressed":1,"time_out":false,"dwell_time":31.262939453125,"response_time":1675968252521.96},{"trial":10,"action":1,"button_pressed":2,"time_out":false,"dwell_time":31.509033203125,"response_time":1675968252955.88},{"trial":10,"action":9,"button_pressed":-1,"time_out":false,"dwell_time":14.453125,"response_time":1675968253588.07},{"trial":11,"action":1,"button_pressed":8,"time_out":false,"dwell_time":65.2109375,"response_time":1675968273182.26},{"trial":11,"action":1,"button_pressed":5,"time_out":false,"dwell_time":48.196044921875,"response_time":1675968273549.17},{"trial":11,"action":1,"button_pressed":1,"time_out":false,"dwell_time":48.2001953125,"response_time":1675968274198.9},{"trial":11,"action":1,"button_pressed":6,"time_out":false,"dwell_time":48.8291015625,"response_time":1675968279263.96},{"trial":11,"action":1,"button_pressed":0,"time_out":false,"dwell_time":48.0869140625,"response_time":1675968280346.8},{"trial":11,"action":1,"button_pressed":7,"time_out":false,"dwell_time":31.51123046875,"response_time":1675968284794.65},{"trial":11,"action":1,"button_pressed":11,"time_out":false,"dwell_time":48.337158203125,"response_time":1675968285328.04},{"trial":11,"action":9,"button_pressed":-1,"time_out":false,"dwell_time":31.907958984375,"response_time":1675968286361.24},{"trial":12,"action":1,"button_pressed":7,"time_out":false,"dwell_time":14.60400390625,"response_time":1675968308954.08},{"trial":12,"action":1,"button_pressed":5,"time_out":false,"dwell_time":64.641845703125,"response_time":1675968310536.28},{"trial":12,"action":1,"button_pressed":3,"time_out":false,"dwell_time":48.97607421875,"response_time":1675968311619.98},{"trial":12,"action":1,"button_pressed":4,"time_out":false,"dwell_time":31.387939453125,"response_time":1675968312269.65},{"trial":12,"action":1,"button_pressed":1,"time_out":false,"dwell_time":13.432861328125,"response_time":1675968313634.53},{"trial":12,"action":1,"button_pressed":2,"time_out":false,"dwell_time":14.09912109375,"response_time":1675968318583.56},{"trial":12,"action":1,"button_pressed":10,"time_out":false,"dwell_time":30.169189453125,"response_time":1675968319549.81},{"trial":12,"action":1,"button_pressed":8,"time_out":false,"dwell_time":13.7861328125,"response_time":1675968325114.59},{"trial":12,"action":9,"button_pressed":-1,"time_out":false,"dwell_time":64.899169921875,"response_time":1675968325731.22},{"trial":13,"action":1,"button_pressed":2,"time_out":false,"dwell_time":49.076171875,"response_time":1675968348341.15},{"trial":13,"action":1,"button_pressed":4,"time_out":false,"dwell_time":48.053955078125,"response_time":1675968349173.97},{"trial":13,"action":1,"button_pressed":11,"time_out":false,"dwell_time":30.608154296875,"response_time":1675968351322.72},{"trial":13,"action":1,"button_pressed":5,"time_out":false,"dwell_time":48.4208984375,"response_time":1675968354255.64},{"trial":13,"action":1,"button_pressed":3,"time_out":false,"dwell_time":64.180908203125,"response_time":1675968355488.18},{"trial":13,"action":1,"button_pressed":10,"time_out":false,"dwell_time":14.77490234375,"response_time":1675968357488.09},{"trial":13,"action":1,"button_pressed":0,"time_out":false,"dwell_time":48.882080078125,"response_time":1675968358037.88},{"trial":13,"action":9,"button_pressed":-1,"time_out":true,"dwell_time":10060.7250976563,"response_time":1675968368049.72}]}