{"meta_data":{"additional_headers":{},"game_name":"Recollect","version":"2.53.01","user_name":"130","organization":"braingamecenter","study":"mpl2_2022_11","session_number":0,"device_id":"74342D95-EE82-45E3-8ADF-48FB3203C5DD"},"data":[{"stage":"Practice","trial":0,"sequence":"6F","letter_input":"F","number_input":"6","is_correct":true,"presentation_start_time":1699384168622.03,"presentation_end_time":1699384171624.27,"response_time":1699384178153.96},{"stage":"Practice","trial":1,"sequence":"G4","letter_input":"G","number_input":"4","is_correct":true,"presentation_start_time":1699384179685.08,"presentation_end_time":1699384182687.33,"response_time":1699384187066.02},{"stage":"Practice","trial":2,"sequence":"3W5","letter_input":"W","number_input":"35","is_correct":true,"presentation_start_time":1699384188598.84,"presentation_end_time":1699384193100.59,"response_time":1699384199645.31},{"stage":"Practice","trial":3,"sequence":"T7L","letter_input":"TL","number_input":"7","is_correct":false,"presentation_start_time":1699384201178.04,"presentation_end_time":1699384205679.72,"response_time":1699384217889.31},{"stage":"Practice","trial":4,"sequence":"9J1","letter_input":"J","number_input":"1","is_correct":false,"presentation_start_time":1699384220921.48,"presentation_end_time":1699384225423.2,"response_time":1699384230585.1},{"stage":"Calibration","trial":0,"sequence":"3G","letter_input":"G","number_input":"3","is_correct":true,"presentation_start_time":1699384240648.41,"presentation_end_time":1699384243650.5,"response_time":1699384248379.28},{"stage":"Calibration","trial":1,"sequence":"F7","letter_input":"F","number_input":"7","is_correct":true,"presentation_start_time":1699384249911.99,"presentation_end_time":1699384252914.21,"response_time":1699384258009.43},{"stage":"Calibration","trial":2,"sequence":"5V2","letter_input":"V","number_input":"25","is_correct":true,"presentation_start_time":1699384259542.24,"presentation_end_time":1699384264043.79,"response_time":1699384268472.59},{"stage":"Calibration","trial":3,"sequence":"Q1B","letter_input":"BQ","number_input":"1","is_correct":true,"presentation_start_time":1699384270005.37,"presentation_end_time":1699384274507.19,"response_time":1699384281351.73},{"stage":"Calibration","trial":4,"sequence":"6T2F","letter_input":"FT","number_input":"26","is_correct":true,"presentation_start_time":1699384282884.48,"presentation_end_time":1699384288885.71,"response_time":1699384299045.94},{"stage":"Calibration","trial":5,"sequence":"E8B5","letter_input":"BE","number_input":"58","is_correct":true,"presentation_start_time":1699384300578.71,"presentation_end_time":1699384306579.85,"response_time":1699384315390.54},{"stage":"Calibration","trial":6,"sequence":"2W9C6","letter_input":"CW","number_input":"269","is_correct":true,"presentation_start_time":1699384316923.34,"presentation_end_time":1699384324423.99,"response_time":1699384337366.68},{"stage":"Calibration","trial":7,"sequence":"J8R4M","letter_input":"JR","number_input":"48","is_correct":false,"presentation_start_time":1699384338899.38,"presentation_end_time":1699384346400.08,"response_time":1699384359559.33},{"stage":"Calibration","trial":8,"sequence":"3T9Q6Y","letter_input":"QTY","number_input":"36","is_correct":false,"presentation_start_time":1699384361092.18,"presentation_end_time":1699384370092.3,"response_time":1699384407626.84},{"stage":"Calibration","trial":9,"sequence":"H1S7M5","letter_input":"HSM","number_input":"157","is_correct":false,"presentation_start_time":1699384409159.6,"presentation_end_time":1699384418159.82,"response_time":1699384423588.25}]}