{"meta_data":{"additional_headers":{},"game_name":"Recollect","version":"2.53.01","user_name":"130","organization":"braingamecenter","study":"mpl2_2022_11","session_number":0,"device_id":"74342D95-EE82-45E3-8ADF-48FB3203C5DD"},"data":[{"trial":0,"action":1,"button_pressed":3,"time_out":false,"dwell_time":64.8388671875,"response_time":1699383903594.46},{"trial":0,"action":1,"button_pressed":2,"time_out":false,"dwell_time":47.817138671875,"response_time":1699383904244.05},{"trial":0,"action":9,"button_pressed":-1,"time_out":false,"dwell_time":74.51904296875,"response_time":1699383904803.57},{"trial":1,"action":1,"button_pressed":9,"time_out":false,"dwell_time":64.74609375,"response_time":1699383914257.7},{"trial":1,"action":1,"button_pressed":1,"time_out":false,"dwell_time":47.697021484375,"response_time":1699383914574.04},{"trial":1,"action":1,"button_pressed":3,"time_out":false,"dwell_time":30.29296875,"response_time":1699383914873.71},{"trial":1,"action":9,"button_pressed":-1,"time_out":false,"dwell_time":16.510009765625,"response_time":1699383915339.99},{"trial":2,"action":1,"button_pressed":2,"time_out":false,"dwell_time":64.266845703125,"response_time":1699383927286.77},{"trial":2,"action":1,"button_pressed":4,"time_out":false,"dwell_time":63.879150390625,"response_time":1699383927603.14},{"trial":2,"action":1,"button_pressed":10,"time_out":false,"dwell_time":81.664794921875,"response_time":1699383927903.37},{"trial":2,"action":1,"button_pressed":5,"time_out":false,"dwell_time":48.3349609375,"response_time":1699383928270.05},{"trial":2,"action":9,"button_pressed":-1,"time_out":false,"dwell_time":48.23291015625,"response_time":1699383928703.67},{"trial":3,"action":1,"button_pressed":1,"time_out":false,"dwell_time":48.7021484375,"response_time":1699383943115.39},{"trial":3,"action":1,"button_pressed":11,"time_out":false,"dwell_time":63.837890625,"response_time":1699383943531.3},{"trial":3,"action":1,"button_pressed":9,"time_out":false,"dwell_time":97.361083984375,"response_time":1699383943863.87},{"trial":3,"action":1,"button_pressed":7,"time_out":false,"dwell_time":47.1181640625,"response_time":1699383944147.7},{"trial":3,"action":1,"button_pressed":4,"time_out":false,"dwell_time":80.8310546875,"response_time":1699383944530.35},{"trial":3,"action":9,"button_pressed":-1,"time_out":false,"dwell_time":64.33203125,"response_time":1699383944997.81},{"trial":4,"action":1,"button_pressed":7,"time_out":false,"dwell_time":98.013916015625,"response_time":1699383959525.96},{"trial":4,"action":1,"button_pressed":4,"time_out":false,"dwell_time":80.968994140625,"response_time":1699383960575.06},{"trial":4,"action":1,"button_pressed":11,"time_out":false,"dwell_time":13.843017578125,"response_time":1699383960942.09},{"trial":4,"action":1,"button_pressed":3,"time_out":false,"dwell_time":30.27783203125,"response_time":1699383961508.39},{"trial":4,"action":1,"button_pressed":10,"time_out":false,"dwell_time":47.578125,"response_time":1699383962492.15},{"trial":4,"action":9,"button_pressed":-1,"time_out":false,"dwell_time":16.5478515625,"response_time":1699383963274.33},{"trial":5,"action":1,"button_pressed":0,"time_out":false,"dwell_time":80.994873046875,"response_time":1699383980385.29},{"trial":5,"action":1,"button_pressed":4,"time_out":false,"dwell_time":98.10205078125,"response_time":1699383980685.85},{"trial":5,"action":1,"button_pressed":11,"time_out":false,"dwell_time":46.994140625,"response_time":1699383981368.71},{"trial":5,"action":1,"button_pressed":3,"time_out":false,"dwell_time":31.148193359375,"response_time":1699383981719.15},{"trial":5,"action":1,"button_pressed":5,"time_out":false,"dwell_time":30.431884765625,"response_time":1699383982151.64},{"trial":5,"action":1,"button_pressed":7,"time_out":false,"dwell_time":31.054931640625,"response_time":1699383982635.6},{"trial":5,"action":9,"button_pressed":-1,"time_out":false,"dwell_time":47.55908203125,"response_time":1699383983501.69},{"trial":6,"action":1,"button_pressed":4,"time_out":false,"dwell_time":48.8310546875,"response_time":1699384002979.11},{"trial":6,"action":1,"button_pressed":2,"time_out":false,"dwell_time":64.031005859375,"response_time":1699384003311.78},{"trial":6,"action":1,"button_pressed":6,"time_out":false,"dwell_time":47.507080078125,"response_time":1699384003678.75},{"trial":6,"action":1,"button_pressed":8,"time_out":false,"dwell_time":63.951904296875,"response_time":1699384004027.4},{"trial":6,"action":1,"button_pressed":1,"time_out":false,"dwell_time":64.698974609375,"response_time":1699384004477.93},{"trial":6,"action":1,"button_pressed":0,"time_out":false,"dwell_time":46.843994140625,"response_time":1699384004910.83},{"trial":6,"action":1,"button_pressed":0,"time_out":false,"dwell_time":47.839111328125,"response_time":1699384005860.59},{"trial":6,"action":1,"button_pressed":9,"time_out":false,"dwell_time":30.25390625,"response_time":1699384006876.92},{"trial":6,"action":1,"button_pressed":9,"time_out":false,"dwell_time":30.3369140625,"response_time":1699384009842.58},{"trial":6,"action":9,"button_pressed":-1,"time_out":true,"dwell_time":10042.5209960938,"response_time":1699384019854.76},{"trial":7,"action":1,"button_pressed":2,"time_out":false,"dwell_time":64.40087890625,"response_time":1699384040649.65},{"trial":7,"action":1,"button_pressed":6,"time_out":false,"dwell_time":47.98193359375,"response_time":1699384041083.14},{"trial":7,"action":1,"button_pressed":9,"time_out":false,"dwell_time":48.280029296875,"response_time":1699384041566.33},{"trial":7,"action":1,"button_pressed":0,"time_out":false,"dwell_time":31.031005859375,"response_time":1699384042499.21},{"trial":7,"action":1,"button_pressed":10,"time_out":false,"dwell_time":81.14697265625,"response_time":1699384044314.88},{"trial":7,"action":1,"button_pressed":7,"time_out":false,"dwell_time":30.98095703125,"response_time":1699384044847.81},{"trial":7,"action":1,"button_pressed":3,"time_out":false,"dwell_time":31.0078125,"response_time":1699384045447.62},{"trial":7,"action":9,"button_pressed":-1,"time_out":false,"dwell_time":48.62109375,"response_time":1699384046715.51},{"trial":8,"action":1,"button_pressed":9,"time_out":false,"dwell_time":64.43798828125,"response_time":1699384061292.95},{"trial":8,"action":1,"button_pressed":0,"time_out":false,"dwell_time":30.71923828125,"response_time":1699384063292.61},{"trial":8,"action":1,"button_pressed":2,"time_out":false,"dwell_time":80.781005859375,"response_time":1699384063642.02},{"trial":8,"action":1,"button_pressed":1,"time_out":false,"dwell_time":64.48193359375,"response_time":1699384063958.62},{"trial":8,"action":1,"button_pressed":6,"time_out":false,"dwell_time":47.316162109375,"response_time":1699384064158.95},{"trial":8,"action":9,"button_pressed":-1,"time_out":false,"dwell_time":48.383056640625,"response_time":1699384065341.39},{"trial":9,"action":1,"button_pressed":1,"time_out":false,"dwell_time":31.9521484375,"response_time":1699384082253.08},{"trial":9,"action":1,"button_pressed":9,"time_out":false,"dwell_time":29.9140625,"response_time":1699384082735.29},{"trial":9,"action":1,"button_pressed":5,"time_out":false,"dwell_time":81.286865234375,"response_time":1699384083118.83},{"trial":9,"action":1,"button_pressed":6,"time_out":false,"dwell_time":47.4140625,"response_time":1699384083469.12},{"trial":9,"action":1,"button_pressed":7,"time_out":false,"dwell_time":30.321044921875,"response_time":1699384083718.53},{"trial":9,"action":1,"button_pressed":2,"time_out":false,"dwell_time":47.77294921875,"response_time":1699384084134.93},{"trial":9,"action":9,"button_pressed":-1,"time_out":false,"dwell_time":48.52880859375,"response_time":1699384084551.97},{"trial":10,"action":1,"button_pressed":0,"time_out":false,"dwell_time":63.416015625,"response_time":1699384104194.77},{"trial":10,"action":1,"button_pressed":10,"time_out":false,"dwell_time":48.507080078125,"response_time":1699384104562.49},{"trial":10,"action":1,"button_pressed":5,"time_out":false,"dwell_time":63.983154296875,"response_time":1699384104945},{"trial":10,"action":1,"button_pressed":6,"time_out":false,"dwell_time":47.530029296875,"response_time":1699384105311.31},{"trial":10,"action":1,"button_pressed":2,"time_out":false,"dwell_time":46.932861328125,"response_time":1699384105911.04},{"trial":10,"action":1,"button_pressed":9,"time_out":false,"dwell_time":31.055908203125,"response_time":1699384106311.81},{"trial":10,"action":9,"button_pressed":-1,"time_out":false,"dwell_time":16.59912109375,"response_time":1699384107327.16},{"trial":11,"action":1,"button_pressed":10,"time_out":false,"dwell_time":64.173828125,"response_time":1699384127070.5},{"trial":11,"action":1,"button_pressed":1,"time_out":false,"dwell_time":63.988037109375,"response_time":1699384127437.07},{"trial":11,"action":1,"button_pressed":2,"time_out":false,"dwell_time":63.00390625,"response_time":1699384127870.24},{"trial":11,"action":1,"button_pressed":7,"time_out":false,"dwell_time":47.495849609375,"response_time":1699384128387.02},{"trial":11,"action":1,"button_pressed":4,"time_out":false,"dwell_time":81.113037109375,"response_time":1699384129986.84},{"trial":11,"action":1,"button_pressed":9,"time_out":false,"dwell_time":81.088134765625,"response_time":1699384130370.08},{"trial":11,"action":1,"button_pressed":0,"time_out":false,"dwell_time":30.97216796875,"response_time":1699384131586.72},{"trial":11,"action":9,"button_pressed":-1,"time_out":false,"dwell_time":32.18505859375,"response_time":1699384132136.89}]}