targetSpeakerName,targetSpeakerEccen,targetSpkrChannel,targetSpkrSound,targetVisualDegrees,visStimLoc,visStimLoc2,visStimW,visStimH,practiceTrials.thisRepN,practiceTrials.thisTrialN,practiceTrials.thisN,practiceTrials.thisIndex,trials.thisRepN,trials.thisTrialN,trials.thisN,trials.thisIndex,audLocalLoop.thisRepN,audLocalLoop.thisTrialN,audLocalLoop.thisN,audLocalLoop.thisIndex,visualLocalLoop.thisRepN,visualLocalLoop.thisTrialN,visualLocalLoop.thisN,visualLocalLoop.thisIndex,letsGoAlready.keys,letsGoAlready.rt,letsGoAlready.started,letsGoAlready.stopped,text_2.started,text_2.stopped,text_3.started,text_3.stopped,key_resp_2.keys,key_resp_2.rt,key_resp_2.started,key_resp_2.stopped,stretchBreakTxrt.started,stretchBreakTxrt.stopped,key_resp_3.keys,key_resp_3.rt,key_resp_3.started,key_resp_3.stopped,letsGoLocal.keys,letsGoLocal.rt,letsGoLocal.started,letsGoLocal.stopped,text_4.started,text_4.stopped,prepFixTxt.started,prepFixTxt.stopped,prepFixTxt_2.started,prepFixTxt_2.stopped,respPromptLocal.started,respPromptLocal.stopped,slider.response,slider.rt,slider.started,slider.stopped,letsGoLocal_2.keys,letsGoLocal_2.rt,letsGoLocal_2.started,letsGoLocal_2.stopped,text_7.started,text_7.stopped,prepFixTxt_3.started,prepFixTxt_3.stopped,grating.started,grating.stopped,participant,session,date,expName,psychopyVersion,frameRate,
,,,,,,,,,,,,,,,,,,,,,,,,,space,11.269111327361315,11.967051264829934,None,,,,,,,,,,,,,,,,,,,,,,,,,,,,,,,,,,,,,,,,,130,001,2023_Nov_07_1233,Localization_IfspeechCrashes,2021.2.3,60.000299458955226,
,,,,,,,,,,,,,,,,,,,,,,,,,,,,,11.967051264829934,None,23.367835232988,None,space,3.6616979031823575,23.550423435866833,None,,,,,,,,,,,,,,,,,,,,,,,,,,,,,,,,,130,001,2023_Nov_07_1233,Localization_IfspeechCrashes,2021.2.3,60.000299458955226,
,,,,,,,,,,,,,,,,,,,,,,,,,,,,,,,,,,,,,27.26695903809741,None,space,3.8343525091186166,27.433759158011526,None,,,,,,,,,,,,,,,,,,,,,,,,,,,130,001,2023_Nov_07_1233,Localization_IfspeechCrashes,2021.2.3,60.000299458955226,
,,,,,,,,,,,,,,,,,,,,,,,,,,,,,,,,,,,,,,,,,,,space,33.13907257094979,31.417065595742315,None,,,,,,,,,,,,,,,,,,,,,,,130,001,2023_Nov_07_1233,Localization_IfspeechCrashes,2021.2.3,60.000299458955226,
midRight,13.0,3,ch1Sound_localizationTask.wav,13.0,"(1142, 878)","(182, -202)",190,-338,,,,,,,,,0,0,0,5,,,,,,,,,,,,,,,,,,,,,,,,,,,31.417065595742315,None,64.60019183997065,None,65.71700082300231,None,66.63368057180196,None,1.0613756613756613,4.470213843975216,66.63368057180196,None,,,,,,,,,,,130,001,2023_Nov_07_1233,Localization_IfspeechCrashes,2021.2.3,60.000299458955226,
midLeft,-13.0,2,ch1Sound_localizationTask.wav,-13.0,"(762, 878)","(-198,-202)",-190,-338,,,,,,,,,0,1,1,1,,,,,,,,,,,,,,,,,,,,,,,,,,,,,71.10048770904541,None,72.20019258605316,None,73.13366062380373,None,1.0873015873015874,1.2493659341707826,73.13366062380373,None,,,,,,,,,,,130,001,2023_Nov_07_1233,Localization_IfspeechCrashes,2021.2.3,60.000299458955226,
farRight,19.1,4,ch1Sound_localizationTask.wav,19.1,"(1237, 878)","(277,-202)",285,-338,,,,,,,,,0,2,2,6,,,,,,,,,,,,,,,,,,,,,,,,,,,,,74.38391180383042,None,75.48360765678808,None,76.41686029406264,None,1.6925925925925926,1.9658958511427045,76.41686029406264,None,,,,,,,,,,,130,001,2023_Nov_07_1233,Localization_IfspeechCrashes,2021.2.3,60.000299458955226,
nearLeft,-6.5,1,ch1Sound_localizationTask.wav,-6.5,"(857, 878)","(-103,-202)",-95,-338,,,,,,,,,0,3,3,2,,,,,,,,,,,,,,,,,,,,,,,,,,,,,78.38382920296863,None,79.48346732184291,None,80.41712014377117,None,1.3603174603174604,0.9159155297093093,80.41712014377117,None,,,,,,,,,,,130,001,2023_Nov_07_1233,Localization_IfspeechCrashes,2021.2.3,60.000299458955226,
nearLeft,-6.5,1,ch1Sound_localizationTask.wav,-6.5,"(857, 878)","(-103,-202)",-95,-338,,,,,,,,,0,4,4,2,,,,,,,,,,,,,,,,,,,,,,,,,,,,,81.33382890280336,None,82.43358836974949,None,83.36689424375072,None,1.319047619047619,0.7149371500127017,83.36689424375072,None,,,,,,,,,,,130,001,2023_Nov_07_1233,Localization_IfspeechCrashes,2021.2.3,60.000299458955226,
midRight,13.0,3,ch1Sound_localizationTask.wav,13.0,"(1142, 878)","(182, -202)",190,-338,,,,,,,,,0,5,5,5,,,,,,,,,,,,,,,,,,,,,,,,,,,,,84.08380569703877,None,85.18363525299355,None,86.11697824578732,None,1.5904761904761906,1.016054508741945,86.11697824578732,None,,,,,,,,,,,130,001,2023_Nov_07_1233,Localization_IfspeechCrashes,2021.2.3,60.000299458955226,
nearRight,6.5,0,ch1Sound_localizationTask.wav,6.5,"(1047, 878)","(87, -202)",95,-338,,,,,,,,,0,6,6,4,,,,,,,,,,,,,,,,,,,,,,,,,,,,,87.13383937394246,None,88.23372702207416,None,89.16679038712755,None,1.4343915343915343,0.6156888720579445,89.16679038712755,None,,,,,,,,,,,130,001,2023_Nov_07_1233,Localization_IfspeechCrashes,2021.2.3,60.000299458955226,
farLeft,-19.1,5,ch1Sound_localizationTask.wav,-19.1,"(667, 878)","(-293,-202)",-285,-338,,,,,,,,,1,0,7,0,,,,,,,,,,,,,,,,,,,,,,,,,,,,,89.7838131361641,None,90.88371308101341,None,91.81690245587379,None,1.2793650793650793,0.8320510098710656,91.81690245587379,None,,,,,,,,,,,130,001,2023_Nov_07_1233,Localization_IfspeechCrashes,2021.2.3,60.000299458955226,
nearRight,6.5,0,ch1Sound_localizationTask.wav,6.5,"(1047, 878)","(87, -202)",95,-338,,,,,,,,,1,1,8,4,,,,,,,,,,,,,,,,,,,,,,,,,,,,,92.65048337588087,None,93.75042137410492,None,94.68356903083622,None,1.5835978835978834,0.6330060898326337,94.68356903083622,None,,,,,,,,,,,130,001,2023_Nov_07_1233,Localization_IfspeechCrashes,2021.2.3,60.000299458955226,
farLeft,-19.1,5,ch1Sound_localizationTask.wav,-19.1,"(667, 878)","(-293,-202)",-285,-338,,,,,,,,,1,2,9,0,,,,,,,,,,,,,,,,,,,,,,,,,,,,,95.31726155802608,None,96.41694806609303,None,97.35035084281117,None,1.1994708994708994,0.7153006941080093,97.35035084281117,None,,,,,,,,,,,130,001,2023_Nov_07_1233,Localization_IfspeechCrashes,2021.2.3,60.000299458955226,
nearLeft,-6.5,1,ch1Sound_localizationTask.wav,-6.5,"(857, 878)","(-103,-202)",-95,-338,,,,,,,,,1,3,10,2,,,,,,,,,,,,,,,,,,,,,,,,,,,,,98.06717065814883,None,99.16703519877046,None,100.10034096287563,None,1.182010582010582,0.7321908986195922,100.10034096287563,None,,,,,,,,,,,130,001,2023_Nov_07_1233,Localization_IfspeechCrashes,2021.2.3,60.000299458955226,
midRight,13.0,3,ch1Sound_localizationTask.wav,13.0,"(1142, 878)","(182, -202)",190,-338,,,,,,,,,1,4,11,5,,,,,,,,,,,,,,,,,,,,,,,,,,,,,100.8338364479132,None,101.93381492607296,None,102.86698435992002,None,1.7148148148148148,1.299047372303903,102.86698435992002,None,,,,,,,,,,,130,001,2023_Nov_07_1233,Localization_IfspeechCrashes,2021.2.3,60.000299458955226,
center,0.0,6,ch1Sound_localizationTask.wav,0.0,"(952, 878)","(-8,-202)",0,-338,,,,,,,,,1,5,12,3,,,,,,,,,,,,,,,,,,,,,,,,,,,,,104.16717544617131,None,105.2668123501353,None,106.20038568414748,None,1.306878306878307,1.0484408321790397,106.20038568414748,None,,,,,,,,,,,130,001,2023_Nov_07_1233,Localization_IfspeechCrashes,2021.2.3,60.000299458955226,
farRight,19.1,4,ch1Sound_localizationTask.wav,19.1,"(1237, 878)","(277,-202)",285,-338,,,,,,,,,1,6,13,6,,,,,,,,,,,,,,,,,,,,,,,,,,,,,107.25060213916004,None,108.35033683292568,None,109.28352985717356,None,1.6661375661375661,0.8162977658212185,109.28352985717356,None,,,,,,,,,,,130,001,2023_Nov_07_1233,Localization_IfspeechCrashes,2021.2.3,60.000299458955226,
farRight,19.1,4,ch1Sound_localizationTask.wav,19.1,"(1237, 878)","(277,-202)",285,-338,,,,,,,,,2,0,14,6,,,,,,,,,,,,,,,,,,,,,,,,,,,,,110.1019262848422,None,111.21701030479744,None,112.13361411215737,None,1.6582010582010582,0.6820887862704694,112.13361411215737,None,,,,,,,,,,,130,001,2023_Nov_07_1233,Localization_IfspeechCrashes,2021.2.3,60.000299458955226,
center,0.0,6,ch1Sound_localizationTask.wav,0.0,"(952, 878)","(-8,-202)",0,-338,,,,,,,,,2,1,15,3,,,,,,,,,,,,,,,,,,,,,,,,,,,,,112.81714732805267,None,113.9169173007831,None,114.85023226216435,None,1.319047619047619,0.7167052202858031,114.85023226216435,None,,,,,,,,,,,130,001,2023_Nov_07_1233,Localization_IfspeechCrashes,2021.2.3,60.000299458955226,
farLeft,-19.1,5,ch1Sound_localizationTask.wav,-19.1,"(667, 878)","(-293,-202)",-285,-338,,,,,,,,,2,2,16,0,,,,,,,,,,,,,,,,,,,,,,,,,,,,,115.56853771302849,None,116.6836360078305,None,117.60027823178098,None,1.1693121693121693,1.3330878373235464,117.60027823178098,None,,,,,,,,,,,130,001,2023_Nov_07_1233,Localization_IfspeechCrashes,2021.2.3,60.000299458955226,
midLeft,-13.0,2,ch1Sound_localizationTask.wav,-13.0,"(762, 878)","(-198,-202)",-190,-338,,,,,,,,,2,3,17,1,,,,,,,,,,,,,,,,,,,,,,,,,,,,,118.93405576981604,None,120.033641978167,None,120.96693572215736,None,1.1264550264550266,0.9148740880191326,120.96693572215736,None,,,,,,,,,,,130,001,2023_Nov_07_1233,Localization_IfspeechCrashes,2021.2.3,60.000299458955226,
midRight,13.0,3,ch1Sound_localizationTask.wav,13.0,"(1142, 878)","(182, -202)",190,-338,,,,,,,,,2,4,18,5,,,,,,,,,,,,,,,,,,,,,,,,,,,,,121.8838387480937,None,122.98376551410183,None,123.91703546792269,None,1.6042328042328042,0.8660000199452043,123.91703546792269,None,,,,,,,,,,,130,001,2023_Nov_07_1233,Localization_IfspeechCrashes,2021.2.3,60.000299458955226,
farRight,19.1,4,ch1Sound_localizationTask.wav,19.1,"(1237, 878)","(277,-202)",285,-338,,,,,,,,,2,5,19,6,,,,,,,,,,,,,,,,,,,,,,,,,,,,,124.78386784205213,None,125.883612471167,None,126.81707977876067,None,1.7952380952380953,0.8826602031476796,126.81707977876067,None,,,,,,,,,,,130,001,2023_Nov_07_1233,Localization_IfspeechCrashes,2021.2.3,60.000299458955226,
nearLeft,-6.5,1,ch1Sound_localizationTask.wav,-6.5,"(857, 878)","(-103,-202)",-95,-338,,,,,,,,,2,6,20,2,,,,,,,,,,,,,,,,,,,,,,,,,,,,,127.70058061508462,None,128.80042486917228,None,129.7336988397874,None,1.2550264550264552,0.9153406280092895,129.7336988397874,None,,,,,,,,,,,130,001,2023_Nov_07_1233,Localization_IfspeechCrashes,2021.2.3,60.000299458955226,
center,0.0,6,ch1Sound_localizationTask.wav,0.0,"(952, 878)","(-8,-202)",0,-338,,,,,,,,,3,0,21,3,,,,,,,,,,,,,,,,,,,,,,,,,,,,,130.65052328491583,None,131.7504265778698,None,132.68356843711808,None,1.3243386243386244,0.5986714917235076,132.68356843711808,None,,,,,,,,,,,130,001,2023_Nov_07_1233,Localization_IfspeechCrashes,2021.2.3,60.000299458955226,
center,0.0,6,ch1Sound_localizationTask.wav,0.0,"(952, 878)","(-8,-202)",0,-338,,,,,,,,,3,1,22,3,,,,,,,,,,,,,,,,,,,,,,,,,,,,,133.283894225955,None,134.38388023898005,None,135.3169101900421,None,1.3931216931216932,0.7319948631338775,135.3169101900421,None,,,,,,,,,,,130,001,2023_Nov_07_1233,Localization_IfspeechCrashes,2021.2.3,60.000299458955226,
nearLeft,-6.5,1,ch1Sound_localizationTask.wav,-6.5,"(857, 878)","(-103,-202)",-95,-338,,,,,,,,,3,2,23,2,,,,,,,,,,,,,,,,,,,,,,,,,,,,,136.0505407648161,None,137.15040279505774,None,138.08349476801232,None,1.3100529100529101,0.5495809530839324,138.08349476801232,None,,,,,,,,,,,130,001,2023_Nov_07_1233,Localization_IfspeechCrashes,2021.2.3,60.000299458955226,
nearLeft,-6.5,1,ch1Sound_localizationTask.wav,-6.5,"(857, 878)","(-103,-202)",-95,-338,,,,,,,,,3,3,24,2,,,,,,,,,,,,,,,,,,,,,,,,,,,,,138.63389718485996,None,139.733840493951,None,140.66697145393118,None,1.1804232804232804,0.6160577381961048,140.66697145393118,None,,,,,,,,,,,130,001,2023_Nov_07_1233,Localization_IfspeechCrashes,2021.2.3,60.000299458955226,
nearLeft,-6.5,1,ch1Sound_localizationTask.wav,-6.5,"(857, 878)","(-103,-202)",-95,-338,,,,,,,,,3,4,25,2,,,,,,,,,,,,,,,,,,,,,,,,,,,,,141.28389126202092,None,142.38375085499138,None,143.3170485110022,None,1.2232804232804233,0.41618407936766744,143.3170485110022,None,,,,,,,,,,,130,001,2023_Nov_07_1233,Localization_IfspeechCrashes,2021.2.3,60.000299458955226,
midRight,13.0,3,ch1Sound_localizationTask.wav,13.0,"(1142, 878)","(182, -202)",190,-338,,,,,,,,,3,5,26,5,,,,,,,,,,,,,,,,,,,,,,,,,,,,,143.73389859404415,None,144.83378088474274,None,145.76689878106117,None,1.7185185185185186,0.7658737418241799,145.76689878106117,None,,,,,,,,,,,130,001,2023_Nov_07_1233,Localization_IfspeechCrashes,2021.2.3,60.000299458955226,
farLeft,-19.1,5,ch1Sound_localizationTask.wav,-19.1,"(667, 878)","(-293,-202)",-285,-338,,,,,,,,,3,6,27,0,,,,,,,,,,,,,,,,,,,,,,,,,,,,,146.53391411481425,None,147.63378300191835,None,148.5670292447321,None,1.2153439153439154,1.1492495466955006,148.5670292447321,None,,,,,,,,,,,130,001,2023_Nov_07_1233,Localization_IfspeechCrashes,2021.2.3,60.000299458955226,
nearRight,6.5,0,ch1Sound_localizationTask.wav,6.5,"(1047, 878)","(87, -202)",95,-338,,,,,,,,,4,0,28,4,,,,,,,,,,,,,,,,,,,,,,,,,,,,,149.71730737993494,None,150.81727767083794,None,151.75042086606845,None,1.5576719576719578,0.7991337017156184,151.75042086606845,None,,,,,,,,,,,130,001,2023_Nov_07_1233,Localization_IfspeechCrashes,2021.2.3,60.000299458955226,
midRight,13.0,3,ch1Sound_localizationTask.wav,13.0,"(1142, 878)","(182, -202)",190,-338,,,,,,,,,4,1,29,5,,,,,,,,,,,,,,,,,,,,,,,,,,,,,152.55054587777704,None,153.65025442978367,None,154.58364846091717,None,1.5804232804232803,0.7824961729347706,154.58364846091717,None,,,,,,,,,,,130,001,2023_Nov_07_1233,Localization_IfspeechCrashes,2021.2.3,60.000299458955226,
farRight,19.1,4,ch1Sound_localizationTask.wav,19.1,"(1237, 878)","(277,-202)",285,-338,,,,,,,,,4,2,30,6,,,,,,,,,,,,,,,,,,,,,,,,,,,,,155.36724092904478,None,156.4672360289842,None,157.40030210185796,None,1.6592592592592592,0.6496834107674658,157.40030210185796,None,,,,,,,,,,,130,001,2023_Nov_07_1233,Localization_IfspeechCrashes,2021.2.3,60.000299458955226,
midLeft,-13.0,2,ch1Sound_localizationTask.wav,-13.0,"(762, 878)","(-198,-202)",-190,-338,,,,,,,,,4,3,31,1,,,,,,,,,,,,,,,,,,,,,,,,,,,,,158.05059792799875,None,159.1505741570145,None,160.08361272607,None,1.16984126984127,0.5494521660730243,160.08361272607,None,,,,,,,,,,,130,001,2023_Nov_07_1233,Localization_IfspeechCrashes,2021.2.3,60.000299458955226,
midLeft,-13.0,2,ch1Sound_localizationTask.wav,-13.0,"(762, 878)","(-198,-202)",-190,-338,,,,,,,,,4,4,32,1,,,,,,,,,,,,,,,,,,,,,,,,,,,,,160.63396955514327,None,161.7338496427983,None,162.66703803883865,None,1.2232804232804233,0.5499621517956257,162.66703803883865,None,,,,,,,,,,,130,001,2023_Nov_07_1233,Localization_IfspeechCrashes,2021.2.3,60.000299458955226,
nearRight,6.5,0,ch1Sound_localizationTask.wav,6.5,"(1047, 878)","(87, -202)",95,-338,,,,,,,,,4,5,33,4,,,,,,,,,,,,,,,,,,,,,,,,,,,,,163.2173183048144,None,164.31715277582407,None,165.25034195976332,None,1.2275132275132274,0.6321505289524794,165.25034195976332,None,,,,,,,,,,,130,001,2023_Nov_07_1233,Localization_IfspeechCrashes,2021.2.3,60.000299458955226,
nearRight,6.5,0,ch1Sound_localizationTask.wav,6.5,"(1047, 878)","(87, -202)",95,-338,,,,,,,,,4,6,34,4,,,,,,,,,,,,,,,,,,,,,,,,,,,,,165.8838978339918,None,166.98375004297122,None,167.91700853407383,None,1.228042328042328,1.149707118049264,167.91700853407383,None,,,,,,,,,,,130,001,2023_Nov_07_1233,Localization_IfspeechCrashes,2021.2.3,60.000299458955226,
midLeft,-13.0,2,ch1Sound_localizationTask.wav,-13.0,"(762, 878)","(-198,-202)",-190,-338,,,,,,,,,5,0,35,1,,,,,,,,,,,,,,,,,,,,,,,,,,,,,169.06724382191896,None,170.16707262396812,None,171.1004027640447,None,1.1301587301587301,0.6993860420770943,171.1004027640447,None,,,,,,,,,,,130,001,2023_Nov_07_1233,Localization_IfspeechCrashes,2021.2.3,60.000299458955226,
farLeft,-19.1,5,ch1Sound_localizationTask.wav,-19.1,"(667, 878)","(-293,-202)",-285,-338,,,,,,,,,5,1,36,0,,,,,,,,,,,,,,,,,,,,,,,,,,,,,171.80060298275203,None,172.90028821211308,None,173.8337625558488,None,1.0693121693121692,0.5331288888119161,173.8337625558488,None,,,,,,,,,,,130,001,2023_Nov_07_1233,Localization_IfspeechCrashes,2021.2.3,60.000299458955226,
nearRight,6.5,0,ch1Sound_localizationTask.wav,6.5,"(1047, 878)","(87, -202)",95,-338,,,,,,,,,5,2,37,4,,,,,,,,,,,,,,,,,,,,,,,,,,,,,174.36725617712364,None,175.46708568418398,None,176.40038931090385,None,1.5947089947089947,0.7994822240434587,176.40038931090385,None,,,,,,,,,,,130,001,2023_Nov_07_1233,Localization_IfspeechCrashes,2021.2.3,60.000299458955226,
farRight,19.1,4,ch1Sound_localizationTask.wav,19.1,"(1237, 878)","(277,-202)",285,-338,,,,,,,,,5,3,38,6,,,,,,,,,,,,,,,,,,,,,,,,,,,,,177.20061082905158,None,178.30029941396788,None,179.23367607593536,None,1.6280423280423282,0.7500100396573544,179.23367607593536,None,,,,,,,,,,,130,001,2023_Nov_07_1233,Localization_IfspeechCrashes,2021.2.3,60.000299458955226,
midLeft,-13.0,2,ch1Sound_localizationTask.wav,-13.0,"(762, 878)","(-198,-202)",-190,-338,,,,,,,,,5,4,39,1,,,,,,,,,,,,,,,,,,,,,,,,,,,,,179.98486750898883,None,181.08380122110248,None,182.01708374312147,None,1.126984126984127,1.9337788908742368,182.01708374312147,None,,,,,,,,,,,130,001,2023_Nov_07_1233,Localization_IfspeechCrashes,2021.2.3,60.000299458955226,
nearRight,6.5,0,ch1Sound_localizationTask.wav,6.5,"(1047, 878)","(87, -202)",95,-338,,,,,,,,,5,5,40,4,,,,,,,,,,,,,,,,,,,,,,,,,,,,,183.96725740795955,None,185.06703765597194,None,186.00044412212446,None,1.5894179894179894,1.2499056062661111,186.00044412212446,None,,,,,,,,,,,130,001,2023_Nov_07_1233,Localization_IfspeechCrashes,2021.2.3,60.000299458955226,
farLeft,-19.1,5,ch1Sound_localizationTask.wav,-19.1,"(667, 878)","(-293,-202)",-285,-338,,,,,,,,,5,6,41,0,,,,,,,,,,,,,,,,,,,,,,,,,,,,,187.25163585087284,None,188.36717107286677,None,189.28365632006899,None,1.1767195767195768,0.7166352481581271,189.28365632006899,None,,,,,,,,,,,130,001,2023_Nov_07_1233,Localization_IfspeechCrashes,2021.2.3,60.000299458955226,
midLeft,-13.0,2,ch1Sound_localizationTask.wav,-13.0,"(762, 878)","(-198,-202)",-190,-338,,,,,,,,,6,0,42,1,,,,,,,,,,,,,,,,,,,,,,,,,,,,,190.00061074085534,None,191.10044989315793,None,192.03356135915965,None,1.343915343915344,0.6994606289081275,192.03356135915965,None,,,,,,,,,,,130,001,2023_Nov_07_1233,Localization_IfspeechCrashes,2021.2.3,60.000299458955226,
midRight,13.0,3,ch1Sound_localizationTask.wav,13.0,"(1142, 878)","(182, -202)",190,-338,,,,,,,,,6,1,43,5,,,,,,,,,,,,,,,,,,,,,,,,,,,,,192.7339430069551,None,193.8337860200554,None,194.7671308820136,None,1.6317460317460317,0.8984292568638921,194.7671308820136,None,,,,,,,,,,,130,001,2023_Nov_07_1233,Localization_IfspeechCrashes,2021.2.3,60.000299458955226,
midLeft,-13.0,2,ch1Sound_localizationTask.wav,-13.0,"(762, 878)","(-198,-202)",-190,-338,,,,,,,,,6,2,44,1,,,,,,,,,,,,,,,,,,,,,,,,,,,,,195.66726153111085,None,196.76716301590204,None,197.70030848914757,None,1.1751322751322753,0.65047367522493,197.70030848914757,None,,,,,,,,,,,130,001,2023_Nov_07_1233,Localization_IfspeechCrashes,2021.2.3,60.000299458955226,
farRight,19.1,4,ch1Sound_localizationTask.wav,19.1,"(1237, 878)","(277,-202)",285,-338,,,,,,,,,6,3,45,6,,,,,,,,,,,,,,,,,,,,,,,,,,,,,198.3673132811673,None,199.46700657112524,None,200.40034672711045,None,1.6058201058201058,0.5826292601414025,200.40034672711045,None,,,,,,,,,,,130,001,2023_Nov_07_1233,Localization_IfspeechCrashes,2021.2.3,60.000299458955226,
center,0.0,6,ch1Sound_localizationTask.wav,0.0,"(952, 878)","(-8,-202)",0,-338,,,,,,,,,6,4,46,3,,,,,,,,,,,,,,,,,,,,,,,,,,,,,200.9839998949319,None,202.08385393489152,None,203.01707320893183,None,1.4,0.8151143011637032,203.01707320893183,None,,,,,,,,,,,130,001,2023_Nov_07_1233,Localization_IfspeechCrashes,2021.2.3,60.000299458955226,
center,0.0,6,ch1Sound_localizationTask.wav,0.0,"(952, 878)","(-8,-202)",0,-338,,,,,,,,,6,5,47,3,,,,,,,,,,,,,,,,,,,,,,,,,,,,,203.83392948796973,None,204.9338718620129,None,205.8669844060205,None,1.3354497354497354,0.5001575741916895,205.8669844060205,None,,,,,,,,,,,130,001,2023_Nov_07_1233,Localization_IfspeechCrashes,2021.2.3,60.000299458955226,
center,0.0,6,ch1Sound_localizationTask.wav,0.0,"(952, 878)","(-8,-202)",0,-338,,,,,,,,,6,6,48,3,,,,,,,,,,,,,,,,,,,,,,,,,,,,,206.36730151204392,None,207.46710990788415,None,208.40045144874603,None,1.337037037037037,0.4998629172332585,208.40045144874603,None,,,,,,,,,,,130,001,2023_Nov_07_1233,Localization_IfspeechCrashes,2021.2.3,60.000299458955226,
farRight,19.1,4,ch1Sound_localizationTask.wav,19.1,"(1237, 878)","(277,-202)",285,-338,,,,,,,,,7,0,49,6,,,,,,,,,,,,,,,,,,,,,,,,,,,,,208.90071699488908,None,210.00045861676335,None,210.93387675192207,None,1.6603174603174602,0.5994014837779105,210.93387675192207,None,,,,,,,,,,,130,001,2023_Nov_07_1233,Localization_IfspeechCrashes,2021.2.3,60.000299458955226,
farLeft,-19.1,5,ch1Sound_localizationTask.wav,-19.1,"(667, 878)","(-293,-202)",-285,-338,,,,,,,,,7,1,50,0,,,,,,,,,,,,,,,,,,,,,,,,,,,,,211.53481669398025,None,212.6336251301691,None,213.56723825493827,None,1.3206349206349206,0.5149870510213077,213.56723825493827,None,,,,,,,,,,,130,001,2023_Nov_07_1233,Localization_IfspeechCrashes,2021.2.3,60.000299458955226,
nearLeft,-6.5,1,ch1Sound_localizationTask.wav,-6.5,"(857, 878)","(-103,-202)",-95,-338,,,,,,,,,7,2,51,2,,,,,,,,,,,,,,,,,,,,,,,,,,,,,214.0840390501544,None,215.18399354675785,None,216.11710996180773,None,1.6634920634920634,0.7152090822346509,216.11710996180773,None,,,,,,,,,,,130,001,2023_Nov_07_1233,Localization_IfspeechCrashes,2021.2.3,60.000299458955226,
center,0.0,6,ch1Sound_localizationTask.wav,0.0,"(952, 878)","(-8,-202)",0,-338,,,,,,,,,7,3,52,3,,,,,,,,,,,,,,,,,,,,,,,,,,,,,216.83401876408607,None,217.93389330711216,None,218.86712375003844,None,1.508994708994709,0.8823905419558287,218.86712375003844,None,,,,,,,,,,,130,001,2023_Nov_07_1233,Localization_IfspeechCrashes,2021.2.3,60.000299458955226,
midRight,13.0,3,ch1Sound_localizationTask.wav,13.0,"(1142, 878)","(182, -202)",190,-338,,,,,,,,,7,4,53,5,,,,,,,,,,,,,,,,,,,,,,,,,,,,,219.75067072501406,None,220.8504422819242,None,221.78380168788135,None,1.7068783068783069,0.34954345412552357,221.78380168788135,None,,,,,,,,,,,130,001,2023_Nov_07_1233,Localization_IfspeechCrashes,2021.2.3,60.000299458955226,
nearRight,6.5,0,ch1Sound_localizationTask.wav,6.5,"(1047, 878)","(87, -202)",95,-338,,,,,,,,,7,5,54,4,,,,,,,,,,,,,,,,,,,,,,,,,,,,,222.13401385908946,None,223.23386677913368,None,224.16715930309147,None,1.625925925925926,0.18289077701047063,224.16715930309147,None,,,,,,,,,,,130,001,2023_Nov_07_1233,Localization_IfspeechCrashes,2021.2.3,60.000299458955226,
farLeft,-19.1,5,ch1Sound_localizationTask.wav,-19.1,"(667, 878)","(-293,-202)",-285,-338,,,,,,,,,7,6,55,0,,,,,,,,,,,,,,,,,,,,,,,,,,,,,224.35068206582218,None,225.45052800280973,None,226.3838880797848,None,1.3555555555555556,0.26507849618792534,226.3838880797848,None,,,,,,,,,,,130,001,2023_Nov_07_1233,Localization_IfspeechCrashes,2021.2.3,60.000299458955226,
,,,,,,,,,,,,,,,,,,,,,,,,,,,,,,,,,,,,,,,,,,,,,,,,,,,,,,,,,,,space,9.766181075945497,226.73402016283944,None,,,,,,,130,001,2023_Nov_07_1233,Localization_IfspeechCrashes,2021.2.3,60.000299458955226,
midLeft,-13.0,2,ch1Sound_localizationTask.wav,-13.0,"(762, 878)","(-198,-202)",-190,-338,,,,,,,,,,,,,0,0,0,1,,,,,,,,,,,,,,,,,,,,,,,,,236.53389569791034,None,,,239.5514523619786,None,1.3777777777777778,1.087710989639163,239.5514523619786,None,,,,,226.73402016283944,None,237.53417668491602,None,237.71752136200666,237.7342440788634,130,001,2023_Nov_07_1233,Localization_IfspeechCrashes,2021.2.3,60.000299458955226,
center,0.0,6,ch1Sound_localizationTask.wav,0.0,"(952, 878)","(-8,-202)",0,-338,,,,,,,,,,,,,0,1,1,3,,,,,,,,,,,,,,,,,,,,,,,,,240.6509291077964,None,,,243.66719001391903,None,1.4957671957671956,0.6329915677197278,243.66719001391903,None,,,,,,,241.65078118490055,None,241.8340416997671,241.85071134287864,130,001,2023_Nov_07_1233,Localization_IfspeechCrashes,2021.2.3,60.000299458955226,
midRight,13.0,3,ch1Sound_localizationTask.wav,13.0,"(1142, 878)","(182, -202)",190,-338,,,,,,,,,,,,,0,2,2,5,,,,,,,,,,,,,,,,,,,,,,,,,244.30068835197017,None,,,247.317216780968,None,1.5862433862433862,0.9660303699783981,247.317216780968,None,,,,,,,245.3006927720271,None,245.48401159001514,245.50071959476918,130,001,2023_Nov_07_1233,Localization_IfspeechCrashes,2021.2.3,60.000299458955226,
midRight,13.0,3,ch1Sound_localizationTask.wav,13.0,"(1142, 878)","(182, -202)",190,-338,,,,,,,,,,,,,0,3,3,5,,,,,,,,,,,,,,,,,,,,,,,,,248.28403121884912,None,,,251.3004298810847,None,1.5862433862433862,0.5986832878552377,251.3004298810847,None,,,,,,,249.28408310981467,None,249.46738447481766,249.4840621049516,130,001,2023_Nov_07_1233,Localization_IfspeechCrashes,2021.2.3,60.000299458955226,
midRight,13.0,3,ch1Sound_localizationTask.wav,13.0,"(1142, 878)","(182, -202)",190,-338,,,,,,,,,,,,,0,4,4,5,,,,,,,,,,,,,,,,,,,,,,,,,251.90081007778645,None,,,254.9172467291355,None,1.5952380952380953,0.8159212809987366,254.9172467291355,None,,,,,,,252.90073794173077,None,253.0841193147935,253.10074542975053,130,001,2023_Nov_07_1233,Localization_IfspeechCrashes,2021.2.3,60.000299458955226,
midLeft,-13.0,2,ch1Sound_localizationTask.wav,-13.0,"(762, 878)","(-198,-202)",-190,-338,,,,,,,,,,,,,0,5,5,1,,,,,,,,,,,,,,,,,,,,,,,,,255.73408207809553,None,,,258.7503859610297,None,1.4015873015873015,0.5656856228597462,258.7503859610297,None,,,,,,,256.7341054477729,None,256.91734240204096,256.9340427480638,130,001,2023_Nov_07_1233,Localization_IfspeechCrashes,2021.2.3,60.000299458955226,
nearRight,6.5,0,ch1Sound_localizationTask.wav,6.5,"(1047, 878)","(87, -202)",95,-338,,,,,,,,,,,,,0,6,6,4,,,,,,,,,,,,,,,,,,,,,,,,,259.31753315310925,None,,,262.33393509080634,None,1.5343915343915344,0.6652497653849423,262.33393509080634,None,,,,,,,260.3174312100746,None,260.50073696114123,260.51748224906623,130,001,2023_Nov_07_1233,Localization_IfspeechCrashes,2021.2.3,60.000299458955226,
midLeft,-13.0,2,ch1Sound_localizationTask.wav,-13.0,"(762, 878)","(-198,-202)",-190,-338,,,,,,,,,,,,,1,0,7,1,,,,,,,,,,,,,,,,,,,,,,,,,263.0007801800966,None,,,266.01732179988176,None,1.4063492063492062,0.5988562880083919,266.01732179988176,None,,,,,,,264.0008052480407,None,264.1839968599379,264.200771195814,130,001,2023_Nov_07_1233,Localization_IfspeechCrashes,2021.2.3,60.000299458955226,
farRight,19.1,4,ch1Sound_localizationTask.wav,19.1,"(1237, 878)","(277,-202)",285,-338,,,,,,,,,,,,,1,1,8,6,,,,,,,,,,,,,,,,,,,,,,,,,266.6173805790022,None,,,269.63381266593933,None,1.643915343915344,0.7825317890383303,269.63381266593933,None,,,,,,,267.61742822173983,None,267.80073957610875,267.8174461410381,130,001,2023_Nov_07_1233,Localization_IfspeechCrashes,2021.2.3,60.000299458955226,
center,0.0,6,ch1Sound_localizationTask.wav,0.0,"(952, 878)","(-8,-202)",0,-338,,,,,,,,,,,,,1,2,9,3,,,,,,,,,,,,,,,,,,,,,,,,,270.417403282132,None,,,273.4339248538017,None,1.498941798941799,1.232164385728538,273.4339248538017,None,,,,,,,271.41746246581897,None,271.6007004138082,271.6174698770046,130,001,2023_Nov_07_1233,Localization_IfspeechCrashes,2021.2.3,60.000299458955226,
nearLeft,-6.5,1,ch1Sound_localizationTask.wav,-6.5,"(857, 878)","(-103,-202)",-95,-338,,,,,,,,,,,,,1,3,10,2,,,,,,,,,,,,,,,,,,,,,,,,,274.6673873597756,None,,,277.68386113177985,None,1.4402116402116403,0.6660153651610017,277.68386113177985,None,,,,,,,275.66746202996,None,275.850751766935,275.8674267218448,130,001,2023_Nov_07_1233,Localization_IfspeechCrashes,2021.2.3,60.000299458955226,
farLeft,-19.1,5,ch1Sound_localizationTask.wav,-19.1,"(667, 878)","(-293,-202)",-285,-338,,,,,,,,,,,,,1,4,11,0,,,,,,,,,,,,,,,,,,,,,,,,,278.35074495896697,None,,,281.3672420619987,None,1.3158730158730159,0.1152546382509172,281.3672420619987,None,,,,,,,279.3507939297706,None,279.5341716990806,279.5507998438552,130,001,2023_Nov_07_1233,Localization_IfspeechCrashes,2021.2.3,60.000299458955226,
nearRight,6.5,0,ch1Sound_localizationTask.wav,6.5,"(1047, 878)","(87, -202)",95,-338,,,,,,,,,,,,,1,5,12,4,,,,,,,,,,,,,,,,,,,,,,,,,281.48413253575563,None,,,284.5007042977959,None,1.5455026455026455,0.897653030231595,284.5007042977959,None,,,,,,,282.4841085537337,None,282.6673475741409,282.68407704588026,130,001,2023_Nov_07_1233,Localization_IfspeechCrashes,2021.2.3,60.000299458955226,
center,0.0,6,ch1Sound_localizationTask.wav,0.0,"(952, 878)","(-8,-202)",0,-338,,,,,,,,,,,,,1,6,13,3,,,,,,,,,,,,,,,,,,,,,,,,,285.40080458298326,None,,,288.417391911149,None,1.4835978835978836,0.5493895970284939,288.417391911149,None,,,,,,,286.4007640010677,None,286.5840883697383,286.60080053517595,130,001,2023_Nov_07_1233,Localization_IfspeechCrashes,2021.2.3,60.000299458955226,
midRight,13.0,3,ch1Sound_localizationTask.wav,13.0,"(1142, 878)","(182, -202)",190,-338,,,,,,,,,,,,,2,0,14,5,,,,,,,,,,,,,,,,,,,,,,,,,288.96746362093836,None,,,291.9839515709318,None,1.6052910052910052,0.6506760520860553,291.9839515709318,None,,,,,,,289.9674249398522,None,290.15085157286376,290.16743359994143,130,001,2023_Nov_07_1233,Localization_IfspeechCrashes,2021.2.3,60.000299458955226,
nearLeft,-6.5,1,ch1Sound_localizationTask.wav,-6.5,"(857, 878)","(-103,-202)",-95,-338,,,,,,,,,,,,,2,1,15,2,,,,,,,,,,,,,,,,,,,,,,,,,292.65077051892877,None,,,295.6673463280313,None,1.4365079365079365,0.9154222467914224,295.6673463280313,None,,,,,,,293.65079132001847,None,293.8341714311391,293.8507827599533,130,001,2023_Nov_07_1233,Localization_IfspeechCrashes,2021.2.3,60.000299458955226,
nearLeft,-6.5,1,ch1Sound_localizationTask.wav,-6.5,"(857, 878)","(-103,-202)",-95,-338,,,,,,,,,,,,,2,2,16,2,,,,,,,,,,,,,,,,,,,,,,,,,296.5841355868615,None,,,299.6005539409816,None,1.4386243386243387,1.2492088228464127,299.6005539409816,None,,,,,,,297.58414933877066,None,297.76753202686086,297.78412432875484,130,001,2023_Nov_07_1233,Localization_IfspeechCrashes,2021.2.3,60.000299458955226,
midLeft,-13.0,2,ch1Sound_localizationTask.wav,-13.0,"(762, 878)","(-198,-202)",-190,-338,,,,,,,,,,,,,2,3,17,1,,,,,,,,,,,,,,,,,,,,,,,,,300.85086592892185,None,,,303.8673026910983,None,1.3735449735449734,0.7000887878239155,303.8673026910983,None,,,,,,,301.8507871669717,None,302.03411949891597,302.05077858874574,130,001,2023_Nov_07_1233,Localization_IfspeechCrashes,2021.2.3,60.000299458955226,
center,0.0,6,ch1Sound_localizationTask.wav,0.0,"(952, 878)","(-8,-202)",0,-338,,,,,,,,,,,,,2,4,18,3,,,,,,,,,,,,,,,,,,,,,,,,,304.56812002602965,None,,,307.58397750603035,None,1.4783068783068782,0.5493351798504591,307.58397750603035,None,,,,,,,305.5674454830587,None,305.75083040399477,305.7674400610849,130,001,2023_Nov_07_1233,Localization_IfspeechCrashes,2021.2.3,60.000299458955226,
midLeft,-13.0,2,ch1Sound_localizationTask.wav,-13.0,"(762, 878)","(-198,-202)",-190,-338,,,,,,,,,,,,,2,5,19,1,,,,,,,,,,,,,,,,,,,,,,,,,308.1341440360993,None,,,311.15063884388655,None,1.3735449735449734,0.6493641422130167,311.15063884388655,None,,,,,,,309.1341328639537,None,309.3174315011129,309.33415025891736,130,001,2023_Nov_07_1233,Localization_IfspeechCrashes,2021.2.3,60.000299458955226,
center,0.0,6,ch1Sound_localizationTask.wav,0.0,"(952, 878)","(-8,-202)",0,-338,,,,,,,,,,,,,2,6,20,3,,,,,,,,,,,,,,,,,,,,,,,,,311.8008225369267,None,,,314.8172351727262,None,1.4873015873015873,0.7327644852921367,314.8172351727262,None,,,,,,,312.8008199087344,None,312.98418603418395,313.0008282158524,130,001,2023_Nov_07_1233,Localization_IfspeechCrashes,2021.2.3,60.000299458955226,
nearRight,6.5,0,ch1Sound_localizationTask.wav,6.5,"(1047, 878)","(87, -202)",95,-338,,,,,,,,,,,,,3,0,21,4,,,,,,,,,,,,,,,,,,,,,,,,,315.5508225020021,None,,,318.5674194507301,None,1.5497354497354499,0.43257447704672813,318.5674194507301,None,,,,,,,316.55080094514415,None,316.7341203610413,316.75084240175784,130,001,2023_Nov_07_1233,Localization_IfspeechCrashes,2021.2.3,60.000299458955226,
nearLeft,-6.5,1,ch1Sound_localizationTask.wav,-6.5,"(857, 878)","(-103,-202)",-95,-338,,,,,,,,,,,,,3,1,22,2,,,,,,,,,,,,,,,,,,,,,,,,,319.0011880621314,None,,,322.01717614009976,None,1.4063492063492062,0.8156197811476886,322.01717614009976,None,,,,,,,320.0008548027836,None,320.18415385484695,320.20081688510254,130,001,2023_Nov_07_1233,Localization_IfspeechCrashes,2021.2.3,60.000299458955226,
center,0.0,6,ch1Sound_localizationTask.wav,0.0,"(952, 878)","(-8,-202)",0,-338,,,,,,,,,,,,,3,2,23,3,,,,,,,,,,,,,,,,,,,,,,,,,322.83418277511373,None,,,325.85053387191147,None,1.483068783068783,0.48216284485533834,325.85053387191147,None,,,,,,,323.8341457499191,None,324.01758489897475,324.03412087401375,130,001,2023_Nov_07_1233,Localization_IfspeechCrashes,2021.2.3,60.000299458955226,
center,0.0,6,ch1Sound_localizationTask.wav,0.0,"(952, 878)","(-8,-202)",0,-338,,,,,,,,,,,,,3,3,24,3,,,,,,,,,,,,,,,,,,,,,,,,,326.3341750539839,None,,,329.3506024288945,None,1.4925925925925925,0.5163150378502905,329.3506024288945,None,,,,,,,327.3341517751105,None,327.5174993937835,327.5341404550709,130,001,2023_Nov_07_1233,Localization_IfspeechCrashes,2021.2.3,60.000299458955226,
nearLeft,-6.5,1,ch1Sound_localizationTask.wav,-6.5,"(857, 878)","(-103,-202)",-95,-338,,,,,,,,,,,,,3,4,25,2,,,,,,,,,,,,,,,,,,,,,,,,,329.86749058403075,None,,,332.8840644690208,None,1.416931216931217,0.4836489763110876,332.8840644690208,None,,,,,,,330.8674968588166,None,331.05085466383025,331.0674899057485,130,001,2023_Nov_07_1233,Localization_IfspeechCrashes,2021.2.3,60.000299458955226,
midLeft,-13.0,2,ch1Sound_localizationTask.wav,-13.0,"(762, 878)","(-198,-202)",-190,-338,,,,,,,,,,,,,3,5,26,1,,,,,,,,,,,,,,,,,,,,,,,,,333.36777639202774,None,,,336.3840774940327,None,1.4047619047619047,0.5859051854349673,336.3840774940327,None,,,,,,,334.3674768479541,None,334.55098326085135,334.56748301303014,130,001,2023_Nov_07_1233,Localization_IfspeechCrashes,2021.2.3,60.000299458955226,
midRight,13.0,3,ch1Sound_localizationTask.wav,13.0,"(1142, 878)","(182, -202)",190,-338,,,,,,,,,,,,,3,6,27,5,,,,,,,,,,,,,,,,,,,,,,,,,336.98493300704286,None,,,340.00070642493665,None,1.6216931216931219,0.9990879856050014,340.00070642493665,None,,,,,,,337.9842418981716,None,338.16753623075783,338.1842904239893,130,001,2023_Nov_07_1233,Localization_IfspeechCrashes,2021.2.3,60.000299458955226,
midRight,13.0,3,ch1Sound_localizationTask.wav,13.0,"(1142, 878)","(182, -202)",190,-338,,,,,,,,,,,,,4,0,28,5,,,,,,,,,,,,,,,,,,,,,,,,,341.0008722068742,None,,,344.01721677184105,None,1.6015873015873017,0.582537158858031,344.01721677184105,None,,,,,,,342.00085929594934,None,342.18418487301096,342.2008592267521,130,001,2023_Nov_07_1233,Localization_IfspeechCrashes,2021.2.3,60.000299458955226,
nearRight,6.5,0,ch1Sound_localizationTask.wav,6.5,"(1047, 878)","(87, -202)",95,-338,,,,,,,,,,,,,4,1,29,4,,,,,,,,,,,,,,,,,,,,,,,,,344.600855703,None,,,347.6174448938109,None,1.5386243386243388,0.5160374739207327,347.6174448938109,None,,,,,,,345.60085696494207,None,345.78414058405906,345.8008779780939,130,001,2023_Nov_07_1233,Localization_IfspeechCrashes,2021.2.3,60.000299458955226,
farLeft,-19.1,5,ch1Sound_localizationTask.wav,-19.1,"(667, 878)","(-293,-202)",-285,-338,,,,,,,,,,,,,4,2,30,0,,,,,,,,,,,,,,,,,,,,,,,,,348.13417614717036,None,,,351.15068790502846,None,1.334920634920635,1.0156628568656743,351.15068790502846,None,,,,,,,349.13421202404425,None,349.31749319285154,349.33419361617416,130,001,2023_Nov_07_1233,Localization_IfspeechCrashes,2021.2.3,60.000299458955226,
farRight,19.1,4,ch1Sound_localizationTask.wav,19.1,"(1237, 878)","(277,-202)",285,-338,,,,,,,,,,,,,4,3,31,6,,,,,,,,,,,,,,,,,,,,,,,,,352.1675931881182,None,,,355.1840644418262,None,1.6486772486772487,0.8494143970310688,355.1840644418262,None,,,,,,,353.16756441490725,None,353.35083612287417,353.3675732729025,130,001,2023_Nov_07_1233,Localization_IfspeechCrashes,2021.2.3,60.000299458955226,
farRight,19.1,4,ch1Sound_localizationTask.wav,19.1,"(1237, 878)","(277,-202)",285,-338,,,,,,,,,,,,,4,4,32,6,,,,,,,,,,,,,,,,,,,,,,,,,356.034270811826,None,,,359.0505331601016,None,1.6386243386243386,0.6491378089413047,359.0505331601016,None,,,,,,,357.0342139308341,None,357.2175226700492,357.23418819718063,130,001,2023_Nov_07_1233,Localization_IfspeechCrashes,2021.2.3,60.000299458955226,
farRight,19.1,4,ch1Sound_localizationTask.wav,19.1,"(1237, 878)","(277,-202)",285,-338,,,,,,,,,,,,,4,5,33,6,,,,,,,,,,,,,,,,,,,,,,,,,359.7008593007922,None,,,362.7173363240436,None,1.6777777777777778,0.5491987951099873,362.7173363240436,None,,,,,,,360.700896281749,None,360.88426095293835,360.9008944411762,130,001,2023_Nov_07_1233,Localization_IfspeechCrashes,2021.2.3,60.000299458955226,
farRight,19.1,4,ch1Sound_localizationTask.wav,19.1,"(1237, 878)","(277,-202)",285,-338,,,,,,,,,,,,,4,6,34,6,,,,,,,,,,,,,,,,,,,,,,,,,363.26748608099297,None,,,366.28409953508526,None,1.6502645502645503,0.5993737620301545,366.28409953508526,None,,,,,,,364.2677536639385,None,364.45090319914743,364.46752787800506,130,001,2023_Nov_07_1233,Localization_IfspeechCrashes,2021.2.3,60.000299458955226,
farLeft,-19.1,5,ch1Sound_localizationTask.wav,-19.1,"(667, 878)","(-293,-202)",-285,-338,,,,,,,,,,,,,5,0,35,0,,,,,,,,,,,,,,,,,,,,,,,,,366.8842010498047,None,,,369.9007199630141,None,1.3338624338624339,1.165959944948554,369.9007199630141,None,,,,,,,367.8841875400394,None,368.0675488091074,368.0842322059907,130,001,2023_Nov_07_1233,Localization_IfspeechCrashes,2021.2.3,60.000299458955226,
midLeft,-13.0,2,ch1Sound_localizationTask.wav,-13.0,"(762, 878)","(-198,-202)",-190,-338,,,,,,,,,,,,,5,1,36,1,,,,,,,,,,,,,,,,,,,,,,,,,371.06758982501924,None,,,374.084079018794,None,1.3714285714285714,0.7996464022435248,374.084079018794,None,,,,,,,372.06750044506043,None,372.25090834405273,372.2675640070811,130,001,2023_Nov_07_1233,Localization_IfspeechCrashes,2021.2.3,60.000299458955226,
nearLeft,-6.5,1,ch1Sound_localizationTask.wav,-6.5,"(857, 878)","(-103,-202)",-95,-338,,,,,,,,,,,,,5,2,37,2,,,,,,,,,,,,,,,,,,,,,,,,,374.884276160039,None,,,377.90066657494754,None,1.4555555555555555,0.5321773942559958,377.90066657494754,None,,,,,,,375.8842449481599,None,376.0675976318307,376.0843726079911,130,001,2023_Nov_07_1233,Localization_IfspeechCrashes,2021.2.3,60.000299458955226,
nearRight,6.5,0,ch1Sound_localizationTask.wav,6.5,"(1047, 878)","(87, -202)",95,-338,,,,,,,,,,,,,5,3,38,4,,,,,,,,,,,,,,,,,,,,,,,,,378.43423325708136,None,,,381.45056461775675,None,1.5423280423280423,1.0493893311358988,381.45056461775675,None,,,,,,,379.43432995676994,None,379.61763080814853,379.6342466780916,130,001,2023_Nov_07_1233,Localization_IfspeechCrashes,2021.2.3,60.000299458955226,
midRight,13.0,3,ch1Sound_localizationTask.wav,13.0,"(1142, 878)","(182, -202)",190,-338,,,,,,,,,,,,,5,4,39,5,,,,,,,,,,,,,,,,,,,,,,,,,382.501066041179,None,,,385.5174042331055,None,1.591005291005291,0.9830592372454703,385.5174042331055,None,,,,,,,383.50099305575714,None,383.6842622179538,383.7009065449238,130,001,2023_Nov_07_1233,Localization_IfspeechCrashes,2021.2.3,60.000299458955226,
farLeft,-19.1,5,ch1Sound_localizationTask.wav,-19.1,"(667, 878)","(-293,-202)",-285,-338,,,,,,,,,,,,,5,5,40,0,,,,,,,,,,,,,,,,,,,,,,,,,386.5009764148854,None,,,389.51742233289406,None,1.308994708994709,1.3653119443915784,389.51742233289406,None,,,,,,,387.5008460399695,None,387.68427851982415,387.70106029184535,130,001,2023_Nov_07_1233,Localization_IfspeechCrashes,2021.2.3,60.000299458955226,
center,0.0,6,ch1Sound_localizationTask.wav,0.0,"(952, 878)","(-8,-202)",0,-338,,,,,,,,,,,,,5,6,41,3,,,,,,,,,,,,,,,,,,,,,,,,,390.88427779311314,None,,,393.90078827086836,None,1.482010582010582,1.1153770238161087,393.90078827086836,None,,,,,,,391.8842881130986,None,392.0675400928594,392.0842823558487,130,001,2023_Nov_07_1233,Localization_IfspeechCrashes,2021.2.3,60.000299458955226,
nearRight,6.5,0,ch1Sound_localizationTask.wav,6.5,"(1047, 878)","(87, -202)",95,-338,,,,,,,,,,,,,6,0,42,4,,,,,,,,,,,,,,,,,,,,,,,,,395.0175767429173,None,,,398.0340692619793,None,1.5492063492063493,0.7330164229497313,398.0340692619793,None,,,,,,,396.0176210729405,None,396.20130847999826,396.217600914184,130,001,2023_Nov_07_1233,Localization_IfspeechCrashes,2021.2.3,60.000299458955226,
farLeft,-19.1,5,ch1Sound_localizationTask.wav,-19.1,"(667, 878)","(-293,-202)",-285,-338,,,,,,,,,,,,,6,1,43,0,,,,,,,,,,,,,,,,,,,,,,,,,398.767601409927,None,,,401.784029180184,None,1.33015873015873,0.9495605072006583,401.784029180184,None,,,,,,,399.76785307517275,None,399.9510442400351,399.96763915987685,130,001,2023_Nov_07_1233,Localization_IfspeechCrashes,2021.2.3,60.000299458955226,
nearRight,6.5,0,ch1Sound_localizationTask.wav,6.5,"(1047, 878)","(87, -202)",95,-338,,,,,,,,,,,,,6,2,44,4,,,,,,,,,,,,,,,,,,,,,,,,,402.7342767608352,None,,,405.75076323887333,None,1.5555555555555556,1.2819536528550088,405.75076323887333,None,,,,,,,403.7342686560005,None,403.91761110397056,403.93427833588794,130,001,2023_Nov_07_1233,Localization_IfspeechCrashes,2021.2.3,60.000299458955226,
nearRight,6.5,0,ch1Sound_localizationTask.wav,6.5,"(1047, 878)","(87, -202)",95,-338,,,,,,,,,,,,,6,3,45,4,,,,,,,,,,,,,,,,,,,,,,,,,407.0342744397931,None,,,410.05058311484754,None,1.5322751322751322,0.8658334920182824,410.05058311484754,None,,,,,,,408.03421847103164,None,408.2177086090669,408.23427387000993,130,001,2023_Nov_07_1233,Localization_IfspeechCrashes,2021.2.3,60.000299458955226,
farLeft,-19.1,5,ch1Sound_localizationTask.wav,-19.1,"(667, 878)","(-293,-202)",-285,-338,,,,,,,,,,,,,6,4,46,0,,,,,,,,,,,,,,,,,,,,,,,,,410.9176168399863,None,,,413.93426869018003,None,1.3248677248677247,1.2317597740329802,413.93426869018003,None,,,,,,,411.9175937487744,None,412.1009701360017,412.1175958788954,130,001,2023_Nov_07_1233,Localization_IfspeechCrashes,2021.2.3,60.000299458955226,
farRight,19.1,4,ch1Sound_localizationTask.wav,19.1,"(1237, 878)","(277,-202)",285,-338,,,,,,,,,,,,,6,5,47,6,,,,,,,,,,,,,,,,,,,,,,,,,415.16760314488783,None,,,418.18415420874953,None,1.492063492063492,2.966285021044314,418.18415420874953,None,,,,,,,416.1675932370126,None,416.3509281119332,416.36756848776713,130,001,2023_Nov_07_1233,Localization_IfspeechCrashes,2021.2.3,60.000299458955226,
farRight,19.1,4,ch1Sound_localizationTask.wav,19.1,"(1237, 878)","(277,-202)",285,-338,,,,,,,,,,,,,6,6,48,6,,,,,,,,,,,,,,,,,,,,,,,,,421.15098100714386,None,,,424.1674540787935,None,1.625925925925926,1.2666095616295934,424.1674540787935,None,,,,,,,422.1509822718799,None,422.33426997391507,422.3509765039198,130,001,2023_Nov_07_1233,Localization_IfspeechCrashes,2021.2.3,60.000299458955226,
farLeft,-19.1,5,ch1Sound_localizationTask.wav,-19.1,"(667, 878)","(-293,-202)",-285,-338,,,,,,,,,,,,,7,0,49,0,,,,,,,,,,,,,,,,,,,,,,,,,425.4346641888842,None,,,428.45079910196364,None,1.298941798941799,0.49936825642362237,428.45079910196364,None,,,,,,,426.43420116975904,None,426.6176411751658,426.63424362102523,130,001,2023_Nov_07_1233,Localization_IfspeechCrashes,2021.2.3,60.000299458955226,
midLeft,-13.0,2,ch1Sound_localizationTask.wav,-13.0,"(762, 878)","(-198,-202)",-190,-338,,,,,,,,,,,,,7,1,50,1,,,,,,,,,,,,,,,,,,,,,,,,,428.95096101006493,None,,,431.9674848020077,None,1.4042328042328043,0.6153810927644372,431.9674848020077,None,,,,,,,429.9510481231846,None,430.13432262977585,430.15095834387466,130,001,2023_Nov_07_1233,Localization_IfspeechCrashes,2021.2.3,60.000299458955226,
farLeft,-19.1,5,ch1Sound_localizationTask.wav,-19.1,"(667, 878)","(-293,-202)",-285,-338,,,,,,,,,,,,,7,2,51,0,,,,,,,,,,,,,,,,,,,,,,,,,432.5843135858886,None,,,435.60081283794716,None,1.28994708994709,0.5819908180274069,435.60081283794716,None,,,,,,,433.5843062698841,None,433.76768789300695,433.7842968660407,130,001,2023_Nov_07_1233,Localization_IfspeechCrashes,2021.2.3,60.000299458955226,
midRight,13.0,3,ch1Sound_localizationTask.wav,13.0,"(1142, 878)","(182, -202)",190,-338,,,,,,,,,,,,,7,3,52,5,,,,,,,,,,,,,,,,,,,,,,,,,436.1842672578059,None,,,439.20078085316345,None,1.5989417989417989,0.8826455231755972,439.20078085316345,None,,,,,,,437.1842709691264,None,437.36766388779506,437.3842858779244,130,001,2023_Nov_07_1233,Localization_IfspeechCrashes,2021.2.3,60.000299458955226,
farRight,19.1,4,ch1Sound_localizationTask.wav,19.1,"(1237, 878)","(277,-202)",285,-338,,,,,,,,,,,,,7,4,53,6,,,,,,,,,,,,,,,,,,,,,,,,,440.08441970683634,None,,,443.10093048075214,None,1.6074074074074074,0.5485858130268753,443.10093048075214,None,,,,,,,441.08461890602484,None,441.267700035125,441.28437148593366,130,001,2023_Nov_07_1233,Localization_IfspeechCrashes,2021.2.3,60.000299458955226,
nearLeft,-6.5,1,ch1Sound_localizationTask.wav,-6.5,"(857, 878)","(-103,-202)",-95,-338,,,,,,,,,,,,,7,5,54,2,,,,,,,,,,,,,,,,,,,,,,,,,443.65102369105443,None,,,446.66770810773596,None,1.4195767195767197,0.5995488977059722,446.66770810773596,None,,,,,,,444.65099560515955,None,444.83435182180256,444.8510255869478,130,001,2023_Nov_07_1233,Localization_IfspeechCrashes,2021.2.3,60.000299458955226,
nearLeft,-6.5,1,ch1Sound_localizationTask.wav,-6.5,"(857, 878)","(-103,-202)",-95,-338,,,,,,,,,,,,,7,6,55,2,,,,,,,,,,,,,,,,,,,,,,,,,447.2677230760455,None,,,450.28416307875887,None,1.439153439153439,0.5996805680915713,450.28416307875887,None,,,,,,,448.2676761210896,None,448.4509917018004,448.4676685850136,130,001,2023_Nov_07_1233,Localization_IfspeechCrashes,2021.2.3,60.000299458955226,
