{"meta_data":{"additional_headers":{},"game_name":"Recollect","version":"2.53.01","user_name":"131","organization":"braingamecenter","study":"mpl2_2022_11","session_number":0,"device_id":"74342D95-EE82-45E3-8ADF-48FB3203C5DD"},"data":[{"stage":"Practice","trial":0,"sequence":"6F","letter_input":"F","number_input":"6","is_correct":true,"presentation_start_time":1699486737594.32,"presentation_end_time":1699486740596.57,"response_time":1699486748692.38},{"stage":"Practice","trial":1,"sequence":"G4","letter_input":"G","number_input":"4","is_correct":true,"presentation_start_time":1699486750223.5,"presentation_end_time":1699486753225.64,"response_time":1699486759887.11},{"stage":"Practice","trial":2,"sequence":"3W5","letter_input":"W","number_input":"5","is_correct":false,"presentation_start_time":1699486761419.87,"presentation_end_time":1699486765921.56,"response_time":1699486770716.96},{"stage":"Practice","trial":3,"sequence":"T7L","letter_input":"LT","number_input":"7","is_correct":true,"presentation_start_time":1699486773749.19,"presentation_end_time":1699486778250.82,"response_time":1699486787894.52},{"stage":"Practice","trial":4,"sequence":"9J1","letter_input":"J","number_input":"19","is_correct":true,"presentation_start_time":1699486789427.25,"presentation_end_time":1699486793929.17,"response_time":1699486799957.23},{"stage":"Calibration","trial":0,"sequence":"E3","letter_input":"E","number_input":"3","is_correct":true,"presentation_start_time":1699486804988.86,"presentation_end_time":1699486807991.05,"response_time":1699486812686.37},{"stage":"Calibration","trial":1,"sequence":"5F","letter_input":"F","number_input":"5","is_correct":true,"presentation_start_time":1699486814219.06,"presentation_end_time":1699486817221.25,"response_time":1699486821400.09},{"stage":"Calibration","trial":2,"sequence":"T8Q","letter_input":"QT","number_input":"8","is_correct":true,"presentation_start_time":1699486822932.9,"presentation_end_time":1699486827434.52,"response_time":1699486843992.68},{"stage":"Calibration","trial":3,"sequence":"9S1","letter_input":"S","number_input":"19","is_correct":true,"presentation_start_time":1699486845525.38,"presentation_end_time":1699486850027.09,"response_time":1699486855772.18},{"stage":"Calibration","trial":4,"sequence":"Z6G3","letter_input":"G","number_input":"36","is_correct":false,"presentation_start_time":1699486857304.85,"presentation_end_time":1699486863306.03,"response_time":1699486867234.97},{"stage":"Calibration","trial":5,"sequence":"5V1C","letter_input":"CV","number_input":"15","is_correct":true,"presentation_start_time":1699486868767.74,"presentation_end_time":1699486874769.01,"response_time":1699486885779.04},{"stage":"Calibration","trial":6,"sequence":"L8D6Z","letter_input":"CL","number_input":"68","is_correct":false,"presentation_start_time":1699486887311.71,"presentation_end_time":1699486894812.35,"response_time":1699486911737.15},{"stage":"Calibration","trial":7,"sequence":"2Q7M5","letter_input":"QMT","number_input":"57","is_correct":false,"presentation_start_time":1699486913269.69,"presentation_end_time":1699486920770.39,"response_time":1699486950574.26}]}