{"meta_data":{"additional_headers":{},"game_name":"Recollect","version":"2.53.01","user_name":"131","organization":"braingamecenter","study":"mpl2_2022_11","session_number":0,"device_id":"74342D95-EE82-45E3-8ADF-48FB3203C5DD"},"data":[{"trial":0,"action":1,"button_pressed":1,"time_out":false,"dwell_time":31.4189453125,"response_time":1699486528282.78},{"trial":0,"action":1,"button_pressed":5,"time_out":false,"dwell_time":80.565185546875,"response_time":1699486529065.38},{"trial":0,"action":9,"button_pressed":-1,"time_out":false,"dwell_time":72.9521484375,"response_time":1699486529873.05},{"trial":1,"action":1,"button_pressed":1,"time_out":false,"dwell_time":30.697998046875,"response_time":1699486539545.02},{"trial":1,"action":1,"button_pressed":6,"time_out":false,"dwell_time":30.153076171875,"response_time":1699486540128.06},{"trial":1,"action":1,"button_pressed":8,"time_out":false,"dwell_time":63.573974609375,"response_time":1699486540593.83},{"trial":1,"action":9,"button_pressed":-1,"time_out":false,"dwell_time":82.217041015625,"response_time":1699486541278.51},{"trial":2,"action":1,"button_pressed":10,"time_out":false,"dwell_time":64.7568359375,"response_time":1699486553190.8},{"trial":2,"action":1,"button_pressed":3,"time_out":false,"dwell_time":81.22998046875,"response_time":1699486553607.09},{"trial":2,"action":1,"button_pressed":6,"time_out":false,"dwell_time":64.595947265625,"response_time":1699486553957.09},{"trial":2,"action":1,"button_pressed":8,"time_out":false,"dwell_time":63.859130859375,"response_time":1699486554523.29},{"trial":2,"action":9,"button_pressed":-1,"time_out":false,"dwell_time":64.625,"response_time":1699486555239.79},{"trial":3,"action":1,"button_pressed":6,"time_out":false,"dwell_time":81.281005859375,"response_time":1699486569602.09},{"trial":3,"action":1,"button_pressed":3,"time_out":false,"dwell_time":79.806884765625,"response_time":1699486569967.65},{"trial":3,"action":1,"button_pressed":8,"time_out":false,"dwell_time":97.185791015625,"response_time":1699486571151.42},{"trial":3,"action":1,"button_pressed":11,"time_out":false,"dwell_time":64.652099609375,"response_time":1699486571901.01},{"trial":3,"action":1,"button_pressed":0,"time_out":false,"dwell_time":80.52587890625,"response_time":1699486572583.51},{"trial":3,"action":9,"button_pressed":-1,"time_out":false,"dwell_time":81.4912109375,"response_time":1699486573083.79},{"trial":4,"action":1,"button_pressed":6,"time_out":false,"dwell_time":47.818115234375,"response_time":1699486589695.74},{"trial":4,"action":1,"button_pressed":5,"time_out":false,"dwell_time":80.653076171875,"response_time":1699486590561.52},{"trial":4,"action":1,"button_pressed":0,"time_out":false,"dwell_time":63.62890625,"response_time":1699486591210.51},{"trial":4,"action":1,"button_pressed":11,"time_out":false,"dwell_time":48.162841796875,"response_time":1699486592661.19},{"trial":4,"action":1,"button_pressed":8,"time_out":false,"dwell_time":96.421142578125,"response_time":1699486593310.03},{"trial":4,"action":1,"button_pressed":4,"time_out":false,"dwell_time":47.1220703125,"response_time":1699486593793.69},{"trial":4,"action":9,"button_pressed":-1,"time_out":false,"dwell_time":47.682861328125,"response_time":1699486594510.65},{"trial":5,"action":1,"button_pressed":7,"time_out":false,"dwell_time":48.713134765625,"response_time":1699486614737.66},{"trial":5,"action":1,"button_pressed":4,"time_out":false,"dwell_time":79.73193359375,"response_time":1699486616802.18},{"trial":5,"action":1,"button_pressed":1,"time_out":false,"dwell_time":63.13916015625,"response_time":1699486617385.31},{"trial":5,"action":1,"button_pressed":11,"time_out":false,"dwell_time":30.85595703125,"response_time":1699486619101.78},{"trial":5,"action":1,"button_pressed":8,"time_out":false,"dwell_time":97.13916015625,"response_time":1699486620167.76},{"trial":5,"action":1,"button_pressed":2,"time_out":false,"dwell_time":98.197021484375,"response_time":1699486620818.25},{"trial":5,"action":1,"button_pressed":6,"time_out":false,"dwell_time":64.419921875,"response_time":1699486621351.41},{"trial":5,"action":9,"button_pressed":-1,"time_out":false,"dwell_time":65.48388671875,"response_time":1699486622152.6},{"trial":6,"action":1,"button_pressed":8,"time_out":false,"dwell_time":130.653076171875,"response_time":1699486642360.73},{"trial":6,"action":1,"button_pressed":5,"time_out":false,"dwell_time":81.348876953125,"response_time":1699486642944.62},{"trial":6,"action":1,"button_pressed":6,"time_out":false,"dwell_time":114.534912109375,"response_time":1699486643660.84},{"trial":6,"action":1,"button_pressed":3,"time_out":false,"dwell_time":79.885009765625,"response_time":1699486644443.1},{"trial":6,"action":1,"button_pressed":1,"time_out":false,"dwell_time":163.827880859375,"response_time":1699486645026.18},{"trial":6,"action":1,"button_pressed":0,"time_out":false,"dwell_time":80.0439453125,"response_time":1699486645976.06},{"trial":6,"action":1,"button_pressed":11,"time_out":false,"dwell_time":63.255859375,"response_time":1699486647592.07},{"trial":6,"action":9,"button_pressed":-1,"time_out":false,"dwell_time":64.651123046875,"response_time":1699486648575.66},{"trial":7,"action":1,"button_pressed":5,"time_out":false,"dwell_time":63.9560546875,"response_time":1699486663353.55},{"trial":7,"action":1,"button_pressed":9,"time_out":false,"dwell_time":63.517822265625,"response_time":1699486663886.62},{"trial":7,"action":1,"button_pressed":6,"time_out":false,"dwell_time":64.472900390625,"response_time":1699486664170.77},{"trial":7,"action":1,"button_pressed":8,"time_out":false,"dwell_time":48.31298828125,"response_time":1699486664604.32},{"trial":7,"action":1,"button_pressed":7,"time_out":false,"dwell_time":63.547119140625,"response_time":1699486665152.89},{"trial":7,"action":9,"button_pressed":-1,"time_out":false,"dwell_time":48.31103515625,"response_time":1699486665871.07},{"trial":8,"action":1,"button_pressed":5,"time_out":false,"dwell_time":47.694091796875,"response_time":1699486683064.82},{"trial":8,"action":1,"button_pressed":10,"time_out":false,"dwell_time":47.6298828125,"response_time":1699486683531.49},{"trial":8,"action":1,"button_pressed":4,"time_out":false,"dwell_time":64.51806640625,"response_time":1699486683980.63},{"trial":8,"action":1,"button_pressed":7,"time_out":false,"dwell_time":63.18408203125,"response_time":1699486684729.89},{"trial":8,"action":1,"button_pressed":0,"time_out":false,"dwell_time":63.679931640625,"response_time":1699486685362.8},{"trial":8,"action":1,"button_pressed":8,"time_out":false,"dwell_time":47.218994140625,"response_time":1699486685829.89},{"trial":8,"action":9,"button_pressed":-1,"time_out":false,"dwell_time":64.433837890625,"response_time":1699486687562.59},{"trial":9,"action":1,"button_pressed":9,"time_out":false,"dwell_time":46.844970703125,"response_time":1699486705556.78},{"trial":9,"action":1,"button_pressed":0,"time_out":false,"dwell_time":64.841064453125,"response_time":1699486706573.36},{"trial":9,"action":1,"button_pressed":1,"time_out":false,"dwell_time":80.725830078125,"response_time":1699486707055.86},{"trial":9,"action":1,"button_pressed":8,"time_out":false,"dwell_time":64.120849609375,"response_time":1699486707655.86},{"trial":9,"action":1,"button_pressed":11,"time_out":false,"dwell_time":47.6328125,"response_time":1699486708173.24},{"trial":9,"action":1,"button_pressed":6,"time_out":false,"dwell_time":81.296875,"response_time":1699486708739.4},{"trial":9,"action":9,"button_pressed":-1,"time_out":false,"dwell_time":97.859130859375,"response_time":1699486709539.53}]}