Audio_Only_Files,Video_Files,Original_Word_List,noiseLevelCode,conditionCodes,noiseLevelFile1,noiseLevelFile2,InstrTextVar,targetSpeakerName,targetSpeakerEccen,targetSpkrChannel,targetSpkrSound,targetVisualDegrees,visStimLoc,visStimLoc2,visStimW,visStimH,practiceTrials.thisRepN,practiceTrials.thisTrialN,practiceTrials.thisN,practiceTrials.thisIndex,trials.thisRepN,trials.thisTrialN,trials.thisN,trials.thisIndex,audLocalLoop.thisRepN,audLocalLoop.thisTrialN,audLocalLoop.thisN,audLocalLoop.thisIndex,visualLocalLoop.thisRepN,visualLocalLoop.thisTrialN,visualLocalLoop.thisN,visualLocalLoop.thisIndex,letsGoAlready.keys,letsGoAlready.rt,letsGoAlready.started,letsGoAlready.stopped,text_2.started,text_2.stopped,text_3.started,text_3.stopped,key_resp_2.keys,key_resp_2.rt,key_resp_2.started,key_resp_2.stopped,text_5.started,text_5.stopped,fixCross.started,fixCross.stopped,fixCross2.started,fixCross2.stopped,answerPrompt.started,answerPrompt.stopped,getAnswer.text,getAnswer.started,getAnswer.stopped,goToNext.keys,goToNext.rt,goToNext.started,goToNext.stopped,stretchBreakTxrt.started,stretchBreakTxrt.stopped,key_resp_3.keys,key_resp_3.rt,key_resp_3.started,key_resp_3.stopped,letsGoLocal.keys,letsGoLocal.rt,letsGoLocal.started,letsGoLocal.stopped,text_4.started,text_4.stopped,prepFixTxt.started,prepFixTxt.stopped,prepFixTxt_2.started,prepFixTxt_2.stopped,respPromptLocal.started,respPromptLocal.stopped,slider.response,slider.rt,slider.started,slider.stopped,letsGoLocal_2.keys,letsGoLocal_2.rt,letsGoLocal_2.started,letsGoLocal_2.stopped,text_7.started,text_7.stopped,prepFixTxt_3.started,prepFixTxt_3.stopped,grating.started,grating.stopped,exitTxt.started,exitTxt.stopped,key_resp.keys,key_resp.rt,key_resp.started,key_resp.stopped,participant,session,date,expName,psychopyVersion,frameRate,
,,,,,,,,,,,,,,,,,,,,,,,,,,,,,,,,,space,4.44267337070778,241.09922009613365,None,,,,,,,,,,,,,,,,,,,,,,,,,,,,,,,,,,,,,,,,,,,,,,,,,,,,,,,,,,,,,,131,001,2023_Nov_08_1641,SpeechDraft1Carolyn_lessNoise_PlusLocalization,2021.2.3,59.08140175364454,
,,,,,,,,,,,,,,,,,,,,,,,,,,,,,,,,,,,,,241.09922009613365,None,245.66545306611806,None,space,10.093074668198824,245.8488067323342,None,,,,,,,,,,,,,,,,,,,,,,,,,,,,,,,,,,,,,,,,,,,,,,,,,,,,,,131,001,2023_Nov_08_1641,SpeechDraft1Carolyn_lessNoise_PlusLocalization,2021.2.3,59.08140175364454,
ash.wav,ash.mpg,ash,1,A,Pink_Noise_1_1.wav,Pink_Noise_1_2.wav,"This is an example of an

AUDIO trial",,,,,,,,,,0,0,0,0,,,,,,,,,,,,,,,,,,,,,,,,,255.9824420339428,None,256.9822253873572,None,260.20227379724383,None,261.5819203532301,None,ash,261.5819203532301,None,return,6.549129298888147,261.648793021217,None,,,,,,,,,,,,,,,,,,,,,,,,,,,,,,,,,,,,,,,131,001,2023_Nov_08_1641,SpeechDraft1Carolyn_lessNoise_PlusLocalization,2021.2.3,59.08140175364454,
ash.wav,ash.mpg,ash,1,AV,Pink_Noise_1_1.wav,Pink_Noise_1_2.wav,"This is an example of an

AUDIO + VIDEO  trial",,,,,,,,,,0,1,1,1,,,,,,,,,,,,,,,,,,,,,,,,,268.2319894749671,None,269.2322194282897,None,270.7152863792144,None,272.09894811734557,None,ash,272.09894811734557,None,return,4.48761591501534,272.18228747695684,None,,,,,,,,,,,,,,,,,,,,,,,,,,,,,,,,,,,,,,,131,001,2023_Nov_08_1641,SpeechDraft1Carolyn_lessNoise_PlusLocalization,2021.2.3,59.08140175364454,
,,,,,,,,,,,,,,,,,,,,,,,,,,,,,,,,,,,,,,,,,,,,,,,,,,,,,,,,,,,,276.71531156124547,None,space,15.155041690915823,276.89880800433457,None,,,,,,,,,,,,,,,,,,,,,,,,,,,,,,,,,131,001,2023_Nov_08_1641,SpeechDraft1Carolyn_lessNoise_PlusLocalization,2021.2.3,59.08140175364454,
blaze.wav,blaze.mpg,blaze,3,AV,Pink_Noise_3_1.wav,Pink_Noise_3_2.wav,,,,,,,,,,,,,,,0,0,0,94,,,,,,,,,,,,,,,,,,,,,,,292.11530345724896,None,293.59870395995677,None,294.98218727624044,None,blaze,294.98218727624044,None,return,10.524277823977172,295.0655783363618,None,,,,,,,,,,,,,,,,,,,,,,,,,,,,,,,,,,,,,,,131,001,2023_Nov_08_1641,SpeechDraft1Carolyn_lessNoise_PlusLocalization,2021.2.3,59.08140175364454,
food.wav,food.mpg,food,2,A,Pink_Noise_2_1.wav,Pink_Noise_2_2.wav,,,,,,,,,,,,,,,0,1,1,10,,,,,,,,,,,,,,,,,,,,,,,305.61564259417355,None,307.1153645860031,None,308.49894659919664,None,food,308.49894659919664,None,return,8.759654093068093,308.582222098019,None,,,,,,,,,,,,,,,,,,,,,,,,,,,,,,,,,,,,,,,131,001,2023_Nov_08_1641,SpeechDraft1Carolyn_lessNoise_PlusLocalization,2021.2.3,59.08140175364454,
claw.wav,claw.mpg,claw,1,AV,Pink_Noise_1_1.wav,Pink_Noise_1_2.wav,,,,,,,,,,,,,,,0,2,2,118,,,,,,,,,,,,,,,,,,,,,,,317.36559014301747,None,318.86545712919906,None,320.2489173170179,None,claw,320.2489173170179,None,return,4.145551274996251,320.33236024994403,None,,,,,,,,,,,,,,,,,,,,,,,,,,,,,,,,,,,,,,,131,001,2023_Nov_08_1641,SpeechDraft1Carolyn_lessNoise_PlusLocalization,2021.2.3,59.08140175364454,
flat.wav,flat.mpg,flat,6,AV,Pink_Noise_6_1.wav,Pink_Noise_6_2.wav,,,,,,,,,,,,,,,0,3,3,66,,,,,,,,,,,,,,,,,,,,,,,324.4990007309243,None,325.99868475832045,None,327.38232724694535,None,fight,327.38232724694535,None,return,3.4123325967229903,327.4655590662733,None,,,,,,,,,,,,,,,,,,,,,,,,,,,,,,,,,,,,,,,131,001,2023_Nov_08_1641,SpeechDraft1Carolyn_lessNoise_PlusLocalization,2021.2.3,59.08140175364454,
ask.wav,ask.mpg,ask,5,AV,Pink_Noise_5_1.wav,Pink_Noise_5_2.wav,,,,,,,,,,,,,,,0,4,4,100,,,,,,,,,,,,,,,,,,,,,,,330.8989899470471,None,332.39870042400435,None,333.78227542107925,None,last,333.78227542107925,None,return,3.6921611591242254,333.8656921130605,None,,,,,,,,,,,,,,,,,,,,,,,,,,,,,,,,,,,,,,,131,001,2023_Nov_08_1641,SpeechDraft1Carolyn_lessNoise_PlusLocalization,2021.2.3,59.08140175364454,
cult.wav,cult.mpg,cult,4,AV,Pink_Noise_4_1.wav,Pink_Noise_4_2.wav,,,,,,,,,,,,,,,0,5,5,85,,,,,,,,,,,,,,,,,,,,,,,337.5823216722347,None,339.0821486613713,None,340.4656460881233,None,"close
",340.4656460881233,None,return,9.200716655701399,340.5491527640261,None,,,,,,,,,,,,,,,,,,,,,,,,,,,,,,,,,,,,,,,131,001,2023_Nov_08_1641,SpeechDraft1Carolyn_lessNoise_PlusLocalization,2021.2.3,59.08140175364454,
broom.wav,broom.mpg,broom,3,A,Pink_Noise_3_1.wav,Pink_Noise_3_2.wav,,,,,,,,,,,,,,,0,6,6,9,,,,,,,,,,,,,,,,,,,,,,,349.78232506802306,None,351.28219638299197,None,352.6657075472176,None,"brew
",352.6657075472176,None,return,4.616818875074387,352.7490551592782,None,,,,,,,,,,,,,,,,,,,,,,,,,,,,,,,,,,,,,,,131,001,2023_Nov_08_1641,SpeechDraft1Carolyn_lessNoise_PlusLocalization,2021.2.3,59.08140175364454,
frail.wav,frail.mpg,frail,4,A,Pink_Noise_4_1.wav,Pink_Noise_4_2.wav,,,,,,,,,,,,,,,0,7,7,23,,,,,,,,,,,,,,,,,,,,,,,357.39899610495195,None,358.8820954672992,None,360.2655801791698,None,relay,360.2655801791698,None,return,20.28084924723953,360.349049160257,None,,,,,,,,,,,,,,,,,,,,,,,,,,,,,,,,,,,,,,,131,001,2023_Nov_08_1641,SpeechDraft1Carolyn_lessNoise_PlusLocalization,2021.2.3,59.08140175364454,
bench.wav,bench.mpg,bench,5,A,Pink_Noise_5_1.wav,Pink_Noise_5_2.wav,,,,,,,,,,,,,,,0,8,8,54,,,,,,,,,,,,,,,,,,,,,,,380.64905075216666,None,382.14879533601925,None,383.53245817730203,None,"finish
",383.53245817730203,None,return,9.302272991742939,383.61559724994004,None,,,,,,,,,,,,,,,,,,,,,,,,,,,,,,,,,,,,,,,131,001,2023_Nov_08_1641,SpeechDraft1Carolyn_lessNoise_PlusLocalization,2021.2.3,59.08140175364454,
bride.wav,bride.mpg,bride,2,A,Pink_Noise_2_1.wav,Pink_Noise_2_2.wav,,,,,,,,,,,,,,,0,9,9,58,,,,,,,,,,,,,,,,,,,,,,,392.94919463200495,None,394.43242334900424,None,395.8157911412418,None,btide,395.8157911412418,None,return,4.690810482017696,395.89907090738416,None,,,,,,,,,,,,,,,,,,,,,,,,,,,,,,,,,,,,,,,131,001,2023_Nov_08_1641,SpeechDraft1Carolyn_lessNoise_PlusLocalization,2021.2.3,59.08140175364454,
wheat.wav,wheat.mpg,wheat,5,AV,Pink_Noise_5_1.wav,Pink_Noise_5_2.wav,,,,,,,,,,,,,,,0,10,10,87,,,,,,,,,,,,,,,,,,,,,,,400.6157837691717,None,402.1154344393872,None,403.49888906022534,None,"wheat
",403.49888906022534,None,return,4.367442870046943,403.58241756400093,None,,,,,,,,,,,,,,,,,,,,,,,,,,,,,,,,,,,,,,,131,001,2023_Nov_08_1641,SpeechDraft1Carolyn_lessNoise_PlusLocalization,2021.2.3,59.08140175364454,
gab.wav,gab.mpg,gab,6,AV,Pink_Noise_6_1.wav,Pink_Noise_6_2.wav,,,,,,,,,,,,,,,0,11,11,115,,,,,,,,,,,,,,,,,,,,,,,407.9824236612767,None,409.4820755389519,None,410.86562732607126,None,gap,410.86562732607126,None,return,3.7207566741853952,410.94912834931165,None,,,,,,,,,,,,,,,,,,,,,,,,,,,,,,,,,,,,,,,131,001,2023_Nov_08_1641,SpeechDraft1Carolyn_lessNoise_PlusLocalization,2021.2.3,59.08140175364454,
phase.wav,phase.mpg,phase,6,AV,Pink_Noise_6_1.wav,Pink_Noise_6_2.wav,,,,,,,,,,,,,,,0,12,12,64,,,,,,,,,,,,,,,,,,,,,,,414.69902994902804,None,416.1821990413591,None,417.56567265605554,None,"friends
",417.56567265605554,None,return,10.668793756980449,417.64906995138153,None,,,,,,,,,,,,,,,,,,,,,,,,,,,,,,,,,,,,,,,131,001,2023_Nov_08_1641,SpeechDraft1Carolyn_lessNoise_PlusLocalization,2021.2.3,59.08140175364454,
style.wav,style.mpg,style,1,A,Pink_Noise_1_1.wav,Pink_Noise_1_2.wav,,,,,,,,,,,,,,,0,13,13,45,,,,,,,,,,,,,,,,,,,,,,,428.34902468696237,None,429.84879325609654,None,431.23250115895644,None,style,431.23250115895644,None,return,3.1941230068914592,431.3157417322509,None,,,,,,,,,,,,,,,,,,,,,,,,,,,,,,,,,,,,,,,131,001,2023_Nov_08_1641,SpeechDraft1Carolyn_lessNoise_PlusLocalization,2021.2.3,59.08140175364454,
chore.wav,chore.mpg,chore,4,AV,Pink_Noise_4_1.wav,Pink_Noise_4_2.wav,,,,,,,,,,,,,,,0,14,14,86,,,,,,,,,,,,,,,,,,,,,,,434.53244328312576,None,436.03216842236,None,437.4156474932097,None,chore,437.4156474932097,None,return,4.298701788298786,437.4992563771084,None,,,,,,,,,,,,,,,,,,,,,,,,,,,,,,,,,,,,,,,131,001,2023_Nov_08_1641,SpeechDraft1Carolyn_lessNoise_PlusLocalization,2021.2.3,59.08140175364454,
grand.wav,grand.mpg,grand,4,A,Pink_Noise_4_1.wav,Pink_Noise_4_2.wav,,,,,,,,,,,,,,,0,15,15,44,,,,,,,,,,,,,,,,,,,,,,,441.81576705304906,None,443.2997577781789,None,444.68249572021887,None,brand,444.68249572021887,None,return,3.9440549332648516,444.7658084402792,None,,,,,,,,,,,,,,,,,,,,,,,,,,,,,,,,,,,,,,,131,001,2023_Nov_08_1641,SpeechDraft1Carolyn_lessNoise_PlusLocalization,2021.2.3,59.08140175364454,
feed.wav,feed.mpg,feed,6,A,Pink_Noise_6_1.wav,Pink_Noise_6_2.wav,,,,,,,,,,,,,,,0,16,16,53,,,,,,,,,,,,,,,,,,,,,,,448.7325413553044,None,450.23228593124077,None,451.615877058357,None,"tgink
",451.615877058357,None,return,4.202674328815192,451.69919669628143,None,,,,,,,,,,,,,,,,,,,,,,,,,,,,,,,,,,,,,,,131,001,2023_Nov_08_1641,SpeechDraft1Carolyn_lessNoise_PlusLocalization,2021.2.3,59.08140175364454,
eat.wav,eat.mpg,eat,1,AV,Pink_Noise_1_1.wav,Pink_Noise_1_2.wav,,,,,,,,,,,,,,,0,17,17,89,,,,,,,,,,,,,,,,,,,,,,,455.9325278461911,None,457.41566440137103,None,458.7989113670774,None,eat,458.7989113670774,None,return,2.7794212088920176,458.8824482341297,None,,,,,,,,,,,,,,,,,,,,,,,,,,,,,,,,,,,,,,,131,001,2023_Nov_08_1641,SpeechDraft1Carolyn_lessNoise_PlusLocalization,2021.2.3,59.08140175364454,
bias.wav,bias.mpg,bias,6,AV,Pink_Noise_6_1.wav,Pink_Noise_6_2.wav,,,,,,,,,,,,,,,0,18,18,117,,,,,,,,,,,,,,,,,,,,,,,461.6825353652239,None,463.1822097110562,None,464.5657820031047,None,waer,464.5657820031047,None,return,2.3326380969956517,464.6492872382514,None,,,,,,,,,,,,,,,,,,,,,,,,,,,,,,,,,,,,,,,131,001,2023_Nov_08_1641,SpeechDraft1Carolyn_lessNoise_PlusLocalization,2021.2.3,59.08140175364454,
folk.wav,folk.mpg,folk,6,A,Pink_Noise_6_1.wav,Pink_Noise_6_2.wav,,,,,,,,,,,,,,,0,19,19,57,,,,,,,,,,,,,,,,,,,,,,,466.9992354940623,None,468.49894161196426,None,469.88265241123736,None,nope,469.88265241123736,None,return,3.895855340640992,469.966005417984,None,,,,,,,,,,,,,,,,,,,,,,,,,,,,,,,,,,,,,,,131,001,2023_Nov_08_1641,SpeechDraft1Carolyn_lessNoise_PlusLocalization,2021.2.3,59.08140175364454,
strive.wav,strive.mpg,strive,2,A,Pink_Noise_2_1.wav,Pink_Noise_2_2.wav,,,,,,,,,,,,,,,0,20,20,39,,,,,,,,,,,,,,,,,,,,,,,473.8827121001668,None,475.3662102082744,None,476.7493053651415,None,strive,476.7493053651415,None,return,3.413448527920991,476.8324823291041,None,,,,,,,,,,,,,,,,,,,,,,,,,,,,,,,,,,,,,,,131,001,2023_Nov_08_1641,SpeechDraft1Carolyn_lessNoise_PlusLocalization,2021.2.3,59.08140175364454,
grab.wav,grab.mpg,grab,5,AV,Pink_Noise_5_1.wav,Pink_Noise_5_2.wav,,,,,,,,,,,,,,,0,21,21,65,,,,,,,,,,,,,,,,,,,,,,,480.2659477451816,None,481.76555436011404,None,483.1491734641604,None,ruin,483.1491734641604,None,return,3.1413293331861496,483.2325249989517,None,,,,,,,,,,,,,,,,,,,,,,,,,,,,,,,,,,,,,,,131,001,2023_Nov_08_1641,SpeechDraft1Carolyn_lessNoise_PlusLocalization,2021.2.3,59.08140175364454,
catch.wav,catch.mpg,catch,5,A,Pink_Noise_5_1.wav,Pink_Noise_5_2.wav,,,,,,,,,,,,,,,0,22,22,21,,,,,,,,,,,,,,,,,,,,,,,486.3990257233381,None,487.88381069898605,None,489.26590347709134,None,catch,489.26590347709134,None,return,5.072764353826642,489.3492191489786,None,,,,,,,,,,,,,,,,,,,,,,,,,,,,,,,,,,,,,,,131,001,2023_Nov_08_1641,SpeechDraft1Carolyn_lessNoise_PlusLocalization,2021.2.3,59.08140175364454,
mars.wav,mars.mpg,mars,2,A,Pink_Noise_2_1.wav,Pink_Noise_2_2.wav,,,,,,,,,,,,,,,0,23,23,8,,,,,,,,,,,,,,,,,,,,,,,494.4492046851665,None,495.9489710130729,None,497.33254205202684,None,mars,497.33254205202684,None,return,2.6620427081361413,497.4158526379615,None,,,,,,,,,,,,,,,,,,,,,,,,,,,,,,,,,,,,,,,131,001,2023_Nov_08_1641,SpeechDraft1Carolyn_lessNoise_PlusLocalization,2021.2.3,59.08140175364454,
none.wav,none.mpg,none,3,A,Pink_Noise_3_1.wav,Pink_Noise_3_2.wav,,,,,,,,,,,,,,,0,24,24,0,,,,,,,,,,,,,,,,,,,,,,,500.0991529012099,None,501.59890130115673,None,502.98262437200174,None,done,502.98262437200174,None,return,5.100007550790906,503.0658659171313,None,,,,,,,,,,,,,,,,,,,,,,,,,,,,,,,,,,,,,,,131,001,2023_Nov_08_1641,SpeechDraft1Carolyn_lessNoise_PlusLocalization,2021.2.3,59.08140175364454,
shed.wav,shed.mpg,shed,6,AV,Pink_Noise_6_1.wav,Pink_Noise_6_2.wav,,,,,,,,,,,,,,,0,25,25,104,,,,,,,,,,,,,,,,,,,,,,,508.18260045722127,None,509.682346586138,None,511.06580629525706,None,"stray
",511.06580629525706,None,return,4.384583773091435,511.14930643932894,None,,,,,,,,,,,,,,,,,,,,,,,,,,,,,,,,,,,,,,,131,001,2023_Nov_08_1641,SpeechDraft1Carolyn_lessNoise_PlusLocalization,2021.2.3,59.08140175364454,
coat.wav,coat.mpg,coat,6,A,Pink_Noise_6_1.wav,Pink_Noise_6_2.wav,,,,,,,,,,,,,,,0,26,26,14,,,,,,,,,,,,,,,,,,,,,,,515.5659839520231,None,517.0656585241668,None,518.4493125672452,None,"wait
",518.4493125672452,None,return,4.3853466380387545,518.532529131975,None,,,,,,,,,,,,,,,,,,,,,,,,,,,,,,,,,,,,,,,131,001,2023_Nov_08_1641,SpeechDraft1Carolyn_lessNoise_PlusLocalization,2021.2.3,59.08140175364454,
dig.wav,dig.mpg,dig,3,AV,Pink_Noise_3_1.wav,Pink_Noise_3_2.wav,,,,,,,,,,,,,,,0,27,27,62,,,,,,,,,,,,,,,,,,,,,,,522.9491968881339,None,524.4489552360028,None,525.8325533359312,None,dig,525.8325533359312,None,return,4.922163664828986,525.9157823482528,None,,,,,,,,,,,,,,,,,,,,,,,,,,,,,,,,,,,,,,,131,001,2023_Nov_08_1641,SpeechDraft1Carolyn_lessNoise_PlusLocalization,2021.2.3,59.08140175364454,
fog.wav,fog.mpg,fog,5,A,Pink_Noise_5_1.wav,Pink_Noise_5_2.wav,,,,,,,,,,,,,,,0,28,28,2,,,,,,,,,,,,,,,,,,,,,,,530.8659857041202,None,532.3657738449983,None,533.7492981650867,None,fall,533.7492981650867,None,return,5.677271986845881,533.832585575059,None,,,,,,,,,,,,,,,,,,,,,,,,,,,,,,,,,,,,,,,131,001,2023_Nov_08_1641,SpeechDraft1Carolyn_lessNoise_PlusLocalization,2021.2.3,59.08140175364454,
deed.wav,deed.mpg,deed,3,A,Pink_Noise_3_1.wav,Pink_Noise_3_2.wav,,,,,,,,,,,,,,,0,29,29,4,,,,,,,,,,,,,,,,,,,,,,,539.5326274563558,None,541.0322666061111,None,542.4160041180439,None,leave,542.4160041180439,None,return,4.906526544131339,542.4993748432025,None,,,,,,,,,,,,,,,,,,,,,,,,,,,,,,,,,,,,,,,131,001,2023_Nov_08_1641,SpeechDraft1Carolyn_lessNoise_PlusLocalization,2021.2.3,59.08140175364454,
dine.wav,dine.mpg,dine,5,AV,Pink_Noise_5_1.wav,Pink_Noise_5_2.wav,,,,,,,,,,,,,,,0,30,30,113,,,,,,,,,,,,,,,,,,,,,,,547.4326037163846,None,548.9168369723484,None,550.2992481789552,None,art,550.2992481789552,None,return,3.359237160999328,550.3826202279888,None,,,,,,,,,,,,,,,,,,,,,,,,,,,,,,,,,,,,,,,131,001,2023_Nov_08_1641,SpeechDraft1Carolyn_lessNoise_PlusLocalization,2021.2.3,59.08140175364454,
coach.wav,coach.mpg,coach,2,AV,Pink_Noise_2_1.wav,Pink_Noise_2_2.wav,,,,,,,,,,,,,,,0,31,31,97,,,,,,,,,,,,,,,,,,,,,,,553.766058050096,None,555.2657245681621,None,556.6491856621578,None,coach,556.6491856621578,None,return,3.93722599837929,556.732635139022,None,,,,,,,,,,,,,,,,,,,,,,,,,,,,,,,,,,,,,,,131,001,2023_Nov_08_1641,SpeechDraft1Carolyn_lessNoise_PlusLocalization,2021.2.3,59.08140175364454,
deck.wav,deck.mpg,deck,6,AV,Pink_Noise_6_1.wav,Pink_Noise_6_2.wav,,,,,,,,,,,,,,,0,32,32,74,,,,,,,,,,,,,,,,,,,,,,,560.6993063469417,None,562.1990096340887,None,563.5828055953607,None,"gasa
",563.5828055953607,None,return,8.035919564776123,563.6659506810829,None,,,,,,,,,,,,,,,,,,,,,,,,,,,,,,,,,,,,,,,131,001,2023_Nov_08_1641,SpeechDraft1Carolyn_lessNoise_PlusLocalization,2021.2.3,59.08140175364454,
foot.wav,foot.mpg,foot,5,AV,Pink_Noise_5_1.wav,Pink_Noise_5_2.wav,,,,,,,,,,,,,,,0,33,33,71,,,,,,,,,,,,,,,,,,,,,,,571.7325491923839,None,573.2324027442373,None,574.6161767262965,None,push,574.6161767262965,None,return,5.546688607893884,574.6992418202572,None,,,,,,,,,,,,,,,,,,,,,,,,,,,,,,,,,,,,,,,131,001,2023_Nov_08_1641,SpeechDraft1Carolyn_lessNoise_PlusLocalization,2021.2.3,59.08140175364454,
fruit.wav,fruit.mpg,fruit,6,A,Pink_Noise_6_1.wav,Pink_Noise_6_2.wav,,,,,,,,,,,,,,,0,34,34,17,,,,,,,,,,,,,,,,,,,,,,,580.2659578099847,None,581.765670790337,None,583.1492842589505,None,"reach
",583.1492842589505,None,return,9.069267090409994,583.23259817902,None,,,,,,,,,,,,,,,,,,,,,,,,,,,,,,,,,,,,,,,131,001,2023_Nov_08_1641,SpeechDraft1Carolyn_lessNoise_PlusLocalization,2021.2.3,59.08140175364454,
chase.wav,chase.mpg,chase,2,A,Pink_Noise_2_1.wav,Pink_Noise_2_2.wav,,,,,,,,,,,,,,,0,35,35,51,,,,,,,,,,,,,,,,,,,,,,,592.3327484149486,None,593.8323538112454,None,595.216060440056,None,chase,595.216060440056,None,return,2.562525359913707,595.2993337842636,None,,,,,,,,,,,,,,,,,,,,,,,,,,,,,,,,,,,,,,,131,001,2023_Nov_08_1641,SpeechDraft1Carolyn_lessNoise_PlusLocalization,2021.2.3,59.08140175364454,
club.wav,club.mpg,club,2,AV,Pink_Noise_2_1.wav,Pink_Noise_2_2.wav,,,,,,,,,,,,,,,0,36,36,105,,,,,,,,,,,,,,,,,,,,,,,597.8826902690344,None,599.3826652602293,None,600.7659612642601,None,club,600.7659612642601,None,return,5.332530427724123,600.8494079471566,None,,,,,,,,,,,,,,,,,,,,,,,,,,,,,,,,,,,,,,,131,001,2023_Nov_08_1641,SpeechDraft1Carolyn_lessNoise_PlusLocalization,2021.2.3,59.08140175364454,
glad.wav,glad.mpg,glad,5,A,Pink_Noise_5_1.wav,Pink_Noise_5_2.wav,,,,,,,,,,,,,,,0,37,37,41,,,,,,,,,,,,,,,,,,,,,,,606.1994125493802,None,607.6992589579895,None,609.0827430933714,None,brag,609.0827430933714,None,return,4.5998389278538525,609.1661066170782,None,,,,,,,,,,,,,,,,,,,,,,,,,,,,,,,,,,,,,,,131,001,2023_Nov_08_1641,SpeechDraft1Carolyn_lessNoise_PlusLocalization,2021.2.3,59.08140175364454,
pact.wav,pact.mpg,pact,3,A,Pink_Noise_3_1.wav,Pink_Noise_3_2.wav,,,,,,,,,,,,,,,0,38,38,16,,,,,,,,,,,,,,,,,,,,,,,613.7827956900001,None,615.282497051172,None,616.6661783321761,None,kept,616.6661783321761,None,return,5.32840040512383,616.7494690101594,None,,,,,,,,,,,,,,,,,,,,,,,,,,,,,,,,,,,,,,,131,001,2023_Nov_08_1641,SpeechDraft1Carolyn_lessNoise_PlusLocalization,2021.2.3,59.08140175364454,
grade.wav,grade.mpg,grade,6,A,Pink_Noise_6_1.wav,Pink_Noise_6_2.wav,,,,,,,,,,,,,,,0,39,39,55,,,,,,,,,,,,,,,,,,,,,,,622.0992701663636,None,623.5991141092964,None,624.9827347351238,None,"wait
",624.9827347351238,None,return,2.035781698767096,625.0660770670511,None,,,,,,,,,,,,,,,,,,,,,,,,,,,,,,,,,,,,,,,131,001,2023_Nov_08_1641,SpeechDraft1Carolyn_lessNoise_PlusLocalization,2021.2.3,59.08140175364454,
brawl.wav,brawl.mpg,brawl,4,AV,Pink_Noise_4_1.wav,Pink_Noise_4_2.wav,,,,,,,,,,,,,,,0,40,40,103,,,,,,,,,,,,,,,,,,,,,,,627.1327019240707,None,628.6325010592118,None,630.0159968961962,None,lie,630.0159968961962,None,return,6.074408106971532,630.0994656472467,None,,,,,,,,,,,,,,,,,,,,,,,,,,,,,,,,,,,,,,,131,001,2023_Nov_08_1641,SpeechDraft1Carolyn_lessNoise_PlusLocalization,2021.2.3,59.08140175364454,
bland.wav,bland.mpg,bland,6,AV,Pink_Noise_6_1.wav,Pink_Noise_6_2.wav,,,,,,,,,,,,,,,0,41,41,102,,,,,,,,,,,,,,,,,,,,,,,636.1994463619776,None,637.6990910791792,None,639.0825427393429,None,"bland
",639.0825427393429,None,return,6.383786304853857,639.1660846443847,None,,,,,,,,,,,,,,,,,,,,,,,,,,,,,,,,,,,,,,,131,001,2023_Nov_08_1641,SpeechDraft1Carolyn_lessNoise_PlusLocalization,2021.2.3,59.08140175364454,
gaze.wav,gaze.mpg,gaze,1,AV,Pink_Noise_1_1.wav,Pink_Noise_1_2.wav,,,,,,,,,,,,,,,0,42,42,67,,,,,,,,,,,,,,,,,,,,,,,645.5829640063457,None,647.0825150050223,None,648.4659697161987,None,gaze,648.4659697161987,None,return,3.5924898330122232,648.5493570701219,None,,,,,,,,,,,,,,,,,,,,,,,,,,,,,,,,,,,,,,,131,001,2023_Nov_08_1641,SpeechDraft1Carolyn_lessNoise_PlusLocalization,2021.2.3,59.08140175364454,
bright.wav,bright.mpg,bright,1,AV,Pink_Noise_1_1.wav,Pink_Noise_1_2.wav,,,,,,,,,,,,,,,0,43,43,81,,,,,,,,,,,,,,,,,,,,,,,652.1662092441693,None,653.6658580373041,None,655.049455374945,None,bright,655.049455374945,None,return,3.945081165060401,655.1328027979471,None,,,,,,,,,,,,,,,,,,,,,,,,,,,,,,,,,,,,,,,131,001,2023_Nov_08_1641,SpeechDraft1Carolyn_lessNoise_PlusLocalization,2021.2.3,59.08140175364454,
brown.wav,brown.mpg,brown,6,AV,Pink_Noise_6_1.wav,Pink_Noise_6_2.wav,,,,,,,,,,,,,,,0,44,44,68,,,,,,,,,,,,,,,,,,,,,,,659.0994546143338,None,660.599632892292,None,661.9827004373074,None,brown,661.9827004373074,None,return,4.043775664642453,662.0661038239487,None,,,,,,,,,,,,,,,,,,,,,,,,,,,,,,,,,,,,,,,131,001,2023_Nov_08_1641,SpeechDraft1Carolyn_lessNoise_PlusLocalization,2021.2.3,59.08140175364454,
gone.wav,gone.mpg,gone,2,AV,Pink_Noise_2_1.wav,Pink_Noise_2_2.wav,,,,,,,,,,,,,,,0,45,45,92,,,,,,,,,,,,,,,,,,,,,,,666.1327570099384,None,667.6325085973367,None,669.0161076891236,None,gone,669.0161076891236,None,return,3.4583020810969174,669.0995382312685,None,,,,,,,,,,,,,,,,,,,,,,,,,,,,,,,,,,,,,,,131,001,2023_Nov_08_1641,SpeechDraft1Carolyn_lessNoise_PlusLocalization,2021.2.3,59.08140175364454,
bye.wav,bye.mpg,bye,2,AV,Pink_Noise_2_1.wav,Pink_Noise_2_2.wav,,,,,,,,,,,,,,,0,46,46,90,,,,,,,,,,,,,,,,,,,,,,,672.5828539151698,None,674.0824250769801,None,675.466177420225,None,bye,675.466177420225,None,return,1.5604512291029096,675.5494051249698,None,,,,,,,,,,,,,,,,,,,,,,,,,,,,,,,,,,,,,,,131,001,2023_Nov_08_1641,SpeechDraft1Carolyn_lessNoise_PlusLocalization,2021.2.3,59.08140175364454,
claim.wav,claim.mpg,claim,3,AV,Pink_Noise_3_1.wav,Pink_Noise_3_2.wav,,,,,,,,,,,,,,,0,47,47,69,,,,,,,,,,,,,,,,,,,,,,,677.1328752413392,None,678.632575287018,None,680.0160903250799,None,"claim
",680.0160903250799,None,return,4.202445195987821,680.099432466086,None,,,,,,,,,,,,,,,,,,,,,,,,,,,,,,,,,,,,,,,131,001,2023_Nov_08_1641,SpeechDraft1Carolyn_lessNoise_PlusLocalization,2021.2.3,59.08140175364454,
snake.wav,snake.mpg,snake,5,AV,Pink_Noise_5_1.wav,Pink_Noise_5_2.wav,,,,,,,,,,,,,,,0,48,48,76,,,,,,,,,,,,,,,,,,,,,,,684.3327822783031,None,685.8326575229876,None,687.2160037602298,None,stay,687.2160037602298,None,return,2.066379816737026,687.2995158541016,None,,,,,,,,,,,,,,,,,,,,,,,,,,,,,,,,,,,,,,,131,001,2023_Nov_08_1641,SpeechDraft1Carolyn_lessNoise_PlusLocalization,2021.2.3,59.08140175364454,
beast.wav,beast.mpg,beast,4,AV,Pink_Noise_4_1.wav,Pink_Noise_4_2.wav,,,,,,,,,,,,,,,0,49,49,72,,,,,,,,,,,,,,,,,,,,,,,689.3828436341137,None,690.8825701600872,None,692.2661177539267,None,beast,692.2661177539267,None,return,3.0484712179750204,692.3494892651215,None,,,,,,,,,,,,,,,,,,,,,,,,,,,,,,,,,,,,,,,131,001,2023_Nov_08_1641,SpeechDraft1Carolyn_lessNoise_PlusLocalization,2021.2.3,59.08140175364454,
cone.wav,cone.mpg,cone,1,AV,Pink_Noise_1_1.wav,Pink_Noise_1_2.wav,,,,,,,,,,,,,,,0,50,50,91,,,,,,,,,,,,,,,,,,,,,,,695.4161509671248,None,696.9158801571466,None,698.2996058179997,None,comb,698.2996058179997,None,return,5.647097557783127,698.3828360373154,None,,,,,,,,,,,,,,,,,,,,,,,,,,,,,,,,,,,,,,,131,001,2023_Nov_08_1641,SpeechDraft1Carolyn_lessNoise_PlusLocalization,2021.2.3,59.08140175364454,
bald.wav,bald.mpg,bald,2,A,Pink_Noise_2_1.wav,Pink_Noise_2_2.wav,,,,,,,,,,,,,,,0,51,51,19,,,,,,,,,,,,,,,,,,,,,,,704.0495571079664,None,705.549198271241,None,706.9328588312492,None,bald,706.9328588312492,None,return,6.0935948910191655,707.0162668591365,None,,,,,,,,,,,,,,,,,,,,,,,,,,,,,,,,,,,,,,,131,001,2023_Nov_08_1641,SpeechDraft1Carolyn_lessNoise_PlusLocalization,2021.2.3,59.08140175364454,
grill.wav,grill.mpg,grill,3,AV,Pink_Noise_3_1.wav,Pink_Noise_3_2.wav,,,,,,,,,,,,,,,0,52,52,60,,,,,,,,,,,,,,,,,,,,,,,713.1327989152633,None,714.6325895413756,None,716.0161254820414,None,"grow
",716.0161254820414,None,return,3.218348227906972,716.099504200276,None,,,,,,,,,,,,,,,,,,,,,,,,,,,,,,,,,,,,,,,131,001,2023_Nov_08_1641,SpeechDraft1Carolyn_lessNoise_PlusLocalization,2021.2.3,59.08140175364454,
bold.wav,bold.mpg,bold,3,A,Pink_Noise_3_1.wav,Pink_Noise_3_2.wav,,,,,,,,,,,,,,,0,53,53,37,,,,,,,,,,,,,,,,,,,,,,,719.349537011236,None,720.849168531131,None,722.2330426573753,None,war,722.2330426573753,None,return,3.457642795983702,722.3162136892788,None,,,,,,,,,,,,,,,,,,,,,,,,,,,,,,,,,,,,,,,131,001,2023_Nov_08_1641,SpeechDraft1Carolyn_lessNoise_PlusLocalization,2021.2.3,59.08140175364454,
grin.wav,grin.mpg,grin,6,A,Pink_Noise_6_1.wav,Pink_Noise_6_2.wav,,,,,,,,,,,,,,,0,54,54,27,,,,,,,,,,,,,,,,,,,,,,,725.7995058982633,None,727.2992610703222,None,728.6829109089449,None,"feel
",728.6829109089449,None,return,4.319661969784647,728.7661866629496,None,,,,,,,,,,,,,,,,,,,,,,,,,,,,,,,,,,,,,,,131,001,2023_Nov_08_1641,SpeechDraft1Carolyn_lessNoise_PlusLocalization,2021.2.3,59.08140175364454,
glide.wav,glide.mpg,glide,1,A,Pink_Noise_1_1.wav,Pink_Noise_1_2.wav,,,,,,,,,,,,,,,0,55,55,49,,,,,,,,,,,,,,,,,,,,,,,733.1162409363315,None,734.615948072169,None,735.999631693121,None,glide,735.999631693121,None,return,3.3470703423954546,736.0828660773113,None,,,,,,,,,,,,,,,,,,,,,,,,,,,,,,,,,,,,,,,131,001,2023_Nov_08_1641,SpeechDraft1Carolyn_lessNoise_PlusLocalization,2021.2.3,59.08140175364454,
coin.wav,coin.mpg,coin,3,AV,Pink_Noise_3_1.wav,Pink_Noise_3_2.wav,,,,,,,,,,,,,,,0,56,56,111,,,,,,,,,,,,,,,,,,,,,,,739.4494886850007,None,740.9492948721163,None,742.3328164122067,None,corn,742.3328164122067,None,return,4.41382543137297,742.4161288132891,None,,,,,,,,,,,,,,,,,,,,,,,,,,,,,,,,,,,,,,,131,001,2023_Nov_08_1641,SpeechDraft1Carolyn_lessNoise_PlusLocalization,2021.2.3,59.08140175364454,
bare.wav,bare.mpg,bare,3,AV,Pink_Noise_3_1.wav,Pink_Noise_3_2.wav,,,,,,,,,,,,,,,0,57,57,80,,,,,,,,,,,,,,,,,,,,,,,746.8495357562788,None,748.3492964962497,None,749.7327683451585,None,bare,749.7327683451585,None,return,3.0057375812903047,749.8162355651148,None,,,,,,,,,,,,,,,,,,,,,,,,,,,,,,,,,,,,,,,131,001,2023_Nov_08_1641,SpeechDraft1Carolyn_lessNoise_PlusLocalization,2021.2.3,59.08140175364454,
dive.wav,dive.mpg,dive,2,AV,Pink_Noise_2_1.wav,Pink_Noise_2_2.wav,,,,,,,,,,,,,,,0,58,58,99,,,,,,,,,,,,,,,,,,,,,,,752.8495881091803,None,754.3494376069866,None,755.7328197481111,None,dive,755.7328197481111,None,return,3.5898123877123,755.816187675111,None,,,,,,,,,,,,,,,,,,,,,,,,,,,,,,,,,,,,,,,131,001,2023_Nov_08_1641,SpeechDraft1Carolyn_lessNoise_PlusLocalization,2021.2.3,59.08140175364454,
edge.wav,edge.mpg,edge,2,A,Pink_Noise_2_1.wav,Pink_Noise_2_2.wav,,,,,,,,,,,,,,,0,59,59,30,,,,,,,,,,,,,,,,,,,,,,,759.4328933702782,None,760.9326273771003,None,762.3162839212455,None,edge,762.3162839212455,None,return,4.462389896158129,762.3995170602575,None,,,,,,,,,,,,,,,,,,,,,,,,,,,,,,,,,,,,,,,131,001,2023_Nov_08_1641,SpeechDraft1Carolyn_lessNoise_PlusLocalization,2021.2.3,59.08140175364454,
stain.wav,stain.mpg,stain,4,A,Pink_Noise_4_1.wav,Pink_Noise_4_2.wav,,,,,,,,,,,,,,,0,60,60,20,,,,,,,,,,,,,,,,,,,,,,,766.8828994310461,None,768.399254146032,None,769.7832979080267,None,"stand
",769.7832979080267,None,return,4.48371510906145,769.8661560420878,None,,,,,,,,,,,,,,,,,,,,,,,,,,,,,,,,,,,,,,,131,001,2023_Nov_08_1641,SpeechDraft1Carolyn_lessNoise_PlusLocalization,2021.2.3,59.08140175364454,
bun.wav,bun.mpg,bun,2,AV,Pink_Noise_2_1.wav,Pink_Noise_2_2.wav,,,,,,,,,,,,,,,0,61,61,70,,,,,,,,,,,,,,,,,,,,,,,774.3829400693066,None,775.8826598189771,None,777.2663092780858,None,fun,777.2663092780858,None,return,2.0804182467982173,777.3495556223206,None,,,,,,,,,,,,,,,,,,,,,,,,,,,,,,,,,,,,,,,131,001,2023_Nov_08_1641,SpeechDraft1Carolyn_lessNoise_PlusLocalization,2021.2.3,59.08140175364454,
brake.wav,brake.mpg,brake,3,AV,Pink_Noise_3_1.wav,Pink_Noise_3_2.wav,,,,,,,,,,,,,,,0,62,62,83,,,,,,,,,,,,,,,,,,,,,,,779.4496109071188,None,780.9494203631766,None,782.3328352230601,None,"break
",782.3328352230601,None,return,4.885573234874755,782.4162993603386,None,,,,,,,,,,,,,,,,,,,,,,,,,,,,,,,,,,,,,,,131,001,2023_Nov_08_1641,SpeechDraft1Carolyn_lessNoise_PlusLocalization,2021.2.3,59.08140175364454,
fall.wav,fall.mpg,fall,5,AV,Pink_Noise_5_1.wav,Pink_Noise_5_2.wav,,,,,,,,,,,,,,,0,63,63,61,,,,,,,,,,,,,,,,,,,,,,,787.3329491419718,None,788.8327877051197,None,790.2163123949431,None,fall,790.2163123949431,None,return,5.522319192066789,790.2996475449763,None,,,,,,,,,,,,,,,,,,,,,,,,,,,,,,,,,,,,,,,131,001,2023_Nov_08_1641,SpeechDraft1Carolyn_lessNoise_PlusLocalization,2021.2.3,59.08140175364454,
cap.wav,cap.mpg,cap,2,A,Pink_Noise_2_1.wav,Pink_Noise_2_2.wav,,,,,,,,,,,,,,,0,64,64,31,,,,,,,,,,,,,,,,,,,,,,,795.8496952019632,None,797.3494694950059,None,798.7329949280247,None,cat,798.7329949280247,None,return,3.1897282171994448,798.8162292810157,None,,,,,,,,,,,,,,,,,,,,,,,,,,,,,,,,,,,,,,,131,001,2023_Nov_08_1641,SpeechDraft1Carolyn_lessNoise_PlusLocalization,2021.2.3,59.08140175364454,
born.wav,born.mpg,born,1,AV,Pink_Noise_1_1.wav,Pink_Noise_1_2.wav,,,,,,,,,,,,,,,0,65,65,106,,,,,,,,,,,,,,,,,,,,,,,802.0329468720593,None,803.5328836119734,None,804.9163514710963,None,born,804.9163514710963,None,return,5.982154173776507,804.9998029381968,None,,,,,,,,,,,,,,,,,,,,,,,,,,,,,,,,,,,,,,,131,001,2023_Nov_08_1641,SpeechDraft1Carolyn_lessNoise_PlusLocalization,2021.2.3,59.08140175364454,
flip.wav,flip.mpg,flip,3,AV,Pink_Noise_3_1.wav,Pink_Noise_3_2.wav,,,,,,,,,,,,,,,0,66,66,98,,,,,,,,,,,,,,,,,,,,,,,810.9996278253384,None,812.4993632170372,None,813.8830046653748,None,grit,813.8830046653748,None,return,3.8236808832734823,813.9662410710007,None,,,,,,,,,,,,,,,,,,,,,,,,,,,,,,,,,,,,,,,131,001,2023_Nov_08_1641,SpeechDraft1Carolyn_lessNoise_PlusLocalization,2021.2.3,59.08140175364454,
grim.wav,grim.mpg,grim,4,AV,Pink_Noise_4_1.wav,Pink_Noise_4_2.wav,,,,,,,,,,,,,,,0,67,67,108,,,,,,,,,,,,,,,,,,,,,,,817.816385386046,None,819.3160528461449,None,820.6996142519638,None,grin,820.6996142519638,None,return,3.246929435990751,820.7829919969663,None,,,,,,,,,,,,,,,,,,,,,,,,,,,,,,,,,,,,,,,131,001,2023_Nov_08_1641,SpeechDraft1Carolyn_lessNoise_PlusLocalization,2021.2.3,59.08140175364454,
clad.wav,clad.mpg,clad,3,AV,Pink_Noise_3_1.wav,Pink_Noise_3_2.wav,,,,,,,,,,,,,,,0,68,68,63,,,,,,,,,,,,,,,,,,,,,,,824.049727445934,None,825.5660750912502,None,826.9497057721019,None,bad,826.9497057721019,None,return,2.5648961127735674,827.0330817182548,None,,,,,,,,,,,,,,,,,,,,,,,,,,,,,,,,,,,,,,,131,001,2023_Nov_08_1641,SpeechDraft1Carolyn_lessNoise_PlusLocalization,2021.2.3,59.08140175364454,
float.wav,float.mpg,float,1,A,Pink_Noise_1_1.wav,Pink_Noise_1_2.wav,,,,,,,,,,,,,,,0,69,69,12,,,,,,,,,,,,,,,,,,,,,,,829.6163417999633,None,831.1163627072237,None,832.4997411821969,None,float,832.4997411821969,None,return,2.1909297979436815,832.5829266551882,None,,,,,,,,,,,,,,,,,,,,,,,,,,,,,,,,,,,,,,,131,001,2023_Nov_08_1641,SpeechDraft1Carolyn_lessNoise_PlusLocalization,2021.2.3,59.08140175364454,
file.wav,file.mpg,file,1,A,Pink_Noise_1_1.wav,Pink_Noise_1_2.wav,,,,,,,,,,,,,,,0,70,70,43,,,,,,,,,,,,,,,,,,,,,,,834.7997125140391,None,836.3327114339918,None,837.7163609629497,None,file,837.7163609629497,None,return,1.9662752249278128,837.7996827000752,None,,,,,,,,,,,,,,,,,,,,,,,,,,,,,,,,,,,,,,,131,001,2023_Nov_08_1641,SpeechDraft1Carolyn_lessNoise_PlusLocalization,2021.2.3,59.08140175364454,
axe.wav,axe.mpg,axe,1,A,Pink_Noise_1_1.wav,Pink_Noise_1_2.wav,,,,,,,,,,,,,,,0,71,71,56,,,,,,,,,,,,,,,,,,,,,,,839.7831584280357,None,841.3160616159439,None,842.6997148450464,None,axe,842.6997148450464,None,return,2.4148970833048224,842.7830302049406,None,,,,,,,,,,,,,,,,,,,,,,,,,,,,,,,,,,,,,,,131,001,2023_Nov_08_1641,SpeechDraft1Carolyn_lessNoise_PlusLocalization,2021.2.3,59.08140175364454,
boil.wav,boil.mpg,boil,6,A,Pink_Noise_6_1.wav,Pink_Noise_6_2.wav,,,,,,,,,,,,,,,0,72,72,7,,,,,,,,,,,,,,,,,,,,,,,845.2164017031901,None,846.7327769361436,None,848.1164264320396,None,"four
",848.1164264320396,None,return,3.102122576907277,848.1997461901046,None,,,,,,,,,,,,,,,,,,,,,,,,,,,,,,,,,,,,,,,131,001,2023_Nov_08_1641,SpeechDraft1Carolyn_lessNoise_PlusLocalization,2021.2.3,59.08140175364454,
roar.wav,roar.mpg,roar,4,A,Pink_Noise_4_1.wav,Pink_Noise_4_2.wav,,,,,,,,,,,,,,,0,73,73,36,,,,,,,,,,,,,,,,,,,,,,,851.3331044623628,None,852.8494898430072,None,854.2330349162221,None,new,854.2330349162221,None,return,1.8093119468539953,854.3165421630256,None,,,,,,,,,,,,,,,,,,,,,,,,,,,,,,,,,,,,,,,131,001,2023_Nov_08_1641,SpeechDraft1Carolyn_lessNoise_PlusLocalization,2021.2.3,59.08140175364454,
chalk.wav,chalk.mpg,chalk,2,AV,Pink_Noise_2_1.wav,Pink_Noise_2_2.wav,,,,,,,,,,,,,,,0,74,74,96,,,,,,,,,,,,,,,,,,,,,,,856.1497140270658,None,857.6827791351825,None,859.0663692010567,None,chunk,859.0663692010567,None,return,12.144028297625482,859.1498342710547,None,,,,,,,,,,,,,,,,,,,,,,,,,,,,,,,,,,,,,,,131,001,2023_Nov_08_1641,SpeechDraft1Carolyn_lessNoise_PlusLocalization,2021.2.3,59.08140175364454,
cycle.wav,cycle.mpg,cycle,5,A,Pink_Noise_5_1.wav,Pink_Noise_5_2.wav,,,,,,,,,,,,,,,0,75,75,15,,,,,,,,,,,,,,,,,,,,,,,871.3164999331348,None,872.8168513150886,None,874.1997717213817,None,center,874.1997717213817,None,return,4.6428391193039715,874.2830100213178,None,,,,,,,,,,,,,,,,,,,,,,,,,,,,,,,,,,,,,,,131,001,2023_Nov_08_1641,SpeechDraft1Carolyn_lessNoise_PlusLocalization,2021.2.3,59.08140175364454,
broil.wav,broil.mpg,broil,5,A,Pink_Noise_5_1.wav,Pink_Noise_5_2.wav,,,,,,,,,,,,,,,0,76,76,13,,,,,,,,,,,,,,,,,,,,,,,878.9498660699464,None,880.4495432563126,None,881.833074644208,None,"four
",881.833074644208,None,return,4.98538927314803,881.9164713090286,None,,,,,,,,,,,,,,,,,,,,,,,,,,,,,,,,,,,,,,,131,001,2023_Nov_08_1641,SpeechDraft1Carolyn_lessNoise_PlusLocalization,2021.2.3,59.08140175364454,
doom.wav,doom.mpg,doom,1,AV,Pink_Noise_1_1.wav,Pink_Noise_1_2.wav,,,,,,,,,,,,,,,0,77,77,109,,,,,,,,,,,,,,,,,,,,,,,886.9330871910788,None,888.4495386281051,None,889.8330376129597,None,doom,889.8330376129597,None,return,5.625411961693317,889.9164539170451,None,,,,,,,,,,,,,,,,,,,,,,,,,,,,,,,,,,,,,,,131,001,2023_Nov_08_1641,SpeechDraft1Carolyn_lessNoise_PlusLocalization,2021.2.3,59.08140175364454,
slush.wav,slush.mpg,slush,6,AV,Pink_Noise_6_1.wav,Pink_Noise_6_2.wav,,,,,,,,,,,,,,,0,78,78,78,,,,,,,,,,,,,,,,,,,,,,,895.5664068553597,None,897.0995632740669,None,898.4831437822431,None,strech,898.4831437822431,None,return,8.111394807230681,898.5665136999451,None,,,,,,,,,,,,,,,,,,,,,,,,,,,,,,,,,,,,,,,131,001,2023_Nov_08_1641,SpeechDraft1Carolyn_lessNoise_PlusLocalization,2021.2.3,59.08140175364454,
droop.wav,droop.mpg,droop,5,AV,Pink_Noise_5_1.wav,Pink_Noise_5_2.wav,,,,,,,,,,,,,,,0,79,79,114,,,,,,,,,,,,,,,,,,,,,,,906.6997934989631,None,908.2329062409699,None,909.6163742612116,None,"loop
",909.6163742612116,None,return,3.20202471408993,909.6998419109732,None,,,,,,,,,,,,,,,,,,,,,,,,,,,,,,,,,,,,,,,131,001,2023_Nov_08_1641,SpeechDraft1Carolyn_lessNoise_PlusLocalization,2021.2.3,59.08140175364454,
clothe.wav,clothe.mpg,clothe,4,AV,Pink_Noise_4_1.wav,Pink_Noise_4_2.wav,,,,,,,,,,,,,,,0,80,80,75,,,,,,,,,,,,,,,,,,,,,,,912.9330004509538,None,914.45153270429,None,915.8330378001556,None,clothe,915.8330378001556,None,return,3.089546388015151,915.9164520343766,None,,,,,,,,,,,,,,,,,,,,,,,,,,,,,,,,,,,,,,,131,001,2023_Nov_08_1641,SpeechDraft1Carolyn_lessNoise_PlusLocalization,2021.2.3,59.08140175364454,
gag.wav,gag.mpg,gag,4,AV,Pink_Noise_4_1.wav,Pink_Noise_4_2.wav,,,,,,,,,,,,,,,0,81,81,79,,,,,,,,,,,,,,,,,,,,,,,919.0331990439445,None,920.5495655802079,None,921.9331547282636,None,"gage
",921.9331547282636,None,return,9.669461637269706,922.0164081319235,None,,,,,,,,,,,,,,,,,,,,,,,,,,,,,,,,,,,,,,,131,001,2023_Nov_08_1641,SpeechDraft1Carolyn_lessNoise_PlusLocalization,2021.2.3,59.08140175364454,
calm.wav,calm.mpg,calm,1,A,Pink_Noise_1_1.wav,Pink_Noise_1_2.wav,,,,,,,,,,,,,,,0,82,82,3,,,,,,,,,,,,,,,,,,,,,,,931.716435178183,None,933.2329134470783,None,934.6164702791721,None,calm,934.6164702791721,None,return,2.3541004131548107,934.6997687169351,None,,,,,,,,,,,,,,,,,,,,,,,,,,,,,,,,,,,,,,,131,001,2023_Nov_08_1641,SpeechDraft1Carolyn_lessNoise_PlusLocalization,2021.2.3,59.08140175364454,
dove.wav,dove.mpg,dove,3,AV,Pink_Noise_3_1.wav,Pink_Noise_3_2.wav,,,,,,,,,,,,,,,0,83,83,84,,,,,,,,,,,,,,,,,,,,,,,937.0831468859687,None,938.5994912041351,None,939.9831070262007,None,jump,939.9831070262007,None,return,4.227269460912794,940.0665983529761,None,,,,,,,,,,,,,,,,,,,,,,,,,,,,,,,,,,,,,,,131,001,2023_Nov_08_1641,SpeechDraft1Carolyn_lessNoise_PlusLocalization,2021.2.3,59.08140175364454,
base.wav,base.mpg,base,4,AV,Pink_Noise_4_1.wav,Pink_Noise_4_2.wav,,,,,,,,,,,,,,,0,84,84,101,,,,,,,,,,,,,,,,,,,,,,,944.3165173530579,None,945.8495874530636,None,947.2330630961806,None,base,947.2330630961806,None,return,2.1134285079315305,947.316537657287,None,,,,,,,,,,,,,,,,,,,,,,,,,,,,,,,,,,,,,,,131,001,2023_Nov_08_1641,SpeechDraft1Carolyn_lessNoise_PlusLocalization,2021.2.3,59.08140175364454,
tart.wav,tart.mpg,tart,4,A,Pink_Noise_4_1.wav,Pink_Noise_4_2.wav,,,,,,,,,,,,,,,0,85,85,5,,,,,,,,,,,,,,,,,,,,,,,949.449719059281,None,950.9661657693796,None,952.3500572941266,None,tart,952.3500572941266,None,return,1.4447476458735764,952.4331647260115,None,,,,,,,,,,,,,,,,,,,,,,,,,,,,,,,,,,,,,,,131,001,2023_Nov_08_1641,SpeechDraft1Carolyn_lessNoise_PlusLocalization,2021.2.3,59.08140175364454,
cake.wav,cake.mpg,cake,4,A,Pink_Noise_4_1.wav,Pink_Noise_4_2.wav,,,,,,,,,,,,,,,0,86,86,6,,,,,,,,,,,,,,,,,,,,,,,953.9000075291842,None,955.3996404153295,None,956.7831214433536,None,cake,956.7831214433536,None,return,1.6433960236608982,956.8664572280832,None,,,,,,,,,,,,,,,,,,,,,,,,,,,,,,,,,,,,,,,131,001,2023_Nov_08_1641,SpeechDraft1Carolyn_lessNoise_PlusLocalization,2021.2.3,59.08140175364454,
chant.wav,chant.mpg,chant,6,A,Pink_Noise_6_1.wav,Pink_Noise_6_2.wav,,,,,,,,,,,,,,,0,87,87,59,,,,,,,,,,,,,,,,,,,,,,,958.5331682153046,None,960.0662516099401,None,961.4498348790221,None,hi,961.4498348790221,None,return,5.480602910276502,961.5332920532674,None,,,,,,,,,,,,,,,,,,,,,,,,,,,,,,,,,,,,,,,131,001,2023_Nov_08_1641,SpeechDraft1Carolyn_lessNoise_PlusLocalization,2021.2.3,59.08140175364454,
cord.wav,cord.mpg,cord,3,A,Pink_Noise_3_1.wav,Pink_Noise_3_2.wav,,,,,,,,,,,,,,,0,88,88,32,,,,,,,,,,,,,,,,,,,,,,,967.0331182242371,None,968.5663139941171,None,969.9499385412782,None,bored,969.9499385412782,None,return,2.6927154678851366,970.0331626720726,None,,,,,,,,,,,,,,,,,,,,,,,,,,,,,,,,,,,,,,,131,001,2023_Nov_08_1641,SpeechDraft1Carolyn_lessNoise_PlusLocalization,2021.2.3,59.08140175364454,
blow.wav,blow.mpg,blow,4,A,Pink_Noise_4_1.wav,Pink_Noise_4_2.wav,,,,,,,,,,,,,,,0,89,89,22,,,,,,,,,,,,,,,,,,,,,,,972.7498976611532,None,974.266319792252,None,975.6514354371466,None,"throw
",975.6514354371466,None,return,2.600621921941638,975.7332518142648,None,,,,,,,,,,,,,,,,,,,,,,,,,,,,,,,,,,,,,,,131,001,2023_Nov_08_1641,SpeechDraft1Carolyn_lessNoise_PlusLocalization,2021.2.3,59.08140175364454,
depth.wav,depth.mpg,depth,5,A,Pink_Noise_5_1.wav,Pink_Noise_5_2.wav,,,,,,,,,,,,,,,0,90,90,38,,,,,,,,,,,,,,,,,,,,,,,978.3665734622627,None,979.8830170282163,None,981.2666155193001,None,snap,981.2666155193001,None,return,1.232094235252589,981.3498575040139,None,,,,,,,,,,,,,,,,,,,,,,,,,,,,,,,,,,,,,,,131,001,2023_Nov_08_1641,SpeechDraft1Carolyn_lessNoise_PlusLocalization,2021.2.3,59.08140175364454,
drill.wav,drill.mpg,drill,6,A,Pink_Noise_6_1.wav,Pink_Noise_6_2.wav,,,,,,,,,,,,,,,0,91,91,33,,,,,,,,,,,,,,,,,,,,,,,982.5999009581283,None,984.1162892621942,None,985.4996979073621,None,good,985.4996979073621,None,return,1.8787142499350011,985.5831919591874,None,,,,,,,,,,,,,,,,,,,,,,,,,,,,,,,,,,,,,,,131,001,2023_Nov_08_1641,SpeechDraft1Carolyn_lessNoise_PlusLocalization,2021.2.3,59.08140175364454,
two.wav,two.mpg,two,5,A,Pink_Noise_5_1.wav,Pink_Noise_5_2.wav,,,,,,,,,,,,,,,0,92,92,29,,,,,,,,,,,,,,,,,,,,,,,987.4832412670366,None,989.0162783651613,None,990.3999399780296,None,"choose
",990.3999399780296,None,return,3.4346535340882838,990.483215298038,None,,,,,,,,,,,,,,,,,,,,,,,,,,,,,,,,,,,,,,,131,001,2023_Nov_08_1641,SpeechDraft1Carolyn_lessNoise_PlusLocalization,2021.2.3,59.08140175364454,
grip.wav,grip.mpg,grip,4,A,Pink_Noise_4_1.wav,Pink_Noise_4_2.wav,,,,,,,,,,,,,,,0,93,93,48,,,,,,,,,,,,,,,,,,,,,,,993.9498578701168,None,995.4829970272258,None,996.8665383239277,None,"rip
",996.8665383239277,None,return,1.719905022997409,996.9499219600111,None,,,,,,,,,,,,,,,,,,,,,,,,,,,,,,,,,,,,,,,131,001,2023_Nov_08_1641,SpeechDraft1Carolyn_lessNoise_PlusLocalization,2021.2.3,59.08140175364454,
ear.wav,ear.mpg,ear,2,AV,Pink_Noise_2_1.wav,Pink_Noise_2_2.wav,,,,,,,,,,,,,,,0,94,94,95,,,,,,,,,,,,,,,,,,,,,,,998.6998424180783,None,1000.2163126980886,None,1001.5999269313179,None,ear,1001.5999269313179,None,return,1.4265479962341487,1001.6833392181434,None,,,,,,,,,,,,,,,,,,,,,,,,,,,,,,,,,,,,,,,131,001,2023_Nov_08_1641,SpeechDraft1Carolyn_lessNoise_PlusLocalization,2021.2.3,59.08140175364454,
bring.wav,bring.mpg,bring,1,AV,Pink_Noise_1_1.wav,Pink_Noise_1_2.wav,,,,,,,,,,,,,,,0,95,95,110,,,,,,,,,,,,,,,,,,,,,,,1003.1333398642018,None,1004.6677857800387,None,1006.0497564380057,None,"bridge
",1006.0497564380057,None,return,2.968659119680524,1006.1332029909827,None,,,,,,,,,,,,,,,,,,,,,,,,,,,,,,,,,,,,,,,131,001,2023_Nov_08_1641,SpeechDraft1Carolyn_lessNoise_PlusLocalization,2021.2.3,59.08140175364454,
bird.wav,bird.mpg,bird,2,AV,Pink_Noise_2_1.wav,Pink_Noise_2_2.wav,,,,,,,,,,,,,,,0,96,96,77,,,,,,,,,,,,,,,,,,,,,,,1009.1332678613253,None,1010.6495641572401,None,1012.0332321780734,None,bird,1012.0332321780734,None,return,2.057400611229241,1012.1165280202404,None,,,,,,,,,,,,,,,,,,,,,,,,,,,,,,,,,,,,,,,131,001,2023_Nov_08_1641,SpeechDraft1Carolyn_lessNoise_PlusLocalization,2021.2.3,59.08140175364454,
eve.wav,eve.mpg,eve,6,A,Pink_Noise_6_1.wav,Pink_Noise_6_2.wav,,,,,,,,,,,,,,,0,97,97,11,,,,,,,,,,,,,,,,,,,,,,,1014.1999183003791,None,1015.7163897980936,None,1017.0999355893582,None,pretty,1017.0999355893582,None,return,2.4305752720683813,1017.1833196799271,None,,,,,,,,,,,,,,,,,,,,,,,,,,,,,,,,,,,,,,,131,001,2023_Nov_08_1641,SpeechDraft1Carolyn_lessNoise_PlusLocalization,2021.2.3,59.08140175364454,
fit.wav,fit.mpg,fit,5,AV,Pink_Noise_5_1.wav,Pink_Noise_5_2.wav,,,,,,,,,,,,,,,0,98,98,112,,,,,,,,,,,,,,,,,,,,,,,1019.6332750599831,None,1021.1496563469991,None,1022.5332207721658,None,"six
",1022.5332207721658,None,return,1.3171200100332499,1022.6167552890256,None,,,,,,,,,,,,,,,,,,,,,,,,,,,,,,,,,,,,,,,131,001,2023_Nov_08_1641,SpeechDraft1Carolyn_lessNoise_PlusLocalization,2021.2.3,59.08140175364454,
cash.wav,cash.mpg,cash,6,AV,Pink_Noise_6_1.wav,Pink_Noise_6_2.wav,,,,,,,,,,,,,,,0,99,99,88,,,,,,,,,,,,,,,,,,,,,,,1023.9665753189474,None,1025.499640207272,None,1026.8834226792678,None,catch,1026.8834226792678,None,return,1.4312554560601711,1026.9666320392862,None,,,,,,,,,,,,,,,,,,,,,,,,,,,,,,,,,,,,,,,131,001,2023_Nov_08_1641,SpeechDraft1Carolyn_lessNoise_PlusLocalization,2021.2.3,59.08140175364454,
dim.wav,dim.mpg,dim,5,A,Pink_Noise_5_1.wav,Pink_Noise_5_2.wav,,,,,,,,,,,,,,,0,100,100,40,,,,,,,,,,,,,,,,,,,,,,,1028.4165594861843,None,1029.949698931072,None,1031.3332790043205,None,stand,1031.3332790043205,None,return,2.2932813889347017,1031.4166000192054,None,,,,,,,,,,,,,,,,,,,,,,,,,,,,,,,,,,,,,,,131,001,2023_Nov_08_1641,SpeechDraft1Carolyn_lessNoise_PlusLocalization,2021.2.3,59.08140175364454,
gift.wav,gift.mpg,gift,2,A,Pink_Noise_2_1.wav,Pink_Noise_2_2.wav,,,,,,,,,,,,,,,0,101,101,26,,,,,,,,,,,,,,,,,,,,,,,1033.733343352098,None,1035.2496819812804,None,1036.6332811191678,None,ift,1036.6332811191678,None,return,1.8412200366146863,1036.7166343471035,None,,,,,,,,,,,,,,,,,,,,,,,,,,,,,,,,,,,,,,,131,001,2023_Nov_08_1641,SpeechDraft1Carolyn_lessNoise_PlusLocalization,2021.2.3,59.08140175364454,
creep.wav,creep.mpg,creep,1,AV,Pink_Noise_1_1.wav,Pink_Noise_1_2.wav,,,,,,,,,,,,,,,0,102,102,93,,,,,,,,,,,,,,,,,,,,,,,1038.5832687402144,None,1040.1163347130641,None,1041.5000826092437,None,creap,1041.5000826092437,None,return,5.974498180206865,1041.5833410932682,None,,,,,,,,,,,,,,,,,,,,,,,,,,,,,,,,,,,,,,,131,001,2023_Nov_08_1641,SpeechDraft1Carolyn_lessNoise_PlusLocalization,2021.2.3,59.08140175364454,
dress.wav,dress.mpg,dress,2,AV,Pink_Noise_2_1.wav,Pink_Noise_2_2.wav,,,,,,,,,,,,,,,0,103,103,82,,,,,,,,,,,,,,,,,,,,,,,1047.5832858053036,None,1049.0996715179645,None,1050.4832422733307,None,dress,1050.4832422733307,None,return,2.97517362004146,1050.566673102323,None,,,,,,,,,,,,,,,,,,,,,,,,,,,,,,,,,,,,,,,131,001,2023_Nov_08_1641,SpeechDraft1Carolyn_lessNoise_PlusLocalization,2021.2.3,59.08140175364454,
flake.wav,flake.mpg,flake,2,A,Pink_Noise_2_1.wav,Pink_Noise_2_2.wav,,,,,,,,,,,,,,,0,104,104,52,,,,,,,,,,,,,,,,,,,,,,,1053.5666034100577,None,1055.1163491890766,None,1056.4999404870905,None,flake,1056.4999404870905,None,return,6.3585858680307865,1056.5833023772575,None,,,,,,,,,,,,,,,,,,,,,,,,,,,,,,,,,,,,,,,131,001,2023_Nov_08_1641,SpeechDraft1Carolyn_lessNoise_PlusLocalization,2021.2.3,59.08140175364454,
earth.wav,earth.mpg,earth,3,A,Pink_Noise_3_1.wav,Pink_Noise_3_2.wav,,,,,,,,,,,,,,,0,105,105,25,,,,,,,,,,,,,,,,,,,,,,,1062.9667043583468,None,1064.4830877212808,None,1065.8666661093011,None,earth,1065.8666661093011,None,return,3.2319574430584908,1065.949992368929,None,,,,,,,,,,,,,,,,,,,,,,,,,,,,,,,,,,,,,,,131,001,2023_Nov_08_1641,SpeechDraft1Carolyn_lessNoise_PlusLocalization,2021.2.3,59.08140175364454,
faith.wav,faith.mpg,faith,4,A,Pink_Noise_4_1.wav,Pink_Noise_4_2.wav,,,,,,,,,,,,,,,0,106,106,50,,,,,,,,,,,,,,,,,,,,,,,1069.2000115779229,None,1070.7162880641408,None,1072.099942673929,None,place,1072.099942673929,None,return,2.678471175953746,1072.1834161239676,None,,,,,,,,,,,,,,,,,,,,,,,,,,,,,,,,,,,,,,,131,001,2023_Nov_08_1641,SpeechDraft1Carolyn_lessNoise_PlusLocalization,2021.2.3,59.08140175364454,
toast.wav,toast.mpg,toast,3,A,Pink_Noise_3_1.wav,Pink_Noise_3_2.wav,,,,,,,,,,,,,,,0,107,107,24,,,,,,,,,,,,,,,,,,,,,,,1074.883317163214,None,1076.3997720461339,None,1077.7834034203552,None,toast,1077.7834034203552,None,return,2.091218105982989,1077.8666288149543,None,,,,,,,,,,,,,,,,,,,,,,,,,,,,,,,,,,,,,,,131,001,2023_Nov_08_1641,SpeechDraft1Carolyn_lessNoise_PlusLocalization,2021.2.3,59.08140175364454,
fan.wav,fan.mpg,fan,3,A,Pink_Noise_3_1.wav,Pink_Noise_3_2.wav,,,,,,,,,,,,,,,0,108,108,18,,,,,,,,,,,,,,,,,,,,,,,1079.9834472863004,None,1081.4841532800347,None,1082.8666690383106,None,stand,1082.8666690383106,None,return,1.2718713581562042,1082.9500914290547,None,,,,,,,,,,,,,,,,,,,,,,,,,,,,,,,,,,,,,,,131,001,2023_Nov_08_1641,SpeechDraft1Carolyn_lessNoise_PlusLocalization,2021.2.3,59.08140175364454,
bloat.wav,bloat.mpg,bloat,1,A,Pink_Noise_1_1.wav,Pink_Noise_1_2.wav,,,,,,,,,,,,,,,0,109,109,42,,,,,,,,,,,,,,,,,,,,,,,1084.2500783880241,None,1085.7516417922452,None,1087.1333854212426,None,"float
",1087.1333854212426,None,return,2.4691529856063426,1087.2167158150114,None,,,,,,,,,,,,,,,,,,,,,,,,,,,,,,,,,,,,,,,131,001,2023_Nov_08_1641,SpeechDraft1Carolyn_lessNoise_PlusLocalization,2021.2.3,59.08140175364454,
build.wav,build.mpg,build,1,A,Pink_Noise_1_1.wav,Pink_Noise_1_2.wav,,,,,,,,,,,,,,,0,110,110,47,,,,,,,,,,,,,,,,,,,,,,,1089.7167075793259,None,1091.2331331740133,None,1092.616697425954,None,"buiuld
",1092.616697425954,None,return,1.9698468940332532,1092.7000275589526,None,,,,,,,,,,,,,,,,,,,,,,,,,,,,,,,,,,,,,,,131,001,2023_Nov_08_1641,SpeechDraft1Carolyn_lessNoise_PlusLocalization,2021.2.3,59.08140175364454,
cliff.wav,cliff.mpg,cliff,4,AV,Pink_Noise_4_1.wav,Pink_Noise_4_2.wav,,,,,,,,,,,,,,,0,111,111,73,,,,,,,,,,,,,,,,,,,,,,,1094.7000442449935,None,1096.2165294303559,None,1097.5999102499336,None,give,1097.5999102499336,None,return,2.5384972048923373,1097.6834275950678,None,,,,,,,,,,,,,,,,,,,,,,,,,,,,,,,,,,,,,,,131,001,2023_Nov_08_1641,SpeechDraft1Carolyn_lessNoise_PlusLocalization,2021.2.3,59.08140175364454,
blunt.wav,blunt.mpg,blunt,4,AV,Pink_Noise_4_1.wav,Pink_Noise_4_2.wav,,,,,,,,,,,,,,,0,112,112,119,,,,,,,,,,,,,,,,,,,,,,,1100.2499786913395,None,1101.7998426780105,None,1103.183271621354,None,what,1103.183271621354,None,return,1.3310111798346043,1103.2668596561998,None,,,,,,,,,,,,,,,,,,,,,,,,,,,,,,,,,,,,,,,131,001,2023_Nov_08_1641,SpeechDraft1Carolyn_lessNoise_PlusLocalization,2021.2.3,59.08140175364454,
flock.wav,flock.mpg,flock,5,AV,Pink_Noise_5_1.wav,Pink_Noise_5_2.wav,,,,,,,,,,,,,,,0,113,113,107,,,,,,,,,,,,,,,,,,,,,,,1104.616711512208,None,1106.1497782459483,None,1107.5335176340304,None,fly,1107.5335176340304,None,return,2.757180971093476,1107.6167222801596,None,,,,,,,,,,,,,,,,,,,,,,,,,,,,,,,,,,,,,,,131,001,2023_Nov_08_1641,SpeechDraft1Carolyn_lessNoise_PlusLocalization,2021.2.3,59.08140175364454,
built.wav,built.mpg,built,4,A,Pink_Noise_4_1.wav,Pink_Noise_4_2.wav,,,,,,,,,,,,,,,0,114,114,46,,,,,,,,,,,,,,,,,,,,,,,1110.4000445422716,None,1111.916547050234,None,1113.299995841924,None,built,1113.299995841924,None,return,3.974521581083536,1113.3834148449823,None,,,,,,,,,,,,,,,,,,,,,,,,,,,,,,,,,,,,,,,131,001,2023_Nov_08_1641,SpeechDraft1Carolyn_lessNoise_PlusLocalization,2021.2.3,59.08140175364454,
wound.wav,wound.mpg,wound,1,AV,Pink_Noise_1_1.wav,Pink_Noise_1_2.wav,,,,,,,,,,,,,,,0,115,115,116,,,,,,,,,,,,,,,,,,,,,,,1117.3833681689575,None,1118.8998003499582,None,1120.2833575871773,None,wound,1120.2833575871773,None,return,5.287138442974538,1120.3667310113087,None,,,,,,,,,,,,,,,,,,,,,,,,,,,,,,,,,,,,,,,131,001,2023_Nov_08_1641,SpeechDraft1Carolyn_lessNoise_PlusLocalization,2021.2.3,59.08140175364454,
bag.wav,bag.mpg,bag,1,A,Pink_Noise_1_1.wav,Pink_Noise_1_2.wav,,,,,,,,,,,,,,,0,116,116,34,,,,,,,,,,,,,,,,,,,,,,,1125.6834721183404,None,1127.1834985772148,None,1128.5668438621797,None,bag,1128.5668438621797,None,return,1.37190444720909,1128.6500238310546,None,,,,,,,,,,,,,,,,,,,,,,,,,,,,,,,,,,,,,,,131,001,2023_Nov_08_1641,SpeechDraft1Carolyn_lessNoise_PlusLocalization,2021.2.3,59.08140175364454,
gulf.wav,gulf.mpg,gulf,3,A,Pink_Noise_3_1.wav,Pink_Noise_3_2.wav,,,,,,,,,,,,,,,0,117,117,1,,,,,,,,,,,,,,,,,,,,,,,1130.0500483862124,None,1131.566496970132,None,1132.9501360142604,None,core,1132.9501360142604,None,return,2.924433572217822,1133.033413622994,None,,,,,,,,,,,,,,,,,,,,,,,,,,,,,,,,,,,,,,,131,001,2023_Nov_08_1641,SpeechDraft1Carolyn_lessNoise_PlusLocalization,2021.2.3,59.08140175364454,
priest.wav,priest.mpg,priest,1,A,Pink_Noise_1_1.wav,Pink_Noise_1_2.wav,,,,,,,,,,,,,,,0,118,118,35,,,,,,,,,,,,,,,,,,,,,,,1135.983400054276,None,1137.4999029962346,None,1138.8835435281508,None,"preist
",1138.8835435281508,None,return,2.967030353844166,1138.9668292421848,None,,,,,,,,,,,,,,,,,,,,,,,,,,,,,,,,,,,,,,,131,001,2023_Nov_08_1641,SpeechDraft1Carolyn_lessNoise_PlusLocalization,2021.2.3,59.08140175364454,
goal.wav,goal.mpg,goal,5,A,Pink_Noise_5_1.wav,Pink_Noise_5_2.wav,,,,,,,,,,,,,,,0,119,119,28,,,,,,,,,,,,,,,,,,,,,,,1141.9668353833258,None,1143.499726117123,None,1144.8834672300145,None,water,1144.8834672300145,None,return,2.327080189716071,1144.9668093002401,None,,,,,,,,,,,,,,,,,,,,,,,,,,,,,,,,,,,,,,,131,001,2023_Nov_08_1641,SpeechDraft1Carolyn_lessNoise_PlusLocalization,2021.2.3,59.08140175364454,
,,,,,,,,,,,,,,,,,,,,,,,,,,,,,,,,,,,,,,,,,,,,,,,,,,,,,,,,,,,,,,,,,,space,34.06169486278668,1147.4001699350774,None,,,,,,,,,,,,,,,,,,,,,,,,,,,,,131,001,2023_Nov_08_1641,SpeechDraft1Carolyn_lessNoise_PlusLocalization,2021.2.3,59.08140175364454,
,,,,,,,,nearLeft,-6.5,1,ch1Sound_localizationTask.wav,-6.5,"(857, 878)","(-103,-202)",-95,-338,,,,,,,,,0,0,0,2,,,,,,,,,,,,,,,,,,,,,,,,,,,,,,,,,,,,,,,,,,1147.4001699350774,None,1181.4999663233757,None,1182.5999178020284,None,1183.5332918423228,None,1.3021164021164022,2.284696387127042,1183.5332918423228,None,,,,,,,,,,,,,,,,,131,001,2023_Nov_08_1641,SpeechDraft1Carolyn_lessNoise_PlusLocalization,2021.2.3,59.08140175364454,
,,,,,,,,nearRight,6.5,0,ch1Sound_localizationTask.wav,6.5,"(1047, 878)","(87, -202)",95,-338,,,,,,,,,0,1,1,4,,,,,,,,,,,,,,,,,,,,,,,,,,,,,,,,,,,,,,,,,,,,1185.8181165722199,None,1186.9332860819995,None,1187.8498961613514,None,1.4005291005291005,1.648647435940802,1187.8498961613514,None,,,,,,,,,,,,,,,,,131,001,2023_Nov_08_1641,SpeechDraft1Carolyn_lessNoise_PlusLocalization,2021.2.3,59.08140175364454,
,,,,,,,,midRight,13.0,3,ch1Sound_localizationTask.wav,13.0,"(1142, 878)","(182, -202)",190,-338,,,,,,,,,0,2,2,5,,,,,,,,,,,,,,,,,,,,,,,,,,,,,,,,,,,,,,,,,,,,1189.500198427122,None,1190.5999546363018,None,1191.53325344529,None,1.5735449735449736,1.0332550932653248,1191.53325344529,None,,,,,,,,,,,,,,,,,131,001,2023_Nov_08_1641,SpeechDraft1Carolyn_lessNoise_PlusLocalization,2021.2.3,59.08140175364454,
,,,,,,,,midRight,13.0,3,ch1Sound_localizationTask.wav,13.0,"(1142, 878)","(182, -202)",190,-338,,,,,,,,,0,3,3,5,,,,,,,,,,,,,,,,,,,,,,,,,,,,,,,,,,,,,,,,,,,,1192.5836599520408,None,1193.6832199259661,None,1194.6165098003112,None,1.5624338624338625,1.099652080796659,1194.6165098003112,None,,,,,,,,,,,,,,,,,131,001,2023_Nov_08_1641,SpeechDraft1Carolyn_lessNoise_PlusLocalization,2021.2.3,59.08140175364454,
,,,,,,,,center,0.0,6,ch1Sound_localizationTask.wav,0.0,"(952, 878)","(-8,-202)",0,-338,,,,,,,,,0,4,4,3,,,,,,,,,,,,,,,,,,,,,,,,,,,,,,,,,,,,,,,,,,,,1195.7335565560497,None,1196.833320243284,None,1197.7667197240517,None,1.4947089947089947,1.5488810711540282,1197.7667197240517,None,,,,,,,,,,,,,,,,,131,001,2023_Nov_08_1641,SpeechDraft1Carolyn_lessNoise_PlusLocalization,2021.2.3,59.08140175364454,
,,,,,,,,nearRight,6.5,0,ch1Sound_localizationTask.wav,6.5,"(1047, 878)","(87, -202)",95,-338,,,,,,,,,0,5,5,4,,,,,,,,,,,,,,,,,,,,,,,,,,,,,,,,,,,,,,,,,,,,1199.3168642199598,None,1200.4168481812812,None,1201.349981490057,None,1.543915343915344,0.632774940226227,1201.349981490057,None,,,,,,,,,,,,,,,,,131,001,2023_Nov_08_1641,SpeechDraft1Carolyn_lessNoise_PlusLocalization,2021.2.3,59.08140175364454,
,,,,,,,,midLeft,-13.0,2,ch1Sound_localizationTask.wav,-13.0,"(762, 878)","(-198,-202)",-190,-338,,,,,,,,,0,6,6,1,,,,,,,,,,,,,,,,,,,,,,,,,,,,,,,,,,,,,,,,,,,,1201.9834993663244,None,1203.0831887843087,None,1204.0166361792944,None,1.3015873015873016,1.3989651203155518,1204.0166361792944,None,,,,,,,,,,,,,,,,,131,001,2023_Nov_08_1641,SpeechDraft1Carolyn_lessNoise_PlusLocalization,2021.2.3,59.08140175364454,
,,,,,,,,farRight,19.1,4,ch1Sound_localizationTask.wav,19.1,"(1237, 878)","(277,-202)",285,-338,,,,,,,,,1,0,7,6,,,,,,,,,,,,,,,,,,,,,,,,,,,,,,,,,,,,,,,,,,,,1205.4167675999925,None,1206.516608997248,None,1207.4500150620006,None,1.7582010582010583,1.4166759080253541,1207.4500150620006,None,,,,,,,,,,,,,,,,,131,001,2023_Nov_08_1641,SpeechDraft1Carolyn_lessNoise_PlusLocalization,2021.2.3,59.08140175364454,
,,,,,,,,farLeft,-19.1,5,ch1Sound_localizationTask.wav,-19.1,"(667, 878)","(-293,-202)",-285,-338,,,,,,,,,1,1,8,0,,,,,,,,,,,,,,,,,,,,,,,,,,,,,,,,,,,,,,,,,,,,1208.8834958761,None,1209.9832180193625,None,1210.9166290769354,None,1.2767195767195767,1.1670048269443214,1210.9166290769354,None,,,,,,,,,,,,,,,,,131,001,2023_Nov_08_1641,SpeechDraft1Carolyn_lessNoise_PlusLocalization,2021.2.3,59.08140175364454,
,,,,,,,,center,0.0,6,ch1Sound_localizationTask.wav,0.0,"(952, 878)","(-8,-202)",0,-338,,,,,,,,,1,2,9,3,,,,,,,,,,,,,,,,,,,,,,,,,,,,,,,,,,,,,,,,,,,,1212.1001624553464,None,1213.1998978452757,None,1214.133216059301,None,1.491005291005291,0.8992367782630026,1214.133216059301,None,,,,,,,,,,,,,,,,,131,001,2023_Nov_08_1641,SpeechDraft1Carolyn_lessNoise_PlusLocalization,2021.2.3,59.08140175364454,
,,,,,,,,farLeft,-19.1,5,ch1Sound_localizationTask.wav,-19.1,"(667, 878)","(-293,-202)",-285,-338,,,,,,,,,1,3,10,0,,,,,,,,,,,,,,,,,,,,,,,,,,,,,,,,,,,,,,,,,,,,1215.033508463297,None,1216.1331483363174,None,1217.0665145972744,None,1.3835978835978837,0.8664855030365288,1217.0665145972744,None,,,,,,,,,,,,,,,,,131,001,2023_Nov_08_1641,SpeechDraft1Carolyn_lessNoise_PlusLocalization,2021.2.3,59.08140175364454,
,,,,,,,,midRight,13.0,3,ch1Sound_localizationTask.wav,13.0,"(1142, 878)","(182, -202)",190,-338,,,,,,,,,1,4,11,5,,,,,,,,,,,,,,,,,,,,,,,,,,,,,,,,,,,,,,,,,,,,1217.9342453312129,None,1219.0331950820982,None,1219.966589435935,None,1.644973544973545,1.1660055997781456,1219.966589435935,None,,,,,,,,,,,,,,,,,131,001,2023_Nov_08_1641,SpeechDraft1Carolyn_lessNoise_PlusLocalization,2021.2.3,59.08140175364454,
,,,,,,,,farLeft,-19.1,5,ch1Sound_localizationTask.wav,-19.1,"(667, 878)","(-293,-202)",-285,-338,,,,,,,,,1,5,12,0,,,,,,,,,,,,,,,,,,,,,,,,,,,,,,,,,,,,,,,,,,,,1221.1335552800447,None,1222.2334891580977,None,1223.166575229261,None,1.2661375661375662,0.9835612741298974,1223.166575229261,None,,,,,,,,,,,,,,,,,131,001,2023_Nov_08_1641,SpeechDraft1Carolyn_lessNoise_PlusLocalization,2021.2.3,59.08140175364454,
,,,,,,,,midLeft,-13.0,2,ch1Sound_localizationTask.wav,-13.0,"(762, 878)","(-198,-202)",-190,-338,,,,,,,,,1,6,13,1,,,,,,,,,,,,,,,,,,,,,,,,,,,,,,,,,,,,,,,,,,,,1224.1507884999737,None,1225.249920648057,None,1226.183340031188,None,1.4788359788359788,0.9003697182051837,1226.183340031188,None,,,,,,,,,,,,,,,,,131,001,2023_Nov_08_1641,SpeechDraft1Carolyn_lessNoise_PlusLocalization,2021.2.3,59.08140175364454,
,,,,,,,,center,0.0,6,ch1Sound_localizationTask.wav,0.0,"(952, 878)","(-8,-202)",0,-338,,,,,,,,,2,0,14,3,,,,,,,,,,,,,,,,,,,,,,,,,,,,,,,,,,,,,,,,,,,,1227.100306279026,None,1228.199924542103,None,1229.13327166019,None,1.5037037037037035,0.6157785351388156,1229.13327166019,None,,,,,,,,,,,,,,,,,131,001,2023_Nov_08_1641,SpeechDraft1Carolyn_lessNoise_PlusLocalization,2021.2.3,59.08140175364454,
,,,,,,,,nearLeft,-6.5,1,ch1Sound_localizationTask.wav,-6.5,"(857, 878)","(-103,-202)",-95,-338,,,,,,,,,2,1,15,2,,,,,,,,,,,,,,,,,,,,,,,,,,,,,,,,,,,,,,,,,,,,1229.7503553652205,None,1230.8501911563799,None,1231.7832614462823,None,1.5,0.5665887710638344,1231.7832614462823,None,,,,,,,,,,,,,,,,,131,001,2023_Nov_08_1641,SpeechDraft1Carolyn_lessNoise_PlusLocalization,2021.2.3,59.08140175364454,
,,,,,,,,nearRight,6.5,0,ch1Sound_localizationTask.wav,6.5,"(1047, 878)","(87, -202)",95,-338,,,,,,,,,2,2,16,4,,,,,,,,,,,,,,,,,,,,,,,,,,,,,,,,,,,,,,,,,,,,1232.3504773611203,None,1233.4500223649666,None,1234.383378710132,None,1.5005291005291004,1.0168126220814884,1234.383378710132,None,,,,,,,,,,,,,,,,,131,001,2023_Nov_08_1641,SpeechDraft1Carolyn_lessNoise_PlusLocalization,2021.2.3,59.08140175364454,
,,,,,,,,midLeft,-13.0,2,ch1Sound_localizationTask.wav,-13.0,"(762, 878)","(-198,-202)",-190,-338,,,,,,,,,2,3,17,1,,,,,,,,,,,,,,,,,,,,,,,,,,,,,,,,,,,,,,,,,,,,1235.4001681562513,None,1236.4999149581417,None,1237.4333035172895,None,1.4153439153439153,0.9165393239818513,1237.4333035172895,None,,,,,,,,,,,,,,,,,131,001,2023_Nov_08_1641,SpeechDraft1Carolyn_lessNoise_PlusLocalization,2021.2.3,59.08140175364454,
,,,,,,,,nearRight,6.5,0,ch1Sound_localizationTask.wav,6.5,"(1047, 878)","(87, -202)",95,-338,,,,,,,,,2,4,18,4,,,,,,,,,,,,,,,,,,,,,,,,,,,,,,,,,,,,,,,,,,,,1238.351364841219,None,1239.4666918292642,None,1240.383367489092,None,1.5317460317460316,1.0491058179177344,1240.383367489092,None,,,,,,,,,,,,,,,,,131,001,2023_Nov_08_1641,SpeechDraft1Carolyn_lessNoise_PlusLocalization,2021.2.3,59.08140175364454,
,,,,,,,,nearLeft,-6.5,1,ch1Sound_localizationTask.wav,-6.5,"(857, 878)","(-103,-202)",-95,-338,,,,,,,,,2,5,19,2,,,,,,,,,,,,,,,,,,,,,,,,,,,,,,,,,,,,,,,,,,,,1241.4334873799235,None,1242.533298174385,None,1243.4666464943439,None,1.4513227513227513,0.8336523449979722,1243.4666464943439,None,,,,,,,,,,,,,,,,,131,001,2023_Nov_08_1641,SpeechDraft1Carolyn_lessNoise_PlusLocalization,2021.2.3,59.08140175364454,
,,,,,,,,farLeft,-19.1,5,ch1Sound_localizationTask.wav,-19.1,"(667, 878)","(-293,-202)",-285,-338,,,,,,,,,2,6,20,0,,,,,,,,,,,,,,,,,,,,,,,,,,,,,,,,,,,,,,,,,,,,1244.3168917573057,None,1245.4165242989548,None,1246.349994875025,None,1.471957671957672,0.6840801769867539,1246.349994875025,None,,,,,,,,,,,,,,,,,131,001,2023_Nov_08_1641,SpeechDraft1Carolyn_lessNoise_PlusLocalization,2021.2.3,59.08140175364454,
,,,,,,,,midRight,13.0,3,ch1Sound_localizationTask.wav,13.0,"(1142, 878)","(182, -202)",190,-338,,,,,,,,,3,0,21,5,,,,,,,,,,,,,,,,,,,,,,,,,,,,,,,,,,,,,,,,,,,,1247.0502520431764,None,1248.1499302801676,None,1249.083113858942,None,1.801058201058201,1.8664901540614665,1249.083113858942,None,,,,,,,,,,,,,,,,,131,001,2023_Nov_08_1641,SpeechDraft1Carolyn_lessNoise_PlusLocalization,2021.2.3,59.08140175364454,
,,,,,,,,center,0.0,6,ch1Sound_localizationTask.wav,0.0,"(952, 878)","(-8,-202)",0,-338,,,,,,,,,3,1,22,3,,,,,,,,,,,,,,,,,,,,,,,,,,,,,,,,,,,,,,,,,,,,1250.9670485933311,None,1252.0666261119768,None,1252.9999159043655,None,1.7793650793650793,1.04979387531057,1252.9999159043655,None,,,,,,,,,,,,,,,,,131,001,2023_Nov_08_1641,SpeechDraft1Carolyn_lessNoise_PlusLocalization,2021.2.3,59.08140175364454,
,,,,,,,,midRight,13.0,3,ch1Sound_localizationTask.wav,13.0,"(1142, 878)","(182, -202)",190,-338,,,,,,,,,3,2,23,5,,,,,,,,,,,,,,,,,,,,,,,,,,,,,,,,,,,,,,,,,,,,1254.0502691892907,None,1255.1500127641484,None,1256.083291022107,None,1.6962962962962962,0.500478224363178,1256.083291022107,None,,,,,,,,,,,,,,,,,131,001,2023_Nov_08_1641,SpeechDraft1Carolyn_lessNoise_PlusLocalization,2021.2.3,59.08140175364454,
,,,,,,,,farRight,19.1,4,ch1Sound_localizationTask.wav,19.1,"(1237, 878)","(277,-202)",285,-338,,,,,,,,,3,3,24,6,,,,,,,,,,,,,,,,,,,,,,,,,,,,,,,,,,,,,,,,,,,,1256.6002225461416,None,1257.6998974499293,None,1258.633375306148,None,1.6957671957671958,0.5667278836481273,1258.633375306148,None,,,,,,,,,,,,,,,,,131,001,2023_Nov_08_1641,SpeechDraft1Carolyn_lessNoise_PlusLocalization,2021.2.3,59.08140175364454,
,,,,,,,,nearLeft,-6.5,1,ch1Sound_localizationTask.wav,-6.5,"(857, 878)","(-103,-202)",-95,-338,,,,,,,,,3,4,25,2,,,,,,,,,,,,,,,,,,,,,,,,,,,,,,,,,,,,,,,,,,,,1259.2002873229794,None,1260.300032122992,None,1261.2334674913436,None,1.507936507936508,0.7328239697962999,1261.2334674913436,None,,,,,,,,,,,,,,,,,131,001,2023_Nov_08_1641,SpeechDraft1Carolyn_lessNoise_PlusLocalization,2021.2.3,59.08140175364454,
,,,,,,,,farLeft,-19.1,5,ch1Sound_localizationTask.wav,-19.1,"(667, 878)","(-293,-202)",-285,-338,,,,,,,,,3,5,26,0,,,,,,,,,,,,,,,,,,,,,,,,,,,,,,,,,,,,,,,,,,,,1261.9670368591323,None,1263.0666047260165,None,1264.0000207200646,None,1.4179894179894181,1.1499551571905613,1264.0000207200646,None,,,,,,,,,,,,,,,,,131,001,2023_Nov_08_1641,SpeechDraft1Carolyn_lessNoise_PlusLocalization,2021.2.3,59.08140175364454,
,,,,,,,,farRight,19.1,4,ch1Sound_localizationTask.wav,19.1,"(1237, 878)","(277,-202)",285,-338,,,,,,,,,3,6,27,6,,,,,,,,,,,,,,,,,,,,,,,,,,,,,,,,,,,,,,,,,,,,1265.1669123861939,None,1266.2667524330318,None,1267.1999720800668,None,1.715873015873016,0.932924322783947,1267.1999720800668,None,,,,,,,,,,,,,,,,,131,001,2023_Nov_08_1641,SpeechDraft1Carolyn_lessNoise_PlusLocalization,2021.2.3,59.08140175364454,
,,,,,,,,nearLeft,-6.5,1,ch1Sound_localizationTask.wav,-6.5,"(857, 878)","(-103,-202)",-95,-338,,,,,,,,,4,0,28,2,,,,,,,,,,,,,,,,,,,,,,,,,,,,,,,,,,,,,,,,,,,,1268.1336390669458,None,1269.2333874590695,None,1270.1667487709783,None,1.462962962962963,1.4668483911082149,1270.1667487709783,None,,,,,,,,,,,,,,,,,131,001,2023_Nov_08_1641,SpeechDraft1Carolyn_lessNoise_PlusLocalization,2021.2.3,59.08140175364454,
,,,,,,,,farLeft,-19.1,5,ch1Sound_localizationTask.wav,-19.1,"(667, 878)","(-293,-202)",-285,-338,,,,,,,,,4,1,29,0,,,,,,,,,,,,,,,,,,,,,,,,,,,,,,,,,,,,,,,,,,,,1271.6343064112589,None,1272.7331708841957,None,1273.666704354342,None,1.298941798941799,5.1664171437732875,1273.666704354342,None,,,,,,,,,,,,,,,,,131,001,2023_Nov_08_1641,SpeechDraft1Carolyn_lessNoise_PlusLocalization,2021.2.3,59.08140175364454,
,,,,,,,,farRight,19.1,4,ch1Sound_localizationTask.wav,19.1,"(1237, 878)","(277,-202)",285,-338,,,,,,,,,4,2,30,6,,,,,,,,,,,,,,,,,,,,,,,,,,,,,,,,,,,,,,,,,,,,1278.834708174225,None,1279.950080153998,None,1280.866752885282,None,1.307936507936508,9.43403000663966,1280.866752885282,None,,,,,,,,,,,,,,,,,131,001,2023_Nov_08_1641,SpeechDraft1Carolyn_lessNoise_PlusLocalization,2021.2.3,59.08140175364454,
,,,,,,,,nearLeft,-6.5,1,ch1Sound_localizationTask.wav,-6.5,"(857, 878)","(-103,-202)",-95,-338,,,,,,,,,4,3,31,2,,,,,,,,,,,,,,,,,,,,,,,,,,,,,,,,,,,,,,,,,,,,1290.3169500520453,None,1291.4166215360165,None,1292.3500778293237,None,1.3587301587301588,0.7836333788000047,1292.3500778293237,None,,,,,,,,,,,,,,,,,131,001,2023_Nov_08_1641,SpeechDraft1Carolyn_lessNoise_PlusLocalization,2021.2.3,59.08140175364454,
,,,,,,,,midRight,13.0,3,ch1Sound_localizationTask.wav,13.0,"(1142, 878)","(182, -202)",190,-338,,,,,,,,,4,4,32,5,,,,,,,,,,,,,,,,,,,,,,,,,,,,,,,,,,,,,,,,,,,,1293.1504027140327,None,1294.250114621129,None,1295.1833524503745,None,1.5502645502645502,1.150207313708961,1295.1833524503745,None,,,,,,,,,,,,,,,,,131,001,2023_Nov_08_1641,SpeechDraft1Carolyn_lessNoise_PlusLocalization,2021.2.3,59.08140175364454,
,,,,,,,,midLeft,-13.0,2,ch1Sound_localizationTask.wav,-13.0,"(762, 878)","(-198,-202)",-190,-338,,,,,,,,,4,5,33,1,,,,,,,,,,,,,,,,,,,,,,,,,,,,,,,,,,,,,,,,,,,,1296.3504756521434,None,1297.4500461453572,None,1298.38335200632,None,1.2904761904761906,0.9155970332212746,1298.38335200632,None,,,,,,,,,,,,,,,,,131,001,2023_Nov_08_1641,SpeechDraft1Carolyn_lessNoise_PlusLocalization,2021.2.3,59.08140175364454,
,,,,,,,,nearRight,6.5,0,ch1Sound_localizationTask.wav,6.5,"(1047, 878)","(87, -202)",95,-338,,,,,,,,,4,6,34,4,,,,,,,,,,,,,,,,,,,,,,,,,,,,,,,,,,,,,,,,,,,,1299.3009410323575,None,1300.4003198831342,None,1301.3333697379567,None,1.493121693121693,1.6168412361294031,1301.3333697379567,None,,,,,,,,,,,,,,,,,131,001,2023_Nov_08_1641,SpeechDraft1Carolyn_lessNoise_PlusLocalization,2021.2.3,59.08140175364454,
,,,,,,,,midLeft,-13.0,2,ch1Sound_localizationTask.wav,-13.0,"(762, 878)","(-198,-202)",-190,-338,,,,,,,,,5,0,35,1,,,,,,,,,,,,,,,,,,,,,,,,,,,,,,,,,,,,,,,,,,,,1302.950383279007,None,1304.0500403349288,None,1304.9833425441757,None,1.3714285714285714,0.6456210846081376,1304.9833425441757,None,,,,,,,,,,,,,,,,,131,001,2023_Nov_08_1641,SpeechDraft1Carolyn_lessNoise_PlusLocalization,2021.2.3,59.08140175364454,
,,,,,,,,center,0.0,6,ch1Sound_localizationTask.wav,0.0,"(952, 878)","(-8,-202)",0,-338,,,,,,,,,5,1,36,3,,,,,,,,,,,,,,,,,,,,,,,,,,,,,,,,,,,,,,,,,,,,1305.6337105073035,None,1306.733460915275,None,1307.6667340071872,None,1.3693121693121693,0.5828741197474301,1307.6667340071872,None,,,,,,,,,,,,,,,,,131,001,2023_Nov_08_1641,SpeechDraft1Carolyn_lessNoise_PlusLocalization,2021.2.3,59.08140175364454,
,,,,,,,,farRight,19.1,4,ch1Sound_localizationTask.wav,19.1,"(1237, 878)","(277,-202)",285,-338,,,,,,,,,5,2,37,6,,,,,,,,,,,,,,,,,,,,,,,,,,,,,,,,,,,,,,,,,,,,1308.2504419693723,None,1309.3500105082057,None,1310.2832627990283,None,1.6164021164021163,1.2660913751460612,1310.2832627990283,None,,,,,,,,,,,,,,,,,131,001,2023_Nov_08_1641,SpeechDraft1Carolyn_lessNoise_PlusLocalization,2021.2.3,59.08140175364454,
,,,,,,,,nearLeft,-6.5,1,ch1Sound_localizationTask.wav,-6.5,"(857, 878)","(-103,-202)",-95,-338,,,,,,,,,5,3,38,2,,,,,,,,,,,,,,,,,,,,,,,,,,,,,,,,,,,,,,,,,,,,1311.551818470005,None,1312.666788239032,None,1313.583384849131,None,1.4455026455026454,2.083298610057682,1313.583384849131,None,,,,,,,,,,,,,,,,,131,001,2023_Nov_08_1641,SpeechDraft1Carolyn_lessNoise_PlusLocalization,2021.2.3,59.08140175364454,
,,,,,,,,center,0.0,6,ch1Sound_localizationTask.wav,0.0,"(952, 878)","(-8,-202)",0,-338,,,,,,,,,5,4,39,3,,,,,,,,,,,,,,,,,,,,,,,,,,,,,,,,,,,,,,,,,,,,1315.6670497469604,None,1316.766725903377,None,1317.6998589322902,None,1.506878306878307,0.7334399097599089,1317.6998589322902,None,,,,,,,,,,,,,,,,,131,001,2023_Nov_08_1641,SpeechDraft1Carolyn_lessNoise_PlusLocalization,2021.2.3,59.08140175364454,
,,,,,,,,center,0.0,6,ch1Sound_localizationTask.wav,0.0,"(952, 878)","(-8,-202)",0,-338,,,,,,,,,5,5,40,3,,,,,,,,,,,,,,,,,,,,,,,,,,,,,,,,,,,,,,,,,,,,1318.4503310541622,None,1319.5500640091486,None,1320.4834476863034,None,1.498941798941799,0.7499493779614568,1320.4834476863034,None,,,,,,,,,,,,,,,,,131,001,2023_Nov_08_1641,SpeechDraft1Carolyn_lessNoise_PlusLocalization,2021.2.3,59.08140175364454,
,,,,,,,,midRight,13.0,3,ch1Sound_localizationTask.wav,13.0,"(1142, 878)","(182, -202)",190,-338,,,,,,,,,5,6,41,5,,,,,,,,,,,,,,,,,,,,,,,,,,,,,,,,,,,,,,,,,,,,1321.2337227063254,None,1322.3334213430062,None,1323.266904936172,None,1.8460317460317461,2.31612816080451,1323.266904936172,None,,,,,,,,,,,,,,,,,131,001,2023_Nov_08_1641,SpeechDraft1Carolyn_lessNoise_PlusLocalization,2021.2.3,59.08140175364454,
,,,,,,,,farLeft,-19.1,5,ch1Sound_localizationTask.wav,-19.1,"(667, 878)","(-293,-202)",-285,-338,,,,,,,,,6,0,42,0,,,,,,,,,,,,,,,,,,,,,,,,,,,,,,,,,,,,,,,,,,,,1325.5844035251066,None,1326.6833618050441,None,1327.6167164761573,None,1.3232804232804232,2.0319812442176044,1327.6167164761573,None,,,,,,,,,,,,,,,,,131,001,2023_Nov_08_1641,SpeechDraft1Carolyn_lessNoise_PlusLocalization,2021.2.3,59.08140175364454,
,,,,,,,,nearRight,6.5,0,ch1Sound_localizationTask.wav,6.5,"(1047, 878)","(87, -202)",95,-338,,,,,,,,,6,1,43,4,,,,,,,,,,,,,,,,,,,,,,,,,,,,,,,,,,,,,,,,,,,,1329.6503409543075,None,1330.7500451919623,None,1331.6833709883504,None,1.5015873015873016,1.2508724499493837,1331.6833709883504,None,,,,,,,,,,,,,,,,,131,001,2023_Nov_08_1641,SpeechDraft1Carolyn_lessNoise_PlusLocalization,2021.2.3,59.08140175364454,
,,,,,,,,farLeft,-19.1,5,ch1Sound_localizationTask.wav,-19.1,"(667, 878)","(-293,-202)",-285,-338,,,,,,,,,6,2,44,0,,,,,,,,,,,,,,,,,,,,,,,,,,,,,,,,,,,,,,,,,,,,1332.9502814910375,None,1334.0500228949822,None,1334.9834546642378,None,1.3523809523809525,0.8128169858828187,1334.9834546642378,None,,,,,,,,,,,,,,,,,131,001,2023_Nov_08_1641,SpeechDraft1Carolyn_lessNoise_PlusLocalization,2021.2.3,59.08140175364454,
,,,,,,,,farRight,19.1,4,ch1Sound_localizationTask.wav,19.1,"(1237, 878)","(277,-202)",285,-338,,,,,,,,,6,3,45,6,,,,,,,,,,,,,,,,,,,,,,,,,,,,,,,,,,,,,,,,,,,,1335.8171319239773,None,1336.916737608146,None,1337.8500450751744,None,1.7058201058201057,0.9505700287409127,1337.8500450751744,None,,,,,,,,,,,,,,,,,131,001,2023_Nov_08_1641,SpeechDraft1Carolyn_lessNoise_PlusLocalization,2021.2.3,59.08140175364454,
,,,,,,,,midRight,13.0,3,ch1Sound_localizationTask.wav,13.0,"(1142, 878)","(182, -202)",190,-338,,,,,,,,,6,4,46,5,,,,,,,,,,,,,,,,,,,,,,,,,,,,,,,,,,,,,,,,,,,,1338.8171480381861,None,1339.9168438790366,None,1340.8500282079913,None,1.5566137566137566,1.0502470210194588,1340.8500282079913,None,,,,,,,,,,,,,,,,,131,001,2023_Nov_08_1641,SpeechDraft1Carolyn_lessNoise_PlusLocalization,2021.2.3,59.08140175364454,
,,,,,,,,nearLeft,-6.5,1,ch1Sound_localizationTask.wav,-6.5,"(857, 878)","(-103,-202)",-95,-338,,,,,,,,,6,5,47,2,,,,,,,,,,,,,,,,,,,,,,,,,,,,,,,,,,,,,,,,,,,,1341.9169166330248,None,1343.0174893760122,None,1343.9501264672726,None,1.4793650793650794,0.5171932987868786,1343.9501264672726,None,,,,,,,,,,,,,,,,,131,001,2023_Nov_08_1641,SpeechDraft1Carolyn_lessNoise_PlusLocalization,2021.2.3,59.08140175364454,
,,,,,,,,farRight,19.1,4,ch1Sound_localizationTask.wav,19.1,"(1237, 878)","(277,-202)",285,-338,,,,,,,,,6,6,48,6,,,,,,,,,,,,,,,,,,,,,,,,,,,,,,,,,,,,,,,,,,,,1344.4683364490047,None,1345.5834048092365,None,1346.5000800210983,None,1.9253968253968254,1.9835977610200644,1346.5000800210983,None,,,,,,,,,,,,,,,,,131,001,2023_Nov_08_1641,SpeechDraft1Carolyn_lessNoise_PlusLocalization,2021.2.3,59.08140175364454,
,,,,,,,,center,0.0,6,ch1Sound_localizationTask.wav,0.0,"(952, 878)","(-8,-202)",0,-338,,,,,,,,,7,0,49,3,,,,,,,,,,,,,,,,,,,,,,,,,,,,,,,,,,,,,,,,,,,,1348.5002128742635,None,1349.6000895183533,None,1350.533440825995,None,1.498941798941799,2.466903713066131,1350.533440825995,None,,,,,,,,,,,,,,,,,131,001,2023_Nov_08_1641,SpeechDraft1Carolyn_lessNoise_PlusLocalization,2021.2.3,59.08140175364454,
,,,,,,,,midLeft,-13.0,2,ch1Sound_localizationTask.wav,-13.0,"(762, 878)","(-198,-202)",-190,-338,,,,,,,,,7,1,50,1,,,,,,,,,,,,,,,,,,,,,,,,,,,,,,,,,,,,,,,,,,,,1353.0003280462697,None,1354.1000410621054,None,1355.0335356951691,None,1.4994708994708994,0.5328820059075952,1355.0335356951691,None,,,,,,,,,,,,,,,,,131,001,2023_Nov_08_1641,SpeechDraft1Carolyn_lessNoise_PlusLocalization,2021.2.3,59.08140175364454,
,,,,,,,,nearRight,6.5,0,ch1Sound_localizationTask.wav,6.5,"(1047, 878)","(87, -202)",95,-338,,,,,,,,,7,2,51,4,,,,,,,,,,,,,,,,,,,,,,,,,,,,,,,,,,,,,,,,,,,,1355.5670833270997,None,1356.666730965022,None,1357.6001711920835,None,1.5,0.4654580168426037,1357.6001711920835,None,,,,,,,,,,,,,,,,,131,001,2023_Nov_08_1641,SpeechDraft1Carolyn_lessNoise_PlusLocalization,2021.2.3,59.08140175364454,
,,,,,,,,farRight,19.1,4,ch1Sound_localizationTask.wav,19.1,"(1237, 878)","(277,-202)",285,-338,,,,,,,,,7,3,52,6,,,,,,,,,,,,,,,,,,,,,,,,,,,,,,,,,,,,,,,,,,,,1358.0671484409831,None,1359.16681845719,None,1360.1000790591352,None,1.6312169312169313,0.6495446511544287,1360.1000790591352,None,,,,,,,,,,,,,,,,,131,001,2023_Nov_08_1641,SpeechDraft1Carolyn_lessNoise_PlusLocalization,2021.2.3,59.08140175364454,
,,,,,,,,nearRight,6.5,0,ch1Sound_localizationTask.wav,6.5,"(1047, 878)","(87, -202)",95,-338,,,,,,,,,7,4,53,4,,,,,,,,,,,,,,,,,,,,,,,,,,,,,,,,,,,,,,,,,,,,1360.7504595899954,None,1361.8501627920195,None,1362.7834141622297,None,1.5063492063492063,0.7323394911363721,1362.7834141622297,None,,,,,,,,,,,,,,,,,131,001,2023_Nov_08_1641,SpeechDraft1Carolyn_lessNoise_PlusLocalization,2021.2.3,59.08140175364454,
,,,,,,,,midLeft,-13.0,2,ch1Sound_localizationTask.wav,-13.0,"(762, 878)","(-198,-202)",-190,-338,,,,,,,,,7,5,54,1,,,,,,,,,,,,,,,,,,,,,,,,,,,,,,,,,,,,,,,,,,,,1363.517041014973,None,1364.616812332999,None,1365.5502656311728,None,1.4492063492063492,0.7338825669139624,1365.5502656311728,None,,,,,,,,,,,,,,,,,131,001,2023_Nov_08_1641,SpeechDraft1Carolyn_lessNoise_PlusLocalization,2021.2.3,59.08140175364454,
,,,,,,,,midLeft,-13.0,2,ch1Sound_localizationTask.wav,-13.0,"(762, 878)","(-198,-202)",-190,-338,,,,,,,,,7,6,55,1,,,,,,,,,,,,,,,,,,,,,,,,,,,,,,,,,,,,,,,,,,,,1366.3004218181595,None,1367.4001940540038,None,1368.3335201963782,None,1.455026455026455,0.8334670392796397,1368.3335201963782,None,,,,,,,,,,,,,,,,,131,001,2023_Nov_08_1641,SpeechDraft1Carolyn_lessNoise_PlusLocalization,2021.2.3,59.08140175364454,
,,,,,,,,,,,,,,,,,,,,,,,,,,,,,,,,,,,,,,,,,,,,,,,,,,,,,,,,,,,,,,,,,,,,,,,,,,,,,,,,,,space,10.283319696318358,1369.2505502770655,None,,,,,,,,,,,,,131,001,2023_Nov_08_1641,SpeechDraft1Carolyn_lessNoise_PlusLocalization,2021.2.3,59.08140175364454,
,,,,,,,,nearLeft,-6.5,1,ch1Sound_localizationTask.wav,-6.5,"(857, 878)","(-103,-202)",-95,-338,,,,,,,,,,,,,0,0,0,2,,,,,,,,,,,,,,,,,,,,,,,,,,,,,,,,,,,,,,,,1379.566917908378,None,,,1382.5855241911486,None,1.51005291005291,2.0205845506861806,1382.5855241911486,None,,,,,1369.2505502770655,None,1380.5671589071862,None,1380.7503866553307,1380.7671000910923,,,,,,,131,001,2023_Nov_08_1641,SpeechDraft1Carolyn_lessNoise_PlusLocalization,2021.2.3,59.08140175364454,
,,,,,,,,nearRight,6.5,0,ch1Sound_localizationTask.wav,6.5,"(1047, 878)","(87, -202)",95,-338,,,,,,,,,,,,,0,1,1,4,,,,,,,,,,,,,,,,,,,,,,,,,,,,,,,,,,,,,,,,1384.6170734260231,None,,,1387.633590721991,None,1.5629629629629629,1.0169009156525135,1387.633590721991,None,,,,,,,1385.6170775732026,None,1385.8004446472041,1385.817076653242,,,,,,,131,001,2023_Nov_08_1641,SpeechDraft1Carolyn_lessNoise_PlusLocalization,2021.2.3,59.08140175364454,
,,,,,,,,farLeft,-19.1,5,ch1Sound_localizationTask.wav,-19.1,"(667, 878)","(-293,-202)",-285,-338,,,,,,,,,,,,,0,2,2,0,,,,,,,,,,,,,,,,,,,,,,,,,,,,,,,,,,,,,,,,1388.667225874029,None,,,1391.6835003653541,None,1.353968253968254,3.5991253559477627,1391.6835003653541,None,,,,,,,1389.667079783976,None,1389.8504592441022,1389.8670975570567,,,,,,,131,001,2023_Nov_08_1641,SpeechDraft1Carolyn_lessNoise_PlusLocalization,2021.2.3,59.08140175364454,
,,,,,,,,midRight,13.0,3,ch1Sound_localizationTask.wav,13.0,"(1142, 878)","(182, -202)",190,-338,,,,,,,,,,,,,0,3,3,5,,,,,,,,,,,,,,,,,,,,,,,,,,,,,,,,,,,,,,,,1395.283769573085,None,,,1398.3000997952186,None,1.6455026455026456,2.8333255760371685,1398.3000997952186,None,,,,,,,1396.2838580100797,None,1396.4670342332684,1396.4838613052852,,,,,,,131,001,2023_Nov_08_1641,SpeechDraft1Carolyn_lessNoise_PlusLocalization,2021.2.3,59.08140175364454,
,,,,,,,,nearLeft,-6.5,1,ch1Sound_localizationTask.wav,-6.5,"(857, 878)","(-103,-202)",-95,-338,,,,,,,,,,,,,0,4,4,2,,,,,,,,,,,,,,,,,,,,,,,,,,,,,,,,,,,,,,,,1401.1504157902673,None,,,1404.166948558297,None,1.4216931216931217,1.5000798190012574,1404.166948558297,None,,,,,,,1402.150452252943,None,1402.3338236063719,1402.350451009348,,,,,,,131,001,2023_Nov_08_1641,SpeechDraft1Carolyn_lessNoise_PlusLocalization,2021.2.3,59.08140175364454,
,,,,,,,,nearRight,6.5,0,ch1Sound_localizationTask.wav,6.5,"(1047, 878)","(87, -202)",95,-338,,,,,,,,,,,,,0,5,5,4,,,,,,,,,,,,,,,,,,,,,,,,,,,,,,,,,,,,,,,,1405.6683764071204,None,,,1408.7002393892035,None,1.5444444444444443,1.3335157302208245,1408.7002393892035,None,,,,,,,1406.6838079830632,None,1406.8672559382394,1406.8837763220072,,,,,,,131,001,2023_Nov_08_1641,SpeechDraft1Carolyn_lessNoise_PlusLocalization,2021.2.3,59.08140175364454,
,,,,,,,,farLeft,-19.1,5,ch1Sound_localizationTask.wav,-19.1,"(667, 878)","(-293,-202)",-285,-338,,,,,,,,,,,,,0,6,6,0,,,,,,,,,,,,,,,,,,,,,,,,,,,,,,,,,,,,,,,,1410.050579501316,None,,,1413.0669338502921,None,1.3243386243386244,0.9164761719293892,1413.0669338502921,None,,,,,,,1411.050442093052,None,1411.233817385044,1411.2505163671449,,,,,,,131,001,2023_Nov_08_1641,SpeechDraft1Carolyn_lessNoise_PlusLocalization,2021.2.3,59.08140175364454,
,,,,,,,,nearRight,6.5,0,ch1Sound_localizationTask.wav,6.5,"(1047, 878)","(87, -202)",95,-338,,,,,,,,,,,,,1,0,7,4,,,,,,,,,,,,,,,,,,,,,,,,,,,,,,,,,,,,,,,,1413.9841062743217,None,,,1417.0002795383334,None,1.564021164021164,1.1997930770739913,1417.0002795383334,None,,,,,,,1414.9838339081034,None,1415.1671214792877,1415.183843395207,,,,,,,131,001,2023_Nov_08_1641,SpeechDraft1Carolyn_lessNoise_PlusLocalization,2021.2.3,59.08140175364454,
,,,,,,,,center,0.0,6,ch1Sound_localizationTask.wav,0.0,"(952, 878)","(-8,-202)",0,-338,,,,,,,,,,,,,1,1,8,3,,,,,,,,,,,,,,,,,,,,,,,,,,,,,,,,,,,,,,,,1418.202054023277,None,,,1421.233597141225,None,1.5026455026455028,0.9161189133301377,1421.233597141225,None,,,,,,,1419.2171216751449,None,1419.400545543991,1419.4171153479256,,,,,,,131,001,2023_Nov_08_1641,SpeechDraft1Carolyn_lessNoise_PlusLocalization,2021.2.3,59.08140175364454,
,,,,,,,,farRight,19.1,4,ch1Sound_localizationTask.wav,19.1,"(1237, 878)","(277,-202)",285,-338,,,,,,,,,,,,,1,2,9,6,,,,,,,,,,,,,,,,,,,,,,,,,,,,,,,,,,,,,,,,1422.1512813270092,None,,,1425.1668159561232,None,1.668783068783069,1.3327732267789543,1425.1668159561232,None,,,,,,,1423.1505317511037,None,1423.3339045853354,1423.350493639242,,,,,,,131,001,2023_Nov_08_1641,SpeechDraft1Carolyn_lessNoise_PlusLocalization,2021.2.3,59.08140175364454,
,,,,,,,,farRight,19.1,4,ch1Sound_localizationTask.wav,19.1,"(1237, 878)","(277,-202)",285,-338,,,,,,,,,,,,,1,3,10,6,,,,,,,,,,,,,,,,,,,,,,,,,,,,,,,,,,,,,,,,1426.5004882309586,None,,,1429.5169579791836,None,1.6761904761904762,0.748973507899791,1429.5169579791836,None,,,,,,,1427.5005950583145,None,1427.683764277026,1427.700521520339,,,,,,,131,001,2023_Nov_08_1641,SpeechDraft1Carolyn_lessNoise_PlusLocalization,2021.2.3,59.08140175364454,
,,,,,,,,farRight,19.1,4,ch1Sound_localizationTask.wav,19.1,"(1237, 878)","(277,-202)",285,-338,,,,,,,,,,,,,1,4,11,6,,,,,,,,,,,,,,,,,,,,,,,,,,,,,,,,,,,,,,,,1430.2672526030801,None,,,1433.2835747110657,None,1.6761904761904762,0.532868767157197,1433.2835747110657,None,,,,,,,1431.2672400861047,None,1431.4506157441065,1431.4671777519397,,,,,,,131,001,2023_Nov_08_1641,SpeechDraft1Carolyn_lessNoise_PlusLocalization,2021.2.3,59.08140175364454,
,,,,,,,,center,0.0,6,ch1Sound_localizationTask.wav,0.0,"(952, 878)","(-8,-202)",0,-338,,,,,,,,,,,,,1,5,12,3,,,,,,,,,,,,,,,,,,,,,,,,,,,,,,,,,,,,,,,,1433.8171836240217,None,,,1436.8336380822584,None,1.4978835978835978,1.1502932221628726,1436.8336380822584,None,,,,,,,1434.8171660960652,None,1435.0005025882274,1435.0172689170577,,,,,,,131,001,2023_Nov_08_1641,SpeechDraft1Carolyn_lessNoise_PlusLocalization,2021.2.3,59.08140175364454,
,,,,,,,,nearRight,6.5,0,ch1Sound_localizationTask.wav,6.5,"(1047, 878)","(87, -202)",95,-338,,,,,,,,,,,,,1,6,13,4,,,,,,,,,,,,,,,,,,,,,,,,,,,,,,,,,,,,,,,,1437.9842588631436,None,,,1441.0002329261042,None,1.5777777777777777,2.850327944383025,1441.0002329261042,None,,,,,,,1438.9839551541954,None,1439.1673041363247,1439.1839761510491,,,,,,,131,001,2023_Nov_08_1641,SpeechDraft1Carolyn_lessNoise_PlusLocalization,2021.2.3,59.08140175364454,
,,,,,,,,midRight,13.0,3,ch1Sound_localizationTask.wav,13.0,"(1142, 878)","(182, -202)",190,-338,,,,,,,,,,,,,2,0,14,5,,,,,,,,,,,,,,,,,,,,,,,,,,,,,,,,,,,,,,,,1443.8673528283834,None,,,1446.8835798501968,None,1.5873015873015874,1.0002838876098394,1446.8835798501968,None,,,,,,,1444.8673601369374,None,1445.0505151720718,1445.0672466349788,,,,,,,131,001,2023_Nov_08_1641,SpeechDraft1Carolyn_lessNoise_PlusLocalization,2021.2.3,59.08140175364454,
,,,,,,,,midLeft,-13.0,2,ch1Sound_localizationTask.wav,-13.0,"(762, 878)","(-198,-202)",-190,-338,,,,,,,,,,,,,2,1,15,1,,,,,,,,,,,,,,,,,,,,,,,,,,,,,,,,,,,,,,,,1447.9005690850317,None,,,1450.9168089949526,None,1.374074074074074,1.3154831933788955,1450.9168089949526,None,,,,,,,1448.9005337893032,None,1449.0839241971262,1449.100541992113,,,,,,,131,001,2023_Nov_08_1641,SpeechDraft1Carolyn_lessNoise_PlusLocalization,2021.2.3,59.08140175364454,
,,,,,,,,midRight,13.0,3,ch1Sound_localizationTask.wav,13.0,"(1142, 878)","(182, -202)",190,-338,,,,,,,,,,,,,2,2,16,5,,,,,,,,,,,,,,,,,,,,,,,,,,,,,,,,,,,,,,,,1452.2338529992849,None,,,1455.250280130189,None,1.6126984126984127,0.9336275681853294,1455.250280130189,None,,,,,,,1453.233917213045,None,1453.4172997581773,1453.4338556239381,,,,,,,131,001,2023_Nov_08_1641,SpeechDraft1Carolyn_lessNoise_PlusLocalization,2021.2.3,59.08140175364454,
,,,,,,,,midLeft,-13.0,2,ch1Sound_localizationTask.wav,-13.0,"(762, 878)","(-198,-202)",-190,-338,,,,,,,,,,,,,2,3,17,1,,,,,,,,,,,,,,,,,,,,,,,,,,,,,,,,,,,,,,,,1456.20061223628,None,,,1459.2169628553092,None,1.3767195767195768,1.1669084699824452,1459.2169628553092,None,,,,,,,1457.2005440783687,None,1457.383857963141,1457.4005525303073,,,,,,,131,001,2023_Nov_08_1641,SpeechDraft1Carolyn_lessNoise_PlusLocalization,2021.2.3,59.08140175364454,
,,,,,,,,nearLeft,-6.5,1,ch1Sound_localizationTask.wav,-6.5,"(857, 878)","(-103,-202)",-95,-338,,,,,,,,,,,,,2,4,18,2,,,,,,,,,,,,,,,,,,,,,,,,,,,,,,,,,,,,,,,,1460.4005594160408,None,,,1463.4169888999313,None,1.4423280423280422,0.982780032325536,1463.4169888999313,None,,,,,,,1461.4005360710435,None,1461.58387245005,1461.6005806052126,,,,,,,131,001,2023_Nov_08_1641,SpeechDraft1Carolyn_lessNoise_PlusLocalization,2021.2.3,59.08140175364454,
,,,,,,,,midLeft,-13.0,2,ch1Sound_localizationTask.wav,-13.0,"(762, 878)","(-198,-202)",-190,-338,,,,,,,,,,,,,2,5,19,1,,,,,,,,,,,,,,,,,,,,,,,,,,,,,,,,,,,,,,,,1464.400547881145,None,,,1467.4170233421028,None,1.3873015873015873,1.0503588682040572,1467.4170233421028,None,,,,,,,1465.400519750081,None,1465.5840766220354,1465.6004765373655,,,,,,,131,001,2023_Nov_08_1641,SpeechDraft1Carolyn_lessNoise_PlusLocalization,2021.2.3,59.08140175364454,
,,,,,,,,midRight,13.0,3,ch1Sound_localizationTask.wav,13.0,"(1142, 878)","(182, -202)",190,-338,,,,,,,,,,,,,2,6,20,5,,,,,,,,,,,,,,,,,,,,,,,,,,,,,,,,,,,,,,,,1468.4839053489268,None,,,1471.5003045913763,None,1.6068783068783068,1.5654122531414032,1471.5003045913763,None,,,,,,,1469.4838774101809,None,1469.6672933413647,1469.6839248412289,,,,,,,131,001,2023_Nov_08_1641,SpeechDraft1Carolyn_lessNoise_PlusLocalization,2021.2.3,59.08140175364454,
,,,,,,,,farRight,19.1,4,ch1Sound_localizationTask.wav,19.1,"(1237, 878)","(277,-202)",285,-338,,,,,,,,,,,,,3,0,21,6,,,,,,,,,,,,,,,,,,,,,,,,,,,,,,,,,,,,,,,,1473.0672669140622,None,,,1476.0835273331031,None,1.6523809523809523,1.1157950907945633,1476.0835273331031,None,,,,,,,1474.0672192443162,None,1474.2505971412174,1474.2672650283203,,,,,,,131,001,2023_Nov_08_1641,SpeechDraft1Carolyn_lessNoise_PlusLocalization,2021.2.3,59.08140175364454,
,,,,,,,,center,0.0,6,ch1Sound_localizationTask.wav,0.0,"(952, 878)","(-8,-202)",0,-338,,,,,,,,,,,,,3,1,22,3,,,,,,,,,,,,,,,,,,,,,,,,,,,,,,,,,,,,,,,,1477.2006094232202,None,,,1480.2169123110361,None,1.5158730158730158,0.7996075511910021,1480.2169123110361,None,,,,,,,1478.2005804260261,None,1478.3840037309565,1478.400656200014,,,,,,,131,001,2023_Nov_08_1641,SpeechDraft1Carolyn_lessNoise_PlusLocalization,2021.2.3,59.08140175364454,
,,,,,,,,nearRight,6.5,0,ch1Sound_localizationTask.wav,6.5,"(1047, 878)","(87, -202)",95,-338,,,,,,,,,,,,,3,2,23,4,,,,,,,,,,,,,,,,,,,,,,,,,,,,,,,,,,,,,,,,1481.0174160753377,None,,,1484.0336275319569,None,1.5544973544973546,0.8346502147614956,1484.0336275319569,None,,,,,,,1482.0173867391422,None,1482.2005234602839,1482.217233498115,,,,,,,131,001,2023_Nov_08_1641,SpeechDraft1Carolyn_lessNoise_PlusLocalization,2021.2.3,59.08140175364454,
,,,,,,,,center,0.0,6,ch1Sound_localizationTask.wav,0.0,"(952, 878)","(-8,-202)",0,-338,,,,,,,,,,,,,3,3,24,3,,,,,,,,,,,,,,,,,,,,,,,,,,,,,,,,,,,,,,,,1484.8847218011506,None,,,1487.900268078316,None,1.4962962962962962,1.2989712078124285,1487.900268078316,None,,,,,,,1485.8839229620062,None,1486.0672962493263,1486.0839668102562,,,,,,,131,001,2023_Nov_08_1641,SpeechDraft1Carolyn_lessNoise_PlusLocalization,2021.2.3,59.08140175364454,
,,,,,,,,farRight,19.1,4,ch1Sound_localizationTask.wav,19.1,"(1237, 878)","(277,-202)",285,-338,,,,,,,,,,,,,3,4,25,6,,,,,,,,,,,,,,,,,,,,,,,,,,,,,,,,,,,,,,,,1489.2006283863448,None,,,1492.2170168450102,None,1.6455026455026456,1.0834246599115431,1492.2170168450102,None,,,,,,,1490.2007621172816,None,1490.3840245651081,1490.4005435593426,,,,,,,131,001,2023_Nov_08_1641,SpeechDraft1Carolyn_lessNoise_PlusLocalization,2021.2.3,59.08140175364454,
,,,,,,,,farLeft,-19.1,5,ch1Sound_localizationTask.wav,-19.1,"(667, 878)","(-293,-202)",-285,-338,,,,,,,,,,,,,3,5,26,0,,,,,,,,,,,,,,,,,,,,,,,,,,,,,,,,,,,,,,,,1493.3015506989323,None,,,1496.3335781269707,None,1.3222222222222222,1.0669697518460453,1496.3335781269707,None,,,,,,,1494.3172637270764,None,1494.5005942792632,1494.5172694800422,,,,,,,131,001,2023_Nov_08_1641,SpeechDraft1Carolyn_lessNoise_PlusLocalization,2021.2.3,59.08140175364454,
,,,,,,,,midLeft,-13.0,2,ch1Sound_localizationTask.wav,-13.0,"(762, 878)","(-198,-202)",-190,-338,,,,,,,,,,,,,3,6,27,1,,,,,,,,,,,,,,,,,,,,,,,,,,,,,,,,,,,,,,,,1497.4172846833244,None,,,1500.4337147823535,None,1.397883597883598,1.2830088692717254,1500.4337147823535,None,,,,,,,1498.4172117849812,None,1498.6006005313247,1498.6172438040376,,,,,,,131,001,2023_Nov_08_1641,SpeechDraft1Carolyn_lessNoise_PlusLocalization,2021.2.3,59.08140175364454,
,,,,,,,,midRight,13.0,3,ch1Sound_localizationTask.wav,13.0,"(1142, 878)","(182, -202)",190,-338,,,,,,,,,,,,,4,0,28,5,,,,,,,,,,,,,,,,,,,,,,,,,,,,,,,,,,,,,,,,1501.7180982702412,None,,,1504.733684512321,None,1.591005291005291,0.8496874687261879,1504.733684512321,None,,,,,,,1502.7173007759266,None,1502.9006874081679,1502.9172484013252,,,,,,,131,001,2023_Nov_08_1641,SpeechDraft1Carolyn_lessNoise_PlusLocalization,2021.2.3,59.08140175364454,
,,,,,,,,nearLeft,-6.5,1,ch1Sound_localizationTask.wav,-6.5,"(857, 878)","(-103,-202)",-95,-338,,,,,,,,,,,,,4,1,29,2,,,,,,,,,,,,,,,,,,,,,,,,,,,,,,,,,,,,,,,,1505.5846804659814,None,,,1508.6002836939879,None,1.456084656084656,0.9835652261972427,1508.6002836939879,None,,,,,,,1506.5840252763592,None,1506.7673475160263,1506.7839755113237,,,,,,,131,001,2023_Nov_08_1641,SpeechDraft1Carolyn_lessNoise_PlusLocalization,2021.2.3,59.08140175364454,
,,,,,,,,farLeft,-19.1,5,ch1Sound_localizationTask.wav,-19.1,"(667, 878)","(-293,-202)",-285,-338,,,,,,,,,,,,,4,2,30,0,,,,,,,,,,,,,,,,,,,,,,,,,,,,,,,,,,,,,,,,1509.600560373161,None,,,1512.6171783669852,None,1.3391534391534392,1.0828545531257987,1512.6171783669852,None,,,,,,,1510.6005840422586,None,1510.7839840939268,1510.8005914171226,,,,,,,131,001,2023_Nov_08_1641,SpeechDraft1Carolyn_lessNoise_PlusLocalization,2021.2.3,59.08140175364454,
,,,,,,,,midLeft,-13.0,2,ch1Sound_localizationTask.wav,-13.0,"(762, 878)","(-198,-202)",-190,-338,,,,,,,,,,,,,4,3,31,1,,,,,,,,,,,,,,,,,,,,,,,,,,,,,,,,,,,,,,,,1513.7006636499427,None,,,1516.7169916490093,None,1.4142857142857141,0.8991134911775589,1516.7169916490093,None,,,,,,,1514.7005599332042,None,1514.8841782393865,1514.9009084282443,,,,,,,131,001,2023_Nov_08_1641,SpeechDraft1Carolyn_lessNoise_PlusLocalization,2021.2.3,59.08140175364454,
,,,,,,,,midLeft,-13.0,2,ch1Sound_localizationTask.wav,-13.0,"(762, 878)","(-198,-202)",-190,-338,,,,,,,,,,,,,4,4,32,1,,,,,,,,,,,,,,,,,,,,,,,,,,,,,,,,,,,,,,,,1517.6172919319943,None,,,1520.6336936699226,None,1.3952380952380952,0.5337394722737372,1520.6336936699226,None,,,,,,,1518.6172912809998,None,1518.8005233141594,1518.8172866790555,,,,,,,131,001,2023_Nov_08_1641,SpeechDraft1Carolyn_lessNoise_PlusLocalization,2021.2.3,59.08140175364454,
,,,,,,,,nearRight,6.5,0,ch1Sound_localizationTask.wav,6.5,"(1047, 878)","(87, -202)",95,-338,,,,,,,,,,,,,4,5,33,4,,,,,,,,,,,,,,,,,,,,,,,,,,,,,,,,,,,,,,,,1521.1839939481579,None,,,1524.2003230960108,None,1.5507936507936508,0.7999165318906307,1524.2003230960108,None,,,,,,,1522.183998820372,None,1522.367299305275,1522.3838851312175,,,,,,,131,001,2023_Nov_08_1641,SpeechDraft1Carolyn_lessNoise_PlusLocalization,2021.2.3,59.08140175364454,
,,,,,,,,midLeft,-13.0,2,ch1Sound_localizationTask.wav,-13.0,"(762, 878)","(-198,-202)",-190,-338,,,,,,,,,,,,,4,6,34,1,,,,,,,,,,,,,,,,,,,,,,,,,,,,,,,,,,,,,,,,1525.0009608999826,None,,,1528.0170536153018,None,1.392063492063492,0.7163008819334209,1528.0170536153018,None,,,,,,,1526.0008253501728,None,1526.1839968962595,1526.200643419288,,,,,,,131,001,2023_Nov_08_1641,SpeechDraft1Carolyn_lessNoise_PlusLocalization,2021.2.3,59.08140175364454,
,,,,,,,,center,0.0,6,ch1Sound_localizationTask.wav,0.0,"(952, 878)","(-8,-202)",0,-338,,,,,,,,,,,,,5,0,35,3,,,,,,,,,,,,,,,,,,,,,,,,,,,,,,,,,,,,,,,,1528.7338883662596,None,,,1531.7503956370056,None,1.494179894179894,1.1666329740546644,1531.7503956370056,None,,,,,,,1529.734017516952,None,1529.917253143154,1529.9340605139732,,,,,,,131,001,2023_Nov_08_1641,SpeechDraft1Carolyn_lessNoise_PlusLocalization,2021.2.3,59.08140175364454,
,,,,,,,,nearLeft,-6.5,1,ch1Sound_localizationTask.wav,-6.5,"(857, 878)","(-103,-202)",-95,-338,,,,,,,,,,,,,5,1,36,2,,,,,,,,,,,,,,,,,,,,,,,,,,,,,,,,,,,,,,,,1532.9177895151079,None,,,1535.9336946150288,None,1.4962962962962962,1.8998347856104374,1535.9336946150288,None,,,,,,,1533.9174236520194,None,1534.1007186542265,1534.1173113971017,,,,,,,131,001,2023_Nov_08_1641,SpeechDraft1Carolyn_lessNoise_PlusLocalization,2021.2.3,59.08140175364454,
,,,,,,,,midRight,13.0,3,ch1Sound_localizationTask.wav,13.0,"(1142, 878)","(182, -202)",190,-338,,,,,,,,,,,,,5,2,37,5,,,,,,,,,,,,,,,,,,,,,,,,,,,,,,,,,,,,,,,,1537.8342541279271,None,,,1540.850315548014,None,1.5857142857142859,0.5823101312853396,1540.850315548014,None,,,,,,,1538.8340668273158,None,1539.0173833379522,1539.0339230131358,,,,,,,131,001,2023_Nov_08_1641,SpeechDraft1Carolyn_lessNoise_PlusLocalization,2021.2.3,59.08140175364454,
,,,,,,,,center,0.0,6,ch1Sound_localizationTask.wav,0.0,"(952, 878)","(-8,-202)",0,-338,,,,,,,,,,,,,5,3,38,3,,,,,,,,,,,,,,,,,,,,,,,,,,,,,,,,,,,,,,,,1541.4339951472357,None,,,1544.4504516199231,None,1.4978835978835978,0.8324400172568858,1544.4504516199231,None,,,,,,,1542.434156886302,None,1542.6173371202312,1542.6339670773596,,,,,,,131,001,2023_Nov_08_1641,SpeechDraft1Carolyn_lessNoise_PlusLocalization,2021.2.3,59.08140175364454,
,,,,,,,,nearRight,6.5,0,ch1Sound_localizationTask.wav,6.5,"(1047, 878)","(87, -202)",95,-338,,,,,,,,,,,,,5,4,39,4,,,,,,,,,,,,,,,,,,,,,,,,,,,,,,,,,,,,,,,,1545.2840911489911,None,,,1548.3004546919838,None,1.5338624338624338,0.5651450408622622,1548.3004546919838,None,,,,,,,1546.2840054533444,None,1546.467363665346,1546.4841245030984,,,,,,,131,001,2023_Nov_08_1641,SpeechDraft1Carolyn_lessNoise_PlusLocalization,2021.2.3,59.08140175364454,
,,,,,,,,center,0.0,6,ch1Sound_localizationTask.wav,0.0,"(952, 878)","(-8,-202)",0,-338,,,,,,,,,,,,,5,5,40,3,,,,,,,,,,,,,,,,,,,,,,,,,,,,,,,,,,,,,,,,1548.8673489540815,None,,,1551.8838186901994,None,1.4793650793650794,0.6497149933129549,1551.8838186901994,None,,,,,,,1549.867289524991,None,1550.0507900700904,1550.0673415400088,,,,,,,131,001,2023_Nov_08_1641,SpeechDraft1Carolyn_lessNoise_PlusLocalization,2021.2.3,59.08140175364454,
,,,,,,,,nearLeft,-6.5,1,ch1Sound_localizationTask.wav,-6.5,"(857, 878)","(-103,-202)",-95,-338,,,,,,,,,,,,,5,6,41,2,,,,,,,,,,,,,,,,,,,,,,,,,,,,,,,,,,,,,,,,1552.5340422000736,None,,,1555.5504724900238,None,1.455026455026455,0.49845551792532206,1555.5504724900238,None,,,,,,,1553.5339423902333,None,1553.7172901080921,1553.7339448253624,,,,,,,131,001,2023_Nov_08_1641,SpeechDraft1Carolyn_lessNoise_PlusLocalization,2021.2.3,59.08140175364454,
,,,,,,,,farLeft,-19.1,5,ch1Sound_localizationTask.wav,-19.1,"(667, 878)","(-293,-202)",-285,-338,,,,,,,,,,,,,6,0,42,0,,,,,,,,,,,,,,,,,,,,,,,,,,,,,,,,,,,,,,,,1556.0506818881258,None,,,1559.0670570423827,None,1.391005291005291,0.832135041244328,1559.0670570423827,None,,,,,,,1557.0506447399966,None,1557.2340934681706,1557.2506960490718,,,,,,,131,001,2023_Nov_08_1641,SpeechDraft1Carolyn_lessNoise_PlusLocalization,2021.2.3,59.08140175364454,
,,,,,,,,farRight,19.1,4,ch1Sound_localizationTask.wav,19.1,"(1237, 878)","(277,-202)",285,-338,,,,,,,,,,,,,6,1,43,6,,,,,,,,,,,,,,,,,,,,,,,,,,,,,,,,,,,,,,,,1559.9007196831517,None,,,1562.917115563061,None,1.6455026455026456,1.06709841825068,1562.917115563061,None,,,,,,,1560.9006712529808,None,1561.0840238081291,1561.100757305976,,,,,,,131,001,2023_Nov_08_1641,SpeechDraft1Carolyn_lessNoise_PlusLocalization,2021.2.3,59.08140175364454,
,,,,,,,,midRight,13.0,3,ch1Sound_localizationTask.wav,13.0,"(1142, 878)","(182, -202)",190,-338,,,,,,,,,,,,,6,2,44,5,,,,,,,,,,,,,,,,,,,,,,,,,,,,,,,,,,,,,,,,1564.0006541819312,None,,,1567.0171128832735,None,1.5883597883597882,0.4835207322612405,1567.0171128832735,None,,,,,,,1565.0007279282436,None,1565.1840718332678,1565.2006997410208,,,,,,,131,001,2023_Nov_08_1641,SpeechDraft1Carolyn_lessNoise_PlusLocalization,2021.2.3,59.08140175364454,
,,,,,,,,farLeft,-19.1,5,ch1Sound_localizationTask.wav,-19.1,"(667, 878)","(-293,-202)",-285,-338,,,,,,,,,,,,,6,3,45,0,,,,,,,,,,,,,,,,,,,,,,,,,,,,,,,,,,,,,,,,1567.5007555261254,None,,,1570.517093884293,None,1.3761904761904762,0.5496864672750235,1570.517093884293,None,,,,,,,1568.5007124822587,None,1568.6841058740392,1568.7007535910234,,,,,,,131,001,2023_Nov_08_1641,SpeechDraft1Carolyn_lessNoise_PlusLocalization,2021.2.3,59.08140175364454,
,,,,,,,,farRight,19.1,4,ch1Sound_localizationTask.wav,19.1,"(1237, 878)","(277,-202)",285,-338,,,,,,,,,,,,,6,4,46,6,,,,,,,,,,,,,,,,,,,,,,,,,,,,,,,,,,,,,,,,1571.0672948122956,None,,,1574.083811729215,None,1.6814814814814816,1.3660976369865239,1574.083811729215,None,,,,,,,1572.0673288782127,None,1572.2506709899753,1572.2674106629565,,,,,,,131,001,2023_Nov_08_1641,SpeechDraft1Carolyn_lessNoise_PlusLocalization,2021.2.3,59.08140175364454,
,,,,,,,,midRight,13.0,3,ch1Sound_localizationTask.wav,13.0,"(1142, 878)","(182, -202)",190,-338,,,,,,,,,,,,,6,5,47,5,,,,,,,,,,,,,,,,,,,,,,,,,,,,,,,,,,,,,,,,1575.4507237761281,None,,,1578.4671174441464,None,1.5571428571428572,0.5162280551157892,1578.4671174441464,None,,,,,,,1576.4506988213398,None,1576.6340071242303,1576.6506777959876,,,,,,,131,001,2023_Nov_08_1641,SpeechDraft1Carolyn_lessNoise_PlusLocalization,2021.2.3,59.08140175364454,
,,,,,,,,farLeft,-19.1,5,ch1Sound_localizationTask.wav,-19.1,"(667, 878)","(-293,-202)",-285,-338,,,,,,,,,,,,,6,6,48,0,,,,,,,,,,,,,,,,,,,,,,,,,,,,,,,,,,,,,,,,1578.984049698338,None,,,1582.0003646900877,None,1.3931216931216932,1.5668221027590334,1582.0003646900877,None,,,,,,,1579.9840285032988,None,1580.16735481238,1580.1839992883615,,,,,,,131,001,2023_Nov_08_1641,SpeechDraft1Carolyn_lessNoise_PlusLocalization,2021.2.3,59.08140175364454,
,,,,,,,,farLeft,-19.1,5,ch1Sound_localizationTask.wav,-19.1,"(667, 878)","(-293,-202)",-285,-338,,,,,,,,,,,,,7,0,49,0,,,,,,,,,,,,,,,,,,,,,,,,,,,,,,,,,,,,,,,,1583.5841979603283,None,,,1586.6004882212728,None,1.3412698412698414,1.8816368808038533,1586.6004882212728,None,,,,,,,1584.58418953605,None,1584.767450653948,1584.784110717941,,,,,,,131,001,2023_Nov_08_1641,SpeechDraft1Carolyn_lessNoise_PlusLocalization,2021.2.3,59.08140175364454,
,,,,,,,,nearLeft,-6.5,1,ch1Sound_localizationTask.wav,-6.5,"(857, 878)","(-103,-202)",-95,-338,,,,,,,,,,,,,7,1,50,2,,,,,,,,,,,,,,,,,,,,,,,,,,,,,,,,,,,,,,,,1588.4840579200536,None,,,1591.5003302232362,None,1.4518518518518517,0.7502183998003602,1591.5003302232362,None,,,,,,,1589.4840779211372,None,1589.6673920419998,1589.6839668019675,,,,,,,131,001,2023_Nov_08_1641,SpeechDraft1Carolyn_lessNoise_PlusLocalization,2021.2.3,59.08140175364454,
,,,,,,,,center,0.0,6,ch1Sound_localizationTask.wav,0.0,"(952, 878)","(-8,-202)",0,-338,,,,,,,,,,,,,7,2,51,3,,,,,,,,,,,,,,,,,,,,,,,,,,,,,,,,,,,,,,,,1592.2674878882244,None,,,1595.2837296500802,None,1.5137566137566139,0.9665607241913676,1595.2837296500802,None,,,,,,,1593.267510079313,None,1593.4507514121942,1593.4674066761509,,,,,,,131,001,2023_Nov_08_1641,SpeechDraft1Carolyn_lessNoise_PlusLocalization,2021.2.3,59.08140175364454,
,,,,,,,,midLeft,-13.0,2,ch1Sound_localizationTask.wav,-13.0,"(762, 878)","(-198,-202)",-190,-338,,,,,,,,,,,,,7,3,52,1,,,,,,,,,,,,,,,,,,,,,,,,,,,,,,,,,,,,,,,,1596.2517020739615,None,,,1599.267036606092,None,1.402116402116402,1.3656654302030802,1599.267036606092,None,,,,,,,1597.2507281391881,None,1597.4340293803252,1597.4507516990416,,,,,,,131,001,2023_Nov_08_1641,SpeechDraft1Carolyn_lessNoise_PlusLocalization,2021.2.3,59.08140175364454,
,,,,,,,,nearLeft,-6.5,1,ch1Sound_localizationTask.wav,-6.5,"(857, 878)","(-103,-202)",-95,-338,,,,,,,,,,,,,7,4,53,2,,,,,,,,,,,,,,,,,,,,,,,,,,,,,,,,,,,,,,,,1600.6341654071584,None,,,1603.650442630984,None,1.4322751322751324,0.8493998348712921,1603.650442630984,None,,,,,,,1601.6341235912405,None,1601.8174695093185,1601.8340559410863,,,,,,,131,001,2023_Nov_08_1641,SpeechDraft1Carolyn_lessNoise_PlusLocalization,2021.2.3,59.08140175364454,
,,,,,,,,farRight,19.1,4,ch1Sound_localizationTask.wav,19.1,"(1237, 878)","(277,-202)",285,-338,,,,,,,,,,,,,7,5,54,6,,,,,,,,,,,,,,,,,,,,,,,,,,,,,,,,,,,,,,,,1604.5007278462872,None,,,1607.5172055093572,None,1.6396825396825396,1.7326423861086369,1607.5172055093572,None,,,,,,,1605.5006742323749,None,1605.6840228652582,1605.7007601512596,,,,,,,131,001,2023_Nov_08_1641,SpeechDraft1Carolyn_lessNoise_PlusLocalization,2021.2.3,59.08140175364454,
,,,,,,,,nearRight,6.5,0,ch1Sound_localizationTask.wav,6.5,"(1047, 878)","(87, -202)",95,-338,,,,,,,,,,,,,7,6,55,4,,,,,,,,,,,,,,,,,,,,,,,,,,,,,,,,,,,,,,,,1609.2519173920155,None,,,1612.283754481934,None,1.5354497354497354,1.1653986228629947,1612.283754481934,None,,,,,,,1610.2673964463174,None,1610.450748722069,1610.4674158063717,,,,,,,131,001,2023_Nov_08_1641,SpeechDraft1Carolyn_lessNoise_PlusLocalization,2021.2.3,59.08140175364454,
,,,,,,,,,,,,,,,,,,,,,,,,,,,,,,,,,,,,,,,,,,,,,,,,,,,,,,,,,,,,,,,,,,,,,,,,,,,,,,,,,,,,,,,,,,,,1613.4507752992213,None,c,32.203808814287186,1614.434135097079,None,131,001,2023_Nov_08_1641,SpeechDraft1Carolyn_lessNoise_PlusLocalization,2021.2.3,59.08140175364454,
