{"meta_data":{"additional_headers":{},"game_name":"Recollect","version":"2.53.01","user_name":"132","organization":"braingamecenter","study":"mpl2_2022_11","session_number":0,"device_id":"74342D95-EE82-45E3-8ADF-48FB3203C5DD"},"data":[{"trial":0,"action":1,"button_pressed":3,"time_out":false,"dwell_time":63.823974609375,"response_time":1699640513260.72},{"trial":0,"action":1,"button_pressed":2,"time_out":false,"dwell_time":47.045166015625,"response_time":1699640513861.02},{"trial":0,"action":9,"button_pressed":-1,"time_out":false,"dwell_time":74.225830078125,"response_time":1699640514471.4},{"trial":1,"action":1,"button_pressed":10,"time_out":false,"dwell_time":80.992919921875,"response_time":1699640523708.18},{"trial":1,"action":1,"button_pressed":0,"time_out":false,"dwell_time":63.4130859375,"response_time":1699640524623.68},{"trial":1,"action":1,"button_pressed":6,"time_out":false,"dwell_time":64.627197265625,"response_time":1699640525224.08},{"trial":1,"action":9,"button_pressed":-1,"time_out":false,"dwell_time":48.307861328125,"response_time":1699640525874.04},{"trial":2,"action":1,"button_pressed":10,"time_out":false,"dwell_time":64.991943359375,"response_time":1699640538353.21},{"trial":2,"action":1,"button_pressed":3,"time_out":false,"dwell_time":79.98095703125,"response_time":1699640538952.29},{"trial":2,"action":1,"button_pressed":6,"time_out":false,"dwell_time":63.654052734375,"response_time":1699640539385.95},{"trial":2,"action":1,"button_pressed":8,"time_out":false,"dwell_time":47.494140625,"response_time":1699640540019.58},{"trial":2,"action":9,"button_pressed":-1,"time_out":false,"dwell_time":64.26904296875,"response_time":1699640540769.25},{"trial":3,"action":1,"button_pressed":2,"time_out":false,"dwell_time":80.82421875,"response_time":1699640555347.75},{"trial":3,"action":1,"button_pressed":6,"time_out":false,"dwell_time":80.72705078125,"response_time":1699640555980.75},{"trial":3,"action":1,"button_pressed":7,"time_out":false,"dwell_time":98.2890625,"response_time":1699640556414.1},{"trial":3,"action":1,"button_pressed":0,"time_out":false,"dwell_time":80.741943359375,"response_time":1699640556946.97},{"trial":3,"action":1,"button_pressed":8,"time_out":false,"dwell_time":64.31298828125,"response_time":1699640557579.71},{"trial":3,"action":9,"button_pressed":-1,"time_out":false,"dwell_time":97.095947265625,"response_time":1699640558396.22},{"trial":4,"action":1,"button_pressed":9,"time_out":false,"dwell_time":63.455078125,"response_time":1699640575373.6},{"trial":4,"action":1,"button_pressed":1,"time_out":false,"dwell_time":81.54296875,"response_time":1699640575940.7},{"trial":4,"action":1,"button_pressed":2,"time_out":false,"dwell_time":63.85986328125,"response_time":1699640576640.42},{"trial":4,"action":1,"button_pressed":8,"time_out":false,"dwell_time":63.89111328125,"response_time":1699640577090.27},{"trial":4,"action":1,"button_pressed":6,"time_out":false,"dwell_time":81.286865234375,"response_time":1699640577640.19},{"trial":4,"action":1,"button_pressed":11,"time_out":false,"dwell_time":63.218994140625,"response_time":1699640578039.23},{"trial":4,"action":9,"button_pressed":-1,"time_out":false,"dwell_time":16.625,"response_time":1699640578872.48},{"trial":5,"action":1,"button_pressed":9,"time_out":false,"dwell_time":80.817138671875,"response_time":1699640601115.14},{"trial":5,"action":1,"button_pressed":7,"time_out":false,"dwell_time":64.282958984375,"response_time":1699640601598.42},{"trial":5,"action":1,"button_pressed":4,"time_out":false,"dwell_time":80.719970703125,"response_time":1699640602114.68},{"trial":5,"action":1,"button_pressed":1,"time_out":false,"dwell_time":63.848876953125,"response_time":1699640602681.71},{"trial":5,"action":1,"button_pressed":11,"time_out":false,"dwell_time":80.6611328125,"response_time":1699640603414.19},{"trial":5,"action":1,"button_pressed":6,"time_out":false,"dwell_time":64.257080078125,"response_time":1699640603814.48},{"trial":5,"action":1,"button_pressed":8,"time_out":false,"dwell_time":47.68310546875,"response_time":1699640608612.94},{"trial":5,"action":9,"button_pressed":-1,"time_out":false,"dwell_time":47.77099609375,"response_time":1699640609563.12},{"trial":6,"action":9,"button_pressed":-1,"time_out":true,"dwell_time":31335.6437988281,"response_time":1699640640850.99},{"trial":7,"action":1,"button_pressed":7,"time_out":false,"dwell_time":81.344970703125,"response_time":1699640664844.48},{"trial":7,"action":1,"button_pressed":4,"time_out":false,"dwell_time":80.7880859375,"response_time":1699640673291.11},{"trial":7,"action":1,"button_pressed":1,"time_out":false,"dwell_time":81.505126953125,"response_time":1699640674841.33},{"trial":7,"action":0,"button_pressed":-1,"time_out":false,"dwell_time":63.671142578125,"response_time":1699640677273.51},{"trial":7,"action":9,"button_pressed":-1,"time_out":true,"dwell_time":10075.8991699219,"response_time":1699640687285.73},{"trial":8,"action":1,"button_pressed":3,"time_out":false,"dwell_time":64.1298828125,"response_time":1699640705547.98},{"trial":8,"action":1,"button_pressed":7,"time_out":false,"dwell_time":64.7978515625,"response_time":1699640705881.21},{"trial":8,"action":1,"button_pressed":4,"time_out":false,"dwell_time":63.56396484375,"response_time":1699640706363.95},{"trial":8,"action":1,"button_pressed":10,"time_out":false,"dwell_time":63.64794921875,"response_time":1699640706746.72},{"trial":8,"action":1,"button_pressed":2,"time_out":false,"dwell_time":64.885986328125,"response_time":1699640707797.25},{"trial":8,"action":1,"button_pressed":9,"time_out":false,"dwell_time":64.017822265625,"response_time":1699640708329.69},{"trial":8,"action":0,"button_pressed":-1,"time_out":false,"dwell_time":64.367919921875,"response_time":1699640712878.29},{"trial":8,"action":9,"button_pressed":-1,"time_out":true,"dwell_time":10076.7348632813,"response_time":1699640722890.66},{"trial":9,"action":1,"button_pressed":2,"time_out":false,"dwell_time":30.51318359375,"response_time":1699640740502.87},{"trial":9,"action":1,"button_pressed":6,"time_out":false,"dwell_time":64.845947265625,"response_time":1699640740953.28},{"trial":9,"action":1,"button_pressed":10,"time_out":false,"dwell_time":47.172119140625,"response_time":1699640741253.08},{"trial":9,"action":1,"button_pressed":7,"time_out":false,"dwell_time":81.50390625,"response_time":1699640741736.33},{"trial":9,"action":1,"button_pressed":9,"time_out":false,"dwell_time":63.70703125,"response_time":1699640742202.45},{"trial":9,"action":9,"button_pressed":-1,"time_out":false,"dwell_time":31.827880859375,"response_time":1699640744185.45}]}