{"meta_data":{"additional_headers":{},"game_name":"Recollect","version":"2.53.01","user_name":"132","organization":"braingamecenter","study":"mpl2_2022_11","session_number":0,"device_id":"74342D95-EE82-45E3-8ADF-48FB3203C5DD"},"data":[{"stage":"Practice","trial":0,"sequence":"6F","letter_input":"F","number_input":"3","is_correct":false,"presentation_start_time":1699640781020.98,"presentation_end_time":1699640784023.14,"response_time":1699640791252.63},{"stage":"Practice","trial":1,"sequence":"G4","letter_input":"G","number_input":"4","is_correct":true,"presentation_start_time":1699640794283.28,"presentation_end_time":1699640797285.44,"response_time":1699640801380.99},{"stage":"Practice","trial":2,"sequence":"3W5","letter_input":"W","number_input":"35","is_correct":true,"presentation_start_time":1699640802913.72,"presentation_end_time":1699640807415.41,"response_time":1699640813893.55},{"stage":"Practice","trial":3,"sequence":"T7L","letter_input":"LT","number_input":"7","is_correct":true,"presentation_start_time":1699640815426.24,"presentation_end_time":1699640819927.92,"response_time":1699640828272.11},{"stage":"Practice","trial":4,"sequence":"9J1","letter_input":"J","number_input":"19","is_correct":true,"presentation_start_time":1699640829804.82,"presentation_end_time":1699640834306.61,"response_time":1699640838702.09},{"stage":"Calibration","trial":0,"sequence":"6S","letter_input":"S","number_input":"6","is_correct":true,"presentation_start_time":1699640841684.28,"presentation_end_time":1699640844686.5,"response_time":1699640848398.91},{"stage":"Calibration","trial":1,"sequence":"C4","letter_input":"C","number_input":"4","is_correct":true,"presentation_start_time":1699640849931.53,"presentation_end_time":1699640852933.71,"response_time":1699640856996.07},{"stage":"Calibration","trial":2,"sequence":"5S2","letter_input":"C","number_input":"25","is_correct":false,"presentation_start_time":1699640858528.7,"presentation_end_time":1699640863030.41,"response_time":1699640871491.15},{"stage":"Calibration","trial":3,"sequence":"W3K","letter_input":"KW","number_input":"3","is_correct":true,"presentation_start_time":1699640873023.9,"presentation_end_time":1699640877525.74,"response_time":1699640882554.23},{"stage":"Calibration","trial":4,"sequence":"8C6A","letter_input":"AC","number_input":"68","is_correct":true,"presentation_start_time":1699640884086.92,"presentation_end_time":1699640890088.15,"response_time":1699640896433.01},{"stage":"Calibration","trial":5,"sequence":"L7B1","letter_input":"BL","number_input":"17","is_correct":true,"presentation_start_time":1699640897965.66,"presentation_end_time":1699640903967.01,"response_time":1699640909978.49},{"stage":"Calibration","trial":6,"sequence":"4P2F9","letter_input":"FP","number_input":"249","is_correct":true,"presentation_start_time":1699640911511.21,"presentation_end_time":1699640919011.9,"response_time":1699640926989.5},{"stage":"Calibration","trial":7,"sequence":"L8E1N","letter_input":"ELN","number_input":"18","is_correct":true,"presentation_start_time":1699640928522.31,"presentation_end_time":1699640936023,"response_time":1699640956496.45},{"stage":"Calibration","trial":8,"sequence":"5V2P9H","letter_input":"PV","number_input":"259","is_correct":false,"presentation_start_time":1699640958029.21,"presentation_end_time":1699640967029.2,"response_time":1699640996899.74},{"stage":"Calibration","trial":9,"sequence":"S7F4Y1","letter_input":"SV","number_input":"157","is_correct":false,"presentation_start_time":1699640998432.56,"presentation_end_time":1699641007432.66,"response_time":1699641024607.31}]}