{"meta_data":{"additional_headers":{},"game_name":"Recollect","version":"2.53.01","user_name":"133","organization":"braingamecenter","study":"mpl2_2022_11","session_number":0,"device_id":"74342D95-EE82-45E3-8ADF-48FB3203C5DD"},"data":[{"stage":"Practice","trial":0,"sequence":"6F","letter_input":"F","number_input":"6","is_correct":true,"presentation_start_time":1699910072530.28,"presentation_end_time":1699910075532.49,"response_time":1699910084429.71},{"stage":"Practice","trial":1,"sequence":"G4","letter_input":"G","number_input":"4","is_correct":true,"presentation_start_time":1699910085959.13,"presentation_end_time":1699910088961.49,"response_time":1699910096139.28},{"stage":"Practice","trial":2,"sequence":"3W5","letter_input":"W","number_input":"35","is_correct":true,"presentation_start_time":1699910097672,"presentation_end_time":1699910102173.78,"response_time":1699910111067.63},{"stage":"Practice","trial":3,"sequence":"T7L","letter_input":"LT","number_input":"7","is_correct":true,"presentation_start_time":1699910112600.33,"presentation_end_time":1699910117102.08,"response_time":1699910124763.15},{"stage":"Practice","trial":4,"sequence":"9J1","letter_input":"J","number_input":"19","is_correct":true,"presentation_start_time":1699910126295.85,"presentation_end_time":1699910130797.55,"response_time":1699910136209.36},{"stage":"Calibration","trial":0,"sequence":"1G","letter_input":"G","number_input":"1","is_correct":true,"presentation_start_time":1699910145006.37,"presentation_end_time":1699910148008.61,"response_time":1699910153170.42},{"stage":"Calibration","trial":1,"sequence":"E6","letter_input":"E","number_input":"6","is_correct":true,"presentation_start_time":1699910154703.14,"presentation_end_time":1699910157705.31,"response_time":1699910162450.78},{"stage":"Calibration","trial":2,"sequence":"9Z3","letter_input":"Z","number_input":"39","is_correct":true,"presentation_start_time":1699910163983.47,"presentation_end_time":1699910168485.32,"response_time":1699910175063.19},{"stage":"Calibration","trial":3,"sequence":"T8N","letter_input":"NT","number_input":"8","is_correct":true,"presentation_start_time":1699910176595.99,"presentation_end_time":1699910181097.72,"response_time":1699910190774.79},{"stage":"Calibration","trial":4,"sequence":"4W2Q","letter_input":"QW","number_input":"24","is_correct":true,"presentation_start_time":1699910192307.46,"presentation_end_time":1699910198308.83,"response_time":1699910210651.53},{"stage":"Calibration","trial":5,"sequence":"J6G3","letter_input":"GJ","number_input":"36","is_correct":true,"presentation_start_time":1699910212184.21,"presentation_end_time":1699910218185.42,"response_time":1699910229961.82},{"stage":"Calibration","trial":6,"sequence":"9V7Q2","letter_input":"QV","number_input":"279","is_correct":true,"presentation_start_time":1699910231494.51,"presentation_end_time":1699910238995.33,"response_time":1699910261318.06},{"stage":"Calibration","trial":7,"sequence":"P5F3R","letter_input":"FPR","number_input":"53","is_correct":false,"presentation_start_time":1699910262850.81,"presentation_end_time":1699910270351.56,"response_time":1699910307986.05},{"stage":"Calibration","trial":8,"sequence":"6N4D8B","letter_input":"BDN","number_input":"468","is_correct":true,"presentation_start_time":1699910309518.78,"presentation_end_time":1699910318519.07,"response_time":1699910340491.99},{"stage":"Calibration","trial":9,"sequence":"W1G5Y3","letter_input":"GNWY","number_input":"135","is_correct":false,"presentation_start_time":1699910342024.81,"presentation_end_time":1699910351024.87,"response_time":1699910383994.34},{"stage":"Calibration","trial":10,"sequence":"6J2Z8T4","letter_input":"NGYZ","number_input":"2468","is_correct":false,"presentation_start_time":1699910385527.03,"presentation_end_time":1699910396026.76,"response_time":1699910419149.41},{"stage":"Calibration","trial":11,"sequence":"R3B1V7D","letter_input":"BDV","number_input":"137","is_correct":false,"presentation_start_time":1699910420682.08,"presentation_end_time":1699910431181.98,"response_time":1699910451488.57}]}