{"meta_data":{"additional_headers":{},"game_name":"Recollect","version":"2.53.01","user_name":"133","organization":"braingamecenter","study":"mpl2_2022_11","session_number":0,"device_id":"74342D95-EE82-45E3-8ADF-48FB3203C5DD"},"data":[{"trial":0,"action":1,"button_pressed":6,"time_out":false,"dwell_time":30.357177734375,"response_time":1699909653603.94},{"trial":0,"action":1,"button_pressed":10,"time_out":false,"dwell_time":47.658203125,"response_time":1699909653953.75},{"trial":0,"action":9,"button_pressed":-1,"time_out":false,"dwell_time":58.927001953125,"response_time":1699909654848.48},{"trial":1,"action":1,"button_pressed":0,"time_out":false,"dwell_time":30.69482421875,"response_time":1699909664617.05},{"trial":1,"action":1,"button_pressed":10,"time_out":false,"dwell_time":47.68310546875,"response_time":1699909664984.11},{"trial":1,"action":1,"button_pressed":11,"time_out":false,"dwell_time":48.23388671875,"response_time":1699909665350.54},{"trial":1,"action":9,"button_pressed":-1,"time_out":false,"dwell_time":31.489013671875,"response_time":1699909666016.86},{"trial":2,"action":1,"button_pressed":4,"time_out":false,"dwell_time":48.152099609375,"response_time":1699909678112.67},{"trial":2,"action":1,"button_pressed":2,"time_out":false,"dwell_time":47.451904296875,"response_time":1699909678362.32},{"trial":2,"action":1,"button_pressed":7,"time_out":false,"dwell_time":47.5068359375,"response_time":1699909678912.88},{"trial":2,"action":1,"button_pressed":3,"time_out":false,"dwell_time":64.802001953125,"response_time":1699909679195.71},{"trial":2,"action":9,"button_pressed":-1,"time_out":false,"dwell_time":64.4990234375,"response_time":1699909679861.74},{"trial":3,"action":1,"button_pressed":0,"time_out":false,"dwell_time":13.934814453125,"response_time":1699909694490.39},{"trial":3,"action":1,"button_pressed":7,"time_out":false,"dwell_time":47.7001953125,"response_time":1699909694990.87},{"trial":3,"action":1,"button_pressed":10,"time_out":false,"dwell_time":47.666015625,"response_time":1699909695340.2},{"trial":3,"action":1,"button_pressed":4,"time_out":false,"dwell_time":47.540771484375,"response_time":1699909695690.6},{"trial":3,"action":1,"button_pressed":1,"time_out":false,"dwell_time":48.093994140625,"response_time":1699909696040.14},{"trial":3,"action":9,"button_pressed":-1,"time_out":false,"dwell_time":48.279052734375,"response_time":1699909696856.48},{"trial":4,"action":1,"button_pressed":11,"time_out":false,"dwell_time":47.90478515625,"response_time":1699909713984.64},{"trial":4,"action":1,"button_pressed":8,"time_out":false,"dwell_time":31.03515625,"response_time":1699909714367.87},{"trial":4,"action":1,"button_pressed":6,"time_out":false,"dwell_time":48.135986328125,"response_time":1699909714667.57},{"trial":4,"action":1,"button_pressed":4,"time_out":false,"dwell_time":48.491943359375,"response_time":1699909714900.99},{"trial":4,"action":1,"button_pressed":1,"time_out":false,"dwell_time":48.54296875,"response_time":1699909715167.52},{"trial":4,"action":1,"button_pressed":10,"time_out":false,"dwell_time":47.583984375,"response_time":1699909715466.68},{"trial":4,"action":9,"button_pressed":-1,"time_out":false,"dwell_time":48.583984375,"response_time":1699909717116.78},{"trial":5,"action":1,"button_pressed":7,"time_out":false,"dwell_time":48.0458984375,"response_time":1699909737177.12},{"trial":5,"action":1,"button_pressed":11,"time_out":false,"dwell_time":47.545166015625,"response_time":1699909737359.5},{"trial":5,"action":1,"button_pressed":0,"time_out":false,"dwell_time":46.742919921875,"response_time":1699909737842.65},{"trial":5,"action":1,"button_pressed":3,"time_out":false,"dwell_time":47.83203125,"response_time":1699909738059.33},{"trial":5,"action":1,"button_pressed":9,"time_out":false,"dwell_time":13.632080078125,"response_time":1699909738975.6},{"trial":5,"action":1,"button_pressed":5,"time_out":false,"dwell_time":47.15478515625,"response_time":1699909743107.6},{"trial":5,"action":1,"button_pressed":6,"time_out":false,"dwell_time":47.48291015625,"response_time":1699909743524.07},{"trial":5,"action":9,"button_pressed":-1,"time_out":false,"dwell_time":65.251953125,"response_time":1699909744357.84},{"trial":6,"action":1,"button_pressed":10,"time_out":false,"dwell_time":30.37890625,"response_time":1699909767033.14},{"trial":6,"action":1,"button_pressed":2,"time_out":false,"dwell_time":64.76611328125,"response_time":1699909767516.43},{"trial":6,"action":1,"button_pressed":1,"time_out":false,"dwell_time":30.260986328125,"response_time":1699909767966.09},{"trial":6,"action":1,"button_pressed":8,"time_out":false,"dwell_time":63.065185546875,"response_time":1699909769398.52},{"trial":6,"action":1,"button_pressed":8,"time_out":false,"dwell_time":30.296875,"response_time":1699909771448.29},{"trial":6,"action":0,"button_pressed":-1,"time_out":false,"dwell_time":30.656982421875,"response_time":1699909774297.49},{"trial":6,"action":1,"button_pressed":10,"time_out":false,"dwell_time":63.946044921875,"response_time":1699909775080.17},{"trial":6,"action":1,"button_pressed":2,"time_out":false,"dwell_time":64.56201171875,"response_time":1699909775530.53},{"trial":6,"action":1,"button_pressed":1,"time_out":false,"dwell_time":47.837890625,"response_time":1699909776080.95},{"trial":6,"action":1,"button_pressed":8,"time_out":false,"dwell_time":64.4990234375,"response_time":1699909783344.58},{"trial":6,"action":1,"button_pressed":9,"time_out":false,"dwell_time":64.43115234375,"response_time":1699909783594.67},{"trial":6,"action":1,"button_pressed":11,"time_out":false,"dwell_time":47.55908203125,"response_time":1699909783810.9},{"trial":6,"action":1,"button_pressed":5,"time_out":false,"dwell_time":47.76513671875,"response_time":1699909784793.86},{"trial":6,"action":1,"button_pressed":4,"time_out":false,"dwell_time":30.2099609375,"response_time":1699909785393.59},{"trial":6,"action":9,"button_pressed":-1,"time_out":false,"dwell_time":64.55615234375,"response_time":1699909785977.37},{"trial":7,"action":1,"button_pressed":7,"time_out":false,"dwell_time":13.39599609375,"response_time":1699909808519.6},{"trial":7,"action":1,"button_pressed":5,"time_out":false,"dwell_time":46.65087890625,"response_time":1699909810068.84},{"trial":7,"action":1,"button_pressed":3,"time_out":false,"dwell_time":14.2578125,"response_time":1699909810535.9},{"trial":7,"action":1,"button_pressed":4,"time_out":false,"dwell_time":47.9228515625,"response_time":1699909810869.42},{"trial":7,"action":1,"button_pressed":2,"time_out":false,"dwell_time":81.64111328125,"response_time":1699909814118.15},{"trial":7,"action":1,"button_pressed":1,"time_out":false,"dwell_time":30.388916015625,"response_time":1699909814600.7},{"trial":7,"action":1,"button_pressed":10,"time_out":false,"dwell_time":47.68701171875,"response_time":1699909815034.61},{"trial":7,"action":1,"button_pressed":6,"time_out":false,"dwell_time":30.946044921875,"response_time":1699909817250.66},{"trial":7,"action":9,"button_pressed":-1,"time_out":false,"dwell_time":63.784912109375,"response_time":1699909817599.67},{"trial":8,"action":1,"button_pressed":10,"time_out":false,"dwell_time":48.6708984375,"response_time":1699909834978.25},{"trial":8,"action":1,"button_pressed":2,"time_out":false,"dwell_time":47.864990234375,"response_time":1699909835360.67},{"trial":8,"action":1,"button_pressed":9,"time_out":false,"dwell_time":48.3330078125,"response_time":1699909835877.79},{"trial":8,"action":1,"button_pressed":5,"time_out":false,"dwell_time":47.717041015625,"response_time":1699909836277.65},{"trial":8,"action":1,"button_pressed":11,"time_out":false,"dwell_time":30.7880859375,"response_time":1699909836860.52},{"trial":8,"action":1,"button_pressed":0,"time_out":false,"dwell_time":47.891845703125,"response_time":1699909837244.06},{"trial":8,"action":9,"button_pressed":-1,"time_out":false,"dwell_time":30.717041015625,"response_time":1699909837660.26},{"trial":9,"action":1,"button_pressed":7,"time_out":false,"dwell_time":31.1650390625,"response_time":1699909857587.4},{"trial":9,"action":1,"button_pressed":9,"time_out":false,"dwell_time":63.797119140625,"response_time":1699909857920.01},{"trial":9,"action":1,"button_pressed":1,"time_out":false,"dwell_time":30.7138671875,"response_time":1699909860302.8},{"trial":9,"action":1,"button_pressed":4,"time_out":false,"dwell_time":64.5859375,"response_time":1699909860702.34},{"trial":9,"action":1,"button_pressed":11,"time_out":false,"dwell_time":48.2509765625,"response_time":1699909861069.33},{"trial":9,"action":1,"button_pressed":6,"time_out":false,"dwell_time":47.544921875,"response_time":1699909861302.74},{"trial":9,"action":1,"button_pressed":8,"time_out":false,"dwell_time":30.8759765625,"response_time":1699909861618.4},{"trial":9,"action":9,"button_pressed":-1,"time_out":false,"dwell_time":51.289794921875,"response_time":1699909862302.71},{"trial":10,"action":1,"button_pressed":11,"time_out":false,"dwell_time":30.288818359375,"response_time":1699909881995.27},{"trial":10,"action":1,"button_pressed":4,"time_out":false,"dwell_time":64.122802734375,"response_time":1699909882428.71},{"trial":10,"action":1,"button_pressed":3,"time_out":false,"dwell_time":47.94677734375,"response_time":1699909882628.45},{"trial":10,"action":1,"button_pressed":10,"time_out":false,"dwell_time":31.780029296875,"response_time":1699909882912.29},{"trial":10,"action":1,"button_pressed":2,"time_out":false,"dwell_time":47.839111328125,"response_time":1699909883278.74},{"trial":10,"action":1,"button_pressed":8,"time_out":false,"dwell_time":30.490966796875,"response_time":1699909883494.95},{"trial":10,"action":1,"button_pressed":1,"time_out":false,"dwell_time":47.658935546875,"response_time":1699909883961.19},{"trial":10,"action":9,"button_pressed":-1,"time_out":false,"dwell_time":48.35888671875,"response_time":1699909884594.76},{"trial":11,"action":1,"button_pressed":5,"time_out":false,"dwell_time":48.01904296875,"response_time":1699909906920.33},{"trial":11,"action":1,"button_pressed":11,"time_out":false,"dwell_time":63.839111328125,"response_time":1699909907486.26},{"trial":11,"action":1,"button_pressed":6,"time_out":false,"dwell_time":30.90283203125,"response_time":1699909908520.43},{"trial":11,"action":1,"button_pressed":1,"time_out":false,"dwell_time":47.02099609375,"response_time":1699909909219.47},{"trial":11,"action":1,"button_pressed":4,"time_out":false,"dwell_time":63.22314453125,"response_time":1699909909635.59},{"trial":11,"action":1,"button_pressed":10,"time_out":false,"dwell_time":47.802978515625,"response_time":1699909909903.2},{"trial":11,"action":1,"button_pressed":7,"time_out":false,"dwell_time":30.81494140625,"response_time":1699909910236.48},{"trial":11,"action":1,"button_pressed":0,"time_out":false,"dwell_time":47.633056640625,"response_time":1699909910636.22},{"trial":11,"action":9,"button_pressed":-1,"time_out":false,"dwell_time":13.51611328125,"response_time":1699909911868.11},{"trial":12,"action":1,"button_pressed":11,"time_out":false,"dwell_time":47.14599609375,"response_time":1699909934377.9},{"trial":12,"action":1,"button_pressed":3,"time_out":false,"dwell_time":80.260986328125,"response_time":1699909936809.64},{"trial":12,"action":1,"button_pressed":7,"time_out":false,"dwell_time":47.68408203125,"response_time":1699909937243.64},{"trial":12,"action":1,"button_pressed":9,"time_out":false,"dwell_time":30.151123046875,"response_time":1699909937626.64},{"trial":12,"action":1,"button_pressed":4,"time_out":false,"dwell_time":47.7919921875,"response_time":1699909937993.98},{"trial":12,"action":1,"button_pressed":2,"time_out":false,"dwell_time":63.8759765625,"response_time":1699909938276.83},{"trial":12,"action":1,"button_pressed":10,"time_out":false,"dwell_time":46.7939453125,"response_time":1699909938592.96},{"trial":12,"action":1,"button_pressed":1,"time_out":false,"dwell_time":47.883056640625,"response_time":1699909938976.45},{"trial":12,"action":9,"button_pressed":-1,"time_out":false,"dwell_time":48.205078125,"response_time":1699909942442.09}]}