{"meta_data":{"additional_headers":{},"game_name":"Recollect","version":"2.53.01","user_name":"134","organization":"braingamecenter","study":"mpl2_2022_11","session_number":0,"device_id":"74342D95-EE82-45E3-8ADF-48FB3203C5DD"},"data":[{"stage":"Practice","trial":0,"sequence":"6F","letter_input":"F","number_input":"6","is_correct":true,"presentation_start_time":1699985463645.3,"presentation_end_time":1699985466647.58,"response_time":1699985474644.94},{"stage":"Practice","trial":1,"sequence":"G4","letter_input":"G","number_input":"4","is_correct":true,"presentation_start_time":1699985476174.44,"presentation_end_time":1699985479176.71,"response_time":1699985484688.48},{"stage":"Practice","trial":2,"sequence":"3W5","letter_input":"W","number_input":"3","is_correct":false,"presentation_start_time":1699985486221.3,"presentation_end_time":1699985490722.89,"response_time":1699985500583.25},{"stage":"Practice","trial":3,"sequence":"T7L","letter_input":"LT","number_input":"7","is_correct":true,"presentation_start_time":1699985503615.42,"presentation_end_time":1699985508117.27,"response_time":1699985517044.42},{"stage":"Practice","trial":4,"sequence":"9J1","letter_input":"J","number_input":"19","is_correct":true,"presentation_start_time":1699985518577.17,"presentation_end_time":1699985523078.9,"response_time":1699985527191.12},{"stage":"Calibration","trial":0,"sequence":"9S","letter_input":"S","number_input":"9","is_correct":true,"presentation_start_time":1699985536304.67,"presentation_end_time":1699985539306.96,"response_time":1699985543085.93},{"stage":"Calibration","trial":1,"sequence":"P6","letter_input":"P","number_input":"6","is_correct":true,"presentation_start_time":1699985544618.6,"presentation_end_time":1699985547620.95,"response_time":1699985550616.76},{"stage":"Calibration","trial":2,"sequence":"8S2","letter_input":"S","number_input":"28","is_correct":true,"presentation_start_time":1699985552149.5,"presentation_end_time":1699985556651.33,"response_time":1699985560313.49},{"stage":"Calibration","trial":3,"sequence":"W7T","letter_input":"TW","number_input":"7","is_correct":true,"presentation_start_time":1699985561846.34,"presentation_end_time":1699985566348.08,"response_time":1699985569860.44},{"stage":"Calibration","trial":4,"sequence":"8Y5A","letter_input":"AY","number_input":"58","is_correct":true,"presentation_start_time":1699985571393.13,"presentation_end_time":1699985577394.39,"response_time":1699985581639.87},{"stage":"Calibration","trial":5,"sequence":"G7B2","letter_input":"BG","number_input":"27","is_correct":true,"presentation_start_time":1699985583172.63,"presentation_end_time":1699985589173.9,"response_time":1699985594752.25},{"stage":"Calibration","trial":6,"sequence":"3P1E5","letter_input":"EP","number_input":"135","is_correct":true,"presentation_start_time":1699985596284.94,"presentation_end_time":1699985603785.65,"response_time":1699985612379.73},{"stage":"Calibration","trial":7,"sequence":"L8J2G","letter_input":"GJ","number_input":"28","is_correct":false,"presentation_start_time":1699985613912.56,"presentation_end_time":1699985621413.23,"response_time":1699985633572.8},{"stage":"Calibration","trial":8,"sequence":"4Z9K7B","letter_input":"BKZ","number_input":"479","is_correct":true,"presentation_start_time":1699985635105.63,"presentation_end_time":1699985644106.27,"response_time":1699985655548.94},{"stage":"Calibration","trial":9,"sequence":"W5L2A8","letter_input":"ALW","number_input":"258","is_correct":true,"presentation_start_time":1699985657081.66,"presentation_end_time":1699985666081.96,"response_time":1699985680607.35},{"stage":"Calibration","trial":10,"sequence":"6G1D9V3","letter_input":"DGV","number_input":"1369","is_correct":true,"presentation_start_time":1699985682140.07,"presentation_end_time":1699985692639.82,"response_time":1699985704699.41},{"stage":"Calibration","trial":11,"sequence":"R4L2A7W","letter_input":"AGLR","number_input":"247","is_correct":false,"presentation_start_time":1699985706232.1,"presentation_end_time":1699985716732.02,"response_time":1699985738654.95},{"stage":"Calibration","trial":12,"sequence":"8Y6T3Q1B","letter_input":"ATQ","number_input":"136","is_correct":false,"presentation_start_time":1699985740187.64,"presentation_end_time":1699985752187.04,"response_time":1699985766445.77},{"stage":"Calibration","trial":13,"sequence":"K7D4W9N2","letter_input":"BDK","number_input":"279","is_correct":false,"presentation_start_time":1699985767978.52,"presentation_end_time":1699985779977.8,"response_time":1699985794053.31}]}