{"meta_data":{"additional_headers":{},"game_name":"Recollect","version":"2.53.01","user_name":"134","organization":"braingamecenter","study":"mpl2_2022_11","session_number":0,"device_id":"74342D95-EE82-45E3-8ADF-48FB3203C5DD"},"data":[{"trial":0,"action":1,"button_pressed":1,"time_out":false,"dwell_time":114.464111328125,"response_time":1699985156064.69},{"trial":0,"action":1,"button_pressed":5,"time_out":false,"dwell_time":82.759033203125,"response_time":1699985156215.11},{"trial":0,"action":9,"button_pressed":-1,"time_out":false,"dwell_time":92.7119140625,"response_time":1699985156659.48},{"trial":1,"action":1,"button_pressed":11,"time_out":false,"dwell_time":147.451171875,"response_time":1699985166178.6},{"trial":1,"action":1,"button_pressed":2,"time_out":false,"dwell_time":63.859130859375,"response_time":1699985166678.17},{"trial":1,"action":1,"button_pressed":9,"time_out":false,"dwell_time":30.30078125,"response_time":1699985167144.5},{"trial":1,"action":9,"button_pressed":-1,"time_out":false,"dwell_time":64.611083984375,"response_time":1699985167694.37},{"trial":2,"action":1,"button_pressed":3,"time_out":false,"dwell_time":114.203857421875,"response_time":1699985179507.51},{"trial":2,"action":1,"button_pressed":5,"time_out":false,"dwell_time":47.77978515625,"response_time":1699985179773.74},{"trial":2,"action":1,"button_pressed":9,"time_out":false,"dwell_time":48.3798828125,"response_time":1699985180141},{"trial":2,"action":1,"button_pressed":2,"time_out":false,"dwell_time":63.14501953125,"response_time":1699985180756.21},{"trial":2,"action":9,"button_pressed":-1,"time_out":false,"dwell_time":63.808837890625,"response_time":1699985181156.55},{"trial":3,"action":1,"button_pressed":1,"time_out":false,"dwell_time":97.745849609375,"response_time":1699985195485.82},{"trial":3,"action":1,"button_pressed":10,"time_out":false,"dwell_time":47.655029296875,"response_time":1699985196501.52},{"trial":3,"action":1,"button_pressed":0,"time_out":false,"dwell_time":46.9150390625,"response_time":1699985197801.01},{"trial":3,"action":1,"button_pressed":9,"time_out":false,"dwell_time":47.072998046875,"response_time":1699985198201.06},{"trial":3,"action":1,"button_pressed":5,"time_out":false,"dwell_time":47.072021484375,"response_time":1699985198717.46},{"trial":3,"action":9,"button_pressed":-1,"time_out":false,"dwell_time":16.633056640625,"response_time":1699985199950.09},{"trial":4,"action":1,"button_pressed":4,"time_out":false,"dwell_time":63.44189453125,"response_time":1699985216811.08},{"trial":4,"action":1,"button_pressed":11,"time_out":false,"dwell_time":113.015869140625,"response_time":1699985217277.52},{"trial":4,"action":1,"button_pressed":2,"time_out":false,"dwell_time":63.173095703125,"response_time":1699985218177.34},{"trial":4,"action":1,"button_pressed":10,"time_out":false,"dwell_time":63.912841796875,"response_time":1699985218561.24},{"trial":4,"action":1,"button_pressed":3,"time_out":false,"dwell_time":30.721923828125,"response_time":1699985219493.94},{"trial":4,"action":9,"button_pressed":-1,"time_out":false,"dwell_time":16.70703125,"response_time":1699985220410.07},{"trial":5,"action":1,"button_pressed":7,"time_out":false,"dwell_time":146.9208984375,"response_time":1699985237554.65},{"trial":5,"action":1,"button_pressed":3,"time_out":false,"dwell_time":113.85888671875,"response_time":1699985238188.05},{"trial":5,"action":1,"button_pressed":8,"time_out":false,"dwell_time":97.2119140625,"response_time":1699985238538.11},{"trial":5,"action":1,"button_pressed":0,"time_out":false,"dwell_time":64.0390625,"response_time":1699985240386.65},{"trial":5,"action":1,"button_pressed":4,"time_out":false,"dwell_time":47.704833984375,"response_time":1699985240637.67},{"trial":5,"action":1,"button_pressed":1,"time_out":false,"dwell_time":96.54296875,"response_time":1699985240819.82},{"trial":5,"action":9,"button_pressed":-1,"time_out":false,"dwell_time":63.93701171875,"response_time":1699985241303.52},{"trial":6,"action":1,"button_pressed":4,"time_out":false,"dwell_time":64.296142578125,"response_time":1699985260346.91},{"trial":6,"action":1,"button_pressed":2,"time_out":false,"dwell_time":48.444091796875,"response_time":1699985260931.05},{"trial":6,"action":1,"button_pressed":6,"time_out":false,"dwell_time":47.626220703125,"response_time":1699985261246.96},{"trial":6,"action":1,"button_pressed":1,"time_out":false,"dwell_time":31.14208984375,"response_time":1699985262380.68},{"trial":6,"action":1,"button_pressed":8,"time_out":false,"dwell_time":63.9111328125,"response_time":1699985262663.41},{"trial":6,"action":1,"button_pressed":9,"time_out":false,"dwell_time":63.7109375,"response_time":1699985262996.45},{"trial":6,"action":9,"button_pressed":-1,"time_out":false,"dwell_time":64.5849609375,"response_time":1699985264379.86},{"trial":7,"action":1,"button_pressed":7,"time_out":false,"dwell_time":98.10595703125,"response_time":1699985283739.97},{"trial":7,"action":1,"button_pressed":11,"time_out":false,"dwell_time":81.316162109375,"response_time":1699985284222.29},{"trial":7,"action":1,"button_pressed":0,"time_out":false,"dwell_time":81.482177734375,"response_time":1699985284456.24},{"trial":7,"action":1,"button_pressed":9,"time_out":false,"dwell_time":80.69091796875,"response_time":1699985284756.29},{"trial":7,"action":1,"button_pressed":6,"time_out":false,"dwell_time":79.650146484375,"response_time":1699985285088.53},{"trial":7,"action":1,"button_pressed":5,"time_out":false,"dwell_time":63.7080078125,"response_time":1699985285321.78},{"trial":7,"action":9,"button_pressed":-1,"time_out":false,"dwell_time":16.531005859375,"response_time":1699985285871.89},{"trial":8,"action":1,"button_pressed":2,"time_out":false,"dwell_time":30.76708984375,"response_time":1699985300684.27},{"trial":8,"action":1,"button_pressed":6,"time_out":false,"dwell_time":63.27001953125,"response_time":1699985300917.02},{"trial":8,"action":1,"button_pressed":7,"time_out":false,"dwell_time":79.873046875,"response_time":1699985301283.34},{"trial":8,"action":1,"button_pressed":0,"time_out":false,"dwell_time":64.760009765625,"response_time":1699985301483.91},{"trial":8,"action":1,"button_pressed":8,"time_out":false,"dwell_time":64.35107421875,"response_time":1699985301883.69},{"trial":8,"action":9,"button_pressed":-1,"time_out":false,"dwell_time":16.673095703125,"response_time":1699985302699.69},{"trial":9,"action":1,"button_pressed":3,"time_out":false,"dwell_time":48.0830078125,"response_time":1699985319561.9},{"trial":9,"action":1,"button_pressed":4,"time_out":false,"dwell_time":47.18896484375,"response_time":1699985319844.29},{"trial":9,"action":1,"button_pressed":7,"time_out":false,"dwell_time":63.1220703125,"response_time":1699985320210.25},{"trial":9,"action":1,"button_pressed":10,"time_out":false,"dwell_time":81.09619140625,"response_time":1699985320494.39},{"trial":9,"action":1,"button_pressed":2,"time_out":false,"dwell_time":63.218017578125,"response_time":1699985320842.62},{"trial":9,"action":1,"button_pressed":9,"time_out":false,"dwell_time":47.8720703125,"response_time":1699985321094.81},{"trial":9,"action":9,"button_pressed":-1,"time_out":false,"dwell_time":16.706787109375,"response_time":1699985322793.08},{"trial":10,"action":1,"button_pressed":1,"time_out":false,"dwell_time":80.76513671875,"response_time":1699985339670.91},{"trial":10,"action":1,"button_pressed":9,"time_out":false,"dwell_time":63.820068359375,"response_time":1699985339904.08},{"trial":10,"action":1,"button_pressed":5,"time_out":false,"dwell_time":46.7939453125,"response_time":1699985340404.18},{"trial":10,"action":1,"button_pressed":6,"time_out":false,"dwell_time":63.860107421875,"response_time":1699985340587.23},{"trial":10,"action":1,"button_pressed":7,"time_out":false,"dwell_time":97.826171875,"response_time":1699985340987.69},{"trial":10,"action":1,"button_pressed":2,"time_out":false,"dwell_time":64.050048828125,"response_time":1699985341203.62},{"trial":10,"action":9,"button_pressed":-1,"time_out":false,"dwell_time":65.576171875,"response_time":1699985342471.28},{"trial":11,"action":1,"button_pressed":3,"time_out":false,"dwell_time":80.06103515625,"response_time":1699985361863.57},{"trial":11,"action":1,"button_pressed":0,"time_out":false,"dwell_time":63.85009765625,"response_time":1699985362313.97},{"trial":11,"action":1,"button_pressed":10,"time_out":false,"dwell_time":63.867919921875,"response_time":1699985362546.68},{"trial":11,"action":1,"button_pressed":5,"time_out":false,"dwell_time":63.6259765625,"response_time":1699985363046.17},{"trial":11,"action":1,"button_pressed":4,"time_out":false,"dwell_time":62.986083984375,"response_time":1699985363229.76},{"trial":11,"action":1,"button_pressed":1,"time_out":false,"dwell_time":113.308837890625,"response_time":1699985363812.81},{"trial":11,"action":1,"button_pressed":2,"time_out":false,"dwell_time":79.60302734375,"response_time":1699985364045.01},{"trial":11,"action":9,"button_pressed":-1,"time_out":false,"dwell_time":64.723876953125,"response_time":1699985364413.01},{"trial":12,"action":1,"button_pressed":7,"time_out":false,"dwell_time":63.156005859375,"response_time":1699985386538.78},{"trial":12,"action":1,"button_pressed":7,"time_out":false,"dwell_time":63.862060546875,"response_time":1699985387288.45},{"trial":12,"action":1,"button_pressed":7,"time_out":false,"dwell_time":63.76513671875,"response_time":1699985387738.36},{"trial":12,"action":1,"button_pressed":7,"time_out":false,"dwell_time":63.18408203125,"response_time":1699985388338.03},{"trial":12,"action":1,"button_pressed":7,"time_out":false,"dwell_time":64.65283203125,"response_time":1699985388505.55},{"trial":12,"action":1,"button_pressed":7,"time_out":false,"dwell_time":81.43017578125,"response_time":1699985388805.56},{"trial":12,"action":1,"button_pressed":7,"time_out":false,"dwell_time":80.969970703125,"response_time":1699985389071.45},{"trial":12,"action":1,"button_pressed":7,"time_out":false,"dwell_time":63.85400390625,"response_time":1699985389454.36},{"trial":12,"action":1,"button_pressed":7,"time_out":false,"dwell_time":64.155029296875,"response_time":1699985389938.23},{"trial":12,"action":0,"button_pressed":-1,"time_out":false,"dwell_time":81.864013671875,"response_time":1699985393437.38},{"trial":12,"action":1,"button_pressed":7,"time_out":false,"dwell_time":80.367919921875,"response_time":1699985394153.57},{"trial":12,"action":1,"button_pressed":5,"time_out":false,"dwell_time":63.900146484375,"response_time":1699985394469.38},{"trial":12,"action":1,"button_pressed":6,"time_out":false,"dwell_time":79.776123046875,"response_time":1699985395719.23},{"trial":12,"action":1,"button_pressed":4,"time_out":false,"dwell_time":63.615966796875,"response_time":1699985398451.98},{"trial":12,"action":1,"button_pressed":10,"time_out":false,"dwell_time":63.780029296875,"response_time":1699985398718.68},{"trial":12,"action":1,"button_pressed":1,"time_out":false,"dwell_time":63.80908203125,"response_time":1699985399334.29},{"trial":12,"action":1,"button_pressed":2,"time_out":false,"dwell_time":46.982177734375,"response_time":1699985399484.75},{"trial":12,"action":9,"button_pressed":-1,"time_out":false,"dwell_time":16.6220703125,"response_time":1699985400101.07},{"trial":13,"action":1,"button_pressed":3,"time_out":false,"dwell_time":115.25390625,"response_time":1699985422211.6},{"trial":13,"action":1,"button_pressed":1,"time_out":false,"dwell_time":130.934814453125,"response_time":1699985422710.27},{"trial":13,"action":1,"button_pressed":5,"time_out":false,"dwell_time":63.56103515625,"response_time":1699985423110.38},{"trial":13,"action":1,"button_pressed":2,"time_out":false,"dwell_time":64.671875,"response_time":1699985423377.36},{"trial":13,"action":1,"button_pressed":7,"time_out":false,"dwell_time":113.595947265625,"response_time":1699985423676.3},{"trial":13,"action":1,"button_pressed":10,"time_out":false,"dwell_time":81.366943359375,"response_time":1699985423810.63},{"trial":13,"action":1,"button_pressed":9,"time_out":false,"dwell_time":80.02099609375,"response_time":1699985425892.63},{"trial":13,"action":1,"button_pressed":0,"time_out":false,"dwell_time":47.149169921875,"response_time":1699985426042.87},{"trial":13,"action":9,"button_pressed":-1,"time_out":false,"dwell_time":81.068115234375,"response_time":1699985426443.33}]}