{"meta_data":{"additional_headers":{},"game_name":"Recollect","version":"2.53.01","user_name":"135","organization":"braingamecenter","study":"mpl2_2022_11","session_number":0,"device_id":"74342D95-EE82-45E3-8ADF-48FB3203C5DD"},"data":[{"trial":0,"action":1,"button_pressed":6,"time_out":false,"dwell_time":63.948974609375,"response_time":1700088208230.39},{"trial":0,"action":1,"button_pressed":10,"time_out":false,"dwell_time":63.72412109375,"response_time":1700088208780.04},{"trial":0,"action":9,"button_pressed":-1,"time_out":false,"dwell_time":58.26806640625,"response_time":1700088210008.06},{"trial":1,"action":1,"button_pressed":5,"time_out":false,"dwell_time":64.3779296875,"response_time":1700088219709.95},{"trial":1,"action":1,"button_pressed":8,"time_out":false,"dwell_time":46.821044921875,"response_time":1700088220176.67},{"trial":1,"action":1,"button_pressed":0,"time_out":false,"dwell_time":80.660888671875,"response_time":1700088221026.11},{"trial":1,"action":9,"button_pressed":-1,"time_out":false,"dwell_time":80.577880859375,"response_time":1700088221842.98},{"trial":2,"action":1,"button_pressed":8,"time_out":false,"dwell_time":30.5,"response_time":1700088234122.2},{"trial":2,"action":1,"button_pressed":1,"time_out":false,"dwell_time":64.2021484375,"response_time":1700088234838.17},{"trial":2,"action":1,"button_pressed":3,"time_out":false,"dwell_time":47.02294921875,"response_time":1700088235421.68},{"trial":2,"action":1,"button_pressed":11,"time_out":false,"dwell_time":47.748046875,"response_time":1700088236055.55},{"trial":2,"action":9,"button_pressed":-1,"time_out":false,"dwell_time":63.620849609375,"response_time":1700088237153.49},{"trial":3,"action":1,"button_pressed":1,"time_out":false,"dwell_time":64.919921875,"response_time":1700088251916.6},{"trial":3,"action":1,"button_pressed":10,"time_out":false,"dwell_time":47.4921875,"response_time":1700088252749.25},{"trial":3,"action":1,"button_pressed":0,"time_out":false,"dwell_time":64.580078125,"response_time":1700088253315.89},{"trial":3,"action":1,"button_pressed":9,"time_out":false,"dwell_time":64.0048828125,"response_time":1700088253765.18},{"trial":3,"action":1,"button_pressed":5,"time_out":false,"dwell_time":48.530029296875,"response_time":1700088254332.75},{"trial":3,"action":9,"button_pressed":-1,"time_out":false,"dwell_time":64.611083984375,"response_time":1700088254999.31},{"trial":4,"action":1,"button_pressed":6,"time_out":false,"dwell_time":48.52294921875,"response_time":1700088272210.4},{"trial":4,"action":1,"button_pressed":5,"time_out":false,"dwell_time":64.56201171875,"response_time":1700088272842.8},{"trial":4,"action":1,"button_pressed":0,"time_out":false,"dwell_time":47.800048828125,"response_time":1700088273459.8},{"trial":4,"action":1,"button_pressed":11,"time_out":false,"dwell_time":47.89990234375,"response_time":1700088274675.46},{"trial":4,"action":1,"button_pressed":8,"time_out":false,"dwell_time":30.19482421875,"response_time":1700088275125.21},{"trial":4,"action":1,"button_pressed":4,"time_out":false,"dwell_time":48.486083984375,"response_time":1700088275509.14},{"trial":4,"action":9,"button_pressed":-1,"time_out":false,"dwell_time":81.30712890625,"response_time":1700088277558.52},{"trial":5,"action":1,"button_pressed":5,"time_out":false,"dwell_time":63.8349609375,"response_time":1700088297367.95},{"trial":5,"action":1,"button_pressed":3,"time_out":false,"dwell_time":63.31396484375,"response_time":1700088298683.66},{"trial":5,"action":1,"button_pressed":8,"time_out":false,"dwell_time":63.60498046875,"response_time":1700088300650.21},{"trial":5,"action":1,"button_pressed":11,"time_out":false,"dwell_time":47.7529296875,"response_time":1700088305964.96},{"trial":5,"action":1,"button_pressed":4,"time_out":false,"dwell_time":47.843017578125,"response_time":1700088307264.57},{"trial":5,"action":1,"button_pressed":7,"time_out":false,"dwell_time":63.974853515625,"response_time":1700088307963.98},{"trial":5,"action":1,"button_pressed":10,"time_out":false,"dwell_time":47.653076171875,"response_time":1700088308630.75},{"trial":5,"action":9,"button_pressed":-1,"time_out":false,"dwell_time":81.19189453125,"response_time":1700088311647.23},{"trial":6,"action":1,"button_pressed":8,"time_out":false,"dwell_time":64.5810546875,"response_time":1700088331457.06},{"trial":6,"action":1,"button_pressed":5,"time_out":false,"dwell_time":81.47705078125,"response_time":1700088332190.08},{"trial":6,"action":1,"button_pressed":1,"time_out":false,"dwell_time":63.81591796875,"response_time":1700088333206.17},{"trial":6,"action":1,"button_pressed":6,"time_out":false,"dwell_time":63.7529296875,"response_time":1700088333456.19},{"trial":6,"action":1,"button_pressed":0,"time_out":false,"dwell_time":64.8291015625,"response_time":1700088334189.28},{"trial":6,"action":1,"button_pressed":7,"time_out":false,"dwell_time":64.4091796875,"response_time":1700088335671.94},{"trial":6,"action":9,"button_pressed":-1,"time_out":false,"dwell_time":47.517822265625,"response_time":1700088337871.46},{"trial":7,"action":1,"button_pressed":8,"time_out":false,"dwell_time":47.916015625,"response_time":1700088352683},{"trial":7,"action":1,"button_pressed":4,"time_out":false,"dwell_time":63.9521484375,"response_time":1700088353066.3},{"trial":7,"action":1,"button_pressed":1,"time_out":false,"dwell_time":14.551025390625,"response_time":1700088353483.41},{"trial":7,"action":1,"button_pressed":5,"time_out":false,"dwell_time":47.150146484375,"response_time":1700088354182.57},{"trial":7,"action":1,"button_pressed":3,"time_out":false,"dwell_time":81.407958984375,"response_time":1700088354749.23},{"trial":7,"action":9,"button_pressed":-1,"time_out":false,"dwell_time":64.717041015625,"response_time":1700088355582.02},{"trial":8,"action":1,"button_pressed":4,"time_out":false,"dwell_time":47.73095703125,"response_time":1700088372726.43},{"trial":8,"action":1,"button_pressed":11,"time_out":false,"dwell_time":30.054931640625,"response_time":1700088373242.68},{"trial":8,"action":1,"button_pressed":3,"time_out":false,"dwell_time":47.795166015625,"response_time":1700088373742.66},{"trial":8,"action":1,"button_pressed":2,"time_out":false,"dwell_time":47.637939453125,"response_time":1700088374292.35},{"trial":8,"action":1,"button_pressed":10,"time_out":false,"dwell_time":47.6279296875,"response_time":1700088374875.55},{"trial":8,"action":1,"button_pressed":6,"time_out":false,"dwell_time":47.510986328125,"response_time":1700088375459.36},{"trial":8,"action":9,"button_pressed":-1,"time_out":false,"dwell_time":49.690185546875,"response_time":1700088377192.59},{"trial":9,"action":1,"button_pressed":1,"time_out":false,"dwell_time":65.069091796875,"response_time":1700088397701.78},{"trial":9,"action":1,"button_pressed":9,"time_out":false,"dwell_time":47.598876953125,"response_time":1700088398134.46},{"trial":9,"action":1,"button_pressed":7,"time_out":false,"dwell_time":47.596923828125,"response_time":1700088398601.78},{"trial":9,"action":1,"button_pressed":2,"time_out":false,"dwell_time":46.72998046875,"response_time":1700088400117.21},{"trial":9,"action":1,"button_pressed":5,"time_out":false,"dwell_time":48.61083984375,"response_time":1700088400401.17},{"trial":9,"action":1,"button_pressed":11,"time_out":false,"dwell_time":47.654052734375,"response_time":1700088401667.42},{"trial":9,"action":1,"button_pressed":3,"time_out":false,"dwell_time":48.4501953125,"response_time":1700088402100.61},{"trial":9,"action":9,"button_pressed":-1,"time_out":false,"dwell_time":98.10009765625,"response_time":1700088404299.3},{"trial":10,"action":1,"button_pressed":4,"time_out":false,"dwell_time":62.7958984375,"response_time":1700088426440.85},{"trial":10,"action":1,"button_pressed":11,"time_out":false,"dwell_time":47.587890625,"response_time":1700088426925.81},{"trial":10,"action":1,"button_pressed":7,"time_out":false,"dwell_time":47.174072265625,"response_time":1700088427209.09},{"trial":10,"action":1,"button_pressed":2,"time_out":false,"dwell_time":80.375,"response_time":1700088433555.67},{"trial":10,"action":1,"button_pressed":0,"time_out":false,"dwell_time":47.80322265625,"response_time":1700088434223.39},{"trial":10,"action":1,"button_pressed":1,"time_out":false,"dwell_time":80.541015625,"response_time":1700088437687.73},{"trial":10,"action":1,"button_pressed":3,"time_out":false,"dwell_time":47.56201171875,"response_time":1700088437938.1},{"trial":10,"action":9,"button_pressed":-1,"time_out":false,"dwell_time":64.60693359375,"response_time":1700088440037.54},{"trial":11,"action":1,"button_pressed":1,"time_out":false,"dwell_time":64.02490234375,"response_time":1700088462230.44},{"trial":11,"action":1,"button_pressed":10,"time_out":false,"dwell_time":64.929931640625,"response_time":1700088462613.68},{"trial":11,"action":1,"button_pressed":0,"time_out":false,"dwell_time":48.32080078125,"response_time":1700088463080.46},{"trial":11,"action":1,"button_pressed":2,"time_out":false,"dwell_time":48.48681640625,"response_time":1700088463413.65},{"trial":11,"action":1,"button_pressed":3,"time_out":false,"dwell_time":46.8818359375,"response_time":1700088464345.9},{"trial":11,"action":1,"button_pressed":7,"time_out":false,"dwell_time":47.533935546875,"response_time":1700088465828.81},{"trial":11,"action":1,"button_pressed":9,"time_out":false,"dwell_time":46.576904296875,"response_time":1700088466578.58},{"trial":11,"action":1,"button_pressed":4,"time_out":false,"dwell_time":31.237060546875,"response_time":1700088466878.56},{"trial":11,"action":9,"button_pressed":-1,"time_out":false,"dwell_time":64.791015625,"response_time":1700088470144.23},{"trial":12,"action":1,"button_pressed":5,"time_out":false,"dwell_time":64.732177734375,"response_time":1700088497052.3},{"trial":12,"action":1,"button_pressed":11,"time_out":false,"dwell_time":46.81201171875,"response_time":1700088497834.81},{"trial":12,"action":1,"button_pressed":3,"time_out":false,"dwell_time":47.11083984375,"response_time":1700088498818.01},{"trial":12,"action":1,"button_pressed":4,"time_out":false,"dwell_time":47.73095703125,"response_time":1700088499151.22},{"trial":12,"action":1,"button_pressed":7,"time_out":false,"dwell_time":47.674072265625,"response_time":1700088500367.39},{"trial":12,"action":1,"button_pressed":2,"time_out":false,"dwell_time":63.76904296875,"response_time":1700088501467.37},{"trial":12,"action":1,"button_pressed":8,"time_out":false,"dwell_time":47.75390625,"response_time":1700088501767.8},{"trial":12,"action":1,"button_pressed":9,"time_out":false,"dwell_time":30.77587890625,"response_time":1700088502200.89},{"trial":12,"action":9,"button_pressed":-1,"time_out":false,"dwell_time":48.18310546875,"response_time":1700088506015.96},{"trial":13,"action":1,"button_pressed":10,"time_out":false,"dwell_time":30.5859375,"response_time":1700088530857.45},{"trial":13,"action":1,"button_pressed":3,"time_out":false,"dwell_time":47.175048828125,"response_time":1700088531290.7},{"trial":13,"action":1,"button_pressed":6,"time_out":false,"dwell_time":63.95703125,"response_time":1700088531490.83},{"trial":13,"action":1,"button_pressed":8,"time_out":false,"dwell_time":47.614990234375,"response_time":1700088531974.39},{"trial":13,"action":1,"button_pressed":11,"time_out":false,"dwell_time":47.593017578125,"response_time":1700088532557.43},{"trial":13,"action":1,"button_pressed":7,"time_out":false,"dwell_time":48.27197265625,"response_time":1700088532790.88},{"trial":13,"action":1,"button_pressed":2,"time_out":false,"dwell_time":47.551025390625,"response_time":1700088533490.67},{"trial":13,"action":1,"button_pressed":0,"time_out":false,"dwell_time":46.982177734375,"response_time":1700088534806},{"trial":13,"action":1,"button_pressed":4,"time_out":false,"dwell_time":47.638916015625,"response_time":1700088535006.73},{"trial":13,"action":9,"button_pressed":-1,"time_out":false,"dwell_time":31.564208984375,"response_time":1700088536606.58},{"trial":14,"action":1,"button_pressed":10,"time_out":false,"dwell_time":64.948974609375,"response_time":1700088567729.01},{"trial":14,"action":1,"button_pressed":8,"time_out":false,"dwell_time":63.666015625,"response_time":1700088570011.23},{"trial":14,"action":1,"button_pressed":11,"time_out":false,"dwell_time":31.069091796875,"response_time":1700088570794.08},{"trial":14,"action":1,"button_pressed":2,"time_out":false,"dwell_time":79.989013671875,"response_time":1700088572110.12},{"trial":14,"action":1,"button_pressed":5,"time_out":false,"dwell_time":63.7919921875,"response_time":1700088573192.85},{"trial":14,"action":1,"button_pressed":0,"time_out":false,"dwell_time":46.85302734375,"response_time":1700088577225.25},{"trial":14,"action":1,"button_pressed":7,"time_out":false,"dwell_time":47.992919921875,"response_time":1700088578975.39},{"trial":14,"action":1,"button_pressed":9,"time_out":false,"dwell_time":63.926025390625,"response_time":1700088581124.43},{"trial":14,"action":1,"button_pressed":4,"time_out":false,"dwell_time":47.72607421875,"response_time":1700088583423.16},{"trial":14,"action":1,"button_pressed":6,"time_out":false,"dwell_time":47.593017578125,"response_time":1700088586239.02},{"trial":14,"action":1,"button_pressed":3,"time_out":false,"dwell_time":46.861083984375,"response_time":1700088588038.35},{"trial":14,"action":9,"button_pressed":-1,"time_out":false,"dwell_time":147.970947265625,"response_time":1700088589088.82},{"trial":15,"action":1,"button_pressed":9,"time_out":false,"dwell_time":48.203125,"response_time":1700088619428.21},{"trial":15,"action":1,"button_pressed":9,"time_out":false,"dwell_time":64.02099609375,"response_time":1700088623060.5},{"trial":15,"action":9,"button_pressed":-1,"time_out":true,"dwell_time":10075.8110351563,"response_time":1700088633072.29}]}