{"meta_data":{"additional_headers":{},"game_name":"Recollect","version":"2.53.01","user_name":"135","organization":"braingamecenter","study":"mpl2_2022_11","session_number":0,"device_id":"74342D95-EE82-45E3-8ADF-48FB3203C5DD"},"data":[{"stage":"Practice","trial":0,"sequence":"6F","letter_input":"F","number_input":"6","is_correct":true,"presentation_start_time":1700088671342.35,"presentation_end_time":1700088674344.61,"response_time":1700088686557.1},{"stage":"Practice","trial":1,"sequence":"G4","letter_input":"G","number_input":"4","is_correct":true,"presentation_start_time":1700088688086.83,"presentation_end_time":1700088691089,"response_time":1700088697117.33},{"stage":"Practice","trial":2,"sequence":"3W5","letter_input":"W","number_input":"35","is_correct":true,"presentation_start_time":1700088698649.95,"presentation_end_time":1700088703151.75,"response_time":1700088713778.36},{"stage":"Practice","trial":3,"sequence":"T7L","letter_input":"LT","number_input":"7","is_correct":true,"presentation_start_time":1700088715311.11,"presentation_end_time":1700088719812.83,"response_time":1700088727956.99},{"stage":"Practice","trial":4,"sequence":"9J1","letter_input":"J","number_input":"19","is_correct":true,"presentation_start_time":1700088729489.76,"presentation_end_time":1700088733991.55,"response_time":1700088740136.27},{"stage":"Calibration","trial":0,"sequence":"3A","letter_input":"A","number_input":"3","is_correct":true,"presentation_start_time":1700088750232.81,"presentation_end_time":1700088753235.05,"response_time":1700088758580.2},{"stage":"Calibration","trial":1,"sequence":"C7","letter_input":"C","number_input":"7","is_correct":true,"presentation_start_time":1700088760112.87,"presentation_end_time":1700088763115.3,"response_time":1700088770143.14},{"stage":"Calibration","trial":2,"sequence":"5H1","letter_input":"H","number_input":"15","is_correct":true,"presentation_start_time":1700088771675.74,"presentation_end_time":1700088776177.53,"response_time":1700088780139.73},{"stage":"Calibration","trial":3,"sequence":"R3B","letter_input":"BR","number_input":"3","is_correct":true,"presentation_start_time":1700088781672.51,"presentation_end_time":1700088786174.17,"response_time":1700088791186.13},{"stage":"Calibration","trial":4,"sequence":"7W2C","letter_input":"CW","number_input":"27","is_correct":true,"presentation_start_time":1700088792718.91,"presentation_end_time":1700088798719.93,"response_time":1700088804165.1},{"stage":"Calibration","trial":5,"sequence":"M9E4","letter_input":"EM","number_input":"49","is_correct":true,"presentation_start_time":1700088805697.79,"presentation_end_time":1700088811699.11,"response_time":1700088823791.9},{"stage":"Calibration","trial":6,"sequence":"7Y3K1","letter_input":"EY","number_input":"137","is_correct":false,"presentation_start_time":1700088825324.64,"presentation_end_time":1700088832825.35,"response_time":1700088853548.65},{"stage":"Calibration","trial":7,"sequence":"J9B5Z","letter_input":"BJZ","number_input":"59","is_correct":true,"presentation_start_time":1700088855081.45,"presentation_end_time":1700088862582.26,"response_time":1700088875408.16},{"stage":"Calibration","trial":8,"sequence":"4S1M7C","letter_input":"CMS","number_input":"147","is_correct":true,"presentation_start_time":1700088876940.88,"presentation_end_time":1700088885941.07,"response_time":1700088909180.27},{"stage":"Calibration","trial":9,"sequence":"G8D5A3","letter_input":"AGM","number_input":"358","is_correct":false,"presentation_start_time":1700088910712.96,"presentation_end_time":1700088919713.35,"response_time":1700088932305.92},{"stage":"Calibration","trial":10,"sequence":"2B6R4P9","letter_input":"BJP","number_input":"2469","is_correct":false,"presentation_start_time":1700088933838.75,"presentation_end_time":1700088944338.33,"response_time":1700088979356.97},{"stage":"Calibration","trial":11,"sequence":"A3Z7N5H","letter_input":"AGHZ","number_input":"357","is_correct":false,"presentation_start_time":1700088980889.78,"presentation_end_time":1700088991389.43,"response_time":1700089020176.81}]}