{"meta_data":{"additional_headers":{},"game_name":"Recollect","version":"2.53.01","user_name":"136","organization":"braingamecenter","study":"mpl2_2022_11","session_number":0,"device_id":"74342D95-EE82-45E3-8ADF-48FB3203C5DD"},"data":[{"trial":0,"action":1,"button_pressed":10,"time_out":false,"dwell_time":96.671142578125,"response_time":1700244384520.15},{"trial":0,"action":1,"button_pressed":7,"time_out":false,"dwell_time":63.76611328125,"response_time":1700244385003.74},{"trial":0,"action":9,"button_pressed":-1,"time_out":false,"dwell_time":56.778076171875,"response_time":1700244385829.57},{"trial":1,"action":1,"button_pressed":9,"time_out":false,"dwell_time":80.76806640625,"response_time":1700244395316.39},{"trial":1,"action":1,"button_pressed":1,"time_out":false,"dwell_time":65.112060546875,"response_time":1700244395799.58},{"trial":1,"action":1,"button_pressed":3,"time_out":false,"dwell_time":46.93505859375,"response_time":1700244396116.56},{"trial":1,"action":9,"button_pressed":-1,"time_out":false,"dwell_time":65.027099609375,"response_time":1700244396783.52},{"trial":2,"action":1,"button_pressed":3,"time_out":false,"dwell_time":64.32080078125,"response_time":1700244408911.94},{"trial":2,"action":1,"button_pressed":5,"time_out":false,"dwell_time":47.06591796875,"response_time":1700244409412.09},{"trial":2,"action":1,"button_pressed":9,"time_out":false,"dwell_time":47.544921875,"response_time":1700244409962.56},{"trial":2,"action":1,"button_pressed":2,"time_out":false,"dwell_time":12.968994140625,"response_time":1700244410444.38},{"trial":2,"action":9,"button_pressed":-1,"time_out":false,"dwell_time":47.393798828125,"response_time":1700244411228.59},{"trial":3,"action":1,"button_pressed":2,"time_out":false,"dwell_time":80.06591796875,"response_time":1700244426206.1},{"trial":3,"action":1,"button_pressed":7,"time_out":false,"dwell_time":62.862060546875,"response_time":1700244426905.69},{"trial":3,"action":1,"button_pressed":6,"time_out":false,"dwell_time":63.671875,"response_time":1700244427238.91},{"trial":3,"action":1,"button_pressed":0,"time_out":false,"dwell_time":63.580810546875,"response_time":1700244427689.48},{"trial":3,"action":1,"button_pressed":8,"time_out":false,"dwell_time":47.005859375,"response_time":1700244428105.88},{"trial":3,"action":9,"button_pressed":-1,"time_out":false,"dwell_time":98.261962890625,"response_time":1700244429572.31},{"trial":4,"action":1,"button_pressed":1,"time_out":false,"dwell_time":81.60400390625,"response_time":1700244444350.74},{"trial":4,"action":1,"button_pressed":11,"time_out":false,"dwell_time":63.905029296875,"response_time":1700244444717.2},{"trial":4,"action":1,"button_pressed":9,"time_out":false,"dwell_time":63.0771484375,"response_time":1700244445033.03},{"trial":4,"action":1,"button_pressed":7,"time_out":false,"dwell_time":30.5791015625,"response_time":1700244445400.28},{"trial":4,"action":1,"button_pressed":4,"time_out":false,"dwell_time":47.8310546875,"response_time":1700244445849.85},{"trial":4,"action":9,"button_pressed":-1,"time_out":false,"dwell_time":16.716064453125,"response_time":1700244446566.18},{"trial":5,"action":1,"button_pressed":5,"time_out":false,"dwell_time":97.651123046875,"response_time":1700244456845.9},{"trial":5,"action":1,"button_pressed":8,"time_out":false,"dwell_time":64.258056640625,"response_time":1700244457079.39},{"trial":5,"action":1,"button_pressed":0,"time_out":false,"dwell_time":64.68603515625,"response_time":1700244457429.55},{"trial":5,"action":9,"button_pressed":-1,"time_out":false,"dwell_time":47.580810546875,"response_time":1700244457763.07},{"trial":6,"action":1,"button_pressed":7,"time_out":false,"dwell_time":63.34814453125,"response_time":1700244470441.36},{"trial":6,"action":1,"button_pressed":9,"time_out":false,"dwell_time":80.548828125,"response_time":1700244470790.98},{"trial":6,"action":1,"button_pressed":0,"time_out":false,"dwell_time":82.757080078125,"response_time":1700244471191.91},{"trial":6,"action":1,"button_pressed":4,"time_out":false,"dwell_time":48.5009765625,"response_time":1700244471408.78},{"trial":6,"action":9,"button_pressed":-1,"time_out":false,"dwell_time":82.0029296875,"response_time":1700244471975.24},{"trial":7,"action":1,"button_pressed":5,"time_out":false,"dwell_time":65.060791015625,"response_time":1700244487003.22},{"trial":7,"action":1,"button_pressed":9,"time_out":false,"dwell_time":81.133056640625,"response_time":1700244487569.64},{"trial":7,"action":1,"button_pressed":6,"time_out":false,"dwell_time":47.616943359375,"response_time":1700244487769.24},{"trial":7,"action":1,"button_pressed":8,"time_out":false,"dwell_time":46.81005859375,"response_time":1700244488202.37},{"trial":7,"action":1,"button_pressed":7,"time_out":false,"dwell_time":30.89697265625,"response_time":1700244488702.82},{"trial":7,"action":9,"button_pressed":-1,"time_out":false,"dwell_time":15.761962890625,"response_time":1700244489353.23},{"trial":8,"action":1,"button_pressed":8,"time_out":false,"dwell_time":63.3310546875,"response_time":1700244506345.88},{"trial":8,"action":1,"button_pressed":0,"time_out":false,"dwell_time":46.851806640625,"response_time":1700244506846},{"trial":8,"action":1,"button_pressed":1,"time_out":false,"dwell_time":63.16796875,"response_time":1700244507495.39},{"trial":8,"action":1,"button_pressed":3,"time_out":false,"dwell_time":30.2109375,"response_time":1700244507812.4},{"trial":8,"action":1,"button_pressed":9,"time_out":false,"dwell_time":46.951904296875,"response_time":1700244508245.69},{"trial":8,"action":1,"button_pressed":5,"time_out":false,"dwell_time":30.248046875,"response_time":1700244509078.52},{"trial":8,"action":9,"button_pressed":-1,"time_out":false,"dwell_time":65.1298828125,"response_time":1700244511811.84},{"trial":9,"action":1,"button_pressed":5,"time_out":false,"dwell_time":80.98291015625,"response_time":1700244529572.34},{"trial":9,"action":1,"button_pressed":6,"time_out":false,"dwell_time":64.388916015625,"response_time":1700244530055.21},{"trial":9,"action":1,"button_pressed":0,"time_out":false,"dwell_time":97.886962890625,"response_time":1700244530455.11},{"trial":9,"action":1,"button_pressed":11,"time_out":false,"dwell_time":64.534912109375,"response_time":1700244530854.95},{"trial":9,"action":1,"button_pressed":8,"time_out":false,"dwell_time":80.656982421875,"response_time":1700244532054.74},{"trial":9,"action":1,"button_pressed":4,"time_out":false,"dwell_time":30.43994140625,"response_time":1700244532420.99},{"trial":9,"action":9,"button_pressed":-1,"time_out":false,"dwell_time":81.327880859375,"response_time":1700244533054.83}]}