{"meta_data":{"additional_headers":{},"game_name":"Recollect","version":"2.53.01","user_name":"136","organization":"braingamecenter","study":"mpl2_2022_11","session_number":0,"device_id":"74342D95-EE82-45E3-8ADF-48FB3203C5DD"},"data":[{"stage":"Practice","trial":0,"sequence":"6F","letter_input":"F","number_input":"6","is_correct":true,"presentation_start_time":1700244599130.13,"presentation_end_time":1700244602132.41,"response_time":1700244612728.86},{"stage":"Practice","trial":1,"sequence":"G4","letter_input":"G","number_input":"4","is_correct":true,"presentation_start_time":1700244614258.38,"presentation_end_time":1700244617260.71,"response_time":1700244622322.51},{"stage":"Practice","trial":2,"sequence":"3W5","letter_input":"W","number_input":"35","is_correct":true,"presentation_start_time":1700244623855.26,"presentation_end_time":1700244628357.1,"response_time":1700244634118.5},{"stage":"Practice","trial":3,"sequence":"T7L","letter_input":"LT","number_input":"7","is_correct":true,"presentation_start_time":1700244635651.25,"presentation_end_time":1700244640153.02,"response_time":1700244645414.74},{"stage":"Practice","trial":4,"sequence":"9J1","letter_input":"J","number_input":"19","is_correct":true,"presentation_start_time":1700244646947.49,"presentation_end_time":1700244651449.31,"response_time":1700244655944.49},{"stage":"Calibration","trial":0,"sequence":"8C","letter_input":"C","number_input":"8","is_correct":true,"presentation_start_time":1700244665141.37,"presentation_end_time":1700244668143.53,"response_time":1700244673022.33},{"stage":"Calibration","trial":1,"sequence":"R6","letter_input":"R","number_input":"6","is_correct":true,"presentation_start_time":1700244674554.93,"presentation_end_time":1700244677557.26,"response_time":1700244683085.46},{"stage":"Calibration","trial":2,"sequence":"8P3","letter_input":"P","number_input":"38","is_correct":true,"presentation_start_time":1700244684618.14,"presentation_end_time":1700244689120.15,"response_time":1700244693065.43},{"stage":"Calibration","trial":3,"sequence":"Y2K","letter_input":"KY","number_input":"2","is_correct":true,"presentation_start_time":1700244694598.12,"presentation_end_time":1700244699100.13,"response_time":1700244704378.32},{"stage":"Calibration","trial":4,"sequence":"7W4B","letter_input":"BW","number_input":"47","is_correct":true,"presentation_start_time":1700244705911.04,"presentation_end_time":1700244711912.33,"response_time":1700244717807.21},{"stage":"Calibration","trial":5,"sequence":"M5F3","letter_input":"MF","number_input":"35","is_correct":false,"presentation_start_time":1700244719339.88,"presentation_end_time":1700244725341.27,"response_time":1700244736800.88},{"stage":"Calibration","trial":6,"sequence":"8W4B1","letter_input":"BW","number_input":"148","is_correct":true,"presentation_start_time":1700244738333.53,"presentation_end_time":1700244745834.26,"response_time":1700244752095.7},{"stage":"Calibration","trial":7,"sequence":"H5E3Q","letter_input":"BWQ","number_input":"35","is_correct":false,"presentation_start_time":1700244753628.51,"presentation_end_time":1700244761129.2,"response_time":1700244771555.79},{"stage":"Calibration","trial":8,"sequence":"8M6K2S","letter_input":"KMS","number_input":"268","is_correct":true,"presentation_start_time":1700244773088.6,"presentation_end_time":1700244782088.95,"response_time":1700244789899.69},{"stage":"Calibration","trial":9,"sequence":"Y5V3H1","letter_input":"HVW","number_input":"135","is_correct":false,"presentation_start_time":1700244791432.52,"presentation_end_time":1700244800432.72,"response_time":1700244811159.25},{"stage":"Calibration","trial":10,"sequence":"9A4R2P7","letter_input":"APR","number_input":"2479","is_correct":true,"presentation_start_time":1700244812691.98,"presentation_end_time":1700244823191.82,"response_time":1700244832852.02},{"stage":"Calibration","trial":11,"sequence":"H8E3T1B","letter_input":"BEHT","number_input":"138","is_correct":true,"presentation_start_time":1700244834384.75,"presentation_end_time":1700244844884.71,"response_time":1700244856144.27},{"stage":"Calibration","trial":12,"sequence":"7L5Z9R2D","letter_input":"BLZ","number_input":"1379","is_correct":false,"presentation_start_time":1700244857676.93,"presentation_end_time":1700244869676.24,"response_time":1700244887650.33},{"stage":"Calibration","trial":13,"sequence":"S4B1M8J6","letter_input":"","number_input":"167","is_correct":false,"presentation_start_time":1700244889183.03,"presentation_end_time":1700244901182.29,"response_time":1700244908626.68}]}