{"meta_data":{"additional_headers":{},"game_name":"Recollect","version":"2.53.01","user_name":"137","organization":"braingamecenter","study":"mpl2_2022_11","session_number":0,"device_id":"74342D95-EE82-45E3-8ADF-48FB3203C5DD"},"data":[{"trial":0,"action":1,"button_pressed":2,"time_out":false,"dwell_time":80.927978515625,"response_time":1700262765515.92},{"trial":0,"action":1,"button_pressed":9,"time_out":false,"dwell_time":63.77197265625,"response_time":1700262766248.78},{"trial":0,"action":9,"button_pressed":-1,"time_out":false,"dwell_time":73.927978515625,"response_time":1700262767758.28},{"trial":1,"action":1,"button_pressed":4,"time_out":false,"dwell_time":80.9931640625,"response_time":1700262777344.79},{"trial":1,"action":1,"button_pressed":7,"time_out":false,"dwell_time":64.406982421875,"response_time":1700262778011.65},{"trial":1,"action":1,"button_pressed":10,"time_out":false,"dwell_time":47.69189453125,"response_time":1700262778511.38},{"trial":1,"action":9,"button_pressed":-1,"time_out":false,"dwell_time":64.458984375,"response_time":1700262779560.84},{"trial":2,"action":1,"button_pressed":2,"time_out":false,"dwell_time":80.880126953125,"response_time":1700262791807.4},{"trial":2,"action":1,"button_pressed":4,"time_out":false,"dwell_time":62.658935546875,"response_time":1700262792305.62},{"trial":2,"action":1,"button_pressed":10,"time_out":false,"dwell_time":63.7890625,"response_time":1700262792740.09},{"trial":2,"action":1,"button_pressed":5,"time_out":false,"dwell_time":64.06201171875,"response_time":1700262793222.78},{"trial":2,"action":9,"button_pressed":-1,"time_out":false,"dwell_time":63.820068359375,"response_time":1700262793989.51},{"trial":3,"action":1,"button_pressed":9,"time_out":false,"dwell_time":80.8759765625,"response_time":1700262809051.06},{"trial":3,"action":1,"button_pressed":0,"time_out":false,"dwell_time":80.780029296875,"response_time":1700262809751.55},{"trial":3,"action":1,"button_pressed":2,"time_out":false,"dwell_time":64.037109375,"response_time":1700262810250.51},{"trial":3,"action":1,"button_pressed":1,"time_out":false,"dwell_time":62.991943359375,"response_time":1700262810900.22},{"trial":3,"action":1,"button_pressed":6,"time_out":false,"dwell_time":46.66796875,"response_time":1700262811383.92},{"trial":3,"action":9,"button_pressed":-1,"time_out":false,"dwell_time":47.493896484375,"response_time":1700262815916.17},{"trial":4,"action":1,"button_pressed":8,"time_out":false,"dwell_time":98.277099609375,"response_time":1700262833127.32},{"trial":4,"action":1,"button_pressed":0,"time_out":false,"dwell_time":80.660888671875,"response_time":1700262833742.85},{"trial":4,"action":1,"button_pressed":1,"time_out":false,"dwell_time":81.176025390625,"response_time":1700262834260.1},{"trial":4,"action":1,"button_pressed":9,"time_out":false,"dwell_time":47.714111328125,"response_time":1700262834959.6},{"trial":4,"action":1,"button_pressed":3,"time_out":false,"dwell_time":47.639892578125,"response_time":1700262836509.11},{"trial":4,"action":1,"button_pressed":2,"time_out":false,"dwell_time":30.31201171875,"response_time":1700262837192.11},{"trial":4,"action":9,"button_pressed":-1,"time_out":false,"dwell_time":47.39892578125,"response_time":1700262845040.06},{"trial":5,"action":1,"button_pressed":4,"time_out":false,"dwell_time":114.446044921875,"response_time":1700262865517.05},{"trial":5,"action":1,"button_pressed":3,"time_out":false,"dwell_time":47.822998046875,"response_time":1700262867365.77},{"trial":5,"action":1,"button_pressed":7,"time_out":false,"dwell_time":63.56103515625,"response_time":1700262867914.97},{"trial":5,"action":1,"button_pressed":10,"time_out":false,"dwell_time":63.06396484375,"response_time":1700262868414.85},{"trial":5,"action":1,"button_pressed":2,"time_out":false,"dwell_time":63.7509765625,"response_time":1700262871231.42},{"trial":5,"action":1,"button_pressed":9,"time_out":false,"dwell_time":30.30615234375,"response_time":1700262872464.16},{"trial":5,"action":9,"button_pressed":-1,"time_out":false,"dwell_time":31.7900390625,"response_time":1700262873515},{"trial":6,"action":1,"button_pressed":6,"time_out":false,"dwell_time":97.81787109375,"response_time":1700262885909.82},{"trial":6,"action":1,"button_pressed":8,"time_out":false,"dwell_time":63.113037109375,"response_time":1700262886325.77},{"trial":6,"action":1,"button_pressed":11,"time_out":false,"dwell_time":80.31298828125,"response_time":1700262886892.06},{"trial":6,"action":1,"button_pressed":7,"time_out":false,"dwell_time":30.23193359375,"response_time":1700262887276.08},{"trial":6,"action":9,"button_pressed":-1,"time_out":false,"dwell_time":64.578125,"response_time":1700262888125.64},{"trial":7,"action":1,"button_pressed":3,"time_out":false,"dwell_time":98.095947265625,"response_time":1700262903104.44},{"trial":7,"action":1,"button_pressed":8,"time_out":false,"dwell_time":97.206787109375,"response_time":1700262903520.95},{"trial":7,"action":1,"button_pressed":4,"time_out":false,"dwell_time":97.922119140625,"response_time":1700262903837.58},{"trial":7,"action":1,"button_pressed":10,"time_out":false,"dwell_time":97.364990234375,"response_time":1700262904187.47},{"trial":7,"action":1,"button_pressed":11,"time_out":false,"dwell_time":63.875,"response_time":1700262904603.07},{"trial":7,"action":9,"button_pressed":-1,"time_out":false,"dwell_time":81.326904296875,"response_time":1700262905437.49},{"trial":8,"action":1,"button_pressed":2,"time_out":false,"dwell_time":48.001953125,"response_time":1700262923981.65},{"trial":8,"action":1,"button_pressed":6,"time_out":false,"dwell_time":79.68798828125,"response_time":1700262924463.38},{"trial":8,"action":1,"button_pressed":10,"time_out":false,"dwell_time":47.052978515625,"response_time":1700262924863.74},{"trial":8,"action":1,"button_pressed":7,"time_out":false,"dwell_time":63.77294921875,"response_time":1700262925330.44},{"trial":8,"action":1,"button_pressed":9,"time_out":false,"dwell_time":46.98291015625,"response_time":1700262925713.51},{"trial":8,"action":1,"button_pressed":3,"time_out":false,"dwell_time":31.0458984375,"response_time":1700262926163.3},{"trial":8,"action":9,"button_pressed":-1,"time_out":false,"dwell_time":64.330078125,"response_time":1700262926896.41},{"trial":9,"action":1,"button_pressed":8,"time_out":false,"dwell_time":147.4619140625,"response_time":1700262947423.52},{"trial":9,"action":1,"button_pressed":5,"time_out":false,"dwell_time":113.970947265625,"response_time":1700262949489.28},{"trial":9,"action":1,"button_pressed":6,"time_out":false,"dwell_time":80.510009765625,"response_time":1700262950138.34},{"trial":9,"action":1,"button_pressed":3,"time_out":false,"dwell_time":30.926025390625,"response_time":1700262950521.98},{"trial":9,"action":1,"button_pressed":0,"time_out":false,"dwell_time":30.885986328125,"response_time":1700262954720.64},{"trial":9,"action":1,"button_pressed":7,"time_out":false,"dwell_time":80.955078125,"response_time":1700262955287.16},{"trial":9,"action":1,"button_pressed":11,"time_out":false,"dwell_time":31.280029296875,"response_time":1700262955771.28},{"trial":9,"action":9,"button_pressed":-1,"time_out":false,"dwell_time":65.192138671875,"response_time":1700262957153.87},{"trial":10,"action":1,"button_pressed":9,"time_out":false,"dwell_time":30.5830078125,"response_time":1700262983095},{"trial":10,"action":1,"button_pressed":2,"time_out":false,"dwell_time":31.16796875,"response_time":1700262983728.71},{"trial":10,"action":1,"button_pressed":6,"time_out":false,"dwell_time":96.471923828125,"response_time":1700262984393.99},{"trial":10,"action":1,"button_pressed":3,"time_out":false,"dwell_time":64.031982421875,"response_time":1700262984660.58},{"trial":10,"action":1,"button_pressed":0,"time_out":false,"dwell_time":47.8310546875,"response_time":1700262985027.49},{"trial":10,"action":1,"button_pressed":7,"time_out":false,"dwell_time":62.837890625,"response_time":1700262989608.91},{"trial":10,"action":1,"button_pressed":10,"time_out":false,"dwell_time":47.77880859375,"response_time":1700262990043.28},{"trial":10,"action":9,"button_pressed":-1,"time_out":false,"dwell_time":64.427001953125,"response_time":1700262990842.95}]}