{"meta_data":{"additional_headers":{},"game_name":"Recollect","version":"2.53.01","user_name":"137","organization":"braingamecenter","study":"mpl2_2022_11","session_number":0,"device_id":"74342D95-EE82-45E3-8ADF-48FB3203C5DD"},"data":[{"stage":"Practice","trial":0,"sequence":"6F","letter_input":"F","number_input":"6","is_correct":true,"presentation_start_time":1700263037625.28,"presentation_end_time":1700263040627.54,"response_time":1700263052288.89},{"stage":"Practice","trial":1,"sequence":"G4","letter_input":"G","number_input":"4","is_correct":true,"presentation_start_time":1700263053819.99,"presentation_end_time":1700263056822.35,"response_time":1700263062933.85},{"stage":"Practice","trial":2,"sequence":"3W5","letter_input":"W","number_input":"35","is_correct":true,"presentation_start_time":1700263064466.64,"presentation_end_time":1700263068968.46,"response_time":1700263075046.51},{"stage":"Practice","trial":3,"sequence":"T7L","letter_input":"LT","number_input":"7","is_correct":true,"presentation_start_time":1700263076579.39,"presentation_end_time":1700263081081.16,"response_time":1700263095306.62},{"stage":"Practice","trial":4,"sequence":"9J1","letter_input":"J","number_input":"19","is_correct":true,"presentation_start_time":1700263096839.31,"presentation_end_time":1700263101341.16,"response_time":1700263107136.09},{"stage":"Calibration","trial":0,"sequence":"8P","letter_input":"P","number_input":"8","is_correct":true,"presentation_start_time":1700263118232.39,"presentation_end_time":1700263121234.6,"response_time":1700263126313.23},{"stage":"Calibration","trial":1,"sequence":"E1","letter_input":"E","number_input":"1","is_correct":true,"presentation_start_time":1700263127845.89,"presentation_end_time":1700263130848.25,"response_time":1700263135643.52},{"stage":"Calibration","trial":2,"sequence":"8R6","letter_input":"R","number_input":"68","is_correct":true,"presentation_start_time":1700263137176.22,"presentation_end_time":1700263141678.17,"response_time":1700263146673.2},{"stage":"Calibration","trial":3,"sequence":"K1A","letter_input":"AK","number_input":"1","is_correct":true,"presentation_start_time":1700263148205.96,"presentation_end_time":1700263152707.78,"response_time":1700263156670.06},{"stage":"Calibration","trial":4,"sequence":"9S5E","letter_input":"ES","number_input":"59","is_correct":true,"presentation_start_time":1700263158202.81,"presentation_end_time":1700263164204.05,"response_time":1700263173647.96},{"stage":"Calibration","trial":5,"sequence":"P7G4","letter_input":"GP","number_input":"47","is_correct":true,"presentation_start_time":1700263175180.54,"presentation_end_time":1700263181181.84,"response_time":1700263189092.79},{"stage":"Calibration","trial":6,"sequence":"9T5A2","letter_input":"AP","number_input":"259","is_correct":false,"presentation_start_time":1700263190625.45,"presentation_end_time":1700263198126.31,"response_time":1700263213001.68},{"stage":"Calibration","trial":7,"sequence":"G8D6B","letter_input":"GPS","number_input":"68","is_correct":false,"presentation_start_time":1700263214534.42,"presentation_end_time":1700263222035.15,"response_time":1700263250356.17}]}