{"meta_data":{"additional_headers":{},"game_name":"Recollect","version":"2.53.01","user_name":"138","organization":"braingamecenter","study":"mpl2_2022_11","session_number":0,"device_id":"74342D95-EE82-45E3-8ADF-48FB3203C5DD"},"data":[{"stage":"Practice","trial":0,"sequence":"6F","letter_input":"F","number_input":"6","is_correct":true,"presentation_start_time":1700523679674.2,"presentation_end_time":1700523682676.5,"response_time":1700523688622.84},{"stage":"Practice","trial":1,"sequence":"G4","letter_input":"G","number_input":"4","is_correct":true,"presentation_start_time":1700523690154.12,"presentation_end_time":1700523693156.46,"response_time":1700523698034.94},{"stage":"Practice","trial":2,"sequence":"3W5","letter_input":"W","number_input":"35","is_correct":true,"presentation_start_time":1700523699567.7,"presentation_end_time":1700523704069.48,"response_time":1700523712846.74},{"stage":"Practice","trial":3,"sequence":"T7L","letter_input":"LT","number_input":"7","is_correct":true,"presentation_start_time":1700523714379.49,"presentation_end_time":1700523718881.18,"response_time":1700523726842.15},{"stage":"Practice","trial":4,"sequence":"9J1","letter_input":"J","number_input":"19","is_correct":true,"presentation_start_time":1700523728374.86,"presentation_end_time":1700523732876.63,"response_time":1700523738305.07},{"stage":"Calibration","trial":0,"sequence":"4C","letter_input":"C","number_input":"4","is_correct":true,"presentation_start_time":1700523751583.87,"presentation_end_time":1700523754586.07,"response_time":1700523758465.05},{"stage":"Calibration","trial":1,"sequence":"K9","letter_input":"K","number_input":"9","is_correct":true,"presentation_start_time":1700523759997.76,"presentation_end_time":1700523763000.27,"response_time":1700523767012.25},{"stage":"Calibration","trial":2,"sequence":"3B1","letter_input":"B","number_input":"13","is_correct":true,"presentation_start_time":1700523768544.97,"presentation_end_time":1700523773046.77,"response_time":1700523778641.66},{"stage":"Calibration","trial":3,"sequence":"P6N","letter_input":"NP","number_input":"6","is_correct":true,"presentation_start_time":1700523780174.43,"presentation_end_time":1700523784676.24,"response_time":1700523793237},{"stage":"Calibration","trial":4,"sequence":"9W1F","letter_input":"F","number_input":"19","is_correct":false,"presentation_start_time":1700523794769.65,"presentation_end_time":1700523800771.09,"response_time":1700523807282.33},{"stage":"Calibration","trial":5,"sequence":"H8D5","letter_input":"DH","number_input":"58","is_correct":true,"presentation_start_time":1700523808815.05,"presentation_end_time":1700523814816.49,"response_time":1700523822560.58},{"stage":"Calibration","trial":6,"sequence":"1W9S3","letter_input":"SW","number_input":"19","is_correct":false,"presentation_start_time":1700523824093.35,"presentation_end_time":1700523831594.19,"response_time":1700523842254.12},{"stage":"Calibration","trial":7,"sequence":"B8V4G","letter_input":"VG","number_input":"48","is_correct":false,"presentation_start_time":1700523843786.9,"presentation_end_time":1700523851287.68,"response_time":1700523864280.19}]}