{"meta_data":{"additional_headers":{},"game_name":"Recollect","version":"2.53.01","user_name":"138","organization":"braingamecenter","study":"mpl2_2022_11","session_number":0,"device_id":"74342D95-EE82-45E3-8ADF-48FB3203C5DD"},"data":[{"trial":0,"action":1,"button_pressed":1,"time_out":false,"dwell_time":47.23583984375,"response_time":1700523432057.76},{"trial":0,"action":1,"button_pressed":5,"time_out":false,"dwell_time":80.52294921875,"response_time":1700523432373.73},{"trial":0,"action":9,"button_pressed":-1,"time_out":false,"dwell_time":91.701171875,"response_time":1700523433267.76},{"trial":1,"action":1,"button_pressed":10,"time_out":false,"dwell_time":64.22509765625,"response_time":1700523442720.45},{"trial":1,"action":1,"button_pressed":0,"time_out":false,"dwell_time":80.701171875,"response_time":1700523443237.54},{"trial":1,"action":1,"button_pressed":6,"time_out":false,"dwell_time":46.8349609375,"response_time":1700523443720.46},{"trial":1,"action":9,"button_pressed":-1,"time_out":false,"dwell_time":80.85302734375,"response_time":1700523444287.35},{"trial":2,"action":1,"button_pressed":8,"time_out":false,"dwell_time":63.2509765625,"response_time":1700523456315.88},{"trial":2,"action":1,"button_pressed":1,"time_out":false,"dwell_time":80.744140625,"response_time":1700523456715.76},{"trial":2,"action":1,"button_pressed":3,"time_out":false,"dwell_time":80.68701171875,"response_time":1700523457182.95},{"trial":2,"action":1,"button_pressed":11,"time_out":false,"dwell_time":47.05908203125,"response_time":1700523457482.72},{"trial":2,"action":9,"button_pressed":-1,"time_out":false,"dwell_time":97.730224609375,"response_time":1700523458248.94},{"trial":3,"action":1,"button_pressed":9,"time_out":false,"dwell_time":63.383056640625,"response_time":1700523472793.82},{"trial":3,"action":1,"button_pressed":0,"time_out":false,"dwell_time":80.576171875,"response_time":1700523473344.22},{"trial":3,"action":1,"button_pressed":2,"time_out":false,"dwell_time":114.31689453125,"response_time":1700523473760.39},{"trial":3,"action":1,"button_pressed":1,"time_out":false,"dwell_time":114.6728515625,"response_time":1700523474210.67},{"trial":3,"action":1,"button_pressed":6,"time_out":false,"dwell_time":63.553955078125,"response_time":1700523474427.23},{"trial":3,"action":9,"button_pressed":-1,"time_out":false,"dwell_time":81.283935546875,"response_time":1700523475060.87},{"trial":4,"action":1,"button_pressed":11,"time_out":false,"dwell_time":64.160888671875,"response_time":1700523492520.7},{"trial":4,"action":1,"button_pressed":8,"time_out":false,"dwell_time":80.467041015625,"response_time":1700523492971.08},{"trial":4,"action":1,"button_pressed":6,"time_out":false,"dwell_time":63.487060546875,"response_time":1700523493420.83},{"trial":4,"action":1,"button_pressed":4,"time_out":false,"dwell_time":79.77490234375,"response_time":1700523493985.94},{"trial":4,"action":1,"button_pressed":1,"time_out":false,"dwell_time":81.470947265625,"response_time":1700523495070.47},{"trial":4,"action":1,"button_pressed":10,"time_out":false,"dwell_time":46.954833984375,"response_time":1700523495370.07},{"trial":4,"action":9,"button_pressed":-1,"time_out":false,"dwell_time":97.906005859375,"response_time":1700523496503.92},{"trial":5,"action":1,"button_pressed":10,"time_out":false,"dwell_time":81.48388671875,"response_time":1700523516780.06},{"trial":5,"action":1,"button_pressed":1,"time_out":false,"dwell_time":114.444091796875,"response_time":1700523517213.54},{"trial":5,"action":1,"button_pressed":2,"time_out":false,"dwell_time":64.01904296875,"response_time":1700523517545.6},{"trial":5,"action":1,"button_pressed":7,"time_out":false,"dwell_time":46.916015625,"response_time":1700523517979.3},{"trial":5,"action":1,"button_pressed":6,"time_out":false,"dwell_time":81.2529296875,"response_time":1700523518979.38},{"trial":5,"action":1,"button_pressed":0,"time_out":false,"dwell_time":80.63916015625,"response_time":1700523519729.03},{"trial":5,"action":1,"button_pressed":3,"time_out":false,"dwell_time":47.796875,"response_time":1700523520845.75},{"trial":5,"action":1,"button_pressed":4,"time_out":false,"dwell_time":46.971923828125,"response_time":1700523521444.9},{"trial":5,"action":9,"button_pressed":-1,"time_out":false,"dwell_time":65.30712890625,"response_time":1700523522062.16},{"trial":6,"action":1,"button_pressed":9,"time_out":false,"dwell_time":114.131103515625,"response_time":1700523542121.1},{"trial":6,"action":1,"button_pressed":7,"time_out":false,"dwell_time":96.677978515625,"response_time":1700523542471.08},{"trial":6,"action":1,"button_pressed":4,"time_out":false,"dwell_time":131.387939453125,"response_time":1700523543021.34},{"trial":6,"action":1,"button_pressed":1,"time_out":false,"dwell_time":114.066162109375,"response_time":1700523543503.9},{"trial":6,"action":1,"button_pressed":11,"time_out":false,"dwell_time":63.989990234375,"response_time":1700523544037.54},{"trial":6,"action":1,"button_pressed":6,"time_out":false,"dwell_time":80.239013671875,"response_time":1700523544936.61},{"trial":6,"action":1,"button_pressed":8,"time_out":false,"dwell_time":97.197998046875,"response_time":1700523545553.18},{"trial":6,"action":9,"button_pressed":-1,"time_out":false,"dwell_time":64.301025390625,"response_time":1700523546287.24},{"trial":7,"action":1,"button_pressed":3,"time_out":false,"dwell_time":98.0810546875,"response_time":1700523568662.72},{"trial":7,"action":1,"button_pressed":1,"time_out":false,"dwell_time":97.4541015625,"response_time":1700523568895.59},{"trial":7,"action":1,"button_pressed":8,"time_out":false,"dwell_time":62.9501953125,"response_time":1700523569295.22},{"trial":7,"action":1,"button_pressed":5,"time_out":false,"dwell_time":113.43505859375,"response_time":1700523569645.35},{"trial":7,"action":1,"button_pressed":7,"time_out":false,"dwell_time":80.748779296875,"response_time":1700523569896.07},{"trial":7,"action":1,"button_pressed":0,"time_out":false,"dwell_time":97.342041015625,"response_time":1700523570229.04},{"trial":7,"action":1,"button_pressed":6,"time_out":false,"dwell_time":97.860107421875,"response_time":1700523571795.2},{"trial":7,"action":1,"button_pressed":6,"time_out":false,"dwell_time":80.31298828125,"response_time":1700523573511.24},{"trial":7,"action":1,"button_pressed":6,"time_out":false,"dwell_time":47.760009765625,"response_time":1700523575294.52},{"trial":7,"action":1,"button_pressed":10,"time_out":false,"dwell_time":47.661865234375,"response_time":1700523575960.86},{"trial":7,"action":9,"button_pressed":-1,"time_out":false,"dwell_time":16.80810546875,"response_time":1700523577926.1},{"trial":8,"action":1,"button_pressed":4,"time_out":false,"dwell_time":97.422119140625,"response_time":1700523601852.04},{"trial":8,"action":1,"button_pressed":4,"time_out":false,"dwell_time":63.6298828125,"response_time":1700523602817.89},{"trial":8,"action":0,"button_pressed":-1,"time_out":false,"dwell_time":63.507080078125,"response_time":1700523604167.31},{"trial":8,"action":1,"button_pressed":2,"time_out":false,"dwell_time":114.548828125,"response_time":1700523605000.83},{"trial":8,"action":1,"button_pressed":4,"time_out":false,"dwell_time":97.224853515625,"response_time":1700523605434.05},{"trial":8,"action":1,"button_pressed":11,"time_out":false,"dwell_time":80.518798828125,"response_time":1700523605866.54},{"trial":8,"action":1,"button_pressed":5,"time_out":false,"dwell_time":97.26904296875,"response_time":1700523606999.56},{"trial":8,"action":1,"button_pressed":0,"time_out":false,"dwell_time":80.37890625,"response_time":1700523607566.52},{"trial":8,"action":1,"button_pressed":10,"time_out":false,"dwell_time":79.6689453125,"response_time":1700523608199.22},{"trial":8,"action":1,"button_pressed":8,"time_out":false,"dwell_time":80.56396484375,"response_time":1700523608599.03},{"trial":8,"action":1,"button_pressed":3,"time_out":false,"dwell_time":64.069091796875,"response_time":1700523609032.94},{"trial":8,"action":9,"button_pressed":-1,"time_out":false,"dwell_time":81.509033203125,"response_time":1700523609783.38},{"trial":9,"action":1,"button_pressed":0,"time_out":false,"dwell_time":98.4599609375,"response_time":1700523627260.41},{"trial":9,"action":1,"button_pressed":4,"time_out":false,"dwell_time":96.544921875,"response_time":1700523627709.39},{"trial":9,"action":1,"button_pressed":3,"time_out":false,"dwell_time":81.322021484375,"response_time":1700523628343.13},{"trial":9,"action":1,"button_pressed":11,"time_out":false,"dwell_time":64.56103515625,"response_time":1700523628709.7},{"trial":9,"action":1,"button_pressed":5,"time_out":false,"dwell_time":97.656982421875,"response_time":1700523629226.24},{"trial":9,"action":1,"button_pressed":7,"time_out":false,"dwell_time":96.510986328125,"response_time":1700523629625.53},{"trial":9,"action":9,"button_pressed":-1,"time_out":false,"dwell_time":63.6298828125,"response_time":1700523630192.27},{"trial":10,"action":1,"button_pressed":3,"time_out":false,"dwell_time":97.451904296875,"response_time":1700523647403.72},{"trial":10,"action":1,"button_pressed":4,"time_out":false,"dwell_time":47.138916015625,"response_time":1700523647786.59},{"trial":10,"action":1,"button_pressed":7,"time_out":false,"dwell_time":96.991943359375,"response_time":1700523648185.93},{"trial":10,"action":1,"button_pressed":10,"time_out":false,"dwell_time":97.7099609375,"response_time":1700523648519.85},{"trial":10,"action":1,"button_pressed":2,"time_out":false,"dwell_time":114.02099609375,"response_time":1700523648952.39},{"trial":10,"action":1,"button_pressed":9,"time_out":false,"dwell_time":47.68701171875,"response_time":1700523649402.72},{"trial":10,"action":9,"button_pressed":-1,"time_out":false,"dwell_time":65.2119140625,"response_time":1700523650136.41}]}