{"meta_data":{"additional_headers":{},"game_name":"Recollect","version":"2.53.01","user_name":"139","organization":"braingamecenter","study":"mpl2_2022_11","session_number":0,"device_id":"74342D95-EE82-45E3-8ADF-48FB3203C5DD"},"data":[{"trial":0,"action":1,"button_pressed":8,"time_out":false,"dwell_time":63.766845703125,"response_time":1701128082249.5},{"trial":0,"action":1,"button_pressed":0,"time_out":false,"dwell_time":64.71484375,"response_time":1701128082749.26},{"trial":0,"action":9,"button_pressed":-1,"time_out":false,"dwell_time":75.159912109375,"response_time":1701128083493.51},{"trial":1,"action":1,"button_pressed":2,"time_out":false,"dwell_time":64.924072265625,"response_time":1701128093095.97},{"trial":1,"action":1,"button_pressed":4,"time_out":false,"dwell_time":63.91796875,"response_time":1701128093561.68},{"trial":1,"action":1,"button_pressed":1,"time_out":false,"dwell_time":47.07421875,"response_time":1701128094078.59},{"trial":1,"action":9,"button_pressed":-1,"time_out":false,"dwell_time":64.613037109375,"response_time":1701128094695.8},{"trial":2,"action":1,"button_pressed":9,"time_out":false,"dwell_time":63.356201171875,"response_time":1701128107007.36},{"trial":2,"action":1,"button_pressed":11,"time_out":false,"dwell_time":81.26513671875,"response_time":1701128107574.42},{"trial":2,"action":1,"button_pressed":8,"time_out":false,"dwell_time":80.548828125,"response_time":1701128108256.91},{"trial":2,"action":1,"button_pressed":0,"time_out":false,"dwell_time":63.1728515625,"response_time":1701128108856.52},{"trial":2,"action":9,"button_pressed":-1,"time_out":false,"dwell_time":81.16015625,"response_time":1701128109406.89},{"trial":3,"action":1,"button_pressed":2,"time_out":false,"dwell_time":80.818115234375,"response_time":1701128124085.08},{"trial":3,"action":1,"button_pressed":6,"time_out":false,"dwell_time":97.697021484375,"response_time":1701128124768.7},{"trial":3,"action":1,"button_pressed":7,"time_out":false,"dwell_time":62.922119140625,"response_time":1701128125168.6},{"trial":3,"action":1,"button_pressed":0,"time_out":false,"dwell_time":63.781982421875,"response_time":1701128125767.72},{"trial":3,"action":1,"button_pressed":8,"time_out":false,"dwell_time":79.911865234375,"response_time":1701128126333.58},{"trial":3,"action":9,"button_pressed":-1,"time_out":false,"dwell_time":16.489013671875,"response_time":1701128128383.61},{"trial":4,"action":1,"button_pressed":5,"time_out":false,"dwell_time":96.763916015625,"response_time":1701128145594.62},{"trial":4,"action":1,"button_pressed":10,"time_out":false,"dwell_time":97.266845703125,"response_time":1701128146211.79},{"trial":4,"action":1,"button_pressed":7,"time_out":false,"dwell_time":63.216064453125,"response_time":1701128146794.17},{"trial":4,"action":1,"button_pressed":4,"time_out":false,"dwell_time":63.150146484375,"response_time":1701128147377.23},{"trial":4,"action":1,"button_pressed":0,"time_out":false,"dwell_time":98.070068359375,"response_time":1701128147911.05},{"trial":4,"action":1,"button_pressed":8,"time_out":false,"dwell_time":63.080810546875,"response_time":1701128148426.9},{"trial":4,"action":9,"button_pressed":-1,"time_out":false,"dwell_time":48.3369140625,"response_time":1701128149078.31},{"trial":5,"action":1,"button_pressed":11,"time_out":false,"dwell_time":32.156005859375,"response_time":1701128169204.75},{"trial":5,"action":1,"button_pressed":3,"time_out":false,"dwell_time":114.828857421875,"response_time":1701128173985.93},{"trial":5,"action":1,"button_pressed":10,"time_out":false,"dwell_time":114.718994140625,"response_time":1701128175235.47},{"trial":5,"action":1,"button_pressed":4,"time_out":false,"dwell_time":96.6220703125,"response_time":1701128175951.27},{"trial":5,"action":1,"button_pressed":1,"time_out":false,"dwell_time":64.02001953125,"response_time":1701128176717.64},{"trial":5,"action":1,"button_pressed":2,"time_out":false,"dwell_time":96.53076171875,"response_time":1701128177467.39},{"trial":5,"action":1,"button_pressed":8,"time_out":false,"dwell_time":97.85693359375,"response_time":1701128177984.49},{"trial":5,"action":9,"button_pressed":-1,"time_out":false,"dwell_time":80.4541015625,"response_time":1701128178784.01},{"trial":6,"action":1,"button_pressed":5,"time_out":false,"dwell_time":113.338134765625,"response_time":1701128200326.61},{"trial":6,"action":1,"button_pressed":3,"time_out":false,"dwell_time":97.284912109375,"response_time":1701128201593.49},{"trial":6,"action":1,"button_pressed":11,"time_out":false,"dwell_time":81.427978515625,"response_time":1701128202193.49},{"trial":6,"action":1,"button_pressed":4,"time_out":false,"dwell_time":81.35498046875,"response_time":1701128202809.76},{"trial":6,"action":1,"button_pressed":7,"time_out":false,"dwell_time":98.012939453125,"response_time":1701128203559.6},{"trial":6,"action":1,"button_pressed":10,"time_out":false,"dwell_time":81.236083984375,"response_time":1701128204559.28},{"trial":6,"action":1,"button_pressed":4,"time_out":false,"dwell_time":46.9169921875,"response_time":1701128205875.03},{"trial":6,"action":1,"button_pressed":8,"time_out":false,"dwell_time":79.74609375,"response_time":1701128208390.49},{"trial":6,"action":9,"button_pressed":-1,"time_out":false,"dwell_time":81.13623046875,"response_time":1701128209191.35},{"trial":7,"action":1,"button_pressed":3,"time_out":false,"dwell_time":63.52490234375,"response_time":1701128224185.34},{"trial":7,"action":1,"button_pressed":6,"time_out":false,"dwell_time":63.18896484375,"response_time":1701128226717.82},{"trial":7,"action":1,"button_pressed":8,"time_out":false,"dwell_time":97.18701171875,"response_time":1701128227534.91},{"trial":7,"action":1,"button_pressed":11,"time_out":false,"dwell_time":63.678955078125,"response_time":1701128233199.5},{"trial":7,"action":1,"button_pressed":0,"time_out":false,"dwell_time":97.8359375,"response_time":1701128233749.41},{"trial":7,"action":9,"button_pressed":-1,"time_out":false,"dwell_time":48.93701171875,"response_time":1701128234600.13},{"trial":8,"action":1,"button_pressed":5,"time_out":false,"dwell_time":47.39697265625,"response_time":1701128249410.91},{"trial":8,"action":1,"button_pressed":9,"time_out":false,"dwell_time":63.822998046875,"response_time":1701128249894.08},{"trial":8,"action":1,"button_pressed":6,"time_out":false,"dwell_time":64.473876953125,"response_time":1701128250260.68},{"trial":8,"action":1,"button_pressed":8,"time_out":false,"dwell_time":80.39697265625,"response_time":1701128250727.17},{"trial":8,"action":1,"button_pressed":7,"time_out":false,"dwell_time":48.412841796875,"response_time":1701128251244.14},{"trial":8,"action":9,"button_pressed":-1,"time_out":false,"dwell_time":47.505859375,"response_time":1701128251860.27},{"trial":9,"action":1,"button_pressed":0,"time_out":false,"dwell_time":47.3759765625,"response_time":1701128269171.05},{"trial":9,"action":1,"button_pressed":4,"time_out":false,"dwell_time":81.343994140625,"response_time":1701128269504.32},{"trial":9,"action":1,"button_pressed":11,"time_out":false,"dwell_time":47.464111328125,"response_time":1701128269938.02},{"trial":9,"action":1,"button_pressed":3,"time_out":false,"dwell_time":30.37890625,"response_time":1701128270353.71},{"trial":9,"action":1,"button_pressed":5,"time_out":false,"dwell_time":64.614013671875,"response_time":1701128270820.45},{"trial":9,"action":1,"button_pressed":7,"time_out":false,"dwell_time":64.66796875,"response_time":1701128271320.58},{"trial":9,"action":9,"button_pressed":-1,"time_out":false,"dwell_time":82.2548828125,"response_time":1701128271970.93},{"trial":10,"action":1,"button_pressed":9,"time_out":false,"dwell_time":98.163818359375,"response_time":1701128291863.82},{"trial":10,"action":1,"button_pressed":7,"time_out":false,"dwell_time":30.93798828125,"response_time":1701128292297.3},{"trial":10,"action":1,"button_pressed":4,"time_out":false,"dwell_time":79.886962890625,"response_time":1701128292895.84},{"trial":10,"action":1,"button_pressed":1,"time_out":false,"dwell_time":97.406982421875,"response_time":1701128293496.45},{"trial":10,"action":1,"button_pressed":11,"time_out":false,"dwell_time":98.044189453125,"response_time":1701128294046.3},{"trial":10,"action":1,"button_pressed":6,"time_out":false,"dwell_time":80.39404296875,"response_time":1701128294528.78},{"trial":10,"action":1,"button_pressed":8,"time_out":false,"dwell_time":30.010009765625,"response_time":1701128295028.98},{"trial":10,"action":9,"button_pressed":-1,"time_out":false,"dwell_time":65.112060546875,"response_time":1701128295579.6},{"trial":11,"action":1,"button_pressed":2,"time_out":false,"dwell_time":80.783935546875,"response_time":1701128318121.16},{"trial":11,"action":1,"button_pressed":4,"time_out":false,"dwell_time":64.2119140625,"response_time":1701128318570.94},{"trial":11,"action":1,"button_pressed":11,"time_out":false,"dwell_time":47.099853515625,"response_time":1701128319104.54},{"trial":11,"action":1,"button_pressed":6,"time_out":false,"dwell_time":63.798095703125,"response_time":1701128319587.85},{"trial":11,"action":1,"button_pressed":5,"time_out":false,"dwell_time":63.10205078125,"response_time":1701128320153.66},{"trial":11,"action":1,"button_pressed":0,"time_out":false,"dwell_time":63.79296875,"response_time":1701128320670.02},{"trial":11,"action":1,"button_pressed":10,"time_out":false,"dwell_time":63.6259765625,"response_time":1701128321137.26},{"trial":11,"action":1,"button_pressed":3,"time_out":false,"dwell_time":64.10693359375,"response_time":1701128321569.85},{"trial":11,"action":9,"button_pressed":-1,"time_out":false,"dwell_time":48.431884765625,"response_time":1701128322071.27},{"trial":12,"action":1,"button_pressed":6,"time_out":false,"dwell_time":113.281982421875,"response_time":1701128347311.36},{"trial":12,"action":1,"button_pressed":7,"time_out":false,"dwell_time":79.822021484375,"response_time":1701128347994.34},{"trial":12,"action":1,"button_pressed":8,"time_out":false,"dwell_time":113.891845703125,"response_time":1701128348878.2},{"trial":12,"action":1,"button_pressed":10,"time_out":false,"dwell_time":113.826904296875,"response_time":1701128349827.08},{"trial":12,"action":1,"button_pressed":4,"time_out":false,"dwell_time":81.4189453125,"response_time":1701128350794.02},{"trial":12,"action":1,"button_pressed":1,"time_out":false,"dwell_time":80.797119140625,"response_time":1701128351877.23},{"trial":12,"action":1,"button_pressed":11,"time_out":false,"dwell_time":13.43701171875,"response_time":1701128353876.13},{"trial":12,"action":1,"button_pressed":0,"time_out":false,"dwell_time":63.966796875,"response_time":1701128355825.77},{"trial":12,"action":1,"button_pressed":5,"time_out":false,"dwell_time":97.10498046875,"response_time":1701128356192.31},{"trial":12,"action":9,"button_pressed":-1,"time_out":false,"dwell_time":17.80615234375,"response_time":1701128356742.96},{"trial":13,"action":1,"button_pressed":5,"time_out":false,"dwell_time":80.92822265625,"response_time":1701128381667.43},{"trial":13,"action":1,"button_pressed":11,"time_out":false,"dwell_time":97.205078125,"response_time":1701128382367.01},{"trial":13,"action":1,"button_pressed":3,"time_out":false,"dwell_time":64.075927734375,"response_time":1701128383199.35},{"trial":13,"action":1,"button_pressed":4,"time_out":false,"dwell_time":63.06103515625,"response_time":1701128383815.75},{"trial":13,"action":1,"button_pressed":7,"time_out":false,"dwell_time":97.446044921875,"response_time":1701128384549.08},{"trial":13,"action":1,"button_pressed":8,"time_out":false,"dwell_time":97.15185546875,"response_time":1701128385332.79},{"trial":13,"action":1,"button_pressed":0,"time_out":false,"dwell_time":79.81494140625,"response_time":1701128390746.89},{"trial":13,"action":1,"button_pressed":9,"time_out":false,"dwell_time":63.96484375,"response_time":1701128392179.82},{"trial":13,"action":1,"button_pressed":2,"time_out":false,"dwell_time":80.673095703125,"response_time":1701128393012.8},{"trial":13,"action":1,"button_pressed":10,"time_out":false,"dwell_time":98.010986328125,"response_time":1701128394246.51},{"trial":13,"action":9,"button_pressed":-1,"time_out":false,"dwell_time":65.494873046875,"response_time":1701128394913.71}]}