{"meta_data":{"additional_headers":{},"game_name":"Recollect","version":"2.53.01","user_name":"13","organization":"braingamecenter","study":"mpl2_2022_11","session_number":0,"device_id":"74342D95-EE82-45E3-8ADF-48FB3203C5DD"},"data":[{"stage":"Practice","trial":0,"sequence":"6F","letter_input":"F","number_input":"6","is_correct":true,"presentation_start_time":1676053252161.86,"presentation_end_time":1676053255162.04,"response_time":1676053262195.06},{"stage":"Practice","trial":1,"sequence":"G4","letter_input":"G","number_input":"4","is_correct":true,"presentation_start_time":1676053263724.63,"presentation_end_time":1676053266724.82,"response_time":1676053271955.33},{"stage":"Practice","trial":2,"sequence":"3W5","letter_input":"W","number_input":"35","is_correct":true,"presentation_start_time":1676053273488,"presentation_end_time":1676053277987.59,"response_time":1676053282651.72},{"stage":"Practice","trial":3,"sequence":"T7L","letter_input":"LT","number_input":"7","is_correct":true,"presentation_start_time":1676053284184.45,"presentation_end_time":1676053288684.14,"response_time":1676053295364.1},{"stage":"Practice","trial":4,"sequence":"9J1","letter_input":"J","number_input":"19","is_correct":true,"presentation_start_time":1676053296896.83,"presentation_end_time":1676053301396.67,"response_time":1676053305710.65},{"stage":"Calibration","trial":0,"sequence":"9A","letter_input":"A","number_input":"9","is_correct":true,"presentation_start_time":1676053313957.81,"presentation_end_time":1676053316957.97,"response_time":1676053321571.99},{"stage":"Calibration","trial":1,"sequence":"T1","letter_input":"T","number_input":"1","is_correct":true,"presentation_start_time":1676053323104.71,"presentation_end_time":1676053326105.18,"response_time":1676053330185.74},{"stage":"Calibration","trial":2,"sequence":"8S3","letter_input":"S","number_input":"38","is_correct":true,"presentation_start_time":1676053331718.47,"presentation_end_time":1676053336218.1,"response_time":1676053340598.92},{"stage":"Calibration","trial":3,"sequence":"Y2R","letter_input":"RY","number_input":"2","is_correct":true,"presentation_start_time":1676053342131.61,"presentation_end_time":1676053346631.44,"response_time":1676053352578.21},{"stage":"Calibration","trial":4,"sequence":"9H7C","letter_input":"CH","number_input":"79","is_correct":true,"presentation_start_time":1676053354110.94,"presentation_end_time":1676053360110.14,"response_time":1676053370555.51},{"stage":"Calibration","trial":5,"sequence":"K4D1","letter_input":"DK","number_input":"14","is_correct":true,"presentation_start_time":1676053372088.26,"presentation_end_time":1676053378087.43,"response_time":1676053386017.07},{"stage":"Calibration","trial":6,"sequence":"9W5J2","letter_input":"JW","number_input":"259","is_correct":true,"presentation_start_time":1676053387549.75,"presentation_end_time":1676053395048.38,"response_time":1676053420138.96},{"stage":"Calibration","trial":7,"sequence":"A6S1P","letter_input":"APS","number_input":"16","is_correct":true,"presentation_start_time":1676053421671.65,"presentation_end_time":1676053429170.36,"response_time":1676053451145.18},{"stage":"Calibration","trial":8,"sequence":"7J2Q9M","letter_input":"JMQ","number_input":"279","is_correct":true,"presentation_start_time":1676053452677.86,"presentation_end_time":1676053461676.01,"response_time":1676053494880.45},{"stage":"Calibration","trial":9,"sequence":"D6B4N1","letter_input":"BDN","number_input":"146","is_correct":true,"presentation_start_time":1676053496413.23,"presentation_end_time":1676053505411.33,"response_time":1676053530535.22},{"stage":"Calibration","trial":10,"sequence":"5E2Y9H7","letter_input":"EH","number_input":"2579","is_correct":false,"presentation_start_time":1676053532067.85,"presentation_end_time":1676053542565.62,"response_time":1676053573020.95},{"stage":"Calibration","trial":11,"sequence":"P3N8S6B","letter_input":"NPP","number_input":"368","is_correct":false,"presentation_start_time":1676053574553.71,"presentation_end_time":1676053585051.39,"response_time":1676053638948.74}]}