{"meta_data":{"additional_headers":{},"game_name":"Recollect","version":"2.53.01","user_name":"140","organization":"braingamecenter","study":"mpl2_2022_11","session_number":0,"device_id":"74342D95-EE82-45E3-8ADF-48FB3203C5DD"},"data":[{"stage":"Practice","trial":0,"sequence":"6F","letter_input":"F","number_input":"6","is_correct":true,"presentation_start_time":1701196472941.34,"presentation_end_time":1701196475943.8,"response_time":1701196483008.03},{"stage":"Practice","trial":1,"sequence":"G4","letter_input":"G","number_input":"4","is_correct":true,"presentation_start_time":1701196484537.7,"presentation_end_time":1701196487540.13,"response_time":1701196495001.1},{"stage":"Practice","trial":2,"sequence":"3W5","letter_input":"W","number_input":"35","is_correct":true,"presentation_start_time":1701196496533.82,"presentation_end_time":1701196501035.68,"response_time":1701196508630.04},{"stage":"Practice","trial":3,"sequence":"T7L","letter_input":"LT","number_input":"7","is_correct":true,"presentation_start_time":1701196510162.85,"presentation_end_time":1701196514662.47,"response_time":1701196520409.72},{"stage":"Practice","trial":4,"sequence":"9J1","letter_input":"J","number_input":"19","is_correct":true,"presentation_start_time":1701196521942.4,"presentation_end_time":1701196526444.4,"response_time":1701196530189.86},{"stage":"Calibration","trial":0,"sequence":"5F","letter_input":"F","number_input":"5","is_correct":true,"presentation_start_time":1701196543085.69,"presentation_end_time":1701196546087.99,"response_time":1701196550283.45},{"stage":"Calibration","trial":1,"sequence":"N8","letter_input":"N","number_input":"8","is_correct":true,"presentation_start_time":1701196551816.28,"presentation_end_time":1701196554818.49,"response_time":1701196559313.97},{"stage":"Calibration","trial":2,"sequence":"6R4","letter_input":"R","number_input":"46","is_correct":true,"presentation_start_time":1701196560846.8,"presentation_end_time":1701196565348.64,"response_time":1701196569277.5},{"stage":"Calibration","trial":3,"sequence":"P1L","letter_input":"LP","number_input":"1","is_correct":true,"presentation_start_time":1701196570810.14,"presentation_end_time":1701196575312.21,"response_time":1701196587221.65},{"stage":"Calibration","trial":4,"sequence":"9H7D","letter_input":"DH","number_input":"79","is_correct":true,"presentation_start_time":1701196588754.43,"presentation_end_time":1701196594755.88,"response_time":1701196600067.64},{"stage":"Calibration","trial":5,"sequence":"Y8F6","letter_input":"YD","number_input":"98","is_correct":false,"presentation_start_time":1701196601600.39,"presentation_end_time":1701196607601.89,"response_time":1701196620427.87},{"stage":"Calibration","trial":6,"sequence":"7Z5V3","letter_input":"YZ","number_input":"357","is_correct":false,"presentation_start_time":1701196621960.53,"presentation_end_time":1701196629461.37,"response_time":1701196643620.38},{"stage":"Calibration","trial":7,"sequence":"D8B1T","letter_input":"BDT","number_input":"18","is_correct":true,"presentation_start_time":1701196645153.15,"presentation_end_time":1701196652654.01,"response_time":1701196667512.87},{"stage":"Calibration","trial":8,"sequence":"3A9N5E","letter_input":"ABN","number_input":"359","is_correct":false,"presentation_start_time":1701196669045.61,"presentation_end_time":1701196678046.12,"response_time":1701196706117.24},{"stage":"Calibration","trial":9,"sequence":"D2P6M4","letter_input":"MNP","number_input":"246","is_correct":false,"presentation_start_time":1701196707649.97,"presentation_end_time":1701196716650.37,"response_time":1701196747637.26}]}