{"meta_data":{"additional_headers":{},"game_name":"Recollect","version":"2.53.01","user_name":"140","organization":"braingamecenter","study":"mpl2_2022_11","session_number":0,"device_id":"74342D95-EE82-45E3-8ADF-48FB3203C5DD"},"data":[{"trial":0,"action":1,"button_pressed":8,"time_out":false,"dwell_time":63.52587890625,"response_time":1701196201495.92},{"trial":0,"action":1,"button_pressed":0,"time_out":false,"dwell_time":63.98095703125,"response_time":1701196202028.88},{"trial":0,"action":9,"button_pressed":-1,"time_out":false,"dwell_time":74.873046875,"response_time":1701196202390.21},{"trial":1,"action":1,"button_pressed":0,"time_out":false,"dwell_time":48.18603515625,"response_time":1701196211760.5},{"trial":1,"action":1,"button_pressed":10,"time_out":false,"dwell_time":47.7880859375,"response_time":1701196212376},{"trial":1,"action":1,"button_pressed":11,"time_out":false,"dwell_time":63.193115234375,"response_time":1701196213124.54},{"trial":1,"action":9,"button_pressed":-1,"time_out":false,"dwell_time":81.383056640625,"response_time":1701196213975.57},{"trial":2,"action":1,"button_pressed":3,"time_out":false,"dwell_time":63.880859375,"response_time":1701196226604.73},{"trial":2,"action":1,"button_pressed":5,"time_out":false,"dwell_time":80.764892578125,"response_time":1701196228187.94},{"trial":2,"action":1,"button_pressed":9,"time_out":false,"dwell_time":64.1650390625,"response_time":1701196228721.11},{"trial":2,"action":1,"button_pressed":2,"time_out":false,"dwell_time":80.131103515625,"response_time":1701196229170.29},{"trial":2,"action":9,"button_pressed":-1,"time_out":false,"dwell_time":98.050048828125,"response_time":1701196229587.22},{"trial":3,"action":1,"button_pressed":9,"time_out":false,"dwell_time":31.59814453125,"response_time":1701196244149.45},{"trial":3,"action":1,"button_pressed":0,"time_out":false,"dwell_time":98.462890625,"response_time":1701196244599.7},{"trial":3,"action":1,"button_pressed":2,"time_out":false,"dwell_time":64.77197265625,"response_time":1701196244982.47},{"trial":3,"action":1,"button_pressed":1,"time_out":false,"dwell_time":98.296142578125,"response_time":1701196245582.54},{"trial":3,"action":1,"button_pressed":6,"time_out":false,"dwell_time":30.5791015625,"response_time":1701196246182.03},{"trial":3,"action":9,"button_pressed":-1,"time_out":false,"dwell_time":81.315185546875,"response_time":1701196247815.51},{"trial":4,"action":1,"button_pressed":4,"time_out":false,"dwell_time":63.466064453125,"response_time":1701196264825.75},{"trial":4,"action":1,"button_pressed":11,"time_out":false,"dwell_time":64.654052734375,"response_time":1701196265376.05},{"trial":4,"action":1,"button_pressed":0,"time_out":false,"dwell_time":64.69580078125,"response_time":1701196265942.54},{"trial":4,"action":1,"button_pressed":5,"time_out":false,"dwell_time":81.52392578125,"response_time":1701196266459.1},{"trial":4,"action":1,"button_pressed":7,"time_out":false,"dwell_time":64.741943359375,"response_time":1701196267125.56},{"trial":4,"action":1,"button_pressed":8,"time_out":false,"dwell_time":31.281005859375,"response_time":1701196267708.63},{"trial":4,"action":9,"button_pressed":-1,"time_out":false,"dwell_time":64.091064453125,"response_time":1701196268441.63},{"trial":5,"action":1,"button_pressed":8,"time_out":false,"dwell_time":81.015869140625,"response_time":1701196285853.18},{"trial":5,"action":1,"button_pressed":0,"time_out":false,"dwell_time":47.871826171875,"response_time":1701196287252.18},{"trial":5,"action":1,"button_pressed":1,"time_out":false,"dwell_time":80.716064453125,"response_time":1701196287818.31},{"trial":5,"action":1,"button_pressed":9,"time_out":false,"dwell_time":63.341064453125,"response_time":1701196288351.41},{"trial":5,"action":1,"button_pressed":5,"time_out":false,"dwell_time":64.022216796875,"response_time":1701196288935.23},{"trial":5,"action":1,"button_pressed":6,"time_out":false,"dwell_time":47.8291015625,"response_time":1701196289784.73},{"trial":5,"action":9,"button_pressed":-1,"time_out":false,"dwell_time":64.02099609375,"response_time":1701196290984.4},{"trial":6,"action":1,"button_pressed":9,"time_out":false,"dwell_time":49.139892578125,"response_time":1701196303364.71},{"trial":6,"action":1,"button_pressed":11,"time_out":false,"dwell_time":31.348876953125,"response_time":1701196303764.47},{"trial":6,"action":1,"button_pressed":8,"time_out":false,"dwell_time":47.31005859375,"response_time":1701196304313.7},{"trial":6,"action":1,"button_pressed":0,"time_out":false,"dwell_time":64.0869140625,"response_time":1701196304763.02},{"trial":6,"action":9,"button_pressed":-1,"time_out":false,"dwell_time":81.388916015625,"response_time":1701196305264.2},{"trial":7,"action":1,"button_pressed":0,"time_out":false,"dwell_time":65.156005859375,"response_time":1701196319958.86},{"trial":7,"action":1,"button_pressed":7,"time_out":false,"dwell_time":30.239013671875,"response_time":1701196320574.81},{"trial":7,"action":1,"button_pressed":10,"time_out":false,"dwell_time":64.254150390625,"response_time":1701196321108.47},{"trial":7,"action":1,"button_pressed":4,"time_out":false,"dwell_time":79.9248046875,"response_time":1701196321540.99},{"trial":7,"action":1,"button_pressed":1,"time_out":false,"dwell_time":81.4560546875,"response_time":1701196322007.8},{"trial":7,"action":9,"button_pressed":-1,"time_out":false,"dwell_time":64.64013671875,"response_time":1701196322491.15},{"trial":8,"action":1,"button_pressed":11,"time_out":false,"dwell_time":48.177001953125,"response_time":1701196339186.69},{"trial":8,"action":1,"button_pressed":8,"time_out":false,"dwell_time":48.251953125,"response_time":1701196339768.97},{"trial":8,"action":1,"button_pressed":6,"time_out":false,"dwell_time":64.0009765625,"response_time":1701196340301.63},{"trial":8,"action":1,"button_pressed":4,"time_out":false,"dwell_time":64.0048828125,"response_time":1701196340734.66},{"trial":8,"action":1,"button_pressed":1,"time_out":false,"dwell_time":64.01416015625,"response_time":1701196341217.99},{"trial":8,"action":1,"button_pressed":10,"time_out":false,"dwell_time":30.583984375,"response_time":1701196341635.07},{"trial":8,"action":9,"button_pressed":-1,"time_out":false,"dwell_time":98.675048828125,"response_time":1701196342335.56},{"trial":9,"action":1,"button_pressed":10,"time_out":false,"dwell_time":47.511962890625,"response_time":1701196361928.86},{"trial":9,"action":1,"button_pressed":1,"time_out":false,"dwell_time":98.4150390625,"response_time":1701196362529.02},{"trial":9,"action":1,"button_pressed":2,"time_out":false,"dwell_time":63.27490234375,"response_time":1701196363094.48},{"trial":9,"action":1,"button_pressed":7,"time_out":false,"dwell_time":64.241943359375,"response_time":1701196364693.93},{"trial":9,"action":1,"button_pressed":6,"time_out":false,"dwell_time":63.97802734375,"response_time":1701196365177.71},{"trial":9,"action":1,"button_pressed":0,"time_out":false,"dwell_time":63.35888671875,"response_time":1701196365710.26},{"trial":9,"action":1,"button_pressed":4,"time_out":false,"dwell_time":47.746826171875,"response_time":1701196366127.2},{"trial":9,"action":9,"button_pressed":-1,"time_out":false,"dwell_time":81.375,"response_time":1701196366694.33},{"trial":10,"action":1,"button_pressed":5,"time_out":false,"dwell_time":64.43408203125,"response_time":1701196388753.75},{"trial":10,"action":1,"button_pressed":1,"time_out":false,"dwell_time":64.806884765625,"response_time":1701196389469.98},{"trial":10,"action":1,"button_pressed":11,"time_out":false,"dwell_time":30.259033203125,"response_time":1701196390202.83},{"trial":10,"action":1,"button_pressed":10,"time_out":false,"dwell_time":31.322998046875,"response_time":1701196391252.5},{"trial":10,"action":1,"button_pressed":7,"time_out":false,"dwell_time":64.802978515625,"response_time":1701196392119.23},{"trial":10,"action":1,"button_pressed":0,"time_out":false,"dwell_time":63.2490234375,"response_time":1701196393084.81},{"trial":10,"action":1,"button_pressed":4,"time_out":false,"dwell_time":47.975830078125,"response_time":1701196396601.6},{"trial":10,"action":1,"button_pressed":2,"time_out":false,"dwell_time":31.177978515625,"response_time":1701196396900.79},{"trial":10,"action":9,"button_pressed":-1,"time_out":false,"dwell_time":48.35009765625,"response_time":1701196397518.41},{"trial":11,"action":1,"button_pressed":3,"time_out":false,"dwell_time":80.264892578125,"response_time":1701196419476.63},{"trial":11,"action":1,"button_pressed":7,"time_out":false,"dwell_time":47.907958984375,"response_time":1701196420109.9},{"trial":11,"action":1,"button_pressed":11,"time_out":false,"dwell_time":63.294921875,"response_time":1701196420576.05},{"trial":11,"action":1,"button_pressed":9,"time_out":false,"dwell_time":80.79296875,"response_time":1701196420960.01},{"trial":11,"action":1,"button_pressed":0,"time_out":false,"dwell_time":64.7451171875,"response_time":1701196422592.73},{"trial":11,"action":1,"button_pressed":8,"time_out":false,"dwell_time":64.02685546875,"response_time":1701196423208.51},{"trial":11,"action":1,"button_pressed":10,"time_out":false,"dwell_time":64.423095703125,"response_time":1701196423758.72},{"trial":11,"action":1,"button_pressed":1,"time_out":false,"dwell_time":97.825927734375,"response_time":1701196424258.64},{"trial":11,"action":9,"button_pressed":-1,"time_out":false,"dwell_time":47.712890625,"response_time":1701196424708.94}]}