{"meta_data":{"additional_headers":{},"game_name":"Recollect","version":"2.53.01","user_name":"141","organization":"braingamecenter","study":"mpl2_2022_11","session_number":0,"device_id":"74342D95-EE82-45E3-8ADF-48FB3203C5DD"},"data":[{"stage":"Practice","trial":0,"sequence":"6F","letter_input":"F","number_input":"6","is_correct":true,"presentation_start_time":1701288552631.39,"presentation_end_time":1701288555633.67,"response_time":1701288563296.27},{"stage":"Practice","trial":1,"sequence":"G4","letter_input":"G","number_input":"4","is_correct":true,"presentation_start_time":1701288564827.35,"presentation_end_time":1701288567829.82,"response_time":1701288572708.24},{"stage":"Practice","trial":2,"sequence":"3W5","letter_input":"W","number_input":"35","is_correct":true,"presentation_start_time":1701288574240.93,"presentation_end_time":1701288578742.86,"response_time":1701288584737.8},{"stage":"Practice","trial":3,"sequence":"T7L","letter_input":"LT","number_input":"7","is_correct":true,"presentation_start_time":1701288586270.3,"presentation_end_time":1701288590772.26,"response_time":1701288603298.15},{"stage":"Practice","trial":4,"sequence":"9J1","letter_input":"J","number_input":"19","is_correct":true,"presentation_start_time":1701288604830.87,"presentation_end_time":1701288609332.67,"response_time":1701288614794.32},{"stage":"Calibration","trial":0,"sequence":"9P","letter_input":"P","number_input":"9","is_correct":true,"presentation_start_time":1701288630305.83,"presentation_end_time":1701288633308.15,"response_time":1701288641202.31},{"stage":"Calibration","trial":1,"sequence":"W1","letter_input":"W","number_input":"1","is_correct":true,"presentation_start_time":1701288642735.06,"presentation_end_time":1701288645737.46,"response_time":1701288650082.78},{"stage":"Calibration","trial":2,"sequence":"7S2","letter_input":"S","number_input":"27","is_correct":true,"presentation_start_time":1701288651615.49,"presentation_end_time":1701288656117.52,"response_time":1701288661162.34},{"stage":"Calibration","trial":3,"sequence":"G4E","letter_input":"EG","number_input":"4","is_correct":true,"presentation_start_time":1701288662695.22,"presentation_end_time":1701288667197.04,"response_time":1701288675441.13},{"stage":"Calibration","trial":4,"sequence":"5K1C","letter_input":"CK","number_input":"15","is_correct":true,"presentation_start_time":1701288676973.85,"presentation_end_time":1701288682975.22,"response_time":1701288692718.85},{"stage":"Calibration","trial":5,"sequence":"V7E4","letter_input":"EV","number_input":"47","is_correct":true,"presentation_start_time":1701288694251.38,"presentation_end_time":1701288700252.9,"response_time":1701288716927.39},{"stage":"Calibration","trial":6,"sequence":"9Z6Q2","letter_input":"QZ","number_input":"269","is_correct":true,"presentation_start_time":1701288718460.15,"presentation_end_time":1701288725961.24,"response_time":1701288733821.77},{"stage":"Calibration","trial":7,"sequence":"R4M1D","letter_input":"DM","number_input":"14","is_correct":false,"presentation_start_time":1701288735354.57,"presentation_end_time":1701288742855.47,"response_time":1701288752815.56},{"stage":"Calibration","trial":8,"sequence":"7H5E3N","letter_input":"EHN","number_input":"34","is_correct":false,"presentation_start_time":1701288754348.28,"presentation_end_time":1701288763348.77,"response_time":1701288778040.61},{"stage":"Calibration","trial":9,"sequence":"C8Y6R1","letter_input":"CHR","number_input":"168","is_correct":false,"presentation_start_time":1701288779573.35,"presentation_end_time":1701288788573.81,"response_time":1701288803232.38}]}