{"meta_data":{"additional_headers":{},"game_name":"Recollect","version":"2.53.01","user_name":"141","organization":"braingamecenter","study":"mpl2_2022_11","session_number":0,"device_id":"74342D95-EE82-45E3-8ADF-48FB3203C5DD"},"data":[{"trial":0,"action":1,"button_pressed":10,"time_out":false,"dwell_time":114.215087890625,"response_time":1701288242435.08},{"trial":0,"action":1,"button_pressed":7,"time_out":false,"dwell_time":113.60986328125,"response_time":1701288243152.12},{"trial":0,"action":9,"button_pressed":-1,"time_out":false,"dwell_time":26.4599609375,"response_time":1701288244011.16},{"trial":1,"action":1,"button_pressed":3,"time_out":false,"dwell_time":130.921875,"response_time":1701288254314.59},{"trial":1,"action":1,"button_pressed":9,"time_out":false,"dwell_time":97.862060546875,"response_time":1701288254831.52},{"trial":1,"action":1,"button_pressed":7,"time_out":false,"dwell_time":81.252197265625,"response_time":1701288256197.73},{"trial":1,"action":9,"button_pressed":-1,"time_out":false,"dwell_time":131.90283203125,"response_time":1701288258497.32},{"trial":2,"action":1,"button_pressed":1,"time_out":false,"dwell_time":97.4521484375,"response_time":1701288271276.34},{"trial":2,"action":1,"button_pressed":6,"time_out":false,"dwell_time":97.864990234375,"response_time":1701288271826.01},{"trial":2,"action":1,"button_pressed":5,"time_out":false,"dwell_time":97.9521484375,"response_time":1701288272409.2},{"trial":2,"action":1,"button_pressed":10,"time_out":false,"dwell_time":97.506103515625,"response_time":1701288273058.51},{"trial":2,"action":9,"button_pressed":-1,"time_out":false,"dwell_time":115.338134765625,"response_time":1701288274025.62},{"trial":3,"action":1,"button_pressed":0,"time_out":false,"dwell_time":164.1650390625,"response_time":1701288289570.42},{"trial":3,"action":1,"button_pressed":7,"time_out":false,"dwell_time":163.784912109375,"response_time":1701288290685.6},{"trial":3,"action":1,"button_pressed":10,"time_out":false,"dwell_time":112.626953125,"response_time":1701288293051.14},{"trial":3,"action":1,"button_pressed":4,"time_out":false,"dwell_time":114.703125,"response_time":1701288293735.36},{"trial":3,"action":1,"button_pressed":1,"time_out":false,"dwell_time":81.364990234375,"response_time":1701288294268.57},{"trial":3,"action":9,"button_pressed":-1,"time_out":false,"dwell_time":97.14697265625,"response_time":1701288295067.94},{"trial":4,"action":1,"button_pressed":5,"time_out":false,"dwell_time":147.408935546875,"response_time":1701288313579.04},{"trial":4,"action":1,"button_pressed":10,"time_out":false,"dwell_time":179.6640625,"response_time":1701288314544.41},{"trial":4,"action":1,"button_pressed":7,"time_out":false,"dwell_time":180.489990234375,"response_time":1701288316611.19},{"trial":4,"action":1,"button_pressed":0,"time_out":false,"dwell_time":131.43310546875,"response_time":1701288321109.75},{"trial":4,"action":1,"button_pressed":4,"time_out":false,"dwell_time":80.506103515625,"response_time":1701288321676.2},{"trial":4,"action":1,"button_pressed":8,"time_out":false,"dwell_time":46.7109375,"response_time":1701288322142.33},{"trial":4,"action":9,"button_pressed":-1,"time_out":false,"dwell_time":16.635009765625,"response_time":1701288322908.56},{"trial":5,"action":1,"button_pressed":2,"time_out":false,"dwell_time":164.171142578125,"response_time":1701288340920.01},{"trial":5,"action":1,"button_pressed":6,"time_out":false,"dwell_time":114.510009765625,"response_time":1701288342019.56},{"trial":5,"action":1,"button_pressed":10,"time_out":false,"dwell_time":163.044921875,"response_time":1701288343068.4},{"trial":5,"action":1,"button_pressed":7,"time_out":false,"dwell_time":63.005126953125,"response_time":1701288346450.53},{"trial":5,"action":1,"button_pressed":9,"time_out":false,"dwell_time":97.10205078125,"response_time":1701288347534.34},{"trial":5,"action":1,"button_pressed":3,"time_out":false,"dwell_time":63.6240234375,"response_time":1701288348217.36},{"trial":5,"action":9,"button_pressed":-1,"time_out":false,"dwell_time":16.35595703125,"response_time":1701288348933.35},{"trial":6,"action":1,"button_pressed":7,"time_out":false,"dwell_time":114.10595703125,"response_time":1701288370426.2},{"trial":6,"action":1,"button_pressed":11,"time_out":false,"dwell_time":96.447998046875,"response_time":1701288371159.18},{"trial":6,"action":1,"button_pressed":0,"time_out":false,"dwell_time":163.037841796875,"response_time":1701288372742.01},{"trial":6,"action":1,"button_pressed":4,"time_out":false,"dwell_time":98.04296875,"response_time":1701288380656.74},{"trial":6,"action":1,"button_pressed":9,"time_out":false,"dwell_time":113.72705078125,"response_time":1701288381439.85},{"trial":6,"action":1,"button_pressed":5,"time_out":false,"dwell_time":113.193115234375,"response_time":1701288382488.79},{"trial":6,"action":1,"button_pressed":3,"time_out":false,"dwell_time":113.987060546875,"response_time":1701288383272.66},{"trial":6,"action":9,"button_pressed":-1,"time_out":false,"dwell_time":16.68603515625,"response_time":1701288384954.86},{"trial":7,"action":1,"button_pressed":3,"time_out":false,"dwell_time":147.762939453125,"response_time":1701288405364.89},{"trial":7,"action":1,"button_pressed":0,"time_out":false,"dwell_time":113.930908203125,"response_time":1701288405898.47},{"trial":7,"action":1,"button_pressed":10,"time_out":false,"dwell_time":130.6259765625,"response_time":1701288407830.44},{"trial":7,"action":1,"button_pressed":5,"time_out":false,"dwell_time":180.833984375,"response_time":1701288408564.45},{"trial":7,"action":1,"button_pressed":1,"time_out":false,"dwell_time":164.797119140625,"response_time":1701288410996.95},{"trial":7,"action":1,"button_pressed":2,"time_out":false,"dwell_time":96.57080078125,"response_time":1701288411779.12},{"trial":7,"action":9,"button_pressed":-1,"time_out":false,"dwell_time":131.14208984375,"response_time":1701288412496.77},{"trial":8,"action":1,"button_pressed":1,"time_out":false,"dwell_time":80.94287109375,"response_time":1701288430507.23},{"trial":8,"action":1,"button_pressed":10,"time_out":false,"dwell_time":81.301025390625,"response_time":1701288431190.16},{"trial":8,"action":1,"button_pressed":0,"time_out":false,"dwell_time":131.358154296875,"response_time":1701288432006.57},{"trial":8,"action":1,"button_pressed":9,"time_out":false,"dwell_time":63.944091796875,"response_time":1701288433605.26},{"trial":8,"action":1,"button_pressed":5,"time_out":false,"dwell_time":113.860107421875,"response_time":1701288434139.11},{"trial":8,"action":9,"button_pressed":-1,"time_out":false,"dwell_time":115.19384765625,"response_time":1701288434989.34},{"trial":9,"action":1,"button_pressed":3,"time_out":false,"dwell_time":97.583984375,"response_time":1701288452899.08},{"trial":9,"action":1,"button_pressed":7,"time_out":false,"dwell_time":131.39892578125,"response_time":1701288453532.89},{"trial":9,"action":1,"button_pressed":4,"time_out":false,"dwell_time":164.81494140625,"response_time":1701288454499.21},{"trial":9,"action":1,"button_pressed":10,"time_out":false,"dwell_time":80.501953125,"response_time":1701288455298.13},{"trial":9,"action":1,"button_pressed":2,"time_out":false,"dwell_time":80.0009765625,"response_time":1701288456114.62},{"trial":9,"action":1,"button_pressed":9,"time_out":false,"dwell_time":64.330078125,"response_time":1701288456764.83},{"trial":9,"action":9,"button_pressed":-1,"time_out":false,"dwell_time":64.953125,"response_time":1701288457365.17},{"trial":10,"action":1,"button_pressed":1,"time_out":false,"dwell_time":63.47998046875,"response_time":1701288477424.36},{"trial":10,"action":1,"button_pressed":9,"time_out":false,"dwell_time":113.89599609375,"response_time":1701288477990.68},{"trial":10,"action":1,"button_pressed":7,"time_out":false,"dwell_time":64.031982421875,"response_time":1701288478490.67},{"trial":10,"action":1,"button_pressed":5,"time_out":false,"dwell_time":97.173095703125,"response_time":1701288479257.63},{"trial":10,"action":1,"button_pressed":11,"time_out":false,"dwell_time":97.365966796875,"response_time":1701288479990.17},{"trial":10,"action":1,"button_pressed":6,"time_out":false,"dwell_time":97.928955078125,"response_time":1701288480523.89},{"trial":10,"action":9,"button_pressed":-1,"time_out":false,"dwell_time":64.545166015625,"response_time":1701288482989.42},{"trial":11,"action":1,"button_pressed":6,"time_out":false,"dwell_time":97.484130859375,"response_time":1701288503232.52},{"trial":11,"action":1,"button_pressed":2,"time_out":false,"dwell_time":114.423095703125,"response_time":1701288503866.14},{"trial":11,"action":1,"button_pressed":4,"time_out":false,"dwell_time":96.64794921875,"response_time":1701288504432.02},{"trial":11,"action":1,"button_pressed":8,"time_out":false,"dwell_time":63.77001953125,"response_time":1701288505198.37},{"trial":11,"action":1,"button_pressed":9,"time_out":false,"dwell_time":114.531982421875,"response_time":1701288506032.16},{"trial":11,"action":1,"button_pressed":0,"time_out":false,"dwell_time":97.7978515625,"response_time":1701288506765.21},{"trial":11,"action":9,"button_pressed":-1,"time_out":false,"dwell_time":47.493896484375,"response_time":1701288508214.88}]}