{"meta_data":{"additional_headers":{},"game_name":"Recollect","version":"2.53.01","user_name":"142","organization":"braingamecenter","study":"mpl2_2022_11","session_number":0,"device_id":"74342D95-EE82-45E3-8ADF-48FB3203C5DD"},"data":[{"stage":"Practice","trial":0,"sequence":"6F","letter_input":"F","number_input":"6","is_correct":true,"presentation_start_time":1701301232073.33,"presentation_end_time":1701301235075.71,"response_time":1701301242771.63},{"stage":"Practice","trial":1,"sequence":"G4","letter_input":"G","number_input":"4","is_correct":true,"presentation_start_time":1701301244302.54,"presentation_end_time":1701301247304.96,"response_time":1701301251533.54},{"stage":"Practice","trial":2,"sequence":"3W5","letter_input":"W","number_input":"35","is_correct":true,"presentation_start_time":1701301253066.28,"presentation_end_time":1701301257568.33,"response_time":1701301262163.33},{"stage":"Practice","trial":3,"sequence":"T7L","letter_input":"LT","number_input":"7","is_correct":true,"presentation_start_time":1701301263696.16,"presentation_end_time":1701301268197.94,"response_time":1701301275325.66},{"stage":"Practice","trial":4,"sequence":"9J1","letter_input":"J","number_input":"19","is_correct":true,"presentation_start_time":1701301276858.35,"presentation_end_time":1701301281360.08,"response_time":1701301285172.41},{"stage":"Calibration","trial":0,"sequence":"7H","letter_input":"H","number_input":"7","is_correct":true,"presentation_start_time":1701301293119.55,"presentation_end_time":1701301296121.87,"response_time":1701301299917.37},{"stage":"Calibration","trial":1,"sequence":"Y3","letter_input":"Y","number_input":"3","is_correct":true,"presentation_start_time":1701301301450.06,"presentation_end_time":1701301304452.49,"response_time":1701301308181.22},{"stage":"Calibration","trial":2,"sequence":"5A1","letter_input":"A","number_input":"15","is_correct":true,"presentation_start_time":1701301309713.96,"presentation_end_time":1701301314215.86,"response_time":1701301318111.21},{"stage":"Calibration","trial":3,"sequence":"T9G","letter_input":"GT","number_input":"9","is_correct":true,"presentation_start_time":1701301319643.96,"presentation_end_time":1701301324145.76,"response_time":1701301330757.01},{"stage":"Calibration","trial":4,"sequence":"4Y2L","letter_input":"LY","number_input":"24","is_correct":true,"presentation_start_time":1701301332289.73,"presentation_end_time":1701301338291.25,"response_time":1701301346201.78},{"stage":"Calibration","trial":5,"sequence":"R7B3","letter_input":"BR","number_input":"37","is_correct":true,"presentation_start_time":1701301347734.59,"presentation_end_time":1701301353735.95,"response_time":1701301362646.29},{"stage":"Calibration","trial":6,"sequence":"5Q1H9","letter_input":"HQ","number_input":"159","is_correct":true,"presentation_start_time":1701301364179.15,"presentation_end_time":1701301371680.03,"response_time":1701301385272.04},{"stage":"Calibration","trial":7,"sequence":"T6P3G","letter_input":"GPT","number_input":"36","is_correct":true,"presentation_start_time":1701301386804.76,"presentation_end_time":1701301394305.65,"response_time":1701301409397.34},{"stage":"Calibration","trial":8,"sequence":"8Z5R2M","letter_input":"MRZ","number_input":"258","is_correct":true,"presentation_start_time":1701301410929.96,"presentation_end_time":1701301419930.32,"response_time":1701301443635.74},{"stage":"Calibration","trial":9,"sequence":"A7K4E1","letter_input":"AKN","number_input":"17","is_correct":false,"presentation_start_time":1701301445168.59,"presentation_end_time":1701301454168.96,"response_time":1701301476041.64},{"stage":"Calibration","trial":10,"sequence":"8L2B6S5","letter_input":"BL","number_input":"256","is_correct":false,"presentation_start_time":1701301477574.29,"presentation_end_time":1701301488074.33,"response_time":1701301500200.21},{"stage":"Calibration","trial":11,"sequence":"Z3E1C9T","letter_input":"LTZ","number_input":"138","is_correct":false,"presentation_start_time":1701301501732.94,"presentation_end_time":1701301512232.73,"response_time":1701301526557.98}]}