{"meta_data":{"additional_headers":{},"game_name":"Recollect","version":"2.53.01","user_name":"142","organization":"braingamecenter","study":"mpl2_2022_11","session_number":0,"device_id":"74342D95-EE82-45E3-8ADF-48FB3203C5DD"},"data":[{"trial":0,"action":1,"button_pressed":6,"time_out":false,"dwell_time":97.441162109375,"response_time":1701300929326.47},{"trial":0,"action":1,"button_pressed":10,"time_out":false,"dwell_time":81.033203125,"response_time":1701300929793.46},{"trial":0,"action":9,"button_pressed":-1,"time_out":false,"dwell_time":26.14208984375,"response_time":1701300930835.54},{"trial":1,"action":1,"button_pressed":5,"time_out":false,"dwell_time":97.577880859375,"response_time":1701300940572.66},{"trial":1,"action":1,"button_pressed":8,"time_out":false,"dwell_time":63.1259765625,"response_time":1701300940905.71},{"trial":1,"action":1,"button_pressed":0,"time_out":false,"dwell_time":81.094970703125,"response_time":1701300941273.26},{"trial":1,"action":9,"button_pressed":-1,"time_out":false,"dwell_time":81.325927734375,"response_time":1701300942022.43},{"trial":2,"action":1,"button_pressed":4,"time_out":false,"dwell_time":81.759033203125,"response_time":1701300953852.31},{"trial":2,"action":1,"button_pressed":2,"time_out":false,"dwell_time":80.553955078125,"response_time":1701300954335.18},{"trial":2,"action":1,"button_pressed":7,"time_out":false,"dwell_time":163.222900390625,"response_time":1701300954901.07},{"trial":2,"action":1,"button_pressed":7,"time_out":false,"dwell_time":80.383056640625,"response_time":1701300955534.88},{"trial":2,"action":1,"button_pressed":7,"time_out":false,"dwell_time":80.902099609375,"response_time":1701300957217.47},{"trial":2,"action":0,"button_pressed":-1,"time_out":false,"dwell_time":16.4169921875,"response_time":1701300959749.04},{"trial":2,"action":1,"button_pressed":4,"time_out":false,"dwell_time":46.774169921875,"response_time":1701300960416.16},{"trial":2,"action":1,"button_pressed":2,"time_out":false,"dwell_time":12.922119140625,"response_time":1701300960865.36},{"trial":2,"action":1,"button_pressed":7,"time_out":false,"dwell_time":113.765869140625,"response_time":1701300961432.89},{"trial":2,"action":1,"button_pressed":3,"time_out":false,"dwell_time":80.488037109375,"response_time":1701300962048.72},{"trial":2,"action":9,"button_pressed":-1,"time_out":false,"dwell_time":16.462890625,"response_time":1701300963165.04},{"trial":3,"action":1,"button_pressed":11,"time_out":false,"dwell_time":98.333984375,"response_time":1701300977927.55},{"trial":3,"action":1,"button_pressed":1,"time_out":false,"dwell_time":97.34619140625,"response_time":1701300978459.82},{"trial":3,"action":1,"button_pressed":1,"time_out":false,"dwell_time":63.982177734375,"response_time":1701300979176.11},{"trial":3,"action":0,"button_pressed":-1,"time_out":false,"dwell_time":131.786865234375,"response_time":1701300980510.08},{"trial":3,"action":1,"button_pressed":11,"time_out":false,"dwell_time":114.530029296875,"response_time":1701300981276.16},{"trial":3,"action":1,"button_pressed":1,"time_out":false,"dwell_time":114.808837890625,"response_time":1701300981709.44},{"trial":3,"action":1,"button_pressed":9,"time_out":false,"dwell_time":131.342041015625,"response_time":1701300982209.31},{"trial":3,"action":1,"button_pressed":7,"time_out":false,"dwell_time":79.697021484375,"response_time":1701300982441.82},{"trial":3,"action":1,"button_pressed":4,"time_out":false,"dwell_time":81.58203125,"response_time":1701300982959.16},{"trial":3,"action":9,"button_pressed":-1,"time_out":false,"dwell_time":47.64990234375,"response_time":1701300984008.76},{"trial":4,"action":1,"button_pressed":10,"time_out":false,"dwell_time":114.213134765625,"response_time":1701301002068.69},{"trial":4,"action":1,"button_pressed":2,"time_out":false,"dwell_time":81.447998046875,"response_time":1701301004185.18},{"trial":4,"action":1,"button_pressed":9,"time_out":false,"dwell_time":63.02587890625,"response_time":1701301005350.71},{"trial":4,"action":1,"button_pressed":5,"time_out":false,"dwell_time":81.343017578125,"response_time":1701301006851.08},{"trial":4,"action":1,"button_pressed":11,"time_out":false,"dwell_time":97.976806640625,"response_time":1701301007484.08},{"trial":4,"action":1,"button_pressed":0,"time_out":false,"dwell_time":80.56005859375,"response_time":1701301007983.22},{"trial":4,"action":9,"button_pressed":-1,"time_out":false,"dwell_time":97.81787109375,"response_time":1701301008700.89},{"trial":5,"action":1,"button_pressed":10,"time_out":false,"dwell_time":64.669921875,"response_time":1701301028377.21},{"trial":5,"action":1,"button_pressed":1,"time_out":false,"dwell_time":63.10791015625,"response_time":1701301029909.13},{"trial":5,"action":1,"button_pressed":2,"time_out":false,"dwell_time":81.260009765625,"response_time":1701301030459.68},{"trial":5,"action":1,"button_pressed":7,"time_out":false,"dwell_time":80.64208984375,"response_time":1701301031059.61},{"trial":5,"action":1,"button_pressed":6,"time_out":false,"dwell_time":81.168212890625,"response_time":1701301031409.38},{"trial":5,"action":1,"button_pressed":0,"time_out":false,"dwell_time":46.7421875,"response_time":1701301031858.88},{"trial":5,"action":1,"button_pressed":4,"time_out":false,"dwell_time":63.947998046875,"response_time":1701301032192.51},{"trial":5,"action":9,"button_pressed":-1,"time_out":false,"dwell_time":64.35107421875,"response_time":1701301032842.56},{"trial":6,"action":1,"button_pressed":0,"time_out":false,"dwell_time":81.691162109375,"response_time":1701301056201.29},{"trial":6,"action":1,"button_pressed":8,"time_out":false,"dwell_time":81.48291015625,"response_time":1701301056567.84},{"trial":6,"action":1,"button_pressed":5,"time_out":false,"dwell_time":63.260009765625,"response_time":1701301057116.75},{"trial":6,"action":1,"button_pressed":9,"time_out":false,"dwell_time":81.02587890625,"response_time":1701301057567.3},{"trial":6,"action":1,"button_pressed":6,"time_out":false,"dwell_time":63.863037109375,"response_time":1701301058167.14},{"trial":6,"action":1,"button_pressed":7,"time_out":false,"dwell_time":80.426025390625,"response_time":1701301059316.01},{"trial":6,"action":1,"button_pressed":2,"time_out":false,"dwell_time":97.255126953125,"response_time":1701301059665.9},{"trial":6,"action":9,"button_pressed":-1,"time_out":false,"dwell_time":113.7939453125,"response_time":1701301061682.31},{"trial":7,"action":1,"button_pressed":6,"time_out":false,"dwell_time":49.7138671875,"response_time":1701301084092.54},{"trial":7,"action":1,"button_pressed":0,"time_out":false,"dwell_time":80.536865234375,"response_time":1701301084657.53},{"trial":7,"action":1,"button_pressed":5,"time_out":false,"dwell_time":113.14990234375,"response_time":1701301085923.88},{"trial":7,"action":1,"button_pressed":3,"time_out":false,"dwell_time":63.929931640625,"response_time":1701301086624.32},{"trial":7,"action":1,"button_pressed":10,"time_out":false,"dwell_time":79.7998046875,"response_time":1701301087023.48},{"trial":7,"action":1,"button_pressed":8,"time_out":false,"dwell_time":63.805908203125,"response_time":1701301087474.07},{"trial":7,"action":1,"button_pressed":1,"time_out":false,"dwell_time":30.968994140625,"response_time":1701301088040.15},{"trial":7,"action":1,"button_pressed":7,"time_out":false,"dwell_time":81.02197265625,"response_time":1701301088556.99},{"trial":7,"action":9,"button_pressed":-1,"time_out":false,"dwell_time":97.424072265625,"response_time":1701301089623.33},{"trial":8,"action":1,"button_pressed":4,"time_out":false,"dwell_time":64.10888671875,"response_time":1701301115997.04},{"trial":8,"action":1,"button_pressed":2,"time_out":false,"dwell_time":63.208984375,"response_time":1701301116980.02},{"trial":8,"action":1,"button_pressed":5,"time_out":false,"dwell_time":62.949951171875,"response_time":1701301117329.78},{"trial":8,"action":1,"button_pressed":10,"time_out":false,"dwell_time":62.936767578125,"response_time":1701301117996.26},{"trial":8,"action":1,"button_pressed":7,"time_out":false,"dwell_time":62.73193359375,"response_time":1701301119062.63},{"trial":8,"action":1,"button_pressed":6,"time_out":false,"dwell_time":80.576904296875,"response_time":1701301119430.1},{"trial":8,"action":1,"button_pressed":0,"time_out":false,"dwell_time":81.575927734375,"response_time":1701301120762.92},{"trial":8,"action":1,"button_pressed":11,"time_out":false,"dwell_time":46.73583984375,"response_time":1701301121329.03},{"trial":8,"action":9,"button_pressed":-1,"time_out":false,"dwell_time":30.9248046875,"response_time":1701301122395.85},{"trial":9,"action":1,"button_pressed":9,"time_out":false,"dwell_time":63.73291015625,"response_time":1701301147737.21},{"trial":9,"action":1,"button_pressed":8,"time_out":false,"dwell_time":63.885986328125,"response_time":1701301148136.2},{"trial":9,"action":1,"button_pressed":2,"time_out":false,"dwell_time":63.984130859375,"response_time":1701301148702.91},{"trial":9,"action":1,"button_pressed":4,"time_out":false,"dwell_time":63.965087890625,"response_time":1701301149202.6},{"trial":9,"action":1,"button_pressed":11,"time_out":false,"dwell_time":79.708984375,"response_time":1701301150302.04},{"trial":9,"action":1,"button_pressed":6,"time_out":false,"dwell_time":81.546142578125,"response_time":1701301150553.07},{"trial":9,"action":1,"button_pressed":3,"time_out":false,"dwell_time":31.052001953125,"response_time":1701301150802.52},{"trial":9,"action":1,"button_pressed":5,"time_out":false,"dwell_time":64.05810546875,"response_time":1701301151251.82},{"trial":9,"action":1,"button_pressed":10,"time_out":false,"dwell_time":64.954833984375,"response_time":1701301151619.25},{"trial":9,"action":1,"button_pressed":1,"time_out":false,"dwell_time":47.614013671875,"response_time":1701301152002.13},{"trial":9,"action":9,"button_pressed":-1,"time_out":false,"dwell_time":48.33203125,"response_time":1701301152535.77},{"trial":10,"action":1,"button_pressed":6,"time_out":false,"dwell_time":81.57421875,"response_time":1701301173345.56},{"trial":10,"action":1,"button_pressed":3,"time_out":false,"dwell_time":64.679931640625,"response_time":1701301174095.16},{"trial":10,"action":1,"button_pressed":0,"time_out":false,"dwell_time":48.401123046875,"response_time":1701301174462.02},{"trial":10,"action":1,"button_pressed":10,"time_out":false,"dwell_time":80.333984375,"response_time":1701301174911.38},{"trial":10,"action":1,"button_pressed":5,"time_out":false,"dwell_time":46.89306640625,"response_time":1701301175410.85},{"trial":10,"action":1,"button_pressed":4,"time_out":false,"dwell_time":63.91796875,"response_time":1701301175811.12},{"trial":10,"action":1,"button_pressed":2,"time_out":false,"dwell_time":63.239013671875,"response_time":1701301176176.96},{"trial":10,"action":1,"button_pressed":1,"time_out":false,"dwell_time":47.740966796875,"response_time":1701301178377.43},{"trial":10,"action":1,"button_pressed":2,"time_out":false,"dwell_time":47.0439453125,"response_time":1701301179792.82},{"trial":10,"action":9,"button_pressed":-1,"time_out":false,"dwell_time":80.40087890625,"response_time":1701301180559.21},{"trial":11,"action":1,"button_pressed":5,"time_out":false,"dwell_time":81.070068359375,"response_time":1701301200453.15},{"trial":11,"action":1,"button_pressed":3,"time_out":false,"dwell_time":64.31005859375,"response_time":1701301201302.57},{"trial":11,"action":1,"button_pressed":8,"time_out":false,"dwell_time":46.541015625,"response_time":1701301202001.79},{"trial":11,"action":1,"button_pressed":11,"time_out":false,"dwell_time":46.747802734375,"response_time":1701301202618.41},{"trial":11,"action":1,"button_pressed":6,"time_out":false,"dwell_time":63.669921875,"response_time":1701301203268.42},{"trial":11,"action":1,"button_pressed":7,"time_out":false,"dwell_time":47.878173828125,"response_time":1701301204718.86},{"trial":11,"action":1,"button_pressed":4,"time_out":false,"dwell_time":64.5029296875,"response_time":1701301205201.07},{"trial":11,"action":1,"button_pressed":10,"time_out":false,"dwell_time":48.216796875,"response_time":1701301205601.45},{"trial":11,"action":9,"button_pressed":-1,"time_out":false,"dwell_time":47.655029296875,"response_time":1701301206350.76}]}