{"meta_data":{"additional_headers":{},"game_name":"Recollect","version":"2.53.01","user_name":"143","organization":"braingamecenter","study":"mpl2_2022_11","session_number":0,"device_id":"74342D95-EE82-45E3-8ADF-48FB3203C5DD"},"data":[{"trial":0,"action":1,"button_pressed":9,"time_out":false,"dwell_time":47.087890625,"response_time":1701371097257.69},{"trial":0,"action":1,"button_pressed":1,"time_out":false,"dwell_time":31.2109375,"response_time":1701371097774.15},{"trial":0,"action":9,"button_pressed":-1,"time_out":false,"dwell_time":89.969970703125,"response_time":1701371099299.21},{"trial":1,"action":1,"button_pressed":9,"time_out":false,"dwell_time":47.8310546875,"response_time":1701371109337.8},{"trial":1,"action":1,"button_pressed":1,"time_out":false,"dwell_time":64.174072265625,"response_time":1701371109837.2},{"trial":1,"action":1,"button_pressed":3,"time_out":false,"dwell_time":47.703125,"response_time":1701371110287.37},{"trial":1,"action":9,"button_pressed":-1,"time_out":false,"dwell_time":96.833984375,"response_time":1701371111069.64},{"trial":2,"action":1,"button_pressed":3,"time_out":false,"dwell_time":97.541015625,"response_time":1701371125464.69},{"trial":2,"action":1,"button_pressed":5,"time_out":false,"dwell_time":80.775146484375,"response_time":1701371126098.01},{"trial":2,"action":1,"button_pressed":9,"time_out":false,"dwell_time":46.761962890625,"response_time":1701371126664.56},{"trial":2,"action":1,"button_pressed":2,"time_out":false,"dwell_time":80.702880859375,"response_time":1701371127130.7},{"trial":2,"action":9,"button_pressed":-1,"time_out":false,"dwell_time":63.840087890625,"response_time":1701371130279.38},{"trial":3,"action":1,"button_pressed":11,"time_out":false,"dwell_time":47.8740234375,"response_time":1701371145876.12},{"trial":3,"action":1,"button_pressed":4,"time_out":false,"dwell_time":14.333984375,"response_time":1701371146624.81},{"trial":3,"action":1,"button_pressed":3,"time_out":false,"dwell_time":63.955078125,"response_time":1701371147357.54},{"trial":3,"action":1,"button_pressed":5,"time_out":false,"dwell_time":96.5888671875,"response_time":1701371147657.64},{"trial":3,"action":1,"button_pressed":9,"time_out":false,"dwell_time":64.320068359375,"response_time":1701371148107.73},{"trial":3,"action":9,"button_pressed":-1,"time_out":false,"dwell_time":65.02783203125,"response_time":1701371149241.49},{"trial":4,"action":1,"button_pressed":10,"time_out":false,"dwell_time":63.9619140625,"response_time":1701371163769.1},{"trial":4,"action":1,"button_pressed":5,"time_out":false,"dwell_time":80.5869140625,"response_time":1701371164352.87},{"trial":4,"action":1,"button_pressed":3,"time_out":false,"dwell_time":63.989990234375,"response_time":1701371164968.62},{"trial":4,"action":1,"button_pressed":6,"time_out":false,"dwell_time":46.736083984375,"response_time":1701371165452.16},{"trial":4,"action":1,"button_pressed":2,"time_out":false,"dwell_time":81.2939453125,"response_time":1701371166135.65},{"trial":4,"action":9,"button_pressed":-1,"time_out":false,"dwell_time":16.56201171875,"response_time":1701371166968.22},{"trial":5,"action":1,"button_pressed":2,"time_out":false,"dwell_time":47.989013671875,"response_time":1701371184246.27},{"trial":5,"action":1,"button_pressed":6,"time_out":false,"dwell_time":63.5830078125,"response_time":1701371184878.59},{"trial":5,"action":1,"button_pressed":10,"time_out":false,"dwell_time":63.05810546875,"response_time":1701371185561.91},{"trial":5,"action":1,"button_pressed":7,"time_out":false,"dwell_time":80.197998046875,"response_time":1701371186245.7},{"trial":5,"action":1,"button_pressed":3,"time_out":false,"dwell_time":63.02099609375,"response_time":1701371186843.81},{"trial":5,"action":9,"button_pressed":-1,"time_out":false,"dwell_time":147.694091796875,"response_time":1701371192194.02},{"trial":6,"action":1,"button_pressed":0,"time_out":false,"dwell_time":131.81396484375,"response_time":1701371210154.87},{"trial":6,"action":1,"button_pressed":4,"time_out":false,"dwell_time":97.130126953125,"response_time":1701371210587.78},{"trial":6,"action":1,"button_pressed":11,"time_out":false,"dwell_time":113.936767578125,"response_time":1701371211353.54},{"trial":6,"action":1,"button_pressed":6,"time_out":false,"dwell_time":97.012939453125,"response_time":1701371212536.48},{"trial":6,"action":1,"button_pressed":5,"time_out":false,"dwell_time":97.0380859375,"response_time":1701371213236.84},{"trial":6,"action":1,"button_pressed":7,"time_out":false,"dwell_time":97.18701171875,"response_time":1701371213970.01},{"trial":6,"action":9,"button_pressed":-1,"time_out":false,"dwell_time":132.005126953125,"response_time":1701371219551.98},{"trial":7,"action":1,"button_pressed":11,"time_out":false,"dwell_time":96.864990234375,"response_time":1701371232546.79},{"trial":7,"action":1,"button_pressed":9,"time_out":false,"dwell_time":97.06103515625,"response_time":1701371232980.37},{"trial":7,"action":1,"button_pressed":8,"time_out":false,"dwell_time":113.72998046875,"response_time":1701371233446.89},{"trial":7,"action":1,"button_pressed":0,"time_out":false,"dwell_time":48.47705078125,"response_time":1701371234447.03},{"trial":7,"action":9,"button_pressed":-1,"time_out":false,"dwell_time":30.958984375,"response_time":1701371238028.99},{"trial":8,"action":1,"button_pressed":4,"time_out":false,"dwell_time":80.230224609375,"response_time":1701371250574.35},{"trial":8,"action":1,"button_pressed":2,"time_out":false,"dwell_time":79.875,"response_time":1701371250890.27},{"trial":8,"action":1,"button_pressed":7,"time_out":false,"dwell_time":30.1279296875,"response_time":1701371251440.95},{"trial":8,"action":1,"button_pressed":3,"time_out":false,"dwell_time":97.7890625,"response_time":1701371251941.25},{"trial":8,"action":9,"button_pressed":-1,"time_out":false,"dwell_time":81.18505859375,"response_time":1701371255040.5},{"trial":9,"action":1,"button_pressed":3,"time_out":false,"dwell_time":81.296875,"response_time":1701371270035.28},{"trial":9,"action":1,"button_pressed":6,"time_out":false,"dwell_time":80.580810546875,"response_time":1701371270601.92},{"trial":9,"action":1,"button_pressed":8,"time_out":false,"dwell_time":63.990966796875,"response_time":1701371271751.4},{"trial":9,"action":1,"button_pressed":11,"time_out":false,"dwell_time":47.64892578125,"response_time":1701371272350.86},{"trial":9,"action":1,"button_pressed":0,"time_out":false,"dwell_time":48.767822265625,"response_time":1701371272968.3},{"trial":9,"action":9,"button_pressed":-1,"time_out":false,"dwell_time":82.060791015625,"response_time":1701371273767.9},{"trial":10,"action":1,"button_pressed":4,"time_out":false,"dwell_time":80.18212890625,"response_time":1701371290828.07},{"trial":10,"action":1,"button_pressed":11,"time_out":false,"dwell_time":81.422119140625,"response_time":1701371291711.63},{"trial":10,"action":1,"button_pressed":7,"time_out":false,"dwell_time":81.514892578125,"response_time":1701371292028.26},{"trial":10,"action":1,"button_pressed":3,"time_out":false,"dwell_time":47.718994140625,"response_time":1701371292311.84},{"trial":10,"action":1,"button_pressed":10,"time_out":false,"dwell_time":30.99609375,"response_time":1701371292728.36},{"trial":10,"action":9,"button_pressed":-1,"time_out":false,"dwell_time":64.381103515625,"response_time":1701371293677.3}]}