{"meta_data":{"additional_headers":{},"game_name":"Recollect","version":"2.53.01","user_name":"144","organization":"braingamecenter","study":"mpl2_2022_11","session_number":0,"device_id":"74342D95-EE82-45E3-8ADF-48FB3203C5DD"},"data":[{"stage":"Practice","trial":0,"sequence":"6F","letter_input":"F","number_input":"6","is_correct":true,"presentation_start_time":1701454331299.08,"presentation_end_time":1701454334301.66,"response_time":1701454340681.06},{"stage":"Practice","trial":1,"sequence":"G4","letter_input":"G","number_input":"4","is_correct":true,"presentation_start_time":1701454342212.17,"presentation_end_time":1701454345214.6,"response_time":1701454351859.07},{"stage":"Practice","trial":2,"sequence":"3W5","letter_input":"W","number_input":"35","is_correct":true,"presentation_start_time":1701454353391.92,"presentation_end_time":1701454357893.63,"response_time":1701454363838.4},{"stage":"Practice","trial":3,"sequence":"T7L","letter_input":"LT","number_input":"7","is_correct":true,"presentation_start_time":1701454365371.15,"presentation_end_time":1701454369873.04,"response_time":1701454385781.28},{"stage":"Practice","trial":4,"sequence":"9J1","letter_input":"J","number_input":"19","is_correct":true,"presentation_start_time":1701454387313.87,"presentation_end_time":1701454391815.76,"response_time":1701454398160.36},{"stage":"Calibration","trial":0,"sequence":"3W","letter_input":"W","number_input":"3","is_correct":true,"presentation_start_time":1701454406057.62,"presentation_end_time":1701454409060,"response_time":1701454413688.49},{"stage":"Calibration","trial":1,"sequence":"D9","letter_input":"D","number_input":"9","is_correct":true,"presentation_start_time":1701454415221.27,"presentation_end_time":1701454418223.71,"response_time":1701454423685.21},{"stage":"Calibration","trial":2,"sequence":"4B1","letter_input":"B","number_input":"14","is_correct":true,"presentation_start_time":1701454425217.99,"presentation_end_time":1701454429719.89,"response_time":1701454434598.25},{"stage":"Calibration","trial":3,"sequence":"R2P","letter_input":"PR","number_input":"2","is_correct":true,"presentation_start_time":1701454436131.05,"presentation_end_time":1701454440632.87,"response_time":1701454446244.44},{"stage":"Calibration","trial":4,"sequence":"6Z3G","letter_input":"GZ","number_input":"36","is_correct":true,"presentation_start_time":1701454447777.12,"presentation_end_time":1701454453778.66,"response_time":1701454470036.62},{"stage":"Calibration","trial":5,"sequence":"R8K4","letter_input":"KR","number_input":"48","is_correct":true,"presentation_start_time":1701454471569.31,"presentation_end_time":1701454477570.66,"response_time":1701454490279.75},{"stage":"Calibration","trial":6,"sequence":"3Y9C6","letter_input":"CY","number_input":"39","is_correct":false,"presentation_start_time":1701454491812.51,"presentation_end_time":1701454499313.48,"response_time":1701454506940.91},{"stage":"Calibration","trial":7,"sequence":"V5F2Z","letter_input":"FVZ","number_input":"25","is_correct":true,"presentation_start_time":1701454508473.69,"presentation_end_time":1701454515974.55,"response_time":1701454531799.35},{"stage":"Calibration","trial":8,"sequence":"8H4B1Q","letter_input":"BH","number_input":"148","is_correct":false,"presentation_start_time":1701454533332.06,"presentation_end_time":1701454542332.49,"response_time":1701454569586.82},{"stage":"Calibration","trial":9,"sequence":"D3T9K5","letter_input":"DTW","number_input":"349","is_correct":false,"presentation_start_time":1701454571119.5,"presentation_end_time":1701454580120.08,"response_time":1701454607024.39}]}