{"meta_data":{"additional_headers":{},"game_name":"Recollect","version":"2.53.01","user_name":"144","organization":"braingamecenter","study":"mpl2_2022_11","session_number":0,"device_id":"74342D95-EE82-45E3-8ADF-48FB3203C5DD"},"data":[{"trial":0,"action":1,"button_pressed":3,"time_out":false,"dwell_time":47.985107421875,"response_time":1701454047096.05},{"trial":0,"action":1,"button_pressed":2,"time_out":false,"dwell_time":47.6240234375,"response_time":1701454047595.66},{"trial":0,"action":9,"button_pressed":-1,"time_out":false,"dwell_time":59.9150390625,"response_time":1701454048256.64},{"trial":1,"action":1,"button_pressed":9,"time_out":false,"dwell_time":47.77197265625,"response_time":1701454057842.52},{"trial":1,"action":1,"button_pressed":1,"time_out":false,"dwell_time":64.574951171875,"response_time":1701454058341.62},{"trial":1,"action":1,"button_pressed":3,"time_out":false,"dwell_time":48.563232421875,"response_time":1701454058708.73},{"trial":1,"action":9,"button_pressed":-1,"time_out":false,"dwell_time":81.77783203125,"response_time":1701454059375},{"trial":2,"action":1,"button_pressed":7,"time_out":false,"dwell_time":47.8818359375,"response_time":1701454071420.49},{"trial":2,"action":1,"button_pressed":9,"time_out":false,"dwell_time":47.380859375,"response_time":1701454071737.61},{"trial":2,"action":1,"button_pressed":0,"time_out":false,"dwell_time":47.635009765625,"response_time":1701454072220.85},{"trial":2,"action":1,"button_pressed":4,"time_out":false,"dwell_time":31.94091796875,"response_time":1701454072570.84},{"trial":2,"action":9,"button_pressed":-1,"time_out":false,"dwell_time":32.489013671875,"response_time":1701454073237.68},{"trial":3,"action":1,"button_pressed":5,"time_out":false,"dwell_time":64.18701171875,"response_time":1701454087732.04},{"trial":3,"action":1,"button_pressed":9,"time_out":false,"dwell_time":48.10498046875,"response_time":1701454088132.05},{"trial":3,"action":1,"button_pressed":6,"time_out":false,"dwell_time":48.2529296875,"response_time":1701454088465.51},{"trial":3,"action":1,"button_pressed":8,"time_out":false,"dwell_time":30.09716796875,"response_time":1701454088864.49},{"trial":3,"action":1,"button_pressed":7,"time_out":false,"dwell_time":31.609130859375,"response_time":1701454089398.53},{"trial":3,"action":9,"button_pressed":-1,"time_out":false,"dwell_time":65.14794921875,"response_time":1701454090098.13},{"trial":4,"action":1,"button_pressed":7,"time_out":false,"dwell_time":63.281982421875,"response_time":1701454107324.92},{"trial":4,"action":1,"button_pressed":3,"time_out":false,"dwell_time":81.431884765625,"response_time":1701454107775.24},{"trial":4,"action":1,"button_pressed":8,"time_out":false,"dwell_time":63.0771484375,"response_time":1701454108224.38},{"trial":4,"action":1,"button_pressed":0,"time_out":false,"dwell_time":47.05810546875,"response_time":1701454108824.66},{"trial":4,"action":1,"button_pressed":4,"time_out":false,"dwell_time":47.076904296875,"response_time":1701454109174.62},{"trial":4,"action":1,"button_pressed":1,"time_out":false,"dwell_time":31.254150390625,"response_time":1701454109591.29},{"trial":4,"action":9,"button_pressed":-1,"time_out":false,"dwell_time":48.9580078125,"response_time":1701454110591.87},{"trial":5,"action":1,"button_pressed":2,"time_out":false,"dwell_time":97.60107421875,"response_time":1701454130401.3},{"trial":5,"action":1,"button_pressed":6,"time_out":false,"dwell_time":63.468994140625,"response_time":1701454131134.13},{"trial":5,"action":1,"button_pressed":9,"time_out":false,"dwell_time":63.84814453125,"response_time":1701454131450.03},{"trial":5,"action":1,"button_pressed":0,"time_out":false,"dwell_time":80.54296875,"response_time":1701454132016.52},{"trial":5,"action":1,"button_pressed":10,"time_out":false,"dwell_time":48.630126953125,"response_time":1701454132434.42},{"trial":5,"action":1,"button_pressed":7,"time_out":false,"dwell_time":48.14892578125,"response_time":1701454132917.39},{"trial":5,"action":9,"button_pressed":-1,"time_out":false,"dwell_time":63.656982421875,"response_time":1701454134066.16},{"trial":6,"action":1,"button_pressed":4,"time_out":false,"dwell_time":81.02783203125,"response_time":1701454153442.89},{"trial":6,"action":1,"button_pressed":2,"time_out":false,"dwell_time":64.5849609375,"response_time":1701454153893.33},{"trial":6,"action":1,"button_pressed":6,"time_out":false,"dwell_time":97.194091796875,"response_time":1701454156042.71},{"trial":6,"action":1,"button_pressed":8,"time_out":false,"dwell_time":97.1298828125,"response_time":1701454157508.89},{"trial":6,"action":1,"button_pressed":1,"time_out":false,"dwell_time":80.64892578125,"response_time":1701454159758.02},{"trial":6,"action":1,"button_pressed":9,"time_out":false,"dwell_time":29.77197265625,"response_time":1701454160540.78},{"trial":6,"action":1,"button_pressed":0,"time_out":false,"dwell_time":47.762939453125,"response_time":1701454160974.79},{"trial":6,"action":9,"button_pressed":-1,"time_out":false,"dwell_time":65.176025390625,"response_time":1701454161774.43},{"trial":7,"action":1,"button_pressed":8,"time_out":false,"dwell_time":80.838134765625,"response_time":1701454183800.49},{"trial":7,"action":1,"button_pressed":9,"time_out":false,"dwell_time":80.484130859375,"response_time":1701454184283.34},{"trial":7,"action":1,"button_pressed":2,"time_out":false,"dwell_time":80.57080078125,"response_time":1701454184833.16},{"trial":7,"action":1,"button_pressed":10,"time_out":false,"dwell_time":64.505126953125,"response_time":1701454185283.04},{"trial":7,"action":1,"button_pressed":0,"time_out":false,"dwell_time":80.546875,"response_time":1701454189614.89},{"trial":7,"action":1,"button_pressed":1,"time_out":false,"dwell_time":97.278076171875,"response_time":1701454190280.65},{"trial":7,"action":1,"button_pressed":4,"time_out":false,"dwell_time":63.76220703125,"response_time":1701454191863.33},{"trial":7,"action":1,"button_pressed":5,"time_out":false,"dwell_time":31.01806640625,"response_time":1701454192280.5},{"trial":7,"action":9,"button_pressed":-1,"time_out":false,"dwell_time":132.68017578125,"response_time":1701454193314.16},{"trial":8,"action":1,"button_pressed":11,"time_out":false,"dwell_time":80.87109375,"response_time":1701454215689.19},{"trial":8,"action":1,"button_pressed":3,"time_out":false,"dwell_time":131.43408203125,"response_time":1701454216272.86},{"trial":8,"action":1,"button_pressed":9,"time_out":false,"dwell_time":81.1669921875,"response_time":1701454219005.32},{"trial":8,"action":1,"button_pressed":7,"time_out":false,"dwell_time":64.427001953125,"response_time":1701454219504.92},{"trial":8,"action":1,"button_pressed":4,"time_out":false,"dwell_time":63.90087890625,"response_time":1701454220021.48},{"trial":8,"action":1,"button_pressed":5,"time_out":false,"dwell_time":113.653076171875,"response_time":1701454222436.58},{"trial":8,"action":1,"button_pressed":10,"time_out":false,"dwell_time":48.298828125,"response_time":1701454223754.13},{"trial":8,"action":1,"button_pressed":1,"time_out":false,"dwell_time":48.48779296875,"response_time":1701454224170.57},{"trial":8,"action":9,"button_pressed":-1,"time_out":false,"dwell_time":82.158203125,"response_time":1701454224937},{"trial":9,"action":1,"button_pressed":5,"time_out":false,"dwell_time":80.81103515625,"response_time":1701454242297.65},{"trial":9,"action":1,"button_pressed":10,"time_out":false,"dwell_time":64.56298828125,"response_time":1701454243363.71},{"trial":9,"action":1,"button_pressed":7,"time_out":false,"dwell_time":63.798095703125,"response_time":1701454245096.61},{"trial":9,"action":1,"button_pressed":4,"time_out":false,"dwell_time":80.51513671875,"response_time":1701454246928.44},{"trial":9,"action":1,"button_pressed":0,"time_out":false,"dwell_time":64.406005859375,"response_time":1701454247812.15},{"trial":9,"action":1,"button_pressed":8,"time_out":false,"dwell_time":30.93994140625,"response_time":1701454248145.19},{"trial":9,"action":9,"button_pressed":-1,"time_out":false,"dwell_time":81.866943359375,"response_time":1701454248862.42},{"trial":10,"action":1,"button_pressed":0,"time_out":false,"dwell_time":47.049072265625,"response_time":1701454268771.76},{"trial":10,"action":1,"button_pressed":8,"time_out":false,"dwell_time":62.97314453125,"response_time":1701454269187.77},{"trial":10,"action":1,"button_pressed":5,"time_out":false,"dwell_time":47.77001953125,"response_time":1701454269555.58},{"trial":10,"action":1,"button_pressed":10,"time_out":false,"dwell_time":47.841796875,"response_time":1701454270938.67},{"trial":10,"action":1,"button_pressed":6,"time_out":false,"dwell_time":64.298828125,"response_time":1701454272537.39},{"trial":10,"action":1,"button_pressed":2,"time_out":false,"dwell_time":46.77099609375,"response_time":1701454273153.56},{"trial":10,"action":9,"button_pressed":-1,"time_out":false,"dwell_time":80.40185546875,"response_time":1701454274036.69},{"trial":11,"action":1,"button_pressed":6,"time_out":false,"dwell_time":81.400146484375,"response_time":1701454293880.66},{"trial":11,"action":1,"button_pressed":10,"time_out":false,"dwell_time":62.7529296875,"response_time":1701454294312.81},{"trial":11,"action":1,"button_pressed":11,"time_out":false,"dwell_time":97.222900390625,"response_time":1701454295712.4},{"trial":11,"action":1,"button_pressed":8,"time_out":false,"dwell_time":146.301025390625,"response_time":1701454296778.62},{"trial":11,"action":1,"button_pressed":3,"time_out":false,"dwell_time":97.203125,"response_time":1701454297545.82},{"trial":11,"action":1,"button_pressed":5,"time_out":false,"dwell_time":81.430908203125,"response_time":1701454298328.98},{"trial":11,"action":9,"button_pressed":-1,"time_out":false,"dwell_time":16.536865234375,"response_time":1701454299294.68}]}