{"meta_data":{"additional_headers":{},"game_name":"Recollect","version":"2.53.01","user_name":"145","organization":"braingamecenter","study":"mpl2_2022_11","session_number":0,"device_id":"74342D95-EE82-45E3-8ADF-48FB3203C5DD"},"data":[{"trial":0,"action":1,"button_pressed":3,"time_out":false,"dwell_time":64.303955078125,"response_time":1701468351868.98},{"trial":0,"action":1,"button_pressed":2,"time_out":false,"dwell_time":64.4921875,"response_time":1701468352369.21},{"trial":0,"action":9,"button_pressed":-1,"time_out":false,"dwell_time":57.101806640625,"response_time":1701468353195.54},{"trial":1,"action":1,"button_pressed":2,"time_out":false,"dwell_time":81.376953125,"response_time":1701468362782.65},{"trial":1,"action":1,"button_pressed":4,"time_out":false,"dwell_time":47.7431640625,"response_time":1701468363199.47},{"trial":1,"action":1,"button_pressed":1,"time_out":false,"dwell_time":30.345947265625,"response_time":1701468363731.95},{"trial":1,"action":9,"button_pressed":-1,"time_out":false,"dwell_time":16.546142578125,"response_time":1701468364298.27},{"trial":2,"action":1,"button_pressed":8,"time_out":false,"dwell_time":64.157958984375,"response_time":1701468376677.34},{"trial":2,"action":1,"button_pressed":1,"time_out":false,"dwell_time":63.873779296875,"response_time":1701468377144.28},{"trial":2,"action":1,"button_pressed":3,"time_out":false,"dwell_time":63.217041015625,"response_time":1701468377377.09},{"trial":2,"action":1,"button_pressed":11,"time_out":false,"dwell_time":64.653076171875,"response_time":1701468377910.79},{"trial":2,"action":9,"button_pressed":-1,"time_out":false,"dwell_time":48.385986328125,"response_time":1701468378577.44},{"trial":3,"action":1,"button_pressed":10,"time_out":false,"dwell_time":63.3759765625,"response_time":1701468393172.52},{"trial":3,"action":1,"button_pressed":5,"time_out":false,"dwell_time":30.345947265625,"response_time":1701468393655.32},{"trial":3,"action":1,"button_pressed":3,"time_out":false,"dwell_time":64.51708984375,"response_time":1701468394355.29},{"trial":3,"action":1,"button_pressed":6,"time_out":false,"dwell_time":46.883056640625,"response_time":1701468394588.43},{"trial":3,"action":1,"button_pressed":2,"time_out":false,"dwell_time":31.320068359375,"response_time":1701468395155.02},{"trial":3,"action":9,"button_pressed":-1,"time_out":false,"dwell_time":48.2900390625,"response_time":1701468395555.95},{"trial":4,"action":1,"button_pressed":2,"time_out":false,"dwell_time":46.93798828125,"response_time":1701468412565.88},{"trial":4,"action":1,"button_pressed":6,"time_out":false,"dwell_time":47.59521484375,"response_time":1701468413915.99},{"trial":4,"action":1,"button_pressed":9,"time_out":false,"dwell_time":64.57421875,"response_time":1701468414282.07},{"trial":4,"action":1,"button_pressed":7,"time_out":false,"dwell_time":30.12890625,"response_time":1701468414748.31},{"trial":4,"action":1,"button_pressed":10,"time_out":false,"dwell_time":46.93310546875,"response_time":1701468415181.56},{"trial":4,"action":1,"button_pressed":3,"time_out":false,"dwell_time":31.216064453125,"response_time":1701468415698.89},{"trial":4,"action":9,"button_pressed":-1,"time_out":false,"dwell_time":47.54296875,"response_time":1701468416564.86},{"trial":5,"action":1,"button_pressed":10,"time_out":false,"dwell_time":81.1240234375,"response_time":1701468434175.59},{"trial":5,"action":1,"button_pressed":5,"time_out":false,"dwell_time":81.220947265625,"response_time":1701468434758.61},{"trial":5,"action":1,"button_pressed":2,"time_out":false,"dwell_time":47.699951171875,"response_time":1701468435158.19},{"trial":5,"action":1,"button_pressed":9,"time_out":false,"dwell_time":30.97998046875,"response_time":1701468435641.32},{"trial":5,"action":1,"button_pressed":11,"time_out":false,"dwell_time":30.3671875,"response_time":1701468436291.19},{"trial":5,"action":1,"button_pressed":0,"time_out":false,"dwell_time":48.4541015625,"response_time":1701468436858.33},{"trial":5,"action":9,"button_pressed":-1,"time_out":false,"dwell_time":49.04296875,"response_time":1701468437358.57},{"trial":6,"action":1,"button_pressed":2,"time_out":false,"dwell_time":81.65185546875,"response_time":1701468449604.02},{"trial":6,"action":1,"button_pressed":4,"time_out":false,"dwell_time":64.697998046875,"response_time":1701468449903.76},{"trial":6,"action":1,"button_pressed":10,"time_out":false,"dwell_time":63.037841796875,"response_time":1701468450169.59},{"trial":6,"action":1,"button_pressed":5,"time_out":false,"dwell_time":64.423095703125,"response_time":1701468450553.35},{"trial":6,"action":9,"button_pressed":-1,"time_out":false,"dwell_time":31.641845703125,"response_time":1701468451354},{"trial":7,"action":1,"button_pressed":1,"time_out":false,"dwell_time":30.481201171875,"response_time":1701468466198.07},{"trial":7,"action":1,"button_pressed":10,"time_out":false,"dwell_time":80.635009765625,"response_time":1701468466598.16},{"trial":7,"action":1,"button_pressed":0,"time_out":false,"dwell_time":64.31201171875,"response_time":1701468466914.31},{"trial":7,"action":1,"button_pressed":9,"time_out":false,"dwell_time":47.569091796875,"response_time":1701468467231.84},{"trial":7,"action":1,"button_pressed":5,"time_out":false,"dwell_time":48.27197265625,"response_time":1701468467681.57},{"trial":7,"action":9,"button_pressed":-1,"time_out":false,"dwell_time":30.55810546875,"response_time":1701468468181.07},{"trial":8,"action":1,"button_pressed":4,"time_out":false,"dwell_time":64.791015625,"response_time":1701468485291.98},{"trial":8,"action":1,"button_pressed":11,"time_out":false,"dwell_time":48.6630859375,"response_time":1701468485792.46},{"trial":8,"action":1,"button_pressed":3,"time_out":false,"dwell_time":64.412841796875,"response_time":1701468486091.47},{"trial":8,"action":1,"button_pressed":2,"time_out":false,"dwell_time":64.74609375,"response_time":1701468486608.15},{"trial":8,"action":1,"button_pressed":10,"time_out":false,"dwell_time":64.4970703125,"response_time":1701468487108.01},{"trial":8,"action":1,"button_pressed":6,"time_out":false,"dwell_time":30.867919921875,"response_time":1701468487541.56},{"trial":8,"action":9,"button_pressed":-1,"time_out":false,"dwell_time":47.621826171875,"response_time":1701468488107.66},{"trial":9,"action":1,"button_pressed":0,"time_out":false,"dwell_time":64.01611328125,"response_time":1701468507617.11},{"trial":9,"action":1,"button_pressed":8,"time_out":false,"dwell_time":63.026123046875,"response_time":1701468508050.14},{"trial":9,"action":1,"button_pressed":5,"time_out":false,"dwell_time":46.8330078125,"response_time":1701468508400.51},{"trial":9,"action":1,"button_pressed":6,"time_out":false,"dwell_time":30.576904296875,"response_time":1701468508933.67},{"trial":9,"action":1,"button_pressed":10,"time_out":false,"dwell_time":63.85888671875,"response_time":1701468509316.73},{"trial":9,"action":1,"button_pressed":2,"time_out":false,"dwell_time":46.963134765625,"response_time":1701468509783.33},{"trial":9,"action":1,"button_pressed":9,"time_out":false,"dwell_time":48.2509765625,"response_time":1701468510283.83},{"trial":9,"action":9,"button_pressed":-1,"time_out":false,"dwell_time":64.427001953125,"response_time":1701468511433.46},{"trial":10,"action":1,"button_pressed":7,"time_out":false,"dwell_time":47.93212890625,"response_time":1701468533793.01},{"trial":10,"action":1,"button_pressed":5,"time_out":false,"dwell_time":47.77001953125,"response_time":1701468534492.6},{"trial":10,"action":1,"button_pressed":3,"time_out":false,"dwell_time":64.5390625,"response_time":1701468535075.15},{"trial":10,"action":1,"button_pressed":4,"time_out":false,"dwell_time":47.677978515625,"response_time":1701468535375.55},{"trial":10,"action":1,"button_pressed":9,"time_out":false,"dwell_time":30.105224609375,"response_time":1701468535858.03},{"trial":10,"action":1,"button_pressed":1,"time_out":false,"dwell_time":31.009033203125,"response_time":1701468536275.24},{"trial":10,"action":1,"button_pressed":2,"time_out":false,"dwell_time":47.013916015625,"response_time":1701468536857.75},{"trial":10,"action":1,"button_pressed":8,"time_out":false,"dwell_time":31.14892578125,"response_time":1701468537174.62},{"trial":10,"action":9,"button_pressed":-1,"time_out":false,"dwell_time":15.941162109375,"response_time":1701468538391.75},{"trial":11,"action":1,"button_pressed":8,"time_out":false,"dwell_time":64.14306640625,"response_time":1701468560616.29},{"trial":11,"action":1,"button_pressed":9,"time_out":false,"dwell_time":80.69580078125,"response_time":1701468561067},{"trial":11,"action":1,"button_pressed":2,"time_out":false,"dwell_time":63.805908203125,"response_time":1701468561499.18},{"trial":11,"action":1,"button_pressed":10,"time_out":false,"dwell_time":64.72802734375,"response_time":1701468561933.2},{"trial":11,"action":1,"button_pressed":1,"time_out":false,"dwell_time":63.81982421875,"response_time":1701468562398.81},{"trial":11,"action":1,"button_pressed":0,"time_out":false,"dwell_time":63.81103515625,"response_time":1701468563099.3},{"trial":11,"action":1,"button_pressed":3,"time_out":false,"dwell_time":47.55517578125,"response_time":1701468567748.05},{"trial":11,"action":1,"button_pressed":5,"time_out":false,"dwell_time":13.56103515625,"response_time":1701468568197.25},{"trial":11,"action":9,"button_pressed":-1,"time_out":false,"dwell_time":13.953857421875,"response_time":1701468568730.03}]}