{"meta_data":{"additional_headers":{},"game_name":"Recollect","version":"2.53.01","user_name":"145","organization":"braingamecenter","study":"mpl2_2022_11","session_number":0,"device_id":"74342D95-EE82-45E3-8ADF-48FB3203C5DD"},"data":[{"stage":"Practice","trial":0,"sequence":"6F","letter_input":"F","number_input":"6","is_correct":true,"presentation_start_time":1701468649651.71,"presentation_end_time":1701468652654.11,"response_time":1701468659450.07},{"stage":"Practice","trial":1,"sequence":"G4","letter_input":"G","number_input":"4","is_correct":true,"presentation_start_time":1701468660981.25,"presentation_end_time":1701468663983.75,"response_time":1701468669128.62},{"stage":"Practice","trial":2,"sequence":"3W5","letter_input":"W","number_input":"35","is_correct":true,"presentation_start_time":1701468670661.38,"presentation_end_time":1701468675163.27,"response_time":1701468680874.66},{"stage":"Practice","trial":3,"sequence":"T7L","letter_input":"LT","number_input":"7","is_correct":true,"presentation_start_time":1701468682407.45,"presentation_end_time":1701468686909.43,"response_time":1701468693403.87},{"stage":"Practice","trial":4,"sequence":"9J1","letter_input":"J","number_input":"19","is_correct":true,"presentation_start_time":1701468694936.64,"presentation_end_time":1701468699438.57,"response_time":1701468705333.36},{"stage":"Calibration","trial":0,"sequence":"9C","letter_input":"C","number_input":"9","is_correct":true,"presentation_start_time":1701468720344.97,"presentation_end_time":1701468723347.34,"response_time":1701468727875.76},{"stage":"Calibration","trial":1,"sequence":"T5","letter_input":"T","number_input":"5","is_correct":true,"presentation_start_time":1701468729408.52,"presentation_end_time":1701468732410.96,"response_time":1701468736639.58},{"stage":"Calibration","trial":2,"sequence":"7L2","letter_input":"L","number_input":"27","is_correct":true,"presentation_start_time":1701468738172.23,"presentation_end_time":1701468742674.06,"response_time":1701468747935.76},{"stage":"Calibration","trial":3,"sequence":"F4A","letter_input":"AF","number_input":"4","is_correct":true,"presentation_start_time":1701468749468.42,"presentation_end_time":1701468753970.45,"response_time":1701468758965.41},{"stage":"Calibration","trial":4,"sequence":"8Q3B","letter_input":"BQ","number_input":"38","is_correct":true,"presentation_start_time":1701468760498.18,"presentation_end_time":1701468766499.43,"response_time":1701468774093.61},{"stage":"Calibration","trial":5,"sequence":"S4C2","letter_input":"CS","number_input":"24","is_correct":true,"presentation_start_time":1701468775626.42,"presentation_end_time":1701468781627.78,"response_time":1701468790721.53},{"stage":"Calibration","trial":6,"sequence":"6V1L8","letter_input":"VL","number_input":"168","is_correct":false,"presentation_start_time":1701468792254.2,"presentation_end_time":1701468799755.09,"response_time":1701468812014.38},{"stage":"Calibration","trial":7,"sequence":"S4K2H","letter_input":"HKS","number_input":"24","is_correct":true,"presentation_start_time":1701468813547.24,"presentation_end_time":1701468821048.15,"response_time":1701468848435.56},{"stage":"Calibration","trial":8,"sequence":"3Y8R6P","letter_input":"PRS","number_input":"368","is_correct":false,"presentation_start_time":1701468849968.44,"presentation_end_time":1701468858968.7,"response_time":1701468881157.98},{"stage":"Calibration","trial":9,"sequence":"N4L1E7","letter_input":"ELN","number_input":"147","is_correct":true,"presentation_start_time":1701468882690.72,"presentation_end_time":1701468891691.19,"response_time":1701468913730.43},{"stage":"Calibration","trial":10,"sequence":"2W8P7M6","letter_input":"ILPW","number_input":"2467","is_correct":false,"presentation_start_time":1701468915263.15,"presentation_end_time":1701468925763.08,"response_time":1701468955583.18},{"stage":"Calibration","trial":11,"sequence":"F5Y3T9A","letter_input":"FLPY","number_input":"269","is_correct":false,"presentation_start_time":1701468957115.85,"presentation_end_time":1701468967615.69,"response_time":1701469002334.29}]}