{"meta_data":{"additional_headers":{},"game_name":"Recollect","version":"2.53.01","user_name":"146","organization":"braingamecenter","study":"mpl2_2022_11","session_number":0,"device_id":"74342D95-EE82-45E3-8ADF-48FB3203C5DD"},"data":[{"stage":"Practice","trial":0,"sequence":"6F","letter_input":"F","number_input":"6","is_correct":true,"presentation_start_time":1701709920072.99,"presentation_end_time":1701709923075.43,"response_time":1701709929906.21},{"stage":"Practice","trial":1,"sequence":"G4","letter_input":"G","number_input":"4","is_correct":true,"presentation_start_time":1701709931435.83,"presentation_end_time":1701709934438.36,"response_time":1701709938750.09},{"stage":"Practice","trial":2,"sequence":"3W5","letter_input":"W","number_input":"35","is_correct":true,"presentation_start_time":1701709940282.79,"presentation_end_time":1701709944784.69,"response_time":1701709949346.57},{"stage":"Practice","trial":3,"sequence":"T7L","letter_input":"LT","number_input":"7","is_correct":true,"presentation_start_time":1701709950879.21,"presentation_end_time":1701709955381.17,"response_time":1701709961175.95},{"stage":"Practice","trial":4,"sequence":"9J1","letter_input":"J","number_input":"19","is_correct":true,"presentation_start_time":1701709962708.59,"presentation_end_time":1701709967210.6,"response_time":1701709971122.44},{"stage":"Calibration","trial":0,"sequence":"7R","letter_input":"R","number_input":"7","is_correct":true,"presentation_start_time":1701709985351.02,"presentation_end_time":1701709988353.4,"response_time":1701709992165.45},{"stage":"Calibration","trial":1,"sequence":"W8","letter_input":"W","number_input":"8","is_correct":true,"presentation_start_time":1701709993698.09,"presentation_end_time":1701709996700.5,"response_time":1701709999812.88},{"stage":"Calibration","trial":2,"sequence":"9R5","letter_input":"R","number_input":"59","is_correct":true,"presentation_start_time":1701710001345.6,"presentation_end_time":1701710005847.48,"response_time":1701710009209.73},{"stage":"Calibration","trial":3,"sequence":"J8H","letter_input":"HJ","number_input":"8","is_correct":true,"presentation_start_time":1701710010742.4,"presentation_end_time":1701710015244.3,"response_time":1701710020689.22},{"stage":"Calibration","trial":4,"sequence":"4S2Q","letter_input":"QS","number_input":"24","is_correct":true,"presentation_start_time":1701710022221.89,"presentation_end_time":1701710028223.29,"response_time":1701710036817.06},{"stage":"Calibration","trial":5,"sequence":"M9F1","letter_input":"FM","number_input":"19","is_correct":true,"presentation_start_time":1701710038349.74,"presentation_end_time":1701710044351.09,"response_time":1701710048829.64},{"stage":"Calibration","trial":6,"sequence":"2Z7B4","letter_input":"BZ","number_input":"247","is_correct":true,"presentation_start_time":1701710050362.32,"presentation_end_time":1701710057863.24,"response_time":1701710063408.14},{"stage":"Calibration","trial":7,"sequence":"M8K5H","letter_input":"HKM","number_input":"58","is_correct":true,"presentation_start_time":1701710064940.72,"presentation_end_time":1701710072441.73,"response_time":1701710084217.7},{"stage":"Calibration","trial":8,"sequence":"6A4T1J","letter_input":"AJT","number_input":"146","is_correct":true,"presentation_start_time":1701710085750.39,"presentation_end_time":1701710094750.89,"response_time":1701710105760.35},{"stage":"Calibration","trial":9,"sequence":"G5C2P7","letter_input":"CJP","number_input":"257","is_correct":false,"presentation_start_time":1701710107293.13,"presentation_end_time":1701710116293.29,"response_time":1701710124670.69},{"stage":"Calibration","trial":10,"sequence":"6B4V1Q9","letter_input":"AQV","number_input":"1469","is_correct":false,"presentation_start_time":1701710126203.39,"presentation_end_time":1701710136703.43,"response_time":1701710165806.73},{"stage":"Calibration","trial":11,"sequence":"K8W5S3Z","letter_input":"KWZ","number_input":"158","is_correct":false,"presentation_start_time":1701710167339.52,"presentation_end_time":1701710177839.35,"response_time":1701710192514.48}]}