{"meta_data":{"additional_headers":{},"game_name":"Recollect","version":"2.53.01","user_name":"146","organization":"braingamecenter","study":"mpl2_2022_11","session_number":0,"device_id":"74342D95-EE82-45E3-8ADF-48FB3203C5DD"},"data":[{"trial":0,"action":1,"button_pressed":3,"time_out":false,"dwell_time":48.109130859375,"response_time":1701709617143.97},{"trial":0,"action":1,"button_pressed":2,"time_out":false,"dwell_time":47.780029296875,"response_time":1701709617510.17},{"trial":0,"action":9,"button_pressed":-1,"time_out":false,"dwell_time":42.61181640625,"response_time":1701709618205.37},{"trial":1,"action":1,"button_pressed":2,"time_out":false,"dwell_time":48.133056640625,"response_time":1701709627723.69},{"trial":1,"action":1,"button_pressed":4,"time_out":false,"dwell_time":47.677978515625,"response_time":1701709628023.18},{"trial":1,"action":1,"button_pressed":1,"time_out":false,"dwell_time":47.048095703125,"response_time":1701709628439.85},{"trial":1,"action":9,"button_pressed":-1,"time_out":false,"dwell_time":64.451904296875,"response_time":1701709628923.73},{"trial":2,"action":1,"button_pressed":0,"time_out":false,"dwell_time":63.39501953125,"response_time":1701709641035.25},{"trial":2,"action":1,"button_pressed":10,"time_out":false,"dwell_time":30.114990234375,"response_time":1701709641468.71},{"trial":2,"action":1,"button_pressed":2,"time_out":false,"dwell_time":47.7587890625,"response_time":1701709641935.97},{"trial":2,"action":1,"button_pressed":6,"time_out":false,"dwell_time":47.508056640625,"response_time":1701709642402.44},{"trial":2,"action":9,"button_pressed":-1,"time_out":false,"dwell_time":49.0078125,"response_time":1701709643136.04},{"trial":3,"action":1,"button_pressed":6,"time_out":false,"dwell_time":30.23583984375,"response_time":1701709657296.89},{"trial":3,"action":1,"button_pressed":3,"time_out":false,"dwell_time":47.934814453125,"response_time":1701709657696.77},{"trial":3,"action":1,"button_pressed":8,"time_out":false,"dwell_time":46.60498046875,"response_time":1701709658079.76},{"trial":3,"action":1,"button_pressed":11,"time_out":false,"dwell_time":64.614990234375,"response_time":1701709658579.91},{"trial":3,"action":1,"button_pressed":0,"time_out":false,"dwell_time":46.925048828125,"response_time":1701709659162.88},{"trial":3,"action":9,"button_pressed":-1,"time_out":false,"dwell_time":48.385986328125,"response_time":1701709661895.62},{"trial":4,"action":1,"button_pressed":4,"time_out":false,"dwell_time":64.487060546875,"response_time":1701709680722.16},{"trial":4,"action":1,"button_pressed":11,"time_out":false,"dwell_time":64.373046875,"response_time":1701709681155.68},{"trial":4,"action":1,"button_pressed":3,"time_out":false,"dwell_time":63.7060546875,"response_time":1701709681638.05},{"trial":4,"action":1,"button_pressed":2,"time_out":false,"dwell_time":63.99609375,"response_time":1701709682137.89},{"trial":4,"action":1,"button_pressed":10,"time_out":false,"dwell_time":63.883056640625,"response_time":1701709682537.91},{"trial":4,"action":1,"button_pressed":6,"time_out":false,"dwell_time":63.843017578125,"response_time":1701709682904.34},{"trial":4,"action":9,"button_pressed":-1,"time_out":false,"dwell_time":65.441162109375,"response_time":1701709684005.15},{"trial":5,"action":1,"button_pressed":11,"time_out":false,"dwell_time":48.65283203125,"response_time":1701709703748.69},{"trial":5,"action":1,"button_pressed":4,"time_out":false,"dwell_time":98.080810546875,"response_time":1701709704214.54},{"trial":5,"action":1,"button_pressed":3,"time_out":false,"dwell_time":63.987060546875,"response_time":1701709704513.93},{"trial":5,"action":1,"button_pressed":10,"time_out":false,"dwell_time":63.7880859375,"response_time":1701709704864.26},{"trial":5,"action":1,"button_pressed":2,"time_out":false,"dwell_time":47.76806640625,"response_time":1701709705314.68},{"trial":5,"action":1,"button_pressed":8,"time_out":false,"dwell_time":30.247802734375,"response_time":1701709705697.2},{"trial":5,"action":1,"button_pressed":1,"time_out":false,"dwell_time":46.97705078125,"response_time":1701709706163.57},{"trial":5,"action":9,"button_pressed":-1,"time_out":false,"dwell_time":47.345947265625,"response_time":1701709707113.66},{"trial":6,"action":1,"button_pressed":4,"time_out":false,"dwell_time":30.507080078125,"response_time":1701709729072.64},{"trial":6,"action":1,"button_pressed":11,"time_out":false,"dwell_time":30.7578125,"response_time":1701709729506.42},{"trial":6,"action":1,"button_pressed":7,"time_out":false,"dwell_time":64.455078125,"response_time":1701709729805.86},{"trial":6,"action":1,"button_pressed":0,"time_out":false,"dwell_time":63.819091796875,"response_time":1701709730255.04},{"trial":6,"action":1,"button_pressed":2,"time_out":false,"dwell_time":64.5341796875,"response_time":1701709730722.18},{"trial":6,"action":1,"button_pressed":1,"time_out":false,"dwell_time":114.847900390625,"response_time":1701709731837.84},{"trial":6,"action":1,"button_pressed":3,"time_out":false,"dwell_time":413.06494140625,"response_time":1701709733553.9},{"trial":6,"action":1,"button_pressed":9,"time_out":false,"dwell_time":47.669921875,"response_time":1701709734421.57},{"trial":6,"action":9,"button_pressed":-1,"time_out":true,"dwell_time":10058.9270019531,"response_time":1701709744432.83},{"trial":7,"action":1,"button_pressed":8,"time_out":false,"dwell_time":64.969970703125,"response_time":1701709769359.58},{"trial":7,"action":1,"button_pressed":9,"time_out":false,"dwell_time":79.72900390625,"response_time":1701709770474.79},{"trial":7,"action":1,"button_pressed":4,"time_out":false,"dwell_time":29.510986328125,"response_time":1701709771107.68},{"trial":7,"action":1,"button_pressed":1,"time_out":false,"dwell_time":46.676025390625,"response_time":1701709771691.52},{"trial":7,"action":1,"button_pressed":6,"time_out":false,"dwell_time":81.10693359375,"response_time":1701709772041.81},{"trial":7,"action":1,"button_pressed":2,"time_out":false,"dwell_time":63.10009765625,"response_time":1701709772557.56},{"trial":7,"action":1,"button_pressed":0,"time_out":false,"dwell_time":30.824951171875,"response_time":1701709773658.28},{"trial":7,"action":1,"button_pressed":7,"time_out":false,"dwell_time":29.7841796875,"response_time":1701709774107.37},{"trial":7,"action":1,"button_pressed":10,"time_out":false,"dwell_time":30.198974609375,"response_time":1701709775523.55},{"trial":7,"action":9,"button_pressed":-1,"time_out":false,"dwell_time":47.533935546875,"response_time":1701709776407.2},{"trial":8,"action":1,"button_pressed":4,"time_out":false,"dwell_time":47.990966796875,"response_time":1701709805546.98},{"trial":8,"action":1,"button_pressed":3,"time_out":false,"dwell_time":48.41796875,"response_time":1701709806147.4},{"trial":8,"action":1,"button_pressed":10,"time_out":false,"dwell_time":30.2509765625,"response_time":1701709807196.26},{"trial":8,"action":1,"button_pressed":1,"time_out":false,"dwell_time":47.47705078125,"response_time":1701709808062.51},{"trial":8,"action":1,"button_pressed":4,"time_out":false,"dwell_time":63.416015625,"response_time":1701709812327.24},{"trial":8,"action":0,"button_pressed":-1,"time_out":false,"dwell_time":47.906005859375,"response_time":1701709815044.5},{"trial":8,"action":1,"button_pressed":4,"time_out":false,"dwell_time":47.740966796875,"response_time":1701709817893.55},{"trial":8,"action":1,"button_pressed":3,"time_out":false,"dwell_time":48.43212890625,"response_time":1701709818426.66},{"trial":8,"action":1,"button_pressed":10,"time_out":false,"dwell_time":47.201904296875,"response_time":1701709819292.15},{"trial":8,"action":1,"button_pressed":1,"time_out":false,"dwell_time":64.583984375,"response_time":1701709820142.2},{"trial":8,"action":1,"button_pressed":9,"time_out":false,"dwell_time":48.320068359375,"response_time":1701709820959.04},{"trial":8,"action":1,"button_pressed":8,"time_out":false,"dwell_time":47.20703125,"response_time":1701709822740.99},{"trial":8,"action":1,"button_pressed":6,"time_out":false,"dwell_time":30.125,"response_time":1701709823840.67},{"trial":8,"action":1,"button_pressed":7,"time_out":false,"dwell_time":31.652099609375,"response_time":1701709825424.25},{"trial":8,"action":1,"button_pressed":2,"time_out":false,"dwell_time":47.701904296875,"response_time":1701709827290.22},{"trial":8,"action":9,"button_pressed":-1,"time_out":false,"dwell_time":63.68896484375,"response_time":1701709829805.31},{"trial":9,"action":1,"button_pressed":7,"time_out":false,"dwell_time":64.5029296875,"response_time":1701709850548.68},{"trial":9,"action":1,"button_pressed":9,"time_out":false,"dwell_time":63.871826171875,"response_time":1701709850947.7},{"trial":9,"action":1,"button_pressed":1,"time_out":false,"dwell_time":65.1708984375,"response_time":1701709851531.57},{"trial":9,"action":1,"button_pressed":4,"time_out":false,"dwell_time":80.572998046875,"response_time":1701709852297.3},{"trial":9,"action":1,"button_pressed":11,"time_out":false,"dwell_time":63.863037109375,"response_time":1701709853597.68},{"trial":9,"action":1,"button_pressed":6,"time_out":false,"dwell_time":46.683837890625,"response_time":1701709853997.17},{"trial":9,"action":1,"button_pressed":8,"time_out":false,"dwell_time":12.541015625,"response_time":1701709854396.22},{"trial":9,"action":9,"button_pressed":-1,"time_out":false,"dwell_time":64.451904296875,"response_time":1701709855247.51},{"trial":10,"action":1,"button_pressed":10,"time_out":false,"dwell_time":64.6650390625,"response_time":1701709875673.66},{"trial":10,"action":1,"button_pressed":1,"time_out":false,"dwell_time":64.6240234375,"response_time":1701709876090},{"trial":10,"action":1,"button_pressed":2,"time_out":false,"dwell_time":64.757080078125,"response_time":1701709876573.21},{"trial":10,"action":1,"button_pressed":7,"time_out":false,"dwell_time":47.51708984375,"response_time":1701709877223.34},{"trial":10,"action":1,"button_pressed":6,"time_out":false,"dwell_time":63.751953125,"response_time":1701709877638.74},{"trial":10,"action":1,"button_pressed":0,"time_out":false,"dwell_time":64.067138671875,"response_time":1701709878306.13},{"trial":10,"action":9,"button_pressed":-1,"time_out":false,"dwell_time":64.470947265625,"response_time":1701709879688.47}]}