{"meta_data":{"additional_headers":{},"game_name":"Recollect","version":"2.53.01","user_name":"147","organization":"braingamecenter","study":"mpl2_2022_11","session_number":0,"device_id":"74342D95-EE82-45E3-8ADF-48FB3203C5DD"},"data":[{"stage":"Practice","trial":0,"sequence":"6F","letter_input":"F","number_input":"6","is_correct":true,"presentation_start_time":1701820800886.91,"presentation_end_time":1701820803889.2,"response_time":1701820809169.34},{"stage":"Practice","trial":1,"sequence":"G4","letter_input":"G","number_input":"4","is_correct":true,"presentation_start_time":1701820810700.35,"presentation_end_time":1701820813702.65,"response_time":1701820817798.17},{"stage":"Practice","trial":2,"sequence":"3W5","letter_input":"W","number_input":"5","is_correct":false,"presentation_start_time":1701820819330.91,"presentation_end_time":1701820823833,"response_time":1701820828378.1},{"stage":"Practice","trial":3,"sequence":"T7L","letter_input":"LT","number_input":"7","is_correct":true,"presentation_start_time":1701820831410.22,"presentation_end_time":1701820835912.25,"response_time":1701820842090.2},{"stage":"Practice","trial":4,"sequence":"9J1","letter_input":"J","number_input":"19","is_correct":true,"presentation_start_time":1701820843622.84,"presentation_end_time":1701820848124.88,"response_time":1701820853386.43},{"stage":"Calibration","trial":0,"sequence":"A7","letter_input":"A","number_input":"7","is_correct":true,"presentation_start_time":1701820856335.36,"presentation_end_time":1701820859337.88,"response_time":1701820862983.29},{"stage":"Calibration","trial":1,"sequence":"5N","letter_input":"N","number_input":"5","is_correct":true,"presentation_start_time":1701820864516,"presentation_end_time":1701820867518.52,"response_time":1701820871080.52},{"stage":"Calibration","trial":2,"sequence":"S3D","letter_input":"DS","number_input":"3","is_correct":true,"presentation_start_time":1701820872613.38,"presentation_end_time":1701820877115.34,"response_time":1701820881160.62},{"stage":"Calibration","trial":3,"sequence":"8K4","letter_input":"K","number_input":"48","is_correct":true,"presentation_start_time":1701820882693.38,"presentation_end_time":1701820887195.33,"response_time":1701820890240.97},{"stage":"Calibration","trial":4,"sequence":"W7T2","letter_input":"TW","number_input":"27","is_correct":true,"presentation_start_time":1701820891773.67,"presentation_end_time":1701820897775.22,"response_time":1701820901503.95},{"stage":"Calibration","trial":5,"sequence":"8Z1Q","letter_input":"QZ","number_input":"18","is_correct":true,"presentation_start_time":1701820903036.66,"presentation_end_time":1701820909038.21,"response_time":1701820912850.23},{"stage":"Calibration","trial":6,"sequence":"H6S3M","letter_input":"HMS","number_input":"36","is_correct":true,"presentation_start_time":1701820914382.86,"presentation_end_time":1701820921883.98,"response_time":1701820926662.29},{"stage":"Calibration","trial":7,"sequence":"7Y2C9","letter_input":"CY","number_input":"279","is_correct":true,"presentation_start_time":1701820928195.1,"presentation_end_time":1701820935695.99,"response_time":1701820939708.08},{"stage":"Calibration","trial":8,"sequence":"N1J5D3","letter_input":"JN","number_input":"135","is_correct":false,"presentation_start_time":1701820941240.76,"presentation_end_time":1701820950241.32,"response_time":1701820954186.69},{"stage":"Calibration","trial":9,"sequence":"9H6Y4M","letter_input":"HMY","number_input":"469","is_correct":true,"presentation_start_time":1701820955719.38,"presentation_end_time":1701820964719.82,"response_time":1701820969265.01},{"stage":"Calibration","trial":10,"sequence":"T8D5Z2Q","letter_input":"DQTZ","number_input":"258","is_correct":true,"presentation_start_time":1701820970797.72,"presentation_end_time":1701820981297.69,"response_time":1701820988725.3},{"stage":"Calibration","trial":11,"sequence":"7K1H9B3","letter_input":"BHK","number_input":"1379","is_correct":true,"presentation_start_time":1701820990258.12,"presentation_end_time":1701821000758.1,"response_time":1701821005303.14},{"stage":"Calibration","trial":12,"sequence":"R5A2Z8T3","letter_input":"ARTZ","number_input":"2378","is_correct":false,"presentation_start_time":1701821006835.82,"presentation_end_time":1701821018835.53,"response_time":1701821023813.7},{"stage":"Calibration","trial":13,"sequence":"6M1W9S4G","letter_input":"MZ","number_input":"164","is_correct":false,"presentation_start_time":1701821025346.52,"presentation_end_time":1701821037346.14,"response_time":1701821041941.11}]}