{"meta_data":{"additional_headers":{},"game_name":"Recollect","version":"2.53.01","user_name":"147","organization":"braingamecenter","study":"mpl2_2022_11","session_number":0,"device_id":"74342D95-EE82-45E3-8ADF-48FB3203C5DD"},"data":[{"trial":0,"action":1,"button_pressed":10,"time_out":false,"dwell_time":97.037841796875,"response_time":1701820571047.82},{"trial":0,"action":1,"button_pressed":7,"time_out":false,"dwell_time":30.031982421875,"response_time":1701820571664.05},{"trial":0,"action":9,"button_pressed":-1,"time_out":false,"dwell_time":57.614990234375,"response_time":1701820572074.51},{"trial":1,"action":1,"button_pressed":6,"time_out":false,"dwell_time":47.797119140625,"response_time":1701820581328.49},{"trial":1,"action":1,"button_pressed":5,"time_out":false,"dwell_time":64.2099609375,"response_time":1701820581843.74},{"trial":1,"action":1,"button_pressed":4,"time_out":false,"dwell_time":63.94287109375,"response_time":1701820582260.93},{"trial":1,"action":9,"button_pressed":-1,"time_out":false,"dwell_time":48.172119140625,"response_time":1701820582611.67},{"trial":2,"action":1,"button_pressed":8,"time_out":false,"dwell_time":47.781005859375,"response_time":1701820594240.1},{"trial":2,"action":1,"button_pressed":1,"time_out":false,"dwell_time":47.05908203125,"response_time":1701820594739.99},{"trial":2,"action":1,"button_pressed":3,"time_out":false,"dwell_time":47.073974609375,"response_time":1701820594989.88},{"trial":2,"action":1,"button_pressed":11,"time_out":false,"dwell_time":63.968994140625,"response_time":1701820595372.49},{"trial":2,"action":9,"button_pressed":-1,"time_out":false,"dwell_time":65.44091796875,"response_time":1701820595707.01},{"trial":3,"action":1,"button_pressed":10,"time_out":false,"dwell_time":63.301025390625,"response_time":1701820609901.17},{"trial":3,"action":1,"button_pressed":5,"time_out":false,"dwell_time":63.91796875,"response_time":1701820610151.07},{"trial":3,"action":1,"button_pressed":3,"time_out":false,"dwell_time":47.637939453125,"response_time":1701820611351.69},{"trial":3,"action":1,"button_pressed":6,"time_out":false,"dwell_time":63.654052734375,"response_time":1701820611600.51},{"trial":3,"action":1,"button_pressed":2,"time_out":false,"dwell_time":80.73193359375,"response_time":1701820611934.69},{"trial":3,"action":9,"button_pressed":-1,"time_out":false,"dwell_time":31.0361328125,"response_time":1701820612751},{"trial":4,"action":1,"button_pressed":2,"time_out":false,"dwell_time":47.31103515625,"response_time":1701820629512.02},{"trial":4,"action":1,"button_pressed":6,"time_out":false,"dwell_time":64.463134765625,"response_time":1701820630161.78},{"trial":4,"action":1,"button_pressed":10,"time_out":false,"dwell_time":47.719970703125,"response_time":1701820630462.21},{"trial":4,"action":1,"button_pressed":7,"time_out":false,"dwell_time":48.19091796875,"response_time":1701820631011.92},{"trial":4,"action":1,"button_pressed":9,"time_out":false,"dwell_time":64.429931640625,"response_time":1701820631377.96},{"trial":4,"action":1,"button_pressed":3,"time_out":false,"dwell_time":47.785888671875,"response_time":1701820631878.34},{"trial":4,"action":9,"button_pressed":-1,"time_out":false,"dwell_time":16.458984375,"response_time":1701820632343.94},{"trial":5,"action":1,"button_pressed":11,"time_out":false,"dwell_time":81.369873046875,"response_time":1701820651871.51},{"trial":5,"action":1,"button_pressed":4,"time_out":false,"dwell_time":64.265869140625,"response_time":1701820652120.83},{"trial":5,"action":1,"button_pressed":3,"time_out":false,"dwell_time":63.19189453125,"response_time":1701820652537.12},{"trial":5,"action":1,"button_pressed":10,"time_out":false,"dwell_time":63.765869140625,"response_time":1701820653137.49},{"trial":5,"action":1,"button_pressed":8,"time_out":false,"dwell_time":81.195068359375,"response_time":1701820653620.71},{"trial":5,"action":1,"button_pressed":2,"time_out":false,"dwell_time":63.881103515625,"response_time":1701820654053.83},{"trial":5,"action":1,"button_pressed":1,"time_out":false,"dwell_time":30.966064453125,"response_time":1701820654570.77},{"trial":5,"action":9,"button_pressed":-1,"time_out":false,"dwell_time":48.216064453125,"response_time":1701820655487.54},{"trial":6,"action":1,"button_pressed":5,"time_out":false,"dwell_time":64.257080078125,"response_time":1701820676329.3},{"trial":6,"action":1,"button_pressed":3,"time_out":false,"dwell_time":80.742919921875,"response_time":1701820676779.83},{"trial":6,"action":1,"button_pressed":8,"time_out":false,"dwell_time":46.759033203125,"response_time":1701820677196},{"trial":6,"action":1,"button_pressed":11,"time_out":false,"dwell_time":63.787841796875,"response_time":1701820677779.27},{"trial":6,"action":1,"button_pressed":10,"time_out":false,"dwell_time":47.578125,"response_time":1701820678595.47},{"trial":6,"action":1,"button_pressed":7,"time_out":false,"dwell_time":30.01904296875,"response_time":1701820678961.99},{"trial":6,"action":1,"button_pressed":4,"time_out":false,"dwell_time":80.35498046875,"response_time":1701820679478.72},{"trial":6,"action":9,"button_pressed":-1,"time_out":false,"dwell_time":81.182861328125,"response_time":1701820680212.48},{"trial":7,"action":1,"button_pressed":0,"time_out":false,"dwell_time":30.64208984375,"response_time":1701820695723.67},{"trial":7,"action":1,"button_pressed":7,"time_out":false,"dwell_time":14.52392578125,"response_time":1701820696274.04},{"trial":7,"action":1,"button_pressed":10,"time_out":false,"dwell_time":47.6708984375,"response_time":1701820696739.65},{"trial":7,"action":1,"button_pressed":9,"time_out":false,"dwell_time":64.5791015625,"response_time":1701820697156.49},{"trial":7,"action":1,"button_pressed":4,"time_out":false,"dwell_time":63.087890625,"response_time":1701820697439.02},{"trial":7,"action":1,"button_pressed":1,"time_out":false,"dwell_time":64.721923828125,"response_time":1701820697806.39},{"trial":7,"action":9,"button_pressed":-1,"time_out":false,"dwell_time":65.243896484375,"response_time":1701820698340.05},{"trial":8,"action":1,"button_pressed":5,"time_out":false,"dwell_time":48.652099609375,"response_time":1701820713251.74},{"trial":8,"action":1,"button_pressed":9,"time_out":false,"dwell_time":81.31103515625,"response_time":1701820713784.63},{"trial":8,"action":1,"button_pressed":6,"time_out":false,"dwell_time":64.425048828125,"response_time":1701820714034.54},{"trial":8,"action":1,"button_pressed":8,"time_out":false,"dwell_time":63.60400390625,"response_time":1701820714783.96},{"trial":8,"action":1,"button_pressed":7,"time_out":false,"dwell_time":47.40478515625,"response_time":1701820715334.27},{"trial":8,"action":9,"button_pressed":-1,"time_out":false,"dwell_time":16.568115234375,"response_time":1701820717465.94},{"trial":9,"action":1,"button_pressed":11,"time_out":false,"dwell_time":81.364013671875,"response_time":1701820734377.71},{"trial":9,"action":1,"button_pressed":8,"time_out":false,"dwell_time":48.830078125,"response_time":1701820735111.04},{"trial":9,"action":1,"button_pressed":6,"time_out":false,"dwell_time":64.5390625,"response_time":1701820735610.5},{"trial":9,"action":1,"button_pressed":4,"time_out":false,"dwell_time":64.06494140625,"response_time":1701820736110.31},{"trial":9,"action":1,"button_pressed":1,"time_out":false,"dwell_time":64.26318359375,"response_time":1701820736593.1},{"trial":9,"action":1,"button_pressed":10,"time_out":false,"dwell_time":48.14501953125,"response_time":1701820737027.14},{"trial":9,"action":9,"button_pressed":-1,"time_out":false,"dwell_time":47.48193359375,"response_time":1701820737459.94},{"trial":10,"action":1,"button_pressed":11,"time_out":false,"dwell_time":81.0048828125,"response_time":1701820757436.15},{"trial":10,"action":1,"button_pressed":7,"time_out":false,"dwell_time":48.090087890625,"response_time":1701820758003.47},{"trial":10,"action":1,"button_pressed":0,"time_out":false,"dwell_time":63.010009765625,"response_time":1701820758585.25},{"trial":10,"action":1,"button_pressed":5,"time_out":false,"dwell_time":79.9609375,"response_time":1701820758918.9},{"trial":10,"action":1,"button_pressed":8,"time_out":false,"dwell_time":80.02294921875,"response_time":1701820759285.23},{"trial":10,"action":1,"button_pressed":6,"time_out":false,"dwell_time":47.47705078125,"response_time":1701820759702.93},{"trial":10,"action":9,"button_pressed":-1,"time_out":false,"dwell_time":49.89599609375,"response_time":1701820760252.48},{"trial":11,"action":1,"button_pressed":1,"time_out":false,"dwell_time":64.205810546875,"response_time":1701820779579.54},{"trial":11,"action":1,"button_pressed":10,"time_out":false,"dwell_time":63.634033203125,"response_time":1701820780045.62},{"trial":11,"action":1,"button_pressed":5,"time_out":false,"dwell_time":29.871826171875,"response_time":1701820780495.4},{"trial":11,"action":1,"button_pressed":0,"time_out":false,"dwell_time":81.443115234375,"response_time":1701820781012.29},{"trial":11,"action":1,"button_pressed":7,"time_out":false,"dwell_time":80.56396484375,"response_time":1701820781461.48},{"trial":11,"action":1,"button_pressed":3,"time_out":false,"dwell_time":64.166015625,"response_time":1701820781894.96},{"trial":11,"action":9,"button_pressed":-1,"time_out":false,"dwell_time":16.761962890625,"response_time":1701820782727.84}]}