{"meta_data":{"additional_headers":{},"game_name":"Recollect","version":"2.53.01","user_name":"148","organization":"braingamecenter","study":"mpl2_2022_11","session_number":0,"device_id":"74342D95-EE82-45E3-8ADF-48FB3203C5DD"},"data":[{"stage":"Practice","trial":0,"sequence":"6F","letter_input":"F","number_input":"6","is_correct":true,"presentation_start_time":1701884298758.11,"presentation_end_time":1701884301760.76,"response_time":1701884309507.73},{"stage":"Practice","trial":1,"sequence":"G4","letter_input":"G","number_input":"4","is_correct":true,"presentation_start_time":1701884311037.41,"presentation_end_time":1701884314039.94,"response_time":1701884320101.15},{"stage":"Practice","trial":2,"sequence":"3W5","letter_input":"W","number_input":"35","is_correct":true,"presentation_start_time":1701884321633.95,"presentation_end_time":1701884326135.95,"response_time":1701884332163.85},{"stage":"Practice","trial":3,"sequence":"T7L","letter_input":"LT","number_input":"7","is_correct":true,"presentation_start_time":1701884333696.7,"presentation_end_time":1701884338198.45,"response_time":1701884345309.51},{"stage":"Practice","trial":4,"sequence":"9J1","letter_input":"J","number_input":"19","is_correct":true,"presentation_start_time":1701884346842.3,"presentation_end_time":1701884351344.37,"response_time":1701884358321.85},{"stage":"Calibration","trial":0,"sequence":"V3","letter_input":"V","number_input":"3","is_correct":true,"presentation_start_time":1701884377665.4,"presentation_end_time":1701884380667.91,"response_time":1701884389578.26},{"stage":"Calibration","trial":1,"sequence":"7J","letter_input":"J","number_input":"7","is_correct":true,"presentation_start_time":1701884391111.2,"presentation_end_time":1701884394115.92,"response_time":1701884398546.84},{"stage":"Calibration","trial":2,"sequence":"Y8G","letter_input":"GY","number_input":"8","is_correct":true,"presentation_start_time":1701884400080.4,"presentation_end_time":1701884404584.08,"response_time":1701884409930.56},{"stage":"Calibration","trial":3,"sequence":"6A1","letter_input":"A","number_input":"16","is_correct":true,"presentation_start_time":1701884411463.76,"presentation_end_time":1701884415966.51,"response_time":1701884420595.79},{"stage":"Calibration","trial":4,"sequence":"V8G5","letter_input":"GV","number_input":"58","is_correct":true,"presentation_start_time":1701884422128.52,"presentation_end_time":1701884428130.65,"response_time":1701884434092.25},{"stage":"Calibration","trial":5,"sequence":"9R3C","letter_input":"CR","number_input":"39","is_correct":true,"presentation_start_time":1701884435625.11,"presentation_end_time":1701884441626.74,"response_time":1701884449271.27},{"stage":"Calibration","trial":6,"sequence":"Z5J1G","letter_input":"CEJ","number_input":"15","is_correct":false,"presentation_start_time":1701884450803.89,"presentation_end_time":1701884458304.95,"response_time":1701884481827.37},{"stage":"Calibration","trial":7,"sequence":"2E8C6","letter_input":"EC","number_input":"268","is_correct":false,"presentation_start_time":1701884483360.18,"presentation_end_time":1701884490861.2,"response_time":1701884503453.7}]}