{"meta_data":{"additional_headers":{},"game_name":"Recollect","version":"2.53.01","user_name":"148","organization":"braingamecenter","study":"mpl2_2022_11","session_number":0,"device_id":"74342D95-EE82-45E3-8ADF-48FB3203C5DD"},"data":[{"trial":0,"action":1,"button_pressed":1,"time_out":false,"dwell_time":80.583984375,"response_time":1701884018669.55},{"trial":0,"action":1,"button_pressed":5,"time_out":false,"dwell_time":80.5478515625,"response_time":1701884019035.14},{"trial":0,"action":9,"button_pressed":-1,"time_out":false,"dwell_time":74.52001953125,"response_time":1701884019845.36},{"trial":1,"action":1,"button_pressed":3,"time_out":false,"dwell_time":80.905029296875,"response_time":1701884029581.89},{"trial":1,"action":1,"button_pressed":9,"time_out":false,"dwell_time":46.310791015625,"response_time":1701884030131.19},{"trial":1,"action":1,"button_pressed":7,"time_out":false,"dwell_time":80.2919921875,"response_time":1701884030597.97},{"trial":1,"action":9,"button_pressed":-1,"time_out":false,"dwell_time":64.411865234375,"response_time":1701884031398.79},{"trial":2,"action":1,"button_pressed":11,"time_out":false,"dwell_time":81.611083984375,"response_time":1701884043694.55},{"trial":2,"action":1,"button_pressed":0,"time_out":false,"dwell_time":80.65283203125,"response_time":1701884043910.4},{"trial":2,"action":1,"button_pressed":4,"time_out":false,"dwell_time":63.056884765625,"response_time":1701884044226.9},{"trial":2,"action":1,"button_pressed":1,"time_out":false,"dwell_time":80.5830078125,"response_time":1701884044859.97},{"trial":2,"action":9,"button_pressed":-1,"time_out":false,"dwell_time":98.44287109375,"response_time":1701884046293.97},{"trial":3,"action":1,"button_pressed":9,"time_out":false,"dwell_time":47.06298828125,"response_time":1701884060938.6},{"trial":3,"action":1,"button_pressed":0,"time_out":false,"dwell_time":64.591796875,"response_time":1701884061438.53},{"trial":3,"action":1,"button_pressed":2,"time_out":false,"dwell_time":64.037109375,"response_time":1701884061821.26},{"trial":3,"action":1,"button_pressed":1,"time_out":false,"dwell_time":97.983154296875,"response_time":1701884062671.64},{"trial":3,"action":1,"button_pressed":6,"time_out":false,"dwell_time":30.157958984375,"response_time":1701884063021.23},{"trial":3,"action":9,"button_pressed":-1,"time_out":false,"dwell_time":64.5810546875,"response_time":1701884063820.96},{"trial":4,"action":1,"button_pressed":6,"time_out":false,"dwell_time":113.949951171875,"response_time":1701884081115.55},{"trial":4,"action":1,"button_pressed":5,"time_out":false,"dwell_time":114.071044921875,"response_time":1701884081432.16},{"trial":4,"action":1,"button_pressed":0,"time_out":false,"dwell_time":131.43603515625,"response_time":1701884082398.36},{"trial":4,"action":1,"button_pressed":11,"time_out":false,"dwell_time":79.859130859375,"response_time":1701884083030.81},{"trial":4,"action":1,"button_pressed":8,"time_out":false,"dwell_time":81.09814453125,"response_time":1701884083881.1},{"trial":4,"action":1,"button_pressed":4,"time_out":false,"dwell_time":80.62890625,"response_time":1701884084730.95},{"trial":4,"action":9,"button_pressed":-1,"time_out":false,"dwell_time":30.748046875,"response_time":1701884085497.37},{"trial":5,"action":1,"button_pressed":8,"time_out":false,"dwell_time":63.986083984375,"response_time":1701884105223.62},{"trial":5,"action":1,"button_pressed":5,"time_out":false,"dwell_time":81.303955078125,"response_time":1701884105624},{"trial":5,"action":1,"button_pressed":1,"time_out":false,"dwell_time":80.56884765625,"response_time":1701884106173.15},{"trial":5,"action":1,"button_pressed":6,"time_out":false,"dwell_time":81.255859375,"response_time":1701884106657.16},{"trial":5,"action":1,"button_pressed":0,"time_out":false,"dwell_time":114.693115234375,"response_time":1701884106990.34},{"trial":5,"action":1,"button_pressed":11,"time_out":false,"dwell_time":81.622802734375,"response_time":1701884107955.9},{"trial":5,"action":9,"button_pressed":-1,"time_out":false,"dwell_time":16.63818359375,"response_time":1701884109655.51},{"trial":6,"action":1,"button_pressed":10,"time_out":false,"dwell_time":79.736083984375,"response_time":1701884129782.12},{"trial":6,"action":1,"button_pressed":1,"time_out":false,"dwell_time":79.7880859375,"response_time":1701884130064.62},{"trial":6,"action":1,"button_pressed":2,"time_out":false,"dwell_time":63.156005859375,"response_time":1701884130298.56},{"trial":6,"action":1,"button_pressed":7,"time_out":false,"dwell_time":81.053955078125,"response_time":1701884131215.65},{"trial":6,"action":1,"button_pressed":6,"time_out":false,"dwell_time":63.177978515625,"response_time":1701884131614.96},{"trial":6,"action":1,"button_pressed":4,"time_out":false,"dwell_time":63.9208984375,"response_time":1701884131964.68},{"trial":6,"action":9,"button_pressed":-1,"time_out":false,"dwell_time":97.797119140625,"response_time":1701884133032.49},{"trial":7,"action":1,"button_pressed":7,"time_out":false,"dwell_time":79.9609375,"response_time":1701884147759.62},{"trial":7,"action":1,"button_pressed":4,"time_out":false,"dwell_time":97.240966796875,"response_time":1701884148026.05},{"trial":7,"action":1,"button_pressed":3,"time_out":false,"dwell_time":46.891845703125,"response_time":1701884149192.67},{"trial":7,"action":1,"button_pressed":11,"time_out":false,"dwell_time":63.150146484375,"response_time":1701884149792.08},{"trial":7,"action":1,"button_pressed":10,"time_out":false,"dwell_time":81.12109375,"response_time":1701884150009.5},{"trial":7,"action":9,"button_pressed":-1,"time_out":false,"dwell_time":97.829833984375,"response_time":1701884151958.48},{"trial":8,"action":1,"button_pressed":5,"time_out":false,"dwell_time":131.529052734375,"response_time":1701884166920.85},{"trial":8,"action":1,"button_pressed":9,"time_out":false,"dwell_time":96.23583984375,"response_time":1701884167269.7},{"trial":8,"action":1,"button_pressed":6,"time_out":false,"dwell_time":63.63623046875,"response_time":1701884167736.15},{"trial":8,"action":1,"button_pressed":8,"time_out":false,"dwell_time":80.434814453125,"response_time":1701884168120.26},{"trial":8,"action":1,"button_pressed":7,"time_out":false,"dwell_time":79.64306640625,"response_time":1701884168652.46},{"trial":8,"action":9,"button_pressed":-1,"time_out":false,"dwell_time":81.15185546875,"response_time":1701884169436.93},{"trial":9,"action":1,"button_pressed":4,"time_out":false,"dwell_time":113.967041015625,"response_time":1701884186614.15},{"trial":9,"action":1,"button_pressed":11,"time_out":false,"dwell_time":114.493896484375,"response_time":1701884187763.8},{"trial":9,"action":1,"button_pressed":3,"time_out":false,"dwell_time":31.281005859375,"response_time":1701884187996.82},{"trial":9,"action":1,"button_pressed":2,"time_out":false,"dwell_time":48.27294921875,"response_time":1701884188513.77},{"trial":9,"action":1,"button_pressed":10,"time_out":false,"dwell_time":48.491943359375,"response_time":1701884188930.35},{"trial":9,"action":1,"button_pressed":6,"time_out":false,"dwell_time":63.7978515625,"response_time":1701884189778.96},{"trial":9,"action":9,"button_pressed":-1,"time_out":false,"dwell_time":16.674072265625,"response_time":1701884191195.28},{"trial":10,"action":1,"button_pressed":9,"time_out":false,"dwell_time":64.60107421875,"response_time":1701884210906.23},{"trial":10,"action":1,"button_pressed":7,"time_out":false,"dwell_time":50.31103515625,"response_time":1701884211273.21},{"trial":10,"action":1,"button_pressed":7,"time_out":false,"dwell_time":114.473876953125,"response_time":1701884211404.72},{"trial":10,"action":1,"button_pressed":4,"time_out":false,"dwell_time":63.26611328125,"response_time":1701884211821.77},{"trial":10,"action":1,"button_pressed":1,"time_out":false,"dwell_time":97.7939453125,"response_time":1701884212272.26},{"trial":10,"action":1,"button_pressed":11,"time_out":false,"dwell_time":30.955078125,"response_time":1701884212539.42},{"trial":10,"action":1,"button_pressed":6,"time_out":false,"dwell_time":63.64892578125,"response_time":1701884212838.79},{"trial":10,"action":1,"button_pressed":8,"time_out":false,"dwell_time":30.9208984375,"response_time":1701884213372.24},{"trial":10,"action":9,"button_pressed":-1,"time_out":false,"dwell_time":115.305908203125,"response_time":1701884215005.1},{"trial":11,"action":1,"button_pressed":0,"time_out":false,"dwell_time":64.299072265625,"response_time":1701884234498.18},{"trial":11,"action":1,"button_pressed":8,"time_out":false,"dwell_time":81.18603515625,"response_time":1701884234914.67},{"trial":11,"action":1,"button_pressed":5,"time_out":false,"dwell_time":80.219970703125,"response_time":1701884235214.56},{"trial":11,"action":1,"button_pressed":6,"time_out":false,"dwell_time":114.654052734375,"response_time":1701884235497.93},{"trial":11,"action":1,"button_pressed":10,"time_out":false,"dwell_time":63.840087890625,"response_time":1701884235730.32},{"trial":11,"action":1,"button_pressed":2,"time_out":false,"dwell_time":47.490966796875,"response_time":1701884236063.9},{"trial":11,"action":1,"button_pressed":2,"time_out":false,"dwell_time":47.716064453125,"response_time":1701884236597.81},{"trial":11,"action":1,"button_pressed":2,"time_out":false,"dwell_time":63.43798828125,"response_time":1701884237080},{"trial":11,"action":0,"button_pressed":-1,"time_out":false,"dwell_time":97.656982421875,"response_time":1701884238713.82},{"trial":11,"action":1,"button_pressed":8,"time_out":false,"dwell_time":96.923095703125,"response_time":1701884240212.48},{"trial":11,"action":1,"button_pressed":0,"time_out":false,"dwell_time":79.406005859375,"response_time":1701884241360.53},{"trial":11,"action":1,"button_pressed":5,"time_out":false,"dwell_time":98.18017578125,"response_time":1701884241712.57},{"trial":11,"action":1,"button_pressed":6,"time_out":false,"dwell_time":79.4609375,"response_time":1701884241994.88},{"trial":11,"action":1,"button_pressed":2,"time_out":false,"dwell_time":81.45703125,"response_time":1701884242295.59},{"trial":11,"action":1,"button_pressed":10,"time_out":false,"dwell_time":46.783935546875,"response_time":1701884243661.49},{"trial":11,"action":1,"button_pressed":9,"time_out":false,"dwell_time":63.765869140625,"response_time":1701884245510.43},{"trial":11,"action":1,"button_pressed":10,"time_out":false,"dwell_time":30.178955078125,"response_time":1701884246443.85},{"trial":11,"action":1,"button_pressed":10,"time_out":false,"dwell_time":864.31005859375,"response_time":1701884248976.59},{"trial":11,"action":1,"button_pressed":10,"time_out":false,"dwell_time":81.06201171875,"response_time":1701884249859.7},{"trial":11,"action":1,"button_pressed":10,"time_out":false,"dwell_time":47.762939453125,"response_time":1701884250392.73},{"trial":11,"action":1,"button_pressed":10,"time_out":false,"dwell_time":30.06103515625,"response_time":1701884250592.53},{"trial":11,"action":1,"button_pressed":10,"time_out":false,"dwell_time":64.5439453125,"response_time":1701884251092.48},{"trial":11,"action":0,"button_pressed":-1,"time_out":false,"dwell_time":63.930908203125,"response_time":1701884252592.24},{"trial":11,"action":1,"button_pressed":8,"time_out":false,"dwell_time":81.14208984375,"response_time":1701884253575.21},{"trial":11,"action":1,"button_pressed":3,"time_out":false,"dwell_time":63.76806640625,"response_time":1701884255324.43},{"trial":11,"action":1,"button_pressed":2,"time_out":false,"dwell_time":63.82080078125,"response_time":1701884255740.43},{"trial":11,"action":1,"button_pressed":6,"time_out":false,"dwell_time":81.199951171875,"response_time":1701884258573.5},{"trial":11,"action":1,"button_pressed":9,"time_out":false,"dwell_time":47.5380859375,"response_time":1701884258923.73},{"trial":11,"action":1,"button_pressed":4,"time_out":false,"dwell_time":47.111083984375,"response_time":1701884259556.34},{"trial":11,"action":0,"button_pressed":-1,"time_out":false,"dwell_time":47.552001953125,"response_time":1701884260889.56},{"trial":11,"action":1,"button_pressed":8,"time_out":false,"dwell_time":63.481201171875,"response_time":1701884261555.73},{"trial":11,"action":1,"button_pressed":3,"time_out":false,"dwell_time":80.51708984375,"response_time":1701884261838.35},{"trial":11,"action":1,"button_pressed":2,"time_out":false,"dwell_time":30.576171875,"response_time":1701884261988.87},{"trial":11,"action":1,"button_pressed":4,"time_out":false,"dwell_time":30.3349609375,"response_time":1701884262788.5},{"trial":11,"action":1,"button_pressed":6,"time_out":false,"dwell_time":96.31591796875,"response_time":1701884263254.59},{"trial":11,"action":1,"button_pressed":10,"time_out":false,"dwell_time":47.573974609375,"response_time":1701884264204.69},{"trial":11,"action":9,"button_pressed":-1,"time_out":false,"dwell_time":63.7578125,"response_time":1701884266637.26}]}