{"meta_data":{"additional_headers":{},"game_name":"Recollect","version":"2.53.01","user_name":"149","organization":"braingamecenter","study":"mpl2_2022_11","session_number":0,"device_id":"74342D95-EE82-45E3-8ADF-48FB3203C5DD"},"data":[{"trial":0,"action":1,"button_pressed":3,"time_out":false,"dwell_time":47.095947265625,"response_time":1701898408616.58},{"trial":0,"action":1,"button_pressed":2,"time_out":false,"dwell_time":64.073974609375,"response_time":1701898409066.86},{"trial":0,"action":9,"button_pressed":-1,"time_out":false,"dwell_time":73.323974609375,"response_time":1701898409592.32},{"trial":1,"action":1,"button_pressed":3,"time_out":false,"dwell_time":81.908935546875,"response_time":1701898419247.04},{"trial":1,"action":1,"button_pressed":9,"time_out":false,"dwell_time":81.13720703125,"response_time":1701898419529.76},{"trial":1,"action":1,"button_pressed":7,"time_out":false,"dwell_time":63.72900390625,"response_time":1701898420112.86},{"trial":1,"action":9,"button_pressed":-1,"time_out":false,"dwell_time":81.009033203125,"response_time":1701898420763.06},{"trial":2,"action":1,"button_pressed":2,"time_out":false,"dwell_time":64.1318359375,"response_time":1701898432374.87},{"trial":2,"action":1,"button_pressed":4,"time_out":false,"dwell_time":63.881103515625,"response_time":1701898433041.88},{"trial":2,"action":1,"button_pressed":10,"time_out":false,"dwell_time":47.640869140625,"response_time":1701898433541.52},{"trial":2,"action":1,"button_pressed":5,"time_out":false,"dwell_time":31.093017578125,"response_time":1701898434041.31},{"trial":2,"action":9,"button_pressed":-1,"time_out":false,"dwell_time":64.613037109375,"response_time":1701898434625.27},{"trial":3,"action":1,"button_pressed":5,"time_out":false,"dwell_time":47.156982421875,"response_time":1701898449403.11},{"trial":3,"action":1,"button_pressed":9,"time_out":false,"dwell_time":63.68701171875,"response_time":1701898449802.95},{"trial":3,"action":1,"button_pressed":6,"time_out":false,"dwell_time":64.43798828125,"response_time":1701898450086.17},{"trial":3,"action":1,"button_pressed":8,"time_out":false,"dwell_time":31.02001953125,"response_time":1701898450419.26},{"trial":3,"action":1,"button_pressed":7,"time_out":false,"dwell_time":30.921142578125,"response_time":1701898450935.63},{"trial":3,"action":9,"button_pressed":-1,"time_out":false,"dwell_time":16.507080078125,"response_time":1701898451668.53},{"trial":4,"action":1,"button_pressed":0,"time_out":false,"dwell_time":64.125,"response_time":1701898469112.6},{"trial":4,"action":1,"button_pressed":4,"time_out":false,"dwell_time":96.260986328125,"response_time":1701898469412.39},{"trial":4,"action":1,"button_pressed":11,"time_out":false,"dwell_time":63.8359375,"response_time":1701898470562.7},{"trial":4,"action":1,"button_pressed":3,"time_out":false,"dwell_time":81.4150390625,"response_time":1701898470996.11},{"trial":4,"action":1,"button_pressed":5,"time_out":false,"dwell_time":31.10107421875,"response_time":1701898471379.55},{"trial":4,"action":1,"button_pressed":7,"time_out":false,"dwell_time":64.317138671875,"response_time":1701898471928.79},{"trial":4,"action":9,"button_pressed":-1,"time_out":false,"dwell_time":81.658935546875,"response_time":1701898472512.97},{"trial":5,"action":1,"button_pressed":6,"time_out":false,"dwell_time":63.986083984375,"response_time":1701898491822.36},{"trial":5,"action":1,"button_pressed":10,"time_out":false,"dwell_time":63.5830078125,"response_time":1701898492238.67},{"trial":5,"action":1,"button_pressed":11,"time_out":false,"dwell_time":80.5478515625,"response_time":1701898492805.25},{"trial":5,"action":1,"button_pressed":4,"time_out":false,"dwell_time":113.826904296875,"response_time":1701898493304.35},{"trial":5,"action":1,"button_pressed":8,"time_out":false,"dwell_time":80.108154296875,"response_time":1701898494004.9},{"trial":5,"action":1,"button_pressed":3,"time_out":false,"dwell_time":47.027099609375,"response_time":1701898494454.49},{"trial":5,"action":1,"button_pressed":5,"time_out":false,"dwell_time":63.1171875,"response_time":1701898494870.4},{"trial":5,"action":9,"button_pressed":-1,"time_out":false,"dwell_time":80.032958984375,"response_time":1701898495504.14},{"trial":6,"action":1,"button_pressed":6,"time_out":false,"dwell_time":80.970947265625,"response_time":1701898518146.45},{"trial":6,"action":1,"button_pressed":0,"time_out":false,"dwell_time":97.02294921875,"response_time":1701898518512.53},{"trial":6,"action":1,"button_pressed":5,"time_out":false,"dwell_time":80.677001953125,"response_time":1701898518896.9},{"trial":6,"action":1,"button_pressed":3,"time_out":false,"dwell_time":80.5068359375,"response_time":1701898519279.83},{"trial":6,"action":1,"button_pressed":10,"time_out":false,"dwell_time":96.35595703125,"response_time":1701898519645.57},{"trial":6,"action":1,"button_pressed":8,"time_out":false,"dwell_time":131.10791015625,"response_time":1701898519963.08},{"trial":6,"action":1,"button_pressed":1,"time_out":false,"dwell_time":65.327880859375,"response_time":1701898520362},{"trial":6,"action":1,"button_pressed":7,"time_out":false,"dwell_time":48.30712890625,"response_time":1701898520679.95},{"trial":6,"action":9,"button_pressed":-1,"time_out":false,"dwell_time":16.72412109375,"response_time":1701898521362.08},{"trial":7,"action":1,"button_pressed":10,"time_out":false,"dwell_time":62.863037109375,"response_time":1701898547636.25},{"trial":7,"action":1,"button_pressed":8,"time_out":false,"dwell_time":97.860107421875,"response_time":1701898547970.19},{"trial":7,"action":1,"button_pressed":4,"time_out":false,"dwell_time":47.656982421875,"response_time":1701898548387.2},{"trial":7,"action":1,"button_pressed":1,"time_out":false,"dwell_time":97.197998046875,"response_time":1701898550701.75},{"trial":7,"action":1,"button_pressed":6,"time_out":false,"dwell_time":48.5478515625,"response_time":1701898551069.74},{"trial":7,"action":1,"button_pressed":0,"time_out":false,"dwell_time":30.97314453125,"response_time":1701898551569.43},{"trial":7,"action":1,"button_pressed":0,"time_out":false,"dwell_time":13.8310546875,"response_time":1701898552134.42},{"trial":7,"action":1,"button_pressed":7,"time_out":false,"dwell_time":30.119873046875,"response_time":1701898559382.85},{"trial":7,"action":9,"button_pressed":-1,"time_out":false,"dwell_time":47.844970703125,"response_time":1701898562182.4},{"trial":8,"action":1,"button_pressed":9,"time_out":false,"dwell_time":64.738037109375,"response_time":1701898586390.67},{"trial":8,"action":1,"button_pressed":5,"time_out":false,"dwell_time":30.89892578125,"response_time":1701898586840.16},{"trial":8,"action":1,"button_pressed":2,"time_out":false,"dwell_time":47.523193359375,"response_time":1701898588057.12},{"trial":8,"action":1,"button_pressed":6,"time_out":false,"dwell_time":63.803955078125,"response_time":1701898588556.72},{"trial":8,"action":1,"button_pressed":11,"time_out":false,"dwell_time":47.630126953125,"response_time":1701898588856.97},{"trial":8,"action":1,"button_pressed":8,"time_out":false,"dwell_time":30.906982421875,"response_time":1701898589723.31},{"trial":8,"action":1,"button_pressed":1,"time_out":false,"dwell_time":64.3740234375,"response_time":1701898590339.28},{"trial":8,"action":9,"button_pressed":-1,"time_out":false,"dwell_time":47.9912109375,"response_time":1701898592389.12},{"trial":9,"action":1,"button_pressed":11,"time_out":false,"dwell_time":115.015869140625,"response_time":1701898612582.24},{"trial":9,"action":1,"button_pressed":4,"time_out":false,"dwell_time":64.22998046875,"response_time":1701898613081.42},{"trial":9,"action":1,"button_pressed":6,"time_out":false,"dwell_time":64.531005859375,"response_time":1701898614314.65},{"trial":9,"action":1,"button_pressed":10,"time_out":false,"dwell_time":81.2080078125,"response_time":1701898614697.93},{"trial":9,"action":1,"button_pressed":2,"time_out":false,"dwell_time":13.550048828125,"response_time":1701898615863.8},{"trial":9,"action":1,"button_pressed":1,"time_out":false,"dwell_time":47.713134765625,"response_time":1701898616480.17},{"trial":9,"action":9,"button_pressed":-1,"time_out":false,"dwell_time":30.928955078125,"response_time":1701898617297.21},{"trial":10,"action":1,"button_pressed":10,"time_out":false,"dwell_time":31.3818359375,"response_time":1701898638074.12},{"trial":10,"action":1,"button_pressed":4,"time_out":false,"dwell_time":63.25,"response_time":1701898638439.16},{"trial":10,"action":1,"button_pressed":1,"time_out":false,"dwell_time":64.5009765625,"response_time":1701898639772.69},{"trial":10,"action":1,"button_pressed":7,"time_out":false,"dwell_time":64.865966796875,"response_time":1701898640189.49},{"trial":10,"action":1,"button_pressed":11,"time_out":false,"dwell_time":63.576904296875,"response_time":1701898641021.54},{"trial":10,"action":1,"button_pressed":6,"time_out":false,"dwell_time":62.89111328125,"response_time":1701898641354.79},{"trial":10,"action":1,"button_pressed":8,"time_out":false,"dwell_time":31.531982421875,"response_time":1701898642055.63},{"trial":10,"action":9,"button_pressed":-1,"time_out":false,"dwell_time":81.255126953125,"response_time":1701898642621.6}]}