{"meta_data":{"additional_headers":{},"game_name":"Recollect","version":"2.53.01","user_name":"149","organization":"braingamecenter","study":"mpl2_2022_11","session_number":0,"device_id":"74342D95-EE82-45E3-8ADF-48FB3203C5DD"},"data":[{"stage":"Practice","trial":0,"sequence":"6F","letter_input":"F","number_input":"6","is_correct":true,"presentation_start_time":1701898676391.71,"presentation_end_time":1701898679394.21,"response_time":1701898685790.24},{"stage":"Practice","trial":1,"sequence":"G4","letter_input":"G","number_input":"4","is_correct":true,"presentation_start_time":1701898687321.35,"presentation_end_time":1701898690323.83,"response_time":1701898696001.88},{"stage":"Practice","trial":2,"sequence":"3W5","letter_input":"W","number_input":"35","is_correct":true,"presentation_start_time":1701898697534.6,"presentation_end_time":1701898702036.63,"response_time":1701898707114.85},{"stage":"Practice","trial":3,"sequence":"T7L","letter_input":"LT","number_input":"7","is_correct":true,"presentation_start_time":1701898708647.53,"presentation_end_time":1701898713149.55,"response_time":1701898719094.13},{"stage":"Practice","trial":4,"sequence":"9J1","letter_input":"J","number_input":"19","is_correct":true,"presentation_start_time":1701898720626.85,"presentation_end_time":1701898725128.86,"response_time":1701898729057.45},{"stage":"Calibration","trial":0,"sequence":"7S","letter_input":"S","number_input":"7","is_correct":true,"presentation_start_time":1701898739820.37,"presentation_end_time":1701898742822.93,"response_time":1701898747201.31},{"stage":"Calibration","trial":1,"sequence":"Q3","letter_input":"Q","number_input":"3","is_correct":true,"presentation_start_time":1701898748734.07,"presentation_end_time":1701898751736.59,"response_time":1701898755715.15},{"stage":"Calibration","trial":2,"sequence":"4L1","letter_input":"L","number_input":"14","is_correct":true,"presentation_start_time":1701898757247.9,"presentation_end_time":1701898761749.89,"response_time":1701898766944.75},{"stage":"Calibration","trial":3,"sequence":"N3F","letter_input":"FN","number_input":"3","is_correct":true,"presentation_start_time":1701898768477.47,"presentation_end_time":1701898772979.46,"response_time":1701898776924.7},{"stage":"Calibration","trial":4,"sequence":"8P4J","letter_input":"JP","number_input":"48","is_correct":true,"presentation_start_time":1701898778457.45,"presentation_end_time":1701898784458.8,"response_time":1701898789853.77},{"stage":"Calibration","trial":5,"sequence":"C9A6","letter_input":"A","number_input":"69","is_correct":false,"presentation_start_time":1701898791386.43,"presentation_end_time":1701898797387.96,"response_time":1701898803649.09},{"stage":"Calibration","trial":6,"sequence":"1R7E5","letter_input":"ER","number_input":"157","is_correct":true,"presentation_start_time":1701898805181.81,"presentation_end_time":1701898812682.6,"response_time":1701898816828.06},{"stage":"Calibration","trial":7,"sequence":"Z8L4J","letter_input":"JLM","number_input":"78","is_correct":false,"presentation_start_time":1701898818360.8,"presentation_end_time":1701898825861.83,"response_time":1701898838370.77},{"stage":"Calibration","trial":8,"sequence":"6S3P1H","letter_input":"HPS","number_input":"136","is_correct":true,"presentation_start_time":1701898839903.47,"presentation_end_time":1701898848904,"response_time":1701898856481.39},{"stage":"Calibration","trial":9,"sequence":"Y2V7A4","letter_input":"ZV","number_input":"7","is_correct":false,"presentation_start_time":1701898858014.05,"presentation_end_time":1701898867014.56,"response_time":1701898880156.68},{"stage":"Calibration","trial":10,"sequence":"6S1L8F3","letter_input":"FLS","number_input":"1368","is_correct":true,"presentation_start_time":1701898881689.5,"presentation_end_time":1701898892189.51,"response_time":1701898899467.01},{"stage":"Calibration","trial":11,"sequence":"E7T2K9Z","letter_input":"EKTZ","number_input":"279","is_correct":true,"presentation_start_time":1701898900999.67,"presentation_end_time":1701898911499.38,"response_time":1701898918843.85},{"stage":"Calibration","trial":12,"sequence":"8L6J4F1P","letter_input":"JLFZ","number_input":"1648","is_correct":false,"presentation_start_time":1701898920376.55,"presentation_end_time":1701898932375.89,"response_time":1701898941752.78},{"stage":"Calibration","trial":13,"sequence":"E2R7B5N9","letter_input":"BENR","number_input":"178","is_correct":false,"presentation_start_time":1701898943285.5,"presentation_end_time":1701898955284.86,"response_time":1701898965678.03}]}