{"meta_data":{"additional_headers":{},"game_name":"Recollect","version":"2.53.01","user_name":"14","organization":"braingamecenter","study":"mpl2_2022_11","session_number":0,"device_id":"74342D95-EE82-45E3-8ADF-48FB3203C5DD"},"data":[{"stage":"Practice","trial":0,"sequence":"6F","letter_input":"F","number_input":"6","is_correct":true,"presentation_start_time":1676065522499.04,"presentation_end_time":1676065525499.41,"response_time":1676065531665.83},{"stage":"Practice","trial":1,"sequence":"G4","letter_input":"G","number_input":"4","is_correct":true,"presentation_start_time":1676065533195.5,"presentation_end_time":1676065536195.71,"response_time":1676065541092.99},{"stage":"Practice","trial":2,"sequence":"3W5","letter_input":"W","number_input":"35","is_correct":true,"presentation_start_time":1676065542625.71,"presentation_end_time":1676065547125.44,"response_time":1676065552455.91},{"stage":"Practice","trial":3,"sequence":"T7L","letter_input":"LT","number_input":"7","is_correct":true,"presentation_start_time":1676065553988.64,"presentation_end_time":1676065558488.43,"response_time":1676065564002.11},{"stage":"Practice","trial":4,"sequence":"9J1","letter_input":"J","number_input":"19","is_correct":true,"presentation_start_time":1676065565534.85,"presentation_end_time":1676065570034.59,"response_time":1676065574898.54},{"stage":"Calibration","trial":0,"sequence":"5E","letter_input":"E","number_input":"5","is_correct":true,"presentation_start_time":1676065582712.53,"presentation_end_time":1676065585712.8,"response_time":1676065588977.25},{"stage":"Calibration","trial":1,"sequence":"L6","letter_input":"L","number_input":"6","is_correct":true,"presentation_start_time":1676065590509.97,"presentation_end_time":1676065593510.5,"response_time":1676065596458.27},{"stage":"Calibration","trial":2,"sequence":"9C1","letter_input":"C","number_input":"19","is_correct":true,"presentation_start_time":1676065597990.94,"presentation_end_time":1676065602490.55,"response_time":1676065606721.36},{"stage":"Calibration","trial":3,"sequence":"S4E","letter_input":"ES","number_input":"4","is_correct":true,"presentation_start_time":1676065608254.18,"presentation_end_time":1676065612753.89,"response_time":1676065616718.09},{"stage":"Calibration","trial":4,"sequence":"8T1F","letter_input":"FT","number_input":"18","is_correct":true,"presentation_start_time":1676065618250.89,"presentation_end_time":1676065624250.14,"response_time":1676065632063.04},{"stage":"Calibration","trial":5,"sequence":"S9B2","letter_input":"BS","number_input":"29","is_correct":true,"presentation_start_time":1676065633595.76,"presentation_end_time":1676065639595.29,"response_time":1676065643892.54},{"stage":"Calibration","trial":6,"sequence":"4W8Q6","letter_input":"QW","number_input":"468","is_correct":true,"presentation_start_time":1676065645425.26,"presentation_end_time":1676065652924,"response_time":1676065659703.97},{"stage":"Calibration","trial":7,"sequence":"D5T3N","letter_input":"DNT","number_input":"35","is_correct":true,"presentation_start_time":1676065661236.67,"presentation_end_time":1676065668735.58,"response_time":1676065678614.47},{"stage":"Calibration","trial":8,"sequence":"2V7H4Y","letter_input":"DHY","number_input":"247","is_correct":false,"presentation_start_time":1676065680147.08,"presentation_end_time":1676065689145.29,"response_time":1676065696341.95},{"stage":"Calibration","trial":9,"sequence":"N8J6A3","letter_input":"ADJN","number_input":"389","is_correct":false,"presentation_start_time":1676065697874.67,"presentation_end_time":1676065706872.89,"response_time":1676065713336.28}]}