{"meta_data":{"additional_headers":{},"game_name":"Recollect","version":"2.53.01","user_name":"150","organization":"braingamecenter","study":"mpl2_2022_11","session_number":0,"device_id":"74342D95-EE82-45E3-8ADF-48FB3203C5DD"},"data":[{"stage":"Practice","trial":0,"sequence":"6F","letter_input":"F","number_input":"6","is_correct":true,"presentation_start_time":1701909289814.03,"presentation_end_time":1701909292816.56,"response_time":1701909301161.65},{"stage":"Practice","trial":1,"sequence":"G4","letter_input":"G","number_input":"4","is_correct":true,"presentation_start_time":1701909302692.97,"presentation_end_time":1701909305695.53,"response_time":1701909309857.37},{"stage":"Practice","trial":2,"sequence":"3W5","letter_input":"W","number_input":"35","is_correct":true,"presentation_start_time":1701909311390.17,"presentation_end_time":1701909315892.17,"response_time":1701909320853.83},{"stage":"Practice","trial":3,"sequence":"T7L","letter_input":"L","number_input":"37","is_correct":false,"presentation_start_time":1701909322386.56,"presentation_end_time":1701909326888.61,"response_time":1701909332383.35},{"stage":"Practice","trial":4,"sequence":"9J1","letter_input":"J","number_input":"19","is_correct":true,"presentation_start_time":1701909335415.53,"presentation_end_time":1701909339917.46,"response_time":1701909344129.45},{"stage":"Calibration","trial":0,"sequence":"5E","letter_input":"E","number_input":"5","is_correct":true,"presentation_start_time":1701909361223.78,"presentation_end_time":1701909364226.28,"response_time":1701909368821.39},{"stage":"Calibration","trial":1,"sequence":"Q1","letter_input":"Q","number_input":"1","is_correct":true,"presentation_start_time":1701909370354.05,"presentation_end_time":1701909373356.64,"response_time":1701909377635.17},{"stage":"Calibration","trial":2,"sequence":"9D2","letter_input":"D","number_input":"29","is_correct":true,"presentation_start_time":1701909379167.81,"presentation_end_time":1701909383669.89,"response_time":1701909387598.51},{"stage":"Calibration","trial":3,"sequence":"N5B","letter_input":"BN","number_input":"5","is_correct":true,"presentation_start_time":1701909389131.22,"presentation_end_time":1701909393633.21,"response_time":1701909398711.54},{"stage":"Calibration","trial":4,"sequence":"3K1D","letter_input":"DK","number_input":"1","is_correct":false,"presentation_start_time":1701909400244.28,"presentation_end_time":1701909406245.87,"response_time":1701909411557.33},{"stage":"Calibration","trial":5,"sequence":"J5C2","letter_input":"CJ","number_input":"25","is_correct":true,"presentation_start_time":1701909413090.06,"presentation_end_time":1701909419090.53,"response_time":1701909423020.21},{"stage":"Calibration","trial":6,"sequence":"4V1P8","letter_input":"VP","number_input":"148","is_correct":false,"presentation_start_time":1701909424552.87,"presentation_end_time":1701909432054.03,"response_time":1701909440064.64},{"stage":"Calibration","trial":7,"sequence":"T7K2Y","letter_input":"J","number_input":"6","is_correct":false,"presentation_start_time":1701909441597.31,"presentation_end_time":1701909449098.16,"response_time":1701909460741.03}]}