{"meta_data":{"additional_headers":{},"game_name":"Recollect","version":"2.53.01","user_name":"150","organization":"braingamecenter","study":"mpl2_2022_11","session_number":0,"device_id":"74342D95-EE82-45E3-8ADF-48FB3203C5DD"},"data":[{"trial":0,"action":1,"button_pressed":5,"time_out":false,"dwell_time":113.138916015625,"response_time":1701909072920.18},{"trial":0,"action":1,"button_pressed":3,"time_out":false,"dwell_time":80.557861328125,"response_time":1701909073354.08},{"trial":0,"action":9,"button_pressed":-1,"time_out":false,"dwell_time":106.02392578125,"response_time":1701909074429.35},{"trial":1,"action":1,"button_pressed":4,"time_out":false,"dwell_time":47.737060546875,"response_time":1701909083400.7},{"trial":1,"action":1,"button_pressed":6,"time_out":false,"dwell_time":63.31494140625,"response_time":1701909084466.75},{"trial":1,"action":0,"button_pressed":-1,"time_out":false,"dwell_time":13.64501953125,"response_time":1701909085632.54},{"trial":1,"action":1,"button_pressed":6,"time_out":false,"dwell_time":80.89404296875,"response_time":1701909086366.32},{"trial":1,"action":1,"button_pressed":4,"time_out":false,"dwell_time":80.9140625,"response_time":1701909086882.71},{"trial":1,"action":1,"button_pressed":5,"time_out":false,"dwell_time":63.794921875,"response_time":1701909087299.32},{"trial":1,"action":9,"button_pressed":-1,"time_out":false,"dwell_time":16.508056640625,"response_time":1701909088281.83},{"trial":2,"action":1,"button_pressed":9,"time_out":false,"dwell_time":63.869873046875,"response_time":1701909097962.08},{"trial":2,"action":1,"button_pressed":1,"time_out":false,"dwell_time":80.401123046875,"response_time":1701909098479.02},{"trial":2,"action":1,"button_pressed":3,"time_out":false,"dwell_time":47.6669921875,"response_time":1701909099028.48},{"trial":2,"action":9,"button_pressed":-1,"time_out":false,"dwell_time":115.713134765625,"response_time":1701909099878.34},{"trial":3,"action":1,"button_pressed":2,"time_out":false,"dwell_time":114.947998046875,"response_time":1701909111775.09},{"trial":3,"action":1,"button_pressed":4,"time_out":false,"dwell_time":46.695068359375,"response_time":1701909112374.13},{"trial":3,"action":1,"button_pressed":10,"time_out":false,"dwell_time":63.775146484375,"response_time":1701909112973.61},{"trial":3,"action":1,"button_pressed":5,"time_out":false,"dwell_time":63.156982421875,"response_time":1701909113540.1},{"trial":3,"action":9,"button_pressed":-1,"time_out":false,"dwell_time":164.19091796875,"response_time":1701909115107.35},{"trial":4,"action":1,"button_pressed":0,"time_out":false,"dwell_time":47.27099609375,"response_time":1701909129168.76},{"trial":4,"action":1,"button_pressed":7,"time_out":false,"dwell_time":130.39599609375,"response_time":1701909129618.96},{"trial":4,"action":1,"button_pressed":4,"time_out":false,"dwell_time":80.47900390625,"response_time":1701909131151.68},{"trial":4,"action":1,"button_pressed":10,"time_out":false,"dwell_time":46.550048828125,"response_time":1701909131884.38},{"trial":4,"action":1,"button_pressed":1,"time_out":false,"dwell_time":79.821044921875,"response_time":1701909132533.94},{"trial":4,"action":9,"button_pressed":-1,"time_out":false,"dwell_time":64.656982421875,"response_time":1701909133584.86},{"trial":5,"action":1,"button_pressed":2,"time_out":false,"dwell_time":80.902099609375,"response_time":1701909148279.55},{"trial":5,"action":1,"button_pressed":7,"time_out":false,"dwell_time":130.319091796875,"response_time":1701909148645.22},{"trial":5,"action":1,"button_pressed":6,"time_out":false,"dwell_time":80.631103515625,"response_time":1701909149029.49},{"trial":5,"action":1,"button_pressed":0,"time_out":false,"dwell_time":80.39111328125,"response_time":1701909149494.86},{"trial":5,"action":1,"button_pressed":8,"time_out":false,"dwell_time":47.028076171875,"response_time":1701909150011.98},{"trial":5,"action":9,"button_pressed":-1,"time_out":false,"dwell_time":97.794921875,"response_time":1701909150978.27},{"trial":6,"action":1,"button_pressed":2,"time_out":false,"dwell_time":131.01611328125,"response_time":1701909160941.43},{"trial":6,"action":1,"button_pressed":4,"time_out":false,"dwell_time":47.593994140625,"response_time":1701909161391.39},{"trial":6,"action":1,"button_pressed":1,"time_out":false,"dwell_time":97.234130859375,"response_time":1701909161691.69},{"trial":6,"action":9,"button_pressed":-1,"time_out":false,"dwell_time":64.449951171875,"response_time":1701909162458.54},{"trial":7,"action":1,"button_pressed":3,"time_out":false,"dwell_time":114.794921875,"response_time":1701909174504.14},{"trial":7,"action":1,"button_pressed":5,"time_out":false,"dwell_time":96.881103515625,"response_time":1701909174970.16},{"trial":7,"action":1,"button_pressed":9,"time_out":false,"dwell_time":31.630859375,"response_time":1701909175387.61},{"trial":7,"action":1,"button_pressed":2,"time_out":false,"dwell_time":47.541015625,"response_time":1701909176169.77},{"trial":7,"action":9,"button_pressed":-1,"time_out":false,"dwell_time":147.926025390625,"response_time":1701909177002.97},{"trial":8,"action":1,"button_pressed":4,"time_out":false,"dwell_time":80.764892578125,"response_time":1701909191714.57},{"trial":8,"action":1,"button_pressed":3,"time_out":false,"dwell_time":81.10205078125,"response_time":1701909192164.97},{"trial":8,"action":1,"button_pressed":5,"time_out":false,"dwell_time":63.118896484375,"response_time":1701909192697.36},{"trial":8,"action":0,"button_pressed":-1,"time_out":false,"dwell_time":12.9990234375,"response_time":1701909194563.19},{"trial":8,"action":1,"button_pressed":4,"time_out":false,"dwell_time":62.891845703125,"response_time":1701909195213.23},{"trial":8,"action":1,"button_pressed":3,"time_out":false,"dwell_time":64.449951171875,"response_time":1701909195480.57},{"trial":8,"action":1,"button_pressed":11,"time_out":false,"dwell_time":80.4970703125,"response_time":1701909195713.11},{"trial":8,"action":1,"button_pressed":9,"time_out":false,"dwell_time":46.6630859375,"response_time":1701909196313.28},{"trial":8,"action":0,"button_pressed":-1,"time_out":false,"dwell_time":81.04296875,"response_time":1701909198212.43},{"trial":8,"action":1,"button_pressed":4,"time_out":false,"dwell_time":63.9111328125,"response_time":1701909198845.92},{"trial":8,"action":1,"button_pressed":3,"time_out":false,"dwell_time":64.366943359375,"response_time":1701909199062.29},{"trial":8,"action":1,"button_pressed":11,"time_out":false,"dwell_time":63.39990234375,"response_time":1701909199778.32},{"trial":8,"action":1,"button_pressed":5,"time_out":false,"dwell_time":63.861083984375,"response_time":1701909200079.25},{"trial":8,"action":1,"button_pressed":9,"time_out":false,"dwell_time":47.817138671875,"response_time":1701909200262.97},{"trial":8,"action":9,"button_pressed":-1,"time_out":false,"dwell_time":47.39794921875,"response_time":1701909200962.18},{"trial":9,"action":1,"button_pressed":1,"time_out":false,"dwell_time":147.6318359375,"response_time":1701909215324.4},{"trial":9,"action":1,"button_pressed":0,"time_out":false,"dwell_time":80.44384765625,"response_time":1701909215506.59},{"trial":9,"action":1,"button_pressed":10,"time_out":false,"dwell_time":64.373046875,"response_time":1701909215773.89},{"trial":9,"action":1,"button_pressed":9,"time_out":false,"dwell_time":47.757080078125,"response_time":1701909216507.42},{"trial":9,"action":1,"button_pressed":5,"time_out":false,"dwell_time":30.12890625,"response_time":1701909217456.34},{"trial":9,"action":9,"button_pressed":-1,"time_out":false,"dwell_time":16.36181640625,"response_time":1701909218505.62}]}