{"meta_data":{"additional_headers":{},"game_name":"Recollect","version":"2.53.01","user_name":"151","organization":"braingamecenter","study":"mpl2_2022_11","session_number":0,"device_id":"74342D95-EE82-45E3-8ADF-48FB3203C5DD"},"data":[{"stage":"Practice","trial":0,"sequence":"6F","letter_input":"F","number_input":"6","is_correct":true,"presentation_start_time":1705623350088.41,"presentation_end_time":1705623353088.58,"response_time":1705623361319.37},{"stage":"Practice","trial":1,"sequence":"G4","letter_input":"G","number_input":"4","is_correct":true,"presentation_start_time":1705623362850.84,"presentation_end_time":1705623365851.29,"response_time":1705623370381.79},{"stage":"Practice","trial":2,"sequence":"3W5","letter_input":"W","number_input":"35","is_correct":true,"presentation_start_time":1705623371914.54,"presentation_end_time":1705623376414.32,"response_time":1705623385460.19},{"stage":"Practice","trial":3,"sequence":"T7L","letter_input":"LT","number_input":"7","is_correct":true,"presentation_start_time":1705623386992.98,"presentation_end_time":1705623391492.6,"response_time":1705623399472.24},{"stage":"Practice","trial":4,"sequence":"9J1","letter_input":"J","number_input":"19","is_correct":true,"presentation_start_time":1705623401004.97,"presentation_end_time":1705623405504.94,"response_time":1705623410268.68},{"stage":"Calibration","trial":0,"sequence":"W8","letter_input":"W","number_input":"8","is_correct":true,"presentation_start_time":1705623422814.53,"presentation_end_time":1705623425814.85,"response_time":1705623431428.52},{"stage":"Calibration","trial":1,"sequence":"6E","letter_input":"E","number_input":"6","is_correct":true,"presentation_start_time":1705623432961.25,"presentation_end_time":1705623435961.51,"response_time":1705623439309.3},{"stage":"Calibration","trial":2,"sequence":"T2N","letter_input":"NT","number_input":"2","is_correct":true,"presentation_start_time":1705623440841.95,"presentation_end_time":1705623445341.89,"response_time":1705623458103.14},{"stage":"Calibration","trial":3,"sequence":"8R6","letter_input":"R","number_input":"68","is_correct":true,"presentation_start_time":1705623459635.88,"presentation_end_time":1705623464135.74,"response_time":1705623470398.95},{"stage":"Calibration","trial":4,"sequence":"Q9B4","letter_input":"BQ","number_input":"49","is_correct":true,"presentation_start_time":1705623471931.81,"presentation_end_time":1705623477931.04,"response_time":1705623485610.87},{"stage":"Calibration","trial":5,"sequence":"8G3C","letter_input":"CG","number_input":"38","is_correct":true,"presentation_start_time":1705623487143.46,"presentation_end_time":1705623493142.71,"response_time":1705623500872.4},{"stage":"Calibration","trial":6,"sequence":"Q4K2B","letter_input":"BKQ","number_input":"24","is_correct":true,"presentation_start_time":1705623502405.08,"presentation_end_time":1705623509904.2,"response_time":1705623526714.14},{"stage":"Calibration","trial":7,"sequence":"5N3C8","letter_input":"NQ","number_input":"58","is_correct":false,"presentation_start_time":1705623528246.99,"presentation_end_time":1705623535745.44,"response_time":1705623593508.89},{"stage":"Calibration","trial":8,"sequence":"G1D6W4","letter_input":"GTW","number_input":"146","is_correct":false,"presentation_start_time":1705623595041.62,"presentation_end_time":1705623604039.74,"response_time":1705623617467.55},{"stage":"Calibration","trial":9,"sequence":"3N9E5S","letter_input":"ENS","number_input":"359","is_correct":true,"presentation_start_time":1705623619000.39,"presentation_end_time":1705623627998.79,"response_time":1705623642726.17},{"stage":"Calibration","trial":10,"sequence":"H8B6Z1W","letter_input":"BHNW","number_input":"168","is_correct":false,"presentation_start_time":1705623644258.72,"presentation_end_time":1705623654756.47,"response_time":1705623672166.23},{"stage":"Calibration","trial":11,"sequence":"9V7Q5E2","letter_input":"SQW","number_input":"279","is_correct":false,"presentation_start_time":1705623673699.04,"presentation_end_time":1705623684196.98,"response_time":1705623712586.33}]}