{"meta_data":{"additional_headers":{},"game_name":"Recollect","version":"2.53.01","user_name":"151","organization":"braingamecenter","study":"mpl2_2022_11","session_number":0,"device_id":"74342D95-EE82-45E3-8ADF-48FB3203C5DD"},"data":[{"trial":0,"action":1,"button_pressed":5,"time_out":false,"dwell_time":30.760009765625,"response_time":1705623036192.04},{"trial":0,"action":1,"button_pressed":3,"time_out":false,"dwell_time":32.817138671875,"response_time":1705623036709.57},{"trial":0,"action":9,"button_pressed":-1,"time_out":false,"dwell_time":40.919921875,"response_time":1705623037317.81},{"trial":1,"action":1,"button_pressed":11,"time_out":false,"dwell_time":15.47509765625,"response_time":1705623046905.44},{"trial":1,"action":1,"button_pressed":2,"time_out":false,"dwell_time":65.58203125,"response_time":1705623047471.92},{"trial":1,"action":1,"button_pressed":9,"time_out":false,"dwell_time":49.489990234375,"response_time":1705623048039.55},{"trial":1,"action":9,"button_pressed":-1,"time_out":false,"dwell_time":48.66015625,"response_time":1705623048722.63},{"trial":2,"action":1,"button_pressed":11,"time_out":false,"dwell_time":49.0390625,"response_time":1705623060967.7},{"trial":2,"action":1,"button_pressed":0,"time_out":false,"dwell_time":48.02685546875,"response_time":1705623061416.54},{"trial":2,"action":1,"button_pressed":4,"time_out":false,"dwell_time":49.132080078125,"response_time":1705623061666.33},{"trial":2,"action":1,"button_pressed":1,"time_out":false,"dwell_time":31.73583984375,"response_time":1705623062083.32},{"trial":2,"action":9,"button_pressed":-1,"time_out":false,"dwell_time":82.75,"response_time":1705623062550.8},{"trial":3,"action":1,"button_pressed":4,"time_out":false,"dwell_time":48.990966796875,"response_time":1705623077144.58},{"trial":3,"action":1,"button_pressed":11,"time_out":false,"dwell_time":31.791015625,"response_time":1705623077528.24},{"trial":3,"action":1,"button_pressed":5,"time_out":false,"dwell_time":48.677978515625,"response_time":1705623078428.06},{"trial":3,"action":1,"button_pressed":3,"time_out":false,"dwell_time":32.578857421875,"response_time":1705623078911.98},{"trial":3,"action":1,"button_pressed":9,"time_out":false,"dwell_time":31.302001953125,"response_time":1705623079293.99},{"trial":3,"action":9,"button_pressed":-1,"time_out":false,"dwell_time":32.277099609375,"response_time":1705623080027.8},{"trial":4,"action":1,"button_pressed":3,"time_out":false,"dwell_time":31.81689453125,"response_time":1705623097155.29},{"trial":4,"action":1,"button_pressed":7,"time_out":false,"dwell_time":31.748046875,"response_time":1705623097488.51},{"trial":4,"action":1,"button_pressed":4,"time_out":false,"dwell_time":31.85205078125,"response_time":1705623097938.49},{"trial":4,"action":1,"button_pressed":10,"time_out":false,"dwell_time":66.73388671875,"response_time":1705623098272.21},{"trial":4,"action":1,"button_pressed":2,"time_out":false,"dwell_time":66.625,"response_time":1705623098638.7},{"trial":4,"action":1,"button_pressed":9,"time_out":false,"dwell_time":50.27392578125,"response_time":1705623099038.74},{"trial":4,"action":9,"button_pressed":-1,"time_out":false,"dwell_time":50.39501953125,"response_time":1705623099705.32},{"trial":5,"action":1,"button_pressed":7,"time_out":false,"dwell_time":31.6708984375,"response_time":1705623120097.89},{"trial":5,"action":1,"button_pressed":11,"time_out":false,"dwell_time":48.97802734375,"response_time":1705623120298.3},{"trial":5,"action":1,"button_pressed":0,"time_out":false,"dwell_time":50.16796875,"response_time":1705623120864.84},{"trial":5,"action":1,"button_pressed":3,"time_out":false,"dwell_time":49.584228515625,"response_time":1705623121114.3},{"trial":5,"action":1,"button_pressed":9,"time_out":false,"dwell_time":49.072021484375,"response_time":1705623121764.54},{"trial":5,"action":1,"button_pressed":5,"time_out":false,"dwell_time":48.201171875,"response_time":1705623122213.19},{"trial":5,"action":1,"button_pressed":6,"time_out":false,"dwell_time":31.5830078125,"response_time":1705623122696.85},{"trial":5,"action":9,"button_pressed":-1,"time_out":false,"dwell_time":50.387939453125,"response_time":1705623124030.58},{"trial":6,"action":1,"button_pressed":6,"time_out":false,"dwell_time":31.916015625,"response_time":1705623147105.7},{"trial":6,"action":1,"button_pressed":0,"time_out":false,"dwell_time":48.782958984375,"response_time":1705623147605.85},{"trial":6,"action":1,"button_pressed":5,"time_out":false,"dwell_time":65.640869140625,"response_time":1705623153402.98},{"trial":6,"action":1,"button_pressed":3,"time_out":false,"dwell_time":48.789794921875,"response_time":1705623153853.66},{"trial":6,"action":9,"button_pressed":-1,"time_out":true,"dwell_time":10062.0668945313,"response_time":1705623163866.94},{"trial":7,"action":1,"button_pressed":2,"time_out":false,"dwell_time":66.966064453125,"response_time":1705623186026.92},{"trial":7,"action":1,"button_pressed":4,"time_out":false,"dwell_time":49.25,"response_time":1705623186409.31},{"trial":7,"action":1,"button_pressed":11,"time_out":false,"dwell_time":49.259033203125,"response_time":1705623187142.56},{"trial":7,"action":1,"button_pressed":0,"time_out":false,"dwell_time":48.658935546875,"response_time":1705623188658.07},{"trial":7,"action":1,"button_pressed":5,"time_out":false,"dwell_time":49.19384765625,"response_time":1705623189008.57},{"trial":7,"action":1,"button_pressed":8,"time_out":false,"dwell_time":49.2001953125,"response_time":1705623189341.34},{"trial":7,"action":1,"button_pressed":6,"time_out":false,"dwell_time":32.049072265625,"response_time":1705623191757.97},{"trial":7,"action":1,"button_pressed":3,"time_out":false,"dwell_time":32.533203125,"response_time":1705623191890.93},{"trial":7,"action":9,"button_pressed":-1,"time_out":false,"dwell_time":16.9658203125,"response_time":1705623193191.1},{"trial":8,"action":1,"button_pressed":9,"time_out":false,"dwell_time":33.715087890625,"response_time":1705623210352.48},{"trial":8,"action":1,"button_pressed":1,"time_out":false,"dwell_time":31.81884765625,"response_time":1705623210734.11},{"trial":8,"action":1,"button_pressed":2,"time_out":false,"dwell_time":49.31396484375,"response_time":1705623211201.3},{"trial":8,"action":1,"button_pressed":8,"time_out":false,"dwell_time":49.18701171875,"response_time":1705623211917.58},{"trial":8,"action":1,"button_pressed":6,"time_out":false,"dwell_time":32.530029296875,"response_time":1705623212317.55},{"trial":8,"action":1,"button_pressed":11,"time_out":false,"dwell_time":49.4921875,"response_time":1705623212634.16},{"trial":8,"action":9,"button_pressed":-1,"time_out":false,"dwell_time":32.774169921875,"response_time":1705623213285},{"trial":9,"action":1,"button_pressed":3,"time_out":false,"dwell_time":32.2177734375,"response_time":1705623232827.85},{"trial":9,"action":1,"button_pressed":0,"time_out":false,"dwell_time":49.273193359375,"response_time":1705623233094.86},{"trial":9,"action":1,"button_pressed":10,"time_out":false,"dwell_time":33.504150390625,"response_time":1705623233444.75},{"trial":9,"action":1,"button_pressed":5,"time_out":false,"dwell_time":31.838134765625,"response_time":1705623233810.43},{"trial":9,"action":1,"button_pressed":4,"time_out":false,"dwell_time":49.6650390625,"response_time":1705623234210.48},{"trial":9,"action":1,"button_pressed":1,"time_out":false,"dwell_time":31.697021484375,"response_time":1705623235026.51},{"trial":9,"action":1,"button_pressed":2,"time_out":false,"dwell_time":49.637939453125,"response_time":1705623235410.64},{"trial":9,"action":9,"button_pressed":-1,"time_out":false,"dwell_time":34.044189453125,"response_time":1705623236994.9},{"trial":10,"action":1,"button_pressed":7,"time_out":false,"dwell_time":32.5390625,"response_time":1705623259702.76},{"trial":10,"action":1,"button_pressed":5,"time_out":false,"dwell_time":31.73095703125,"response_time":1705623260818.26},{"trial":10,"action":1,"button_pressed":3,"time_out":false,"dwell_time":31.655029296875,"response_time":1705623261267.94},{"trial":10,"action":1,"button_pressed":6,"time_out":false,"dwell_time":48.841064453125,"response_time":1705623263683.61},{"trial":10,"action":1,"button_pressed":2,"time_out":false,"dwell_time":15.342041015625,"response_time":1705623264167.48},{"trial":10,"action":1,"button_pressed":1,"time_out":false,"dwell_time":49.950927734375,"response_time":1705623264567.69},{"trial":10,"action":1,"button_pressed":8,"time_out":false,"dwell_time":49.157958984375,"response_time":1705623264917.17},{"trial":10,"action":9,"button_pressed":-1,"time_out":false,"dwell_time":31.93798828125,"response_time":1705623265600.22},{"trial":11,"action":1,"button_pressed":9,"time_out":false,"dwell_time":31.66796875,"response_time":1705623288175.95},{"trial":11,"action":1,"button_pressed":8,"time_out":false,"dwell_time":33.73193359375,"response_time":1705623288443.8},{"trial":11,"action":1,"button_pressed":2,"time_out":false,"dwell_time":49.323974609375,"response_time":1705623288743.41},{"trial":11,"action":1,"button_pressed":10,"time_out":false,"dwell_time":49.800048828125,"response_time":1705623289042.74},{"trial":11,"action":1,"button_pressed":4,"time_out":false,"dwell_time":49.875,"response_time":1705623289625.89},{"trial":11,"action":1,"button_pressed":1,"time_out":false,"dwell_time":49.176025390625,"response_time":1705623289976.1},{"trial":11,"action":1,"button_pressed":5,"time_out":false,"dwell_time":48.5810546875,"response_time":1705623291391.51},{"trial":11,"action":9,"button_pressed":-1,"time_out":false,"dwell_time":50.08984375,"response_time":1705623293175.08}]}