{"meta_data":{"additional_headers":{},"game_name":"Recollect","version":"2.53.01","user_name":"152","organization":"braingamecenter","study":"mpl2_2022_11","session_number":0,"device_id":"74342D95-EE82-45E3-8ADF-48FB3203C5DD"},"data":[{"stage":"Practice","trial":0,"sequence":"6F","letter_input":"F","number_input":"6","is_correct":true,"presentation_start_time":1705694049361.71,"presentation_end_time":1705694052364.24,"response_time":1705694059944.76},{"stage":"Practice","trial":1,"sequence":"G4","letter_input":"G","number_input":"4","is_correct":true,"presentation_start_time":1705694061474.36,"presentation_end_time":1705694064476.86,"response_time":1705694071137.94},{"stage":"Practice","trial":2,"sequence":"3W5","letter_input":"W","number_input":"35","is_correct":true,"presentation_start_time":1705694072670.52,"presentation_end_time":1705694077172.59,"response_time":1705694082084.14},{"stage":"Practice","trial":3,"sequence":"T7L","letter_input":"LT","number_input":"7","is_correct":true,"presentation_start_time":1705694083616.89,"presentation_end_time":1705694088118.78,"response_time":1705694097495.6},{"stage":"Practice","trial":4,"sequence":"9J1","letter_input":"J","number_input":"19","is_correct":true,"presentation_start_time":1705694099028.35,"presentation_end_time":1705694103530.35,"response_time":1705694109474.86},{"stage":"Calibration","trial":0,"sequence":"R1","letter_input":"R","number_input":"1","is_correct":true,"presentation_start_time":1705694120271.12,"presentation_end_time":1705694123273.63,"response_time":1705694127752.17},{"stage":"Calibration","trial":1,"sequence":"6Y","letter_input":"Y","number_input":"6","is_correct":true,"presentation_start_time":1705694129284.89,"presentation_end_time":1705694132287.3,"response_time":1705694136299.23},{"stage":"Calibration","trial":2,"sequence":"M2A","letter_input":"AM","number_input":"2","is_correct":true,"presentation_start_time":1705694137831.92,"presentation_end_time":1705694142333.84,"response_time":1705694147345.49},{"stage":"Calibration","trial":3,"sequence":"8W3","letter_input":"W","number_input":"38","is_correct":true,"presentation_start_time":1705694148878.22,"presentation_end_time":1705694153380.27,"response_time":1705694158875.01},{"stage":"Calibration","trial":4,"sequence":"E6C4","letter_input":"CE","number_input":"46","is_correct":true,"presentation_start_time":1705694160407.74,"presentation_end_time":1705694166409.2,"response_time":1705694175702.61},{"stage":"Calibration","trial":5,"sequence":"9M5K","letter_input":"KM","number_input":"59","is_correct":true,"presentation_start_time":1705694177235.29,"presentation_end_time":1705694183236.86,"response_time":1705694205711.95},{"stage":"Calibration","trial":6,"sequence":"Q7N2A","letter_input":"ANQ","number_input":"27","is_correct":true,"presentation_start_time":1705694207245.76,"presentation_end_time":1705694214750.67,"response_time":1705694232962.03},{"stage":"Calibration","trial":7,"sequence":"1S8H3","letter_input":"HS","number_input":"13","is_correct":false,"presentation_start_time":1705694234495,"presentation_end_time":1705694241996.8,"response_time":1705694262653.85},{"stage":"Calibration","trial":8,"sequence":"N9K7E4","letter_input":"ANK","number_input":"47","is_correct":false,"presentation_start_time":1705694264186.51,"presentation_end_time":1705694273187.28,"response_time":1705694307872.43},{"stage":"Calibration","trial":9,"sequence":"2Y8L5B","letter_input":"KLY","number_input":"258","is_correct":false,"presentation_start_time":1705694309405.06,"presentation_end_time":1705694318405.68,"response_time":1705694344793.47}]}