{"meta_data":{"additional_headers":{},"game_name":"Recollect","version":"2.53.01","user_name":"152","organization":"braingamecenter","study":"mpl2_2022_11","session_number":0,"device_id":"74342D95-EE82-45E3-8ADF-48FB3203C5DD"},"data":[{"trial":0,"action":1,"button_pressed":0,"time_out":false,"dwell_time":63.3818359375,"response_time":1705693629104.92},{"trial":0,"action":1,"button_pressed":6,"time_out":false,"dwell_time":63.691162109375,"response_time":1705693629554.51},{"trial":0,"action":9,"button_pressed":-1,"time_out":false,"dwell_time":74.077880859375,"response_time":1705693630265.31},{"trial":1,"action":1,"button_pressed":2,"time_out":false,"dwell_time":64.450927734375,"response_time":1705693640134.82},{"trial":1,"action":1,"button_pressed":4,"time_out":false,"dwell_time":64.636962890625,"response_time":1705693640468.3},{"trial":1,"action":1,"button_pressed":1,"time_out":false,"dwell_time":63.840087890625,"response_time":1705693640818.06},{"trial":1,"action":9,"button_pressed":-1,"time_out":false,"dwell_time":33.63818359375,"response_time":1705693642768.12},{"trial":2,"action":1,"button_pressed":5,"time_out":false,"dwell_time":47.9970703125,"response_time":1705693655179.87},{"trial":2,"action":1,"button_pressed":7,"time_out":false,"dwell_time":81.150146484375,"response_time":1705693655729.82},{"trial":2,"action":1,"button_pressed":1,"time_out":false,"dwell_time":46.991943359375,"response_time":1705693656129.47},{"trial":2,"action":1,"button_pressed":9,"time_out":false,"dwell_time":62.84716796875,"response_time":1705693656612.1},{"trial":2,"action":9,"button_pressed":-1,"time_out":false,"dwell_time":65.138916015625,"response_time":1705693657196.33},{"trial":3,"action":1,"button_pressed":5,"time_out":false,"dwell_time":30.629150390625,"response_time":1705693672107.55},{"trial":3,"action":1,"button_pressed":9,"time_out":false,"dwell_time":63.953857421875,"response_time":1705693672556.95},{"trial":3,"action":1,"button_pressed":6,"time_out":false,"dwell_time":46.623046875,"response_time":1705693672857.07},{"trial":3,"action":1,"button_pressed":8,"time_out":false,"dwell_time":63.840087890625,"response_time":1705693673339.89},{"trial":3,"action":1,"button_pressed":7,"time_out":false,"dwell_time":48.326904296875,"response_time":1705693673907.39},{"trial":3,"action":9,"button_pressed":-1,"time_out":false,"dwell_time":65.2548828125,"response_time":1705693674507.22},{"trial":4,"action":1,"button_pressed":7,"time_out":false,"dwell_time":81.474853515625,"response_time":1705693694466.89},{"trial":4,"action":1,"button_pressed":3,"time_out":false,"dwell_time":14.26806640625,"response_time":1705693696165.85},{"trial":4,"action":1,"button_pressed":8,"time_out":false,"dwell_time":63.60693359375,"response_time":1705693696865.77},{"trial":4,"action":1,"button_pressed":0,"time_out":false,"dwell_time":64.506103515625,"response_time":1705693697415.75},{"trial":4,"action":1,"button_pressed":4,"time_out":false,"dwell_time":63.907958984375,"response_time":1705693697782.23},{"trial":4,"action":1,"button_pressed":1,"time_out":false,"dwell_time":63.860107421875,"response_time":1705693698148.09},{"trial":4,"action":9,"button_pressed":-1,"time_out":false,"dwell_time":64.8359375,"response_time":1705693698782.06},{"trial":5,"action":1,"button_pressed":10,"time_out":false,"dwell_time":47.677978515625,"response_time":1705693718858.38},{"trial":5,"action":1,"button_pressed":1,"time_out":false,"dwell_time":81.31591796875,"response_time":1705693719508.3},{"trial":5,"action":1,"button_pressed":7,"time_out":false,"dwell_time":64.416015625,"response_time":1705693719924.83},{"trial":5,"action":1,"button_pressed":7,"time_out":false,"dwell_time":47.558837890625,"response_time":1705693721974.53},{"trial":5,"action":1,"button_pressed":7,"time_out":false,"dwell_time":46.97900390625,"response_time":1705693722473.69},{"trial":5,"action":1,"button_pressed":6,"time_out":false,"dwell_time":30.015869140625,"response_time":1705693723523.26},{"trial":5,"action":1,"button_pressed":2,"time_out":false,"dwell_time":46.947998046875,"response_time":1705693724073.14},{"trial":5,"action":1,"button_pressed":0,"time_out":false,"dwell_time":47.60400390625,"response_time":1705693724623},{"trial":5,"action":0,"button_pressed":-1,"time_out":false,"dwell_time":64.573974609375,"response_time":1705693728338.3},{"trial":5,"action":1,"button_pressed":10,"time_out":false,"dwell_time":64.399169921875,"response_time":1705693728955.1},{"trial":5,"action":1,"button_pressed":1,"time_out":false,"dwell_time":80.489013671875,"response_time":1705693730504.55},{"trial":5,"action":1,"button_pressed":7,"time_out":false,"dwell_time":63.659912109375,"response_time":1705693730953.65},{"trial":5,"action":1,"button_pressed":6,"time_out":false,"dwell_time":64.16796875,"response_time":1705693731354.21},{"trial":5,"action":1,"button_pressed":0,"time_out":false,"dwell_time":63.9609375,"response_time":1705693733119.66},{"trial":5,"action":1,"button_pressed":2,"time_out":false,"dwell_time":46.989990234375,"response_time":1705693733503.31},{"trial":5,"action":9,"button_pressed":-1,"time_out":false,"dwell_time":65,"response_time":1705693734903.33},{"trial":6,"action":1,"button_pressed":7,"time_out":false,"dwell_time":47.129150390625,"response_time":1705693754596.44},{"trial":6,"action":1,"button_pressed":11,"time_out":false,"dwell_time":63.588134765625,"response_time":1705693755112.89},{"trial":6,"action":1,"button_pressed":9,"time_out":false,"dwell_time":80.526123046875,"response_time":1705693757261.56},{"trial":6,"action":1,"button_pressed":0,"time_out":false,"dwell_time":97.218017578125,"response_time":1705693757828.21},{"trial":6,"action":1,"button_pressed":3,"time_out":false,"dwell_time":63.708984375,"response_time":1705693758211.26},{"trial":6,"action":1,"button_pressed":5,"time_out":false,"dwell_time":64.5439453125,"response_time":1705693758611.76},{"trial":6,"action":1,"button_pressed":6,"time_out":false,"dwell_time":64.536865234375,"response_time":1705693759095.01},{"trial":6,"action":9,"button_pressed":-1,"time_out":false,"dwell_time":64.78515625,"response_time":1705693759761.48},{"trial":7,"action":1,"button_pressed":10,"time_out":false,"dwell_time":64.22314453125,"response_time":1705693774773.26},{"trial":7,"action":1,"button_pressed":5,"time_out":false,"dwell_time":81.132080078125,"response_time":1705693775122.97},{"trial":7,"action":1,"button_pressed":3,"time_out":false,"dwell_time":63.767822265625,"response_time":1705693775472.63},{"trial":7,"action":1,"button_pressed":6,"time_out":false,"dwell_time":64.535888671875,"response_time":1705693775772.69},{"trial":7,"action":1,"button_pressed":2,"time_out":false,"dwell_time":63.716064453125,"response_time":1705693776139.06},{"trial":7,"action":9,"button_pressed":-1,"time_out":false,"dwell_time":48.886962890625,"response_time":1705693777106.77},{"trial":8,"action":1,"button_pressed":8,"time_out":false,"dwell_time":30.4599609375,"response_time":1705693793916.53},{"trial":8,"action":1,"button_pressed":0,"time_out":false,"dwell_time":63.1611328125,"response_time":1705693794482.29},{"trial":8,"action":1,"button_pressed":1,"time_out":false,"dwell_time":64.2958984375,"response_time":1705693797332.07},{"trial":8,"action":1,"button_pressed":9,"time_out":false,"dwell_time":97.818115234375,"response_time":1705693797731.91},{"trial":8,"action":1,"button_pressed":3,"time_out":false,"dwell_time":64.16796875,"response_time":1705693798048.04},{"trial":8,"action":1,"button_pressed":5,"time_out":false,"dwell_time":97.01611328125,"response_time":1705693798430.96},{"trial":8,"action":9,"button_pressed":-1,"time_out":false,"dwell_time":48.272216796875,"response_time":1705693799032.52},{"trial":9,"action":1,"button_pressed":10,"time_out":false,"dwell_time":63.927001953125,"response_time":1705693819357.78},{"trial":9,"action":1,"button_pressed":6,"time_out":false,"dwell_time":81.052978515625,"response_time":1705693819724.54},{"trial":9,"action":1,"button_pressed":11,"time_out":false,"dwell_time":31.051025390625,"response_time":1705693820024.16},{"trial":9,"action":1,"button_pressed":8,"time_out":false,"dwell_time":80.177978515625,"response_time":1705693820424.34},{"trial":9,"action":1,"button_pressed":3,"time_out":false,"dwell_time":47.06005859375,"response_time":1705693820723.98},{"trial":9,"action":1,"button_pressed":5,"time_out":false,"dwell_time":63.155029296875,"response_time":1705693821156.63},{"trial":9,"action":9,"button_pressed":-1,"time_out":false,"dwell_time":16.58203125,"response_time":1705693821856.77},{"trial":10,"action":1,"button_pressed":8,"time_out":false,"dwell_time":164.5859375,"response_time":1705693841734},{"trial":10,"action":1,"button_pressed":5,"time_out":false,"dwell_time":80.43115234375,"response_time":1705693842099.71},{"trial":10,"action":1,"button_pressed":1,"time_out":false,"dwell_time":63.41796875,"response_time":1705693842533.18},{"trial":10,"action":1,"button_pressed":6,"time_out":false,"dwell_time":63.56591796875,"response_time":1705693842849.31},{"trial":10,"action":1,"button_pressed":0,"time_out":false,"dwell_time":63.998046875,"response_time":1705693843299.46},{"trial":10,"action":1,"button_pressed":7,"time_out":false,"dwell_time":63.94287109375,"response_time":1705693843883.04},{"trial":10,"action":1,"button_pressed":11,"time_out":false,"dwell_time":63.80908203125,"response_time":1705693844116.35},{"trial":10,"action":9,"button_pressed":-1,"time_out":false,"dwell_time":63.590087890625,"response_time":1705693844865.84},{"trial":11,"action":1,"button_pressed":10,"time_out":false,"dwell_time":80.708984375,"response_time":1705693867175.38},{"trial":11,"action":1,"button_pressed":2,"time_out":false,"dwell_time":63.791015625,"response_time":1705693869806.87},{"trial":11,"action":1,"button_pressed":9,"time_out":false,"dwell_time":64.06298828125,"response_time":1705693870241.08},{"trial":11,"action":1,"button_pressed":8,"time_out":false,"dwell_time":80.513916015625,"response_time":1705693870656.64},{"trial":11,"action":0,"button_pressed":-1,"time_out":false,"dwell_time":47.426025390625,"response_time":1705693872273.59},{"trial":11,"action":1,"button_pressed":10,"time_out":false,"dwell_time":79.48291015625,"response_time":1705693872655.4},{"trial":11,"action":1,"button_pressed":2,"time_out":false,"dwell_time":81.3359375,"response_time":1705693877721.7},{"trial":11,"action":1,"button_pressed":9,"time_out":false,"dwell_time":65.092041015625,"response_time":1705693878104.81},{"trial":11,"action":1,"button_pressed":8,"time_out":false,"dwell_time":80.636962890625,"response_time":1705693878455.06},{"trial":11,"action":1,"button_pressed":4,"time_out":false,"dwell_time":80.59814453125,"response_time":1705693878771.56},{"trial":11,"action":1,"button_pressed":1,"time_out":false,"dwell_time":63.77294921875,"response_time":1705693879153.67},{"trial":11,"action":1,"button_pressed":5,"time_out":false,"dwell_time":130.4228515625,"response_time":1705693879803.61},{"trial":11,"action":9,"button_pressed":-1,"time_out":false,"dwell_time":64.39111328125,"response_time":1705693880737.72},{"trial":12,"action":1,"button_pressed":3,"time_out":false,"dwell_time":65.154052734375,"response_time":1705693903063.58},{"trial":12,"action":1,"button_pressed":1,"time_out":false,"dwell_time":47.615966796875,"response_time":1705693903313.4},{"trial":12,"action":1,"button_pressed":8,"time_out":false,"dwell_time":63.705810546875,"response_time":1705693904178.61},{"trial":12,"action":1,"button_pressed":5,"time_out":false,"dwell_time":63.8291015625,"response_time":1705693904411.87},{"trial":12,"action":1,"button_pressed":7,"time_out":false,"dwell_time":47.72412109375,"response_time":1705693905929.33},{"trial":12,"action":1,"button_pressed":0,"time_out":false,"dwell_time":46.993896484375,"response_time":1705693906478.33},{"trial":12,"action":1,"button_pressed":9,"time_out":false,"dwell_time":47.546875,"response_time":1705693906878.91},{"trial":12,"action":1,"button_pressed":10,"time_out":false,"dwell_time":48.232177734375,"response_time":1705693907078.96},{"trial":12,"action":9,"button_pressed":-1,"time_out":false,"dwell_time":82.10595703125,"response_time":1705693908611.8},{"trial":13,"action":1,"button_pressed":3,"time_out":false,"dwell_time":47.760009765625,"response_time":1705693933152.88},{"trial":13,"action":1,"button_pressed":4,"time_out":false,"dwell_time":47.823974609375,"response_time":1705693933386.84},{"trial":13,"action":1,"button_pressed":7,"time_out":false,"dwell_time":64.52099609375,"response_time":1705693933703.14},{"trial":13,"action":1,"button_pressed":1,"time_out":false,"dwell_time":64.767822265625,"response_time":1705693933919.63},{"trial":13,"action":1,"button_pressed":10,"time_out":false,"dwell_time":47.341796875,"response_time":1705693934286.45},{"trial":13,"action":1,"button_pressed":2,"time_out":false,"dwell_time":47.071044921875,"response_time":1705693935518.79},{"trial":13,"action":1,"button_pressed":9,"time_out":false,"dwell_time":47.511962890625,"response_time":1705693935969.21},{"trial":13,"action":1,"button_pressed":8,"time_out":false,"dwell_time":50.48388671875,"response_time":1705693936668.43},{"trial":13,"action":1,"button_pressed":6,"time_out":false,"dwell_time":47.412109375,"response_time":1705693937085.5},{"trial":13,"action":9,"button_pressed":-1,"time_out":false,"dwell_time":65.18994140625,"response_time":1705693937668.53},{"trial":14,"action":1,"button_pressed":1,"time_out":false,"dwell_time":63.953125,"response_time":1705693968540.54},{"trial":14,"action":1,"button_pressed":1,"time_out":false,"dwell_time":48.0048828125,"response_time":1705693970523.49},{"trial":14,"action":0,"button_pressed":-1,"time_out":false,"dwell_time":96.796875,"response_time":1705693973555.63},{"trial":14,"action":1,"button_pressed":1,"time_out":false,"dwell_time":64.367919921875,"response_time":1705693981353.32},{"trial":14,"action":1,"button_pressed":10,"time_out":false,"dwell_time":63.798095703125,"response_time":1705693981736.77},{"trial":14,"action":1,"button_pressed":9,"time_out":false,"dwell_time":64.2900390625,"response_time":1705693982003.15},{"trial":14,"action":1,"button_pressed":8,"time_out":false,"dwell_time":80.2470703125,"response_time":1705693982302.55},{"trial":14,"action":1,"button_pressed":5,"time_out":false,"dwell_time":81.14501953125,"response_time":1705693982619.82},{"trial":14,"action":1,"button_pressed":6,"time_out":false,"dwell_time":64.166015625,"response_time":1705693983219.49},{"trial":14,"action":1,"button_pressed":11,"time_out":false,"dwell_time":30.083984375,"response_time":1705693983652.36},{"trial":14,"action":9,"button_pressed":-1,"time_out":false,"dwell_time":48.432861328125,"response_time":1705693984186.99},{"trial":15,"action":1,"button_pressed":5,"time_out":false,"dwell_time":97.98291015625,"response_time":1705694011809.97},{"trial":15,"action":1,"button_pressed":3,"time_out":false,"dwell_time":113.5791015625,"response_time":1705694014275.33},{"trial":15,"action":1,"button_pressed":1,"time_out":false,"dwell_time":113.092041015625,"response_time":1705694014724.85},{"trial":15,"action":1,"button_pressed":9,"time_out":false,"dwell_time":80.68701171875,"response_time":1705694015375.69},{"trial":15,"action":1,"button_pressed":7,"time_out":false,"dwell_time":96.85009765625,"response_time":1705694015975.14},{"trial":15,"action":1,"button_pressed":11,"time_out":false,"dwell_time":63.649169921875,"response_time":1705694016791.48},{"trial":15,"action":1,"button_pressed":10,"time_out":false,"dwell_time":63.781982421875,"response_time":1705694017257.39},{"trial":15,"action":1,"button_pressed":8,"time_out":false,"dwell_time":80.074951171875,"response_time":1705694017657.11},{"trial":15,"action":1,"button_pressed":0,"time_out":false,"dwell_time":63.635009765625,"response_time":1705694018507.48},{"trial":15,"action":9,"button_pressed":-1,"time_out":false,"dwell_time":80.851806640625,"response_time":1705694019590.83}]}