{"meta_data":{"additional_headers":{},"game_name":"Recollect","version":"2.53.01","user_name":"153","organization":"braingamecenter","study":"mpl2_2022_11","session_number":0,"device_id":"74342D95-EE82-45E3-8ADF-48FB3203C5DD"},"data":[{"trial":0,"action":1,"button_pressed":3,"time_out":false,"dwell_time":48.60888671875,"response_time":1706033889800.05},{"trial":0,"action":1,"button_pressed":2,"time_out":false,"dwell_time":64.708984375,"response_time":1706033890199.41},{"trial":0,"action":9,"button_pressed":-1,"time_out":false,"dwell_time":58.5390625,"response_time":1706033890676.16},{"trial":1,"action":1,"button_pressed":0,"time_out":false,"dwell_time":64.075927734375,"response_time":1706033900262.87},{"trial":1,"action":1,"button_pressed":10,"time_out":false,"dwell_time":46.9580078125,"response_time":1706033900795.62},{"trial":1,"action":1,"button_pressed":11,"time_out":false,"dwell_time":47.721923828125,"response_time":1706033901246.22},{"trial":1,"action":9,"button_pressed":-1,"time_out":false,"dwell_time":63.529052734375,"response_time":1706033901961.9},{"trial":2,"action":1,"button_pressed":3,"time_out":false,"dwell_time":31.3359375,"response_time":1706033913808.17},{"trial":2,"action":1,"button_pressed":5,"time_out":false,"dwell_time":47.748046875,"response_time":1706033914158.72},{"trial":2,"action":1,"button_pressed":9,"time_out":false,"dwell_time":47.5859375,"response_time":1706033914641.02},{"trial":2,"action":1,"button_pressed":2,"time_out":false,"dwell_time":47.967041015625,"response_time":1706033915391.78},{"trial":2,"action":9,"button_pressed":-1,"time_out":false,"dwell_time":48.368896484375,"response_time":1706033915724.49},{"trial":3,"action":1,"button_pressed":0,"time_out":false,"dwell_time":64.85595703125,"response_time":1706033930053.13},{"trial":3,"action":1,"button_pressed":7,"time_out":false,"dwell_time":63.76708984375,"response_time":1706033930402.09},{"trial":3,"action":1,"button_pressed":10,"time_out":false,"dwell_time":63.498046875,"response_time":1706033931102.53},{"trial":3,"action":1,"button_pressed":4,"time_out":false,"dwell_time":48.3779296875,"response_time":1706033931452.94},{"trial":3,"action":1,"button_pressed":1,"time_out":false,"dwell_time":64.56396484375,"response_time":1706033931835.59},{"trial":3,"action":9,"button_pressed":-1,"time_out":false,"dwell_time":47.5849609375,"response_time":1706033932302.37},{"trial":4,"action":1,"button_pressed":0,"time_out":false,"dwell_time":63.986083984375,"response_time":1706033949163.51},{"trial":4,"action":1,"button_pressed":4,"time_out":false,"dwell_time":63.887939453125,"response_time":1706033949462.59},{"trial":4,"action":1,"button_pressed":11,"time_out":false,"dwell_time":62.9560546875,"response_time":1706033950245.51},{"trial":4,"action":1,"button_pressed":3,"time_out":false,"dwell_time":28.9970703125,"response_time":1706033950611.43},{"trial":4,"action":1,"button_pressed":5,"time_out":false,"dwell_time":48.35791015625,"response_time":1706033950996.55},{"trial":4,"action":1,"button_pressed":7,"time_out":false,"dwell_time":47.7080078125,"response_time":1706033951412.34},{"trial":4,"action":9,"button_pressed":-1,"time_out":false,"dwell_time":48.29296875,"response_time":1706033952245.93},{"trial":5,"action":1,"button_pressed":4,"time_out":false,"dwell_time":47.7890625,"response_time":1706033971589.22},{"trial":5,"action":1,"button_pressed":2,"time_out":false,"dwell_time":47.970947265625,"response_time":1706033971956.34},{"trial":5,"action":1,"button_pressed":6,"time_out":false,"dwell_time":81.0380859375,"response_time":1706033972439.06},{"trial":5,"action":1,"button_pressed":8,"time_out":false,"dwell_time":63.767822265625,"response_time":1706033972871.59},{"trial":5,"action":1,"button_pressed":1,"time_out":false,"dwell_time":46.91015625,"response_time":1706033973371.84},{"trial":5,"action":1,"button_pressed":9,"time_out":false,"dwell_time":47.553955078125,"response_time":1706033973688.44},{"trial":5,"action":1,"button_pressed":0,"time_out":false,"dwell_time":63.83203125,"response_time":1706033975404.72},{"trial":5,"action":9,"button_pressed":-1,"time_out":false,"dwell_time":48.1630859375,"response_time":1706033975938.19},{"trial":6,"action":1,"button_pressed":8,"time_out":false,"dwell_time":80.85400390625,"response_time":1706033998346.91},{"trial":6,"action":1,"button_pressed":0,"time_out":false,"dwell_time":30.85595703125,"response_time":1706033998797.71},{"trial":6,"action":1,"button_pressed":6,"time_out":false,"dwell_time":63.9189453125,"response_time":1706033999746.26},{"trial":6,"action":1,"button_pressed":5,"time_out":false,"dwell_time":80.423095703125,"response_time":1706034002812.82},{"trial":6,"action":1,"button_pressed":9,"time_out":false,"dwell_time":46.633056640625,"response_time":1706034003745.36},{"trial":6,"action":1,"button_pressed":1,"time_out":false,"dwell_time":47.659912109375,"response_time":1706034004162.64},{"trial":6,"action":1,"button_pressed":7,"time_out":false,"dwell_time":48.612060546875,"response_time":1706034004745.82},{"trial":6,"action":1,"button_pressed":2,"time_out":false,"dwell_time":30.196044921875,"response_time":1706034005244.81},{"trial":6,"action":9,"button_pressed":-1,"time_out":false,"dwell_time":31.64111328125,"response_time":1706034005762.65},{"trial":7,"action":1,"button_pressed":2,"time_out":false,"dwell_time":64.9169921875,"response_time":1706034028121.28},{"trial":7,"action":1,"button_pressed":4,"time_out":false,"dwell_time":47.48095703125,"response_time":1706034028587.83},{"trial":7,"action":1,"button_pressed":11,"time_out":false,"dwell_time":63.710205078125,"response_time":1706034029269.85},{"trial":7,"action":1,"button_pressed":6,"time_out":false,"dwell_time":47.4580078125,"response_time":1706034029804.3},{"trial":7,"action":1,"button_pressed":5,"time_out":false,"dwell_time":30.2412109375,"response_time":1706034030320.05},{"trial":7,"action":1,"button_pressed":0,"time_out":false,"dwell_time":47.43115234375,"response_time":1706034032569.27},{"trial":7,"action":1,"button_pressed":10,"time_out":false,"dwell_time":47.43310546875,"response_time":1706034033019.09},{"trial":7,"action":1,"button_pressed":3,"time_out":false,"dwell_time":30.924072265625,"response_time":1706034033469.83},{"trial":7,"action":9,"button_pressed":-1,"time_out":false,"dwell_time":47.64697265625,"response_time":1706034033902.72},{"trial":8,"action":1,"button_pressed":4,"time_out":false,"dwell_time":47.140869140625,"response_time":1706034058444.3},{"trial":8,"action":1,"button_pressed":2,"time_out":false,"dwell_time":47.4619140625,"response_time":1706034058843.91},{"trial":8,"action":1,"button_pressed":7,"time_out":false,"dwell_time":62.805908203125,"response_time":1706034059293.47},{"trial":8,"action":1,"button_pressed":9,"time_out":false,"dwell_time":48.967041015625,"response_time":1706034060176.91},{"trial":8,"action":1,"button_pressed":1,"time_out":false,"dwell_time":31.0419921875,"response_time":1706034061076.55},{"trial":8,"action":1,"button_pressed":6,"time_out":false,"dwell_time":46.783203125,"response_time":1706034061426.45},{"trial":8,"action":1,"button_pressed":5,"time_out":false,"dwell_time":48.317138671875,"response_time":1706034061793.78},{"trial":8,"action":1,"button_pressed":11,"time_out":false,"dwell_time":80.3798828125,"response_time":1706034062225.8},{"trial":8,"action":9,"button_pressed":-1,"time_out":false,"dwell_time":48.157958984375,"response_time":1706034063009.79},{"trial":9,"action":1,"button_pressed":7,"time_out":false,"dwell_time":97.27099609375,"response_time":1706034087568.47},{"trial":9,"action":1,"button_pressed":1,"time_out":false,"dwell_time":47.632080078125,"response_time":1706034088101.88},{"trial":9,"action":1,"button_pressed":10,"time_out":false,"dwell_time":80.2578125,"response_time":1706034088767.17},{"trial":9,"action":1,"button_pressed":0,"time_out":false,"dwell_time":96.612060546875,"response_time":1706034089466.86},{"trial":9,"action":1,"button_pressed":6,"time_out":false,"dwell_time":113.634033203125,"response_time":1706034097947.38},{"trial":9,"action":1,"button_pressed":9,"time_out":false,"dwell_time":62.778076171875,"response_time":1706034099147.08},{"trial":9,"action":1,"button_pressed":2,"time_out":false,"dwell_time":81.27099609375,"response_time":1706034104529.29},{"trial":9,"action":1,"button_pressed":3,"time_out":false,"dwell_time":48.2822265625,"response_time":1706034104962.85},{"trial":9,"action":1,"button_pressed":5,"time_out":false,"dwell_time":30.951904296875,"response_time":1706034105345.46},{"trial":9,"action":9,"button_pressed":-1,"time_out":false,"dwell_time":64.51806640625,"response_time":1706034107128.25},{"trial":10,"action":1,"button_pressed":4,"time_out":false,"dwell_time":63.322998046875,"response_time":1706034127654.54},{"trial":10,"action":1,"button_pressed":2,"time_out":false,"dwell_time":63.77099609375,"response_time":1706034127955.04},{"trial":10,"action":1,"button_pressed":6,"time_out":false,"dwell_time":64.72607421875,"response_time":1706034128804.74},{"trial":10,"action":1,"button_pressed":10,"time_out":false,"dwell_time":30.02490234375,"response_time":1706034129137.79},{"trial":10,"action":1,"button_pressed":0,"time_out":false,"dwell_time":48.347900390625,"response_time":1706034129554.96},{"trial":10,"action":1,"button_pressed":3,"time_out":false,"dwell_time":48.072998046875,"response_time":1706034129871.68},{"trial":10,"action":1,"button_pressed":7,"time_out":false,"dwell_time":47.239990234375,"response_time":1706034130221.35},{"trial":10,"action":9,"button_pressed":-1,"time_out":false,"dwell_time":16.662109375,"response_time":1706034131270.21},{"trial":11,"action":1,"button_pressed":10,"time_out":false,"dwell_time":63.339111328125,"response_time":1706034151080.31},{"trial":11,"action":1,"button_pressed":1,"time_out":false,"dwell_time":31.122802734375,"response_time":1706034153597.3},{"trial":11,"action":1,"button_pressed":2,"time_out":false,"dwell_time":31.591064453125,"response_time":1706034154047.07},{"trial":11,"action":1,"button_pressed":2,"time_out":false,"dwell_time":47.72119140625,"response_time":1706034154713.45},{"trial":11,"action":1,"button_pressed":7,"time_out":false,"dwell_time":62.805908203125,"response_time":1706034155395.33},{"trial":11,"action":1,"button_pressed":0,"time_out":false,"dwell_time":46.716064453125,"response_time":1706034161460.35},{"trial":11,"action":1,"button_pressed":6,"time_out":false,"dwell_time":81.171142578125,"response_time":1706034161744.15},{"trial":11,"action":1,"button_pressed":4,"time_out":false,"dwell_time":30.573974609375,"response_time":1706034161909.84},{"trial":11,"action":9,"button_pressed":-1,"time_out":false,"dwell_time":31.489013671875,"response_time":1706034162443.88}]}