{"meta_data":{"additional_headers":{},"game_name":"Recollect","version":"2.53.01","user_name":"153","organization":"braingamecenter","study":"mpl2_2022_11","session_number":0,"device_id":"74342D95-EE82-45E3-8ADF-48FB3203C5DD"},"data":[{"stage":"Practice","trial":0,"sequence":"6F","letter_input":"F","number_input":"6","is_correct":true,"presentation_start_time":1706034222505.22,"presentation_end_time":1706034225507.84,"response_time":1706034231437.54},{"stage":"Practice","trial":1,"sequence":"G4","letter_input":"G","number_input":"4","is_correct":true,"presentation_start_time":1706034232968.5,"presentation_end_time":1706034235971.11,"response_time":1706034241049.29},{"stage":"Practice","trial":2,"sequence":"3W5","letter_input":"W","number_input":"35","is_correct":true,"presentation_start_time":1706034242582.25,"presentation_end_time":1706034247083.88,"response_time":1706034251845.76},{"stage":"Practice","trial":3,"sequence":"T7L","letter_input":"LT","number_input":"7","is_correct":true,"presentation_start_time":1706034253378.6,"presentation_end_time":1706034257880.61,"response_time":1706034268423.65},{"stage":"Practice","trial":4,"sequence":"9J1","letter_input":"J","number_input":"19","is_correct":true,"presentation_start_time":1706034269956.39,"presentation_end_time":1706034274458.55,"response_time":1706034279353.5},{"stage":"Calibration","trial":0,"sequence":"7F","letter_input":"F","number_input":"7","is_correct":true,"presentation_start_time":1706034287600.66,"presentation_end_time":1706034290603.33,"response_time":1706034295181.66},{"stage":"Calibration","trial":1,"sequence":"B9","letter_input":"B","number_input":"9","is_correct":true,"presentation_start_time":1706034296714.3,"presentation_end_time":1706034299717.01,"response_time":1706034303762.19},{"stage":"Calibration","trial":2,"sequence":"8D6","letter_input":"D","number_input":"68","is_correct":true,"presentation_start_time":1706034305294.95,"presentation_end_time":1706034309797.12,"response_time":1706034313792.22},{"stage":"Calibration","trial":3,"sequence":"L9B","letter_input":"BL","number_input":"9","is_correct":true,"presentation_start_time":1706034315325,"presentation_end_time":1706034319827,"response_time":1706034326304.89},{"stage":"Calibration","trial":4,"sequence":"6Q3D","letter_input":"DQ","number_input":"36","is_correct":true,"presentation_start_time":1706034327837.55,"presentation_end_time":1706034333839.3,"response_time":1706034344065.64},{"stage":"Calibration","trial":5,"sequence":"Z7E1","letter_input":"EZ","number_input":"17","is_correct":true,"presentation_start_time":1706034345598.31,"presentation_end_time":1706034351599.98,"response_time":1706034363176.03},{"stage":"Calibration","trial":6,"sequence":"2W8D5","letter_input":"DW","number_input":"258","is_correct":true,"presentation_start_time":1706034364708.83,"presentation_end_time":1706034372211.66,"response_time":1706034385856.74},{"stage":"Calibration","trial":7,"sequence":"Z9T3C","letter_input":"CTZ","number_input":"39","is_correct":true,"presentation_start_time":1706034387389.81,"presentation_end_time":1706034394891.72,"response_time":1706034413099.73},{"stage":"Calibration","trial":8,"sequence":"6J4E8M","letter_input":"EJMZ","number_input":"4","is_correct":false,"presentation_start_time":1706034414632.57,"presentation_end_time":1706034423633.44,"response_time":1706034455203.14},{"stage":"Calibration","trial":9,"sequence":"P2D9S5","letter_input":"DPS","number_input":"259","is_correct":true,"presentation_start_time":1706034456735.86,"presentation_end_time":1706034465736.38,"response_time":1706034492341.08},{"stage":"Calibration","trial":10,"sequence":"7R4N1B6","letter_input":"RN","number_input":"267","is_correct":false,"presentation_start_time":1706034493873.8,"presentation_end_time":1706034504374.13,"response_time":1706034538326.08},{"stage":"Calibration","trial":11,"sequence":"A2Q8D5S","letter_input":"AQ","number_input":"23","is_correct":false,"presentation_start_time":1706034539858.92,"presentation_end_time":1706034550359.12,"response_time":1706034578029.98}]}