Audio_Only_Files,Video_Files,Original_Word_List,noiseLevelCode,conditionCodes,noiseLevelFile1,noiseLevelFile2,InstrTextVar,targetSpeakerName,targetSpeakerEccen,targetSpkrChannel,targetSpkrSound,targetVisualDegrees,visStimLoc,visStimLoc2,visStimW,visStimH,practiceTrials.thisRepN,practiceTrials.thisTrialN,practiceTrials.thisN,practiceTrials.thisIndex,trials.thisRepN,trials.thisTrialN,trials.thisN,trials.thisIndex,audLocalLoop.thisRepN,audLocalLoop.thisTrialN,audLocalLoop.thisN,audLocalLoop.thisIndex,visualLocalLoop.thisRepN,visualLocalLoop.thisTrialN,visualLocalLoop.thisN,visualLocalLoop.thisIndex,letsGoAlready.keys,letsGoAlready.rt,letsGoAlready.started,letsGoAlready.stopped,text_2.started,text_2.stopped,text_3.started,text_3.stopped,key_resp_2.keys,key_resp_2.rt,key_resp_2.started,key_resp_2.stopped,text_5.started,text_5.stopped,fixCross.started,fixCross.stopped,fixCross2.started,fixCross2.stopped,answerPrompt.started,answerPrompt.stopped,getAnswer.text,getAnswer.started,getAnswer.stopped,goToNext.keys,goToNext.rt,goToNext.started,goToNext.stopped,stretchBreakTxrt.started,stretchBreakTxrt.stopped,key_resp_3.keys,key_resp_3.rt,key_resp_3.started,key_resp_3.stopped,letsGoLocal.keys,letsGoLocal.rt,letsGoLocal.started,letsGoLocal.stopped,text_4.started,text_4.stopped,prepFixTxt.started,prepFixTxt.stopped,prepFixTxt_2.started,prepFixTxt_2.stopped,respPromptLocal.started,respPromptLocal.stopped,slider.response,slider.rt,slider.started,slider.stopped,letsGoLocal_2.keys,letsGoLocal_2.rt,letsGoLocal_2.started,letsGoLocal_2.stopped,text_7.started,text_7.stopped,prepFixTxt_3.started,prepFixTxt_3.stopped,grating.started,grating.stopped,exitTxt.started,exitTxt.stopped,key_resp.keys,key_resp.rt,key_resp.started,key_resp.stopped,participant,session,date,expName,psychopyVersion,frameRate,
,,,,,,,,,,,,,,,,,,,,,,,,,,,,,,,,,space,8.952297119889408,41.757407997734845,None,,,,,,,,,,,,,,,,,,,,,,,,,,,,,,,,,,,,,,,,,,,,,,,,,,,,,,,,,,,,,,153,001,2024_Jan_23_1147,SpeechDraft1Carolyn_lessNoise_PlusLocalization,2021.2.3,59.971909195174824,
,,,,,,,,,,,,,,,,,,,,,,,,,,,,,,,,,,,,,41.757407997734845,None,50.840287868864834,None,space,8.885658932849765,51.02391486382112,None,,,,,,,,,,,,,,,,,,,,,,,,,,,,,,,,,,,,,,,,,,,,,,,,,,,,,,153,001,2024_Jan_23_1147,SpeechDraft1Carolyn_lessNoise_PlusLocalization,2021.2.3,59.971909195174824,
ash.wav,ash.mpg,ash,1,A,Pink_Noise_1_1.wav,Pink_Noise_1_2.wav,"This is an example of an

AUDIO trial",,,,,,,,,,0,0,0,0,,,,,,,,,,,,,,,,,,,,,,,,,59.973606403917074,None,60.95726995076984,None,65.74365628883243,None,67.12464770302176,None,ash,67.12464770302176,None,return,5.80623547360301,67.20749819977209,None,,,,,,,,,,,,,,,,,,,,,,,,,,,,,,,,,,,,,,,153,001,2024_Jan_23_1147,SpeechDraft1Carolyn_lessNoise_PlusLocalization,2021.2.3,59.971909195174824,
ash.wav,ash.mpg,ash,1,AV,Pink_Noise_1_1.wav,Pink_Noise_1_2.wav,"This is an example of an

AUDIO + VIDEO  trial",,,,,,,,,,0,1,1,1,,,,,,,,,,,,,,,,,,,,,,,,,73.0569664509967,None,74.05739219393581,None,75.55706856260076,None,76.9408212127164,None,ash,76.9408212127164,None,return,5.0774131482467055,77.02418528869748,None,,,,,,,,,,,,,,,,,,,,,,,,,,,,,,,,,,,,,,,153,001,2024_Jan_23_1147,SpeechDraft1Carolyn_lessNoise_PlusLocalization,2021.2.3,59.971909195174824,
,,,,,,,,,,,,,,,,,,,,,,,,,,,,,,,,,,,,,,,,,,,,,,,,,,,,,,,,,,,,82.1403434467502,None,space,5.8575923587195575,82.32399861468002,None,,,,,,,,,,,,,,,,,,,,,,,,,,,,,,,,,153,001,2024_Jan_23_1147,SpeechDraft1Carolyn_lessNoise_PlusLocalization,2021.2.3,59.971909195174824,
bake.wav,bake.mpg,bake,1,A,Pink_Noise_1_1.wav,Pink_Noise_1_2.wav,,,,,,,,,,,,,,,0,0,0,17,,,,,,,,,,,,,,,,,,,,,,,88.24028496304527,None,89.72458775574341,None,91.10741210263222,None,bake,91.10741210263222,None,return,8.31093090120703,91.19063117261976,None,,,,,,,,,,,,,,,,,,,,,,,,,,,,,,,,,,,,,,,153,001,2024_Jan_23_1147,SpeechDraft1Carolyn_lessNoise_PlusLocalization,2021.2.3,59.971909195174824,
grown.wav,grown.mpg,grown,6,A,Pink_Noise_6_1.wav,Pink_Noise_6_2.wav,,,,,,,,,,,,,,,0,1,1,30,,,,,,,,,,,,,,,,,,,,,,,99.52407045895234,None,101.02366795064881,None,102.40737834386528,None,bake,102.40737834386528,None,return,10.074953721370548,102.49062258377671,None,,,,,,,,,,,,,,,,,,,,,,,,,,,,,,,,,,,,,,,153,001,2024_Jan_23_1147,SpeechDraft1Carolyn_lessNoise_PlusLocalization,2021.2.3,59.971909195174824,
broom.wav,broom.mpg,broom,1,A,Pink_Noise_1_1.wav,Pink_Noise_1_2.wav,,,,,,,,,,,,,,,0,2,2,46,,,,,,,,,,,,,,,,,,,,,,,112.59067734377459,None,114.09051218582317,None,115.47404899261892,None,brioom,115.47404899261892,None,return,8.424393993802369,115.55735439062119,None,,,,,,,,,,,,,,,,,,,,,,,,,,,,,,,,,,,,,,,153,001,2024_Jan_23_1147,SpeechDraft1Carolyn_lessNoise_PlusLocalization,2021.2.3,59.971909195174824,
deed.wav,deed.mpg,deed,5,A,Pink_Noise_5_1.wav,Pink_Noise_5_2.wav,,,,,,,,,,,,,,,0,3,3,45,,,,,,,,,,,,,,,,,,,,,,,124.00730215292424,None,125.50699208164588,None,126.89068003604189,None,broom,126.89068003604189,None,return,5.479531255085021,126.97408525692299,None,,,,,,,,,,,,,,,,,,,,,,,,,,,,,,,,,,,,,,,153,001,2024_Jan_23_1147,SpeechDraft1Carolyn_lessNoise_PlusLocalization,2021.2.3,59.971909195174824,
snake.wav,snake.mpg,snake,2,A,Pink_Noise_2_1.wav,Pink_Noise_2_2.wav,,,,,,,,,,,,,,,0,4,4,32,,,,,,,,,,,,,,,,,,,,,,,132.47401415696368,None,133.97442303597927,None,135.35736298095435,None,snake,135.35736298095435,None,return,3.1329230889678,135.44078557565808,None,,,,,,,,,,,,,,,,,,,,,,,,,,,,,,,,,,,,,,,153,001,2024_Jan_23_1147,SpeechDraft1Carolyn_lessNoise_PlusLocalization,2021.2.3,59.971909195174824,
blob.wav,blob.mpg,blob,6,A,Pink_Noise_6_1.wav,Pink_Noise_6_2.wav,,,,,,,,,,,,,,,0,5,5,34,,,,,,,,,,,,,,,,,,,,,,,138.5909275780432,None,140.09040703671053,None,141.47420186689124,None,long,141.47420186689124,None,return,11.608233676292002,141.5573250139132,None,,,,,,,,,,,,,,,,,,,,,,,,,,,,,,,,,,,,,,,153,001,2024_Jan_23_1147,SpeechDraft1Carolyn_lessNoise_PlusLocalization,2021.2.3,59.971909195174824,
cart.wav,cart.mpg,cart,2,AV,Pink_Noise_2_1.wav,Pink_Noise_2_2.wav,,,,,,,,,,,,,,,0,6,6,100,,,,,,,,,,,,,,,,,,,,,,,153.190722997766,None,154.70716315088794,None,156.09065878670663,None,"cart
",156.09065878670663,None,return,4.519474113825709,156.17409694194794,None,,,,,,,,,,,,,,,,,,,,,,,,,,,,,,,,,,,,,,,153,001,2024_Jan_23_1147,SpeechDraft1Carolyn_lessNoise_PlusLocalization,2021.2.3,59.971909195174824,
gown.wav,gown.mpg,gown,1,AV,Pink_Noise_1_1.wav,Pink_Noise_1_2.wav,,,,,,,,,,,,,,,0,7,7,78,,,,,,,,,,,,,,,,,,,,,,,160.724110503681,None,162.22365588275716,None,163.60742759192362,None,gown,163.60742759192362,None,return,7.5149586531333625,163.69075435679406,None,,,,,,,,,,,,,,,,,,,,,,,,,,,,,,,,,,,,,,,153,001,2024_Jan_23_1147,SpeechDraft1Carolyn_lessNoise_PlusLocalization,2021.2.3,59.971909195174824,
frame.wav,frame.mpg,frame,3,AV,Pink_Noise_3_1.wav,Pink_Noise_3_2.wav,,,,,,,,,,,,,,,0,8,8,116,,,,,,,,,,,,,,,,,,,,,,,171.2241287138313,None,172.72375182574615,None,174.10742430668324,None,"rain
",174.10742430668324,None,return,23.534707874059677,174.1908791619353,None,,,,,,,,,,,,,,,,,,,,,,,,,,,,,,,,,,,,,,,153,001,2024_Jan_23_1147,SpeechDraft1Carolyn_lessNoise_PlusLocalization,2021.2.3,59.971909195174824,
toast.wav,toast.mpg,toast,4,AV,Pink_Noise_4_1.wav,Pink_Noise_4_2.wav,,,,,,,,,,,,,,,0,9,9,77,,,,,,,,,,,,,,,,,,,,,,,197.75737018696964,None,199.2737033800222,None,200.65752959996462,None,chose,200.65752959996462,None,return,5.2728728437796235,200.7407990959473,None,,,,,,,,,,,,,,,,,,,,,,,,,,,,,,,,,,,,,,,153,001,2024_Jan_23_1147,SpeechDraft1Carolyn_lessNoise_PlusLocalization,2021.2.3,59.971909195174824,
deem.wav,deem.mpg,deem,1,A,Pink_Noise_1_1.wav,Pink_Noise_1_2.wav,,,,,,,,,,,,,,,0,10,10,24,,,,,,,,,,,,,,,,,,,,,,,206.04087614966556,None,207.54041925165802,None,208.92418788187206,None,deem,208.92418788187206,None,return,3.0941557330079377,209.0074061867781,None,,,,,,,,,,,,,,,,,,,,,,,,,,,,,,,,,,,,,,,153,001,2024_Jan_23_1147,SpeechDraft1Carolyn_lessNoise_PlusLocalization,2021.2.3,59.971909195174824,
flea.wav,flea.mpg,flea,4,A,Pink_Noise_4_1.wav,Pink_Noise_4_2.wav,,,,,,,,,,,,,,,0,11,11,56,,,,,,,,,,,,,,,,,,,,,,,212.1241066097282,None,213.62377890665084,None,215.0075418399647,None,"leak
",215.0075418399647,None,return,8.250788319855928,215.09077056869864,None,,,,,,,,,,,,,,,,,,,,,,,,,,,,,,,,,,,,,,,153,001,2024_Jan_23_1147,SpeechDraft1Carolyn_lessNoise_PlusLocalization,2021.2.3,59.971909195174824,
boss.wav,boss.mpg,boss,2,AV,Pink_Noise_2_1.wav,Pink_Noise_2_2.wav,,,,,,,,,,,,,,,0,12,12,60,,,,,,,,,,,,,,,,,,,,,,,223.3741751019843,None,224.89041445963085,None,226.27424515178427,None,"boss
",226.27424515178427,None,return,4.320067244116217,226.35750155476853,None,,,,,,,,,,,,,,,,,,,,,,,,,,,,,,,,,,,,,,,153,001,2024_Jan_23_1147,SpeechDraft1Carolyn_lessNoise_PlusLocalization,2021.2.3,59.971909195174824,
flow.wav,flow.mpg,flow,5,AV,Pink_Noise_5_1.wav,Pink_Noise_5_2.wav,,,,,,,,,,,,,,,0,13,13,94,,,,,,,,,,,,,,,,,,,,,,,230.7074960079044,None,232.20712604979053,None,233.59088999358937,None,foam,233.59088999358937,None,return,4.523552391212434,233.6741216010414,None,,,,,,,,,,,,,,,,,,,,,,,,,,,,,,,,,,,,,,,153,001,2024_Jan_23_1147,SpeechDraft1Carolyn_lessNoise_PlusLocalization,2021.2.3,59.971909195174824,
badge.wav,badge.mpg,badge,3,A,Pink_Noise_3_1.wav,Pink_Noise_3_2.wav,,,,,,,,,,,,,,,0,14,14,49,,,,,,,,,,,,,,,,,,,,,,,238.22415103763342,None,239.7404659157619,None,241.12421430367976,None,bash,241.12421430367976,None,return,4.453962998930365,241.20760314259678,None,,,,,,,,,,,,,,,,,,,,,,,,,,,,,,,,,,,,,,,153,001,2024_Jan_23_1147,SpeechDraft1Carolyn_lessNoise_PlusLocalization,2021.2.3,59.971909195174824,
bird.wav,bird.mpg,bird,6,AV,Pink_Noise_6_1.wav,Pink_Noise_6_2.wav,,,,,,,,,,,,,,,0,15,15,98,,,,,,,,,,,,,,,,,,,,,,,245.6907700658776,None,247.1906428616494,None,248.5743814278394,None,,248.5743814278394,None,return,1.9800821179524064,248.65754800476134,None,,,,,,,,,,,,,,,,,,,,,,,,,,,,,,,,,,,,,,,153,001,2024_Jan_23_1147,SpeechDraft1Carolyn_lessNoise_PlusLocalization,2021.2.3,59.971909195174824,
gum.wav,gum.mpg,gum,6,A,Pink_Noise_6_1.wav,Pink_Noise_6_2.wav,,,,,,,,,,,,,,,0,16,16,6,,,,,,,,,,,,,,,,,,,,,,,250.67385359993204,None,252.17377659771591,None,253.557550964877,None,"wood
",253.557550964877,None,return,4.82067391090095,253.6408985457383,None,,,,,,,,,,,,,,,,,,,,,,,,,,,,,,,,,,,,,,,153,001,2024_Jan_23_1147,SpeechDraft1Carolyn_lessNoise_PlusLocalization,2021.2.3,59.971909195174824,
grief.wav,grief.mpg,grief,2,A,Pink_Noise_2_1.wav,Pink_Noise_2_2.wav,,,,,,,,,,,,,,,0,17,17,10,,,,,,,,,,,,,,,,,,,,,,,258.490985609591,None,259.9906297819689,None,261.3742212546058,None,"green
",261.3742212546058,None,return,3.8520643138326705,261.45750542683527,None,,,,,,,,,,,,,,,,,,,,,,,,,,,,,,,,,,,,,,,153,001,2024_Jan_23_1147,SpeechDraft1Carolyn_lessNoise_PlusLocalization,2021.2.3,59.971909195174824,
solve.wav,solve.mpg,solve,4,AV,Pink_Noise_4_1.wav,Pink_Noise_4_2.wav,,,,,,,,,,,,,,,0,18,18,103,,,,,,,,,,,,,,,,,,,,,,,265.34085177769884,None,266.84173739282414,None,268.2242387617007,None,saw,268.2242387617007,None,return,3.69791192188859,268.3076563007198,None,,,,,,,,,,,,,,,,,,,,,,,,,,,,,,,,,,,,,,,153,001,2024_Jan_23_1147,SpeechDraft1Carolyn_lessNoise_PlusLocalization,2021.2.3,59.971909195174824,
fruit.wav,fruit.mpg,fruit,2,A,Pink_Noise_2_1.wav,Pink_Noise_2_2.wav,,,,,,,,,,,,,,,0,19,19,35,,,,,,,,,,,,,,,,,,,,,,,272.0242542307824,None,273.52392716892064,None,274.90758240176365,None,fruit,274.90758240176365,None,return,3.1666504270397127,274.9909142688848,None,,,,,,,,,,,,,,,,,,,,,,,,,,,,,,,,,,,,,,,153,001,2024_Jan_23_1147,SpeechDraft1Carolyn_lessNoise_PlusLocalization,2021.2.3,59.971909195174824,
flee.wav,flee.mpg,flee,5,A,Pink_Noise_5_1.wav,Pink_Noise_5_2.wav,,,,,,,,,,,,,,,0,20,20,47,,,,,,,,,,,,,,,,,,,,,,,278.174273700919,None,279.6906193997711,None,281.0743996328674,None,"beam
",281.0743996328674,None,return,4.167888435069472,281.1576803298667,None,,,,,,,,,,,,,,,,,,,,,,,,,,,,,,,,,,,,,,,153,001,2024_Jan_23_1147,SpeechDraft1Carolyn_lessNoise_PlusLocalization,2021.2.3,59.971909195174824,
fuss.wav,fuss.mpg,fuss,4,AV,Pink_Noise_4_1.wav,Pink_Noise_4_2.wav,,,,,,,,,,,,,,,0,21,21,63,,,,,,,,,,,,,,,,,,,,,,,285.35758027387783,None,286.85724323475733,None,288.24080794490874,None,"rust
",288.24080794490874,None,return,10.001342325937003,288.32423317199573,None,,,,,,,,,,,,,,,,,,,,,,,,,,,,,,,,,,,,,,,153,001,2024_Jan_23_1147,SpeechDraft1Carolyn_lessNoise_PlusLocalization,2021.2.3,59.971909195174824,
beige.wav,beige.mpg,beige,5,AV,Pink_Noise_5_1.wav,Pink_Noise_5_2.wav,,,,,,,,,,,,,,,0,22,22,118,,,,,,,,,,,,,,,,,,,,,,,298.35763521585613,None,299.8590750908479,None,301.2409642636776,None,beige,301.2409642636776,None,return,6.705404025036842,301.3242334178649,None,,,,,,,,,,,,,,,,,,,,,,,,,,,,,,,,,,,,,,,153,001,2024_Jan_23_1147,SpeechDraft1Carolyn_lessNoise_PlusLocalization,2021.2.3,59.971909195174824,
fund.wav,fund.mpg,fund,5,A,Pink_Noise_5_1.wav,Pink_Noise_5_2.wav,,,,,,,,,,,,,,,0,23,23,12,,,,,,,,,,,,,,,,,,,,,,,308.05759048694745,None,309.5579999089241,None,310.9409542698413,None,front,310.9409542698413,None,return,5.141447034664452,311.0242779958062,None,,,,,,,,,,,,,,,,,,,,,,,,,,,,,,,,,,,,,,,153,001,2024_Jan_23_1147,SpeechDraft1Carolyn_lessNoise_PlusLocalization,2021.2.3,59.971909195174824,
brag.wav,brag.mpg,brag,5,AV,Pink_Noise_5_1.wav,Pink_Noise_5_2.wav,,,,,,,,,,,,,,,0,24,24,107,,,,,,,,,,,,,,,,,,,,,,,316.1910357088782,None,317.6904791877605,None,319.07437744084746,None,brand,319.07437744084746,None,return,4.159980191383511,319.15762793598697,None,,,,,,,,,,,,,,,,,,,,,,,,,,,,,,,,,,,,,,,153,001,2024_Jan_23_1147,SpeechDraft1Carolyn_lessNoise_PlusLocalization,2021.2.3,59.971909195174824,
date.wav,date.mpg,date,4,AV,Pink_Noise_4_1.wav,Pink_Noise_4_2.wav,,,,,,,,,,,,,,,0,25,25,93,,,,,,,,,,,,,,,,,,,,,,,323.34108364069834,None,324.8405646379106,None,326.2242350047454,None,sit,326.2242350047454,None,return,2.6577247278764844,326.3078627209179,None,,,,,,,,,,,,,,,,,,,,,,,,,,,,,,,,,,,,,,,153,001,2024_Jan_23_1147,SpeechDraft1Carolyn_lessNoise_PlusLocalization,2021.2.3,59.971909195174824,
blast.wav,blast.mpg,blast,6,A,Pink_Noise_6_1.wav,Pink_Noise_6_2.wav,,,,,,,,,,,,,,,0,26,26,11,,,,,,,,,,,,,,,,,,,,,,,328.9910400980152,None,330.5072208829224,None,331.8910395610146,None,ran,331.8910395610146,None,return,4.89521294599399,331.97436080360785,None,,,,,,,,,,,,,,,,,,,,,,,,,,,,,,,,,,,,,,,153,001,2024_Jan_23_1147,SpeechDraft1Carolyn_lessNoise_PlusLocalization,2021.2.3,59.971909195174824,
chore.wav,chore.mpg,chore,1,AV,Pink_Noise_1_1.wav,Pink_Noise_1_2.wav,,,,,,,,,,,,,,,0,27,27,117,,,,,,,,,,,,,,,,,,,,,,,336.89102936396375,None,338.40742529463023,None,339.79090274171904,None,chore,339.79090274171904,None,return,3.995217668823898,339.87434666370973,None,,,,,,,,,,,,,,,,,,,,,,,,,,,,,,,,,,,,,,,153,001,2024_Jan_23_1147,SpeechDraft1Carolyn_lessNoise_PlusLocalization,2021.2.3,59.971909195174824,
fame.wav,fame.mpg,fame,6,AV,Pink_Noise_6_1.wav,Pink_Noise_6_2.wav,,,,,,,,,,,,,,,0,28,28,79,,,,,,,,,,,,,,,,,,,,,,,343.8911000518128,None,345.39074836298823,None,346.77433105697855,None,fame,346.77433105697855,None,return,4.675955535843968,346.8576524727978,None,,,,,,,,,,,,,,,,,,,,,,,,,,,,,,,,,,,,,,,153,001,2024_Jan_23_1147,SpeechDraft1Carolyn_lessNoise_PlusLocalization,2021.2.3,59.971909195174824,
guilt.wav,guilt.mpg,guilt,3,A,Pink_Noise_3_1.wav,Pink_Noise_3_2.wav,,,,,,,,,,,,,,,0,29,29,31,,,,,,,,,,,,,,,,,,,,,,,351.5577007289976,None,353.0573329888284,None,354.4410386136733,None,guilt,354.4410386136733,None,return,3.177256988361478,354.5242882827297,None,,,,,,,,,,,,,,,,,,,,,,,,,,,,,,,,,,,,,,,153,001,2024_Jan_23_1147,SpeechDraft1Carolyn_lessNoise_PlusLocalization,2021.2.3,59.971909195174824,
broke.wav,broke.mpg,broke,2,A,Pink_Noise_2_1.wav,Pink_Noise_2_2.wav,,,,,,,,,,,,,,,0,30,30,29,,,,,,,,,,,,,,,,,,,,,,,357.7242619586177,None,359.2406155029312,None,360.6243883250281,None,broke,360.6243883250281,None,return,13.345961701124907,360.7076010135934,None,,,,,,,,,,,,,,,,,,,,,,,,,,,,,,,,,,,,,,,153,001,2024_Jan_23_1147,SpeechDraft1Carolyn_lessNoise_PlusLocalization,2021.2.3,59.971909195174824,
buff.wav,buff.mpg,buff,6,AV,Pink_Noise_6_1.wav,Pink_Noise_6_2.wav,,,,,,,,,,,,,,,0,31,31,102,,,,,,,,,,,,,,,,,,,,,,,374.0743680950254,None,375.5906970547512,None,376.97444939194247,None,brunch,376.97444939194247,None,return,11.115944990888238,377.0576963550411,None,,,,,,,,,,,,,,,,,,,,,,,,,,,,,,,,,,,,,,,153,001,2024_Jan_23_1147,SpeechDraft1Carolyn_lessNoise_PlusLocalization,2021.2.3,59.971909195174824,
dusk.wav,dusk.mpg,dusk,5,A,Pink_Noise_5_1.wav,Pink_Noise_5_2.wav,,,,,,,,,,,,,,,0,32,32,13,,,,,,,,,,,,,,,,,,,,,,,388.1910447720438,None,389.70735857076943,None,391.09104727068916,None,dust,391.09104727068916,None,return,3.1110904761590064,391.17447394598275,None,,,,,,,,,,,,,,,,,,,,,,,,,,,,,,,,,,,,,,,153,001,2024_Jan_23_1147,SpeechDraft1Carolyn_lessNoise_PlusLocalization,2021.2.3,59.971909195174824,
slick.wav,slick.mpg,slick,1,A,Pink_Noise_1_1.wav,Pink_Noise_1_2.wav,,,,,,,,,,,,,,,0,33,33,9,,,,,,,,,,,,,,,,,,,,,,,394.3077404159121,None,395.8074032110162,None,397.19112477079034,None,"slake
",397.19112477079034,None,return,7.987216089386493,397.2743482775986,None,,,,,,,,,,,,,,,,,,,,,,,,,,,,,,,,,,,,,,,153,001,2024_Jan_23_1147,SpeechDraft1Carolyn_lessNoise_PlusLocalization,2021.2.3,59.971909195174824,
foot.wav,foot.mpg,foot,1,AV,Pink_Noise_1_1.wav,Pink_Noise_1_2.wav,,,,,,,,,,,,,,,0,34,34,67,,,,,,,,,,,,,,,,,,,,,,,405.29105905769393,None,406.7922266507521,None,408.17434717388824,None,foot,408.17434717388824,None,return,2.395776466000825,408.25777316559106,None,,,,,,,,,,,,,,,,,,,,,,,,,,,,,,,,,,,,,,,153,001,2024_Jan_23_1147,SpeechDraft1Carolyn_lessNoise_PlusLocalization,2021.2.3,59.971909195174824,
choke.wav,choke.mpg,choke,2,A,Pink_Noise_2_1.wav,Pink_Noise_2_2.wav,,,,,,,,,,,,,,,0,35,35,26,,,,,,,,,,,,,,,,,,,,,,,410.6743139778264,None,412.1746875438839,None,413.5577472988516,None,choke,413.5577472988516,None,return,3.1884932899847627,413.6411128710024,None,,,,,,,,,,,,,,,,,,,,,,,,,,,,,,,,,,,,,,,153,001,2024_Jan_23_1147,SpeechDraft1Carolyn_lessNoise_PlusLocalization,2021.2.3,59.971909195174824,
quest.wav,quest.mpg,quest,5,A,Pink_Noise_5_1.wav,Pink_Noise_5_2.wav,,,,,,,,,,,,,,,0,36,36,57,,,,,,,,,,,,,,,,,,,,,,,416.8577351537533,None,418.37407497502863,None,419.7578819775954,None,"rust
",419.7578819775954,None,return,5.900507423095405,419.84106619283557,None,,,,,,,,,,,,,,,,,,,,,,,,,,,,,,,,,,,,,,,153,001,2024_Jan_23_1147,SpeechDraft1Carolyn_lessNoise_PlusLocalization,2021.2.3,59.971909195174824,
choir.wav,choir.mpg,choir,6,A,Pink_Noise_6_1.wav,Pink_Noise_6_2.wav,,,,,,,,,,,,,,,0,37,37,22,,,,,,,,,,,,,,,,,,,,,,,425.77442281879485,None,427.2908040378243,None,428.6745485616848,None,lane,428.6745485616848,None,return,2.8639264581725,428.7576687405817,None,,,,,,,,,,,,,,,,,,,,,,,,,,,,,,,,,,,,,,,153,001,2024_Jan_23_1147,SpeechDraft1Carolyn_lessNoise_PlusLocalization,2021.2.3,59.971909195174824,
teen.wav,teen.mpg,teen,3,AV,Pink_Noise_3_1.wav,Pink_Noise_3_2.wav,,,,,,,,,,,,,,,0,38,38,81,,,,,,,,,,,,,,,,,,,,,,,431.6412532669492,None,433.14239016594365,None,434.52440363168716,None,teen,434.52440363168716,None,return,2.189895350020379,434.60780346859246,None,,,,,,,,,,,,,,,,,,,,,,,,,,,,,,,,,,,,,,,153,001,2024_Jan_23_1147,SpeechDraft1Carolyn_lessNoise_PlusLocalization,2021.2.3,59.971909195174824,
golf.wav,golf.mpg,golf,6,A,Pink_Noise_6_1.wav,Pink_Noise_6_2.wav,,,,,,,,,,,,,,,0,39,39,3,,,,,,,,,,,,,,,,,,,,,,,436.82450079359114,None,438.3240500916727,None,439.7077700579539,None,ruch,439.7077700579539,None,return,6.294403715990484,439.7911541177891,None,,,,,,,,,,,,,,,,,,,,,,,,,,,,,,,,,,,,,,,153,001,2024_Jan_23_1147,SpeechDraft1Carolyn_lessNoise_PlusLocalization,2021.2.3,59.971909195174824,
cat.wav,cat.mpg,cat,1,A,Pink_Noise_1_1.wav,Pink_Noise_1_2.wav,,,,,,,,,,,,,,,0,40,40,43,,,,,,,,,,,,,,,,,,,,,,,446.10790929570794,None,447.6081199878827,None,448.99136097496375,None,cayt\,448.99136097496375,None,return,7.331174741033465,449.074422549922,None,,,,,,,,,,,,,,,,,,,,,,,,,,,,,,,,,,,,,,,153,001,2024_Jan_23_1147,SpeechDraft1Carolyn_lessNoise_PlusLocalization,2021.2.3,59.971909195174824,
cash.wav,cash.mpg,cash,3,A,Pink_Noise_3_1.wav,Pink_Noise_3_2.wav,,,,,,,,,,,,,,,0,41,41,37,,,,,,,,,,,,,,,,,,,,,,,456.42451485199854,None,457.9409446399659,None,459.3245652760379,None,pesh,459.3245652760379,None,return,5.765895596705377,459.4079262269661,None,,,,,,,,,,,,,,,,,,,,,,,,,,,,,,,,,,,,,,,153,001,2024_Jan_23_1147,SpeechDraft1Carolyn_lessNoise_PlusLocalization,2021.2.3,59.971909195174824,
awe.wav,awe.mpg,awe,3,AV,Pink_Noise_3_1.wav,Pink_Noise_3_2.wav,,,,,,,,,,,,,,,0,42,42,111,,,,,,,,,,,,,,,,,,,,,,,465.19124401174486,None,466.6922881877981,None,468.07460279762745,None,"aw
",468.07460279762745,None,return,2.1837164973840117,468.15785717684776,None,,,,,,,,,,,,,,,,,,,,,,,,,,,,,,,,,,,,,,,153,001,2024_Jan_23_1147,SpeechDraft1Carolyn_lessNoise_PlusLocalization,2021.2.3,59.971909195174824,
fill.wav,fill.mpg,fill,5,A,Pink_Noise_5_1.wav,Pink_Noise_5_2.wav,,,,,,,,,,,,,,,0,43,43,33,,,,,,,,,,,,,,,,,,,,,,,470.37444955902174,None,471.89088613772765,None,473.27454599458724,None,bed,473.27454599458724,None,return,3.255687676835805,473.3579372558743,None,,,,,,,,,,,,,,,,,,,,,,,,,,,,,,,,,,,,,,,153,001,2024_Jan_23_1147,SpeechDraft1Carolyn_lessNoise_PlusLocalization,2021.2.3,59.971909195174824,
guide.wav,guide.mpg,guide,5,AV,Pink_Noise_5_1.wav,Pink_Noise_5_2.wav,,,,,,,,,,,,,,,0,44,44,109,,,,,,,,,,,,,,,,,,,,,,,476.641511764843,None,478.1575688580051,None,479.5411981716752,None,nine,479.5411981716752,None,return,4.093078567180783,479.6245038206689,None,,,,,,,,,,,,,,,,,,,,,,,,,,,,,,,,,,,,,,,153,001,2024_Jan_23_1147,SpeechDraft1Carolyn_lessNoise_PlusLocalization,2021.2.3,59.971909195174824,
route.wav,route.mpg,route,6,A,Pink_Noise_6_1.wav,Pink_Noise_6_2.wav,,,,,,,,,,,,,,,0,45,45,15,,,,,,,,,,,,,,,,,,,,,,,483.74120847461745,None,485.24080021167174,None,486.62459674384445,None,sleep,486.62459674384445,None,return,2.4817403559572995,486.7080078506842,None,,,,,,,,,,,,,,,,,,,,,,,,,,,,,,,,,,,,,,,153,001,2024_Jan_23_1147,SpeechDraft1Carolyn_lessNoise_PlusLocalization,2021.2.3,59.971909195174824,
feud.wav,feud.mpg,feud,5,A,Pink_Noise_5_1.wav,Pink_Noise_5_2.wav,,,,,,,,,,,,,,,0,46,46,0,,,,,,,,,,,,,,,,,,,,,,,489.20790629601106,None,490.7241207296029,None,492.10787319764495,None,"dean
",492.10787319764495,None,return,2.886308327317238,492.19124395865947,None,,,,,,,,,,,,,,,,,,,,,,,,,,,,,,,,,,,,,,,153,001,2024_Jan_23_1147,SpeechDraft1Carolyn_lessNoise_PlusLocalization,2021.2.3,59.971909195174824,
druid.wav,druid.mpg,druid,6,AV,Pink_Noise_6_1.wav,Pink_Noise_6_2.wav,,,,,,,,,,,,,,,0,47,47,101,,,,,,,,,,,,,,,,,,,,,,,495.1079045999795,None,496.6241764416918,None,498.0077607659623,None,jewel,498.0077607659623,None,return,3.610257231630385,498.0912990369834,None,,,,,,,,,,,,,,,,,,,,,,,,,,,,,,,,,,,,,,,153,001,2024_Jan_23_1147,SpeechDraft1Carolyn_lessNoise_PlusLocalization,2021.2.3,59.971909195174824,
grant.wav,grant.mpg,grant,2,AV,Pink_Noise_2_1.wav,Pink_Noise_2_2.wav,,,,,,,,,,,,,,,0,48,48,80,,,,,,,,,,,,,,,,,,,,,,,501.7245987858623,None,503.240834843833,None,504.624484680593,None,"grant
",504.624484680593,None,return,4.353603600058705,504.7079548286274,None,,,,,,,,,,,,,,,,,,,,,,,,,,,,,,,,,,,,,,,153,001,2024_Jan_23_1147,SpeechDraft1Carolyn_lessNoise_PlusLocalization,2021.2.3,59.971909195174824,
cent.wav,cent.mpg,cent,4,A,Pink_Noise_4_1.wav,Pink_Noise_4_2.wav,,,,,,,,,,,,,,,0,49,49,52,,,,,,,,,,,,,,,,,,,,,,,509.0912824086845,None,510.60756783094257,None,511.9911714280024,None,sit,511.9911714280024,None,return,5.6909872349351645,512.0745701016858,None,,,,,,,,,,,,,,,,,,,,,,,,,,,,,,,,,,,,,,,153,001,2024_Jan_23_1147,SpeechDraft1Carolyn_lessNoise_PlusLocalization,2021.2.3,59.971909195174824,
check.wav,check.mpg,check,2,A,Pink_Noise_2_1.wav,Pink_Noise_2_2.wav,,,,,,,,,,,,,,,0,50,50,39,,,,,,,,,,,,,,,,,,,,,,,517.7912713456899,None,519.3075504689477,None,520.6912707509473,None,"check
",520.6912707509473,None,return,2.1669132253155112,520.7746488749981,None,,,,,,,,,,,,,,,,,,,,,,,,,,,,,,,,,,,,,,,153,001,2024_Jan_23_1147,SpeechDraft1Carolyn_lessNoise_PlusLocalization,2021.2.3,59.971909195174824,
dock.wav,dock.mpg,dock,5,AV,Pink_Noise_5_1.wav,Pink_Noise_5_2.wav,,,,,,,,,,,,,,,0,51,51,95,,,,,,,,,,,,,,,,,,,,,,,522.9745003716089,None,524.4908749419264,None,525.8746677306481,None,"sun
",525.8746677306481,None,return,3.151616889052093,525.9579437477514,None,,,,,,,,,,,,,,,,,,,,,,,,,,,,,,,,,,,,,,,153,001,2024_Jan_23_1147,SpeechDraft1Carolyn_lessNoise_PlusLocalization,2021.2.3,59.971909195174824,
bring.wav,bring.mpg,bring,5,A,Pink_Noise_5_1.wav,Pink_Noise_5_2.wav,,,,,,,,,,,,,,,0,52,52,14,,,,,,,,,,,,,,,,,,,,,,,529.1412281128578,None,530.6575690386817,None,532.041158283595,None,grain,532.041158283595,None,return,4.313093734905124,532.1245606020093,None,,,,,,,,,,,,,,,,,,,,,,,,,,,,,,,,,,,,,,,153,001,2024_Jan_23_1147,SpeechDraft1Carolyn_lessNoise_PlusLocalization,2021.2.3,59.971909195174824,
crane.wav,crane.mpg,crane,5,AV,Pink_Noise_5_1.wav,Pink_Noise_5_2.wav,,,,,,,,,,,,,,,0,53,53,82,,,,,,,,,,,,,,,,,,,,,,,536.4580628275871,None,537.9743537567556,None,539.3580137607642,None,ant,539.3580137607642,None,return,4.324467617087066,539.4412419600412,None,,,,,,,,,,,,,,,,,,,,,,,,,,,,,,,,,,,,,,,153,001,2024_Jan_23_1147,SpeechDraft1Carolyn_lessNoise_PlusLocalization,2021.2.3,59.971909195174824,
giant.wav,giant.mpg,giant,6,AV,Pink_Noise_6_1.wav,Pink_Noise_6_2.wav,,,,,,,,,,,,,,,0,54,54,86,,,,,,,,,,,,,,,,,,,,,,,543.7911969888955,None,545.3076657527126,None,546.6912970216945,None,"jug
",546.6912970216945,None,return,4.88707380509004,546.7744960617274,None,,,,,,,,,,,,,,,,,,,,,,,,,,,,,,,,,,,,,,,153,001,2024_Jan_23_1147,SpeechDraft1Carolyn_lessNoise_PlusLocalization,2021.2.3,59.971909195174824,
germ.wav,germ.mpg,germ,2,A,Pink_Noise_2_1.wav,Pink_Noise_2_2.wav,,,,,,,,,,,,,,,0,55,55,2,,,,,,,,,,,,,,,,,,,,,,,551.6912970528938,None,553.2075526146218,None,554.5913047599606,None,joe,554.5913047599606,None,return,4.282956269104034,554.6747105168179,None,,,,,,,,,,,,,,,,,,,,,,,,,,,,,,,,,,,,,,,153,001,2024_Jan_23_1147,SpeechDraft1Carolyn_lessNoise_PlusLocalization,2021.2.3,59.971909195174824,
stuck.wav,stuck.mpg,stuck,2,AV,Pink_Noise_2_1.wav,Pink_Noise_2_2.wav,,,,,,,,,,,,,,,0,56,56,87,,,,,,,,,,,,,,,,,,,,,,,558.9745738399215,None,560.4909276529215,None,561.8745525116101,None,stuck,561.8745525116101,None,return,6.079639793839306,561.9580068187788,None,,,,,,,,,,,,,,,,,,,,,,,,,,,,,,,,,,,,,,,153,001,2024_Jan_23_1147,SpeechDraft1Carolyn_lessNoise_PlusLocalization,2021.2.3,59.971909195174824,
care.wav,care.mpg,care,4,A,Pink_Noise_4_1.wav,Pink_Noise_4_2.wav,,,,,,,,,,,,,,,0,57,57,18,,,,,,,,,,,,,,,,,,,,,,,568.058037601877,None,569.5743419248611,None,570.9579743519425,None,care,570.9579743519425,None,return,1.7883332427591085,571.0413159946911,None,,,,,,,,,,,,,,,,,,,,,,,,,,,,,,,,,,,,,,,153,001,2024_Jan_23_1147,SpeechDraft1Carolyn_lessNoise_PlusLocalization,2021.2.3,59.971909195174824,
friend.wav,friend.mpg,friend,2,A,Pink_Noise_2_1.wav,Pink_Noise_2_2.wav,,,,,,,,,,,,,,,0,58,58,1,,,,,,,,,,,,,,,,,,,,,,,572.8579627107829,None,574.3910604338162,None,575.7748001487926,None,friend,575.7748001487926,None,return,2.1237290808930993,575.8579932940193,None,,,,,,,,,,,,,,,,,,,,,,,,,,,,,,,,,,,,,,,153,001,2024_Jan_23_1147,SpeechDraft1Carolyn_lessNoise_PlusLocalization,2021.2.3,59.971909195174824,
glide.wav,glide.mpg,glide,5,A,Pink_Noise_5_1.wav,Pink_Noise_5_2.wav,,,,,,,,,,,,,,,0,59,59,28,,,,,,,,,,,,,,,,,,,,,,,578.0079746386036,None,579.5242294166237,None,580.9080483536236,None,blind,580.9080483536236,None,return,2.278196174185723,580.9913786239922,None,,,,,,,,,,,,,,,,,,,,,,,,,,,,,,,,,,,,,,,153,001,2024_Jan_23_1147,SpeechDraft1Carolyn_lessNoise_PlusLocalization,2021.2.3,59.971909195174824,
dead.wav,dead.mpg,dead,4,A,Pink_Noise_4_1.wav,Pink_Noise_4_2.wav,,,,,,,,,,,,,,,0,60,60,27,,,,,,,,,,,,,,,,,,,,,,,583.2913474850357,None,584.807755083777,None,586.19135373272,None,dead,586.19135373272,None,return,2.426838805899024,586.2747180419974,None,,,,,,,,,,,,,,,,,,,,,,,,,,,,,,,,,,,,,,,153,001,2024_Jan_23_1147,SpeechDraft1Carolyn_lessNoise_PlusLocalization,2021.2.3,59.971909195174824,
broad.wav,broad.mpg,broad,2,AV,Pink_Noise_2_1.wav,Pink_Noise_2_2.wav,,,,,,,,,,,,,,,0,61,61,105,,,,,,,,,,,,,,,,,,,,,,,588.7247045808472,None,590.2411085669883,None,591.6246316917241,None,broad,591.6246316917241,None,return,3.5456172483973205,591.7079660869204,None,,,,,,,,,,,,,,,,,,,,,,,,,,,,,,,,,,,,,,,153,001,2024_Jan_23_1147,SpeechDraft1Carolyn_lessNoise_PlusLocalization,2021.2.3,59.971909195174824,
gulf.wav,gulf.mpg,gulf,6,A,Pink_Noise_6_1.wav,Pink_Noise_6_2.wav,,,,,,,,,,,,,,,0,62,62,16,,,,,,,,,,,,,,,,,,,,,,,595.2747649597004,None,596.7910182457417,None,598.1746977600269,None,rain,598.1746977600269,None,return,3.243528159800917,598.2580537828617,None,,,,,,,,,,,,,,,,,,,,,,,,,,,,,,,,,,,,,,,153,001,2024_Jan_23_1147,SpeechDraft1Carolyn_lessNoise_PlusLocalization,2021.2.3,59.971909195174824,
groom.wav,groom.mpg,groom,1,A,Pink_Noise_1_1.wav,Pink_Noise_1_2.wav,,,,,,,,,,,,,,,0,63,63,50,,,,,,,,,,,,,,,,,,,,,,,601.5246412470005,None,603.0409637098201,None,604.4248181367293,None,grim,604.4248181367293,None,return,6.1615895656868815,604.5079748076387,None,,,,,,,,,,,,,,,,,,,,,,,,,,,,,,,,,,,,,,,153,001,2024_Jan_23_1147,SpeechDraft1Carolyn_lessNoise_PlusLocalization,2021.2.3,59.971909195174824,
dream.wav,dream.mpg,dream,1,A,Pink_Noise_1_1.wav,Pink_Noise_1_2.wav,,,,,,,,,,,,,,,0,64,64,7,,,,,,,,,,,,,,,,,,,,,,,610.6913895946927,None,612.207676736638,None,613.5914491596632,None,dream,613.5914491596632,None,return,3.1308582350611687,613.6747101349756,None,,,,,,,,,,,,,,,,,,,,,,,,,,,,,,,,,,,,,,,153,001,2024_Jan_23_1147,SpeechDraft1Carolyn_lessNoise_PlusLocalization,2021.2.3,59.971909195174824,
bias.wav,bias.mpg,bias,6,A,Pink_Noise_6_1.wav,Pink_Noise_6_2.wav,,,,,,,,,,,,,,,0,65,65,19,,,,,,,,,,,,,,,,,,,,,,,616.824659965001,None,618.3408926376142,None,619.7247460228391,None,aundry,619.7247460228391,None,return,3.2056194418109953,619.808056904003,None,,,,,,,,,,,,,,,,,,,,,,,,,,,,,,,,,,,,,,,153,001,2024_Jan_23_1147,SpeechDraft1Carolyn_lessNoise_PlusLocalization,2021.2.3,59.971909195174824,
gate.wav,gate.mpg,gate,3,A,Pink_Noise_3_1.wav,Pink_Noise_3_2.wav,,,,,,,,,,,,,,,0,66,66,23,,,,,,,,,,,,,,,,,,,,,,,623.0414316728711,None,624.5577524118125,None,625.9413978327066,None,gain,625.9413978327066,None,return,9.796949706971645,626.024657856673,None,,,,,,,,,,,,,,,,,,,,,,,,,,,,,,,,,,,,,,,153,001,2024_Jan_23_1147,SpeechDraft1Carolyn_lessNoise_PlusLocalization,2021.2.3,59.971909195174824,
cloth.wav,cloth.mpg,cloth,6,AV,Pink_Noise_6_1.wav,Pink_Noise_6_2.wav,,,,,,,,,,,,,,,0,67,67,73,,,,,,,,,,,,,,,,,,,,,,,635.8412993126549,None,637.3585405689664,None,638.7413041098043,None,loth,638.7413041098043,None,return,6.196942233014852,638.8247167598456,None,,,,,,,,,,,,,,,,,,,,,,,,,,,,,,,,,,,,,,,153,001,2024_Jan_23_1147,SpeechDraft1Carolyn_lessNoise_PlusLocalization,2021.2.3,59.971909195174824,
grim.wav,grim.mpg,grim,3,AV,Pink_Noise_3_1.wav,Pink_Noise_3_2.wav,,,,,,,,,,,,,,,0,68,68,106,,,,,,,,,,,,,,,,,,,,,,,645.0414551529102,None,646.5576936989091,None,647.9413576438092,None,"grom
",647.9413576438092,None,return,2.652832150924951,648.0247266925871,None,,,,,,,,,,,,,,,,,,,,,,,,,,,,,,,,,,,,,,,153,001,2024_Jan_23_1147,SpeechDraft1Carolyn_lessNoise_PlusLocalization,2021.2.3,59.971909195174824,
row.wav,row.mpg,row,2,AV,Pink_Noise_2_1.wav,Pink_Noise_2_2.wav,,,,,,,,,,,,,,,0,69,69,69,,,,,,,,,,,,,,,,,,,,,,,650.7080958466977,None,652.2244098717347,None,653.6080711539835,None,robe,653.6080711539835,None,return,4.074273477774113,653.6913085640408,None,,,,,,,,,,,,,,,,,,,,,,,,,,,,,,,,,,,,,,,153,001,2024_Jan_23_1147,SpeechDraft1Carolyn_lessNoise_PlusLocalization,2021.2.3,59.971909195174824,
shed.wav,shed.mpg,shed,4,A,Pink_Noise_4_1.wav,Pink_Noise_4_2.wav,,,,,,,,,,,,,,,0,70,70,42,,,,,,,,,,,,,,,,,,,,,,,657.7914556968026,None,659.3077760599554,None,660.6914912806824,None,change,660.6914912806824,None,return,3.8948067747987807,660.7747722319327,None,,,,,,,,,,,,,,,,,,,,,,,,,,,,,,,,,,,,,,,153,001,2024_Jan_23_1147,SpeechDraft1Carolyn_lessNoise_PlusLocalization,2021.2.3,59.971909195174824,
tank.wav,tank.mpg,tank,5,AV,Pink_Noise_5_1.wav,Pink_Noise_5_2.wav,,,,,,,,,,,,,,,0,71,71,65,,,,,,,,,,,,,,,,,,,,,,,664.6913001919165,None,666.2244947706349,None,667.6081280056387,None,take,667.6081280056387,None,return,2.6742742033675313,667.6914476198144,None,,,,,,,,,,,,,,,,,,,,,,,,,,,,,,,,,,,,,,,153,001,2024_Jan_23_1147,SpeechDraft1Carolyn_lessNoise_PlusLocalization,2021.2.3,59.971909195174824,
beam.wav,beam.mpg,beam,5,AV,Pink_Noise_5_1.wav,Pink_Noise_5_2.wav,,,,,,,,,,,,,,,0,72,72,110,,,,,,,,,,,,,,,,,,,,,,,670.3914314499125,None,671.9079088428989,None,673.2913438216783,None,"beam
",673.2913438216783,None,return,2.9187033800408244,673.3748678909615,None,,,,,,,,,,,,,,,,,,,,,,,,,,,,,,,,,,,,,,,153,001,2024_Jan_23_1147,SpeechDraft1Carolyn_lessNoise_PlusLocalization,2021.2.3,59.971909195174824,
chief.wav,chief.mpg,chief,5,A,Pink_Noise_5_1.wav,Pink_Noise_5_2.wav,,,,,,,,,,,,,,,0,73,73,44,,,,,,,,,,,,,,,,,,,,,,,676.3248332235962,None,677.841108857654,None,679.2248797919601,None,jean,679.2248797919601,None,return,2.1295225340873003,679.3081433665939,None,,,,,,,,,,,,,,,,,,,,,,,,,,,,,,,,,,,,,,,153,001,2024_Jan_23_1147,SpeechDraft1Carolyn_lessNoise_PlusLocalization,2021.2.3,59.971909195174824,
chunk.wav,chunk.mpg,chunk,2,A,Pink_Noise_2_1.wav,Pink_Noise_2_2.wav,,,,,,,,,,,,,,,0,74,74,25,,,,,,,,,,,,,,,,,,,,,,,681.4581381287426,None,682.9745481279679,None,684.3581791645847,None,choke,684.3581791645847,None,return,3.5961286830715835,684.4415401886217,None,,,,,,,,,,,,,,,,,,,,,,,,,,,,,,,,,,,,,,,153,001,2024_Jan_23_1147,SpeechDraft1Carolyn_lessNoise_PlusLocalization,2021.2.3,59.971909195174824,
bone.wav,bone.mpg,bone,4,AV,Pink_Noise_4_1.wav,Pink_Noise_4_2.wav,,,,,,,,,,,,,,,0,75,75,76,,,,,,,,,,,,,,,,,,,,,,,688.0581110566854,None,689.5746877025813,None,690.9581674928777,None,brode,690.9581674928777,None,return,3.516231940127909,691.0414714929648,None,,,,,,,,,,,,,,,,,,,,,,,,,,,,,,,,,,,,,,,153,001,2024_Jan_23_1147,SpeechDraft1Carolyn_lessNoise_PlusLocalization,2021.2.3,59.971909195174824,
craft.wav,craft.mpg,craft,1,AV,Pink_Noise_1_1.wav,Pink_Noise_1_2.wav,,,,,,,,,,,,,,,0,76,76,115,,,,,,,,,,,,,,,,,,,,,,,694.5748019670136,None,696.0925652887672,None,697.4748048256151,None,"craft
",697.4748048256151,None,return,2.935330722015351,697.5582281416282,None,,,,,,,,,,,,,,,,,,,,,,,,,,,,,,,,,,,,,,,153,001,2024_Jan_23_1147,SpeechDraft1Carolyn_lessNoise_PlusLocalization,2021.2.3,59.971909195174824,
chess.wav,chess.mpg,chess,2,AV,Pink_Noise_2_1.wav,Pink_Noise_2_2.wav,,,,,,,,,,,,,,,0,77,77,70,,,,,,,,,,,,,,,,,,,,,,,700.5249130208977,None,702.0412538819946,None,703.4247783957981,None,chest,703.4247783957981,None,return,4.473406077362597,703.5082545718178,None,,,,,,,,,,,,,,,,,,,,,,,,,,,,,,,,,,,,,,,153,001,2024_Jan_23_1147,SpeechDraft1Carolyn_lessNoise_PlusLocalization,2021.2.3,59.971909195174824,
pop.wav,pop.mpg,pop,4,AV,Pink_Noise_4_1.wav,Pink_Noise_4_2.wav,,,,,,,,,,,,,,,0,78,78,66,,,,,,,,,,,,,,,,,,,,,,,708.0082247089595,None,709.5244003250264,None,710.9081505639479,None,pop,710.9081505639479,None,return,1.3580926512368023,710.9915558937937,None,,,,,,,,,,,,,,,,,,,,,,,,,,,,,,,,,,,,,,,153,001,2024_Jan_23_1147,SpeechDraft1Carolyn_lessNoise_PlusLocalization,2021.2.3,59.971909195174824,
bee.wav,bee.mpg,bee,1,A,Pink_Noise_1_1.wav,Pink_Noise_1_2.wav,,,,,,,,,,,,,,,0,79,79,58,,,,,,,,,,,,,,,,,,,,,,,712.374932857696,None,713.9077961086296,None,715.2914928980172,None,beam,715.2914928980172,None,return,5.094681113958359,715.3748754486442,None,,,,,,,,,,,,,,,,,,,,,,,,,,,,,,,,,,,,,,,153,001,2024_Jan_23_1147,SpeechDraft1Carolyn_lessNoise_PlusLocalization,2021.2.3,59.971909195174824,
bell.wav,bell.mpg,bell,1,AV,Pink_Noise_1_1.wav,Pink_Noise_1_2.wav,,,,,,,,,,,,,,,0,80,80,89,,,,,,,,,,,,,,,,,,,,,,,720.491551052779,None,722.0078637939878,None,723.3915174948052,None,bell,723.3915174948052,None,return,2.0908528361469507,723.4748174957931,None,,,,,,,,,,,,,,,,,,,,,,,,,,,,,,,,,,,,,,,153,001,2024_Jan_23_1147,SpeechDraft1Carolyn_lessNoise_PlusLocalization,2021.2.3,59.971909195174824,
club.wav,club.mpg,club,3,A,Pink_Noise_3_1.wav,Pink_Noise_3_2.wav,,,,,,,,,,,,,,,0,81,81,5,,,,,,,,,,,,,,,,,,,,,,,725.5916406707838,None,727.1244018967263,None,728.5083253909834,None,crow,728.5083253909834,None,return,2.8939849818125367,728.5915648099035,None,,,,,,,,,,,,,,,,,,,,,,,,,,,,,,,,,,,,,,,153,001,2024_Jan_23_1147,SpeechDraft1Carolyn_lessNoise_PlusLocalization,2021.2.3,59.971909195174824,
bean.wav,bean.mpg,bean,6,AV,Pink_Noise_6_1.wav,Pink_Noise_6_2.wav,,,,,,,,,,,,,,,0,82,82,85,,,,,,,,,,,,,,,,,,,,,,,731.5082874386571,None,733.024548118934,None,734.40814400604,None,beam,734.40814400604,None,return,3.3300130660645664,734.4916145238094,None,,,,,,,,,,,,,,,,,,,,,,,,,,,,,,,,,,,,,,,153,001,2024_Jan_23_1147,SpeechDraft1Carolyn_lessNoise_PlusLocalization,2021.2.3,59.971909195174824,
blend.wav,blend.mpg,blend,1,A,Pink_Noise_1_1.wav,Pink_Noise_1_2.wav,,,,,,,,,,,,,,,0,83,83,48,,,,,,,,,,,,,,,,,,,,,,,737.841453326866,None,739.3577543376014,None,740.7415203498676,None,lent,740.7415203498676,None,return,3.0206583929248154,740.8249117597006,None,,,,,,,,,,,,,,,,,,,,,,,,,,,,,,,,,,,,,,,153,001,2024_Jan_23_1147,SpeechDraft1Carolyn_lessNoise_PlusLocalization,2021.2.3,59.971909195174824,
cling.wav,cling.mpg,cling,4,A,Pink_Noise_4_1.wav,Pink_Noise_4_2.wav,,,,,,,,,,,,,,,0,84,84,36,,,,,,,,,,,,,,,,,,,,,,,743.8749424465932,None,745.3923556418158,None,746.7748236628249,None,"cream
",746.7748236628249,None,return,2.2032847171649337,746.8582861367613,None,,,,,,,,,,,,,,,,,,,,,,,,,,,,,,,,,,,,,,,153,001,2024_Jan_23_1147,SpeechDraft1Carolyn_lessNoise_PlusLocalization,2021.2.3,59.971909195174824,
fish.wav,fish.mpg,fish,2,AV,Pink_Noise_2_1.wav,Pink_Noise_2_2.wav,,,,,,,,,,,,,,,0,85,85,68,,,,,,,,,,,,,,,,,,,,,,,749.0915045510046,None,750.6079250476323,None,751.9915119330399,None,"fish
",751.9915119330399,None,return,4.0105735952965915,752.0750080007128,None,,,,,,,,,,,,,,,,,,,,,,,,,,,,,,,,,,,,,,,153,001,2024_Jan_23_1147,SpeechDraft1Carolyn_lessNoise_PlusLocalization,2021.2.3,59.971909195174824,
eat.wav,eat.mpg,eat,3,A,Pink_Noise_3_1.wav,Pink_Noise_3_2.wav,,,,,,,,,,,,,,,0,86,86,53,,,,,,,,,,,,,,,,,,,,,,,756.2082424759865,None,757.7257938259281,None,759.1082806326449,None,eat,759.1082806326449,None,return,1.7742461618036032,759.1914584105834,None,,,,,,,,,,,,,,,,,,,,,,,,,,,,,,,,,,,,,,,153,001,2024_Jan_23_1147,SpeechDraft1Carolyn_lessNoise_PlusLocalization,2021.2.3,59.971909195174824,
mold.wav,mold.mpg,mold,6,AV,Pink_Noise_6_1.wav,Pink_Noise_6_2.wav,,,,,,,,,,,,,,,0,87,87,104,,,,,,,,,,,,,,,,,,,,,,,760.9915957329795,None,762.5080283586867,None,763.891579112038,None,bully,763.891579112038,None,return,2.782760660164058,763.974898211658,None,,,,,,,,,,,,,,,,,,,,,,,,,,,,,,,,,,,,,,,153,001,2024_Jan_23_1147,SpeechDraft1Carolyn_lessNoise_PlusLocalization,2021.2.3,59.971909195174824,
fad.wav,fad.mpg,fad,4,A,Pink_Noise_4_1.wav,Pink_Noise_4_2.wav,,,,,,,,,,,,,,,0,88,88,8,,,,,,,,,,,,,,,,,,,,,,,766.7750107715838,None,768.2912749266252,None,769.6749444436282,None,fan,769.6749444436282,None,return,2.5915562021546066,769.7581710247323,None,,,,,,,,,,,,,,,,,,,,,,,,,,,,,,,,,,,,,,,153,001,2024_Jan_23_1147,SpeechDraft1Carolyn_lessNoise_PlusLocalization,2021.2.3,59.971909195174824,
pike.wav,pike.mpg,pike,3,A,Pink_Noise_3_1.wav,Pink_Noise_3_2.wav,,,,,,,,,,,,,,,0,89,89,41,,,,,,,,,,,,,,,,,,,,,,,772.3749991706572,None,773.9410020657815,None,775.3252543755807,None,pike\,775.3252543755807,None,return,1.677312206942588,775.4082493637688,None,,,,,,,,,,,,,,,,,,,,,,,,,,,,,,,,,,,,,,,153,001,2024_Jan_23_1147,SpeechDraft1Carolyn_lessNoise_PlusLocalization,2021.2.3,59.971909195174824,
camp.wav,camp.mpg,camp,1,AV,Pink_Noise_1_1.wav,Pink_Noise_1_2.wav,,,,,,,,,,,,,,,0,90,90,71,,,,,,,,,,,,,,,,,,,,,,,777.1082342728041,None,778.6411751690321,None,780.0249593807384,None,kelp,780.0249593807384,None,return,2.0973168378695846,780.1082550147548,None,,,,,,,,,,,,,,,,,,,,,,,,,,,,,,,,,,,,,,,153,001,2024_Jan_23_1147,SpeechDraft1Carolyn_lessNoise_PlusLocalization,2021.2.3,59.971909195174824,
bright.wav,bright.mpg,bright,2,AV,Pink_Noise_2_1.wav,Pink_Noise_2_2.wav,,,,,,,,,,,,,,,0,91,91,64,,,,,,,,,,,,,,,,,,,,,,,782.2250422267243,None,783.7413463806733,None,785.124905357603,None,"bright
",785.124905357603,None,return,1.6852702354080975,785.2082903026603,None,,,,,,,,,,,,,,,,,,,,,,,,,,,,,,,,,,,,,,,153,001,2024_Jan_23_1147,SpeechDraft1Carolyn_lessNoise_PlusLocalization,2021.2.3,59.971909195174824,
thorn.wav,thorn.mpg,thorn,5,AV,Pink_Noise_5_1.wav,Pink_Noise_5_2.wav,,,,,,,,,,,,,,,0,92,92,72,,,,,,,,,,,,,,,,,,,,,,,786.9249816206284,None,788.4429800938815,None,789.8249487197027,None,lore,789.8249487197027,None,return,1.945269986987114,789.9083105549216,None,,,,,,,,,,,,,,,,,,,,,,,,,,,,,,,,,,,,,,,153,001,2024_Jan_23_1147,SpeechDraft1Carolyn_lessNoise_PlusLocalization,2021.2.3,59.971909195174824,
chat.wav,chat.mpg,chat,6,AV,Pink_Noise_6_1.wav,Pink_Noise_6_2.wav,,,,,,,,,,,,,,,0,93,93,108,,,,,,,,,,,,,,,,,,,,,,,791.8750297976658,None,793.3917086566798,None,794.7749101705849,None,choke,794.7749101705849,None,return,2.2433425369672477,794.8582390677184,None,,,,,,,,,,,,,,,,,,,,,,,,,,,,,,,,,,,,,,,153,001,2024_Jan_23_1147,SpeechDraft1Carolyn_lessNoise_PlusLocalization,2021.2.3,59.971909195174824,
gut.wav,gut.mpg,gut,4,AV,Pink_Noise_4_1.wav,Pink_Noise_4_2.wav,,,,,,,,,,,,,,,0,94,94,97,,,,,,,,,,,,,,,,,,,,,,,797.1250101388432,None,798.6422173888423,None,800.0248968428932,None,gut,800.0248968428932,None,return,2.409304860047996,800.1083086086437,None,,,,,,,,,,,,,,,,,,,,,,,,,,,,,,,,,,,,,,,153,001,2024_Jan_23_1147,SpeechDraft1Carolyn_lessNoise_PlusLocalization,2021.2.3,59.971909195174824,
doll.wav,doll.mpg,doll,2,AV,Pink_Noise_2_1.wav,Pink_Noise_2_2.wav,,,,,,,,,,,,,,,0,95,95,113,,,,,,,,,,,,,,,,,,,,,,,802.541621690616,None,804.0746040856466,None,805.4583588829264,None,die,805.4583588829264,None,return,1.2160669737495482,805.5416164016351,None,,,,,,,,,,,,,,,,,,,,,,,,,,,,,,,,,,,,,,,153,001,2024_Jan_23_1147,SpeechDraft1Carolyn_lessNoise_PlusLocalization,2021.2.3,59.971909195174824,
blimp.wav,blimp.mpg,blimp,1,AV,Pink_Noise_1_1.wav,Pink_Noise_1_2.wav,,,,,,,,,,,,,,,0,96,96,61,,,,,,,,,,,,,,,,,,,,,,,806.775089527946,None,808.308012151625,None,809.6915399138816,None,blip,809.6915399138816,None,return,3.1987300659529865,809.7749430709518,None,,,,,,,,,,,,,,,,,,,,,,,,,,,,,,,,,,,,,,,153,001,2024_Jan_23_1147,SpeechDraft1Carolyn_lessNoise_PlusLocalization,2021.2.3,59.971909195174824,
grain.wav,grain.mpg,grain,4,A,Pink_Noise_4_1.wav,Pink_Noise_4_2.wav,,,,,,,,,,,,,,,0,97,97,38,,,,,,,,,,,,,,,,,,,,,,,812.9915765910409,None,814.5246658269316,None,815.9082716279663,None,rain,815.9082716279663,None,return,2.4298709640279412,815.9917949079536,None,,,,,,,,,,,,,,,,,,,,,,,,,,,,,,,,,,,,,,,153,001,2024_Jan_23_1147,SpeechDraft1Carolyn_lessNoise_PlusLocalization,2021.2.3,59.971909195174824,
dig.wav,dig.mpg,dig,4,AV,Pink_Noise_4_1.wav,Pink_Noise_4_2.wav,,,,,,,,,,,,,,,0,98,98,114,,,,,,,,,,,,,,,,,,,,,,,818.4417023798451,None,819.9746880647726,None,821.3582845367491,None,dog,821.3582845367491,None,return,2.595872940029949,821.4416756420396,None,,,,,,,,,,,,,,,,,,,,,,,,,,,,,,,,,,,,,,,153,001,2024_Jan_23_1147,SpeechDraft1Carolyn_lessNoise_PlusLocalization,2021.2.3,59.971909195174824,
cross.wav,cross.mpg,cross,3,AV,Pink_Noise_3_1.wav,Pink_Noise_3_2.wav,,,,,,,,,,,,,,,0,99,99,96,,,,,,,,,,,,,,,,,,,,,,,824.0583186326548,None,825.5761650819331,None,826.9583258070052,None,cross,826.9583258070052,None,return,3.171949558891356,827.0416336767375,None,,,,,,,,,,,,,,,,,,,,,,,,,,,,,,,,,,,,,,,153,001,2024_Jan_23_1147,SpeechDraft1Carolyn_lessNoise_PlusLocalization,2021.2.3,59.971909195174824,
fluff.wav,fluff.mpg,fluff,6,AV,Pink_Noise_6_1.wav,Pink_Noise_6_2.wav,,,,,,,,,,,,,,,0,100,100,90,,,,,,,,,,,,,,,,,,,,,,,830.2416489035822,None,831.7586284619756,None,833.1416215649806,None,"flem
",833.1416215649806,None,return,4.068455978296697,833.2251235828735,None,,,,,,,,,,,,,,,,,,,,,,,,,,,,,,,,,,,,,,,153,001,2024_Jan_23_1147,SpeechDraft1Carolyn_lessNoise_PlusLocalization,2021.2.3,59.971909195174824,
bar.wav,bar.mpg,bar,3,AV,Pink_Noise_3_1.wav,Pink_Noise_3_2.wav,,,,,,,,,,,,,,,0,101,101,119,,,,,,,,,,,,,,,,,,,,,,,837.3250939338468,None,838.8580765957013,None,840.241668083705,None,"barn
",840.241668083705,None,return,5.720548995770514,840.3250421006233,None,,,,,,,,,,,,,,,,,,,,,,,,,,,,,,,,,,,,,,,153,001,2024_Jan_23_1147,SpeechDraft1Carolyn_lessNoise_PlusLocalization,2021.2.3,59.971909195174824,
cute.wav,cute.mpg,cute,1,AV,Pink_Noise_1_1.wav,Pink_Noise_1_2.wav,,,,,,,,,,,,,,,0,102,102,88,,,,,,,,,,,,,,,,,,,,,,,846.0750030088238,None,847.5926048047841,None,848.9750890289433,None,cute,848.9750890289433,None,return,2.3792739757336676,849.058311293833,None,,,,,,,,,,,,,,,,,,,,,,,,,,,,,,,,,,,,,,,153,001,2024_Jan_23_1147,SpeechDraft1Carolyn_lessNoise_PlusLocalization,2021.2.3,59.971909195174824,
born.wav,born.mpg,born,4,A,Pink_Noise_4_1.wav,Pink_Noise_4_2.wav,,,,,,,,,,,,,,,0,103,103,40,,,,,,,,,,,,,,,,,,,,,,,851.4583837888204,None,852.9758744169958,None,854.3584535769187,None,bore,854.3584535769187,None,return,3.1637561242096126,854.4418497998267,None,,,,,,,,,,,,,,,,,,,,,,,,,,,,,,,,,,,,,,,153,001,2024_Jan_23_1147,SpeechDraft1Carolyn_lessNoise_PlusLocalization,2021.2.3,59.971909195174824,
bound.wav,bound.mpg,bound,6,A,Pink_Noise_6_1.wav,Pink_Noise_6_2.wav,,,,,,,,,,,,,,,0,104,104,4,,,,,,,,,,,,,,,,,,,,,,,857.6250701677054,None,859.1579987937585,None,860.5416315807961,None,fish,860.5416315807961,None,return,4.972470874898136,860.6251338026486,None,,,,,,,,,,,,,,,,,,,,,,,,,,,,,,,,,,,,,,,153,001,2024_Jan_23_1147,SpeechDraft1Carolyn_lessNoise_PlusLocalization,2021.2.3,59.971909195174824,
grill.wav,grill.mpg,grill,3,AV,Pink_Noise_3_1.wav,Pink_Noise_3_2.wav,,,,,,,,,,,,,,,0,105,105,83,,,,,,,,,,,,,,,,,,,,,,,865.6250221678056,None,867.1426523686387,None,868.5251050447114,None,grill,868.5251050447114,None,return,3.2611383656039834,868.6084240330383,None,,,,,,,,,,,,,,,,,,,,,,,,,,,,,,,,,,,,,,,153,001,2024_Jan_23_1147,SpeechDraft1Carolyn_lessNoise_PlusLocalization,2021.2.3,59.971909195174824,
dip.wav,dip.mpg,dip,4,AV,Pink_Noise_4_1.wav,Pink_Noise_4_2.wav,,,,,,,,,,,,,,,0,106,106,84,,,,,,,,,,,,,,,,,,,,,,,871.8917963467538,None,873.4247185885906,None,874.8084281068295,None,dip,874.8084281068295,None,return,3.041843930259347,874.8917448818684,None,,,,,,,,,,,,,,,,,,,,,,,,,,,,,,,,,,,,,,,153,001,2024_Jan_23_1147,SpeechDraft1Carolyn_lessNoise_PlusLocalization,2021.2.3,59.971909195174824,
fear.wav,fear.mpg,fear,3,A,Pink_Noise_3_1.wav,Pink_Noise_3_2.wav,,,,,,,,,,,,,,,0,107,107,51,,,,,,,,,,,,,,,,,,,,,,,877.9584090136923,None,879.4747862499207,None,880.8584809196182,None,fear,880.8584809196182,None,return,3.0160191459581256,880.9416955467314,None,,,,,,,,,,,,,,,,,,,,,,,,,,,,,,,,,,,,,,,153,001,2024_Jan_23_1147,SpeechDraft1Carolyn_lessNoise_PlusLocalization,2021.2.3,59.971909195174824,
live.wav,live.mpg,live,3,AV,Pink_Noise_3_1.wav,Pink_Noise_3_2.wav,,,,,,,,,,,,,,,0,108,108,74,,,,,,,,,,,,,,,,,,,,,,,883.9750317740254,None,885.5082686697133,None,886.8917191387154,None,"live
",886.8917191387154,None,return,2.10260087903589,886.9749706038274,None,,,,,,,,,,,,,,,,,,,,,,,,,,,,,,,,,,,,,,,153,001,2024_Jan_23_1147,SpeechDraft1Carolyn_lessNoise_PlusLocalization,2021.2.3,59.971909195174824,
truce.wav,truce.mpg,truce,3,AV,Pink_Noise_3_1.wav,Pink_Noise_3_2.wav,,,,,,,,,,,,,,,0,109,109,75,,,,,,,,,,,,,,,,,,,,,,,889.108374028001,None,890.6747135166079,None,892.0585233047605,None,"truce
",892.0585233047605,None,return,4.967826176900417,892.1417238847353,None,,,,,,,,,,,,,,,,,,,,,,,,,,,,,,,,,,,,,,,153,001,2024_Jan_23_1147,SpeechDraft1Carolyn_lessNoise_PlusLocalization,2021.2.3,59.971909195174824,
beer.wav,beer.mpg,beer,1,A,Pink_Noise_1_1.wav,Pink_Noise_1_2.wav,,,,,,,,,,,,,,,0,110,110,55,,,,,,,,,,,,,,,,,,,,,,,897.1418447429314,None,898.6914071096107,None,900.0751760178246,None,beer,900.0751760178246,None,return,2.1431086026132107,900.1584703586996,None,,,,,,,,,,,,,,,,,,,,,,,,,,,,,,,,,,,,,,,153,001,2024_Jan_23_1147,SpeechDraft1Carolyn_lessNoise_PlusLocalization,2021.2.3,59.971909195174824,
boat.wav,boat.mpg,boat,4,AV,Pink_Noise_4_1.wav,Pink_Noise_4_2.wav,,,,,,,,,,,,,,,0,111,111,62,,,,,,,,,,,,,,,,,,,,,,,902.3251554649323,None,903.8580178357661,None,905.2420266447589,None,"boat
",905.2420266447589,None,return,1.936431019101292,905.3251364668831,None,,,,,,,,,,,,,,,,,,,,,,,,,,,,,,,,,,,,,,,153,001,2024_Jan_23_1147,SpeechDraft1Carolyn_lessNoise_PlusLocalization,2021.2.3,59.971909195174824,
grip.wav,grip.mpg,grip,1,AV,Pink_Noise_1_1.wav,Pink_Noise_1_2.wav,,,,,,,,,,,,,,,0,112,112,99,,,,,,,,,,,,,,,,,,,,,,,907.2917046826333,None,908.8249413059093,None,910.2084243739955,None,grip,910.2084243739955,None,return,2.2497917357832193,910.2918510828167,None,,,,,,,,,,,,,,,,,,,,,,,,,,,,,,,,,,,,,,,153,001,2024_Jan_23_1147,SpeechDraft1Carolyn_lessNoise_PlusLocalization,2021.2.3,59.971909195174824,
barn.wav,barn.mpg,barn,5,AV,Pink_Noise_5_1.wav,Pink_Noise_5_2.wav,,,,,,,,,,,,,,,0,113,113,92,,,,,,,,,,,,,,,,,,,,,,,912.5584065206349,None,914.0915098716505,None,915.4750081929378,None,party,915.4750081929378,None,return,2.223204724956304,915.5584732717834,None,,,,,,,,,,,,,,,,,,,,,,,,,,,,,,,,,,,,,,,153,001,2024_Jan_23_1147,SpeechDraft1Carolyn_lessNoise_PlusLocalization,2021.2.3,59.971909195174824,
flock.wav,flock.mpg,flock,2,A,Pink_Noise_2_1.wav,Pink_Noise_2_2.wav,,,,,,,,,,,,,,,0,114,114,59,,,,,,,,,,,,,,,,,,,,,,,917.8085186518729,None,919.3416008576751,None,920.7251789527945,None,"flop
",920.7251789527945,None,return,1.6850743917748332,920.8084963229485,None,,,,,,,,,,,,,,,,,,,,,,,,,,,,,,,,,,,,,,,153,001,2024_Jan_23_1147,SpeechDraft1Carolyn_lessNoise_PlusLocalization,2021.2.3,59.971909195174824,
strike.wav,strike.mpg,strike,3,A,Pink_Noise_3_1.wav,Pink_Noise_3_2.wav,,,,,,,,,,,,,,,0,115,115,20,,,,,,,,,,,,,,,,,,,,,,,922.5251525817439,None,924.0580372046679,None,925.4418991706334,None,strike,925.4418991706334,None,return,2.0565798389725387,925.5252158488147,None,,,,,,,,,,,,,,,,,,,,,,,,,,,,,,,,,,,,,,,153,001,2024_Jan_23_1147,SpeechDraft1Carolyn_lessNoise_PlusLocalization,2021.2.3,59.971909195174824,
gang.wav,gang.mpg,gang,4,A,Pink_Noise_4_1.wav,Pink_Noise_4_2.wav,,,,,,,,,,,,,,,0,116,116,54,,,,,,,,,,,,,,,,,,,,,,,927.6084624780342,None,929.1414735456929,None,930.5252663507126,None,gill,930.5252663507126,None,return,7.733211556915194,930.6084849978797,None,,,,,,,,,,,,,,,,,,,,,,,,,,,,,,,,,,,,,,,153,001,2024_Jan_23_1147,SpeechDraft1Carolyn_lessNoise_PlusLocalization,2021.2.3,59.971909195174824,
clip.wav,clip.mpg,clip,3,A,Pink_Noise_3_1.wav,Pink_Noise_3_2.wav,,,,,,,,,,,,,,,0,117,117,21,,,,,,,,,,,,,,,,,,,,,,,938.358513858635,None,939.9247464640066,None,941.3085438129492,None,cliff,941.3085438129492,None,return,1.5498735830187798,941.3918244647793,None,,,,,,,,,,,,,,,,,,,,,,,,,,,,,,,,,,,,,,,153,001,2024_Jan_23_1147,SpeechDraft1Carolyn_lessNoise_PlusLocalization,2021.2.3,59.971909195174824,
dune.wav,dune.mpg,dune,3,AV,Pink_Noise_3_1.wav,Pink_Noise_3_2.wav,,,,,,,,,,,,,,,0,118,118,112,,,,,,,,,,,,,,,,,,,,,,,942.9584923889488,None,944.4914226299152,None,945.8752161418088,None,doom,945.8752161418088,None,return,2.110917780082673,945.9586404277943,None,,,,,,,,,,,,,,,,,,,,,,,,,,,,,,,,,,,,,,,153,001,2024_Jan_23_1147,SpeechDraft1Carolyn_lessNoise_PlusLocalization,2021.2.3,59.971909195174824,
glad.wav,glad.mpg,glad,1,AV,Pink_Noise_1_1.wav,Pink_Noise_1_2.wav,,,,,,,,,,,,,,,0,119,119,91,,,,,,,,,,,,,,,,,,,,,,,948.0920470720157,None,949.6415211330168,None,951.0254402416758,None,glad,951.0254402416758,None,return,2.3210046580061316,951.1085663828999,None,,,,,,,,,,,,,,,,,,,,,,,,,,,,,,,,,,,,,,,153,001,2024_Jan_23_1147,SpeechDraft1Carolyn_lessNoise_PlusLocalization,2021.2.3,59.971909195174824,
,,,,,,,,,,,,,,,,,,,,,,,,,,,,,,,,,,,,,,,,,,,,,,,,,,,,,,,,,,,,,,,,,,space,16.823110002093017,953.5585346436128,None,,,,,,,,,,,,,,,,,,,,,,,,,,,,,153,001,2024_Jan_23_1147,SpeechDraft1Carolyn_lessNoise_PlusLocalization,2021.2.3,59.971909195174824,
,,,,,,,,farLeft,-19.1,5,ch1Sound_localizationTask.wav,-19.1,"(667, 878)","(-293,-202)",-285,-338,,,,,,,,,0,0,0,0,,,,,,,,,,,,,,,,,,,,,,,,,,,,,,,,,,,,,,,,,,953.5585346436128,None,970.4249982628971,None,971.5415272680111,None,972.4583697076887,None,1.251851851851852,2.0857668672688305,972.4583697076887,None,,,,,,,,,,,,,,,,,153,001,2024_Jan_23_1147,SpeechDraft1Carolyn_lessNoise_PlusLocalization,2021.2.3,59.971909195174824,
,,,,,,,,nearRight,6.5,0,ch1Sound_localizationTask.wav,6.5,"(1047, 878)","(87, -202)",95,-338,,,,,,,,,0,1,1,4,,,,,,,,,,,,,,,,,,,,,,,,,,,,,,,,,,,,,,,,,,,,974.5586386900395,None,975.6582945808768,None,976.5916650947183,None,1.5444444444444443,0.8331646528095007,976.5916650947183,None,,,,,,,,,,,,,,,,,153,001,2024_Jan_23_1147,SpeechDraft1Carolyn_lessNoise_PlusLocalization,2021.2.3,59.971909195174824,
,,,,,,,,center,0.0,6,ch1Sound_localizationTask.wav,0.0,"(952, 878)","(-8,-202)",0,-338,,,,,,,,,0,2,2,3,,,,,,,,,,,,,,,,,,,,,,,,,,,,,,,,,,,,,,,,,,,,977.4419338577427,None,978.5415527927689,None,979.4748893165961,None,1.470899470899471,0.615873085334897,979.4748893165961,None,,,,,,,,,,,,,,,,,153,001,2024_Jan_23_1147,SpeechDraft1Carolyn_lessNoise_PlusLocalization,2021.2.3,59.971909195174824,
,,,,,,,,midLeft,-13.0,2,ch1Sound_localizationTask.wav,-13.0,"(762, 878)","(-198,-202)",-190,-338,,,,,,,,,0,3,3,1,,,,,,,,,,,,,,,,,,,,,,,,,,,,,,,,,,,,,,,,,,,,980.0925591830164,None,981.1916016535833,None,982.1248267185874,None,1.3973544973544973,0.3670621616765857,982.1248267185874,None,,,,,,,,,,,,,,,,,153,001,2024_Jan_23_1147,SpeechDraft1Carolyn_lessNoise_PlusLocalization,2021.2.3,59.971909195174824,
,,,,,,,,center,0.0,6,ch1Sound_localizationTask.wav,0.0,"(952, 878)","(-8,-202)",0,-338,,,,,,,,,0,4,4,3,,,,,,,,,,,,,,,,,,,,,,,,,,,,,,,,,,,,,,,,,,,,982.5085481768474,None,983.6082932460122,None,984.5416235597804,None,1.4994708994708994,0.5177463400177658,984.5416235597804,None,,,,,,,,,,,,,,,,,153,001,2024_Jan_23_1147,SpeechDraft1Carolyn_lessNoise_PlusLocalization,2021.2.3,59.971909195174824,
,,,,,,,,nearRight,6.5,0,ch1Sound_localizationTask.wav,6.5,"(1047, 878)","(87, -202)",95,-338,,,,,,,,,0,5,5,4,,,,,,,,,,,,,,,,,,,,,,,,,,,,,,,,,,,,,,,,,,,,985.0754280416295,None,986.1750773335807,None,987.1081881048158,None,1.4857142857142858,0.45012324023991823,987.1081881048158,None,,,,,,,,,,,,,,,,,153,001,2024_Jan_23_1147,SpeechDraft1Carolyn_lessNoise_PlusLocalization,2021.2.3,59.971909195174824,
,,,,,,,,midLeft,-13.0,2,ch1Sound_localizationTask.wav,-13.0,"(762, 878)","(-198,-202)",-190,-338,,,,,,,,,0,6,6,1,,,,,,,,,,,,,,,,,,,,,,,,,,,,,,,,,,,,,,,,,,,,987.5753011559136,None,988.6750565175898,None,989.6082852520049,None,1.3634920634920635,0.782914109993726,989.6082852520049,None,,,,,,,,,,,,,,,,,153,001,2024_Jan_23_1147,SpeechDraft1Carolyn_lessNoise_PlusLocalization,2021.2.3,59.971909195174824,
,,,,,,,,midLeft,-13.0,2,ch1Sound_localizationTask.wav,-13.0,"(762, 878)","(-198,-202)",-190,-338,,,,,,,,,1,0,7,1,,,,,,,,,,,,,,,,,,,,,,,,,,,,,,,,,,,,,,,,,,,,990.393132940866,None,991.5084109916352,None,992.4249069658108,None,1.4058201058201059,0.6996254320256412,992.4249069658108,None,,,,,,,,,,,,,,,,,153,001,2024_Jan_23_1147,SpeechDraft1Carolyn_lessNoise_PlusLocalization,2021.2.3,59.971909195174824,
,,,,,,,,nearLeft,-6.5,1,ch1Sound_localizationTask.wav,-6.5,"(857, 878)","(-103,-202)",-95,-338,,,,,,,,,1,1,8,2,,,,,,,,,,,,,,,,,,,,,,,,,,,,,,,,,,,,,,,,,,,,993.1264659026638,None,994.2416545497254,None,995.1583003816195,None,1.4439153439153438,0.3501086998730898,995.1583003816195,None,,,,,,,,,,,,,,,,,153,001,2024_Jan_23_1147,SpeechDraft1Carolyn_lessNoise_PlusLocalization,2021.2.3,59.971909195174824,
,,,,,,,,midRight,13.0,3,ch1Sound_localizationTask.wav,13.0,"(1142, 878)","(182, -202)",190,-338,,,,,,,,,1,2,9,5,,,,,,,,,,,,,,,,,,,,,,,,,,,,,,,,,,,,,,,,,,,,995.5254170126282,None,996.6250303396955,None,997.5582592799328,None,1.671957671957672,0.816917649935931,997.5582592799328,None,,,,,,,,,,,,,,,,,153,001,2024_Jan_23_1147,SpeechDraft1Carolyn_lessNoise_PlusLocalization,2021.2.3,59.971909195174824,
,,,,,,,,center,0.0,6,ch1Sound_localizationTask.wav,0.0,"(952, 878)","(-8,-202)",0,-338,,,,,,,,,1,3,10,3,,,,,,,,,,,,,,,,,,,,,,,,,,,,,,,,,,,,,,,,,,,,998.3920806087554,None,999.491663007997,None,1000.4249557647854,None,1.5629629629629629,0.6170025509782135,1000.4249557647854,None,,,,,,,,,,,,,,,,,153,001,2024_Jan_23_1147,SpeechDraft1Carolyn_lessNoise_PlusLocalization,2021.2.3,59.971909195174824,
,,,,,,,,nearRight,6.5,0,ch1Sound_localizationTask.wav,6.5,"(1047, 878)","(87, -202)",95,-338,,,,,,,,,1,4,11,4,,,,,,,,,,,,,,,,,,,,,,,,,,,,,,,,,,,,,,,,,,,,1001.0588734876364,None,1002.1583035397343,None,1003.0915305786766,None,1.5285714285714285,0.3321264609694481,1003.0915305786766,None,,,,,,,,,,,,,,,,,153,001,2024_Jan_23_1147,SpeechDraft1Carolyn_lessNoise_PlusLocalization,2021.2.3,59.971909195174824,
,,,,,,,,farLeft,-19.1,5,ch1Sound_localizationTask.wav,-19.1,"(667, 878)","(-293,-202)",-285,-338,,,,,,,,,1,5,12,0,,,,,,,,,,,,,,,,,,,,,,,,,,,,,,,,,,,,,,,,,,,,1003.4260420049541,None,1004.5247913268395,None,1005.4584955079481,None,1.271957671957672,0.818239763379097,1005.4584955079481,None,,,,,,,,,,,,,,,,,153,001,2024_Jan_23_1147,SpeechDraft1Carolyn_lessNoise_PlusLocalization,2021.2.3,59.971909195174824,
,,,,,,,,midLeft,-13.0,2,ch1Sound_localizationTask.wav,-13.0,"(762, 878)","(-198,-202)",-190,-338,,,,,,,,,1,6,13,1,,,,,,,,,,,,,,,,,,,,,,,,,,,,,,,,,,,,,,,,,,,,1006.292038237676,None,1007.3917260719463,None,1008.3249282236211,None,1.4042328042328043,1.01563018001616,1008.3249282236211,None,,,,,,,,,,,,,,,,,153,001,2024_Jan_23_1147,SpeechDraft1Carolyn_lessNoise_PlusLocalization,2021.2.3,59.971909195174824,
,,,,,,,,midRight,13.0,3,ch1Sound_localizationTask.wav,13.0,"(1142, 878)","(182, -202)",190,-338,,,,,,,,,2,0,14,5,,,,,,,,,,,,,,,,,,,,,,,,,,,,,,,,,,,,,,,,,,,,1009.3440182758495,None,1010.4582790699787,None,1011.3748812507838,None,1.632804232804233,0.5514910630881786,1011.3748812507838,None,,,,,,,,,,,,,,,,,153,001,2024_Jan_23_1147,SpeechDraft1Carolyn_lessNoise_PlusLocalization,2021.2.3,59.971909195174824,
,,,,,,,,farLeft,-19.1,5,ch1Sound_localizationTask.wav,-19.1,"(667, 878)","(-293,-202)",-285,-338,,,,,,,,,2,1,15,0,,,,,,,,,,,,,,,,,,,,,,,,,,,,,,,,,,,,,,,,,,,,1011.9420974138193,None,1013.0417527477257,None,1013.9749553538859,None,1.1830687830687832,0.6666180370375514,1013.9749553538859,None,,,,,,,,,,,,,,,,,153,001,2024_Jan_23_1147,SpeechDraft1Carolyn_lessNoise_PlusLocalization,2021.2.3,59.971909195174824,
,,,,,,,,farRight,19.1,4,ch1Sound_localizationTask.wav,19.1,"(1237, 878)","(277,-202)",285,-338,,,,,,,,,2,2,16,6,,,,,,,,,,,,,,,,,,,,,,,,,,,,,,,,,,,,,,,,,,,,1014.6431807707995,None,1015.7583319279365,None,1016.6748825740069,None,1.7322751322751322,0.7518545379862189,1016.6748825740069,None,,,,,,,,,,,,,,,,,153,001,2024_Jan_23_1147,SpeechDraft1Carolyn_lessNoise_PlusLocalization,2021.2.3,59.971909195174824,
,,,,,,,,center,0.0,6,ch1Sound_localizationTask.wav,0.0,"(952, 878)","(-8,-202)",0,-338,,,,,,,,,2,3,17,3,,,,,,,,,,,,,,,,,,,,,,,,,,,,,,,,,,,,,,,,,,,,1017.4420320140198,None,1018.5416143606417,None,1019.474955775775,None,1.4957671957671956,0.5674402350559831,1019.474955775775,None,,,,,,,,,,,,,,,,,153,001,2024_Jan_23_1147,SpeechDraft1Carolyn_lessNoise_PlusLocalization,2021.2.3,59.971909195174824,
,,,,,,,,farRight,19.1,4,ch1Sound_localizationTask.wav,19.1,"(1237, 878)","(277,-202)",285,-338,,,,,,,,,2,4,18,6,,,,,,,,,,,,,,,,,,,,,,,,,,,,,,,,,,,,,,,,,,,,1020.0585866039619,None,1021.1583973146044,None,1022.0915566259064,None,1.6095238095238096,0.4327980619855225,1022.0915566259064,None,,,,,,,,,,,,,,,,,153,001,2024_Jan_23_1147,SpeechDraft1Carolyn_lessNoise_PlusLocalization,2021.2.3,59.971909195174824,
,,,,,,,,midRight,13.0,3,ch1Sound_localizationTask.wav,13.0,"(1142, 878)","(182, -202)",190,-338,,,,,,,,,2,5,19,5,,,,,,,,,,,,,,,,,,,,,,,,,,,,,,,,,,,,,,,,,,,,1022.5265139467083,None,1023.6416970356368,None,1024.558337308932,None,1.5703703703703704,0.28317776788026094,1024.558337308932,None,,,,,,,,,,,,,,,,,153,001,2024_Jan_23_1147,SpeechDraft1Carolyn_lessNoise_PlusLocalization,2021.2.3,59.971909195174824,
,,,,,,,,nearRight,6.5,0,ch1Sound_localizationTask.wav,6.5,"(1047, 878)","(87, -202)",95,-338,,,,,,,,,2,6,20,4,,,,,,,,,,,,,,,,,,,,,,,,,,,,,,,,,,,,,,,,,,,,1024.8434284930117,None,1025.9583073556423,None,1026.874910959974,None,1.546031746031746,0.29949341295287013,1026.874910959974,None,,,,,,,,,,,,,,,,,153,001,2024_Jan_23_1147,SpeechDraft1Carolyn_lessNoise_PlusLocalization,2021.2.3,59.971909195174824,
,,,,,,,,farRight,19.1,4,ch1Sound_localizationTask.wav,19.1,"(1237, 878)","(277,-202)",285,-338,,,,,,,,,3,0,21,6,,,,,,,,,,,,,,,,,,,,,,,,,,,,,,,,,,,,,,,,,,,,1027.1763537628576,None,1028.2915927227587,None,1029.2083283308893,None,1.6592592592592592,0.41596551798284054,1029.2083283308893,None,,,,,,,,,,,,,,,,,153,001,2024_Jan_23_1147,SpeechDraft1Carolyn_lessNoise_PlusLocalization,2021.2.3,59.971909195174824,
,,,,,,,,midLeft,-13.0,2,ch1Sound_localizationTask.wav,-13.0,"(762, 878)","(-198,-202)",-190,-338,,,,,,,,,3,1,22,1,,,,,,,,,,,,,,,,,,,,,,,,,,,,,,,,,,,,,,,,,,,,1029.6263661598787,None,1030.7416769019328,None,1031.6582629405893,None,1.3947089947089948,0.6495079509913921,1031.6582629405893,None,,,,,,,,,,,,,,,,,153,001,2024_Jan_23_1147,SpeechDraft1Carolyn_lessNoise_PlusLocalization,2021.2.3,59.971909195174824,
,,,,,,,,nearLeft,-6.5,1,ch1Sound_localizationTask.wav,-6.5,"(857, 878)","(-103,-202)",-95,-338,,,,,,,,,3,2,23,2,,,,,,,,,,,,,,,,,,,,,,,,,,,,,,,,,,,,,,,,,,,,1032.3098971997388,None,1033.4250902929343,None,1034.3415580168366,None,1.5031746031746032,0.3815008099190891,1034.3415580168366,None,,,,,,,,,,,,,,,,,153,001,2024_Jan_23_1147,SpeechDraft1Carolyn_lessNoise_PlusLocalization,2021.2.3,59.971909195174824,
,,,,,,,,center,0.0,6,ch1Sound_localizationTask.wav,0.0,"(952, 878)","(-8,-202)",0,-338,,,,,,,,,3,3,24,3,,,,,,,,,,,,,,,,,,,,,,,,,,,,,,,,,,,,,,,,,,,,1034.7267446266487,None,1035.8415215588175,None,1036.758314783685,None,1.4317460317460318,0.25049039209261537,1036.758314783685,None,,,,,,,,,,,,,,,,,153,001,2024_Jan_23_1147,SpeechDraft1Carolyn_lessNoise_PlusLocalization,2021.2.3,59.971909195174824,
,,,,,,,,farRight,19.1,4,ch1Sound_localizationTask.wav,19.1,"(1237, 878)","(277,-202)",285,-338,,,,,,,,,3,4,25,6,,,,,,,,,,,,,,,,,,,,,,,,,,,,,,,,,,,,,,,,,,,,1037.0253342869692,None,1038.125110853929,None,1039.058364444878,None,1.6264550264550266,0.5826625311747193,1039.058364444878,None,,,,,,,,,,,,,,,,,153,001,2024_Jan_23_1147,SpeechDraft1Carolyn_lessNoise_PlusLocalization,2021.2.3,59.971909195174824,
,,,,,,,,nearLeft,-6.5,1,ch1Sound_localizationTask.wav,-6.5,"(857, 878)","(-103,-202)",-95,-338,,,,,,,,,3,5,26,2,,,,,,,,,,,,,,,,,,,,,,,,,,,,,,,,,,,,,,,,,,,,1039.6587507128716,None,1040.758385641966,None,1041.691719439812,None,1.4164021164021166,0.6002150913700461,1041.691719439812,None,,,,,,,,,,,,,,,,,153,001,2024_Jan_23_1147,SpeechDraft1Carolyn_lessNoise_PlusLocalization,2021.2.3,59.971909195174824,
,,,,,,,,farLeft,-19.1,5,ch1Sound_localizationTask.wav,-19.1,"(667, 878)","(-293,-202)",-285,-338,,,,,,,,,3,6,27,0,,,,,,,,,,,,,,,,,,,,,,,,,,,,,,,,,,,,,,,,,,,,1042.3087447918952,None,1043.4084658436477,None,1044.3416399946436,None,1.2867724867724868,0.4169108490459621,1044.3416399946436,None,,,,,,,,,,,,,,,,,153,001,2024_Jan_23_1147,SpeechDraft1Carolyn_lessNoise_PlusLocalization,2021.2.3,59.971909195174824,
,,,,,,,,nearRight,6.5,0,ch1Sound_localizationTask.wav,6.5,"(1047, 878)","(87, -202)",95,-338,,,,,,,,,4,0,28,4,,,,,,,,,,,,,,,,,,,,,,,,,,,,,,,,,,,,,,,,,,,,1044.7752249198966,None,1045.8751206956804,None,1046.8083292855881,None,1.6074074074074074,0.534558936022222,1046.8083292855881,None,,,,,,,,,,,,,,,,,153,001,2024_Jan_23_1147,SpeechDraft1Carolyn_lessNoise_PlusLocalization,2021.2.3,59.971909195174824,
,,,,,,,,nearLeft,-6.5,1,ch1Sound_localizationTask.wav,-6.5,"(857, 878)","(-103,-202)",-95,-338,,,,,,,,,4,1,29,2,,,,,,,,,,,,,,,,,,,,,,,,,,,,,,,,,,,,,,,,,,,,1047.3589575998485,None,1048.4582010847516,None,1049.3918564775959,None,1.3693121693121693,0.5324486289173365,1049.3918564775959,None,,,,,,,,,,,,,,,,,153,001,2024_Jan_23_1147,SpeechDraft1Carolyn_lessNoise_PlusLocalization,2021.2.3,59.971909195174824,
,,,,,,,,nearLeft,-6.5,1,ch1Sound_localizationTask.wav,-6.5,"(857, 878)","(-103,-202)",-95,-338,,,,,,,,,4,2,30,2,,,,,,,,,,,,,,,,,,,,,,,,,,,,,,,,,,,,,,,,,,,,1049.9261133000255,None,1051.025057603605,None,1051.9583673910238,None,1.464021164021164,0.21634989883750677,1051.9583673910238,None,,,,,,,,,,,,,,,,,153,001,2024_Jan_23_1147,SpeechDraft1Carolyn_lessNoise_PlusLocalization,2021.2.3,59.971909195174824,
,,,,,,,,farRight,19.1,4,ch1Sound_localizationTask.wav,19.1,"(1237, 878)","(277,-202)",285,-338,,,,,,,,,4,3,31,6,,,,,,,,,,,,,,,,,,,,,,,,,,,,,,,,,,,,,,,,,,,,1052.1767847347073,None,1053.2917639226653,None,1054.208427412901,None,1.717989417989418,0.6327746319584548,1054.208427412901,None,,,,,,,,,,,,,,,,,153,001,2024_Jan_23_1147,SpeechDraft1Carolyn_lessNoise_PlusLocalization,2021.2.3,59.971909195174824,
,,,,,,,,farLeft,-19.1,5,ch1Sound_localizationTask.wav,-19.1,"(667, 878)","(-293,-202)",-285,-338,,,,,,,,,4,4,32,0,,,,,,,,,,,,,,,,,,,,,,,,,,,,,,,,,,,,,,,,,,,,1054.8587757255882,None,1055.9584063310176,None,1056.8916703928262,None,1.2005291005291006,1.0844408078119159,1056.8916703928262,None,,,,,,,,,,,,,,,,,153,001,2024_Jan_23_1147,SpeechDraft1Carolyn_lessNoise_PlusLocalization,2021.2.3,59.971909195174824,
,,,,,,,,center,0.0,6,ch1Sound_localizationTask.wav,0.0,"(952, 878)","(-8,-202)",0,-338,,,,,,,,,4,5,33,3,,,,,,,,,,,,,,,,,,,,,,,,,,,,,,,,,,,,,,,,,,,,1057.9921169616282,None,1059.0916656036861,None,1060.0249570198357,None,1.544973544973545,0.7162854401394725,1060.0249570198357,None,,,,,,,,,,,,,,,,,153,001,2024_Jan_23_1147,SpeechDraft1Carolyn_lessNoise_PlusLocalization,2021.2.3,59.971909195174824,
,,,,,,,,farRight,19.1,4,ch1Sound_localizationTask.wav,19.1,"(1237, 878)","(277,-202)",285,-338,,,,,,,,,4,6,34,6,,,,,,,,,,,,,,,,,,,,,,,,,,,,,,,,,,,,,,,,,,,,1060.7437452748418,None,1061.8584514618851,None,1062.7751421616413,None,1.6783068783068784,0.6168137760832906,1062.7751421616413,None,,,,,,,,,,,,,,,,,153,001,2024_Jan_23_1147,SpeechDraft1Carolyn_lessNoise_PlusLocalization,2021.2.3,59.971909195174824,
,,,,,,,,farLeft,-19.1,5,ch1Sound_localizationTask.wav,-19.1,"(667, 878)","(-293,-202)",-285,-338,,,,,,,,,5,0,35,0,,,,,,,,,,,,,,,,,,,,,,,,,,,,,,,,,,,,,,,,,,,,1063.4086676528677,None,1064.5103518390097,None,1065.4418138917536,None,1.2962962962962963,0.5827617989853024,1065.4418138917536,None,,,,,,,,,,,,,,,,,153,001,2024_Jan_23_1147,SpeechDraft1Carolyn_lessNoise_PlusLocalization,2021.2.3,59.971909195174824,
,,,,,,,,midLeft,-13.0,2,ch1Sound_localizationTask.wav,-13.0,"(762, 878)","(-198,-202)",-190,-338,,,,,,,,,5,1,36,1,,,,,,,,,,,,,,,,,,,,,,,,,,,,,,,,,,,,,,,,,,,,1066.0262890388258,None,1067.1250445549376,None,1068.0583904846571,None,1.3931216931216932,0.8832327388226986,1068.0583904846571,None,,,,,,,,,,,,,,,,,153,001,2024_Jan_23_1147,SpeechDraft1Carolyn_lessNoise_PlusLocalization,2021.2.3,59.971909195174824,
,,,,,,,,midRight,13.0,3,ch1Sound_localizationTask.wav,13.0,"(1142, 878)","(182, -202)",190,-338,,,,,,,,,5,2,37,5,,,,,,,,,,,,,,,,,,,,,,,,,,,,,,,,,,,,,,,,,,,,1068.9588520997204,None,1070.0584350316785,None,1070.991824499797,None,1.7449735449735448,0.7836205409839749,1070.991824499797,None,,,,,,,,,,,,,,,,,153,001,2024_Jan_23_1147,SpeechDraft1Carolyn_lessNoise_PlusLocalization,2021.2.3,59.971909195174824,
,,,,,,,,nearLeft,-6.5,1,ch1Sound_localizationTask.wav,-6.5,"(857, 878)","(-103,-202)",-95,-338,,,,,,,,,5,3,38,2,,,,,,,,,,,,,,,,,,,,,,,,,,,,,,,,,,,,,,,,,,,,1071.792214186862,None,1072.8918922878802,None,1073.8250255496241,None,1.4195767195767197,0.6996269808150828,1073.8250255496241,None,,,,,,,,,,,,,,,,,153,001,2024_Jan_23_1147,SpeechDraft1Carolyn_lessNoise_PlusLocalization,2021.2.3,59.971909195174824,
,,,,,,,,midRight,13.0,3,ch1Sound_localizationTask.wav,13.0,"(1142, 878)","(182, -202)",190,-338,,,,,,,,,5,4,39,5,,,,,,,,,,,,,,,,,,,,,,,,,,,,,,,,,,,,,,,,,,,,1074.5420898329467,None,1075.6417439710349,None,1076.575128315948,None,1.651851851851852,0.6499239979311824,1076.575128315948,None,,,,,,,,,,,,,,,,,153,001,2024_Jan_23_1147,SpeechDraft1Carolyn_lessNoise_PlusLocalization,2021.2.3,59.971909195174824,
,,,,,,,,nearLeft,-6.5,1,ch1Sound_localizationTask.wav,-6.5,"(857, 878)","(-103,-202)",-95,-338,,,,,,,,,5,5,40,2,,,,,,,,,,,,,,,,,,,,,,,,,,,,,,,,,,,,,,,,,,,,1077.2422128529288,None,1078.3418420567177,None,1079.275057548657,None,1.4190476190476191,0.6175744379870594,1079.275057548657,None,,,,,,,,,,,,,,,,,153,001,2024_Jan_23_1147,SpeechDraft1Carolyn_lessNoise_PlusLocalization,2021.2.3,59.971909195174824,
,,,,,,,,center,0.0,6,ch1Sound_localizationTask.wav,0.0,"(952, 878)","(-8,-202)",0,-338,,,,,,,,,5,6,41,3,,,,,,,,,,,,,,,,,,,,,,,,,,,,,,,,,,,,,,,,,,,,1079.9088461720385,None,1081.008373587858,None,1081.9416982699186,None,1.5264550264550265,0.5156706036068499,1081.9416982699186,None,,,,,,,,,,,,,,,,,153,001,2024_Jan_23_1147,SpeechDraft1Carolyn_lessNoise_PlusLocalization,2021.2.3,59.971909195174824,
,,,,,,,,midRight,13.0,3,ch1Sound_localizationTask.wav,13.0,"(1142, 878)","(182, -202)",190,-338,,,,,,,,,6,0,42,5,,,,,,,,,,,,,,,,,,,,,,,,,,,,,,,,,,,,,,,,,,,,1082.4597505126148,None,1083.5751452306286,None,1084.4915658938698,None,1.5756613756613755,0.33322758274152875,1084.4915658938698,None,,,,,,,,,,,,,,,,,153,001,2024_Jan_23_1147,SpeechDraft1Carolyn_lessNoise_PlusLocalization,2021.2.3,59.971909195174824,
,,,,,,,,farLeft,-19.1,5,ch1Sound_localizationTask.wav,-19.1,"(667, 878)","(-293,-202)",-285,-338,,,,,,,,,6,1,43,0,,,,,,,,,,,,,,,,,,,,,,,,,,,,,,,,,,,,,,,,,,,,1084.8421766026877,None,1085.9418123918585,None,1086.8751261136495,None,1.2566137566137567,0.733198604080826,1086.8751261136495,None,,,,,,,,,,,,,,,,,153,001,2024_Jan_23_1147,SpeechDraft1Carolyn_lessNoise_PlusLocalization,2021.2.3,59.971909195174824,
,,,,,,,,midLeft,-13.0,2,ch1Sound_localizationTask.wav,-13.0,"(762, 878)","(-198,-202)",-190,-338,,,,,,,,,6,2,44,1,,,,,,,,,,,,,,,,,,,,,,,,,,,,,,,,,,,,,,,,,,,,1087.6254493617453,None,1088.7250385107473,None,1089.658378527034,None,1.3412698412698414,0.8318165731616318,1089.658378527034,None,,,,,,,,,,,,,,,,,153,001,2024_Jan_23_1147,SpeechDraft1Carolyn_lessNoise_PlusLocalization,2021.2.3,59.971909195174824,
,,,,,,,,farRight,19.1,4,ch1Sound_localizationTask.wav,19.1,"(1237, 878)","(277,-202)",285,-338,,,,,,,,,6,3,45,6,,,,,,,,,,,,,,,,,,,,,,,,,,,,,,,,,,,,,,,,,,,,1090.4927439210005,None,1091.591713307891,None,1092.5248441137373,None,1.66984126984127,1.0185867128893733,1092.5248441137373,None,,,,,,,,,,,,,,,,,153,001,2024_Jan_23_1147,SpeechDraft1Carolyn_lessNoise_PlusLocalization,2021.2.3,59.971909195174824,
,,,,,,,,farLeft,-19.1,5,ch1Sound_localizationTask.wav,-19.1,"(667, 878)","(-293,-202)",-285,-338,,,,,,,,,6,4,46,0,,,,,,,,,,,,,,,,,,,,,,,,,,,,,,,,,,,,,,,,,,,,1093.5588719598018,None,1094.658545971848,None,1095.5918037979864,None,1.306878306878307,0.9320764332078397,1095.5918037979864,None,,,,,,,,,,,,,,,,,153,001,2024_Jan_23_1147,SpeechDraft1Carolyn_lessNoise_PlusLocalization,2021.2.3,59.971909195174824,
,,,,,,,,midRight,13.0,3,ch1Sound_localizationTask.wav,13.0,"(1142, 878)","(182, -202)",190,-338,,,,,,,,,6,5,47,5,,,,,,,,,,,,,,,,,,,,,,,,,,,,,,,,,,,,,,,,,,,,1096.52602551179,None,1097.625097826589,None,1098.5582877020352,None,1.5603174603174603,0.6507652988657355,1098.5582877020352,None,,,,,,,,,,,,,,,,,153,001,2024_Jan_23_1147,SpeechDraft1Carolyn_lessNoise_PlusLocalization,2021.2.3,59.971909195174824,
,,,,,,,,nearRight,6.5,0,ch1Sound_localizationTask.wav,6.5,"(1047, 878)","(87, -202)",95,-338,,,,,,,,,6,6,48,4,,,,,,,,,,,,,,,,,,,,,,,,,,,,,,,,,,,,,,,,,,,,1099.2254484379664,None,1100.3250656626187,None,1101.2584542296827,None,1.446031746031746,0.5160996248014271,1101.2584542296827,None,,,,,,,,,,,,,,,,,153,001,2024_Jan_23_1147,SpeechDraft1Carolyn_lessNoise_PlusLocalization,2021.2.3,59.971909195174824,
,,,,,,,,nearRight,6.5,0,ch1Sound_localizationTask.wav,6.5,"(1047, 878)","(87, -202)",95,-338,,,,,,,,,7,0,49,4,,,,,,,,,,,,,,,,,,,,,,,,,,,,,,,,,,,,,,,,,,,,1101.7761669107713,None,1102.8750597657636,None,1103.808357639704,None,1.5402116402116404,0.6669276552274823,1103.808357639704,None,,,,,,,,,,,,,,,,,153,001,2024_Jan_23_1147,SpeechDraft1Carolyn_lessNoise_PlusLocalization,2021.2.3,59.971909195174824,
,,,,,,,,nearLeft,-6.5,1,ch1Sound_localizationTask.wav,-6.5,"(857, 878)","(-103,-202)",-95,-338,,,,,,,,,7,1,50,2,,,,,,,,,,,,,,,,,,,,,,,,,,,,,,,,,,,,,,,,,,,,1104.4920769468881,None,1105.5917265098542,None,1106.5251271040179,None,1.4068783068783068,0.6663662027567625,1106.5251271040179,None,,,,,,,,,,,,,,,,,153,001,2024_Jan_23_1147,SpeechDraft1Carolyn_lessNoise_PlusLocalization,2021.2.3,59.971909195174824,
,,,,,,,,farRight,19.1,4,ch1Sound_localizationTask.wav,19.1,"(1237, 878)","(277,-202)",285,-338,,,,,,,,,7,2,51,6,,,,,,,,,,,,,,,,,,,,,,,,,,,,,,,,,,,,,,,,,,,,1107.193319506012,None,1108.3084266479127,None,1109.2251644236967,None,1.701058201058201,0.7161764553748071,1109.2251644236967,None,,,,,,,,,,,,,,,,,153,001,2024_Jan_23_1147,SpeechDraft1Carolyn_lessNoise_PlusLocalization,2021.2.3,59.971909195174824,
,,,,,,,,midLeft,-13.0,2,ch1Sound_localizationTask.wav,-13.0,"(762, 878)","(-198,-202)",-190,-338,,,,,,,,,7,3,52,1,,,,,,,,,,,,,,,,,,,,,,,,,,,,,,,,,,,,,,,,,,,,1109.9590075910091,None,1111.0585269848816,None,1111.9918316015974,None,1.3084656084656086,0.632603061851114,1111.9918316015974,None,,,,,,,,,,,,,,,,,153,001,2024_Jan_23_1147,SpeechDraft1Carolyn_lessNoise_PlusLocalization,2021.2.3,59.971909195174824,
,,,,,,,,nearRight,6.5,0,ch1Sound_localizationTask.wav,6.5,"(1047, 878)","(87, -202)",95,-338,,,,,,,,,7,4,53,4,,,,,,,,,,,,,,,,,,,,,,,,,,,,,,,,,,,,,,,,,,,,1112.6263162409887,None,1113.725203207694,None,1114.6586031946354,None,1.5666666666666667,0.6493417439050972,1114.6586031946354,None,,,,,,,,,,,,,,,,,153,001,2024_Jan_23_1147,SpeechDraft1Carolyn_lessNoise_PlusLocalization,2021.2.3,59.971909195174824,
,,,,,,,,midRight,13.0,3,ch1Sound_localizationTask.wav,13.0,"(1142, 878)","(182, -202)",190,-338,,,,,,,,,7,5,54,5,,,,,,,,,,,,,,,,,,,,,,,,,,,,,,,,,,,,,,,,,,,,1115.3105606618337,None,1116.4251074148342,None,1117.341709422879,None,1.583068783068783,0.41781810112297535,1117.341709422879,None,,,,,,,,,,,,,,,,,153,001,2024_Jan_23_1147,SpeechDraft1Carolyn_lessNoise_PlusLocalization,2021.2.3,59.971909195174824,
,,,,,,,,center,0.0,6,ch1Sound_localizationTask.wav,0.0,"(952, 878)","(-8,-202)",0,-338,,,,,,,,,7,6,55,3,,,,,,,,,,,,,,,,,,,,,,,,,,,,,,,,,,,,,,,,,,,,1117.7755000446923,None,1118.87521053385,None,1119.808428823948,None,1.4613756613756614,0.4322851011529565,1119.808428823948,None,,,,,,,,,,,,,,,,,153,001,2024_Jan_23_1147,SpeechDraft1Carolyn_lessNoise_PlusLocalization,2021.2.3,59.971909195174824,
,,,,,,,,,,,,,,,,,,,,,,,,,,,,,,,,,,,,,,,,,,,,,,,,,,,,,,,,,,,,,,,,,,,,,,,,,,,,,,,,,,space,13.928167033940554,1120.325407535769,None,,,,,,,,,,,,,153,001,2024_Jan_23_1147,SpeechDraft1Carolyn_lessNoise_PlusLocalization,2021.2.3,59.971909195174824,
,,,,,,,,center,0.0,6,ch1Sound_localizationTask.wav,0.0,"(952, 878)","(-8,-202)",0,-338,,,,,,,,,,,,,0,0,0,3,,,,,,,,,,,,,,,,,,,,,,,,,,,,,,,,,,,,,,,,1134.291863606777,None,,,1137.325090111699,None,1.5158730158730158,1.3542675990611315,1137.325090111699,None,,,,,1120.325407535769,None,1135.2920489469543,None,1135.4754387335852,1135.492066630628,,,,,,,153,001,2024_Jan_23_1147,SpeechDraft1Carolyn_lessNoise_PlusLocalization,2021.2.3,59.971909195174824,
,,,,,,,,center,0.0,6,ch1Sound_localizationTask.wav,0.0,"(952, 878)","(-8,-202)",0,-338,,,,,,,,,,,,,0,1,1,3,,,,,,,,,,,,,,,,,,,,,,,,,,,,,,,,,,,,,,,,1138.6770099466667,None,,,1141.7084836666472,None,1.5084656084656085,0.06663864571601152,1141.7084836666472,None,,,,,,,1139.692200215999,None,1139.8754213196225,1139.8921561590396,,,,,,,153,001,2024_Jan_23_1147,SpeechDraft1Carolyn_lessNoise_PlusLocalization,2021.2.3,59.971909195174824,
,,,,,,,,nearRight,6.5,0,ch1Sound_localizationTask.wav,6.5,"(1047, 878)","(87, -202)",95,-338,,,,,,,,,,,,,0,2,2,4,,,,,,,,,,,,,,,,,,,,,,,,,,,,,,,,,,,,,,,,1141.7765958937816,None,,,1144.8085214537568,None,1.5555555555555556,0.6161317802034318,1144.8085214537568,None,,,,,,,1142.7920791059732,None,1142.975488993805,1142.9921664856374,,,,,,,153,001,2024_Jan_23_1147,SpeechDraft1Carolyn_lessNoise_PlusLocalization,2021.2.3,59.971909195174824,
,,,,,,,,center,0.0,6,ch1Sound_localizationTask.wav,0.0,"(952, 878)","(-8,-202)",0,-338,,,,,,,,,,,,,0,3,3,3,,,,,,,,,,,,,,,,,,,,,,,,,,,,,,,,,,,,,,,,1145.42657798063,None,,,1148.4586001299322,None,1.4952380952380953,0.7664801976643503,1148.4586001299322,None,,,,,,,1146.4420394566841,None,1146.625486060977,1146.642069639638,,,,,,,153,001,2024_Jan_23_1147,SpeechDraft1Carolyn_lessNoise_PlusLocalization,2021.2.3,59.971909195174824,
,,,,,,,,midLeft,-13.0,2,ch1Sound_localizationTask.wav,-13.0,"(762, 878)","(-198,-202)",-190,-338,,,,,,,,,,,,,0,4,4,1,,,,,,,,,,,,,,,,,,,,,,,,,,,,,,,,,,,,,,,,1149.2421698519029,None,,,1152.2585303359665,None,1.37989417989418,0.7499756920151412,1152.2585303359665,None,,,,,,,1150.242070871871,None,1150.4254446290433,1150.4422059776261,,,,,,,153,001,2024_Jan_23_1147,SpeechDraft1Carolyn_lessNoise_PlusLocalization,2021.2.3,59.971909195174824,
,,,,,,,,center,0.0,6,ch1Sound_localizationTask.wav,0.0,"(952, 878)","(-8,-202)",0,-338,,,,,,,,,,,,,0,5,5,3,,,,,,,,,,,,,,,,,,,,,,,,,,,,,,,,,,,,,,,,1153.0256807776168,None,,,1156.041959428694,None,1.493121693121693,0.28293914161622524,1156.041959428694,None,,,,,,,1154.0253134476952,None,1154.2088694097474,1154.2254003388807,,,,,,,153,001,2024_Jan_23_1147,SpeechDraft1Carolyn_lessNoise_PlusLocalization,2021.2.3,59.971909195174824,
,,,,,,,,nearRight,6.5,0,ch1Sound_localizationTask.wav,6.5,"(1047, 878)","(87, -202)",95,-338,,,,,,,,,,,,,0,6,6,4,,,,,,,,,,,,,,,,,,,,,,,,,,,,,,,,,,,,,,,,1156.3265956826508,None,,,1159.3584828986786,None,1.5693121693121692,0.7997732949443161,1159.3584828986786,None,,,,,,,1157.3421785240062,None,1157.5255526369438,1157.5422110119835,,,,,,,153,001,2024_Jan_23_1147,SpeechDraft1Carolyn_lessNoise_PlusLocalization,2021.2.3,59.971909195174824,
,,,,,,,,nearRight,6.5,0,ch1Sound_localizationTask.wav,6.5,"(1047, 878)","(87, -202)",95,-338,,,,,,,,,,,,,1,0,7,4,,,,,,,,,,,,,,,,,,,,,,,,,,,,,,,,,,,,,,,,1160.1754867457785,None,,,1163.1918322448619,None,1.5476190476190477,0.9324189638718963,1163.1918322448619,None,,,,,,,1161.1754143717699,None,1161.358831374906,1161.3754223999567,,,,,,,153,001,2024_Jan_23_1147,SpeechDraft1Carolyn_lessNoise_PlusLocalization,2021.2.3,59.971909195174824,
,,,,,,,,nearRight,6.5,0,ch1Sound_localizationTask.wav,6.5,"(1047, 878)","(87, -202)",95,-338,,,,,,,,,,,,,1,1,8,4,,,,,,,,,,,,,,,,,,,,,,,,,,,,,,,,,,,,,,,,1164.1259544999339,None,,,1167.1419573458843,None,1.5502645502645502,0.3331889742985368,1167.1419573458843,None,,,,,,,1165.1254503638484,None,1165.3088321490213,1165.325482683722,,,,,,,153,001,2024_Jan_23_1147,SpeechDraft1Carolyn_lessNoise_PlusLocalization,2021.2.3,59.971909195174824,
,,,,,,,,farLeft,-19.1,5,ch1Sound_localizationTask.wav,-19.1,"(667, 878)","(-293,-202)",-285,-338,,,,,,,,,,,,,1,2,9,0,,,,,,,,,,,,,,,,,,,,,,,,,,,,,,,,,,,,,,,,1167.492248965893,None,,,1170.5088716000319,None,1.3746031746031746,0.9319520252756774,1170.5088716000319,None,,,,,,,1168.4921729206108,None,1168.6753611899912,1168.6921990239061,,,,,,,153,001,2024_Jan_23_1147,SpeechDraft1Carolyn_lessNoise_PlusLocalization,2021.2.3,59.971909195174824,
,,,,,,,,farRight,19.1,4,ch1Sound_localizationTask.wav,19.1,"(1237, 878)","(277,-202)",285,-338,,,,,,,,,,,,,1,3,10,6,,,,,,,,,,,,,,,,,,,,,,,,,,,,,,,,,,,,,,,,1171.4426445267163,None,,,1174.4585228096694,None,1.6386243386243386,0.8655441929586232,1174.4585228096694,None,,,,,,,1172.4421865260229,None,1172.62553017959,1172.642149321735,,,,,,,153,001,2024_Jan_23_1147,SpeechDraft1Carolyn_lessNoise_PlusLocalization,2021.2.3,59.971909195174824,
,,,,,,,,nearLeft,-6.5,1,ch1Sound_localizationTask.wav,-6.5,"(857, 878)","(-103,-202)",-95,-338,,,,,,,,,,,,,1,4,11,2,,,,,,,,,,,,,,,,,,,,,,,,,,,,,,,,,,,,,,,,1175.3260136218742,None,,,1178.3419183297083,None,1.4402116402116403,0.9991960823535919,1178.3419183297083,None,,,,,,,1176.325408232864,None,1176.5089161037467,1176.5255474047735,,,,,,,153,001,2024_Jan_23_1147,SpeechDraft1Carolyn_lessNoise_PlusLocalization,2021.2.3,59.971909195174824,
,,,,,,,,midRight,13.0,3,ch1Sound_localizationTask.wav,13.0,"(1142, 878)","(182, -202)",190,-338,,,,,,,,,,,,,1,5,12,5,,,,,,,,,,,,,,,,,,,,,,,,,,,,,,,,,,,,,,,,1179.343388194684,None,,,1182.3751745289192,None,1.588888888888889,0.7487882678397,1182.3751745289192,None,,,,,,,1180.3588853157125,None,1180.5422767619602,1180.5588667066768,,,,,,,153,001,2024_Jan_23_1147,SpeechDraft1Carolyn_lessNoise_PlusLocalization,2021.2.3,59.971909195174824,
,,,,,,,,midRight,13.0,3,ch1Sound_localizationTask.wav,13.0,"(1142, 878)","(182, -202)",190,-338,,,,,,,,,,,,,1,6,13,5,,,,,,,,,,,,,,,,,,,,,,,,,,,,,,,,,,,,,,,,1183.1261914595962,None,,,1186.1418025759049,None,1.565079365079365,0.2984032719396055,1186.1418025759049,None,,,,,,,1184.1255675880238,None,1184.309010475874,1184.3255962566473,,,,,,,153,001,2024_Jan_23_1147,SpeechDraft1Carolyn_lessNoise_PlusLocalization,2021.2.3,59.971909195174824,
,,,,,,,,nearLeft,-6.5,1,ch1Sound_localizationTask.wav,-6.5,"(857, 878)","(-103,-202)",-95,-338,,,,,,,,,,,,,2,0,14,2,,,,,,,,,,,,,,,,,,,,,,,,,,,,,,,,,,,,,,,,1186.443818540778,None,,,1189.4751623668708,None,1.4370370370370371,0.802063622046262,1189.4751623668708,None,,,,,,,1187.458919910714,None,1187.6421223180369,1187.659027685877,,,,,,,153,001,2024_Jan_23_1147,SpeechDraft1Carolyn_lessNoise_PlusLocalization,2021.2.3,59.971909195174824,
,,,,,,,,midRight,13.0,3,ch1Sound_localizationTask.wav,13.0,"(1142, 878)","(182, -202)",190,-338,,,,,,,,,,,,,2,1,15,5,,,,,,,,,,,,,,,,,,,,,,,,,,,,,,,,,,,,,,,,1190.2922407318838,None,,,1193.3087522038259,None,1.5873015873015874,0.7490567620843649,1193.3087522038259,None,,,,,,,1191.2921892628074,None,1191.4755053739063,1191.4921710947528,,,,,,,153,001,2024_Jan_23_1147,SpeechDraft1Carolyn_lessNoise_PlusLocalization,2021.2.3,59.971909195174824,
,,,,,,,,farRight,19.1,4,ch1Sound_localizationTask.wav,19.1,"(1237, 878)","(277,-202)",285,-338,,,,,,,,,,,,,2,2,16,6,,,,,,,,,,,,,,,,,,,,,,,,,,,,,,,,,,,,,,,,1194.0598556608893,None,,,1197.0751611376181,None,1.6444444444444444,0.7822162732481956,1197.0751611376181,None,,,,,,,1195.0588841517456,None,1195.2422973760404,1195.25890991278,,,,,,,153,001,2024_Jan_23_1147,SpeechDraft1Carolyn_lessNoise_PlusLocalization,2021.2.3,59.971909195174824,
,,,,,,,,midRight,13.0,3,ch1Sound_localizationTask.wav,13.0,"(1142, 878)","(182, -202)",190,-338,,,,,,,,,,,,,2,3,17,5,,,,,,,,,,,,,,,,,,,,,,,,,,,,,,,,,,,,,,,,1197.8601107178256,None,,,1200.8920311108232,None,1.574074074074074,0.7492835531011224,1200.8920311108232,None,,,,,,,1198.8755337917246,None,1199.0589458937757,1199.0755553520285,,,,,,,153,001,2024_Jan_23_1147,SpeechDraft1Carolyn_lessNoise_PlusLocalization,2021.2.3,59.971909195174824,
,,,,,,,,midLeft,-13.0,2,ch1Sound_localizationTask.wav,-13.0,"(762, 878)","(-198,-202)",-190,-338,,,,,,,,,,,,,2,4,18,1,,,,,,,,,,,,,,,,,,,,,,,,,,,,,,,,,,,,,,,,1201.6433873879723,None,,,1204.6751467566937,None,1.4010582010582011,0.6819086666218936,1204.6751467566937,None,,,,,,,1202.658948336728,None,1202.8421767586842,1202.8589135436341,,,,,,,153,001,2024_Jan_23_1147,SpeechDraft1Carolyn_lessNoise_PlusLocalization,2021.2.3,59.971909195174824,
,,,,,,,,midLeft,-13.0,2,ch1Sound_localizationTask.wav,-13.0,"(762, 878)","(-198,-202)",-190,-338,,,,,,,,,,,,,2,5,19,1,,,,,,,,,,,,,,,,,,,,,,,,,,,,,,,,,,,,,,,,1205.3604499585927,None,,,1208.3918738928623,None,1.3873015873015873,0.882316404953599,1208.3918738928623,None,,,,,,,1206.3755372087471,None,1206.5589458537288,1206.5754849966615,,,,,,,153,001,2024_Jan_23_1147,SpeechDraft1Carolyn_lessNoise_PlusLocalization,2021.2.3,59.971909195174824,
,,,,,,,,farRight,19.1,4,ch1Sound_localizationTask.wav,19.1,"(1237, 878)","(277,-202)",285,-338,,,,,,,,,,,,,2,6,20,6,,,,,,,,,,,,,,,,,,,,,,,,,,,,,,,,,,,,,,,,1209.2762380810454,None,,,1212.2918598540127,None,1.6481481481481481,1.150349359959364,1212.2918598540127,None,,,,,,,1210.2755336388946,None,1210.4589126277715,1210.475518408697,,,,,,,153,001,2024_Jan_23_1147,SpeechDraft1Carolyn_lessNoise_PlusLocalization,2021.2.3,59.971909195174824,
,,,,,,,,midRight,13.0,3,ch1Sound_localizationTask.wav,13.0,"(1142, 878)","(182, -202)",190,-338,,,,,,,,,,,,,3,0,21,5,,,,,,,,,,,,,,,,,,,,,,,,,,,,,,,,,,,,,,,,1213.45907306578,None,,,1216.4752333099023,None,1.5825396825396827,0.7990233451128006,1216.4752333099023,None,,,,,,,1214.4588533858769,None,1214.6422081198543,1214.6588791338727,,,,,,,153,001,2024_Jan_23_1147,SpeechDraft1Carolyn_lessNoise_PlusLocalization,2021.2.3,59.971909195174824,
,,,,,,,,center,0.0,6,ch1Sound_localizationTask.wav,0.0,"(952, 878)","(-8,-202)",0,-338,,,,,,,,,,,,,3,1,22,3,,,,,,,,,,,,,,,,,,,,,,,,,,,,,,,,,,,,,,,,1217.276093415916,None,,,1220.2918370878324,None,1.5074074074074075,0.665730542037636,1220.2918370878324,None,,,,,,,1218.2755271098576,None,1218.4588354709558,1218.4754871437326,,,,,,,153,001,2024_Jan_23_1147,SpeechDraft1Carolyn_lessNoise_PlusLocalization,2021.2.3,59.971909195174824,
,,,,,,,,farRight,19.1,4,ch1Sound_localizationTask.wav,19.1,"(1237, 878)","(277,-202)",285,-338,,,,,,,,,,,,,3,2,23,6,,,,,,,,,,,,,,,,,,,,,,,,,,,,,,,,,,,,,,,,1220.9600204466842,None,,,1223.9920278047211,None,1.6534391534391535,0.549384294077754,1223.9920278047211,None,,,,,,,1221.9755419669673,None,1222.1590684149414,1222.175611604005,,,,,,,153,001,2024_Jan_23_1147,SpeechDraft1Carolyn_lessNoise_PlusLocalization,2021.2.3,59.971909195174824,
,,,,,,,,nearRight,6.5,0,ch1Sound_localizationTask.wav,6.5,"(1047, 878)","(87, -202)",95,-338,,,,,,,,,,,,,3,3,24,4,,,,,,,,,,,,,,,,,,,,,,,,,,,,,,,,,,,,,,,,1224.5438982038759,None,,,1227.5753558138385,None,1.561904761904762,0.7161597679369152,1227.5753558138385,None,,,,,,,1225.5589541639201,None,1225.7422518176027,1225.7589211496525,,,,,,,153,001,2024_Jan_23_1147,SpeechDraft1Carolyn_lessNoise_PlusLocalization,2021.2.3,59.971909195174824,
,,,,,,,,midRight,13.0,3,ch1Sound_localizationTask.wav,13.0,"(1142, 878)","(182, -202)",190,-338,,,,,,,,,,,,,3,4,25,5,,,,,,,,,,,,,,,,,,,,,,,,,,,,,,,,,,,,,,,,1228.308920012787,None,,,1231.3252237238921,None,1.5873015873015874,0.3672737078741193,1231.3252237238921,None,,,,,,,1229.308968207799,None,1229.4922080850229,1229.5088249137625,,,,,,,153,001,2024_Jan_23_1147,SpeechDraft1Carolyn_lessNoise_PlusLocalization,2021.2.3,59.971909195174824,
,,,,,,,,midLeft,-13.0,2,ch1Sound_localizationTask.wav,-13.0,"(762, 878)","(-198,-202)",-190,-338,,,,,,,,,,,,,3,5,26,1,,,,,,,,,,,,,,,,,,,,,,,,,,,,,,,,,,,,,,,,1231.708945744671,None,,,1234.7252569627017,None,1.4047619047619047,0.698796923737973,1234.7252569627017,None,,,,,,,1232.7089155288413,None,1232.8923338837922,1232.9089953838848,,,,,,,153,001,2024_Jan_23_1147,SpeechDraft1Carolyn_lessNoise_PlusLocalization,2021.2.3,59.971909195174824,
,,,,,,,,nearRight,6.5,0,ch1Sound_localizationTask.wav,6.5,"(1047, 878)","(87, -202)",95,-338,,,,,,,,,,,,,3,6,27,4,,,,,,,,,,,,,,,,,,,,,,,,,,,,,,,,,,,,,,,,1235.4264918835834,None,,,1238.442040453665,None,1.5523809523809524,0.7327339872717857,1238.442040453665,None,,,,,,,1236.4255940876901,None,1236.6089374655858,1236.625574560836,,,,,,,153,001,2024_Jan_23_1147,SpeechDraft1Carolyn_lessNoise_PlusLocalization,2021.2.3,59.971909195174824,
,,,,,,,,farLeft,-19.1,5,ch1Sound_localizationTask.wav,-19.1,"(667, 878)","(-293,-202)",-285,-338,,,,,,,,,,,,,4,0,28,0,,,,,,,,,,,,,,,,,,,,,,,,,,,,,,,,,,,,,,,,1239.177436820697,None,,,1242.2087355647236,None,1.3412698412698414,1.2316356031224132,1242.2087355647236,None,,,,,,,1240.1921590827405,None,1240.3755871066824,1240.3922030739486,,,,,,,153,001,2024_Jan_23_1147,SpeechDraft1Carolyn_lessNoise_PlusLocalization,2021.2.3,59.971909195174824,
,,,,,,,,farLeft,-19.1,5,ch1Sound_localizationTask.wav,-19.1,"(667, 878)","(-293,-202)",-285,-338,,,,,,,,,,,,,4,1,29,0,,,,,,,,,,,,,,,,,,,,,,,,,,,,,,,,,,,,,,,,1243.4427733989432,None,,,1246.4587006419897,None,1.334920634920635,0.5661267330870032,1246.4587006419897,None,,,,,,,1244.4421952059492,None,1244.6255516707897,1244.6421982296742,,,,,,,153,001,2024_Jan_23_1147,SpeechDraft1Carolyn_lessNoise_PlusLocalization,2021.2.3,59.971909195174824,
,,,,,,,,farRight,19.1,4,ch1Sound_localizationTask.wav,19.1,"(1237, 878)","(277,-202)",285,-338,,,,,,,,,,,,,4,2,30,6,,,,,,,,,,,,,,,,,,,,,,,,,,,,,,,,,,,,,,,,1247.0424159527756,None,,,1250.0588043597527,None,1.6216931216931219,0.9652142273262143,1250.0588043597527,None,,,,,,,1248.042369083967,None,1248.2256062636152,1248.2423651819117,,,,,,,153,001,2024_Jan_23_1147,SpeechDraft1Carolyn_lessNoise_PlusLocalization,2021.2.3,59.971909195174824,
,,,,,,,,farLeft,-19.1,5,ch1Sound_localizationTask.wav,-19.1,"(667, 878)","(-293,-202)",-285,-338,,,,,,,,,,,,,4,3,31,0,,,,,,,,,,,,,,,,,,,,,,,,,,,,,,,,,,,,,,,,1251.026218904648,None,,,1254.0419632336125,None,1.3507936507936509,0.933026660233736,1254.0419632336125,None,,,,,,,1252.025654281024,None,1252.209016550798,1252.2256530779414,,,,,,,153,001,2024_Jan_23_1147,SpeechDraft1Carolyn_lessNoise_PlusLocalization,2021.2.3,59.971909195174824,
,,,,,,,,farLeft,-19.1,5,ch1Sound_localizationTask.wav,-19.1,"(667, 878)","(-293,-202)",-285,-338,,,,,,,,,,,,,4,4,32,0,,,,,,,,,,,,,,,,,,,,,,,,,,,,,,,,,,,,,,,,1254.9924864997156,None,,,1258.0087076700293,None,1.3375661375661376,0.7494597961194813,1258.0087076700293,None,,,,,,,1255.9922982268035,None,1256.175722041633,1256.1922587268054,,,,,,,153,001,2024_Jan_23_1147,SpeechDraft1Carolyn_lessNoise_PlusLocalization,2021.2.3,59.971909195174824,
,,,,,,,,farLeft,-19.1,5,ch1Sound_localizationTask.wav,-19.1,"(667, 878)","(-293,-202)",-285,-338,,,,,,,,,,,,,4,5,33,0,,,,,,,,,,,,,,,,,,,,,,,,,,,,,,,,,,,,,,,,1258.7757922098972,None,,,1261.7920060707256,None,1.3333333333333333,0.5326984650455415,1261.7920060707256,None,,,,,,,1259.7755206800066,None,1259.9589740927331,1259.975564751774,,,,,,,153,001,2024_Jan_23_1147,SpeechDraft1Carolyn_lessNoise_PlusLocalization,2021.2.3,59.971909195174824,
,,,,,,,,midRight,13.0,3,ch1Sound_localizationTask.wav,13.0,"(1142, 878)","(182, -202)",190,-338,,,,,,,,,,,,,4,6,34,5,,,,,,,,,,,,,,,,,,,,,,,,,,,,,,,,,,,,,,,,1262.3268775600009,None,,,1265.35857023485,None,1.6031746031746033,0.931953052058816,1265.35857023485,None,,,,,,,1263.3422625018284,None,1263.5255704820156,1263.5422601159662,,,,,,,153,001,2024_Jan_23_1147,SpeechDraft1Carolyn_lessNoise_PlusLocalization,2021.2.3,59.971909195174824,
,,,,,,,,midLeft,-13.0,2,ch1Sound_localizationTask.wav,-13.0,"(762, 878)","(-198,-202)",-190,-338,,,,,,,,,,,,,5,0,35,1,,,,,,,,,,,,,,,,,,,,,,,,,,,,,,,,,,,,,,,,1266.2927756719291,None,,,1269.3085914757103,None,1.3968253968253967,0.8991270619444549,1269.3085914757103,None,,,,,,,1267.2922911238857,None,1267.4756163316779,1267.4922085786238,,,,,,,153,001,2024_Jan_23_1147,SpeechDraft1Carolyn_lessNoise_PlusLocalization,2021.2.3,59.971909195174824,
,,,,,,,,farRight,19.1,4,ch1Sound_localizationTask.wav,19.1,"(1237, 878)","(277,-202)",285,-338,,,,,,,,,,,,,5,1,36,6,,,,,,,,,,,,,,,,,,,,,,,,,,,,,,,,,,,,,,,,1270.2101735118777,None,,,1273.2419446506537,None,1.644973544973545,0.8486486836336553,1273.2419446506537,None,,,,,,,1271.2255642008968,None,1271.4090016027912,1271.425611213781,,,,,,,153,001,2024_Jan_23_1147,SpeechDraft1Carolyn_lessNoise_PlusLocalization,2021.2.3,59.971909195174824,
,,,,,,,,center,0.0,6,ch1Sound_localizationTask.wav,0.0,"(952, 878)","(-8,-202)",0,-338,,,,,,,,,,,,,5,2,37,3,,,,,,,,,,,,,,,,,,,,,,,,,,,,,,,,,,,,,,,,1274.0935654146597,None,,,1277.1252893339843,None,1.505820105820106,1.566294128075242,1277.1252893339843,None,,,,,,,1275.1089566210285,None,1275.2924283826724,1275.3089829129167,,,,,,,153,001,2024_Jan_23_1147,SpeechDraft1Carolyn_lessNoise_PlusLocalization,2021.2.3,59.971909195174824,
,,,,,,,,nearRight,6.5,0,ch1Sound_localizationTask.wav,6.5,"(1047, 878)","(87, -202)",95,-338,,,,,,,,,,,,,5,3,38,4,,,,,,,,,,,,,,,,,,,,,,,,,,,,,,,,,,,,,,,,1278.7091522468254,None,,,1281.7254238799214,None,1.5486772486772487,0.76595609029755,1281.7254238799214,None,,,,,,,1279.708905254025,None,1279.8922714949585,1279.9088863558136,,,,,,,153,001,2024_Jan_23_1147,SpeechDraft1Carolyn_lessNoise_PlusLocalization,2021.2.3,59.971909195174824,
,,,,,,,,nearLeft,-6.5,1,ch1Sound_localizationTask.wav,-6.5,"(857, 878)","(-103,-202)",-95,-338,,,,,,,,,,,,,5,4,39,2,,,,,,,,,,,,,,,,,,,,,,,,,,,,,,,,,,,,,,,,1282.4935067067854,None,,,1285.5253942427225,None,1.4328042328042327,0.8359345546923578,1285.5253942427225,None,,,,,,,1283.5090747820213,None,1283.6923691956326,1283.7090825778432,,,,,,,153,001,2024_Jan_23_1147,SpeechDraft1Carolyn_lessNoise_PlusLocalization,2021.2.3,59.971909195174824,
,,,,,,,,midLeft,-13.0,2,ch1Sound_localizationTask.wav,-13.0,"(762, 878)","(-198,-202)",-190,-338,,,,,,,,,,,,,5,5,40,1,,,,,,,,,,,,,,,,,,,,,,,,,,,,,,,,,,,,,,,,1286.3770715659484,None,,,1289.4086935748346,None,1.3650793650793651,0.7331446739844978,1289.4086935748346,None,,,,,,,1287.3923053648323,None,1287.5756231718697,1287.592432322912,,,,,,,153,001,2024_Jan_23_1147,SpeechDraft1Carolyn_lessNoise_PlusLocalization,2021.2.3,59.971909195174824,
,,,,,,,,nearLeft,-6.5,1,ch1Sound_localizationTask.wav,-6.5,"(857, 878)","(-103,-202)",-95,-338,,,,,,,,,,,,,5,6,41,2,,,,,,,,,,,,,,,,,,,,,,,,,,,,,,,,,,,,,,,,1290.159119384829,None,,,1293.1754761529155,None,1.4317460317460318,0.6649109800346196,1293.1754761529155,None,,,,,,,1291.1589610278606,None,1291.3423886136152,1291.3590246918611,,,,,,,153,001,2024_Jan_23_1147,SpeechDraft1Carolyn_lessNoise_PlusLocalization,2021.2.3,59.971909195174824,
,,,,,,,,nearLeft,-6.5,1,ch1Sound_localizationTask.wav,-6.5,"(857, 878)","(-103,-202)",-95,-338,,,,,,,,,,,,,6,0,42,2,,,,,,,,,,,,,,,,,,,,,,,,,,,,,,,,,,,,,,,,1293.8427567067556,None,,,1296.858842367772,None,1.452910052910053,1.4338407372124493,1296.858842367772,None,,,,,,,1294.8423187006265,None,1295.0257188170217,1295.0423613940366,,,,,,,153,001,2024_Jan_23_1147,SpeechDraft1Carolyn_lessNoise_PlusLocalization,2021.2.3,59.971909195174824,
,,,,,,,,farRight,19.1,4,ch1Sound_localizationTask.wav,19.1,"(1237, 878)","(277,-202)",285,-338,,,,,,,,,,,,,6,1,43,6,,,,,,,,,,,,,,,,,,,,,,,,,,,,,,,,,,,,,,,,1298.309022958856,None,,,1301.3254254157655,None,1.6375661375661377,0.8988326229155064,1301.3254254157655,None,,,,,,,1299.3090379280038,None,1299.4922803957015,1299.5089710117318,,,,,,,153,001,2024_Jan_23_1147,SpeechDraft1Carolyn_lessNoise_PlusLocalization,2021.2.3,59.971909195174824,
,,,,,,,,midLeft,-13.0,2,ch1Sound_localizationTask.wav,-13.0,"(762, 878)","(-198,-202)",-190,-338,,,,,,,,,,,,,6,2,44,1,,,,,,,,,,,,,,,,,,,,,,,,,,,,,,,,,,,,,,,,1302.2266940097325,None,,,1305.2421094649471,None,1.3862433862433863,1.1988133359700441,1305.2421094649471,None,,,,,,,1303.2257109507918,None,1303.4089780519716,1303.4257014496252,,,,,,,153,001,2024_Jan_23_1147,SpeechDraft1Carolyn_lessNoise_PlusLocalization,2021.2.3,59.971909195174824,
,,,,,,,,nearRight,6.5,0,ch1Sound_localizationTask.wav,6.5,"(1047, 878)","(87, -202)",95,-338,,,,,,,,,,,,,6,3,45,4,,,,,,,,,,,,,,,,,,,,,,,,,,,,,,,,,,,,,,,,1306.4432412916794,None,,,1309.458825500682,None,1.5396825396825395,0.7166202878579497,1309.458825500682,None,,,,,,,1307.4424112415873,None,1307.6258100178093,1307.642362399958,,,,,,,153,001,2024_Jan_23_1147,SpeechDraft1Carolyn_lessNoise_PlusLocalization,2021.2.3,59.971909195174824,
,,,,,,,,farLeft,-19.1,5,ch1Sound_localizationTask.wav,-19.1,"(667, 878)","(-293,-202)",-285,-338,,,,,,,,,,,,,6,4,46,0,,,,,,,,,,,,,,,,,,,,,,,,,,,,,,,,,,,,,,,,1310.1924152998254,None,,,1313.208771775011,None,1.3306878306878307,0.8655841620638967,1313.208771775011,None,,,,,,,1311.1924801017158,None,1311.3759296359494,1311.3923474056646,,,,,,,153,001,2024_Jan_23_1147,SpeechDraft1Carolyn_lessNoise_PlusLocalization,2021.2.3,59.971909195174824,
,,,,,,,,center,0.0,6,ch1Sound_localizationTask.wav,0.0,"(952, 878)","(-8,-202)",0,-338,,,,,,,,,,,,,6,5,47,3,,,,,,,,,,,,,,,,,,,,,,,,,,,,,,,,,,,,,,,,1314.0768143679015,None,,,1317.1087538008578,None,1.4973544973544972,0.7331082317978144,1317.1087538008578,None,,,,,,,1315.0924490378238,None,1315.2756022210233,1315.2923809019849,,,,,,,153,001,2024_Jan_23_1147,SpeechDraft1Carolyn_lessNoise_PlusLocalization,2021.2.3,59.971909195174824,
,,,,,,,,center,0.0,6,ch1Sound_localizationTask.wav,0.0,"(952, 878)","(-8,-202)",0,-338,,,,,,,,,,,,,6,6,48,3,,,,,,,,,,,,,,,,,,,,,,,,,,,,,,,,,,,,,,,,1317.8435356477275,None,,,1320.8755097109824,None,1.4973544973544972,0.06627739500254393,1320.8755097109824,None,,,,,,,1318.859008481726,None,1319.0423864759505,1319.0590324667282,,,,,,,153,001,2024_Jan_23_1147,SpeechDraft1Carolyn_lessNoise_PlusLocalization,2021.2.3,59.971909195174824,
,,,,,,,,midRight,13.0,3,ch1Sound_localizationTask.wav,13.0,"(1142, 878)","(182, -202)",190,-338,,,,,,,,,,,,,7,0,49,5,,,,,,,,,,,,,,,,,,,,,,,,,,,,,,,,,,,,,,,,1320.9435793086886,None,,,1323.975575612858,None,1.5920634920634922,0.8325161058455706,1323.975575612858,None,,,,,,,1321.9589364170097,None,1322.1423749988899,1322.1590771107003,,,,,,,153,001,2024_Jan_23_1147,SpeechDraft1Carolyn_lessNoise_PlusLocalization,2021.2.3,59.971909195174824,
,,,,,,,,midLeft,-13.0,2,ch1Sound_localizationTask.wav,-13.0,"(762, 878)","(-198,-202)",-190,-338,,,,,,,,,,,,,7,1,50,1,,,,,,,,,,,,,,,,,,,,,,,,,,,,,,,,,,,,,,,,1324.8101823139004,None,,,1327.8421011497267,None,1.4142857142857141,0.8662486439570785,1327.8421011497267,None,,,,,,,1325.825727622956,None,1326.009011035785,1326.0256709959358,,,,,,,153,001,2024_Jan_23_1147,SpeechDraft1Carolyn_lessNoise_PlusLocalization,2021.2.3,59.971909195174824,
,,,,,,,,nearLeft,-6.5,1,ch1Sound_localizationTask.wav,-6.5,"(857, 878)","(-103,-202)",-95,-338,,,,,,,,,,,,,7,2,51,2,,,,,,,,,,,,,,,,,,,,,,,,,,,,,,,,,,,,,,,,1328.7104331189767,None,,,1331.7421151008457,None,1.4375661375661375,0.7996818530373275,1331.7421151008457,None,,,,,,,1329.7256282819435,None,1329.9090445796028,1329.9256720198318,,,,,,,153,001,2024_Jan_23_1147,SpeechDraft1Carolyn_lessNoise_PlusLocalization,2021.2.3,59.971909195174824,
,,,,,,,,farRight,19.1,4,ch1Sound_localizationTask.wav,19.1,"(1237, 878)","(277,-202)",285,-338,,,,,,,,,,,,,7,3,52,6,,,,,,,,,,,,,,,,,,,,,,,,,,,,,,,,,,,,,,,,1332.5434560975991,None,,,1335.558705213014,None,1.6539682539682539,0.8492462392896414,1335.558705213014,None,,,,,,,1333.5425429069437,None,1333.7257977477275,1333.74250225164,,,,,,,153,001,2024_Jan_23_1147,SpeechDraft1Carolyn_lessNoise_PlusLocalization,2021.2.3,59.971909195174824,
,,,,,,,,farLeft,-19.1,5,ch1Sound_localizationTask.wav,-19.1,"(667, 878)","(-293,-202)",-285,-338,,,,,,,,,,,,,7,4,53,0,,,,,,,,,,,,,,,,,,,,,,,,,,,,,,,,,,,,,,,,1336.4258669270203,None,,,1339.4420556966215,None,1.3396825396825398,0.715987304225564,1339.4420556966215,None,,,,,,,1337.4256815719418,None,1337.6091185607947,1337.6257270728238,,,,,,,153,001,2024_Jan_23_1147,SpeechDraft1Carolyn_lessNoise_PlusLocalization,2021.2.3,59.971909195174824,
,,,,,,,,nearLeft,-6.5,1,ch1Sound_localizationTask.wav,-6.5,"(857, 878)","(-103,-202)",-95,-338,,,,,,,,,,,,,7,5,54,2,,,,,,,,,,,,,,,,,,,,,,,,,,,,,,,,,,,,,,,,1340.160187435802,None,,,1343.1921926247887,None,1.4481481481481482,0.8829607381485403,1343.1921926247887,None,,,,,,,1341.1757443370298,None,1341.3590577156283,1341.3756480868906,,,,,,,153,001,2024_Jan_23_1147,SpeechDraft1Carolyn_lessNoise_PlusLocalization,2021.2.3,59.971909195174824,
,,,,,,,,nearLeft,-6.5,1,ch1Sound_localizationTask.wav,-6.5,"(857, 878)","(-103,-202)",-95,-338,,,,,,,,,,,,,7,6,55,2,,,,,,,,,,,,,,,,,,,,,,,,,,,,,,,,,,,,,,,,1344.0924197817221,None,,,1347.1087807756849,None,1.433862433862434,0.6149623449891806,1347.1087807756849,None,,,,,,,1345.0924278749153,None,1345.2758108326234,1345.2923711990006,,,,,,,153,001,2024_Jan_23_1147,SpeechDraft1Carolyn_lessNoise_PlusLocalization,2021.2.3,59.971909195174824,
,,,,,,,,,,,,,,,,,,,,,,,,,,,,,,,,,,,,,,,,,,,,,,,,,,,,,,,,,,,,,,,,,,,,,,,,,,,,,,,,,,,,,,,,,,,,1347.7267605168745,None,c,24.800442236941308,1348.7091294419952,None,153,001,2024_Jan_23_1147,SpeechDraft1Carolyn_lessNoise_PlusLocalization,2021.2.3,59.971909195174824,
